File: 01_Data/Overstuffed_Chair/Cone/Overstuffed_Chair_Cone_HF50Scan_210326_R2.csv
Names,Time,Stack TC,Smoke TC,Exh Press,Smoke Comp,Smoke Meas,CO Meter,CO2 Meter,O2 Meter,Sample Mass,Ext Coeff,Start Test,Flame Verif
Chan Gain,,500,500,1,1,1,1,1,1,1,1,1.0,1.0
Offset,,0,0,0.138348,0,0,0,0,0,0,0,0.0,0.0
Gain,,1,1,25.011,13.5067,16.616,1,1,1,1.00091,1.04608,1.0,1.0
Units,sec,C,C,Pa,%,%,%,%,%,g,/m,,
Baseline,,31.7409,34.0601,159.218,101.508,98.2632,-0.000664077,0.0648629,20.9236,-0.013554,0.298143,,
2,0.25,28.2357,29.4451,161.466,101.72,98.4185,-0.000815261,0.0721944,20.9156,487.814,0.302747,0.0,0.0
4,0.75,27.5701,29.0741,160.632,101.712,98.3992,-0.000846059,0.0724095,20.9153,487.764,0.3038,0.0,0.0
6,1.25,28.1685,29.334,158.024,101.719,98.4884,-0.000871005,0.0725973,20.9155,487.724,0.29615,0.0,0.0
8,1.75,28.0825,29.5345,157.327,101.719,98.3561,-0.000893647,0.0727494,20.9156,488.204,0.308453,0.0,0.0
10,2.25,28.1156,29.6594,161.202,101.721,98.3815,-0.000911987,0.0728869,20.9157,487.304,0.30631,0.0,0.0
12,2.75,28.0023,29.6398,159.684,101.702,98.5118,-0.000921714,0.073011,20.9158,488.645,0.292453,0.0,0.0
14,3.25,28.3451,29.982,159.361,101.726,98.3475,-0.000924979,0.0730973,20.9159,489.035,0.309963,0.0,0.0
16,3.75,27.9183,30.2322,157.015,101.704,98.6213,-0.000927623,0.0731544,20.916,487.904,0.282405,0.0,0.0
18,4.25,28.3366,30.0157,157.758,101.718,98.5209,-0.000929765,0.0731936,20.916,488.194,0.293016,0.0,0.0
20,4.75,28.4589,30.2146,157.892,101.707,98.632,-0.00091163,0.0732189,20.9161,487.764,0.281749,0.0,0.0
22,5.25,28.3838,29.6396,158.561,101.724,98.3541,-0.000879057,0.0733105,20.9156,487.574,0.309162,0.0,0.0
24,5.75,28.3832,30.0427,157.45,101.711,98.4773,-0.000852673,0.0734486,20.9152,487.414,0.296485,0.0,0.0
26,6.25,28.5663,31.0187,158.282,101.721,98.3571,-0.000802075,0.0735605,20.9149,486.953,0.308581,0.0,0.0
28,6.75,28.9396,30.5365,159.295,101.711,98.2273,-0.00076109,0.0736512,20.9146,486.703,0.319807,0.0,0.0
30,7.25,28.7067,30.6186,159.966,101.712,98.1173,-0.000720841,0.0743328,20.9141,486.743,0.33013,0.0,0.0
32,7.75,28.712,30.66,154.048,101.713,98.2288,-0.000681894,0.0748849,20.9136,486.883,0.319851,0.0,0.0
34,8.25,28.974,30.2351,156.674,101.73,98.1421,-0.000638809,0.0753321,20.9131,486.973,0.329442,0.0,0.0
36,8.75,28.9414,31.0862,155.048,101.73,98.3267,-0.000593527,0.0765879,20.911,487.053,0.312238,0.0,0.0
38,9.25,29.0052,30.9632,160.107,101.716,98.2552,-0.000545311,0.0776051,20.9092,487.133,0.317649,0.0,0.0
40,9.75,29.2935,31.3052,157.663,101.705,98.2486,-0.000495872,0.0789718,20.9069,487.193,0.31726,0.0,0.0
42,10.25,29.1539,31.4366,159.15,101.728,97.5194,-0.000441084,0.0805674,20.9051,487.163,0.387662,0.0,0.0
44,10.75,28.976,31.4742,157.653,101.72,97.6198,-0.000383439,0.0823537,20.9018,487.143,0.37755,0.0,0.0
46,11.25,29.4888,31.2896,161.487,101.72,97.4109,-0.000311103,0.0842452,20.8991,487.143,0.397209,0.0,0.0
48,11.75,29.4296,31.0047,155.902,101.715,97.2552,-0.000229432,0.0864521,20.8947,487.153,0.411403,0.0,0.0
50,12.25,29.6341,31.8842,155.785,101.721,96.6822,-0.000163279,0.088847,20.8912,487.153,0.466183,0.0,0.0
52,12.75,29.7645,31.0382,151.017,101.725,95.3167,-4.93103e-05,0.0907869,20.8883,487.304,0.597086,0.0,0.0
54,13.25,29.681,32.2573,159.413,101.716,94.2138,9.73506e-05,0.0952653,20.8802,487.264,0.703062,0.0,0.0
56,13.75,29.4567,32.5174,153.597,101.703,92.8553,0.00029868,0.102277,20.8737,487.374,0.835182,0.0,0.0
58,14.25,30.3437,32.9439,158.391,101.711,92.4948,0.000536038,0.111003,20.8564,487.033,0.871586,0.0,0.0
60,14.75,30.5625,32.9054,155.254,101.719,94.7021,0.000728298,0.11807,20.8424,486.983,0.655921,0.0,0.0
62,15.25,30.6044,33.4125,152.078,101.718,95.3461,0.00110446,0.135368,20.831,486.913,0.593621,0.0,1.0
64,15.75,30.8693,33.6889,149.367,101.709,94.2772,0.00140915,0.149379,20.8072,486.893,0.69622,0.0,1.0
66,16.25,31.1524,34.7633,146.668,101.714,94.0277,0.00175697,0.160727,20.7879,486.973,0.720982,0.0,1.0
68,16.75,31.5876,34.6856,147.502,101.708,91.6469,0.00212962,0.184174,20.7531,486.803,0.955788,0.0,1.0
70,17.25,32.2274,35.812,148.867,101.708,90.754,0.00248382,0.203167,20.725,486.733,1.04567,0.0,1.0
72,17.75,32.4574,36.1085,148.321,101.714,90.4959,0.00281783,0.226608,20.6902,486.673,1.07229,0.0,1.0
74,18.25,32.7346,36.994,145.023,101.7,90.9654,0.00310804,0.245595,20.6621,486.623,1.02357,0.0,1.0
76,18.75,33.0023,37.6974,148.527,101.712,89.8326,0.00336081,0.26379,20.6366,486.613,1.13964,0.0,1.0
78,19.25,32.5606,37.5832,141.608,101.712,86.5538,0.00356555,0.281063,20.616,486.533,1.48086,0.0,1.0
80,19.75,33.2878,37.8852,144.497,101.708,90.9816,0.00371566,0.295595,20.5992,486.533,1.02264,0.0,0.0
82,20.25,33.0289,38.3741,146.646,101.706,93.3512,0.00382309,0.307853,20.5857,486.513,0.786564,0.0,0.0
84,20.75,34.1036,38.6931,147.933,101.706,91.7585,0.00389373,0.318036,20.5747,486.453,0.944439,0.0,0.0
86,21.25,33.2686,39.1749,143.936,101.713,90.5324,0.00393621,0.326513,20.5654,486.383,1.06855,0.0,0.0
88,21.75,34.6248,39.7459,147.247,101.707,92.2945,0.00396342,0.33338,20.5579,486.333,0.891069,0.0,0.0
90,22.25,34.203,40.0613,154.231,101.704,91.1262,0.00397898,0.339604,20.5513,486.273,1.00778,0.0,0.0
92,22.75,34.478,40.1246,148.308,101.713,90.3448,0.00399944,0.344645,20.546,486.203,1.08755,0.0,0.0
94,23.25,34.6532,40.7177,145.726,101.707,90.4837,0.00402308,0.349086,20.5408,486.203,1.07293,0.0,0.0
96,23.75,35.1351,41.2819,150.879,101.707,91.0587,0.00404223,0.353005,20.5366,486.133,1.01483,0.0,0.0
98,24.25,35.6633,41.8577,151.651,101.691,90.5324,0.00409134,0.357077,20.5311,486.072,1.06654,0.0,0.0
100,24.75,35.733,41.8005,150.949,101.705,90.5131,0.00413113,0.361184,20.5247,486.072,1.06976,0.0,0.0
102,25.25,35.9357,42.4037,144.444,101.709,88.1445,0.00418328,0.364511,20.5191,486.002,1.31341,0.0,0.0
104,25.75,35.9901,42.7196,147.167,101.709,89.7581,0.00422553,0.368693,20.5141,485.952,1.14703,0.0,0.0
106,26.25,36.6838,43.1551,142.95,101.695,88.5771,0.00425974,0.37208,20.5101,485.952,1.26723,0.0,0.0
108,26.75,36.5887,43.4234,151.599,101.702,91.078,0.00429369,0.375629,20.5068,485.902,1.01245,0.0,0.0
110,27.25,37.2569,44.3089,149.241,101.688,90.0197,0.00432119,0.378503,20.5042,485.812,1.11839,0.0,0.0
112,27.75,37.6427,44.7474,146.581,101.703,88.4741,0.00434346,0.380943,20.5021,485.762,1.27865,0.0,0.0
114,28.25,37.8223,44.7595,149.838,101.696,89.6871,0.00437856,0.383021,20.5003,485.712,1.15307,0.0,0.0
116,28.75,37.6248,44.8721,148.184,101.702,90.9264,0.00442234,0.384704,20.4992,485.652,1.0277,0.0,0.0
118,29.25,38.2764,45.3651,146.055,101.696,87.391,0.00448014,0.385213,20.4983,485.582,1.39108,0.0,0.0
120,29.75,38.2244,45.5819,148.128,101.693,90.9847,0.00454705,0.385626,20.4971,485.572,1.021,0.0,0.0
122,30.25,38.5216,46.1951,155.529,101.689,91.9542,0.00460125,0.38596,20.4962,485.502,0.923361,0.0,0.0
124,30.75,38.6067,46.4606,144.345,101.697,89.0598,0.00469262,0.387218,20.495,485.532,1.21758,0.0,0.0
126,31.25,38.647,46.8104,148.706,101.689,87.996,0.00476664,0.389126,20.4935,485.452,1.32715,0.0,0.0
128,31.75,38.5867,46.9922,141.564,101.691,87.3261,0.00486912,0.390671,20.4901,485.382,1.39745,0.0,0.0
130,32.25,39.3053,47.5934,144.317,101.677,87.3119,0.00495213,0.394294,20.4851,485.342,1.39764,0.0,0.0
132,32.75,39.9479,47.6584,151.437,101.697,91.0531,0.0050444,0.397229,20.4804,485.272,1.01447,0.0,0.0
134,33.25,39.0834,48.2394,146.407,101.683,87.6055,0.00511915,0.401528,20.476,485.252,1.36736,0.0,0.0
136,33.75,40.2569,48.3919,145.131,101.695,86.856,0.00517969,0.40501,20.4724,485.202,1.44728,0.0,0.0
138,34.25,40.2991,49.4269,151.281,101.686,89.792,0.00524,0.40921,20.4695,485.092,1.14144,0.0,0.0
140,34.75,40.3735,48.9002,148.163,101.695,88.8859,0.00528885,0.412612,20.4671,485.142,1.23537,0.0,0.0
142,35.25,40.9123,50.3702,142.568,101.686,86.7688,0.00532467,0.415367,20.4652,485.042,1.45568,0.0,0.0
144,35.75,40.3433,49.792,143.405,101.68,85.8236,0.00535367,0.417599,20.4637,484.971,1.55566,0.0,0.0
146,36.25,41.0722,50.9459,155.605,101.68,90.3564,0.00537849,0.418866,20.4624,484.951,1.08339,0.0,0.0
148,36.75,41.5333,50.8198,143.286,101.685,90.7514,0.00539978,0.419407,20.4623,484.901,1.04384,0.0,0.0
150,37.25,41.9663,50.0286,148.226,101.676,87.2764,0.00543285,0.419845,20.4622,484.801,1.4013,0.0,0.0
152,37.75,42.001,50.7951,140.753,101.686,88.4386,0.00547389,0.419749,20.4621,484.761,1.28084,0.0,0.0
154,38.25,41.8731,50.5688,143.126,101.68,87.3307,0.00550712,0.419267,20.4621,484.751,1.39593,0.0,0.0
156,38.75,41.7424,51.3407,142.479,101.683,88.5898,0.00561814,0.418894,20.462,484.721,1.26488,0.0,0.0
158,39.25,41.8365,51.4888,144.677,101.676,89.2763,0.00570806,0.418607,20.462,484.651,1.19344,0.0,0.0
160,39.75,41.7225,51.8453,140.792,101.69,87.2531,0.00592314,0.418376,20.4601,484.611,1.40502,0.0,0.0
162,40.25,42.2707,51.9185,150.031,101.667,88.2079,0.00609735,0.419901,20.4568,484.581,1.30303,0.0,0.0
164,40.75,42.679,51.5129,146.313,101.688,84.4155,0.00623847,0.421136,20.4542,484.481,1.70821,0.0,0.0
166,41.25,42.6983,52.6989,150.474,101.672,85.5158,0.00662361,0.425511,20.4481,484.451,1.58796,0.0,0.0
168,41.75,42.6871,53.1115,141.838,101.671,84.094,0.00693557,0.429054,20.4396,484.361,1.7417,0.0,0.0
170,42.25,43.217,53.36,145.9,101.668,83.8445,0.00740859,0.434871,20.4276,484.301,1.76867,0.0,0.0
172,42.75,43.1509,53.3757,143.697,101.695,85.7004,0.00779174,0.442236,20.4132,484.241,1.57019,0.0,0.0
174,43.25,43.9782,53.9788,143.43,101.668,81.8471,0.00831083,0.448201,20.3925,484.091,1.98991,0.0,0.0
176,43.75,43.941,54.7103,140.06,101.682,82.7852,0.0087313,0.463621,20.3675,484.061,1.88664,0.0,0.0
178,44.25,44.4154,54.8642,142.765,101.686,82.7644,0.00923915,0.476111,20.3327,483.941,1.88924,0.0,0.0
180,44.75,44.6844,55.7697,137.984,101.678,82.0905,0.00965051,0.494355,20.2915,483.83,1.96359,0.0,0.0
182,45.25,45.4896,56.6397,134.093,101.674,82.8506,0.0100394,0.516447,20.2582,483.79,1.87865,0.0,0.0
184,45.75,45.9931,57.5063,136.703,101.675,83.5742,0.0104046,0.540844,20.2098,483.7,1.79896,0.0,0.0
186,46.25,46.6918,58.9992,132.437,101.667,83.411,0.0107059,0.566457,20.1707,483.59,1.81613,0.0,0.0
188,46.75,47.0262,59.8652,138.708,101.69,81.9277,0.0109548,0.594675,20.128,483.52,1.98285,0.0,0.0
190,47.25,48.1857,60.9722,125.334,101.674,84.1254,0.0111564,0.624256,20.0835,483.46,1.73857,0.0,0.0
192,47.75,49.117,62.5965,130.866,101.67,82.6945,0.0113197,0.654598,20.0475,483.33,1.89563,0.0,0.0
194,48.25,50.1733,64.1831,126.022,101.675,84.5499,0.0113744,0.684917,20.009,483.21,1.69243,0.0,0.0
196,48.75,51.0218,65.5266,128.391,101.688,85.4834,0.0114188,0.716495,19.9694,483.17,1.59286,0.0,0.0
198,49.25,52.2316,67.0061,123.913,101.678,86.9879,0.0113864,0.748391,19.9272,483.05,1.43183,0.0,0.0
200,49.75,52.5777,68.9318,126.906,101.672,85.3191,0.0113601,0.774227,19.8841,482.9,1.60906,0.0,0.0
202,50.25,53.6917,70.595,121.858,101.674,86.7161,0.011305,0.802524,19.8491,482.799,1.46018,0.0,0.0
204,50.75,54.994,72.1391,126.622,101.672,86.8834,0.0112298,0.832077,19.8208,482.719,1.44237,0.0,0.0
206,51.25,55.8431,73.1729,114.767,101.666,87.6603,0.0111689,0.856015,19.7787,482.569,1.3601,0.0,0.0
208,51.75,56.6516,75.4527,120.144,101.676,87.8332,0.0110885,0.887283,19.7447,482.479,1.34295,0.0,0.0
210,52.25,57.762,76.5626,117.62,101.668,88.6034,0.0109953,0.91261,19.7006,482.339,1.26212,0.0,0.0
212,52.75,59.0181,78.5693,113.864,101.673,89.8194,0.0109239,0.937511,19.6648,482.199,1.13749,0.0,0.0
214,53.25,59.6179,79.5029,130.345,101.668,88.5913,0.0108697,0.961627,19.6239,482.129,1.26334,0.0,0.0
216,53.75,60.4534,81.6313,111.852,101.672,87.2176,0.010838,0.981162,19.5907,482.029,1.40715,0.0,0.0
218,54.25,61.7014,83.0118,119.335,101.672,88.9513,0.0108233,1.00271,19.5532,481.919,1.22646,0.0,0.0
220,54.75,62.3949,84.5085,119.307,101.688,89.7931,0.0108113,1.02532,19.5228,481.829,1.14149,0.0,0.0
222,55.25,64.1675,85.8922,115.457,101.673,89.6516,0.0108254,1.04719,19.4982,481.648,1.15462,0.0,0.0
224,55.75,64.4907,87.7326,126.521,101.678,88.4569,0.0108581,1.06811,19.4649,481.608,1.2782,0.0,0.0
226,56.25,64.6996,89.9755,112.291,101.69,87.8727,0.0109273,1.08772,19.438,481.438,1.34012,0.0,0.0
228,56.75,66.2033,90.9049,116.263,101.667,87.2135,0.0110217,1.106,19.4113,481.388,1.40709,0.0,0.0
230,57.25,67.5998,91.7453,128.302,101.67,86.566,0.0110983,1.1208,19.3896,481.228,1.47578,0.0,0.0
232,57.75,67.952,93.9379,114.789,101.665,87.1897,0.0113335,1.13765,19.37,481.088,1.40945,0.0,0.0
234,58.25,69.1946,94.6726,127.423,101.671,86.9894,0.0115239,1.15129,19.3522,480.998,1.43104,0.0,0.0
236,58.75,70.4988,96.4198,123.495,101.663,84.0793,0.0118587,1.16235,19.3348,480.918,1.74256,0.0,0.0
238,59.25,70.4007,98.4587,120.296,101.674,83.8988,0.0121298,1.17653,19.3179,480.798,1.76333,0.0,0.0
240,59.75,71.8214,99.0719,111.934,101.67,84.5818,0.0125568,1.18802,19.3021,480.658,1.68851,0.0,0.0
242,60.25,72.6092,100.061,116.829,101.668,84.3668,0.0129027,1.20119,19.2874,480.527,1.71172,0.0,0.0
244,60.75,73.4808,101.859,118.178,101.672,84.3323,0.0133953,1.21186,19.2746,480.387,1.71584,0.0,0.0
246,61.25,73.9044,103.141,116.494,101.672,83.197,0.0137943,1.2236,19.2634,480.277,1.84014,0.0,0.0
248,61.75,74.7545,104.276,118.738,101.653,83.2492,0.0142639,1.2331,19.2543,480.127,1.83275,0.0,0.0
250,62.25,75.956,105.434,121.08,101.673,80.117,0.0147762,1.24272,19.247,480.057,2.18645,0.0,0.0
252,62.75,76.353,106.388,110.888,101.667,80.4161,0.0151911,1.25052,19.241,479.887,2.15172,0.0,0.0
254,63.25,77.1609,107.187,116.71,101.673,80.3279,0.0156864,1.25947,19.235,479.787,2.16232,0.0,0.0
256,63.75,77.2482,108.42,115.45,101.658,79.3878,0.0160875,1.26671,19.2291,479.637,2.26897,0.0,0.0
258,64.25,77.693,109.717,111.056,101.677,78.7697,0.0165455,1.2745,19.2243,479.476,2.34241,0.0,0.0
260,64.75,78.5525,109.797,123.497,101.666,78.1394,0.0169165,1.28253,19.2204,479.356,2.41512,0.0,0.0
262,65.25,79.1043,110.998,115.234,101.669,80.0815,0.0173077,1.28904,19.2173,479.236,2.1901,0.0,0.0
264,65.75,80.1439,111.366,121.389,101.667,77.0253,0.0176246,1.29552,19.2147,479.156,2.54704,0.0,0.0
266,66.25,80.5586,112.19,107.867,101.665,76.6039,0.0179383,1.30077,19.2127,478.996,2.59712,0.0,0.0
268,66.75,81.0341,113.206,118.884,101.677,75.7282,0.0182437,1.30359,19.2119,478.896,2.70377,0.0,0.0
270,67.25,81.1389,113.943,120.613,101.676,78.3549,0.0185448,1.30588,19.2112,478.776,2.39082,0.0,0.0
272,67.75,82.0783,114.211,130.803,101.657,76.4548,0.0188369,1.30786,19.213,478.586,2.61428,0.0,0.0
274,68.25,81.9339,114.316,125.065,101.664,77.3118,0.0190735,1.30948,19.2143,478.476,2.51267,0.0,0.0
276,68.75,82.5262,115.291,119.656,101.671,76.7114,0.0192651,1.3126,19.2159,478.325,2.58481,0.0,0.0
278,69.25,82.6384,115.733,124.529,101.683,75.4351,0.019602,1.31513,19.2172,478.205,2.73988,0.0,0.0
280,69.75,83.4384,116.503,112.304,101.666,74.3611,0.0198749,1.31741,19.2184,478.045,2.8699,0.0,0.0
282,70.25,84.0537,116.753,118.187,101.688,77.1054,0.0202026,1.31946,19.2197,477.975,2.53932,0.0,0.0
284,70.75,85.1141,117.902,118.098,101.665,75.1177,0.020468,1.32113,19.2232,477.855,2.77694,0.0,0.0
286,71.25,84.6078,117.865,127.884,101.674,77.8539,0.0207669,1.32109,19.2284,477.695,2.44949,0.0,0.0
288,71.75,85.0794,118.659,120.419,101.663,73.2111,0.021009,1.3198,19.2348,477.585,3.01266,0.0,0.0
290,72.25,85.173,118.415,120.94,101.678,73.5716,0.0212344,1.31876,19.2418,477.475,2.96896,0.0,0.0
292,72.75,85.417,118.897,124.023,101.661,74.1877,0.0214432,1.31542,19.2475,477.314,2.89088,0.0,0.0
294,73.25,86.0314,119.254,117.389,101.675,72.7577,0.0216124,1.31272,19.2549,477.164,3.07077,0.0,0.0
296,73.75,86.1285,119.956,117.798,101.665,74.7262,0.0217915,1.30751,19.2634,477.064,2.82484,0.0,0.0
298,74.25,86.4913,119.941,120.632,101.672,76.1618,0.0219366,1.30329,19.2749,476.914,2.65094,0.0,0.0
300,74.75,86.7446,119.7,122.307,101.676,75.0736,0.0220583,1.29518,19.2884,476.794,2.78329,0.0,0.0
302,75.25,86.9472,120.341,128.989,101.679,74.2298,0.0221609,1.28861,19.2993,476.734,2.88735,0.0,0.0
304,75.75,86.9935,120.329,124.936,101.669,75.0543,0.0222439,1.27851,19.3157,476.514,2.78505,0.0,0.0
306,76.25,87.2001,120.225,130.482,101.677,78.256,0.0223283,1.27033,19.329,476.444,2.40244,0.0,0.0
308,76.75,87.4842,120.18,118.678,101.675,77.2834,0.0224121,1.2637,19.3473,476.374,2.51701,0.0,0.0
310,77.25,87.4671,120.465,128.451,101.695,76.2038,0.02248,1.25143,19.3621,476.284,2.64796,0.0,0.0
312,77.75,87.3675,120.063,125.718,101.665,75.3464,0.0226139,1.2415,19.3805,476.133,2.749,0.0,0.0
314,78.25,87.6315,119.792,118.61,101.683,74.2987,0.0227224,1.23041,19.401,475.783,2.8792,0.0,0.0
316,78.75,87.7344,120.077,130.514,101.666,75.7378,0.022854,1.21871,19.4176,475.963,2.70156,0.0,0.0
318,79.25,87.4126,119.479,126.8,101.677,75.8575,0.0229999,1.20923,19.4373,475.793,2.68812,0.0,0.0
320,79.75,87.6657,119.584,121.802,101.663,75.2784,0.0231563,1.20155,19.4532,475.653,2.75717,0.0,0.0
322,80.25,87.679,119.478,117.929,101.674,73.4915,0.0233172,1.18822,19.4746,475.553,2.97859,0.0,0.0
324,80.75,87.711,119.301,123.42,101.665,73.4915,0.0234669,1.17743,19.4961,475.443,2.97781,0.0,0.0
326,81.25,87.4891,119.188,126.133,101.674,75.0857,0.02354,1.16299,19.5073,475.333,2.78162,0.0,0.0
328,81.75,87.6586,118.765,119.594,101.672,75.1506,0.0236613,1.1513,19.5264,475.263,2.77358,0.0,0.0
330,82.25,87.1394,118.159,123.815,101.679,72.704,0.0237563,1.13733,19.5547,475.133,3.07789,0.0,0.0
332,82.75,86.977,117.948,128.075,101.676,70.3187,0.0238332,1.12196,19.5777,475.102,3.38373,0.0,0.0
334,83.25,87.3397,117.763,130.544,101.679,72.0635,0.0238625,1.10574,19.5963,474.992,3.15912,0.0,0.0
336,83.75,86.8653,116.949,126.572,101.68,73.5346,0.0238564,1.0892,19.6211,474.832,2.97373,0.0,0.0
338,84.25,86.4012,116.759,128.964,101.676,74.8839,0.023807,1.08215,19.6412,474.722,2.80658,0.0,0.0
340,84.75,86.7168,116.046,132.552,101.684,74.5665,0.0237269,1.06237,19.6686,474.682,2.84626,0.0,0.0
342,85.25,86.4433,115.618,132.98,101.687,73.1213,0.0236019,1.04634,19.6908,474.592,3.02608,0.0,0.0
344,85.75,86.3027,115.425,137.363,101.679,73.9844,0.0234464,1.02487,19.7185,474.482,2.91774,0.0,0.0
346,86.25,85.8802,114.833,134.271,101.671,76.2987,0.0232448,1.00748,19.741,474.422,2.63431,0.0,0.0
348,86.75,85.7759,113.82,130.74,101.674,76.0578,0.0230134,0.988757,19.7734,474.312,2.66362,0.0,0.0
350,87.25,85.4056,113.493,128.849,101.679,72.1148,0.022826,0.969416,19.7997,474.262,3.15252,0.0,0.0
352,87.75,85.2335,112.795,130.375,101.682,71.0397,0.0224742,0.949376,19.8273,474.172,3.29064,0.0,0.0
354,88.25,85.1658,111.87,137.577,101.678,75.4823,0.0221892,0.929205,19.8553,474.062,2.7337,0.0,0.0
356,88.75,84.4837,111.094,139.259,101.681,76.1891,0.0217526,0.909159,19.878,474.001,2.64843,0.0,0.0
358,89.25,83.3177,110.829,137.063,101.673,76.3504,0.021399,0.889585,19.9044,473.911,2.62832,0.0,0.0
360,89.75,83.3921,109.539,134.86,101.667,69.77,0.0211126,0.87373,19.9258,473.841,3.45479,0.0,0.0
362,90.25,83.4143,108.766,136.479,101.671,76.2094,0.0204774,0.854009,19.948,473.761,2.64505,0.0,0.0
364,90.75,82.9032,108.271,142.432,101.68,80.586,0.0199629,0.838035,19.9704,473.631,2.13351,0.0,0.0
366,91.25,82.5034,107.741,140.718,101.683,78.329,0.0192233,0.816513,19.9963,473.671,2.39448,0.0,0.0
368,91.75,81.96,106.618,134.011,101.676,74.1928,0.0186242,0.79908,20.0242,473.551,2.89163,0.0,0.0
370,92.25,81.8167,106.35,136.521,101.672,77.9081,0.0179587,0.78496,20.0468,473.501,2.44284,0.0,0.0
372,92.75,81.0774,104.971,140.783,101.673,83.1387,0.0172573,0.761699,20.0775,473.491,1.84669,0.0,0.0
374,93.25,80.6604,103.932,141.318,101.679,85.7248,0.0165281,0.742858,20.1024,473.481,1.56613,0.0,0.0
376,93.75,79.9469,103.009,137.678,101.681,80.0967,0.0157925,0.722597,20.1364,473.431,2.18951,0.0,0.0
378,94.25,79.3425,102.634,140.298,101.672,79.8984,0.0150627,0.701686,20.1638,473.371,2.21136,0.0,0.0
380,94.75,79.1737,101.641,139.736,101.675,82.4703,0.0143508,0.680186,20.1986,473.271,1.92098,0.0,0.0
382,95.25,78.9264,100.924,141.67,101.676,80.7138,0.0136464,0.658665,20.2267,473.241,2.1186,0.0,0.0
384,95.75,78.2218,99.4417,147.333,101.676,89.5608,0.0129607,0.636651,20.2494,473.191,1.16421,0.0,0.0
386,96.25,77.4907,98.8226,144.52,101.667,85.6593,0.0124054,0.614698,20.2777,473.231,1.57209,0.0,0.0
388,96.75,77.0825,97.747,144.545,101.68,87.3023,0.0119555,0.593919,20.3005,473.211,1.39895,0.0,0.0
390,97.25,76.26,96.4986,145.917,101.675,89.3539,0.0111808,0.574391,20.3217,473.151,1.18532,0.0,0.0
392,97.75,75.8659,95.5575,146.356,101.686,85.384,0.0105533,0.556182,20.3412,473.141,1.60335,0.0,0.0
394,98.25,75.495,94.8683,143.321,101.678,86.175,0.00992996,0.539282,20.3598,473.061,1.51802,0.0,0.0
396,98.75,74.9574,93.8278,142.224,101.696,85.2871,0.00932145,0.525593,20.3774,473.071,1.61469,0.0,0.0
398,99.25,74.6081,93.1093,143.316,101.676,88.6491,0.00874514,0.514504,20.3917,473.081,1.25814,0.0,0.0
400,99.75,74.0608,92.0819,142.91,101.682,91.4507,0.00820325,0.49545,20.4126,473.001,0.973114,0.0,0.0
402,100.25,73.5555,91.1501,144.832,101.674,90.1997,0.00767205,0.480016,20.4295,473.071,1.09879,0.0,0.0
404,100.75,73.0947,90.435,150.61,101.679,92.8974,0.00715873,0.460683,20.4543,473.021,0.828866,0.0,0.0
406,101.25,72.2815,89.7271,144.724,101.678,91.7874,0.00667532,0.445023,20.4744,473.051,0.939019,0.0,0.0
408,101.75,71.8893,88.5714,141.167,101.683,94.2001,0.0062229,0.429418,20.4944,473.071,0.701457,0.0,0.0
410,102.25,71.351,87.7838,145.089,101.676,94.1595,0.00585644,0.41415,20.514,472.991,0.704703,0.0,0.0
412,102.75,70.8831,86.9333,146.378,101.681,93.5541,0.00544647,0.398895,20.5334,472.991,0.764342,0.0,0.0
414,103.25,70.5046,86.1211,144.978,101.665,94.7604,0.0051144,0.383939,20.5522,472.991,0.645363,0.0,0.0
416,103.75,69.9955,85.1813,147.071,101.681,96.8455,0.00467659,0.371826,20.5675,472.951,0.447091,0.0,0.0
418,104.25,69.5774,84.3284,149.485,101.671,96.5742,0.00452465,0.356511,20.5851,472.981,0.471903,0.0,0.0
420,104.75,69.0637,83.6692,148.727,101.68,97.3921,0.00426482,0.344107,20.5995,473.001,0.395333,0.0,0.0
422,105.25,68.3119,82.6399,150.229,101.668,96.6067,0.00400364,0.329749,20.616,472.991,0.468559,0.0,0.0
424,105.75,67.9386,81.9834,146.429,101.682,96.6528,0.00379209,0.31812,20.6293,472.961,0.465442,0.0,0.0
426,106.25,67.544,81.2647,146.754,101.671,96.6944,0.00358366,0.306262,20.6427,472.89,0.460528,0.0,0.0
428,106.75,67.1491,80.4094,142.793,101.679,96.9966,0.00341483,0.294463,20.6559,473.011,0.432599,0.0,0.0
430,107.25,66.846,79.4347,152.33,101.677,97.4738,0.00325092,0.284905,20.67,473.021,0.387383,0.0,0.0
432,107.75,66.1105,78.6353,154.13,101.682,97.9479,0.00311815,0.272356,20.6847,473.041,0.343305,0.0,0.0
434,108.25,65.951,77.9495,150.167,101.676,97.6021,0.002981,0.262191,20.6984,473.021,0.375202,0.0,0.0
436,108.75,64.9974,77.2258,150.862,101.686,98.5838,0.0028699,0.250467,20.7112,473.021,0.284298,0.0,0.0
438,109.25,64.9233,76.1737,150.253,101.665,98.9053,0.00276565,0.240971,20.7234,472.991,0.252563,0.0,0.0
440,109.75,64.288,75.8384,148.429,101.682,98.7334,0.00266835,0.230271,20.735,473.041,0.270012,0.0,0.0
442,110.25,64.0199,74.8831,149.622,101.674,98.7192,0.00258954,0.221605,20.7444,473.051,0.270625,0.0,0.0
444,110.75,63.6547,74.3309,147.322,101.686,99.0574,0.00251793,0.211961,20.752,473.031,0.240319,0.0,0.0
446,111.25,63.3194,73.9698,148.343,101.667,98.9326,0.00245291,0.20415,20.7613,473.031,0.250208,0.0,0.0
448,111.75,62.4246,72.8847,155.645,101.68,98.9129,0.00240609,0.196557,20.7688,473.021,0.253197,0.0,0.0
450,112.25,62.446,72.2725,155.872,101.673,99.0123,0.00237341,0.189267,20.7775,473.011,0.243348,0.0,0.0
452,112.75,61.5987,71.4667,150.153,101.69,99.6872,0.00235668,0.183362,20.7846,473.071,0.182499,0.0,0.0
454,113.25,61.5691,70.6993,149.995,101.669,99.0102,0.00235187,0.176457,20.7921,473.041,0.243164,0.0,0.0
456,113.75,60.8025,69.8979,151.195,101.686,99.0189,0.00236032,0.170864,20.7982,473.041,0.243891,0.0,0.0
458,114.25,60.5149,69.8634,151.629,101.673,99.5001,0.00236976,0.166334,20.8018,473.031,0.198214,0.0,0.0
460,114.75,60.2851,69.0238,148.361,101.683,99.349,0.00239759,0.160793,20.8078,473.041,0.213127,0.0,0.0
462,115.25,60.0513,68.6234,155.852,101.673,99.1532,0.00243066,0.156304,20.8134,473.031,0.230293,0.0,0.0
464,115.75,59.3918,67.383,149.06,101.683,99.0969,0.00246979,0.151736,20.8185,473.001,0.236396,0.0,0.0
466,116.25,58.9957,67.4722,154.419,101.668,100.119,0.00251259,0.147634,20.8236,473.011,0.140929,0.0,0.0
468,116.75,58.7909,66.59,147.793,101.679,99.5133,0.00254727,0.14395,20.8277,472.981,0.197593,0.0,0.0
470,117.25,58.3891,65.9221,150.166,101.678,99.2166,0.00260332,0.14238,20.831,472.981,0.224838,0.0,0.0
472,117.75,57.8861,65.4733,151.187,101.694,99.6593,0.0026739,0.138905,20.8346,472.991,0.185475,0.0,0.0
474,118.25,57.7434,65.2473,151.506,101.673,99.637,0.00275843,0.13609,20.8375,472.991,0.185633,0.0,0.0
476,118.75,57.5148,64.4907,150.995,101.679,99.3637,0.00285153,0.133022,20.8399,472.991,0.211397,0.0,0.0
478,119.25,56.9959,64.2272,152.453,101.665,99.2425,0.00292693,0.130537,20.8431,472.991,0.221331,0.0,0.0
480,119.75,56.5193,63.4509,151.445,101.692,99.5229,0.00298801,0.128096,20.8457,473.031,0.19782,0.0,0.0
482,120.25,56.4704,63.1377,153.27,101.683,99.0706,0.00312179,0.125734,20.8479,473.031,0.238838,0.0,0.0
484,120.75,55.9824,62.5762,153.683,101.692,99.3621,0.00323015,0.123328,20.8496,473.011,0.212653,0.0,0.0
486,121.25,55.767,62.1174,151.883,101.668,99.1811,0.00335455,0.120936,20.8516,473.001,0.227266,0.0,0.0
488,121.75,55.5177,61.491,153.117,101.69,99.5016,0.00348827,0.118998,20.8538,472.981,0.199673,0.0,0.0
490,122.25,54.6122,60.9545,149.702,101.677,99.9037,0.0036418,0.117429,20.8555,473.011,0.161437,0.0,0.0
492,122.75,55.0407,60.0909,152.351,101.691,99.9798,0.00380685,0.11495,20.8583,473.001,0.155755,0.0,0.0
494,123.25,54.1287,60.0353,150.587,101.674,99.2972,0.0039931,0.112943,20.8605,473.011,0.21705,0.0,0.0
496,123.75,53.7095,59.2833,156.04,101.686,99.7075,0.00419126,0.110536,20.8637,473.021,0.180298,0.0,0.0
498,124.25,54.2771,58.9819,153.052,101.67,99.4783,0.00435177,0.108586,20.8662,472.981,0.200001,0.0,0.0
500,124.75,54.0031,58.8188,157.103,101.682,99.4889,0.00458315,0.106526,20.8687,473.001,0.200061,0.0,0.0
502,125.25,53.6564,58.2228,154.999,101.677,99.3698,0.00477057,0.104423,20.8712,473.001,0.210649,0.0,0.0
504,125.75,53.5154,57.5802,155.001,101.685,99.4666,0.00494152,0.102391,20.8735,472.981,0.202379,0.0,0.0
506,126.25,52.7378,57.6156,158.335,101.677,99.3358,0.00502346,0.100447,20.8745,472.991,0.213786,0.0,0.0
508,126.75,53.1167,57.0174,150.522,101.68,99.3175,0.00516754,0.0988728,20.8763,473.021,0.215697,0.0,0.0
510,127.25,52.6946,57.0082,154.858,101.682,99.7364,0.00528781,0.0970398,20.8783,473.001,0.177303,0.0,0.0
512,127.75,52.1582,56.5217,151.925,101.688,99.0427,0.00538391,0.095555,20.8798,473.011,0.24183,0.0,0.0
514,128.25,52.2755,56.4284,158.166,101.682,99.3231,0.00546056,0.0941521,20.8815,473.011,0.215368,0.0,0.0
516,128.75,52.4884,55.9956,154.548,101.669,99.4803,0.00552926,0.0928354,20.8829,473.011,0.19974,0.0,0.0
518,129.25,51.1603,55.4825,151.444,101.673,99.4397,0.00559084,0.0922741,20.8845,473.001,0.20378,0.0,0.0
520,129.75,51.1737,55.3705,153.668,101.692,99.3692,0.00566519,0.0910019,20.8857,472.981,0.212034,0.0,0.0
522,130.25,51.0533,54.7002,153.032,101.676,99.3637,0.00574742,0.0898429,20.8872,472.991,0.211062,0.0,0.0
524,130.75,51.4671,54.752,153.574,101.681,99.4108,0.00581404,0.0887884,20.8884,472.991,0.207155,0.0,0.0
526,131.25,50.8308,54.3502,151.714,101.684,99.3246,0.00586799,0.08782,20.8893,472.991,0.21545,0.0,0.0
528,131.75,50.5843,53.9788,157.345,101.677,99.2085,0.00599094,0.0869328,20.8902,472.971,0.225514,0.0,0.0
530,132.25,50.0167,53.8197,157.334,101.674,99.4123,0.00609053,0.0861071,20.891,472.961,0.206456,0.0,0.0
532,132.75,50.1895,53.7973,152.877,101.687,99.4752,0.00621781,0.085342,20.8916,473.001,0.201808,0.0,0.0
534,133.25,50.243,53.1632,155.171,101.683,99.353,0.0063209,0.0847223,20.8921,473.011,0.212679,0.0,0.0
536,133.75,50.2992,52.9831,152.043,101.685,99.3708,0.00641238,0.0840852,20.8925,472.991,0.211225,0.0,0.0
538,134.25,49.9603,52.9178,160.349,101.681,99.4605,0.00649364,0.0834476,20.8933,472.971,0.202569,0.0,0.0
540,134.75,49.2963,52.7954,157.391,101.669,99.1887,0.00656079,0.0829311,20.8939,472.991,0.2266,0.0,0.0
542,135.25,49.6918,52.7901,156.019,101.693,99.4164,0.00661637,0.0823488,20.8949,472.961,0.207756,0.0,0.0
544,135.75,49.0895,52.1388,153.316,101.684,99.3976,0.00666007,0.0817297,20.8957,472.961,0.20867,0.0,0.0
546,136.25,49.1696,51.8969,149.648,101.682,99.1735,0.00669427,0.0811142,20.8963,472.931,0.229197,0.0,0.0
548,136.75,48.5569,51.8687,151.849,101.674,99.1963,0.00672396,0.0805131,20.8968,472.951,0.226417,0.0,0.0
550,137.25,49.0259,51.6722,151.553,101.68,99.3464,0.0067498,0.0799693,20.8977,472.951,0.213027,0.0,0.0
552,137.75,49.1313,51.185,153.184,101.674,99.1426,0.00677073,0.0794775,20.8984,472.961,0.231353,0.0,0.0
554,138.25,48.4555,51.2963,151.172,101.692,100.026,0.00683691,0.0790222,20.8989,472.971,0.151511,0.0,0.0
556,138.75,48.292,51.3946,159.036,101.683,99.5929,0.00689051,0.0786022,20.8994,472.961,0.190552,0.0,0.0
558,139.25,48.7662,50.4582,153.345,101.688,99.2688,0.00699839,0.0781766,20.8997,472.951,0.220902,0.0,0.0
560,139.75,47.8935,50.218,154.678,101.676,99.4301,0.00708578,0.077755,20.9,472.941,0.204966,0.0,0.0
562,140.25,48.0013,50.4351,153.678,101.692,99.3048,0.00715656,0.0774135,20.9003,472.951,0.217947,0.0,0.0
564,140.75,47.7603,49.9194,157.712,101.683,99.3373,0.00728733,0.0770693,20.9005,472.961,0.21413,0.0,0.0
566,141.25,47.7236,50.0587,151.556,101.697,99.5959,0.00739325,0.0767905,20.9006,472.981,0.191537,0.0,0.0
568,141.75,48.1978,50.1168,151.626,101.69,99.3084,0.00753993,0.0765505,20.9008,472.961,0.217432,0.0,0.0
570,142.25,47.5694,49.7554,154.994,101.693,99.1441,0.00765875,0.0763432,20.9009,472.931,0.232886,0.0,0.0
572,142.75,47.7649,49.2599,154.889,101.681,99.1456,0.00775499,0.0761469,20.901,472.92,0.231704,0.0,0.0
574,143.25,47.6944,49.6673,152.917,101.7,99.5518,0.00786838,0.0759623,20.901,472.9,0.195863,0.0,0.0
576,143.75,46.9837,49.2016,150.329,101.691,99.2719,0.00799212,0.0758127,20.9011,472.91,0.220955,0.0,0.0
578,144.25,47.392,49.2454,156.895,101.695,99.1842,0.00810575,0.0757051,20.9012,472.931,0.22944,0.0,0.0
580,144.75,47.3347,49.1763,149.18,101.685,99.7703,0.00820983,0.075618,20.9013,472.941,0.174401,0.0,0.0
582,145.25,46.6404,48.8338,154.477,101.696,99.1598,0.00829414,0.0755473,20.9014,472.951,0.231729,0.0,0.0
584,145.75,47.1053,48.9784,152.472,101.674,99.8489,0.00840062,0.0754617,20.9014,472.971,0.166208,0.0,0.0
586,146.25,46.8426,48.938,155.985,101.697,99.3378,0.00848687,0.0753667,20.9015,472.951,0.215385,0.0,0.0
588,146.75,46.243,48.8292,154.161,101.691,98.9732,0.00860007,0.0752471,20.9015,472.931,0.248604,0.0,0.0
590,147.25,46.34,48.7928,154.37,101.703,99.2217,0.00869175,0.0751119,20.9016,472.941,0.226676,0.0,0.0
592,147.75,46.542,48.1494,153.122,101.691,99.5107,0.00878213,0.0750023,20.9016,472.931,0.198868,0.0,0.0
594,148.25,46.3527,48.3704,154.513,101.69,99.1973,0.00886984,0.0749136,20.9016,472.951,0.227737,0.0,0.0
596,148.75,46.107,48.2375,155.537,101.672,99.0143,0.00894962,0.0748417,20.9016,472.951,0.243048,0.0,0.0
598,149.25,46.2634,47.7467,155.245,101.693,98.9332,0.00902209,0.0747906,20.9016,472.971,0.252431,0.0,0.0
600,149.75,46.2387,48.0359,158.176,101.676,99.2369,0.00908349,0.0747556,20.9016,472.941,0.222814,0.0,0.0
602,150.25,45.6678,47.7798,153.238,101.703,99.1745,0.00913564,0.0747343,20.9012,472.92,0.231,0.0,0.0
604,150.75,45.7106,48.1661,153.586,101.688,99.388,0.00917788,0.0747235,20.9008,472.92,0.209894,0.0,0.0
606,151.25,45.7423,47.9949,157.536,101.697,99.0878,0.00923253,0.0747361,20.9006,472.92,0.238507,0.0,0.0
608,151.75,45.7738,47.5865,148.7,101.689,99.3708,0.0092768,0.0747655,20.9003,472.941,0.211596,0.0,0.0
610,152.25,45.4583,47.3869,155.016,101.694,99.0148,0.00933689,0.074775,20.9001,472.91,0.244973,0.0,0.0
612,152.75,45.627,47.2339,155.339,101.689,99.0944,0.00940737,0.07477,20.9001,472.92,0.237189,0.0,0.0
614,153.25,45.8551,47.2795,153.983,101.706,99.2095,0.00946447,0.0747233,20.9002,472.92,0.228024,0.0,0.0
616,153.75,45.3799,46.7471,149.456,101.705,99.5558,0.00955678,0.074647,20.9002,472.931,0.196009,0.0,0.0
618,154.25,45.1291,46.9575,154.23,101.715,98.9641,0.00963156,0.0745853,20.9002,472.931,0.251571,0.0,0.0
620,154.75,45.8157,46.8935,159.014,101.695,99.4752,0.00970427,0.0745427,20.9002,472.931,0.202514,0.0,0.0
622,155.25,45.2196,47.1321,154.979,101.709,99.0929,0.00977408,0.074515,20.9002,472.92,0.239078,0.0,0.0
624,155.75,45.2816,46.2173,155.832,101.695,99.3921,0.00984344,0.0744925,20.9002,472.91,0.210189,0.0,0.0
626,156.25,45.0265,46.7943,154.386,101.707,99.0995,0.00989962,0.0745284,20.9002,472.92,0.238282,0.0,0.0
628,156.75,45.0808,46.5209,154.68,101.7,99.2962,0.0099541,0.0745574,20.9002,472.89,0.219487,0.0,0.0
630,157.25,44.7316,46.8006,155.831,101.711,99.1482,0.00999823,0.0745738,20.9002,472.89,0.234185,0.0,0.0
632,157.75,44.4352,46.2912,151.946,101.696,99.1984,0.0100468,0.0745807,20.9002,472.9,0.228164,0.0,0.0
634,158.25,44.6066,45.9373,154.507,101.712,99.278,0.0100861,0.0745863,20.9002,472.9,0.222253,0.0,0.0
636,158.75,44.7847,45.7742,155.783,101.696,99.5584,0.010118,0.0745908,20.9002,472.89,0.194958,0.0,0.0
638,159.25,44.3221,46.0686,158.656,101.708,99.0838,0.0101862,0.0746087,20.9002,472.88,0.239848,0.0,0.0
640,159.75,44.3725,46.448,151.511,101.695,99.0011,0.0102414,0.074636,20.9002,472.9,0.246317,0.0,0.0
642,160.25,44.6475,46.2304,154.015,101.704,99.4342,0.0103233,0.0746723,20.9002,472.9,0.207084,0.0,0.0
644,160.75,44.2808,45.8197,155.531,101.714,99.2572,0.0103897,0.0747146,20.9002,472.89,0.224323,0.0,0.0
646,161.25,44.0619,45.9718,157.188,101.709,99.2394,0.0104678,0.0747488,20.9002,472.9,0.225592,0.0,0.0
648,161.75,44.4573,45.6935,154.347,101.703,99.712,0.010553,0.0747765,20.9002,472.89,0.18144,0.0,0.0
650,162.25,44.0001,46.0686,154.071,101.714,99.3865,0.010645,0.0747989,20.9002,472.89,0.212414,0.0,0.0
652,162.75,43.7482,45.6243,156.1,101.709,99.247,0.0107403,0.0748171,20.9,472.9,0.224852,0.0,0.0
654,163.25,44.6562,45.769,154.041,101.714,98.8368,0.0108344,0.0748318,20.8999,472.89,0.263306,0.0,0.0
656,163.75,44.5729,45.8801,155.283,101.7,99.1512,0.0109259,0.0748437,20.8998,472.88,0.232861,0.0,0.0
658,164.25,43.9392,45.1744,152.298,101.723,99.2247,0.011,0.0748534,20.8997,472.88,0.228179,0.0,0.0
660,164.75,43.0477,45.3628,156.086,101.707,99.3145,0.0110678,0.0748612,20.8996,472.86,0.218395,0.0,0.0
662,165.25,44.2875,45.3146,153.832,101.702,98.8753,0.0110967,0.0748533,20.8996,472.86,0.258613,0.0,0.0
664,165.75,44.0336,45.8472,152.847,101.701,99.4595,0.0111461,0.0748611,20.8996,472.84,0.204522,0.0,0.0
666,166.25,43.547,45.2439,154.609,101.717,99.1781,0.0111861,0.0748803,20.8995,472.85,0.231974,0.0,0.0
668,166.75,43.265,44.9474,151.298,101.704,99.3099,0.0112031,0.0748958,20.8996,472.84,0.218556,0.0,0.0
670,167.25,43.9025,45.2001,153.915,101.704,99.1938,0.0112168,0.0749353,20.8998,472.86,0.229366,0.0,0.0
672,167.75,43.6157,45.3809,155.191,101.717,99.1233,0.0112292,0.0749674,20.9,472.87,0.237042,0.0,0.0
674,168.25,43.4617,44.8354,158.27,101.7,99.1451,0.0112392,0.0749811,20.9001,472.85,0.233462,0.0,0.0
676,168.75,43.4825,44.681,152.135,101.712,99.4636,0.01125,0.0750329,20.9002,472.85,0.205151,0.0,0.0
678,169.25,43.2303,44.6072,155.267,101.712,98.9621,0.0112586,0.0751005,20.9003,472.86,0.251536,0.0,0.0
680,169.75,43.3994,44.6796,156.186,101.721,98.9965,0.0112734,0.0751552,20.9004,472.89,0.249157,0.0,0.0
682,170.25,43.3145,45.3339,153.537,101.709,98.8936,0.0112854,0.0752671,20.9004,472.88,0.257625,0.0,0.0
684,170.75,43.259,44.4711,155.353,101.715,99.3059,0.0113157,0.0753578,20.9005,472.87,0.219935,0.0,0.0
686,171.25,43.5853,44.6679,157.045,101.712,98.8693,0.0113402,0.0754447,20.9005,472.85,0.260144,0.0,0.0
688,171.75,43.7985,44.8483,160.887,101.722,99.2577,0.0113924,0.0755151,20.9005,472.85,0.225057,0.0,0.0
690,172.25,43.3675,44.7041,154.303,101.703,98.9397,0.0114346,0.0755992,20.9006,472.85,0.252786,0.0,0.0
692,172.75,42.8958,44.3964,158.922,101.718,98.8191,0.0114688,0.0756673,20.9006,472.87,0.265288,0.0,0.0
694,173.25,43.1398,44.6579,157.331,101.714,99.2536,0.0115262,0.0757766,20.9006,472.87,0.224725,0.0,0.0
696,173.75,43.4078,44.2931,155.926,101.709,99.1634,0.0115728,0.075865,20.9006,472.84,0.232627,0.0,0.0
698,174.25,43.0283,44.0698,150.815,101.709,99.1096,0.0116233,0.0760449,20.9006,472.83,0.237566,0.0,0.0
700,174.75,43.0313,44.2555,155.761,101.719,98.9397,0.0116643,0.0761905,20.9002,472.82,0.254199,0.0,0.0
702,175.25,43.0282,44.3548,151.854,101.714,99.1101,0.0117023,0.0763085,20.8998,472.87,0.238003,0.0,0.0
704,175.75,42.8252,44.1165,153.207,101.725,99.1304,0.0117373,0.0765529,20.8995,472.85,0.237091,0.0,0.0
706,176.25,42.6641,44.3297,154.281,101.707,98.9397,0.0117657,0.0767508,20.8993,472.83,0.253084,0.0,0.0
708,176.75,42.7764,44.5532,150.124,101.721,98.8728,0.0117744,0.0769609,20.8991,472.85,0.260632,0.0,0.0
710,177.25,42.6124,44.1594,153.339,101.707,98.9134,0.0117815,0.077176,20.899,472.84,0.255566,0.0,0.0
712,177.75,42.9576,44.3199,157.868,101.721,98.9357,0.0117485,0.0772862,20.8988,472.82,0.254761,0.0,0.0
714,178.25,43.159,44.242,151.38,101.701,99.0833,0.0117218,0.0773177,20.8987,472.81,0.239263,0.0,0.0
716,178.75,42.7766,44.2906,150.77,101.714,99.1522,0.0116396,0.0773433,20.8987,472.8,0.234032,0.0,0.0
718,179.25,42.4962,44.0521,154.633,101.708,99.0863,0.0115729,0.0774586,20.8986,472.79,0.239614,0.0,0.0
720,179.75,42.9244,44.061,153.178,101.729,99.0614,0.011519,0.0775521,20.8985,472.81,0.243812,0.0,0.0
722,180.25,42.2865,43.7432,152.523,101.716,98.9712,0.01138,0.0778443,20.8985,472.83,0.250986,0.0,0.0
724,180.75,41.9572,44.0308,154.753,101.727,99.8327,0.0112674,0.078081,20.8985,472.84,0.17246,0.0,0.0
726,181.25,42.6962,43.8479,158.137,101.712,99.1284,0.0111313,0.0782863,20.8984,472.83,0.236052,0.0,0.0
728,181.75,42.2908,43.7919,151.791,101.718,99.3074,0.011021,0.0784526,20.8984,472.83,0.220055,0.0,0.0
730,182.25,42.9834,43.8542,155.314,101.704,98.8333,0.0109323,0.0785801,20.8984,472.82,0.262705,0.0,0.0
732,182.75,42.4554,43.8362,153.084,101.722,99.0584,0.0108611,0.078677,20.8984,472.83,0.243461,0.0,0.0
734,183.25,42.0774,43.8701,158.454,101.703,99.2876,0.0108373,0.0787555,20.8984,472.81,0.22058,0.0,0.0
736,183.75,42.2226,43.8754,152.098,101.719,99.2526,0.0108484,0.0788191,20.8984,472.81,0.225265,0.0,0.0
738,184.25,42.2569,44.6462,151.211,101.728,99.7658,0.0108574,0.0788706,20.8984,472.82,0.178688,0.0,0.0
740,184.75,42.4039,43.908,155.47,101.72,99.2917,0.0109549,0.078898,20.8981,472.81,0.221694,0.0,0.0
742,185.25,42.3562,43.5989,153.771,101.71,99.4179,0.0110338,0.0789075,20.8977,472.79,0.209178,0.0,0.0
744,185.75,41.9286,43.8077,154.473,101.72,99.0863,0.0111528,0.0789151,20.8974,472.78,0.24073,0.0,0.0
746,186.25,41.9036,43.6148,155.583,101.713,99.1512,0.0112987,0.0788265,20.8971,472.79,0.234052,0.0,0.0
748,186.75,41.9111,43.8199,153.833,101.723,99.3124,0.0114168,0.0787548,20.8969,472.79,0.220033,0.0,0.0
750,187.25,42.4923,43.6858,153.827,101.706,99.2217,0.0116044,0.0786967,20.8967,472.79,0.226935,0.0,0.0
752,187.75,41.9889,43.0669,153.081,101.72,99.1791,0.0117564,0.0786497,20.8966,472.8,0.232103,0.0,0.0
754,188.25,41.7564,43.5733,153.972,101.711,99.4225,0.0119054,0.0785973,20.8965,472.8,0.208793,0.0,0.0
756,188.75,42.1629,43.3122,156.102,101.716,99.0412,0.0120261,0.0785421,20.8964,472.78,0.244538,0.0,0.0
758,189.25,42.1922,43.6921,151.704,101.713,99.2019,0.0121239,0.0784973,20.8963,472.76,0.229361,0.0,0.0
760,189.75,41.8073,43.6435,154.683,101.728,99.4625,0.0121765,0.0784476,20.8962,472.77,0.206621,0.0,0.0
762,190.25,41.6193,43.6311,151.391,101.707,99.0533,0.0121951,0.0784072,20.8959,472.74,0.242555,0.0,0.0
764,190.75,41.5312,43.1761,154.164,101.726,98.9403,0.012183,0.0784316,20.8956,472.73,0.254747,0.0,0.0
766,191.25,42.1244,43.4832,154.139,101.714,98.959,0.0121487,0.0785026,20.8953,472.74,0.252004,0.0,0.0
768,191.75,41.5199,43.3714,151,101.709,99.3708,0.0120795,0.07856,20.8951,472.75,0.213456,0.0,0.0
770,192.25,41.4828,43.0309,152.394,101.704,99.9869,0.0120235,0.0787848,20.895,472.78,0.156219,0.0,0.0
772,192.75,41.6066,43.1041,154.546,101.722,99.1167,0.0119597,0.0791271,20.8949,472.77,0.238099,0.0,0.0
774,193.25,41.9511,43.7395,154.889,101.707,98.9925,0.0118916,0.0794615,20.8943,472.77,0.248268,0.0,0.0
776,193.75,42.1339,43.2609,153.013,101.716,99.0254,0.0118364,0.0797836,20.8939,472.75,0.245994,0.0,0.0
778,194.25,42.0307,43.0523,153.084,101.718,98.9631,0.011774,0.0800803,20.8935,472.75,0.251924,0.0,0.0
780,194.75,41.5914,43.2362,155.809,101.724,99.3383,0.0117076,0.0803526,20.8932,472.75,0.217755,0.0,0.0
782,195.25,41.2022,43.4212,154.623,101.708,99.7075,0.011626,0.0805661,20.893,472.76,0.182268,0.0,0.0
784,195.75,41.7281,43.603,153.086,101.731,98.9651,0.0115349,0.0807325,20.8928,472.76,0.252964,0.0,0.0
786,196.25,41.7429,43.6594,149.151,101.714,99.3698,0.0114611,0.0808674,20.8926,472.74,0.213922,0.0,0.0
788,196.75,41.7477,43.1381,152.732,101.719,99.3206,0.0112856,0.0810037,20.8925,472.75,0.218986,0.0,0.0
790,197.25,41.0753,42.9512,154.737,101.716,99.3439,0.0111434,0.0811142,20.8924,472.75,0.216497,0.0,0.0
792,197.75,41.1086,43.3679,154.342,101.721,99.2541,0.0109052,0.0813535,20.8921,472.75,0.225236,0.0,0.0
794,198.25,41.8175,43.0251,154.654,101.718,99.0508,0.0107122,0.0816821,20.8916,472.77,0.243831,0.0,0.0
796,198.75,41.8366,42.8405,157.162,101.718,99.103,0.0104294,0.0819483,20.8912,472.72,0.238994,0.0,0.0
798,199.25,41.5426,43.0997,156.52,101.725,99.0827,0.0102003,0.0823131,20.8909,472.75,0.241467,0.0,0.0
800,199.75,41.2741,42.6651,153.029,101.73,99.4854,0.00990259,0.0826086,20.8907,472.72,0.204739,0.0,0.0
802,200.25,41.7586,43.0138,154.596,101.709,98.9615,0.00966145,0.0831048,20.8905,472.71,0.251322,0.0,0.0
804,200.75,41.682,42.8525,153.732,101.722,99.0822,0.00946614,0.0832383,20.8903,472.72,0.241254,0.0,0.0
806,201.25,41.3071,43.624,152.282,101.721,98.9651,0.00920882,0.083643,20.8902,472.75,0.251996,0.0,0.0
808,201.75,41.5562,42.6154,157.234,101.72,99.2303,0.00900039,0.0839707,20.8901,472.74,0.227365,0.0,0.0
810,202.25,41.5172,43.1784,153.37,101.705,98.9798,0.0087859,0.0843177,20.89,472.7,0.249258,0.0,0.0
812,202.75,41.4427,43.2557,163.544,101.719,98.8404,0.00861217,0.0845987,20.8899,472.69,0.263421,0.0,0.0
814,203.25,41.5205,43.0509,149.435,101.721,99.5782,0.00844411,0.0848192,20.8899,472.7,0.195329,0.0,0.0
816,203.75,41.8458,42.5954,156.226,101.716,99.2602,0.00828338,0.0849914,20.8898,472.71,0.224228,0.0,0.0
818,204.25,40.7152,42.5203,159.672,101.711,98.8819,0.00811857,0.0851308,20.8898,472.72,0.258856,0.0,0.0
820,204.75,41.109,42.9032,156.715,101.711,99.0594,0.00795393,0.0852167,20.8898,472.73,0.2424,0.0,0.0
822,205.25,40.7198,42.5591,155.387,101.727,99.0412,0.00782056,0.0852862,20.8897,472.71,0.245543,0.0,0.0
824,205.75,41.2862,43.0592,157.795,101.714,98.7354,0.0076267,0.0853425,20.8897,472.7,0.272689,0.0,0.0
826,206.25,40.9906,42.5172,153.162,101.711,99.3135,0.00746967,0.0853881,20.8897,472.71,0.218898,0.0,0.0
828,206.75,41.1434,43.089,154.519,101.711,99.385,0.00726313,0.085475,20.8897,472.68,0.212294,0.0,0.0
830,207.25,41.1186,43.2545,154.426,101.716,99.4783,0.00709582,0.0855905,20.8897,472.7,0.204093,0.0,0.0
832,207.75,41.1293,42.9189,158.596,101.719,99.4458,0.00696031,0.085684,20.8897,472.7,0.207384,0.0,0.0
834,208.25,40.9775,42.9547,152.198,101.718,99.0599,0.00679019,0.0858412,20.8897,472.71,0.242949,0.0,0.0
836,208.75,40.7163,42.1779,154.716,101.714,99.2283,0.0066524,0.0859686,20.8897,472.68,0.226996,0.0,0.0
838,209.25,41.1667,42.7244,154.019,101.716,99.0325,0.00650186,0.0861668,20.8897,472.68,0.2453,0.0,0.0
840,209.75,40.6149,42.5644,155.412,101.715,99.4742,0.00637992,0.0863274,20.8896,472.68,0.20443,0.0,0.0
842,210.25,40.6902,42.2187,159.312,101.714,99.0934,0.00623224,0.086486,20.8896,472.66,0.239478,0.0,0.0
844,210.75,41.1061,42.4363,148.172,101.709,98.8343,0.00608361,0.0866403,20.8896,472.66,0.263057,0.0,0.0
846,211.25,40.9926,42.668,152.176,101.733,99.3059,0.00593712,0.0867652,20.8896,472.66,0.221571,0.0,0.0
848,211.75,40.8554,42.8967,156.185,101.703,99.138,0.00581846,0.0868529,20.8896,472.65,0.234379,0.0,0.0
850,212.25,40.7661,42.6128,153.024,101.711,99.4164,0.00572234,0.0869238,20.8896,472.65,0.209393,0.0,0.0
852,212.75,40.4888,42.5189,157.952,101.706,98.956,0.00558071,0.0869885,20.8899,472.66,0.251542,0.0,0.0
854,213.25,40.898,42.8769,149.36,101.719,98.886,0.00546599,0.0870473,20.8905,472.66,0.259223,0.0,0.0
856,213.75,40.5189,43.1302,155.811,101.706,99.1172,0.00536432,0.0871764,20.8906,472.66,0.236564,0.0,0.0
858,214.25,40.3392,42.7442,154.611,101.723,99.0467,0.00528197,0.087281,20.8906,472.66,0.244653,0.0,0.0
860,214.75,41.0751,42.8381,156.921,101.7,99.2019,0.00521527,0.0873657,20.8905,472.65,0.228207,0.0,0.0
862,215.25,40.5289,42.1127,155.525,101.714,99.0275,0.00518375,0.0875975,20.8906,472.65,0.245583,0.0,0.0
864,215.75,40.2973,42.7886,158.006,101.704,98.8789,0.00515821,0.0877852,20.8907,472.64,0.258505,0.0,0.0
866,216.25,40.5612,42.4587,152.656,101.709,99.1025,0.00517505,0.0879916,20.8908,472.65,0.238186,0.0,0.0
868,216.75,41.0979,42.4638,154.875,101.708,99.2308,0.00518868,0.0881588,20.8908,472.65,0.22624,0.0,0.0
870,217.25,40.2604,42.6207,155.065,101.712,98.8084,0.00522213,0.0882942,20.8909,472.64,0.265794,0.0,0.0
872,217.75,40.8568,42.315,157.023,101.709,98.7638,0.00526938,0.0884863,20.8909,472.63,0.269603,0.0,0.0
874,218.25,40.9213,42.3722,153.724,101.722,99.3337,0.00531689,0.0886419,20.891,472.63,0.218028,0.0,0.0
876,218.75,40.4911,42.4334,153.594,101.71,99.1045,0.00536368,0.0887271,20.891,472.62,0.23811,0.0,0.0
878,219.25,40.8956,42.4641,153.329,101.715,98.9347,0.0054029,0.0887961,20.891,472.64,0.254298,0.0,0.0
880,219.75,40.9348,42.1611,157.168,101.696,98.9712,0.00543586,0.088852,20.8911,472.63,0.249202,0.0,0.0
882,220.25,40.3755,42.138,156.097,101.712,99.1461,0.00545859,0.0888973,20.8911,472.64,0.23441,0.0,0.0
884,220.75,40.7595,42.1154,152.071,101.697,98.9702,0.00547345,0.088934,20.8911,472.61,0.249445,0.0,0.0
886,221.25,40.6626,42.4483,152.842,101.708,99.3241,0.00548548,0.0889501,20.8911,472.62,0.217654,0.0,0.0
888,221.75,40.5724,42.1947,152.538,101.69,99.2982,0.00549259,0.0889631,20.8911,472.61,0.218407,0.0,0.0
890,222.25,40.2382,42.0545,154.914,101.708,98.8327,0.00549597,0.0888921,20.8911,472.6,0.263124,0.0,0.0
892,222.75,40.3215,42.2626,156.009,101.707,98.7993,0.00550729,0.0888346,20.8911,472.62,0.26612,0.0,0.0
894,223.25,41.0905,42.4996,155.164,101.711,99.1147,0.00552417,0.0887609,20.8911,472.59,0.237246,0.0,0.0
896,223.75,40.4206,42.36,156.005,101.691,99.1101,0.00553784,0.0887011,20.8911,472.61,0.23592,0.0,0.0
898,224.25,40.3882,42.3143,155.938,101.712,99.1973,0.00557147,0.0885883,20.8911,472.62,0.229745,0.0,0.0
900,224.75,40.7695,42.2281,153.358,101.687,99.0543,0.0055987,0.088439,20.8911,472.61,0.240714,0.0,0.0
902,225.25,40.3165,42.3808,154.453,101.699,98.8804,0.00561826,0.0882395,20.8913,472.6,0.257881,0.0,0.0
904,225.75,39.8718,41.7123,158.898,101.689,98.71,0.0056341,0.088007,20.8915,472.59,0.272851,0.0,0.0
906,226.25,40.4193,42.2993,155.355,101.705,98.7902,0.00561559,0.0878187,20.8918,472.59,0.266856,0.0,0.0
908,226.75,40.4923,41.9467,157.389,101.699,99.0107,0.0056006,0.087639,20.8919,472.62,0.245796,0.0,0.0
910,227.25,40.3268,41.9674,151.339,101.709,98.9889,0.00554713,0.0874935,20.8921,472.62,0.248709,0.0,0.0
912,227.75,40.3433,42.3319,154.835,101.684,98.9098,0.00550382,0.0873895,20.8922,472.63,0.253813,0.0,0.0
914,228.25,40.0976,42.0004,152.148,101.697,98.8104,0.00546874,0.0873177,20.8923,472.62,0.264266,0.0,0.0
916,228.75,40.2696,42.0813,151.557,101.693,99.0589,0.0053603,0.0872668,20.8923,472.61,0.240848,0.0,0.0
918,229.25,39.6746,41.9573,156.483,101.701,98.9661,0.00527247,0.0872319,20.8924,472.61,0.250155,0.0,0.0
920,229.75,40.0151,42.0517,158.256,101.682,99.2531,0.00517386,0.0872109,20.8924,472.59,0.221835,0.0,0.0
922,230.25,40.2427,42.0069,154.058,101.7,98.993,0.00509398,0.0872002,20.8925,472.62,0.247552,0.0,0.0
924,230.75,40.1515,42.3903,156.297,101.677,98.9002,0.00506674,0.0871988,20.8925,472.62,0.254075,0.0,0.0
926,231.25,40.5362,41.8255,155.863,101.693,98.959,,0.087204,,472.6,0.250106,0.0,0.0
928,231.75,40.2691,42.2669,158.381,101.675,99.3581,,0.0872083,,472.57,0.211503,0.0,0.0
930,232.25,40.4099,41.8108,151.804,101.693,98.9159,,0.0870759,,472.59,0.254029,0.0,0.0
932,232.75,39.7458,42.0211,151.252,101.681,99.2065,,0.0869686,,472.62,0.226111,0.0,0.0
934,233.25,40.053,41.9083,160.521,101.679,98.8333,,0.0865695,,472.61,0.260435,0.0,0.0
936,233.75,39.9763,41.9834,151.165,101.669,98.887,,0.0862463,,472.58,0.254592,0.0,0.0
938,234.25,39.4851,41.7743,156.999,101.686,98.9899,,,,472.59,0.246533,0.0,0.0
940,234.75,39.8168,42.0666,158.145,101.671,98.7592,,,,472.59,0.266643,0.0,0.0
942,235.25,39.5368,41.4628,155.498,101.678,98.9793,,,,472.59,0.246812,0.0,0.0
944,235.75,40.017,41.8455,155.116,101.669,98.9605,,,,472.56,0.247734,0.0,0.0
946,236.25,39.9443,42.3442,157.01,101.685,99.0331,,,,472.57,0.242463,0.0,0.0
948,236.75,40.1547,42.0782,156.585,101.679,98.6832,,,,472.57,0.274381,0.0,0.0
950,237.25,39.8115,42.1105,153.607,101.669,99.7916,,,,472.57,0.171065,0.0,0.0
952,237.75,40.1367,41.8937,156.47,101.669,98.8997,,,,472.58,0.253452,0.0,0.0
954,238.25,39.7976,41.8258,157.761,101.672,98.8576,,,,472.58,0.257544,0.0,0.0
956,238.75,39.6119,41.0853,158.121,101.653,98.8622,,,,472.56,0.255483,0.0,0.0
958,239.25,40.0325,41.8818,154.969,101.67,98.8297,,,,472.55,0.259984,0.0,0.0
960,239.75,39.3604,41.6647,154.452,101.673,99.2262,,,,472.55,0.223502,0.0,0.0
962,240.25,39.2069,42.013,156.039,101.667,99.3434,,,,472.56,0.212117,0.0,0.0
964,240.75,40.0648,41.4885,151.79,101.653,98.8419,,,,472.56,0.257366,0.0,0.0
966,241.25,39.6271,41.4875,149.969,101.657,98.9179,,,,472.56,0.250643,0.0,0.0
968,241.75,39.2819,41.5299,157.194,101.658,99.0665,,,,472.55,0.236908,0.0,0.0