File: 02_Data/Polyurethane_Foam/Cone/Polyurethane_Foam_Cone_HF75Scan_210325_R3.csv
Names,Time,Stack TC,Smoke TC,Exh Press,Smoke Comp,Smoke Meas,CO Meter,CO2 Meter,O2 Meter,Sample Mass,Ext Coeff,Start Test,Flame Verif
Chan Gain,,500,500,1,1,1,1,1,1,1,1,1.0,1.0
Offset,,0,0,0.138348,0,0,0,0,0,0,0,0.0,0.0
Gain,,1,1,25.011,13.5067,16.616,1,1,1,1.00091,1.04608,1.0,1.0
Units,sec,C,C,Pa,%,%,%,%,%,g,/m,,
Baseline,,40.2302,43.8108,157.662,101.26,98.8888,-0.000277164,0.0847467,20.8609,-1.62256,0.217454,,
2,0.25,36.1942,37.8264,158.685,101.765,99.206,0.00035923,0.0900095,20.8561,473.831,0.233669,0.0,0.0
4,0.75,35.7862,37.4547,163.518,101.761,99.3327,0.000778361,0.0905434,20.85,473.571,0.221616,0.0,1.0
6,1.25,35.8323,37.8523,152.531,101.768,96.5818,0.00131372,0.0939564,20.845,473.391,0.479993,0.0,1.0
8,1.75,35.9744,38.8031,137.233,101.763,85.5747,0.00192364,0.0967209,20.8307,473.511,1.58987,0.0,1.0
10,2.25,36.5551,39.5273,141.967,101.773,80.7483,0.00241768,0.0989602,20.8099,473.441,2.12346,0.0,1.0
12,2.75,37.0019,41.0176,144.621,101.771,79.6403,0.00325797,0.107309,20.778,473.421,2.25001,0.0,1.0
14,3.25,38.338,42.0852,136.508,101.778,77.1191,0.00393861,0.119952,20.7386,473.311,2.54583,0.0,1.0
16,3.75,38.7435,43.6315,140.936,101.786,77.9619,0.00490583,0.130193,20.6855,473.211,2.44681,0.0,1.0
18,4.25,39.877,45.4766,144.296,101.789,75.7272,0.00602328,0.151182,20.597,473.041,2.71401,0.0,1.0
20,4.75,40.3728,46.6579,142.041,101.784,73.4109,0.00654649,0.168182,20.5732,472.971,2.99862,0.0,1.0
22,5.25,39.6878,46.7639,134.831,101.789,74.2475,0.00744117,0.19247,20.5149,472.88,2.89504,0.0,1.0
24,5.75,40.291,47.7553,140.056,101.792,75.3935,0.0083395,0.212144,20.4676,472.79,2.75475,0.0,1.0
26,6.25,41.4536,48.6753,138.705,101.803,73.9377,0.00922342,0.237555,20.4216,472.72,2.93471,0.0,0.0
28,6.75,42.0269,50.0195,133.519,101.803,70.9885,0.0099394,0.258138,20.3773,472.63,3.30819,0.0,0.0
30,7.25,42.7182,51.2005,136.844,101.809,71.1158,0.0106951,0.294975,20.3415,472.57,3.2923,0.0,0.0
32,7.75,43.2526,52.603,129.75,101.816,70.7375,0.0114655,0.304885,20.3001,472.47,3.34184,0.0,0.0
34,8.25,44.6998,54.1614,132.585,101.815,71.9839,0.0121703,0.327795,20.2665,472.33,3.18153,0.0,0.0
36,8.75,45.3717,55.3661,143.684,101.822,73.2638,0.0128139,0.351721,20.2297,472.23,3.0204,0.0,0.0
38,9.25,46.5796,56.317,134.686,101.824,72.4423,0.0133934,0.3711,20.1998,472.17,3.12402,0.0,0.0
40,9.75,46.818,57.4909,132.173,101.842,76.7261,0.0139153,0.391808,20.1681,472.07,2.59851,0.0,0.0
42,10.25,47.7888,58.8361,127.656,101.829,74.0143,0.0143908,0.413089,20.1424,471.99,2.92748,0.0,0.0
44,10.75,47.952,59.9816,132.986,101.843,75.8494,0.0148234,0.430327,20.119,471.91,2.70408,0.0,0.0
46,11.25,49.1056,61.2476,135.909,101.852,76.0223,0.0152513,0.451432,20.1,471.86,2.68396,0.0,0.0
48,11.75,49.8052,62.012,135.636,101.853,75.4255,0.0156674,0.470885,20.0833,471.769,2.75636,0.0,0.0
50,12.25,50.3,62.7445,144.36,101.852,76.3575,0.0161383,0.488764,20.0698,471.669,2.6436,0.0,0.0
52,12.75,50.8374,63.7151,135.36,101.868,73.1492,0.01664,0.50568,20.0465,471.599,3.03889,0.0,0.0
54,13.25,51.2779,64.6302,139.717,101.862,76.3174,0.0170465,0.521573,20.0276,471.549,2.6493,0.0,0.0
56,13.75,51.4217,65.2227,131.37,101.869,72.3881,0.0179508,0.538964,19.9949,471.379,3.13498,0.0,0.0
58,14.25,52.1904,67.5263,132.354,101.87,74.1608,0.0186834,0.557117,19.9527,471.259,2.91308,0.0,0.0
60,14.75,53.7857,69.2921,118.623,101.901,73.6543,0.0197612,0.581075,19.9185,471.139,2.97872,0.0,0.0
62,15.25,54.7801,70.8674,115.14,101.879,71.9885,0.0206343,0.608809,19.8162,470.879,3.18666,0.0,0.0
64,15.75,56.8999,74.9359,104.48,101.892,70.8465,0.0215688,0.631274,19.7334,470.719,3.33458,0.0,0.0
66,16.25,58.7336,78.9993,98.1019,101.885,76.1019,0.0225305,0.684648,19.5672,470.478,2.67729,0.0,0.0
68,16.75,61.1055,84.1683,86.7734,101.883,78.8401,0.0233094,0.727881,19.4325,470.268,2.35278,0.0,0.0
70,17.25,65.4028,92.1967,97.1142,101.885,84.4976,0.0240843,0.790966,19.2515,469.978,1.71705,0.0,0.0
72,17.75,67.8815,97.8583,83.9653,101.9,89.4888,0.024712,0.867324,19.04,469.828,1.19177,0.0,0.0
74,18.25,73.0768,104.844,80.9046,101.902,89.2885,0.0251692,0.929174,18.8192,469.658,1.21248,0.0,0.0
76,18.75,75.3079,111.692,87.8504,101.875,90.6267,0.0255395,1.03334,18.5959,469.417,1.07356,0.0,0.0
78,19.25,79.1356,117.597,90.3127,101.812,89.3656,0.0256887,1.11771,18.3868,469.257,1.19654,0.0,0.0
80,19.75,81.8619,123.471,97.2608,101.894,92.366,0.0258095,1.23383,18.1922,468.947,0.900869,0.0,0.0
82,20.25,85.278,129.849,89.8402,101.898,93.9293,0.0259074,1.32788,18.0346,468.807,0.747194,0.0,0.0
84,20.75,88.2013,136.115,82.422,101.933,94.4551,0.0257004,1.45112,17.883,468.627,0.699158,0.0,0.0
86,21.25,91.8326,141.581,92.2674,101.922,94.985,0.0255328,1.55095,17.7387,468.366,0.646821,0.0,0.0
88,21.75,94.5075,147.215,89.2624,101.924,94.3243,0.0251959,1.6513,17.6218,468.146,0.71106,0.0,0.0
90,22.25,97.7961,151.6,85.917,101.925,95.1133,0.024923,1.75012,17.5134,468.026,0.634659,0.0,0.0
92,22.75,99.9604,156.65,85.8384,101.934,94.5403,0.024702,1.83017,17.4132,467.816,0.69096,0.0,0.0
94,23.25,102.523,161.328,87.2817,101.934,95.3547,0.0243683,1.93024,17.3325,467.536,0.612293,0.0,0.0
96,23.75,105.29,165.694,94.3329,101.937,96.2664,0.0239588,2.01129,17.2676,467.415,0.525195,0.0,0.0
98,24.25,107.892,170.341,84.6606,101.943,94.7472,0.0235076,2.08881,17.215,467.165,0.671719,0.0,0.0
100,24.75,109.848,173.727,87.3046,101.958,94.6767,0.0230345,2.16228,17.1724,466.975,0.679845,0.0,0.0
102,25.25,112.142,177.065,105.5,101.949,95.2644,0.02245,2.22179,17.1379,466.815,0.622319,0.0,0.0
104,25.75,114.06,180.502,96.7296,101.968,96.6721,0.0217953,2.27401,17.1435,466.695,0.489391,0.0,0.0
106,26.25,116.034,183.203,79.965,101.967,95.0763,0.0210627,2.31992,17.148,466.555,0.642052,0.0,0.0
108,26.75,116.513,184.254,106.52,101.974,94.8431,0.0202873,2.35148,17.1988,466.395,0.66526,0.0,0.0
110,27.25,117.904,185.296,93.9009,101.967,94.6935,0.0196591,2.37199,17.2822,466.284,0.67904,0.0,0.0
112,27.75,118.658,186.254,109.172,101.983,94.3345,0.0191503,2.37435,17.3498,466.194,0.715379,0.0,0.0
114,28.25,118.76,184.897,112.065,101.972,91.6799,0.0180843,2.36343,17.4567,466.074,0.976295,0.0,0.0
116,28.75,119.265,183.359,121.029,101.99,92.5019,0.0172207,2.35459,17.59,466.014,0.895987,0.0,0.0
118,29.25,118.377,181.292,127.609,101.985,93.585,0.0161156,2.30595,17.7556,466.044,0.78872,0.0,0.0
120,29.75,115.868,178.416,133.657,101.991,94.948,0.0152205,2.26655,17.9416,465.994,0.656631,0.0,0.0
122,30.25,115.838,175.35,136.783,101.99,95.9059,0.0142038,2.20821,18.139,465.934,0.564375,0.0,0.0
124,30.75,113.922,171.972,138.398,102.011,97.6736,0.0137704,2.13716,18.2452,465.994,0.398713,0.0,0.0
126,31.25,112.808,168.917,136.901,102.003,99.4778,0.0129036,2.07961,18.4769,465.984,0.230021,0.0,0.0
128,31.75,111.028,165.683,143.394,102.016,98.7136,0.0120885,1.97503,18.7095,466.004,0.301969,0.0,0.0
130,32.25,109.257,162.348,144.034,102.01,99.3221,0.0113341,1.89032,18.8979,466.034,0.244986,0.0,0.0
132,32.75,107.688,158.987,146.068,102.025,98.7623,0.0106382,1.78694,19.095,466.004,0.298223,0.0,0.0
134,33.25,106.126,156.246,147.25,102.017,99.1101,0.0100233,1.7032,19.2547,465.984,0.265219,0.0,0.0
136,33.75,105.101,152.416,146.949,102.033,98.7131,0.00947908,1.65042,19.4154,465.994,0.303498,0.0,0.0
138,34.25,103.251,149.627,149.889,102.024,99.0969,0.00903827,1.56016,19.5456,465.964,0.267107,0.0,0.0
140,34.75,101.765,147,149.992,102.051,99.8976,0.00863473,1.47179,19.6511,465.964,0.195711,0.0,0.0
142,35.25,100.308,143.872,152.344,102.038,99.9493,0.00826603,1.38647,19.7643,465.964,0.189775,0.0,0.0
144,35.75,98.3647,140.634,151.706,102.057,100.045,0.00796738,1.3045,19.856,465.974,0.182769,0.0,0.0
146,36.25,97.3214,138.177,156.479,102.035,100.328,0.00766503,1.22652,19.9423,465.984,0.154843,0.0,0.0
148,36.75,96.0449,135.281,150.618,102.054,100.334,0.00742013,1.16336,20.0232,465.984,0.156038,0.0,0.0
150,37.25,94.4269,132.842,149.218,102.057,100.392,0.00714634,1.09815,20.0979,465.994,0.150938,0.0,0.0
152,37.75,92.266,129.176,150.922,102.063,100.427,0.00692456,1.03267,20.1668,466.004,0.148286,0.0,0.0
154,38.25,90.933,127.148,151.199,102.052,100.719,0.00669278,0.969427,20.2227,466.024,0.1206,0.0,0.0
156,38.75,89.3624,124.8,154.382,102.074,100.283,0.00645811,0.909002,20.2851,466.004,0.162418,0.0,0.0
158,39.25,88.7202,122.659,154.532,102.055,100.528,0.00621667,0.860057,20.3357,466.004,0.138367,0.0,0.0
160,39.75,87.5131,120.065,152.973,102.074,100.366,0.00597488,0.804289,20.3876,465.994,0.154848,0.0,0.0
162,40.25,86.4924,118.274,154.193,102.067,100.426,0.00559574,0.759118,20.4298,466.024,0.148704,0.0,0.0
164,40.75,85.1524,115.667,146.956,102.073,100.41,0.00547804,0.711001,20.4709,466.014,0.150714,0.0,0.0
166,41.25,84.1774,114.032,152.275,102.074,100.189,0.00527679,0.672027,20.5043,465.984,0.171089,0.0,0.0
168,41.75,83.0678,111.517,147.823,102.107,100.214,0.00511377,0.634162,20.5313,466.014,0.171731,0.0,0.0
170,42.25,82.0539,110.607,147.992,102.089,100.494,0.00484244,0.597825,20.5598,466.084,0.144507,0.0,0.0
172,42.75,81.0342,107.937,151.84,102.099,100.509,0.00457958,0.568393,20.5829,466.124,0.144054,0.0,0.0
174,43.25,80.6976,106.15,153.16,102.099,100.719,0.0043279,0.535945,20.606,466.094,0.124825,0.0,0.0
176,43.75,79.1275,105.268,153.098,102.104,100.132,0.00412404,0.509663,20.6247,466.114,0.178996,0.0,0.0
178,44.25,78.3022,103.025,154.799,102.092,100.178,0.00389086,0.48373,20.6443,466.114,0.173694,0.0,0.0
180,44.75,77.7967,101.951,154.455,102.104,100.269,0.00367336,0.458543,20.6602,466.074,0.166422,0.0,0.0
182,45.25,76.4875,100.385,150.396,102.1,100.312,0.00347144,0.438142,20.673,466.064,0.162144,0.0,0.0
184,45.75,76.1535,98.6945,154.857,102.119,100.353,0.00330789,0.414903,20.6883,466.074,0.160008,0.0,0.0
186,46.25,74.8896,96.6862,152.323,102.111,100.397,0.00317541,0.39608,20.7006,466.064,0.155318,0.0,0.0
188,46.75,74.2072,95.8707,151.893,102.113,100.013,0.00298179,0.37573,20.7115,466.054,0.190693,0.0,0.0
190,47.25,73.4834,94.6855,150.223,102.108,100.403,0.00282495,0.359246,20.7211,466.034,0.154539,0.0,0.0
192,47.75,72.3491,92.8991,150.892,102.116,100.748,0.00263884,0.341606,20.73,465.984,0.123747,0.0,0.0
194,48.25,72.8787,91.928,152.411,102.109,100.349,0.00248809,0.327317,20.7383,465.984,0.159574,0.0,0.0
196,48.75,71.3186,90.6913,156.619,102.12,100.521,0.00236598,0.315743,20.745,465.994,0.144748,0.0,0.0
198,49.25,70.3601,89.1484,150.081,102.122,100.306,0.0021578,0.301001,20.7513,465.984,0.164655,0.0,0.0
200,49.75,70.6854,87.9682,156.796,102.124,100.237,0.00198917,0.289061,20.7573,465.964,0.171077,0.0,0.0
202,50.25,69.7102,86.5801,152.609,102.115,100.662,0.00179011,0.275738,20.7633,465.994,0.131528,0.0,0.0
204,50.75,68.795,86.2808,150.068,102.13,100.854,0.00162887,0.264946,20.7692,466.004,0.11536,0.0,0.0
206,51.25,68.4417,84.6851,156.127,102.122,100.556,0.00145545,0.254597,20.7749,465.994,0.141814,0.0,0.0
208,51.75,68.1554,84.1696,150.991,102.124,100.353,0.00131498,0.244765,20.7804,465.984,0.160452,0.0,0.0
210,52.25,67.2044,82.5948,153.539,102.129,100.183,0.00118577,0.236802,20.7858,465.984,0.176527,0.0,0.0
212,52.75,66.5755,81.7254,148.134,102.136,100.633,0.00106721,0.228699,20.7909,465.984,0.136089,0.0,0.0
214,53.25,66.3613,80.6003,155.973,102.134,100.291,0.000946764,0.220648,20.7956,465.994,0.167047,0.0,0.0
216,53.75,65.9698,79.926,147.553,102.134,100.217,0.000849199,0.213141,20.7998,465.984,0.173823,0.0,0.0
218,54.25,65.0955,78.9044,154.96,102.134,100.411,0.000755401,0.206173,20.8032,465.974,0.156104,0.0,0.0
220,54.75,65.4125,78.699,155.957,102.153,100.316,0.000666131,0.199639,20.8068,465.954,0.166552,0.0,0.0
222,55.25,64.3741,77.348,153.711,102.15,100.704,0.000593822,0.193546,20.8098,465.944,0.130877,0.0,0.0
224,55.75,64.054,76.9008,151.637,102.148,100.49,0.00051921,0.187821,20.8126,465.944,0.150091,0.0,0.0
226,56.25,63.0525,75.678,155.012,102.147,100.811,0.000444336,0.182474,20.8153,465.964,0.120837,0.0,0.0
228,56.75,62.6857,75.1756,153.861,102.152,100.413,0.000375352,0.177387,20.8175,465.964,0.157547,0.0,0.0
230,57.25,62.6306,74.6559,153.938,102.15,100.428,0.000311973,0.172587,20.8206,465.964,0.156056,0.0,0.0
232,57.75,62.5412,73.9435,156.151,102.147,100.697,0.000256146,0.168698,20.8232,465.974,0.131144,0.0,0.0
234,58.25,61.5966,73.5201,152.159,102.163,100.712,0.000206886,0.164063,20.8258,465.964,0.131285,0.0,0.0
236,58.75,61.7191,72.3723,156.134,102.172,100.637,0.000166986,0.160308,20.828,465.984,0.13882,0.0,0.0
238,59.25,61.2703,71.2676,150.478,102.17,100.463,0.000134666,0.156524,20.8299,465.984,0.154628,0.0,0.0
240,59.75,60.9514,71.036,158.143,102.168,100.567,0.000108487,0.152792,20.8317,465.964,0.144907,0.0,0.0
242,60.25,60.3351,70.4621,154.413,102.174,100.624,0.00011043,0.149769,20.8334,465.974,0.140254,0.0,0.0
244,60.75,60.2942,69.6028,156.277,102.175,100.096,0.000112003,0.14625,20.835,465.974,0.188666,0.0,0.0
246,61.25,59.7418,69.3792,156.708,102.169,100.618,0.000146196,0.1434,20.8367,465.954,0.140438,0.0,0.0
248,61.75,59.2989,68.5106,152.789,102.166,100.342,0.000173892,0.140245,20.8386,465.944,0.165287,0.0,0.0
250,62.25,59.0717,68.1344,153.171,102.174,100.756,0.000196326,0.13769,20.8401,465.944,0.12823,0.0,0.0
252,62.75,58.9779,67.5038,155.41,102.181,100.761,0.000246226,0.135132,20.8413,465.954,0.128406,0.0,0.0
254,63.25,57.963,67.2021,154.381,102.176,100.287,0.000286644,0.132621,20.8422,465.934,0.171241,0.0,0.0
256,63.75,58.3619,66.3816,152.822,102.184,100.388,0.000318162,0.130238,20.8433,465.954,0.162744,0.0,0.0
258,64.25,58.2091,66.0235,152.824,102.186,100.545,0.000343692,0.127994,20.8443,465.974,0.148543,0.0,0.0
260,64.75,57.8744,65.9848,155.339,102.174,100.933,0.000348956,0.126177,20.8451,465.954,0.112172,0.0,0.0
262,65.25,56.9412,65.5215,152.96,102.174,100.481,0.000339348,0.124029,20.8458,465.974,0.153294,0.0,0.0
264,65.75,57.638,64.7862,153.103,102.176,100.443,0.000306543,0.122289,20.8464,465.944,0.156989,0.0,0.0
266,66.25,56.5669,64.7976,156.802,102.192,100.267,0.000257452,0.120526,20.8472,465.954,0.174532,0.0,0.0
268,66.75,56.7075,64.0213,152.898,102.188,100.281,0.000197817,0.118778,20.848,465.954,0.172899,0.0,0.0
270,67.25,56.2866,63.7632,154.38,102.199,100.16,0.000131628,0.117123,20.849,465.944,0.184911,0.0,0.0
272,67.75,56.145,63.1593,154.994,102.186,100.554,7.80147e-05,0.115569,20.8498,465.944,0.147701,0.0,0.0
274,68.25,55.7093,63.126,152.496,102.206,100.437,-1.94331e-06,0.114064,20.8505,465.924,0.160174,0.0,0.0
276,68.75,55.4076,62.3653,153.022,102.194,100.659,-6.67093e-05,0.112624,20.851,465.914,0.138877,0.0,0.0
278,69.25,55.6222,61.527,157.002,102.2,100.455,-0.00011917,0.111457,20.8515,465.964,0.157951,0.0,0.0
280,69.75,55.6063,61.4215,153.396,102.195,100.213,-0.000161663,0.110088,20.8518,465.934,0.179674,0.0,0.0
282,70.25,54.9425,61.3065,157.292,102.208,100.624,-0.000242361,0.108978,20.8522,465.964,0.143362,0.0,0.0
284,70.75,54.8292,60.9053,153.814,102.205,100.679,-0.000307727,0.107655,20.8525,465.954,0.138111,0.0,0.0
286,71.25,54.3779,60.4787,151.353,102.201,100.552,-0.000367981,0.106582,20.8527,465.944,0.149256,0.0,0.0
288,71.75,54.4005,60.1984,157.776,102.196,100.36,-0.000416786,0.105714,20.8529,465.954,0.166367,0.0,0.0
290,72.25,54.3613,60.1593,153.21,102.213,100.42,-0.000456959,0.104802,20.8531,465.934,0.162331,0.0,0.0
292,72.75,53.8534,59.9411,157.653,102.208,100.238,-0.000490076,0.103875,20.8537,465.934,0.178583,0.0,0.0
294,73.25,53.847,59.4286,156.377,102.226,100.655,-0.000515619,0.103124,20.8541,465.914,0.14205,0.0,0.0
296,73.75,53.5611,59.126,154.518,102.213,100.872,-0.000535155,0.102365,20.8545,465.934,0.121176,0.0,0.0
298,74.25,53.7697,58.9456,153.611,102.217,100.219,-0.000549057,0.101615,20.8548,465.924,0.181161,0.0,0.0
300,74.75,53.5442,58.9002,156.176,102.208,100.776,-0.000558586,0.100877,20.8551,465.924,0.129454,0.0,0.0
302,75.25,53.2765,58.1725,154.375,102.223,100.3,-0.000566305,0.100163,20.8555,465.914,0.174207,0.0,0.0
304,75.75,52.6758,58.0019,149.305,102.216,100.576,-0.000572557,0.0994489,20.8561,465.924,0.148413,0.0,0.0
306,76.25,53.1135,57.6773,152.948,102.229,100.238,-0.000577621,0.0987473,20.8565,465.944,0.180507,0.0,0.0
308,76.75,52.6333,57.3853,152.488,102.219,100.81,-0.000580441,0.0980929,20.8569,465.914,0.127361,0.0,0.0
310,77.25,52.5932,57.0787,156.471,102.229,100.377,-0.000581572,0.0974853,20.8572,465.924,0.167751,0.0,0.0
312,77.75,52.3848,56.8208,151.317,102.218,100.686,-0.000574799,0.096907,20.8574,465.924,0.138649,0.0,0.0
314,78.25,52.68,56.5761,152.43,102.227,100.126,-0.000562393,0.0963612,20.8576,465.934,0.190587,0.0,0.0
316,78.75,51.8327,56.2862,158.627,102.218,100.507,-0.000552343,0.095919,20.8578,465.964,0.154901,0.0,0.0
318,79.25,51.7881,56.0045,154.023,102.228,100.168,-0.000532024,0.0954246,20.8582,465.994,0.186841,0.0,0.0
320,79.75,51.7452,55.6257,149.551,102.239,100.51,-0.000515566,0.0950241,20.8589,465.974,0.156501,0.0,0.0
322,80.25,51.7428,56.1008,153.852,102.239,100.42,-0.000500953,0.0946352,20.8594,465.954,0.164699,0.0,0.0
324,80.75,51.4692,56.1256,152.29,102.222,100.882,-0.000487963,0.0942621,20.8598,465.944,0.121114,0.0,0.0
326,81.25,51.4798,55.7044,154.428,102.231,100.296,-0.000481286,0.0939599,20.8602,465.954,0.175356,0.0,0.0
328,81.75,51.4553,55.1817,152.888,102.218,100.523,-0.00047934,0.0935525,20.8604,465.964,0.153449,0.0,0.0
330,82.25,51.4937,55.6622,159.911,102.252,100.37,-0.000483532,0.0932225,20.8607,465.974,0.170481,0.0,0.0
332,82.75,51.2731,54.7861,153.981,102.225,101.383,-0.000492119,0.0928191,20.8608,465.964,0.0758329,0.0,0.0
334,83.25,50.8262,55.3516,152.257,102.245,100.233,-0.000499075,0.0924923,20.861,465.974,0.182367,0.0,0.0
336,83.75,50.7159,54.6341,156.359,102.229,100.333,-0.000513684,0.0921489,20.8611,465.974,0.171831,0.0,0.0
338,84.25,50.5462,54.2805,156.196,102.233,100.703,-0.000533593,0.0917998,20.8612,466.004,0.138325,0.0,0.0
340,84.75,50.9929,54.2292,157.208,102.227,100.332,-0.000555489,0.0914597,20.8613,465.954,0.171738,0.0,0.0
342,85.25,50.8511,54.0198,151.939,102.237,100.294,-0.000578416,0.0911327,20.8614,465.974,0.17606,0.0,0.0
344,85.75,50.9476,54.125,152.379,102.234,100.108,-0.000597628,0.0908678,20.8614,465.954,0.192843,0.0,0.0
346,86.25,50.7512,54.0898,156.9,102.224,100.331,-0.000613768,0.0905309,20.8614,465.974,0.171489,0.0,0.0
348,86.75,50.4575,54.0695,156.772,102.229,100.284,-0.000621712,0.090258,20.8615,465.964,0.176284,0.0,0.0
350,87.25,50.2223,53.5708,157.153,102.235,100.663,-0.000623531,0.089994,20.8615,465.964,0.142198,0.0,0.0
352,87.75,50.1792,53.7786,148.785,102.237,100.341,-0.000607955,0.0897415,20.8615,465.984,0.171783,0.0,0.0
354,88.25,50.185,53.3477,154.39,102.231,100.251,-0.000595338,0.0895012,20.862,465.964,0.179486,0.0,0.0
356,88.75,50.2163,53.0941,157.537,102.223,100.5,-0.000569733,0.0892744,20.8624,465.964,0.156031,0.0,0.0
358,89.25,49.7191,53.1484,153.077,102.237,100.117,-0.000535144,0.0890763,20.8627,465.974,0.192311,0.0,0.0
360,89.75,49.945,53.2262,154.277,102.223,100.576,-0.000507127,0.088903,20.8629,465.954,0.14908,0.0,0.0
362,90.25,49.5383,53.2794,154.165,102.224,100.278,-0.000465845,0.0887341,20.8631,465.944,0.176351,0.0,0.0
364,90.75,49.6006,52.9415,154.207,102.226,100.338,-0.000415678,0.0885715,20.8631,465.964,0.171072,0.0,0.0
366,91.25,49.1159,53.4499,155.755,102.232,101.141,-0.000375042,0.0883893,20.8631,465.974,0.0983803,0.0,0.0
368,91.75,49.6234,52.5022,152.162,102.229,100.275,-0.000329947,0.0881963,20.8631,465.964,0.177119,0.0,0.0
370,92.25,49.2913,52.4054,155.422,102.226,100.331,-0.000293421,0.0880399,20.8631,465.984,0.171674,0.0,0.0
372,92.75,49.5729,51.8462,155.928,102.229,100.456,-0.000263834,0.0878561,20.8631,465.984,0.160522,0.0,0.0
374,93.25,49.3307,52.0107,156.766,102.228,100.155,-0.000258138,0.0876557,20.8632,466.004,0.188012,0.0,0.0
376,93.75,49.1721,52.0488,154.672,102.236,100.378,-0.000253524,0.0874934,20.8633,465.974,0.168287,0.0,0.0
378,94.25,49.1759,51.7439,149.607,102.232,100.177,-0.000274143,0.0873212,20.8634,465.964,0.186301,0.0,0.0
380,94.75,48.7624,51.8807,154.525,102.233,100.749,-0.000290845,0.0871817,20.8634,465.944,0.134168,0.0,0.0
382,95.25,49.075,51.9903,151.831,102.221,100.573,-0.000318988,0.0870687,20.8635,465.954,0.149099,0.0,0.0
384,95.75,49.0298,51.8433,154.903,102.227,100.704,-0.000341784,0.0869343,20.8635,465.964,0.137762,0.0,0.0
386,96.25,49.0556,51.8379,153.724,102.225,100.457,-0.000355377,0.0867868,20.8633,465.934,0.160069,0.0,0.0
388,96.75,48.6755,51.3152,155.676,102.231,100.524,-0.000366388,0.0866538,20.863,465.944,0.154502,0.0,0.0
390,97.25,48.9842,51.3029,154.148,102.22,100.467,-0.000375306,0.0865461,20.8627,465.964,0.158736,0.0,0.0
392,97.75,48.264,51.9004,148.931,102.238,100.572,-0.00036548,0.0864045,20.8629,465.944,0.150744,0.0,0.0
394,98.25,49.2701,51.3992,155.292,102.223,100.437,-0.000357521,0.0862898,20.863,465.934,0.161811,0.0,0.0
396,98.75,48.4848,50.918,151.315,102.226,100.447,-0.00035492,0.0861426,20.8632,465.944,0.161023,0.0,0.0
398,99.25,48.7675,51.4411,156.373,102.223,99.9757,-0.000356274,0.0860234,20.8633,465.944,0.203946,0.0,0.0
400,99.75,48.1437,51.0948,154.375,102.227,100.293,-0.000365707,0.0859125,20.8634,465.954,0.175227,0.0,0.0
402,100.25,48.6827,51.1746,155.558,102.225,100.739,-0.000380849,0.0858098,20.8636,465.974,0.134342,0.0,0.0
404,100.75,48.0663,50.9909,155.157,102.225,100.559,-0.000398242,0.0857267,20.8638,465.954,0.1508,0.0,0.0
406,101.25,47.8941,51.5387,155.909,102.209,100.3,-0.000416945,0.0856322,20.8639,465.944,0.172996,0.0,0.0
408,101.75,47.9497,50.8879,153.752,102.222,100.673,-0.000432095,0.0855556,20.8641,465.934,0.140137,0.0,0.0
410,102.25,48.211,50.9403,156.333,102.227,100.555,-0.000455328,0.0854583,20.8642,465.954,0.15131,0.0,0.0
412,102.75,47.8286,50.8986,155.233,102.229,100.352,-0.000474146,0.0853477,20.8643,465.954,0.170069,0.0,0.0
414,103.25,48.0972,50.7853,154.732,102.217,100.276,-0.000491825,0.0852581,20.8643,465.944,0.175952,0.0,0.0
416,103.75,47.9189,50.764,155.609,102.222,100.324,-0.000506144,0.0851855,20.8644,465.934,0.172037,0.0,0.0
418,104.25,47.5338,50.6842,155.978,102.207,101.095,-0.000517743,0.0851267,20.8644,465.944,0.100348,0.0,0.0
420,104.75,47.6901,50.5845,154.45,102.216,100.468,-0.00052592,0.085052,20.8645,465.954,0.15831,0.0,0.0
422,105.25,47.8716,50.9741,152.917,102.211,100.377,-0.000532544,0.0849914,20.8645,465.944,0.166169,0.0,0.0
424,105.75,47.5258,50.4678,159.88,102.221,100.199,-0.000531819,0.0849016,20.8645,465.944,0.183342,0.0,0.0
426,106.25,47.5878,50.1793,152.981,102.208,100.237,-0.000531232,0.0848289,20.8645,465.934,0.178629,0.0,0.0
428,106.75,47.5728,50.0105,151.807,102.22,100.43,-0.000525885,0.0847486,20.8645,465.944,0.162127,0.0,0.0
430,107.25,47.2843,50.2224,156.74,102.207,100.379,-0.000521554,0.0846643,20.8645,465.914,0.165531,0.0,0.0
432,107.75,47.6205,49.5094,152.497,102.227,100.876,-0.000519264,0.084596,20.8646,465.914,0.122065,0.0,0.0
434,108.25,47.1765,50.0527,154.45,102.207,100.117,-0.000517409,0.0845407,20.8646,465.904,0.189647,0.0,0.0
436,108.75,47.1846,50.1673,154.239,102.212,100.516,-0.000518342,0.0844958,20.8646,465.924,0.15355,0.0,0.0
438,109.25,47.6847,49.5809,152.96,102.217,100.237,-0.000519098,0.0844453,20.865,465.934,0.179444,0.0,0.0
440,109.75,47.2299,49.9477,153.665,102.217,100.27,-0.000524195,0.0843914,20.8654,465.924,0.176463,0.0,0.0
442,110.25,47.374,49.4585,149.699,102.209,100.356,-0.000532358,0.0842936,20.8657,465.924,0.167922,0.0,0.0
444,110.75,46.854,49.33,155.346,102.224,100.455,-0.000538971,0.0842143,20.8659,465.904,0.160171,0.0,0.0
446,111.25,47.0817,49.7022,156.621,102.204,100.401,-0.000548173,0.0841365,20.866,465.894,0.163352,0.0,0.0
448,111.75,46.7493,49.724,157.1,102.233,100.184,-0.000559088,0.0840735,20.866,465.904,0.185808,0.0,0.0
450,112.25,46.6969,49.651,153.539,102.213,100.201,-0.000567929,0.0840225,20.866,465.914,0.182453,0.0,0.0
452,112.75,46.783,49.7118,152.414,102.222,100.377,-0.000572655,0.0839533,20.866,465.914,0.167085,0.0,0.0
454,113.25,46.8382,49.4415,151.282,102.202,100.585,-0.000576483,0.0838972,20.866,465.894,0.146331,0.0,0.0
456,113.75,47.206,49.8988,151.801,102.218,100.446,-0.00057593,0.083809,20.8661,465.904,0.160412,0.0,0.0
458,114.25,47.0922,49.1698,156.714,102.202,100.353,-0.000575481,0.0836989,20.8661,465.894,0.167487,0.0,0.0
460,114.75,47.1322,49.1639,156.317,102.228,100.496,-0.000571465,0.0836098,20.8661,465.904,0.156716,0.0,0.0
462,115.25,47.1532,49.3121,151.055,102.211,100.356,-0.000568212,0.0835241,20.8661,465.914,0.168069,0.0,0.0
464,115.75,46.8815,49.2805,149.594,102.214,100.207,-0.000565577,0.0834546,20.8661,465.904,0.181923,0.0,0.0
466,116.25,46.7494,49.0717,152.088,102.213,100.332,-0.000552482,0.0833712,20.8662,465.924,0.170434,0.0,0.0
468,116.75,46.1505,49.1532,152.352,102.228,100.384,-0.000541875,0.0833037,20.8664,465.934,0.167075,0.0,0.0
470,117.25,47.278,49.8109,154.158,102.219,100.33,-0.000535719,0.0832083,20.8666,465.924,0.171221,0.0,0.0
472,117.75,46.707,49.0649,152.346,102.203,100.343,-0.000530732,0.0831311,20.8667,465.914,0.168534,0.0,0.0
474,118.25,46.6603,49.3231,155.85,102.211,100.184,-0.000526693,0.0830685,20.8669,465.914,0.183811,0.0,0.0
476,118.75,47.2157,49.3596,153.297,102.21,100.326,-0.000525857,0.0830178,20.867,465.924,0.170731,0.0,0.0
478,119.25,46.8381,49.1632,151.64,102.206,100.325,-0.000525181,0.0829767,20.867,465.904,0.170502,0.0,0.0
480,119.75,46.6132,49.0275,153.226,102.214,100.189,-0.000520145,0.0829577,20.8671,465.904,0.183642,0.0,0.0
482,120.25,46.6794,48.9174,150.058,102.216,99.9534,-0.000512028,0.0829552,20.8672,465.934,0.205402,0.0,0.0
484,120.75,46.4059,49.3562,153.244,102.213,100.415,-0.000499044,0.0829246,20.8672,465.964,0.162832,0.0,0.0
486,121.25,46.3936,48.6602,155.127,102.216,100.45,-0.000482758,0.0828741,20.8672,465.934,0.15994,0.0,0.0
488,121.75,46.1255,48.7138,150.93,102.214,100.614,-0.000460592,0.0828333,20.8673,465.934,0.144796,0.0,0.0
490,122.25,46.7835,48.8171,152.223,102.22,100.171,-0.000434562,0.0827595,20.8673,465.924,0.185739,0.0,0.0
492,122.75,46.1256,49.226,155.424,102.203,100.053,-0.000413477,0.0826997,20.8673,465.934,0.195051,0.0,0.0
494,123.25,46.3124,48.3838,155.882,102.205,100.348,-0.000390309,0.0826442,20.8671,465.914,0.168248,0.0,0.0
496,123.75,46.0344,48.7502,151.355,102.232,100.074,-0.000374107,0.0825927,20.8667,465.904,0.195781,0.0,0.0
498,124.25,46.6191,48.8291,155.84,102.21,100.112,-0.000363291,0.0825368,20.8664,465.944,0.190371,0.0,0.0
500,124.75,46.3427,48.4347,158.016,102.211,100.496,-0.00035453,0.0824787,20.8661,465.964,0.155282,0.0,0.0
502,125.25,46.1258,48.495,157.731,102.197,100.187,-0.000360894,0.0824316,20.8659,465.954,0.182273,0.0,0.0
504,125.75,46.0135,48.4688,150.089,102.214,100.186,-0.000378164,0.0823935,20.8658,465.994,0.183958,0.0,0.0
506,126.25,46.2641,48.8477,154.73,102.217,100.054,-0.000404971,0.0823626,20.8656,465.984,0.196263,0.0,0.0
508,126.75,46.2464,48.7294,151.252,102.212,100.103,-0.000438223,0.0823375,20.8655,465.994,0.191263,0.0,0.0
510,127.25,46.116,48.4614,153.044,102.212,99.9646,-0.00046708,0.0823173,20.8654,466.004,0.204044,0.0,0.0
512,127.75,46.371,48.3918,157.91,102.223,100.1,-0.000492185,0.0823008,20.8654,465.994,0.192587,0.0,0.0
514,128.25,45.664,48.4204,158.11,102.216,100.191,-0.000502887,0.0822876,20.8653,465.954,0.183632,0.0,0.0
516,128.75,45.9873,48.3109,155.864,102.219,100.219,-0.000504139,0.0822768,20.8653,465.934,0.181384,0.0,0.0
518,129.25,45.6554,48.6487,149.35,102.212,100.423,-0.000505152,0.0822952,20.8652,465.924,0.162026,0.0,0.0
520,129.75,46.062,48.3958,152.405,102.204,100.623,-0.000485269,0.0823101,20.8652,465.924,0.143076,0.0,0.0
522,130.25,46.137,48.4647,153.43,102.209,100.25,-0.000469164,0.0823221,20.8652,465.934,0.177617,0.0,0.0
524,130.75,45.9394,48.386,152.102,102.21,100.175,-0.00044843,0.0823319,20.8651,465.934,0.184527,0.0,0.0
526,131.25,46.0398,48.3824,154.076,102.211,100.063,-0.000424714,0.0823503,20.8651,465.934,0.194825,0.0,0.0
528,131.75,45.8013,48.3368,155.589,102.211,100.08,-0.000405505,0.0823819,20.8651,465.944,0.193364,0.0,0.0
530,132.25,45.8898,48.0906,155.438,102.227,100.025,-0.000388022,0.082421,20.8651,465.924,0.199755,0.0,0.0
532,132.75,45.899,48.5677,154.322,102.216,100.282,-0.000372131,0.0824526,20.8653,465.924,0.175201,0.0,0.0
534,133.25,45.574,48.0405,154.293,102.212,100.303,-0.000359259,0.0824929,20.8654,465.934,0.173004,0.0,0.0
536,133.75,45.3727,48.7072,157.634,102.221,100.449,-0.00034265,0.0825388,20.8655,465.904,0.160441,0.0,0.0
538,134.25,45.4141,48.2926,150.859,102.225,100.086,-0.000338183,0.0825759,20.8656,465.924,0.194073,0.0,0.0
540,134.75,45.4855,47.7936,155.217,102.217,100.198,-0.000336633,0.0826196,20.8656,465.924,0.183055,0.0,0.0
542,135.25,45.8896,47.9659,154.891,102.217,100.255,-0.000335377,0.0826549,20.8657,465.884,0.177866,0.0,0.0
544,135.75,45.7538,48.5055,154.538,102.21,100.294,-0.000348975,0.0826836,20.8657,465.914,0.173617,0.0,0.0
546,136.25,45.4781,48.5252,156.527,102.223,100.234,-0.000359989,0.0828017,20.8658,465.904,0.180314,0.0,0.0
548,136.75,45.8213,48.2384,154.423,102.208,100.158,-0.000381089,0.0829667,20.8658,465.924,0.185874,0.0,0.0
550,137.25,45.1615,47.8672,155.454,102.23,100.321,-0.00039818,0.0830291,20.8658,465.944,0.173018,0.0,0.0
552,137.75,45.2489,48.0684,155.77,102.216,99.8672,-0.00042542,0.0831358,20.8658,465.944,0.213319,0.0,0.0
554,138.25,45.2084,48.0325,154.784,102.223,100.289,-0.000447485,0.0832494,20.8658,465.944,0.175265,0.0,0.0
556,138.75,45.1947,47.8662,153.842,102.221,100.139,-0.000465358,0.0833414,20.8659,465.914,0.188824,0.0,0.0
558,139.25,45.8546,47.8243,149.65,102.222,100.477,-0.000479834,0.0834023,20.8659,465.924,0.157957,0.0,0.0
560,139.75,45.3771,47.8542,153.584,102.228,100.562,-0.000496432,0.0834517,20.866,465.904,0.150819,0.0,0.0
562,140.25,45.5525,48.4084,158.96,102.224,100.068,-0.000509876,0.0834917,20.8663,465.894,0.195591,0.0,0.0
564,140.75,45.079,47.8975,155.374,102.223,100.193,-0.000521978,0.0835241,20.8665,465.944,0.184048,0.0,0.0
566,141.25,45.3478,48.1287,153.716,102.223,100.565,-0.000531781,0.0835503,20.8667,465.924,0.149977,0.0,0.0
568,141.75,45.5277,48.1586,156.131,102.209,100.1,-0.000547029,0.0835715,20.8667,465.914,0.191319,0.0,0.0
570,142.25,45.7828,47.7676,151.503,102.23,100.184,-0.000559379,0.0835888,20.8667,465.944,0.185466,0.0,0.0
572,142.75,45.5236,47.9501,155.02,102.212,100.094,-0.000577908,0.0836027,20.8666,465.964,0.192146,0.0,0.0
574,143.25,45.1902,47.9965,154.629,102.221,100.628,-0.000592916,0.0835733,20.8666,465.954,0.14414,0.0,0.0
576,143.75,45.1174,47.6796,149.83,102.208,100.264,-0.000606996,0.0835495,20.8666,465.954,0.176215,0.0,0.0
578,144.25,45.1958,48.2064,157.43,102.224,99.9504,-0.000620132,0.0835084,20.8666,465.964,0.206385,0.0,0.0
580,144.75,45.3765,48.1024,158.531,102.211,100.153,-0.000625002,0.0834555,20.8666,465.944,0.18668,0.0,0.0
582,145.25,45.3132,48.1252,155.597,102.225,100.398,-0.000623756,0.0834126,20.8666,465.944,0.165444,0.0,0.0
584,145.75,45.3332,48.5656,160.022,102.216,100.186,-0.000622746,0.0833779,20.8666,465.944,0.184106,0.0,0.0
586,146.25,44.9095,47.7727,152.497,102.221,100.203,-0.000611031,0.0833498,20.8665,465.934,0.182934,0.0,0.0
588,146.75,45.2807,48.158,153.547,102.207,100.195,,0.083327,,465.944,0.182456,0.0,0.0
590,147.25,44.8959,47.959,154.277,102.221,100.016,,0.0832943,,465.924,0.200075,0.0,0.0
592,147.75,45.3566,48.2766,158.795,102.209,100.438,,0.0832549,,465.944,0.160377,0.0,0.0
594,148.25,45.3895,47.7082,153.542,102.225,100.011,,0.0832231,,465.974,0.200874,0.0,0.0
596,148.75,45.3741,48.5383,154.863,102.216,100.289,,0.0831972,,465.994,0.174683,0.0,0.0
598,149.25,45.1078,47.8876,154.914,102.239,99.998,,0.0831763,,465.984,0.203341,0.0,0.0
600,149.75,45.1061,47.4623,152.602,102.207,100.128,,,,465.994,0.188505,0.0,0.0
602,150.25,44.6156,47.7684,151,102.229,100.356,,,,466.004,0.169697,0.0,0.0
604,150.75,45.2613,48.676,154.843,102.208,100.137,,,,466.004,0.187863,0.0,0.0
606,151.25,45.2998,47.8157,156.48,102.23,100.784,,,,465.974,0.13076,0.0,0.0
608,151.75,45.3321,47.7472,156.326,102.221,100.409,,,,465.964,0.164091,0.0,0.0
610,152.25,44.775,47.8296,155.016,102.247,100.438,,,,465.974,0.163864,0.0,0.0
612,152.75,45.5783,47.8197,153.957,102.224,100.935,,,,465.954,0.11642,0.0,0.0
614,153.25,45.1575,47.6573,157.384,102.229,100.199,,,,465.964,0.184082,0.0,0.0
616,153.75,45.4137,47.8434,156.518,102.223,100.106,,,,465.974,0.192113,0.0,0.0
618,154.25,45.1304,48.1798,153.036,102.231,100.453,,,,465.954,0.161031,0.0,0.0
620,154.75,44.7911,47.9672,151.773,102.214,100.411,,,,465.954,0.163323,0.0,0.0
622,155.25,44.9164,47.6819,158.764,102.247,100.263,,,,465.954,0.179786,0.0,0.0
624,155.75,44.4067,47.9821,153.828,102.222,100.301,,,,465.934,0.174041,0.0,0.0
626,156.25,45.0641,47.8915,153.703,102.226,100.367,,,,465.904,0.168419,0.0,0.0
628,156.75,44.907,47.5762,157.872,102.226,100.284,,,,465.914,0.176034,0.0,0.0
630,157.25,45.0042,47.5858,152.662,102.221,100.154,,,,465.904,0.187439,0.0,0.0
631,157.5,44.6315,48.0493,153.561,102.22,100.347,,,,465.914,0.169635,0.0,0.0