File: 02_Data/Polyurethane_Foam/Cone/Polyurethane_Foam_Cone_HF50Scan_210326_R1.csv
Names,Time,Stack TC,Smoke TC,Exh Press,Smoke Comp,Smoke Meas,CO Meter,CO2 Meter,O2 Meter,Sample Mass,Ext Coeff,Start Test,Flame Verif
Chan Gain,,500,500,1,1,1,1,1,1,1,1,1.0,1.0
Offset,,0,0,0.138348,0,0,0,0,0,0,0,0.0,0.0
Gain,,1,1,25.011,13.5067,16.616,1,1,1,1.00091,1.04608,1.0,1.0
Units,sec,C,C,Pa,%,%,%,%,%,g,/m,,
Baseline,,31.555,34.2159,159.368,101.594,97.7301,-0.000617881,0.0662595,20.9215,-0.0911664,0.355794,,
2,0.25,29.1373,31.099,162.541,101.712,97.955,-0.000227864,0.0671679,20.9188,477.104,0.345391,0.0,0.0
4,0.75,29.6751,31.458,157.253,101.733,97.9616,-0.00013397,0.0672592,20.9168,477.084,0.346633,0.0,0.0
6,1.25,28.986,31.1282,159.711,101.719,97.8267,3.08687e-05,0.0673332,20.9152,477.144,0.358013,0.0,0.0
8,1.75,29.1086,31.0791,162.695,101.723,96.5707,0.000244294,0.0680036,20.8966,476.974,0.477,0.0,1.0
10,2.25,29.9604,31.147,152.381,101.719,94.0799,0.000417169,0.0690961,20.8815,477.034,0.716369,0.0,1.0
12,2.75,29.3522,32.4382,145.713,101.721,89.7875,0.000752537,0.070971,20.8424,476.854,1.14511,0.0,1.0
14,3.25,30.0427,33.3803,150.839,101.719,86.888,0.00102418,0.0733808,20.8106,476.784,1.4461,0.0,1.0
16,3.75,30.8125,34.2335,145.179,101.722,85.0448,0.00124422,0.076794,20.7756,476.714,1.64311,0.0,1.0
18,4.25,30.9853,35.097,151.206,101.721,83.3019,0.00161334,0.0808737,20.7388,476.654,1.83304,0.0,1.0
20,4.75,31.9196,36.0338,139.773,101.72,80.116,0.00208413,0.0841782,20.709,476.614,2.1908,0.0,1.0
22,5.25,32.4254,36.8357,142.026,101.704,80.2458,0.00257445,0.0912922,20.6688,476.564,2.1745,0.0,1.0
24,5.75,31.8826,36.9582,140.667,101.716,78.8472,0.00306969,0.0970546,20.6363,476.524,2.33687,0.0,1.0
26,6.25,31.6544,37.219,147.635,101.707,81.3902,0.00347083,0.101722,20.6001,476.474,2.04477,0.0,0.0
28,6.75,32.846,37.4994,143.724,101.707,81.4836,0.00399767,0.110666,20.5709,476.404,2.03433,0.0,0.0
30,7.25,32.7451,38.6788,141.443,101.697,80.3472,0.00442441,0.117911,20.5396,476.284,2.16224,0.0,0.0
32,7.75,33.5498,38.9331,146.237,101.706,78.0821,0.00494904,0.126412,20.5143,476.193,2.42546,0.0,0.0
34,8.25,34.1115,40.5146,141.929,101.709,78.3057,0.00537399,0.135666,20.4867,476.083,2.39952,0.0,0.0
36,8.75,34.3239,41.0654,141.505,101.702,77.6196,0.00586376,0.145373,20.4643,476.073,2.47967,0.0,0.0
38,9.25,35.0683,42.1195,144.63,101.705,79.8857,0.0063367,0.155224,20.4422,476.063,2.21587,0.0,0.0
40,9.75,35.6135,43.2263,138.65,101.689,75.6308,0.00678839,0.165253,20.4243,475.953,2.71666,0.0,0.0
42,10.25,36.4895,43.181,145.168,101.69,77.6247,0.00715425,0.17522,20.4086,475.883,2.47796,0.0,0.0
44,10.75,36.5513,44.8381,139.429,101.69,80.2473,0.00757626,0.185127,20.3948,475.783,2.17309,0.0,0.0
46,11.25,36.4305,45.6993,148.054,101.694,79.5546,0.00803118,0.194802,20.3837,475.733,2.25298,0.0,0.0
48,11.75,37.8776,45.8273,140.056,101.69,77.3103,0.00839966,0.204401,20.3724,475.583,2.51516,0.0,0.0
50,12.25,37.5371,46.8446,145.449,101.699,80.475,0.00887522,0.213762,20.3633,475.543,2.14784,0.0,0.0
52,12.75,38.915,46.3524,145.046,101.685,78.5014,0.00926042,0.221344,20.3545,475.453,2.37445,0.0,0.0
54,13.25,38.7049,47.9428,143.667,101.685,78.9537,0.00968838,0.231525,20.3462,475.483,2.32169,0.0,0.0
56,13.75,39.4259,48.4064,143.875,101.686,78.3082,0.010035,0.239771,20.3394,475.313,2.39717,0.0,0.0
58,14.25,39.9966,48.7201,140.39,101.686,77.9107,0.0103634,0.248664,20.3328,475.213,2.4438,0.0,0.0
60,14.75,39.9213,49.8634,144.016,101.676,80.5982,0.0106722,0.257859,20.3275,475.153,2.13179,0.0,0.0
62,15.25,40.0626,50.5213,142.302,101.676,80.4126,0.0109223,0.265307,20.3228,475.082,2.15287,0.0,0.0
64,15.75,40.9856,50.8045,141.987,101.669,78.8711,0.0111845,0.27478,20.319,475.042,2.32989,0.0,0.0
66,16.25,40.7165,51.148,146.404,101.678,79.008,0.0113968,0.282454,20.3142,475.012,2.3148,0.0,0.0
68,16.75,41.8345,51.913,138.878,101.669,78.5176,0.0116336,0.290453,20.3089,474.932,2.37114,0.0,0.0
70,17.25,42.3411,52.2416,142.77,101.669,75.7708,0.0118254,0.298539,20.3046,474.882,2.69783,0.0,0.0
72,17.75,42.0762,52.7331,138.335,101.662,77.2368,0.0120927,0.306845,20.2869,474.802,2.5214,0.0,0.0
74,18.25,42.4622,52.9995,142.156,101.683,77.436,0.0121936,0.315153,20.2822,474.742,2.49969,0.0,0.0
76,18.75,42.8346,53.592,137.352,101.655,75.1648,0.0123659,0.321882,20.2609,474.722,2.77032,0.0,0.0
78,19.25,43.172,54.7397,139.165,101.678,76.6993,0.0125199,0.332497,20.232,474.562,2.58693,0.0,0.0
80,19.75,44.2206,55.7462,136.089,101.662,76.2028,0.0126446,0.341095,20.18,474.432,2.6451,0.0,0.0
82,20.25,44.766,57.1243,122.544,101.66,79.3812,0.0127066,0.352138,20.1121,474.292,2.26992,0.0,0.0
84,20.75,45.6906,59.6336,116.101,101.642,84.2568,0.0127568,0.370131,20.0572,474.182,1.72135,0.0,0.0
86,21.25,47.5943,61.8573,109.238,101.66,87.2592,0.0127975,0.374971,19.98,473.991,1.4017,0.0,0.0
88,21.75,48.9931,64.9185,105.054,101.64,88.7966,0.0127254,0.395235,19.8879,473.871,1.2396,0.0,0.0
90,22.25,51.2825,68.4221,112.436,101.64,91.1186,0.0126669,0.411648,19.8134,473.741,1.00271,0.0,0.0
92,22.75,52.9582,71.8093,112.053,101.64,90.2651,0.0125787,0.436336,19.701,473.611,1.08909,0.0,0.0
94,23.25,54.8041,74.9214,109.047,101.644,91.8462,0.0124705,0.456332,19.61,473.481,0.930091,0.0,0.0
96,23.75,57.0575,78.674,108.369,101.639,92.0156,0.0123536,0.484147,19.5024,473.291,0.912739,0.0,0.0
98,24.25,58.7854,81.5746,99.24,101.631,92.9831,0.0122326,0.506678,19.4153,473.151,0.816052,0.0,0.0
100,24.75,61.6437,85.125,97.302,101.626,93.7777,0.0121345,0.524927,19.3284,473.011,0.737486,0.0,0.0
102,25.25,63.1856,88.7648,106.132,101.642,94.3983,0.0120551,0.560207,19.2432,472.88,0.678406,0.0,0.0
104,25.75,65.113,92.2277,97.2142,101.613,94.2366,0.0119199,0.588784,19.1742,472.71,0.691538,0.0,0.0
106,26.25,66.9328,95.0547,104.784,101.626,93.7721,0.0118103,0.620661,19.0876,472.58,0.73807,0.0,0.0
108,26.75,68.6657,98.3662,107.067,101.61,94.4369,0.011679,0.654339,19.0175,472.49,0.671758,0.0,0.0
110,27.25,70.8048,101.655,93.5826,101.621,94.6646,0.0115727,0.681618,18.9486,472.27,0.650703,0.0,0.0
112,27.75,72.2885,104.218,103.045,101.614,96.7147,0.0114441,0.712844,18.8929,472.2,0.453431,0.0,0.0
114,28.25,74.5194,107.291,99.8307,101.615,96.3019,0.0113399,0.746353,18.8429,472.08,0.492752,0.0,0.0
116,28.75,76.1175,110.667,97.4394,101.596,97.0428,0.0112118,0.781574,18.8023,471.92,0.420793,0.0,0.0
118,29.25,77.4434,113.339,94.3062,101.608,97.347,0.0111081,0.817374,18.7695,471.749,0.393111,0.0,0.0
120,29.75,79.0779,115.923,114.138,101.591,96.9297,0.0109701,0.846372,18.7429,471.599,0.431007,0.0,0.0
122,30.25,80.9756,118.6,107.962,101.608,96.6746,0.0108584,0.881424,18.7213,471.449,0.456711,0.0,0.0
124,30.75,82.4205,121.012,106.374,101.593,96.8998,0.010728,0.909816,18.7039,471.319,0.434027,0.0,0.0
126,31.25,83.6326,123.028,104.576,101.598,96.986,0.0105866,0.942524,18.6898,471.199,0.426313,0.0,0.0
128,31.75,84.5921,125.795,115.722,101.581,97.0473,0.0104721,0.969017,18.6832,471.099,0.418946,0.0,0.0
130,32.25,86.2305,127.371,101.519,101.607,98.3541,0.0103208,0.999415,18.6779,470.919,0.298596,0.0,0.0
132,32.75,87.4272,129.436,106.805,101.584,96.2664,0.0101455,1.02404,18.6736,470.829,0.493341,0.0,0.0
134,33.25,88.5977,130.724,104.822,101.59,95.6924,0.0100035,1.05131,18.683,470.668,0.548816,0.0,0.0
136,33.75,89.5784,131.822,110.309,101.579,95.5312,0.00978523,1.0734,18.6906,470.548,0.563287,0.0,0.0
138,34.25,90.406,133.127,97.8478,101.579,93.9653,0.00960841,1.0948,18.7159,470.398,0.714902,0.0,0.0
140,34.75,91.2438,133.797,106.951,101.562,95.2959,0.00937485,1.11527,18.7364,470.308,0.584351,0.0,0.0
142,35.25,91.772,134.901,126.161,101.574,95.7771,0.00918567,1.13186,18.768,470.198,0.539211,0.0,0.0
144,35.75,92.289,135.194,119.39,101.564,95.7315,0.00894866,1.14726,18.8071,470.058,0.542691,0.0,0.0
146,36.25,92.6317,135.779,119.577,101.572,95.4728,0.00875668,1.1615,18.8521,470.028,0.568257,0.0,0.0
148,36.75,92.9887,135.64,115.405,101.559,96.2,0.00854796,1.17348,18.9006,469.918,0.497479,0.0,0.0
150,37.25,93.1245,135.695,112.326,101.564,95.878,0.00837889,1.18359,18.9499,469.798,0.52869,0.0,0.0
152,37.75,93.4163,135.879,131.772,101.551,95.6042,0.0082103,1.19177,18.9989,469.768,0.553743,0.0,0.0
154,38.25,93.7465,136.144,122.776,101.564,95.2589,0.00807375,1.19782,19.052,469.708,0.588139,0.0,0.0
156,38.75,93.8307,135.935,120.248,101.546,93.8299,0.00796314,1.20272,19.1069,469.577,0.725154,0.0,0.0
158,39.25,93.9481,135.875,118.597,101.553,93.2701,0.00782044,1.20476,19.1515,469.457,0.780698,0.0,0.0
160,39.75,93.6549,135.329,134.892,101.547,90.9806,0.00770486,1.20642,19.2178,469.487,1.00827,0.0,0.0
162,40.25,93.6678,134.401,128.437,101.546,91.3513,0.00755442,1.20404,19.2715,469.327,0.970808,0.0,0.0
164,40.75,93.5772,133.546,131.302,101.54,92.1571,0.00743257,1.20212,19.3538,469.217,0.889668,0.0,0.0
166,41.25,92.9905,132.612,130.997,101.538,91.2813,0.00727084,1.19645,19.4204,469.157,0.97717,0.0,0.0
168,41.75,92.4163,131.133,133.377,101.523,92.3665,0.00711797,1.18817,19.4743,469.267,0.867312,0.0,0.0
170,42.25,91.6534,129.305,137.957,101.542,94.5601,0.00697447,1.17597,19.5781,469.297,0.653649,0.0,0.0
172,42.75,90.445,127.395,147.899,101.54,96.1559,0.00684103,1.16114,19.6621,469.347,0.4999,0.0,0.0
174,43.25,88.8628,125.586,147.185,101.533,97.561,0.00671745,1.14396,19.7555,469.337,0.366148,0.0,0.0
176,43.75,87.9445,122.708,149.433,101.526,97.9854,0.00661736,1.12541,19.8539,469.327,0.325756,0.0,0.0
178,44.25,86.5495,120.56,149.159,101.528,98.3449,0.0065275,1.10492,19.9336,469.357,0.292299,0.0,0.0
180,44.75,84.3186,117.625,154.461,101.515,98.4494,0.00645471,1.0834,20.0122,469.337,0.281365,0.0,0.0
182,45.25,83.4803,115.211,151.338,101.519,98.3373,0.00639576,1.06019,20.0885,469.357,0.292151,0.0,0.0
184,45.75,82.2475,112.977,153.8,101.513,98.2572,0.006348,1.03618,20.1503,469.347,0.299146,0.0,0.0
186,46.25,80.9059,111.272,153.036,101.501,98.635,0.00622395,1.01674,20.21,469.347,0.262816,0.0,0.0
188,46.75,79.3711,109.502,154.418,101.506,98.132,0.00612347,0.987781,20.267,469.357,0.310179,0.0,0.0
190,47.25,79.0453,107.865,153.723,101.502,98.0366,0.00595566,0.964328,20.3207,469.367,0.318763,0.0,0.0
192,47.75,78.1471,106.004,150.719,101.505,98.065,0.00581972,0.945331,20.3708,469.367,0.316404,0.0,0.0
194,48.25,76.0353,103.386,158.402,101.507,98.74,0.0056134,0.929943,20.4167,469.367,0.253614,0.0,0.0
196,48.75,75.7686,101.726,154.297,101.503,98.0503,0.00544629,0.900535,20.4584,469.367,0.317555,0.0,0.0
198,49.25,74.629,100.343,151.51,101.493,98.5503,0.00521868,0.876714,20.4976,469.357,0.269952,0.0,0.0
200,49.75,73.9927,98.2945,154.385,101.492,98.2395,0.00503432,0.851052,20.5341,469.367,0.298902,0.0,0.0
202,50.25,72.6866,96.2902,154.546,101.491,98.3039,0.00483003,0.824534,20.5663,469.377,0.292778,0.0,0.0
204,50.75,71.4273,94.4668,148.592,101.482,98.3637,0.00461509,0.798879,20.5947,469.377,0.286412,0.0,0.0
206,51.25,71.4007,93.8491,152.423,101.493,98.2932,0.0043927,0.774339,20.6194,469.387,0.293958,0.0,0.0
208,51.75,69.9845,92.0925,151.899,101.498,97.9727,0.0041691,0.750726,20.6408,469.357,0.32441,0.0,0.0
210,52.25,69.2153,90.7726,153.876,101.474,98.3612,0.00398798,0.728238,20.6582,469.387,0.285902,0.0,0.0
212,52.75,68.1368,88.9332,151.953,101.481,97.9758,0.00375469,0.706165,20.6736,469.377,0.322522,0.0,0.0
214,53.25,68.0123,87.7094,154.278,101.477,98.17,0.00356572,0.684813,20.6874,469.357,0.303978,0.0,0.0
216,53.75,67.0369,85.7035,155.956,101.471,98.0032,0.00338277,0.664026,20.6986,469.367,0.3191,0.0,0.0
218,54.25,66.129,85.3342,158.578,101.455,98.4824,0.00320767,0.644044,20.7107,469.367,0.272889,0.0,0.0
220,54.75,65.1302,83.8113,150.225,101.467,98.6786,0.00304119,0.627859,20.7206,469.387,0.255742,0.0,0.0
222,55.25,64.4553,82.3252,148.604,101.463,98.1888,0.00288415,0.607345,20.7306,469.387,0.301032,0.0,0.0
224,55.75,63.6413,81.248,153.207,101.464,98.1872,0.00273232,0.590729,20.7388,469.377,0.301211,0.0,0.0
226,56.25,63.8674,80.243,154.809,101.456,98.1938,0.00258718,0.57385,20.7467,469.357,0.299924,0.0,0.0
228,56.75,62.3748,78.7836,155.334,101.461,98.2633,0.00246961,0.5571,20.7545,469.367,0.293881,0.0,0.0
230,57.25,61.8152,77.8292,154.231,101.444,97.85,0.00231414,0.543533,20.7617,469.357,0.330952,0.0,0.0
232,57.75,61.461,77.1532,155.628,101.458,97.991,0.00218821,0.526604,20.7683,469.367,0.319084,0.0,0.0
234,58.25,60.3063,75.8165,153.79,101.453,98.5503,0.00206553,0.512891,20.7745,469.347,0.266337,0.0,0.0
236,58.75,59.9938,74.8611,157.912,101.458,98.2486,0.00194755,0.497454,20.78,469.377,0.294919,0.0,0.0
238,59.25,59.2782,74.1686,159.592,101.44,98.2963,0.00185198,0.48495,20.7845,469.377,0.288865,0.0,0.0
240,59.75,58.9393,72.4832,155.691,101.446,98.1168,0.00175127,0.472142,20.7889,469.387,0.306197,0.0,0.0
242,60.25,58.4498,72.0321,154.57,101.453,97.9154,0.00166969,0.459354,20.7931,469.407,0.325678,0.0,0.0
244,60.75,58.0442,70.9738,154.9,101.449,98.0498,0.00159625,0.44688,20.7974,469.407,0.312684,0.0,0.0
246,61.25,57.3887,70.3356,153.208,101.424,98.0666,0.00153677,0.434872,20.8017,469.387,0.308879,0.0,0.0
248,61.75,56.9187,69.3261,151.525,101.438,98.0224,0.00148245,0.425145,20.8055,469.397,0.314314,0.0,0.0
250,62.25,56.6675,67.8493,154.532,101.448,98.0737,0.00143846,0.412998,20.8087,469.377,0.310416,0.0,0.0
252,62.75,56.8183,68.2724,160.889,101.434,98.0407,0.00139915,0.403158,20.812,469.377,0.312196,0.0,0.0
254,63.25,55.0596,67.3928,156.318,101.43,98.206,0.00136731,0.391191,20.8153,469.417,0.296363,0.0,0.0
256,63.75,54.4052,66.2865,157.166,101.435,98.1553,0.00133571,0.381498,20.818,469.407,0.301587,0.0,0.0
258,64.25,55.5525,64.8935,159.011,101.419,98.2973,0.00130489,0.370632,20.8211,469.427,0.286906,0.0,0.0
260,64.75,54.5301,64.696,155.579,101.418,98.1183,0.00126639,0.361831,20.8236,469.417,0.30352,0.0,0.0
262,65.25,53.6974,64.3663,154.351,101.413,98.0843,0.00122302,0.352993,20.8265,469.387,0.30625,0.0,0.0
264,65.75,53.4485,64.1083,156.155,101.419,98.2501,0.00118789,0.344297,20.8289,469.407,0.291272,0.0,0.0
266,66.25,52.7017,63.0419,151.848,101.412,98.1893,0.0011414,0.335839,20.8308,469.387,0.296361,0.0,0.0
268,66.75,52.3592,62.0074,157.338,101.408,97.8977,0.0010875,0.327715,20.8332,469.377,0.32324,0.0,0.0
270,67.25,52.5215,61.7603,158.696,101.394,98.1213,0.00104385,0.319606,20.8352,469.407,0.301071,0.0,0.0
272,67.75,51.7829,61.1045,158.126,101.412,98.4545,0.000993815,0.311662,20.8368,469.437,0.271573,0.0,0.0
274,68.25,52.585,60.4814,154.621,101.394,98.1005,0.000953286,0.305228,20.8383,469.397,0.302979,0.0,0.0
276,68.75,51.473,59.5152,155.472,101.406,98.209,0.000920457,0.298558,20.8397,469.377,0.293916,0.0,0.0
278,69.25,51.0912,59.0541,154.526,101.393,98.2734,0.000886529,0.291844,20.8419,469.357,0.286781,0.0,0.0
280,69.75,50.6388,58.7669,155.761,101.405,98.0828,0.000859048,0.286406,20.8446,469.357,0.305684,0.0,0.0
282,70.25,50.772,58.4786,154.295,101.383,98.0579,0.000834343,0.279109,20.8475,469.367,0.305956,0.0,0.0
284,70.75,50.6398,57.5947,155.032,101.398,98.0392,0.000814332,0.273199,20.8504,469.367,0.30913,0.0,0.0
286,71.25,49.7976,57.8339,155.976,101.383,97.8353,0.000793234,0.268411,20.8533,469.387,0.326848,0.0,0.0
288,71.75,50.0252,56.6895,156.109,101.395,97.847,0.000776144,0.262956,20.856,469.397,0.326837,0.0,0.0
290,72.25,49.4802,55.8565,150.328,101.376,98.0645,0.000751302,0.257119,20.8585,469.387,0.30478,0.0,0.0
292,72.75,48.4508,55.5991,152.825,101.39,97.881,0.000731179,0.251508,20.8607,469.387,0.323241,0.0,0.0
294,73.25,48.5804,55.5026,155.802,101.378,97.6949,0.000714881,0.246169,20.8625,469.357,0.339622,0.0,0.0
296,73.75,48.5168,55.0987,158.172,101.402,98.1249,0.000674805,0.240958,20.8639,469.357,0.301486,0.0,0.0
298,74.25,48.2059,54.9366,151.779,101.369,98.1619,0.000642344,0.235941,20.8651,469.337,0.294966,0.0,0.0
300,74.75,48.1246,54.2997,158.15,101.378,97.9839,0.000612837,0.231057,20.866,469.367,0.31244,0.0,0.0
302,75.25,47.519,53.9753,153.947,101.369,98.2385,0.000586044,0.226364,20.8677,469.357,0.287885,0.0,0.0
304,75.75,47.622,53.5217,157.421,101.375,98.0143,0.000564343,0.222563,20.869,469.347,0.309367,0.0,0.0
306,76.25,47.4568,53.2701,155.857,101.364,98.2197,0.000549206,0.217848,20.8701,469.347,0.28919,0.0,0.0
308,76.75,47.0556,53.024,157.998,101.371,97.9089,0.000536945,0.214029,20.871,469.327,0.318837,0.0,0.0
310,77.25,46.9969,52.3041,158.362,101.366,97.8815,0.000519689,0.209352,20.8722,469.337,0.320955,0.0,0.0
312,77.75,47.1111,51.9571,157.603,101.363,97.7025,0.000505711,0.205564,20.8736,469.347,0.337527,0.0,0.0
314,78.25,46.6971,51.2742,154.502,101.355,98.096,0.000483404,0.202495,20.8749,469.327,0.299861,0.0,0.0
316,78.75,46.6633,51.5463,154.922,101.368,98.0427,0.000465336,0.198505,20.8762,469.347,0.306074,0.0,0.0
318,79.25,45.7343,51.3417,156.39,101.355,97.8952,0.000444599,0.195273,20.8773,469.377,0.318739,0.0,0.0
320,79.75,45.6585,50.9115,151.597,101.364,97.9291,0.000427802,0.191401,20.8781,469.347,0.316375,0.0,0.0
322,80.25,46.1894,50.3513,158.905,101.353,97.9327,0.000414197,0.188263,20.8788,469.327,0.314998,0.0,0.0
324,80.75,45.2306,50.0846,159.196,101.36,97.8992,0.000387319,0.184472,20.8796,469.317,0.318768,0.0,0.0
326,81.25,45.0057,50.31,155.435,101.358,97.7704,0.000365547,0.181401,20.8805,469.337,0.330663,0.0,0.0
328,81.75,45.2521,49.6757,154.161,101.365,98.062,0.0003345,0.17837,20.8814,469.327,0.304011,0.0,0.0
330,82.25,44.3974,49.8076,158.914,101.351,98.3525,0.000309351,0.175425,20.8824,469.317,0.275592,0.0,0.0
332,82.75,44.6576,48.8982,158.301,101.36,98.3343,0.000274354,0.173039,20.8834,469.317,0.278079,0.0,0.0
334,83.25,45.3629,49.1499,155.63,101.366,97.9788,0.000246006,0.169908,20.8844,469.307,0.311907,0.0,0.0
336,83.75,44.7429,49.288,154.069,101.353,97.9631,0.000207205,0.167371,20.8855,469.307,0.312148,0.0,0.0
338,84.25,44.6157,48.2671,153.808,101.355,98.2354,0.000175776,0.164776,20.8865,469.317,0.286901,0.0,0.0
340,84.75,44.3304,47.6953,153.171,101.355,97.9672,0.000139358,0.162188,20.8874,469.317,0.311916,0.0,0.0
342,85.25,44.3053,48.1158,155.224,101.357,98.4545,0.000109859,0.1597,20.8886,469.327,0.266612,0.0,0.0
344,85.75,43.086,47.6896,155.113,101.348,97.6736,8.21172e-05,0.157333,20.8895,469.337,0.338824,0.0,0.0
346,86.25,44.1066,47.3432,154.016,101.346,97.9139,5.6183e-05,0.154674,20.8903,469.347,0.316121,0.0,0.0
348,86.75,43.2334,47.6888,156.444,101.339,98.0082,3.51764e-05,0.15252,20.8909,469.347,0.30669,0.0,0.0
350,87.25,43.9348,47.4429,155.113,101.338,98.2065,1.62382e-05,0.150064,20.8917,469.337,0.288033,0.0,0.0
352,87.75,43.5926,47.0172,154.131,101.348,98.3551,-8.32059e-07,0.148074,20.8926,469.347,0.275094,0.0,0.0
354,88.25,43.3998,47.0384,154.622,101.341,97.957,-1.4659e-05,0.14603,20.8934,469.357,0.311636,0.0,0.0
356,88.75,43.4339,46.5107,158.34,101.327,97.7435,-2.58588e-05,0.143985,20.8943,469.357,0.330424,0.0,0.0
358,89.25,42.7636,46.1311,152.127,101.336,98.0331,-3.49307e-05,0.142329,20.8952,469.367,0.304028,0.0,0.0
360,89.75,43.3556,46.2842,157.071,101.353,98.0838,-4.22789e-05,0.14025,20.8961,469.347,0.30085,0.0,0.0
362,90.25,43.0921,46.4174,161.381,101.333,98.1021,-4.82309e-05,0.138567,20.8971,469.337,0.297351,0.0,0.0
364,90.75,42.4752,46.2217,156.144,101.319,98.0757,-5.91414e-05,0.137203,20.8979,469.327,0.298511,0.0,0.0
366,91.25,42.7286,45.6691,154.293,101.331,98.0417,-6.79788e-05,0.135239,20.8986,469.327,0.30281,0.0,0.0
368,91.75,42.4552,45.8874,156.552,101.321,97.8607,-7.51371e-05,0.133647,20.8991,469.327,0.318873,0.0,0.0
370,92.25,42.6613,45.6999,156.651,101.321,97.8181,-9.43323e-05,0.131791,20.8996,469.307,0.322831,0.0,0.0
372,92.75,42.3701,45.5548,155.149,101.318,98.0179,-0.00010988,0.130287,20.9,469.317,0.303847,0.0,0.0
374,93.25,42.0437,44.8077,157.736,101.319,97.9656,-0.000129781,0.128516,20.9003,469.317,0.308813,0.0,0.0
376,93.75,42.5686,44.9723,157.761,101.308,97.8353,-0.000145901,0.127081,20.9006,469.317,0.320056,0.0,0.0
378,94.25,42.0597,44.3694,158.581,101.312,97.9971,-0.000158958,0.12592,20.9008,469.317,0.305271,0.0,0.0
380,94.75,41.8485,44.8431,153.332,101.298,97.7689,-0.000170752,0.124151,20.9013,469.327,0.325431,0.0,0.0
382,95.25,41.6864,43.9062,151.684,101.315,97.9038,-0.000180305,0.122718,20.9018,469.337,0.314236,0.0,0.0
384,95.75,41.6343,44.0859,158.446,101.293,97.9033,-0.000191697,0.121296,20.9023,469.347,0.312341,0.0,0.0
386,96.25,41.3223,44.48,157.018,101.31,97.8921,-0.000200924,0.11991,20.9026,469.357,0.314919,0.0,0.0
388,96.75,41.5635,44.1727,157.592,101.295,97.6061,-0.000210962,0.118562,20.9029,469.327,0.340422,0.0,0.0
390,97.25,41.2812,43.3811,153.763,101.302,97.8171,-0.000221401,0.117269,20.9031,469.317,0.321247,0.0,0.0
392,97.75,41.6501,43.5934,155.196,101.285,97.7517,-0.000228574,0.116221,20.9033,469.327,0.325853,0.0,0.0
394,98.25,40.6428,43.3119,153.483,101.286,97.9317,-0.00023323,0.114851,20.9039,469.297,0.309045,0.0,0.0
396,98.75,41.1299,43.1411,153.603,101.284,97.9946,-0.000229951,0.113741,20.9044,469.337,0.303006,0.0,0.0
398,99.25,40.8243,43.496,158.663,101.293,97.8546,-0.000220949,0.112646,20.9048,469.357,0.316905,0.0,0.0
400,99.75,40.986,43.219,155.583,101.28,97.7745,-0.000213658,0.111585,20.9051,469.347,0.323227,0.0,0.0
402,100.25,40.7577,42.9747,158.283,101.282,98.2303,-0.000191919,0.110494,20.9054,469.337,0.28073,0.0,0.0
404,100.75,41.2716,43.5486,157.466,101.289,97.6016,-0.000174311,0.109402,20.9056,469.327,0.340327,0.0,0.0
406,101.25,40.6469,43.1392,153.61,101.287,97.8171,-0.000145947,0.108518,20.9058,469.287,0.319827,0.0,0.0
408,101.75,40.5207,43.5037,153.779,101.285,97.883,-0.000110279,0.107419,20.9059,469.277,0.313496,0.0,0.0
410,102.25,40.5521,42.8275,155.187,101.286,97.8282,-8.13888e-05,0.106528,20.906,469.317,0.318706,0.0,0.0
412,102.75,40.4707,42.5158,152.033,101.283,98.0143,-4.58042e-05,0.105465,20.9061,469.347,0.301006,0.0,0.0
414,103.25,40.6061,42.6881,155.821,101.28,97.5798,-1.69807e-05,0.104603,20.9062,469.337,0.341519,0.0,0.0
416,103.75,39.803,42.6272,162.066,101.267,97.7278,1.49245e-06,0.10374,20.9062,469.327,0.326447,0.0,0.0
418,104.25,40.1881,42.4628,153.63,101.29,97.9018,1.64557e-05,0.102892,20.9063,469.317,0.312222,0.0,0.0
420,104.75,40.0037,42.0288,155.345,101.27,97.9616,1.27403e-05,0.102205,20.9063,469.327,0.304748,0.0,0.0
422,105.25,40.4139,42.175,160.423,101.269,98.0016,9.73084e-06,0.101308,20.9064,469.337,0.300923,0.0,0.0
424,105.75,40.0602,41.8828,157.456,101.261,97.703,-1.34107e-05,0.10058,20.9064,469.357,0.328258,0.0,0.0
426,106.25,39.7726,41.0747,157.518,101.266,97.8049,-3.21554e-05,0.0997046,20.9068,469.357,0.319064,0.0,0.0
428,106.75,39.7784,41.8917,154.725,101.252,97.8972,-6.01559e-05,0.0989954,20.9072,469.357,0.309215,0.0,0.0
430,107.25,40.2551,41.1234,154.178,101.258,97.9302,-9.43719e-05,0.0982027,20.9075,469.337,0.306648,0.0,0.0
432,107.75,39.75,41.6743,151.994,101.262,97.7522,-0.000122087,0.0975606,20.9078,469.327,0.323677,0.0,0.0
434,108.25,39.6162,41.3383,156.225,101.264,97.8622,-0.000161585,0.0967951,20.9079,469.317,0.313577,0.0,0.0
436,108.75,39.7446,41.666,156.902,101.251,97.671,-0.000193579,0.0961752,20.9079,469.317,0.330325,0.0,0.0
438,109.25,39.5247,41.4673,155.922,101.263,97.7532,-0.000225904,0.0955292,20.9079,469.317,0.323694,0.0,0.0
440,109.75,39.6166,40.7819,156.08,101.251,97.8566,-0.000257856,0.0948765,20.9079,469.307,0.312905,0.0,0.0
442,110.25,40.0143,41.4009,159.71,101.261,97.8465,-0.000283737,0.0943478,20.9079,469.287,0.314753,0.0,0.0
444,110.75,39.2325,40.483,154.959,101.259,97.777,-0.000313225,0.0936338,20.9079,469.317,0.32112,0.0,0.0
446,111.25,39.8341,41.0036,157.765,101.258,97.6244,-0.00033711,0.0930554,20.9079,469.327,0.335381,0.0,0.0
448,111.75,39.2326,41.064,153.542,101.25,97.7765,-0.000357676,0.092458,20.9082,469.317,0.320347,0.0,0.0
450,112.25,39.3973,40.9647,155.49,101.263,97.953,-0.000374334,0.0918582,20.9086,469.327,0.304922,0.0,0.0
452,112.75,39.2487,40.5915,156.845,101.254,98.2182,-0.000392698,0.0913723,20.9089,469.307,0.27929,0.0,0.0
454,113.25,39.3981,40.5129,159.742,101.252,97.7714,-0.000407573,0.0907477,20.9092,469.297,0.321009,0.0,0.0
456,113.75,39.4223,41.2906,156.579,101.267,98.2232,-0.000415969,0.0902417,20.9094,469.307,0.280049,0.0,0.0
458,114.25,39.2011,40.6811,160.555,101.264,97.921,-0.000422769,0.0896688,20.9096,469.297,0.308028,0.0,0.0
460,114.75,39.0459,40.5216,158.048,101.252,97.809,-0.000428277,0.0892047,20.9097,469.297,0.317451,0.0,0.0
462,115.25,37.9933,40.5553,157.229,101.261,97.8262,-0.000432739,0.0886387,20.9098,469.307,0.316655,0.0,0.0
464,115.75,38.6154,40.6191,151.034,101.255,97.6797,-0.000420521,0.0881802,20.9102,469.277,0.329851,0.0,0.0
466,116.25,38.7985,40.2923,150.26,101.245,98.0032,-0.000410624,0.0877159,20.9108,469.297,0.29865,0.0,0.0
468,116.75,39.0393,40.5834,161.019,101.253,98.1984,-0.000403889,0.0872563,20.9116,469.337,0.281063,0.0,0.0
470,117.25,38.9568,40.2568,156.915,101.244,97.7851,-0.000399588,0.086884,20.9124,469.327,0.319015,0.0,0.0
472,117.75,38.8175,39.7004,161.21,101.245,97.8734,-0.000407001,0.0865824,20.9131,469.317,0.310814,0.0,0.0
474,118.25,38.9714,40.0494,151.647,101.256,97.9281,-0.000422812,0.0861345,20.9136,469.327,0.306652,0.0,0.0
476,118.75,38.4302,40.5132,154.067,101.251,97.8516,-0.000448439,0.0857718,20.914,469.307,0.313344,0.0,0.0
478,119.25,38.7238,40.1761,155.297,101.257,97.8358,-0.000480734,0.0853923,20.9144,469.327,0.315416,0.0,0.0
480,119.75,38.5282,40.5574,158.099,101.255,97.916,-0.000506893,0.0850078,20.9146,469.317,0.307717,0.0,0.0
482,120.25,38.5861,39.958,154.558,101.251,97.7577,-0.000543913,0.0845965,20.9149,469.317,0.32222,0.0,0.0
484,120.75,38.3355,39.7002,151.365,101.25,97.8764,-0.0005739,0.0841734,20.9151,469.297,0.310976,0.0,0.0
486,121.25,38.3669,40.2861,154.255,101.251,97.7831,-0.000596971,0.0837664,20.9152,469.307,0.319803,0.0,0.0
488,121.75,38.5833,40.0209,152.633,101.254,97.7293,-0.000615659,0.0833791,20.9153,469.337,0.325147,0.0,0.0
490,122.25,38.3333,39.3835,153.836,101.251,97.8622,-0.0006199,0.0830653,20.9154,469.327,0.312345,0.0,0.0
492,122.75,38.2913,40.2179,154.212,101.251,97.6193,-0.000613528,0.0826621,20.9155,469.307,0.335224,0.0,0.0
494,123.25,38.3687,39.9615,157.415,101.257,97.8282,-0.000608367,0.0823355,20.9156,469.307,0.316129,0.0,0.0
496,123.75,38.5114,39.8969,157.06,101.275,97.5605,-0.000576175,0.0819084,20.9156,469.307,0.34292,0.0,0.0
498,124.25,37.9189,40.1548,157.09,101.261,97.5159,-0.0005501,0.0815625,20.9157,469.337,0.345773,0.0,0.0
500,124.75,37.9972,39.4042,158.198,101.267,97.6563,-0.000513148,0.081211,20.9157,469.337,0.333164,0.0,0.0
502,125.25,38.3248,39.6777,154.73,101.263,97.6426,-0.000467892,0.0808622,20.9157,469.327,0.33404,0.0,0.0
504,125.75,38.5608,39.4528,155.683,101.278,97.851,-0.0004541,0.0805796,20.9158,469.317,0.315856,0.0,0.0
506,126.25,38.1203,39.375,157.924,101.275,97.8287,-0.000430516,0.080256,20.9158,469.307,0.317725,0.0,0.0
508,126.75,37.8803,39.4948,158.969,101.28,97.8607,-0.000416285,0.0799939,20.9158,469.297,0.315178,0.0,0.0
510,127.25,37.8853,39.2343,155.058,101.278,97.6289,-0.000404757,0.079741,20.9158,469.287,0.336708,0.0,0.0
512,127.75,37.8296,39.532,152.992,101.276,97.6092,-0.000407598,0.0795361,20.916,469.307,0.338417,0.0,0.0
514,128.25,37.8311,39.4754,159.707,101.276,97.6147,-0.0004099,0.0790871,20.9164,469.267,0.337856,0.0,0.0
516,128.75,38.25,38.9648,154.957,101.289,97.7608,-0.000411764,0.0789663,20.9168,469.297,0.325332,0.0,0.0
518,129.25,37.8024,39.2947,151.822,101.273,98.0143,-0.000441284,0.0786651,20.917,469.317,0.300146,0.0,0.0
520,129.75,38.0394,38.8557,152.158,101.276,97.6513,-0.000465195,0.0784211,20.9173,469.307,0.334423,0.0,0.0
522,130.25,37.4268,39.015,157.805,101.285,98.0361,-0.000506484,0.0781808,20.9174,469.297,0.299151,0.0,0.0
524,130.75,37.8844,39.6121,153.49,101.282,97.8221,-0.000539929,0.0779477,20.9176,469.297,0.318941,0.0,0.0
526,131.25,37.9261,39.4525,163.778,101.273,98.0123,-0.000567018,0.0777161,20.9177,469.327,0.300337,0.0,0.0
528,131.75,37.6945,39.1511,159.306,101.284,98.0503,-0.00060114,0.0774902,20.9178,469.317,0.297748,0.0,0.0
530,132.25,37.452,39.0342,153.645,101.277,97.8886,-0.000628137,0.0773072,20.9179,469.307,0.3123,0.0,0.0
532,132.75,37.2922,39.0716,152.437,101.284,97.8865,-0.000649428,0.0770778,20.9179,469.307,0.313051,0.0,0.0
534,133.25,37.816,38.828,156.036,101.28,98.2724,-0.000660264,0.076892,20.918,469.297,0.27665,0.0,0.0
536,133.75,37.37,39.0016,157.401,101.288,97.7172,-0.000663272,0.076713,20.918,469.297,0.329352,0.0,0.0
538,134.25,37.5309,39.0294,156.824,101.284,97.9236,-0.000655454,0.0765425,20.918,469.307,0.309619,0.0,0.0
540,134.75,37.4634,38.6294,163.379,101.29,97.6847,-0.00063989,0.0763688,20.9181,469.297,0.332587,0.0,0.0
542,135.25,37.2581,38.7989,156.318,101.28,97.6315,-0.000627284,0.0761961,20.9181,469.287,0.336619,0.0,0.0
544,135.75,37.3316,39.102,160.85,101.282,97.6442,-0.000601049,0.0760561,20.9181,469.297,0.335689,0.0,0.0
546,136.25,36.9416,39.2078,154.996,101.277,98.1588,-0.000565377,0.0758617,20.9181,469.307,0.286925,0.0,0.0
548,136.75,37.2066,38.649,154.526,101.284,97.8941,-0.00052815,0.0757043,20.9181,469.307,0.312375,0.0,0.0
550,137.25,36.9407,38.7774,157.07,101.289,98.1157,-0.000490497,0.0754957,20.9181,469.317,0.292076,0.0,0.0
552,137.75,37.2877,38.8806,154.385,101.294,97.9134,-0.000459997,0.0753267,20.9182,469.307,0.311466,0.0,0.0
554,138.25,37.049,38.693,159.945,101.28,97.8947,-0.000435293,0.0751088,20.9182,469.287,0.311917,0.0,0.0
556,138.75,37.2987,39.087,155.2,101.297,97.7608,-0.00040554,0.0749323,20.9184,469.277,0.326042,0.0,0.0
558,139.25,37.5091,38.1825,159.396,101.285,97.7025,-0.00038144,0.0747537,20.9187,469.307,0.330472,0.0,0.0
560,139.75,37.2925,38.7914,159.117,101.303,97.9028,-0.000360701,0.0745772,20.919,469.307,0.313284,0.0,0.0
562,140.25,37.2069,38.2523,157.073,101.284,97.847,-0.000343903,0.0744341,20.9192,469.317,0.31676,0.0,0.0
564,140.75,37.1162,38.4228,155.727,101.317,98.0955,-0.000341256,0.0743183,20.9194,469.327,0.296512,0.0,0.0
566,141.25,37.3674,39.1333,158.736,101.297,97.5752,-0.000339113,0.0740894,20.9195,469.307,0.343479,0.0,0.0
568,141.75,36.7969,38.2413,158.468,101.31,97.8617,-0.000350837,0.073904,20.9197,469.297,0.317808,0.0,0.0
570,142.25,37.0849,38.7497,156.777,101.305,97.7593,-0.000372447,0.0737467,20.9198,469.307,0.326895,0.0,0.0
572,142.75,36.7679,38.4511,154.393,101.318,97.7131,-0.000389952,0.0736129,20.9198,469.317,0.332421,0.0,0.0
574,143.25,36.6763,38.8401,157.166,101.297,98.0189,-0.000432141,0.0734506,20.9201,469.317,0.301885,0.0,0.0
576,143.75,37.2593,38.5628,160.547,101.319,97.7187,-0.000466314,0.0733191,20.9206,469.297,0.331973,0.0,0.0
578,144.25,36.7227,38.2493,152.845,101.303,97.9662,-0.000490342,0.073177,20.9209,469.297,0.307346,0.0,0.0
580,144.75,37.1338,38.533,157.273,101.331,97.8561,-0.000509804,0.07303,20.9212,469.307,0.32016,0.0,0.0
582,145.25,37.0239,38.5157,157.664,101.323,97.6604,-0.000512107,0.0729109,20.9215,469.297,0.337823,0.0,0.0
584,145.75,36.699,38.1973,157.031,101.323,97.8409,-0.000501859,0.0727605,20.9217,469.297,0.320914,0.0,0.0
586,146.25,37.2429,38.2659,159.694,101.318,97.7902,-0.000482661,0.0726386,20.9218,469.317,0.325186,0.0,0.0
588,146.75,36.8888,38.5539,158.005,101.335,97.81,-0.000457305,0.0724689,20.922,469.297,0.324861,0.0,0.0
590,147.25,37.0617,38.1176,162.727,101.324,97.5149,-0.000424587,0.0722675,20.9218,469.307,0.351582,0.0,0.0
592,147.75,36.3952,38.5012,155.328,101.331,97.9585,-0.000398086,0.0720902,20.9215,469.297,0.310635,0.0,0.0
594,148.25,36.5976,38.1229,156.719,101.329,97.7811,-0.000380274,0.0719338,20.9213,469.287,0.327088,0.0,0.0
596,148.75,37.075,38.2549,156.158,101.349,97.9236,-0.000365846,0.0718142,20.9211,469.277,0.31548,0.0,0.0
598,149.25,36.6199,38.0526,157.847,101.335,97.6862,-0.000354159,0.0717237,20.9209,469.287,0.336513,0.0,0.0
600,149.75,36.5471,38.3083,157.83,101.346,97.7618,-0.000362965,0.0716362,20.9207,469.297,0.330389,0.0,0.0
602,150.25,36.7621,38.2021,156.196,101.335,97.7993,-0.000370098,0.0715525,20.9206,469.307,0.32586,0.0,0.0
604,150.75,36.7548,38.0186,156.702,101.354,97.7725,-0.00039049,0.0714564,20.9206,469.297,0.330136,0.0,0.0
606,151.25,36.1044,38.775,156.195,101.342,97.7988,-0.000407008,0.0713529,20.9207,469.297,0.326542,0.0,0.0
608,151.75,36.507,38.3979,157.4,101.351,97.7816,-0.000426797,0.0712479,20.9208,469.307,0.329019,0.0,0.0
610,152.25,36.8018,38.367,155.777,101.341,97.7795,-0.000448594,0.0711436,20.9208,469.307,0.328239,0.0,0.0
612,152.75,36.3273,38.4411,154.928,101.363,97.7958,-0.000466251,0.0710591,20.9209,469.317,0.328731,0.0,0.0
614,153.25,36.7873,38.669,150.793,101.359,97.8348,-0.000490295,0.070984,20.9209,469.297,0.324695,0.0,0.0
616,153.75,36.6193,38.4251,155.184,101.347,97.7243,,0.070917,,469.277,0.334025,0.0,0.0
618,154.25,36.5499,37.7199,160.829,101.347,97.7953,,0.0708415,,469.297,0.32736,0.0,0.0
620,154.75,36.3033,37.4078,155.809,101.362,97.8206,,0.0707612,,469.307,0.326288,0.0,0.0
622,155.25,36.3257,37.9051,157.617,101.36,97.7943,,0.0706962,,469.307,0.32865,0.0,0.0
624,155.75,36.7183,37.9239,156.983,101.369,97.9545,,0.070576,,469.297,0.31441,0.0,0.0
626,156.25,36.8096,38.7093,156.76,101.359,97.8166,,0.0704787,,469.277,0.326407,0.0,0.0
628,156.75,36.1788,37.9153,159.781,101.369,97.9124,,,,469.287,0.318353,0.0,0.0
630,157.25,36.6984,38.3072,159.394,101.37,97.8424,,,,469.287,0.325026,0.0,0.0
632,157.75,36.4957,38.0227,155.401,101.383,97.6832,,,,469.297,0.341165,0.0,0.0
634,158.25,36.4861,38.4461,157.047,101.392,98.0884,,,,469.297,0.30393,0.0,0.0
636,158.75,36.6616,38.1885,155.634,101.385,98.3774,,,,469.297,0.276334,0.0,0.0
638,159.25,36.3743,37.8716,157.843,101.393,97.7451,,,,469.287,0.336213,0.0,0.0
640,159.75,35.9398,38.153,158.265,101.403,97.8678,,,,469.287,0.325633,0.0,0.0
642,160.25,36.7015,37.9655,161.47,101.398,97.9347,,,,469.297,0.318875,0.0,0.0
644,160.75,36.4138,38.3485,154.977,101.39,97.9672,,,,469.287,0.315126,0.0,0.0
646,161.25,36.8092,38.1149,153.521,101.407,97.919,,,,469.297,0.321206,0.0,0.0
648,161.75,36.6862,37.7352,153.174,101.411,97.8546,,,,469.307,0.327578,0.0,0.0
650,162.25,35.9555,37.7433,157.327,101.418,97.9444,,,,469.317,0.319838,0.0,0.0
652,162.75,36.1283,37.7216,155.337,101.414,97.8936,,,,469.297,0.324178,0.0,0.0
654,163.25,36.2183,37.8159,156.379,101.444,97.7709,,,,469.297,0.338374,0.0,0.0
656,163.75,36.366,37.7454,158.426,101.416,97.6797,,,,469.307,0.344407,0.0,0.0
658,164.25,36.2392,37.7098,153.623,101.441,97.7522,,,,469.287,0.339911,0.0,0.0
659,164.5,36.0532,37.9931,157.487,101.436,97.9073,,,,469.297,0.324909,0.0,0.0