File: 02_Data/Polyurethane_Foam/Cone/Polyurethane_Foam_Cone_HF75Scan_210325_R2.csv
Names,Time,Stack TC,Smoke TC,Exh Press,Smoke Comp,Smoke Meas,CO Meter,CO2 Meter,O2 Meter,Sample Mass,Ext Coeff,Start Test,Flame Verif
Chan Gain,,500,500,1,1,1,1,1,1,1,1,1.0,1.0
Offset,,0,0,0.138348,0,0,0,0,0,0,0,0.0,0.0
Gain,,1,1,25.011,13.5067,16.616,1,1,1,1.00091,1.04608,1.0,1.0
Units,sec,C,C,Pa,%,%,%,%,%,g,/m,,
Baseline,,40.3956,43.8617,157.652,100.585,98.2033,-0.000648244,0.0835779,20.8606,-1.35628,0.21992,,
2,0.25,35.3056,36.4433,159.278,100.528,97.8226,-0.00014131,0.093597,20.8387,486.413,0.250335,0.0,0.0
4,0.75,35.0688,36.8026,166.484,100.514,97.5022,0.000344483,0.0962857,20.8347,486.383,0.279129,0.0,0.0
6,1.25,35.0415,36.8158,150.256,100.526,92.3142,0.000886328,0.100133,20.8103,486.373,0.781974,0.0,1.0
8,1.75,35.4056,37.923,147.529,100.504,84.4804,0.00132522,0.10325,20.7905,486.283,1.59371,0.0,1.0
10,2.25,35.9256,39.0829,142.158,100.526,82.3015,0.00151233,0.105774,20.782,486.383,1.83544,0.0,1.0
12,2.75,36.8129,40.2454,143.186,100.511,82.197,0.00238112,0.119435,20.7518,486.163,1.84574,0.0,1.0
14,3.25,37.3862,41.3018,134.825,100.521,79.006,0.00308483,0.130499,20.7131,486.313,2.20998,0.0,1.0
16,3.75,38.1059,42.7387,143.137,100.516,77.1546,0.00408189,0.148917,20.6648,485.962,2.42715,0.0,1.0
18,4.25,39.2442,44.2547,135.963,100.526,73.923,0.00488951,0.163835,20.6104,485.872,2.82064,0.0,1.0
20,4.75,40.1956,45.4859,138.581,100.512,72.0975,0.00579192,0.182202,20.5663,485.832,3.0488,0.0,1.0
22,5.25,41.2566,47.4325,138.393,100.514,71.0144,0.00674631,0.193008,20.5121,485.822,3.18796,0.0,1.0
24,5.75,40.6168,46.6051,134.575,100.51,71.2203,0.00769674,0.211487,20.4682,485.682,3.16095,0.0,1.0
26,6.25,41.1336,47.7094,138.443,100.515,75.7769,0.00862625,0.23947,20.412,485.562,2.59237,0.0,1.0
28,6.75,41.6435,49.5239,134.377,100.531,71.7618,0.00952915,0.262136,20.3665,485.422,3.09343,0.0,1.0
30,7.25,42.9497,50.991,130.446,100.517,70.3177,0.0103955,0.289484,20.3191,485.272,3.27862,0.0,0.0
32,7.75,43.6092,52.0973,138.219,100.513,71.5083,0.0111951,0.311636,20.2806,485.192,3.12421,0.0,0.0
34,8.25,44.5772,53.8858,134.462,100.523,72.3916,0.0119308,0.334861,20.2446,485.152,3.01246,0.0,0.0
36,8.75,44.9807,54.5951,135.705,100.517,71.8359,0.0125267,0.358427,20.2111,485.062,3.08265,0.0,0.0
38,9.25,45.5732,55.5745,135.768,100.523,71.1254,0.0130094,0.38131,20.1839,484.951,3.17441,0.0,0.0
40,9.75,46.7494,56.8462,135.486,100.521,70.1868,0.0135371,0.403259,20.1589,484.891,3.29608,0.0,0.0
42,10.25,47.4034,57.8701,133.285,100.509,68.6413,0.0139645,0.424465,20.1359,484.761,3.49936,0.0,0.0
44,10.75,47.9456,58.4233,138.628,100.517,70.8501,0.014424,0.444726,20.1152,484.721,3.2094,0.0,0.0
46,11.25,48.6233,59.8166,130.243,100.521,69.4962,0.0147963,0.461137,20.0965,484.601,3.38683,0.0,0.0
48,11.75,49.0976,60.6526,139.571,100.519,74.2283,0.0153414,0.478386,20.08,484.501,2.78226,0.0,0.0
50,12.25,49.9005,61.5357,138.101,100.519,70.0013,0.015783,0.495918,20.0653,484.371,3.32019,0.0,0.0
52,12.75,50.2443,62.3021,136.264,100.534,72.6249,0.0163697,0.510119,20.0535,484.281,2.98396,0.0,0.0
54,13.25,51.0974,63.5791,145.255,100.511,68.7949,0.017051,0.529585,20.0187,484.251,3.47903,0.0,0.0
56,13.75,51.5498,64.4737,125.042,100.527,70.6366,0.0179087,0.545353,19.9906,484.071,3.23807,0.0,0.0
58,14.25,51.9895,65.9106,128.844,100.516,69.4318,0.0188787,0.570176,19.9139,483.981,3.39492,0.0,0.0
60,14.75,52.8157,67.5964,123.047,100.516,71.5539,0.0199098,0.590283,19.8518,483.87,3.11862,0.0,0.0
62,15.25,54.5725,71.1237,120.019,100.517,71.772,0.020966,0.620539,19.7102,483.64,3.09081,0.0,0.0
64,15.75,56.4683,75.4486,101.594,100.519,71.7745,0.0218216,0.657619,19.5954,483.4,3.09064,0.0,0.0
66,16.25,59.2649,78.8525,106.292,100.524,75.354,0.0227386,0.708756,19.5025,483.26,2.64452,0.0,0.0
68,16.75,62.1598,85.5452,103.453,100.519,82.6356,0.0236829,0.769171,19.3102,482.93,1.79766,0.0,0.0
70,17.25,66.0854,92.4175,94.1024,100.518,85.2233,0.0244786,0.842421,19.1545,482.709,1.51461,0.0,0.0
72,17.75,68.914,99.3451,101.703,100.517,88.034,0.0251508,0.923638,18.9156,482.479,1.21682,0.0,0.0
74,18.25,73.2429,107.466,90.7508,100.515,92.1413,0.0256594,0.989424,18.7221,482.309,0.798198,0.0,0.0
76,18.75,77.1407,115.474,95.89,100.523,92.0886,0.0260391,1.0809,18.508,482.049,0.80413,0.0,0.0
78,19.25,81.3958,123.388,92.6995,100.515,92.4527,0.0263466,1.18936,18.283,481.839,0.767245,0.0,0.0
80,19.75,84.5715,130.229,74.4152,100.524,92.6231,0.0264405,1.31064,18.0521,481.658,0.75114,0.0,0.0
82,20.25,88.1965,137.096,86.6658,100.511,93.8745,0.0265165,1.43895,17.8214,481.488,0.626821,0.0,0.0
84,20.75,92.015,144.426,62.9104,100.515,95.235,0.0264981,1.56837,17.6346,481.108,0.495166,0.0,0.0
86,21.25,95.8943,151.101,70.4683,100.514,95.4936,0.0264113,1.69615,17.4364,481.008,0.470206,0.0,0.0
88,21.75,99.2141,157.31,77.0951,100.524,96.0499,0.0262822,1.79966,17.2759,480.708,0.417775,0.0,0.0
90,22.25,102.515,163.144,86.7276,100.522,95.3268,0.0261248,1.93275,17.1459,480.457,0.486928,0.0,0.0
92,22.75,105.53,168.233,75.0617,100.531,93.5743,0.0259973,2.04056,17.0349,480.257,0.658017,0.0,0.0
94,23.25,108.271,173.836,82.1876,100.515,95.1605,0.0258941,2.14576,16.9449,480.057,0.50235,0.0,0.0
96,23.75,110.493,178.556,81.5373,100.517,94.6722,0.0254843,2.24705,16.8719,479.837,0.549709,0.0,0.0
98,24.25,113.044,182.489,83.2501,100.519,94.2401,0.0251524,2.33931,16.8127,479.597,0.591905,0.0,0.0
100,24.75,116.166,187.695,86.0941,100.529,93.4308,0.0247012,2.42323,16.7646,479.436,0.671912,0.0,0.0
102,25.25,118.028,190.161,99.9704,100.518,93.0155,0.0241715,2.49121,16.7258,479.256,0.711775,0.0,0.0
104,25.75,119.769,193.171,106.364,100.517,93.4273,0.0234586,2.54627,16.6943,479.156,0.671132,0.0,0.0
106,26.25,121.091,194.646,83.3104,100.514,93.3147,0.0226256,2.58609,16.7389,478.966,0.682007,0.0,0.0
108,26.75,121.78,195.601,86.8459,100.518,92.0445,0.021951,2.61835,16.7751,478.846,0.808111,0.0,0.0
110,27.25,123.211,195.709,108.764,100.538,88.9898,0.0209816,2.62645,16.9881,478.746,1.11965,0.0,0.0
112,27.75,122.79,193.946,108.689,100.534,88.2723,0.0200134,2.61678,17.1607,478.616,1.19356,0.0,0.0
114,28.25,122.577,192.482,127.926,100.514,88.5294,0.0190645,2.58383,17.4457,478.786,1.16503,0.0,0.0
116,28.75,120.746,188.795,138.196,100.512,94.7345,0.0181596,2.53455,17.6766,478.816,0.543214,0.0,0.0
118,29.25,119.613,184.902,144.935,100.487,97.6021,0.0173039,2.49463,17.9281,478.806,0.267285,0.0,0.0
120,29.75,117.581,180.864,147.311,100.52,98.9646,0.0166109,2.39782,18.19,478.786,0.143085,0.0,0.0
122,30.25,115.563,175.931,147.575,100.518,98.9022,0.0160495,2.3194,18.4022,478.766,0.148719,0.0,0.0
124,30.75,113.27,172.11,143.707,100.52,98.9839,0.0152483,2.20598,18.6102,478.786,0.141335,0.0,0.0
126,31.25,111.546,168.133,149.897,100.521,98.9387,0.0145993,2.11411,18.8114,478.776,0.145558,0.0,0.0
128,31.75,109.534,164.06,150.5,100.529,99.3687,0.0139022,1.99675,18.9996,478.756,0.106554,0.0,0.0
130,32.25,107.581,160.362,150.856,100.519,99.2237,0.0133375,1.90169,19.1749,478.726,0.119052,0.0,0.0
132,32.75,105.896,156.699,150.995,100.535,99.0117,0.0127247,1.79591,19.3385,478.746,0.140105,0.0,0.0
134,33.25,103.914,153.462,149.856,100.516,98.849,0.0122283,1.68432,19.4904,478.776,0.153472,0.0,0.0
136,33.75,102.346,150.126,151.192,100.536,98.6735,0.0116818,1.59393,19.6316,478.756,0.171541,0.0,0.0
138,34.25,101.016,147.152,147.533,100.522,98.8226,0.011239,1.48265,19.7623,478.746,0.156446,0.0,0.0
140,34.75,99.2629,143.291,148.757,100.533,98.9286,0.0108006,1.39252,19.8776,478.746,0.147589,0.0,0.0
142,35.25,97.482,140.989,149.045,100.519,98.636,0.0103736,1.30643,19.9797,478.756,0.173563,0.0,0.0
144,35.75,96.1311,137.868,155.906,100.532,99.0356,0.00993296,1.2249,20.0623,478.776,0.137596,0.0,0.0
146,36.25,94.9764,135.443,153.318,100.523,98.816,0.00949066,1.14767,20.1425,478.776,0.157172,0.0,0.0
148,36.75,93.1245,132.176,156.614,100.547,99.1279,0.0091324,1.07503,20.2074,478.776,0.130403,0.0,0.0
150,37.25,91.7872,129.533,152.388,100.521,99.0422,0.00867632,1.00751,20.26,478.776,0.136044,0.0,0.0
152,37.75,90.5314,127.014,153.945,100.542,99.3743,0.00815759,0.945023,20.3128,478.786,0.107167,0.0,0.0
154,38.25,88.7554,124.881,151.992,100.519,98.9113,0.00773742,0.886163,20.3555,478.746,0.147909,0.0,0.0
156,38.75,88.0126,122.55,150.221,100.531,98.8419,0.0072267,0.831068,20.3948,478.756,0.155485,0.0,0.0
158,39.25,86.881,120.339,154.337,100.521,98.6659,0.00681302,0.786441,20.4308,478.746,0.170895,0.0,0.0
160,39.75,85.6349,117.75,152.426,100.545,98.9484,0.00638671,0.741591,20.4599,478.726,0.146922,0.0,0.0
162,40.25,84.622,115.955,152.824,100.518,99.1431,0.00595928,0.697431,20.4915,478.726,0.126399,0.0,0.0
164,40.75,83.4168,113.768,145.666,100.534,99.1466,0.00554703,0.661661,20.517,478.716,0.1275,0.0,0.0
166,41.25,82.5976,112.602,150.489,100.531,98.9103,0.00515368,0.620494,20.5466,478.736,0.149171,0.0,0.0
168,41.75,81.5529,109.908,156.041,100.537,98.7592,0.00478618,0.587149,20.5705,478.736,0.163688,0.0,0.0
170,42.25,81.0351,108.103,151.549,100.526,98.8698,0.00444451,0.55114,20.5951,478.726,0.152446,0.0,0.0
172,42.75,79.7404,106.52,153.655,100.545,99.0782,0.00411964,0.521973,20.6151,478.716,0.134891,0.0,0.0
174,43.25,79.4741,104.963,157.41,100.532,99.2551,0.00381318,0.493863,20.6357,478.736,0.117274,0.0,0.0
176,43.75,78.0825,103.159,152.814,100.538,98.8272,0.00356496,0.467057,20.6524,478.736,0.15749,0.0,0.0
178,44.25,76.9277,101.72,149.978,100.527,98.7268,0.00329323,0.442202,20.6659,478.766,0.165802,0.0,0.0
180,44.75,76.3534,99.5348,150.243,100.547,98.8561,0.00300955,0.419241,20.6804,478.726,0.155634,0.0,0.0
182,45.25,75.5534,98.2931,155.293,100.53,99.3246,0.00274098,0.400643,20.6921,478.746,0.110704,0.0,0.0
184,45.75,74.9891,97.1623,153.922,100.533,98.781,0.00248853,0.380241,20.7016,478.726,0.161286,0.0,0.0
186,46.25,74.0893,95.6337,151.291,100.531,98.6974,0.00228404,0.363715,20.7107,478.746,0.168911,0.0,0.0
188,46.75,73.2292,94.528,152.375,100.532,98.8677,0.00211841,0.347461,20.7193,478.736,0.153197,0.0,0.0
190,47.25,72.8224,93.3021,150.861,100.533,99.1755,0.00193588,0.331715,20.7278,478.736,0.124751,0.0,0.0
192,47.75,72.1829,91.8275,154.052,100.538,98.9661,0.00174449,0.31896,20.7359,478.756,0.1446,0.0,0.0
194,48.25,70.9763,90.7721,150.708,100.533,98.9839,0.00156887,0.303949,20.7424,478.716,0.14254,0.0,0.0
196,48.75,70.5577,89.1087,153.835,100.544,98.9377,0.00140808,0.291791,20.7503,478.726,0.147758,0.0,0.0
198,49.25,70.538,88.2775,151.088,100.532,98.7379,0.00126368,0.281942,20.7566,478.746,0.165254,0.0,0.0
200,49.75,69.4843,87.1295,153.888,100.537,98.6984,0.00113399,0.269213,20.7635,478.736,0.169344,0.0,0.0
202,50.25,69.1139,85.9686,155.941,100.546,99.1385,0.00102894,0.258903,20.769,478.736,0.129342,0.0,0.0
204,50.75,68.6195,85.12,149.367,100.543,99.1264,0.000923084,0.248931,20.7747,478.756,0.130243,0.0,0.0
206,51.25,67.8844,84.0732,152.359,100.539,98.7136,0.000837343,0.239395,20.7804,478.746,0.168119,0.0,0.0
208,51.75,67.1871,83.4551,152.753,100.515,99.0376,0.000761467,0.230467,20.7849,478.746,0.135865,0.0,0.0
210,52.25,66.8289,82.1578,151.956,100.484,99.1223,0.000694226,0.222152,20.7895,478.726,0.125199,0.0,0.0
212,52.75,66.1415,81.3254,153.684,100.533,98.7126,0.000639761,0.215416,20.7933,478.716,0.167685,0.0,0.0
214,53.25,65.5957,80.2753,153.986,100.53,98.9337,0.000579781,0.207418,20.797,478.736,0.146855,0.0,0.0
216,53.75,65.3291,78.9191,155.548,100.534,98.5407,0.000531198,0.20094,20.8006,478.746,0.183792,0.0,0.0
218,54.25,64.9765,78.0756,149.222,100.532,98.8135,0.000462578,0.194618,20.804,478.776,0.158235,0.0,0.0
220,54.75,64.1142,77.4843,151.881,100.531,98.9489,0.000406997,0.18853,20.8072,478.726,0.14552,0.0,0.0
222,55.25,63.6782,77.2499,150.479,100.535,99.0589,0.000329078,0.183599,20.8102,478.766,0.135698,0.0,0.0
224,55.75,63.5205,75.8621,149.712,100.529,98.6071,0.000265965,0.177843,20.8131,478.766,0.177081,0.0,0.0
226,56.25,63.0455,75.3088,152.967,100.538,98.7602,0.000227521,0.173181,20.8148,478.776,0.163669,0.0,0.0
228,56.75,62.7918,74.9148,152.49,100.536,98.7536,0.000161781,0.168071,20.8177,478.746,0.164169,0.0,0.0
230,57.25,61.9641,73.2516,155.063,100.527,98.924,0.000101226,0.163933,20.82,478.746,0.147486,0.0,0.0
232,57.75,62.1982,73.4911,153.754,100.54,99.1284,5.21753e-05,0.159434,20.8224,478.716,0.129754,0.0,0.0
234,58.25,61.6712,72.4989,154.074,100.538,98.7501,1.24446e-05,0.15579,20.8242,478.726,0.16465,0.0,0.0
236,58.75,61.7825,71.5452,154.242,100.541,98.706,-3.06341e-05,0.151822,20.8262,478.726,0.169013,0.0,0.0
238,59.25,61.0647,70.8496,152.688,100.532,98.5625,-7.53349e-05,0.15013,20.8283,478.746,0.181536,0.0,0.0
240,59.75,60.9864,70.5266,157.473,100.535,98.6269,-0.000124362,0.146724,20.8299,478.746,0.175843,0.0,0.0
242,60.25,60.1634,70.0738,157.843,100.54,98.6431,-0.000175612,0.143505,20.8313,478.766,0.174786,0.0,0.0
244,60.75,59.8079,69.6636,153.339,100.556,98.7785,-0.000217124,0.140898,20.8324,478.746,0.163629,0.0,0.0
246,61.25,59.806,69.0029,156.886,100.549,98.8875,-0.000269016,0.137705,20.8335,478.756,0.152867,0.0,0.0
248,61.75,59.3012,67.8803,156.77,100.536,98.6456,-0.000311049,0.135119,20.8346,478.746,0.174211,0.0,0.0
250,62.25,58.7867,67.8016,152.14,100.547,99.5127,-0.000351186,0.132552,20.8359,478.776,0.0949198,0.0,0.0
252,62.75,58.9536,66.844,152.684,100.556,99.2298,-0.000383697,0.130047,20.8375,478.776,0.121801,0.0,0.0
254,63.25,58.5977,66.6387,154.291,100.551,98.7034,-0.000401505,0.128018,20.8389,478.776,0.170189,0.0,0.0
256,63.75,57.9412,66.4537,152.433,100.551,98.6101,-0.00041593,0.125561,20.8403,478.746,0.178829,0.0,0.0
258,64.25,57.3725,65.9675,152.711,100.548,98.7222,-0.000414218,0.123571,20.8414,478.726,0.168182,0.0,0.0
260,64.75,57.3503,65.6473,146.147,100.541,98.709,-0.000412831,0.121449,20.8424,478.706,0.168768,0.0,0.0
262,65.25,57.7405,65.3978,149.789,100.549,98.6446,-0.000411707,0.119731,20.8431,478.736,0.175472,0.0,0.0
264,65.75,57.0068,64.6985,153.522,100.546,98.6908,-0.000410797,0.117872,20.8441,478.746,0.170916,0.0,0.0
266,66.25,57.0188,64.1848,153.774,100.547,98.7116,-0.000420957,0.116367,20.845,478.766,0.169096,0.0,0.0
268,66.75,56.6402,63.4562,153.58,100.549,98.848,-0.000438993,0.114694,20.8457,478.786,0.156539,0.0,0.0
270,67.25,56.8911,62.8808,152.668,100.556,98.9631,-0.00046578,0.113339,20.8462,478.746,0.146498,0.0,0.0
272,67.75,56.1187,62.629,150.576,100.556,99.4377,-0.000498439,0.111996,20.8471,478.736,0.102632,0.0,0.0
274,68.25,56.1158,62.5953,156.218,100.559,99.1187,-0.000524893,0.110688,20.8478,478.726,0.132339,0.0,0.0
276,68.75,55.9528,62.2814,151.98,100.542,98.6335,-0.000562152,0.109455,20.8484,478.716,0.17587,0.0,0.0
278,69.25,55.5954,61.6546,150.321,100.552,98.7192,-0.000592333,0.108301,20.8489,478.716,0.16884,0.0,0.0
280,69.75,55.5624,61.9215,154.686,100.54,98.4317,-0.000616779,0.107366,20.8493,478.716,0.194438,0.0,0.0
282,70.25,54.9127,61.109,151.742,100.566,98.9823,-0.00064267,0.106294,20.85,478.716,0.145689,0.0,0.0
284,70.75,55.0931,60.9699,155.236,100.552,98.8475,-0.000663641,0.105425,20.8511,478.736,0.156924,0.0,0.0
286,71.25,54.754,60.9963,151.697,100.557,98.5214,-0.000681269,0.10438,20.8519,478.726,0.187693,0.0,0.0
288,71.75,54.2899,59.9468,154.724,100.546,98.5858,-0.000696125,0.103534,20.8526,478.716,0.180681,0.0,0.0
290,72.25,54.177,60.0769,157.415,100.555,98.8672,-0.000708158,0.102848,20.8531,478.736,0.155352,0.0,0.0
292,72.75,53.9879,59.6633,153.45,100.566,98.956,-0.000714059,0.102098,20.8535,478.726,0.148096,0.0,0.0
294,73.25,53.8488,58.6959,150.551,100.555,99.6786,-0.000715377,0.101316,20.8539,478.736,0.0803578,0.0,0.0
296,73.75,53.3315,59.2365,159.752,100.545,98.5878,-0.000710676,0.100465,20.8542,478.746,0.180418,0.0,0.0
298,74.25,53.7758,58.6146,154.75,100.568,98.704,-0.000701676,0.0997746,20.8549,478.756,0.171684,0.0,0.0
300,74.75,53.6882,58.9967,152.473,100.546,98.5412,-0.000688617,0.0992158,20.8554,478.766,0.184798,0.0,0.0
302,75.25,53.3237,58.0532,154.534,100.558,98.7222,-0.000672848,0.0985448,20.8558,478.716,0.169048,0.0,0.0
304,75.75,53.1658,58.0414,153.811,100.549,98.7978,-0.00065046,0.0980014,20.8562,478.736,0.161237,0.0,0.0
306,76.25,52.954,57.736,155.249,100.559,98.8434,-0.000623673,0.0974535,20.8565,478.726,0.157902,0.0,0.0
308,76.75,52.695,57.688,157.446,100.54,98.9169,-0.000591719,0.0969129,20.8567,478.736,0.149311,0.0,0.0
310,77.25,52.1688,57.219,152.672,100.554,98.8089,-0.000556607,0.0963745,20.8569,478.766,0.160615,0.0,0.0
312,77.75,52.4102,57.3758,156.412,100.539,99.3895,-0.000528166,0.0958481,20.8571,478.756,0.1055,0.0,0.0
314,78.25,52.5146,57.1813,157.794,100.557,98.961,-0.00049295,0.0954216,20.8572,478.716,0.146762,0.0,0.0
316,78.75,51.9145,56.6903,152.881,100.551,98.9585,-0.000464425,0.0948719,20.8573,478.736,0.146508,0.0,0.0
318,79.25,52.1521,56.0685,152.406,100.555,99.4899,-0.000441319,0.0944266,20.8574,478.716,0.0977017,0.0,0.0
320,79.75,52.4514,55.9723,152.045,100.538,98.9119,-0.000422604,0.093957,20.8574,478.716,0.149669,0.0,0.0
322,80.25,51.5671,56.6562,153.061,100.555,98.9671,-0.000407444,0.0935766,20.8575,478.706,0.146086,0.0,0.0
324,80.75,51.513,56.1897,154.032,100.543,98.6822,-0.000402473,0.0931868,20.8575,478.706,0.171455,0.0,0.0
326,81.25,51.1852,55.5191,153.608,100.547,98.6274,-0.000398446,0.092871,20.8576,478.726,0.176887,0.0,0.0
328,81.75,51.1548,55.5788,152.163,100.539,98.8657,-0.00039153,0.0926153,20.8576,478.726,0.153988,0.0,0.0
330,82.25,51.5949,55.4049,150.398,100.556,98.6167,-0.000385929,0.0922448,20.8576,478.716,0.178668,0.0,0.0
332,82.75,51.2161,55.6077,150.137,100.529,99.0478,-0.000378956,0.0919447,20.8579,478.686,0.136242,0.0,0.0
334,83.25,51.2748,54.8967,152.64,100.538,98.3287,-0.000373308,0.0916472,20.8583,478.706,0.203851,0.0,0.0
336,83.75,51.2974,55.1464,156.041,100.541,98.5539,-0.000373604,0.0914062,20.8584,478.716,0.183166,0.0,0.0
338,84.25,51.4692,55.0422,151.082,100.564,98.7962,-0.000373844,0.0910886,20.8583,478.706,0.16277,0.0,0.0
340,84.75,51.4633,54.1308,149.566,100.539,98.744,-0.000386217,0.0908313,20.8582,478.756,0.16529,0.0,0.0
342,85.25,50.7462,54.1568,151.838,100.559,98.5356,-0.00039624,0.0905657,20.8581,478.726,0.186483,0.0,0.0
344,85.75,50.376,54.6296,151.715,100.536,99.244,-0.000410127,0.090299,20.858,478.736,0.118719,0.0,0.0
346,86.25,50.4908,54.8549,153.148,100.548,98.5488,-0.000426567,0.0900758,20.858,478.706,0.184316,0.0,0.0
348,86.75,50.1204,53.7966,154.657,100.537,98.6446,-0.000441166,0.0898885,20.8579,478.716,0.17438,0.0,0.0
350,87.25,50.2977,54.2302,149.325,100.545,99.1588,-0.000454144,0.0896961,20.8579,478.726,0.12739,0.0,0.0
352,87.75,50.3675,54.1095,156.174,100.538,98.6857,-0.000464657,0.0895402,20.8579,478.696,0.170597,0.0,0.0
354,88.25,49.9478,53.1817,152.143,100.537,98.9894,-0.000469518,0.0893782,20.8578,478.686,0.142361,0.0,0.0
356,88.75,50.46,53.6619,158.685,100.54,98.4687,-0.000473456,0.0892147,20.8578,478.696,0.191064,0.0,0.0
358,89.25,50.2443,53.2385,155.528,100.543,98.7318,-0.000476645,0.0890823,20.8578,478.726,0.166835,0.0,0.0
360,89.75,50.5051,53.2244,156.421,100.547,98.6913,-0.000479229,0.0889479,20.8578,478.736,0.170907,0.0,0.0
362,90.25,50.0199,53.3687,151.527,100.532,98.4955,-0.000484529,0.088839,20.8578,478.716,0.187807,0.0,0.0
364,90.75,49.7411,53.1422,154.948,100.534,98.3444,-0.00049171,0.08871,20.8579,478.706,0.202084,0.0,0.0
366,91.25,49.917,52.7066,154.801,100.542,98.9529,-0.000497526,0.0886056,20.858,478.726,0.14616,0.0,0.0
368,91.75,49.2443,52.4221,145.594,100.531,98.6695,-0.000502237,0.0884666,20.8582,478.746,0.171468,0.0,0.0
370,92.25,49.7719,52.7612,155.135,100.536,99.0107,-0.000506053,0.088354,20.8582,478.736,0.140274,0.0,0.0
372,92.75,49.3124,52.4147,152.495,100.538,98.7486,-0.000509143,0.0882132,20.8583,478.726,0.164753,0.0,0.0
374,93.25,49.4094,52.5809,153.462,100.527,98.7957,-0.000511647,0.0880544,20.8584,478.716,0.159431,0.0,0.0
376,93.75,49.5794,52.5542,155.96,100.523,98.5163,-0.000496625,0.0879258,20.8587,478.726,0.185006,0.0,0.0
378,94.25,49.3193,52.3109,153.445,100.531,98.673,-0.000484457,0.0877809,20.8589,478.706,0.171137,0.0,0.0
380,94.75,48.8148,52.1647,157.273,100.529,98.7242,-0.000474601,0.0876635,20.8591,478.736,0.166225,0.0,0.0
382,95.25,49.0858,52.3038,153.484,100.532,98.776,-0.000466618,0.0875684,20.8593,478.726,0.16172,0.0,0.0
384,95.75,48.8059,51.7497,154.416,100.537,98.71,-0.000473547,0.0874413,20.8595,478.746,0.168297,0.0,0.0
386,96.25,49.1141,52.6155,153.19,100.53,98.6487,-0.00047916,0.0872934,20.8596,478.746,0.173326,0.0,0.0
388,96.75,48.6284,52.4307,156.887,100.536,98.5959,-0.000500758,0.0871735,20.8597,478.766,0.178834,0.0,0.0
390,97.25,48.6247,52.1228,154.545,100.535,98.6583,-0.000518252,0.0870493,20.8597,478.756,0.172881,0.0,0.0
392,97.75,48.8497,51.2926,155.751,100.54,98.8201,-0.000543382,0.0869486,20.8598,478.756,0.1583,0.0,0.0
394,98.25,48.4087,51.9014,153.746,100.54,99.316,-0.000563738,0.0868671,20.8598,478.756,0.112403,0.0,0.0
396,98.75,48.7412,51.7295,155.084,100.535,98.4844,-0.000587534,0.0868011,20.8599,478.746,0.18911,0.0,0.0
398,99.25,48.5589,51.5224,150.196,100.529,98.6198,-0.000606809,0.0867476,20.8599,478.756,0.17594,0.0,0.0
400,99.75,48.4835,51.9863,152.467,100.531,98.8475,-0.000622422,0.0867043,20.8599,478.776,0.15493,0.0,0.0
402,100.25,49.0419,51.5924,152.67,100.534,98.2952,-0.000643587,0.0866285,20.86,478.756,0.206637,0.0,0.0
404,100.75,47.9116,51.2858,150.764,100.536,98.7034,-0.000660731,0.086567,20.86,478.766,0.168797,0.0,0.0
406,101.25,48.9373,51.1717,157.866,100.516,98.5899,-0.000680386,0.0864765,20.86,478.736,0.177558,0.0,0.0
408,101.75,48.4268,51.1261,157.094,100.524,98.744,-0.000701499,0.0864032,20.8598,478.706,0.163974,0.0,0.0
410,102.25,48.3936,51.3545,153.765,100.527,98.671,-0.000721165,0.0863653,20.8597,478.716,0.170987,0.0,0.0
412,102.75,47.9926,51.2351,152.574,100.536,98.7678,-0.000739401,0.0863539,20.8596,478.696,0.16285,0.0,0.0
414,103.25,48.3443,50.8368,152.205,100.521,98.6517,-0.000754173,0.0863446,20.8595,478.716,0.17229,0.0,0.0
416,103.75,48.1458,50.6549,155.242,100.537,98.4175,-0.000756395,0.086351,20.8595,478.706,0.195536,0.0,0.0
418,104.25,47.9598,50.691,152.787,100.524,98.3044,-0.000751143,0.0863687,20.8594,478.676,0.204883,0.0,0.0
420,104.75,48.4878,50.683,152.868,100.524,98.707,-0.000740544,0.0863759,20.8594,478.716,0.167377,0.0,0.0
422,105.25,48.1922,50.9067,151.587,100.511,98.7394,-0.000725549,0.0863753,20.8593,478.716,0.163194,0.0,0.0
424,105.75,48.0742,51.049,150.586,100.527,98.5706,-0.000707634,0.0863747,20.8593,478.746,0.180366,0.0,0.0
426,106.25,48.3768,51.258,150.659,100.512,98.5544,-0.000693123,0.0863608,20.8593,478.736,0.180448,0.0,0.0
428,106.75,47.9993,50.5605,156.631,100.55,98.8409,-0.000667908,0.0863494,20.8593,478.696,0.157347,0.0,0.0
430,107.25,47.7017,50.8754,151.736,100.515,98.9088,-0.00063537,0.0863267,20.8597,478.736,0.147806,0.0,0.0
432,107.75,47.5734,50.771,154.476,100.531,98.5767,-0.000621499,0.0863082,20.8599,478.706,0.180101,0.0,0.0
434,108.25,47.8873,50.6231,153.674,100.507,98.565,-0.000578292,0.0862118,20.8602,478.716,0.179004,0.0,0.0
436,108.75,47.257,50.3828,159.157,100.524,98.3434,-0.000543295,0.0861337,20.8604,478.706,0.2012,0.0,0.0
438,109.25,47.4857,49.8437,152.594,100.507,98.5569,-0.000497897,0.0860162,20.8606,478.686,0.17976,0.0,0.0
440,109.75,47.1034,50.4262,153.311,100.533,98.7684,-0.000461125,0.085921,20.8608,478.686,0.162464,0.0,0.0
442,110.25,47.3837,49.9458,152.151,100.509,98.3891,-0.000422815,0.0858296,20.8609,478.706,0.195626,0.0,0.0
444,110.75,47.129,50.5417,154.946,100.519,98.3257,-0.000391784,0.0857838,20.861,478.686,0.202442,0.0,0.0
446,111.25,48.1109,50.2579,155.19,100.507,98.4839,-0.00036024,0.0857056,20.8611,478.666,0.186598,0.0,0.0
448,111.75,47.1431,49.5267,156.205,100.527,98.6659,-0.000328923,0.085683,20.8614,478.676,0.171497,0.0,0.0
450,112.25,47.7914,49.8856,153.654,100.508,98.3906,-0.000304838,0.0856646,20.8616,478.716,0.19541,0.0,0.0
452,112.75,46.6268,49.6549,153.78,100.522,99.0975,-0.000286484,0.0855955,20.8617,478.726,0.130962,0.0,0.0
454,113.25,47.2657,49.5042,151.588,100.517,98.6827,-0.000271616,0.0855395,20.8618,478.716,0.169037,0.0,0.0
456,113.75,47.4466,50.2631,152.03,100.528,98.5173,-0.000259574,0.0854445,20.8619,478.696,0.185399,0.0,0.0
458,114.25,47.155,50.3461,154.353,100.511,98.4403,-0.000282703,0.085323,20.862,478.716,0.191002,0.0,0.0
460,114.75,47.2215,49.5577,154.146,100.52,98.3835,-0.000301437,0.0852245,20.8621,478.726,0.197124,0.0,0.0
462,115.25,46.7308,50.2674,157.292,100.508,98.8723,-0.000354366,0.085104,20.8621,478.736,0.150592,0.0,0.0
464,115.75,47.0227,49.4052,155.374,100.512,98.4322,-0.000397239,0.0850064,20.8622,478.736,0.191909,0.0,0.0
466,116.25,47.0974,49.9885,154.571,100.517,98.4261,-0.000431966,0.0849131,20.8622,478.726,0.192852,0.0,0.0
468,116.75,46.8552,49.0145,151.8,100.546,98.6953,-0.000520989,0.0848247,20.8623,478.746,0.170454,0.0,0.0
470,117.25,47.2174,49.8982,152.855,100.517,98.5052,-0.000593097,0.084753,20.8624,478.726,0.185517,0.0,0.0
472,117.75,46.7451,49.4624,152.748,100.518,98.5883,-0.000672209,0.0846272,20.8626,478.726,0.17785,0.0,0.0
474,118.25,46.9298,49.2517,152.646,100.519,98.4235,-0.000705936,0.0845252,20.8626,478.746,0.193314,0.0,0.0
476,118.75,46.8888,49.3336,156.197,100.514,98.4256,-0.000766813,0.0844426,20.8627,478.756,0.192673,0.0,0.0
478,119.25,47.0756,49.4653,151.836,100.502,98.4631,-0.000819009,0.0843686,20.8627,478.726,0.188084,0.0,0.0
480,119.75,46.5055,49.6138,152.73,100.514,98.3987,-0.000857441,0.0843022,20.8628,478.726,0.195179,0.0,0.0
482,120.25,46.4304,49.3997,152.213,100.511,98.6664,-0.00088511,0.0841942,20.8628,478.726,0.169944,0.0,0.0
484,120.75,46.5952,49.1528,153.285,100.517,98.7359,-0.000907522,0.0841066,20.8629,478.746,0.164088,0.0,0.0
486,121.25,46.7303,49.2967,154.152,100.495,98.812,-0.00091157,0.0840693,20.8629,478.726,0.154953,0.0,0.0
488,121.75,46.4619,49.1738,154.341,100.512,98.527,-0.000902154,0.0840055,20.8629,478.726,0.183073,0.0,0.0
490,122.25,46.4019,49.5785,152.795,100.507,98.3216,-0.000880426,0.0839538,20.8629,478.726,0.201768,0.0,0.0
492,122.75,46.5031,49.0892,153.629,100.504,98.5341,-0.000850134,0.083912,20.8628,478.726,0.181659,0.0,0.0
494,123.25,46.5667,49.1704,154.789,100.504,98.491,-0.000810856,0.0838781,20.8627,478.736,0.185635,0.0,0.0
496,123.75,46.1737,49.2177,158.542,100.512,98.959,-0.000765771,0.0837964,20.8628,478.716,0.142886,0.0,0.0
498,124.25,46.552,48.9262,154.838,100.503,98.457,-0.000713685,0.0837302,20.8633,478.706,0.188689,0.0,0.0
500,124.75,45.6776,49.1235,154.513,100.517,98.6365,-0.000684931,0.0836766,20.8634,478.726,0.173254,0.0,0.0
502,125.25,46.5289,49.0557,157.897,100.511,98.668,-0.000635762,0.0836188,20.8636,478.756,0.169803,0.0,0.0
504,125.75,45.3573,48.8857,148.543,100.514,98.5823,-0.00058741,0.0835721,20.8638,478.756,0.178039,0.0,0.0
506,126.25,46.3319,48.7807,155.093,100.503,98.4692,-0.000548245,0.0835613,20.8639,478.746,0.187593,0.0,0.0
508,126.75,46.2885,48.4072,152.097,100.507,98.4448,-0.000516521,0.0835526,20.864,478.726,0.190236,0.0,0.0
510,127.25,46.1055,48.4821,154.044,100.504,98.6999,-0.000490825,0.0835154,20.8641,478.726,0.166193,0.0,0.0
512,127.75,46.4482,48.9012,150.502,100.501,99.0163,-0.000470011,0.0835011,20.8642,478.726,0.136559,0.0,0.0
514,128.25,46.484,48.7371,157.925,100.504,98.5001,-0.000466548,0.0834553,20.8642,478.746,0.184785,0.0,0.0
516,128.75,45.8142,48.7879,154.135,100.503,98.2237,-0.000463743,0.0833989,20.8643,478.736,0.210529,0.0,0.0
518,129.25,46.2824,48.6587,153.229,100.496,98.8287,-0.000472432,0.0833532,20.8643,478.736,0.153511,0.0,0.0
520,129.75,46.1886,49.0594,157.953,100.504,98.3297,-0.00047947,0.0833162,20.8644,478.746,0.200671,0.0,0.0
522,130.25,45.8017,48.7459,157.67,100.487,98.2927,-0.000494914,0.0832863,20.8644,478.736,0.202584,0.0,0.0
524,130.75,46.1911,49.1758,153.367,100.508,98.5787,-0.000507423,0.0832755,20.8644,478.746,0.177843,0.0,0.0
526,131.25,46.0991,48.7496,154.673,100.504,98.671,-0.000521209,0.0832669,20.8642,478.726,0.168917,0.0,0.0
528,131.75,45.9439,48.1742,154.759,100.503,98.3282,-0.000532375,0.0832313,20.8638,478.746,0.200776,0.0,0.0
530,132.25,46.4423,48.7148,151.506,100.512,99.0756,-0.000542064,0.0831768,20.8635,478.736,0.132116,0.0,0.0
532,132.75,45.5127,48.5492,154.858,100.498,98.4301,-0.000550492,0.0831112,20.8632,478.716,0.190818,0.0,0.0
534,133.25,45.6934,48.2558,154.987,100.503,98.3642,-0.000560524,0.0830389,20.863,478.716,0.197416,0.0,0.0
536,133.75,46.2265,48.2491,156.645,100.508,98.2993,-0.000571534,0.0829802,20.8635,478.686,0.203888,0.0,0.0
538,134.25,45.6338,48.8077,157.515,100.511,98.4169,-0.000580452,0.0829328,20.8638,478.686,0.193214,0.0,0.0
540,134.75,45.9114,48.6451,156.621,100.501,98.5057,-0.000592162,0.0828947,20.8641,478.696,0.18404,0.0,0.0
542,135.25,45.7094,48.3221,152.672,100.496,98.5462,-0.000605686,0.0828642,20.8644,478.706,0.179735,0.0,0.0
544,135.75,45.4548,48.1954,155.089,100.503,98.3845,-0.00061664,0.0828253,20.8645,478.716,0.195525,0.0,0.0
546,136.25,45.5166,48.7071,155.549,100.508,98.3287,-0.000625513,0.0827809,20.8647,478.706,0.201181,0.0,0.0
548,136.75,46.0014,48.5262,147.816,100.497,98.4347,-0.000624368,0.0827449,20.8648,478.746,0.19028,0.0,0.0
550,137.25,45.7675,48.5475,160.058,100.503,98.422,-0.00061594,0.0827429,20.8649,478.726,0.192025,0.0,0.0
552,137.75,45.6229,48.3661,157.776,100.5,98.2674,-0.000598858,0.0827413,20.865,478.736,0.206118,0.0,0.0
554,138.25,45.4577,48.3123,156.305,100.518,98.5782,-0.00057579,0.0827257,20.8651,478.706,0.17883,0.0,0.0
556,138.75,45.5889,48.3973,154.041,100.502,98.8393,-0.000557106,0.0827002,20.8651,478.676,0.153049,0.0,0.0
558,139.25,45.3818,48.1136,152.827,100.505,98.5513,-0.00054914,0.0826795,20.8651,478.676,0.180128,0.0,0.0
560,139.75,45.9674,48.211,154.866,100.506,98.4453,-0.000518469,0.0826628,20.8652,478.726,0.190077,0.0,0.0
562,140.25,45.8318,48.0771,157.111,100.51,98.3525,-0.000493625,0.0826707,20.8652,478.706,0.199145,0.0,0.0
564,140.75,45.4753,47.69,150.978,100.5,98.3698,-0.000477156,0.0826963,20.8652,478.716,0.196633,0.0,0.0
566,141.25,45.4425,47.7092,154.983,100.529,98.3885,-0.000463815,0.0827171,20.8653,478.696,0.197517,0.0,0.0
568,141.75,45.4896,48.0553,154.224,100.5,98.639,-0.00045301,0.0827339,20.8653,478.726,0.171551,0.0,0.0
570,142.25,45.1876,48.0517,152.952,100.506,98.7293,-0.000445475,0.0827411,20.8651,478.706,0.163646,0.0,0.0
572,142.75,45.6109,47.6521,156.877,100.497,98.3997,-0.000439372,0.0827534,20.8647,478.716,0.193542,0.0,0.0
574,143.25,45.6309,47.9521,157.98,100.504,98.4296,-0.000433143,0.0827633,20.8644,478.716,0.191354,0.0,0.0
576,143.75,45.1902,48.34,155.946,100.496,98.5767,-0.000426942,0.0827714,20.8641,478.706,0.176941,0.0,0.0
578,144.25,44.8289,48.6147,153.61,100.51,98.5326,-0.00042256,0.0827707,20.8639,478.696,0.18229,0.0,0.0
580,144.75,45.0939,48.2365,154.9,100.501,98.2851,-0.000419588,0.0827638,20.8636,478.676,0.204573,0.0,0.0
582,145.25,45.7973,48.3121,153.884,100.508,98.7166,-0.000417181,0.0827582,20.8633,478.696,0.165014,0.0,0.0
584,145.75,45.4795,48.2363,155.789,100.483,98.5366,-0.000431063,0.0827533,20.8631,478.696,0.179465,0.0,0.0
586,146.25,45.6514,47.7608,160.561,100.525,98.8429,,0.0827489,,478.736,0.154827,0.0,0.0
588,146.75,45.6336,47.7755,155.269,100.493,98.5858,,0.0827596,,478.706,0.175827,0.0,0.0
590,147.25,44.9382,47.5537,159.883,100.514,98.6527,,0.0827812,,478.696,0.171556,0.0,0.0
592,147.75,45.0779,47.6636,150.549,100.5,98.6086,,0.0828129,,478.696,0.174306,0.0,0.0
594,148.25,45.5652,47.688,152.943,100.504,98.6157,,0.0828515,,478.706,0.174022,0.0,0.0
596,148.75,44.9066,47.9978,159.985,100.496,98.5315,,0.0828827,,478.686,0.181105,0.0,0.0
598,149.25,45.0445,47.7489,153.513,100.503,98.4697,,,,478.716,0.187508,0.0,0.0
600,149.75,45.1954,47.4789,152.712,100.504,98.562,,,,478.716,0.179024,0.0,0.0
602,150.25,44.5842,47.0998,160.26,100.512,98.8064,,,,478.726,0.157013,0.0,0.0
604,150.75,44.7756,47.7916,149.96,100.493,98.8226,,,,478.726,0.15385,0.0,0.0
606,151.25,44.7494,47.9625,159.894,100.498,98.2881,,,,478.736,0.203988,0.0,0.0
608,151.75,45.1582,48.0105,154.232,100.497,98.4519,,,,478.736,0.188635,0.0,0.0
610,152.25,44.9144,47.471,155.403,100.508,98.3531,,,,478.726,0.19891,0.0,0.0
612,152.75,44.9565,47.6359,153.797,100.507,98.6467,,,,478.736,0.171483,0.0,0.0
614,153.25,45.0582,47.4944,157.282,100.509,98.493,,,,478.696,0.185899,0.0,0.0
616,153.75,44.6592,47.6696,158.584,100.491,98.6147,,,,478.706,0.172987,0.0,0.0
618,154.25,45.0869,47.5764,153.997,100.507,98.8231,,,,478.676,0.155044,0.0,0.0
620,154.75,44.9524,47.2185,154.422,100.488,98.6213,,,,478.676,0.172035,0.0,0.0
622,155.25,45.0034,47.859,155.498,100.517,98.4012,,,,478.686,0.195206,0.0,0.0
624,155.75,45.3388,47.2353,158.831,100.492,98.705,,,,478.706,0.164667,0.0,0.0
626,156.25,45.1734,47.8227,153.154,100.507,98.4616,,,,478.706,0.188716,0.0,0.0
628,156.75,44.9004,47.1858,154.59,100.493,98.4884,,,,478.706,0.184894,0.0,0.0
629,157,44.6237,47.3113,156.15,100.5,98.6715,,,,478.696,0.168495,0.0,0.0