File: 02_Data/Polyurethane_Foam/Cone/Polyurethane_Foam_Cone_HF25Scan_210324_R3.csv
Names,Time,Stack TC,Smoke TC,Exh Press,Smoke Comp,Smoke Meas,CO Meter,CO2 Meter,O2 Meter,Sample Mass,Ext Coeff,Start Test,Flame Verif
Chan Gain,,500,500,1,1,1,1,1,1,1,1,1.0,1.0
Offset,,0,0,0.194005,0,0,0,0,0,0,0,0.0,0.0
Gain,,1,1,25.011,13.5067,16.616,1,1,1,1.00091,1.04608,1.0,1.0
Units,sec,C,C,Pa,%,%,%,%,%,g,/m,,
Baseline,,19.5398,20.245,168.229,101.469,100.747,0.000317232,0.0634395,20.914,-1.20147,0.0655853,,
2,0.25,16.6352,17.6294,171.527,101.352,100.524,0.000293692,0.0682121,20.9089,486.943,0.0752915,0.0,0.0
4,0.75,16.2048,17.371,164.154,101.362,100.594,0.000262891,0.0682178,20.909,486.973,0.0698391,0.0,0.0
6,1.25,16.5337,17.5186,165.844,101.379,100.663,0.000233453,0.0682033,20.9091,486.963,0.0650798,0.0,0.0
8,1.75,16.605,17.287,166.832,101.392,100.718,0.000205568,0.0681702,20.9092,486.963,0.0612373,0.0,0.0
10,2.25,16.7087,17.2598,167.868,101.387,100.576,0.00018234,0.0681243,20.9092,486.953,0.0736976,0.0,0.0
12,2.75,16.8858,17.2116,165.296,101.398,100.643,0.000162949,0.0680942,20.9093,486.943,0.0686449,0.0,0.0
14,3.25,16.8355,17.9221,165.957,101.413,100.302,0.000147241,0.0680762,20.9093,486.943,0.101072,0.0,0.0
16,3.75,17.3019,17.9471,169.188,101.424,99.7977,0.000160185,0.0681326,20.9093,486.913,0.148307,0.0,0.0
18,4.25,16.9631,17.8731,163.399,101.436,98.8439,0.000193769,0.068242,20.9076,486.913,0.237548,0.0,0.0
20,4.75,16.9734,17.7647,166.662,101.441,97.9428,0.000265329,0.068849,20.9062,486.903,0.32203,0.0,0.0
22,5.25,17.3646,17.4681,165.279,101.449,97.1716,0.000363212,0.0698071,20.8959,486.803,0.395247,0.0,0.0
24,5.75,16.9186,17.8972,164.492,101.463,96.9236,0.000510195,0.0705831,20.8875,486.833,0.420035,0.0,1.0
26,6.25,16.9041,18.5989,163.204,101.464,97.5615,0.000690179,0.0746966,20.8649,486.793,0.359914,0.0,1.0
28,6.75,17.7175,19.2533,156.621,101.472,95.4967,0.000902606,0.0780286,20.8466,486.593,0.556913,0.0,1.0
30,7.25,18.2019,20.5555,152.776,101.481,94.7285,0.00113465,0.0837016,20.8225,486.713,0.631812,0.0,1.0
32,7.75,18.651,20.8991,161.62,101.497,93.4156,0.0013226,0.0909734,20.7947,486.663,0.761363,0.0,1.0
34,8.25,19.7142,21.7404,152.141,101.505,93.0368,0.00160066,0.0968636,20.7721,486.643,0.799317,0.0,1.0
36,8.75,19.9424,22.323,157.802,101.513,92.6018,0.00182589,0.106883,20.7539,486.553,0.843074,0.0,1.0
38,9.25,20.101,23.0553,153.503,101.533,92.1606,0.00200833,0.114999,20.7308,486.523,0.888682,0.0,1.0
40,9.75,19.957,22.5544,155.426,101.53,91.3214,0.00223103,0.126334,20.712,486.493,0.972362,0.0,1.0
42,10.25,20.5518,23.7831,152.318,101.536,90.6622,0.00247886,0.135516,20.6912,486.443,1.03944,0.0,0.0
44,10.75,21.1386,24.3547,146.506,101.546,88.609,0.0026796,0.145817,20.6744,486.403,1.25049,0.0,0.0
46,11.25,21.1218,25.0034,154.153,101.547,89.896,0.00291086,0.156738,20.6575,486.343,1.11824,0.0,0.0
48,11.75,21.8707,25.9323,155.987,101.568,90.3615,0.00315999,0.165585,20.641,486.343,1.07283,0.0,0.0
50,12.25,22.3846,26.6134,154.104,101.563,89.6805,0.00344526,0.175868,20.6255,486.273,1.14172,0.0,0.0
52,12.75,22.8723,27.158,154.411,101.578,90.8168,0.00367634,0.187005,20.611,486.203,1.02752,0.0,0.0
54,13.25,23.777,28.2806,156.088,101.58,91.3777,0.00393968,0.196025,20.5977,486.173,0.971251,0.0,0.0
56,13.75,23.5439,28.4673,157.544,101.599,90.5075,0.00415299,0.207453,20.5855,486.153,1.06073,0.0,0.0
58,14.25,23.9467,28.7041,158.015,101.599,90.0522,0.00437705,0.216711,20.5732,486.103,1.10708,0.0,0.0
60,14.75,24.1508,29.4251,154.678,101.609,88.1902,0.00455854,0.227693,20.5613,486.032,1.29966,0.0,0.0
62,15.25,24.718,30.161,158.424,101.598,90.7337,0.0047356,0.236588,20.5499,485.942,1.03779,0.0,0.0
64,15.75,24.6686,30.2563,154.855,101.614,91.3467,0.00487902,0.245326,20.5393,485.892,0.977411,0.0,0.0
66,16.25,25.9729,31.2262,151.043,101.609,86.6294,0.00500706,0.253785,20.5307,485.872,1.46351,0.0,0.0
68,16.75,26.5472,32.6263,154.603,101.626,87.567,0.00512146,0.262128,20.5211,485.852,1.3663,0.0,0.0
70,17.25,26.3109,32.2457,151.857,101.631,88.5375,0.00521412,0.270229,20.5133,485.822,1.2656,0.0,0.0
72,17.75,26.3225,32.6774,147.254,101.642,88.9016,0.00530547,0.278077,20.507,485.732,1.22895,0.0,0.0
74,18.25,26.9598,33.1685,155.665,101.647,87.9235,0.00537947,0.28559,20.501,485.662,1.33092,0.0,0.0
76,18.75,26.8948,33.5117,156.403,101.66,90.4097,0.00544535,0.29299,20.4962,485.612,1.07616,0.0,0.0
78,19.25,27.0781,33.9022,155.151,101.653,89.6424,0.00550405,0.300166,20.4918,485.552,1.15377,0.0,0.0
80,19.75,27.4953,34.3855,157.809,101.664,89.5101,0.00555161,0.305978,20.4883,485.492,1.16833,0.0,0.0
82,20.25,27.9974,34.7901,157.406,101.668,86.8079,0.0056102,0.313093,20.484,485.432,1.44999,0.0,0.0
84,20.75,27.6736,34.9296,153.662,101.669,89.0279,0.00567154,0.318857,20.4793,485.382,1.21834,0.0,0.0
86,21.25,28.374,35.5714,155.772,101.665,88.9893,0.00573371,0.323525,20.4725,485.362,1.22198,0.0,0.0
88,21.75,28.4799,35.7558,153.439,101.681,86.353,0.00579927,0.330104,20.4669,485.322,1.49935,0.0,0.0
90,22.25,29.0116,36.1896,155.049,101.682,86.7729,0.00586607,0.335434,20.4615,485.262,1.45491,0.0,0.0
92,22.75,29.287,37.1209,153.414,101.706,88.6734,0.00594201,0.341427,20.4571,485.122,1.2583,0.0,0.0
94,23.25,29.7032,37.2047,152.605,101.699,89.5649,0.00602319,0.346281,20.4532,485.162,1.16588,0.0,0.0
96,23.75,29.3241,37.0747,156.555,101.697,87.3652,0.00608893,0.351607,20.4499,485.122,1.39391,0.0,0.0
98,24.25,30.5292,38.2853,161.358,101.696,89.9112,0.0061886,0.355921,20.4473,484.961,1.13017,0.0,0.0
100,24.75,30.4495,38.1896,151.496,101.709,87.3292,0.00631109,0.360735,20.443,485.001,1.39873,0.0,0.0
102,25.25,29.7603,37.9983,156.4,101.704,87.1152,0.00644353,0.364635,20.4395,484.961,1.42083,0.0,0.0
104,25.75,30.8443,38.998,155.99,101.702,86.7506,0.00658069,0.3693,20.4323,484.951,1.45913,0.0,0.0
106,26.25,30.6224,39.0642,153.387,101.717,86.5625,0.0066918,0.373078,20.4265,484.861,1.48035,0.0,0.0
108,26.75,31.2056,39.8576,153.098,101.717,87.8018,0.00683235,0.377284,20.4194,484.771,1.34991,0.0,0.0
110,27.25,31.2102,39.8696,147.222,101.722,87.387,0.0069462,0.381722,20.4116,484.711,1.39381,0.0,0.0
112,27.75,31.6899,40.429,148.26,101.72,89.7408,0.00706878,0.385316,20.4035,484.631,1.14973,0.0,0.0
114,28.25,31.9004,41.0086,151.798,101.728,90.1561,0.00716807,0.390471,20.3952,484.601,1.10807,0.0,0.0
116,28.75,32.0687,40.8196,151.852,101.726,91.1282,0.00726316,0.394647,20.3885,484.591,1.00947,0.0,0.0
118,29.25,32.3273,41.3873,153,101.722,91.3721,0.00735338,0.399938,20.3782,484.551,0.984611,0.0,0.0
120,29.75,32.8375,41.9214,141.66,101.73,90.7352,0.00742912,0.404224,20.3699,484.451,1.04958,0.0,0.0
122,30.25,33.2411,42.1762,152.546,101.736,90.8559,0.00749288,0.409269,20.3509,484.381,1.03786,0.0,0.0
124,30.75,33.5044,42.8047,140.378,101.729,92.0328,0.00754451,0.414772,20.3355,484.321,0.919166,0.0,0.0
126,31.25,33.9945,44.1689,142.274,101.726,91.2489,0.00756302,0.421066,20.323,484.231,0.997367,0.0,0.0
128,31.75,34.2547,44.2707,145.423,101.734,91.7321,0.00755702,0.427815,20.3129,484.141,0.949642,0.0,0.0
130,32.25,34.6266,45.2541,140.546,101.735,91.8422,0.00755215,0.433282,20.2942,484.121,0.938752,0.0,0.0
132,32.75,35.5046,46.2502,138.379,101.736,93.6707,0.00750231,0.442062,20.279,484.031,0.757931,0.0,0.0
134,33.25,36.2381,47.3622,136.345,101.738,93.1306,0.00742063,0.449173,20.2609,484.021,0.811136,0.0,0.0
136,33.75,36.9306,48.0764,141.329,101.737,94.2062,0.00732524,0.458574,20.2462,483.941,0.705699,0.0,0.0
138,34.25,37.7027,49.1732,147.359,101.735,93.3908,0.00722169,0.466189,20.2343,483.931,0.785244,0.0,0.0
140,34.75,38.2448,50.2678,148.609,101.748,95.1194,0.00717754,0.472358,20.2292,483.82,0.618176,0.0,0.0
142,35.25,38.5853,50.3743,145.305,101.742,92.9887,0.00705795,0.477354,20.2152,483.79,0.825508,0.0,0.0
144,35.75,38.8871,51.1315,136.561,101.738,93.7346,0.00696108,0.486834,20.1991,483.7,0.751823,0.0,0.0
146,36.25,39.1232,52.0125,138.601,101.733,95.5449,0.00684863,0.494513,20.1787,483.59,0.575812,0.0,0.0
148,36.75,40.145,53.0289,138.988,101.734,95.1077,0.00675754,0.504604,20.1555,483.53,0.618037,0.0,0.0
150,37.25,40.6533,54.127,137.37,101.731,93.5348,0.00667119,0.512777,20.1329,483.45,0.770807,0.0,0.0
152,37.75,41.2619,55.0746,140.092,101.732,93.8238,0.00658992,0.518365,20.1114,483.39,0.74257,0.0,0.0
154,38.25,41.733,56.3605,138.147,101.73,94.8451,0.00655527,0.52792,20.1022,483.29,0.643043,0.0,0.0
156,38.75,42.5809,57.1985,133.109,101.748,94.9293,0.00649206,0.540108,20.0865,483.21,0.636501,0.0,0.0
158,39.25,43.2185,57.7668,144.607,101.729,95.771,0.00643728,0.54998,20.0676,483.15,0.553821,0.0,0.0
160,39.75,44.4689,59.5588,140.336,101.729,96.6432,0.00639291,0.561863,20.0523,483.11,0.470596,0.0,0.0
162,40.25,44.957,60.3174,143.54,101.729,97.4261,0.00634815,0.571488,20.0378,483.02,0.396558,0.0,0.0
164,40.75,45.7799,61.3299,132.614,101.733,94.4262,0.0063119,0.579284,20.0242,482.99,0.683879,0.0,0.0
166,41.25,46.2272,62.2891,133.133,101.732,96.6254,0.00626871,0.585282,20.0099,482.88,0.472579,0.0,0.0
168,41.75,46.9212,63.4633,127.984,101.719,97.6974,0.00623373,0.595538,19.9953,482.85,0.370149,0.0,0.0
170,42.25,47.1785,64.159,139.461,101.729,95.3851,0.00618153,0.603845,19.9832,482.789,0.590869,0.0,0.0
172,42.75,48.1021,65.9056,138.201,101.719,97.3835,0.00613925,0.614792,19.9733,482.689,0.39964,0.0,0.0
174,43.25,48.6326,66.2523,133.285,101.716,99.1324,0.00607864,0.623659,19.9649,482.589,0.236085,0.0,0.0
176,43.75,49.2407,67.3414,140.087,101.72,97.4723,0.00602955,0.633074,19.958,482.539,0.391395,0.0,0.0
178,44.25,49.9374,67.9811,140.897,101.711,98.315,0.00596846,0.640699,19.9524,482.489,0.311579,0.0,0.0
180,44.75,50.4691,68.8726,127.399,101.688,97.9246,0.00591898,0.648765,19.9478,482.409,0.346048,0.0,0.0
182,45.25,50.8333,69.2339,131.398,101.699,98.7927,0.0058789,0.655299,19.9441,482.309,0.266062,0.0,0.0
184,45.75,51.4827,70.5871,132.334,101.697,98.3414,0.00582763,0.662471,19.9412,482.259,0.307928,0.0,0.0
186,46.25,51.7573,71.002,133.147,101.69,98.0955,0.0057861,0.668281,19.9387,482.199,0.330272,0.0,0.0
188,46.75,53.1365,71.8148,139.333,101.683,96.6696,0.00574996,0.673675,19.9368,482.149,0.464002,0.0,0.0
190,47.25,52.4099,72.5682,132.504,101.69,98.099,0.00572068,0.678663,19.9352,482.059,0.32994,0.0,0.0
192,47.75,53.3006,73.0703,132.536,101.678,97.9317,0.00569433,0.682703,19.9339,482.019,0.344453,0.0,0.0
194,48.25,53.5173,72.8047,134.71,101.681,98.3804,0.00567061,0.686864,19.9342,481.929,0.302761,0.0,0.0
196,48.75,54.0704,73.6521,145.495,101.676,98.3231,0.0056448,0.690234,19.9344,481.859,0.30766,0.0,0.0
198,49.25,54.453,73.9674,137.862,101.666,99.8611,0.00561796,0.69351,19.9368,481.759,0.164346,0.0,0.0
200,49.75,54.7047,74.6752,139.986,101.66,99.1497,0.00559622,0.696164,19.9387,481.688,0.229431,0.0,0.0
202,50.25,55.0554,75.3734,136.151,101.661,98.3323,0.00555483,0.698435,19.941,481.638,0.305469,0.0,0.0
204,50.75,55.5912,76.1881,134.21,101.652,97.3744,0.00552131,0.700274,19.9434,481.598,0.394513,0.0,0.0
206,51.25,55.5901,76.2838,127.394,101.659,97.0007,0.00547788,0.701604,19.948,481.508,0.430392,0.0,0.0
208,51.75,55.7598,76.3148,141.021,101.655,98.6243,0.00544271,0.702538,19.9541,481.428,0.277695,0.0,0.0
210,52.25,56.5813,76.6558,141.943,101.651,98.1908,0.00541421,0.703294,19.9591,481.408,0.317825,0.0,0.0
212,52.75,56.4634,77.0283,133.677,101.637,99.0229,0.00537987,0.703017,19.9647,481.328,0.239125,0.0,0.0
214,53.25,56.247,77.047,138.55,101.641,98.2932,0.00535206,0.702793,19.9707,481.278,0.307365,0.0,0.0
216,53.75,56.5137,77.4239,135.966,101.627,98.7699,0.00533704,0.70201,19.9781,481.188,0.261709,0.0,0.0
218,54.25,57.1968,77.1264,141.212,101.621,98.8094,0.00532487,0.700833,19.9864,481.118,0.257477,0.0,0.0
220,54.75,56.6494,78.3059,135.585,101.613,98.669,0.00532377,0.69988,19.9931,481.088,0.269785,0.0,0.0
222,55.25,57.6581,78.3763,144.498,101.625,99.7927,0.00532288,0.697564,19.9986,481.048,0.166917,0.0,0.0
224,55.75,57.5124,78.5773,137.478,101.627,98.9783,0.00532216,0.695689,20.0043,481.008,0.24233,0.0,0.0
226,56.25,57.6713,77.8747,137,101.615,98.1477,0.00532949,0.69334,20.0089,480.908,0.318615,0.0,0.0
228,56.75,57.2971,78.2235,139.201,101.613,98.454,0.00534253,0.69069,20.0126,480.858,0.289839,0.0,0.0
230,57.25,57.4444,77.9195,136.346,101.612,98.0782,0.0053564,0.688262,20.0157,480.778,0.324815,0.0,0.0
232,57.75,57.128,77.6851,136.435,101.605,99.0559,0.00537059,0.68604,20.0181,480.678,0.23313,0.0,0.0
234,58.25,58.1487,78.5204,130.625,101.603,96.627,0.00538209,0.684241,20.0201,480.668,0.460752,0.0,0.0
236,58.75,58.2693,78.3032,134.186,101.594,97.6624,0.0053864,0.682554,20.0212,480.597,0.362162,0.0,0.0
238,59.25,58.5038,78.6865,138.81,101.596,98.1198,0.00538988,0.68098,20.0222,480.567,0.319474,0.0,0.0
240,59.75,58.2761,78.7822,148.645,101.594,97.0691,0.00539271,0.679726,20.0229,480.477,0.418039,0.0,0.0
242,60.25,58.1748,78.6296,146.112,101.582,97.1442,0.00537121,0.67873,20.0236,480.417,0.409904,0.0,0.0
244,60.75,58.0257,78.6731,146.597,101.584,98.8566,0.0053538,0.677975,20.0241,480.277,0.249748,0.0,0.0
246,61.25,58.6948,79.6291,139.454,101.583,97.3237,0.00533968,0.67741,20.0247,480.237,0.393038,0.0,0.0
248,61.75,58.2367,79.5144,139.337,101.573,98.5772,0.00532825,0.676953,20.0254,480.197,0.274752,0.0,0.0
250,62.25,58.7944,79.2018,135.806,101.571,97.5301,0.00532689,0.676311,20.026,480.127,0.372521,0.0,0.0
252,62.75,59.2731,79.3637,130.852,101.567,98.8196,0.0053329,0.675547,20.0272,480.127,0.251621,0.0,0.0
254,63.25,58.9396,79.5828,136.251,101.571,97.5909,0.00534107,0.674928,20.0282,479.997,0.36676,0.0,0.0
256,63.75,58.8945,79.2313,140.807,101.563,97.5417,0.00535065,0.673779,20.0342,480.007,0.37068,0.0,0.0
258,64.25,58.7481,79.4476,138.776,101.557,97.1802,0.00535445,0.672266,20.0391,479.967,0.40427,0.0,0.0
260,64.75,58.8322,78.8054,140.215,101.556,97.0047,0.00535398,0.670357,20.0488,479.887,0.42074,0.0,0.0
262,65.25,58.869,78.8408,145.95,101.557,96.6006,0.00533581,0.668195,20.0566,479.807,0.459087,0.0,0.0
264,65.75,58.5514,78.4274,139.343,101.555,95.987,0.00530509,0.665392,20.0713,479.777,0.517443,0.0,0.0
266,66.25,59.359,78.5415,140.198,101.557,96.9992,0.00528021,0.662176,20.0833,479.687,0.421342,0.0,0.0
268,66.75,58.5778,77.7688,148.374,101.557,97.2993,0.00521929,0.658189,20.0929,479.647,0.393026,0.0,0.0
270,67.25,58.3362,77.4269,138.554,101.543,97.2902,0.00513325,0.653717,20.1091,479.657,0.392546,0.0,0.0
272,67.75,58.2001,77.5773,141.932,101.54,96.4515,0.00503665,0.650095,20.1221,479.647,0.471806,0.0,0.0
274,68.25,58.2947,77.1011,146.183,101.541,96.8769,0.00493417,0.643717,20.1411,479.537,0.431495,0.0,0.0
276,68.75,57.8681,76.4752,144.226,101.533,98.1746,0.00485117,0.63855,20.1564,479.466,0.308656,0.0,0.0
278,69.25,57.5819,75.9555,144.772,101.539,98.0118,0.00473785,0.630356,20.1689,479.456,0.324441,0.0,0.0
280,69.75,57.5107,75.279,154.611,101.553,98.2714,0.00464605,0.623719,20.1877,479.426,0.301396,0.0,0.0
282,70.25,57.1094,74.8383,147.039,101.543,98.9676,0.00455206,0.615958,20.203,479.386,0.235685,0.0,0.0
284,70.75,56.8797,73.9322,142.445,101.535,97.9783,0.00445824,0.607524,20.2237,479.386,0.327203,0.0,0.0
286,71.25,56.6953,73.995,150.822,101.541,98.5173,0.00438225,0.600693,20.2405,479.356,0.277381,0.0,0.0
288,71.75,56.9321,73.0987,148.427,101.536,96.9484,0.00428714,0.591504,20.2562,479.216,0.424278,0.0,0.0
290,72.25,55.109,72.5865,145.227,101.539,97.4819,0.0042101,0.584061,20.2707,479.126,0.374186,0.0,0.0
292,72.75,55.7606,72.0367,142.551,101.54,98.7374,0.00414397,0.575494,20.2868,479.216,0.256868,0.0,0.0
294,73.25,54.9145,71.3313,141.646,101.53,96.9723,0.00409041,0.566271,20.3036,479.156,0.421463,0.0,0.0
296,73.75,55.4588,71.2377,147.804,101.533,96.8633,0.00404702,0.5588,20.3172,479.196,0.432084,0.0,0.0
298,74.25,55.461,70.1472,152.195,101.533,96.3607,0.00403301,0.5487,20.3347,479.196,0.479776,0.0,0.0
300,74.75,54.052,70.0231,154.62,101.526,97.2015,0.00402166,0.540519,20.3547,479.156,0.399466,0.0,0.0
302,75.25,54.0127,69.3152,161.904,101.515,98.0057,0.00402365,0.528034,20.3793,479.176,0.322813,0.0,0.0
304,75.75,53.2969,67.9079,152.468,101.54,98.9468,0.00402527,0.517921,20.4066,479.176,0.237351,0.0,0.0
306,76.25,52.6331,66.8693,156.928,101.525,98.7684,0.00402285,0.505867,20.4357,479.136,0.252616,0.0,0.0
308,76.75,53.0317,66.41,155.033,101.529,99.7714,0.00402088,0.492626,20.4655,479.136,0.160236,0.0,0.0
310,77.25,52.6222,65.1279,162.117,101.526,99.6015,0.0039845,0.481901,20.4971,479.156,0.175576,0.0,0.0
312,77.75,51.5602,64.602,158.035,101.529,100.46,0.00395502,0.466131,20.5293,479.156,0.0970751,0.0,0.0
314,78.25,51.0392,63.548,161.804,101.524,99.9605,0.00386165,0.453357,20.5554,479.146,0.142447,0.0,0.0
316,78.75,50.1913,63.0183,161.087,101.516,100.201,0.00378602,0.437543,20.5805,479.136,0.119665,0.0,0.0
318,79.25,49.8117,61.1141,165.825,101.516,100.198,0.00372476,0.424734,20.6043,479.116,0.11986,0.0,0.0
320,79.75,48.2031,60.573,166.553,101.516,100.454,0.00367513,0.40927,20.6236,479.116,0.096523,0.0,0.0
322,80.25,48.2158,59.1793,160.246,101.519,100.437,0.00349633,0.396744,20.6414,479.116,0.0983576,0.0,0.0
324,80.75,46.949,58.1474,164.605,101.517,100.858,0.0033515,0.381898,20.6577,479.116,0.0598365,0.0,0.0
326,81.25,46.8128,57.2113,162.368,101.52,100.415,0.00318289,0.369873,20.671,479.116,0.100462,0.0,0.0
328,81.75,46.5418,56.2982,160.833,101.515,99.8094,0.00300015,0.360133,20.6836,479.106,0.15551,0.0,0.0
330,82.25,46.0712,55.4842,162.193,101.51,100.743,0.00285214,0.34865,20.6954,479.096,0.0695992,0.0,0.0
332,82.75,44.6893,54.3912,159.805,101.513,100.7,0.00269467,0.336116,20.705,479.106,0.0737399,0.0,0.0
334,83.25,45.0797,53.844,162.232,101.507,100.591,0.00253331,0.325963,20.7163,479.096,0.0832038,0.0,0.0
336,83.75,44.651,53.5994,158.824,101.526,100.874,0.0023819,0.31512,20.7255,479.116,0.0591431,0.0,0.0
338,84.25,43.9789,52.7719,162.716,101.506,100.788,0.00224064,0.30398,20.7368,479.106,0.0651993,0.0,0.0
340,84.75,43.608,51.891,158.897,101.508,101.017,0.00211264,0.294957,20.746,479.086,0.0444959,0.0,0.0
342,85.25,42.9681,50.7465,159.572,101.51,101.001,0.00199675,0.283836,20.7566,479.096,0.0461657,0.0,0.0
344,85.75,42.5479,49.8984,164.135,101.525,100.985,0.00188803,0.274828,20.7651,479.096,0.0488895,0.0,0.0
346,86.25,41.963,49.8413,162.494,101.506,100.949,0.0017866,0.265951,20.7746,479.076,0.0504932,0.0,0.0
348,86.75,41.9369,49.3243,163.56,101.508,100.483,0.00169088,0.257339,20.7824,479.076,0.0930911,0.0,0.0
350,87.25,41.6244,48.055,160.672,101.518,100.906,0.00160116,0.249073,20.7904,479.086,0.0555297,0.0,0.0
352,87.75,40.3767,47.7973,164.731,101.511,100.839,0.00152848,0.241217,20.7969,479.066,0.0609482,0.0,0.0
354,88.25,40.707,47.3615,161.21,101.499,100.786,0.00144898,0.234854,20.8021,479.076,0.0646681,0.0,0.0
356,88.75,39.7616,46.4611,155.945,101.516,100.987,0.00136602,0.227398,20.8077,479.076,0.047932,0.0,0.0
358,89.25,39.8491,45.8211,164.957,101.506,100.891,0.00128723,0.22136,20.8122,479.076,0.0557494,0.0,0.0
360,89.75,39.6956,45.3672,161.747,101.516,100.979,0.00121297,0.214314,20.8176,479.076,0.0487056,0.0,0.0
362,90.25,38.8349,44.8153,161.97,101.502,100.921,0.00114252,0.208606,20.822,479.066,0.052648,0.0,0.0
364,90.75,37.9846,43.4687,169.558,101.523,100.749,0.00107618,0.201914,20.8273,479.066,0.0702364,0.0,0.0
366,91.25,38.281,43.841,162.574,101.503,101.142,0.00101215,0.196494,20.8316,479.066,0.0326052,0.0,0.0
368,91.75,37.8124,43.1412,165.81,101.504,101.065,0.000951025,0.190984,20.8364,479.056,0.0397114,0.0,0.0
370,92.25,37.1589,42.4966,165.619,101.507,101.02,0.000901511,0.185514,20.8403,479.066,0.0441541,0.0,0.0
372,92.75,37.7638,42.3036,160.891,101.507,101.222,0.000862627,0.180297,20.8442,479.066,0.0258404,0.0,0.0
374,93.25,37.0581,41.5836,160.112,101.505,101.099,0.000831131,0.175363,20.8479,479.036,0.0367027,0.0,0.0
376,93.75,35.8058,40.223,159.984,101.512,101.161,0.000822735,0.171367,20.8509,479.036,0.0318433,0.0,0.0
378,94.25,36.151,40.9189,157.214,101.498,100.981,0.000815934,0.1666,20.8547,479.036,0.0468448,0.0,0.0
380,94.75,36.4101,40.3592,164.636,101.507,100.946,0.000810425,0.162739,20.8578,479.036,0.0509196,0.0,0.0
382,95.25,35.3617,39.9734,161.291,101.5,101.106,0.000835325,0.158284,20.8605,479.036,0.0356109,0.0,0.0
384,95.75,35.5799,39.3113,163.312,101.509,100.898,0.000855493,0.154675,20.8629,479.046,0.0554482,0.0,0.0
386,96.25,35.0099,39.0489,163.73,101.508,100.975,0.00088407,0.151005,20.8648,479.026,0.0483661,0.0,0.0
388,96.75,35.3276,39.1223,168.088,101.511,100.99,0.000907217,0.14736,20.8681,479.036,0.0472453,0.0,0.0
390,97.25,34.5411,37.5156,162.565,101.504,100.981,0.000930286,0.144407,20.872,479.046,0.0474412,0.0,0.0
392,97.75,33.9884,37.3619,164.261,101.533,100.996,0.00094098,0.140712,20.874,479.046,0.0486207,0.0,0.0
394,98.25,34.0986,37.6348,166.492,101.514,101.055,0.000937165,0.137719,20.8748,479.036,0.0415639,0.0,0.0
396,98.75,33.3331,36.2289,167.787,101.51,100.947,0.000930641,0.13477,20.8767,479.046,0.0509675,0.0,0.0
398,99.25,33.392,36.1427,159.672,101.503,101.145,0.000900893,0.131911,20.8787,479.036,0.0324581,0.0,0.0
400,99.75,33.5074,36.3385,161.224,101.527,100.944,0.000876797,0.129087,20.8807,479.026,0.052846,0.0,0.0
402,100.25,33.3037,35.534,159.692,101.509,100.9,0.000843126,0.125173,20.8823,479.036,0.0552634,0.0,0.0
404,100.75,33.3607,35.4622,166.732,101.516,100.975,0.000803114,0.122443,20.8836,479.046,0.0489918,0.0,0.0
406,101.25,33.1394,35.0333,164.273,101.523,100.914,0.000770705,0.121279,20.8847,479.036,0.0551557,0.0,0.0
408,101.75,32.8939,35.125,164.775,101.511,100.887,0.000730953,0.118928,20.8856,479.036,0.0565202,0.0,0.0
410,102.25,32.54,34.2582,166.748,101.507,100.981,0.000686604,0.116698,20.8863,479.026,0.0477394,0.0,0.0
412,102.75,32.5106,34.6632,159.002,101.511,101.215,0.000635367,0.114553,20.8883,479.036,0.0268199,0.0,0.0
414,103.25,32.1848,34.0085,164.46,101.499,100.982,0.000621584,0.112511,20.8889,479.036,0.0468644,0.0,0.0
416,103.75,31.7745,33.6708,162.799,101.512,101.008,0.000593131,0.110856,20.8899,479.036,0.0456987,0.0,0.0
418,104.25,31.4726,33.3485,162.961,101.5,100.901,0.000570084,0.109142,20.8906,479.026,0.0542684,0.0,0.0
420,104.75,31.7436,33.3027,161.377,101.51,101.046,0.000569733,0.107416,20.8912,479.036,0.042104,0.0,0.0
422,105.25,31.2782,32.9925,164.067,101.496,100.89,0.000569449,0.106018,20.8918,479.026,0.054985,0.0,0.0
424,105.75,31.0397,32.8803,165.069,101.509,101.018,0.000596102,0.103886,20.8926,479.026,0.0444872,0.0,0.0
426,106.25,30.9983,32.3859,160.674,101.517,101.016,0.000617691,0.102986,20.8937,479.016,0.0453798,0.0,0.0
428,106.75,30.7751,32.0609,166.76,101.515,100.789,0.000660856,0.101447,20.8949,479.026,0.0658444,0.0,0.0
430,107.25,30.5764,32.002,165.203,101.505,100.88,0.00069582,0.099914,20.896,479.026,0.05668,0.0,0.0
432,107.75,30.5606,32.0163,163.329,101.499,100.927,0.000732705,0.0984138,20.8969,479.046,0.0518333,0.0,0.0
434,108.25,30.5331,31.5729,162.466,101.505,101.019,0.000762582,0.0967904,20.8977,479.036,0.0440137,0.0,0.0
436,108.75,30.3028,31.3699,167.993,101.501,101.01,0.000786782,0.0954754,20.8983,479.036,0.0444709,0.0,0.0
438,109.25,29.9966,31.4231,164.112,101.509,100.967,0.00080516,0.0940432,20.8996,479.036,0.0491408,0.0,0.0
440,109.75,30.3121,30.8939,165.469,101.505,100.934,0.000818115,0.0928831,20.9007,479.046,0.051718,0.0,0.0
442,110.25,29.905,30.965,163.606,101.498,100.92,0.00082687,0.0915902,20.9016,479.036,0.0524131,0.0,0.0
444,110.75,30.1173,30.5504,161.295,101.504,100.986,0.000833961,0.090543,20.9024,479.036,0.0469798,0.0,0.0
446,111.25,30.0187,30.5269,162.259,101.502,100.949,0.000827474,0.0894876,20.9032,479.026,0.0500743,0.0,0.0
448,111.75,29.8726,30.6259,161.334,101.513,101.011,0.000822219,0.0884463,20.9041,479.036,0.045505,0.0,0.0
450,112.25,29.4866,30.1846,169.353,101.497,100.791,0.00080445,0.0876029,20.9048,479.046,0.0640664,0.0,0.0
452,112.75,29.1779,30.2416,157.341,101.507,101.014,0.000777897,0.0864723,20.9053,479.046,0.0446614,0.0,0.0
454,113.25,29.265,30.0579,161.173,101.499,100.888,0.000727071,0.0855565,20.906,479.046,0.0553841,0.0,0.0
456,113.75,29.291,29.598,160.686,101.501,101.094,0.000685901,0.0844896,20.9068,479.036,0.0368727,0.0,0.0
458,114.25,28.0024,29.7694,165.89,101.502,100.964,0.00063842,0.0836254,20.9074,479.036,0.0487383,0.0,0.0
460,114.75,28.4203,28.8539,166.955,101.5,100.902,0.00058724,0.0826412,20.9079,479.056,0.0542227,0.0,0.0
462,115.25,28.0343,28.5764,159.881,101.501,100.905,0.000545785,0.0818439,20.9083,479.036,0.0540118,0.0,0.0
464,115.75,28.2505,28.3198,162.303,101.494,101.049,0.000512848,0.0810913,20.9087,479.046,0.040329,0.0,0.0
466,116.25,28.3398,28.6154,165.886,101.499,100.882,0.000486747,0.0803856,20.9089,479.036,0.0559375,0.0,0.0
468,116.75,28.4354,28.7531,164.612,101.497,100.929,0.000474598,0.0797357,20.9092,479.026,0.0515549,0.0,0.0
470,117.25,27.7217,28.4341,167.741,101.507,100.828,0.000472852,0.0791388,20.9093,479.016,0.0616187,0.0,0.0
472,117.75,28.1534,28.5721,164.006,101.502,100.904,0.000479792,0.0786553,20.9095,479.026,0.0542238,0.0,0.0
474,118.25,27.4153,27.6188,163.804,101.495,100.896,0.000492933,0.0780069,20.9096,479.036,0.0543195,0.0,0.0
476,118.75,27.5635,27.8091,172.618,101.504,100.908,0.000506791,0.0774817,20.9097,479.026,0.0540411,0.0,0.0
478,119.25,28.1575,27.6272,163.154,101.495,100.944,0.00052091,0.0769354,20.9098,479.016,0.0499394,0.0,0.0
480,119.75,27.688,28.0059,161.362,101.492,101.051,0.000532346,0.0763841,20.9098,479.026,0.0400033,0.0,0.0
482,120.25,27.3555,26.9107,164.051,101.489,100.94,0.000539165,0.0759375,20.9099,479.026,0.0497947,0.0,0.0
484,120.75,27.198,27.8068,164.098,101.492,100.744,0.000544689,0.0754003,20.9099,479.026,0.0678664,0.0,0.0
486,121.25,26.9409,27.1037,167.085,101.488,100.879,0.00053573,0.0749651,20.9099,479.036,0.0552079,0.0,0.0
488,121.75,27.1483,27.192,161.744,101.489,100.885,0.000528473,0.0744776,20.91,479.016,0.0547295,0.0,0.0
490,122.25,27.5205,27.0427,160.557,101.513,100.928,0.000522595,0.0740828,20.91,479.016,0.0530167,0.0,0.0
492,122.75,27.0754,27.0934,162.972,101.492,100.761,0.000494642,0.0736415,20.91,479.016,0.0662962,0.0,0.0
494,123.25,26.9227,27.0825,166.251,101.499,100.818,0.000472,0.0732841,20.91,479.036,0.0617599,0.0,0.0
496,123.75,27.1692,26.8239,160.698,101.486,100.936,0.000459762,0.0729377,20.91,479.026,0.0498937,0.0,0.0
498,124.25,26.6819,26.2068,168.003,101.491,101.049,0.000449849,0.0726061,20.91,479.036,0.0399924,0.0,0.0
500,124.75,26.1067,26.5894,164.417,101.479,100.954,0.000448887,0.0723374,20.9101,479.016,0.0475641,0.0,0.0
502,125.25,26.4864,26.4653,167.386,101.479,101.031,0.000454467,0.0719715,20.9101,479.016,0.040598,0.0,0.0
504,125.75,26.5543,25.99,164.168,101.484,100.975,0.000458987,0.0716751,20.9101,479.016,0.0462049,0.0,0.0
506,126.25,26.567,26.5218,164.904,101.491,100.835,0.000461363,0.0714137,20.9101,479.016,0.0594909,0.0,0.0
508,126.75,27.0527,26.9275,166.705,101.479,100.922,0.000462132,0.0711828,20.9099,479.016,0.0504769,0.0,0.0
510,127.25,26.2082,26.4421,170.342,101.503,100.775,0.000458257,0.0709603,20.9097,479.006,0.0660931,0.0,0.0
512,127.75,26.6797,26.7581,163.88,101.47,100.773,0.000451071,0.0707481,20.9096,479.006,0.0631756,0.0,0.0
514,128.25,26.2859,25.954,165.421,101.484,100.908,0.00044268,0.0705763,20.9095,479.016,0.0522445,0.0,0.0
516,128.75,26.2767,25.7124,165.631,101.487,100.87,0.000433572,0.0703803,20.9094,479.016,0.0559723,0.0,0.0
518,129.25,25.8595,26.5928,161.292,101.489,100.858,0.000426194,0.0701705,20.9094,479.016,0.0572203,0.0,0.0
520,129.75,26.2216,25.959,165.911,101.48,100.794,0.000422145,0.0700006,20.9093,479.016,0.0622152,0.0,0.0
522,130.25,26.0526,25.6904,162.79,101.486,100.831,0.0004206,0.0697686,20.9093,479.016,0.0594409,0.0,0.0
524,130.75,25.7933,25.8506,162.887,101.48,100.943,0.000418063,0.0695807,20.9092,479.026,0.0486904,0.0,0.0
526,131.25,25.927,25.9632,167.075,101.486,100.919,0.000414852,0.0693745,20.9092,479.016,0.0514613,0.0,0.0
528,131.75,26.1217,25.7655,165.298,101.501,100.816,0.000412251,0.0692076,20.9092,479.036,0.0621217,0.0,0.0
530,132.25,26.1141,25.4017,159.705,101.489,100.979,0.000399162,0.0690454,20.9092,479.036,0.0462462,0.0,0.0
532,132.75,25.8817,25.6961,161.646,101.476,100.903,0.000388561,0.0689141,20.9091,479.026,0.0519595,0.0,0.0
534,133.25,25.7525,25.3403,168.054,101.483,100.791,0.000372654,0.0687722,20.9091,479.006,0.0627997,0.0,0.0
536,133.75,25.3476,25.707,165.271,101.472,100.942,0.00035977,0.0686254,20.9091,479.016,0.0480821,0.0,0.0
538,134.25,25.4861,25.6341,161.296,101.494,100.808,0.000337138,0.0684569,20.9091,479.016,0.0621891,0.0,0.0
540,134.75,25.9299,25.477,165.093,101.477,100.844,0.000318806,0.0682757,20.9091,479.016,0.0573932,0.0,0.0
542,135.25,25.0884,25.7544,166.592,101.484,100.788,0.00029818,0.0681289,20.9091,479.026,0.0632244,0.0,0.0
544,135.75,25.4713,25.4683,171.973,101.488,100.861,0.000276275,0.0679158,20.9091,479.026,0.0568311,0.0,0.0
546,136.25,25.1503,25.1095,164.303,101.489,100.878,0.000258531,0.0677431,20.9091,479.036,0.0554112,0.0,0.0
548,136.75,24.7003,24.9359,166.39,101.486,100.787,0.000235627,0.0675898,20.9092,479.026,0.0633831,0.0,0.0
550,137.25,25.6167,25.1153,162.034,101.496,100.848,0.000217074,0.0674656,20.9093,479.016,0.0587769,0.0,0.0
552,137.75,25.4442,25.1105,168.57,101.48,100.873,0.000214236,0.067365,20.9094,479.016,0.0550622,0.0,0.0
554,138.25,25.221,25.2497,164.751,101.476,100.87,0.000211938,0.0672836,20.9095,479.016,0.0549654,0.0,0.0
556,138.75,24.798,24.8494,166.283,101.49,100.904,0.000217135,0.0672176,20.9096,479.016,0.0531342,0.0,0.0
558,139.25,25.0259,25.3385,166.225,101.484,100.793,0.000227699,0.0670975,20.9101,478.996,0.0626802,0.0,0.0
560,139.75,25.2788,24.463,165.988,101.491,100.895,0.000241391,0.0670002,20.9105,478.996,0.0540477,0.0,0.0
562,140.25,25.0135,24.6993,165.357,101.481,100.843,0.000257103,0.0668577,20.9108,479.006,0.0578595,0.0,0.0
564,140.75,25.4508,24.6397,164.041,101.481,100.858,0.000269831,0.0666848,20.9111,479.006,0.0564745,0.0,0.0
566,141.25,25.5622,25.1801,168.084,101.493,100.91,0.00028014,0.0665377,20.9113,479.006,0.0528884,0.0,0.0
568,141.75,24.8555,25.0504,163.385,101.492,100.84,0.00028849,0.0664122,20.9115,479.026,0.0591323,0.0,0.0
570,142.25,25.0653,24.7661,164.849,101.498,100.854,0.000291595,0.0663176,20.9116,479.016,0.0583725,0.0,0.0
572,142.75,24.9587,24.7185,162.365,101.492,100.828,0.000294109,0.0662473,20.9118,479.016,0.0602864,0.0,0.0
574,143.25,25.0105,24.6434,167.198,101.482,100.998,0.000296146,0.0661905,20.9119,479.016,0.0438994,0.0,0.0
576,143.75,24.5896,24.5836,166.316,101.467,100.819,0.000308776,0.066104,20.9119,479.036,0.0588356,0.0,0.0
578,144.25,24.5758,25.0563,166.668,101.491,100.8,0.000319005,0.0660339,20.912,479.026,0.0627041,0.0,0.0
580,144.75,24.9241,24.2139,162.324,101.484,100.918,0.00033243,0.0659638,20.912,479.036,0.0512927,0.0,0.0
582,145.25,25.0193,24.5645,166.887,101.481,100.882,0.000347929,0.0659069,20.9121,479.036,0.0543435,0.0,0.0
584,145.75,24.726,24.1683,165.079,101.482,100.752,0.000363696,0.0658609,20.9121,479.036,0.0662799,0.0,0.0
586,146.25,24.26,24.5986,166.415,101.486,100.675,0.000379359,0.0657832,20.9121,479.036,0.0735457,0.0,0.0
588,146.75,24.9179,24.0261,162.289,101.48,100.738,0.000392046,0.0657203,20.9122,479.026,0.0673778,0.0,0.0
590,147.25,24.4669,24.5077,167.766,101.491,100.718,0.000409647,0.065648,20.9121,479.026,0.0701485,0.0,0.0
592,147.75,24.7015,24.2662,161.43,101.479,100.893,0.000438337,0.0655704,20.9119,479.026,0.0532266,0.0,0.0
594,148.25,24.6504,23.8886,165.479,101.481,100.952,0.000451327,0.0654934,20.9118,479.026,0.0479352,0.0,0.0
596,148.75,24.1888,24.3414,164.709,101.481,100.8,0.00047354,0.0654183,20.9118,479.036,0.0617816,0.0,0.0
598,149.25,25.2603,23.9668,172.06,101.483,100.839,0.000491533,0.0653574,20.9117,479.026,0.0583682,0.0,0.0
600,149.75,24.246,24.3155,166.285,101.478,100.917,0.000517102,0.0653478,20.9117,479.016,0.0508174,0.0,0.0
602,150.25,24.5795,24.6037,166.672,101.47,100.803,0.000537813,0.06534,20.9117,479.016,0.0604516,0.0,0.0
604,150.75,24.2475,24.305,164.847,101.481,100.835,0.000554589,0.0652542,20.9117,479.016,0.0585888,0.0,0.0
606,151.25,24.3132,23.955,160.36,101.485,100.708,0.000555961,0.0652311,20.9117,479.006,0.0705046,0.0,0.0
608,151.75,24.4466,23.848,166.283,101.48,100.757,0.000557073,0.0651917,20.9117,479.006,0.0656315,0.0,0.0
610,152.25,24.3977,24.0666,168.313,101.486,100.908,0.000550645,0.0651526,20.9117,479.006,0.0524762,0.0,0.0
612,152.75,24.5343,23.3639,162.258,101.472,100.771,0.000545438,0.0651147,20.9117,479.026,0.0636677,0.0,0.0
614,153.25,24.1306,24.0973,164.976,101.472,101.066,0.00053865,0.0650414,20.9117,479.036,0.0367964,0.0,0.0
616,153.75,24.5406,23.4867,162.925,101.49,100.846,0.000530839,0.0649438,20.9122,479.036,0.0584019,0.0,0.0
618,154.25,24.3779,23.8609,165.65,101.51,100.915,0.000519371,0.0648648,20.9125,479.026,0.0539085,0.0,0.0
620,154.75,24.3049,24.2445,160.001,101.487,100.793,0.000505456,0.0647873,20.9128,479.026,0.0629865,0.0,0.0
622,155.25,24.1645,23.5566,170.456,101.479,101.052,0.000486477,0.0647246,20.9131,479.026,0.0386364,0.0,0.0
624,155.75,24.2939,23.8932,160.772,101.481,100.836,0.000464166,0.0646667,20.9132,479.036,0.0585052,0.0,0.0
626,156.25,24.3166,24.0581,159.725,101.484,100.852,0.000446094,0.0646134,20.9134,479.046,0.0572431,0.0,0.0
628,156.75,23.9891,24.0148,164.724,101.484,100.814,0.000423752,0.0645702,20.9135,479.036,0.0607874,0.0,0.0
630,157.25,23.9816,24.0798,164.583,101.48,100.843,0.000398719,0.0645353,20.9136,479.016,0.0577377,0.0,0.0
632,157.75,23.8658,24.0019,163.916,101.488,100.848,0.000378443,0.0645069,20.9137,479.036,0.0579845,0.0,0.0
634,158.25,24.3048,23.7831,163.786,101.486,100.714,0.000357141,0.0644706,20.9138,479.016,0.070154,0.0,0.0
636,158.75,24.4168,23.936,169.129,101.486,100.861,0.000339886,0.0644411,20.9138,479.016,0.0566452,0.0,0.0
638,159.25,23.9405,24.1673,161.561,101.49,100.797,0.000333227,0.0644307,20.9139,479.026,0.0628323,0.0,0.0
640,159.75,23.7973,23.7353,165.26,101.5,100.868,0.000327834,0.0644222,20.9139,479.026,0.0572671,0.0,0.0
642,160.25,23.5269,23.3046,167.728,101.483,100.881,0.000322181,0.0644154,20.9139,479.016,0.0545849,0.0,0.0
644,160.75,23.5947,23.5584,166.346,101.495,100.73,0.000316447,0.0644368,20.9135,479.016,0.0694581,0.0,0.0
646,161.25,23.9372,23.9629,167.284,101.49,100.828,0.000303266,0.0644541,20.9132,479.016,0.0601006,0.0,0.0
648,161.75,24.2288,23.636,163.93,101.505,100.939,0.000292589,0.0644752,20.9129,479.016,0.0512949,0.0,0.0
650,162.25,24.4358,23.958,168.457,101.482,100.773,0.000277524,0.0644986,20.9127,479.016,0.0643401,0.0,0.0
652,162.75,23.7107,23.6291,164.261,101.496,100.811,0.000259546,0.0645318,20.9125,479.016,0.0620989,0.0,0.0
654,163.25,23.8614,23.5286,162.139,101.484,100.779,0.000244983,0.0645714,20.9124,479.026,0.0639642,0.0,0.0
656,163.75,23.4337,23.4942,168.446,101.496,100.678,0.000216126,0.0645964,20.9122,479.036,0.0742922,0.0,0.0
658,164.25,23.7022,24.1936,164.161,101.485,100.899,0.000192752,0.0646103,20.9122,479.026,0.0531951,0.0,0.0
660,164.75,23.9595,23.1155,164.151,101.504,100.851,0.000173818,0.0646215,20.9121,479.026,0.0591616,0.0,0.0
662,165.25,24.3954,24.0295,166.053,101.498,100.798,0.000136558,0.0646306,20.912,479.026,0.0635688,0.0,0.0
664,165.75,23.5163,23.4316,164.635,101.507,100.811,0.000106377,0.064638,20.912,479.016,0.0631039,0.0,0.0
666,166.25,23.7185,23.9242,167.565,101.491,100.824,7.09692e-05,0.0646709,20.9119,479.006,0.0604973,0.0,0.0
668,166.75,22.9655,23.7658,166.879,101.504,100.882,4.22891e-05,0.0646975,20.9119,479.016,0.0564311,0.0,0.0
670,167.25,23.3192,23.773,163.136,101.496,100.867,1.90605e-05,0.0646908,20.9119,479.006,0.0569855,0.0,0.0
672,167.75,23.6311,23.9079,164.048,101.507,100.915,2.47177e-07,0.0646598,20.9118,479.016,0.0536562,0.0,0.0
674,168.25,23.717,23.6429,166.653,101.493,100.732,-1.2428e-05,0.0646348,20.9118,479.016,0.0690868,0.0,0.0
676,168.75,23.2412,23.214,165.83,101.498,100.755,-2.03876e-05,0.0645606,20.9116,479.006,0.067419,0.0,0.0
678,169.25,24.0311,23.653,167.259,101.5,100.905,-2.363e-05,0.0645006,20.9115,479.016,0.0538998,0.0,0.0
680,169.75,23.6148,23.2033,171.17,101.512,100.898,-2.3372e-05,0.0644923,20.9114,479.016,0.0557091,0.0,0.0
682,170.25,23.3256,23.4617,167.085,101.498,100.77,-2.57269e-05,0.0644856,20.9113,479.026,0.0659878,0.0,0.0
684,170.75,23.2013,23.0046,164.614,101.513,100.797,-2.9942e-05,0.0644802,20.9112,479.016,0.0649657,0.0,0.0
686,171.25,23.2166,23.4496,170.473,101.514,100.786,-3.33563e-05,0.0644886,20.9112,478.996,0.0660551,0.0,0.0
688,171.75,23.6134,22.8765,166.361,101.525,100.812,-4.25312e-05,0.0644953,20.9111,479.006,0.0646985,0.0,0.0
690,172.25,23.5827,22.4628,164.399,101.507,100.745,-5.57313e-05,0.0644874,20.9111,479.006,0.0691443,0.0,0.0
692,172.75,23.2261,23.2473,165.157,101.521,100.807,-6.64234e-05,0.0644739,20.911,478.996,0.0648245,0.0,0.0
694,173.25,23.4347,22.9762,165.482,101.516,100.825,-7.25201e-05,0.0644565,20.911,479.016,0.0626867,0.0,0.0
696,173.75,23.0032,23.2393,164.443,101.53,100.991,-7.51508e-05,0.0644425,20.9112,479.046,0.0488667,0.0,0.0
698,174.25,23.1343,23.2266,162.756,101.529,100.857,-7.72816e-05,0.064417,20.9115,479.036,0.0609721,0.0,0.0
700,174.75,23.3551,22.992,162.46,101.525,100.835,-6.07412e-05,0.0643835,20.9118,479.026,0.0625389,0.0,0.0
702,175.25,23.1361,23.0786,171.806,101.523,100.861,-4.73434e-05,0.0643565,20.9121,479.036,0.0600354,0.0,0.0
704,175.75,23.1357,23.3642,163.316,101.542,100.766,-2.30918e-05,0.0643345,20.9123,479.036,0.0703895,0.0,0.0
706,176.25,23.2064,23.2487,168.286,101.543,100.767,-3.44799e-06,0.0643571,20.9124,479.046,0.0703624,0.0,0.0
708,176.75,23.2426,23.1246,164.215,101.542,100.859,2.95235e-05,0.0643754,20.9128,479.026,0.0618968,0.0,0.0
710,177.25,23.0547,23.4057,163.965,101.553,100.811,5.62304e-05,0.0644037,20.9133,479.026,0.0672855,0.0,0.0
712,177.75,22.9469,23.3086,163.585,101.54,100.672,8.68465e-05,0.0644266,20.9137,479.016,0.078703,0.0,0.0
714,178.25,22.7686,23.6947,165.958,101.537,100.851,0.000119731,0.0643914,20.914,479.006,0.0621413,0.0,0.0
716,178.75,23.2012,23.233,167.49,101.546,100.866,0.000146367,0.0643628,20.9142,479.016,0.061623,0.0,0.0
718,179.25,23.0361,23.0966,163.375,101.547,100.942,0.000172434,0.0643666,20.9145,479.026,0.0548643,0.0,0.0
720,179.75,23.7395,23.0663,165.474,101.558,100.926,0.000197592,0.0643696,20.9148,479.026,0.0572997,0.0,0.0
722,180.25,23.3768,22.8245,166.537,101.564,100.75,0.000218119,0.0643452,20.9152,479.026,0.0738408,0.0,0.0
724,180.75,22.7888,23.1611,169.951,101.558,100.829,0.000222298,0.0643254,20.9153,479.046,0.0660714,0.0,0.0
726,181.25,22.5928,23.0681,164.762,101.546,101,0.000219689,0.0643094,20.9155,479.046,0.0494531,0.0,0.0
728,181.75,22.7265,23.1911,162.238,101.556,100.858,0.000217576,0.0642702,20.9156,479.066,0.0633016,0.0,0.0
730,182.25,23.0497,23.0512,163.347,101.572,100.915,0.000206113,0.0642384,20.9157,479.056,0.0594964,0.0,0.0
732,182.75,22.4081,22.885,163.521,101.558,100.822,0.000196827,0.0641915,20.9158,479.036,0.0667643,0.0,0.0
734,183.25,23.1957,22.7416,166.137,101.562,100.722,0.000187382,0.06411,20.9159,479.046,0.0761865,0.0,0.0
736,183.75,22.7704,23.0232,167.291,101.568,100.786,0.000177999,0.064081,20.916,479.046,0.0709724,0.0,0.0
738,184.25,22.5022,22.2781,167.398,101.565,100.866,0.000170398,0.0640314,20.916,479.026,0.0633831,0.0,0.0
740,184.75,23.0467,22.7122,166.146,101.568,100.833,0.000165461,0.0639841,20.916,479.036,0.0665959,0.0,0.0
742,185.25,23.2591,22.8051,166.298,101.576,100.715,0.000161461,0.0639395,20.9161,479.026,0.0781824,0.0,0.0
744,185.75,22.5481,22.7404,165.612,101.578,100.811,0.00016592,0.0639033,20.9161,479.036,0.0695482,0.0,0.0
746,186.25,22.7506,22.4434,162.719,101.571,100.798,0.000176462,0.063874,20.9161,479.046,0.0700877,0.0,0.0
748,186.75,22.4115,21.9027,164.494,101.573,100.961,0.000186925,0.0638503,20.9161,479.056,0.0554504,0.0,0.0
750,187.25,23.1169,23.3696,163.665,101.576,100.89,0.000197134,0.0638311,20.9162,479.046,0.0621282,0.0,0.0
752,187.75,22.5802,23.3642,167.507,101.581,100.995,0.000205403,0.0638155,20.9162,479.046,0.053033,0.0,0.0
754,188.25,22.4538,22.3251,164.31,101.572,100.874,0.000203566,0.0638171,20.9162,479.046,0.0632777,0.0,0.0
756,188.75,23.049,22.6675,163.087,101.572,100.89,0.000202079,0.0638311,20.9162,479.056,0.0618023,0.0,0.0
758,189.25,22.3125,22.9332,166.82,101.579,100.849,0.000197216,0.0638424,20.9162,479.056,0.0661713,0.0,0.0
760,189.75,22.713,22.613,164.294,101.572,100.776,0.000193277,0.0638651,20.9162,479.046,0.0721848,0.0,0.0
762,190.25,21.8778,22.5365,167.197,101.588,100.77,0.000188804,0.0638834,20.9162,479.056,0.0742282,0.0,0.0
764,190.75,22.0507,22.4307,165.794,101.58,100.845,0.000184026,0.063831,20.9162,479.066,0.0666144,0.0,0.0
766,191.25,22.3756,22.209,165.857,101.575,100.971,0.000188498,0.0637885,20.9162,479.066,0.054761,0.0,0.0
768,191.75,22.554,22.6767,163.479,101.577,100.841,0.000199627,0.0637683,20.9162,479.056,0.066761,0.0,0.0
770,192.25,22.6303,22.0761,167.634,101.595,101.005,0.000208641,0.0637647,20.9162,479.056,0.0534702,0.0,0.0
772,192.75,22.749,22.3235,168.224,101.582,101.012,0.000215943,0.0637618,20.9162,479.046,0.0516702,0.0,0.0
774,193.25,22.6716,22.5035,168.145,101.585,100.944,0.000267004,0.0637594,20.9162,479.036,0.0580225,0.0,0.0
776,193.75,22.7125,22.8881,159.698,101.574,100.933,0.00031929,0.0637574,20.9162,479.046,0.0581062,0.0,0.0
778,194.25,22.6207,22.2801,162.957,101.58,100.822,0.000371477,0.0637424,20.9162,479.046,0.0688121,0.0,0.0
780,194.75,22.6865,22.6623,161.282,101.57,100.887,0.000413748,0.0637302,20.9162,479.046,0.0618914,0.0,0.0
782,195.25,22.3669,22.1534,165.611,101.576,100.901,0.000444322,0.0637416,20.9162,479.046,0.0612058,0.0,0.0
784,195.75,22.0755,22.9083,168.831,101.584,100.934,0.000469088,0.06377,20.9162,479.036,0.0589073,0.0,0.0
786,196.25,22.4727,23.0085,166.694,101.578,100.946,0.000489148,0.0637929,20.9162,479.046,0.0572051,0.0,0.0
788,196.75,22.4254,22.7146,166.934,101.57,100.812,0.000488299,0.0638249,20.9161,479.046,0.0687122,0.0,0.0
790,197.25,22.5004,22.2732,165.16,101.585,100.711,0.000487612,0.0638509,20.916,479.046,0.0792875,0.0,0.0
792,197.75,22.1075,22.4043,166.948,101.574,100.934,0.000483393,0.063845,20.9161,479.046,0.0579769,0.0,0.0
794,198.25,22.4403,21.9194,162.03,101.576,100.893,0.000479976,0.0638402,20.9164,479.056,0.0618979,0.0,0.0
796,198.75,22.3783,22.3193,164.831,101.578,100.777,0.000475923,0.0638364,20.9166,479.066,0.0725679,0.0,0.0
798,199.25,22.8223,22.5271,169.471,101.585,100.822,0.000471483,0.0638198,20.9168,479.046,0.0691378,0.0,0.0
800,199.75,22.5014,22.5559,164.167,101.58,100.988,0.000467887,0.0638064,20.917,479.056,0.0536127,0.0,0.0
802,200.25,22.0449,22.3918,162.229,101.601,100.901,0.00046112,0.0637821,20.9171,479.056,0.0634396,0.0,0.0
804,200.75,21.7421,22.557,163.853,101.591,100.89,0.00045217,0.0637624,20.9172,479.056,0.0635145,0.0,0.0
806,201.25,21.9354,22.7395,168.097,101.599,100.774,0.000437855,0.0637733,20.9171,479.046,0.074864,0.0,0.0
808,201.75,22.672,22.7432,167.904,101.579,100.944,0.000419902,0.0637822,20.9168,479.046,0.0575388,0.0,0.0
810,202.25,22.5546,22.4093,169.877,101.592,100.87,0.000403434,0.0637894,20.9165,479.036,0.0654252,0.0,0.0
812,202.75,22.0574,22.4512,168.345,101.582,100.749,0.000388361,0.0637952,20.9163,479.036,0.0756007,0.0,0.0
814,203.25,22.374,22.8191,167.864,101.601,100.796,0.000381289,0.0637999,20.9161,479.036,0.0730269,0.0,0.0
816,203.75,22.187,22.4414,162.598,101.582,100.873,0.000380184,0.0638178,20.916,479.036,0.064301,0.0,0.0
818,204.25,22.158,22.3912,168.146,101.597,100.939,0.000386355,0.0638451,20.9158,479.036,0.0596007,0.0,0.0
820,204.75,22.3209,22.5238,164.167,101.581,100.863,0.000397713,0.0638814,20.9158,479.036,0.0651493,0.0,0.0
822,205.25,22.217,22.6879,163.355,101.589,100.994,0.000406913,0.0639235,20.9157,479.056,0.0539161,0.0,0.0
824,205.75,22.359,22.3711,164.184,101.576,100.95,0.000416806,0.0639647,20.9156,479.046,0.0566876,0.0,0.0
826,206.25,21.5696,22.4406,166.427,101.602,100.88,0.00042482,0.0640045,20.9156,479.046,0.0654425,0.0,0.0
828,206.75,22.7009,22.2724,169.407,101.586,100.865,0.00043131,0.0640225,20.9155,479.046,0.0653741,0.0,0.0
830,207.25,22.265,22.5649,162.182,101.589,100.828,0.000403622,0.0640244,20.9157,479.036,0.0689945,0.0,0.0
832,207.75,22.1135,22.5451,167.796,101.593,100.807,0.000381195,0.0640259,20.9161,479.046,0.071259,0.0,0.0
834,208.25,21.8047,22.6589,167.077,101.601,100.782,0.000334987,0.0640002,20.9164,479.046,0.0742358,0.0,0.0
836,208.75,22.2495,22.2223,163.142,101.589,100.94,0.000297559,0.0639794,20.9166,479.076,0.0587638,0.0,0.0
838,209.25,22.4209,22.6223,166.331,101.589,100.812,0.000251855,0.0639413,20.9168,479.066,0.0703884,0.0,0.0
840,209.75,22.4968,22.2076,165.659,101.589,100.874,0.000200985,0.0638914,20.917,479.066,0.0648419,0.0,0.0
842,210.25,22.3328,22.5706,166.156,101.606,100.764,0.00015978,0.0638509,20.9171,479.046,0.0763373,0.0,0.0
844,210.75,21.8343,23.1244,164.941,101.58,100.887,0.000105701,0.063845,20.917,479.036,0.0628605,0.0,0.0
846,211.25,21.5853,22.9286,165.633,101.605,100.869,6.18976e-05,0.0638402,20.9167,479.046,0.0667176,0.0,0.0
848,211.75,21.6662,22.1071,163.238,101.596,100.801,2.51987e-05,0.0638435,20.9164,479.026,0.0721099,0.0,0.0
850,212.25,22.3453,22.4604,170.413,101.605,100.951,-4.52733e-06,0.0638524,20.9162,479.036,0.0592855,0.0,0.0
852,212.75,21.5946,22.5277,163.451,101.606,100.897,-2.00808e-05,0.0638597,20.9161,479.026,0.0642836,0.0,0.0
854,213.25,22.0419,22.1858,164.008,101.613,100.808,-2.67114e-05,0.0638118,20.916,479.026,0.07299,0.0,0.0
856,213.75,22.3249,22.3052,165.137,101.618,100.945,-3.80499e-05,0.063773,20.9159,479.036,0.0609091,0.0,0.0
858,214.25,21.9871,22.8987,165.228,101.609,100.947,-3.74916e-05,0.063755,20.9158,479.046,0.0599887,0.0,0.0
860,214.75,21.7945,22.9484,167.798,101.599,100.816,-3.70394e-05,0.0637405,20.9157,479.046,0.0709485,0.0,0.0
862,215.25,22.3621,22.5816,167.436,101.61,100.849,-1.74088e-05,0.0637287,20.9156,479.046,0.0689543,0.0,0.0
864,215.75,22.1979,22.6007,165.726,101.606,100.881,-1.21282e-05,0.0637237,20.9156,479.036,0.065713,0.0,0.0
866,216.25,22.0897,22.3366,167.262,101.611,100.907,1.76142e-05,0.0637151,20.9155,479.026,0.0638165,0.0,0.0
868,216.75,21.5848,21.9606,168.9,101.611,100.837,4.17055e-05,0.0636812,20.9155,479.026,0.0700997,0.0,0.0
870,217.25,21.925,22.3945,165.895,101.622,100.867,7.08439e-05,0.0636538,20.9155,479.036,0.0684658,0.0,0.0
872,217.75,21.855,22.108,167.172,101.614,100.93,0.000103108,0.0636457,20.9155,479.036,0.0619935,0.0,0.0
874,218.25,21.8425,22.2212,162.319,101.624,100.926,0.000133735,0.0636519,20.9154,479.036,0.063256,0.0,0.0
876,218.75,21.9506,22.2702,165.355,101.61,100.859,0.000162586,0.0636704,20.9154,479.036,0.0680781,0.0,0.0
878,219.25,21.9804,21.7729,164.907,101.628,100.891,0.000185956,0.0636854,20.9154,479.036,0.0667729,0.0,0.0
880,219.75,21.5585,21.9782,164.726,101.652,100.936,0.000204885,0.0636763,20.9154,479.036,0.0649103,0.0,0.0
882,220.25,22.2691,22.2812,164.911,101.627,100.941,0.000211681,0.0636498,20.9153,479.036,0.0621337,0.0,0.0
884,220.75,22.2294,21.9098,162.19,101.626,100.866,0.000217186,0.0636425,20.9152,479.046,0.0688925,0.0,0.0
886,221.25,21.7757,22.1377,165.319,101.63,100.967,0.000212021,0.0636493,20.9151,479.046,0.060043,0.0,0.0
888,221.75,21.9891,22.3526,166.162,101.638,100.955,0.000199175,0.0636548,20.915,479.026,0.0618566,0.0,0.0
890,222.25,21.9706,22.2357,167.56,101.635,100.839,0.00018877,0.0636593,20.915,479.036,0.0721479,0.0,0.0
892,222.75,21.7703,22.6759,163.723,101.639,101.008,0.000169375,0.0636629,20.9149,479.046,0.0572138,0.0,0.0
894,223.25,21.6377,22.7812,169.947,101.638,100.956,,0.0636659,,479.036,0.0618012,0.0,0.0
896,223.75,21.7506,22.517,171.977,101.63,100.959,,0.0636541,,479.026,0.0607809,0.0,0.0
898,224.25,21.7515,22.4059,166.985,101.653,101.033,,0.0636318,,479.036,0.0561288,0.0,0.0
900,224.75,21.7348,22.3574,168.475,101.639,100.879,,0.0636138,,479.046,0.0688382,0.0,0.0
902,225.25,22.264,22.0701,171.61,101.656,100.96,,0.0635857,,479.036,0.0630333,0.0,0.0
904,225.75,21.7574,21.9665,165.325,101.646,100.899,,0.063563,,479.036,0.0677557,0.0,0.0
906,226.25,21.172,21.928,162.714,101.663,100.742,,,,479.056,0.0834954,0.0,0.0
908,226.75,20.8512,21.812,163.339,101.652,100.901,,,,479.036,0.0680923,0.0,0.0
910,227.25,22.0839,22.1884,166.34,101.654,101.044,,,,479.036,0.0552003,0.0,0.0
912,227.75,21.0222,21.8118,170.696,101.654,101.059,,,,479.026,0.0538639,0.0,0.0
914,228.25,21.6091,22.2605,162.892,101.67,100.796,,,,479.026,0.0792431,0.0,0.0
916,228.75,21.8872,22.5869,167.509,101.649,100.96,,,,479.026,0.0623912,0.0,0.0
918,229.25,22.0175,22.2326,165.873,101.652,100.961,,,,479.026,0.0625694,0.0,0.0
920,229.75,20.8389,22.4345,167.095,101.659,100.915,,,,479.016,0.0673496,0.0,0.0
922,230.25,21.4512,21.8572,166.841,101.653,100.966,,,,479.036,0.0622651,0.0,0.0
924,230.75,20.8774,22.2122,166.421,101.655,100.881,,,,479.026,0.0701138,0.0,0.0
926,231.25,21.5725,21.6619,163.166,101.653,100.937,,,,479.036,0.0648463,0.0,0.0
928,231.75,21.184,22.3159,163.148,101.658,100.853,,,,479.036,0.0729108,0.0,0.0
930,232.25,21.5842,22.1478,170.854,101.655,100.964,,,,479.046,0.0626356,0.0,0.0
932,232.75,21.5755,21.4224,167.111,101.679,100.975,,,,479.036,0.063734,0.0,0.0
934,233.25,22.0859,21.8374,163.362,101.659,100.955,,,,479.026,0.0637915,0.0,0.0
936,233.75,22,21.5743,163.236,101.66,100.996,,,,479.026,0.0600495,0.0,0.0
937,234,21.2441,21.4471,167.774,101.662,100.932,,,,479.016,0.0661355,0.0,0.0