File: 02_Data/Polyurethane_Foam/Cone/Polyurethane_Foam_Cone_HF25Scan_210324_R2.csv
Names,Time,Stack TC,Smoke TC,Exh Press,Smoke Comp,Smoke Meas,CO Meter,CO2 Meter,O2 Meter,Sample Mass,Ext Coeff,Start Test,Flame Verif
Chan Gain,,500,500,1,1,1,1,1,1,1,1,1.0,1.0
Offset,,0,0,0.194005,0,0,0,0,0,0,0,0.0,0.0
Gain,,1,1,25.011,13.5067,16.616,1,1,1,1.00091,1.04608,1.0,1.0
Units,sec,C,C,Pa,%,%,%,%,%,g,/m,,
Baseline,,18.65,19.4235,169.027,100.366,99.7423,0.000350679,0.0655348,20.9078,-1.19188,0.0572315,,
2,0.25,16.1045,16.4578,168.769,99.9663,99.3951,0.000626435,0.068768,20.9049,483.45,0.0525795,0.0,0.0
4,0.75,16.0314,16.5279,167.412,99.965,99.386,0.000621357,0.0688177,20.9046,483.5,0.0533082,0.0,0.0
6,1.25,16.1344,16.5151,165.376,99.9819,99.4169,0.000614929,0.0688644,20.9043,483.55,0.0520041,0.0,0.0
8,1.75,15.59,16.7794,172.96,99.9729,99.3484,0.000609723,0.0689021,20.9041,483.57,0.0574932,0.0,0.0
10,2.25,16.2965,16.6954,167.267,99.9902,99.4128,0.00060917,0.0688789,20.904,483.56,0.0531363,0.0,0.0
12,2.75,16.0147,16.3635,166.247,99.9852,99.3652,0.000608723,0.06886,20.9038,483.55,0.0570822,0.0,0.0
14,3.25,15.161,16.7452,169.571,99.9935,99.1847,0.000635249,0.0688802,20.9032,483.53,0.0745255,0.0,0.0
16,3.75,15.7238,17.4716,167.124,99.9857,98.8251,0.000656734,0.0689284,20.9024,483.51,0.107128,0.0,0.0
18,4.25,16.4117,17.1059,164.681,100.002,97.6609,0.000723075,0.0689675,20.8966,483.5,0.217386,0.0,0.0
20,4.75,16.3396,16.9288,170.561,99.9955,97.0534,0.000776811,0.0698896,20.8873,483.59,0.274037,0.0,0.0
22,5.25,16.098,16.9294,177.189,100.007,95.5362,0.000881603,0.0706365,20.8717,483.41,0.419637,0.0,1.0
24,5.75,16.5624,17.296,156.467,100.007,96.3896,0.000966484,0.0738421,20.8518,483.42,0.338031,0.0,1.0
26,6.25,16.5721,18.2945,159.067,100.011,94.949,0.00103524,0.0764387,20.8357,483.34,0.476625,0.0,1.0
28,6.75,17.8005,18.7934,156.197,100.015,95.2513,0.00123592,0.0805682,20.8226,483.3,0.447843,0.0,1.0
30,7.25,17.5981,19.7703,155.888,100.026,93.5693,0.00139848,0.0857367,20.8053,483.26,0.612271,0.0,1.0
32,7.75,18.1543,20.2966,161.68,100.024,92.5272,0.00153015,0.0921818,20.7853,483.27,0.714848,0.0,1.0
34,8.25,18.3818,21.1155,155.703,100.039,91.6434,0.00181947,0.0994351,20.7654,483.18,0.804357,0.0,1.0
36,8.75,19.2113,21.7323,162.027,100.037,91.3483,0.00205382,0.10531,20.7459,483.14,0.833728,0.0,1.0
38,9.25,19.1014,21.6353,156.542,100.048,89.7297,0.00231279,0.115624,20.7301,483.07,0.998836,0.0,1.0
40,9.75,19.4222,22.6448,152.987,100.048,89.1719,0.0025848,0.123978,20.7098,483.05,1.05602,0.0,0.0
42,10.25,20.0668,23.0574,157.511,100.056,89.1227,0.0029133,0.130745,20.6883,482.87,1.0618,0.0,0.0
44,10.75,20.4915,23.6354,164.842,100.052,91.7651,0.00317939,0.143518,20.6663,482.609,0.793352,0.0,0.0
46,11.25,20.4369,24.6048,161.359,100.06,90.395,0.00346058,0.153864,20.6485,482.86,0.932149,0.0,0.0
48,11.75,21.6773,24.9856,155.685,100.063,90.3747,0.00374742,0.164509,20.6279,482.82,0.934473,0.0,0.0
50,12.25,22.1514,25.5837,163.754,100.063,86.7379,0.0040298,0.17517,20.6113,482.809,1.31136,0.0,0.0
52,12.75,22.0312,26.4407,157.271,100.077,89.2956,0.00430356,0.185761,20.5947,482.769,1.04594,0.0,0.0
54,13.25,22.5964,26.4906,161.647,100.085,89.9797,0.00452531,0.196098,20.5813,482.769,0.97667,0.0,0.0
56,13.75,22.5951,27.1832,155.728,100.087,89.394,0.0047584,0.206143,20.5704,482.709,1.03674,0.0,0.0
58,14.25,23.32,27.5584,155.378,100.096,88.217,0.00499532,0.215784,20.5585,482.669,1.15923,0.0,0.0
60,14.75,23.3151,28.3522,155.351,100.103,88.1476,0.00522693,0.225548,20.5489,482.589,1.16706,0.0,0.0
62,15.25,23.8704,28.6504,154.955,100.116,87.4793,0.00545026,0.235215,20.5381,482.529,1.23814,0.0,0.0
64,15.75,24.53,29.6638,153.905,100.118,88.0163,0.00563115,0.243045,20.5293,482.489,1.18214,0.0,0.0
66,16.25,23.9678,30.3289,153.06,100.125,86.0883,0.00591762,0.252874,20.521,482.399,1.38597,0.0,0.0
68,16.75,24.7859,31.1346,151.716,100.122,86.3774,0.00614965,0.260835,20.5132,482.349,1.35495,0.0,0.0
70,17.25,24.9356,31.2188,156.016,100.134,87.6978,0.00648439,0.269051,20.5044,482.279,1.21691,0.0,0.0
72,17.75,24.7346,31.1677,155.906,100.135,84.0047,0.00675552,0.277296,20.495,482.229,1.61177,0.0,0.0
74,18.25,26.1639,32.1863,150.74,100.159,84.2213,0.00712248,0.283975,20.4843,482.229,1.59031,0.0,0.0
76,18.75,25.9726,32.5633,150.966,100.151,85.599,0.00741972,0.292533,20.473,482.139,1.44073,0.0,0.0
78,19.25,26.0644,32.374,157.183,100.157,84.7674,0.00779306,0.299465,20.4613,482.039,1.53081,0.0,0.0
80,19.75,26.5048,32.7337,152.332,100.153,84.2253,0.00809547,0.308534,20.4495,481.959,1.58934,0.0,0.0
82,20.25,27.5468,34.2252,153.844,100.173,85.4966,0.00834042,0.315881,20.44,481.889,1.45368,0.0,0.0
84,20.75,27,33.364,156.296,100.163,85.1142,0.00868595,0.323545,20.4299,481.869,1.49394,0.0,0.0
86,21.25,26.9076,34.1235,157.47,100.175,84.1766,0.00896583,0.331296,20.4197,481.829,1.59664,0.0,0.0
88,21.75,28.1514,35.2152,148.323,100.189,84.0894,0.00923844,0.338957,20.4115,481.749,1.60747,0.0,0.0
90,22.25,28.2988,35.6669,152.12,100.2,82.2386,0.00950057,0.346407,20.403,481.668,1.81272,0.0,0.0
92,22.75,28.7606,36.3393,148.159,100.202,83.9028,0.0097298,0.353924,20.3962,481.578,1.62907,0.0,0.0
94,23.25,28.7266,36.6,151.431,100.202,86.6218,0.0099307,0.361348,20.39,481.548,1.33642,0.0,0.0
96,23.75,29.6305,37.59,156.995,100.214,86.9808,0.0100955,0.367361,20.385,481.558,1.29953,0.0,0.0
98,24.25,29.5078,37.5503,149.517,100.219,87.3763,0.0102307,0.374645,20.3788,481.458,1.25835,0.0,0.0
100,24.75,29.9189,38.1688,149.816,100.226,83.9231,0.0103197,0.380546,20.3731,481.418,1.62904,0.0,0.0
102,25.25,29.8622,38.1806,149.001,100.232,84.4535,0.0103918,0.386377,20.3678,481.378,1.57176,0.0,0.0
104,25.75,30.4588,38.8071,156.506,100.233,86.3662,0.0104014,0.392047,20.3603,481.278,1.36637,0.0,0.0
106,26.25,30.615,38.8682,150.788,100.245,85.3353,0.0104092,0.397638,20.3513,481.268,1.47765,0.0,0.0
108,26.75,30.5909,39.3707,152.934,100.249,86.387,0.0104155,0.403065,20.344,481.238,1.36556,0.0,0.0
110,27.25,31.151,40.0201,147.321,100.266,87.4296,0.0102848,0.408636,20.3349,481.178,1.25706,0.0,0.0
112,27.75,31.9351,40.7831,150.331,100.263,84.4834,0.0101789,0.414206,20.3246,481.048,1.57137,0.0,0.0
114,28.25,31.7999,41.508,144.471,100.268,86.5168,0.00999607,0.419777,20.3162,480.948,1.35359,0.0,0.0
116,28.75,32.4449,42.2664,140.359,100.274,87.9402,0.00984797,0.425242,20.3095,480.938,1.20434,0.0,0.0
118,29.25,32.86,42.6497,150.175,100.282,89.1719,0.00968105,0.430616,20.304,480.878,1.07747,0.0,0.0
120,29.75,33.5168,43.311,155.655,100.286,91.5455,0.00950359,0.435824,20.2996,480.838,0.836743,0.0,0.0
122,30.25,33.7273,43.3177,151.962,100.286,92.3335,0.00935984,0.440042,20.2947,480.818,0.758133,0.0,0.0
124,30.75,33.8341,43.977,141.881,100.298,92.6023,0.00917385,0.444934,20.2907,480.748,0.732557,0.0,0.0
126,31.25,34.5695,44.911,144.543,100.306,90.7656,0.00896059,0.450225,20.2827,480.617,0.917061,0.0,0.0
128,31.75,34.9191,45.7424,146.343,100.31,91.9547,0.00878785,0.455945,20.2719,480.577,0.798005,0.0,0.0
130,32.25,35.0613,46.3816,157.494,100.326,92.3006,0.00858078,0.461871,20.2574,480.527,0.765067,0.0,0.0
132,32.75,35.9562,47.0724,143.29,100.319,91.8178,0.00841305,0.46667,20.2405,480.487,0.812544,0.0,0.0
134,33.25,36.201,47.8643,143.311,100.32,92.4182,0.00824554,0.473536,20.222,480.397,0.752775,0.0,0.0
136,33.75,37.0729,48.813,139.224,100.327,94.1438,0.00810986,0.481779,20.2027,480.307,0.583702,0.0,0.0
138,34.25,38.1838,50.3083,148.797,100.336,92.8913,0.00799996,0.488456,20.1871,480.157,0.707467,0.0,0.0
140,34.75,38.5844,51.0907,142.166,100.352,93.798,0.00787426,0.498107,20.1689,480.157,0.619733,0.0,0.0
142,35.25,39.1698,51.9703,138.163,100.345,94.8395,0.00777244,0.505924,20.1492,480.107,0.517799,0.0,0.0
144,35.75,39.7978,53.1164,142.113,100.374,93.834,0.00764827,0.514612,20.1277,480.017,0.618247,0.0,0.0
146,36.25,40.0654,53.7741,131.43,100.357,94.2072,0.00754769,0.52377,20.1053,479.887,0.58024,0.0,0.0
148,36.75,41.1023,55.2386,135.551,100.368,92.9004,0.00742457,0.533549,20.0871,479.827,0.709429,0.0,0.0
150,37.25,41.9252,56.4526,142.139,100.363,96.0093,0.00732484,0.543596,20.0724,479.787,0.406964,0.0,0.0
152,37.75,42.6696,57.5755,142.877,100.375,95.946,0.00721819,0.551734,20.0605,479.727,0.414117,0.0,0.0
154,38.25,42.9179,58.1629,142.824,100.372,96.8217,0.00710851,0.561856,20.0499,479.667,0.330443,0.0,0.0
156,38.75,43.7812,58.7662,131.027,100.376,95.8476,0.00700442,0.570055,20.0414,479.637,0.423606,0.0,0.0
158,39.25,44.3514,59.7286,138.627,100.39,96.9535,0.00690639,0.578868,20.0345,479.597,0.319615,0.0,0.0
160,39.75,45.1092,60.6867,135.564,100.404,95.7274,0.0068091,0.586008,20.0289,479.486,0.437681,0.0,0.0
162,40.25,45.4481,61.1037,143.802,100.403,94.0241,0.0067142,0.593632,20.0239,479.386,0.602308,0.0,0.0
164,40.75,45.8036,61.3504,133.287,100.408,95.0013,0.00663734,0.599808,20.0199,479.316,0.507928,0.0,0.0
166,41.25,46.0443,62.2056,135.09,100.414,96.023,0.00654994,0.605827,20.0166,479.276,0.41029,0.0,0.0
168,41.75,47.0304,63.2257,136.244,100.423,95.9779,0.00645652,0.611618,20.0122,479.196,0.415432,0.0,0.0
170,42.25,47.0751,63.7871,143.408,100.428,95.701,0.00638084,0.616307,20.0087,479.136,0.442355,0.0,0.0
172,42.75,47.8234,64.5906,139.032,100.437,98.1431,0.00626557,0.621738,20.0051,479.056,0.212041,0.0,0.0
174,43.25,48.1597,65.1678,136.781,100.442,97.7334,0.0061722,0.626137,20.0016,478.976,0.250805,0.0,0.0
176,43.75,48.7189,65.5595,143.159,100.452,95.8623,0.00605143,0.631615,19.9976,478.896,0.429166,0.0,0.0
178,44.25,48.8806,66.1784,139.837,100.446,97.2659,0.00595361,0.636052,19.9933,478.856,0.295259,0.0,0.0
180,44.75,49.1739,66.9489,142.218,100.455,98.529,0.00585684,0.639646,19.9896,478.806,0.177613,0.0,0.0
182,45.25,49.7053,67.6292,131.367,100.454,98.4332,0.00577846,0.644326,19.9864,478.716,0.186468,0.0,0.0
184,45.75,50.1437,68.2418,126.619,100.468,98.886,0.00571121,0.648117,19.9831,478.666,0.145595,0.0,0.0
186,46.25,50.9903,69.2229,141.113,100.465,98.9139,0.00565674,0.652433,19.9798,478.576,0.142819,0.0,0.0
188,46.75,51.204,69.4585,140.72,100.475,99.5031,0.00561011,0.655928,19.9771,478.516,0.0891845,0.0,0.0
190,47.25,51.2547,69.9797,142.226,100.483,98.6842,0.00557235,0.659731,19.975,478.506,0.165734,0.0,0.0
192,47.75,51.4671,70.305,148.125,100.492,97.5853,0.00554176,0.662811,19.9732,478.446,0.269311,0.0,0.0
194,48.25,51.9638,70.2027,153.914,100.484,98.1908,0.00550946,0.666281,19.9716,478.355,0.21184,0.0,0.0
196,48.75,52.3576,71.1088,137.013,100.486,97.3064,0.00548331,0.669091,19.97,478.255,0.295009,0.0,0.0
198,49.25,52.7627,71.6461,139.173,100.505,98.5082,0.00546278,0.671914,19.9688,478.205,0.184179,0.0,0.0
200,49.75,53.0825,72.0518,136.791,100.517,97.059,0.00544675,0.674692,19.9678,478.145,0.321234,0.0,0.0
202,50.25,53.4349,72.4154,139.654,100.519,97.4505,0.00543442,0.677374,19.9669,478.075,0.284525,0.0,0.0
204,50.75,53.6161,72.8357,145.77,100.534,98.4996,0.00542502,0.679935,19.9663,478.045,0.18758,0.0,0.0
206,51.25,54.0433,73.4396,132.884,100.526,97.8957,0.0054128,0.682009,19.9657,477.925,0.243338,0.0,0.0
208,51.75,54.473,73.773,139.303,100.54,99.564,0.00539875,0.683478,19.9745,477.825,0.0895593,0.0,0.0
210,52.25,54.7119,73.9799,141.785,100.543,99.283,0.00538342,0.684479,19.9816,477.795,0.115713,0.0,0.0
212,52.75,54.8887,74.1719,138.139,100.565,97.4814,0.00536744,0.684816,19.9874,477.775,0.285751,0.0,0.0
214,53.25,54.7919,74.1767,146.24,100.566,97.67,0.0053545,0.684663,19.9935,477.705,0.268086,0.0,0.0
216,53.75,54.5805,74.3565,131.826,100.577,99.565,0.00534402,0.684109,19.9996,477.625,0.092776,0.0,0.0
218,54.25,55.0394,74.3789,142.548,100.576,97.8855,0.00534679,0.683273,20.0047,477.585,0.248802,0.0,0.0
220,54.75,54.9841,74.7978,144.928,100.586,96.5798,0.00534904,0.682261,20.009,477.595,0.372969,0.0,0.0
222,55.25,55.3561,74.6985,133.313,100.597,97.0139,0.00535086,0.68114,20.0124,477.495,0.332761,0.0,0.0
224,55.75,55.5653,74.908,136.967,100.597,97.0052,0.00538114,0.680232,20.0152,477.385,0.333577,0.0,0.0
226,56.25,55.7091,74.9559,143.099,100.599,96.9211,0.00540567,0.679497,20.0175,477.385,0.341805,0.0,0.0
228,56.75,55.7158,75.0902,145.811,100.596,97.3921,0.00544683,0.677731,20.0209,477.294,0.297013,0.0,0.0
230,57.25,55.9012,75.0634,139.512,100.6,95.915,0.00548018,0.676301,20.0252,477.204,0.43759,0.0,0.0
232,57.75,55.5373,75.0283,137.103,100.614,95.4216,0.00552224,0.674717,20.0286,477.114,0.486191,0.0,0.0
234,58.25,55.7194,74.997,129.612,100.615,96.8303,0.0055563,0.673049,20.0314,477.084,0.351793,0.0,0.0
236,58.75,55.996,75.3295,140.068,100.625,97.2593,0.0055864,0.671699,20.0362,477.094,0.312208,0.0,0.0
238,59.25,56.1122,75.3425,138.298,100.635,97.5468,0.00561078,0.669462,20.0424,477.044,0.286024,0.0,0.0
240,59.75,56.1139,74.9263,141.964,100.637,96.4231,0.00562393,0.66765,20.0474,476.974,0.392492,0.0,0.0
242,60.25,55.9916,74.9098,147.643,100.634,96.2548,0.00562865,0.66526,20.0523,476.914,0.408302,0.0,0.0
244,60.75,55.9874,74.9732,145.263,100.651,95.3547,0.00562653,0.663324,20.0563,476.824,0.496051,0.0,0.0
246,61.25,55.6782,75.0233,139.085,100.648,96.667,0.00561946,0.660758,20.0595,476.804,0.370288,0.0,0.0
248,61.75,55.9985,74.5634,133.423,100.66,97.6259,0.00561374,0.658679,20.0622,476.694,0.280803,0.0,0.0
250,62.25,56.1164,75.0195,150.074,100.667,96.7436,0.0056041,0.656431,20.0648,476.634,0.364751,0.0,0.0
252,62.75,56.0439,74.6788,148.228,100.669,97.5367,0.00559629,0.654102,20.0673,476.634,0.290097,0.0,0.0
254,63.25,56.0406,74.6184,137.525,100.671,95.95,0.00558996,0.652113,20.0693,476.604,0.440708,0.0,0.0
256,63.75,56.1809,74.745,139.231,100.675,97.4966,0.00558483,0.65041,20.0723,476.494,0.294393,0.0,0.0
258,64.25,56.0804,75.0526,137.295,100.685,96.2669,0.00558265,0.64903,20.0735,476.344,0.411726,0.0,0.0
260,64.75,56.171,74.6104,140.875,100.686,97.1518,0.00555761,0.647446,20.0757,476.274,0.32788,0.0,0.0
262,65.25,56.1367,74.5631,138.079,100.694,96.1533,0.00553733,0.646162,20.0774,476.264,0.423424,0.0,0.0
264,65.75,56.3316,74.4609,138.54,100.691,97.2943,0.00548461,0.643921,20.0788,476.304,0.314882,0.0,0.0
266,66.25,56.2493,74.0503,141.832,100.7,96.6209,0.0054419,0.641024,20.0962,476.244,0.379441,0.0,0.0
268,66.75,55.8329,73.6579,143.673,100.704,97.2857,0.00535978,0.638677,20.1103,476.244,0.31686,0.0,0.0
270,67.25,55.2499,73.2018,148.939,100.706,97.887,0.00529327,0.63552,20.131,476.103,0.260498,0.0,0.0
272,67.75,55.4563,72.6946,148.661,100.69,98.1852,0.00520068,0.630122,20.156,476.123,0.2312,0.0,0.0
274,68.25,55.2509,72.2695,148.153,100.701,97.9986,0.00512568,0.621782,20.1763,476.053,0.249633,0.0,0.0
276,68.75,54.4678,71.4142,150.381,100.715,97.8338,0.00506493,0.613554,20.2002,476.053,0.266354,0.0,0.0
278,69.25,54.7671,70.5138,145.518,100.711,97.7699,0.00498952,0.605561,20.2196,475.963,0.271936,0.0,0.0
280,69.75,53.9512,70.251,145.225,100.721,97.3901,0.00492843,0.599088,20.2449,475.953,0.308589,0.0,0.0
282,70.25,53.9297,70.1152,149.867,100.719,98.3074,0.00486714,0.588943,20.2654,475.943,0.222377,0.0,0.0
284,70.75,53.7885,68.7366,150.157,100.719,99.5437,0.00480686,0.580726,20.29,475.883,0.107703,0.0,0.0
286,71.25,53.2653,68.3977,156.725,100.699,98.8946,0.00474097,0.571572,20.3098,475.853,0.165928,0.0,0.0
288,71.75,52.6899,67.8474,149.935,100.72,97.2633,0.00467226,0.561908,20.333,475.863,0.320466,0.0,0.0
290,72.25,52.6106,65.9584,148.035,100.721,98.2623,0.00459826,0.554081,20.3517,475.783,0.226741,0.0,0.0
292,72.75,52.1078,66.8044,155.216,100.723,97.7643,0.0045218,0.544227,20.3752,475.733,0.273586,0.0,0.0
294,73.25,51.7054,66.2431,147.148,100.697,98.3171,0.00445986,0.533083,20.3942,475.773,0.219488,0.0,0.0
296,73.75,51.256,65.061,152.807,100.721,98.7526,0.00438482,0.524056,20.4127,475.703,0.181064,0.0,0.0
298,74.25,51.2213,64.1455,151.307,100.728,99.1395,0.00432403,0.5126,20.4303,475.703,0.145861,0.0,0.0
300,74.75,50.4587,64.0677,155.676,100.725,97.4555,0.00425987,0.50332,20.4473,475.703,0.302766,0.0,0.0
302,75.25,49.8606,63.1025,151.557,100.737,98.4986,0.0042079,0.491787,20.4637,475.733,0.20624,0.0,0.0
304,75.75,49.1279,62.2586,159.677,100.733,97.7704,0.0041658,0.482446,20.4769,475.763,0.273878,0.0,0.0
306,76.25,49.2816,61.4157,154.201,100.745,97.5356,0.00407084,0.470635,20.4876,475.743,0.297066,0.0,0.0
308,76.75,49.2782,60.9669,157.083,100.734,98.2116,0.00399392,0.461069,20.5013,475.733,0.232718,0.0,0.0
310,77.25,47.6816,59.7983,162.939,100.753,97.885,0.00393161,0.450548,20.517,475.743,0.265005,0.0,0.0
312,77.75,47.9596,59.3655,155.573,100.741,98.6213,0.0037696,0.43953,20.5352,475.743,0.195154,0.0,0.0
314,78.25,47.8786,57.1582,163.258,100.749,99.4534,0.00363838,0.430606,20.555,475.733,0.118806,0.0,0.0
316,78.75,46.8492,57.6207,160.657,100.749,99.9438,0.00346903,0.417339,20.5758,475.733,0.0735999,0.0,0.0
318,79.25,45.8978,56.3207,157.307,100.754,100.304,0.00333185,0.406592,20.597,475.733,0.0410466,0.0,0.0
320,79.75,45.62,55.971,160.366,100.752,100.56,0.00318123,0.397887,20.6202,475.743,0.0174712,0.0,0.0
322,80.25,45.7419,54.888,160.011,100.768,100.53,0.00305923,0.382574,20.6444,475.743,0.021618,0.0,0.0
324,80.75,44.0749,53.7078,161.664,100.756,100.481,0.00294093,0.370171,20.6674,475.733,0.0251422,0.0,0.0
326,81.25,44.3606,53.0651,161.401,100.768,100.683,0.00282758,0.357823,20.6892,475.743,0.00777309,0.0,0.0
328,81.75,42.9184,52.0557,161.452,100.778,100.617,0.00272215,0.345752,20.7087,475.743,0.0146834,0.0,0.0
330,82.25,42.6688,51.6054,161.01,100.779,100.637,0.00262449,0.333621,20.7262,475.743,0.0129096,0.0,0.0
332,82.75,42.2623,50.371,165.384,100.778,100.572,0.00254539,0.321678,20.7404,475.743,0.0187627,0.0,0.0
334,83.25,41.9076,49.6309,161.839,100.777,100.568,0.00244191,0.309782,20.7534,475.743,0.0190956,0.0,0.0
336,83.75,41.0359,48.9509,166.727,100.77,100.535,0.00235809,0.298146,20.7655,475.743,0.0214652,0.0,0.0
338,84.25,40.7014,48.1136,167.149,100.788,100.738,0.00226561,0.287036,20.7752,475.743,0.00453847,0.0,0.0
340,84.75,39.7727,47.5444,166.811,100.783,100.436,0.00221453,0.276518,20.7803,475.733,0.0316209,0.0,0.0
342,85.25,39.8026,46.7074,168.201,100.793,100.494,0.00212718,0.266109,20.789,475.733,0.027279,0.0,0.0
344,85.75,39.0365,45.6667,166.628,100.783,100.345,0.00200239,0.255977,20.797,475.733,0.0399173,0.0,0.0
346,86.25,38.9873,45.4116,163.042,100.8,100.628,0.00190131,0.247769,20.8043,475.743,0.015663,0.0,0.0
348,86.75,38.7063,44.3425,171.202,100.797,100.456,0.00177283,0.237947,20.8111,475.713,0.0310802,0.0,0.0
350,87.25,38.1868,43.5877,163.578,100.801,100.376,0.00166876,0.22999,20.8174,475.603,0.0388237,0.0,0.0
352,87.75,36.3223,44.2426,168.573,100.805,100.563,0.00155017,0.226599,20.8235,475.803,0.0219879,0.0,0.0
354,88.25,37.2885,43.0682,160.564,100.81,100.54,0.0014541,0.217914,20.8293,475.743,0.0246044,0.0,0.0
356,88.75,36.8571,42.5824,167.727,100.808,100.517,0.00136282,0.210879,20.8344,475.723,0.0265461,0.0,0.0
358,89.25,37.0634,41.7108,159.369,100.817,100.368,0.00128889,0.203187,20.839,475.723,0.0409824,0.0,0.0
360,89.75,36.7253,41.2863,169.71,100.808,100.404,0.001229,0.196956,20.8427,475.723,0.0367909,0.0,0.0
362,90.25,36.3668,40.7461,165.956,100.822,100.431,0.00119395,0.190182,20.8459,475.733,0.0357319,0.0,0.0
364,90.75,35.734,40.3334,164.372,100.805,100.511,0.00116557,0.184695,20.8487,475.743,0.0267926,0.0,0.0
366,91.25,35.6555,39.8125,161.105,100.815,100.54,0.00115547,0.17939,20.851,475.733,0.0251008,0.0,0.0
368,91.75,33.8562,39.7324,163.126,100.809,100.419,0.0011589,0.174319,20.8533,475.713,0.0355979,0.0,0.0
370,92.25,34.8038,38.5584,164.191,100.821,100.407,0.00116941,0.169407,20.8551,475.713,0.0377605,0.0,0.0
372,92.75,34.8333,38.5729,160.703,100.813,100.442,0.0011849,0.164705,20.8566,475.703,0.0338129,0.0,0.0
374,93.25,34.3739,37.6552,163.17,100.823,100.614,0.0011955,0.160896,20.8578,475.703,0.0190138,0.0,0.0
376,93.75,34.0352,37.7596,157.392,100.819,100.836,0.00120235,0.156988,20.8597,475.713,-0.00155727,0.0,0.0
378,94.25,33.5996,37.2418,163.827,100.824,100.359,0.00119952,0.153082,20.8612,475.713,0.0424633,0.0,0.0
380,94.75,33.5294,36.9074,163.482,100.821,100.536,0.00118967,0.149428,20.8624,475.713,0.0259505,0.0,0.0
382,95.25,33.1672,36.3579,165.21,100.832,100.449,0.0011817,0.146027,20.8634,475.703,0.0348819,0.0,0.0
384,95.75,32.902,36.0981,165.223,100.826,100.469,0.00116799,0.142833,20.8641,475.703,0.0325126,0.0,0.0
386,96.25,32.9239,35.7131,167.93,100.835,100.503,0.00114454,0.139853,20.8652,475.723,0.0303192,0.0,0.0
388,96.75,32.3933,35.5819,166.264,100.845,100.451,0.00112554,0.137052,20.8661,475.703,0.0359335,0.0,0.0
390,97.25,32.3245,34.9715,162.79,100.827,100.492,0.00108934,0.134436,20.8668,475.703,0.0305787,0.0,0.0
392,97.75,32.1468,34.637,172.089,100.829,100.458,0.00106003,0.132317,20.8674,475.693,0.0338684,0.0,0.0
394,98.25,31.7983,33.9132,161.259,100.841,100.462,0.00102159,0.129924,20.8681,475.693,0.0345103,0.0,0.0
396,98.75,31.8729,34.1001,162.703,100.831,100.61,0.000990464,0.128904,20.8689,475.683,0.0201424,0.0,0.0
398,99.25,30.9918,33.831,161.468,100.853,100.665,0.000949349,0.127159,20.8696,475.693,0.0171196,0.0,0.0
400,99.75,31.5064,33.5276,162.052,100.848,100.472,0.000916046,0.125084,20.8701,475.703,0.0342978,0.0,0.0
402,100.25,31.354,33.3319,161.497,100.853,100.467,0.000889071,0.123403,20.8705,475.703,0.0351729,0.0,0.0
404,100.75,31.367,33.2234,165.102,100.862,100.647,0.000851138,0.121381,20.8708,475.693,0.0196087,0.0,0.0
406,101.25,30.9537,32.3351,160.812,100.884,100.556,0.000805939,0.119743,20.8716,475.703,0.0298373,0.0,0.0
408,101.75,30.5467,32.5454,169.536,100.881,100.737,0.000753901,0.117962,20.8722,475.693,0.0131172,0.0,0.0
410,102.25,30.5886,32.4599,161.504,100.874,100.549,0.000697866,0.11652,20.8736,475.703,0.0296312,0.0,0.0
412,102.75,30.2776,32.199,165.092,100.859,100.509,0.000644127,0.115352,20.8747,475.713,0.0319,0.0,0.0
414,103.25,30.5106,31.8807,166.173,100.876,100.471,0.000593083,0.114037,20.8765,475.713,0.0369478,0.0,0.0
416,103.75,30.1716,31.6819,159.913,100.869,100.675,0.000551737,0.112641,20.878,475.703,0.0176655,0.0,0.0
418,104.25,29.9223,32.4492,167.928,100.884,100.601,0.000517605,0.11151,20.8791,475.703,0.0257575,0.0,0.0
420,104.75,29.8519,31.2965,169.255,100.885,100.755,0.00048938,0.110073,20.8801,475.713,0.0118369,0.0,0.0
422,105.25,29.8326,31.079,163.191,100.884,100.621,0.000468444,0.108708,20.8808,475.713,0.024,0.0,0.0
424,105.75,29.6308,30.0669,166.827,100.883,100.492,0.00045322,0.10742,20.8819,475.713,0.0356785,0.0,0.0
426,106.25,28.5645,30.2808,165.609,100.878,100.505,0.000437036,0.106377,20.8828,475.703,0.033996,0.0,0.0
428,106.75,28.7897,30.5582,164.386,100.9,100.644,0.000420458,0.105081,20.8839,475.693,0.0233443,0.0,0.0
430,107.25,29.0366,29.9136,162.906,100.884,100.622,0.000396759,0.104031,20.8848,475.693,0.0239073,0.0,0.0
432,107.75,28.8771,29.8219,169.167,100.896,100.609,0.000368318,0.102901,20.886,475.693,0.0261971,0.0,0.0
434,108.25,28.6478,29.0978,162.658,100.906,100.407,0.000345282,0.101733,20.887,475.723,0.0455224,0.0,0.0
436,108.75,28.5442,28.9551,160.298,100.9,100.54,0.000315649,0.100786,20.888,475.693,0.0327807,0.0,0.0
438,109.25,28.5645,28.9047,161.821,100.903,100.489,0.000291647,0.0995428,20.889,475.693,0.0377562,0.0,0.0
440,109.75,28.3254,28.8523,166.988,100.915,100.52,0.0002783,0.0985354,20.8901,475.683,0.0359346,0.0,0.0
442,110.25,27.9542,28.3532,161.802,100.913,100.446,0.000267489,0.0973108,20.8911,475.693,0.0425548,0.0,0.0
444,110.75,27.5619,28.0514,168.029,100.921,100.719,0.000258732,0.0963188,20.892,475.703,0.0184155,0.0,0.0
446,111.25,27.6818,29.0626,163.79,100.912,100.493,0.000273592,0.0951342,20.8931,475.703,0.0381636,0.0,0.0
448,111.75,27.8537,28.0179,164.964,100.918,100.498,0.000285629,0.0941747,20.8941,475.693,0.0382344,0.0,0.0
450,112.25,27.6823,28.6251,165.165,100.908,100.489,0.000310022,0.0929761,20.895,475.703,0.0381211,0.0,0.0
452,112.75,27.5636,27.657,165.276,100.924,100.64,0.00032978,0.0920051,20.896,475.703,0.0258327,0.0,0.0
454,113.25,27.6327,27.9883,165.7,100.892,100.47,0.000349445,0.0910114,20.8971,475.693,0.0384654,0.0,0.0
456,113.75,27.0064,27.5264,165.506,100.927,100.423,0.000365374,0.0900198,20.8981,475.693,0.0459143,0.0,0.0
458,114.25,27.144,27.6307,163.309,100.927,100.58,0.000375707,0.0892167,20.899,475.693,0.0316449,0.0,0.0
460,114.75,26.8366,27.4048,164.334,100.93,100.601,0.000381765,0.0883305,20.8997,475.693,0.0299191,0.0,0.0
462,115.25,27.1633,27.2885,165.095,100.932,100.606,0.000382818,0.0874005,20.9002,475.713,0.029689,0.0,0.0
464,115.75,26.6126,27.3483,163.843,100.945,100.574,0.000380202,0.0864689,20.9011,475.673,0.0338118,0.0,0.0
466,116.25,26.4328,26.9832,164.736,100.936,100.65,0.000378084,0.0855538,20.9018,475.683,0.026004,0.0,0.0
468,116.75,26.7183,27.1344,163.167,100.947,100.675,0.000376368,0.0846913,20.9024,475.693,0.0247877,0.0,0.0
470,117.25,26.0476,27.1169,163.548,100.929,100.561,0.000374978,0.0838836,20.9029,475.723,0.0334608,0.0,0.0
472,117.75,26.2758,26.4931,164.173,100.954,100.788,0.000379633,0.0831082,20.9033,475.713,0.0151705,0.0,0.0
474,118.25,26.7482,26.9413,157.728,100.95,100.64,0.000388606,0.0823711,20.904,475.713,0.028194,0.0,0.0
476,118.75,25.983,26.0464,166.881,100.967,100.782,0.000403584,0.081774,20.9046,475.723,0.0167932,0.0,0.0
478,119.25,26.268,26.7929,168.389,100.953,100.499,0.000422656,0.0810062,20.9051,475.713,0.0414474,0.0,0.0
480,119.75,26.0828,26.7255,163.945,100.964,100.546,0.000438104,0.0803843,20.9055,475.713,0.038071,0.0,0.0
482,120.25,26.6491,25.8313,167.245,100.947,100.582,0.00045306,0.0797169,20.9059,475.713,0.0332494,0.0,0.0
484,120.75,26.0419,26.5171,172.22,100.969,100.634,0.000465173,0.0790289,20.9061,475.703,0.0305176,0.0,0.0
486,121.25,26.0839,26.1231,163.807,100.958,100.5,0.000467659,0.0784717,20.9063,475.713,0.0417305,0.0,0.0
488,121.75,25.8995,25.9735,164.658,100.982,100.722,0.000469673,0.0777906,20.9065,475.703,0.0236465,0.0,0.0
490,122.25,25.7532,25.8649,164.611,100.975,100.553,0.000470019,0.0772389,20.9066,475.703,0.0383978,0.0,0.0
492,122.75,25.8697,25.8803,167.466,100.985,100.603,0.000469142,0.0766164,20.9067,475.703,0.0347544,0.0,0.0
494,123.25,25.2654,25.7667,167.886,100.98,100.591,0.000468433,0.0761122,20.9068,475.703,0.0354224,0.0,0.0
496,123.75,25.4138,25.4682,167.995,100.996,100.562,0.000477498,0.0756327,20.9069,475.703,0.0394827,0.0,0.0
498,124.25,25.4177,25.8087,169.546,100.993,100.633,0.000493517,0.0751804,20.9067,475.703,0.032699,0.0,0.0
500,124.75,25.3222,24.7784,163.509,101.003,100.627,0.000512025,0.0747643,20.9065,475.713,0.0342739,0.0,0.0
502,125.25,25.5664,24.9593,167.166,100.994,100.617,0.000523433,0.0743824,20.9064,475.703,0.0342913,0.0,0.0
504,125.75,25.1317,25.2646,166.637,101.013,100.577,0.000542941,0.0740732,20.9063,475.703,0.0396679,0.0,0.0
506,126.25,25.1879,25.1758,167.992,101.001,100.68,0.000558743,0.073709,20.9063,475.693,0.029279,0.0,0.0
508,126.75,25.4058,25.5175,162.033,101.024,100.564,0.000577652,0.0733117,20.9062,475.693,0.041798,0.0,0.0
510,127.25,25.7547,24.9408,168.874,101.017,100.563,0.000592968,0.07299,20.9062,475.683,0.0412917,0.0,0.0
512,127.75,25.3854,24.6483,164.805,101.032,100.558,0.000594377,0.0724258,20.9061,475.683,0.0431395,0.0,0.0
514,128.25,25.0604,25.1465,163.571,101.023,100.696,0.000595519,0.0722741,20.9061,475.673,0.029701,0.0,0.0
516,128.75,24.7768,24.9687,166.256,101.046,100.573,0.000576902,0.0719578,20.906,475.673,0.0430328,0.0,0.0
518,129.25,25.1497,24.8189,165.953,101.037,100.836,0.000561823,0.0716505,20.906,475.673,0.0183129,0.0,0.0
520,129.75,24.5432,24.8967,163.048,101.056,100.714,0.000531297,0.0714016,20.9062,475.673,0.0311619,0.0,0.0
522,130.25,24.8332,24.5551,169.481,101.047,100.687,0.000506572,0.0711325,20.9066,475.693,0.0327033,0.0,0.0
524,130.75,24.725,24.4757,167.419,101.068,100.492,0.000481663,0.0709146,20.9069,475.703,0.0524968,0.0,0.0
526,131.25,24.645,24.3141,164.665,101.058,100.585,0.000461487,0.0706572,20.9072,475.693,0.0430916,0.0,0.0
528,131.75,24.8078,24.773,163.184,101.067,100.563,0.000445145,0.0704487,20.9074,475.683,0.0459045,0.0,0.0
530,132.25,24.8227,24.2711,166.079,101.07,100.476,0.000450215,0.0701989,20.9075,475.693,0.0540825,0.0,0.0
532,132.75,24.9287,24.5147,165.147,101.077,100.592,0.000454322,0.0699966,20.9077,475.693,0.044165,0.0,0.0
534,133.25,24.7145,23.962,166.155,101.079,100.651,0.000463433,0.0697654,20.9078,475.693,0.0389893,0.0,0.0
536,133.75,24.4374,23.8192,162.112,101.078,100.869,0.000476018,0.0695781,20.9079,475.703,0.0190192,0.0,0.0
538,134.25,24.818,23.7463,167.936,101.088,100.707,0.000482998,0.069398,20.9079,475.703,0.0345986,0.0,0.0
540,134.75,23.9455,24.1677,164.07,101.099,100.572,0.000485761,0.0692266,20.908,475.713,0.0479994,0.0,0.0
542,135.25,24.0826,24.3652,168.874,101.106,100.554,0.000481573,0.0690877,20.908,475.713,0.0502462,0.0,0.0
544,135.75,24.3601,24.2997,162.736,101.118,100.716,0.000472397,0.0689398,20.9081,475.713,0.0366275,0.0,0.0
546,136.25,24.1311,23.7894,164.52,101.11,100.667,0.000458543,0.0687881,20.9081,475.733,0.0403159,0.0,0.0
548,136.75,24.4649,24.2865,164.333,101.11,100.548,0.000441539,0.0686652,20.9081,475.723,0.0511002,0.0,0.0
550,137.25,23.7403,23.9156,167.224,101.127,100.866,0.000427767,0.0685253,20.9081,475.713,0.0237022,0.0,0.0
552,137.75,23.7123,24.0781,168.968,101.125,100.708,0.000409291,0.0683906,20.9082,475.713,0.0379109,0.0,0.0
554,138.25,24.3008,23.8367,163.551,101.13,100.745,0.000394325,0.0682624,20.9082,475.723,0.0349495,0.0,0.0
556,138.75,24.6663,24.2567,166.614,101.144,100.642,0.000382203,0.0681586,20.9082,475.713,0.0456563,0.0,0.0
558,139.25,23.9785,23.9619,168.853,101.145,100.79,0.000369944,0.0680341,20.9082,475.703,0.0322782,0.0,0.0
560,139.75,23.629,23.9496,168.569,101.159,100.795,0.000360015,0.0679332,20.9082,475.713,0.0330423,0.0,0.0
562,140.25,23.7307,23.6006,169.194,101.146,100.681,0.000361732,0.0678381,20.9082,475.713,0.042276,0.0,0.0
564,140.75,24.5035,23.5724,168.839,101.161,100.691,0.000363123,0.067761,20.9082,475.703,0.0427812,0.0,0.0
566,141.25,23.9841,23.8692,165.263,101.171,100.71,0.000371571,0.0676773,20.9082,475.713,0.0418764,0.0,0.0
568,141.75,24.0747,24.6007,165.038,101.179,100.751,0.000378415,0.0675903,20.9082,475.723,0.038974,0.0,0.0
570,142.25,23.8797,24.0626,164.193,101.182,100.648,0.000388839,0.0675199,20.9082,475.723,0.0486153,0.0,0.0
572,142.75,24.0489,23.6422,165.486,101.19,100.696,0.000397284,0.067436,20.9082,475.733,0.0449357,0.0,0.0
574,143.25,23.9698,23.6931,165.092,101.202,100.675,0.000398021,0.0673679,20.908,475.733,0.0479058,0.0,0.0
576,143.75,23.3934,23.9545,165.328,101.194,100.813,0.000398618,0.0672994,20.9076,475.723,0.0345953,0.0,0.0
578,144.25,23.8396,23.9666,165.823,101.205,100.804,0.000395248,0.0672438,20.9073,475.733,0.0363976,0.0,0.0
580,144.75,23.3169,23.6316,166.862,101.218,100.643,0.000389051,0.0671989,20.907,475.733,0.0522934,0.0,0.0
582,145.25,23.8369,23.4996,162.429,101.215,100.762,0.000384031,0.0671624,20.9068,475.723,0.0411632,0.0,0.0
584,145.75,23.7615,24.0277,164.015,101.239,100.723,0.000365326,0.0670791,20.9066,475.733,0.0468502,0.0,0.0
586,146.25,23.6745,23.6563,167.16,101.231,100.827,0.000350175,0.0670115,20.9065,475.743,0.0366744,0.0,0.0
588,146.75,23.8474,23.6281,168.984,101.23,100.916,0.000337903,0.0669639,20.9064,475.733,0.0284437,0.0,0.0
590,147.25,23.8574,22.8241,167.868,101.244,100.764,0.000313845,0.0669317,20.9063,475.733,0.0435945,0.0,0.0
592,147.75,23.5374,23.8036,163.517,101.245,100.827,0.000296901,0.0669056,20.9064,475.733,0.0379817,0.0,0.0
594,148.25,23.1279,23.5999,169.881,101.242,100.693,0.000249163,0.0668307,20.9066,475.733,0.0499579,0.0,0.0
596,148.75,23.5887,23.4253,163.587,101.246,100.906,0.000217075,0.0667699,20.9067,475.723,0.030824,0.0,0.0
598,149.25,23.4726,23.6193,165.721,101.263,100.809,0.000203395,0.0667207,20.9068,475.733,0.0412045,0.0,0.0
600,149.75,23.6657,23.0122,163.193,101.275,100.777,0.000186096,0.0666526,20.9069,475.733,0.0452416,0.0,0.0
602,150.25,23.5851,23.635,167.793,101.276,100.894,0.000172083,0.0665718,20.9069,475.733,0.0346564,0.0,0.0
604,150.75,23.9016,23.3617,165.543,101.284,100.754,0.000170355,0.0665374,20.907,475.723,0.0481877,0.0,0.0
606,151.25,23.9602,23.0496,165.649,101.275,100.758,0.000177615,0.066415,20.907,475.713,0.0469504,0.0,0.0
608,151.75,23.2164,22.673,167.149,101.283,100.947,0.00019447,0.0663525,20.9073,475.713,0.0304511,0.0,0.0
610,152.25,23.1056,23.1147,162.57,101.306,100.938,0.000208123,0.0663329,20.9077,475.713,0.0334543,0.0,0.0
612,152.75,23.1255,23.3479,166.312,101.304,100.753,0.000219181,0.0662995,20.9081,475.713,0.0500635,0.0,0.0
614,153.25,23.0153,22.7974,165.663,101.304,100.835,0.00022448,0.0662724,20.9083,475.713,0.0425929,0.0,0.0
616,153.75,23.5588,23.1246,161.289,101.314,100.897,0.000228773,0.0662504,20.9086,475.713,0.0378161,0.0,0.0
618,154.25,23.0747,22.5858,159.406,101.308,100.964,0.00023225,0.0662255,20.9088,475.713,0.0312906,0.0,0.0
620,154.75,23.4858,22.9835,167.988,101.327,100.869,0.000235066,0.066199,20.9089,475.713,0.0415476,0.0,0.0
622,155.25,23.8602,22.9086,168.785,101.32,100.852,0.000238631,0.0661775,20.909,475.713,0.0425178,0.0,0.0
624,155.75,23.3616,23.2693,166.35,101.323,100.897,0.000242673,0.0661467,20.9091,475.713,0.0386734,0.0,0.0
626,156.25,23.2111,23.2157,162.277,101.326,100.881,0.00024606,0.0661217,20.9092,475.713,0.0403279,0.0,0.0
628,156.75,23.2429,23.1022,166.042,101.32,100.864,0.000246161,0.0660731,20.909,475.713,0.0414572,0.0,0.0
630,157.25,22.9095,22.858,166.085,101.348,100.842,0.000246334,0.0660082,20.9087,475.713,0.0459045,0.0,0.0
632,157.75,23.1997,23.3963,164.86,101.34,100.858,0.000246474,0.0659557,20.9084,475.723,0.0438025,0.0,0.0
634,158.25,23.4009,23.0559,165.377,101.35,100.855,0.000246588,0.0659266,20.9082,475.713,0.0448911,0.0,0.0
636,158.75,23.2486,22.8309,166.372,101.33,100.852,0.000243024,0.065903,20.908,475.723,0.0433768,0.0,0.0
638,159.25,23.3754,23.1167,163.79,101.357,100.846,0.000240138,0.0658758,20.9079,475.713,0.0463942,0.0,0.0
640,159.75,22.635,23.0225,166.942,101.345,100.916,0.00022497,0.0658685,20.9077,475.693,0.0389839,0.0,0.0
642,160.25,23.1191,23.3748,169.023,101.362,100.871,0.000201137,0.0658156,20.9075,475.693,0.0445438,0.0,0.0
644,160.75,23.0999,23.1257,161.465,101.354,100.781,0.000181832,0.0657727,20.9073,475.693,0.0519563,0.0,0.0
646,161.25,23.013,22.9222,169.542,101.362,101.011,0.000147923,0.0657508,20.9071,475.693,0.0318498,0.0,0.0
648,161.75,22.9348,22.8364,165.856,101.371,100.815,0.000120457,0.065733,20.907,475.693,0.0505149,0.0,0.0
650,162.25,23.1888,23.1873,165.46,101.374,100.926,9.33384e-05,0.0657186,20.9068,475.693,0.0405533,0.0,0.0
652,162.75,22.6796,22.9672,167.886,101.365,100.847,7.13724e-05,0.065707,20.9068,475.683,0.0469645,0.0,0.0
654,163.25,23.0288,22.7609,167.127,101.374,100.819,6.81947e-05,0.0656975,20.9067,475.683,0.0503322,0.0,0.0
656,163.75,22.7916,22.9581,165.083,101.371,100.925,6.56208e-05,0.0656764,20.9066,475.703,0.0404586,0.0,0.0
658,164.25,23.1845,22.7926,162.608,101.383,100.861,7.82878e-05,0.0656593,20.9066,475.703,0.0474053,0.0,0.0
660,164.75,23.0344,22.8966,160.285,101.371,100.914,0.000101825,0.065632,20.9065,475.703,0.0414354,0.0,0.0
662,165.25,22.5244,22.9058,164.596,101.379,100.827,0.000129874,0.0656099,20.9065,475.703,0.0501157,0.0,0.0
664,165.75,22.4486,23.0767,165.243,101.376,100.75,0.000160681,0.0655516,20.9065,475.713,0.0568355,0.0,0.0
666,166.25,23.3651,22.5857,166.518,101.391,101.107,0.000185634,0.0655044,20.9065,475.713,0.0257215,0.0,0.0
668,166.75,22.9569,22.7223,166.608,101.376,100.841,0.000210982,0.0654591,20.9064,475.703,0.0485718,0.0,0.0
670,167.25,22.6942,22.5413,169.803,101.392,101.006,0.000236137,0.065416,20.9064,475.703,0.0349964,0.0,0.0
672,167.75,23.1566,22.7948,167.025,101.385,100.979,0.000255228,0.0653811,20.9064,475.713,0.0368127,0.0,0.0
674,168.25,22.4129,22.8413,162.445,101.394,100.95,0.000269536,0.0653932,20.9064,475.713,0.0402135,0.0,0.0
676,168.75,23.2535,22.7511,161.81,101.388,100.784,0.000281126,0.065403,20.9064,475.703,0.054861,0.0,0.0
678,169.25,22.7509,22.2999,167.022,101.4,101.044,0.000278314,0.0653706,20.9064,475.693,0.032251,0.0,0.0
680,169.75,22.3644,23.3676,164.782,101.397,100.896,0.000276036,0.0653443,20.9064,475.693,0.0454832,0.0,0.0
682,170.25,22.8446,22.7901,169.089,101.416,100.857,0.000274191,0.0653443,20.9064,475.693,0.0507586,0.0,0.0
684,170.75,22.7314,22.6557,167.862,101.406,100.957,0.000259285,0.0653634,20.9066,475.693,0.0407711,0.0,0.0
686,171.25,22.6957,22.8516,162.329,101.405,100.805,0.00024721,0.0653789,20.907,475.683,0.0544598,0.0,0.0
688,171.75,22.5301,22.7572,165.77,101.402,100.825,0.000241087,0.0654325,20.9073,475.693,0.0524359,0.0,0.0
690,172.25,23.2614,22.9118,164.45,101.413,100.948,0.000236128,0.0654759,20.9075,475.693,0.0421976,0.0,0.0
692,172.75,22.3928,22.3792,164.441,101.405,100.975,0.000247964,0.065511,20.9077,475.703,0.0390013,0.0,0.0
694,173.25,22.2639,22.3805,171.231,101.417,100.842,0.000257551,0.0655466,20.9079,475.693,0.0521629,0.0,0.0
696,173.75,22.6382,22.0751,164.693,101.418,101.038,0.000276233,0.0655818,20.908,475.693,0.0344537,0.0,0.0
698,174.25,22.6479,23.0293,165.483,101.416,100.924,0.000301191,0.0656173,20.9081,475.703,0.0446168,0.0,0.0
700,174.75,22.2775,22.6848,162.268,101.419,100.919,0.000321406,0.0656525,20.9082,475.733,0.0453483,0.0,0.0
702,175.25,22.7398,22.5506,166.077,101.423,101.022,0.000348766,0.0656945,20.9082,475.713,0.0363203,0.0,0.0
704,175.75,22.5111,22.7972,165.34,101.425,101.025,0.000370928,0.0657285,20.9083,475.693,0.0362386,0.0,0.0
706,176.25,22.2468,22.6525,164.473,101.427,100.866,0.000397426,0.0657702,20.9083,475.703,0.0509359,0.0,0.0
708,176.75,22.1191,22.6217,165.24,101.427,100.926,0.000418889,0.0658167,20.9084,475.713,0.0453646,0.0,0.0
710,177.25,22.5681,22.2516,164.209,101.439,100.856,0.000441159,0.0658544,20.9084,475.713,0.0528938,0.0,0.0
712,177.75,22.0828,22.9957,168.607,101.422,100.909,0.000459198,0.065885,20.9084,475.713,0.0465303,0.0,0.0
714,178.25,22.2691,22.69,166.25,101.434,100.946,0.000473809,0.0659097,20.9085,475.703,0.0442009,0.0,0.0
716,178.75,22.3991,22.4642,165.285,101.428,101.056,0.00049069,0.0659028,20.9085,475.713,0.0337278,0.0,0.0
718,179.25,22.3123,22.2442,173.37,101.426,101.067,0.000495231,0.0658972,20.9085,475.703,0.0325289,0.0,0.0
720,179.75,22.3454,22.4741,165.315,101.434,100.928,0.000495669,0.0658502,20.9085,475.693,0.0458609,0.0,0.0
722,180.25,22.5562,22.37,167.93,101.435,101.029,0.000496024,0.0657738,20.9085,475.683,0.03684,0.0,0.0
724,180.75,22.3274,22.3426,168.947,101.417,100.88,0.000489243,0.0657049,20.9085,475.703,0.0487502,0.0,0.0
726,181.25,22.6858,22.6434,164.453,101.446,100.82,0.00047739,0.0656427,20.9085,475.723,0.0568409,0.0,0.0
728,181.75,22.286,22.2164,162.591,101.447,101.07,0.000461366,0.065585,20.9085,475.723,0.0341071,0.0,0.0
730,182.25,22.7062,22.9151,165.04,101.428,101.011,0.000442607,0.0655785,20.9085,475.713,0.0377802,0.0,0.0
732,182.75,22.0428,22.5501,164.654,101.43,101.054,0.000420349,0.0655672,20.9085,475.703,0.0340613,0.0,0.0
734,183.25,22.6283,22.5405,168.25,101.434,101.139,0.000395963,0.0655312,20.9085,475.703,0.0267021,0.0,0.0
736,183.75,22.444,22.55,165.923,101.432,100.929,0.000368509,0.065502,20.9085,475.713,0.0455812,0.0,0.0
738,184.25,22.2803,22.6059,166.533,101.433,100.959,0.000339339,0.0654784,20.9085,475.723,0.0429653,0.0,0.0
740,184.75,22.1987,22.4743,167.736,101.423,101.017,0.000315711,0.0654727,20.9085,475.723,0.0368639,0.0,0.0
742,185.25,22.396,22.567,166.165,101.43,101.033,0.000274634,0.0654468,20.9085,475.723,0.0359487,0.0,0.0
744,185.75,21.967,22.4304,163.199,101.433,100.899,0.000241361,0.0654067,20.9085,475.703,0.048451,0.0,0.0
746,186.25,22.0665,22.2861,164.261,101.429,100.938,0.000196139,0.0653743,20.9085,475.703,0.0445743,0.0,0.0
748,186.75,22.0888,22.4598,171.087,101.427,101.066,0.000159508,0.0653345,20.9085,475.693,0.0327698,0.0,0.0
750,187.25,22.2051,22.4504,165.962,101.43,100.972,0.000129837,0.0653023,20.9085,475.683,0.0415138,0.0,0.0
752,187.75,21.6525,22.5598,167.574,101.424,100.938,9.84969e-05,0.0652763,20.9085,475.683,0.0440442,0.0,0.0
754,188.25,22.0833,22.3256,171.322,101.419,100.948,7.31113e-05,0.0652552,20.9085,475.693,0.0427203,0.0,0.0
756,188.75,22.1632,22.3555,166.176,101.424,100.979,6.47279e-05,0.0651842,20.9085,475.703,0.0403932,0.0,0.0
758,189.25,22.0597,21.9158,167.566,101.42,100.994,5.79373e-05,0.0651268,20.9085,475.693,0.0385547,0.0,0.0
760,189.75,22.0842,22.3583,171.197,101.424,100.883,6.91117e-05,0.0650803,20.9085,475.703,0.0490233,0.0,0.0
762,190.25,22.2015,21.8107,165.483,101.415,100.827,9.31704e-05,0.0650426,20.9085,475.693,0.0533702,0.0,0.0
764,190.75,21.4082,22.0445,161.936,101.436,100.823,0.000112658,0.065012,20.9085,475.703,0.0556406,0.0,0.0
766,191.25,22.3852,21.9309,167.359,101.427,100.936,0.000156492,0.0649802,20.9085,475.693,0.0445721,0.0,0.0
768,191.75,22.028,21.7872,165.105,101.433,100.906,0.000191998,0.0649481,20.9085,475.693,0.0477687,0.0,0.0
770,192.25,21.594,22.5951,166.362,101.421,100.9,0.000241504,0.0649221,20.9085,475.693,0.0472866,0.0,0.0
772,192.75,21.6962,22.3945,167.111,101.423,100.905,0.000281604,0.064901,20.9085,475.693,0.0470494,0.0,0.0
774,193.25,22.0247,22.0444,161.951,101.412,101.023,0.000314086,0.0648839,20.9085,475.693,0.0352579,0.0,0.0
776,193.75,21.88,21.9997,164.809,101.408,100.998,0.000340395,0.0648701,20.9085,475.693,0.0371047,0.0,0.0
778,194.25,21.9652,22.0349,168.176,101.411,100.935,0.000361706,0.0648589,20.9084,475.693,0.0431264,0.0,0.0
780,194.75,21.7851,22.1259,163.901,101.424,100.869,0.000378968,0.0648363,20.9083,475.683,0.0503605,0.0,0.0
782,195.25,22.4694,22.2559,168.142,101.416,100.914,0.000379524,0.0648181,20.9082,475.693,0.0455387,0.0,0.0
784,195.75,21.6749,21.7295,168.387,101.416,100.983,0.000379975,0.0648033,20.9082,475.713,0.0391952,0.0,0.0
786,196.25,21.7226,22.2982,160.823,101.42,100.866,0.000371351,0.0647842,20.9081,475.713,0.050219,0.0,0.0
788,196.75,21.5935,21.895,168.384,101.423,100.804,0.000356274,0.0647624,20.9081,475.693,0.0561462,0.0,0.0
790,197.25,22.1852,22.1262,162.666,101.42,100.973,0.000338286,0.0647448,20.908,475.693,0.040611,0.0,0.0
792,197.75,22.2388,21.4874,163.167,101.425,100.905,0.000318517,0.0647304,20.908,475.703,0.0471517,0.0,0.0
794,198.25,21.5155,21.8807,161.375,101.41,100.813,0.000299937,0.0647188,20.908,475.683,0.0541227,0.0,0.0
796,198.75,21.8727,21.9772,170.693,101.42,101.089,0.000282577,0.064696,20.908,475.703,0.0299899,0.0,0.0
798,199.25,21.735,22.3318,165.176,101.416,100.929,0.000268515,0.0646775,20.9079,475.693,0.044202,0.0,0.0
800,199.75,21.6197,22.0227,168.294,101.418,100.886,0.00025905,0.0646413,20.9079,475.693,0.0482247,0.0,0.0
802,200.25,21.4624,22.1032,169.548,101.411,100.85,0.000253116,0.0645928,20.9079,475.683,0.050949,0.0,0.0
804,200.75,21.4542,22.1662,166.827,101.418,101.032,0.000252802,0.0645536,20.9079,475.683,0.0349887,0.0,0.0
806,201.25,21.6591,22.2408,166.069,101.405,100.974,0.000256591,0.0645487,20.9079,475.693,0.0390557,0.0,0.0
808,201.75,21.7313,22.5855,168.202,101.404,101.001,0.00025966,0.0645447,20.9079,475.693,0.0366221,0.0,0.0
810,202.25,22.1587,21.7194,160.908,101.384,101.033,0.000271776,0.0645953,20.9079,475.683,0.0318465,0.0,0.0
812,202.75,21.2856,21.8872,169.23,101.41,100.875,0.000290259,0.0646363,20.9079,475.683,0.0485391,0.0,0.0
814,203.25,21.8589,22.0846,163.908,101.399,100.882,0.000312295,0.0646766,20.9079,475.693,0.0468405,0.0,0.0
816,203.75,21.3244,20.9561,173.516,101.401,100.932,0.000336503,0.0647156,20.9079,475.693,0.042508,0.0,0.0
818,204.25,21.5647,21.139,169.371,101.401,100.889,0.000358682,0.0647472,20.9079,475.703,0.0463812,0.0,0.0
820,204.75,21.1138,21.7713,168.638,101.393,100.875,0.000378959,0.0647459,20.9079,475.703,0.0469634,0.0,0.0
822,205.25,21.3066,21.6688,167.496,101.386,100.858,0.000396669,0.0647448,20.9079,475.713,0.0479363,0.0,0.0
824,205.75,21.6132,21.8798,167.367,101.408,100.838,0.000412171,0.064751,20.9079,475.703,0.0516745,0.0,0.0
826,206.25,21.3576,21.6092,169.042,101.391,100.828,0.00042537,0.0647624,20.9079,475.703,0.0510686,0.0,0.0
828,206.75,21.1413,21.3641,162.661,101.414,100.837,0.000436639,0.0647788,20.9079,475.693,0.052363,0.0,0.0
830,207.25,21.2679,21.8695,165.261,101.402,100.951,0.000445767,0.0647984,20.9079,475.703,0.0409051,0.0,0.0
832,207.75,21.6731,22.3169,167.111,101.393,100.881,0.000453161,0.0648142,20.9079,475.703,0.0464106,0.0,0.0
834,208.25,21.0275,21.4003,169.547,101.395,100.852,0.00045915,0.0648136,20.9079,475.713,0.0491887,0.0,0.0
836,208.75,21.0084,21.5252,163.802,101.406,100.908,0.000464001,0.0648131,20.9079,475.713,0.0452427,0.0,0.0
838,209.25,21.1375,21.6361,169.535,101.399,100.889,0.000453283,0.0647993,20.9079,475.703,0.046194,0.0,0.0
840,209.75,21.5362,21.9437,165.238,101.395,100.953,0.000444601,0.0647881,20.9079,475.703,0.0400959,0.0,0.0
842,210.25,21.109,22.2241,167.004,101.397,100.989,0.000418047,0.064779,20.9079,475.693,0.037047,0.0,0.0
844,210.75,21.5101,21.7131,161.098,101.395,100.912,0.000396538,0.0647716,20.9079,475.693,0.0438297,0.0,0.0
846,211.25,21.4503,22.2456,168.459,101.397,100.893,0.000369358,0.0647798,20.9079,475.693,0.0458054,0.0,0.0
848,211.75,21.5215,21.0941,162.324,101.399,100.825,0.000347343,0.0647992,20.9079,475.693,0.0521738,0.0,0.0
850,212.25,21.014,21.3141,166.138,101.398,100.908,0.000333169,0.0648149,20.9079,475.713,0.0444513,0.0,0.0
852,212.75,21.2325,21.1947,165.647,101.397,100.946,0.000321688,0.0648411,20.9079,475.713,0.0409279,0.0,0.0
854,213.25,21.5404,21.7964,167.179,101.399,100.886,0.000329467,0.0648623,20.9079,475.703,0.0465455,0.0,0.0
856,213.75,21.2851,21.9639,162.877,101.401,100.853,0.000335769,0.0648724,20.9079,475.703,0.0496555,0.0,0.0
858,214.25,21.4733,21.6703,163.205,101.395,100.893,0.000351792,0.0648742,20.9079,475.693,0.0455442,0.0,0.0
860,214.75,20.9807,20.7153,160.831,101.407,100.818,,0.0648891,,475.703,0.0534452,0.0,0.0
862,215.25,21.1129,21.3099,165.518,101.392,100.823,,0.0649012,,475.693,0.0516049,0.0,0.0
864,215.75,21.5472,21.776,163.046,101.403,100.902,,0.0648572,,475.683,0.0454147,0.0,0.0
866,216.25,21.7426,21.6107,166.897,101.401,100.96,,0.0648215,,475.693,0.039926,0.0,0.0
868,216.75,20.904,21.8133,164.574,101.4,101.07,,0.0647997,,475.693,0.0298929,0.0,0.0
870,217.25,21.3118,21.4316,169.816,101.399,100.906,,0.0647884,,475.673,0.0447104,0.0,0.0
872,217.75,21.0745,21.8216,164.47,101.404,100.885,,,,475.693,0.0470494,0.0,0.0
874,218.25,20.9238,21.0511,166.052,101.411,100.944,,,,475.693,0.0423337,0.0,0.0
876,218.75,21.4147,22.0995,162.745,101.407,100.905,,,,475.683,0.0455943,0.0,0.0
878,219.25,20.9231,21.7612,171.92,101.411,100.85,,,,475.683,0.0508739,0.0,0.0
880,219.75,20.7436,21.6955,167.614,101.391,100.831,,,,475.693,0.0507912,0.0,0.0
882,220.25,21.0069,21.7253,167.593,101.403,100.926,,,,475.693,0.0432483,0.0,0.0
884,220.75,21.3574,21.1255,164.007,101.397,100.976,,,,475.693,0.0382083,0.0,0.0
886,221.25,21.1229,21.4002,169.094,101.402,100.933,,,,475.683,0.0424905,0.0,0.0
888,221.75,21.0935,21.6133,165.66,101.396,100.819,,,,475.673,0.0523369,0.0,0.0
890,222.25,20.8919,21.4027,166.155,101.406,100.853,,,,475.673,0.0501418,0.0,0.0
892,222.75,21.3537,21.284,169.72,101.405,100.824,,,,475.683,0.0527513,0.0,0.0
894,223.25,20.4228,21.5523,167.089,101.41,100.869,,,,475.683,0.04913,0.0,0.0
896,223.75,21.6726,21.4014,172.086,101.401,100.95,,,,475.703,0.0408942,0.0,0.0
898,224.25,20.7441,21.4748,170.264,101.409,100.93,,,,475.703,0.0434465,0.0,0.0
900,224.75,21.0188,21.0521,163.549,101.4,100.868,,,,475.683,0.048327,0.0,0.0
902,225.25,21.1642,21.4416,169.006,101.406,100.876,,,,475.663,0.0480658,0.0,0.0
903,225.5,20.8372,21.4329,164.611,101.406,100.886,,,,475.663,0.047143,0.0,0.0