File: 01_Data/Rebond_Foam_Carpet_Pad/MCC/Rebond_Foam_Carpet_Pad_MCC_30K_min_211102_R3.txt
Sample ID:	C:\MCC\MCC Cal\Test\Rebond_Foam_Carpet_Pad_MCC_30K_min_211102_R3.txt
Sample Weight (mg):	4.91
Heating Rate (C/s):	0.5
Combustor Temp (C):	900
N2 Flow Rate (cc/min):	80
O2 Flow Rate (cc/min):	20
Calibration File:	C:\MCC\MCC Cal\Coeff1 JN10440_30_210304.txt.txt
T Correction Coefficients:	0	1.024463	0
Time Shift (s):	14
*
Time (s)	Temperature (C)	N2 flow rate (cc/min)	O2 flow rate (cc/min)	Flow Rate (cc/min)	Oxygen (%)	HRR (W/g)	Heating rate (C/s)
-0.001	108.983	80.002	19.992	103.065	20.097	0.271	-0.024
2.000	109.001	80.002	19.995	103.067	20.098	0.237	0.002
4.000	108.954	80.005	19.996	103.065	20.101	0.048	0.003
6.000	108.931	80.003	19.996	103.062	20.099	0.136	0.019
8.000	108.944	80.003	19.995	103.053	20.100	0.123	0.006
10.000	108.902	80.004	19.996	103.054	20.104	-0.168	-0.024
12.000	108.899	80.003	19.996	103.065	20.100	0.109	0.006
14.000	108.933	80.004	19.995	103.083	20.097	0.298	0.004
16.000	108.944	80.005	19.994	103.097	20.092	0.638	0.005
18.000	108.966	80.004	19.996	103.107	20.090	0.718	0.029
20.000	109.017	80.003	19.995	103.163	20.082	1.279	0.004
22.000	109.064	80.004	19.995	103.204	20.078	1.510	0.048
24.000	109.217	80.004	19.996	103.230	20.072	1.958	0.086
26.000	109.336	80.003	19.996	103.226	20.067	2.280	0.092
28.000	109.500	80.002	19.995	103.222	20.062	2.603	0.082
30.000	109.662	80.003	19.996	103.226	20.065	2.410	0.069
32.000	109.896	80.003	19.997	103.243	20.066	2.328	0.120
33.999	110.081	80.003	19.995	103.256	20.063	2.525	0.099
35.999	110.395	80.004	19.996	103.248	20.061	2.630	0.126
37.999	110.699	80.005	19.997	103.251	20.063	2.513	0.154
39.999	110.958	80.004	19.995	103.242	20.062	2.591	0.151
41.999	111.342	80.005	19.996	103.257	20.060	2.695	0.210
44.000	111.741	80.004	19.996	103.241	20.062	2.614	0.228
46.000	112.137	80.005	19.995	103.221	20.059	2.770	0.239
47.999	112.549	80.004	19.995	103.325	20.061	2.634	0.245
49.999	112.965	80.004	19.996	103.264	20.060	2.686	0.240
51.999	113.402	80.004	19.994	103.265	20.057	2.901	0.228
53.999	113.869	80.004	19.995	103.263	20.060	2.709	0.221
55.999	114.417	80.004	19.995	103.265	20.057	2.886	0.271
57.999	114.881	80.004	19.996	103.276	20.056	3.002	0.239
60.000	115.427	80.005	19.994	103.273	20.055	3.013	0.254
61.999	115.971	80.005	19.994	103.274	20.059	2.804	0.267
63.999	116.511	80.006	19.995	103.276	20.053	3.153	0.266
65.999	117.099	80.007	19.993	103.276	20.055	3.048	0.292
68.000	117.701	80.006	19.994	103.272	20.055	3.071	0.304
69.999	118.279	80.006	19.995	103.283	20.055	3.033	0.277
71.999	118.869	80.005	19.994	103.292	20.054	3.135	0.283
74.000	119.513	80.005	19.994	103.286	20.053	3.158	0.347
75.999	120.167	80.003	19.995	103.297	20.050	3.348	0.347
77.999	120.787	80.004	19.994	103.295	20.051	3.339	0.319
79.999	121.457	80.004	19.995	103.297	20.048	3.493	0.300
81.999	122.192	80.004	19.995	103.297	20.052	3.244	0.364
83.999	122.910	80.004	19.995	103.298	20.051	3.335	0.361
86.000	123.579	80.006	19.994	103.297	20.052	3.216	0.322
87.999	124.325	80.003	19.994	103.298	20.052	3.235	0.363
90.000	125.083	80.004	19.995	103.297	20.053	3.173	0.394
91.999	125.800	80.004	19.995	103.294	20.050	3.376	0.342
93.999	126.594	80.005	19.995	103.295	20.048	3.502	0.386
95.999	127.295	80.003	19.995	103.298	20.049	3.472	0.370
97.999	128.091	80.003	19.996	103.296	20.047	3.586	0.387
99.999	128.891	80.003	19.995	103.297	20.046	3.623	0.399
101.999	129.695	80.003	19.995	103.297	20.046	3.656	0.400
103.999	130.472	80.003	19.996	103.297	20.046	3.648	0.397
106.000	131.302	80.003	19.996	103.299	20.045	3.679	0.429
107.999	132.069	80.003	19.995	103.316	20.045	3.704	0.366
109.999	132.910	80.002	19.995	103.312	20.043	3.840	0.406
112.000	133.738	80.003	19.995	103.304	20.046	3.668	0.462
113.999	134.511	80.004	19.995	103.307	20.043	3.863	0.394
115.999	135.385	80.003	19.995	103.309	20.046	3.619	0.409
117.999	136.255	80.004	19.994	103.306	20.042	3.922	0.430
119.999	137.110	80.004	19.995	103.303	20.045	3.704	0.400
121.999	138.007	80.004	19.995	103.305	20.044	3.801	0.415
124.000	138.884	80.006	19.996	103.308	20.042	3.908	0.426
125.999	139.796	80.004	19.995	103.312	20.041	3.990	0.446
128.000	140.689	80.003	19.995	103.324	20.043	3.827	0.443
130.000	141.636	80.003	19.996	103.311	20.042	3.929	0.462
132.000	142.542	80.003	19.995	103.317	20.042	3.931	0.475
134.000	143.495	80.003	19.996	103.312	20.038	4.158	0.459
136.000	144.420	80.004	19.996	103.301	20.043	3.831	0.470
138.000	145.319	80.004	19.995	103.311	20.039	4.085	0.460
140.000	146.302	80.005	19.995	103.303	20.042	3.919	0.457
142.000	147.232	80.005	19.995	103.301	20.043	3.824	0.485
144.000	148.175	80.006	19.994	103.313	20.040	4.029	0.477
146.000	149.207	80.007	19.993	103.301	20.038	4.140	0.501
148.000	150.113	80.006	19.994	103.303	20.040	4.062	0.468
150.000	151.084	80.006	19.993	103.302	20.036	4.261	0.482
152.000	152.055	80.006	19.993	103.317	20.039	4.115	0.482
154.000	153.055	80.005	19.994	103.250	20.041	3.983	0.471
156.000	153.989	80.004	19.994	103.341	20.041	3.954	0.465
158.000	154.986	80.004	19.994	103.327	20.038	4.194	0.494
160.000	155.990	80.005	19.994	103.304	20.038	4.145	0.482
162.000	156.947	80.003	19.994	103.301	20.035	4.329	0.505
164.000	157.945	80.005	19.994	103.300	20.033	4.501	0.480
166.000	158.915	80.004	19.995	103.300	20.032	4.528	0.492
168.000	159.973	80.004	19.995	103.299	20.031	4.630	0.522
170.000	160.977	80.005	19.994	103.301	20.031	4.603	0.497
172.000	162.014	80.005	19.994	103.295	20.032	4.588	0.526
174.000	162.976	80.004	19.994	103.301	20.031	4.653	0.494
176.000	163.993	80.005	19.995	103.299	20.028	4.847	0.499
178.000	165.024	80.005	19.994	103.298	20.032	4.527	0.537
180.000	166.050	80.005	19.994	103.301	20.027	4.872	0.549
182.000	167.053	80.004	19.994	103.298	20.027	4.911	0.497
184.000	168.062	80.004	19.994	103.297	20.026	4.963	0.496
186.000	169.110	80.004	19.995	103.296	20.025	4.995	0.526
188.000	170.141	80.002	19.994	103.252	20.020	5.360	0.558
190.000	171.097	80.003	19.995	103.255	20.021	5.306	0.493
192.000	172.136	80.003	19.995	103.295	20.021	5.255	0.467
194.000	173.123	80.003	19.994	103.336	20.019	5.378	0.505
196.000	174.189	80.004	19.995	103.300	20.018	5.456	0.514
198.000	175.162	80.005	19.996	103.280	20.015	5.697	0.483
200.000	176.200	80.004	19.996	103.292	20.017	5.563	0.517
202.000	177.159	80.006	19.995	103.271	20.015	5.664	0.492
204.000	178.166	80.006	19.996	103.281	20.015	5.700	0.510
206.000	179.134	80.007	19.995	103.274	20.011	5.952	0.486
208.000	180.147	80.007	19.995	103.272	20.010	6.020	0.514
210.000	181.168	80.007	19.994	103.272	20.005	6.297	0.509
212.000	182.143	80.005	19.996	103.269	20.005	6.309	0.519
214.000	183.160	80.006	19.995	103.267	20.004	6.385	0.535
216.000	184.164	80.007	19.995	103.264	20.003	6.484	0.491
218.000	185.167	80.004	19.996	103.266	20.000	6.675	0.488
220.000	186.207	80.005	19.994	103.272	19.998	6.786	0.499
222.000	187.186	80.006	19.996	103.259	19.995	6.970	0.507
224.000	188.184	80.006	19.995	103.261	19.997	6.872	0.499
226.000	189.190	80.006	19.996	103.263	19.992	7.158	0.510
228.000	190.163	80.005	19.996	103.258	19.988	7.451	0.544
230.000	191.152	80.006	19.995	103.260	19.983	7.737	0.494
232.000	192.097	80.006	19.995	103.258	19.987	7.533	0.468
234.000	193.095	80.006	19.995	103.257	19.985	7.610	0.492
236.000	194.104	80.006	19.994	103.257	19.982	7.817	0.457
238.000	195.064	80.004	19.994	103.259	19.982	7.867	0.505
240.000	196.003	80.004	19.994	103.262	19.978	8.125	0.514
242.000	196.998	80.003	19.994	103.262	19.977	8.195	0.487
244.000	197.971	80.004	19.993	103.264	19.974	8.354	0.495
246.000	198.964	80.005	19.995	103.262	19.969	8.711	0.536
248.000	199.928	80.004	19.995	103.262	19.966	8.861	0.476
250.000	200.880	80.004	19.994	103.262	19.967	8.797	0.439
252.000	201.884	80.005	19.996	103.264	19.965	8.931	0.482
254.000	202.845	80.006	19.995	103.263	19.959	9.347	0.480
256.000	203.831	80.005	19.995	103.262	19.957	9.483	0.476
258.000	204.820	80.004	19.995	103.260	19.954	9.652	0.494
260.000	205.767	80.004	19.994	103.262	19.950	9.967	0.508
262.000	206.741	80.004	19.995	103.262	19.948	10.046	0.500
264.000	207.746	80.004	19.994	103.263	19.950	9.942	0.489
266.000	208.696	80.005	19.994	103.264	19.946	10.185	0.457
268.000	209.650	80.005	19.994	103.261	19.937	10.810	0.481
270.000	210.632	80.004	19.995	103.260	19.936	10.833	0.489
272.000	211.618	80.004	19.995	103.260	19.934	11.016	0.471
274.000	212.586	80.006	19.995	103.259	19.932	11.101	0.466
276.000	213.609	80.004	19.994	103.260	19.926	11.485	0.509
278.000	214.583	80.005	19.995	103.260	19.924	11.632	0.483
280.000	215.520	80.005	19.995	103.251	19.923	11.680	0.494
282.000	216.444	80.007	19.995	103.260	19.921	11.819	0.442
284.000	217.464	80.006	19.996	103.259	19.914	12.308	0.476
286.000	218.405	80.006	19.995	103.259	19.909	12.634	0.468
288.000	219.415	80.007	19.996	103.258	19.905	12.868	0.465
290.000	220.336	80.005	19.995	103.259	19.901	13.151	0.457
292.000	221.271	80.007	19.996	103.258	19.895	13.539	0.462
294.000	222.274	80.006	19.995	103.255	19.894	13.598	0.480
296.000	223.281	80.008	19.995	103.245	19.889	13.940	0.490
298.000	224.224	80.006	19.995	103.253	19.888	14.035	0.496
300.000	225.190	80.006	19.995	103.258	19.881	14.465	0.479
302.000	226.146	80.003	19.995	103.260	19.877	14.728	0.509
304.000	227.107	80.005	19.994	103.261	19.871	15.099	0.483
306.000	228.139	80.006	19.995	103.263	19.868	15.312	0.518
308.000	229.157	80.007	19.995	103.271	19.864	15.584	0.508
310.000	230.144	80.007	19.994	103.262	19.856	16.091	0.519
312.000	231.149	80.005	19.995	103.263	19.850	16.516	0.497
314.000	232.149	80.005	19.996	103.267	19.846	16.746	0.496
316.000	233.153	80.006	19.994	103.262	19.839	17.190	0.483
318.000	234.153	80.005	19.995	103.260	19.835	17.448	0.476
320.000	235.181	80.004	19.996	103.254	19.826	18.057	0.488
322.000	236.191	80.004	19.995	103.247	19.822	18.341	0.497
324.000	237.133	80.003	19.996	103.255	19.815	18.794	0.491
326.000	238.147	80.005	19.996	103.242	19.813	18.910	0.517
328.000	239.086	80.003	19.995	103.258	19.803	19.569	0.503
330.000	240.053	80.005	19.995	103.259	19.800	19.785	0.463
332.000	241.003	80.004	19.994	103.256	19.787	20.618	0.500
334.000	241.930	80.006	19.995	103.253	19.783	20.922	0.510
336.000	242.922	80.004	19.994	103.257	19.776	21.354	0.480
338.000	243.825	80.004	19.994	103.261	19.762	22.237	0.483
340.000	244.809	80.006	19.995	103.260	19.755	22.752	0.494
342.000	245.740	80.005	19.994	103.259	19.747	23.225	0.461
344.000	246.682	80.006	19.995	103.260	19.738	23.853	0.473
346.000	247.585	80.005	19.995	103.255	19.730	24.385	0.452
348.000	248.575	80.007	19.994	103.250	19.720	25.031	0.507
350.000	249.504	80.004	19.995	103.258	19.709	25.752	0.477
352.000	250.488	80.005	19.994	103.266	19.706	25.955	0.494
354.000	251.391	80.004	19.995	103.261	19.693	26.829	0.458
356.000	252.288	80.005	19.995	103.262	19.682	27.511	0.450
358.000	253.195	80.005	19.995	103.261	19.670	28.287	0.454
360.000	254.108	80.004	19.996	103.268	19.658	29.083	0.455
362.000	255.044	80.005	19.995	103.271	19.649	29.701	0.475
364.000	255.948	80.006	19.994	103.273	19.637	30.513	0.451
366.000	256.887	80.005	19.995	103.277	19.630	30.957	0.460
368.000	257.787	80.007	19.995	103.288	19.614	31.980	0.463
370.000	258.713	80.007	19.994	103.286	19.605	32.574	0.468
372.000	259.633	80.005	19.994	103.290	19.597	33.108	0.466
374.000	260.543	80.006	19.994	103.295	19.584	33.951	0.441
376.000	261.452	80.005	19.995	103.297	19.573	34.688	0.464
378.000	262.340	80.004	19.994	103.300	19.559	35.598	0.454
380.000	263.312	80.005	19.993	103.315	19.549	36.267	0.461
382.000	264.200	80.005	19.994	103.337	19.534	37.265	0.473
384.000	265.211	80.005	19.995	103.339	19.524	37.912	0.477
386.000	266.246	80.007	19.995	103.339	19.514	38.578	0.496
388.000	267.198	80.006	19.994	103.341	19.501	39.417	0.485
390.000	268.152	80.006	19.995	103.342	19.490	40.122	0.456
392.000	269.180	80.007	19.995	103.345	19.481	40.737	0.492
394.000	270.224	80.007	19.995	103.340	19.462	42.006	0.548
396.000	271.270	80.008	19.995	103.339	19.453	42.600	0.526
398.000	272.362	80.008	19.995	103.346	19.442	43.339	0.535
400.000	273.405	80.006	19.994	103.344	19.433	43.875	0.548
402.000	274.471	80.006	19.995	103.346	19.426	44.354	0.542
404.000	275.560	80.004	19.995	103.349	19.428	44.229	0.553
406.000	276.625	80.006	19.996	103.356	19.421	44.709	0.507
408.000	277.708	80.002	19.996	103.351	19.425	44.398	0.532
410.000	278.776	80.004	19.996	103.350	19.426	44.324	0.540
412.000	279.913	80.002	19.997	103.336	19.439	43.474	0.527
414.000	280.998	80.004	19.997	103.336	19.453	42.592	0.548
416.000	282.108	80.002	19.996	103.336	19.477	41.024	0.529
418.000	283.210	80.006	19.997	103.338	19.494	39.877	0.543
420.000	284.282	80.005	19.995	103.338	19.515	38.527	0.522
422.000	285.387	80.005	19.996	103.337	19.532	37.361	0.520
424.000	286.483	80.004	19.995	103.338	19.552	36.073	0.550
426.000	287.605	80.006	19.994	103.337	19.569	34.972	0.524
428.000	288.676	80.005	19.993	103.326	19.582	34.092	0.543
430.000	289.828	80.005	19.994	103.317	19.602	32.814	0.575
432.000	290.935	80.005	19.995	103.316	19.616	31.866	0.567
434.000	292.067	80.005	19.995	103.310	19.625	31.257	0.566
436.000	293.154	80.004	19.994	103.311	19.636	30.563	0.542
438.000	294.272	80.004	19.994	103.311	19.645	29.959	0.553
440.000	295.352	80.003	19.995	103.305	19.654	29.361	0.524
442.000	296.458	80.005	19.995	103.302	19.658	29.109	0.534
444.000	297.564	80.004	19.995	103.300	19.667	28.492	0.552
446.000	298.640	80.006	19.994	103.302	19.665	28.630	0.555
448.000	299.699	80.005	19.995	103.302	19.663	28.807	0.528
450.000	300.835	80.005	19.994	103.301	19.667	28.491	0.552
452.000	301.863	80.008	19.995	103.298	19.668	28.453	0.532
454.000	302.999	80.007	19.994	103.294	19.667	28.514	0.526
456.000	304.081	80.005	19.994	103.293	19.672	28.201	0.528
458.000	305.129	80.006	19.995	103.295	19.672	28.161	0.537
460.000	306.208	80.007	19.994	103.300	19.672	28.163	0.525
462.000	307.262	80.005	19.994	103.299	19.671	28.227	0.573
464.000	308.307	80.006	19.994	103.296	19.678	27.819	0.523
466.000	309.381	80.005	19.995	103.287	19.680	27.679	0.504
468.000	310.462	80.006	19.993	103.291	19.678	27.785	0.525
470.000	311.519	80.005	19.995	103.296	19.680	27.686	0.525
472.000	312.626	80.008	19.995	103.289	19.681	27.613	0.567
474.000	313.616	80.008	19.995	103.290	19.679	27.719	0.520
476.000	314.695	80.007	19.994	103.270	19.684	27.413	0.525
478.000	315.733	80.008	19.995	103.273	19.683	27.449	0.535
480.000	316.746	80.008	19.995	103.274	19.682	27.543	0.511
482.000	317.781	80.006	19.995	103.281	19.684	27.403	0.513
484.000	318.843	80.006	19.996	103.271	19.689	27.037	0.488
486.000	319.912	80.004	19.996	103.285	19.690	26.993	0.520
488.000	320.884	80.005	19.996	103.286	19.688	27.158	0.489
490.000	321.953	80.005	19.995	103.274	19.681	27.620	0.530
492.000	323.002	80.004	19.996	103.283	19.697	26.569	0.529
494.000	323.977	80.004	19.994	103.278	19.687	27.170	0.493
496.000	325.027	80.005	19.995	103.278	19.693	26.822	0.534
498.000	326.092	80.005	19.996	103.291	19.699	26.415	0.535
500.000	327.124	80.004	19.996	103.290	19.700	26.368	0.492
502.000	328.079	80.003	19.997	103.270	19.701	26.264	0.558
504.000	328.855	80.004	19.996	103.282	19.706	25.967	0.532
506.000	330.019	80.005	19.997	103.274	19.707	25.896	0.500
508.000	330.880	80.003	19.996	103.276	19.711	25.593	0.431
510.000	332.106	80.004	19.995	103.272	19.716	25.304	0.487
512.000	333.160	80.005	19.996	103.281	19.718	25.175	0.422
514.000	334.023	80.004	19.995	103.281	19.721	24.978	0.472
516.000	335.091	80.004	19.995	103.283	19.723	24.821	0.500
518.000	336.080	80.003	19.995	103.282	19.729	24.427	0.494
520.000	337.094	80.003	19.995	103.285	19.731	24.321	0.499
522.000	338.112	80.003	19.994	103.291	19.739	23.786	0.509
524.000	339.091	80.003	19.995	103.296	19.737	23.914	0.489
526.000	340.102	80.004	19.995	103.294	19.737	23.895	0.481
528.000	341.062	80.005	19.996	103.274	19.738	23.832	0.473
530.000	342.069	80.006	19.996	103.266	19.743	23.507	0.510
532.000	343.054	80.006	19.995	103.259	19.743	23.523	0.504
534.000	344.034	80.006	19.995	103.259	19.747	23.257	0.468
536.000	345.020	80.007	19.995	103.263	19.749	23.101	0.513
538.000	346.048	80.006	19.995	103.261	19.747	23.274	0.507
540.000	347.005	80.006	19.995	103.258	19.743	23.491	0.492
542.000	348.022	80.005	19.996	103.259	19.746	23.336	0.470
544.000	348.982	80.005	19.995	103.254	19.741	23.651	0.477
546.000	350.004	80.006	19.995	103.253	19.736	23.999	0.477
548.000	351.056	80.005	19.995	103.256	19.732	24.254	0.496
550.000	352.063	80.005	19.996	103.254	19.728	24.499	0.500
552.000	353.034	80.006	19.996	103.255	19.720	25.021	0.508
554.000	354.082	80.006	19.995	103.244	19.712	25.514	0.534
556.000	355.058	80.007	19.994	103.255	19.702	26.231	0.506
558.000	356.064	80.007	19.994	103.246	19.691	26.916	0.527
560.000	357.088	80.009	19.994	103.253	19.676	27.891	0.509
562.000	358.077	80.008	19.993	103.247	19.664	28.713	0.487
564.000	359.110	80.007	19.994	103.234	19.644	29.981	0.499
566.000	360.099	80.004	19.995	103.247	19.633	30.742	0.478
568.000	361.095	80.003	19.994	103.251	19.611	32.159	0.498
570.000	362.102	80.003	19.995	103.253	19.600	32.872	0.512
572.000	363.112	80.004	19.995	103.253	19.579	34.298	0.512
574.000	364.084	80.003	19.996	103.249	19.558	35.638	0.518
576.000	365.124	80.005	19.995	103.262	19.531	37.451	0.502
578.000	366.090	80.004	19.995	103.259	19.507	38.993	0.478
580.000	367.120	80.004	19.995	103.260	19.483	40.584	0.510
582.000	368.209	80.007	19.994	103.256	19.457	42.257	0.525
584.000	369.156	80.005	19.994	103.257	19.428	44.196	0.512
586.000	370.127	80.004	19.995	103.264	19.394	46.405	0.475
588.000	371.157	80.006	19.996	103.263	19.367	48.185	0.486
590.000	372.162	80.004	19.996	103.263	19.328	50.736	0.509
592.000	373.171	80.005	19.994	103.262	19.295	52.913	0.489
594.000	374.169	80.003	19.994	103.265	19.257	55.411	0.466
596.000	375.203	80.005	19.995	103.270	19.214	58.250	0.492
598.000	376.205	80.007	19.994	103.270	19.172	60.973	0.498
600.000	377.169	80.005	19.995	103.266	19.122	64.305	0.480
602.000	378.173	80.005	19.995	103.267	19.075	67.386	0.491
604.000	379.184	80.003	19.996	103.278	19.027	70.550	0.503
606.000	380.228	80.004	19.995	103.289	18.972	74.129	0.488
608.000	381.180	80.004	19.996	103.286	18.918	77.683	0.476
610.000	382.190	80.003	19.996	103.284	18.856	81.710	0.509
612.000	383.230	80.004	19.995	103.290	18.802	85.305	0.518
614.000	384.144	80.004	19.995	103.291	18.741	89.288	0.479
616.000	385.193	80.007	19.994	103.296	18.674	93.664	0.499
618.000	386.233	80.007	19.994	103.296	18.612	97.771	0.520
620.000	387.208	80.006	19.996	103.293	18.547	101.996	0.525
622.000	388.216	80.006	19.995	103.282	18.480	106.422	0.489
624.000	389.166	80.005	19.994	103.292	18.420	110.342	0.472
626.000	390.212	80.005	19.995	103.297	18.355	114.624	0.513
628.000	391.208	80.004	19.995	103.294	18.286	119.114	0.481
630.000	392.210	80.005	19.994	103.277	18.223	123.263	0.512
632.000	393.239	80.004	19.995	103.271	18.157	127.591	0.521
634.000	394.271	80.005	19.994	103.271	18.108	130.800	0.515
636.000	395.265	80.006	19.995	103.263	18.048	134.684	0.508
638.000	396.293	80.008	19.995	103.265	18.003	137.635	0.523
640.000	397.291	80.008	19.995	103.265	17.956	140.712	0.495
642.000	398.272	80.007	19.994	103.260	17.913	143.517	0.509
644.000	399.239	80.009	19.995	103.260	17.874	146.107	0.486
646.000	400.270	80.009	19.993	103.247	17.845	147.975	0.488
648.000	401.262	80.006	19.993	103.228	17.815	149.928	0.500
650.000	402.279	80.006	19.993	103.223	17.798	151.045	0.507
652.000	403.271	80.005	19.995	103.223	17.788	151.710	0.490
654.000	404.317	80.005	19.994	103.213	17.783	151.979	0.518
656.000	405.279	80.004	19.995	103.208	17.788	151.661	0.486
658.000	406.318	80.006	19.996	103.204	17.802	150.749	0.524
660.000	407.355	80.004	19.995	103.197	17.824	149.285	0.523
662.000	408.305	80.005	19.995	103.188	17.847	147.779	0.489
664.000	409.346	80.003	19.995	103.184	17.880	145.641	0.486
666.000	410.339	80.003	19.995	103.184	17.927	142.534	0.505
668.000	411.340	80.005	19.995	103.181	17.972	139.602	0.500
670.000	412.383	80.005	19.994	103.178	18.019	136.495	0.499
672.000	413.371	80.006	19.995	103.167	18.075	132.852	0.491
674.000	414.363	80.006	19.996	103.175	18.137	128.762	0.510
676.000	415.379	80.005	19.995	103.175	18.201	124.596	0.489
678.000	416.406	80.004	19.995	103.157	18.277	119.649	0.531
680.000	417.392	80.006	19.995	103.161	18.346	115.080	0.508
682.000	418.395	80.002	19.994	103.163	18.415	110.562	0.506
684.000	419.403	80.004	19.995	103.160	18.492	105.511	0.505
686.000	420.452	80.004	19.994	103.169	18.572	100.287	0.507
688.000	421.467	80.003	19.995	103.176	18.646	95.436	0.506
690.000	422.446	80.003	19.995	103.180	18.723	90.341	0.508
692.000	423.471	80.004	19.997	103.179	18.794	85.739	0.533
694.000	424.455	80.006	19.995	103.168	18.865	81.067	0.485
696.000	425.454	80.005	19.996	103.175	18.932	76.649	0.493
698.000	426.481	80.005	19.995	103.178	18.998	72.366	0.498
700.000	427.499	80.004	19.995	103.167	19.055	68.606	0.494
702.000	428.532	80.005	19.995	103.180	19.118	64.449	0.529
704.000	429.546	80.004	19.995	103.181	19.174	60.766	0.537
706.000	430.532	80.006	19.995	103.170	19.229	57.192	0.481
708.000	431.574	80.005	19.996	103.161	19.280	53.832	0.510
710.000	432.597	80.007	19.995	103.173	19.330	50.581	0.518
712.000	433.603	80.003	19.994	103.169	19.375	47.653	0.500
714.000	434.635	80.006	19.994	103.172	19.416	44.953	0.499
716.000	435.665	80.004	19.995	103.171	19.458	42.183	0.490
718.001	436.678	80.005	19.994	103.178	19.492	39.982	0.517
720.000	437.705	80.006	19.995	103.173	19.529	37.500	0.514
722.000	438.742	80.008	19.994	103.173	19.558	35.633	0.555
724.000	439.747	80.008	19.994	103.176	19.590	33.497	0.505
726.000	440.723	80.006	19.995	103.176	19.615	31.877	0.496
728.000	441.770	80.007	19.995	103.177	19.639	30.332	0.521
730.000	442.764	80.008	19.995	103.173	19.663	28.746	0.494
732.000	443.802	80.007	19.995	103.176	19.685	27.308	0.507
734.000	444.785	80.004	19.994	103.178	19.702	26.166	0.482
736.000	445.855	80.006	19.995	103.172	19.721	24.946	0.542
738.000	446.843	80.006	19.996	103.172	19.732	24.222	0.524
740.000	447.860	80.005	19.995	103.172	19.747	23.230	0.486
742.000	448.847	80.007	19.994	103.168	19.758	22.533	0.494
744.000	449.883	80.006	19.994	103.162	19.767	21.956	0.478
746.000	450.941	80.009	19.995	103.168	19.775	21.425	0.530
748.000	451.912	80.005	19.994	103.166	19.784	20.807	0.495
750.000	452.970	80.007	19.996	103.170	19.795	20.082	0.507
752.000	453.992	80.006	19.994	103.171	19.797	19.945	0.513
754.000	455.039	80.004	19.995	103.172	19.799	19.807	0.514
756.000	456.062	80.005	19.994	103.175	19.803	19.584	0.492
758.000	457.070	80.005	19.994	103.168	19.805	19.410	0.508
760.000	458.111	80.003	19.996	103.170	19.804	19.484	0.508
762.000	459.144	80.005	19.995	103.167	19.810	19.096	0.542
764.000	460.153	80.007	19.995	103.173	19.814	18.832	0.498
766.000	461.165	80.004	19.996	103.166	19.816	18.710	0.497
768.000	462.158	80.003	19.995	103.154	19.814	18.856	0.481
770.000	463.181	80.006	19.996	103.159	19.813	18.919	0.512
772.000	464.156	80.005	19.994	103.159	19.812	18.986	0.512
774.000	465.202	80.003	19.995	103.163	19.814	18.855	0.509
776.000	466.208	80.005	19.995	103.150	19.813	18.889	0.489
778.000	467.254	80.006	19.995	103.153	19.822	18.322	0.497
780.000	468.282	80.004	19.995	103.161	19.820	18.439	0.526
782.000	469.296	80.008	19.994	103.147	19.824	18.190	0.525
784.000	470.324	80.006	19.994	103.147	19.823	18.251	0.510
786.000	471.302	80.005	19.994	103.147	19.827	18.001	0.515
788.000	472.280	80.005	19.996	103.150	19.830	17.806	0.490
790.000	473.359	80.005	19.996	103.145	19.836	17.384	0.539
792.000	474.375	80.003	19.996	103.141	19.833	17.578	0.512
794.000	475.424	80.005	19.996	103.143	19.838	17.234	0.500
796.000	476.409	80.006	19.995	103.143	19.841	17.059	0.506
798.000	477.458	80.006	19.995	103.145	19.852	16.366	0.540
800.000	478.438	80.007	19.996	103.145	19.858	15.951	0.510
802.000	479.518	80.007	19.995	103.143	19.862	15.709	0.530
804.000	480.509	80.006	19.995	103.141	19.868	15.313	0.501
806.000	481.533	80.008	19.993	103.146	19.875	14.814	0.522
808.000	482.494	80.008	19.994	103.144	19.885	14.204	0.489
810.000	483.521	80.007	19.993	103.143	19.896	13.446	0.507
812.000	484.511	80.007	19.994	103.142	19.903	13.016	0.500
814.000	485.538	80.007	19.994	103.142	19.913	12.369	0.495
816.000	486.518	80.006	19.995	103.143	19.923	11.697	0.475
818.000	487.527	80.003	19.995	103.152	19.929	11.320	0.483
820.000	488.561	80.006	19.994	103.171	19.938	10.702	0.515
822.000	489.598	80.005	19.995	103.165	19.955	9.590	0.523
824.000	490.660	80.003	19.996	103.175	19.961	9.234	0.534
826.000	491.717	80.007	19.994	103.178	19.967	8.840	0.543
828.000	492.790	80.005	19.996	103.164	19.980	7.986	0.532
830.000	493.880	80.008	19.995	103.177	19.985	7.613	0.559
832.000	494.979	80.005	19.994	103.179	19.991	7.219	0.558
834.000	496.044	80.004	19.994	103.180	20.001	6.613	0.554
836.000	497.121	80.005	19.993	103.183	19.997	6.817	0.557
838.000	498.184	80.005	19.995	103.178	20.005	6.295	0.522
840.000	499.276	80.005	19.993	103.182	20.017	5.542	0.558
842.000	500.343	80.005	19.994	103.183	20.012	5.872	0.547
844.000	501.451	80.005	19.994	103.183	20.015	5.651	0.558
846.000	502.550	80.005	19.995	103.185	20.021	5.292	0.537
848.000	503.682	80.003	19.994	103.186	20.024	5.067	0.572
850.000	504.706	80.004	19.995	103.179	20.026	4.968	0.522
852.000	505.841	80.005	19.995	103.183	20.023	5.143	0.562
854.000	506.932	80.004	19.996	103.181	20.022	5.181	0.567
856.000	508.026	80.005	19.995	103.181	20.025	4.994	0.557
858.000	509.136	80.004	19.995	103.182	20.028	4.794	0.543
860.000	510.240	80.003	19.996	103.176	20.027	4.847	0.528
862.000	511.332	80.007	19.996	103.164	20.028	4.787	0.560
864.000	512.406	80.006	19.997	103.177	20.028	4.826	0.521
866.000	513.453	80.005	19.994	103.174	20.034	4.449	0.550
868.000	514.549	80.005	19.995	103.177	20.032	4.551	0.529
870.000	515.721	80.006	19.995	103.173	20.032	4.570	0.561
872.000	516.800	80.006	19.995	103.179	20.029	4.768	0.556
874.000	517.895	80.005	19.994	103.177	20.027	4.856	0.518
876.000	518.982	80.004	19.995	103.177	20.033	4.513	0.525
878.000	520.098	80.006	19.995	103.163	20.025	5.038	0.521
880.000	521.204	80.007	19.995	103.175	20.026	4.975	0.560
882.000	522.276	80.006	19.995	103.173	20.026	4.929	0.520
884.000	523.369	80.006	19.997	103.175	20.027	4.883	0.558
886.000	524.443	80.006	19.996	103.178	20.028	4.826	0.559
888.000	525.510	80.007	19.995	103.173	20.025	4.997	0.528
890.000	526.576	80.007	19.995	103.161	20.029	4.738	0.524
892.000	527.588	80.007	19.995	103.173	20.027	4.897	0.501
894.000	528.696	80.010	19.995	103.181	20.024	5.045	0.536
896.000	529.792	80.006	19.994	103.181	20.029	4.762	0.543
898.000	530.838	80.004	19.994	103.179	20.024	5.100	0.555
900.000	531.938	80.005	19.996	103.172	20.026	4.945	0.554
902.000	532.959	80.004	19.994	103.171	20.024	5.049	0.518
904.000	534.029	80.002	19.994	103.181	20.026	4.929	0.523
906.000	535.109	80.002	19.994	103.178	20.027	4.862	0.537
908.000	536.181	80.002	19.993	103.172	20.033	4.469	0.527
910.000	537.229	80.004	19.994	103.167	20.035	4.324	0.539
912.000	538.289	80.003	19.993	103.171	20.032	4.554	0.528
914.000	539.328	80.004	19.995	103.175	20.029	4.738	0.519
916.000	540.399	80.004	19.994	103.180	20.035	4.381	0.540
918.000	541.449	80.005	19.994	103.175	20.032	4.583	0.534
920.000	542.525	80.005	19.994	103.178	20.037	4.244	0.552
922.000	543.538	80.005	19.995	103.162	20.031	4.631	0.523
924.000	544.547	80.002	19.995	103.174	20.033	4.478	0.496
926.000	545.606	80.007	19.994	103.179	20.040	3.993	0.535
928.000	546.628	80.004	19.993	103.171	20.035	4.340	0.526
930.000	547.649	80.007	19.995	103.175	20.038	4.183	0.491
932.000	548.689	80.004	19.996	103.165	20.038	4.172	0.514
934.000	549.706	80.006	19.994	103.170	20.033	4.488	0.485
936.000	550.767	80.003	19.994	103.172	20.035	4.335	0.514
938.000	551.770	80.004	19.993	103.155	20.041	3.990	0.512
940.000	552.794	80.006	19.994	103.166	20.041	3.986	0.513
942.000	553.826	80.005	19.995	103.175	20.041	3.992	0.516
944.000	554.830	80.003	19.995	103.173	20.042	3.921	0.520
946.000	555.842	80.008	19.995	103.172	20.040	4.041	0.515
948.000	556.862	80.006	19.994	103.167	20.041	3.977	0.538
950.000	557.838	80.006	19.994	103.163	20.035	4.346	0.487
952.000	558.882	80.005	19.995	103.166	20.039	4.104	0.519
954.000	559.886	80.005	19.996	103.175	20.040	4.033	0.514
956.000	560.896	80.004	19.995	103.162	20.040	4.020	0.532
958.000	561.936	80.006	19.996	103.158	20.037	4.203	0.539
960.000	562.924	80.004	19.994	103.169	20.037	4.249	0.484
962.000	563.959	80.006	19.994	103.177	20.044	3.780	0.515
964.000	564.987	80.009	19.994	103.173	20.045	3.721	0.526
966.000	565.985	80.008	19.996	103.173	20.045	3.685	0.481
968.000	566.991	80.006	19.994	103.167	20.041	3.956	0.510
970.000	568.002	80.009	19.995	103.178	20.040	3.997	0.488
972.000	569.003	80.008	19.995	103.181	20.048	3.501	0.494
974.000	570.057	80.004	19.993	103.177	20.048	3.476	0.515
976.000	571.074	80.006	19.995	103.173	20.050	3.362	0.517
978.000	572.096	80.006	19.995	103.172	20.057	2.942	0.542
980.000	573.120	80.004	19.997	103.175	20.051	3.290	0.531
982.000	574.163	80.003	19.995	103.167	20.058	2.832	0.523
984.000	575.172	80.004	19.995	103.163	20.054	3.105	0.502
986.000	576.212	80.006	19.996	103.171	20.055	3.033	0.521
988.000	577.236	80.005	19.993	103.173	20.057	2.919	0.497
990.000	578.261	80.005	19.995	103.171	20.055	3.065	0.542
992.000	579.288	80.005	19.994	103.165	20.055	3.067	0.505
994.000	580.286	80.004	19.996	103.173	20.058	2.871	0.517
996.000	581.338	80.003	19.995	103.175	20.061	2.669	0.515
998.000	582.358	80.006	19.996	103.175	20.057	2.912	0.502
1000.000	583.352	80.003	19.993	103.173	20.058	2.837	0.511
1002.000	584.361	80.003	19.993	103.177	20.061	2.669	0.512
1004.000	585.377	80.005	19.995	103.170	20.064	2.453	0.500
1006.000	586.443	80.005	19.995	103.182	20.061	2.667	0.539
1008.000	587.443	80.004	19.995	103.181	20.063	2.530	0.511
1010.000	588.474	80.003	19.995	103.175	20.055	3.054	0.531
1012.000	589.503	80.004	19.996	103.176	20.064	2.451	0.530
1014.000	590.553	80.006	19.996	103.177	20.054	3.133	0.509
1016.000	591.581	80.004	19.994	103.168	20.056	3.005	0.520
1018.000	592.582	80.006	19.995	103.178	20.055	3.074	0.516
1020.000	593.610	80.004	19.994	103.170	20.061	2.617	0.544
1022.000	594.601	80.005	19.994	103.169	20.062	2.560	0.503
1024.000	595.621	80.007	19.995	103.171	20.064	2.454	0.505
1026.000	596.642	80.004	19.994	103.174	20.059	2.812	0.521
1027.999	597.679	80.005	19.994	103.175	20.062	2.608	0.544
1029.999	598.671	80.005	19.993	103.181	20.064	2.465	0.507
1031.999	599.667	80.005	19.994	103.180	20.071	1.996	0.488
1033.999	600.710	80.006	19.994	103.167	20.060	2.685	0.512
1035.999	601.717	80.005	19.996	103.164	20.065	2.383	0.506
1037.999	602.721	80.006	19.996	103.176	20.057	2.921	0.482
1039.999	603.725	80.004	19.994	103.162	20.065	2.362	0.498
1041.999	604.714	80.005	19.995	103.164	20.058	2.822	0.491
1043.999	605.710	80.006	19.995	103.170	20.065	2.360	0.468
1046.001	606.707	80.006	19.996	103.175	20.069	2.124	0.485
1048.000	607.714	80.005	19.995	103.182	20.064	2.451	0.503
1049.999	608.760	80.009	19.995	103.178	20.067	2.278	0.504
1051.999	609.789	80.006	19.993	103.172	20.064	2.442	0.536
1053.999	610.763	80.010	19.995	103.164	20.070	2.033	0.497
1056.000	611.760	80.007	19.994	103.152	20.068	2.204	0.518
1057.999	612.764	80.004	19.993	103.160	20.071	1.998	0.530
1059.999	613.803	80.006	19.995	103.174	20.068	2.188	0.506
1061.999	614.835	80.005	19.995	103.171	20.073	1.889	0.518
1064.000	615.847	80.002	19.995	103.171	20.077	1.580	0.518
1066.000	616.868	80.005	19.994	103.161	20.071	1.985	0.488
1067.999	617.859	80.004	19.994	103.164	20.076	1.662	0.495
1069.999	618.868	80.003	19.995	103.170	20.073	1.854	0.520
1071.999	619.902	80.001	19.996	103.153	20.068	2.190	0.512
1073.999	620.914	80.006	19.995	103.154	20.074	1.814	0.490
1075.999	621.899	80.004	19.996	103.148	20.068	2.171	0.515
1077.999	622.886	80.005	19.996	103.150	20.071	1.994	0.501
1079.999	623.905	80.004	19.995	103.148	20.073	1.874	0.521
1082.000	624.906	80.004	19.996	103.144	20.073	1.873	0.524
1083.999	625.872	80.005	19.994	103.153	20.073	1.885	0.481
1085.999	626.913	80.008	19.994	103.157	20.070	2.069	0.505
1088.000	627.928	80.004	19.995	103.156	20.070	2.082	0.492
1089.999	628.926	80.002	19.994	103.151	20.068	2.207	0.488
1091.999	629.917	80.002	19.994	103.159	20.069	2.113	0.502
1094.001	630.947	80.006	19.995	103.165	20.073	1.876	0.493
1095.999	631.971	80.004	19.994	103.155	20.070	2.071	0.504
1098.000	632.976	80.004	19.994	103.160	20.074	1.801	0.515
1099.999	633.987	80.006	19.994	103.170	20.071	2.012	0.533
1101.999	634.971	80.003	19.994	103.164	20.071	1.972	0.474
1103.999	636.043	80.003	19.993	103.154	20.075	1.748	0.539
1105.999	637.048	80.005	19.993	103.165	20.076	1.669	0.509
1107.999	638.017	80.001	19.994	103.153	20.077	1.592	0.498
1109.999	639.107	80.004	19.993	103.165	20.077	1.585	0.540
1111.999	640.127	80.005	19.994	103.159	20.072	1.908	0.513
1113.999	641.122	80.003	19.993	103.153	20.074	1.824	0.532
1115.999	642.113	80.005	19.994	103.157	20.077	1.573	0.479
1118.000	643.184	80.004	19.994	103.159	20.076	1.681	0.534
1120.000	644.210	80.006	19.995	103.160	20.071	2.008	0.500
1122.000	645.204	80.007	19.995	103.168	20.071	2.008	0.510
1123.999	646.200	80.006	19.995	103.164	20.080	1.405	0.478
1125.999	647.210	80.005	19.994	103.161	20.075	1.706	0.518
1127.999	648.192	80.004	19.995	103.151	20.075	1.722	0.496
1129.999	649.231	80.006	19.995	103.149	20.075	1.751	0.526
1131.999	650.273	80.005	19.994	103.155	20.078	1.506	0.535
1133.999	651.247	80.004	19.995	103.141	20.073	1.829	0.529
1135.999	652.257	80.006	19.993	103.146	20.075	1.728	0.466
1137.999	653.269	80.011	19.994	103.143	20.077	1.569	0.482
1140.001	654.263	80.008	19.994	103.152	20.075	1.747	0.506
1141.999	655.249	80.005	19.994	103.149	20.076	1.696	0.510
1144.000	656.216	80.006	19.994	103.141	20.077	1.615	0.501
1145.999	657.197	80.004	19.994	103.144	20.074	1.783	0.475
1147.999	658.156	80.005	19.994	103.144	20.078	1.540	0.474
1149.999	659.124	80.004	19.994	103.144	20.078	1.562	0.478
1151.999	660.089	80.006	19.994	103.148	20.078	1.567	0.472
1153.999	661.023	80.002	19.995	103.147	20.078	1.528	0.435
1155.999	662.005	80.006	19.995	103.149	20.080	1.374	0.465
1157.999	662.920	80.002	19.994	103.146	20.079	1.494	0.486
1160.000	663.876	80.005	19.995	103.145	20.079	1.496	0.488
1161.999	664.837	80.005	19.995	103.146	20.080	1.406	0.471
1163.999	665.762	80.005	19.995	103.145	20.076	1.644	0.475
1165.999	666.675	80.005	19.995	103.146	20.079	1.465	0.486
1167.999	667.633	80.003	19.995	103.145	20.080	1.389	0.502
1170.000	668.515	80.005	19.994	103.147	20.078	1.508	0.449
1171.999	669.472	80.005	19.994	103.150	20.077	1.621	0.470
1173.999	670.411	80.003	19.996	103.144	20.080	1.398	0.472
1175.999	671.402	80.002	19.995	103.146	20.076	1.681	0.470
1178.000	672.350	80.003	19.994	103.151	20.078	1.512	0.492
1179.999	673.282	80.003	19.994	103.150	20.077	1.610	0.492
1181.999	674.279	80.004	19.994	103.148	20.076	1.651	0.514
1183.999	675.231	80.005	19.994	103.149	20.079	1.476	0.480
1186.000	676.190	80.006	19.993	103.144	20.079	1.492	0.465
1187.999	677.169	80.004	19.995	103.141	20.076	1.637	0.496
1189.999	678.153	80.006	19.995	103.140	20.083	1.194	0.489
1191.999	679.052	80.006	19.994	103.143	20.080	1.394	0.493
1194.000	679.983	80.005	19.994	103.141	20.080	1.430	0.465
1196.000	680.971	80.006	19.995	103.143	20.082	1.251	0.492
1198.000	681.904	80.007	19.994	103.141	20.077	1.572	0.496
1200.000	682.876	80.006	19.994	103.143	20.080	1.371	0.491
1202.000	683.845	80.005	19.994	103.146	20.077	1.622	0.476
1204.000	684.828	80.006	19.995	103.145	20.075	1.703	0.507
1205.999	685.834	80.006	19.995	103.145	20.081	1.326	0.507
1208.000	686.738	80.007	19.996	103.146	20.079	1.496	0.473
1209.999	687.727	80.008	19.995	103.149	20.076	1.637	0.473
1211.999	688.701	80.008	19.994	103.145	20.076	1.647	0.491
1213.999	689.683	80.008	19.994	103.144	20.077	1.599	0.517
1215.999	690.681	80.006	19.993	103.144	20.074	1.767	0.502
1218.001	691.637	80.009	19.994	103.145	20.074	1.826	0.512
1219.999	692.653	80.008	19.995	103.145	20.074	1.806	0.510
1221.999	693.576	80.009	19.995	103.143	20.077	1.592	0.478
1224.000	694.575	80.009	19.995	103.140	20.074	1.821	0.483
1225.999	695.609	80.005	19.995	103.140	20.078	1.546	0.490
1227.999	696.592	80.005	19.995	103.144	20.075	1.763	0.512
1229.999	697.565	80.004	19.995	103.144	20.076	1.685	0.510
1231.999	698.604	80.003	19.996	103.145	20.070	2.074	0.556
1233.999	699.560	80.004	19.995	103.145	20.069	2.104	0.507
1236.000	700.566	80.004	19.995	103.145	20.074	1.817	0.519
1238.000	701.556	80.005	19.994	103.145	20.077	1.608	0.482
1239.999	702.573	80.005	19.994	103.147	20.076	1.674	0.513
1242.000	703.569	80.005	19.995	103.147	20.076	1.663	0.509
1243.999	704.562	80.005	19.995	103.146	20.071	1.965	0.523
1246.000	705.515	80.006	19.994	103.144	20.072	1.933	0.472
1247.999	706.522	80.006	19.996	103.145	20.074	1.806	0.521
1249.999	707.551	80.006	19.995	103.146	20.073	1.874	0.503
1251.999	708.543	80.005	19.995	103.141	20.077	1.578	0.498
1254.000	709.546	80.005	19.995	103.150	20.072	1.906	0.525
1256.000	710.594	80.003	19.996	103.149	20.076	1.637	0.502
1257.999	711.589	80.005	19.996	103.142	20.073	1.851	0.519
1260.000	712.571	80.003	19.996	103.142	20.071	1.976	0.510
1261.999	713.564	80.003	19.996	103.142	20.074	1.824	0.507
1263.999	714.580	80.005	19.995	103.146	20.073	1.835	0.513
1265.999	715.617	80.006	19.994	103.145	20.075	1.728	0.536
1268.000	716.657	80.004	19.996	103.145	20.071	1.992	0.519
1269.999	717.626	80.005	19.994	103.147	20.069	2.122	0.484
1271.999	718.640	80.007	19.995	103.147	20.071	2.011	0.493
1273.999	719.671	80.005	19.995	103.143	20.069	2.092	0.471
1275.999	720.680	80.008	19.993	103.145	20.075	1.703	0.507
1277.999	721.717	80.005	19.994	103.147	20.071	2.004	0.515
1279.999	722.736	80.008	19.994	103.143	20.074	1.795	0.509
1281.999	723.740	80.004	19.994	103.144	20.075	1.737	0.528
1283.999	724.712	80.006	19.994	103.139	20.071	2.022	0.499
1285.999	725.715	80.005	19.994	103.145	20.072	1.933	0.496
1287.999	726.768	80.006	19.994	103.145	20.071	2.003	0.499
1289.999	727.748	80.006	19.994	103.141	20.074	1.781	0.500
1291.999	728.729	80.006	19.994	103.145	20.075	1.744	0.509
1293.999	729.736	80.008	19.995	103.143	20.076	1.679	0.518
1295.999	730.708	80.006	19.994	103.145	20.074	1.806	0.486
1297.999	731.648	80.007	19.993	103.147	20.072	1.929	0.470
1299.999	732.674	80.007	19.993	103.144	20.075	1.721	0.519
1301.999	733.668	80.005	19.993	103.151	20.074	1.795	0.524
1303.999	734.671	80.007	19.993	103.147	20.072	1.908	0.514
1306.000	735.652	80.006	19.994	103.143	20.074	1.828	0.508
1308.000	736.616	80.006	19.994	103.142	20.075	1.710	0.476
1310.000	737.626	80.005	19.993	103.144	20.072	1.901	0.479
1311.999	738.633	80.007	19.994	103.140	20.075	1.751	0.508
1314.001	739.547	80.006	19.995	103.138	20.075	1.749	0.465
1315.999	740.530	80.005	19.996	103.140	20.074	1.794	0.484
1317.999	741.496	80.004	19.996	103.137	20.072	1.945	0.480
1320.000	742.444	80.005	19.994	103.138	20.075	1.719	0.442
1321.999	743.406	80.005	19.995	103.136	20.068	2.197	0.450
1323.000	743.939	80.005	19.995	103.138	20.073	1.840	0.519