File: 01_Data/Rebond_Foam_Carpet_Pad/MCC/Rebond_Foam_Carpet_Pad_MCC_30K_min_211101_R2.txt
Sample ID:	C:\MCC\MCC Cal\Test\Rebond_Foam_Carpet_Pad_MCC_30K_min_211101_R2.txt
Sample Weight (mg):	4.89
Heating Rate (C/s):	0.5
Combustor Temp (C):	900
N2 Flow Rate (cc/min):	80
O2 Flow Rate (cc/min):	20
Calibration File:	C:\MCC\MCC Cal\Coeff1 JN10440_30_210304.txt.txt
T Correction Coefficients:	0	1.024463	0
Time Shift (s):	14
*
Time (s)	Temperature (C)	N2 flow rate (cc/min)	O2 flow rate (cc/min)	Flow Rate (cc/min)	Oxygen (%)	HRR (W/g)	Heating rate (C/s)
-0.001	107.862	80.001	19.994	102.992	20.343	-0.262	-0.004
2.000	107.880	80.000	19.996	102.994	20.340	-0.097	0.020
4.000	107.875	80.003	19.994	103.001	20.338	0.005	0.028
6.000	107.876	80.004	19.995	102.986	20.338	0.027	-0.033
8.000	107.895	80.003	19.993	102.992	20.341	-0.161	0.006
10.000	107.861	80.002	19.993	103.002	20.339	-0.038	0.019
11.999	107.871	80.007	19.994	102.996	20.339	-0.038	-0.005
13.999	107.854	80.000	19.993	102.993	20.337	0.103	0.000
16.000	107.864	80.001	19.994	103.004	20.335	0.228	0.019
18.000	107.833	79.984	19.997	103.017	20.334	0.298	-0.012
20.000	107.861	79.999	19.994	103.029	20.329	0.639	0.042
22.000	107.914	80.002	19.994	103.051	20.327	0.773	0.036
24.000	107.885	79.998	19.994	103.078	20.328	0.715	-0.011
26.000	107.951	80.003	19.994	103.098	20.324	0.950	0.006
28.000	108.028	80.004	19.994	103.095	20.319	1.299	0.028
30.000	108.135	79.997	19.995	103.100	20.318	1.373	0.052
32.000	108.279	79.999	19.995	103.116	20.315	1.543	0.050
33.999	108.413	80.000	19.994	103.126	20.315	1.567	0.081
35.999	108.590	79.999	19.996	103.124	20.313	1.684	0.117
37.999	108.768	80.006	19.994	103.121	20.313	1.703	0.083
40.000	108.907	79.995	19.995	103.136	20.312	1.726	0.074
41.999	109.125	79.999	19.994	103.155	20.307	2.066	0.101
43.999	109.348	79.996	19.996	103.159	20.307	2.075	0.095
45.999	109.632	80.005	19.992	103.188	20.304	2.288	0.136
48.000	109.932	79.992	19.994	103.201	20.301	2.456	0.175
49.999	110.240	79.993	19.993	103.186	20.303	2.368	0.154
52.001	110.566	79.997	19.993	103.180	20.299	2.586	0.168
53.999	110.905	79.990	19.995	103.185	20.297	2.729	0.169
55.999	111.309	79.995	19.993	103.193	20.298	2.669	0.203
57.999	111.727	79.991	19.995	103.194	20.299	2.625	0.220
59.999	112.080	80.000	19.994	103.198	20.296	2.784	0.184
62.000	112.496	80.004	19.993	103.201	20.295	2.880	0.190
64.000	113.006	79.990	19.995	103.190	20.296	2.836	0.234
66.001	113.474	79.999	19.995	103.189	20.297	2.753	0.256
67.999	113.957	79.996	19.994	103.203	20.295	2.860	0.264
69.999	114.408	80.004	19.994	103.214	20.289	3.282	0.250
71.999	114.929	79.993	19.995	103.213	20.297	2.750	0.259
73.999	115.465	79.991	19.995	103.221	20.292	3.091	0.258
76.000	116.000	80.002	19.994	103.220	20.292	3.090	0.253
77.999	116.579	79.994	19.996	103.224	20.294	2.959	0.274
79.999	117.163	80.005	19.993	103.226	20.288	3.336	0.272
81.999	117.807	80.000	19.993	103.250	20.290	3.199	0.309
83.999	118.396	79.984	19.996	103.231	20.285	3.504	0.322
86.000	119.054	80.021	19.991	103.234	20.284	3.581	0.298
87.999	119.747	80.011	19.992	103.263	20.283	3.683	0.327
89.999	120.425	80.002	19.993	103.251	20.284	3.599	0.333
91.999	121.144	79.994	19.993	103.233	20.282	3.715	0.358
93.999	121.752	79.988	19.996	103.254	20.285	3.557	0.357
95.999	122.574	80.001	19.995	103.256	20.284	3.579	0.385
97.999	123.251	79.971	19.997	103.250	20.282	3.702	0.392
99.999	123.999	79.999	19.994	103.254	20.281	3.800	0.376
101.999	124.807	79.994	19.995	103.255	20.281	3.765	0.425
103.999	125.578	80.007	19.994	103.257	20.282	3.716	0.418
105.999	126.367	79.977	19.995	103.267	20.282	3.698	0.407
107.999	127.165	80.014	19.992	103.268	20.277	4.049	0.401
109.999	127.924	80.007	19.993	103.265	20.277	4.026	0.402
112.000	128.760	79.995	19.995	103.261	20.278	3.999	0.404
113.999	129.598	80.004	19.995	103.242	20.280	3.859	0.413
115.999	130.399	80.013	19.993	103.240	20.279	3.904	0.411
117.999	131.217	79.994	19.995	103.256	20.282	3.756	0.438
119.999	132.093	80.003	19.993	103.262	20.276	4.129	0.412
122.000	132.885	79.982	19.996	103.259	20.276	4.153	0.388
123.999	133.742	80.002	19.994	103.258	20.277	4.054	0.409
126.000	134.631	79.983	19.996	103.258	20.275	4.197	0.423
127.999	135.479	79.985	19.996	103.246	20.274	4.240	0.418
130.000	136.413	80.007	19.995	103.263	20.276	4.093	0.456
132.000	137.240	80.003	19.998	103.257	20.277	4.036	0.441
134.000	138.173	80.012	19.994	103.232	20.277	4.043	0.479
136.000	139.024	79.987	19.996	103.253	20.271	4.452	0.417
138.000	139.953	80.000	19.994	103.236	20.274	4.285	0.482
140.000	140.841	79.973	19.998	103.254	20.274	4.275	0.465
142.000	141.774	79.984	19.994	103.233	20.271	4.419	0.443
144.000	142.679	80.019	19.992	103.258	20.270	4.537	0.470
146.000	143.652	80.004	19.994	103.248	20.267	4.727	0.464
148.000	144.581	79.999	19.994	103.247	20.271	4.475	0.462
150.000	145.526	80.004	19.993	103.249	20.269	4.612	0.430
152.000	146.436	80.015	19.993	103.237	20.268	4.640	0.443
154.000	147.436	79.997	19.995	103.247	20.265	4.835	0.493
156.000	148.343	80.002	19.993	103.248	20.268	4.632	0.477
158.000	149.284	79.997	19.995	103.256	20.264	4.944	0.464
160.000	150.261	80.003	19.992	103.234	20.266	4.784	0.469
162.000	151.228	80.011	19.993	103.246	20.266	4.811	0.461
164.000	152.175	80.004	19.993	103.257	20.263	4.976	0.493
166.000	153.141	80.002	19.993	103.236	20.264	4.940	0.490
168.000	154.069	80.003	19.993	103.243	20.265	4.878	0.475
170.000	155.049	80.013	19.993	103.246	20.258	5.290	0.485
172.000	155.984	80.000	19.993	103.241	20.261	5.079	0.494
174.000	156.988	80.009	19.993	103.235	20.260	5.180	0.456
176.000	157.945	80.005	19.993	103.232	20.258	5.306	0.474
178.000	158.932	79.967	19.996	103.232	20.257	5.397	0.481
180.000	159.898	80.004	19.992	103.226	20.257	5.395	0.495
182.000	160.902	80.006	19.994	103.244	20.255	5.485	0.502
184.000	161.828	80.001	19.993	103.241	20.251	5.780	0.472
186.000	162.808	80.000	19.993	103.226	20.252	5.682	0.504
188.000	163.784	79.998	19.993	103.239	20.250	5.843	0.456
190.000	164.765	80.004	19.993	103.231	20.250	5.830	0.505
192.000	165.759	80.000	19.995	103.226	20.249	5.912	0.509
194.000	166.728	80.001	19.995	103.229	20.244	6.207	0.507
196.000	167.664	80.003	19.995	103.224	20.249	5.869	0.456
198.000	168.636	80.017	19.991	103.222	20.243	6.285	0.467
200.000	169.611	79.988	19.995	103.221	20.244	6.232	0.509
202.000	170.615	79.992	19.994	103.223	20.241	6.405	0.478
204.000	171.607	79.990	19.992	103.233	20.242	6.337	0.511
206.000	172.537	80.012	19.995	103.240	20.238	6.637	0.464
208.000	173.478	79.998	19.994	103.221	20.235	6.831	0.511
210.000	174.484	80.010	19.994	103.214	20.232	7.011	0.499
212.000	175.395	79.995	19.995	103.229	20.230	7.151	0.461
214.000	176.400	80.004	19.995	103.216	20.227	7.325	0.498
216.000	177.383	79.996	19.996	103.217	20.224	7.536	0.483
218.000	178.391	79.998	19.992	103.226	20.225	7.477	0.509
220.000	179.343	79.998	19.995	103.206	20.219	7.860	0.440
222.000	180.333	80.007	19.994	103.203	20.219	7.847	0.481
224.000	181.280	79.999	19.995	103.218	20.215	8.142	0.483
226.000	182.245	79.998	19.994	103.215	20.217	7.981	0.495
228.000	183.227	80.004	19.994	103.216	20.214	8.228	0.505
230.000	184.191	80.001	19.994	103.214	20.211	8.371	0.439
232.000	185.189	80.002	19.993	103.214	20.209	8.514	0.509
234.000	186.183	79.997	19.993	103.214	20.209	8.556	0.488
236.000	187.201	80.000	19.994	103.214	20.206	8.714	0.499
238.000	188.175	80.003	19.992	103.210	20.202	9.021	0.484
240.000	189.208	79.999	19.994	103.212	20.199	9.206	0.524
242.000	190.180	80.001	19.994	103.214	20.197	9.339	0.505
244.000	191.142	80.003	19.993	103.209	20.195	9.437	0.454
246.000	192.148	80.001	19.993	103.198	20.191	9.696	0.507
248.000	193.166	80.000	19.994	103.198	20.191	9.692	0.509
250.000	194.154	80.001	19.994	103.201	20.193	9.577	0.518
252.000	195.121	80.001	19.994	103.204	20.186	10.033	0.464
254.000	196.111	80.001	19.994	103.207	20.184	10.177	0.516
256.000	197.099	80.003	19.993	103.200	20.181	10.370	0.489
258.000	198.119	80.003	19.992	103.213	20.177	10.658	0.500
260.000	199.099	80.002	19.993	103.194	20.175	10.739	0.477
262.000	200.121	80.002	19.994	103.201	20.168	11.226	0.488
264.000	201.109	80.001	19.999	103.195	20.173	10.918	0.519
266.000	202.084	80.004	19.995	103.204	20.168	11.229	0.504
268.000	203.103	80.004	19.994	103.198	20.168	11.246	0.463
270.000	204.107	79.999	19.993	103.192	20.159	11.848	0.523
272.000	205.048	80.002	19.993	103.188	20.153	12.245	0.482
274.000	206.060	80.006	19.991	103.188	20.151	12.340	0.511
276.000	207.017	79.985	19.994	103.192	20.151	12.380	0.475
278.000	208.075	80.013	19.992	103.190	20.146	12.682	0.518
280.000	209.047	80.004	19.993	103.186	20.142	12.965	0.467
282.000	210.018	80.004	19.994	103.195	20.142	12.936	0.519
284.000	211.032	80.012	19.990	103.205	20.140	13.055	0.509
286.000	212.026	80.000	19.995	103.186	20.138	13.201	0.492
288.000	213.006	79.999	19.996	103.193	20.132	13.606	0.518
290.000	214.003	80.000	19.996	103.186	20.130	13.715	0.507
292.000	214.968	79.995	20.002	103.195	20.121	14.347	0.480
294.000	215.992	80.000	19.996	103.193	20.124	14.102	0.516
296.000	216.940	80.003	19.991	103.184	20.118	14.494	0.494
298.000	217.951	80.001	19.994	103.194	20.116	14.684	0.511
300.000	218.993	80.005	19.994	103.191	20.108	15.183	0.535
302.000	219.941	79.999	19.992	103.191	20.101	15.635	0.448
304.000	220.927	80.001	19.993	103.203	20.102	15.582	0.498
306.000	221.936	80.002	19.993	103.195	20.090	16.362	0.507
308.000	222.946	79.999	19.995	103.191	20.090	16.372	0.502
310.000	223.957	80.001	19.994	103.193	20.086	16.641	0.487
312.000	224.915	80.004	19.993	103.195	20.079	17.113	0.489
314.000	225.914	80.004	19.994	103.190	20.073	17.514	0.513
316.000	226.894	80.001	19.994	103.195	20.068	17.796	0.472
318.000	227.881	80.004	19.994	103.198	20.062	18.238	0.480
320.000	228.851	79.998	19.995	103.192	20.055	18.650	0.498
322.000	229.855	80.000	19.996	103.198	20.054	18.761	0.464
324.000	230.841	80.001	19.996	103.194	20.049	19.051	0.492
326.000	231.854	80.000	19.994	103.193	20.040	19.681	0.518
328.000	232.842	79.998	19.994	103.193	20.034	20.088	0.520
330.000	233.870	80.002	19.994	103.200	20.034	20.086	0.503
332.000	234.820	80.001	19.993	103.190	20.026	20.576	0.500
334.000	235.840	80.001	19.992	103.194	20.021	20.939	0.507
336.000	236.810	80.006	19.990	103.202	20.015	21.321	0.496
338.000	237.799	80.001	19.992	103.194	20.004	22.033	0.509
340.000	238.776	80.003	19.993	103.199	19.998	22.412	0.501
342.000	239.750	80.003	19.993	103.192	19.987	23.155	0.503
344.000	240.731	80.004	19.996	103.187	19.983	23.427	0.493
346.000	241.734	80.006	19.995	103.189	19.974	24.028	0.503
348.000	242.672	79.998	20.002	103.194	19.964	24.658	0.460
350.000	243.698	79.999	19.994	103.195	19.960	24.954	0.506
352.000	244.652	80.002	19.994	103.189	19.950	25.592	0.523
354.000	245.665	80.004	19.992	103.192	19.939	26.293	0.478
356.000	246.629	80.002	19.994	103.197	19.929	26.976	0.501
358.000	247.587	80.004	19.994	103.197	19.919	27.610	0.484
360.000	248.545	79.999	19.999	103.204	19.911	28.185	0.512
362.000	249.555	80.003	19.991	103.207	19.897	29.063	0.514
364.000	250.584	80.000	19.996	103.205	19.890	29.573	0.500
366.000	251.573	80.003	19.992	103.229	19.876	30.435	0.518
368.000	252.516	80.003	19.993	103.217	19.866	31.150	0.492
370.000	253.508	80.002	19.990	103.220	19.855	31.825	0.483
372.000	254.478	80.003	19.995	103.228	19.846	32.447	0.484
374.000	255.476	80.003	19.989	103.224	19.832	33.398	0.530
376.000	256.407	79.996	19.992	103.230	19.822	34.019	0.467
378.000	257.433	80.001	19.993	103.232	19.805	35.141	0.488
380.000	258.367	79.996	19.996	103.234	19.795	35.804	0.484
382.000	259.356	80.002	19.992	103.232	19.784	36.553	0.474
384.000	260.314	79.997	19.994	103.232	19.768	37.572	0.487
386.000	261.283	80.000	19.995	103.242	19.755	38.477	0.487
388.000	262.227	80.000	19.994	103.234	19.740	39.429	0.502
390.000	263.234	79.998	19.995	103.238	19.726	40.369	0.530
392.000	264.167	80.002	19.995	103.246	19.712	41.275	0.455
394.000	265.160	80.002	19.995	103.244	19.701	41.983	0.502
396.000	266.083	80.004	19.993	103.246	19.684	43.127	0.458
398.000	267.039	80.003	19.994	103.258	19.672	43.894	0.493
400.000	267.980	80.002	19.993	103.257	19.662	44.591	0.467
402.000	268.968	80.002	19.994	103.247	19.648	45.481	0.489
404.000	269.901	80.002	19.994	103.272	19.633	46.467	0.470
406.000	270.894	80.002	19.993	103.266	19.624	47.101	0.506
408.000	271.893	80.000	19.994	103.268	19.615	47.662	0.522
410.000	272.842	80.001	19.995	103.269	19.601	48.580	0.490
412.000	273.799	80.001	19.994	103.268	19.592	49.183	0.499
414.000	274.738	80.000	19.997	103.270	19.585	49.675	0.462
416.000	275.734	80.001	19.995	103.275	19.576	50.240	0.495
418.000	276.721	80.001	19.995	103.279	19.568	50.749	0.505
420.000	277.684	80.002	19.996	103.275	19.562	51.138	0.467
422.000	278.666	80.002	19.994	103.274	19.564	51.042	0.482
424.000	279.651	80.003	19.994	103.273	19.567	50.823	0.505
426.000	280.641	80.005	19.994	103.282	19.570	50.630	0.500
428.000	281.653	80.004	19.994	103.273	19.577	50.162	0.510
430.000	282.589	80.002	19.994	103.267	19.594	49.048	0.464
432.000	283.573	80.001	19.994	103.270	19.609	48.044	0.498
434.000	284.591	80.000	19.994	103.270	19.627	46.906	0.506
436.000	285.569	80.001	19.993	103.270	19.645	45.706	0.487
438.000	286.573	80.000	19.994	103.266	19.662	44.578	0.501
440.000	287.589	80.001	19.993	103.282	19.678	43.526	0.521
442.000	288.552	80.001	19.993	103.271	19.697	42.243	0.486
444.000	289.549	80.001	19.995	103.269	19.718	40.901	0.498
446.000	290.578	80.000	19.995	103.261	19.734	39.803	0.475
448.000	291.611	80.000	19.995	103.268	19.752	38.663	0.499
450.000	292.627	80.000	19.993	103.264	19.767	37.625	0.495
452.000	293.612	80.002	19.994	103.248	19.786	36.415	0.501
454.000	294.645	80.002	19.993	103.236	19.799	35.570	0.513
456.000	295.635	80.001	19.994	103.245	19.812	34.708	0.493
458.000	296.690	80.002	19.994	103.238	19.825	33.836	0.498
460.000	297.689	80.003	19.994	103.243	19.834	33.213	0.492
462.000	298.735	80.001	19.994	103.235	19.846	32.419	0.538
464.000	299.751	80.001	19.993	103.226	19.854	31.885	0.514
466.000	300.791	80.002	19.994	103.227	19.860	31.516	0.516
468.000	301.803	80.000	19.994	103.227	19.866	31.104	0.522
470.000	302.819	80.000	19.993	103.227	19.872	30.709	0.508
472.000	303.852	80.000	19.994	103.226	19.875	30.501	0.508
474.000	304.872	80.002	19.994	103.232	19.882	30.083	0.519
476.000	305.888	80.001	19.994	103.226	19.884	29.924	0.469
478.000	306.940	80.002	19.995	103.225	19.883	30.004	0.551
480.000	307.915	80.002	19.994	103.227	19.888	29.674	0.530
482.000	308.962	80.003	19.995	103.226	19.892	29.418	0.508
484.000	309.994	80.004	19.995	103.223	19.895	29.238	0.539
486.000	311.016	80.004	19.994	103.212	19.897	29.113	0.532
488.000	312.078	80.003	19.995	103.227	19.896	29.172	0.518
490.000	313.157	80.004	19.995	103.219	19.895	29.237	0.505
492.000	314.156	80.003	19.995	103.226	19.898	28.990	0.510
494.000	315.189	80.002	19.994	103.226	19.894	29.273	0.524
496.000	316.211	80.002	19.994	103.222	19.898	28.988	0.529
498.000	317.249	80.003	19.996	103.235	19.894	29.295	0.516
500.000	318.305	80.002	19.993	103.229	19.893	29.362	0.530
502.000	319.363	80.002	19.995	103.237	19.892	29.389	0.495
504.000	320.383	80.002	19.996	103.228	19.891	29.461	0.495
506.000	321.213	80.003	19.995	103.227	19.892	29.442	0.264
508.000	322.448	80.003	19.994	103.229	19.892	29.393	0.422
510.000	323.355	80.002	19.994	103.229	19.891	29.478	0.456
512.000	324.489	80.004	19.994	103.232	19.890	29.524	0.506
514.000	325.514	80.002	19.995	103.225	19.887	29.724	0.510
516.000	326.528	80.001	19.995	103.228	19.893	29.339	0.543
518.000	327.531	80.000	19.995	103.235	19.895	29.239	0.503
520.000	328.584	79.999	19.994	103.228	19.895	29.218	0.528
522.000	329.584	80.002	19.995	103.229	19.892	29.434	0.506
524.000	330.607	80.001	19.994	103.229	19.894	29.265	0.518
526.000	331.641	80.002	19.994	103.230	19.897	29.078	0.517
528.000	332.660	80.002	19.995	103.231	19.894	29.259	0.513
530.000	333.716	80.002	19.993	103.231	19.895	29.190	0.535
532.000	334.802	80.002	19.993	103.222	19.893	29.372	0.533
534.000	335.844	80.001	19.995	103.229	19.893	29.343	0.538
536.000	336.832	80.002	19.995	103.229	19.895	29.234	0.510
538.000	337.907	80.002	19.994	103.228	19.895	29.193	0.535
540.000	338.895	80.003	19.994	103.224	19.891	29.504	0.515
542.000	339.910	80.002	19.993	103.231	19.893	29.349	0.516
544.000	340.982	80.001	19.994	103.222	19.893	29.372	0.519
546.000	341.938	80.002	19.994	103.216	19.893	29.339	0.469
548.000	342.965	80.001	19.994	103.219	19.894	29.253	0.488
550.000	343.962	80.001	19.994	103.220	19.892	29.443	0.487
552.000	344.979	80.000	19.994	103.218	19.888	29.657	0.499
554.000	345.998	80.001	19.994	103.223	19.887	29.725	0.521
556.000	347.009	80.002	19.993	103.213	19.883	29.985	0.524
558.000	347.990	80.003	19.995	103.222	19.887	29.762	0.475
560.000	349.021	80.003	19.992	103.219	19.878	30.346	0.494
562.000	350.052	80.003	19.994	103.215	19.873	30.647	0.498
564.000	351.102	80.002	19.994	103.201	19.871	30.792	0.501
566.000	352.090	80.004	19.992	103.209	19.869	30.929	0.524
568.000	353.142	80.002	19.993	103.200	19.856	31.756	0.546
570.000	354.148	80.002	19.994	103.214	19.850	32.176	0.506
572.000	355.155	80.003	19.994	103.196	19.841	32.771	0.528
574.000	356.132	80.001	19.994	103.196	19.830	33.483	0.494
576.000	357.148	80.001	19.994	103.191	19.818	34.248	0.511
578.000	358.214	80.001	19.994	103.191	19.809	34.856	0.513
580.000	359.194	80.002	19.994	103.196	19.796	35.697	0.491
582.000	360.196	80.001	19.994	103.195	19.783	36.547	0.486
584.000	361.198	80.002	19.994	103.190	19.769	37.518	0.493
586.000	362.169	80.002	19.994	103.190	19.755	38.451	0.480
588.000	363.162	80.004	19.993	103.193	19.733	39.864	0.483
590.000	364.180	80.002	19.995	103.201	19.715	41.069	0.487
592.000	365.159	80.004	19.994	103.195	19.692	42.589	0.523
594.000	366.139	80.005	19.994	103.186	19.672	43.869	0.496
596.000	367.154	80.004	19.994	103.191	19.645	45.666	0.495
598.000	368.114	80.003	19.994	103.189	19.625	46.977	0.485
600.000	369.138	80.002	19.995	103.190	19.603	48.458	0.480
602.000	370.134	80.002	19.994	103.206	19.575	50.283	0.508
604.000	371.120	80.001	19.995	103.201	19.546	52.174	0.485
606.000	372.114	80.001	19.996	103.209	19.512	54.440	0.505
608.000	373.095	80.001	19.994	103.224	19.478	56.668	0.486
610.000	374.127	80.001	19.996	103.223	19.440	59.207	0.522
612.000	375.146	80.003	19.994	103.220	19.407	61.359	0.524
614.000	376.101	80.002	19.995	103.223	19.365	64.147	0.508
616.000	377.133	80.000	19.995	103.218	19.324	66.803	0.510
618.000	378.094	80.002	19.994	103.230	19.276	70.013	0.496
620.000	379.115	80.002	19.994	103.225	19.231	72.917	0.505
622.000	380.082	80.003	19.994	103.227	19.180	76.323	0.511
624.000	381.056	80.003	19.994	103.230	19.127	79.836	0.500
626.000	382.084	80.004	19.994	103.228	19.074	83.305	0.511
628.000	383.127	80.003	19.993	103.230	19.020	86.879	0.504
630.000	384.108	80.001	19.994	103.228	18.957	90.981	0.504
632.000	385.100	80.003	19.994	103.230	18.898	94.852	0.494
634.000	386.074	80.002	19.993	103.245	18.836	98.995	0.452
636.000	387.099	80.001	19.995	103.234	18.776	102.947	0.513
638.000	388.107	80.000	19.995	103.235	18.710	107.252	0.521
640.000	389.143	80.001	19.994	103.241	18.644	111.643	0.520
642.000	390.105	79.999	19.995	103.244	18.574	116.210	0.498
644.000	391.080	80.001	19.995	103.230	18.511	120.397	0.475
646.000	392.136	80.002	19.995	103.235	18.438	125.171	0.567
648.000	393.128	80.002	19.995	103.231	18.369	129.695	0.511
650.000	394.133	80.001	19.995	103.232	18.303	134.048	0.521
652.000	395.138	80.004	19.994	103.225	18.241	138.105	0.500
654.000	396.201	80.004	19.993	103.217	18.181	142.025	0.536
656.000	397.173	80.004	19.994	103.221	18.124	145.773	0.506
658.000	398.174	80.004	19.992	103.196	18.066	149.548	0.504
660.000	399.170	80.003	19.994	103.195	18.015	152.975	0.512
662.000	400.159	80.003	19.993	103.189	17.973	155.717	0.498
664.000	401.151	80.003	19.994	103.198	17.929	158.573	0.483
666.000	402.199	80.003	19.993	103.179	17.897	160.675	0.509
668.000	403.144	80.003	19.994	103.165	17.865	162.786	0.488
670.000	404.178	80.003	19.993	103.161	17.844	164.109	0.491
672.000	405.170	80.003	19.994	103.171	17.827	165.242	0.491
674.000	406.206	80.004	19.994	103.164	17.820	165.670	0.502
676.000	407.210	80.004	19.996	103.157	17.822	165.539	0.503
678.000	408.202	80.005	19.995	103.144	17.837	164.553	0.486
680.000	409.248	80.003	19.994	103.139	17.864	162.788	0.535
682.000	410.254	80.003	19.995	103.111	17.899	160.453	0.505
684.000	411.328	80.004	19.994	103.108	17.949	157.232	0.519
686.000	412.342	80.003	19.994	103.108	18.009	153.282	0.522
688.000	413.365	80.001	19.994	103.099	18.079	148.680	0.521
690.000	414.396	80.001	19.994	103.099	18.153	143.771	0.492
692.000	415.476	80.002	19.994	103.095	18.230	138.711	0.549
694.000	416.532	80.002	19.994	103.106	18.308	133.567	0.540
696.000	417.584	80.002	19.994	103.111	18.392	128.057	0.550
698.000	418.677	80.001	19.995	103.105	18.475	122.573	0.533
700.000	419.717	80.001	19.995	103.117	18.559	117.112	0.505
702.000	420.862	80.002	19.995	103.112	18.642	111.629	0.588
704.000	421.854	80.001	19.995	103.112	18.720	106.482	0.519
706.000	422.948	80.002	19.994	103.112	18.801	101.193	0.567
708.000	424.023	80.000	19.994	103.114	18.873	96.429	0.534
710.000	425.102	80.002	19.995	103.113	18.947	91.596	0.572
712.000	426.140	80.002	19.994	103.120	19.017	86.987	0.525
714.000	427.224	80.001	19.994	103.112	19.085	82.476	0.514
716.000	428.327	80.001	19.995	103.121	19.147	78.426	0.551
718.000	429.404	80.001	19.994	103.121	19.211	74.230	0.544
720.000	430.511	80.001	19.994	103.130	19.271	70.255	0.545
722.000	431.537	80.000	19.994	103.123	19.323	66.839	0.497
724.000	432.623	80.002	19.994	103.125	19.379	63.122	0.567
726.000	433.696	80.003	19.993	103.120	19.426	60.052	0.566
728.000	434.812	80.003	19.994	103.127	19.478	56.633	0.577
730.000	435.845	80.002	19.994	103.135	19.523	53.655	0.527
732.000	436.929	80.003	19.993	103.127	19.562	51.109	0.539
734.000	437.971	80.003	19.995	103.131	19.600	48.570	0.539
736.000	439.036	80.004	19.995	103.135	19.639	46.007	0.524
738.000	440.089	80.004	19.995	103.125	19.674	43.755	0.501
740.000	441.119	80.002	19.993	103.128	19.706	41.657	0.516
742.000	442.159	80.003	19.995	103.121	19.734	39.799	0.511
744.000	443.222	80.003	19.993	103.135	19.760	38.037	0.529
746.000	444.218	80.004	19.995	103.136	19.783	36.575	0.494
748.000	445.269	80.003	19.995	103.125	19.807	34.952	0.514
750.000	446.254	80.003	19.994	103.133	19.825	33.784	0.495
752.000	447.282	80.002	19.994	103.143	19.843	32.617	0.505
754.000	448.385	80.003	19.993	103.125	19.862	31.378	0.511
756.000	449.379	80.004	19.993	103.120	19.880	30.176	0.538
758.000	450.404	80.005	19.995	103.116	19.891	29.477	0.526
760.000	451.422	80.004	19.994	103.121	19.900	28.867	0.540
762.000	452.430	80.004	19.993	103.123	19.910	28.224	0.477
764.000	453.456	80.004	19.993	103.138	19.915	27.849	0.509
766.000	454.443	80.004	19.994	103.127	19.922	27.423	0.497
768.000	455.484	80.003	19.993	103.116	19.924	27.286	0.499
770.000	456.475	80.004	19.995	103.123	19.931	26.819	0.477
772.000	457.548	80.003	19.994	103.121	19.935	26.565	0.519
774.000	458.523	80.002	19.994	103.122	19.938	26.371	0.494
776.000	459.555	80.002	19.995	103.113	19.940	26.204	0.503
778.000	460.576	80.000	19.994	103.115	19.944	25.942	0.542
780.000	461.539	80.002	19.995	103.115	19.948	25.690	0.468
782.000	462.545	80.002	19.995	103.118	19.949	25.655	0.504
784.000	463.536	80.002	19.995	103.122	19.950	25.597	0.495
786.000	464.516	80.002	19.994	103.128	19.950	25.582	0.512
788.000	465.498	80.001	19.995	103.118	19.952	25.439	0.537
790.000	466.494	80.001	19.995	103.120	19.951	25.524	0.504
792.000	467.497	80.002	19.995	103.117	19.952	25.438	0.508
794.000	468.515	80.001	19.995	103.119	19.954	25.314	0.509
796.000	469.500	80.002	19.995	103.113	19.953	25.388	0.501
798.000	470.464	80.002	19.995	103.111	19.956	25.172	0.477
800.000	471.487	80.001	19.994	103.110	19.956	25.188	0.486
802.000	472.493	80.001	19.996	103.108	19.958	25.045	0.505
804.000	473.442	80.001	19.995	103.107	19.962	24.764	0.491
806.000	474.502	80.001	19.996	103.107	19.965	24.603	0.529
808.000	475.473	80.001	19.997	103.110	19.969	24.329	0.491
810.000	476.467	80.001	19.995	103.109	19.969	24.323	0.494
812.000	477.487	80.003	19.994	103.109	19.977	23.764	0.527
814.000	478.412	80.003	19.995	103.111	19.980	23.563	0.463
816.000	479.428	80.002	19.994	103.110	19.985	23.294	0.481
818.000	480.426	80.004	19.994	103.118	19.994	22.667	0.484
820.000	481.421	80.003	19.994	103.111	19.997	22.503	0.514
822.000	482.328	80.005	19.995	103.113	20.007	21.795	0.459
824.000	483.352	80.004	19.995	103.112	20.010	21.613	0.470
826.000	484.333	80.005	19.993	103.113	20.021	20.898	0.486
828.000	485.262	80.004	19.994	103.124	20.029	20.366	0.457
830.000	486.291	80.004	19.994	103.111	20.036	19.934	0.465
832.000	487.265	80.002	19.994	103.111	20.041	19.586	0.505
834.000	488.262	80.002	19.994	103.123	20.051	18.913	0.493
836.000	489.228	80.002	19.995	103.125	20.058	18.476	0.484
838.000	490.228	80.002	19.995	103.122	20.067	17.880	0.489
840.000	491.215	80.002	19.994	103.114	20.074	17.405	0.510
842.000	492.170	80.002	19.995	103.120	20.082	16.892	0.523
844.000	493.181	80.004	19.995	103.129	20.089	16.426	0.502
846.000	494.181	80.004	19.994	103.131	20.093	16.130	0.508
848.000	495.199	80.004	19.993	103.142	20.099	15.737	0.545
850.000	496.151	80.003	19.994	103.127	20.103	15.489	0.476
852.000	497.152	80.004	19.993	103.132	20.105	15.401	0.495
854.000	498.152	80.003	19.995	103.119	20.110	15.069	0.458
856.000	499.157	80.003	19.993	103.133	20.113	14.860	0.480
858.000	500.119	80.001	19.994	103.130	20.116	14.660	0.465
860.000	501.152	80.002	19.995	103.134	20.118	14.527	0.516
862.000	502.198	80.002	19.993	103.128	20.119	14.429	0.525
864.000	503.147	80.002	19.995	103.125	20.118	14.502	0.495
866.000	504.132	80.001	19.995	103.123	20.117	14.575	0.491
868.000	505.120	80.002	19.995	103.136	20.123	14.216	0.490
870.000	506.159	80.001	19.995	103.135	20.123	14.202	0.526
872.000	507.124	80.002	19.994	103.135	20.127	13.896	0.500
874.000	508.126	80.002	19.995	103.127	20.123	14.162	0.520
876.000	509.137	80.001	19.994	103.131	20.125	14.052	0.494
878.000	510.161	80.001	19.994	103.125	20.121	14.325	0.518
880.000	511.134	80.002	19.995	103.118	20.123	14.187	0.512
882.000	512.154	80.002	19.994	103.118	20.120	14.404	0.493
884.000	513.178	80.001	19.995	103.134	20.124	14.122	0.497
886.000	514.198	80.002	19.993	103.120	20.126	14.018	0.512
888.000	515.247	80.001	19.995	103.130	20.122	14.251	0.519
890.000	516.273	80.001	19.996	103.122	20.126	13.973	0.521
892.000	517.303	80.001	19.995	103.127	20.127	13.916	0.523
894.000	518.296	80.001	19.995	103.137	20.125	14.071	0.486
896.000	519.315	80.001	19.995	103.144	20.123	14.215	0.488
898.000	520.391	80.001	19.996	103.127	20.127	13.906	0.549
900.000	521.460	80.001	19.995	103.133	20.126	14.010	0.546
902.000	522.463	80.001	19.995	103.130	20.125	14.080	0.496
904.000	523.504	80.002	19.995	103.133	20.121	14.296	0.516
906.000	524.544	80.002	19.996	103.140	20.120	14.400	0.529
908.000	525.540	80.004	19.995	103.121	20.121	14.341	0.500
910.000	526.554	80.003	19.995	103.126	20.119	14.481	0.492
912.000	527.620	80.004	19.994	103.130	20.118	14.534	0.519
914.000	528.679	80.003	19.994	103.136	20.119	14.465	0.536
916.000	529.713	80.001	19.995	103.146	20.117	14.548	0.501
918.000	530.713	80.001	19.995	103.138	20.119	14.452	0.515
920.000	531.712	80.001	19.993	103.137	20.119	14.418	0.518
922.000	532.718	80.003	19.993	103.133	20.119	14.425	0.485
924.000	533.777	80.002	19.994	103.139	20.120	14.384	0.519
926.000	534.756	80.001	19.994	103.134	20.121	14.322	0.523
928.000	535.802	80.002	19.994	103.124	20.122	14.280	0.519
930.000	536.837	80.003	19.994	103.131	20.119	14.433	0.510
932.000	537.811	80.004	19.994	103.112	20.120	14.358	0.478
934.000	538.846	80.005	19.994	103.129	20.119	14.474	0.505
936.000	539.867	80.003	19.993	103.121	20.121	14.326	0.507
938.000	540.869	80.003	19.994	103.133	20.119	14.456	0.496
940.000	541.917	80.003	19.994	103.132	20.124	14.126	0.529
942.000	542.891	80.004	19.995	103.142	20.119	14.465	0.501
944.000	543.886	80.002	19.994	103.127	20.120	14.391	0.482
946.000	544.869	80.003	19.994	103.145	20.121	14.342	0.499
948.000	545.868	80.002	19.994	103.126	20.124	14.132	0.510
950.000	546.851	80.000	19.996	103.131	20.120	14.357	0.503
952.000	547.860	80.003	19.994	103.133	20.122	14.255	0.484
954.000	548.862	80.002	19.995	103.130	20.123	14.206	0.513
956.000	549.830	80.003	19.996	103.134	20.122	14.283	0.466
958.000	550.756	80.003	19.994	103.132	20.124	14.138	0.473
960.000	551.768	80.002	19.994	103.129	20.125	14.083	0.477
962.000	552.759	80.003	19.995	103.124	20.124	14.116	0.494
964.000	553.762	80.004	19.994	103.127	20.124	14.100	0.540
966.000	554.728	80.002	19.994	103.127	20.127	13.924	0.488
968.000	555.754	80.002	19.994	103.130	20.124	14.121	0.509
970.000	556.701	80.002	19.994	103.134	20.124	14.143	0.480
972.000	557.675	80.002	19.994	103.127	20.123	14.166	0.458
974.000	558.712	80.000	19.994	103.150	20.126	13.983	0.484
976.000	559.737	80.001	19.994	103.147	20.126	13.979	0.504
978.000	560.775	80.001	19.995	103.148	20.126	13.959	0.540
980.000	561.830	80.000	19.994	103.146	20.125	14.053	0.527
982.000	562.917	80.002	19.995	103.152	20.129	13.762	0.555
984.000	564.007	80.001	19.995	103.138	20.127	13.937	0.542
986.000	565.108	80.002	19.994	103.151	20.123	14.217	0.563
988.000	566.172	80.002	19.994	103.146	20.127	13.950	0.562
990.000	567.308	80.002	19.994	103.152	20.127	13.913	0.538
992.000	568.441	80.002	19.994	103.149	20.127	13.936	0.582
994.000	569.512	80.004	19.995	103.145	20.128	13.864	0.551
996.000	570.672	80.003	19.995	103.146	20.130	13.744	0.535
998.000	571.809	80.002	19.996	103.139	20.129	13.825	0.582
1000.000	572.916	80.004	19.995	103.133	20.127	13.913	0.538
1002.000	574.121	80.004	19.996	103.143	20.125	14.067	0.601
1004.000	575.277	80.002	19.995	103.137	20.124	14.114	0.567
1006.000	576.405	80.003	19.995	103.147	20.127	13.896	0.554
1008.000	577.587	80.003	19.995	103.144	20.126	14.008	0.570
1010.000	578.714	80.004	19.993	103.144	20.124	14.092	0.562
1012.000	579.828	80.004	19.994	103.141	20.127	13.897	0.570
1014.000	580.967	80.005	19.995	103.148	20.128	13.826	0.569
1016.000	582.113	80.004	19.993	103.150	20.128	13.872	0.589
1018.000	583.219	80.006	19.994	103.154	20.125	14.044	0.571
1020.000	584.380	80.005	19.994	103.142	20.126	13.984	0.578
1022.000	585.491	80.005	19.994	103.142	20.125	14.081	0.566
1024.000	586.629	80.005	19.993	103.144	20.126	14.010	0.547
1025.999	587.730	80.004	19.994	103.140	20.127	13.937	0.556
1027.999	588.832	80.004	19.994	103.145	20.129	13.782	0.548
1029.999	589.935	80.002	19.994	103.148	20.125	14.087	0.567
1031.999	591.034	80.003	19.995	103.146	20.128	13.826	0.567
1034.000	592.157	80.003	19.994	103.142	20.125	14.030	0.560
1035.999	593.278	80.003	19.993	103.140	20.126	13.972	0.556
1037.999	594.394	80.003	19.994	103.148	20.124	14.134	0.561
1040.000	595.528	80.002	19.993	103.149	20.125	14.027	0.568
1041.999	596.649	80.003	19.995	103.150	20.126	14.020	0.549
1043.999	597.719	80.003	19.994	103.136	20.126	13.966	0.536
1046.001	598.804	80.003	19.995	103.146	20.128	13.876	0.511
1047.999	599.960	80.003	19.993	103.149	20.122	14.265	0.557
1049.999	601.017	80.002	19.994	103.141	20.122	14.269	0.522
1052.000	602.107	80.003	19.994	103.143	20.123	14.174	0.550
1053.999	603.161	80.004	19.994	103.148	20.126	13.991	0.582
1056.000	604.241	80.002	19.994	103.146	20.120	14.371	0.555
1057.999	605.286	80.002	19.994	103.151	20.124	14.138	0.513
1060.000	606.370	80.002	19.995	103.146	20.125	14.046	0.535
1062.000	607.425	80.002	19.995	103.141	20.123	14.211	0.546
1063.999	608.476	80.002	19.994	103.134	20.120	14.362	0.528
1066.000	609.568	80.002	19.994	103.118	20.118	14.505	0.566
1067.999	610.629	80.001	19.994	103.144	20.123	14.205	0.547
1070.000	611.638	80.003	19.994	103.137	20.123	14.202	0.514
1072.000	612.687	80.004	19.994	103.136	20.124	14.116	0.540
1073.999	613.749	80.005	19.994	103.122	20.121	14.302	0.533
1075.999	614.782	80.005	19.994	103.126	20.117	14.557	0.504
1077.999	615.798	80.004	19.995	103.115	20.124	14.102	0.499
1079.999	616.821	80.004	19.994	103.135	20.123	14.203	0.512
1081.999	617.851	80.004	19.994	103.122	20.124	14.100	0.519
1083.999	618.886	80.005	19.995	103.123	20.127	13.930	0.504
1085.999	619.938	80.004	19.996	103.133	20.125	14.067	0.514
1088.001	620.943	80.004	19.996	103.137	20.128	13.873	0.497
1089.999	621.941	80.004	19.995	103.117	20.125	14.048	0.460
1092.000	622.982	80.004	19.994	103.127	20.125	14.037	0.514
1093.999	624.000	80.004	19.995	103.128	20.126	13.978	0.528
1095.999	625.012	80.002	19.996	103.120	20.123	14.159	0.494
1098.000	626.025	80.003	19.995	103.132	20.121	14.307	0.506
1099.999	627.044	80.003	19.995	103.116	20.124	14.104	0.506
1101.999	628.031	80.003	19.994	103.133	20.125	14.066	0.500
1103.999	629.045	80.004	19.994	103.127	20.122	14.270	0.481
1105.999	630.061	80.006	19.994	103.112	20.123	14.163	0.498
1107.999	631.065	80.004	19.993	103.132	20.122	14.243	0.495
1109.999	632.057	80.003	19.994	103.130	20.120	14.384	0.479
1111.999	633.076	80.002	19.994	103.130	20.121	14.307	0.502
1114.000	634.093	80.002	19.994	103.126	20.118	14.483	0.536
1116.000	635.113	80.002	19.994	103.130	20.123	14.195	0.531
1117.999	636.128	80.002	19.994	103.133	20.119	14.419	0.499
1120.000	637.175	80.001	19.994	103.125	20.116	14.664	0.515
1122.000	638.166	80.001	19.994	103.129	20.118	14.537	0.502
1123.999	639.153	80.003	19.994	103.121	20.115	14.720	0.483
1125.999	640.192	80.002	19.994	103.130	20.120	14.392	0.493
1128.000	641.180	80.003	19.994	103.124	20.115	14.685	0.503
1129.999	642.184	80.003	19.994	103.120	20.118	14.520	0.523
1131.999	643.187	80.003	19.994	103.129	20.115	14.730	0.476
1133.999	644.176	80.003	19.994	103.125	20.117	14.588	0.483
1136.000	645.149	80.002	19.993	103.121	20.114	14.794	0.429
1138.000	646.150	80.003	19.994	103.137	20.113	14.847	0.515
1139.999	647.202	80.002	19.994	103.123	20.114	14.749	0.522
1141.999	648.160	80.004	19.993	103.136	20.110	15.056	0.504
1143.999	649.134	80.002	19.994	103.129	20.116	14.623	0.473
1146.000	650.174	80.002	19.994	103.133	20.120	14.398	0.518
1148.001	651.222	80.003	19.995	103.138	20.114	14.797	0.496
1149.999	652.199	80.003	19.993	103.129	20.118	14.531	0.499
1151.999	653.190	80.001	19.994	103.134	20.114	14.749	0.476
1153.999	654.190	80.003	19.994	103.139	20.115	14.704	0.517
1155.999	655.167	80.003	19.995	103.126	20.112	14.930	0.479
1157.999	656.180	80.005	19.995	103.118	20.108	15.149	0.504
1159.999	657.195	80.003	19.993	103.122	20.110	15.051	0.514
1161.999	658.233	80.004	19.994	103.124	20.113	14.861	0.496
1164.000	659.251	80.005	19.997	103.124	20.112	14.883	0.534
1165.999	660.261	80.004	19.994	103.134	20.113	14.826	0.528
1167.999	661.254	80.004	19.995	103.134	20.112	14.924	0.542
1169.999	662.235	80.005	19.994	103.128	20.113	14.812	0.515
1172.000	663.248	80.002	19.994	103.117	20.108	15.159	0.527
1173.999	664.244	80.005	19.994	103.119	20.114	14.769	0.514
1175.999	665.260	80.005	19.994	103.134	20.110	15.054	0.525
1177.999	666.253	80.003	19.994	103.111	20.107	15.260	0.513
1180.001	667.258	80.004	19.995	103.129	20.108	15.170	0.527
1181.999	668.219	80.003	19.994	103.113	20.109	15.107	0.488
1183.999	669.235	80.005	19.995	103.116	20.108	15.161	0.523
1185.999	670.241	80.004	19.995	103.128	20.106	15.282	0.527
1187.999	671.224	80.005	19.995	103.139	20.110	15.015	0.509
1189.999	672.239	80.003	19.994	103.115	20.108	15.180	0.490
1192.000	673.268	80.005	19.994	103.113	20.109	15.122	0.536
1193.999	674.214	80.005	19.995	103.122	20.108	15.182	0.464
1195.999	675.238	80.004	19.995	103.111	20.108	15.173	0.521
1197.999	676.234	80.004	19.995	103.121	20.107	15.243	0.482
1200.000	677.294	80.003	19.994	103.112	20.106	15.309	0.504
1201.999	678.328	80.003	19.994	103.110	20.110	15.038	0.548
1203.999	679.301	80.003	19.994	103.109	20.106	15.308	0.508
1205.999	680.254	80.001	19.994	103.117	20.105	15.346	0.504
1207.999	681.308	80.002	19.995	103.124	20.109	15.128	0.512
1209.999	682.280	80.003	19.995	103.126	20.105	15.378	0.477
1211.999	683.258	80.003	19.996	103.119	20.106	15.296	0.487
1213.999	684.275	80.003	19.995	103.112	20.106	15.285	0.495
1215.999	685.224	80.003	19.996	103.130	20.104	15.422	0.480
1218.000	686.294	80.003	19.993	103.120	20.099	15.742	0.540
1219.999	687.267	80.003	19.993	103.115	20.102	15.586	0.474
1222.000	688.257	80.002	19.994	103.120	20.102	15.545	0.482
1223.999	689.281	80.002	19.994	103.120	20.105	15.381	0.529
1226.001	690.228	80.002	19.994	103.113	20.103	15.494	0.455
1227.999	691.245	80.004	19.993	103.112	20.100	15.730	0.523
1229.999	692.145	80.001	19.995	103.110	20.104	15.453	0.475
1231.999	693.148	80.001	19.994	103.119	20.100	15.688	0.471
1233.999	694.096	80.002	19.995	103.114	20.101	15.623	0.477
1235.999	695.089	80.002	19.994	103.111	20.099	15.754	0.489
1237.999	696.096	80.002	19.994	103.120	20.098	15.812	0.490
1239.999	697.030	80.003	19.994	103.125	20.094	16.060	0.468
1241.999	698.004	80.002	19.994	103.123	20.098	15.833	0.467
1243.999	698.954	80.003	19.993	103.108	20.101	15.643	0.487
1246.000	699.926	80.003	19.994	103.114	20.099	15.765	0.467
1247.999	700.889	80.004	19.995	103.126	20.098	15.844	0.483
1249.999	701.855	80.003	19.994	103.114	20.101	15.626	0.467
1251.999	702.799	80.003	19.995	103.115	20.096	15.930	0.458
1253.999	703.766	80.004	19.994	103.118	20.100	15.670	0.467
1255.999	704.778	80.002	19.993	103.125	20.100	15.692	0.488
1257.999	705.750	80.002	19.996	103.130	20.101	15.597	0.470
1259.999	706.709	80.002	19.995	103.122	20.097	15.882	0.483
1261.999	707.703	80.003	19.995	103.115	20.091	16.274	0.475
1263.999	708.701	80.004	19.995	103.109	20.092	16.206	0.467
1266.000	709.634	80.003	19.995	103.125	20.093	16.145	0.470
1268.000	710.620	80.006	19.995	103.121	20.095	16.042	0.514
1270.000	711.592	80.004	19.994	103.109	20.089	16.391	0.492
1271.999	712.584	80.004	19.994	103.109	20.094	16.063	0.471
1273.999	713.538	80.006	19.994	103.113	20.090	16.343	0.463
1275.999	714.539	80.005	19.994	103.127	20.090	16.343	0.484
1277.999	715.537	80.006	19.994	103.114	20.091	16.272	0.502
1279.999	716.567	80.004	19.993	103.128	20.094	16.119	0.505
1281.999	717.564	80.003	19.996	103.127	20.091	16.290	0.511
1283.999	718.585	80.001	19.994	103.115	20.093	16.184	0.533
1285.999	719.541	80.002	19.995	103.120	20.089	16.448	0.484
1287.999	720.521	80.002	19.995	103.121	20.091	16.300	0.466
1289.999	721.523	80.003	19.996	103.123	20.090	16.350	0.486
1291.999	722.548	80.002	19.995	103.123	20.095	16.036	0.526
1293.999	723.582	80.002	19.995	103.111	20.091	16.321	0.542
1295.999	724.591	80.002	19.995	103.124	20.090	16.370	0.521
1297.999	725.548	80.002	19.995	103.130	20.088	16.486	0.472
1299.999	726.617	80.001	19.994	103.119	20.088	16.500	0.523
1301.999	727.586	80.002	19.994	103.123	20.086	16.590	0.519
1303.999	728.592	80.002	19.994	103.129	20.101	15.629	0.515
1305.999	729.617	80.003	19.994	103.137	20.083	16.790	0.510
1307.999	730.634	80.003	19.994	103.135	20.089	16.390	0.499
1309.999	731.615	80.004	19.996	103.129	20.090	16.391	0.466
1311.999	732.642	80.003	19.995	103.117	20.085	16.654	0.489
1313.999	733.630	80.002	19.993	103.125	20.082	16.895	0.482
1315.999	734.649	80.003	19.995	103.135	20.084	16.781	0.514
1317.999	735.637	80.003	19.995	103.126	20.085	16.701	0.465
1319.999	736.646	80.002	19.993	103.135	20.088	16.511	0.475
1321.999	737.691	80.002	19.994	103.132	20.087	16.541	0.447
1324.000	738.688	80.003	19.995	103.116	20.087	16.555	0.458
1326.000	739.719	80.003	19.995	103.122	20.090	16.385	0.496
1327.999	740.721	80.001	19.993	103.128	20.087	16.585	0.526
1329.999	741.712	80.003	19.995	103.109	20.084	16.739	0.484
1331.999	742.781	80.004	19.995	103.111	20.084	16.773	0.529
1333.499	743.522	80.005	19.995	103.117	20.087	16.537	0.476