File: 01_Data/Rebond_Foam_Carpet_Pad/MCC/Rebond_Foam_Carpet_Pad_MCC_30K_min_211101_R1.txt
Sample ID:	C:\MCC\MCC Cal\Test\Rebond_Foam_Carpet_Pad_MCC_30K_min_211101_R1.txt
Sample Weight (mg):	4.62
Heating Rate (C/s):	0.5
Combustor Temp (C):	900
N2 Flow Rate (cc/min):	80
O2 Flow Rate (cc/min):	20
Calibration File:	C:\MCC\MCC Cal\Coeff1 JN10440_30_210304.txt.txt
T Correction Coefficients:	0	1.024463	0
Time Shift (s):	14
*
Time (s)	Temperature (C)	N2 flow rate (cc/min)	O2 flow rate (cc/min)	Flow Rate (cc/min)	Oxygen (%)	HRR (W/g)	Heating rate (C/s)
0.000	107.080	80.000	19.996	102.958	20.401	0.202	0.001
2.000	107.100	80.000	19.995	102.956	20.401	0.237	0.044
4.000	107.054	80.000	19.995	102.959	20.400	0.261	-0.007
6.000	107.101	80.000	19.991	102.961	20.401	0.181	-0.013
8.000	107.100	80.002	19.994	102.957	20.400	0.263	-0.005
10.000	107.060	80.001	19.995	102.955	20.402	0.128	-0.032
12.001	107.075	80.001	19.996	102.956	20.405	-0.052	-0.002
14.000	107.083	80.000	19.995	102.965	20.404	0.008	0.005
16.000	107.037	80.001	19.996	102.980	20.399	0.311	0.003
18.000	107.019	80.001	19.994	102.989	20.398	0.390	-0.016
20.000	107.075	80.000	19.995	102.994	20.396	0.556	0.009
22.000	107.093	80.000	19.992	103.001	20.393	0.757	0.002
24.000	107.142	80.002	19.996	103.014	20.392	0.822	0.019
26.000	107.243	80.001	19.995	103.025	20.386	1.229	0.047
28.000	107.242	80.001	19.996	103.049	20.385	1.296	0.050
30.000	107.382	80.003	19.995	103.079	20.382	1.526	0.083
32.000	107.437	80.000	19.995	103.121	20.378	1.820	0.046
34.000	107.561	80.002	19.995	103.132	20.374	2.054	0.050
36.000	107.754	80.000	19.994	103.119	20.375	2.037	0.116
38.000	107.961	80.003	19.996	103.140	20.377	1.884	0.066
40.001	108.195	80.002	19.995	103.148	20.371	2.278	0.100
42.000	108.440	80.003	19.993	103.137	20.373	2.153	0.127
44.000	108.708	80.004	19.994	103.148	20.367	2.588	0.155
46.000	109.017	80.002	19.995	103.154	20.370	2.374	0.162
48.000	109.317	80.002	19.994	103.168	20.369	2.412	0.171
50.000	109.689	80.003	19.994	103.170	20.366	2.613	0.197
52.000	110.070	80.002	19.995	103.164	20.369	2.445	0.177
54.000	110.429	80.002	19.995	103.180	20.362	2.892	0.186
56.000	110.838	80.002	19.994	103.185	20.361	2.992	0.208
58.000	111.254	80.001	19.996	103.186	20.359	3.163	0.219
60.000	111.746	80.001	19.995	103.202	20.357	3.249	0.267
62.001	112.227	80.002	19.994	103.193	20.359	3.107	0.217
64.000	112.725	80.003	19.994	103.197	20.362	2.914	0.295
66.001	113.236	80.004	19.996	103.194	20.358	3.205	0.257
68.000	113.750	80.005	19.994	103.213	20.362	2.895	0.255
70.000	114.336	80.004	19.995	103.210	20.360	3.085	0.309
72.000	114.886	80.005	19.993	103.209	20.359	3.100	0.290
74.000	115.504	80.003	19.993	103.223	20.355	3.399	0.299
76.001	116.096	80.002	19.993	103.222	20.359	3.110	0.295
78.000	116.754	80.002	19.995	103.215	20.355	3.433	0.317
80.000	117.381	80.002	19.995	103.232	20.354	3.501	0.309
82.001	118.091	80.001	19.995	103.231	20.355	3.444	0.340
84.000	118.731	80.001	19.996	103.230	20.355	3.378	0.329
86.000	119.555	80.003	19.995	103.231	20.355	3.435	0.412
88.000	120.274	80.002	19.995	103.234	20.352	3.592	0.392
90.000	120.951	80.002	19.996	103.250	20.350	3.759	0.367
92.001	121.736	80.002	19.995	103.240	20.354	3.491	0.397
94.000	122.493	80.002	19.996	103.233	20.352	3.648	0.371
96.000	123.301	80.002	19.994	103.244	20.355	3.439	0.368
98.000	124.089	80.002	19.995	103.233	20.350	3.763	0.436
100.000	124.936	80.002	19.995	103.252	20.351	3.696	0.391
102.000	125.758	80.002	19.996	103.253	20.351	3.684	0.411
104.000	126.601	80.002	19.994	103.245	20.348	3.866	0.431
106.000	127.425	80.000	19.996	103.248	20.347	3.991	0.400
108.000	128.294	80.000	19.995	103.249	20.349	3.846	0.427
110.001	129.167	80.000	19.996	103.250	20.347	3.986	0.458
112.000	130.065	80.000	19.993	103.258	20.348	3.902	0.456
114.001	130.970	79.998	19.998	103.241	20.347	3.937	0.461
116.000	131.847	80.001	19.997	103.266	20.347	3.980	0.426
118.000	132.752	80.002	19.997	103.241	20.348	3.923	0.456
120.001	133.674	80.002	19.995	103.233	20.348	3.869	0.438
122.000	134.670	80.003	19.995	103.239	20.347	3.965	0.487
124.000	135.583	80.002	19.994	103.239	20.347	3.944	0.468
126.000	136.476	80.003	19.995	103.235	20.347	3.982	0.477
128.000	137.505	80.002	19.995	103.232	20.347	3.991	0.492
130.000	138.458	80.003	19.994	103.233	20.349	3.853	0.488
132.000	139.418	80.001	19.994	103.230	20.350	3.767	0.456
134.000	140.378	80.001	19.995	103.234	20.347	3.991	0.500
136.000	141.364	80.001	19.996	103.231	20.347	3.994	0.486
138.000	142.333	80.003	19.995	103.221	20.346	4.006	0.506
140.000	143.310	80.003	19.994	103.219	20.345	4.073	0.479
142.000	144.302	80.004	19.994	103.210	20.347	3.985	0.480
144.000	145.301	80.004	19.994	103.201	20.348	3.891	0.518
146.000	146.247	80.004	19.995	103.202	20.348	3.904	0.482
148.000	147.228	80.003	19.994	103.193	20.348	3.909	0.493
150.000	148.146	80.004	19.994	103.193	20.346	4.019	0.470
152.000	149.161	80.004	19.994	103.190	20.345	4.099	0.517
154.000	150.107	80.002	19.994	103.193	20.344	4.187	0.475
156.000	151.064	80.003	19.993	103.190	20.346	4.023	0.478
158.000	152.058	80.001	19.995	103.205	20.348	3.870	0.515
160.000	152.988	80.002	19.994	103.198	20.344	4.197	0.465
162.000	153.966	80.002	19.995	103.190	20.342	4.316	0.468
164.000	154.904	80.002	19.995	103.191	20.342	4.336	0.480
166.000	155.844	80.002	19.996	103.192	20.343	4.224	0.485
168.000	156.782	80.000	19.994	103.191	20.341	4.373	0.466
170.000	157.759	80.001	19.992	103.193	20.343	4.243	0.470
172.000	158.732	80.001	19.993	103.192	20.342	4.297	0.480
174.000	159.650	80.001	19.995	103.190	20.342	4.330	0.441
176.000	160.554	80.002	19.995	103.191	20.335	4.802	0.467
178.000	161.516	80.003	19.995	103.197	20.336	4.744	0.446
180.000	162.481	80.001	19.995	103.205	20.338	4.609	0.469
182.000	163.439	80.001	19.995	103.194	20.339	4.552	0.470
184.000	164.395	80.001	19.995	103.207	20.337	4.688	0.506
186.000	165.363	80.001	19.996	103.208	20.336	4.758	0.472
188.000	166.354	80.001	19.994	103.202	20.336	4.741	0.502
190.000	167.289	80.000	19.996	103.199	20.337	4.674	0.483
192.000	168.243	80.001	19.995	103.215	20.340	4.435	0.480
194.000	169.204	80.000	19.995	103.219	20.344	4.144	0.451
196.000	170.233	80.000	19.996	103.218	20.343	4.276	0.498
198.000	171.207	80.001	19.996	103.210	20.342	4.335	0.485
200.000	172.097	80.003	19.995	103.206	20.341	4.387	0.469
202.000	173.145	80.002	19.997	103.207	20.342	4.341	0.482
204.000	174.109	80.002	19.995	103.205	20.342	4.294	0.489
206.000	175.074	80.002	19.995	103.213	20.337	4.647	0.512
208.000	176.079	80.003	19.995	103.195	20.334	4.872	0.500
210.000	177.053	80.003	19.995	103.207	20.332	5.044	0.467
212.000	178.022	80.004	19.996	103.200	20.329	5.254	0.491
214.000	179.038	80.002	19.995	103.190	20.325	5.508	0.476
216.000	180.079	80.002	19.997	103.200	20.323	5.664	0.556
218.000	181.080	80.003	19.996	103.201	20.322	5.744	0.516
220.000	182.083	80.004	19.994	103.182	20.319	5.941	0.473
222.000	183.050	80.004	19.997	103.183	20.314	6.258	0.498
224.000	184.042	80.005	19.994	103.176	20.314	6.290	0.505
226.000	185.030	80.007	19.993	103.185	20.312	6.436	0.517
228.000	186.034	80.003	19.994	103.183	20.307	6.733	0.496
230.000	187.079	80.005	19.995	103.182	20.307	6.736	0.533
232.000	188.045	80.003	19.994	103.184	20.304	6.970	0.494
234.000	189.027	80.003	19.995	103.175	20.299	7.280	0.446
236.000	190.048	80.002	19.994	103.171	20.301	7.160	0.486
238.000	191.063	80.002	19.994	103.180	20.297	7.470	0.520
240.000	192.068	80.002	19.995	103.186	20.294	7.641	0.499
242.000	193.054	80.003	19.995	103.174	20.291	7.865	0.496
244.000	194.101	80.002	19.995	103.185	20.288	8.100	0.509
246.000	195.062	80.001	19.994	103.188	20.290	7.919	0.476
248.000	196.038	80.001	19.994	103.173	20.281	8.537	0.506
250.000	197.065	80.001	19.994	103.169	20.284	8.334	0.533
252.000	198.058	80.002	19.993	103.184	20.283	8.447	0.477
254.000	199.044	80.002	19.994	103.172	20.274	9.064	0.514
256.000	200.036	80.001	19.994	103.190	20.273	9.114	0.543
258.000	201.012	80.001	19.994	103.192	20.274	9.075	0.466
260.000	202.063	80.002	19.996	103.193	20.269	9.391	0.515
262.000	203.077	80.000	19.996	103.179	20.268	9.471	0.500
264.000	204.063	80.001	19.995	103.172	20.265	9.713	0.512
266.000	205.066	80.000	19.995	103.173	20.264	9.777	0.506
268.000	206.127	79.999	19.995	103.190	20.256	10.338	0.529
270.000	207.200	80.001	19.996	103.187	20.251	10.632	0.542
272.000	208.216	80.001	19.995	103.180	20.251	10.679	0.533
274.000	209.233	80.001	19.995	103.178	20.247	10.960	0.472
276.000	210.298	80.001	19.995	103.187	20.242	11.283	0.504
278.000	211.312	80.002	19.994	103.167	20.239	11.502	0.541
280.000	212.352	80.004	19.996	103.170	20.237	11.629	0.534
282.000	213.393	80.003	19.995	103.179	20.230	12.122	0.509
284.000	214.370	80.003	19.994	103.179	20.228	12.228	0.487
286.000	215.429	80.003	19.996	103.161	20.222	12.666	0.518
288.000	216.446	80.003	19.996	103.165	20.220	12.809	0.525
290.000	217.428	80.002	19.996	103.164	20.216	13.072	0.472
292.000	218.484	80.001	19.996	103.157	20.213	13.309	0.492
294.000	219.539	80.001	19.997	103.163	20.207	13.740	0.524
296.000	220.557	80.001	19.996	103.155	20.203	13.969	0.491
298.000	221.542	80.000	19.996	103.158	20.200	14.220	0.531
300.000	222.560	80.001	19.995	103.171	20.197	14.451	0.488
302.000	223.582	80.002	19.995	103.165	20.190	14.870	0.533
304.000	224.629	80.003	19.995	103.173	20.185	15.226	0.502
306.000	225.629	80.003	19.995	103.163	20.179	15.703	0.484
308.000	226.668	80.004	19.993	103.172	20.176	15.914	0.518
310.000	227.649	80.004	19.995	103.163	20.170	16.295	0.498
312.000	228.683	80.003	19.995	103.172	20.162	16.827	0.538
314.000	229.718	80.002	19.994	103.151	20.156	17.304	0.511
316.000	230.699	80.002	19.995	103.160	20.156	17.297	0.482
318.000	231.709	80.002	19.994	103.166	20.144	18.090	0.492
320.000	232.702	80.002	19.994	103.167	20.141	18.296	0.498
322.000	233.687	80.000	19.995	103.154	20.137	18.628	0.505
324.000	234.692	80.002	19.996	103.154	20.129	19.140	0.482
326.000	235.659	80.000	19.995	103.162	20.121	19.720	0.469
328.000	236.637	80.002	19.995	103.153	20.114	20.231	0.469
330.000	237.627	80.001	19.995	103.150	20.106	20.729	0.514
332.000	238.543	80.000	19.995	103.153	20.101	21.139	0.440
334.000	239.506	80.002	19.994	103.150	20.093	21.633	0.484
336.000	240.446	80.002	19.994	103.154	20.086	22.136	0.476
338.000	241.417	80.003	19.995	103.167	20.076	22.868	0.474
340.000	242.348	80.001	19.994	103.162	20.069	23.370	0.466
342.000	243.300	80.001	19.993	103.179	20.061	23.903	0.489
344.000	244.215	80.001	19.994	103.182	20.054	24.416	0.473
346.000	245.170	80.002	19.995	103.174	20.048	24.805	0.475
348.000	246.112	80.002	19.996	103.187	20.032	25.927	0.466
350.000	247.065	80.001	19.994	103.178	20.027	26.263	0.475
352.000	247.989	80.001	19.995	103.184	20.016	27.067	0.431
354.000	248.995	80.001	19.995	103.181	20.007	27.685	0.467
356.000	249.964	80.003	19.996	103.188	19.994	28.588	0.488
358.000	250.926	80.003	19.997	103.171	19.987	29.083	0.483
360.000	251.883	80.003	19.996	103.185	19.977	29.778	0.476
362.000	252.818	80.003	19.995	103.188	19.962	30.771	0.465
364.000	253.799	80.004	19.995	103.190	19.953	31.410	0.498
366.000	254.753	80.003	19.995	103.191	19.942	32.218	0.464
368.001	255.682	80.003	19.995	103.193	19.931	32.985	0.457
370.000	256.636	80.003	19.995	103.201	19.919	33.826	0.481
372.000	257.640	80.003	19.995	103.202	19.906	34.730	0.485
374.000	258.592	80.002	19.996	103.200	19.892	35.678	0.485
376.000	259.597	80.002	19.995	103.216	19.878	36.678	0.469
378.000	260.528	80.002	19.995	103.212	19.863	37.702	0.500
380.000	261.532	80.002	19.995	103.207	19.850	38.584	0.490
382.000	262.525	80.003	19.996	103.212	19.839	39.413	0.490
384.000	263.481	80.002	19.996	103.276	19.823	40.501	0.503
386.000	264.481	80.004	19.996	103.232	19.805	41.751	0.514
388.000	265.462	80.002	19.995	103.236	19.791	42.762	0.485
390.000	266.424	80.004	19.996	103.229	19.771	44.108	0.514
392.000	267.440	80.005	19.996	103.235	19.760	44.881	0.552
394.000	268.389	80.002	19.994	103.236	19.739	46.329	0.495
396.000	269.395	80.003	19.995	103.236	19.724	47.427	0.502
398.000	270.409	80.001	19.995	103.247	19.711	48.326	0.524
400.000	271.419	80.001	19.995	103.239	19.697	49.298	0.490
402.000	272.418	80.001	19.994	103.271	19.685	50.111	0.512
404.000	273.370	80.002	19.995	103.251	19.675	50.805	0.498
406.000	274.387	80.001	19.995	103.256	19.669	51.255	0.511
408.000	275.386	80.002	19.995	103.251	19.665	51.559	0.502
410.000	276.365	80.004	19.994	103.239	19.666	51.479	0.484
412.000	277.373	80.002	19.995	103.254	19.669	51.232	0.509
414.000	278.365	80.003	19.995	103.236	19.675	50.828	0.505
416.000	279.349	80.002	19.994	103.223	19.687	49.965	0.502
418.000	280.401	80.003	19.995	103.204	19.706	48.667	0.499
420.000	281.395	80.002	19.995	103.269	19.731	46.923	0.495
422.001	282.424	80.003	19.995	103.228	19.755	45.235	0.483
424.000	283.413	80.001	19.995	103.231	19.777	43.686	0.519
426.001	284.432	80.001	19.994	103.230	19.799	42.154	0.518
428.000	285.425	80.001	19.994	103.231	19.816	41.003	0.496
430.000	286.410	80.001	19.996	103.230	19.832	39.836	0.504
432.000	287.354	80.000	19.995	103.234	19.845	38.948	0.468
434.000	288.410	80.002	19.994	103.231	19.861	37.845	0.495
436.000	289.388	80.001	19.994	103.228	19.873	36.979	0.480
438.000	290.380	80.002	19.994	103.227	19.886	36.088	0.485
440.000	291.407	80.005	19.994	103.222	19.899	35.173	0.511
442.000	292.399	80.003	19.994	103.219	19.909	34.523	0.501
444.000	293.381	80.002	19.995	103.215	19.919	33.811	0.513
446.000	294.382	80.002	19.995	103.208	19.931	32.983	0.477
448.000	295.408	80.002	19.996	103.209	19.940	32.304	0.527
450.000	296.396	80.001	19.995	103.210	19.952	31.477	0.488
452.000	297.413	80.002	19.995	103.214	19.965	30.599	0.516
454.000	298.482	80.001	19.995	103.197	19.977	29.735	0.533
456.000	299.506	80.003	19.995	103.217	19.986	29.126	0.523
458.000	300.534	80.003	19.995	103.196	19.997	28.351	0.500
460.000	301.545	80.004	19.995	103.192	20.004	27.863	0.518
462.000	302.549	80.004	19.994	103.191	20.015	27.079	0.498
464.000	303.632	80.004	19.995	103.193	20.021	26.690	0.514
466.000	304.659	80.005	19.994	103.200	20.029	26.155	0.501
468.000	305.697	80.004	19.994	103.186	20.031	25.965	0.527
470.000	306.728	80.004	19.996	103.183	20.038	25.484	0.512
472.000	307.793	80.004	19.995	103.185	20.039	25.429	0.523
474.000	308.832	80.004	19.995	103.187	20.044	25.045	0.541
476.000	309.876	80.002	19.996	103.190	20.046	24.938	0.558
478.000	310.901	80.001	19.997	103.184	20.052	24.518	0.521
480.000	312.005	80.002	19.997	103.187	20.052	24.526	0.525
482.000	313.060	80.002	19.995	103.186	20.054	24.393	0.533
484.000	314.093	80.002	19.995	103.175	20.054	24.382	0.501
486.000	315.145	80.002	19.995	103.177	20.053	24.418	0.523
488.000	316.127	80.002	19.995	103.173	20.051	24.597	0.492
490.000	317.200	80.001	19.995	103.172	20.052	24.519	0.516
492.000	318.294	80.001	19.995	103.168	20.051	24.596	0.539
494.000	319.282	80.001	19.994	103.174	20.053	24.427	0.491
496.000	320.316	80.002	19.994	103.169	20.051	24.576	0.477
498.000	321.334	80.002	19.995	103.167	20.049	24.727	0.501
500.000	322.382	80.002	19.995	103.165	20.049	24.731	0.524
502.000	323.422	80.002	19.995	103.170	20.053	24.449	0.515
504.000	324.470	80.001	19.994	103.156	20.053	24.479	0.533
506.000	325.496	80.001	19.995	103.180	20.055	24.335	0.529
508.000	326.485	80.001	19.995	103.179	20.054	24.382	0.487
510.000	327.537	80.002	19.994	103.168	20.055	24.324	0.517
512.000	328.578	79.999	19.994	103.175	20.054	24.385	0.525
514.000	329.600	80.000	19.994	103.174	20.055	24.320	0.510
516.000	330.601	80.001	19.994	103.176	20.055	24.276	0.484
518.000	331.621	80.004	19.995	103.180	20.060	23.976	0.504
520.000	332.674	80.004	19.994	103.176	20.056	24.222	0.525
522.000	333.683	80.003	19.995	103.174	20.057	24.156	0.491
524.000	334.689	80.006	19.994	103.154	20.059	24.021	0.518
526.000	335.709	80.003	19.994	103.166	20.057	24.134	0.510
528.000	336.762	80.004	19.994	103.156	20.057	24.169	0.529
530.000	337.752	80.002	19.995	103.156	20.053	24.437	0.481
532.000	338.752	80.002	19.995	103.154	20.055	24.283	0.494
534.000	339.771	80.003	19.995	103.171	20.053	24.466	0.506
536.000	340.787	80.002	19.995	103.155	20.054	24.404	0.508
538.000	341.749	80.003	19.995	103.154	20.052	24.501	0.520
540.000	342.770	80.003	19.995	103.155	20.054	24.371	0.468
542.000	343.770	80.004	19.995	103.153	20.053	24.479	0.475
544.000	344.767	80.003	19.995	103.156	20.053	24.449	0.504
546.000	345.718	80.004	19.995	103.150	20.044	25.094	0.483
548.000	346.694	80.004	19.995	103.152	20.048	24.816	0.498
550.000	347.726	80.005	19.993	103.153	20.042	25.187	0.486
552.000	348.723	80.003	19.995	103.173	20.039	25.431	0.529
554.000	349.739	80.004	19.994	103.129	20.033	25.830	0.489
556.000	350.926	80.002	19.996	103.166	20.027	26.269	0.499
558.000	351.918	80.001	19.995	103.159	20.024	26.457	0.604
560.000	352.332	80.001	19.995	103.149	20.014	27.130	0.097
562.000	353.767	80.002	19.995	103.155	20.005	27.758	0.512
564.000	354.754	80.001	19.996	103.129	19.999	28.182	0.533
566.001	355.723	80.001	19.995	103.108	19.987	29.067	0.518
568.000	356.729	80.000	19.996	103.193	19.975	29.850	0.460
570.000	357.746	80.002	19.996	103.152	19.964	30.624	0.536
572.000	358.730	80.001	19.995	103.154	19.948	31.744	0.498
574.000	359.775	80.002	19.995	103.155	19.935	32.683	0.557
576.000	360.791	80.001	19.995	103.151	19.920	33.706	0.532
578.000	361.799	80.002	19.995	103.156	19.899	35.195	0.531
580.000	362.797	80.001	19.993	103.155	19.877	36.733	0.517
582.000	363.802	80.002	19.993	103.161	19.857	38.109	0.476
584.000	364.860	80.001	19.994	103.165	19.835	39.648	0.518
586.000	365.857	80.001	19.995	103.157	19.808	41.545	0.527
588.000	366.905	80.002	19.993	103.159	19.780	43.450	0.515
590.000	367.945	80.000	19.994	103.160	19.750	45.601	0.547
592.000	368.941	80.002	19.995	103.161	19.718	47.817	0.510
594.000	369.977	80.001	19.995	103.169	19.685	50.100	0.463
596.000	371.032	80.003	19.995	103.174	19.647	52.733	0.523
598.000	372.063	80.003	19.995	103.178	19.609	55.365	0.507
600.000	373.119	80.005	19.994	103.186	19.568	58.270	0.552
602.000	374.179	80.004	19.995	103.172	19.527	61.120	0.540
604.000	375.199	80.004	19.994	103.186	19.483	64.191	0.543
606.000	376.223	80.005	19.994	103.188	19.435	67.490	0.517
608.000	377.269	80.004	19.994	103.187	19.388	70.815	0.541
610.000	378.311	80.003	19.994	103.182	19.334	74.592	0.518
612.000	379.307	80.004	19.995	103.184	19.285	77.949	0.510
614.000	380.349	80.004	19.994	103.188	19.228	81.951	0.524
616.000	381.385	80.003	19.994	103.189	19.174	85.740	0.495
618.000	382.387	80.002	19.994	103.191	19.117	89.693	0.493
620.000	383.444	80.003	19.994	103.191	19.059	93.743	0.529
622.000	384.510	80.003	19.993	103.193	19.001	97.793	0.523
624.000	385.486	80.005	19.994	103.191	18.937	102.233	0.513
626.000	386.533	80.005	19.993	103.188	18.874	106.577	0.520
628.000	387.568	80.004	19.996	103.188	18.811	111.020	0.532
630.000	388.560	80.003	19.995	103.188	18.747	115.429	0.503
632.000	389.589	80.004	19.994	103.186	18.685	119.735	0.491
634.000	390.613	80.001	19.995	103.187	18.619	124.323	0.509
636.000	391.621	80.001	19.995	103.181	18.559	128.520	0.502
638.001	392.606	80.000	19.995	103.190	18.502	132.460	0.503
640.000	393.632	80.001	19.994	103.181	18.446	136.373	0.513
642.000	394.640	80.000	19.995	103.155	18.394	139.969	0.515
644.000	395.677	80.000	19.994	103.160	18.349	143.104	0.520
646.000	396.681	80.002	19.994	103.151	18.302	146.354	0.509
648.000	397.681	80.000	19.995	103.144	18.266	148.847	0.497
650.000	398.663	80.003	19.995	103.148	18.233	151.122	0.524
652.000	399.671	80.003	19.995	103.130	18.208	152.870	0.503
654.000	400.645	80.003	19.996	103.112	18.189	154.208	0.477
656.000	401.641	80.002	19.996	103.111	18.172	155.328	0.486
658.000	402.648	80.003	19.996	103.110	18.170	155.519	0.522
660.000	403.600	80.002	19.996	103.104	18.162	156.063	0.472
662.000	404.551	80.000	19.995	103.091	18.166	155.780	0.467
664.000	405.574	80.000	19.996	103.101	18.172	155.329	0.463
666.000	406.574	80.001	19.996	103.075	18.194	153.798	0.519
668.000	407.525	80.002	19.995	103.077	18.219	152.012	0.471
670.000	408.518	80.002	19.994	103.074	18.254	149.623	0.503
672.000	409.504	79.999	19.994	103.049	18.292	146.945	0.498
674.000	410.485	80.002	19.994	103.054	18.344	143.383	0.492
676.000	411.455	80.003	19.995	103.061	18.398	139.679	0.493
678.000	412.415	80.003	19.995	103.041	18.458	135.428	0.493
680.000	413.397	80.004	19.994	103.051	18.520	131.109	0.484
682.000	414.381	80.002	19.995	103.017	18.589	126.362	0.499
684.000	415.362	80.003	19.995	103.048	18.664	121.141	0.497
686.000	416.339	80.002	19.994	103.099	18.733	116.339	0.505
688.000	417.318	80.002	19.995	103.087	18.807	111.150	0.481
690.000	418.326	80.002	19.995	103.073	18.878	106.246	0.506
692.000	419.318	80.002	19.994	103.075	18.954	100.922	0.500
694.000	420.330	80.003	19.994	103.082	19.021	96.240	0.496
696.000	421.314	80.002	19.995	103.084	19.091	91.383	0.484
698.000	422.355	80.002	19.994	103.080	19.157	86.778	0.511
700.000	423.325	80.002	19.994	103.084	19.220	82.431	0.473
702.000	424.340	80.004	19.993	103.079	19.283	78.029	0.511
704.000	425.414	80.005	19.993	103.089	19.346	73.644	0.516
706.000	426.469	80.004	19.993	103.077	19.404	69.627	0.509
708.000	427.503	80.005	19.993	103.084	19.453	66.187	0.512
710.000	428.599	80.004	19.994	103.078	19.507	62.426	0.552
712.000	429.647	80.002	19.994	103.081	19.556	59.035	0.557
714.000	430.650	80.001	19.995	103.076	19.604	55.728	0.521
716.000	431.689	80.001	19.995	103.088	19.651	52.442	0.515
718.000	432.759	80.002	19.994	103.069	19.693	49.483	0.523
720.000	433.795	80.003	19.995	103.078	19.731	46.847	0.505
722.000	434.877	80.000	19.995	103.087	19.767	44.348	0.511
724.000	435.858	80.001	19.995	103.104	19.806	41.618	0.502
726.000	436.984	80.001	19.995	103.095	19.836	39.538	0.551
728.000	438.024	80.002	19.995	103.079	19.865	37.548	0.523
730.000	439.090	80.002	19.994	103.098	19.890	35.771	0.528
732.000	440.093	80.000	19.994	103.078	19.921	33.638	0.537
734.000	441.123	79.999	19.995	103.084	19.942	32.165	0.516
736.000	442.158	80.003	19.995	103.086	19.959	30.954	0.538
738.000	443.195	80.003	19.996	103.080	19.983	29.311	0.518
740.000	444.204	80.002	19.995	103.102	20.000	28.122	0.498
742.000	445.199	80.002	19.996	103.084	20.019	26.827	0.507
744.000	446.232	80.001	19.995	103.085	20.031	25.930	0.525
746.000	447.238	80.001	19.995	103.087	20.043	25.135	0.509
748.000	448.237	79.999	19.996	103.075	20.058	24.075	0.518
750.000	449.250	80.001	19.996	103.076	20.067	23.445	0.504
752.000	450.287	79.999	19.997	103.075	20.082	22.441	0.476
754.000	451.338	80.003	19.996	103.079	20.085	22.202	0.477
756.000	452.349	80.003	19.995	103.077	20.096	21.427	0.492
758.000	453.355	80.002	19.995	103.072	20.100	21.187	0.519
760.000	454.348	80.005	19.995	103.075	20.102	21.034	0.524
762.000	455.391	80.004	19.995	103.075	20.108	20.619	0.514
764.000	456.384	80.003	19.995	103.072	20.115	20.084	0.479
766.000	457.405	80.003	19.995	103.076	20.117	19.942	0.514
768.000	458.395	80.003	19.995	103.078	20.123	19.539	0.500
770.000	459.438	80.002	19.995	103.080	20.125	19.435	0.508
772.000	460.416	80.002	19.994	103.079	20.129	19.135	0.502
774.000	461.375	80.002	19.995	103.078	20.128	19.176	0.482
776.000	462.382	80.002	19.994	103.071	20.130	19.051	0.513
778.000	463.404	80.003	19.995	103.065	20.129	19.140	0.484
780.000	464.416	80.002	19.994	103.069	20.134	18.762	0.502
782.001	465.388	80.005	19.995	103.068	20.132	18.893	0.500
784.000	466.387	80.005	19.993	103.054	20.135	18.713	0.505
786.000	467.409	80.004	19.995	103.061	20.137	18.552	0.496
788.000	468.396	80.004	19.994	103.067	20.134	18.824	0.510
790.000	469.414	80.002	19.993	103.067	20.138	18.515	0.506
792.000	470.398	80.004	19.994	103.054	20.138	18.486	0.499
794.000	471.398	80.002	19.995	103.062	20.140	18.361	0.520
796.000	472.405	80.001	19.995	103.063	20.145	18.039	0.502
798.000	473.430	80.002	19.995	103.071	20.146	17.924	0.512
800.000	474.475	80.003	19.995	103.069	20.147	17.882	0.513
802.000	475.491	80.001	19.995	103.066	20.154	17.421	0.519
804.000	476.451	80.001	19.995	103.063	20.159	17.028	0.487
806.000	477.488	80.003	19.994	103.053	20.162	16.836	0.526
808.000	478.494	80.001	19.994	103.066	20.168	16.396	0.509
810.000	479.496	80.001	19.994	103.060	20.174	16.038	0.517
812.000	480.501	80.002	19.995	103.067	20.176	15.886	0.487
814.000	481.509	80.002	19.994	103.065	20.185	15.210	0.507
816.000	482.541	80.002	19.995	103.070	20.198	14.336	0.471
818.000	483.548	80.002	19.995	103.065	20.199	14.235	0.512
820.000	484.518	80.000	19.995	103.074	20.211	13.404	0.513
822.000	485.559	80.000	19.995	103.066	20.219	12.878	0.485
824.000	486.519	80.002	19.995	103.073	20.227	12.298	0.472
826.000	487.566	80.000	19.996	103.071	20.235	11.758	0.504
828.000	488.569	79.999	19.995	103.076	20.242	11.296	0.531
830.000	489.609	80.000	19.996	103.073	20.247	10.891	0.533
832.000	490.657	80.000	19.994	103.072	20.259	10.119	0.525
834.000	491.623	80.002	19.996	103.076	20.262	9.863	0.512
836.000	492.627	80.001	19.995	103.076	20.271	9.225	0.481
838.000	493.681	80.002	19.996	103.074	20.274	9.053	0.538
840.000	494.725	80.003	19.995	103.076	20.279	8.726	0.501
842.000	495.694	80.001	19.995	103.073	20.284	8.325	0.502
844.000	496.709	80.002	19.996	103.072	20.292	7.809	0.512
846.000	497.716	80.003	19.996	103.071	20.295	7.584	0.529
848.000	498.723	80.001	19.995	103.074	20.298	7.341	0.506
850.000	499.727	80.001	19.995	103.075	20.300	7.240	0.504
852.000	500.704	80.002	19.994	103.074	20.305	6.891	0.516
854.001	501.728	80.003	19.994	103.072	20.307	6.768	0.521
856.000	502.749	80.003	19.994	103.078	20.311	6.475	0.514
858.000	503.773	80.003	19.994	103.086	20.309	6.586	0.528
860.000	504.815	80.005	19.995	103.072	20.314	6.262	0.525
862.000	505.828	80.002	19.994	103.081	20.313	6.357	0.511
864.000	506.792	80.005	19.994	103.075	20.317	6.055	0.496
866.000	507.797	80.004	19.994	103.077	20.319	5.906	0.489
868.000	508.886	80.003	19.994	103.071	20.319	5.908	0.530
870.000	509.931	80.001	19.995	103.077	20.314	6.241	0.525
872.000	510.898	80.003	19.994	103.069	20.316	6.089	0.518
874.000	511.901	80.001	19.996	103.069	20.319	5.940	0.503
876.000	512.936	80.003	19.994	103.078	20.317	6.074	0.521
878.000	513.922	80.000	19.995	103.076	20.319	5.920	0.499
880.000	514.995	80.001	19.994	103.078	20.323	5.649	0.516
882.000	515.990	80.001	19.995	103.074	20.321	5.806	0.505
884.000	516.986	80.000	19.994	103.072	20.318	5.951	0.506
886.000	518.023	80.000	19.994	103.072	20.323	5.649	0.501
888.000	519.021	80.000	19.994	103.082	20.318	5.966	0.513
890.000	520.039	80.001	19.994	103.089	20.322	5.724	0.511
892.000	521.059	80.002	19.994	103.098	20.323	5.664	0.500
894.000	522.172	80.002	19.994	103.099	20.321	5.746	0.510
896.000	523.200	80.003	19.994	103.100	20.324	5.587	0.530
898.000	524.263	80.000	19.995	103.084	20.323	5.618	0.504
900.000	525.381	80.002	19.995	103.093	20.323	5.654	0.563
902.000	526.445	80.004	19.994	103.087	20.320	5.853	0.549
904.000	527.550	80.001	19.995	103.093	20.321	5.742	0.566
906.000	528.652	80.001	19.995	103.085	20.322	5.683	0.578
908.000	529.749	79.999	19.995	103.082	20.320	5.819	0.560
910.000	530.880	80.000	19.994	103.080	20.320	5.820	0.568
912.000	531.979	80.002	19.995	103.075	20.320	5.839	0.572
914.000	533.127	80.001	19.994	103.083	20.322	5.719	0.566
916.000	534.199	80.004	19.994	103.091	20.327	5.362	0.511
918.000	535.371	80.003	19.994	103.075	20.322	5.698	0.532
920.000	536.532	80.002	19.995	103.085	20.324	5.552	0.576
922.000	537.643	80.002	19.994	103.082	20.327	5.382	0.569
924.000	538.760	80.002	19.995	103.073	20.322	5.731	0.583
926.000	539.870	80.001	19.995	103.075	20.325	5.509	0.590
928.000	541.009	80.001	19.996	103.081	20.326	5.447	0.563
930.000	542.141	80.001	19.995	103.074	20.326	5.417	0.571
932.000	543.272	80.003	19.996	103.070	20.329	5.203	0.569
934.000	544.383	80.003	19.995	103.073	20.327	5.327	0.579
936.000	545.455	80.000	19.996	103.085	20.326	5.400	0.548
938.000	546.558	80.004	19.996	103.064	20.328	5.302	0.538
940.000	547.664	80.005	19.994	103.075	20.328	5.302	0.554
942.000	548.775	80.005	19.994	103.074	20.331	5.090	0.505
944.000	549.910	80.005	19.994	103.079	20.330	5.120	0.569
946.000	551.002	80.004	19.994	103.082	20.331	5.047	0.558
948.000	552.076	80.003	19.994	103.076	20.335	4.833	0.566
950.000	553.165	80.003	19.993	103.073	20.330	5.128	0.545
952.000	554.275	80.001	19.995	103.073	20.335	4.781	0.550
954.000	555.346	80.003	19.995	103.082	20.339	4.515	0.528
956.000	556.421	80.003	19.993	103.094	20.337	4.692	0.497
958.000	557.476	80.001	19.994	103.086	20.338	4.580	0.533
960.000	558.563	80.002	19.995	103.076	20.338	4.593	0.524
962.000	559.655	80.000	19.995	103.076	20.340	4.427	0.559
964.000	560.711	80.002	19.995	103.077	20.337	4.641	0.539
966.000	561.787	80.003	19.995	103.073	20.339	4.553	0.541
968.000	562.831	80.002	19.995	103.066	20.339	4.504	0.506
970.000	563.895	80.004	19.995	103.072	20.341	4.402	0.528
972.000	564.958	80.002	19.994	103.074	20.345	4.116	0.556
974.000	565.970	80.002	19.994	103.081	20.346	4.020	0.521
976.000	566.995	80.002	19.994	103.075	20.347	3.959	0.514
978.000	568.034	80.003	19.995	103.076	20.344	4.164	0.536
980.000	569.070	80.002	19.995	103.076	20.348	3.902	0.534
982.000	570.103	80.002	19.994	103.070	20.344	4.156	0.520
984.000	571.144	80.001	19.995	103.074	20.345	4.072	0.518
986.000	572.202	80.004	19.995	103.078	20.345	4.095	0.557
988.000	573.249	80.003	19.994	103.077	20.349	3.825	0.529
990.000	574.293	80.002	19.995	103.084	20.346	4.007	0.506
992.000	575.361	80.003	19.996	103.071	20.344	4.188	0.496
994.000	576.355	80.003	19.995	103.073	20.348	3.890	0.528
996.000	577.393	80.004	19.995	103.074	20.350	3.737	0.520
998.000	578.364	80.003	19.995	103.079	20.351	3.669	0.507
1000.000	579.391	80.002	19.995	103.073	20.348	3.904	0.491
1002.000	580.428	80.004	19.996	103.072	20.351	3.697	0.543
1004.000	581.347	79.999	19.995	103.073	20.351	3.684	0.491
1006.000	582.351	80.002	19.995	103.073	20.349	3.803	0.497
1008.000	583.391	80.004	19.995	103.073	20.349	3.810	0.516
1010.000	584.414	80.002	19.995	103.075	20.355	3.422	0.502
1012.000	585.415	80.003	19.995	103.075	20.351	3.671	0.481
1014.000	586.394	80.004	19.995	103.072	20.351	3.678	0.495
1016.000	587.407	80.003	19.996	103.075	20.352	3.588	0.492
1018.000	588.382	80.003	19.996	103.085	20.351	3.713	0.491
1020.000	589.364	80.003	19.996	103.075	20.353	3.577	0.473
1022.000	590.374	80.003	19.995	103.076	20.353	3.533	0.524
1024.000	591.366	80.002	19.995	103.083	20.353	3.514	0.475
1026.000	592.372	80.000	19.995	103.075	20.355	3.388	0.502
1028.000	593.346	80.004	19.996	103.075	20.355	3.417	0.520
1030.000	594.344	80.003	19.995	103.077	20.353	3.531	0.500
1032.001	595.329	80.001	19.996	103.072	20.354	3.477	0.469
1034.000	596.315	80.001	19.995	103.072	20.353	3.541	0.500
1036.000	597.298	79.999	19.994	103.078	20.353	3.569	0.490
1038.000	598.265	80.004	19.995	103.088	20.354	3.460	0.483
1040.000	599.263	80.002	19.995	103.076	20.357	3.292	0.492
1042.000	600.269	79.998	19.994	103.079	20.356	3.308	0.491
1044.000	601.228	80.001	19.995	103.073	20.354	3.477	0.506
1046.000	602.206	80.003	19.995	103.073	20.355	3.435	0.484
1048.000	603.148	80.001	19.994	103.074	20.357	3.245	0.473
1050.000	604.159	80.002	19.995	103.074	20.355	3.388	0.496
1052.000	605.128	80.002	19.995	103.078	20.356	3.346	0.493
1054.000	606.117	79.998	19.995	103.077	20.353	3.544	0.525
1056.001	607.107	80.003	19.995	103.074	20.356	3.334	0.473
1058.000	608.054	80.001	19.994	103.080	20.356	3.317	0.490
1060.000	609.062	80.003	19.994	103.095	20.356	3.323	0.492
1062.001	610.042	80.003	19.996	103.079	20.357	3.289	0.480
1064.000	611.032	80.002	19.995	103.074	20.357	3.237	0.498
1066.000	611.995	80.003	19.994	103.074	20.356	3.350	0.494
1068.000	612.973	80.002	19.994	103.080	20.358	3.227	0.503
1070.000	613.961	80.004	19.993	103.079	20.353	3.516	0.487
1072.001	615.025	80.002	19.994	103.083	20.359	3.158	0.515
1074.000	616.061	80.002	19.994	103.079	20.355	3.394	0.505
1076.001	617.027	80.005	19.994	103.076	20.358	3.199	0.505
1078.000	618.039	80.003	19.995	103.080	20.358	3.216	0.491
1080.000	619.031	80.005	19.995	103.076	20.355	3.437	0.504
1082.000	620.102	80.004	19.995	103.074	20.358	3.174	0.513
1084.001	621.101	80.001	19.994	103.075	20.358	3.225	0.537
1086.001	622.101	80.001	19.995	103.077	20.359	3.124	0.513
1088.000	623.118	80.001	19.995	103.076	20.359	3.126	0.510
1090.000	624.133	80.001	19.995	103.075	20.357	3.294	0.497
1092.000	625.140	80.004	19.996	103.074	20.357	3.235	0.473
1094.000	626.129	80.001	19.995	103.074	20.361	2.998	0.479
1096.001	627.180	80.003	19.994	103.074	20.355	3.384	0.510
1098.001	628.197	80.003	19.995	103.072	20.360	3.040	0.501
1100.001	629.199	80.001	19.994	103.069	20.362	2.898	0.499
1102.001	630.207	80.004	19.995	103.071	20.359	3.147	0.510
1104.000	631.213	80.004	19.995	103.072	20.359	3.139	0.484
1106.000	632.252	80.002	19.995	103.082	20.361	3.017	0.503
1108.001	633.246	80.002	19.995	103.071	20.356	3.336	0.494
1110.000	634.321	80.001	19.996	103.069	20.360	3.063	0.510
1112.000	635.334	79.998	19.997	103.071	20.357	3.250	0.525
1114.000	636.351	80.002	19.997	103.070	20.357	3.286	0.542
1116.000	637.312	80.002	19.996	103.070	20.355	3.391	0.473
1118.000	638.364	79.999	19.996	103.072	20.354	3.470	0.534
1120.000	639.351	80.001	19.997	103.076	20.353	3.512	0.500
1122.000	640.353	80.000	19.994	103.079	20.358	3.189	0.473
1124.000	641.372	80.002	19.995	103.072	20.357	3.290	0.501
1126.001	642.370	80.004	19.994	103.071	20.358	3.170	0.477
1128.001	643.377	80.002	19.994	103.072	20.358	3.231	0.515
1130.000	644.411	80.001	19.995	103.072	20.355	3.372	0.515
1132.000	645.382	80.000	19.994	103.074	20.358	3.218	0.512
1134.000	646.379	80.000	19.994	103.072	20.356	3.329	0.495
1136.000	647.406	80.001	19.994	103.074	20.354	3.460	0.500
1138.001	648.380	80.002	19.995	103.076	20.356	3.363	0.484
1140.001	649.397	80.004	19.995	103.069	20.357	3.287	0.477
1142.000	650.413	80.001	19.994	103.074	20.357	3.283	0.513
1144.000	651.365	79.999	19.994	103.075	20.359	3.105	0.492
1146.000	652.358	80.002	19.994	103.072	20.356	3.332	0.486
1148.000	653.364	79.999	19.994	103.074	20.355	3.374	0.489
1150.000	654.357	79.999	19.995	103.075	20.356	3.309	0.500
1152.000	655.373	80.002	19.994	103.080	20.354	3.504	0.517
1154.000	656.346	80.002	19.993	103.075	20.355	3.393	0.483
1156.000	657.329	80.004	19.995	103.080	20.357	3.277	0.466
1158.000	658.314	80.003	19.995	103.063	20.355	3.386	0.513
1160.000	659.318	80.003	19.994	103.072	20.354	3.510	0.519
1162.000	660.306	80.003	19.994	103.075	20.356	3.360	0.510
1164.000	661.243	80.002	19.994	103.081	20.357	3.281	0.502
1166.000	662.233	80.003	19.994	103.068	20.355	3.391	0.466
1168.001	663.270	80.003	19.994	103.068	20.358	3.183	0.525
1170.000	664.257	80.003	19.996	103.078	20.356	3.343	0.523
1172.001	665.219	80.001	19.995	103.059	20.356	3.337	0.495
1174.000	666.148	80.001	19.995	103.064	20.355	3.422	0.443
1176.000	667.186	80.003	19.994	103.067	20.357	3.265	0.506
1178.001	668.195	80.005	19.995	103.066	20.355	3.376	0.470
1180.000	669.158	80.004	19.995	103.056	20.354	3.496	0.499
1182.000	670.146	80.006	19.995	103.043	20.354	3.488	0.483
1184.000	671.121	80.005	19.995	103.060	20.354	3.464	0.466
1186.001	672.150	80.003	19.995	103.069	20.356	3.303	0.529
1188.000	673.122	80.003	19.994	103.060	20.355	3.387	0.507
1190.000	674.152	80.000	19.995	103.053	20.355	3.372	0.523
1192.000	675.189	80.003	19.995	103.051	20.354	3.477	0.531
1194.001	676.228	80.001	19.994	103.052	20.355	3.377	0.549
1196.000	677.188	80.002	19.994	103.062	20.353	3.538	0.498
1198.000	678.159	80.001	19.996	103.043	20.352	3.628	0.482
1200.000	679.174	80.001	19.995	103.053	20.355	3.391	0.495
1202.001	680.213	80.002	19.995	103.054	20.351	3.689	0.526
1204.000	681.161	80.001	19.996	103.043	20.356	3.334	0.494
1206.001	682.146	79.999	19.995	103.054	20.354	3.495	0.489
1208.001	683.158	80.001	19.996	103.057	20.358	3.219	0.498
1210.000	684.107	80.002	19.996	103.046	20.357	3.295	0.510
1212.000	685.099	80.001	19.994	103.047	20.356	3.345	0.465
1214.000	686.088	80.001	19.995	103.056	20.354	3.467	0.484
1216.000	687.108	80.001	19.994	103.061	20.356	3.355	0.493
1218.000	688.130	80.004	19.995	103.074	20.354	3.466	0.522
1220.000	689.128	80.000	19.995	103.049	20.356	3.321	0.513
1222.000	690.141	80.001	19.996	103.049	20.355	3.435	0.524
1224.001	691.148	80.001	19.994	103.060	20.354	3.442	0.494
1226.000	692.199	80.001	19.995	103.049	20.354	3.479	0.541
1228.000	693.194	80.001	19.994	103.071	20.352	3.646	0.513
1230.000	694.262	80.002	19.995	103.068	20.349	3.793	0.532
1232.000	695.324	80.003	19.995	103.067	20.349	3.857	0.539
1234.001	696.399	80.001	19.994	103.056	20.351	3.667	0.512
1236.000	697.462	80.002	19.994	103.061	20.351	3.654	0.529
1238.000	698.551	80.004	19.995	103.047	20.354	3.454	0.554
1240.000	699.593	80.003	19.994	103.039	20.355	3.391	0.516
1242.001	700.692	80.003	19.995	103.046	20.351	3.679	0.556
1244.000	701.776	80.004	19.994	103.068	20.352	3.626	0.538
1246.000	702.836	80.004	19.995	103.062	20.354	3.506	0.548
1248.000	703.950	80.005	19.994	103.041	20.352	3.581	0.576
1250.000	705.002	80.003	19.994	103.057	20.352	3.601	0.560
1252.000	706.089	80.005	19.995	103.048	20.352	3.633	0.552
1254.000	707.141	80.005	19.995	103.050	20.354	3.505	0.527
1256.000	708.184	80.005	19.993	103.066	20.352	3.622	0.534
1258.000	709.278	80.004	19.993	103.048	20.354	3.484	0.526
1260.000	710.281	80.003	19.994	103.038	20.355	3.372	0.537
1262.000	711.375	80.002	19.994	103.042	20.356	3.329	0.543
1264.000	712.406	80.003	19.994	103.048	20.355	3.426	0.504
1266.000	713.465	80.003	19.995	103.059	20.354	3.452	0.511
1268.000	714.521	79.999	19.994	103.059	20.356	3.370	0.529
1270.000	715.584	80.000	19.995	103.049	20.353	3.540	0.523
1272.001	716.643	80.001	19.995	103.049	20.357	3.272	0.503
1274.000	717.715	80.002	19.995	103.053	20.348	3.893	0.533
1276.000	718.764	80.001	19.994	103.060	20.354	3.497	0.504
1278.001	719.735	80.002	19.994	103.038	20.353	3.523	0.489
1280.000	720.801	80.000	19.995	103.058	20.354	3.444	0.514
1282.000	721.811	80.001	19.994	103.052	20.352	3.622	0.514
1284.000	722.771	80.002	19.995	103.039	20.355	3.410	0.466
1286.001	723.788	80.004	19.996	103.040	20.354	3.480	0.478
1288.000	724.772	80.002	19.995	103.046	20.356	3.369	0.492
1290.000	725.752	80.002	19.996	103.067	20.352	3.645	0.510
1292.000	726.681	80.003	19.996	103.040	20.353	3.567	0.452
1294.000	727.681	80.000	19.995	103.053	20.348	3.859	0.460
1296.000	728.661	80.001	19.995	103.051	20.352	3.645	0.479
1298.000	729.601	80.003	19.997	103.037	20.351	3.681	0.480
1300.000	730.601	80.001	19.995	103.043	20.348	3.868	0.502
1302.000	731.566	80.002	19.996	103.049	20.349	3.790	0.503
1304.000	732.504	80.001	19.995	103.057	20.348	3.917	0.484
1306.000	733.465	80.003	19.995	103.045	20.348	3.893	0.471
1308.000	734.399	80.003	19.994	103.044	20.352	3.645	0.468
1310.001	735.337	80.003	19.995	103.044	20.346	4.013	0.460
1312.001	736.308	80.005	19.995	103.058	20.350	3.727	0.478
1314.000	737.265	80.004	19.995	103.062	20.351	3.708	0.493
1316.000	738.222	80.003	19.995	103.058	20.348	3.879	0.496
1318.000	739.246	80.005	19.994	103.060	20.350	3.724	0.509
1320.000	740.296	80.002	19.994	103.049	20.349	3.803	0.527
1322.001	741.308	80.003	19.994	103.056	20.350	3.786	0.510
1324.000	742.357	80.002	19.994	103.053	20.350	3.723	0.528
1325.500	743.220	80.002	19.995	103.067	20.347	3.935	0.555