File: 01_Data/Coffee_Machine/STA/N2/10K_min/Coffee_Maker_STA_N2_10KData_220202_R2.csv
##Temp./Â°C,Time/min,Mass loss(subtr.2)/mg,DSC(subtr.2)/(mW/mg),Sensit./(uV/mW)
49.364,10.01,0.02293,-0.001239513,1.07447
49.964,10.7296,0.02139371,0.04720674,1.07442
50.564,10.91798,0.02309352,0.08329076,1.07438
51.164,11.05852,0.02315526,0.11236,1.07434
51.764,11.17745,0.02373307,0.1411,1.0743
52.364,11.28207,0.02370826,0.1611,1.07425
52.964,11.3784,0.02286367,0.18049,1.0742
53.564,11.4689,0.02434264,0.19498,1.07416
54.164,11.5547,0.0242122,0.21189,1.07411
54.764,11.63697,0.02328765,0.22637,1.07406
55.364,11.71625,0.02416153,0.23475,1.07401
55.964,11.79311,0.02307424,0.24747,1.07396
56.564,11.8682,0.02483263,0.25848,1.07391
57.164,11.94153,0.02511803,0.26616,1.07386
57.764,12.01372,0.02490217,0.27362,1.07381
58.364,12.0848,0.02474314,0.28171,1.07376
58.964,12.15447,0.02361998,0.28948,1.0737
59.564,12.22412,0.02364363,0.2921,1.07365
60.164,12.2931,0.02403317,0.29858,1.07359
60.764,12.3618,0.02464568,0.30445,1.07353
61.364,12.42939,0.02435226,0.30792,1.07348
61.964,12.49664,0.02560432,0.31033,1.07342
62.564,12.56369,0.02468156,0.31591,1.07336
63.164,12.6302,0.02468545,0.31785,1.0733
63.764,12.69634,0.02404282,0.31935,1.07324
64.364,12.76213,0.0246799,0.32495,1.07318
64.964,12.8279,0.02587426,0.32522,1.07312
65.564,12.89315,0.02467979,0.32582,1.07305
66.164,12.95851,0.0248999,0.32736,1.07299
66.764,13.0234,0.02623166,0.32872,1.07292
67.364,13.08822,0.02610728,0.32938,1.07286
67.964,13.1525,0.02609711,0.3317,1.07279
68.564,13.2169,0.02570359,0.33507,1.07272
69.164,13.28089,0.02611912,0.33674,1.07265
69.764,13.3449,0.02481371,0.33542,1.07259
70.364,13.4084,0.02479995,0.33375,1.07252
70.964,13.4724,0.02608661,0.33773,1.07244
71.564,13.53575,0.02478025,0.34115,1.07237
72.164,13.59934,0.02610762,0.34019,1.0723
72.764,13.6624,0.02479153,0.34198,1.07223
73.364,13.7258,0.02497307,0.34153,1.07215
73.964,13.7889,0.02478999,0.34401,1.07208
74.564,13.85239,0.02502091,0.3438,1.072
75.164,13.9152,0.02478849,0.34333,1.07192
75.764,13.978,0.02482455,0.34257,1.07185
76.364,14.0408,0.02478896,0.34595,1.07177
76.964,14.1037,0.02610836,0.34625,1.07169
77.564,14.16588,0.02742356,0.34655,1.07161
78.164,14.2279,0.02612452,0.34666,1.07153
78.764,14.28972,0.02610859,0.34999,1.07145
79.364,14.35165,0.02610172,0.34931,1.07136
79.964,14.41361,0.02550696,0.35074,1.07128
80.564,14.47541,0.02642845,0.35248,1.0712
81.164,14.53721,0.02646319,0.35389,1.07111
81.764,14.5987,0.02551957,0.35587,1.07103
82.364,14.6602,0.02610914,0.35534,1.07094
82.964,14.72135,0.02476504,0.3557,1.07085
83.564,14.7825,0.02478499,0.35793,1.07076
84.164,14.84358,0.02478977,0.35917,1.07067
84.764,14.90475,0.02567393,0.35748,1.07058
85.364,14.9656,0.02450755,0.36027,1.07049
85.964,15.02619,0.02446009,0.36025,1.0704
86.564,15.0869,0.0247923,0.36226,1.07031
87.164,15.1475,0.02347006,0.36523,1.07022
87.764,15.20841,0.02370192,0.36224,1.07012
88.364,15.26915,0.02347934,0.36428,1.07003
88.964,15.32956,0.02478975,0.36631,1.06993
89.564,15.39001,0.02347012,0.36955,1.06983
90.164,15.45033,0.0234715,0.36905,1.06974
90.764,15.51077,0.02511648,0.36852,1.06964
91.364,15.57112,0.02511989,0.36739,1.06954
91.964,15.6312,0.02619741,0.37,1.06944
92.564,15.69113,0.0264295,0.37333,1.06934
93.164,15.75109,0.02618093,0.37354,1.06924
93.764,15.81051,0.02512049,0.37599,1.06913
94.364,15.87,0.02512,0.3773,1.06903
94.964,15.92941,0.02512425,0.37868,1.06893
95.564,15.98904,0.02554249,0.37918,1.06882
96.164,16.0485,0.02555995,0.38254,1.06872
96.764,16.10797,0.02527704,0.38284,1.06861
97.364,16.16753,0.02489849,0.38412,1.0685
97.964,16.2268,0.02370433,0.38669,1.06839
98.564,16.2857,0.02452903,0.38554,1.06828
99.164,16.34473,0.02392599,0.38494,1.06817
99.764,16.4038,0.02523049,0.38961,1.06806
100.364,16.46279,0.02523007,0.38956,1.06795
100.964,16.52175,0.02662213,0.39284,1.06784
101.564,16.58071,0.02655443,0.39318,1.06773
102.164,16.63964,0.02621733,0.3931,1.06761
102.764,16.6985,0.02489865,0.39686,1.0675
103.364,16.75747,0.02619124,0.39863,1.06738
103.964,16.81652,0.02621,0.39709,1.06727
104.564,16.8754,0.02628755,0.39893,1.06715
105.164,16.9341,0.02750731,0.39988,1.06703
105.764,16.9928,0.02647034,0.39901,1.06691
106.364,17.05143,0.02575666,0.40186,1.06679
106.964,17.11035,0.02490082,0.4027,1.06667
107.564,17.16901,0.0262193,0.40271,1.06655
108.164,17.2276,0.02490663,0.40286,1.06643
108.764,17.28624,0.02489997,0.40415,1.0663
109.364,17.345,0.02481088,0.40697,1.06618
109.964,17.40375,0.02620999,0.40662,1.06606
110.564,17.46246,0.02644882,0.40614,1.06593
111.164,17.5211,0.02622009,0.40789,1.0658
111.764,17.5797,0.02622,0.40811,1.06568
112.364,17.6385,0.02620875,0.40878,1.06555
112.964,17.69726,0.02522934,0.41376,1.06542
113.564,17.75591,0.02522933,0.4138,1.06529
114.164,17.81467,0.02496637,0.41372,1.06516
114.764,17.8733,0.02619185,0.414,1.06503
115.364,17.93195,0.02522162,0.41649,1.0649
115.964,17.99053,0.02522,0.41737,1.06477
116.564,18.04906,0.02522,0.41903,1.06463
117.164,18.10749,0.02521345,0.41848,1.0645
117.764,18.166,0.02653853,0.41922,1.06436
118.364,18.2245,0.02653172,0.42091,1.06423
118.964,18.2831,0.02596461,0.42201,1.06409
119.564,18.34153,0.0262187,0.42508,1.06395
120.164,18.39987,0.02622052,0.42439,1.06381
120.764,18.45834,0.02490063,0.42697,1.06367
121.364,18.51686,0.02502279,0.42752,1.06353
121.964,18.5754,0.02765428,0.43209,1.06339
122.564,18.6338,0.02617677,0.43156,1.06325
123.164,18.69202,0.02479099,0.43113,1.06311
123.764,18.7504,0.02513542,0.43137,1.06297
124.364,18.80859,0.02511997,0.43551,1.06282
124.964,18.86692,0.02512201,0.4352,1.06268
125.564,18.92557,0.02608574,0.43773,1.06253
126.164,18.98387,0.02489276,0.43944,1.06239
126.764,19.04249,0.02479001,0.44114,1.06224
127.364,19.10077,0.02479,0.44257,1.06209
127.964,19.15919,0.02479021,0.4425,1.06194
128.564,19.21748,0.02549534,0.44628,1.06179
129.164,19.276,0.02476188,0.44583,1.06164
129.764,19.33401,0.02478999,0.44761,1.06149
130.364,19.39227,0.02479,0.45077,1.06134
130.964,19.45048,0.02478999,0.45285,1.06119
131.564,19.50903,0.02354471,0.4557,1.06103
132.164,19.56731,0.02481792,0.45581,1.06088
132.764,19.62572,0.02572335,0.4588,1.06072
133.364,19.68414,0.02573223,0.46222,1.06057
133.964,19.7425,0.0261078,0.46289,1.06041
134.564,19.8008,0.02476805,0.46563,1.06025
135.164,19.85905,0.0247901,0.4692,1.06009
135.764,19.9173,0.02445366,0.47395,1.05993
136.364,19.97539,0.0257806,0.47599,1.05977
136.964,20.03355,0.02478256,0.48098,1.05961
137.564,20.0917,0.02479,0.48296,1.05945
138.164,20.1496,0.02479,0.48956,1.05929
138.764,20.20779,0.02479085,0.49324,1.05913
139.364,20.26566,0.02616025,0.50012,1.05896
139.964,20.32384,0.02479183,0.5043,1.0588
140.564,20.38193,0.0253044,0.51234,1.05863
141.164,20.4398,0.02513682,0.51638,1.05846
141.764,20.49764,0.02478998,0.52301,1.0583
142.364,20.55526,0.02478334,0.52904,1.05813
142.964,20.6131,0.02610819,0.53439,1.05796
143.564,20.67114,0.02611146,0.54451,1.05779
144.164,20.7291,0.02478891,0.54853,1.05762
144.764,20.78721,0.02479,0.55786,1.05745
145.364,20.84489,0.02479,0.56474,1.05728
145.964,20.90256,0.02479007,0.57186,1.05711
146.564,20.96057,0.02612931,0.58281,1.05693
147.164,21.0184,0.02741122,0.59351,1.05676
147.764,21.07643,0.0267094,0.60275,1.05658
148.364,21.13439,0.02604105,0.61502,1.05641
148.964,21.1923,0.02611318,0.62831,1.05623
149.564,21.25009,0.0247901,0.64031,1.05605
150.164,21.30823,0.02479,0.65606,1.05587
150.764,21.3662,0.02479049,0.67116,1.0557
151.364,21.42449,0.02544494,0.68824,1.05552
151.964,21.48271,0.02578018,0.70769,1.05534
152.564,21.54084,0.02577972,0.72772,1.05515
153.164,21.5988,0.02446605,0.75116,1.05497
153.764,21.65693,0.02481405,0.7757,1.05479
154.364,21.7151,0.02610668,0.80291,1.05461
154.964,21.7734,0.0261,0.83334,1.05442
155.564,21.83155,0.02609987,0.8669,1.05424
156.164,21.88982,0.02545183,0.90041,1.05405
156.764,21.94803,0.02480722,0.93875,1.05386
157.364,22.00633,0.02599705,0.98053,1.05368
157.964,22.0645,0.02610995,1.02528,1.05349
158.564,22.12284,0.02610996,1.06852,1.0533
159.164,22.18095,0.02650444,1.11979,1.05311
159.764,22.23915,0.02741961,1.1708,1.05292
160.364,22.2974,0.02609674,1.22519,1.05273
160.964,22.35567,0.02609973,1.27835,1.05253
161.564,22.41413,0.02709378,1.33372,1.05234
162.164,22.4725,0.02741994,1.39008,1.05215
162.764,22.53094,0.02742,1.444,1.05195
163.364,22.58908,0.02742002,1.4965,1.05176
163.964,22.64736,0.02751856,1.54552,1.05156
164.564,22.70572,0.02642954,1.58542,1.05136
165.164,22.7641,0.02643,1.61657,1.05117
165.764,22.8229,0.02643008,1.63183,1.05097
166.364,22.88124,0.02780641,1.62288,1.05077
166.964,22.93947,0.02775004,1.58735,1.05057
167.564,22.9973,0.02741106,1.51003,1.05037
168.164,23.05487,0.02658627,1.39272,1.05017
168.764,23.11226,0.02611621,1.24474,1.04997
169.364,23.16965,0.02741885,1.09233,1.04976
169.964,23.22662,0.026106,0.95188,1.04956
170.564,23.28334,0.02747216,0.8408,1.04935
171.164,23.33989,0.02742,0.7571,1.04915
171.764,23.39631,0.02742002,0.69599,1.04894
172.364,23.45254,0.02744614,0.65013,1.04874
172.964,23.50891,0.02609925,0.61864,1.04853
173.564,23.56547,0.0261,0.59801,1.04832
174.164,23.62213,0.02610089,0.57922,1.04811
174.764,23.67898,0.02741799,0.56813,1.0479
175.364,23.7356,0.02743786,0.55814,1.04769
175.964,23.7924,0.02742001,0.55184,1.04748
176.564,23.8491,0.02742,0.54697,1.04727
177.164,23.90621,0.02742003,0.54195,1.04705
177.764,23.96317,0.0274813,0.53995,1.04684
178.364,24.02019,0.02611002,0.53805,1.04663
178.964,24.07731,0.02611,0.53463,1.04641
179.564,24.13423,0.02611788,0.53646,1.0462
180.164,24.19136,0.02643957,0.5355,1.04598
180.764,24.24846,0.02644399,0.53226,1.04576
181.364,24.30571,0.02610712,0.53263,1.04554
181.964,24.36296,0.02643934,0.5322,1.04532
182.564,24.42014,0.02644,0.53341,1.04511
183.164,24.47705,0.02644,0.53024,1.04488
183.764,24.53397,0.02644,0.53068,1.04466
184.364,24.59093,0.02644,0.52957,1.04444
184.964,24.6479,0.02644211,0.53204,1.04422
185.564,24.70487,0.02610754,0.53164,1.044
186.164,24.76185,0.02605541,0.53065,1.04377
186.764,24.81883,0.02573606,0.53423,1.04355
187.364,24.8759,0.0260994,0.53207,1.04332
187.964,24.93304,0.0261,0.53411,1.04309
188.564,24.99022,0.0261,0.53271,1.04287
189.164,25.04748,0.02610001,0.53375,1.04264
189.764,25.10458,0.02611253,0.53339,1.04241
190.364,25.16159,0.02632774,0.53579,1.04218
190.964,25.21862,0.02610994,0.53699,1.04195
191.564,25.27564,0.02580034,0.53712,1.04172
192.164,25.3327,0.02478976,0.53588,1.04149
192.764,25.38999,0.02479,0.53921,1.04126
193.364,25.44708,0.02608706,0.53835,1.04102
193.964,25.50441,0.02611042,0.53906,1.04079
194.564,25.5614,0.02501643,0.53683,1.04055
195.164,25.61852,0.02478999,0.53783,1.04032
195.764,25.67549,0.02478816,0.53829,1.04008
196.364,25.73266,0.02544358,0.53872,1.03985
196.964,25.7898,0.02545,0.54006,1.03961
197.564,25.84691,0.02542466,0.54133,1.03937
198.164,25.90406,0.02413959,0.54268,1.03913
198.764,25.96112,0.02414,0.54139,1.03889
199.364,26.01827,0.02414,0.54057,1.03865
199.964,26.0753,0.02414005,0.5436,1.03841
200.564,26.1323,0.02420176,0.5425,1.03817
201.164,26.1893,0.02446002,0.54441,1.03793
201.764,26.24636,0.02445864,0.54369,1.03768
202.364,26.30353,0.02381893,0.54485,1.03744
202.964,26.36075,0.02380016,0.54592,1.03719
203.564,26.4179,0.02476188,0.54801,1.03695
204.164,26.4751,0.02478998,0.54734,1.0367
204.764,26.5323,0.02479,0.54636,1.03645
205.364,26.58939,0.02479,0.54774,1.03621
205.964,26.6462,0.02479,0.54717,1.03596
206.564,26.70308,0.02478957,0.54896,1.03571
207.164,26.76002,0.0244601,0.54921,1.03546
207.764,26.8174,0.02398292,0.54945,1.03521
208.364,26.87404,0.02334211,0.5503,1.03496
208.964,26.9314,0.02349263,0.55051,1.0347
209.564,26.98862,0.0234088,0.55102,1.03445
210.164,27.0461,0.02478991,0.5505,1.0342
210.764,27.1038,0.02479,0.55186,1.03394
211.364,27.16092,0.02479,0.55319,1.03369
211.964,27.21817,0.0247886,0.55267,1.03343
212.564,27.27545,0.02347361,0.55086,1.03318
213.164,27.3328,0.02348,0.55262,1.03292
213.764,27.3902,0.02348,0.55255,1.03266
214.364,27.4473,0.02348,0.55483,1.0324
214.964,27.5045,0.02348,0.55342,1.03214
215.564,27.56162,0.02347886,0.5515,1.03188
216.164,27.6188,0.02480103,0.5536,1.03162
216.764,27.67582,0.02478818,0.55323,1.03136
217.364,27.73306,0.02346326,0.5554,1.0311
217.964,27.78994,0.02347,0.55537,1.03084
218.564,27.84722,0.02347,0.55727,1.03057
219.164,27.90454,0.02347,0.5573,1.03031
219.764,27.96185,0.02347,0.55681,1.03004
220.364,28.01933,0.02347,0.55891,1.02978
220.964,28.07654,0.02347003,0.55866,1.02951
221.564,28.13396,0.02273121,0.5583,1.02924
222.164,28.1913,0.02215008,0.55802,1.02898
222.764,28.2485,0.02214998,0.56125,1.02871
223.364,28.30578,0.02205399,0.562,1.02844
223.964,28.363,0.02346988,0.56257,1.02817
224.564,28.42029,0.02347,0.56112,1.0279
225.164,28.4774,0.02347,0.56342,1.02763
225.764,28.5347,0.0234699,0.56275,1.02735
226.364,28.59188,0.0220849,0.56316,1.02708
226.964,28.64905,0.02216002,0.56382,1.02681
227.564,28.7062,0.02216,0.56404,1.02653
228.164,28.7634,0.0221599,0.56358,1.02626
228.764,28.8208,0.02210645,0.56562,1.02598
229.364,28.878,0.02116984,0.56406,1.02571
229.964,28.9353,0.02145527,0.56403,1.02543
230.564,28.9926,0.02249258,0.56439,1.02515
231.164,29.05,0.0234799,0.5651,1.02487
231.764,29.1074,0.02213336,0.56693,1.02459
232.364,29.1647,0.02240404,0.56685,1.02431
232.964,29.222,0.02234958,0.56506,1.02403
233.564,29.27882,0.02215999,0.56653,1.02375
234.164,29.33625,0.02216001,0.56546,1.02347
234.764,29.3936,0.02217184,0.56856,1.02319
235.364,29.4514,0.02117074,0.56633,1.0229
235.964,29.5091,0.02117085,0.56554,1.02262
236.564,29.5661,0.02248458,0.56835,1.02234
237.164,29.6235,0.02248,0.56709,1.02205
237.764,29.6806,0.02247977,0.56858,1.02176
238.364,29.738,0.0214486,0.5684,1.02148
238.964,29.79536,0.02148996,0.56848,1.02119
239.564,29.85251,0.02149,0.57011,1.0209
240.164,29.90965,0.02149,0.57242,1.02061
240.764,29.96671,0.02149,0.57018,1.02032
241.364,30.0237,0.02148951,0.57111,1.02003
241.964,30.0809,0.02117402,0.57315,1.01974
242.564,30.138,0.02117,0.57126,1.01945
243.164,30.1953,0.02119695,0.57328,1.01916
243.764,30.25293,0.02147292,0.57161,1.01887
244.364,30.31028,0.0215,0.57502,1.01857
244.964,30.36771,0.02149957,0.57552,1.01828
245.564,30.42493,0.02081538,0.57727,1.01798
246.164,30.48227,0.02084007,0.57683,1.01769
246.764,30.5396,0.02081203,0.57725,1.01739
247.364,30.5968,0.02090051,0.57531,1.01709
247.964,30.6543,0.02094982,0.57611,1.0168
248.564,30.71163,0.02236126,0.5792,1.0165
249.164,30.76902,0.01963459,0.5788,1.0162
249.764,30.82641,0.01963188,0.58079,1.0159
250.364,30.88358,0.02095685,0.57834,1.0156
250.964,30.94083,0.02058538,0.57957,1.0153
251.564,30.9982,0.02029136,0.5799,1.015
252.164,31.0555,0.02161593,0.58154,1.01469
252.764,31.1128,0.02160973,0.58355,1.01439
253.364,31.1701,0.02094856,0.58274,1.01409
253.964,31.2272,0.02095002,0.58119,1.01378
254.564,31.28463,0.02095002,0.58156,1.01348
255.164,31.3417,0.02097343,0.58321,1.01317
255.764,31.3988,0.02029029,0.58604,1.01286
256.364,31.4561,0.02029,0.5842,1.01256
256.964,31.5135,0.02029,0.58706,1.01225
257.564,31.57077,0.02029,0.58453,1.01194
258.164,31.6281,0.02029386,0.58594,1.01163
258.764,31.68543,0.01963423,0.5854,1.01132
259.364,31.7426,0.01899722,0.58607,1.01101
259.964,31.8,0.01898004,0.58676,1.0107
260.564,31.8573,0.02030203,0.58816,1.01039
261.164,31.91457,0.02034653,0.58695,1.01008
261.764,31.9719,0.01898078,0.58812,1.00976
262.364,32.02896,0.01898707,0.59039,1.00945
262.964,32.08636,0.02031631,0.58677,1.00914
263.564,32.14383,0.02161419,0.58824,1.00882
264.164,32.20132,0.02002298,0.58856,1.0085
264.764,32.25898,0.01909006,0.58773,1.00819
265.364,32.3163,0.01907353,0.58806,1.00787
265.964,32.37357,0.01879334,0.59028,1.00755
266.564,32.43093,0.01939772,0.59168,1.00724
267.164,32.48831,0.01909066,0.58827,1.00692
267.764,32.54566,0.02045446,0.59166,1.0066
268.364,32.6032,0.02040888,0.59199,1.00628
268.964,32.66019,0.01908927,0.59295,1.00596
269.564,32.71731,0.01909001,0.59074,1.00563
270.164,32.77445,0.01909012,0.59265,1.00531
270.764,32.83214,0.01925109,0.59472,1.00499
271.364,32.88987,0.02040033,0.59292,1.00467
271.964,32.9478,0.01779061,0.59506,1.00434
272.564,33.00545,0.01905685,0.59427,1.00402
273.164,33.06258,0.01908089,0.59515,1.00369
273.764,33.11956,0.01911468,0.5942,1.00337
274.364,33.1769,0.01841166,0.59773,1.00304
274.964,33.2341,0.01777007,0.59725,1.00271
275.564,33.29185,0.01790339,0.59714,1.00238
276.164,33.34939,0.01907999,0.59874,1.00205
276.764,33.4069,0.01908,0.60136,1.00172
277.364,33.4642,0.01908,0.60226,1.00139
277.964,33.52171,0.01908124,0.60233,1.00106
278.564,33.57897,0.01776051,0.60218,1.00073
279.164,33.63627,0.01767441,0.60348,1.0004
279.764,33.69362,0.01907986,0.60368,1.00007
280.364,33.75095,0.01908011,0.60507,0.99974
280.964,33.80838,0.01890274,0.60462,0.9994
281.564,33.86591,0.01920715,0.60424,0.99907
282.164,33.92331,0.01788175,0.60592,0.99873
282.764,33.9807,0.0165241,0.60454,0.9984
283.364,34.03818,0.01790309,0.60491,0.99806
283.964,34.09575,0.01915,0.60665,0.99772
284.564,34.15325,0.01788188,0.60491,0.99739
285.164,34.21054,0.01788,0.60441,0.99705
285.764,34.26794,0.01787845,0.60499,0.99671
286.364,34.32542,0.01853394,0.60573,0.99637
286.964,34.383,0.01854,0.6065,0.99603
287.564,34.44061,0.01854,0.60815,0.99569
288.164,34.49805,0.01854,0.60957,0.99535
288.764,34.5555,0.01854,0.60823,0.99501
289.364,34.61288,0.01853897,0.60889,0.99466
289.964,34.67023,0.01721927,0.60812,0.99432
290.564,34.72752,0.01656484,0.60917,0.99398
291.164,34.78499,0.01722475,0.61096,0.99363
291.764,34.84263,0.01722,0.61233,0.99329
292.364,34.90032,0.01722,0.6114,0.99294
292.964,34.95786,0.01722,0.61062,0.9926
293.564,35.01536,0.01722,0.61233,0.99225
294.164,35.07281,0.01721994,0.61208,0.9919
294.764,35.13029,0.0172074,0.6123,0.99155
295.364,35.18764,0.01655983,0.61289,0.9912
295.964,35.24507,0.01655342,0.61379,0.99085
296.564,35.3024,0.01788171,0.61456,0.9905
297.164,35.35971,0.01655967,0.61433,0.99015
297.764,35.4172,0.01656,0.61523,0.9898
298.364,35.4745,0.01656,0.61404,0.98945
298.964,35.53192,0.01655927,0.61584,0.9891
299.564,35.5894,0.01525254,0.6152,0.98875
300.164,35.64663,0.01525201,0.61813,0.98839
300.764,35.70408,0.01620195,0.61649,0.98804
301.364,35.76149,0.01622999,0.61713,0.98768
301.964,35.81885,0.01623,0.61998,0.98733
302.564,35.8763,0.01623,0.61813,0.98697
303.164,35.93381,0.01623,0.61948,0.98662
303.764,35.99123,0.01623001,0.61938,0.98626
304.364,36.04869,0.01621458,0.62003,0.9859
304.964,36.10601,0.01491908,0.62083,0.98554
305.564,36.1631,0.01610164,0.62105,0.98518
306.164,36.22041,0.01622906,0.61957,0.98482
306.764,36.27798,0.01492551,0.62092,0.98446
307.364,36.3356,0.01492,0.62069,0.9841
307.964,36.39334,0.01492,0.62305,0.98374
308.564,36.45074,0.01492,0.62403,0.98338
309.164,36.50816,0.01492004,0.62114,0.98302
309.764,36.56566,0.01511073,0.62232,0.98265
310.364,36.62318,0.01524995,0.6224,0.98229
310.964,36.68077,0.01525,0.62215,0.98192
311.564,36.73827,0.01525,0.62337,0.98156
312.164,36.79582,0.01525,0.62514,0.98119
312.764,36.8535,0.01525,0.62698,0.98083
313.364,36.91104,0.01525,0.62583,0.98046
313.964,36.96856,0.01525,0.62388,0.98009
314.564,37.02616,0.01525055,0.62571,0.97973
315.164,37.08379,0.01414297,0.62589,0.97936
315.764,37.14144,0.01293747,0.62516,0.97899
316.364,37.1991,0.01352166,0.62432,0.97862
316.964,37.25632,0.0142602,0.62605,0.97825
317.564,37.31387,0.01426537,0.62371,0.97788
318.164,37.37157,0.01294126,0.62606,0.97751
318.764,37.42934,0.01294005,0.62545,0.97713
319.364,37.48737,0.01431087,0.62729,0.97676
319.964,37.54514,0.014251,0.62646,0.97639
320.564,37.60301,0.01393065,0.62775,0.97602
321.164,37.66084,0.01392615,0.62852,0.97564
321.764,37.71868,0.01264252,0.62804,0.97527
322.364,37.77637,0.01130071,0.62549,0.97489
322.964,37.8343,0.0112997,0.62774,0.97451
323.564,37.8921,0.01200729,0.62919,0.97414
324.164,37.94998,0.01195,0.62953,0.97376
324.764,38.00799,0.01195,0.62886,0.97338
325.364,38.0657,0.01195001,0.62898,0.973
325.964,38.12372,0.01196926,0.62849,0.97263
326.564,38.18165,0.01126794,0.63019,0.97225
327.164,38.23949,0.0119496,0.63181,0.97187
327.764,38.29764,0.01061608,0.63243,0.97149
328.364,38.35555,0.01063998,0.63511,0.9711
328.964,38.41336,0.01064,0.63429,0.97072
329.564,38.47117,0.01064,0.63719,0.97034
330.164,38.5289,0.01064,0.6389,0.96996
330.764,38.5867,0.01063339,0.63706,0.96957
331.364,38.64461,0.009988152,0.6381,0.96919
331.964,38.70252,0.00998975,0.64006,0.96881
332.564,38.76021,0.00932697,0.63926,0.96842
333.164,38.8182,0.009330012,0.6398,0.96804
333.764,38.87608,0.00933,0.6395,0.96765
334.364,38.93405,0.009330015,0.63826,0.96726
334.964,38.9921,0.009351834,0.64031,0.96688
335.564,39.0502,0.008010974,0.64096,0.96649
336.164,39.1083,0.009329334,0.64155,0.9661
336.764,39.16639,0.0088932,0.64219,0.96571
337.364,39.22441,0.00864801,0.64282,0.96532
337.964,39.2823,0.00734995,0.64113,0.96493
338.564,39.34052,0.008652577,0.6419,0.96454
339.164,39.39864,0.007337199,0.64343,0.96415
339.764,39.45685,0.005372841,0.64202,0.96376
340.364,39.51511,0.006687081,0.6443,0.96336
340.964,39.57285,0.00667807,0.64414,0.96297
341.564,39.63107,0.00683326,0.64457,0.96258
342.164,39.68933,0.006801296,0.64625,0.96218
342.764,39.74781,0.00549598,0.64658,0.96179
343.364,39.80645,0.004338067,0.64799,0.96139
343.964,39.86453,0.004170072,0.64938,0.961
344.564,39.9225,0.004173503,0.64997,0.9606
345.164,39.98042,0.002843538,0.64912,0.96021
345.764,40.03828,0.00219016,0.65353,0.95981
346.364,40.09639,0.00219,0.6543,0.95941
346.964,40.15436,0.00219,0.65412,0.95901
347.564,40.2127,0.00219,0.65624,0.95861
348.164,40.27088,0.00219,0.65871,0.95822
348.764,40.32905,0.002190009,0.65567,0.95782
349.364,40.38697,0.002238458,0.65777,0.95742
349.964,40.445,0.001939427,0.65919,0.95701
350.564,40.50294,0.00195187,0.65966,0.95661
351.164,40.561,-0.000441139,0.65905,0.95621
351.764,40.61935,-0.00176591,0.65742,0.95581
352.364,40.67732,-0.001735961,0.66102,0.95541
352.964,40.73542,-0.0004395297,0.66173,0.955
353.564,40.79334,-0.0004406823,0.66239,0.9546
354.164,40.85155,-0.00179583,0.66687,0.95419
354.764,40.90952,-0.002068412,0.6656,0.95379
355.364,40.96763,-0.00372918,0.66697,0.95338
355.964,41.02563,-0.00373048,0.66803,0.95298
356.564,41.0834,-0.00244493,0.66782,0.95257
357.164,41.14147,-0.003507617,0.66935,0.95216
357.764,41.19944,-0.005047502,0.67161,0.95175
358.364,41.25734,-0.005049995,0.67013,0.95135
358.964,41.31523,-0.005049517,0.67225,0.95094
359.564,41.37319,-0.006236895,0.67036,0.95053
360.164,41.43119,-0.00635999,0.67157,0.95012
360.764,41.4891,-0.00636758,0.67202,0.94971
361.364,41.54717,-0.007359763,0.67099,0.9493
361.964,41.60516,-0.007679371,0.6724,0.94889
362.564,41.66337,-0.00767966,0.67209,0.94847
363.164,41.72152,-0.00878095,0.6716,0.94806
363.764,41.77989,-0.009,0.67036,0.94765
364.364,41.83806,-0.008994268,0.67155,0.94723
364.964,41.8962,-0.01030863,0.67052,0.94682
365.564,41.95425,-0.01038663,0.67082,0.94641
366.164,42.01249,-0.01136841,0.67301,0.94599
366.764,42.07078,-0.01229229,0.67237,0.94558
367.364,42.12907,-0.0136054,0.67067,0.94516
367.964,42.18731,-0.0136096,0.67246,0.94474
368.564,42.24552,-0.01489748,0.67322,0.94433
369.164,42.30358,-0.01491751,0.67227,0.94391
369.764,42.36193,-0.0170039,0.6739,0.94349
370.364,42.42013,-0.01754999,0.67281,0.94307
370.964,42.47853,-0.01755,0.673,0.94265
371.564,42.53694,-0.0175636,0.67552,0.94223
372.164,42.5953,-0.01887337,0.67234,0.94181
372.764,42.65368,-0.01886962,0.67477,0.94139
373.364,42.71179,-0.02017061,0.67686,0.94097
373.964,42.7701,-0.02051716,0.67988,0.94055
374.564,42.82813,-0.02215145,0.68035,0.94013
375.164,42.88637,-0.02347515,0.68196,0.93971
375.764,42.9446,-0.02347167,0.6808,0.93928
376.364,43.00292,-0.02479637,0.68093,0.93886
376.964,43.06122,-0.0247785,0.68547,0.93844
377.564,43.11945,-0.02610021,0.68433,0.93801
378.164,43.1776,-0.02740948,0.68673,0.93759
378.764,43.23578,-0.02873573,0.68979,0.93716
379.364,43.29387,-0.02891733,0.68963,0.93673
379.964,43.35204,-0.03005002,0.68736,0.93631
380.564,43.41013,-0.03136801,0.69079,0.93588
381.164,43.4682,-0.03157216,0.69049,0.93545
381.764,43.5263,-0.03268224,0.69275,0.93503
382.364,43.58432,-0.03401281,0.69309,0.9346
382.964,43.64243,-0.03465828,0.69348,0.93417
383.564,43.70089,-0.03597888,0.69206,0.93374
384.164,43.7592,-0.03663335,0.69511,0.93331
384.764,43.81767,-0.03793369,0.69639,0.93288
385.364,43.8759,-0.03890114,0.69643,0.93245
385.964,43.93421,-0.04048974,0.69921,0.93202
386.564,43.9925,-0.04144693,0.69913,0.93159
387.164,44.051,-0.04196196,0.6988,0.93115
387.764,44.10937,-0.04349016,0.70087,0.93072
388.364,44.1677,-0.0444458,0.70384,0.93029
388.964,44.226,-0.04617366,0.70291,0.92985
389.564,44.28425,-0.04711702,0.70679,0.92942
390.164,44.3425,-0.04845303,0.70769,0.92899
390.764,44.40085,-0.05085235,0.7077,0.92855
391.364,44.45921,-0.0511992,0.70824,0.92812
391.964,44.5175,-0.05327612,0.71107,0.92768
392.564,44.57575,-0.05375335,0.71255,0.92724
393.164,44.63406,-0.05666509,0.71548,0.92681
393.764,44.69243,-0.05836853,0.71683,0.92637
394.364,44.75095,-0.05883996,0.71959,0.92593
394.964,44.8096,-0.0607649,0.72061,0.92549
395.564,44.86799,-0.0620399,0.72165,0.92505
396.164,44.92637,-0.06411978,0.72401,0.92461
396.764,44.98472,-0.06589987,0.73235,0.92417
397.364,45.043,-0.06880918,0.73483,0.92373
397.964,45.1015,-0.0700973,0.73515,0.92329
398.564,45.15997,-0.07183765,0.73559,0.92285
399.164,45.21856,-0.07415977,0.73797,0.92241
399.764,45.27702,-0.07548388,0.74259,0.92197
400.364,45.33538,-0.07792575,0.73969,0.92153
400.964,45.39386,-0.07945467,0.7449,0.92108
401.564,45.4522,-0.08259192,0.74539,0.92064
402.164,45.51075,-0.08431329,0.75067,0.9202
402.764,45.56924,-0.0867182,0.7529,0.91975
403.364,45.6276,-0.08958717,0.75694,0.91931
403.964,45.68616,-0.09139329,0.75892,0.91886
404.564,45.74472,-0.09370394,0.76038,0.91842
405.164,45.80328,-0.09670925,0.76784,0.91797
405.764,45.86189,-0.09724173,0.76826,0.91752
406.364,45.9206,-0.10037,0.7753,0.91708
406.964,45.97929,-0.1034,0.77879,0.91663
407.564,46.0381,-0.10654,0.78203,0.91618
408.164,46.09675,-0.10937,0.7853,0.91573
408.764,46.1554,-0.11249,0.79212,0.91529
409.364,46.21412,-0.11641,0.795,0.91484
409.964,46.27296,-0.11928,0.80258,0.91439
410.564,46.33178,-0.12262,0.80534,0.91394
411.164,46.39048,-0.12607,0.81053,0.91349
411.764,46.44921,-0.12955,0.81344,0.91304
412.364,46.50778,-0.13392,0.82663,0.91258
412.964,46.5666,-0.1373,0.83033,0.91213
413.564,46.62518,-0.14132,0.83403,0.91168
414.164,46.68393,-0.1466,0.83927,0.91123
414.764,46.74268,-0.15034,0.8493,0.91078
415.364,46.8014,-0.15551,0.85381,0.91032
415.964,46.86014,-0.1585,0.86383,0.90987
416.564,46.91861,-0.16424,0.87228,0.90941
417.164,46.97708,-0.1684,0.88149,0.90896
417.764,47.03555,-0.17264,0.88956,0.9085
418.364,47.09411,-0.17783,0.89998,0.90805
418.964,47.15274,-0.18414,0.90571,0.90759
419.564,47.2114,-0.18958,0.9194,0.90714
420.164,47.26988,-0.19523,0.92453,0.90668
420.764,47.32845,-0.20068,0.93495,0.90622
421.364,47.387,-0.20678,0.94752,0.90576
421.964,47.4454,-0.21319,0.95851,0.90531
422.564,47.5039,-0.21957,0.96892,0.90485
423.164,47.5624,-0.22674,0.9803,0.90439
423.764,47.62113,-0.23455,0.99315,0.90393
424.364,47.67982,-0.24139,1.0078,0.90347
424.964,47.7387,-0.25029,1.02275,0.90301
425.564,47.79715,-0.25831,1.03769,0.90255
426.164,47.85586,-0.26664,1.04913,0.90209
426.764,47.91471,-0.27549,1.11597,0.90163
427.364,47.97347,-0.28463,1.07967,0.90116
427.964,48.0323,-0.29425,1.06862,0.9007
428.564,48.09085,-0.30505,1.04315,0.90024
429.164,48.14945,-0.31343,1.03665,0.89978
429.764,48.20815,-0.32234,1.04233,0.89931
430.364,48.26688,-0.33184,1.05674,0.89885
430.964,48.32592,-0.3424,1.07382,0.89838
431.564,48.38475,-0.35455,1.08997,0.89792
432.164,48.44364,-0.36648,1.10745,0.89745
432.764,48.50251,-0.37723,1.1306,0.89699
433.364,48.56132,-0.38975,1.15036,0.89652
433.964,48.6201,-0.40343,1.16169,0.89606
434.564,48.67887,-0.41619,1.18613,0.89559
435.164,48.7378,-0.43024,1.20975,0.89512
435.764,48.7967,-0.44635,1.24208,0.89465
436.364,48.85572,-0.46136,1.27349,0.89419
436.964,48.91487,-0.47826,1.30317,0.89372
437.564,48.97387,-0.4953,1.32982,0.89325
438.164,49.03289,-0.51392,1.36526,0.89278
438.764,49.092,-0.53271,1.39419,0.89231
439.364,49.15108,-0.5537,1.42432,0.89184
439.964,49.2102,-0.57285,1.45646,0.89137
440.564,49.26945,-0.59751,1.49441,0.8909
441.164,49.3286,-0.61993,1.52321,0.89043
441.764,49.38771,-0.64369,1.55885,0.88996
442.364,49.44693,-0.66873,1.60057,0.88949
442.964,49.50589,-0.69601,1.63491,0.88901
443.564,49.56501,-0.72214,1.67588,0.88854
444.164,49.62447,-0.7526,1.7086,0.88807
444.764,49.68388,-0.78375,1.75144,0.88759
445.364,49.74364,-0.81625,1.79782,0.88712
445.964,49.80301,-0.84867,1.82987,0.88665
446.564,49.8624,-0.88393,1.87571,0.88617
447.164,49.92187,-0.91884,1.91908,0.8857
447.764,49.98135,-0.95762,1.96191,0.88522
448.364,50.0407,-0.99808,2.00889,0.88475
448.964,50.10006,-1.03879,2.04338,0.88427
449.564,50.15941,-1.08073,2.09408,0.88379
450.164,50.2188,-1.12767,2.1318,0.88332
450.764,50.27828,-1.1725,2.17938,0.88284
451.364,50.3377,-1.22259,2.216,0.88236
451.964,50.39734,-1.27148,2.25656,0.88188
452.564,50.45697,-1.32436,2.29706,0.88141
453.164,50.51662,-1.37481,2.33865,0.88093
453.764,50.57618,-1.43336,2.3726,0.88045
454.364,50.6355,-1.49016,2.42235,0.87997
454.964,50.695,-1.55249,2.41347,0.87949
455.564,50.75425,-1.61061,2.45447,0.87901
456.164,50.81382,-1.67375,2.48279,0.87853
456.764,50.87307,-1.73646,2.50042,0.87805
457.364,50.93255,-1.80396,2.53301,0.87757
457.964,50.99199,-1.87136,2.54362,0.87708
458.564,51.0514,-1.94109,2.56384,0.8766
459.164,51.1108,-2.01256,2.55551,0.87612
459.764,51.17048,-2.08472,2.5515,0.87564
460.364,51.2299,-2.15774,2.57411,0.87515
460.964,51.2894,-2.23066,2.54371,0.87467
461.564,51.34859,-2.30535,2.54431,0.87419
462.164,51.40783,-2.38054,2.52557,0.8737
462.764,51.46698,-2.45888,2.49563,0.87322
463.364,51.52606,-2.53504,2.4377,0.87273
463.964,51.58522,-2.6122,2.42124,0.87225
464.564,51.64423,-2.68692,2.35045,0.87176
465.164,51.70329,-2.76436,2.30106,0.87128
465.764,51.7621,-2.8347,2.22901,0.87079
466.364,51.82096,-2.91171,2.16624,0.87031
466.964,51.87955,-2.98055,2.09678,0.86982
467.564,51.93827,-3.05212,2.01677,0.86933
468.164,51.997,-3.1186,1.92897,0.86884
468.764,52.05551,-3.18624,1.8516,0.86836
469.364,52.11376,-3.24854,1.76297,0.86787
469.964,52.1718,-3.31201,1.66997,0.86738
470.564,52.22998,-3.37217,1.57081,0.86689
471.164,52.28798,-3.42826,1.46821,0.8664
471.764,52.34599,-3.48266,1.36598,0.86591
472.364,52.40405,-3.53145,1.25983,0.86542
472.964,52.46187,-3.58122,1.15419,0.86493
473.564,52.5199,-3.62349,1.04657,0.86444
474.164,52.57767,-3.66459,0.94746,0.86395
474.764,52.6356,-3.69945,0.84966,0.86346
475.364,52.6937,-3.7309,0.75564,0.86297
475.964,52.75164,-3.75929,0.67297,0.86247
476.564,52.80976,-3.7868,0.59181,0.86198
477.164,52.86775,-3.81024,0.52178,0.86149
477.764,52.92612,-3.83067,0.45918,0.861
478.364,52.98457,-3.84861,0.40207,0.8605
478.964,53.04345,-3.86376,0.35545,0.86001
479.564,53.10187,-3.87769,0.31288,0.85952
480.164,53.16047,-3.88848,0.27415,0.85902
480.764,53.2191,-3.89864,0.24202,0.85853
481.364,53.27789,-3.90832,0.21232,0.85803
481.964,53.33674,-3.9163,0.19101,0.85754
482.564,53.3956,-3.92116,0.1696,0.85704
483.164,53.4546,-3.92742,0.15158,0.85654
483.764,53.51355,-3.93207,0.13533,0.85605
484.364,53.57251,-3.93698,0.12188,0.85555
484.964,53.6315,-3.93954,0.11491,0.85506
485.564,53.69065,-3.94337,0.11322,0.85456
486.164,53.75,-3.94475,0.10203,0.85406
486.764,53.8092,-3.94725,0.09766707,0.85356
487.364,53.86844,-3.9489,0.08773102,0.85306
487.964,53.9276,-3.95146,0.0833687,0.85257
488.564,53.98673,-3.95139,0.0747672,0.85207
489.164,54.0458,-3.95266,0.07041718,0.85157
489.764,54.1051,-3.95408,0.06704149,0.85107
490.364,54.1644,-3.95413,0.0639713,0.85057
490.964,54.2237,-3.95539,0.0614287,0.85007
491.564,54.28297,-3.95539,0.0576406,0.84957
492.164,54.34222,-3.95623,0.056966,0.84907
492.764,54.4012,-3.95671,0.0564006,0.84857
493.364,54.46006,-3.95671,0.06127488,0.84807
493.964,54.5188,-3.9567,0.08422038,0.84756
494.564,54.5775,-3.95539,0.07814755,0.84706
495.164,54.6366,-3.95529,0.07201936,0.84656
495.764,54.6959,-3.95671,0.06155333,0.84606
496.364,54.7554,-3.95671,0.05770224,0.84556
496.964,54.8149,-3.95572,0.05431419,0.84505
497.564,54.8744,-3.95572,0.05555556,0.84455
498.164,54.93387,-3.95573,0.05711745,0.84405
498.764,54.9932,-3.95605,0.05816057,0.84354
499.364,55.05259,-3.95605,0.05888575,0.84304
499.964,55.1116,-3.95605,0.05602373,0.84253
500.564,55.17103,-3.95605,0.05552119,0.84203
501.164,55.23059,-3.95605,0.05693002,0.84152
501.764,55.29034,-3.95639,0.05811881,0.84102
502.364,55.35004,-3.95671,0.05839999,0.84051
502.964,55.4095,-3.95605,0.05919893,0.84001
503.564,55.4689,-3.95506,0.05773248,0.8395
504.164,55.52822,-3.95506,0.05606046,0.83899
504.764,55.58764,-3.95505,0.05660359,0.83849
505.364,55.64708,-3.95638,0.05689323,0.83798
505.964,55.7066,-3.95638,0.05777848,0.83747
506.564,55.76611,-3.95767,0.05816616,0.83696
507.164,55.8255,-3.95769,0.05757889,0.83646
507.764,55.88495,-3.95708,0.05757417,0.83595
508.364,55.94458,-3.95572,0.05796185,0.83544
508.964,56.004,-3.95572,0.05498711,0.83493
509.564,56.06366,-3.95629,0.05836056,0.83442
510.164,56.12328,-3.95779,0.05426651,0.83391
510.764,56.1828,-3.95802,0.0559613,0.8334
511.364,56.2423,-3.95802,0.0561013,0.83289
511.964,56.30197,-3.95802,0.05560301,0.83238
512.564,56.36159,-3.95791,0.05301236,0.83187
513.164,56.4213,-3.9567,0.05483499,0.83136
513.764,56.48105,-3.95713,0.05614906,0.83085
514.364,56.54076,-3.95802,0.05337074,0.83034
514.964,56.60054,-3.95802,0.05214137,0.82983
515.564,56.66026,-3.95802,0.05162045,0.82932
516.164,56.72,-3.9567,0.04796852,0.8288
516.764,56.77955,-3.9567,0.04637682,0.82829
517.364,56.83899,-3.9567,0.04581342,0.82778
517.964,56.89839,-3.95666,0.04463711,0.82727
518.564,56.95785,-3.95934,0.04439415,0.82675
519.164,57.01745,-3.95889,0.04321703,0.82624
519.764,57.0771,-3.95704,0.04570631,0.82573
520.364,57.1369,-3.95703,0.0435781,0.82521
520.964,57.1967,-3.95835,0.04626805,0.8247
521.564,57.25629,-3.95835,0.04249782,0.82418
522.164,57.31581,-3.95835,0.04410107,0.82367
522.764,57.3753,-3.95835,0.0413641,0.82316
523.364,57.4347,-3.95835,0.04415009,0.82264
523.964,57.49435,-3.95813,0.04288773,0.82212
524.564,57.5538,-3.95705,0.04194934,0.82161
525.164,57.61326,-3.95835,0.04127743,0.82109
525.764,57.67281,-3.95835,0.04415746,0.82058
526.364,57.73216,-3.95835,0.04432902,0.82006
526.964,57.79176,-3.95835,0.04379808,0.81954
527.564,57.8511,-3.95902,0.04493963,0.81903
528.164,57.9106,-3.95901,0.04332312,0.81851
528.764,57.97009,-3.95901,0.04538016,0.81799
529.364,58.0296,-3.95901,0.04542858,0.81747
529.964,58.08908,-3.95901,0.0436562,0.81696
530.564,58.1485,-3.95895,0.04299891,0.81644
531.164,58.20786,-3.95835,0.04363051,0.81592
531.764,58.2673,-3.95835,0.04177333,0.8154
532.364,58.3266,-3.95854,0.04545444,0.81488
532.964,58.38612,-3.95901,0.04483658,0.81436
533.564,58.4456,-3.95901,0.04241895,0.81384
534.164,58.5048,-3.95901,0.04425621,0.81332
534.764,58.56435,-3.95965,0.04337371,0.8128
535.364,58.6239,-3.95932,0.04494433,0.81228
535.964,58.6835,-3.95836,0.04139426,0.81176
536.564,58.74318,-3.95901,0.04256307,0.81124
537.164,58.8028,-3.95835,0.04047439,0.81072
537.764,58.86254,-3.95835,0.04188491,0.8102
538.364,58.92227,-3.95835,0.04412269,0.80968
538.964,58.98191,-3.95835,0.04225568,0.80916
539.564,59.0414,-3.95835,0.04321726,0.80864
540.164,59.10109,-3.95901,0.04508012,0.80811
540.764,59.1606,-3.95901,0.04435044,0.80759
541.364,59.22039,-3.95901,0.04491282,0.80707
541.964,59.28,-3.95901,0.04481869,0.80655
542.564,59.33996,-3.95967,0.04556916,0.80602
543.164,59.3998,-3.95835,0.04437983,0.8055
543.764,59.4597,-3.95899,0.04466442,0.80498
544.364,59.5196,-3.95934,0.04469193,0.80445
544.964,59.57945,-3.95934,0.04287393,0.80393
545.564,59.63918,-3.96,0.04598252,0.80341
546.164,59.6989,-3.96,0.04578593,0.80288
546.764,59.75869,-3.96,0.04771344,0.80236
547.364,59.81845,-3.96,0.04535571,0.80183
547.964,59.87843,-3.96004,0.04278655,0.80131
548.564,59.93825,-3.95901,0.04569918,0.80078
549.164,59.99821,-3.95901,0.04645865,0.80026
549.764,60.058,-3.96032,0.04717243,0.79973
550.364,60.118,-3.96033,0.04521298,0.79921
550.964,60.17781,-3.95931,0.04968004,0.79868
551.564,60.23743,-3.95934,0.04764238,0.79816
552.164,60.29704,-3.95934,0.04886716,0.79763
552.764,60.3567,-3.95934,0.0512422,0.7971
553.364,60.4164,-3.95934,0.04956886,0.79658
553.964,60.4762,-3.95933,0.05023684,0.79605
554.564,60.5362,-3.95901,0.0498244,0.79552
555.164,60.5961,-3.95901,0.04555007,0.79499
555.764,60.65609,-3.95765,0.04913941,0.79447
556.364,60.71586,-3.95749,0.0483404,0.79394
556.964,60.7758,-3.95867,0.04852585,0.79341
557.564,60.8355,-3.95868,0.04829012,0.79288
558.164,60.89536,-3.95647,0.05012075,0.79235
558.764,60.95525,-3.95637,0.05010721,0.79183
559.364,61.0151,-3.95764,0.05130616,0.7913
559.964,61.07495,-3.95802,0.05332942,0.79077
560.564,61.1347,-3.95802,0.05210258,0.79024
561.164,61.1945,-3.95802,0.05391571,0.78971
561.764,61.25441,-3.95802,0.05065206,0.78918
562.364,61.31442,-3.95802,0.05243291,0.78865
562.964,61.3742,-3.95802,0.0530539,0.78812
563.564,61.43401,-3.95802,0.05263489,0.78759
564.164,61.49377,-3.95802,0.05419593,0.78706
564.764,61.5536,-3.9578,0.05207048,0.78653
565.364,61.61331,-3.95736,0.05328527,0.786
565.964,61.6732,-3.95736,0.0544444,0.78547
566.564,61.73307,-3.95739,0.05480559,0.78494
567.164,61.79302,-3.95868,0.05302747,0.7844
567.764,61.8529,-3.95868,0.05489309,0.78387
568.364,61.91274,-3.95962,0.05563269,0.78334
568.964,61.9725,-3.95835,0.05613852,0.78281
569.564,62.03235,-3.95835,0.05816834,0.78228
570.164,62.0921,-3.95835,0.05990118,0.78175
570.764,62.15186,-3.95699,0.06052171,0.78121
571.364,62.21145,-3.95703,0.06192512,0.78068
571.964,62.27104,-3.95703,0.05850835,0.78015
572.564,62.3309,-3.95835,0.05730302,0.77962
573.164,62.39066,-3.95835,0.05926621,0.77908
573.764,62.45044,-3.95835,0.06034688,0.77855
574.364,62.5102,-3.95835,0.06015363,0.77802
574.964,62.57005,-3.95835,0.05995621,0.77748
575.564,62.62995,-3.95703,0.06121585,0.77695
576.164,62.6896,-3.95673,0.05978682,0.77641
576.764,62.7495,-3.95768,0.0646571,0.77588
577.364,62.80947,-3.9577,0.06460975,0.77535
577.964,62.86962,-3.9577,0.06269721,0.77481
578.564,62.93,-3.95638,0.0660988,0.77428
579.164,62.99009,-3.9577,0.06268147,0.77374
579.764,63.05027,-3.9577,0.06199056,0.77321
580.364,63.1104,-3.95704,0.06618715,0.77267
580.964,63.17057,-3.95704,0.06406487,0.77214
581.564,63.23085,-3.95704,0.06621209,0.7716
582.164,63.2911,-3.95704,0.06463896,0.77106
582.764,63.3514,-3.95704,0.06265557,0.77053
583.364,63.4117,-3.95704,0.06507078,0.76999
583.964,63.47195,-3.95704,0.06468156,0.76946
584.564,63.5321,-3.95704,0.06586773,0.76892
585.164,63.5921,-3.95704,0.06703024,0.76838
585.764,63.65223,-3.95705,0.06373816,0.76785
586.364,63.7122,-3.95605,0.06669924,0.76731
586.964,63.77219,-3.95602,0.0659599,0.76677
587.564,63.8318,-3.95671,0.06554582,0.76624
588.164,63.89185,-3.95671,0.06730916,0.7657
588.764,63.95182,-3.95671,0.06847615,0.76516
589.364,64.01209,-3.95672,0.06834834,0.76462
589.964,64.07228,-3.95803,0.06712792,0.76409
590.564,64.13235,-3.95695,0.06735005,0.76355
591.164,64.19236,-3.95697,0.06867575,0.76301
591.764,64.25219,-3.95671,0.06690046,0.76247
592.364,64.312,-3.95671,0.06811681,0.76193
592.964,64.37173,-3.95737,0.06963326,0.7614
593.564,64.43138,-3.9574,0.0680439,0.76086
594.164,64.49116,-3.95604,0.06808772,0.76032
594.764,64.5509,-3.9567,0.06872161,0.75978
595.364,64.61071,-3.9587,0.07359703,0.75924
595.964,64.67071,-3.9577,0.07290372,0.7587
596.564,64.73069,-3.95769,0.07126338,0.75816
597.164,64.79101,-3.95769,0.07087025,0.75762
597.764,64.85104,-3.95901,0.07078373,0.75708
598.364,64.91121,-3.95825,0.07354594,0.75654
598.964,64.9712,-3.9576,0.07194517,0.756
599.564,65.03126,-3.95637,0.07631801,0.75546
600.164,65.0912,-3.95637,0.07399055,0.75492
600.764,65.15132,-3.95635,0.0717862,0.75438
601.364,65.21129,-3.95703,0.07225932,0.75384
601.964,65.27108,-3.95495,0.0739598,0.7533
602.564,65.33115,-3.95628,0.07360169,0.75276
603.164,65.39102,-3.95759,0.07258178,0.75222
603.764,65.45099,-3.95759,0.07322398,0.75168
604.364,65.5111,-3.95759,0.07096507,0.75114
604.964,65.57122,-3.95759,0.07200839,0.7506
605.564,65.63117,-3.95759,0.07256381,0.75006
606.164,65.6915,-3.95759,0.07365791,0.74952
606.764,65.75149,-3.95759,0.07423676,0.74897
607.364,65.8117,-3.95759,0.07593585,0.74843
607.964,65.87183,-3.95759,0.07269974,0.74789
608.564,65.9323,-3.95759,0.07538115,0.74735
609.164,65.9927,-3.95759,0.07621951,0.74681
609.764,66.0528,-3.95759,0.07725964,0.74626
610.364,66.1131,-3.95759,0.07589213,0.74572
610.964,66.17331,-3.95759,0.07796297,0.74518
611.564,66.23362,-3.95832,0.07735531,0.74464
612.164,66.29394,-3.95825,0.07541214,0.74409
612.764,66.35427,-3.95825,0.07755416,0.74355
613.364,66.41462,-3.95825,0.07686777,0.74301
613.964,66.4748,-3.95825,0.07372433,0.74247
614.564,66.53543,-3.95825,0.07528686,0.74192
615.164,66.5961,-3.95825,0.07646079,0.74138
615.764,66.65689,-3.95825,0.0761668,0.74084
616.364,66.71735,-3.95825,0.07434823,0.74029
616.964,66.7778,-3.95825,0.07503433,0.73975
617.564,66.83827,-3.95825,0.07647137,0.7392
618.164,66.89888,-3.95825,0.07347737,0.73866
618.764,66.95917,-3.95825,0.07631695,0.73812
619.364,67.0197,-3.95825,0.0762435,0.73757
619.964,67.0801,-3.95759,0.07668919,0.73703
620.564,67.14045,-3.95794,0.07589667,0.73648
621.164,67.2009,-3.95824,0.07767627,0.73594
621.764,67.26141,-3.95824,0.07521045,0.7354
622.364,67.32174,-3.95824,0.07838377,0.73485
622.964,67.38225,-3.95823,0.07694755,0.73431
623.564,67.44247,-3.95692,0.07624915,0.73376
624.164,67.50272,-3.95693,0.07978973,0.73322
624.764,67.56304,-3.95824,0.07868703,0.73267
625.364,67.6233,-3.95824,0.08041834,0.73213
625.964,67.68379,-3.95824,0.07959121,0.73158
626.564,67.74409,-3.95824,0.07950307,0.73104
627.164,67.8044,-3.95824,0.08002104,0.73049
627.764,67.8648,-3.95824,0.080135,0.72995
628.364,67.9251,-3.95962,0.07885497,0.7294
628.964,67.98524,-3.95857,0.0788781,0.72886
629.564,68.0456,-3.95857,0.08194395,0.72831
630.164,68.10603,-3.95867,0.08077535,0.72776
630.764,68.16646,-3.95726,0.08047759,0.72722
631.364,68.22694,-3.95857,0.08012069,0.72667
631.964,68.2872,-3.95857,0.08156859,0.72613
632.564,68.34767,-3.95822,0.0827074,0.72558
633.164,68.40807,-3.95824,0.08042119,0.72503
633.764,68.46845,-3.95824,0.08580209,0.72449
634.364,68.52879,-3.95824,0.085785,0.72394
634.964,68.58888,-3.95824,0.08480495,0.72339
635.564,68.64909,-3.95824,0.08580201,0.72285
636.164,68.7093,-3.95824,0.08372512,0.7223
636.764,68.76949,-3.95824,0.08561659,0.72175
637.364,68.8297,-3.95824,0.0841804,0.72121
637.964,68.89,-3.95824,0.08790434,0.72066
638.564,68.95049,-3.95824,0.08791909,0.72011
639.164,69.011,-3.95693,0.08730001,0.71957
639.764,69.0716,-3.95771,0.08907799,0.71902
640.364,69.13212,-3.95824,0.08710674,0.71847
640.964,69.19249,-3.95721,0.08963001,0.71792
641.564,69.25288,-3.95857,0.08831863,0.71738
642.164,69.31331,-3.9572,0.08942266,0.71683
642.764,69.3737,-3.95718,0.08665573,0.71628
643.364,69.43411,-3.95857,0.08856496,0.71573
643.964,69.4944,-3.95848,0.08604389,0.71519
644.564,69.5547,-3.95955,0.08385167,0.71464
645.164,69.61522,-3.95955,0.08611312,0.71409
645.764,69.67555,-3.95816,0.08836048,0.71354
646.364,69.736,-3.95824,0.08705555,0.713
646.964,69.7962,-3.96052,0.0904905,0.71245
647.564,69.8561,-3.96054,0.09108438,0.7119
648.164,69.91587,-3.96054,0.08663394,0.71135
648.764,69.97555,-3.95944,0.08740418,0.7108
648.964,69.9962,-3.95923,0.08573367,0.71062