File: 01_Data/Coffee_Machine/STA/N2/10K_min/Coffee_Machine_STA_N2_10KData_220201_R1.csv
##Temp./Â°C,Time/min,Mass loss(subtr.2)/mg,DSC(subtr.2)/(mW/mg),Sensit./(uV/mW)
49.342,10.00917,0.02041,-0.01474056,1.07447
49.942,10.7247,0.0200303,0.03240845,1.07443
50.542,10.91503,0.02098544,0.06642509,1.07438
51.142,11.05605,0.02147742,0.09564253,1.07434
51.742,11.17459,0.02142237,0.11943,1.0743
52.342,11.2803,0.02066507,0.1396,1.07425
52.942,11.3778,0.02022995,0.15883,1.07421
53.542,11.4678,0.02163222,0.17634,1.07416
54.142,11.553,0.02228275,0.19117,1.07411
54.742,11.63495,0.0219287,0.20484,1.07406
55.342,11.71417,0.02140654,0.2151,1.07402
55.942,11.7913,0.02174652,0.22425,1.07397
56.542,11.86592,0.02125691,0.23464,1.07392
57.142,11.93907,0.02171675,0.2423,1.07386
57.742,12.01088,0.02030788,0.24947,1.07381
58.342,12.08184,0.02199673,0.2568,1.07376
58.942,12.15178,0.02334264,0.26195,1.0737
59.542,12.22109,0.02276001,0.26789,1.07365
60.142,12.28969,0.02243248,0.27457,1.07359
60.742,12.3575,0.02206882,0.27937,1.07354
61.342,12.42463,0.02201835,0.28225,1.07348
61.942,12.4915,0.02205095,0.28642,1.07342
62.542,12.55815,0.02215193,0.28984,1.07336
63.142,12.62464,0.02346415,0.29215,1.0733
63.742,12.69077,0.02348105,0.29401,1.07324
64.342,12.7563,0.02339551,0.29667,1.07318
64.942,12.82145,0.02162644,0.29991,1.07312
65.542,12.88636,0.02287116,0.29824,1.07305
66.142,12.95134,0.02346509,0.30284,1.07299
66.742,13.01646,0.02336725,0.30293,1.07292
67.342,13.081,0.02344949,0.30315,1.07286
67.942,13.1456,0.02207137,0.3066,1.07279
68.542,13.2095,0.02348028,0.30786,1.07273
69.142,13.27365,0.02296933,0.30777,1.07266
69.742,13.3378,0.02346997,0.30753,1.07259
70.342,13.4019,0.02227964,0.30773,1.07252
70.942,13.466,0.02242155,0.30811,1.07245
71.542,13.5296,0.02347638,0.31062,1.07238
72.142,13.59305,0.02236811,0.30974,1.0723
72.742,13.6564,0.02343141,0.30873,1.07223
73.342,13.71962,0.02216004,0.30856,1.07215
73.942,13.7828,0.02358466,0.3096,1.07208
74.542,13.84565,0.02216149,0.31095,1.072
75.142,13.90846,0.02308684,0.31364,1.07193
75.742,13.9713,0.02349543,0.31512,1.07185
76.342,14.03408,0.02346085,0.31423,1.07177
76.942,14.0968,0.02347035,0.31597,1.07169
77.542,14.15908,0.02314729,0.3183,1.07161
78.142,14.22135,0.02296964,0.31704,1.07153
78.742,14.28338,0.02207106,0.31896,1.07145
79.342,14.34534,0.02214883,0.31962,1.07137
79.942,14.40705,0.0233091,0.32074,1.07128
80.542,14.4689,0.02346999,0.32074,1.0712
81.142,14.53057,0.02347982,0.32246,1.07111
81.742,14.59206,0.0234792,0.32302,1.07103
82.342,14.65335,0.02481494,0.32555,1.07094
82.942,14.71435,0.02347166,0.32564,1.07085
83.542,14.7754,0.02311846,0.32499,1.07077
84.142,14.83622,0.02348413,0.32744,1.07068
84.742,14.8971,0.02348,0.32884,1.07059
85.342,14.95774,0.02347673,0.32695,1.0705
85.942,15.01837,0.02475282,0.32817,1.0704
86.542,15.07898,0.02378507,0.33153,1.07031
87.142,15.1394,0.02346897,0.3326,1.07022
87.742,15.1997,0.02347,0.3322,1.07012
88.342,15.25973,0.02346087,0.33506,1.07003
88.942,15.31967,0.0234837,0.33382,1.06993
89.542,15.37972,0.02347998,0.33447,1.06984
90.142,15.43966,0.02379783,0.3366,1.06974
90.742,15.49957,0.02347001,0.33642,1.06964
91.342,15.5594,0.0234707,0.33721,1.06954
91.942,15.61929,0.02446004,0.33738,1.06944
92.542,15.67919,0.0231399,0.33921,1.06934
93.142,15.73891,0.02346425,0.33819,1.06924
93.742,15.7986,0.02347179,0.34051,1.06914
94.342,15.858,0.0235005,0.34113,1.06903
94.942,15.9179,0.02348115,0.34157,1.06893
95.542,15.9771,0.02479277,0.34288,1.06883
96.142,16.03655,0.02463305,0.34308,1.06872
96.742,16.09601,0.02346968,0.34361,1.06861
97.342,16.15527,0.02346779,0.34369,1.06851
97.942,16.2147,0.02324674,0.34535,1.0684
98.542,16.27431,0.0234798,0.34461,1.06829
99.142,16.33385,0.02305366,0.34763,1.06818
99.742,16.39359,0.02211169,0.34782,1.06807
100.342,16.4527,0.02247354,0.34902,1.06796
100.942,16.51166,0.02348624,0.34942,1.06784
101.542,16.57054,0.02313989,0.35108,1.06773
102.142,16.6295,0.02314,0.35275,1.06762
102.742,16.68862,0.02314,0.35361,1.0675
103.342,16.74715,0.02314573,0.3559,1.06739
103.942,16.8059,0.02184092,0.35282,1.06727
104.542,16.8646,0.02154696,0.3564,1.06715
105.142,16.92342,0.0221604,0.3568,1.06703
105.742,16.9825,0.02216125,0.35618,1.06692
106.342,17.04148,0.0234761,0.35567,1.0668
106.942,17.10041,0.02347,0.35939,1.06668
107.542,17.15914,0.02347023,0.36056,1.06655
108.142,17.21777,0.02479098,0.36299,1.06643
108.742,17.2762,0.02479002,0.36265,1.06631
109.342,17.33462,0.0248404,0.36291,1.06619
109.942,17.39348,0.02347105,0.36285,1.06606
110.542,17.4524,0.02359143,0.36434,1.06594
111.142,17.51118,0.0234791,0.36633,1.06581
111.742,17.56984,0.0221576,0.36691,1.06568
112.342,17.62833,0.02217083,0.36691,1.06555
112.942,17.68649,0.02347028,0.36829,1.06543
113.542,17.74458,0.02346999,0.3682,1.0653
114.142,17.80317,0.02344941,0.37219,1.06517
114.742,17.8616,0.02216655,0.37279,1.06503
115.342,17.9204,0.02348211,0.37381,1.0649
115.942,17.979,0.02348,0.37476,1.06477
116.542,18.0374,0.02348003,0.37643,1.06464
117.142,18.09577,0.02357538,0.37588,1.0645
117.742,18.1541,0.02268705,0.37592,1.06437
118.342,18.21244,0.02281997,0.37708,1.06423
118.942,18.27078,0.0228229,0.37758,1.06409
119.542,18.32917,0.02281961,0.37833,1.06396
120.142,18.38755,0.02215711,0.37893,1.06382
120.742,18.44608,0.02099096,0.38131,1.06368
121.342,18.50437,0.02087443,0.38034,1.06354
121.942,18.56275,0.02216053,0.38308,1.0634
122.542,18.62121,0.02216,0.38546,1.06326
123.142,18.67954,0.02216,0.38686,1.06312
123.742,18.73783,0.02216029,0.38899,1.06297
124.342,18.79605,0.02085647,0.39163,1.06283
124.942,18.85405,0.02083998,0.39304,1.06268
125.542,18.91206,0.02078435,0.39514,1.06254
126.142,18.97022,0.02215993,0.39594,1.06239
126.742,19.0284,0.02216567,0.39775,1.06224
127.342,19.08663,0.02273086,0.39906,1.0621
127.942,19.14493,0.02214997,0.40026,1.06195
128.542,19.203,0.02215145,0.40312,1.0618
129.142,19.26117,0.02347537,0.40221,1.06165
129.742,19.31926,0.02216139,0.40304,1.0615
130.342,19.3773,0.02215999,0.4091,1.06134
130.942,19.43536,0.02216,0.40975,1.06119
131.542,19.49329,0.02215999,0.41101,1.06104
132.142,19.5512,0.02215233,0.41378,1.06088
132.742,19.60914,0.02282049,0.4179,1.06073
133.342,19.66701,0.02215787,0.41936,1.06057
133.942,19.725,0.02215997,0.42014,1.06041
134.542,19.7832,0.0220886,0.42353,1.06026
135.142,19.84127,0.02118085,0.42549,1.0601
135.742,19.89935,0.02086134,0.42896,1.05994
136.342,19.95748,0.02183018,0.4321,1.05978
136.942,20.0156,0.02182999,0.43732,1.05962
137.542,20.0739,0.021772,0.44095,1.05946
138.142,20.13215,0.020508,0.44237,1.05929
138.742,20.19042,0.02084148,0.44697,1.05913
139.342,20.24871,0.02084,0.45026,1.05897
139.942,20.30689,0.02084,0.45471,1.0588
140.542,20.36514,0.02084664,0.45996,1.05864
141.142,20.42323,0.02051001,0.46214,1.05847
141.742,20.48111,0.02083994,0.46945,1.0583
142.342,20.5392,0.02084,0.47479,1.05814
142.942,20.59727,0.02084003,0.48055,1.05797
143.542,20.6555,0.01985265,0.48814,1.0578
144.142,20.71385,0.02084373,0.49468,1.05763
144.742,20.77175,0.02084,0.50383,1.05746
145.342,20.82956,0.02084,0.5111,1.05728
145.942,20.88757,0.02084,0.51831,1.05711
146.542,20.94559,0.02083998,0.5274,1.05694
147.142,21.00336,0.02076682,0.53757,1.05676
147.742,21.0611,0.0195177,0.54829,1.05659
148.342,21.11905,0.01952,0.55852,1.05641
148.942,21.1773,0.02070238,0.57094,1.05624
149.542,21.23585,0.02083991,0.58323,1.05606
150.142,21.294,0.02083794,0.60011,1.05588
150.742,21.35199,0.01918921,0.6158,1.0557
151.342,21.4099,0.02054924,0.63132,1.05552
151.942,21.4675,0.02182627,0.65354,1.05534
152.542,21.52544,0.02313728,0.67533,1.05516
153.142,21.58315,0.02250774,0.69937,1.05498
153.742,21.64112,0.02148685,0.72286,1.0548
154.342,21.69921,0.02149993,0.7513,1.05461
154.942,21.75716,0.02117761,0.78137,1.05443
155.542,21.81537,0.01985412,0.81419,1.05424
156.142,21.87324,0.02094544,0.85092,1.05406
156.742,21.9312,0.02084031,0.88842,1.05387
157.342,21.9893,0.02117006,0.92649,1.05368
157.942,22.0472,0.02051394,0.96823,1.05349
158.542,22.1053,0.02051174,1.01398,1.05331
159.142,22.16348,0.02182915,1.06223,1.05312
159.742,22.22165,0.02113886,1.11031,1.05292
160.342,22.27984,0.02116999,1.16129,1.05273
160.942,22.33819,0.02117058,1.21237,1.05254
161.542,22.39649,0.02021184,1.26508,1.05235
162.142,22.45485,0.02150308,1.31528,1.05215
162.742,22.51318,0.0215,1.36647,1.05196
163.342,22.5717,0.0215,1.41446,1.05176
163.942,22.63,0.0215,1.45528,1.05157
164.542,22.68831,0.0215,1.48871,1.05137
165.142,22.74652,0.0214989,1.51519,1.05117
165.742,22.80477,0.0224474,1.52319,1.05098
166.342,22.8632,0.02248989,1.51059,1.05078
166.942,22.92134,0.02108845,1.46805,1.05058
167.542,22.97936,0.02117,1.39153,1.05038
168.142,23.0372,0.02117039,1.27729,1.05018
168.742,23.09473,0.0198725,1.14464,1.04997
169.342,23.15225,0.01985001,1.00359,1.04977
169.942,23.20946,0.01985,0.87553,1.04957
170.542,23.26626,0.01985,0.76978,1.04936
171.142,23.32294,0.01985,0.69241,1.04916
171.742,23.37943,0.01984979,0.63595,1.04895
172.342,23.43596,0.02030625,0.59543,1.04874
172.942,23.49279,0.01986669,0.5632,1.04854
173.542,23.54946,0.02018989,0.54081,1.04833
174.142,23.60645,0.02019238,0.52556,1.04812
174.742,23.66333,0.01985744,0.51594,1.04791
175.342,23.72024,0.01985977,0.51077,1.0477
175.942,23.7772,0.01889655,0.50032,1.04749
176.542,23.83397,0.01887002,0.49803,1.04728
177.142,23.89085,0.01887,0.498,1.04706
177.742,23.94762,0.01887092,0.49436,1.04685
178.342,24.0046,0.01946874,0.49126,1.04663
178.942,24.06167,0.01985016,0.49081,1.04642
179.542,24.11886,0.01985036,0.48967,1.0462
180.142,24.17615,0.01999777,0.48913,1.04599
180.742,24.23335,0.01986007,0.48795,1.04577
181.342,24.29063,0.01986,0.48788,1.04555
181.942,24.3479,0.01986,0.48861,1.04533
182.542,24.40515,0.01986,0.48573,1.04511
183.142,24.46213,0.01986031,0.48721,1.04489
183.742,24.5193,0.01885911,0.48702,1.04467
184.342,24.57638,0.01849082,0.48604,1.04445
184.942,24.63355,0.01985903,0.4867,1.04423
185.542,24.69109,0.01986966,0.48401,1.044
186.142,24.74804,0.02117976,0.48546,1.04378
186.742,24.80525,0.02005039,0.4854,1.04355
187.342,24.86243,0.01986007,0.48585,1.04333
187.942,24.91988,0.01986004,0.48613,1.0431
188.542,24.97724,0.01930337,0.48713,1.04288
189.142,25.0347,0.01920009,0.489,1.04265
189.742,25.0918,0.0192,0.48923,1.04242
190.342,25.14882,0.0192,0.48996,1.04219
190.942,25.20599,0.01919644,0.48702,1.04196
191.542,25.2633,0.02049632,0.4888,1.04173
192.142,25.32055,0.01980258,0.49248,1.0415
192.742,25.3779,0.0195194,0.49121,1.04126
193.342,25.43487,0.01951903,0.49058,1.04103
193.942,25.49192,0.0181611,0.49087,1.0408
194.542,25.54888,0.01821017,0.49221,1.04056
195.142,25.60609,0.01956249,0.49281,1.04033
195.742,25.66326,0.0195669,0.49336,1.04009
196.342,25.72046,0.01799088,0.49243,1.03986
196.942,25.77754,0.01797152,0.49355,1.03962
197.542,25.8346,0.01864954,0.49358,1.03938
198.142,25.8915,0.01862617,0.49466,1.03914
198.742,25.94847,0.01997046,0.49485,1.0389
199.342,26.00548,0.01997,0.49736,1.03866
199.942,26.06255,0.01997018,0.49806,1.03842
200.542,26.1196,0.01927362,0.49491,1.03818
201.142,26.17669,0.01864987,0.49846,1.03793
201.742,26.23385,0.01865,0.49793,1.03769
202.342,26.29095,0.01865,0.49843,1.03745
202.942,26.3481,0.01865,0.49993,1.0372
203.542,26.40498,0.01864901,0.50121,1.03696
204.142,26.46165,0.0173033,0.50065,1.03671
204.742,26.51864,0.01800047,0.50034,1.03646
205.342,26.57589,0.01925902,0.50037,1.03622
205.942,26.63325,0.01962982,0.49936,1.03597
206.542,26.69063,0.01963,0.50077,1.03572
207.142,26.74786,0.01963416,0.50186,1.03547
207.742,26.80507,0.01832155,0.5013,1.03522
208.342,26.8623,0.01832,0.50169,1.03497
208.942,26.9197,0.01832065,0.50127,1.03471
209.542,26.97699,0.016997,0.50071,1.03446
210.142,27.0343,0.01699996,0.49984,1.03421
210.742,27.09167,0.01694863,0.50023,1.03395
211.342,27.14882,0.01964042,0.49853,1.0337
211.942,27.20617,0.01963987,0.50089,1.03344
212.542,27.26325,0.01927915,0.50092,1.03319
213.142,27.3204,0.01831998,0.50239,1.03293
213.742,27.37779,0.01830803,0.501,1.03267
214.342,27.4352,0.01766007,0.50326,1.03241
214.942,27.49248,0.01628866,0.5035,1.03215
215.542,27.54955,0.01701477,0.50403,1.03189
216.142,27.60665,0.01699538,0.50493,1.03163
216.742,27.6638,0.01766493,0.5038,1.03137
217.342,27.721,0.01766,0.50344,1.03111
217.942,27.77832,0.01766,0.50514,1.03085
218.542,27.8354,0.01766,0.50591,1.03058
219.142,27.8926,0.01765933,0.5072,1.03032
219.742,27.9498,0.01633191,0.50674,1.03005
220.342,28.00703,0.01634953,0.51011,1.02979
220.942,28.0645,0.0176376,0.5097,1.02952
221.542,28.12175,0.01637299,0.50892,1.02925
222.142,28.17898,0.01732197,0.50888,1.02899
222.742,28.2363,0.01699989,0.51308,1.02872
223.342,28.2936,0.01725399,0.51163,1.02845
223.942,28.35088,0.01799006,0.51321,1.02818
224.542,28.4081,0.01799,0.51056,1.02791
225.142,28.4652,0.01798815,0.51244,1.02764
225.742,28.5224,0.01666296,0.51179,1.02736
226.342,28.5796,0.01667,0.51414,1.02709
226.942,28.6369,0.01667,0.51342,1.02682
227.542,28.6943,0.01667,0.51471,1.02654
228.142,28.75147,0.01667,0.51678,1.02627
228.742,28.80865,0.01667,0.51691,1.02599
229.342,28.8659,0.01667003,0.51733,1.02572
229.942,28.9231,0.01674479,0.51596,1.02544
230.542,28.98012,0.01535007,0.51722,1.02516
231.142,29.037,0.01534989,0.51525,1.02488
231.742,29.0942,0.01587955,0.51848,1.0246
232.342,29.15147,0.01600997,0.5187,1.02432
232.942,29.20897,0.01601,0.51945,1.02404
233.542,29.2661,0.01600987,0.51764,1.02376
234.142,29.3235,0.01651241,0.52147,1.02348
234.742,29.38065,0.01667163,0.52186,1.0232
235.342,29.43794,0.01535841,0.52086,1.02291
235.942,29.4953,0.01536,0.52062,1.02263
236.542,29.5526,0.01537137,0.52292,1.02235
237.142,29.61,0.0163505,0.5218,1.02206
237.742,29.66725,0.01635,0.51942,1.02177
238.342,29.72445,0.01634673,0.52162,1.02149
238.942,29.78173,0.01672354,0.52152,1.0212
239.542,29.83891,0.01668,0.52061,1.02091
240.142,29.8961,0.01668,0.52259,1.02062
240.742,29.95321,0.01668,0.52233,1.02033
241.342,30.01029,0.01668,0.52344,1.02004
241.942,30.0676,0.01668,0.52171,1.01975
242.542,30.12487,0.01667043,0.52571,1.01946
243.142,30.1822,0.01635069,0.52442,1.01917
243.742,30.2394,0.01635001,0.5253,1.01888
244.342,30.2965,0.01590803,0.52587,1.01858
244.942,30.3537,0.01365535,0.52492,1.01829
245.542,30.41092,0.01501936,0.52499,1.01799
246.142,30.468,0.01503,0.52666,1.0177
246.742,30.52525,0.01502637,0.52742,1.0174
247.342,30.58254,0.01632606,0.52749,1.0171
247.942,30.63973,0.01634,0.52775,1.01681
248.542,30.69698,0.01634058,0.52906,1.01651
249.142,30.75419,0.01666113,0.52696,1.01621
249.742,30.8116,0.01667,0.5281,1.01591
250.342,30.869,0.01667,0.52622,1.01561
250.942,30.9264,0.01667,0.53096,1.01531
251.542,30.9839,0.01667,0.52986,1.01501
252.142,31.0413,0.01667079,0.53018,1.0147
252.742,31.0987,0.01600781,0.53204,1.0144
253.342,31.1559,0.01600999,0.53218,1.0141
253.942,31.21309,0.01601028,0.53175,1.01379
254.542,31.2705,0.01531712,0.53147,1.01349
255.142,31.3277,0.01536003,0.53243,1.01318
255.742,31.38536,0.0153605,0.53092,1.01288
256.342,31.4428,0.01415213,0.53271,1.01257
256.942,31.5002,0.01404,0.53302,1.01226
257.542,31.55763,0.01404,0.53194,1.01195
258.142,31.6149,0.01404,0.53518,1.01164
258.742,31.6722,0.01403983,0.53318,1.01133
259.342,31.7295,0.01472851,0.53113,1.01102
259.942,31.7868,0.01535848,0.53451,1.01071
260.542,31.84412,0.01403338,0.53389,1.0104
261.142,31.9016,0.01404,0.53365,1.01009
261.742,31.959,0.01404,0.53331,1.00978
262.342,32.01648,0.01404,0.53439,1.00946
262.942,32.07391,0.01404,0.5331,1.00915
263.542,32.13126,0.01403835,0.53415,1.00883
264.142,32.1886,0.01439787,0.53397,1.00852
264.742,32.24599,0.01436805,0.53496,1.0082
265.342,32.3033,0.01340818,0.53912,1.00788
265.942,32.36071,0.01338001,0.53806,1.00757
266.542,32.41812,0.01338,0.53623,1.00725
267.142,32.4756,0.01338,0.53719,1.00693
267.742,32.533,0.01338,0.53743,1.00661
268.342,32.5904,0.01337775,0.54008,1.00629
268.942,32.6479,0.01394059,0.53931,1.00597
269.542,32.7053,0.01403989,0.53981,1.00565
270.142,32.76279,0.01404003,0.54213,1.00532
270.742,32.8202,0.0140598,0.53879,1.005
271.342,32.87754,0.01306063,0.5403,1.00468
271.942,32.9352,0.01306,0.54147,1.00435
272.542,32.99242,0.01306001,0.54297,1.00403
273.142,33.05001,0.01306795,0.54142,1.0037
273.742,33.1075,0.01173381,0.54469,1.00338
274.342,33.16519,0.01305852,0.5452,1.00305
274.942,33.2226,0.01306,0.54318,1.00272
275.542,33.28005,0.01306,0.54311,1.00239
276.142,33.33761,0.01306,0.54587,1.00207
276.742,33.39512,0.01306,0.54554,1.00174
277.342,33.45241,0.01306,0.54533,1.00141
277.942,33.5098,0.01306,0.54665,1.00108
278.542,33.56709,0.01306003,0.54724,1.00075
279.142,33.62448,0.01216633,0.5492,1.00041
279.742,33.68169,0.01172157,0.54499,1.00008
280.342,33.73898,0.01042006,0.55085,0.99975
280.942,33.79613,0.01042,0.54878,0.99941
281.542,33.8534,0.01042,0.55052,0.99908
282.142,33.91022,0.01042022,0.55248,0.99874
282.742,33.967,0.01138062,0.55283,0.99841
283.342,34.0243,0.01140998,0.55265,0.99807
283.942,34.08186,0.01141004,0.55138,0.99774
284.542,34.1395,0.01142221,0.55417,0.9974
285.142,34.19725,0.01273509,0.55325,0.99706
285.742,34.25468,0.01141163,0.55425,0.99672
286.342,34.31198,0.01141289,0.55231,0.99638
286.942,34.36935,0.01074946,0.55594,0.99604
287.542,34.42682,0.0107484,0.55482,0.9957
288.142,34.48426,0.009423532,0.55512,0.99536
288.742,34.54173,0.009433566,0.55523,0.99502
289.342,34.59935,0.0100902,0.55534,0.99468
289.942,34.65672,0.01009623,0.55441,0.99433
290.542,34.7142,0.01075176,0.55632,0.99399
291.142,34.77147,0.01075,0.55557,0.99364
291.742,34.8288,0.01075,0.5552,0.9933
292.342,34.88615,0.01075,0.55602,0.99295
292.942,34.94347,0.01075,0.55491,0.99261
293.542,35.00101,0.01075013,0.55543,0.99226
294.142,35.0584,0.01012426,0.55876,0.99191
294.742,35.11595,0.01016005,0.55753,0.99157
295.342,35.17338,0.009429605,0.55736,0.99122
295.942,35.23079,0.0093997,0.55686,0.99087
296.542,35.28848,0.01075255,0.55672,0.99052
297.142,35.34602,0.00943119,0.55748,0.99017
297.742,35.40354,0.00943,0.55912,0.98982
298.342,35.46093,0.00943,0.56063,0.98946
298.942,35.51825,0.00943,0.5576,0.98911
299.542,35.5756,0.009431873,0.56167,0.98876
300.142,35.6331,0.00877719,0.56149,0.98841
300.742,35.69072,0.007991176,0.5618,0.98805
301.342,35.74818,0.007459955,0.56091,0.9877
301.942,35.80577,0.007474019,0.55935,0.98734
302.542,35.86296,0.008773629,0.56328,0.98699
303.142,35.92044,0.008770001,0.56147,0.98663
303.742,35.97798,0.008769917,0.56139,0.98627
304.342,36.03568,0.007393792,0.56063,0.98591
304.942,36.09367,0.00746002,0.56079,0.98556
305.542,36.15133,0.007535153,0.56299,0.9852
306.142,36.2089,0.007460039,0.5619,0.98484
306.742,36.26625,0.007509905,0.56338,0.98448
307.342,36.32371,0.00615095,0.56506,0.98412
307.942,36.38115,0.00615,0.56515,0.98375
308.542,36.43864,0.00615,0.56478,0.98339
309.142,36.49627,0.00615009,0.56533,0.98303
309.742,36.55375,0.006443359,0.56649,0.98267
310.342,36.61142,0.006799896,0.56801,0.9823
310.942,36.66868,0.00680942,0.56768,0.98194
311.542,36.72613,0.00647567,0.56761,0.98157
312.142,36.78378,0.00516182,0.56711,0.98121
312.742,36.8414,0.005160001,0.56772,0.98084
313.342,36.8992,0.00516,0.56814,0.98048
313.942,36.95683,0.00516,0.56613,0.98011
314.542,37.01441,0.005160351,0.57248,0.97974
315.142,37.07205,0.004432562,0.57269,0.97937
315.742,37.13001,0.0044959,0.56974,0.979
316.342,37.1877,0.003181742,0.57427,0.97863
316.942,37.24536,0.004541156,0.57275,0.97826
317.542,37.303,0.004169818,0.57162,0.97789
318.142,37.36058,0.004169997,0.57341,0.97752
318.742,37.41812,0.004173953,0.57493,0.97715
319.342,37.47602,0.003159039,0.57573,0.97678
319.942,37.5338,0.004168843,0.57553,0.9764
320.542,37.5916,0.00417,0.57444,0.97603
321.142,37.64927,0.004169989,0.57628,0.97565
321.742,37.70673,0.003823018,0.57926,0.97528
322.342,37.76444,0.003537208,0.57738,0.9749
322.942,37.8222,0.002519875,0.579,0.97453
323.542,37.88021,0.00219484,0.57966,0.97415
324.142,37.93807,0.002189997,0.57574,0.97377
324.742,37.99583,0.002190085,0.5793,0.9734
325.342,38.05353,0.001548406,0.57781,0.97302
325.942,38.1113,0.00121007,0.57991,0.97264
326.542,38.16907,0.00121,0.58127,0.97226
327.142,38.22702,0.00121,0.57972,0.97188
327.742,38.28488,0.001209868,0.58008,0.9715
328.342,38.3429,0.0008904267,0.57965,0.97112
328.942,38.40071,-0.0001100252,0.57955,0.97074
329.542,38.4584,-0.00011,0.58414,0.97035
330.142,38.51631,-0.0001099651,0.57949,0.96997
330.742,38.57423,-1.7948e-05,0.58358,0.96959
331.342,38.63232,-0.00142987,0.58268,0.9692
331.942,38.69008,-0.001430082,0.58332,0.96882
332.542,38.74814,-0.002071644,0.58178,0.96844
333.142,38.80597,-0.00208998,0.58123,0.96805
333.742,38.8641,-0.00208998,0.58508,0.96766
334.342,38.92195,-0.002061768,0.58384,0.96728
334.942,38.97983,-0.00339965,0.58486,0.96689
335.542,39.03775,-0.0034,0.58451,0.9665
336.142,39.09568,-0.0034,0.58537,0.96611
336.742,39.15351,-0.003401571,0.58748,0.96572
337.342,39.21144,-0.00472599,0.58897,0.96533
337.942,39.2694,-0.00472,0.5857,0.96494
338.542,39.3274,-0.00472,0.58777,0.96455
339.142,39.38536,-0.00472,0.58941,0.96416
339.742,39.44315,-0.004719972,0.59056,0.96377
340.342,39.5011,-0.00523357,0.58991,0.96338
340.942,39.55888,-0.00603997,0.59198,0.96299
341.542,39.61668,-0.005019582,0.59215,0.96259
342.142,39.67459,-0.00633676,0.59191,0.9622
342.742,39.73233,-0.006359659,0.59093,0.9618
343.342,39.79014,-0.007657683,0.59103,0.96141
343.942,39.84805,-0.00766999,0.59216,0.96101
344.542,39.90586,-0.007572915,0.59228,0.96062
345.142,39.96372,-0.008989873,0.59123,0.96022
345.742,40.0217,-0.0089894,0.59456,0.95982
346.342,40.07954,-0.009976646,0.59385,0.95943
346.942,40.13756,-0.009978282,0.59648,0.95903
347.542,40.19533,-0.01030191,0.59578,0.95863
348.142,40.253,-0.01029962,0.59461,0.95823
348.742,40.31067,-0.01160258,0.5964,0.95783
349.342,40.3684,-0.01162001,0.5985,0.95743
349.942,40.42608,-0.01162098,0.59738,0.95703
350.542,40.48381,-0.01299037,0.59998,0.95663
351.142,40.5417,-0.01294002,0.60088,0.95623
351.742,40.5995,-0.01294,0.59974,0.95582
352.342,40.6573,-0.01290543,0.60313,0.95542
352.942,40.71506,-0.01491084,0.60312,0.95502
353.542,40.77279,-0.0163264,0.60391,0.95461
354.142,40.83075,-0.01623003,0.6068,0.95421
354.742,40.88856,-0.01622998,0.60408,0.9538
355.342,40.94657,-0.01578311,0.6034,0.9534
355.942,41.00461,-0.01486937,0.6047,0.95299
356.542,41.06262,-0.01623968,0.60667,0.95258
357.142,41.12063,-0.01758443,0.60625,0.95218
357.742,41.1787,-0.01754862,0.60377,0.95177
358.342,41.23661,-0.01901846,0.60803,0.95136
358.942,41.2945,-0.02018041,0.60592,0.95095
359.542,41.3525,-0.02011398,0.60784,0.95054
360.142,41.4105,-0.02148993,0.60667,0.95013
360.742,41.46853,-0.02148861,0.61031,0.94972
361.342,41.52663,-0.02050942,0.61255,0.94931
361.942,41.58462,-0.02182586,0.60904,0.9489
362.542,41.64288,-0.02311408,0.61009,0.94849
363.142,41.70086,-0.02314992,0.60717,0.94808
363.742,41.75898,-0.02446142,0.61024,0.94766
364.342,41.817,-0.02578751,0.61066,0.94725
364.942,41.875,-0.02585074,0.60811,0.94684
365.542,41.93311,-0.02674985,0.61011,0.94642
366.142,41.9912,-0.02708975,0.61043,0.94601
366.742,42.04931,-0.02809209,0.61424,0.94559
367.342,42.107,-0.02840007,0.61313,0.94517
367.942,42.165,-0.02872441,0.61803,0.94476
368.542,42.223,-0.02972026,0.61864,0.94434
369.142,42.28111,-0.03151214,0.61743,0.94392
369.742,42.3398,-0.03203006,0.61929,0.94351
370.342,42.3979,-0.03204484,0.62086,0.94309
370.942,42.45612,-0.0333412,0.62162,0.94267
371.542,42.51429,-0.03443649,0.62057,0.94225
372.142,42.57227,-0.03425472,0.62291,0.94183
372.742,42.63035,-0.0346599,0.62159,0.94141
373.342,42.68855,-0.03525898,0.62212,0.94099
373.942,42.74674,-0.03731624,0.6224,0.94057
374.542,42.805,-0.03865276,0.62114,0.94014
375.142,42.8631,-0.03982624,0.62355,0.93972
375.742,42.92122,-0.03855785,0.62501,0.9393
376.342,42.97934,-0.0399298,0.62334,0.93887
376.942,43.03743,-0.04118052,0.62594,0.93845
377.542,43.09539,-0.04126269,0.62584,0.93803
378.142,43.1533,-0.04245064,0.62664,0.9376
378.742,43.21125,-0.04386561,0.62709,0.93718
379.342,43.26956,-0.04518911,0.62584,0.93675
379.942,43.32801,-0.0465115,0.62749,0.93632
380.542,43.3865,-0.04760957,0.62742,0.9359
381.142,43.445,-0.0478493,0.6272,0.93547
381.742,43.50346,-0.04818467,0.62578,0.93504
382.342,43.56196,-0.04956985,0.62598,0.93461
382.942,43.6205,-0.05002404,0.6281,0.93418
383.542,43.67887,-0.05088894,0.62817,0.93376
384.142,43.73748,-0.05222906,0.62844,0.93333
384.742,43.79594,-0.05483216,0.62992,0.9329
385.342,43.8544,-0.05544955,0.63018,0.93246
385.942,43.9129,-0.05680862,0.63207,0.93203
386.542,43.97133,-0.05810821,0.63137,0.9316
387.142,44.02982,-0.05917158,0.63416,0.93117
387.742,44.08837,-0.06070979,0.63306,0.93074
388.342,44.14683,-0.06207709,0.63234,0.9303
388.942,44.20532,-0.06339189,0.63388,0.92987
389.542,44.26386,-0.06503528,0.63625,0.92944
390.142,44.3226,-0.06571937,0.63702,0.929
390.742,44.381,-0.06708789,0.63868,0.92857
391.342,44.43953,-0.06843498,0.64067,0.92813
391.942,44.49799,-0.07000169,0.63965,0.9277
392.542,44.5564,-0.07216471,0.64308,0.92726
393.142,44.6151,-0.07371521,0.64383,0.92682
393.742,44.67364,-0.07501448,0.64696,0.92638
394.342,44.73223,-0.07635403,0.6471,0.92595
394.942,44.79053,-0.07765387,0.64816,0.92551
395.542,44.84884,-0.07897402,0.65125,0.92507
396.142,44.90726,-0.08047722,0.6506,0.92463
396.742,44.96577,-0.08263211,0.6551,0.92419
397.342,45.02434,-0.08469331,0.65781,0.92375
397.942,45.08299,-0.08725445,0.65926,0.92331
398.542,45.14155,-0.08857565,0.66061,0.92287
399.142,45.19997,-0.09138063,0.66328,0.92243
399.742,45.2585,-0.09399096,0.66285,0.92199
400.342,45.31708,-0.0967383,0.66592,0.92154
400.942,45.3755,-0.09841312,0.67158,0.9211
401.542,45.43422,-0.10061,0.67308,0.92066
402.142,45.49286,-0.10297,0.67506,0.92021
402.742,45.5516,-0.10563,0.67957,0.91977
403.342,45.61002,-0.10698,0.68357,0.91932
403.942,45.66843,-0.10834,0.68631,0.91888
404.542,45.72685,-0.11141,0.69255,0.91843
405.142,45.78528,-0.11543,0.69283,0.91799
405.742,45.84381,-0.11855,0.70028,0.91754
406.342,45.9022,-0.12008,0.70377,0.91709
406.942,45.96069,-0.12347,0.70526,0.91665
407.542,46.01923,-0.1267,0.71299,0.9162
408.142,46.07792,-0.12921,0.71612,0.91575
408.742,46.1365,-0.1322,0.71789,0.9153
409.342,46.19509,-0.13547,0.72366,0.91485
409.942,46.25371,-0.13871,0.72936,0.9144
410.542,46.3125,-0.14308,0.73284,0.91395
411.142,46.37143,-0.147,0.73947,0.9135
411.742,46.43023,-0.14992,0.74413,0.91305
412.342,46.48919,-0.15378,0.75114,0.9126
412.942,46.54783,-0.15737,0.75352,0.91215
413.542,46.60654,-0.16151,0.76132,0.9117
414.142,46.66531,-0.16601,0.76903,0.91124
414.742,46.7241,-0.16978,0.77526,0.91079
415.342,46.78289,-0.1745,0.78532,0.91034
415.942,46.8416,-0.17955,0.78972,0.90988
416.542,46.90031,-0.18495,0.79863,0.90943
417.142,46.9591,-0.18964,0.80703,0.90898
417.742,47.0179,-0.19394,0.81482,0.90852
418.342,47.07692,-0.19979,0.8214,0.90806
418.942,47.13573,-0.20522,0.82967,0.90761
419.542,47.19448,-0.2101,0.84014,0.90715
420.142,47.2531,-0.21655,0.84981,0.9067
420.742,47.31176,-0.22309,0.8584,0.90624
421.342,47.37056,-0.22877,0.86972,0.90578
421.942,47.4294,-0.23464,0.8767,0.90532
422.542,47.48833,-0.24255,0.89093,0.90486
423.142,47.54745,-0.24983,0.90558,0.9044
423.742,47.6062,-0.25728,0.91635,0.90395
424.342,47.66502,-0.266,0.92794,0.90349
424.942,47.72383,-0.27393,0.94138,0.90303
425.542,47.7825,-0.28128,0.95572,0.90256
426.142,47.8413,-0.28988,0.97181,0.9021
426.742,47.90007,-0.29873,0.98574,0.90164
427.342,47.95909,-0.30919,0.99854,0.90118
427.942,48.01781,-0.31753,1.0161,0.90072
428.542,48.07679,-0.32774,1.03576,0.90026
429.142,48.1355,-0.3395,1.05514,0.89979
429.742,48.1943,-0.35017,1.07113,0.89933
430.342,48.25333,-0.36085,1.09014,0.89886
430.942,48.31219,-0.37394,1.10634,0.8984
431.542,48.3714,-0.38581,1.12703,0.89794
432.142,48.43038,-0.39992,1.1465,0.89747
432.742,48.48915,-0.41384,1.16619,0.89701
433.342,48.54802,-0.42874,1.19305,0.89654
433.942,48.60685,-0.44308,1.21594,0.89607
434.542,48.66565,-0.45995,1.24043,0.89561
435.142,48.7245,-0.47702,1.2898,0.89514
435.742,48.7834,-0.4945,1.30906,0.89467
436.342,48.84245,-0.51201,1.34571,0.8942
436.942,48.90144,-0.52935,1.37152,0.89374
437.542,48.96047,-0.54986,1.39681,0.89327
438.142,49.0192,-0.56951,1.42613,0.8928
438.742,49.0781,-0.5896,1.45741,0.89233
439.342,49.13712,-0.60941,1.49094,0.89186
439.942,49.1962,-0.63384,1.52219,0.89139
440.542,49.25523,-0.65743,1.55799,0.89092
441.142,49.31422,-0.6839,1.58562,0.89045
441.742,49.3733,-0.71129,1.63959,0.88997
442.342,49.43258,-0.7384,1.6716,0.8895
442.942,49.49192,-0.76733,1.70228,0.88903
443.542,49.55125,-0.79635,1.74266,0.88856
444.142,49.61023,-0.82639,1.7785,0.88808
444.742,49.66935,-0.85874,1.81954,0.88761
445.342,49.7286,-0.89311,1.8667,0.88714
445.942,49.78787,-0.92737,1.90361,0.88666
446.542,49.84728,-0.96564,1.9392,0.88619
447.142,49.90658,-1.00313,1.98372,0.88571
447.742,49.96586,-1.04329,2.025,0.88524
448.342,50.0252,-1.08439,2.06524,0.88476
448.942,50.08461,-1.1294,2.11555,0.88429
449.542,50.1441,-1.17317,2.15215,0.88381
450.142,50.20321,-1.22136,2.19825,0.88333
450.742,50.2625,-1.26794,2.23193,0.88286
451.342,50.3219,-1.31989,2.27074,0.88238
451.942,50.38127,-1.36998,2.31519,0.8819
452.542,50.44075,-1.42607,2.32992,0.88142
453.142,50.50025,-1.47818,2.38624,0.88094
453.742,50.5597,-1.53932,2.4062,0.88047
454.342,50.6192,-1.59498,2.43924,0.87999
454.942,50.67859,-1.65698,2.46894,0.87951
455.542,50.73805,-1.71749,2.49638,0.87903
456.142,50.79752,-1.78239,2.50753,0.87855
456.742,50.8569,-1.8465,2.53835,0.87807
457.342,50.91648,-1.916,2.53893,0.87758
457.942,50.97569,-1.9826,2.57248,0.8771
458.542,51.035,-2.05434,2.56081,0.87662
459.142,51.09404,-2.11963,2.55097,0.87614
459.742,51.1532,-2.1922,2.56115,0.87566
460.342,51.21249,-2.26304,2.55549,0.87517
460.942,51.27162,-2.336,2.52653,0.87469
461.542,51.33078,-2.40901,2.51705,0.87421
462.142,51.38985,-2.48285,2.48253,0.87372
462.742,51.44897,-2.55504,2.46747,0.87324
463.342,51.508,-2.62817,2.40253,0.87275
463.942,51.56708,-2.70224,2.36677,0.87227
464.542,51.6261,-2.77464,2.32199,0.87178
465.142,51.68507,-2.85032,2.25216,0.8713
465.742,51.7439,-2.91756,2.17679,0.87081
466.342,51.8026,-2.98898,2.11597,0.87032
466.942,51.8613,-3.05456,2.00245,0.86984
467.542,51.92013,-3.12152,1.93836,0.86935
468.142,51.97868,-3.18332,1.83881,0.86886
468.742,52.03732,-3.2482,1.75761,0.86837
469.342,52.09576,-3.30465,1.65356,0.86789
469.942,52.1542,-3.36274,1.54477,0.8674
470.542,52.2127,-3.41499,1.43256,0.86691
471.142,52.27101,-3.46428,1.31934,0.86642
471.742,52.32925,-3.51166,1.20701,0.86593
472.342,52.38766,-3.55613,1.09713,0.86544
472.942,52.446,-3.59646,0.98581,0.86495
473.542,52.50431,-3.63156,0.88468,0.86446
474.142,52.5625,-3.66614,0.78594,0.86397
474.742,52.62025,-3.69439,0.69291,0.86348
475.342,52.67841,-3.72249,0.60526,0.86298
475.942,52.7367,-3.74539,0.52299,0.86249
476.542,52.79495,-3.76663,0.45092,0.862
477.142,52.8535,-3.78476,0.38304,0.86151
477.742,52.91179,-3.80148,0.32524,0.86101
478.342,52.96996,-3.81524,0.27536,0.86052
478.942,53.02836,-3.8283,0.23175,0.86003
479.542,53.08673,-3.83723,0.19341,0.85953
480.142,53.14541,-3.84643,0.16019,0.85904
480.742,53.2043,-3.85398,0.13106,0.85854
481.342,53.26316,-3.86058,0.10546,0.85805
481.942,53.32209,-3.86548,0.08608372,0.85755
482.542,53.381,-3.87105,0.06781008,0.85706
483.142,53.4399,-3.87546,0.05213497,0.85656
483.742,53.49895,-3.87706,0.04090907,0.85607
484.342,53.55794,-3.87986,0.02788244,0.85557
484.942,53.617,-3.88261,0.02076534,0.85507
485.542,53.67606,-3.8838,0.01515315,0.85458
486.142,53.7353,-3.88542,0.00582838,0.85408
486.742,53.79449,-3.88639,-0.002094135,0.85358
487.342,53.85383,-3.88815,-0.007604537,0.85308
487.942,53.91293,-3.89034,-0.01284278,0.85258
488.542,53.9722,-3.8893,-0.01728552,0.85209
489.142,54.03144,-3.89035,-0.02028225,0.85159
489.742,54.09066,-3.89035,-0.02084987,0.85109
490.342,54.14976,-3.89035,-0.02215762,0.85059
490.942,54.2086,-3.89096,-0.02527655,0.85009
491.542,54.26712,-3.89167,-0.02263501,0.84959
492.142,54.3258,-3.89167,0.00416349,0.84909
492.742,54.3847,-3.89068,0.01434153,0.84859
493.342,54.4441,-3.89068,0.005892436,0.84808
493.942,54.50382,-3.89068,-0.004882157,0.84758
494.542,54.56358,-3.89119,-0.0134154,0.84708
495.142,54.6234,-3.8913,-0.01958285,0.84658
495.742,54.68322,-3.89265,-0.01821686,0.84608
496.342,54.743,-3.89244,-0.02348004,0.84557
496.942,54.8027,-3.89166,-0.02091302,0.84507
497.542,54.8623,-3.89163,-0.0212665,0.84457
498.142,54.922,-3.89298,-0.0216131,0.84406
498.742,54.9816,-3.89298,-0.02217747,0.84356
499.342,55.0412,-3.89298,-0.02175975,0.84306
499.942,55.10089,-3.89298,-0.02513037,0.84255
500.542,55.16038,-3.89167,-0.02651024,0.84205
501.142,55.22003,-3.89166,-0.024735,0.84154
501.742,55.27955,-3.89165,-0.0236527,0.84104
502.342,55.3391,-3.89298,-0.02620159,0.84053
502.942,55.39886,-3.89298,-0.02593231,0.84003
503.542,55.45834,-3.89298,-0.02755715,0.83952
504.142,55.51797,-3.89296,-0.0252314,0.83901
504.742,55.57739,-3.89264,-0.02420964,0.83851
505.342,55.63686,-3.89265,-0.02489692,0.838
505.942,55.6963,-3.89265,-0.02575363,0.83749
506.542,55.75589,-3.89266,-0.02673096,0.83698
507.142,55.81559,-3.89298,-0.02686018,0.83648
507.742,55.87511,-3.89298,-0.02856581,0.83597
508.342,55.9347,-3.89298,-0.02764698,0.83546
508.942,55.9943,-3.89298,-0.03269537,0.83495
509.542,56.0541,-3.89298,-0.03616425,0.83444
510.142,56.11385,-3.89296,-0.04076609,0.83393
510.742,56.17349,-3.89233,-0.03907041,0.83342
511.342,56.23299,-3.89165,-0.04131419,0.83291
511.942,56.29243,-3.89166,-0.04434296,0.8324
512.542,56.35173,-3.89166,-0.04508712,0.83189
513.142,56.41118,-3.89166,-0.0455778,0.83138
513.742,56.47056,-3.89166,-0.04697446,0.83087
514.342,56.5298,-3.89166,-0.04953044,0.83036
514.942,56.5891,-3.89166,-0.05049039,0.82985
515.542,56.64827,-3.89166,-0.04546844,0.82934
516.142,56.70756,-3.89301,-0.0446363,0.82882
516.742,56.76695,-3.89329,-0.04694927,0.82831
517.342,56.8264,-3.89199,-0.04864242,0.8278
517.942,56.8857,-3.89199,-0.0467016,0.82729
518.542,56.9451,-3.8931,-0.04527338,0.82677
519.142,57.00434,-3.89467,-0.04739077,0.82626
519.742,57.06358,-3.89462,-0.04874215,0.82575
520.342,57.1229,-3.89391,-0.04536308,0.82523
520.942,57.1823,-3.89329,-0.0481912,0.82472
521.542,57.24162,-3.89232,-0.05027494,0.8242
522.142,57.30115,-3.89232,-0.04762243,0.82369
522.742,57.3605,-3.89241,-0.04926276,0.82317
523.342,57.41979,-3.89363,-0.04950889,0.82266
523.942,57.4792,-3.89363,-0.04956991,0.82214
524.542,57.5384,-3.89363,-0.04734878,0.82163
525.142,57.5977,-3.89363,-0.05151489,0.82111
525.742,57.6571,-3.89363,-0.04723184,0.8206
526.342,57.7164,-3.89363,-0.0476161,0.82008
526.942,57.7759,-3.89363,-0.05031624,0.81956
527.542,57.8355,-3.89363,-0.04925561,0.81905
528.142,57.89513,-3.89503,-0.04852891,0.81853
528.742,57.9548,-3.89495,-0.0483328,0.81801
529.342,58.0145,-3.89495,-0.05120449,0.81749
529.942,58.07356,-3.89423,-0.04889308,0.81698
530.542,58.13285,-3.8943,-0.04649374,0.81646
531.142,58.19236,-3.89331,-0.04891342,0.81594
531.742,58.25204,-3.89331,-0.05005368,0.81542
532.342,58.31221,-3.8933,-0.04940181,0.8149
532.942,58.37178,-3.89298,-0.04947282,0.81438
533.542,58.4314,-3.89298,-0.05079501,0.81386
534.142,58.49115,-3.89298,-0.04663245,0.81334
534.742,58.5507,-3.89298,-0.05125773,0.81282
535.342,58.61079,-3.89331,-0.04879749,0.8123
535.942,58.6708,-3.89364,-0.04809062,0.81178
536.542,58.731,-3.89396,-0.05025907,0.81126
537.142,58.791,-3.89397,-0.05114813,0.81074
537.742,58.8509,-3.89397,-0.04808053,0.81022
538.342,58.91086,-3.8943,-0.05252946,0.8097
538.942,58.9708,-3.89331,-0.05095126,0.80918
539.542,59.03082,-3.89331,-0.05049719,0.80866
540.142,59.0906,-3.89234,-0.0519112,0.80813
540.742,59.1505,-3.89232,-0.05385834,0.80761
541.342,59.2105,-3.89364,-0.05392376,0.80709
541.942,59.27061,-3.89364,-0.05068482,0.80657
542.542,59.33073,-3.89364,-0.05326948,0.80604
543.142,59.39066,-3.89364,-0.05225353,0.80552
543.742,59.45055,-3.89365,-0.05277716,0.805
544.342,59.51044,-3.89496,-0.05328716,0.80447
544.942,59.5704,-3.89362,-0.05226238,0.80395
545.542,59.6304,-3.89495,-0.05115019,0.80343
546.142,59.69016,-3.89495,-0.04986111,0.8029
546.742,59.74997,-3.89495,-0.05284173,0.80238
547.342,59.8097,-3.89331,-0.05387107,0.80185
547.942,59.8694,-3.89331,-0.05187186,0.80133
548.542,59.9295,-3.89461,-0.05187138,0.8008
549.142,59.9894,-3.89363,-0.05280719,0.80028
549.742,60.04926,-3.89363,-0.05314964,0.79975
550.342,60.109,-3.89363,-0.05150247,0.79923
550.942,60.16882,-3.89363,-0.05394213,0.7987
551.542,60.2286,-3.89363,-0.05151045,0.79817
552.142,60.28856,-3.89363,-0.05407546,0.79765
552.742,60.34828,-3.89359,-0.05114962,0.79712
553.342,60.4082,-3.89495,-0.05174824,0.7966
553.942,60.4676,-3.89495,-0.05223024,0.79607
554.542,60.5273,-3.89394,-0.05187019,0.79554
555.142,60.58707,-3.89362,-0.05524562,0.79501
555.742,60.64668,-3.89363,-0.05048713,0.79449
556.342,60.70689,-3.89363,-0.05113,0.79396
556.942,60.7669,-3.89363,-0.05278331,0.79343
557.542,60.8266,-3.89337,-0.05245345,0.7929
558.142,60.8866,-3.89462,-0.05357731,0.79237
558.742,60.9463,-3.89462,-0.05375375,0.79185
559.342,61.0062,-3.89462,-0.05260408,0.79132
559.942,61.06624,-3.89462,-0.0537005,0.79079
560.542,61.12631,-3.89462,-0.0529264,0.79026
561.142,61.18625,-3.89461,-0.05293217,0.78973
561.742,61.2463,-3.89595,-0.05328518,0.7892
562.342,61.30621,-3.89462,-0.05273712,0.78867
562.942,61.3661,-3.8953,-0.05384506,0.78814
563.542,61.4259,-3.89592,-0.05500424,0.78761
564.142,61.48561,-3.89462,-0.05248316,0.78708
564.742,61.54534,-3.89462,-0.0565274,0.78655
565.342,61.6054,-3.89462,-0.05260117,0.78602
565.942,61.6655,-3.89561,-0.05521055,0.78549
566.542,61.72563,-3.89479,-0.05384702,0.78496
567.142,61.7855,-3.89462,-0.05414777,0.78442
567.742,61.8455,-3.89583,-0.05253135,0.78389
568.342,61.9056,-3.89462,-0.0531902,0.78336
568.942,61.96566,-3.89457,-0.05495049,0.78283
569.542,62.02571,-3.89593,-0.0545945,0.7823
570.142,62.0857,-3.89593,-0.05242143,0.78177
570.742,62.14569,-3.89593,-0.05280096,0.78123
571.342,62.2055,-3.89558,-0.05208726,0.7807
571.942,62.26536,-3.8943,-0.0509457,0.78017
572.542,62.32541,-3.89429,-0.05436706,0.77963
573.142,62.38539,-3.89692,-0.05321973,0.7791
573.742,62.44534,-3.8956,-0.05036179,0.77857
574.342,62.50509,-3.89561,-0.0541915,0.77803
574.942,62.5648,-3.89561,-0.05175714,0.7775
575.542,62.62463,-3.8955,-0.05213661,0.77697
576.142,62.68444,-3.89462,-0.04942229,0.77643
576.742,62.7441,-3.89461,-0.05169007,0.7759
577.342,62.80393,-3.89594,-0.05274082,0.77536
577.942,62.8636,-3.89594,-0.05272462,0.77483
578.542,62.9235,-3.89594,-0.05255579,0.7743
579.142,62.9834,-3.89521,-0.05382012,0.77376
579.742,63.04328,-3.89528,-0.05221939,0.77323
580.342,63.1029,-3.89528,-0.05536206,0.77269
580.942,63.1626,-3.89528,-0.05406072,0.77216
581.542,63.2224,-3.89621,-0.05253474,0.77162
582.142,63.28239,-3.8966,-0.05273684,0.77108
582.742,63.34231,-3.89527,-0.05155209,0.77055
583.342,63.4021,-3.89528,-0.05001491,0.77001
583.942,63.46207,-3.89618,-0.05121504,0.76948
584.542,63.52189,-3.8966,-0.05244632,0.76894
585.142,63.58198,-3.8966,-0.05108776,0.7684
585.742,63.642,-3.8966,-0.04993278,0.76787
586.342,63.70196,-3.8966,-0.04999696,0.76733
586.942,63.76183,-3.8976,-0.05128873,0.76679
587.542,63.8218,-3.89759,-0.04998393,0.76626
588.142,63.88171,-3.89704,-0.05015028,0.76572
588.742,63.94205,-3.89495,-0.05139403,0.76518
589.342,64.00208,-3.89496,-0.04899772,0.76464
589.942,64.06222,-3.89561,-0.04895174,0.76411
590.542,64.12231,-3.89625,-0.05148732,0.76357
591.142,64.1821,-3.89633,-0.05083015,0.76303
591.742,64.24206,-3.8966,-0.0516252,0.76249
592.342,64.30208,-3.8966,-0.04957973,0.76195
592.942,64.36211,-3.89656,-0.04980889,0.76142
593.542,64.42251,-3.89561,-0.04857802,0.76088
594.142,64.48278,-3.89561,-0.05084951,0.76034
594.742,64.54298,-3.89561,-0.05191911,0.7598
595.342,64.6031,-3.89561,-0.0496329,0.75926
595.942,64.66332,-3.89561,-0.05019636,0.75872
596.542,64.7234,-3.89691,-0.0523762,0.75818
597.142,64.78357,-3.89561,-0.05107136,0.75764
597.742,64.84384,-3.8943,-0.05019413,0.7571
598.342,64.90397,-3.8953,-0.05076592,0.75656
598.942,64.96418,-3.89528,-0.05076403,0.75602
599.542,65.02453,-3.89528,-0.0509415,0.75548
600.142,65.08499,-3.89528,-0.05175521,0.75494
600.742,65.14545,-3.89571,-0.05113894,0.7544
601.342,65.20585,-3.89594,-0.05260353,0.75386
601.942,65.26616,-3.89594,-0.04994061,0.75332
602.542,65.32653,-3.89595,-0.05188336,0.75278
603.142,65.3867,-3.89628,-0.05287652,0.75224
603.742,65.4469,-3.89495,-0.05167124,0.7517
604.342,65.5072,-3.89564,-0.05207195,0.75116
604.942,65.56746,-3.89561,-0.05337573,0.75062
605.542,65.62777,-3.89561,-0.05428816,0.75008
606.142,65.68817,-3.89627,-0.05105818,0.74953
606.742,65.74853,-3.89627,-0.05102616,0.74899
607.342,65.80894,-3.89627,-0.05032844,0.74845
607.942,65.86939,-3.89495,-0.05040279,0.74791
608.542,65.92965,-3.89495,-0.05347618,0.74737
609.142,65.99006,-3.89494,-0.04902327,0.74683
609.742,66.0504,-3.89627,-0.0506157,0.74628
610.342,66.11081,-3.89626,-0.05227304,0.74574
610.942,66.17107,-3.89495,-0.05038644,0.7452
611.542,66.23115,-3.89495,-0.05230882,0.74466
612.142,66.29133,-3.89495,-0.0486994,0.74411
612.742,66.35168,-3.89495,-0.05079717,0.74357
613.342,66.41196,-3.89511,-0.05032744,0.74303
613.942,66.47204,-3.89561,-0.04778771,0.74249
614.542,66.5322,-3.89561,-0.05239367,0.74194
615.142,66.5922,-3.89561,-0.04996451,0.7414
615.742,66.65222,-3.89561,-0.04960431,0.74086
616.342,66.71225,-3.89585,-0.05311855,0.74031
616.942,66.77239,-3.89561,-0.0540845,0.73977
617.542,66.8325,-3.89469,-0.05174632,0.73922
618.142,66.8926,-3.8943,-0.04989547,0.73868
618.742,66.95257,-3.89423,-0.04721664,0.73814
619.342,67.01257,-3.89528,-0.05042062,0.73759
619.942,67.07268,-3.89528,-0.04898093,0.73705
620.542,67.13286,-3.8966,-0.04633279,0.7365
621.142,67.19314,-3.89528,-0.0513551,0.73596
621.742,67.2534,-3.89528,-0.05226033,0.73542
622.342,67.31356,-3.89396,-0.054685,0.73487
622.942,67.37355,-3.89483,-0.04894085,0.73433
623.542,67.43353,-3.895,-0.05105798,0.73378
624.142,67.49354,-3.89548,-0.05210954,0.73324
624.742,67.55395,-3.89495,-0.05087935,0.73269
625.342,67.6144,-3.89354,-0.04821205,0.73215
625.942,67.67456,-3.89363,-0.05025792,0.7316
626.542,67.73484,-3.89417,-0.05037553,0.73106
627.142,67.79483,-3.89495,-0.04987634,0.73051
627.742,67.8549,-3.89497,-0.0494472,0.72997
628.342,67.91508,-3.89561,-0.04892146,0.72942
628.942,67.9753,-3.89561,-0.04520362,0.72888
629.542,68.0356,-3.89566,-0.04717137,0.72833
630.142,68.096,-3.89429,-0.04824846,0.72778
630.742,68.1565,-3.89394,-0.044937,0.72724
631.342,68.2168,-3.89353,-0.04788839,0.72669
631.942,68.27711,-3.89462,-0.04752112,0.72615
632.542,68.33765,-3.89547,-0.04798794,0.7256
633.142,68.39816,-3.89594,-0.0485099,0.72505
633.742,68.45886,-3.89594,-0.048846,0.72451
634.342,68.5194,-3.89594,-0.04689845,0.72396
634.942,68.5796,-3.89594,-0.04178772,0.72341
635.542,68.63993,-3.89594,-0.04618379,0.72287
636.142,68.70019,-3.89594,-0.04715921,0.72232
636.742,68.76056,-3.89583,-0.04976184,0.72177
637.342,68.821,-3.89495,-0.04660763,0.72123
637.942,68.8814,-3.89495,-0.04660731,0.72068
638.542,68.94192,-3.89168,-0.05133747,0.72013
639.142,69.0025,-3.88447,-0.04786449,0.71959
639.742,69.063,-3.88579,-0.04883,0.71904
640.342,69.12337,-3.88721,-0.04886688,0.71849
640.942,69.18385,-3.88951,-0.0464043,0.71794
641.542,69.2445,-3.8911,-0.04362472,0.7174
642.142,69.3052,-3.89243,-0.03984601,0.71685
642.742,69.36587,-3.8924,-0.04002777,0.7163
643.342,69.42634,-3.8933,-0.04226536,0.71576
643.942,69.48679,-3.89516,-0.04162694,0.71521
644.542,69.54719,-3.89843,-0.04275468,0.71466
645.142,69.60805,-3.89846,-0.03725939,0.71411
645.742,69.6686,-3.89912,-0.03488485,0.71356
646.342,69.7294,-3.89943,-0.03500557,0.71302
646.942,69.78996,-3.89847,-0.03311851,0.71247
647.542,69.85034,-3.89714,-0.02790718,0.71192
648.142,69.91072,-3.89714,-0.03692249,0.71137
648.742,69.97116,-3.89714,-0.0379178,0.71082
648.942,69.9913,-3.89714,-0.03688451,0.71064