File: 01_Data/Coffee_Machine/STA/N2/10K_min/Coffee_Maker_STA_N2_10KData_220202_R3.csv
##Temp./Â°C,Time/min,Mass loss(subtr.2)/mg,DSC(subtr.2)/(mW/mg),Sensit./(uV/mW)
49.289,10.01,-0.0453,0.00448271,1.07447
49.889,10.73568,-0.04732253,0.04760264,1.07443
50.489,10.9243,-0.0474744,0.08158181,1.07439
51.089,11.06517,-0.04888025,0.10725,1.07434
51.689,11.1828,-0.04758082,0.13257,1.0743
52.289,11.28774,-0.0481615,0.15217,1.07426
52.889,11.3843,-0.04880996,0.16944,1.07421
53.489,11.47443,-0.04923243,0.18471,1.07416
54.089,11.56,-0.04848041,0.19748,1.07412
54.689,11.64184,-0.04929318,0.20888,1.07407
55.289,11.72092,-0.05018636,0.22293,1.07402
55.889,11.79781,-0.04920075,0.23173,1.07397
56.489,11.8733,-0.05008352,0.23877,1.07392
57.089,11.94688,-0.05139849,0.2461,1.07387
57.689,12.01932,-0.05077364,0.25555,1.07382
58.289,12.0901,-0.0505596,0.25982,1.07376
58.889,12.16033,-0.04923489,0.26898,1.07371
59.489,12.22953,-0.05031102,0.27122,1.07365
60.089,12.29837,-0.04926531,0.27602,1.0736
60.689,12.36626,-0.04936062,0.28046,1.07354
61.289,12.43351,-0.04995636,0.28577,1.07348
61.889,12.5008,-0.0502672,0.2888,1.07343
62.489,12.56777,-0.05062433,0.29031,1.07337
63.089,12.63442,-0.051092,0.29634,1.07331
63.689,12.70012,-0.05101234,0.29636,1.07325
64.289,12.76557,-0.05172554,0.29884,1.07319
64.889,12.83126,-0.05122522,0.29936,1.07312
65.489,12.89673,-0.05198117,0.30267,1.07306
66.089,12.96217,-0.05207299,0.30196,1.073
66.689,13.0268,-0.05336569,0.30267,1.07293
67.289,13.09155,-0.05277915,0.30388,1.07286
67.889,13.1561,-0.0542269,0.30613,1.0728
68.489,13.22055,-0.05330436,0.30653,1.07273
69.089,13.28498,-0.05435437,0.30725,1.07266
69.689,13.3491,-0.05167669,0.30644,1.07259
70.289,13.4131,-0.0529797,0.30744,1.07252
70.889,13.47691,-0.05415378,0.30873,1.07245
71.489,13.54044,-0.05560665,0.31119,1.07238
72.089,13.60409,-0.0541957,0.31104,1.07231
72.689,13.66729,-0.05427193,0.31104,1.07224
73.289,13.7302,-0.05429549,0.31396,1.07216
73.889,13.79311,-0.05549291,0.31406,1.07209
74.489,13.85605,-0.05719252,0.31706,1.07201
75.089,13.91896,-0.05581815,0.31497,1.07193
75.689,13.9816,-0.05352557,0.31755,1.07186
76.289,14.04445,-0.05355185,0.31594,1.07178
76.889,14.1066,-0.05484124,0.31663,1.0717
77.489,14.169,-0.05627301,0.3188,1.07162
78.089,14.23121,-0.05626213,0.3212,1.07154
78.689,14.29325,-0.05623941,0.3186,1.07146
79.289,14.35546,-0.05626813,0.32282,1.07137
79.889,14.4172,-0.05493955,0.32346,1.07129
80.489,14.47884,-0.05625515,0.32559,1.07121
81.089,14.5405,-0.05627322,0.32197,1.07112
81.689,14.6019,-0.05611714,0.32579,1.07104
82.289,14.6631,-0.05660215,0.32611,1.07095
82.889,14.72465,-0.05708622,0.32666,1.07086
83.489,14.7861,-0.0575899,0.32793,1.07077
84.089,14.84745,-0.05759,0.32804,1.07068
84.689,14.9086,-0.05758111,0.32897,1.07059
85.289,14.96941,-0.05758436,0.32993,1.0705
85.889,15.03011,-0.0589,0.33099,1.07041
86.489,15.09079,-0.05758579,0.33165,1.07032
87.089,15.15145,-0.05892319,0.33125,1.07023
87.689,15.212,-0.05888928,0.33288,1.07013
88.289,15.27259,-0.0581573,0.33285,1.07004
88.889,15.33281,-0.05889987,0.33162,1.06994
89.489,15.39315,-0.05891291,0.33361,1.06985
90.089,15.45315,-0.05890538,0.33341,1.06975
90.689,15.5131,-0.05749638,0.33509,1.06965
91.289,15.5732,-0.05758758,0.33678,1.06955
91.889,15.63316,-0.05888671,0.33717,1.06945
92.489,15.69333,-0.05889997,0.33772,1.06935
93.089,15.7528,-0.05951093,0.33605,1.06925
93.689,15.81218,-0.06162936,0.34061,1.06915
94.289,15.8717,-0.06056128,0.34039,1.06904
94.889,15.9313,-0.05913133,0.33835,1.06894
95.489,15.9909,-0.05890221,0.34209,1.06883
96.089,16.05036,-0.06021071,0.34221,1.06873
96.689,16.10976,-0.06021189,0.34163,1.06862
97.289,16.16917,-0.06150777,0.34498,1.06851
97.889,16.2287,-0.061528,0.34448,1.06841
98.489,16.28833,-0.06153,0.34765,1.0683
99.089,16.34776,-0.06154175,0.34702,1.06819
99.689,16.4069,-0.06282721,0.34674,1.06808
100.289,16.46594,-0.06152268,0.34808,1.06797
100.889,16.52508,-0.06284847,0.35133,1.06785
101.489,16.5842,-0.0618486,0.3502,1.06774
102.089,16.64319,-0.06153007,0.35286,1.06763
102.689,16.70208,-0.06152996,0.35287,1.06751
103.289,16.76105,-0.06153019,0.35487,1.0674
103.889,16.8199,-0.06153016,0.35598,1.06728
104.489,16.87871,-0.06162071,0.35804,1.06716
105.089,16.93754,-0.06152371,0.35986,1.06705
105.689,16.9965,-0.06284868,0.36041,1.06693
106.289,17.0554,-0.06284996,0.36012,1.06681
106.889,17.11417,-0.06277048,0.36069,1.06669
107.489,17.1727,-0.06299313,0.36182,1.06657
108.089,17.23126,-0.06285043,0.36233,1.06644
108.689,17.29009,-0.06416999,0.36297,1.06632
109.289,17.34873,-0.06285028,0.36454,1.0662
109.889,17.40765,-0.06406353,0.36529,1.06607
110.489,17.46647,-0.06415995,0.36744,1.06595
111.089,17.52514,-0.06416,0.36684,1.06582
111.689,17.58405,-0.0641601,0.36837,1.06569
112.289,17.64273,-0.0655714,0.36879,1.06557
112.889,17.70133,-0.06548002,0.36807,1.06544
113.489,17.7601,-0.06547973,0.36985,1.06531
114.089,17.81853,-0.0653771,0.37209,1.06518
114.689,17.877,-0.06547988,0.37231,1.06505
115.289,17.93551,-0.06538063,0.3735,1.06491
115.889,17.99397,-0.06580568,0.37242,1.06478
116.489,18.0526,-0.06721876,0.3763,1.06465
117.089,18.1112,-0.06712987,0.37773,1.06451
117.689,18.16999,-0.06679995,0.37813,1.06438
118.289,18.22861,-0.06542689,0.37803,1.06424
118.889,18.28708,-0.06679993,0.37981,1.06411
119.489,18.3456,-0.06680009,0.38348,1.06397
120.089,18.4039,-0.06703948,0.38339,1.06383
120.689,18.46256,-0.06613286,0.38295,1.06369
121.289,18.5208,-0.06751631,0.383,1.06355
121.889,18.57921,-0.06811313,0.38616,1.06341
122.489,18.63749,-0.06711836,0.38697,1.06327
123.089,18.69557,-0.06752276,0.38878,1.06313
123.689,18.75376,-0.06638001,0.39059,1.06298
124.289,18.81202,-0.06679942,0.39292,1.06284
124.889,18.87036,-0.06680154,0.39524,1.0627
125.489,18.92848,-0.06789171,0.40137,1.06255
126.089,18.98665,-0.06678966,0.39992,1.0624
126.689,19.04513,-0.06679007,0.4008,1.06226
127.289,19.10318,-0.06694012,0.40242,1.06211
127.889,19.16159,-0.06713291,0.4033,1.06196
128.489,19.21943,-0.06806981,0.40641,1.06181
129.089,19.27741,-0.06975313,0.4093,1.06166
129.689,19.33539,-0.06845171,0.41213,1.06151
130.289,19.39357,-0.06845001,0.41386,1.06136
130.889,19.4517,-0.06846181,0.41291,1.0612
131.489,19.50969,-0.06941193,0.41511,1.06105
132.089,19.56777,-0.06943037,0.41848,1.0609
132.689,19.62586,-0.06812759,0.42021,1.06074
133.289,19.6841,-0.06941612,0.42554,1.06059
133.889,19.7423,-0.06887868,0.42395,1.06043
134.489,19.80044,-0.06811003,0.42732,1.06027
135.089,19.85868,-0.06811,0.434,1.06011
135.689,19.91689,-0.06813525,0.43337,1.05995
136.289,19.9752,-0.06943048,0.4364,1.05979
136.889,20.03332,-0.06942971,0.44174,1.05963
137.489,20.09149,-0.07072277,0.44365,1.05947
138.089,20.14958,-0.07074,0.44753,1.05931
138.689,20.2076,-0.07074,0.45243,1.05915
139.289,20.26548,-0.07074,0.45551,1.05898
139.889,20.3237,-0.07074592,0.45945,1.05882
140.489,20.38192,-0.06943125,0.46508,1.05865
141.089,20.4402,-0.07074697,0.47021,1.05849
141.689,20.4985,-0.07075068,0.47704,1.05832
142.289,20.55657,-0.0707092,0.48256,1.05815
142.889,20.6145,-0.07073975,0.48722,1.05798
143.489,20.6723,-0.07159136,0.49457,1.05781
144.089,20.73017,-0.07205475,0.50313,1.05764
144.689,20.7881,-0.07073493,0.50955,1.05747
145.289,20.84594,-0.07205954,0.51951,1.0573
145.889,20.9038,-0.07343165,0.52813,1.05713
146.489,20.96167,-0.07337969,0.53585,1.05695
147.089,21.01955,-0.07207472,0.54826,1.05678
147.689,21.07759,-0.07206003,0.55774,1.0566
148.289,21.1357,-0.07205867,0.56891,1.05643
148.889,21.1936,-0.07142885,0.58412,1.05625
149.489,21.25151,-0.07140947,0.59669,1.05607
150.089,21.30937,-0.07206268,0.61122,1.0559
150.689,21.3672,-0.07203508,0.62702,1.05572
151.289,21.42543,-0.07271956,0.64509,1.05554
151.889,21.48353,-0.07272104,0.66308,1.05536
152.489,21.54162,-0.07277516,0.68555,1.05518
153.089,21.5999,-0.07337426,0.71087,1.05499
153.689,21.658,-0.07342181,0.73494,1.05481
154.289,21.7158,-0.07205382,0.76126,1.05463
154.889,21.77396,-0.07337809,0.7928,1.05444
155.489,21.83172,-0.07338,0.82675,1.05426
156.089,21.88983,-0.07338,0.86094,1.05407
156.689,21.94821,-0.07338285,0.90199,1.05389
157.289,22.00658,-0.0720791,0.94531,1.0537
157.889,22.06486,-0.07207012,0.98921,1.05351
158.489,22.12302,-0.07347342,1.03621,1.05332
159.089,22.18119,-0.07338002,1.08529,1.05313
159.689,22.2395,-0.07338013,1.13382,1.05294
160.289,22.2978,-0.072028,1.18619,1.05275
160.889,22.35605,-0.07337922,1.2317,1.05256
161.489,22.41452,-0.07338,1.28098,1.05237
162.089,22.47306,-0.07338001,1.32823,1.05217
162.689,22.5316,-0.07338564,1.37643,1.05198
163.289,22.58995,-0.07370216,1.41884,1.05178
163.889,22.6483,-0.07336986,1.45906,1.05159
164.489,22.70655,-0.07273739,1.49182,1.05139
165.089,22.76507,-0.0731211,1.51252,1.05119
165.689,22.82323,-0.07337993,1.51785,1.05099
166.289,22.8814,-0.07338,1.50201,1.05079
166.889,22.93939,-0.07338448,1.45996,1.05059
167.489,22.99719,-0.07470198,1.38791,1.05039
168.089,23.0547,-0.07427539,1.28012,1.05019
168.689,23.11205,-0.07341158,1.14384,1.04999
169.289,23.16914,-0.07469021,1.00227,1.04979
169.889,23.2262,-0.07469,0.87524,1.04958
170.489,23.28282,-0.07469,0.77319,1.04938
171.089,23.3396,-0.07469106,0.69697,1.04917
171.689,23.39617,-0.07568338,0.63981,1.04897
172.289,23.45235,-0.07568,0.59997,1.04876
172.889,23.50887,-0.07568001,0.56989,1.04855
173.489,23.56543,-0.0756961,0.5498,1.04835
174.089,23.6221,-0.07469086,0.53299,1.04814
174.689,23.67933,-0.075294,0.52154,1.04793
175.289,23.73629,-0.0760102,0.51422,1.04772
175.889,23.79348,-0.07601,0.50903,1.04751
176.489,23.85047,-0.07601,0.50529,1.04729
177.089,23.90758,-0.07600913,0.49981,1.04708
177.689,23.96474,-0.07464985,0.49775,1.04687
178.289,24.02186,-0.07477987,0.49597,1.04665
178.889,24.07913,-0.07731762,0.49303,1.04644
179.489,24.13635,-0.07593573,0.49218,1.04622
180.089,24.19342,-0.07731584,0.4926,1.04601
180.689,24.25037,-0.07733,0.49167,1.04579
181.289,24.30753,-0.07733,0.49035,1.04557
181.889,24.36463,-0.07733,0.49115,1.04535
182.489,24.42197,-0.07733,0.49096,1.04513
183.089,24.47928,-0.07733,0.48965,1.04491
183.689,24.53656,-0.07732997,0.48951,1.04469
184.289,24.59382,-0.0772574,0.48961,1.04447
184.889,24.65103,-0.07757134,0.48899,1.04425
185.489,24.7082,-0.07867418,0.491,1.04402
186.089,24.76512,-0.07861227,0.493,1.0438
186.689,24.82229,-0.07765178,0.49294,1.04357
187.289,24.87939,-0.07765005,0.4937,1.04335
187.889,24.93649,-0.07828108,0.495,1.04312
188.489,24.99384,-0.07899001,0.4936,1.0429
189.089,25.05098,-0.07831024,0.49178,1.04267
189.689,25.1082,-0.07830471,0.49418,1.04244
190.289,25.16536,-0.07927482,0.49356,1.04221
190.889,25.22265,-0.07898009,0.49451,1.04198
191.489,25.27983,-0.07898,0.49382,1.04175
192.089,25.337,-0.07898,0.49469,1.04152
192.689,25.3943,-0.07897999,0.49764,1.04129
193.289,25.45151,-0.07897158,0.49577,1.04105
193.889,25.50873,-0.07766089,0.49709,1.04082
194.489,25.5659,-0.07837427,0.49668,1.04058
195.089,25.62301,-0.07928127,0.49547,1.04035
195.689,25.68,-0.0793,0.49642,1.04011
196.289,25.73715,-0.0793,0.49669,1.03988
196.889,25.7943,-0.07930008,0.49577,1.03964
197.489,25.8519,-0.07940209,0.49696,1.0394
198.089,25.90955,-0.07998822,0.4952,1.03916
198.689,25.96679,-0.07929921,0.49565,1.03892
199.289,26.0241,-0.07929643,0.49743,1.03868
199.889,26.0813,-0.08028731,0.49677,1.03844
200.489,26.13879,-0.08029215,0.49886,1.0382
201.089,26.19629,-0.0789899,0.49611,1.03796
201.689,26.2537,-0.0793346,0.49964,1.03771
202.289,26.3109,-0.07930001,0.4994,1.03747
202.889,26.368,-0.07929997,0.49964,1.03722
203.489,26.4253,-0.07919776,0.50041,1.03698
204.089,26.48265,-0.0802528,0.50358,1.03673
204.689,26.5399,-0.08160008,0.50354,1.03649
205.289,26.59709,-0.08157553,0.50125,1.03624
205.889,26.65441,-0.08028946,0.50308,1.03599
206.489,26.71162,-0.08029004,0.50133,1.03574
207.089,26.76913,-0.08155287,0.50296,1.03549
207.689,26.8265,-0.08149172,0.50419,1.03524
208.289,26.88395,-0.08028939,0.50358,1.03499
208.889,26.94162,-0.08017433,0.50587,1.03474
209.489,26.99901,-0.07896666,0.5055,1.03448
210.089,27.05633,-0.08028875,0.50712,1.03423
210.689,27.11372,-0.08169596,0.50653,1.03398
211.289,27.1711,-0.08160136,0.50711,1.03372
211.889,27.2283,-0.08052095,0.51052,1.03347
212.489,27.285,-0.08213044,0.51356,1.03321
213.089,27.3422,-0.08263272,0.5142,1.03295
213.689,27.39935,-0.08126995,0.51181,1.03269
214.289,27.4566,-0.08127191,0.51252,1.03244
214.889,27.51421,-0.08259706,0.51517,1.03218
215.489,27.57122,-0.08259,0.5158,1.03192
216.089,27.6284,-0.08259,0.5196,1.03166
216.689,27.68562,-0.08259117,0.51765,1.03139
217.289,27.74255,-0.08162455,0.51775,1.03113
217.889,27.7995,-0.08161,0.51823,1.03087
218.489,27.85642,-0.08161,0.52059,1.03061
219.089,27.91333,-0.08160982,0.52193,1.03034
219.689,27.9701,-0.08228058,0.52199,1.03008
220.289,28.0272,-0.08293015,0.52342,1.02981
220.889,28.08413,-0.08293,0.52415,1.02954
221.489,28.1414,-0.08292758,0.52293,1.02928
222.089,28.1982,-0.08259912,0.52411,1.02901
222.689,28.25497,-0.08259933,0.52324,1.02874
223.289,28.31188,-0.08226738,0.52443,1.02847
223.889,28.3687,-0.08225999,0.52459,1.0282
224.489,28.4257,-0.08226,0.52741,1.02793
225.089,28.48255,-0.08226,0.52638,1.02766
225.689,28.5394,-0.08226,0.52714,1.02739
226.289,28.5962,-0.08225795,0.52847,1.02711
226.889,28.65328,-0.0813975,0.52877,1.02684
227.489,28.71013,-0.08126993,0.52812,1.02657
228.089,28.76703,-0.08262106,0.5288,1.02629
228.689,28.8241,-0.08258441,0.52835,1.02602
229.289,28.88121,-0.08390893,0.52793,1.02574
229.889,28.9384,-0.08366906,0.53003,1.02546
230.489,28.99548,-0.08291972,0.5264,1.02519
231.089,29.0526,-0.08292,0.52934,1.02491
231.689,29.1098,-0.08292,0.53102,1.02463
232.289,29.16665,-0.08291947,0.53016,1.02435
232.889,29.2239,-0.08420424,0.53392,1.02407
233.489,29.281,-0.08422999,0.53568,1.02379
234.089,29.33832,-0.08422997,0.53189,1.02351
234.689,29.39588,-0.0851864,0.5314,1.02322
235.289,29.45301,-0.08518645,0.53117,1.02294
235.889,29.5101,-0.08456035,0.53259,1.02266
236.489,29.56707,-0.08324569,0.53241,1.02237
237.089,29.62414,-0.08325,0.53262,1.02209
237.689,29.68143,-0.08325,0.53259,1.0218
238.289,29.7388,-0.08324605,0.53381,1.02151
238.889,29.79617,-0.08456894,0.5359,1.02123
239.489,29.85347,-0.08383904,0.53456,1.02094
240.089,29.91067,-0.08390999,0.53555,1.02065
240.689,29.9679,-0.08391006,0.53659,1.02036
241.289,30.02522,-0.08418883,0.53463,1.02007
241.889,30.08251,-0.08523024,0.53515,1.01978
242.489,30.1398,-0.08523,0.53388,1.01949
243.089,30.19693,-0.08523,0.53539,1.01919
243.689,30.2541,-0.08523,0.53478,1.0189
244.289,30.3113,-0.08523,0.53564,1.01861
244.889,30.3689,-0.085229,0.53737,1.01831
245.489,30.426,-0.08385235,0.53619,1.01802
246.089,30.4834,-0.08527382,0.5361,1.01772
246.689,30.5405,-0.08621008,0.53782,1.01743
247.289,30.5977,-0.08621,0.53841,1.01713
247.889,30.65468,-0.08621,0.5404,1.01683
248.489,30.7119,-0.0862116,0.54146,1.01653
249.089,30.7692,-0.08521764,0.53987,1.01624
249.689,30.8266,-0.08522,0.54084,1.01594
250.289,30.88413,-0.08521997,0.54144,1.01564
250.889,30.9415,-0.0856901,0.53994,1.01533
251.489,30.99884,-0.08654011,0.542,1.01503
252.089,31.05599,-0.08654,0.5434,1.01473
252.689,31.1132,-0.08654,0.54316,1.01443
253.289,31.17059,-0.08654,0.54495,1.01412
253.889,31.22795,-0.08654007,0.5433,1.01382
254.489,31.2853,-0.08685976,0.54414,1.01351
255.089,31.3427,-0.08753008,0.54324,1.01321
255.689,31.40015,-0.08753007,0.54514,1.0129
256.289,31.45754,-0.08720466,0.54729,1.0126
256.889,31.51485,-0.08720001,0.54544,1.01229
257.489,31.57232,-0.08720234,0.54633,1.01198
258.089,31.6298,-0.08654066,0.54451,1.01167
258.689,31.6873,-0.08654,0.54483,1.01136
259.289,31.74478,-0.08654062,0.54635,1.01105
259.889,31.8021,-0.08686211,0.54663,1.01074
260.489,31.85942,-0.08686816,0.5464,1.01043
261.089,31.9168,-0.08817879,0.54637,1.01012
261.689,31.97444,-0.08818,0.54969,1.0098
262.289,32.0319,-0.08818,0.55007,1.00949
262.889,32.08957,-0.08818,0.54951,1.00917
263.489,32.14687,-0.08818,0.55022,1.00886
264.089,32.20418,-0.08818,0.55241,1.00854
264.689,32.26149,-0.08818,0.55092,1.00823
265.289,32.31892,-0.08818,0.55139,1.00791
265.889,32.37648,-0.08817998,0.55321,1.00759
266.489,32.4339,-0.08813933,0.55281,1.00728
267.089,32.49136,-0.08949938,0.55447,1.00696
267.689,32.54882,-0.0895,0.55595,1.00664
268.289,32.60613,-0.0895,0.55381,1.00632
268.889,32.66375,-0.0895,0.55702,1.006
269.489,32.72113,-0.0895,0.55606,1.00567
270.089,32.77854,-0.08950009,0.55624,1.00535
270.689,32.83587,-0.08894808,0.55694,1.00503
271.289,32.89304,-0.08885002,0.55749,1.00471
271.889,32.9504,-0.08884628,0.55775,1.00438
272.489,33.00773,-0.08983028,0.55948,1.00406
273.089,33.0651,-0.09087957,0.55814,1.00373
273.689,33.12242,-0.09113996,0.56044,1.00341
274.289,33.17982,-0.09113705,0.56103,1.00308
274.889,33.23705,-0.09015121,0.56194,1.00275
275.489,33.2943,-0.09012007,0.55965,1.00242
276.089,33.35172,-0.09048013,0.56187,1.0021
276.689,33.40893,-0.09048,0.56427,1.00177
277.289,33.4661,-0.09050609,0.56214,1.00144
277.889,33.5233,-0.09180085,0.56244,1.00111
278.489,33.58036,-0.09048528,0.56551,1.00077
279.089,33.6376,-0.0916104,0.56383,1.00044
279.689,33.69498,-0.09144755,0.56483,1.00011
280.289,33.7521,-0.09147951,0.56412,0.99978
280.889,33.80969,-0.09246321,0.56732,0.99944
281.489,33.86698,-0.09246001,0.56275,0.99911
282.089,33.92426,-0.09246043,0.5661,0.99877
282.689,33.98165,-0.09116838,0.56701,0.99844
283.289,34.03897,-0.09115,0.56593,0.9981
283.889,34.09626,-0.0911925,0.56735,0.99777
284.489,34.15367,-0.09345172,0.56837,0.99743
285.089,34.21091,-0.09345,0.56647,0.99709
285.689,34.26831,-0.09345,0.56874,0.99675
286.289,34.3258,-0.09345,0.57083,0.99641
286.889,34.38325,-0.09345,0.56728,0.99607
287.489,34.4407,-0.09345,0.56686,0.99573
288.089,34.49794,-0.09345004,0.56993,0.99539
288.689,34.55507,-0.09361789,0.56961,0.99505
289.289,34.61242,-0.09377996,0.56816,0.99471
289.889,34.66976,-0.09378,0.56903,0.99436
290.489,34.7271,-0.09368806,0.56938,0.99402
291.089,34.78483,-0.09508988,0.57113,0.99368
291.689,34.84245,-0.09509,0.57154,0.99333
292.289,34.90019,-0.09509001,0.57022,0.99298
292.889,34.95755,-0.09456775,0.57238,0.99264
293.489,35.01505,-0.09443009,0.57134,0.99229
294.089,35.07255,-0.09443,0.57224,0.99194
294.689,35.1302,-0.09443,0.57139,0.9916
295.289,35.18804,-0.09443,0.57297,0.99125
295.889,35.24555,-0.09443066,0.5742,0.9909
296.489,35.3031,-0.0947508,0.57461,0.99055
297.089,35.36068,-0.09475948,0.57115,0.9902
297.689,35.4184,-0.09575508,0.5726,0.98985
298.289,35.4761,-0.09575,0.57611,0.9895
298.889,35.53362,-0.09575,0.57671,0.98914
299.489,35.59106,-0.09575,0.57939,0.98879
300.089,35.6486,-0.09575,0.57879,0.98844
300.689,35.70615,-0.09575,0.57603,0.98808
301.289,35.76377,-0.09575,0.57666,0.98773
301.889,35.82134,-0.09575,0.57688,0.98737
302.489,35.8789,-0.09575,0.57804,0.98702
303.089,35.93626,-0.09575,0.57726,0.98666
303.689,35.99382,-0.09575011,0.57726,0.9863
304.289,36.05154,-0.09586773,0.57738,0.98595
304.889,36.10913,-0.09839265,0.57829,0.98559
305.489,36.1669,-0.09707115,0.5744,0.98523
306.089,36.2248,-0.09707,0.57589,0.98487
306.689,36.28272,-0.09706998,0.5782,0.98451
307.289,36.34073,-0.09746509,0.57717,0.98415
307.889,36.39847,-0.09839014,0.57656,0.98379
308.489,36.45628,-0.09839,0.57768,0.98342
309.089,36.51388,-0.09839,0.57658,0.98306
309.689,36.57178,-0.09838995,0.57846,0.9827
310.289,36.62961,-0.0984109,0.57664,0.98233
310.889,36.6875,-0.09707013,0.57785,0.98197
311.489,36.74556,-0.09737383,0.57991,0.98161
312.089,36.80369,-0.09838564,0.57753,0.98124
312.689,36.86195,-0.09804124,0.57886,0.98087
313.289,36.9199,-0.09804818,0.57985,0.98051
313.889,36.97803,-0.09934719,0.581,0.98014
314.489,37.0359,-0.09839169,0.58373,0.97977
315.089,37.0938,-0.09857407,0.58299,0.9794
315.689,37.15186,-0.10109,0.58246,0.97903
316.289,37.20978,-0.10102,0.58408,0.97867
316.889,37.26758,-0.09971707,0.58579,0.9783
317.489,37.3254,-0.09979363,0.58452,0.97792
318.089,37.3831,-0.09839013,0.58417,0.97755
318.689,37.44084,-0.09838945,0.5846,0.97718
319.289,37.49866,-0.09966757,0.5873,0.97681
319.889,37.55648,-0.10105,0.58664,0.97644
320.489,37.61456,-0.10102,0.58622,0.97606
321.089,37.67257,-0.10235,0.5871,0.97569
321.689,37.73039,-0.10165,0.58672,0.97531
322.289,37.78803,-0.10102,0.58835,0.97494
322.889,37.8459,-0.10102,0.58653,0.97456
323.489,37.9037,-0.10102,0.58856,0.97419
324.089,37.96208,-0.10102,0.58985,0.97381
324.689,38.01998,-0.10135,0.58881,0.97343
325.289,38.07798,-0.10201,0.59006,0.97305
325.889,38.13581,-0.10201,0.58735,0.97267
326.489,38.19364,-0.10179,0.59137,0.97229
327.089,38.25143,-0.10135,0.59172,0.97191
327.689,38.30921,-0.10135,0.59211,0.97153
328.289,38.3673,-0.10206,0.58968,0.97115
328.889,38.4252,-0.10266,0.59446,0.97077
329.489,38.48301,-0.10266,0.59147,0.97039
330.089,38.5407,-0.10266,0.59495,0.97001
330.689,38.59858,-0.10266,0.59476,0.96962
331.289,38.65611,-0.10401,0.59504,0.96924
331.889,38.71386,-0.10497,0.5935,0.96885
332.489,38.7718,-0.10533,0.59431,0.96847
333.089,38.82977,-0.10531,0.59481,0.96808
333.689,38.88792,-0.10431,0.59399,0.9677
334.289,38.94575,-0.10486,0.59453,0.96731
334.889,39.00362,-0.10563,0.59757,0.96692
335.489,39.0616,-0.10563,0.59745,0.96654
336.089,39.11943,-0.10692,0.59669,0.96615
336.689,39.1775,-0.10694,0.59915,0.96576
337.289,39.2357,-0.10694,0.59981,0.96537
337.889,39.29401,-0.10694,0.59859,0.96498
338.489,39.35232,-0.107,0.59823,0.96459
339.089,39.4103,-0.10727,0.59819,0.9642
339.689,39.4684,-0.10823,0.60084,0.96381
340.289,39.52649,-0.10957,0.60136,0.96341
340.889,39.58488,-0.10922,0.59947,0.96302
341.489,39.64304,-0.10925,0.59966,0.96263
342.089,39.70125,-0.10822,0.60004,0.96223
342.689,39.75962,-0.10826,0.60212,0.96184
343.289,39.81793,-0.10826,0.60056,0.96144
343.889,39.8762,-0.10957,0.60396,0.96105
344.489,39.93448,-0.10947,0.6038,0.96065
345.089,39.99261,-0.10958,0.60555,0.96026
345.689,40.05088,-0.11089,0.60448,0.95986
346.289,40.10925,-0.11089,0.6074,0.95946
346.889,40.16766,-0.1122,0.60658,0.95906
347.489,40.22599,-0.11121,0.60745,0.95866
348.089,40.2842,-0.11122,0.60913,0.95827
348.689,40.3425,-0.11122,0.60916,0.95787
349.289,40.40065,-0.11296,0.61035,0.95747
349.889,40.4589,-0.11442,0.61162,0.95706
350.489,40.51721,-0.11516,0.61246,0.95666
351.089,40.57533,-0.11516,0.61066,0.95626
351.689,40.63371,-0.11516,0.6125,0.95586
352.289,40.69213,-0.11433,0.61089,0.95546
352.889,40.75045,-0.11385,0.61345,0.95505
353.489,40.80885,-0.11517,0.6152,0.95465
354.089,40.86719,-0.11517,0.61553,0.95424
354.689,40.92532,-0.11653,0.61403,0.95384
355.289,40.9835,-0.11649,0.61604,0.95343
355.889,41.0417,-0.1178,0.61757,0.95303
356.489,41.09981,-0.1178,0.61944,0.95262
357.089,41.1582,-0.11648,0.61886,0.95221
357.689,41.21621,-0.1178,0.62022,0.95181
358.289,41.27445,-0.1178,0.62158,0.9514
358.889,41.3327,-0.11912,0.62121,0.95099
359.489,41.39099,-0.11918,0.62342,0.95058
360.089,41.44924,-0.12043,0.62474,0.95017
360.689,41.50763,-0.12043,0.62327,0.94976
361.289,41.5659,-0.12043,0.62512,0.94935
361.889,41.62415,-0.12044,0.62495,0.94894
362.489,41.6825,-0.12175,0.62928,0.94852
363.089,41.74077,-0.12175,0.62503,0.94811
363.689,41.79914,-0.12175,0.62712,0.9477
364.289,41.85735,-0.12246,0.62838,0.94729
364.889,41.91565,-0.12444,0.62704,0.94687
365.489,41.97403,-0.12548,0.62977,0.94646
366.089,42.03235,-0.12581,0.62959,0.94604
366.689,42.09062,-0.12712,0.63106,0.94563
367.289,42.1488,-0.1258,0.63173,0.94521
367.889,42.207,-0.1258,0.63343,0.9448
368.489,42.2654,-0.12579,0.63135,0.94438
369.089,42.32365,-0.12712,0.63227,0.94396
369.689,42.38208,-0.12712,0.63328,0.94354
370.289,42.44032,-0.12712,0.63268,0.94312
370.889,42.4986,-0.12973,0.63393,0.94271
371.489,42.55687,-0.12975,0.63892,0.94229
372.089,42.61526,-0.13114,0.63639,0.94187
372.689,42.67364,-0.13162,0.63635,0.94145
373.289,42.73198,-0.13173,0.64017,0.94102
373.889,42.79033,-0.13242,0.63893,0.9406
374.489,42.84876,-0.13239,0.64097,0.94018
375.089,42.90712,-0.13241,0.64127,0.93976
375.689,42.9657,-0.13444,0.64185,0.93934
376.289,43.02409,-0.13644,0.64003,0.93891
376.889,43.08255,-0.13634,0.64116,0.93849
377.489,43.1411,-0.13633,0.64101,0.93806
378.089,43.19945,-0.13764,0.64132,0.93764
378.689,43.2579,-0.1363,0.64256,0.93721
379.289,43.31629,-0.13887,0.64235,0.93679
379.889,43.37464,-0.14044,0.64323,0.93636
380.489,43.43309,-0.13919,0.64648,0.93593
381.089,43.49156,-0.14048,0.64472,0.93551
381.689,43.55025,-0.14116,0.64693,0.93508
382.289,43.60901,-0.14248,0.64809,0.93465
382.889,43.66751,-0.14323,0.64852,0.93422
383.489,43.726,-0.14369,0.64945,0.93379
384.089,43.7845,-0.14551,0.64907,0.93336
384.689,43.8429,-0.14643,0.6533,0.93293
385.289,43.90144,-0.14774,0.65176,0.9325
385.889,43.96,-0.14972,0.65297,0.93207
386.489,44.01838,-0.14972,0.65534,0.93164
387.089,44.0769,-0.15102,0.65482,0.93121
387.689,44.13555,-0.15113,0.65611,0.93078
388.289,44.1941,-0.15103,0.65882,0.93034
388.889,44.25273,-0.15233,0.65623,0.92991
389.489,44.31134,-0.15366,0.66015,0.92947
390.089,44.3699,-0.15498,0.66152,0.92904
390.689,44.42845,-0.15765,0.66199,0.9286
391.289,44.48695,-0.15899,0.66456,0.92817
391.889,44.5454,-0.16034,0.66634,0.92773
392.489,44.60372,-0.16043,0.66862,0.9273
393.089,44.6621,-0.16157,0.67253,0.92686
393.689,44.72033,-0.16288,0.67441,0.92642
394.289,44.77867,-0.16421,0.67542,0.92599
394.889,44.8369,-0.16563,0.67809,0.92555
395.489,44.89524,-0.16855,0.67937,0.92511
396.089,44.9535,-0.16916,0.68028,0.92467
396.689,45.01201,-0.17043,0.68433,0.92423
397.289,45.0705,-0.17176,0.687,0.92379
397.889,45.1289,-0.17363,0.68942,0.92335
398.489,45.18728,-0.17549,0.69322,0.92291
399.089,45.24558,-0.17778,0.69634,0.92247
399.689,45.3038,-0.17901,0.69748,0.92202
400.289,45.36226,-0.18118,0.70083,0.92158
400.889,45.42087,-0.18305,0.70146,0.92114
401.489,45.47951,-0.18544,0.70594,0.9207
402.089,45.5381,-0.18718,0.71005,0.92025
402.689,45.59665,-0.1892,0.70779,0.91981
403.289,45.6552,-0.19118,0.71697,0.91936
403.889,45.71369,-0.19294,0.72085,0.91892
404.489,45.77215,-0.19452,0.72234,0.91847
405.089,45.83051,-0.19886,0.72574,0.91803
405.689,45.88905,-0.20174,0.73128,0.91758
406.289,45.94773,-0.20457,0.73243,0.91713
406.889,46.00654,-0.20662,0.73497,0.91669
407.489,46.06536,-0.20994,0.74151,0.91624
408.089,46.1241,-0.21233,0.74449,0.91579
408.689,46.1828,-0.21556,0.75033,0.91534
409.289,46.2414,-0.21743,0.75111,0.91489
409.889,46.30003,-0.22123,0.75616,0.91444
410.489,46.35869,-0.22366,0.76247,0.91399
411.089,46.41738,-0.22708,0.76803,0.91354
411.689,46.4761,-0.23152,0.77749,0.91309
412.289,46.53495,-0.23523,0.78142,0.91264
412.889,46.59369,-0.2393,0.78685,0.91219
413.489,46.65249,-0.24342,0.79208,0.91174
414.089,46.71119,-0.24665,0.8011,0.91128
414.689,46.7696,-0.25014,0.80668,0.91083
415.289,46.82844,-0.2542,0.81872,0.91038
415.889,46.8874,-0.25858,0.82509,0.90992
416.489,46.94614,-0.26547,0.8333,0.90947
417.089,47.00527,-0.26912,0.8427,0.90902
417.689,47.0641,-0.2732,0.85209,0.90856
418.289,47.1229,-0.28014,0.85857,0.9081
418.889,47.18176,-0.28528,0.86842,0.90765
419.489,47.24055,-0.29159,0.88064,0.90719
420.089,47.29912,-0.2965,0.88947,0.90674
420.689,47.35784,-0.30282,0.90015,0.90628
421.289,47.4165,-0.30803,0.91048,0.90582
421.889,47.47505,-0.3142,0.91949,0.90536
422.489,47.53375,-0.32117,0.93294,0.9049
423.089,47.59218,-0.32884,0.95024,0.90445
423.689,47.6509,-0.33588,1.01002,0.90399
424.289,47.70995,-0.34429,0.98174,0.90353
424.889,47.76899,-0.35263,0.97511,0.90307
425.489,47.82797,-0.35997,0.98101,0.90261
426.089,47.88682,-0.37095,0.98404,0.90214
426.689,47.94547,-0.37904,0.99014,0.90168
427.289,48.0043,-0.38608,1.00206,0.90122
427.889,48.06308,-0.39484,1.01945,0.90076
428.489,48.122,-0.40365,1.03616,0.9003
429.089,48.1806,-0.41309,1.05249,0.89983
429.689,48.23937,-0.4237,1.07748,0.89937
430.289,48.29829,-0.43424,1.09754,0.89891
430.889,48.35737,-0.44708,1.11152,0.89844
431.489,48.41639,-0.45942,1.13243,0.89798
432.089,48.4754,-0.47049,1.15367,0.89751
432.689,48.53434,-0.48395,1.17873,0.89705
433.289,48.59342,-0.49817,1.19755,0.89658
433.889,48.6524,-0.51313,1.22465,0.89611
434.489,48.71138,-0.52811,1.2507,0.89565
435.089,48.77041,-0.5426,1.27949,0.89518
435.689,48.82926,-0.55891,1.30283,0.89471
436.289,48.8887,-0.57762,1.33446,0.89424
436.889,48.94809,-0.59497,1.35588,0.89378
437.489,49.0074,-0.61375,1.38836,0.89331
438.089,49.06661,-0.63235,1.4192,0.89284
438.689,49.1256,-0.65301,1.4509,0.89237
439.289,49.1848,-0.67427,1.48684,0.8919
439.889,49.24398,-0.69735,1.53283,0.89143
440.489,49.30327,-0.7213,1.55531,0.89096
441.089,49.36245,-0.74785,1.59055,0.89049
441.689,49.42171,-0.77304,1.61698,0.89002
442.289,49.48083,-0.80043,1.65506,0.88954
442.889,49.53987,-0.82653,1.70407,0.88907
443.489,49.59883,-0.85779,1.73491,0.8886
444.089,49.65781,-0.88679,1.77956,0.88813
444.689,49.7169,-0.92141,1.82826,0.88765
445.289,49.77606,-0.9537,1.86499,0.88718
445.889,49.8354,-0.99065,1.91362,0.88671
446.489,49.89479,-1.02623,1.95801,0.88623
447.089,49.95393,-1.06745,1.9801,0.88576
447.689,50.0131,-1.10596,1.99976,0.88528
448.289,50.0722,-1.14843,2.03473,0.88481
448.889,50.13135,-1.18961,2.0782,0.88433
449.489,50.19057,-1.23339,2.1102,0.88385
450.089,50.25,-1.28013,2.15914,0.88338
450.689,50.30919,-1.3275,2.1945,0.8829
451.289,50.3686,-1.37964,2.22484,0.88242
451.889,50.428,-1.43176,2.2629,0.88194
452.489,50.48745,-1.48518,2.29122,0.88147
453.089,50.54685,-1.53843,2.33148,0.88099
453.689,50.6063,-1.59701,2.3678,0.88051
454.289,50.66561,-1.65501,2.3901,0.88003
454.889,50.7249,-1.71821,2.39356,0.87955
455.489,50.78427,-1.77664,2.38874,0.87907
456.089,50.84356,-1.83795,2.422,0.87859
456.689,50.90285,-1.89654,2.44145,0.87811
457.289,50.96206,-1.96408,2.44814,0.87763
457.889,51.02126,-2.02673,2.47684,0.87714
458.489,51.08057,-2.09786,2.46881,0.87666
459.089,51.14,-2.16498,2.4733,0.87618
459.689,51.19928,-2.23874,2.4791,0.8757
460.289,51.25821,-2.30817,2.48124,0.87522
460.889,51.31739,-2.38515,2.45498,0.87473
461.489,51.37665,-2.45612,2.42727,0.87425
462.089,51.43615,-2.53254,2.39864,0.87376
462.689,51.49542,-2.60431,2.37573,0.87328
463.289,51.55438,-2.67906,2.34228,0.87279
463.889,51.61334,-2.75205,2.29685,0.87231
464.489,51.67201,-2.82689,2.24784,0.87182
465.089,51.7308,-2.90113,2.18964,0.87134
465.689,51.7894,-2.97228,2.12006,0.87085
466.289,51.84812,-3.04363,2.05596,0.87037
466.889,51.90692,-3.11353,1.96765,0.86988
467.489,51.96567,-3.18017,1.88486,0.86939
468.089,52.0241,-3.24246,1.79812,0.8689
468.689,52.08256,-3.30876,1.7048,0.86842
469.289,52.14091,-3.36572,1.61013,0.86793
469.889,52.19924,-3.42602,1.51324,0.86744
470.489,52.25776,-3.48033,1.40664,0.86695
471.089,52.31615,-3.53411,1.3011,0.86646
471.689,52.3745,-3.58313,1.19579,0.86597
472.289,52.4327,-3.62949,1.08658,0.86548
472.889,52.49077,-3.67066,0.98561,0.86499
473.489,52.5489,-3.70981,0.8851,0.8645
474.089,52.60705,-3.7455,0.78698,0.86401
474.689,52.6653,-3.77607,0.6998,0.86352
475.289,52.72361,-3.80526,0.61832,0.86303
475.889,52.78171,-3.82851,0.54369,0.86254
476.489,52.8399,-3.85214,0.47704,0.86204
477.089,52.8979,-3.87026,0.42058,0.86155
477.689,52.95619,-3.88804,0.36957,0.86106
478.289,53.0141,-3.90172,0.3267,0.86056
478.889,53.0725,-3.9165,0.28493,0.86007
479.489,53.131,-3.92795,0.25271,0.85958
480.089,53.1896,-3.93724,0.22276,0.85908
480.689,53.2486,-3.94566,0.19725,0.85859
481.289,53.30732,-3.95341,0.17482,0.85809
481.889,53.36615,-3.95886,0.15762,0.8576
482.489,53.4249,-3.96291,0.14042,0.8571
483.089,53.4839,-3.96781,0.12764,0.85661
483.689,53.5428,-3.97175,0.11397,0.85611
484.289,53.6016,-3.97453,0.1039,0.85561
484.889,53.66059,-3.97978,0.09644575,0.85512
485.489,53.7195,-3.98105,0.08669327,0.85462
486.089,53.77873,-3.98415,0.08347774,0.85412
486.689,53.838,-3.98461,0.07471578,0.85362
487.289,53.89715,-3.98529,0.07332178,0.85313
487.889,53.95644,-3.98686,0.06608822,0.85263
488.489,54.01559,-3.98818,0.05765605,0.85213
489.089,54.07486,-3.98818,0.05831363,0.85163
489.689,54.1341,-3.98854,0.05577082,0.85113
490.289,54.1934,-3.9895,0.0519917,0.85063
490.889,54.25246,-3.99082,0.05128346,0.85013
491.489,54.3116,-3.99082,0.0498461,0.84963
492.089,54.3705,-3.99082,0.04180283,0.84913
492.689,54.4293,-3.99082,0.04838794,0.84863
493.289,54.4881,-3.98951,0.05571045,0.84813
493.889,54.54701,-3.9895,0.06081186,0.84763
494.489,54.60609,-3.98952,0.05868626,0.84713
495.089,54.6657,-3.99115,0.05414953,0.84662
495.689,54.7248,-3.99113,0.05032803,0.84612
496.289,54.7845,-3.99213,0.04813586,0.84562
496.889,54.84425,-3.99213,0.04521542,0.84512
497.489,54.90407,-3.99213,0.04266235,0.84461
498.089,54.9638,-3.99213,0.04151841,0.84411
498.689,55.02329,-3.99213,0.04036417,0.84361
499.289,55.08279,-3.99213,0.04351836,0.8431
499.889,55.1421,-3.99213,0.04170761,0.8426
500.489,55.20146,-3.99214,0.04145502,0.84209
501.089,55.2608,-3.9918,0.04283646,0.84159
501.689,55.3202,-3.99081,0.0432408,0.84108
502.289,55.37964,-3.99081,0.04350697,0.84058
502.889,55.43909,-3.99081,0.04389648,0.84007
503.489,55.4985,-3.99213,0.04200778,0.83956
504.089,55.558,-3.99213,0.04178589,0.83906
504.689,55.61769,-3.99079,0.04506719,0.83855
505.289,55.67703,-3.99105,0.04467081,0.83804
505.889,55.7368,-3.99114,0.0446864,0.83754
506.489,55.79631,-3.99213,0.04445495,0.83703
507.089,55.8559,-3.99077,0.04708188,0.83652
507.689,55.9156,-3.99081,0.04844525,0.83601
508.289,55.97505,-3.99211,0.0488832,0.8355
508.889,56.03434,-3.99213,0.04627161,0.835
509.489,56.0937,-3.99213,0.05004239,0.83449
510.089,56.1532,-3.99082,0.0503605,0.83398
510.689,56.2127,-3.99082,0.0451542,0.83347
511.289,56.2724,-3.99127,0.04908205,0.83296
511.889,56.3321,-3.9918,0.04696485,0.83245
512.489,56.39161,-3.99184,0.04716742,0.83194
513.089,56.4512,-3.99213,0.04860024,0.83143
513.689,56.51073,-3.99213,0.04624563,0.83092
514.289,56.5703,-3.99213,0.04340206,0.8304
514.889,56.63004,-3.9918,0.04410921,0.82989
515.489,56.68951,-3.99182,0.04223401,0.82938
516.089,56.7491,-3.99115,0.04276007,0.82887
516.689,56.80859,-3.99115,0.04142024,0.82836
517.289,56.8681,-3.99115,0.03859128,0.82784
517.889,56.9277,-3.99115,0.04094016,0.82733
518.489,56.9872,-3.99115,0.03898743,0.82682
519.089,57.0467,-3.99115,0.04035175,0.82631
519.689,57.10641,-3.99115,0.03973316,0.82579
520.289,57.16593,-3.99115,0.04232692,0.82528
520.889,57.2254,-3.99105,0.0420203,0.82476
521.489,57.2849,-3.99247,0.04023086,0.82425
522.089,57.34431,-3.99164,0.03916685,0.82373
522.689,57.4037,-3.99104,0.03972889,0.82322
523.289,57.46317,-3.99104,0.03891146,0.8227
523.889,57.52261,-3.99162,0.0431621,0.82219
524.489,57.58209,-3.99338,0.03979488,0.82167
525.089,57.64142,-3.99207,0.04188067,0.82116
525.689,57.70089,-3.99236,0.04197934,0.82064
526.289,57.7605,-3.99104,0.04542277,0.82012
526.889,57.81997,-3.99104,0.04395909,0.81961
527.489,57.8794,-3.99104,0.04349263,0.81909
528.089,57.9388,-3.99101,0.04336929,0.81857
528.689,57.99814,-3.99236,0.04456861,0.81806
529.289,58.0576,-3.99236,0.04458568,0.81754
529.889,58.117,-3.99236,0.04392723,0.81702
530.489,58.17654,-3.99236,0.04088258,0.8165
531.089,58.23595,-3.99105,0.04092417,0.81598
531.689,58.29554,-3.99103,0.0433358,0.81547
532.289,58.35505,-3.99236,0.04258551,0.81495
532.889,58.4146,-3.99041,0.04202496,0.81443
533.489,58.4739,-3.99038,0.04188115,0.81391
534.089,58.5333,-3.99038,0.0430138,0.81339
534.689,58.59256,-3.99038,0.04436447,0.81287
535.289,58.65195,-3.99038,0.04318563,0.81235
535.889,58.7115,-3.99039,0.044156,0.81183
536.489,58.7711,-3.99169,0.04520301,0.81131
537.089,58.8306,-3.99169,0.04508923,0.81079
537.689,58.8901,-3.9917,0.04708359,0.81027
538.289,58.9496,-3.99346,0.04287625,0.80975
538.889,59.0091,-3.99063,0.04341711,0.80922
539.489,59.06853,-3.99035,0.04362284,0.8087
540.089,59.12786,-3.99058,0.04410885,0.80818
540.689,59.18733,-3.99161,0.04367184,0.80766
541.289,59.2468,-3.99323,0.04450267,0.80714
541.889,59.30633,-3.99193,0.04522151,0.80661
542.489,59.366,-3.99191,0.04432861,0.80609
543.089,59.42581,-3.99191,0.04606224,0.80557
543.689,59.4855,-3.99191,0.04570283,0.80504
544.289,59.54504,-3.99192,0.0457199,0.80452
544.889,59.6047,-3.99189,0.04609856,0.804
545.489,59.66425,-3.99192,0.0471884,0.80347
546.089,59.72399,-3.99059,0.04478955,0.80295
546.689,59.78369,-3.99155,0.04393759,0.80242
547.289,59.8433,-3.99191,0.04568408,0.8019
547.889,59.9029,-3.99192,0.04531055,0.80137
548.489,59.9625,-3.99026,0.04881224,0.80085
549.089,60.0223,-3.99026,0.046349,0.80032
549.689,60.08205,-3.99026,0.04723581,0.7998
550.289,60.1417,-3.99026,0.04777315,0.79927
550.889,60.20136,-3.99026,0.04774766,0.79875
551.489,60.26085,-3.99091,0.04802889,0.79822
552.089,60.32071,-3.99092,0.04681755,0.79769
552.689,60.3805,-3.99092,0.04679652,0.79717
553.289,60.4401,-3.99092,0.04618974,0.79664
553.889,60.4998,-3.98961,0.04481208,0.79611
554.489,60.55944,-3.99092,0.0444434,0.79559
555.089,60.61926,-3.99092,0.04370088,0.79506
555.689,60.67889,-3.99158,0.04338532,0.79453
556.289,60.7385,-3.99158,0.04883254,0.794
556.889,60.7983,-3.99159,0.04522955,0.79348
557.489,60.8581,-3.9906,0.04835993,0.79295
558.089,60.9178,-3.98926,0.04976714,0.79242
558.689,60.97746,-3.98928,0.05174973,0.79189
559.289,61.0372,-3.98928,0.05131419,0.79136
559.889,61.09692,-3.98972,0.05280816,0.79083
560.489,61.1569,-3.99027,0.05151525,0.7903
561.089,61.21683,-3.9905,0.05170722,0.78978
561.689,61.27678,-3.9906,0.0517698,0.78925
562.289,61.33664,-3.9906,0.05426624,0.78872
562.889,61.39631,-3.9906,0.05231832,0.78819
563.489,61.45604,-3.9906,0.05380369,0.78766
564.089,61.5158,-3.9906,0.05623284,0.78713
564.689,61.5757,-3.99061,0.05621502,0.7866
565.289,61.6358,-3.98928,0.05491746,0.78606
565.889,61.69575,-3.98928,0.05358808,0.78553
566.489,61.75555,-3.98935,0.05723879,0.785
567.089,61.81553,-3.98862,0.05489261,0.78447
567.689,61.87551,-3.98862,0.05857912,0.78394
568.289,61.93545,-3.98995,0.06166974,0.78341
568.889,61.9955,-3.98998,0.06090701,0.78288
569.489,62.05556,-3.99134,0.05805026,0.78234
570.089,62.1156,-3.99005,0.06061345,0.78181
570.689,62.17566,-3.98873,0.05934469,0.78128
571.289,62.23562,-3.99013,0.06005265,0.78075
571.889,62.2958,-3.99005,0.06117634,0.78021
572.489,62.3559,-3.98909,0.05968882,0.77968
573.089,62.41594,-3.98777,0.05934638,0.77915
573.689,62.47563,-3.98873,0.06331142,0.77862
574.289,62.5355,-3.98997,0.05971731,0.77808
574.889,62.59547,-3.98873,0.06115066,0.77755
575.489,62.6555,-3.98873,0.06300582,0.77701
576.089,62.71564,-3.98984,0.06380222,0.77648
576.689,62.7755,-3.98874,0.06395436,0.77595
577.289,62.8354,-3.98981,0.0643164,0.77541
577.889,62.89532,-3.99004,0.06510535,0.77488
578.489,62.95527,-3.99093,0.0630801,0.77434
579.089,63.01517,-3.99166,0.06492898,0.77381
579.689,63.0752,-3.99312,0.06700936,0.77327
580.289,63.13511,-3.9913,0.06455642,0.77274
580.889,63.1952,-3.98978,0.06760171,0.7722
581.489,63.255,-3.98895,0.06914938,0.77167
582.089,63.3147,-3.9905,0.07001476,0.77113
582.689,63.3746,-3.99049,0.06732757,0.7706
583.289,63.4344,-3.99048,0.07033774,0.77006
583.889,63.4942,-3.99051,0.0718015,0.76952
584.489,63.5539,-3.98983,0.07307369,0.76899
585.089,63.6137,-3.98885,0.07234095,0.76845
585.689,63.6734,-3.98885,0.07299819,0.76791
586.289,63.73333,-3.98885,0.07386879,0.76738
586.889,63.79315,-3.99013,0.07551653,0.76684
587.489,63.85289,-3.99105,0.07652602,0.7663
588.089,63.9127,-3.99147,0.0771051,0.76577
588.689,63.97223,-3.99145,0.07629635,0.76523
589.289,64.03224,-3.99016,0.0756795,0.76469
589.889,64.09199,-3.99016,0.07912673,0.76415
590.489,64.152,-3.99016,0.08375983,0.76362
591.089,64.21204,-3.98885,0.07951073,0.76308
591.689,64.27197,-3.9889,0.0789547,0.76254
592.289,64.33196,-3.9895,0.07981869,0.762
592.889,64.39186,-3.9895,0.08186852,0.76146
593.489,64.452,-3.9895,0.08209602,0.76092
594.089,64.5121,-3.9895,0.08283921,0.76039
594.689,64.57217,-3.9895,0.08320681,0.75985
595.289,64.63237,-3.9895,0.08200083,0.75931
595.889,64.6925,-3.98983,0.0822063,0.75877
596.489,64.7527,-3.98983,0.08393368,0.75823
597.089,64.81271,-3.98983,0.08350566,0.75769
597.689,64.87252,-3.98983,0.08586089,0.75715
598.289,64.93242,-3.98983,0.08849024,0.75661
598.889,64.99229,-3.98986,0.08528299,0.75607
599.489,65.05226,-3.98872,0.08496399,0.75553
600.089,65.11222,-3.99016,0.08617429,0.75499
600.689,65.1721,-3.98884,0.08816557,0.75445
601.289,65.23217,-3.99016,0.08660114,0.75391
601.889,65.29217,-3.99016,0.08628497,0.75337
602.489,65.35244,-3.99016,0.0889324,0.75283
603.089,65.41234,-3.99016,0.09025535,0.75229
603.689,65.47255,-3.99016,0.0904499,0.75175
604.289,65.53279,-3.99016,0.08635591,0.75121
604.889,65.59307,-3.99,0.08659816,0.75067
605.489,65.6533,-3.98798,0.08860849,0.75012
606.089,65.71334,-3.98942,0.09116132,0.74958
606.689,65.7735,-3.99071,0.09296496,0.74904
607.289,65.83376,-3.99064,0.09110947,0.7485
607.889,65.8942,-3.99182,0.09187072,0.74796
608.489,65.9545,-3.99071,0.09148398,0.74742
609.089,66.01486,-3.99071,0.09216347,0.74687
609.689,66.07519,-3.99071,0.09229262,0.74633
610.289,66.1355,-3.99071,0.09324686,0.74579
610.889,66.1957,-3.99071,0.09209498,0.74525
611.489,66.25607,-3.99071,0.08987152,0.7447
612.089,66.31634,-3.99071,0.09013982,0.74416
612.689,66.3767,-3.99071,0.09412689,0.74362
613.289,66.43695,-3.99071,0.09662168,0.74308
613.889,66.497,-3.99071,0.09500433,0.74253
614.489,66.55717,-3.99079,0.09194728,0.74199
615.089,66.6172,-3.98852,0.09041297,0.74145
615.689,66.6773,-3.99021,0.09430037,0.7409
616.289,66.73742,-3.99136,0.09317932,0.74036
616.889,66.79773,-3.99136,0.09643772,0.73982
617.489,66.8583,-3.99136,0.09764568,0.73927
618.089,66.91829,-3.99136,0.09448493,0.73873
618.689,66.9784,-3.99136,0.09658227,0.73818
619.289,67.03822,-3.99004,0.09592635,0.73764
619.889,67.09849,-3.99004,0.0964692,0.7371
620.489,67.15889,-3.98993,0.09873374,0.73655
621.089,67.21945,-3.99044,0.09577864,0.73601
621.689,67.27962,-3.99004,0.09684985,0.73546
622.289,67.3398,-3.99004,0.09326812,0.73492
622.889,67.39989,-3.99103,0.09733055,0.73437
623.489,67.45979,-3.99235,0.09766155,0.73383
624.089,67.5197,-3.99103,0.09693581,0.73329
624.689,67.5796,-3.98972,0.09937619,0.73274
625.289,67.63968,-3.98972,0.10318,0.7322
625.889,67.69986,-3.98972,0.1014,0.73165
626.489,67.75998,-3.99005,0.10382,0.73111
627.089,67.82019,-3.99202,0.10312,0.73056
627.689,67.88031,-3.99202,0.10347,0.73001
628.289,67.9404,-3.99069,0.10465,0.72947
628.889,68.00056,-3.99071,0.10713,0.72892
629.489,68.0609,-3.99071,0.10529,0.72838
630.089,68.12114,-3.99071,0.10869,0.72783
630.689,68.1815,-3.99071,0.10767,0.72729
631.289,68.2419,-3.99071,0.10271,0.72674
631.889,68.30212,-3.99071,0.10962,0.72619
632.489,68.36233,-3.98738,0.10485,0.72565
633.089,68.42262,-3.98812,0.10535,0.7251
633.689,68.48298,-3.99266,0.10561,0.72456
634.289,68.54326,-3.99126,0.11033,0.72401
634.889,68.60361,-3.99126,0.1076,0.72346
635.489,68.66412,-3.99126,0.10776,0.72292
636.089,68.72462,-3.99126,0.10554,0.72237
636.689,68.785,-3.98982,0.10453,0.72182
637.289,68.84536,-3.99082,0.10597,0.72128
637.889,68.90575,-3.99082,0.10758,0.72073
638.489,68.96621,-3.99082,0.10619,0.72018
639.089,69.0265,-3.99027,0.10683,0.71963
639.689,69.08694,-3.99016,0.107,0.71909
640.289,69.1472,-3.99016,0.103,0.71854
640.889,69.20743,-3.99049,0.10837,0.71799
641.489,69.26771,-3.98983,0.10648,0.71745
642.089,69.3279,-3.98983,0.10744,0.7169
642.689,69.3879,-3.98983,0.10808,0.71635
643.289,69.4482,-3.98983,0.10995,0.7158
643.889,69.50848,-3.98983,0.1105,0.71526
644.489,69.56877,-3.98983,0.10917,0.71471
645.089,69.6289,-3.99082,0.1124,0.71416
645.689,69.68893,-3.99082,0.10968,0.71361
646.289,69.7491,-3.9895,0.11084,0.71306
646.889,69.80923,-3.9895,0.11133,0.71252
647.489,69.8695,-3.99085,0.11206,0.71197
648.089,69.9297,-3.98951,0.1102,0.71142
648.689,69.9894,-3.99016,0.11106,0.71087
648.789,69.99979,-3.99016,0.1103,0.71078