File: 01_Data/Polyester_Microfiber_Sheet/Cone/Polyester_Microfiber_Sheet_Cone_HF75Scan_220523_R3.csv
Names,Time,Stack TC,Smoke TC,Exh Press,Smoke Comp,Smoke Meas,CO Meter,CO2 Meter,O2 Meter,Sample Mass,Ext Coeff,Start Test,Flame Verif
Chan Gain,,500,500,1,1,1,1,1,1,1,1,1.0,1.0
Offset,,0,0,0.135828,0,0,0,0,0,0,0,0.0,0.0
Gain,,1,1,25.011,13.8491,15.2622,1,1,1,1.00087,1.03118,1.0,1.0
Units,sec,C,C,Pa,%,%,%,%,%,g,/m,,
Baseline,,51.1382,53.1213,127.48,105.004,113.429,0.000261016,0.0428463,20.9957,-451.201,-0.697982,,
3,0.5,51.0801,54.129,128.227,105.459,113.184,2.04036e-06,0.0448885,20.9962,583.228,-0.639435,0.0,0.0
6,1.25,50.4622,52.8341,129.4,105.46,114.354,3.54011e-05,0.0453884,20.9956,583.378,-0.732422,0.0,0.0
9,2,50.52,52.4754,127.343,105.45,112.888,6.74599e-05,0.0459125,20.9952,583.078,-0.616528,0.0,0.0
12,2.75,50.5311,52.5087,124.785,105.447,113.934,0.00010804,0.0465404,20.9949,583.248,-0.700254,0.0,0.0
15,3.5,50.653,52.7939,127.163,105.44,113.371,0.000167051,0.0471029,20.9937,583.118,-0.656016,0.0,0.0
18,4.25,50.803,52.7208,124.967,105.463,114.519,0.000216129,0.0478443,20.9929,583.108,-0.745202,0.0,0.0
21,5,50.4655,52.6618,124.087,105.449,112.458,0.000246851,0.0483848,20.9925,583.158,-0.582049,0.0,0.0
24,5.75,50.5758,52.3972,125.77,105.43,113.141,0.000287258,0.0489152,20.992,583.128,-0.63851,0.0,0.0
27,6.5,50.9344,51.8629,130.71,105.43,113.581,0.000332474,0.0493163,20.9917,583.208,-0.673668,0.0,0.0
30,7.25,50.3697,52.4636,127.857,105.446,113.888,0.000372154,0.0496333,20.9914,583.168,-0.696664,0.0,0.0
33,8,50.4182,52.7468,126.74,105.436,113.611,0.000411996,0.049768,20.9908,583.158,-0.675461,0.0,0.0
36,8.75,50.4832,52.4103,128.904,105.427,113.416,0.000446333,0.0498553,20.9901,583.168,-0.660707,0.0,0.0
39,9.5,50.8053,53.2121,127.336,105.42,113.417,0.000472456,0.0498898,20.9903,583.148,-0.661435,0.0,0.0
42,10.25,50.3863,52.5739,125.862,105.422,113.495,0.00048977,0.0498329,20.9904,583.148,-0.667457,0.0,0.0
45,11,50.1282,52.3592,126.259,105.421,113.901,0.000495114,0.0497565,20.9905,583.138,-0.69984,0.0,0.0
48,11.75,50.3467,52.8658,126.054,105.392,113.104,0.000495908,0.0495059,20.9905,583.138,-0.638869,0.0,0.0
51,12.5,50.2605,52.8465,123.849,105.39,112.757,0.000472278,0.049214,20.9906,583.158,-0.61111,0.0,0.0
54,13.25,50.5747,52.484,128.246,105.386,112.972,0.000429126,0.0489546,20.9906,583.168,-0.628718,0.0,0.0
57,14,50.3634,52.8616,125.227,105.391,112.628,0.000397667,0.0487265,20.9906,583.158,-0.600793,0.0,0.0
60,14.75,50.611,52.6827,126.919,105.362,112.209,0.000365043,0.0485329,20.9907,583.168,-0.569457,0.0,0.0
63,15.5,50.1496,52.6111,126.408,105.357,113.346,0.0003569,0.0483514,20.9907,583.158,-0.66112,0.0,0.0
66,16.25,50.5778,52.5032,127.288,105.347,112.714,0.000384774,0.0481699,20.9907,583.148,-0.61141,0.0,0.0
69,17,50.8099,52.8304,126.25,105.351,111.723,0.000569144,0.0488005,20.9898,583.148,-0.531265,0.0,0.0
72,17.75,50.7722,52.5665,127.374,105.33,112.072,0.000913093,0.0505648,20.9875,583.088,-0.561205,0.0,0.0
75,18.5,50.1867,52.8443,126.284,105.321,111.436,0.00140256,0.0627219,20.9715,583.048,-0.510434,0.0,1.0
78,19.25,51.017,52.9062,124.167,105.299,106.842,0.00231343,0.0783334,20.9444,582.987,-0.131526,0.0,1.0
81,20,50.6576,53.1909,124.554,105.309,100.438,0.00355326,0.101255,20.9042,582.937,0.428399,0.0,1.0
84,20.75,51.4027,52.9226,120.124,105.28,95.5605,0.00470256,0.140076,20.8512,582.897,0.876185,0.0,1.0
87,21.5,51.5425,53.1723,117.483,105.265,89.3924,0.00692094,0.191117,20.797,582.847,1.47843,0.0,1.0
90,22.25,51.9669,53.6258,118.591,105.259,86.337,0.00985401,0.269386,20.7311,582.677,1.79254,0.0,1.0
93,23,52.7279,53.679,110.109,105.255,80.9206,0.0132359,0.357729,20.6443,582.547,2.37819,0.0,1.0
96,23.75,52.0936,52.9564,107.6,105.237,74.5075,0.0176358,0.486742,20.5324,582.357,3.12351,0.0,1.0
99,24.5,53.318,53.2408,94.9615,105.201,63.1856,0.0216557,0.608335,20.3959,582.067,4.61135,0.0,0.0
102,25.25,54.762,54.1526,87.9371,105.196,58.031,0.0259755,0.77274,20.246,581.746,5.38064,0.0,0.0
105,26,56.7133,55.3034,92.7831,105.185,59.6039,0.0291246,0.941662,20.0505,581.416,5.13786,0.0,0.0
108,26.75,59.7801,57.2326,89.4247,105.167,59.9276,0.0331646,1.09349,19.8748,581.196,5.0873,0.0,0.0
111,27.5,62.2797,59.556,93.2739,105.145,60.8494,0.0362194,1.21621,19.7467,580.966,4.94734,0.0,0.0
114,28.25,64.7771,60.9506,94.4623,105.123,64.474,0.0384931,1.30568,19.6533,580.766,4.42208,0.0,0.0
117,29,67.0618,63.1085,101.244,105.116,64.4348,0.0393962,1.3468,19.5853,580.505,4.42696,0.0,0.0
120,29.75,69.367,64.9746,100.652,105.092,65.3659,0.0388091,1.34867,19.559,580.335,4.29515,0.0,0.0
123,30.5,71.1846,66.956,103.209,105.067,66.6048,0.0373883,1.31954,19.5798,580.145,4.12312,0.0,0.0
126,31.25,72.0523,67.978,110.429,105.051,72.6355,0.0353282,1.24918,19.6646,580.035,3.3377,0.0,0.0
129,32,72.8543,69.3912,106.611,105.035,77.6262,0.032285,1.17695,19.7765,579.935,2.73524,0.0,0.0
132,32.75,73.8424,70.2334,112.228,105.015,83.642,0.0291147,1.06769,19.8794,579.875,2.0584,0.0,0.0
135,33.5,73.538,70.9207,112.112,105,89.0966,0.0263977,0.960627,19.997,579.795,1.48564,0.0,0.0
138,34.25,73.9016,71.4227,118.046,104.955,94.7137,0.0231934,0.859571,20.107,579.755,0.928727,0.0,0.0
141,35,73.7965,71.6981,117.425,104.942,98.6825,0.0208575,0.766542,20.2069,579.695,0.556292,0.0,0.0
144,35.75,73.4823,71.7803,117.074,104.941,102.116,0.0182243,0.676363,20.296,579.665,0.2468,0.0,0.0
147,36.5,73.1275,71.7734,119.317,104.901,104.44,0.0157178,0.597123,20.3823,579.665,0.0398085,0.0,0.0
150,37.25,73.1326,71.8049,118.269,104.88,106.393,0.0135651,0.533603,20.4507,579.585,-0.129595,0.0,0.0
153,38,72.8435,71.9637,122.838,104.871,107.527,0.0111428,0.475918,20.526,579.575,-0.226238,0.0,0.0
156,38.75,72.4747,71.849,118.641,104.842,108.03,0.0101221,0.429015,20.5617,579.565,-0.270971,0.0,0.0
159,39.5,72.1908,71.7663,118.384,104.839,109.077,0.00884173,0.384956,20.6066,579.525,-0.358434,0.0,0.0
162,40.25,71.4013,71.7523,119.635,104.792,110.206,0.00780653,0.348348,20.6457,579.494,-0.455703,0.0,0.0
165,41,71.4959,71.7163,120.959,104.78,110.003,0.00693535,0.310007,20.6804,579.464,-0.440005,0.0,0.0
168,41.75,71.0126,71.8691,120.701,104.765,110.009,0.0062691,0.293354,20.708,579.454,-0.441817,0.0,0.0
171,42.5,70.7593,71.1692,122.356,104.742,110.806,0.00570674,0.271582,20.7322,579.404,-0.509076,0.0,0.0
174,43.25,70.2248,70.9389,123.101,104.724,110.629,0.0052485,0.253642,20.7528,579.394,-0.496187,0.0,0.0
177,44,70.1963,71.0148,124.039,104.6875,111.575,0.00488777,0.238874,20.7701,579.394,-0.576381,0.0,0.0
180,44.75,69.3263,70.9313,125.044,104.684,110.756,0.00461951,0.226343,20.7843,579.364,-0.510007,0.0,0.0
183,45.5,69.7886,70.4382,123.032,104.668,111.571,0.00443565,0.216456,20.7968,579.344,-0.57772,0.0,0.0
186,46.25,69.1102,70.3273,122.904,104.641,111.304,0.00432161,0.206975,20.8078,579.334,-0.558359,0.0,0.0
189,47,68.4052,70.1826,119.266,104.629,111.143,0.00426937,0.198753,20.8174,579.324,-0.546312,0.0,0.0
192,47.75,68.5091,70.0925,124.101,104.631,111.442,0.00424445,0.192201,20.8244,579.314,-0.570395,0.0,0.0
195,48.5,68.928,69.7719,121.314,104.684,111.405,0.00426214,0.185583,20.832,579.304,-0.562879,0.0,0.0
198,49.25,67.8538,69.8537,123.078,104.701,112.765,0.00429032,0.179805,20.838,579.274,-0.671177,0.0,0.0
201,50,67.5668,69.408,128.743,104.735,111.935,0.00432778,0.174808,20.8429,579.264,-0.601395,0.0,0.0
204,50.75,66.9303,69.813,125.782,104.759,112.037,0.00438399,0.170515,20.8471,579.234,-0.607518,0.0,0.0
207,51.5,66.4286,69.4956,127.118,104.803,111.725,0.00444264,0.167387,20.8509,579.204,-0.578531,0.0,0.0
210,52.25,66.398,69.3871,129.421,104.829,112.609,0.00449158,0.164287,20.8544,579.174,-0.647597,0.0,0.0
213,53,66.224,69.2986,124.335,104.844,112.325,0.0045286,0.161679,20.8583,579.154,-0.623434,0.0,0.0
216,53.75,66.3324,68.7806,124.563,104.878,111.922,0.0045527,0.159122,20.8615,579.144,-0.587976,0.0,0.0
219,54.5,65.8201,68.7218,123.651,104.905,113.207,0.00456916,0.157009,20.8645,579.144,-0.688946,0.0,0.0
222,55.25,65.7387,68.889,125.65,104.928,113.369,0.00458116,0.154742,20.8675,579.114,-0.699809,0.0,0.0
225,56,64.569,68.0785,126.045,104.944,113.408,0.0045899,0.152574,20.8706,579.114,-0.701618,0.0,0.0
228,56.75,65.0528,68.4629,123.288,104.976,113.741,0.00460619,0.149954,20.8732,579.084,-0.725373,0.0,0.0
231,57.5,64.9208,68.0059,123.987,105.019,113.335,0.00462946,0.147488,20.8757,579.094,-0.689265,0.0,0.0
234,58.25,64.6508,67.8645,124.171,105.018,112.689,0.0046587,0.145454,20.878,579.074,-0.637668,0.0,0.0
237,59,64.5662,68.4876,121.227,105.039,113.246,0.00471538,0.143442,20.8798,579.064,-0.680452,0.0,0.0
240,59.75,64.2429,67.7603,123.772,105.051,114.236,0.00478772,0.141774,20.8818,579.034,-0.758183,0.0,0.0
243,60.5,64.3749,67.6876,129.243,105.072,113.638,0.00485368,0.140212,20.8837,579.004,-0.708884,0.0,0.0
246,61.25,64.051,67.6938,123.171,105.094,114.009,0.0049301,0.138587,20.8855,579.004,-0.73653,0.0,0.0
249,62,64.1344,67.3017,124.469,105.131,114.052,0.00500941,0.137215,20.8872,578.994,-0.736765,0.0,0.0
252,62.75,63.7799,67.4187,124.292,105.16,114.343,0.0050773,0.135896,20.8889,578.984,-0.757277,0.0,0.0
255,63.5,63.2814,67.0993,122.231,105.185,112.842,0.00516906,0.134206,20.8907,578.954,-0.635628,0.0,0.0
258,64.25,63.8919,66.97,125.078,105.212,113.12,0.00526708,0.132578,20.8929,578.944,-0.655529,0.0,0.0
261,65,63.7986,66.6119,124.044,105.238,113.857,0.00536093,0.131222,20.8945,578.944,-0.712042,0.0,0.0
264,65.75,63.1572,67.3035,123.248,105.242,114.151,0.0054114,0.129936,20.8953,578.934,-0.735071,0.0,0.0
267,66.5,63.357,66.561,119.884,105.278,113.376,0.00546969,0.128872,20.8962,578.934,-0.670286,0.0,0.0
270,67.25,62.5169,66.3054,126.534,105.311,113.958,0.00548201,0.127753,20.8973,578.874,-0.713786,0.0,0.0
273,68,62.6784,66.8435,123.599,105.318,113.682,0.00547855,0.126827,20.8985,578.864,-0.691255,0.0,0.0
276,68.75,62.5969,65.9141,125.699,105.333,113.59,0.00547138,0.126219,20.8998,578.834,-0.68268,0.0,0.0
279,69.5,62.1241,66.0619,126.29,105.354,114.294,0.00546727,0.125207,20.9008,578.814,-0.736809,0.0,0.0
282,70.25,61.7682,65.8453,120.819,105.381,113.9,0.00547214,0.12418,20.9015,578.794,-0.703211,0.0,0.0
285,71,61.5049,65.8903,125.386,105.378,114.537,0.00548912,0.123165,20.902,578.774,-0.753889,0.0,0.0
288,71.75,62.0108,65.9844,123.848,105.379,114.155,0.00550087,0.122043,20.903,578.754,-0.723567,0.0,0.0
291,72.5,61.6233,65.8068,124.967,105.398,113.901,0.00550837,0.121159,20.9042,578.764,-0.701835,0.0,0.0
294,73.25,61.107,65.8646,123.478,105.406,114.388,0.00550761,0.1204,20.9053,578.774,-0.739644,0.0,0.0
297,74,61.086,65.2119,122.968,105.396,113.482,0.00550571,0.119847,20.9062,578.744,-0.668628,0.0,0.0
300,74.75,60.7058,65.7222,123.735,105.377,114.034,0.00550657,0.119386,20.9068,578.754,-0.714149,0.0,0.0
303,75.5,61.7027,65.4428,124.358,105.377,113.961,0.00551962,0.118936,20.9072,578.724,-0.708419,0.0,0.0
306,76.25,61.0629,65.3744,126.29,105.384,113.596,0.00553909,0.118457,20.9078,578.734,-0.678735,0.0,0.0
309,77,60.8728,64.8928,123.898,105.365,113.285,0.00555753,0.117806,20.9086,578.734,-0.655595,0.0,0.0
312,77.75,60.7829,64.9489,124.951,105.349,113.965,0.00559463,0.117078,20.9094,578.694,-0.711109,0.0,0.0
315,78.5,60.24,64.2982,120.808,105.339,114.08,0.00564095,0.116337,20.9104,578.684,-0.721107,0.0,0.0
318,79.25,59.7292,64.2264,123.67,105.328,114.53,0.00569041,0.115619,20.9111,578.694,-0.757619,0.0,0.0
321,80,60.9469,65.0186,126.896,105.299,113.566,0.00575314,0.115014,20.9116,578.684,-0.683693,0.0,0.0
324,80.75,60.2062,64.3441,122.435,105.274,113.567,0.00580871,0.114434,20.912,578.674,-0.685872,0.0,0.0
327,81.5,60.2769,64.0905,123.887,105.26,113.368,0.00586606,0.113913,20.9123,578.654,-0.671216,0.0,0.0
330,82.25,60.4165,64.5808,124.598,105.246,115.007,0.00593278,0.113439,20.9134,578.674,-0.802217,0.0,0.0
333,83,59.8083,63.9575,125.413,105.226,114.058,0.00599016,0.113005,20.9145,578.664,-0.729066,0.0,0.0
336,83.75,59.959,63.9045,121.194,105.212,114.828,0.00603571,0.112409,20.9154,578.674,-0.791155,0.0,0.0
339,84.5,59.583,63.8419,126.171,105.174,113.631,0.00607017,0.111775,20.9164,578.654,-0.699564,0.0,0.0
342,85.25,59.1925,63.8164,124.289,105.15,114.48,0.00609517,0.110972,20.918,578.594,-0.768976,0.0,0.0
345,86,59.4409,63.3287,125.377,105.129,114.353,0.00611226,0.110006,20.9192,578.614,-0.760705,0.0,0.0
348,86.75,59.6478,64.0516,124.563,105.093,113.634,0.00611939,0.109009,20.92,578.604,-0.706768,0.0,0.0
351,87.5,58.8493,63.791,127.12,105.061,113.438,0.00612064,0.108156,20.9206,578.614,-0.693948,0.0,0.0
354,88.25,58.9076,62.8835,127.603,105.045,113.08,0.00611481,0.10731,20.9217,578.614,-0.666762,0.0,0.0
357,89,58.9933,63.7034,127.985,105.019,113.09,0.00611234,0.10643,20.9225,578.584,-0.669766,0.0,0.0
360,89.75,58.8496,63.541,126.043,104.972,113.265,0.00612178,0.105718,20.9233,578.554,-0.687804,0.0,0.0
363,90.5,58.8065,63.3387,123.722,104.946,113.937,0.00613344,0.10464,20.9243,578.564,-0.743541,0.0,0.0
366,91.25,59.2551,63.4087,126.8,104.925,112.343,0.00614335,0.103491,20.9248,578.564,-0.617859,0.0,0.0
369,92,58.9456,63.066,125.925,104.942,113.679,0.00615985,0.102381,20.926,578.544,-0.723396,0.0,0.0
372,92.75,58.9318,63.2795,124.101,104.941,113.9,0.00615408,0.101371,20.9273,578.534,-0.741093,0.0,0.0
375,93.5,58.3195,62.9136,125.351,104.943,113.655,0.0061324,0.100258,20.9284,578.504,-0.72136,0.0,0.0
378,94.25,58.9658,63.1556,124.794,104.957,112.58,0.00610915,0.0995764,20.9297,578.474,-0.634232,0.0,0.0
381,95,58.1237,62.7375,121.846,104.998,114.03,0.00609154,0.098441,20.9308,578.454,-0.746417,0.0,0.0
384,95.75,58.0996,62.3448,126.329,104.983,112.654,0.00607758,0.0974648,20.9321,578.454,-0.637849,0.0,0.0
387,96.5,58.2413,62.7014,126.112,104.992,113.602,0.00607808,0.0963361,20.9335,578.444,-0.712982,0.0,0.0
390,97.25,58.8301,62.7975,128.491,105.002,114.611,0.00609467,0.0955133,20.9349,578.444,-0.792118,0.0,0.0
393,98,57.571,62.2749,128.055,105.035,113.604,0.00611368,0.0942985,20.9363,578.424,-0.709343,0.0,0.0
396,98.75,58.0315,61.998,124.386,105.038,114.11,0.00615627,0.093135,20.9378,578.404,-0.749348,0.0,0.0
399,99.5,57.8097,62.1324,126.168,105.044,113.556,0.00621008,0.0920148,20.939,578.404,-0.704796,0.0,0.0
402,100.25,57.7761,62.1785,128.234,105.058,114.015,0.0062673,0.0909357,20.94,578.424,-0.740102,0.0,0.0
405,101,57.1449,61.9181,125.077,105.078,113.958,0.00630366,0.0899547,20.9411,578.363,-0.733809,0.0,0.0
408,101.75,57.0169,61.6532,126.976,105.106,113.207,0.00632163,0.0891567,20.9421,578.394,-0.671652,0.0,0.0
411,102.5,57.0654,62.2506,122.672,105.103,114.101,0.0063201,0.0882584,20.9428,578.383,-0.743007,0.0,0.0
414,103.25,57.6459,61.3625,125.031,105.13,113.647,0.00630474,0.0873401,20.9438,578.363,-0.704569,0.0,0.0
417,104,57.2913,62.0906,125.028,105.158,114.331,0.0062798,0.0864489,20.9449,578.353,-0.756501,0.0,0.0
420,104.75,56.8907,61.2999,124.795,105.161,113.823,0.00625576,0.0856122,20.9461,578.323,-0.715917,0.0,0.0
423,105.5,57.3992,61.4147,123.772,105.173,113.961,0.00622044,0.0847945,20.9474,578.323,-0.725959,0.0,0.0
426,106.25,57.3677,61.0822,128.494,105.187,114.191,0.00619403,0.0839786,20.9486,578.333,-0.742967,0.0,0.0
429,107,57.3636,61.6492,126.283,105.2,114.626,0.00617365,0.0831596,20.9494,578.313,-0.776199,0.0,0.0
432,107.75,56.9328,60.7842,126.795,105.22,114.392,0.00615702,0.0821752,20.95,578.344,-0.756021,0.0,0.0
435,108.5,57.3737,61.3421,124.546,105.217,113.482,0.00613241,0.0812925,20.9512,578.323,-0.684058,0.0,0.0
438,109.25,56.9032,60.7986,128.398,105.224,114.049,0.006098,0.0801167,20.9532,578.293,-0.72851,0.0,0.0
441,110,56.97,61.2522,124.061,105.23,114.109,0.00605382,0.0790662,20.9547,578.313,-0.732729,0.0,0.0
444,110.75,56.5145,61.07,127.173,105.281,114.596,0.00598251,0.078218,20.9557,578.313,-0.766871,0.0,0.0
447,111.5,56.4972,60.7925,129.377,105.259,114.515,0.00593052,0.0774027,20.9565,578.243,-0.76236,0.0,0.0
450,112.25,56.4671,60.7168,127.753,105.272,114.09,0.00583578,0.0766289,20.9575,578.273,-0.727618,0.0,0.0
453,113,55.8357,60.8417,125.965,105.287,113.383,0.00574432,0.0758721,20.9585,578.263,-0.67008,0.0,0.0
456,113.75,56.3375,60.7975,123.208,105.319,113.793,0.00566809,0.0751218,20.9591,578.273,-0.699999,0.0,0.0
459,114.5,56.5427,60.627,124.981,105.312,113.246,0.00560898,0.0740832,20.9601,578.233,-0.657007,0.0,0.0
462,115.25,56.1845,60.2843,124.396,105.307,113.757,0.00557832,0.073326,20.9612,578.243,-0.698163,0.0,0.0
465,116,56.0475,60.4876,125.204,105.334,112.818,0.00556717,0.0722042,20.9623,578.213,-0.620866,0.0,0.0
468,116.75,55.8901,60.5415,126.193,105.347,113.403,0.00556912,0.0711111,20.9634,578.213,-0.66656,0.0,0.0
471,117.5,56.1115,60.309,126.779,105.337,114.33,0.00556138,0.0700376,20.9646,578.153,-0.741063,0.0,0.0
474,118.25,56.0055,60.2759,125.402,105.35,114.124,0.00554005,0.0689826,20.9658,578.163,-0.723671,0.0,0.0
477,119,55.6232,60.0512,124.838,105.353,114.209,0.00549179,0.0678605,20.9668,578.173,-0.730098,0.0,0.0
480,119.75,56.3462,60.2625,127.605,105.367,114.275,0.00540067,0.0670425,20.9676,578.203,-0.734137,0.0,0.0
483,120.5,56.0137,59.9014,125.404,105.368,113.25,0.00526874,0.0661576,20.9681,578.173,-0.652552,0.0,0.0
486,121.25,55.6794,59.6019,124.067,105.369,113.316,0.00515429,0.0653895,20.9685,578.143,-0.657725,0.0,0.0
489,122,55.7074,59.5294,123.229,105.365,112.984,0.00502852,0.0646337,20.9688,578.133,-0.631502,0.0,0.0
492,122.75,55.3305,59.5539,125.227,105.377,114.25,0.00491788,0.0640176,20.9699,578.183,-0.731274,0.0,0.0
495,123.5,55.6572,59.3921,127.782,105.382,114.544,0.00484465,0.0634573,20.971,578.163,-0.754115,0.0,0.0
498,124.25,54.8417,59.2426,128.462,105.36,113.019,0.00480618,0.0628726,20.9719,578.163,-0.634807,0.0,0.0
501,125,54.91,59.1969,125.225,105.363,113.668,0.00479821,0.0623365,20.9725,578.113,-0.68626,0.0,0.0
504,125.75,55.1919,59.3345,124.503,105.364,113.824,0.00480023,0.0618989,20.9729,578.173,-0.698594,0.0,0.0
507,126.5,54.8991,58.9421,127.681,105.356,114.22,0.0048151,0.0614429,20.9733,578.123,-0.730728,0.0,0.0
510,127.25,54.7614,58.8197,127.608,105.345,113.934,0.0047941,0.0610145,20.974,578.083,-0.708996,0.0,0.0
513,128,55.0151,59.0268,127.711,105.352,113.359,0.00473173,0.0606612,20.9746,578.103,-0.662558,0.0,0.0
516,128.75,55.4615,59.3478,128.501,105.356,113.696,0.00466619,0.060208,20.9751,578.053,-0.689174,0.0,0.0
519,129.5,54.9689,58.889,128.027,105.357,113.982,0.00453902,0.0598228,20.9755,578.083,-0.711751,0.0,0.0
522,130.25,54.6465,58.5808,126.971,105.328,113.425,0.0044253,0.0595114,20.9758,578.083,-0.669941,0.0,0.0
525,131,54.559,58.7924,126.582,105.338,112.649,0.00433215,0.059272,20.976,578.103,-0.60701,0.0,0.0
528,131.75,54.6693,59.1137,125.74,105.331,114.422,0.00426202,0.059125,20.9761,578.093,-0.748827,0.0,0.0
531,132.5,54.9009,59.0741,127.489,105.335,113.305,0.00422065,0.0589861,20.9762,578.083,-0.659771,0.0,0.0
534,133.25,55.1457,59.0018,125.623,105.312,113.073,0.00420717,0.0588109,20.9763,578.103,-0.643231,0.0,0.0
537,134,54.4499,58.4514,126.685,105.285,113.309,0.00421217,0.0585854,20.9763,578.073,-0.66439,0.0,0.0
540,134.75,54.3753,58.6003,127.691,105.265,113.458,0.00422091,0.0583777,20.9764,578.023,-0.677987,0.0,0.0
543,135.5,54.5685,58.2561,123.323,105.276,113.521,0.0042196,0.0581522,20.9764,578.003,-0.682091,0.0,0.0
546,136.25,54.6635,58.2088,125.456,105.208,112.472,0.0042064,0.0579663,20.9764,577.993,-0.603973,0.0,0.0
549,137,54.4887,58.252,124.248,105.156,112.834,0.00417331,0.0577937,20.9767,577.963,-0.637466,0.0,0.0
552,137.75,54.5351,57.9641,124.911,105.126,114.166,0.00412553,0.0576093,20.9772,577.933,-0.746173,0.0,0.0
555,138.5,54.6225,58.23,125.014,105.135,113.426,0.00406736,0.0573241,20.9777,577.973,-0.686653,0.0,0.0
558,139.25,54.4648,58.3864,127.817,105.097,113.073,0.00400223,0.0570303,20.978,577.933,-0.661728,0.0,0.0
561,140,54.2126,57.8835,126.698,105.084,114.553,0.0039159,0.0567791,20.9782,577.923,-0.780462,0.0,0.0
564,140.75,54.505,57.807,124.279,105.054,113.104,0.00383091,0.0566938,20.9783,577.893,-0.667788,0.0,0.0
567,141.5,54.3516,57.7233,124.583,105.053,113.939,0.00373125,0.0566531,20.9788,577.943,-0.734478,0.0,0.0
570,142.25,53.5807,57.9932,127.665,105.028,113.519,0.00365245,0.0566605,20.9792,577.983,-0.703173,0.0,0.0
573,143,53.8698,57.1538,124.912,105.012,113.467,0.00359885,0.0566659,20.9794,578.023,-0.700472,0.0,0.0
576,143.75,54.0615,57.4159,127.179,104.997,113.136,0.00357086,0.0566698,20.9796,577.953,-0.675309,0.0,0.0
579,144.5,53.7057,57.7036,128.802,104.994,113.419,0.00359783,0.0566438,20.9797,577.943,-0.698213,0.0,0.0
582,145.25,53.9072,57.5568,128.813,104.992,113.542,0.00365079,0.0565756,20.9798,577.913,-0.708123,0.0,0.0
585,146,54.0275,57.5287,128.937,104.966,113.182,0.00370359,0.0564086,20.9801,577.903,-0.681689,0.0,0.0
588,146.75,53.7874,57.5513,130.239,104.95,113.798,0.00374793,0.056274,20.9804,577.903,-0.732077,0.0,0.0
591,147.5,53.392,57.5033,127.656,104.949,113.658,0.00379025,0.0561704,20.9805,577.893,-0.721109,0.0,0.0
594,148.25,53.9644,57.3432,129.106,104.936,113.56,0.0037859,0.0560167,20.9806,577.883,-0.714451,0.0,0.0
597,149,54.2019,57.1239,128.257,104.927,113.879,0.00375438,0.0558686,20.9807,577.873,-0.740594,0.0,0.0
600,149.75,53.5135,57.1953,126.095,104.926,113.505,0.00370893,0.055699,20.9808,577.883,-0.71091,0.0,0.0
603,150.5,53.9852,57.0114,122.889,104.922,114.27,0.00365805,0.0555617,20.9815,577.853,-0.772018,0.0,0.0
606,151.25,53.5281,57.6702,124.092,104.923,114.281,0.00358935,0.0554342,20.9819,577.853,-0.772829,0.0,0.0
609,152,53.6922,56.9396,123.691,104.908,113.153,0.00351219,0.0553042,20.9823,577.853,-0.684408,0.0,0.0
612,152.75,53.7089,57.2833,124.975,104.895,114.007,0.0034444,0.0550532,20.9826,577.863,-0.753531,0.0,0.0
615,153.5,53.9367,57.2826,123.742,104.893,114.004,0.00337284,0.0548343,20.9828,577.853,-0.753419,0.0,0.0
618,154.25,54.1133,57.3114,125.057,104.927,113.237,0.00332965,0.054613,20.9828,577.833,-0.689431,0.0,0.0
621,155,53.1493,57.014,125.957,104.96,113.944,0.00327107,0.0543737,20.983,577.863,-0.742893,0.0,0.0
624,155.75,53.5314,57.2144,124.032,104.979,113.372,0.0032296,0.0541718,20.983,577.823,-0.695735,0.0,0.0
627,156.5,52.7743,56.6625,123.877,104.995,113.879,0.00319665,0.054013,20.9828,577.853,-0.734692,0.0,0.0
630,157.25,51.9496,54.9859,124.843,105.027,112.596,0.0031671,0.053903,20.9827,577.833,-0.629497,0.0,0.0
633,158,51.9595,54.9646,125.62,105.051,114.48,0.00312628,0.0537389,20.9831,577.853,-0.777451,0.0,0.0
636,158.75,52.0929,55.1792,126.224,105.052,113.6,0.00308424,0.0536182,20.9835,577.823,-0.707627,0.0,0.0
639,159.5,52.2641,55.2863,122.223,105.073,113.489,0.00304835,0.0535106,20.9838,577.823,-0.696977,0.0,0.0
642,160.25,51.9823,55.2761,123.813,105.097,113.845,0.00300622,0.0533775,20.9841,577.753,-0.723258,0.0,0.0
645,161,52.2757,54.8017,128.752,105.099,113.58,0.00296419,0.0532211,20.9843,577.733,-0.701995,0.0,0.0
648,161.75,52.1181,55.2945,126.155,105.114,113.799,0.00292581,0.0530455,20.9844,577.773,-0.718138,0.0,0.0
651,162.5,52.3884,54.9529,126.175,105.115,113.288,0.00290658,0.0528628,20.9845,577.753,-0.677325,0.0,0.0
654,163.25,52.1003,55.1718,126.956,105.139,113.696,0.00289257,0.0527063,20.9845,577.733,-0.70777,0.0,0.0
657,164,52.0735,55.2561,126.344,105.153,113.6,0.00290862,0.0525142,20.9847,577.723,-0.698897,0.0,0.0
660,164.75,51.9493,55.3765,127.008,105.165,113.664,0.00291774,0.0524014,20.9849,577.703,-0.70296,0.0,0.0
663,165.5,52.2653,54.9989,124.757,105.172,114.351,0.00291997,0.0523309,20.985,577.703,-0.756849,0.0,0.0
666,166.25,52.0553,54.967,122.955,105.179,114.412,0.00289707,0.0522659,20.9851,577.733,-0.761093,0.0,0.0
669,167,51.8239,55.3284,126.121,105.209,113.665,0.00288038,0.0522126,20.9852,577.763,-0.699291,0.0,0.0
672,167.75,52.2041,54.8533,127.622,105.208,114.308,0.00283146,0.0522128,20.9859,577.723,-0.750443,0.0,0.0
675,168.5,52.053,54.6967,125.402,105.211,114.081,0.00276637,0.0521855,20.9864,577.713,-0.732148,0.0,0.0
678,169.25,51.8498,55.1545,127.166,105.229,113.235,0.00268832,0.052154,20.9867,577.683,-0.66327,0.0,0.0
681,170,52.1238,54.828,126.554,105.255,113.879,0.00260055,0.052053,20.987,577.733,-0.71229,0.0,0.0
684,170.75,51.6276,54.9937,124.912,105.244,113.289,0.00249641,0.0519794,20.9872,577.713,-0.66635,0.0,0.0
687,171.5,51.9788,55.3274,121.132,105.245,113.989,0.00240092,0.0519257,20.9873,577.693,-0.721927,0.0,0.0
690,172.25,52.1984,54.8773,124.592,105.252,114.052,0.00231652,0.0518281,20.9874,577.703,-0.726333,0.0,0.0
693,173,51.9415,54.8254,126.912,105.263,113.639,0.002244,0.0517022,20.9875,577.653,-0.692564,0.0,0.0
696,173.75,52.1856,54.7595,126.283,105.274,113.585,0.0021982,0.0515871,20.9875,577.633,-0.687356,0.0,0.0
699,174.5,52.0388,54.45,128.901,105.27,113.743,0.00217693,0.0514057,20.9876,577.653,-0.700174,0.0,0.0
702,175.25,51.5377,55.0093,127.016,105.278,114.258,0.00219078,0.0512462,20.9876,577.643,-0.740395,0.0,0.0
705,176,51.7592,54.4408,124.799,105.288,113.418,0.00222306,0.0511469,20.9876,577.653,-0.672868,0.0,0.0
708,176.75,51.7074,54.134,127.334,105.289,113.296,0.00226312,0.0511238,20.9876,577.653,-0.663022,0.0,0.0
711,177.5,51.2918,54.5625,124.74,105.285,112.945,0.00229756,0.051107,20.9877,577.643,-0.635266,0.0,0.0
714,178.25,51.7123,54.7883,129.836,105.3,113.842,0.00231043,0.0510947,20.9877,577.603,-0.705482,0.0,0.0
717,179,51.9586,54.3239,125.18,105.302,113.532,0.00230042,0.0510468,20.9877,577.623,-0.680694,0.0,0.0
720,179.75,51.6891,54.4209,129.609,105.311,113.784,0.00226889,0.0510334,20.9877,577.593,-0.699948,0.0,0.0
723,180.5,51.7383,54.9441,125.073,105.302,113.385,0.00222724,0.0510534,20.9877,577.653,-0.669033,0.0,0.0
726,181.25,51.5326,54.1328,125.169,105.327,114.544,0.00216496,0.0510556,20.9877,577.633,-0.758832,0.0,0.0
729,182,51.1758,54.0036,125.785,105.328,113.787,0.00210213,0.0510378,20.9877,577.653,-0.698755,0.0,0.0
732,182.75,51.6666,54.4785,124.848,105.335,112.984,0.00205877,0.0510032,20.9877,577.623,-0.634116,0.0,0.0
735,183.5,51.6698,54.4223,127.564,105.323,113.343,0.00203077,0.050941,20.9877,577.583,-0.663836,0.0,0.0
738,184.25,51.2547,54.2765,125.928,105.328,114.7,0.00201477,0.0509173,20.9877,577.653,-0.771073,0.0,0.0
741,185,51.3483,54.6735,125.184,105.329,114.547,0.00201043,0.0509369,20.9877,577.573,-0.758908,0.0,0.0
744,185.75,51.6642,54.0924,129.33,105.343,113.252,0.00201039,0.0509122,20.9877,577.553,-0.654768,0.0,0.0
747,186.5,51.414,54.0367,125.729,105.336,113.959,0.00202015,0.0508396,20.9878,577.513,-0.711681,0.0,0.0
750,187.25,51.6753,54.0621,126.165,105.335,114.12,0.00203142,0.0507489,20.988,577.543,-0.724574,0.0,0.0
753,188,51.7848,54.3105,126.122,105.329,113.596,0.0020262,0.0506581,20.9882,577.523,-0.683489,0.0,0.0
756,188.75,51.3281,54.2815,125.864,105.34,113.635,0.00201023,0.0505776,20.9883,577.563,-0.685625,0.0,0.0
759,189.5,51.4305,54.6726,128.994,105.333,113.705,0.00198759,0.0504943,20.9884,577.553,-0.6918,0.0,0.0
762,190.25,51.5385,54.2131,125.838,105.334,114.365,0.00195714,0.0504609,20.9885,577.563,-0.744043,0.0,0.0
765,191,51.3284,54.3204,124.145,105.345,113.997,0.00193129,0.0504482,20.9888,577.583,-0.71395,0.0,0.0
768,191.75,51.2214,54.0387,125.109,105.333,114.428,0.00191409,0.0504195,20.9894,577.563,-0.749125,0.0,0.0
771,192.5,51.3647,54.2796,123.261,105.325,114.123,0.00190705,0.0504122,20.9898,577.533,-0.725666,0.0,0.0
774,193.25,51.4587,54.0162,124.96,105.311,114.232,0.00190802,0.0504343,20.9901,577.563,-0.735534,0.0,0.0
777,194,51.4604,54.549,127.224,105.319,114.266,0.00191134,0.0504873,20.9904,577.553,-0.737499,0.0,0.0
780,194.75,51.152,54.1014,126.195,105.315,113.897,0.00190156,0.0504675,20.9906,577.583,-0.708613,0.0,0.0
783,195.5,51.2636,54.0703,124.238,105.322,114.087,0.00188099,0.0504458,20.9907,577.593,-0.723076,0.0,0.0
786,196.25,51.0869,53.8423,120.945,105.3,114.496,0.00186028,0.0504177,20.9908,577.553,-0.757293,0.0,0.0
789,197,51.0862,53.9216,125.685,105.307,112.955,0.00180861,0.0504109,20.9908,577.503,-0.634236,0.0,0.0
792,197.75,51.0988,54.3076,126.121,105.297,113.925,0.00176937,0.0504118,20.9909,577.443,-0.712358,0.0,0.0
795,198.5,51.2007,54.0298,124.571,105.298,114.514,0.00169279,0.0503539,20.9909,577.463,-0.758946,0.0,0.0
798,199.25,51.2778,53.9824,127.134,105.278,114.294,0.00161174,0.0502708,20.9903,577.413,-0.743271,0.0,0.0
801,200,51.6814,53.9613,125.47,105.262,113.528,0.00151617,0.0501855,20.9903,577.433,-0.683846,0.0,0.0
804,200.75,51.2314,53.9212,125.1,105.252,113.961,0.0014465,0.0501332,20.9905,577.403,-0.71909,0.0,0.0
807,201.5,51.688,53.7267,126.024,105.245,114.032,0.00137488,0.0500456,20.9906,577.423,-0.725289,0.0,0.0
810,202.25,51.4897,54.1524,126.95,105.226,114.434,0.00133849,0.0499837,20.9907,577.423,-0.75879,0.0,0.0
813,203,51.7608,53.8258,126.363,105.209,113.353,0.00133858,0.0499444,20.9908,577.413,-0.674422,0.0,0.0
816,203.75,51.1695,54.2379,125.15,105.19,114.253,0.00137264,0.0499157,20.9909,577.413,-0.747581,0.0,0.0
819,204.5,51.3038,53.8779,125.454,105.198,113.668,0.00143921,0.049902,20.9909,577.393,-0.700421,0.0,0.0
822,205.25,50.805,54.3837,125.615,105.175,113.247,0.00149544,0.0499044,20.9909,577.393,-0.668814,0.0,0.0
825,206,51.4706,54.129,124.981,105.146,113.483,0.00154961,0.0499334,20.9909,577.343,-0.690202,0.0,0.0
828,206.75,50.7802,53.738,123.909,105.131,113.898,0.00159258,0.0499518,20.991,577.403,-0.724492,0.0,0.0
831,207.5,51.1223,53.6405,123.793,105.107,114.425,0.00162391,0.0499406,20.991,577.413,-0.768341,0.0,0.0
834,208.25,51.3148,53.8564,127.143,105.107,114.493,0.00166415,0.049952,20.991,577.403,-0.773679,0.0,0.0
837,209,51.1051,53.5686,123.943,105.081,113.637,0.00169349,0.0499739,20.991,577.373,-0.708083,0.0,0.0
840,209.75,50.9667,53.9123,126.331,105.078,114.661,0.00173926,0.0499957,20.9908,577.353,-0.789499,0.0,0.0
843,210.5,51.395,54.1085,123.551,105.063,113.911,0.00176749,0.0500701,20.9906,577.383,-0.731349,0.0,0.0
846,211.25,51.28,54.4383,122.928,105.04,113.796,0.00177927,0.0501244,20.9904,577.373,-0.724283,0.0,0.0
849,212,51.4548,54.0825,127.469,105.017,113.36,0.00176001,0.0501366,20.9903,577.343,-0.691491,0.0,0.0
852,212.75,51.3372,53.8195,124.033,104.998,113.031,0.00172522,0.0501338,20.9902,577.343,-0.666891,0.0,0.0
855,213.5,51.3506,53.8819,127.046,104.998,113.793,0.00167497,0.0500733,20.9902,577.343,-0.727628,0.0,0.0
858,214.25,51.5204,53.9906,123.803,104.995,112.546,0.00161092,0.0499882,20.9901,577.343,-0.628223,0.0,0.0
861,215,51.4065,54.243,127.552,104.98,113.475,0.00154883,0.0499015,20.9901,577.333,-0.703835,0.0,0.0
864,215.75,51.1092,54.0617,127.323,104.961,112.503,0.00147726,0.049826,20.9901,577.323,-0.627728,0.0,0.0
867,216.5,51.2439,53.7799,128.825,104.966,112.804,0.00140598,0.0497983,20.99,577.303,-0.65134,0.0,0.0
870,217.25,51.2416,53.7273,126.278,104.973,112.504,0.0013528,0.0497826,20.99,577.303,-0.626673,0.0,0.0
873,218,51.1275,53.6947,126.096,104.943,113.797,0.00132312,0.0497588,20.99,577.303,-0.732659,0.0,0.0
876,218.75,51.3658,53.8259,124.746,104.96,112.726,0.00131793,0.0497551,20.99,577.283,-0.645647,0.0,0.0
879,219.5,51.0156,53.7416,125.763,104.934,113.296,0.00133363,0.0497511,20.99,577.293,-0.693573,0.0,0.0
882,220.25,51.0441,53.9968,123.535,104.933,113.769,0.00136044,0.0497358,20.99,577.293,-0.731349,0.0,0.0
885,221,51.1064,54.0622,124.839,104.931,112.775,0.00139205,0.0497247,20.99,577.313,-0.652157,0.0,0.0
888,221.75,51.6886,54.2464,127.59,104.913,113.691,0.00141509,0.0497022,20.99,577.293,-0.726837,0.0,0.0
891,222.5,51.0275,53.1842,125.587,104.906,114.373,0.00142676,0.0496612,20.99,577.283,-0.781547,0.0,0.0
894,223.25,51.4206,53.8479,126.699,104.918,113.661,0.00142649,0.0496313,20.9894,577.253,-0.724029,0.0,0.0
897,224,51.2976,53.5917,124.699,104.901,113.653,0.00141655,0.0496239,20.9894,577.232,-0.724819,0.0,0.0
900,224.75,51.1331,53.6959,125.974,104.885,113.037,0.0014045,0.0496432,20.9895,577.213,-0.677064,0.0,0.0
903,225.5,51.3748,53.6376,125.199,104.875,112.799,0.00139463,0.0495987,20.9897,577.192,-0.65891,0.0,0.0
906,226.25,51.5653,53.7626,125.612,104.875,113.294,0.00138395,0.0495591,20.9897,577.242,-0.69849,0.0,0.0
909,227,51.3644,53.3322,125.065,104.878,113.215,0.00137495,0.0495179,20.9898,577.263,-0.691947,0.0,0.0
912,227.75,51.3692,53.3904,124.193,104.862,113.097,0.00136787,0.0495269,20.9899,577.263,-0.68384,0.0,0.0
915,228.5,51.687,53.6632,126.312,104.855,113.748,0.00136636,0.0496017,20.9899,577.213,-0.736351,0.0,0.0
918,229.25,51.2341,54.0561,124.006,104.865,112.685,0.00137003,0.0496854,20.9899,577.213,-0.650592,0.0,0.0
921,230,51.1186,53.7407,126.073,104.862,112.95,0.00137818,0.0497464,20.9899,577.232,-0.672133,0.0,0.0
924,230.75,51.6362,53.7755,123.235,104.843,113.392,0.0013876,0.0497773,20.99,577.213,-0.709067,0.0,0.0
927,231.5,51.3116,53.8564,128.075,104.841,112.982,0.00139447,0.0497939,20.99,577.213,-0.676457,0.0,0.0
930,232.25,51.4878,53.5577,126.21,104.829,113.537,0.00139826,0.0497514,20.99,577.213,-0.721818,0.0,0.0
933,233,51.5896,54.11,126,104.843,111.981,0.00139684,0.0496899,20.99,577.213,-0.595744,0.0,0.0
936,233.75,51.1566,53.7935,123.622,104.81,113.464,0.00139425,0.0496327,20.99,577.213,-0.717705,0.0,0.0
939,234.5,51.5832,53.4603,124.316,104.819,113.712,0.00136631,0.0496127,20.99,577.213,-0.736635,0.0,0.0
942,235.25,51.6706,53.6838,125.861,104.832,112.093,0.00134593,0.0496349,20.99,577.203,-0.605757,0.0,0.0
945,236,51.0726,53.7541,126.254,104.814,113.149,0.00129288,0.0496512,20.99,577.203,-0.692132,0.0,0.0
948,236.75,51.1196,53.5609,124.608,104.808,112.723,0.00124691,0.0496767,20.99,577.192,-0.658507,0.0,0.0
951,237.5,51.3973,53.8589,125.389,104.803,113.393,0.00121413,0.0497011,20.99,577.182,-0.712533,0.0,0.0
954,238.25,51.8598,53.7899,124.879,104.808,112.868,0.0011968,0.0496779,20.99,577.132,-0.670161,0.0,0.0
957,239,51.7123,53.8324,123.432,104.816,113.747,0.00121541,0.0496435,20.99,577.172,-0.739632,0.0,0.0
960,239.75,51.2277,53.9179,124.954,104.813,113.263,0.00123988,0.0496184,20.99,577.152,-0.701321,0.0,0.0
963,240.5,51.2979,53.8382,123.609,104.794,112.771,0.00127636,0.0496001,20.99,577.072,-0.663597,0.0,0.0
966,241.25,51.4,54.1344,124.499,104.816,113.598,0.00131685,0.0495796,20.99,577.092,-0.727845,0.0,0.0
969,242,51.6335,53.2094,125.911,104.806,113.394,0.00134636,0.0495524,20.99,577.082,-0.712425,0.0,0.0
972,242.75,51.6333,53.8646,124.683,104.806,112.742,0.00137136,0.049513,20.99,577.102,-0.660185,0.0,0.0
975,243.5,51.5875,53.6706,124.421,104.802,113.398,0.00138592,0.049457,20.99,577.102,-0.713087,0.0,0.0
978,244.25,51.4476,53.5769,125.537,104.799,113.322,0.00139498,0.0494045,20.99,577.072,-0.707212,0.0,0.0
981,245,51.0143,53.6056,129.01,104.817,112.834,0.00137379,0.0494247,20.99,577.012,-0.66667,0.0,0.0
984,245.75,51.4454,53.8522,127.723,104.83,112.729,0.00133642,0.0494394,20.99,577.062,-0.657134,0.0,0.0
987,246.5,51.9927,53.414,126.969,104.813,112.741,0.00129087,0.0494892,20.99,577.082,-0.659564,0.0,0.0
990,247.25,52.0179,53.5697,126.508,104.808,113.24,0.00124233,0.0495117,20.99,577.052,-0.70001,0.0,0.0
993,248,51.7769,53.6908,130.993,104.835,112.73,0.00120816,0.0495224,20.99,577.052,-0.656845,0.0,0.0
996,248.75,51.0136,53.3796,123.184,104.835,113.281,0.00118377,0.0494911,20.99,577.032,-0.700802,0.0,0.0
999,249.5,51.2299,53.9009,128.613,104.821,113.547,0.00118335,0.0494274,20.99,577.052,-0.72329,0.0,0.0
1002,250.25,51.472,53.487,125.673,104.83,113.41,0.00118624,0.0493922,20.99,577.052,-0.711536,0.0,0.0
1005,251,51.4925,53.5239,126.07,104.837,113.318,0.00119383,0.0494157,20.99,577.072,-0.70363,0.0,0.0
1008,251.75,51.2794,53.7101,124.777,104.847,113.14,0.0012063,0.0494719,20.99,577.052,-0.688542,0.0,0.0
1011,252.5,51.6235,53.932,123.868,104.843,113.578,0.00122757,0.0495128,20.99,577.052,-0.723916,0.0,0.0
1014,253.25,51.322,53.4855,125.907,104.842,113.891,0.00125661,0.0495621,20.99,577.032,-0.748846,0.0,0.0
1017,254,51.8446,53.5448,123.647,104.862,113.036,0.00129202,0.0495981,20.99,577.032,-0.678885,0.0,0.0
1020,254.75,51.7226,53.7047,128.32,104.866,113.399,0.00131784,0.0496171,20.99,577.032,-0.707618,0.0,0.0
1023,255.5,51.2958,53.7575,123.049,104.866,113.674,0.00137143,0.0496187,20.9904,577.022,-0.729513,0.0,0.0
1026,256.25,51.3606,53.4515,123.212,104.861,113.204,0.00141049,0.0496198,20.9908,577.022,-0.692476,0.0,0.0
1029,257,52.0356,53.9595,126.536,104.869,112.989,0.00145984,0.0496207,20.9911,577.012,-0.674573,0.0,0.0
1032,257.75,51.7485,53.8891,124.596,104.88,113.296,0.00148118,0.0496407,20.9913,577.032,-0.6982,0.0,0.0
1035,258.5,51.0567,54.1236,125.931,104.88,113.178,0.00147319,0.0496554,20.9915,576.992,-0.688714,0.0,0.0
1038,259.25,51.4315,53.844,127.309,104.872,113.688,0.00144834,0.0496466,20.9916,576.962,-0.730113,0.0,0.0
1041,260,51.3403,53.744,125.006,104.885,112.582,0.00139041,0.0496474,20.9917,576.962,-0.64054,0.0,0.0
1044,260.75,51.7253,54.0083,124.867,104.896,112.928,0.00133572,0.0496602,20.9918,576.972,-0.667428,0.0,0.0
1047,261.5,52.0067,53.8312,124.013,104.889,113.303,0.00126462,0.0496696,20.9918,576.982,-0.697993,0.0,0.0
1050,262.25,51.4331,53.6958,125.794,104.901,112.981,0.00119454,0.0496744,20.9919,576.972,-0.671205,0.0,0.0
1053,263,51.4946,53.397,122.939,104.905,113.981,0.00113568,0.0497189,20.9919,576.982,-0.750588,0.0,0.0
1056,263.75,51.778,53.723,127.167,104.908,113.964,0.0010529,0.0497377,20.9919,576.972,-0.749001,0.0,0.0
1059,264.5,51.754,53.822,123.864,104.903,113.513,0.000989362,0.0497456,20.9919,576.982,-0.713582,0.0,0.0
1062,265.25,51.3679,53.9688,125.318,104.89,114.158,,0.0497708,,576.962,-0.765935,0.0,0.0
1065,266,51.73,53.5756,125.056,104.905,113.669,,0.0498575,,576.962,-0.725789,0.0,0.0
1068,266.75,51.4286,53.7181,123.7,104.902,113.449,,0.0499499,,576.962,-0.708495,0.0,0.0
1071,267.5,51.6407,53.8291,122.637,104.906,113.656,,0.0499587,,576.952,-0.724641,0.0,0.0
1074,268.25,51.563,53.7915,124.123,104.888,113.711,,,,576.962,-0.730544,0.0,0.0
1077,269,51.8838,53.6834,124.846,104.912,113.301,,,,576.952,-0.69584,0.0,0.0
1080,269.75,51.3375,54.2008,128.154,104.895,113.088,,,,576.942,-0.680252,0.0,0.0
1083,270.5,51.6751,53.2065,125.27,104.913,113.296,,,,576.932,-0.695358,0.0,0.0
1086,271.25,51.3176,54.0891,126.573,104.905,112.891,,,,576.922,-0.663604,0.0,0.0
1089,272,51.307,53.9023,124.95,104.898,113.139,,,,576.932,-0.68413,0.0,0.0
1092,272.75,51.3162,53.8757,128.814,104.902,113.656,,,,576.922,-0.724969,0.0,0.0
1095,273.5,51.9099,53.8577,123.503,104.907,113.255,,,,576.912,-0.692596,0.0,0.0
1098,274.25,51.7421,53.9406,125.386,104.893,113.308,,,,576.922,-0.698002,0.0,0.0
1101,275,51.753,53.4935,122.107,104.894,113.325,,,,576.902,-0.699304,0.0,0.0
1104,275.75,51.8564,54.0937,129.697,104.898,113.351,,,,576.912,-0.701094,0.0,0.0