File: 01_Data/Polyester_Microfiber_Sheet/Cone/Polyester_Microfiber_Sheet_Cone_HF50Scan_220512_R1.csv
Names,Time,Stack TC,Smoke TC,Exh Press,Smoke Comp,Smoke Meas,CO Meter,CO2 Meter,O2 Meter,Sample Mass,Ext Coeff,Start Test,Flame Verif
Chan Gain,,500,500,1,1,1,1,1,1,1,1,1.0,1.0
Offset,,0,0,0.135828,0,0,0,0,0,0,0,0.0,0.0
Gain,,1,1,25.011,13.8491,15.2622,1,1,1,1.00087,1.03118,1.0,1.0
Units,sec,C,C,Pa,%,%,%,%,%,g,/m,,
Baseline,,37.1656,38.4777,133.091,104.246,107.103,0.000633279,0.0491941,20.9909,-445.944,-0.244475,,
3,0.5,35.0866,37.0808,136.236,105.034,108.239,0.000215301,0.0525728,20.9915,619.84,-0.271883,0.0,0.0
6,1.25,34.0016,35.9233,135.059,105.012,108.369,0.00022481,0.0519258,20.9924,619.92,-0.284632,0.0,0.0
9,2,33.9057,35.3687,133.696,104.993,108.016,0.000258394,0.0513568,20.9927,619.94,-0.256714,0.0,0.0
12,2.75,34.2262,35.8139,132.769,104.983,108.336,0.000294239,0.0508916,20.9923,619.88,-0.28442,0.0,0.0
15,3.5,34.1688,35.3714,132.089,104.96,108.42,0.000347043,0.0504664,20.9921,619.93,-0.293422,0.0,0.0
18,4.25,33.75,35.4929,134.282,104.959,107.796,0.000396907,0.0500989,20.9918,619.86,-0.241274,0.0,0.0
21,5,34.2336,35.6451,131.679,104.921,108.72,0.000462577,0.0497326,20.9917,619.87,-0.321689,0.0,0.0
24,5.75,34.2875,35.7109,132.154,104.911,107.531,0.000514092,0.0494246,20.9917,619.87,-0.223089,0.0,0.0
27,6.5,33.7134,35.4251,134.997,104.907,107.723,0.000553199,0.0491826,20.9918,619.86,-0.239578,0.0,0.0
30,7.25,34.3455,35.7211,134.404,104.878,108.194,0.000576514,0.0489283,20.9919,619.87,-0.281587,0.0,0.0
33,8,34.0385,36.1484,137.54,104.854,108.179,0.000593511,0.0487146,20.992,619.86,-0.282421,0.0,0.0
36,8.75,34.3489,35.5033,131.92,104.838,108.122,0.000607179,0.0485103,20.992,619.86,-0.279051,0.0,0.0
39,9.5,34.544,35.8818,135.888,104.839,108.458,0.000619326,0.0483614,20.9921,619.86,-0.306995,0.0,0.0
42,10.25,34.381,35.8269,132.499,104.827,107.403,0.000628182,0.0482529,20.9923,619.87,-0.219601,0.0,0.0
45,11,34.5514,36.0229,132.451,104.799,108.102,0.000630806,0.0481737,20.9929,619.88,-0.28062,0.0,0.0
48,11.75,34.5042,35.627,131.789,104.788,108.092,0.000626166,0.048116,20.9933,619.88,-0.280824,0.0,0.0
51,12.5,34.8152,36.1451,130.759,104.777,108.135,0.00061067,0.0480812,20.9936,619.87,-0.285359,0.0,0.0
54,13.25,34.3689,35.9506,131.641,104.759,107.78,0.000596948,0.048068,20.9939,619.85,-0.257151,0.0,0.0
57,14,34.5453,35.7746,129.701,104.742,107.641,0.000587188,0.0480175,20.994,619.86,-0.246955,0.0,0.0
60,14.75,34.602,35.7171,131.967,104.736,107.651,0.000582255,0.0478949,20.9941,619.84,-0.248325,0.0,0.0
63,15.5,34.5395,36.0789,133.147,104.726,107.744,0.00058358,0.0477405,20.9942,619.85,-0.256988,0.0,0.0
66,16.25,34.8352,36.0268,136.007,104.729,108.131,0.000586644,0.0475665,20.9943,619.86,-0.289131,0.0,0.0
69,17,34.49,35.831,133.762,104.7,107.771,0.000596158,0.0474008,20.9942,619.86,-0.261519,0.0,0.0
72,17.75,34.6641,35.5671,133.064,104.675,108.11,0.000607475,0.0472651,20.9941,619.85,-0.292013,0.0,0.0
75,18.5,34.9334,36.0046,132.051,104.678,108.368,0.000617911,0.0471409,20.9939,619.87,-0.313358,0.0,0.0
78,19.25,34.9954,36.3823,128.239,104.671,107.351,0.000615133,0.0470095,20.9939,619.87,-0.228675,0.0,0.0
81,20,34.5823,36.2119,130.522,104.66,108.05,0.000598551,0.0468962,20.9938,619.87,-0.288263,0.0,0.0
84,20.75,34.1432,35.8453,131.823,104.634,107.698,0.000573237,0.0467357,20.9937,619.88,-0.261077,0.0,0.0
87,21.5,34.5156,36.0851,132.98,104.635,108.062,0.000542778,0.0466051,20.9937,619.89,-0.291505,0.0,0.0
90,22.25,35.037,36.1441,129.957,104.635,106.941,0.000517114,0.0464969,20.9937,619.88,-0.197251,0.0,0.0
93,23,34.848,35.7118,134.437,104.618,107.531,0.000498406,0.0464057,20.9936,619.9,-0.24845,0.0,0.0
96,23.75,35.1828,36.1424,131.776,104.611,107.775,0.000488226,0.0463198,20.9936,619.9,-0.269579,0.0,0.0
99,24.5,35.0329,36.2137,131.641,104.627,107.222,0.000480805,0.0462643,20.9936,619.87,-0.221632,0.0,0.0
102,25.25,35.1069,36.1208,132.167,104.631,108.052,0.000457619,0.0462361,20.9941,619.89,-0.291017,0.0,0.0
105,26,34.7172,35.4727,131.306,104.619,107.601,0.000430832,0.0462545,20.9953,619.88,-0.254177,0.0,0.0
108,26.75,34.8165,36.1237,131.897,104.615,108.022,0.000404392,0.046268,20.9962,619.88,-0.289911,0.0,0.0
111,27.5,35.2069,35.9711,132.393,104.616,108.063,0.000397235,0.0463323,20.9968,619.9,-0.293191,0.0,0.0
114,28.25,35.3612,36.3237,133.459,104.624,107.434,0.000397183,0.0463816,20.9973,619.87,-0.239749,0.0,0.0
117,29,35.775,36.4817,134.827,104.622,107.699,0.00040406,0.0464248,20.9976,619.88,-0.262254,0.0,0.0
120,29.75,35.1924,36.6965,136.042,104.611,107.137,0.000419985,0.0464433,20.9979,619.88,-0.215825,0.0,0.0
123,30.5,35.2938,36.8965,130.083,104.597,107.453,0.000436245,0.0464445,20.998,619.85,-0.243732,0.0,0.0
126,31.25,35.0931,35.9717,136.676,104.616,107.533,0.000472358,0.046459,20.9982,619.83,-0.24879,0.0,0.0
129,32,35.1677,36.7301,129.253,104.617,108.074,0.000509025,0.0464898,20.9983,619.81,-0.294017,0.0,0.0
132,32.75,34.9989,36.3347,137.174,104.608,106.566,0.000566916,0.0465368,20.9983,619.81,-0.167741,0.0,0.0
135,33.5,35.3622,36.3881,130.808,104.62,107.273,0.000616402,0.0466666,20.9984,619.79,-0.226499,0.0,0.0
138,34.25,35.1116,36.3331,133.925,104.63,106.401,0.000648555,0.046802,20.9984,619.8,-0.151834,0.0,0.0
141,35,34.8442,35.8402,131.788,104.63,105.723,0.000659974,0.0468734,20.9984,619.83,-0.0940371,0.0,0.0
144,35.75,35.1567,36.133,128.233,104.643,106.73,0.000640606,0.0469353,20.998,619.82,-0.178614,0.0,0.0
147,36.5,35.6306,36.5464,130.242,104.638,105.584,0.00062406,0.0470173,20.9975,619.8,-0.0814607,0.0,0.0
150,37.25,35.0512,35.9974,136.774,104.645,105.984,0.000610963,0.047194,20.9972,619.76,-0.114974,0.0,0.0
153,38,35.6297,36.1064,130.166,104.66,105.279,0.00060427,0.0474183,20.997,619.78,-0.0533097,0.0,0.0
156,38.75,35.8818,37.125,131.665,104.664,105.823,0.00062596,0.0476227,20.9968,619.77,-0.0996022,0.0,0.0
159,39.5,35.3779,36.6877,133.759,104.663,106.55,0.000673345,0.0485902,20.9962,619.78,-0.16165,0.0,0.0
162,40.25,35.3767,36.5361,131.067,104.684,106.751,0.00074566,0.0508291,20.9949,619.74,-0.176925,0.0,1.0
165,41,35.5701,36.5489,134.191,104.694,106.549,0.000839953,0.0524318,20.9903,619.78,-0.158905,0.0,1.0
168,41.75,35.651,36.2931,135.405,104.695,107.122,0.00098335,0.0561455,20.9816,619.75,-0.207336,0.0,1.0
171,42.5,35.2145,36.9064,127.165,104.694,107.774,0.00115983,0.0620368,20.9705,619.75,-0.262228,0.0,1.0
174,43.25,35.6259,36.8063,127.909,104.71,105.62,0.00137126,0.0714982,20.9581,619.69,-0.0782869,0.0,1.0
177,44,35.8923,36.3855,130.376,104.733,106.432,0.00161449,0.0829945,20.9403,619.669,-0.145539,0.0,1.0
180,44.75,35.3326,36.0677,126.617,104.739,104.89,0.00190615,0.0961632,20.9273,619.669,-0.0130413,0.0,1.0
183,45.5,34.5244,35.5435,127.178,104.74,103.624,0.0023143,0.110598,20.9085,619.599,0.096905,0.0,1.0
186,46.25,34.8353,35.2997,126.895,104.755,101.874,0.00291096,0.130402,20.8904,619.599,0.252236,0.0,1.0
189,47,35.4563,35.5164,123.378,104.783,98.6075,0.00365781,0.149946,20.8697,619.539,0.549423,0.0,0.0
192,47.75,35.3318,35.9373,124.356,104.798,98.7426,0.00451755,0.172926,20.8488,619.379,0.538392,0.0,0.0
195,48.5,35.7684,36.4066,123.507,104.789,94.1907,0.00514429,0.203291,20.8237,619.349,0.964456,0.0,0.0
198,49.25,36.0058,35.9652,120.095,104.793,93.1371,0.00674548,0.23123,20.7895,619.259,1.06657,0.0,0.0
201,50,36.4299,36.772,118.023,104.825,88.7994,0.00854933,0.275623,20.7455,619.189,1.50074,0.0,0.0
204,50.75,37.3772,36.6135,117.877,104.835,88.7664,0.0105973,0.307985,20.6926,619.119,1.50502,0.0,0.0
207,51.5,38.0998,37.4266,117.032,104.857,83.9625,0.0128796,0.36233,20.6108,618.949,2.01019,0.0,0.0
210,52.25,39.0044,37.8596,118.454,104.862,79.6262,0.0151444,0.432213,20.5243,618.789,2.49021,0.0,0.0
213,53,40.1281,39.0444,113.243,104.876,75.5769,0.0181419,0.512493,20.4155,618.578,2.9636,0.0,0.0
216,53.75,41.6664,39.7286,103.929,104.884,69.8424,0.020872,0.61054,20.2943,618.328,3.67802,0.0,0.0
219,54.5,43.0019,40.6076,102.343,104.89,64.6919,0.0231967,0.689853,20.2059,618.148,4.37146,0.0,0.0
222,55.25,44.7505,41.7325,105.058,104.914,70.5634,0.0250627,0.76107,20.1415,617.928,3.58767,0.0,0.0
225,56,46.6583,42.6969,103.207,104.923,73.8097,0.0260507,0.811387,20.1085,617.798,3.18165,0.0,0.0
228,56.75,47.9684,44.4135,110.396,104.946,73.9597,0.0269834,0.843626,20.077,617.608,3.16522,0.0,0.0
231,57.5,49.1524,45.5866,112.56,104.951,77.2913,0.0273721,0.860699,20.065,617.478,2.7671,0.0,0.0
234,58.25,50.5553,46.2558,113.734,104.953,77.6034,0.0273096,0.858571,20.0763,617.357,2.73087,0.0,0.0
237,59,50.971,47.4164,111.791,104.963,76.8055,0.0269227,0.851142,20.0921,617.237,2.82519,0.0,0.0
240,59.75,51.6687,48.3148,116.361,104.976,79.2927,0.0257612,0.834418,20.1167,617.107,2.53801,0.0,0.0
243,60.5,52.1755,49.4733,116.054,105.001,78.0147,0.0244091,0.80194,20.1505,616.997,2.68718,0.0,0.0
246,61.25,52.9731,50.1089,115.755,105.013,79.9369,0.0227463,0.770704,20.1967,616.937,2.46799,0.0,0.0
249,62,53.2925,49.6239,117.637,105.026,83.7198,0.0210947,0.735004,20.2462,616.817,2.05087,0.0,0.0
252,62.75,53.1348,50.9177,119.943,105.056,85.0142,0.0197034,0.69376,20.2985,616.747,1.91475,0.0,0.0
255,63.5,53.5428,50.4016,120.147,105.064,86.9061,0.0181042,0.652176,20.3567,616.707,1.71627,0.0,0.0
258,64.25,53.4705,51.1174,120.498,105.073,92.363,0.0159389,0.613262,20.4091,616.627,1.16625,0.0,0.0
261,65,53.6114,51.361,123.463,105.083,92.8558,0.0151539,0.571334,20.4517,616.577,1.11896,0.0,0.0
264,65.75,53.3513,52.0664,123.338,105.11,94.5936,0.0135378,0.532865,20.4911,616.557,0.953533,0.0,0.0
267,66.5,53.3886,51.7229,125.209,105.12,97.3979,0.0120845,0.497792,20.5272,616.477,0.690136,0.0,0.0
270,67.25,53.7026,51.9678,126.667,105.127,97.6126,0.0109077,0.465966,20.5603,616.467,0.670836,0.0,0.0
273,68,53.3121,51.8479,124.465,105.125,101.023,0.0096475,0.432327,20.5919,616.397,0.360102,0.0,0.0
276,68.75,53.712,52.0333,127.081,105.159,101.71,0.00856311,0.404501,20.622,616.377,0.301706,0.0,0.0
279,69.5,53.3961,51.4016,126.646,105.177,102.686,0.00764181,0.378566,20.6507,616.357,0.216861,0.0,0.0
282,70.25,52.6835,51.8632,128.304,105.185,103.248,0.00686739,0.354343,20.6716,616.307,0.168124,0.0,0.0
285,71,52.9718,51.7591,124.315,105.196,103.77,0.0062468,0.332225,20.695,616.286,0.123482,0.0,0.0
288,71.75,52.2793,52.0261,127.817,105.217,104.883,0.00569858,0.312353,20.7145,616.256,0.0287461,0.0,0.0
291,72.5,52.0647,52.4364,126.529,105.228,106.341,0.00528917,0.292936,20.7298,616.266,-0.0951344,0.0,0.0
294,73.25,52.4102,51.6356,128.324,105.239,105.51,0.00497402,0.278782,20.7466,616.216,-0.0232717,0.0,0.0
297,74,52.1137,51.3316,129.751,105.246,106.952,0.00476896,0.262901,20.7636,616.206,-0.145439,0.0,0.0
300,74.75,51.2965,51.4417,127.262,105.267,107.917,0.00465905,0.248952,20.7802,616.166,-0.224917,0.0,0.0
303,75.5,51.6858,52.3597,127.203,105.279,107.488,0.00462512,0.234168,20.7958,616.156,-0.187797,0.0,0.0
306,76.25,50.9913,51.5233,127.53,105.279,106.795,0.00465054,0.221873,20.8116,616.136,-0.129285,0.0,0.0
309,77,49.99,51.5508,129.128,105.279,107.984,0.00476638,0.210315,20.8249,616.136,-0.229444,0.0,0.0
312,77.75,51.0643,51.7104,132.543,105.296,107.699,0.00488873,0.199113,20.8353,616.116,-0.204122,0.0,0.0
315,78.5,50.5823,51.0775,131.268,105.321,108.46,0.00504274,0.189272,20.846,616.116,-0.265675,0.0,0.0
318,79.25,50.0452,51.0432,129.003,105.318,107.737,0.00518712,0.180574,20.8546,616.086,-0.205402,0.0,0.0
321,80,49.9201,51.2161,128.056,105.309,108.546,0.00534728,0.172849,20.8622,616.066,-0.273873,0.0,0.0
324,80.75,49.2006,51.3378,129.168,105.32,108.424,0.0055316,0.164811,20.8695,616.076,-0.262754,0.0,0.0
327,81.5,49.2469,50.9971,129.236,105.335,108.356,0.00571215,0.158172,20.8762,616.076,-0.25577,0.0,0.0
330,82.25,49.3339,50.2019,127.598,105.335,108.137,0.00588977,0.151999,20.8823,616.056,-0.237516,0.0,0.0
333,83,48.8683,50.5746,128.739,105.319,108.892,0.00606425,0.146151,20.8886,616.036,-0.301794,0.0,0.0
336,83.75,48.2894,50.4118,131.877,105.326,108.624,0.00627535,0.141314,20.8941,616.016,-0.278939,0.0,0.0
339,84.5,48.8573,50.1737,128.802,105.326,109.768,0.00649317,0.136194,20.899,616.006,-0.37366,0.0,0.0
342,85.25,48.2889,50.1073,132.743,105.32,109.162,0.00667921,0.131687,20.9033,616.026,-0.324097,0.0,0.0
345,86,47.7326,50.0503,130.715,105.303,108.502,0.00691282,0.127729,20.9069,615.986,-0.270731,0.0,0.0
348,86.75,47.5124,49.9431,134.843,105.306,108.388,0.00716465,0.124262,20.9103,616.006,-0.260923,0.0,0.0
351,87.5,47.5566,49.8242,128.984,105.313,108.357,0.00741623,0.120992,20.9141,615.976,-0.257741,0.0,0.0
354,88.25,46.9844,49.8552,131.219,105.305,108.302,0.00766525,0.118358,20.917,615.956,-0.25384,0.0,0.0
357,89,46.5622,49.6433,133.044,105.278,108.209,0.00789804,0.116008,20.9196,615.946,-0.248414,0.0,0.0
360,89.75,46.8086,49.0984,128.781,105.262,108.961,0.00810753,0.113916,20.9212,615.946,-0.312345,0.0,0.0
363,90.5,46.5645,49.1547,129.723,105.251,108.981,0.00828909,0.112023,20.9228,615.946,-0.315065,0.0,0.0
366,91.25,46.2876,48.7075,130.774,105.248,109.193,0.00842744,0.110291,20.9242,615.936,-0.332856,0.0,0.0
369,92,46.9809,48.1788,129.242,105.226,108.97,0.00853854,0.108523,20.9258,615.916,-0.316243,0.0,0.0
372,92.75,46.2887,48.4042,131.961,105.202,108.463,0.00861954,0.106628,20.927,615.896,-0.276075,0.0,0.0
375,93.5,45.9851,48.683,127.991,105.193,109.621,0.00867858,0.10508,20.9281,615.886,-0.372967,0.0,0.0
378,94.25,45.4777,48.285,130.268,105.181,109.597,0.00871497,0.103175,20.9293,615.856,-0.371985,0.0,0.0
381,95,45.6138,48.1822,131.344,105.155,108.861,0.00873011,0.101537,20.9303,615.776,-0.31326,0.0,0.0
384,95.75,45.3859,48.0408,130.047,105.123,108.413,0.00873483,0.099916,20.9315,615.746,-0.278791,0.0,0.0
387,96.5,45.0772,47.777,133.116,105.108,107.991,0.00873225,0.0987345,20.9326,615.836,-0.244824,0.0,0.0
390,97.25,44.9114,47.7904,131.084,105.095,108.072,0.00872468,0.0970194,20.9334,615.746,-0.252698,0.0,0.0
393,98,44.5517,47.4861,129.459,105.077,108.582,0.00871736,0.0955862,20.9352,615.756,-0.296813,0.0,0.0
396,98.75,44.607,47.3631,127.547,105.03,108.372,0.00873225,0.0942285,20.9365,615.766,-0.283336,0.0,0.0
399,99.5,44.4377,47.7446,130.131,105.023,108.112,0.00875173,0.0929415,20.9375,615.706,-0.262202,0.0,0.0
402,100.25,44.141,47.3012,129.625,105.005,107.912,0.0087999,0.091795,20.9382,615.756,-0.246996,0.0,0.0
405,101,43.8938,47.0295,134.275,104.978,108.486,0.00889312,0.0907608,20.9387,615.766,-0.297373,0.0,0.0
408,101.75,43.7472,46.9293,129.213,104.949,109.542,0.00905329,0.0898194,20.9395,615.786,-0.387499,0.0,0.0
411,102.5,43.6304,46.3752,131.198,104.921,108.668,0.00921449,0.089009,20.9403,615.786,-0.317348,0.0,0.0
414,103.25,43.5531,46.6897,131.252,104.899,107.944,0.00935094,0.088206,20.9409,615.766,-0.258832,0.0,0.0
417,104,43.5915,46.3128,129.562,104.88,107.525,0.00948123,0.087371,20.9417,615.796,-0.225277,0.0,0.0
420,104.75,43.5118,46.9887,130.045,104.84,108.662,0.00959252,0.0865319,20.943,615.796,-0.323957,0.0,0.0
423,105.5,43.7038,46.3298,127.179,104.822,108.737,0.00967238,0.0857082,20.9441,615.776,-0.331651,0.0,0.0
426,106.25,42.9555,46.3594,131.036,104.8,108.186,0.00973006,0.0849831,20.9448,615.746,-0.287595,0.0,0.0
429,107,43.0611,46.179,131.113,104.756,108.38,0.00975813,0.084343,20.9454,615.716,-0.307653,0.0,0.0
432,107.75,42.993,46.2473,130.214,104.742,108.327,0.0097646,0.0837766,20.9459,615.716,-0.304462,0.0,0.0
435,108.5,42.8929,45.8974,129.696,104.697,107.78,0.0097556,0.0831466,20.9468,615.676,-0.26252,0.0,0.0
438,109.25,43.0322,45.9888,135.743,104.697,108.608,0.00972237,0.0824935,20.9475,615.676,-0.331792,0.0,0.0
441,110,42.4912,45.7325,132.173,104.684,107.533,0.00967609,0.0819348,20.948,615.656,-0.242911,0.0,0.0
444,110.75,42.1798,46.2196,127.505,104.658,108.995,0.00962407,0.0813697,20.9483,615.646,-0.367292,0.0,0.0
447,111.5,42.084,45.4906,128.221,104.643,107.648,0.00956987,0.0808195,20.9486,615.666,-0.256085,0.0,0.0
450,112.25,42.3538,45.5439,130.203,104.624,107.525,0.00952568,0.0803594,20.949,615.656,-0.247354,0.0,0.0
453,113,42.503,45.1691,131.696,104.609,106.884,0.00948548,0.0797889,20.9497,615.646,-0.194596,0.0,0.0
456,113.75,42.4845,45.3264,128.234,104.608,107.825,0.00946886,0.0791638,20.9505,615.606,-0.273943,0.0,0.0
459,114.5,42.1257,45.3602,130.271,104.573,107.322,0.00947617,0.0785216,20.9514,615.616,-0.234792,0.0,0.0
462,115.25,42.1086,44.9603,129.695,104.572,108.255,0.00950549,0.0779549,20.9521,615.616,-0.31308,0.0,0.0
465,116,41.9212,44.8642,133.154,104.572,108.158,0.00954717,0.077491,20.9526,615.616,-0.305017,0.0,0.0
468,116.75,41.4733,45.017,130.983,104.549,108.261,0.00958622,0.0770657,20.9529,615.616,-0.31556,0.0,0.0
471,117.5,42.0172,44.7336,131.335,104.528,107.843,0.00958676,0.0766038,20.9536,615.616,-0.282413,0.0,0.0
474,118.25,41.2923,44.6781,131.515,104.529,107.931,0.00954987,0.076108,20.9546,615.616,-0.289645,0.0,0.0
477,119,41.5335,44.5433,131.87,104.532,107.983,0.00947961,0.075585,20.9554,615.626,-0.293797,0.0,0.0
480,119.75,41.3686,44.1278,133.459,104.517,108.022,0.00937644,0.0750078,20.9562,615.596,-0.298429,0.0,0.0
483,120.5,40.9663,44.0682,131.703,104.491,107.873,0.0092791,0.0742518,20.9572,615.596,-0.288168,0.0,0.0
486,121.25,41.2119,44.4117,131.643,104.498,107.667,0.0091765,0.0734255,20.9579,615.596,-0.270268,0.0,0.0
489,122,41.0788,44.4715,135.323,104.507,107.396,0.00908821,0.0726926,20.9584,615.556,-0.246657,0.0,0.0
492,122.75,41.2143,44.4843,130.156,104.484,107.196,0.00903649,0.0719351,20.9593,615.556,-0.231827,0.0,0.0
495,123.5,41.1439,44.2259,136.468,104.472,107.102,0.00902224,0.0712176,20.9605,615.526,-0.224873,0.0,0.0
498,124.25,40.9471,44.5174,128.837,104.466,107.131,0.00902451,0.0706242,20.9616,615.526,-0.22786,0.0,0.0
501,125,40.6505,44.1069,132.173,104.48,106.92,0.00903224,0.0700933,20.9623,615.526,-0.208744,0.0,0.0
504,125.75,40.8379,43.9301,128.43,104.471,107.453,0.009039,0.0696701,20.9629,615.536,-0.254591,0.0,0.0
507,126.5,40.5088,44.162,134.105,104.442,107.782,0.00901324,0.0692997,20.9633,615.546,-0.284722,0.0,0.0
510,127.25,40.3251,43.2556,134.485,104.451,107.702,0.00899447,0.0689511,20.9636,615.506,-0.277264,0.0,0.0
513,128,40.4721,44.0514,133.952,104.455,107.329,0.00889961,0.068642,20.9639,615.456,-0.245546,0.0,0.0
516,128.75,40.2966,43.2242,131.405,104.453,107.59,0.00879636,0.0683569,20.9643,615.506,-0.267649,0.0,0.0
519,129.5,40.4395,43.1952,133.618,104.44,108.696,0.00869858,0.0680872,20.9649,615.466,-0.361234,0.0,0.0
522,130.25,40.3141,43.8863,129.703,104.42,108.287,0.00861367,0.0678905,20.9654,615.466,-0.328935,0.0,0.0
525,131,40.6185,43.4234,130.4,104.44,108.26,0.00855309,0.0677182,20.9658,615.426,-0.324922,0.0,0.0
528,131.75,40.2301,42.9285,128.771,104.449,107.936,0.0085112,0.0675431,20.9661,615.436,-0.297065,0.0,0.0
531,132.5,39.7415,43.3783,129.959,104.428,108.355,0.00847527,0.0674016,20.9662,615.476,-0.333918,0.0,0.0
534,133.25,39.5788,42.5484,135.455,104.428,107.595,0.00843778,0.0672854,20.9664,615.476,-0.270202,0.0,0.0
537,134,39.5947,42.7901,132.121,104.426,107.504,0.00839115,0.0671883,20.9665,615.486,-0.262783,0.0,0.0
540,134.75,39.4852,42.6839,130.497,104.453,107.894,0.00833446,0.0671313,20.9666,615.446,-0.293146,0.0,0.0
543,135.5,39.5704,42.6312,128.359,104.448,107.728,0.0082755,0.0670956,20.9666,615.426,-0.279711,0.0,0.0
546,136.25,39.7238,42.6634,131.316,104.444,107.931,0.00821891,0.0669715,20.9667,615.426,-0.296999,0.0,0.0
549,137,38.931,42.719,132.652,104.454,108.302,0.00816379,0.0668593,20.9667,615.386,-0.327254,0.0,0.0
552,137.75,39.5039,42.9147,134.891,104.48,107.396,0.00810889,0.0667403,20.9667,615.376,-0.249038,0.0,0.0
555,138.5,39.3514,42.759,129.191,104.484,107.075,0.00805516,0.0666929,20.9667,615.336,-0.221527,0.0,0.0
558,139.25,39.2709,42.419,128.772,104.469,108.058,0.007999,0.0666365,20.9667,615.346,-0.305527,0.0,0.0
561,140,39.538,42.6218,132.515,104.488,108.06,0.00795806,0.0665583,20.9667,615.326,-0.304073,0.0,0.0
564,140.75,39.5222,42.4025,134.09,104.502,107.853,0.0078867,0.0664229,20.9669,615.326,-0.285465,0.0,0.0
567,141.5,38.0458,40.4162,130.917,104.511,107.972,0.00781698,0.0662416,20.967,615.336,-0.294652,0.0,0.0
570,142.25,37.2047,40.7935,129.726,104.501,107.682,0.00773599,0.0660743,20.9671,615.316,-0.271303,0.0,0.0
573,143,37.4913,41.3019,130.551,104.513,107.993,0.00768558,0.0658011,20.9672,615.306,-0.296225,0.0,0.0
576,143.75,37.5487,40.1285,130.341,104.525,107.917,0.00760096,0.0655375,20.9672,615.346,-0.288879,0.0,0.0
579,144.5,37.8766,41.5701,134.69,104.523,108.631,0.00751171,0.0652904,20.9673,615.336,-0.34871,0.0,0.0
582,145.25,37.1243,40.5083,129.217,104.513,107.591,0.00743507,0.0650868,20.9678,615.296,-0.262534,0.0,0.0
585,146,38.2026,40.4412,132.16,104.521,107.669,0.0073713,0.0649827,20.9683,615.286,-0.268449,0.0,0.0
588,146.75,37.5667,40.3868,133.378,104.528,108.708,0.00731764,0.0649059,20.9687,615.326,-0.354668,0.0,0.0
591,147.5,37.0015,40.5397,134.75,104.519,108.052,0.00728355,0.0649241,20.969,615.306,-0.300742,0.0,0.0
594,148.25,37.3425,40.5491,125.919,104.511,107.592,0.00726084,0.0650942,20.9692,615.326,-0.262792,0.0,0.0
597,149,37.8562,40.3977,128.775,104.498,107.597,0.00724428,0.065177,20.9693,615.316,-0.264396,0.0,0.0
600,149.75,37.2529,40.3634,132.28,104.489,107.648,0.007219,0.0651691,20.9694,615.306,-0.269432,0.0,0.0
603,150.5,37.2104,40.1637,134.525,104.51,107.894,0.007178,0.0650768,20.9695,615.286,-0.288319,0.0,0.0
606,151.25,37.2269,40.2357,131.925,104.504,108.345,0.00709548,0.0649133,20.9702,615.276,-0.326476,0.0,0.0
609,152,36.7118,39.926,131.628,104.491,107.702,0.0069826,0.064753,20.9707,615.256,-0.273751,0.0,0.0
612,152.75,36.4613,40.4421,130.772,104.494,108.235,0.00684851,0.0644599,20.9711,615.256,-0.318174,0.0,0.0
615,153.5,36.9696,39.6921,131.667,104.509,108.596,0.00669372,0.0641637,20.9713,615.276,-0.347047,0.0,0.0
618,154.25,37.0898,39.589,133.808,104.499,107.831,0.00656971,0.0639127,20.9715,615.256,-0.283958,0.0,0.0
621,155,37.1363,40.0333,133.661,104.482,107.514,0.0064602,0.0635338,20.9719,615.246,-0.258775,0.0,0.0
624,155.75,36.8427,40.1855,131.161,104.48,107.69,0.00637445,0.0630928,20.9725,615.236,-0.273685,0.0,0.0
627,156.5,36.8613,39.4999,131.191,104.486,107.737,0.00630184,0.0626433,20.973,615.206,-0.277199,0.0,0.0
630,157.25,36.6885,40.053,130.978,104.463,107.482,0.00622754,0.0622168,20.9734,615.186,-0.257719,0.0,0.0
633,158,36.5888,39.6754,129.829,104.451,107.308,0.00614221,0.0618785,20.9736,615.176,-0.244112,0.0,0.0
636,158.75,36.7521,40.0151,133.066,104.456,108.375,0.00604573,0.0616201,20.9745,615.186,-0.333099,0.0,0.0
639,159.5,37.0924,40.0495,134.086,104.453,107.635,0.00593953,0.0612947,20.975,615.196,-0.271409,0.0,0.0
642,160.25,36.3708,39.4392,128.156,104.44,108.154,0.00582127,0.0610438,20.9755,615.236,-0.316081,0.0,0.0
645,161,37.4082,40.2566,127.756,104.433,107.375,0.0057276,0.060819,20.9758,615.266,-0.251296,0.0,0.0
648,161.75,36.8357,40.5847,132.983,104.453,107.825,0.00565613,0.0605933,20.976,615.286,-0.287326,0.0,0.0
651,162.5,37.1936,40.1869,132.406,104.46,107.093,0.00560402,0.0604092,20.9762,615.266,-0.225223,0.0,0.0
654,163.25,36.7095,39.3662,133.595,104.458,107.519,0.00555717,0.0602751,20.9763,615.276,-0.261292,0.0,0.0
657,164,36.9986,39.9966,128.433,104.457,107.693,0.00551647,0.0601772,20.9764,615.246,-0.275933,0.0,0.0
660,164.75,36.4634,39.9241,129.365,104.46,107.521,0.00547561,0.0600373,20.9765,615.246,-0.261268,0.0,0.0
663,165.5,36.8848,40.1034,132.098,104.48,107.3,0.00542469,0.0599061,20.9765,615.226,-0.24088,0.0,0.0
666,166.25,36.6908,39.2815,132.186,104.484,107.97,0.00537137,0.0597383,20.9766,615.216,-0.296876,0.0,0.0
669,167,36.8908,39.6725,129.243,104.472,107.496,0.0053202,0.0594925,20.977,615.256,-0.258091,0.0,0.0
672,167.75,37.0648,39.3734,131.83,104.495,107.613,0.0052705,0.0592996,20.9775,615.276,-0.265945,0.0,0.0
675,168.5,36.7527,40.06,130.304,104.507,108.091,0.00522061,0.0591243,20.9779,615.226,-0.30504,0.0,0.0
678,169.25,36.9985,39.312,134.07,104.519,107.912,0.00517841,0.0589471,20.9782,615.236,-0.288998,0.0,0.0
681,170,37.4214,39.1822,133.14,104.518,107.056,0.00513152,0.0587006,20.9784,615.236,-0.217102,0.0,0.0
684,170.75,37.0176,39.5333,129.394,104.519,107.937,0.00508458,0.0584921,20.9786,615.196,-0.291031,0.0,0.0
687,171.5,37.1429,39.8542,132.468,104.537,107.566,0.00504031,0.0582907,20.9789,615.246,-0.258368,0.0,0.0
690,172.25,36.2287,38.705,130.483,104.551,107.306,0.0050055,0.0581302,20.9795,615.206,-0.235246,0.0,0.0
693,173,36.5238,39.0342,131.756,104.555,107.904,0.00498231,0.0580074,20.98,615.196,-0.285186,0.0,0.0
696,173.75,36.5013,38.6811,131.882,104.554,108.327,0.00497098,0.0578592,20.9805,615.176,-0.320643,0.0,0.0
699,174.5,36.4055,38.901,131.849,104.589,108.354,0.00495034,0.0577511,20.9809,615.176,-0.319827,0.0,0.0
702,175.25,36.6805,39.6004,128.571,104.601,107.924,0.00490802,0.0576512,20.9813,615.186,-0.28292,0.0,0.0
705,176,36.7463,39.1037,132.651,104.606,107.255,0.00486553,0.0575421,20.9815,615.186,-0.226174,0.0,0.0
708,176.75,36.6279,38.8134,133.193,104.597,108.172,0.00480978,0.0574625,20.9817,615.196,-0.303995,0.0,0.0
711,177.5,37.4421,38.8933,132.775,104.617,108.022,0.00475466,0.0573901,20.9818,615.206,-0.289801,0.0,0.0
714,178.25,35.9609,38.9233,130.724,104.638,107.835,0.0047104,0.0573126,20.9819,615.196,-0.272242,0.0,0.0
717,179,36.6229,39.3135,133.797,104.649,106.827,0.00468259,0.0572288,20.9819,615.186,-0.186312,0.0,0.0
720,179.75,36.8633,39.4997,134.564,104.647,107.313,0.00467115,0.0571559,20.982,615.166,-0.227575,0.0,0.0
723,180.5,36.835,39.0942,130.884,104.668,107.829,0.00466281,0.0570833,20.9825,615.135,-0.269108,0.0,0.0
726,181.25,36.6248,39.131,134.658,104.684,107.556,0.00464063,0.0570695,20.983,615.146,-0.244831,0.0,0.0
729,182,36.5994,38.9968,134.756,104.692,107.969,0.0046176,0.0570183,20.9834,615.135,-0.278851,0.0,0.0
732,182.75,36.8381,40.0609,127.959,104.687,107.449,0.00456893,0.0569057,20.9837,615.126,-0.235522,0.0,0.0
735,183.5,36.9776,39.3383,127.756,104.698,108.47,0.00447894,0.056725,20.9839,615.105,-0.320079,0.0,0.0
738,184.25,36.7796,39.1618,130.078,104.718,108.175,0.00434461,0.056437,20.9839,615.065,-0.293782,0.0,0.0
741,185,36.5151,39.284,130.187,104.728,108.19,0.00421953,0.0561838,20.9838,615.055,-0.294186,0.0,0.0
744,185.75,36.5444,38.7008,129.619,104.733,107.899,0.00411678,0.0559253,20.9837,615.035,-0.269379,0.0,0.0
747,186.5,36.615,38.5913,130.297,104.763,108.645,0.00404252,0.0557086,20.9837,615.055,-0.329125,0.0,0.0
750,187.25,36.0035,38.9594,127.389,104.776,107.805,0.00398949,0.0555386,20.9841,615.035,-0.257841,0.0,0.0
753,188,36.5335,38.8815,129.216,104.786,107.6,0.00396667,0.0554147,20.9844,615.045,-0.239639,0.0,0.0
756,188.75,36.4396,38.7551,134.799,104.791,107.23,0.00395374,0.0553244,20.9846,615.035,-0.208132,0.0,0.0
759,189.5,35.936,38.5189,131.954,104.807,107.337,0.0039459,0.0552585,20.9848,615.025,-0.215778,0.0,0.0
762,190.25,36.5065,38.7036,132.396,104.833,107.498,0.00392784,0.0551831,20.9849,615.035,-0.227012,0.0,0.0
765,191,36.6161,38.8008,131.47,104.855,107.18,0.00388967,0.0551093,20.985,615.015,-0.198384,0.0,0.0
768,191.75,36.1167,38.9868,134.237,104.857,108.017,0.00385344,0.0550431,20.9851,615.005,-0.268565,0.0,0.0
771,192.5,36.2533,38.6067,127.64,104.866,108.307,0.00380592,0.0549812,20.9851,615.015,-0.292065,0.0,0.0
774,193.25,36.2082,38.2035,131.799,104.899,108.4,0.00376265,0.0549302,20.9851,615.055,-0.296923,0.0,0.0
777,194,36.1051,38.408,128.695,104.935,108.677,0.00372353,0.0548931,20.9852,615.055,-0.316958,0.0,0.0
780,194.75,35.8676,38.9222,129.873,104.931,108.539,0.00368837,0.0548523,20.9852,615.055,-0.305801,0.0,0.0
783,195.5,36.4891,38.6354,133.639,104.936,108.501,0.00365287,0.0548383,20.9852,615.045,-0.302183,0.0,0.0
786,196.25,36.4709,38.6816,130.268,104.958,107.98,0.00362279,0.0548651,20.9852,615.015,-0.256697,0.0,0.0
789,197,36.3671,38.0356,127.219,104.991,108.172,0.00360087,0.054787,20.9852,615.005,-0.270031,0.0,0.0
792,197.75,36.5177,38.0678,128.344,104.999,108.391,0.00358099,0.0546797,20.9852,614.975,-0.28759,0.0,0.0
795,198.5,36.1307,38.8197,132.18,105.004,108.036,0.00355986,0.0545152,20.9852,614.995,-0.257559,0.0,0.0
798,199.25,36.68,38.36,131.715,105.024,109.114,0.00352688,0.05445,20.9852,614.965,-0.345564,0.0,0.0
801,200,35.9031,38.7723,131.793,105.046,109.361,0.00348315,0.0544258,20.9852,614.955,-0.364076,0.0,0.0
804,200.75,36.2829,38.8109,130.52,105.071,107.474,0.00343122,0.0543496,20.9852,614.945,-0.20458,0.0,0.0
807,201.5,36.1641,38.3812,134.537,105.055,109.245,0.00337343,0.0542393,20.9852,614.965,-0.353753,0.0,0.0
810,202.25,36.3101,38.1735,133.682,105.061,108.301,0.00331552,0.05415,20.9852,614.965,-0.274808,0.0,0.0
813,203,36.3927,38.8127,130.484,105.09,109.043,0.0032733,0.0541095,20.9852,614.955,-0.334019,0.0,0.0
816,203.75,36.5507,38.4016,134.133,105.106,108.206,0.00325304,0.0541581,20.9852,614.955,-0.262939,0.0,0.0
819,204.5,36.4046,38.5643,131.445,105.108,108.316,0.00325187,0.0541935,20.9852,614.955,-0.271977,0.0,0.0
822,205.25,36.6536,38.3474,132.027,105.127,108.429,0.00327427,0.0542193,20.9852,614.945,-0.279746,0.0,0.0
825,206,36.4941,38.6581,127.079,105.13,108.19,0.00331393,0.054156,20.9852,614.935,-0.259539,0.0,0.0
828,206.75,36.6846,38.4946,129.271,105.148,108.906,0.00338273,0.0540748,20.9852,614.915,-0.317668,0.0,0.0
831,207.5,36.4216,38.5991,128.892,105.144,109.013,0.00347508,0.0540157,20.9857,614.925,-0.326889,0.0,0.0
834,208.25,36.3974,38.3326,129.919,105.158,108.029,0.00355474,0.0539725,20.9862,614.915,-0.243619,0.0,0.0
837,209,36.4944,38.3589,132.135,105.17,108.381,0.00361807,0.0539411,20.9865,614.895,-0.272034,0.0,0.0
840,209.75,36.6397,38.2942,131.554,105.184,108.331,0.00365683,0.0539045,20.9867,614.905,-0.266677,0.0,0.0
843,210.5,35.9042,38.2157,132.705,105.2,108.712,0.00368194,0.0538792,20.9867,614.885,-0.297053,0.0,0.0
846,211.25,36.7599,38.4893,137.477,105.19,108.919,0.00366449,0.053873,20.9866,614.865,-0.315114,0.0,0.0
849,212,36.9633,38.285,129.139,105.215,108.913,0.0036158,0.0538686,20.9866,614.855,-0.312544,0.0,0.0
852,212.75,36.3826,38.5661,127.027,105.234,108.968,0.00354484,0.0538848,20.9866,614.825,-0.315395,0.0,0.0
855,213.5,36.3207,38.1974,134.43,105.243,108.772,0.00344924,0.0538967,20.9866,614.845,-0.298306,0.0,0.0
858,214.25,36.4322,38.7265,131.219,105.231,107.721,0.00336111,0.0539053,20.9866,614.865,-0.211514,0.0,0.0
861,215,36.4846,38.556,131.587,105.247,108.485,0.00328901,0.0538531,20.9866,614.855,-0.274049,0.0,0.0
864,215.75,36.7729,38.6252,134.076,105.257,108.237,0.00322943,0.0538287,20.9865,614.855,-0.25253,0.0,0.0
867,216.5,36.7027,38.3275,127.566,105.251,107.941,0.00319214,0.0538239,20.9865,614.845,-0.228248,0.0,0.0
870,217.25,36.6035,38.1068,128.907,105.26,108.1,0.00316758,0.0538327,20.9865,614.875,-0.240827,0.0,0.0
873,218,36.8103,38.2867,130.821,105.278,108.639,0.00316196,0.0537708,20.9865,614.835,-0.28428,0.0,0.0
876,218.75,36.6414,37.8288,131.603,105.3,108.185,0.00315988,0.0536964,20.9865,614.845,-0.244468,0.0,0.0
879,219.5,36.5502,38.3682,133.938,105.295,108.675,0.00315282,0.0536422,20.9865,614.845,-0.285741,0.0,0.0
882,220.25,36.5465,38.3438,133.079,105.293,108.599,0.00313015,0.053589,20.9865,614.835,-0.279601,0.0,0.0
885,221,36.4824,38.5912,132.412,105.298,108.461,0.00310011,0.0535444,20.9865,614.835,-0.267711,0.0,0.0
888,221.75,36.4735,38.2377,129.052,105.318,108.539,0.00306339,0.0535314,20.9865,614.855,-0.27249,0.0,0.0
891,222.5,36.1209,38.049,131.098,105.32,108.405,0.00302115,0.0535219,20.9865,614.835,-0.2612,0.0,0.0
894,223.25,36.525,38.4945,129.57,105.313,109.021,0.00295986,0.053515,20.9865,614.855,-0.312938,0.0,0.0
897,224,36.288,38.5032,133.029,105.327,108.419,0.00293764,0.0534709,20.9865,614.815,-0.261673,0.0,0.0
900,224.75,36.3097,37.9604,130.868,105.349,108.6,0.00290496,0.0534251,20.9865,614.825,-0.274962,0.0,0.0
903,225.5,36.6329,38.1949,131.267,105.347,108.613,0.0028734,0.0533643,20.9865,614.815,-0.276193,0.0,0.0
906,226.25,36.1162,38.4473,132.088,105.33,108.69,0.00283713,0.0532611,20.9865,614.815,-0.284046,0.0,0.0
909,227,36.7515,38.496,132.228,105.33,108.782,0.00277745,0.0532237,20.9865,614.765,-0.291676,0.0,0.0
912,227.75,36.3252,37.9174,131.584,105.353,109.093,0.00271434,0.0531805,20.9865,614.765,-0.315551,0.0,0.0
915,228.5,35.8771,38.0184,132.768,105.358,108.598,0.00265288,0.0531295,20.9865,614.785,-0.273933,0.0,0.0
918,229.25,36.3864,37.8856,128.878,105.348,108.824,0.00259594,0.0531471,20.9872,614.795,-0.293601,0.0,0.0
921,230,36.1405,38.1917,130.859,105.342,108.081,0.00254221,0.0531832,20.9876,614.785,-0.232222,0.0,0.0
924,230.75,36.6442,38.3229,132.407,105.361,108.124,0.00250303,0.053151,20.9879,614.775,-0.234136,0.0,0.0
927,231.5,36.2728,38.6921,130.651,105.365,108.864,0.00247273,0.0531001,20.9882,614.755,-0.295515,0.0,0.0
930,232.25,35.994,38.905,134.161,105.382,108.403,0.00245064,0.0530586,20.9884,614.765,-0.255671,0.0,0.0
933,233,36.7649,37.9026,132.817,105.358,108.462,0.00244327,0.0530406,20.9885,614.765,-0.262598,0.0,0.0
936,233.75,36.0777,38.2409,133.821,105.36,109.033,0.0024424,0.053096,20.9885,614.795,-0.309953,0.0,0.0
939,234.5,36.039,37.3888,128.532,105.362,108.626,0.0024495,0.0531654,20.9885,614.765,-0.275973,0.0,0.0
942,235.25,35.6283,37.7593,134.112,105.364,109.061,0.00246865,0.0531873,20.9885,614.755,-0.311905,0.0,0.0
945,236,36.345,38.4268,131.202,105.352,108.155,0.00248841,0.053154,20.9885,614.745,-0.237511,0.0,0.0
948,236.75,36.8549,37.9463,127.726,105.359,109.147,0.00251275,0.0530711,20.9885,614.735,-0.31956,0.0,0.0
951,237.5,36.2553,37.386,132.359,105.368,108.525,0.00254623,0.0530655,20.9885,614.745,-0.267005,0.0,0.0
954,238.25,36.306,37.4216,125.834,105.36,108.265,0.00257063,0.0530847,20.9885,614.755,-0.245971,0.0,0.0
957,239,36.3696,38.2646,133.646,105.348,109.096,0.00262342,0.0530987,20.9885,614.755,-0.316217,0.0,0.0
960,239.75,36.2264,37.6748,128.75,105.339,109.232,0.00269135,0.0530815,20.9885,614.745,-0.328213,0.0,0.0
963,240.5,36.0977,38.1802,130.866,105.362,108.476,0.00276249,0.0530573,20.9885,614.715,-0.263437,0.0,0.0
966,241.25,36.2311,38.5766,133.336,105.355,108.035,0.00282982,0.0531373,20.9885,614.705,-0.227198,0.0,0.0
969,242,36.5618,38.1179,129.881,105.337,108.53,0.00286665,0.0532028,20.9885,614.685,-0.270157,0.0,0.0
972,242.75,36.3126,38.0038,133.702,105.329,109.706,0.00287507,0.0532628,20.9887,614.665,-0.368302,0.0,0.0
975,243.5,36.5201,37.8216,135.264,105.342,108.004,0.00286367,0.0532286,20.9893,614.695,-0.225713,0.0,0.0
978,244.25,35.5176,37.8884,129.085,105.344,108.591,0.0028321,0.0531625,20.9898,614.705,-0.274624,0.0,0.0
981,245,36.2314,37.9315,129.208,105.323,109.167,0.0028058,0.0531041,20.99,614.715,-0.324268,0.0,0.0
984,245.75,36.1927,38.0248,131.342,105.31,108.768,0.00275637,0.0530738,20.9902,614.695,-0.292295,0.0,0.0
987,246.5,36.4818,38.068,128.251,105.323,109.069,0.00271052,0.0530654,20.9904,614.665,-0.316121,0.0,0.0
990,247.25,36.0639,38.4057,131.241,105.319,109.088,0.00267292,0.053065,20.9905,614.675,-0.318032,0.0,0.0
993,248,35.8214,37.793,129.965,105.304,108.57,0.00264026,0.0530649,20.9906,614.675,-0.27629,0.0,0.0
996,248.75,35.7829,37.7098,136.572,105.301,108.278,0.00262519,0.0530503,20.9906,614.675,-0.252178,0.0,0.0
999,249.5,36.5505,37.3737,132.527,105.291,108.89,,0.0530151,,614.665,-0.30396,0.0,0.0
1002,250.25,36.4485,38.1141,133.434,105.288,108.109,,0.0529894,,614.665,-0.239096,0.0,0.0
1005,251,36.0595,37.5618,129.342,105.294,108.249,,0.0529923,,614.655,-0.25031,0.0,0.0
1008,251.75,36.1023,37.9257,133.241,105.273,108.528,,0.0530313,,614.635,-0.275446,0.0,0.0
1011,252.5,36.2769,37.9333,131.49,105.255,108.782,,,,614.625,-0.298102,0.0,0.0
1014,253.25,36.0373,37.9174,128.646,105.267,109.619,,,,614.645,-0.366453,0.0,0.0
1017,254,36.3259,37.7969,131.125,105.248,109.274,,,,614.655,-0.339529,0.0,0.0
1020,254.75,36.5817,38.1662,137.262,105.229,107.86,,,,614.655,-0.223385,0.0,0.0
1023,255.5,36.748,37.8949,130.837,105.23,108.782,,,,614.625,-0.300284,0.0,0.0
1026,256.25,35.9984,38.4674,129.817,105.22,108.662,,,,614.635,-0.291123,0.0,0.0
1029,257,36.1068,37.9917,129.842,105.222,107.806,,,,614.655,-0.21947,0.0,0.0
1032,257.75,36.0518,38.0202,131.577,105.19,108.621,,,,614.635,-0.290365,0.0,0.0
1035,258.5,36.5381,37.8319,130.797,105.172,108.709,,,,614.615,-0.299256,0.0,0.0
1038,259.25,36.3151,38.0184,128.858,105.182,109.041,,,,614.605,-0.325971,0.0,0.0
1041,260,35.9694,38.2515,127.553,105.166,108.261,,,,614.625,-0.262441,0.0,0.0
1042,260.25,36.555,37.4967,130.513,105.165,108.245,,,,614.625,-0.261077,0.0,0.0