File: 01_Data/Polyester_Microfiber_Sheet/Cone/Polyester_Microfiber_Sheet_Cone_HF50Scan_220512_R3.csv
Names,Time,Stack TC,Smoke TC,Exh Press,Smoke Comp,Smoke Meas,CO Meter,CO2 Meter,O2 Meter,Sample Mass,Ext Coeff,Start Test,Flame Verif
Chan Gain,,500,500,1,1,1,1,1,1,1,1,1.0,1.0
Offset,,0,0,0.135828,0,0,0,0,0,0,0,0.0,0.0
Gain,,1,1,25.011,13.8491,15.2622,1,1,1,1.00087,1.03118,1.0,1.0
Units,sec,C,C,Pa,%,%,%,%,%,g,/m,,
Baseline,,40.2986,41.627,132.045,104.698,108.817,0.000443894,0.0432727,20.9986,-448.015,-0.348903,,
2,0.25,38.7643,40.3066,132.197,104.446,108.206,0.000613915,0.043599,20.9967,586.14,-0.319893,0.0,0.0
4,0.75,37.7203,38.9454,134.014,104.423,108.347,0.000660933,0.0436219,20.9966,586.24,-0.333621,0.0,0.0
6,1.25,37.0283,39.092,129.053,104.425,109.097,0.000705317,0.0436276,20.9964,586.12,-0.395941,0.0,0.0
8,1.75,36.5829,38.3283,130.708,104.42,108.786,0.000741268,0.0436537,20.9964,586.21,-0.370472,0.0,0.0
10,2.25,37.2829,39.1846,133.619,104.426,107.681,0.000764633,0.0436751,20.9963,586.13,-0.277626,0.0,0.0
12,2.75,37.0885,38.3645,133.413,104.425,108.031,0.000778379,0.0437116,20.9969,586.16,-0.307111,0.0,0.0
14,3.25,37.1604,38.3881,132.697,104.424,107.64,0.000789513,0.043782,20.9974,586.2,-0.274327,0.0,0.0
16,3.75,37.2092,38.6443,132.714,104.401,109.246,0.000798532,0.0438391,20.9977,586.16,-0.4103,0.0,0.0
18,4.25,37.098,38.7074,132.644,104.409,107.805,0.000788833,0.0438853,20.9981,586.22,-0.289529,0.0,0.0
20,4.75,37.081,39.0522,133.811,104.403,108.236,0.000780977,0.0439232,20.9983,586.14,-0.326194,0.0,0.0
22,5.25,36.9176,39.0438,131.996,104.404,107.914,0.000766308,0.0439542,20.9985,586.15,-0.299148,0.0,0.0
24,5.75,37.3576,38.2637,131.712,104.387,109.064,0.00074695,0.0439794,20.9987,586.18,-0.396493,0.0,0.0
26,6.25,37.3198,38.2063,140.627,104.41,108.282,0.000718498,0.043971,20.9988,586.17,-0.32935,0.0,0.0
28,6.75,37.133,38.2362,131.096,104.381,108.571,0.000683958,0.0439384,20.9989,586.18,-0.356006,0.0,0.0
30,7.25,37.2024,38.4858,128.233,104.389,108.415,0.000636839,0.043912,20.999,586.16,-0.342301,0.0,0.0
32,7.75,36.8591,38.4445,130.1,104.387,108.752,0.000581445,0.0439179,20.9991,586.15,-0.370537,0.0,0.0
34,8.25,36.9448,39.044,132.825,104.383,108.048,0.000512994,0.0439227,20.9992,586.11,-0.312177,0.0,0.0
36,8.75,37.1396,38.7186,134.126,104.374,109.002,0.000436326,0.044022,20.999,586.19,-0.392415,0.0,0.0
38,9.25,36.5944,38.9265,130.512,104.377,107.46,0.000353851,0.0441024,20.9986,586.2,-0.263271,0.0,0.0
40,9.75,37.1207,38.3215,131.408,104.385,108.077,0.00026871,0.0442179,20.9983,586.21,-0.314411,0.0,0.0
42,10.25,37.2478,38.7967,131.796,104.375,107.52,0.000199746,0.0443566,20.9981,586.19,-0.268549,0.0,0.0
44,10.75,37.0412,38.5317,139.42,104.376,107.999,0.00013752,0.0444977,20.9979,586.16,-0.308592,0.0,0.0
46,11.25,37.3615,38.5363,133.312,104.366,108.911,8.13874e-05,0.0446378,20.9978,586.18,-0.385607,0.0,0.0
48,11.75,37.0056,38.1311,129.284,104.376,107.458,5.43807e-05,0.0447872,20.9972,586.19,-0.263221,0.0,0.0
50,12.25,36.7203,38.3251,132.625,104.376,107.844,4.91198e-05,0.0449405,20.9967,586.13,-0.295592,0.0,0.0
52,12.75,37.0087,37.9628,131.57,104.387,108.526,4.48585e-05,0.0450647,20.9964,586.13,-0.351728,0.0,0.0
54,13.25,36.8166,38.4723,134.412,104.379,108.368,8.37701e-05,0.0452472,20.9961,586.13,-0.339215,0.0,0.0
56,13.75,36.8097,38.3651,133.649,104.382,108.273,0.000115288,0.045395,20.9958,586.11,-0.331061,0.0,0.0
58,14.25,37.0799,38.0824,131.524,104.377,108.36,0.000152931,0.0455075,20.9956,586.13,-0.33874,0.0,0.0
60,14.75,36.9137,38.1684,130.079,104.382,108.446,0.000183422,0.0455922,20.9955,586.14,-0.345488,0.0,0.0
62,15.25,37.121,38.2975,135.362,104.381,108.324,0.000203273,0.0456752,20.9954,586.14,-0.335452,0.0,0.0
64,15.75,37.2356,38.1161,130.519,104.385,107.925,0.000219353,0.0457553,20.9955,586.16,-0.301657,0.0,0.0
66,16.25,37.2279,37.7524,135.05,104.39,108.257,0.000227532,0.0458202,20.9958,586.13,-0.329042,0.0,0.0
68,16.75,36.7744,38.2335,131.795,104.392,109.488,0.000234157,0.0458182,20.996,586.14,-0.431176,0.0,0.0
70,17.25,36.8312,38.0438,133.334,104.385,108.678,0.000239524,0.0458166,20.9962,586.19,-0.364597,0.0,0.0
72,17.75,36.5653,37.5573,134.425,104.425,108.241,0.000249927,0.0458426,20.9964,586.15,-0.324643,0.0,0.0
74,18.25,36.7445,38.3701,131.339,104.403,108.808,0.000258354,0.0458636,20.9965,586.14,-0.373868,0.0,0.0
76,18.75,36.8677,38.6825,133.415,104.408,109.578,0.000270025,0.0458533,20.9966,586.1,-0.437172,0.0,0.0
78,19.25,37.3141,38.3222,130.513,104.402,108.668,0.000279479,0.045845,20.9967,586.07,-0.362242,0.0,0.0
80,19.75,36.5224,38.0195,133.873,104.409,109.167,0.000287136,0.0458024,20.9968,586.08,-0.403121,0.0,0.0
82,20.25,36.708,38.0512,130.096,104.404,108.594,0.000293339,0.0457356,20.9969,586.12,-0.35593,0.0,0.0
84,20.75,36.7265,37.8611,132.306,104.419,108.557,0.000294729,0.0456814,20.9969,586.13,-0.351507,0.0,0.0
86,21.25,36.8198,37.8177,129.709,104.407,108.916,0.000295855,0.0456239,20.9969,586.13,-0.382444,0.0,0.0
88,21.75,36.3773,38.118,131.524,104.408,107.914,0.000293579,0.0455773,20.997,586.13,-0.298818,0.0,0.0
90,22.25,36.8554,38.3971,135.469,104.396,108.67,0.000288868,0.0455532,20.997,586.17,-0.362911,0.0,0.0
92,22.75,37.2101,38.1748,137.59,104.428,107.767,0.000284413,0.0455337,20.997,586.17,-0.284679,0.0,0.0
94,23.25,37.0293,38.5197,130.139,104.419,108.864,0.000280231,0.0454634,20.997,586.16,-0.377084,0.0,0.0
96,23.75,37.5074,38.3621,129.51,104.425,108.927,0.000276843,0.0454064,20.9971,586.14,-0.381832,0.0,0.0
98,24.25,36.7532,38.5111,133.427,104.431,108.132,0.0002741,0.0453602,20.9971,586.16,-0.315057,0.0,0.0
100,24.75,37.1,38.0405,134.819,104.455,109.023,0.000271877,0.0453228,20.9971,586.12,-0.387199,0.0,0.0
102,25.25,37.3339,38.6334,132.118,104.436,109.39,0.000268866,0.0452709,20.9971,586.09,-0.419284,0.0,0.0
104,25.75,37.3961,38.4777,133.257,104.454,108.945,0.000266426,0.0452096,20.997,586.11,-0.38074,0.0,0.0
106,26.25,37.0764,38.4498,131.769,104.463,108.272,0.000270507,0.0451599,20.9967,586.09,-0.323954,0.0,0.0
108,26.75,37.4442,38.745,128.718,104.457,109.437,0.000273812,0.0451332,20.9966,586.1,-0.421304,0.0,0.0
110,27.25,37.7452,38.879,132.348,104.46,107.778,0.000284969,0.0451117,20.9964,586.12,-0.282832,0.0,0.0
112,27.75,37.4642,38.313,131.19,104.477,108.451,0.000294007,0.0450942,20.9963,586.11,-0.337677,0.0,0.0
114,28.25,37.3264,38.8267,132.154,104.458,108.675,0.000313445,0.0450801,20.9962,586.11,-0.357917,0.0,0.0
116,28.75,36.5296,38.7411,127.959,104.476,108.004,0.000321732,0.0451368,20.9962,586.1,-0.300456,0.0,0.0
118,29.25,37.2032,38.1586,129.553,104.467,108.414,0.000349238,0.0451828,20.9961,586.1,-0.335488,0.0,0.0
120,29.75,37.3086,38.4774,130.324,104.488,107.286,0.000371517,0.0452064,20.9956,586.1,-0.238968,0.0,0.0
122,30.25,37.5244,38.0548,130.844,104.501,108.454,0.000407755,0.045247,20.9952,586.1,-0.335863,0.0,0.0
124,30.75,37.2213,38.5749,130.479,104.51,107.929,0.000437108,0.0452993,20.9949,586.09,-0.291171,0.0,0.0
126,31.25,37.257,38.3974,133.664,104.505,107.12,0.000485161,0.0454997,20.9946,586.09,-0.223586,0.0,0.0
128,31.75,37.4092,38.5373,133.499,104.533,108.729,0.000545932,0.04566,20.9944,586.09,-0.355975,0.0,0.0
130,32.25,37.5205,38.5961,129.68,104.534,106.847,0.000595158,0.0459341,20.9934,586.1,-0.19795,0.0,0.0
132,32.75,37.456,38.94,135.856,104.562,106.18,0.000699528,0.0473726,20.9925,586.06,-0.138858,0.0,0.0
134,33.25,37.1089,38.5152,133.889,104.559,106.926,0.000784068,0.0485378,20.9881,586.06,-0.202493,0.0,0.0
136,33.75,37.4758,38.3485,132.55,104.559,106.959,0.000943917,0.0532319,20.9846,586.07,-0.205287,0.0,0.0
138,34.25,37.4824,38.5159,129.642,104.56,106.546,0.0010734,0.0570342,20.9785,586.15,-0.170134,0.0,1.0
140,34.75,37.7361,38.7003,131.118,104.583,105.604,0.00128256,0.0641202,20.9707,586.04,-0.0878902,0.0,1.0
142,35.25,37.7194,39.095,126.289,104.592,103.482,0.00154584,0.0734656,20.9643,586.03,0.0964932,0.0,1.0
144,35.75,38.0138,38.9193,127.859,104.619,100.958,0.00188147,0.0810353,20.9482,585.96,0.322187,0.0,1.0
146,36.25,37.7673,38.4987,124.568,104.616,101.31,0.00226347,0.094074,20.9352,585.97,0.290479,0.0,1.0
148,36.75,37.9876,38.8736,125.314,104.631,100.978,0.00284289,0.104635,20.9198,585.96,0.321416,0.0,1.0
150,37.25,37.7495,39.2014,126.315,104.625,97.1334,0.00331223,0.123328,20.9029,585.87,0.672016,0.0,1.0
152,37.75,38.3206,39.1883,128.517,104.642,97.7221,0.00369239,0.138468,20.8893,585.87,0.618855,0.0,1.0
154,38.25,38.2842,38.9237,125.1,104.646,96.0444,0.00455245,0.16198,20.8708,585.81,0.77586,0.0,1.0
156,38.75,38.4756,39.5096,122.94,104.671,95.2671,0.0052491,0.181024,20.8493,585.78,0.851488,0.0,1.0
158,39.25,37.5617,38.357,117.759,104.664,95.825,0.0063671,0.210304,20.8233,585.73,0.798078,0.0,1.0
160,39.75,37.4788,38.049,122.856,104.687,92.5777,0.00727267,0.234021,20.7945,585.62,1.11193,0.0,0.0
162,40.25,37.8335,37.913,120.879,104.682,87.0081,0.00861057,0.264691,20.7555,585.58,1.67278,0.0,0.0
164,40.75,38.5165,38.551,118.182,104.709,86.091,0.00969427,0.299847,20.7098,585.5,1.77093,0.0,0.0
166,41.25,39.7788,39.4791,118.167,104.698,86.1744,0.0111645,0.328323,20.6534,585.47,1.76119,0.0,0.0
168,41.75,40.1783,39.5236,110.926,104.721,84.1455,0.0123554,0.366042,20.5903,585.33,1.97874,0.0,0.0
170,42.25,40.1726,39.4821,114.638,104.725,76.3775,0.0136681,0.409782,20.5253,585.219,2.85518,0.0,0.0
172,42.75,40.5687,40.2215,110.254,104.748,79.6309,0.0150446,0.456383,20.4602,585.109,2.4799,0.0,0.0
174,43.25,41.5328,40.2475,108.478,104.747,77.5419,0.016609,0.504184,20.3988,584.979,2.72021,0.0,0.0
176,43.75,42.0139,40.5921,108.657,104.763,74.7068,0.0178762,0.559164,20.3412,584.849,3.05856,0.0,0.0
178,44.25,42.7518,41.2575,105.106,104.78,75.1884,0.0189026,0.603698,20.2946,584.719,3.00193,0.0,0.0
180,44.75,43.558,42.389,106.321,104.788,74.2694,0.0202786,0.650974,20.2516,584.639,3.11378,0.0,0.0
182,45.25,44.5674,42.4678,110.009,104.794,76.8195,0.0213931,0.689268,20.2119,584.539,2.809,0.0,0.0
184,45.75,46.0575,42.645,101.381,104.805,79.3859,0.0220122,0.725133,20.195,584.449,2.51266,0.0,0.0
186,46.25,46.2923,43.7146,110.754,104.814,77.0538,0.0235222,0.758547,20.1406,584.349,2.78313,0.0,0.0
188,46.75,47.8171,45.2294,108.368,104.816,76.7967,0.0239284,0.78807,20.126,584.239,2.81359,0.0,0.0
190,47.25,48.7763,45.6142,104.818,104.833,73.2862,0.0248234,0.814196,20.101,584.099,3.23827,0.0,0.0
192,47.75,49.7531,46.6247,108.978,104.839,72.6397,0.0255483,0.835358,20.0807,583.978,3.31893,0.0,0.0
194,48.25,50.6044,46.8785,109.639,104.85,72.5452,0.0261355,0.852389,20.0643,583.838,3.33166,0.0,0.0
196,48.75,51.2263,48.0988,112.209,104.855,71.4311,0.0266111,0.859597,20.0523,583.708,3.47209,0.0,0.0
198,49.25,51.6747,48.6835,109.681,104.864,73.3826,0.0268619,0.874879,20.0426,583.638,3.22904,0.0,0.0
200,49.75,52.3055,48.2401,108.78,104.866,71.5773,0.026944,0.877539,20.0387,583.518,3.4545,0.0,0.0
202,50.25,52.6457,49.3266,106.376,104.871,71.003,0.0268171,0.882087,20.0355,583.428,3.52777,0.0,0.0
204,50.75,53.37,49.9555,111.57,104.879,74.7953,0.0265402,0.885772,20.0478,583.348,3.05784,0.0,0.0
206,51.25,53.6753,49.9273,112.433,104.884,74.0794,0.026316,0.872328,20.0578,583.268,3.14524,0.0,0.0
208,51.75,54.2741,50.675,114.384,104.886,77.3575,0.0257757,0.861439,20.0659,583.198,2.75375,0.0,0.0
210,52.25,54.8426,51.5101,117.686,104.896,78.527,0.0250154,0.838271,20.097,583.138,2.6189,0.0,0.0
212,52.75,55.0413,52.0128,117.403,104.889,81.6439,0.0243995,0.819505,20.1222,583.098,2.26622,0.0,0.0
214,53.25,55.3384,52.8201,116.039,104.911,82.0226,0.0232249,0.789725,20.151,582.997,2.22626,0.0,0.0
216,53.75,55.7192,52.8284,120.159,104.908,85.8912,0.0222735,0.765604,20.1817,582.948,1.80913,0.0,0.0
218,54.25,56.0903,53.5185,121.866,104.915,87.5875,0.020946,0.737197,20.2149,582.897,1.63281,0.0,0.0
220,54.75,56.3551,53.5573,118.031,104.909,83.3966,0.0198707,0.706205,20.2493,582.847,2.07577,0.0,0.0
222,55.25,55.8591,53.9233,122.437,104.928,86.8246,0.0187019,0.673318,20.2772,582.787,1.71303,0.0,0.0
224,55.75,56.3643,54.1849,123.606,104.908,87.1655,0.017487,0.639676,20.3186,582.757,1.67587,0.0,0.0
226,56.25,56.1681,54.0535,120.933,104.916,91.0663,0.0163042,0.612426,20.3521,582.697,1.28056,0.0,0.0
228,56.75,56.4782,54.0193,125.209,104.904,91.798,0.0151672,0.577138,20.3872,582.707,1.20719,0.0,0.0
230,57.25,56.3838,54.5935,123.529,104.936,94.6956,0.014084,0.548555,20.4226,582.607,0.928822,0.0,0.0
232,57.75,56.4868,54.3475,123.212,104.912,95.0244,0.0130605,0.516203,20.4618,582.557,0.89539,0.0,0.0
234,58.25,56.6097,54.6023,124.496,104.92,97.6727,0.0122315,0.489997,20.4936,582.567,0.647397,0.0,0.0
236,58.75,56.4472,54.6437,122.418,104.901,97.5344,0.0114009,0.46356,20.5193,582.587,0.65865,0.0,0.0
238,59.25,56.2804,55.0328,129.137,104.909,100.277,0.010585,0.437457,20.5507,582.537,0.408479,0.0,0.0
240,59.75,55.9243,54.6557,125.567,104.897,100.917,0.00984447,0.416313,20.5761,582.537,0.349873,0.0,0.0
242,60.25,55.7279,54.5198,127.637,104.903,101.372,0.00917286,0.39249,20.6055,582.507,0.309692,0.0,0.0
244,60.75,55.6266,55.1106,126.716,104.885,104.144,0.00856977,0.373194,20.6292,582.497,0.0641554,0.0,0.0
246,61.25,55.5142,54.6269,123.207,104.902,104.348,0.00802809,0.354008,20.6542,582.447,0.0479092,0.0,0.0
248,61.75,55.4676,54.9042,126.099,104.877,104.415,0.00755003,0.335267,20.6744,582.417,0.0399502,0.0,0.0
250,62.25,55.4802,54.6017,126.28,104.89,104.636,0.00712744,0.320086,20.6969,582.467,0.0218976,0.0,0.0
252,62.75,55.0033,54.8569,128.407,104.866,106.083,0.00678515,0.302926,20.7152,582.467,-0.104311,0.0,0.0
254,63.25,54.4615,54.2381,126.266,104.879,105.746,0.00646316,0.289026,20.7318,582.427,-0.0744215,0.0,0.0
256,63.75,54.9685,54.5528,126.606,104.857,106.197,0.00620235,0.274286,20.7469,582.387,-0.114914,0.0,0.0
258,64.25,53.8539,53.9013,127.602,104.878,106.008,0.00598618,0.262346,20.7608,582.397,-0.0969304,0.0,0.0
260,64.75,54.2346,54.5897,126.549,104.84,106.519,0.00581109,0.249703,20.7735,582.357,-0.143748,0.0,0.0
262,65.25,54.2786,54.8733,126.795,104.846,106.951,0.00566926,0.239463,20.7837,582.367,-0.179825,0.0,0.0
264,65.75,53.9062,54.1637,129.323,104.827,108.137,0.00559413,0.22837,20.7938,582.347,-0.28121,0.0,0.0
266,66.25,53.9022,54.4171,129.375,104.821,107.857,0.00553327,0.219385,20.8036,582.307,-0.258312,0.0,0.0
268,66.75,53.1629,54.057,127.939,104.808,108.492,0.00551146,0.210677,20.8115,582.297,-0.312493,0.0,0.0
270,67.25,53.2509,54.0281,128.425,104.815,108.351,0.00551854,0.202336,20.8205,582.257,-0.300096,0.0,0.0
272,67.75,53.1271,53.7386,128.126,104.783,108.722,0.00554984,0.194495,20.8278,582.237,-0.33377,0.0,0.0
274,68.25,52.5961,53.2951,128.341,104.782,110.299,0.00559819,0.187167,20.8359,582.267,-0.464108,0.0,0.0
276,68.75,52.754,53.755,127.957,104.758,108.617,0.00565967,0.181232,20.8425,582.267,-0.327236,0.0,0.0
278,69.25,52.2819,53.3557,127.589,104.775,108.18,0.00572954,0.175255,20.8505,582.267,-0.289244,0.0,0.0
280,69.75,51.839,53.3618,128.932,104.743,109.435,0.00580585,0.169363,20.8569,582.217,-0.39637,0.0,0.0
282,70.25,52.2512,53.568,131.805,104.744,109.342,0.00588539,0.163832,20.8621,582.217,-0.388592,0.0,0.0
284,70.75,51.5428,53.1356,129.061,104.72,108.659,0.00594982,0.15867,20.8681,582.227,-0.334009,0.0,0.0
286,71.25,51.9328,53.1788,127.049,104.721,108.988,0.00602831,0.153802,20.873,582.257,-0.361234,0.0,0.0
288,71.75,51.6883,52.7479,131.644,104.702,109.204,0.00611556,0.14924,20.8781,582.237,-0.380757,0.0,0.0
290,72.25,50.9795,52.3833,131.751,104.696,108.885,0.00618624,0.145068,20.8823,582.187,-0.354839,0.0,0.0
292,72.75,51.3311,52.5567,129.253,104.67,109.138,0.00629979,0.14126,20.8859,582.177,-0.37813,0.0,0.0
294,73.25,50.8123,52.4312,130.415,104.666,108.612,0.00639177,0.138175,20.8891,582.207,-0.334765,0.0,0.0
296,73.75,50.6054,52.5534,127.593,104.636,110.248,0.00649529,0.135068,20.8916,582.187,-0.472541,0.0,0.0
298,74.25,51.0069,52.7809,127.523,104.648,109.566,0.00660525,0.132002,20.895,582.177,-0.415472,0.0,0.0
300,74.75,50.4681,52.3896,127.801,104.612,108.549,0.0067214,0.129519,20.8977,582.177,-0.33417,0.0,0.0
302,75.25,50.128,51.927,132.634,104.611,108.772,0.00683985,0.126622,20.9008,582.157,-0.352815,0.0,0.0
304,75.75,49.9423,51.9698,127.592,104.585,109.807,0.0069649,0.124274,20.9033,582.147,-0.440775,0.0,0.0
306,76.25,50.2491,51.8583,131.452,104.6,109.292,0.00709237,0.121863,20.906,582.147,-0.396925,0.0,0.0
308,76.75,50.0332,51.7228,127.843,104.553,109.422,0.00719562,0.119451,20.9088,582.137,-0.411768,0.0,0.0
310,77.25,49.5607,52.1184,131.358,104.557,109.127,0.00736108,0.1171,20.9116,582.127,-0.386997,0.0,0.0
312,77.75,49.7281,51.8614,130.052,104.538,108.497,0.00749509,0.114836,20.9142,582.117,-0.33618,0.0,0.0
314,78.25,49.2713,51.909,131.02,104.528,108.883,0.00767428,0.113003,20.9166,582.127,-0.369192,0.0,0.0
316,78.75,48.8371,51.2057,129.63,104.522,110.206,0.00781942,0.110987,20.9187,582.137,-0.479006,0.0,0.0
318,79.25,49.1594,51.2267,129.21,104.501,109.678,0.00793698,0.109354,20.9205,582.127,-0.437382,0.0,0.0
320,79.75,48.7572,51.4331,127.866,104.482,107.976,0.00811561,0.107388,20.9223,582.117,-0.297564,0.0,0.0
322,80.25,48.6784,51.5123,125.106,104.481,108.824,0.0082603,0.105797,20.9242,582.097,-0.368338,0.0,0.0
324,80.75,49.0955,51.3486,126.795,104.458,109.369,0.00842054,0.103838,20.9258,582.067,-0.415574,0.0,0.0
326,81.25,48.1609,50.8308,129.081,104.455,109.127,0.00855033,0.102251,20.9279,582.077,-0.395849,0.0,0.0
328,81.75,48.5552,50.8078,130.793,104.436,109.087,0.00867213,0.100966,20.9297,582.077,-0.394064,0.0,0.0
330,82.25,48.2221,50.4987,126.69,104.43,108.381,0.0087858,0.0991044,20.9319,582.077,-0.335873,0.0,0.0
332,82.75,48.3441,50.5969,133.193,104.414,108.831,0.00889255,0.0975963,20.9338,582.057,-0.374813,0.0,0.0
334,83.25,48.2382,50.3932,130.514,104.413,108.757,0.00899223,0.0960676,20.9353,582.057,-0.368729,0.0,0.0
336,83.75,47.9569,50.5208,130.513,104.387,108.741,0.00909167,0.0945529,20.9365,582.057,-0.369609,0.0,0.0
338,84.25,47.2092,49.6996,131.73,104.381,108.387,0.00918905,0.0930997,20.9384,582.047,-0.340702,0.0,0.0
340,84.75,47.2455,49.7969,128.341,104.367,109.693,0.00929197,0.0917188,20.9399,582.027,-0.450177,0.0,0.0
342,85.25,47.076,50.324,127.781,104.359,109.979,0.00939699,0.0904616,20.9415,582.037,-0.474463,0.0,0.0
344,85.75,47.0968,50.0197,133.148,104.347,109.019,0.00948205,0.0893186,20.9429,582.017,-0.39619,0.0,0.0
346,86.25,47.0843,49.8736,129.496,104.335,109.748,0.00957438,0.0882687,20.944,582.017,-0.457567,0.0,0.0
348,86.75,47.267,49.8217,127.391,104.332,108.49,0.00967025,0.0873067,20.945,582.017,-0.353538,0.0,0.0
350,87.25,47.0306,49.81,129.258,104.314,108.318,0.0097479,0.0865275,20.9458,582.037,-0.340699,0.0,0.0
352,87.75,46.6603,49.3035,130.611,104.319,107.953,0.00984518,0.0856204,20.9465,582.047,-0.309675,0.0,0.0
354,88.25,46.3792,49.9825,130.114,104.306,109.43,0.00992397,0.0848855,20.9471,582.027,-0.433765,0.0,0.0
356,88.75,46.5506,49.806,128.546,104.299,108.145,0.0100107,0.0841811,20.9478,582.007,-0.327535,0.0,0.0
358,89.25,46.4907,49.7868,131.821,104.29,110.057,0.0101237,0.0835121,20.9488,582.017,-0.486906,0.0,0.0
360,89.75,46.066,49.7436,127.202,104.29,108.381,0.0101621,0.0829703,20.9491,581.987,-0.348074,0.0,0.0
362,90.25,45.7988,49.3589,134.321,104.269,108.33,0.010268,0.0822824,20.9498,581.987,-0.34567,0.0,0.0
364,90.75,46.0881,49.0193,128.172,104.288,108.344,0.010304,0.0817252,20.9503,581.997,-0.345186,0.0,0.0
366,91.25,45.6638,49.2393,129.289,104.264,109.151,0.0103658,0.081025,20.951,581.987,-0.414338,0.0,0.0
368,91.75,45.7035,49.0041,133.037,104.257,108.158,0.0104234,0.0804578,20.9516,581.987,-0.332297,0.0,0.0
370,92.25,45.5083,48.8451,130.619,104.245,108.538,0.0104701,0.0795463,20.952,581.977,-0.365051,0.0,0.0
372,92.75,46.1031,48.272,128.978,104.25,108.516,0.0105079,0.0793012,20.9524,581.967,-0.36275,0.0,0.0
374,93.25,45.3743,48.7969,130.648,104.237,109.363,0.0105309,0.0784667,20.9527,581.957,-0.43427,0.0,0.0
376,93.75,45.2504,48.5768,130.229,104.234,108.669,0.0105495,0.0782423,20.9532,581.957,-0.376944,0.0,0.0
378,94.25,45.5515,48.755,128.167,104.224,109.295,0.0105646,0.0777065,20.9538,581.927,-0.429745,0.0,0.0
380,94.75,45.2367,48.3312,132.445,104.243,108.574,0.0105741,0.0772726,20.9543,581.937,-0.368262,0.0,0.0
382,95.25,45.2352,48.9049,127.729,104.21,108.599,0.0105794,0.0768485,20.9542,581.927,-0.373104,0.0,0.0
384,95.75,45.295,48.7148,132.049,104.22,108.481,0.0105857,0.0764395,20.9541,581.907,-0.362403,0.0,0.0
386,96.25,45.1671,48.5771,132.029,104.208,108.948,0.0105927,0.0761083,20.954,581.857,-0.402298,0.0,0.0
388,96.75,44.6337,48.8089,130.971,104.215,108.635,0.0105983,0.07584,20.9539,581.927,-0.375728,0.0,0.0
390,97.25,45.0379,48.0899,131.103,104.204,108.096,0.0106006,0.0755791,20.9538,581.937,-0.331622,0.0,0.0
392,97.75,44.7145,48.249,133.091,104.201,108.999,0.0106018,0.0753285,20.9538,581.907,-0.407138,0.0,0.0
394,98.25,44.5415,47.8877,131.305,104.192,107.762,0.0105967,0.0751328,20.9537,581.907,-0.304734,0.0,0.0
396,98.75,44.4131,48.4794,130.009,104.194,107.9,0.0105926,0.0749808,20.9537,581.887,-0.316118,0.0,0.0
398,99.25,44.7001,48.1783,132.629,104.19,108.605,0.0105781,0.0748578,20.9537,581.857,-0.375406,0.0,0.0
400,99.75,44.5644,47.9419,133.205,104.197,107.781,0.0105533,0.0747581,20.9537,581.877,-0.305896,0.0,0.0
402,100.25,44.6192,48.0351,131.706,104.182,108.044,0.0105333,0.0747155,20.9536,581.877,-0.329203,0.0,0.0
404,100.75,44.1743,48.1642,132.927,104.206,108.511,0.0104775,0.07473,20.9536,581.877,-0.366135,0.0,0.0
406,101.25,44.2558,47.7577,131.6,104.178,109.051,0.0104323,0.0747737,20.9536,581.897,-0.413522,0.0,0.0
408,101.75,43.6307,48.0806,135.33,104.188,108.009,0.0103588,0.0748418,20.9536,581.857,-0.325763,0.0,0.0
410,102.25,43.8384,47.9614,133.428,104.173,108.818,0.0102993,0.0748708,20.9536,581.877,-0.394662,0.0,0.0
412,102.75,43.3662,48.1754,129.64,104.186,109.113,0.0102167,0.0749204,20.9536,581.887,-0.417962,0.0,0.0
414,103.25,43.9351,47.2505,131.796,104.177,108.676,0.0101498,0.0750297,20.9536,581.887,-0.382515,0.0,0.0
416,103.75,43.9917,47.0823,130.088,104.182,108.219,0.0100715,0.0751181,20.9536,581.897,-0.343925,0.0,0.0
418,104.25,43.6571,47.2665,129.902,104.16,108.102,0.0100081,0.0752312,20.9536,581.877,-0.335983,0.0,0.0
420,104.75,43.506,47.4845,130.991,104.182,108.309,0.00994529,0.0753228,20.9536,581.887,-0.351475,0.0,0.0
422,105.25,43.4651,47.3504,133.28,104.178,108.351,0.00989441,0.0753462,20.9536,581.867,-0.355268,0.0,0.0
424,105.75,43.7669,46.3828,133.735,104.178,108.206,0.00985656,0.0753193,20.9536,581.907,-0.343128,0.0,0.0
426,106.25,43.5971,46.9192,128.843,104.16,107.837,0.00982893,0.0752757,20.9536,581.907,-0.313818,0.0,0.0
428,106.75,43.5857,47.2308,126.995,104.175,107.968,0.00980654,0.0752208,20.9536,581.877,-0.323468,0.0,0.0
430,107.25,43.285,46.7108,130.371,104.168,107.8,0.00978775,0.0751182,20.9536,581.867,-0.310031,0.0,0.0
432,107.75,43.2342,46.5542,128.365,104.173,108.744,0.00977192,0.0749828,20.9534,581.847,-0.388466,0.0,0.0
434,108.25,42.9824,46.9049,132.179,104.152,108.488,0.00975375,0.0748731,20.9533,581.857,-0.368893,0.0,0.0
436,108.75,43.1689,46.5327,129.418,104.171,107.15,0.00973422,0.0747144,20.9532,581.857,-0.255016,0.0,0.0
438,109.25,43.2951,46.5796,127.794,104.154,108.558,0.0097184,0.0745858,20.9531,581.827,-0.37457,0.0,0.0
440,109.75,42.6934,47.0575,130.613,104.17,108.574,0.00970051,0.0744403,20.953,581.827,-0.374569,0.0,0.0
442,110.25,43.0683,46.5039,130.002,104.144,108.622,0.00968602,0.0743224,20.9529,581.776,-0.380807,0.0,0.0
444,110.75,43.0634,46.6983,131.767,104.176,109.351,0.00967047,0.074227,20.9529,581.786,-0.438589,0.0,0.0
446,111.25,42.8052,46.2305,131.105,104.157,108.43,0.00965788,0.0741772,20.9529,581.776,-0.363711,0.0,0.0
448,111.75,42.8657,45.8281,127.755,104.169,108.794,0.00963879,0.0741369,20.9531,581.716,-0.392943,0.0,0.0
450,112.25,42.536,46.1349,128.86,104.151,108.413,0.00962333,0.0741733,20.9534,581.766,-0.362749,0.0,0.0
452,112.75,43.2703,45.5942,128.62,104.17,108.513,0.00960192,0.0742027,20.9537,581.746,-0.369524,0.0,0.0
454,113.25,42.7514,46.3249,132.025,104.152,107.627,0.00958458,0.0741576,20.954,581.736,-0.296914,0.0,0.0
456,113.75,42.6571,45.9011,130.234,104.165,108.492,0.00957054,0.074121,20.9542,581.716,-0.36818,0.0,0.0
458,114.25,42.5689,45.8637,129.122,104.173,108.07,0.00955921,0.0738983,20.9543,581.706,-0.332232,0.0,0.0
460,114.75,42.1601,45.7422,131.189,104.181,108.252,0.00953983,0.0737178,20.9544,581.726,-0.346724,0.0,0.0
462,115.25,42.0203,46.1399,129.253,104.163,108.512,0.00951146,0.0735064,20.9545,581.716,-0.369919,0.0,0.0
464,115.75,42.3711,45.4714,129.957,104.174,107.73,0.00948847,0.0732763,20.9546,581.696,-0.303653,0.0,0.0
466,116.25,42.2104,45.26,132.63,104.158,107.844,0.00946116,0.0729667,20.9547,581.686,-0.314587,0.0,0.0
468,116.75,40.4908,43.9504,130.85,104.195,108.549,0.0094312,0.0726048,20.9548,581.716,-0.37031,0.0,0.0
470,117.25,40.6794,43.8434,129.239,104.171,108.168,0.00940694,0.0724506,20.9552,581.706,-0.340562,0.0,0.0
472,117.75,40.3184,43.8178,127.584,104.185,108.137,0.00938729,0.0721288,20.9556,581.716,-0.336739,0.0,0.0
474,118.25,39.7531,43.2858,129.987,104.174,108.282,0.00933589,0.0718159,20.9562,581.686,-0.349916,0.0,0.0
476,118.75,39.3669,43.476,132.139,104.202,108.206,0.00929426,0.0715267,20.9568,581.696,-0.341113,0.0,0.0
478,119.25,40.1731,43.7035,127.327,104.181,109.116,0.0092137,0.0712602,20.9573,581.656,-0.418632,0.0,0.0
480,119.75,39.6962,43.7223,128.973,104.193,107.684,0.00914845,0.0710444,20.9577,581.656,-0.298092,0.0,0.0
482,120.25,39.4154,43.5082,129.284,104.197,108.182,0.00905766,0.0708696,20.9583,581.666,-0.339529,0.0,0.0
484,120.75,39.923,43.2946,130.436,104.207,108.587,0.00898412,0.0705352,20.959,581.626,-0.37243,0.0,0.0
486,121.25,39.8687,43.2333,131.095,104.207,108.284,0.00892456,0.0702643,20.9595,581.646,-0.347209,0.0,0.0
488,121.75,40.0587,43.0678,129.318,104.222,108.084,0.0088321,0.0699485,20.9599,581.646,-0.329182,0.0,0.0
490,122.25,39.9766,43.2286,131.579,104.209,108.023,0.00875721,0.0696927,20.9603,581.656,-0.325173,0.0,0.0
492,122.75,39.6631,42.9396,132.322,104.218,108.28,0.00867888,0.0694493,20.9606,581.646,-0.345832,0.0,0.0
494,123.25,40.3351,43.6878,133.433,104.242,108.679,0.00864549,0.0692195,20.9607,581.656,-0.377059,0.0,0.0
496,123.75,39.4147,43.0289,130.057,104.225,108.393,0.0085844,0.0689755,20.9609,581.676,-0.354732,0.0,0.0
498,124.25,39.6091,42.9186,132.07,104.236,108.807,0.00853133,0.0687256,20.9611,581.676,-0.38823,0.0,0.0
500,124.75,38.9764,42.8813,128.396,104.231,108.916,0.00848237,0.0685233,20.9612,581.686,-0.397689,0.0,0.0
502,125.25,39.919,42.9954,131.694,104.231,107.642,0.00843734,0.0682217,20.9618,581.666,-0.291233,0.0,0.0
504,125.75,39.6196,43.326,129.291,104.233,108.697,0.00840086,0.0679775,20.9622,581.676,-0.37938,0.0,0.0
506,126.25,39.7035,43.2102,127.978,104.248,108.12,0.00834358,0.0677648,20.9626,581.656,-0.329906,0.0,0.0
508,126.75,39.5651,43.293,130.786,104.259,107.971,0.00829718,0.0674011,20.9629,581.646,-0.316514,0.0,0.0
510,127.25,39.5428,42.6466,130.003,104.252,107.511,0.00821803,0.0671065,20.9636,581.626,-0.27843,0.0,0.0
512,127.75,39.3602,42.6038,129.049,104.25,107.214,0.00815391,0.0667853,20.9645,581.626,-0.253616,0.0,0.0
514,128.25,39.397,42.8344,131.072,104.254,108.727,0.00810198,0.0665252,20.9653,581.626,-0.380028,0.0,0.0
516,128.75,39.1537,42.9126,131.271,104.254,107.915,0.00799953,0.0662183,20.966,581.626,-0.312198,0.0,0.0
518,129.25,39.8429,42.7421,127.765,104.27,108.567,0.00791655,0.0659697,20.9665,581.636,-0.365294,0.0,0.0
520,129.75,39.2219,42.4988,129.897,104.259,108.281,0.00783082,0.0655759,20.9669,581.606,-0.342352,0.0,0.0
522,130.25,39.0635,41.7544,126.626,104.273,108.805,0.00774471,0.065257,20.9677,581.616,-0.384846,0.0,0.0
524,130.75,39.3055,42.654,131.612,104.264,108.232,0.00765581,0.0649408,20.9683,581.616,-0.337827,0.0,0.0
526,131.25,39.4856,42.1395,134.417,104.295,108.696,0.00756655,0.0646326,20.9688,581.606,-0.373876,0.0,0.0
528,131.75,39.0776,42.4101,130.413,104.275,108.191,0.00747313,0.0643829,20.9693,581.616,-0.333446,0.0,0.0
530,132.25,39.5087,42.6343,131.411,104.293,109.052,0.00737846,0.0641518,20.9696,581.596,-0.403624,0.0,0.0
532,132.75,39.2205,42.4334,132.572,104.286,108.287,0.00727804,0.0639386,20.9699,581.606,-0.340585,0.0,0.0
534,133.25,39.0424,42.2976,134.923,104.294,107.8,0.00717534,0.0637514,20.9701,581.566,-0.299066,0.0,0.0
536,133.75,39.1082,42.0809,131.286,104.284,108.229,0.00709215,0.0635868,20.9703,581.586,-0.335866,0.0,0.0
538,134.25,38.6898,42.6177,132.634,104.304,108.763,0.00697972,0.0634246,20.9704,581.576,-0.378684,0.0,0.0
540,134.75,38.6881,42.3053,127.254,104.295,109.464,0.00688866,0.0632671,20.9705,581.586,-0.43749,0.0,0.0
542,135.25,38.8579,42.7255,132.373,104.303,108.223,0.00680043,0.0631396,20.9706,581.576,-0.333714,0.0,0.0
544,135.75,39.3444,42.466,129.633,104.313,108.509,0.00671593,0.0629264,20.9711,581.576,-0.356779,0.0,0.0
546,136.25,39.1622,42.5127,130.032,104.322,108.966,0.00664749,0.0627538,20.9715,581.556,-0.393982,0.0,0.0
548,136.75,39.322,41.9553,131.378,104.321,108.759,0.0065933,0.0625453,20.9719,581.556,-0.376832,0.0,0.0
550,137.25,38.9842,42.3978,132.356,104.326,108.806,0.00654941,0.0623764,20.9722,581.546,-0.38038,0.0,0.0
552,137.75,38.8844,42.1028,130.074,104.332,108.225,0.00651511,0.0621818,20.9724,581.536,-0.331341,0.0,0.0
554,138.25,39.3087,41.6421,132.105,104.338,108.263,0.00648732,0.0619722,20.9726,581.526,-0.334093,0.0,0.0
556,138.75,38.9905,41.8534,130.183,104.327,109.044,0.00646231,0.0618024,20.9727,581.536,-0.400071,0.0,0.0
558,139.25,39.2527,41.9731,135.593,104.349,107.718,0.00644206,0.0615962,20.9728,581.516,-0.287495,0.0,0.0
560,139.75,38.611,41.8327,130.226,104.333,108.785,0.00641842,0.0614292,20.9729,581.526,-0.37794,0.0,0.0
562,140.25,38.7082,41.8267,132.84,104.354,108.735,0.00639276,0.0612651,20.973,581.496,-0.371999,0.0,0.0
564,140.75,38.5767,42.117,135.206,104.343,107.983,0.00637198,0.0611061,20.9731,581.506,-0.310123,0.0,0.0
566,141.25,39.0529,41.8256,128.497,104.368,108.38,0.00635515,0.0609485,20.9731,581.506,-0.341217,0.0,0.0
568,141.75,38.312,42.1406,130.626,104.356,107.666,0.00633027,0.0607948,20.9732,581.506,-0.282491,0.0,0.0
570,142.25,38.7784,41.9104,131.929,104.376,109.138,0.00631012,0.0606631,20.9734,581.516,-0.403547,0.0,0.0
572,142.75,38.6626,41.1481,130.041,104.363,108.442,0.0062938,0.0605499,20.9735,581.506,-0.346789,0.0,0.0
574,143.25,38.6217,41.9182,128.886,104.391,108.118,0.00626436,0.0604582,20.9736,581.516,-0.317288,0.0,0.0
576,143.75,38.0053,41.6716,132.89,104.387,109.329,0.0062405,0.060384,20.9736,581.506,-0.418448,0.0,0.0
578,144.25,38.2025,41.8947,130.815,104.402,108.533,0.00620745,0.0602689,20.9739,581.526,-0.351068,0.0,0.0
580,144.75,38.6359,41.5295,126.115,104.4,109.369,0.00618068,0.0601758,20.9744,581.526,-0.420549,0.0,0.0
582,145.25,38.897,41.1911,132.659,104.407,108.894,0.00613904,0.0600714,20.9748,581.526,-0.380587,0.0,0.0
584,145.75,38.1461,41.1645,131.997,104.401,107.496,0.00610531,0.0599609,20.975,581.516,-0.264278,0.0,0.0
586,146.25,38.358,41.8356,130.497,104.422,108.035,0.00605431,0.0598714,20.9755,581.506,-0.307679,0.0,0.0
588,146.75,38.0426,41.6143,131.244,104.403,108.109,0.00601299,0.0597267,20.9761,581.516,-0.315488,0.0,0.0
590,147.25,38.607,41.2103,131.809,104.43,108.791,0.00596182,0.0595446,20.9766,581.516,-0.370092,0.0,0.0
592,147.75,38.6406,42.0718,130.108,104.421,109.9,0.00590444,0.0593148,20.977,581.526,-0.46264,0.0,0.0
594,148.25,38.2076,41.2004,130.545,104.429,108.681,0.00583962,0.0591286,20.9773,581.486,-0.360983,0.0,0.0
596,148.75,38.4415,41.2247,129.266,104.424,108.505,0.00574119,0.0589851,20.9775,581.496,-0.346756,0.0,0.0
598,149.25,38.7839,41.1126,130.449,104.443,108.978,0.00571472,0.0588753,20.9777,581.476,-0.384437,0.0,0.0
600,149.75,38.08,41.2807,130.712,104.433,109.314,0.00564,0.0588152,20.9779,581.486,-0.413146,0.0,0.0
602,150.25,38.2821,41.7515,130.538,104.446,107.818,0.00555298,0.0587925,20.978,581.496,-0.287399,0.0,0.0
604,150.75,38.1973,40.3415,131.113,104.431,108.783,0.00546223,0.0587742,20.9781,581.506,-0.369285,0.0,0.0
606,151.25,38.1596,41.3517,133.112,104.455,109.145,0.0053705,0.0587593,20.9782,581.496,-0.397316,0.0,0.0
608,151.75,37.9137,40.701,129.797,104.444,109.39,0.0052864,0.0587472,20.9783,581.486,-0.418513,0.0,0.0
610,152.25,38.4332,40.4273,131.525,104.467,108.666,0.00520947,0.0586004,20.9784,581.486,-0.35645,0.0,0.0
612,152.75,37.8664,41.119,127.688,104.436,108.763,0.00514584,0.0584814,20.9784,581.486,-0.367219,0.0,0.0
614,153.25,38.1342,40.9662,126.802,104.466,107.998,0.00509313,0.0583851,20.9789,581.486,-0.300754,0.0,0.0
616,153.75,38.1043,40.9335,133.004,104.455,107.868,0.00505044,0.0582385,20.9793,581.456,-0.290889,0.0,0.0
618,154.25,38.4616,40.2137,135.097,104.47,108.523,0.00501586,0.0581198,20.9796,581.456,-0.34432,0.0,0.0
620,154.75,37.942,41.0453,132.089,104.458,107.607,0.00497871,0.0579688,20.9798,581.456,-0.268655,0.0,0.0
622,155.25,38.8129,41.0385,131.49,104.484,108.388,0.00494039,0.0578465,20.98,581.446,-0.33181,0.0,0.0
624,155.75,38.1829,40.7447,131.035,104.472,107.88,0.00490936,0.0576926,20.9802,581.436,-0.290362,0.0,0.0
626,156.25,38.4034,41.0462,134.162,104.476,107.858,0.00485814,0.0575679,20.9803,581.436,-0.288161,0.0,0.0
628,156.75,38.1273,40.7212,132.979,104.471,109.217,0.00479318,0.0574396,20.9809,581.436,-0.401869,0.0,0.0
630,157.25,37.9966,40.8395,135.746,104.482,109.688,0.00474056,0.0573356,20.9813,581.456,-0.439796,0.0,0.0
632,157.75,38.4681,41.0837,134.414,104.48,109.462,0.00466082,0.0571966,20.9817,581.446,-0.421333,0.0,0.0
634,158.25,37.9913,41.061,130.301,104.478,108.563,0.00459623,0.0570839,20.982,581.436,-0.346926,0.0,0.0
636,158.75,38.3964,40.6124,131.664,104.48,109.219,0.00452907,0.0569639,20.9822,581.436,-0.401218,0.0,0.0
638,159.25,38.065,40.7241,130.17,104.494,108.866,0.00447467,0.0568407,20.9824,581.416,-0.370764,0.0,0.0
640,159.75,38.3889,41.2379,131.944,104.486,108.254,0.00442443,0.0567409,20.9826,581.426,-0.320502,0.0,0.0
642,160.25,38.2643,41.1039,130.793,104.482,108.008,0.00438373,0.0565642,20.9827,581.436,-0.300218,0.0,0.0
644,160.75,38.4893,40.8599,128.588,104.484,108.877,0.00434212,0.056421,20.9828,581.406,-0.372494,0.0,0.0
646,161.25,38.0915,40.8682,131.925,104.494,108.408,0.00430841,0.0562474,20.9833,581.406,-0.332677,0.0,0.0
648,161.75,37.7942,40.0319,134.166,104.482,108.719,0.0042681,0.0560549,20.9837,581.396,-0.359625,0.0,0.0
650,162.25,37.9489,40.518,130.406,104.489,108.476,0.00422374,0.0558442,20.9841,581.386,-0.338713,0.0,0.0
652,162.75,38.2962,40.9696,134.858,104.494,108.568,0.00418782,0.0556735,20.9843,581.376,-0.34596,0.0,0.0
654,163.25,38.0578,41.086,133.076,104.489,108.259,0.00414637,0.0554805,20.9846,581.376,-0.320599,0.0,0.0
656,163.75,37.8948,40.1516,131.94,104.5,108.698,0.00410169,0.0553242,20.9847,581.376,-0.356269,0.0,0.0
658,164.25,38.1084,40.6926,127.845,104.501,108.424,0.00406549,0.0551759,20.9849,581.366,-0.333376,0.0,0.0
660,164.75,37.651,40.4472,133.251,104.503,108.901,0.00402514,0.0550364,20.985,581.356,-0.372935,0.0,0.0
662,165.25,38.3887,40.6092,126.916,104.494,107.584,0.00398251,0.0549234,20.9849,581.356,-0.26359,0.0,0.0
664,165.75,37.9059,40.3831,129.487,104.489,108.361,0.0039389,0.0548044,20.9848,581.376,-0.329114,0.0,0.0
666,166.25,37.6813,40.7868,129.73,104.507,109.109,0.00389539,0.0547081,20.9848,581.346,-0.389806,0.0,0.0
668,166.75,38.0914,40.2901,130.782,104.513,108.302,0.00384912,0.0546301,20.9847,581.366,-0.322129,0.0,0.0
670,167.25,38.2627,40.733,130.813,104.5,107.745,0.00380172,0.0545525,20.9847,581.366,-0.276581,0.0,0.0
672,167.75,38.2253,40.9064,132.637,104.497,108.013,0.00376332,0.0544766,20.9847,581.376,-0.29933,0.0,0.0
674,168.25,38.1083,40.5641,126.335,104.5,109.228,0.00370389,0.0544152,20.9846,581.356,-0.400271,0.0,0.0
676,168.75,38.1454,40.0673,128.22,104.505,108.346,0.00365575,0.0543928,20.9846,581.326,-0.32648,0.0,0.0
678,169.25,37.9629,39.8402,129.495,104.49,107.912,0.00359958,0.0543747,20.9845,581.336,-0.291446,0.0,0.0
680,169.75,37.9708,40.1201,128.963,104.518,108.081,0.00355408,0.0543463,20.9843,581.316,-0.303268,0.0,0.0
682,170.25,38.0816,40.4672,127.822,104.494,108.385,0.00351723,0.0543234,20.9842,581.306,-0.330699,0.0,0.0
684,170.75,37.5469,40.1071,136.043,104.501,109.106,0.00347753,0.0543047,20.9841,581.296,-0.390124,0.0,0.0
686,171.25,38.3802,40.0519,128.71,104.493,108.6,0.00344538,0.0542897,20.984,581.316,-0.348747,0.0,0.0
688,171.75,37.4386,40.4223,132.633,104.524,108.418,0.00342303,0.0542482,20.984,581.316,-0.330859,0.0,0.0
690,172.25,37.1425,40.0522,129.435,104.495,108.546,0.00340492,0.0541883,20.9839,581.316,-0.344103,0.0,0.0
692,172.75,37.7524,40.5065,129.751,104.499,108.584,0.0033841,0.0541326,20.9839,581.316,-0.346916,0.0,0.0
694,173.25,37.5457,40.4469,130.507,104.489,108.892,0.00336724,0.0540809,20.9838,581.336,-0.373332,0.0,0.0
696,173.75,37.4818,40.3352,130.617,104.501,109.165,0.00334387,0.0540391,20.9838,581.326,-0.394951,0.0,0.0
698,174.25,37.9872,39.9151,130.209,104.487,109.184,0.0033162,0.0539916,20.9838,581.296,-0.397739,0.0,0.0
700,174.75,37.7122,40.7504,132.141,104.515,108.592,0.00328344,0.0539531,20.984,581.276,-0.346185,0.0,0.0
702,175.25,37.1216,39.8201,131.169,104.489,108.886,0.00324758,0.0538786,20.9844,581.276,-0.372904,0.0,0.0
704,175.75,37.932,40.1549,132.986,104.503,108.274,0.00320948,0.0537795,20.9847,581.266,-0.320712,0.0,0.0
706,176.25,37.3977,40.3602,126.7,104.49,109.027,0.00317047,0.0536775,20.9849,581.266,-0.384508,0.0,0.0
708,176.75,37.0462,39.8006,130.187,104.506,108.894,0.00313887,0.0535755,20.9851,581.266,-0.372098,0.0,0.0
710,177.25,38.2,40.0589,128.135,104.492,108.727,0.00310617,0.0535001,20.9853,581.266,-0.35933,0.0,0.0
712,177.75,37.4538,40.0633,134.079,104.499,109.108,0.00307328,0.0534455,20.9854,581.256,-0.390349,0.0,0.0
714,178.25,37.388,40.2294,131.704,104.486,107.814,0.00304599,0.0533941,20.9855,581.256,-0.283612,0.0,0.0
716,178.75,37.9325,39.9143,130.397,104.496,109.087,0.0030233,0.0533459,20.9852,581.266,-0.388867,0.0,0.0
718,179.25,38.0774,40.2268,129.995,104.48,108.124,0.00299973,0.0533069,20.9849,581.286,-0.310186,0.0,0.0
720,179.75,37.8369,39.7306,130.002,104.493,107.758,0.00297595,0.0532343,20.9852,581.276,-0.278334,0.0,0.0
722,180.25,37.4897,40.3038,130.84,104.477,107.772,0.00295087,0.0531754,20.9855,581.296,-0.280898,0.0,0.0
724,180.75,37.4558,40.0158,133.048,104.485,109.135,0.00293743,0.053099,20.9857,581.266,-0.393871,0.0,0.0
726,181.25,37.9189,40.2809,131.844,104.477,108.413,0.00290012,0.0530111,20.986,581.266,-0.334492,0.0,0.0
728,181.75,37.7361,40.1448,130.686,104.492,108.145,0.00288723,0.0529476,20.9861,581.246,-0.3108,0.0,0.0
730,182.25,37.0138,39.8576,129.815,104.483,109.718,0.00286518,0.052903,20.9862,581.246,-0.442221,0.0,0.0
732,182.75,37.6583,40.3515,130.071,104.484,108.547,0.00283997,0.0528525,20.9863,581.236,-0.345056,0.0,0.0
734,183.25,37.5565,39.9263,132.75,104.478,108.73,0.00281954,0.0527986,20.9864,581.226,-0.360845,0.0,0.0
736,183.75,37.2678,40.28,129.633,104.478,108.578,0.002803,0.0527757,20.9865,581.226,-0.348168,0.0,0.0
738,184.25,37.7123,39.9012,129.252,104.466,108.217,0.00278101,0.0526806,20.9866,581.226,-0.319107,0.0,0.0
740,184.75,37.6952,39.6479,127.502,104.472,108.803,0.0027632,0.052655,20.9866,581.216,-0.367439,0.0,0.0
742,185.25,37.2666,39.4531,129.832,104.457,108.415,0.00274019,0.0526041,20.9867,581.206,-0.336407,0.0,0.0
744,185.75,37.759,39.5975,131.795,104.472,108.453,0.00272155,0.0525564,20.9867,581.226,-0.338276,0.0,0.0
746,186.25,37.3917,39.8396,131.611,104.45,109.183,0.002704,0.0525249,20.9867,581.236,-0.400847,0.0,0.0
748,186.75,37.4438,39.5805,127.321,104.471,108.277,0.00268979,0.0525059,20.9867,581.236,-0.323689,0.0,0.0
750,187.25,37.5347,39.9927,132.348,104.46,108.33,0.00267827,0.0524906,20.9867,581.226,-0.329073,0.0,0.0
752,187.75,37.4717,39.7026,129.957,104.464,108.622,0.00266959,0.0524644,20.9868,581.216,-0.353062,0.0,0.0
754,188.25,37.7813,39.6244,127.854,104.453,107.911,0.00266314,0.0524432,20.9868,581.206,-0.294625,0.0,0.0
756,188.75,37.5096,40.0308,131.237,104.458,108.172,0.00265792,0.0524045,20.9868,581.216,-0.316023,0.0,0.0
758,189.25,37.3575,39.3823,129.766,104.443,108.266,0.00265614,0.0523537,20.9868,581.216,-0.325207,0.0,0.0
760,189.75,37.5125,39.486,131.331,104.452,108.716,0.0026534,0.0523125,20.9868,581.206,-0.36199,0.0,0.0
762,190.25,37.475,39.3413,131.625,104.432,108.126,0.00265003,0.0522863,20.9868,581.226,-0.314402,0.0,0.0
764,190.75,38.154,39.7963,131.977,104.448,108.287,0.00264729,0.0522716,20.9868,581.236,-0.326519,0.0,0.0
766,191.25,37.3534,40.0967,128.739,104.432,107.831,0.00263927,0.0522381,20.9868,581.226,-0.289701,0.0,0.0
768,191.75,37.4541,40.0073,130.302,104.463,109.264,0.00262755,0.0521915,20.9868,581.196,-0.40646,0.0,0.0
770,192.25,37.7641,39.592,128.52,104.42,108.88,0.00261805,0.0521538,20.9868,581.196,-0.378328,0.0,0.0
772,192.75,38.0522,39.9113,128.289,104.427,108.799,0.00260178,0.0520822,20.9868,581.206,-0.371009,0.0,0.0
774,193.25,37.2999,39.9248,132.671,104.428,107.839,0.0025886,0.0520242,20.9868,581.186,-0.290658,0.0,0.0
776,193.75,37.5681,39.4238,130.282,104.431,109.308,0.00256689,0.0519499,20.9868,581.186,-0.412868,0.0,0.0
778,194.25,37.9281,39.7279,130.068,104.413,109.209,0.00254931,0.0518897,20.9868,581.166,-0.406266,0.0,0.0
780,194.75,37.0024,39.8961,132.14,104.431,107.923,0.00252282,0.0518482,20.9868,581.156,-0.297583,0.0,0.0
782,195.25,37.4584,39.8888,133.763,104.415,108.447,0.00250136,0.051821,20.9868,581.156,-0.342673,0.0,0.0
784,195.75,37.6353,39.5701,132.219,104.416,107.973,0.00247664,0.051799,20.987,581.176,-0.303001,0.0,0.0
786,196.25,37.4944,39.3127,135.313,104.417,108.969,0.00245661,0.0517264,20.9874,581.156,-0.385974,0.0,0.0
788,196.75,37.0806,39.6324,130.729,104.412,109.004,0.00244038,0.0516677,20.9878,581.156,-0.389347,0.0,0.0
790,197.25,37.0107,39.0779,132.663,104.407,108.364,0.00242724,0.0516201,20.988,581.146,-0.336527,0.0,0.0
792,197.75,37.5822,39.6263,130.553,104.404,107.927,0.00241659,0.0515815,20.9882,581.146,-0.300241,0.0,0.0
794,198.25,37.6721,40.0167,128.585,104.397,107.489,0.00241206,0.0515719,20.9883,581.156,-0.264017,0.0,0.0
796,198.75,37.5311,40.0348,129.7,104.413,108.722,0.0024043,0.0515835,20.9885,581.146,-0.365787,0.0,0.0
798,199.25,37.7183,39.6769,133.432,104.393,108.257,0.00239479,0.0515786,20.9886,581.146,-0.328785,0.0,0.0
800,199.75,37.1432,39.8242,132.997,104.398,108.378,0.00238419,0.0515616,20.9887,581.146,-0.338422,0.0,0.0
802,200.25,37.4463,39.4349,132.817,104.404,109.504,0.0023756,0.0515478,20.9888,581.146,-0.431347,0.0,0.0
804,200.75,37.4005,39.2845,131.442,104.401,108.088,0.00236008,0.0515367,20.9888,581.146,-0.313918,0.0,0.0
806,201.25,37.3859,39.0334,127.987,104.403,108.417,0.0023475,0.0515319,20.9889,581.136,-0.34125,0.0,0.0
808,201.75,37.5569,39.5366,127.317,104.393,107.653,0.00232263,0.051495,20.9889,581.126,-0.278171,0.0,0.0
810,202.25,37.7629,39.491,131.29,104.396,108.24,0.00230248,0.0514392,20.989,581.126,-0.327092,0.0,0.0
812,202.75,37.642,40.2558,130.374,104.392,108.491,0.00228249,0.051394,20.989,581.136,-0.348377,0.0,0.0
814,203.25,37.676,39.5359,131.746,104.388,109.539,0.0022663,0.0513027,20.989,581.126,-0.435698,0.0,0.0
816,203.75,37.115,39.1838,131.564,104.384,108.296,0.00225834,0.0512288,20.9891,581.126,-0.332862,0.0,0.0
818,204.25,37.3699,39.4997,126.478,104.393,109.24,0.00225653,0.0511825,20.9891,581.106,-0.410571,0.0,0.0
820,204.75,37.5122,39.9049,131.829,104.388,109.651,0.00225506,0.0511451,20.9891,581.146,-0.444963,0.0,0.0
822,205.25,37.1512,39.5374,130.814,104.406,108.014,0.00226224,0.0510788,20.9891,581.106,-0.307239,0.0,0.0
824,205.75,37.439,39.8007,129.336,104.384,108.975,0.0022756,0.0509927,20.9891,581.106,-0.389328,0.0,0.0
826,206.25,38.0018,39.553,126.938,104.392,107.944,0.002289,0.050923,20.9891,581.086,-0.302669,0.0,0.0
828,206.75,37.5916,39.2213,130.1,104.385,108.805,0.00230217,0.0508665,20.9891,581.066,-0.375097,0.0,0.0
830,207.25,38.008,39.4394,132.256,104.392,107.331,0.00231413,0.0508207,20.9891,581.076,-0.251122,0.0,0.0
832,207.75,36.7221,39.4802,133.778,104.393,107.565,0.00232498,0.0507837,20.9891,581.076,-0.270772,0.0,0.0
834,208.25,37.3408,39.243,130.874,104.381,108.742,0.00233118,0.0507537,20.9891,581.086,-0.370234,0.0,0.0
836,208.75,37.2277,39.5719,129.803,104.377,108.337,0.00233389,0.0507366,20.9891,581.086,-0.336835,0.0,0.0
838,209.25,37.8235,39.6489,128.32,104.384,109.212,0.00233608,0.0507292,20.9891,581.056,-0.408951,0.0,0.0
840,209.75,37.3794,39.5255,129.189,104.39,108.884,0.00231216,0.0507232,20.9891,581.086,-0.381239,0.0,0.0
842,210.25,37.8372,39.3288,132.047,104.393,108.022,0.00229278,0.0507183,20.9891,581.086,-0.309153,0.0,0.0
844,210.75,37.5424,39.238,132.062,104.387,109.174,0.00227708,0.0507144,20.9891,581.116,-0.40553,0.0,0.0
846,211.25,37.035,39.3302,128.149,104.399,108.604,0.00221423,0.0506975,20.9891,581.116,-0.357186,0.0,0.0
848,211.75,37.7326,39.2184,132.664,104.386,108.512,0.00216333,0.0506839,20.9893,581.106,-0.350637,0.0,0.0
850,212.25,37.7254,39.3505,130.745,104.385,108.596,0.0021221,0.0506592,20.9894,581.116,-0.357772,0.0,0.0
852,212.75,37.2588,39.4908,133.421,104.381,108.314,0.00205938,0.0506391,20.9894,581.106,-0.334597,0.0,0.0
854,213.25,37.6027,39.5062,131.029,104.395,107.828,0.00200859,0.0506229,20.9895,581.096,-0.292688,0.0,0.0
856,213.75,37.1092,39.0927,130.865,104.391,108.01,0.00196102,0.0506098,20.9896,581.086,-0.308322,0.0,0.0
858,214.25,36.8995,39.3386,131.355,104.406,108.53,0.0019167,0.0505991,20.9896,581.086,-0.350354,0.0,0.0
860,214.75,37.5548,39.5838,132.99,104.385,108.774,0.0018776,0.0505905,20.9896,581.086,-0.372579,0.0,0.0
862,215.25,37.2445,39.2891,130.865,104.403,108.644,0.00184303,0.0505835,20.9897,581.096,-0.360153,0.0,0.0
864,215.75,37.4616,39.4641,133.396,104.388,108.016,0.00181503,0.0505779,20.9897,581.076,-0.309085,0.0,0.0
866,216.25,37.7245,39.4241,132.699,104.402,108.296,0.00178991,0.0505733,20.9897,581.076,-0.33125,0.0,0.0
868,216.75,38.0079,39.8899,134.039,104.399,108.231,0.00176957,0.0505696,20.9897,581.066,-0.326096,0.0,0.0
870,217.25,37.6091,39.6578,130.363,104.401,108.49,0.00175675,0.0505378,20.9897,581.046,-0.347455,0.0,0.0
872,217.75,37.8213,39.5599,129.471,104.39,107.645,0.00174636,0.0504862,20.9897,581.046,-0.277686,0.0,0.0
874,218.25,38.0056,39.5447,130.223,104.406,108.073,0.00175138,0.0504443,20.9898,581.016,-0.312231,0.0,0.0
876,218.75,37.052,39.3711,132.432,104.387,108.256,0.00175544,0.0504104,20.9898,581.016,-0.329184,0.0,0.0
878,219.25,37.3896,39.7605,127.733,104.415,109.091,0.00175873,0.050383,20.9898,581.016,-0.396242,0.0,0.0
880,219.75,38.0006,39.5246,130.442,104.401,108.1,0.0017846,0.0503608,20.9898,581.006,-0.314931,0.0,0.0
882,220.25,37.365,39.2221,129.102,104.407,108.882,0.00180555,0.0503428,20.9898,581.006,-0.379581,0.0,0.0
884,220.75,37.7758,39.3735,129.596,104.394,108.042,0.00182509,0.0503282,20.9898,580.996,-0.310681,0.0,0.0
886,221.25,37.5283,39.3406,132.286,104.402,108.457,0.00184324,0.0503164,20.9898,581.026,-0.344699,0.0,0.0
888,221.75,37.6493,39.3535,133.6,104.394,108.751,0.00185086,0.0503068,20.9898,581.026,-0.369837,0.0,0.0
890,222.25,37.6605,39.1912,131.673,104.406,108.563,0.00185067,0.050299,20.9898,581.016,-0.353183,0.0,0.0
892,222.75,37.8245,39.0974,129.123,104.378,108.541,0.00183896,0.0502928,20.9898,581.016,-0.353776,0.0,0.0
894,223.25,37.3722,39.294,131.198,104.401,108.247,0.00181905,0.0503021,20.9898,581.006,-0.327234,0.0,0.0
896,223.75,36.9725,38.9979,133.112,104.391,108.531,0.00179202,0.0503225,20.9898,580.986,-0.351825,0.0,0.0
898,224.25,37.3713,38.8048,131.072,104.413,108.347,0.00176029,0.0503319,20.9898,580.976,-0.3345,0.0,0.0
900,224.75,37.2313,38.8222,129.544,104.39,107.748,,0.0503331,,580.976,-0.286408,0.0,0.0
902,225.25,37.5275,39.1001,127.465,104.431,107.86,,0.0503196,,580.956,-0.292311,0.0,0.0
904,225.75,37.8422,38.8337,131.484,104.393,107.948,,0.0502958,,580.956,-0.302947,0.0,0.0
906,226.25,37.4145,39.0638,131.19,104.41,110.027,,0.0502836,,580.966,-0.473976,0.0,0.0
908,226.75,37.6357,39.1514,130.307,104.405,109.656,,0.0502803,,580.966,-0.443885,0.0,0.0
910,227.25,37.7603,39.6276,132.652,104.406,108.829,,0.0502776,,580.956,-0.375242,0.0,0.0
912,227.75,37.7277,39.4245,130.761,104.39,108.287,,,,580.946,-0.331497,0.0,0.0
914,228.25,37.2454,39.3802,129.975,104.398,109.229,,,,580.956,-0.409206,0.0,0.0
916,228.75,37.0721,39.552,130.886,104.389,108.669,,,,580.946,-0.363453,0.0,0.0
918,229.25,37.3673,39.5467,130.514,104.389,108.772,,,,580.946,-0.372058,0.0,0.0
920,229.75,37.5478,39.5248,133.257,104.389,108.312,,,,580.936,-0.333709,0.0,0.0
922,230.25,37.7919,39.3689,127.873,104.394,108.019,,,,580.946,-0.308767,0.0,0.0
924,230.75,37.4271,39.2008,135.336,104.39,108.67,,,,580.956,-0.363535,0.0,0.0
926,231.25,37.7291,39.5172,129.233,104.396,109.12,,,,580.956,-0.400359,0.0,0.0
928,231.75,37.7198,39.496,126.944,104.377,109.141,,,,580.956,-0.403706,0.0,0.0
930,232.25,37.1402,39.0952,130.681,104.376,108.333,,,,580.956,-0.336594,0.0,0.0
932,232.75,37.8103,39.6326,132.683,104.371,107.637,,,,580.946,-0.278742,0.0,0.0
934,233.25,37.4576,39.3285,128.632,104.386,109.542,,,,580.986,-0.436113,0.0,0.0
936,233.75,37.504,39.4407,129.927,104.387,108.887,,,,580.946,-0.38184,0.0,0.0
938,234.25,37.82,39.0423,128.288,104.38,108.831,,,,580.946,-0.377667,0.0,0.0
940,234.75,37.5024,39.4659,134.295,104.375,108.294,,,,580.946,-0.3334,0.0,0.0
942,235.25,37.9982,39.3444,128.543,104.384,108.067,,,,580.956,-0.313589,0.0,0.0
943,235.5,37.27,39.0095,130.802,104.382,107.745,,,,580.956,-0.28683,0.0,0.0