File: 01_Data/Polyester_Microfiber_Sheet/Cone/Polyester_Microfiber_Sheet_Cone_HF25Scan_220512_R1.csv
Names,Time,Stack TC,Smoke TC,Exh Press,Smoke Comp,Smoke Meas,CO Meter,CO2 Meter,O2 Meter,Sample Mass,Ext Coeff,Start Test,Flame Verif
Chan Gain,,500,500,1,1,1,1,1,1,1,1,1.0,1.0
Offset,,0,0,0.138628,0,0,0,0,0,0,0,0.0,0.0
Gain,,1,1,25.011,13.1256,14.6231,1,1,1,1.001,0.958019,1.0,1.0
Units,sec,C,C,Pa,%,%,%,%,%,g,/m,,
Baseline,,23.1764,23.8138,141.059,98.8563,100.412,0.000221846,0.046335,20.9998,-444.529,-0.13116,,
9,2,21.1021,21.5456,139.163,99.1488,100.349,0.000314599,0.0506152,20.9979,614.916,-0.101155,0.0,0.0
18,4.25,20.8487,21.7403,138.797,99.1648,100.768,0.00043975,0.0500111,20.9997,614.776,-0.134779,0.0,0.0
27,6.5,20.8354,21.8651,139.825,99.1632,100.594,0.000434959,0.0490841,21.0003,614.786,-0.12035,0.0,0.0
36,8.75,21.0668,22.0175,140.477,99.1856,100.145,0.000347341,0.0483121,21.0003,614.766,-0.0808985,0.0,0.0
45,11,21.5986,21.389,140.521,99.1893,100.922,0.000256265,0.0475849,21.0019,614.766,-0.145575,0.0,0.0
54,13.25,20.9992,21.5217,137.013,99.1828,100.615,0.000245193,0.0468684,21.0032,614.766,-0.120514,0.0,0.0
63,15.5,20.8381,22.0121,143.395,99.174,100.963,0.000249754,0.0467504,21.0026,614.746,-0.150246,0.0,0.0
72,17.75,21.3008,21.814,143.656,99.1652,100.79,0.000227579,0.0470238,21.0025,614.756,-0.136569,0.0,0.0
81,20,20.8216,21.127,137.807,99.1512,100.299,0.000234478,0.047044,21.0029,614.746,-0.096765,0.0,0.0
90,22.25,21.4693,22.1677,141.993,99.1452,100.785,0.000249323,0.0467453,21.002,614.766,-0.13782,0.0,0.0
99,24.5,21.1317,22.2796,142.583,99.164,101.167,0.000319943,0.0463996,21.0005,614.766,-0.168016,0.0,0.0
108,26.75,21.3661,22.2027,138.574,99.144,100.876,0.000410189,0.0460067,20.9999,614.756,-0.145509,0.0,0.0
117,29,21.245,22.2122,140.967,99.1316,100.48,0.00043179,0.0457349,21.0005,614.756,-0.113521,0.0,0.0
126,31.25,20.8815,21.8187,144.472,99.1508,100.87,0.000393404,0.0455774,21.0018,614.746,-0.144485,0.0,0.0
135,33.5,21.3822,21.5067,142.315,99.1568,100.663,0.000345147,0.0454909,21.0023,614.726,-0.12667,0.0,0.0
144,35.75,21.3386,22.157,138.481,99.1592,100.613,0.000331633,0.0453643,21.0025,614.736,-0.12233,0.0,0.0
153,38,21.6626,22.2714,139.381,99.1576,101.43,0.000301107,0.045257,21.0026,614.726,-0.190402,0.0,0.0
162,40.25,21.4333,22.1348,138.619,99.1704,100.894,0.000274933,0.0451842,21.0022,614.706,-0.144792,0.0,0.0
171,42.5,21.592,22.2949,142.826,99.1692,100.55,0.000278397,0.04521,21.0009,614.696,-0.116187,0.0,0.0
180,44.75,21.6959,22.2166,140.016,99.1748,100.686,0.000314612,0.0452185,21.0009,614.716,-0.127043,0.0,0.0
189,47,21.8797,22.0846,141.653,99.1568,100.228,0.000337533,0.0454336,21.0012,614.736,-0.0902671,0.0,0.0
198,49.25,21.4343,22.189,142.31,99.1528,100.985,0.000239584,0.0457678,21.0019,614.736,-0.153865,0.0,0.0
207,51.5,21.7042,22.3964,139.47,99.148,100.771,6.34164e-05,0.0458219,21.0017,614.756,-0.136465,0.0,0.0
216,53.75,21.7346,21.9776,144,99.1416,100.744,4.43361e-05,0.0458333,21.0021,614.706,-0.134738,0.0,0.0
225,56,21.9582,22.3605,142.942,99.148,100.949,4.04683e-05,0.0458616,21.0023,614.706,-0.151301,0.0,0.0
234,58.25,22.0601,22.5185,143.045,99.1452,100.611,9.32025e-06,0.0457988,21.0024,614.716,-0.123332,0.0,0.0
243,60.5,21.4141,22.0382,139.401,99.122,100.685,0.000144176,0.0455975,21.0018,614.716,-0.131487,0.0,0.0
252,62.75,21.9864,22.6147,141.082,99.118,100.564,0.000263674,0.0454238,21.0022,614.746,-0.121727,0.0,0.0
261,65,21.8454,22.3828,141.984,99.1135,100.947,0.000291414,0.045351,21.0023,614.706,-0.154036,0.0,0.0
270,67.25,21.8514,22.5389,139.403,99.1171,100.877,0.00037592,0.0451525,21.0024,614.696,-0.147932,0.0,0.0
279,69.5,21.5432,22.2234,139.725,99.1019,100.415,0.000512922,0.0451177,21.002,614.676,-0.11062,0.0,0.0
288,71.75,21.8099,22.6887,143.67,99.0875,100.424,0.000461422,0.0453612,21.0017,614.706,-0.112627,0.0,0.0
297,74,21.7116,22.325,139.269,99.0895,100.656,0.000253882,0.0458201,21.0015,614.726,-0.131779,0.0,0.0
306,76.25,22.2778,22.384,141.547,99.0639,100.583,0.000255387,0.0460176,21.0015,614.706,-0.127916,0.0,0.0
315,78.5,21.8502,22.7093,143.025,99.0751,100.892,0.000304851,0.0461725,21.0015,614.716,-0.152689,0.0,0.0
324,80.75,21.7117,22.7606,143.304,99.0807,100.502,0.000404832,0.0463635,21.0007,614.686,-0.1197,0.0,0.0
333,83,22.3293,22.5979,141.68,99.0807,100.76,0.000561035,0.0471225,20.9997,614.706,-0.141203,0.0,0.0
342,85.25,22.755,23.0843,140.665,99.0811,100.734,0.000560697,0.0476357,20.9994,614.746,-0.139011,0.0,0.0
351,87.5,22.2198,22.4961,143.017,99.0987,100.434,0.000353155,0.0472942,21,614.716,-0.112498,0.0,0.0
360,89.75,22.3457,22.6007,139.402,99.1236,100.672,0.00023582,0.0469745,21.0009,614.716,-0.130271,0.0,0.0
369,92,22.4156,22.5446,142.648,99.126,100.75,0.000306924,0.0468998,21.0004,614.706,-0.136546,0.0,0.0
378,94.25,22.4503,22.7705,140.428,99.1404,100.973,0.000244117,0.0471902,20.9996,614.726,-0.153915,0.0,0.0
387,96.5,22.1339,22.5104,140.663,99.1584,100.376,6.88769e-05,0.0474596,20.9994,614.686,-0.102545,0.0,0.0
396,98.75,21.9919,23.2149,143.923,99.1688,100.647,-5.9696e-05,0.0473781,21,614.696,-0.124348,0.0,0.0
405,101,22.627,23.0032,143.403,99.1784,100.907,-1.58744e-05,0.0472559,20.9995,614.736,-0.145228,0.0,0.0
414,103.25,21.9936,23.3773,138.965,99.2109,101.277,0.000107793,0.0475916,20.9998,614.686,-0.173233,0.0,0.0
423,105.5,22.3479,22.445,137.232,99.2249,100.818,0.000217683,0.0473405,20.9999,614.616,-0.133857,0.0,0.0
432,107.75,22.4807,23.0664,143.446,99.2313,100.881,0.000228636,0.0468299,21.0013,614.636,-0.138557,0.0,0.0
441,110,22.373,23.0953,142.602,99.2529,100.786,0.00017584,0.0461924,21.0019,614.626,-0.128802,0.0,0.0
450,112.25,22.5823,22.8858,144.173,99.2826,100.84,0.000143171,0.0459904,21.0019,614.676,-0.130795,0.0,0.0
459,114.5,22.4518,23.2787,139.548,99.3134,100.878,0.000136161,0.0458169,21.0016,614.706,-0.131345,0.0,0.0
468,116.75,22.8916,22.9705,144.265,99.3186,100.941,4.76064e-05,0.0458466,21.0024,614.706,-0.136182,0.0,0.0
477,119,22.3741,23.1192,141.924,99.3575,100.81,6.84597e-06,0.0459272,21.0018,614.696,-0.121927,0.0,0.0
486,121.25,22.2747,23.4734,139.724,99.3923,100.793,2.96217e-05,0.0460706,21.0016,614.696,-0.117604,0.0,0.0
495,123.5,22.0443,23.2629,141.302,99.4104,100.449,0.000143247,0.0460941,21.0015,614.686,-0.0873447,0.0,0.0
504,125.75,22.9533,23.2112,141.573,99.43,101.03,0.000285157,0.0461868,21.0025,614.636,-0.134118,0.0,0.0
513,128,22.6373,22.7632,137.443,99.4612,100.488,0.000310007,0.0464318,21.0033,614.676,-0.086292,0.0,0.0
522,130.25,22.297,23.3167,141.667,99.4909,101.678,0.000258641,0.0465328,21.0024,614.676,-0.182737,0.0,0.0
531,132.5,22.699,23.6818,139.504,99.5109,101.193,0.00029782,0.0464361,21.0022,614.686,-0.140894,0.0,0.0
540,134.75,22.3278,23.0987,142.542,99.549,101.54,0.000307043,0.0462634,21.0031,614.686,-0.166427,0.0,0.0
549,137,22.4148,23.2356,142.392,99.5838,101.236,0.000268489,0.0461165,21.0035,614.666,-0.138297,0.0,0.0
558,139.25,22.5401,23.6626,143.33,99.6162,101.581,0.000337891,0.0459917,21.0035,614.656,-0.164146,0.0,0.0
567,141.5,22.5202,23.0164,135.853,99.6431,101.205,0.000406894,0.0458161,21.002,614.646,-0.130739,0.0,0.0
576,143.75,22.8044,23.537,146.987,99.6663,101.867,0.000291851,0.0464055,21.0015,614.676,-0.183554,0.0,0.0
585,146,21.9481,23.3154,138.145,99.7048,101.474,9.92226e-05,0.0472506,21.0012,614.676,-0.147779,0.0,0.0
594,148.25,22.6234,23.2697,138.859,99.7164,101.45,0.000154938,0.0478474,21.0012,614.666,-0.144841,0.0,0.0
603,150.5,22.1534,23.2475,135.959,99.7516,102.216,0.000351845,0.0478831,21.0011,614.616,-0.205067,0.0,0.0
612,152.75,22.481,23.1592,140.785,99.7665,101.296,0.000420367,0.0477104,21.0011,614.646,-0.127823,0.0,0.0
621,155,22.7735,23.5941,141.478,99.7965,101.012,0.000332262,0.0474864,21.0015,614.656,-0.10175,0.0,0.0
630,157.25,22.7222,23.2835,137.573,99.8053,101.407,0.000309342,0.0485087,21.0003,614.636,-0.133801,0.0,0.0
639,159.5,23.0293,23.5632,137.046,99.8402,102.037,0.000272439,0.0499626,20.9985,614.616,-0.182887,0.0,0.0
648,161.75,22.487,23.2851,136.208,99.853,101.52,0.000201005,0.0508643,20.9978,614.646,-0.139177,0.0,0.0
657,164,22.7602,23.4019,139.677,99.8742,101.575,0.000196301,0.0505216,20.998,614.646,-0.141932,0.0,0.0
666,166.25,22.7666,23.5509,141.053,99.8966,101.12,0.000291623,0.0495898,20.9986,614.636,-0.102301,0.0,0.0
675,168.5,22.5596,23.3531,144.452,99.9039,101.296,0.000419699,0.0485819,20.9996,614.676,-0.116258,0.0,0.0
684,170.75,22.5886,23.7566,137.623,99.9159,102.113,0.000421048,0.0482174,21,614.626,-0.182763,0.0,0.0
693,173,23.0222,23.6334,143.687,99.9107,101.552,0.000341223,0.0483151,20.9997,614.396,-0.136946,0.0,0.0
702,175.25,22.8651,23.6386,139.827,99.9343,101.815,0.00034011,0.0482455,20.9984,614.626,-0.156718,0.0,0.0
711,177.5,22.6096,23.6396,138.33,99.9611,101.703,0.000450601,0.047979,20.998,614.626,-0.145174,0.0,0.0
720,179.75,23.1628,23.777,143.425,99.9451,101.472,0.00050109,0.0478015,20.9974,614.646,-0.127399,0.0,0.0
729,182,22.696,23.8517,138.681,99.9535,102.366,0.000588057,0.0474358,20.9972,614.636,-0.200395,0.0,0.0
738,184.25,22.6988,23.6408,139.162,99.9607,102.248,0.000703542,0.0467801,20.9985,614.606,-0.190148,0.0,0.0
747,186.5,23.0471,23.6082,139.942,99.9651,101.503,0.000735546,0.0462733,21.0003,614.616,-0.128265,0.0,0.0
756,188.75,23.3036,23.1307,140.608,99.9535,101.193,0.000755943,0.0460124,21.0022,614.616,-0.103598,0.0,0.0
765,191,23.2914,23.6721,138.6,99.9711,101.502,0.000697112,0.0458312,21.0029,614.636,-0.127686,0.0,0.0
774,193.25,22.4833,23.6499,140.543,99.9788,101.478,0.000564669,0.0455564,21.0032,614.626,-0.12505,0.0,0.0
783,195.5,22.8816,23.6461,143.485,99.9976,101.814,0.000487465,0.0454473,21.0026,614.616,-0.151288,0.0,0.0
792,197.75,23.4041,23.5193,143.465,99.9892,101.458,0.000339645,0.0454278,21.002,614.616,-0.122585,0.0,0.0
801,200,23.5539,23.8314,144.593,100.007,102.186,0.000151139,0.0457038,21.0021,614.596,-0.181143,0.0,0.0
810,202.25,22.9611,23.7892,140.406,100.032,101.439,0.000115173,0.0457753,21.0029,614.606,-0.117395,0.0,0.0
819,204.5,23.1516,23.693,139.709,100.037,102.019,0.000288371,0.0457132,21.0032,614.606,-0.164846,0.0,0.0
828,206.75,23.0122,23.7082,143.109,100.048,101.396,0.000392878,0.0456261,21.0033,614.606,-0.112533,0.0,0.0
837,209,23.2307,23.437,140.474,100.06,101.816,0.00037017,0.0455066,21.0042,614.606,-0.146221,0.0,0.0
846,211.25,23.0215,23.5948,144.712,100.085,101.761,0.000340251,0.0455413,21.0049,614.606,-0.139604,0.0,0.0
855,213.5,22.9059,23.9645,143.161,100.076,101.61,0.000326857,0.0455495,21.0052,614.576,-0.127842,0.0,0.0
864,215.75,22.5066,23.6626,139.406,100.103,101.831,0.000305639,0.0455929,21.0045,614.616,-0.143768,0.0,0.0
873,218,22.6552,24.1763,138.643,100.11,101.54,0.000390376,0.0457466,21.0031,614.596,-0.119183,0.0,0.0
882,220.25,22.9998,23.4564,142.254,100.114,101.603,0.000362498,0.0459873,21.0026,614.556,-0.124094,0.0,0.0
891,222.5,22.8151,23.6919,144.997,100.13,101.809,0.000226963,0.0462795,21.0023,614.576,-0.139747,0.0,0.0
900,224.75,23.2327,23.862,141.402,100.145,101.969,0.000246368,0.0461963,21.0023,614.546,-0.151647,0.0,0.0
909,227,22.7555,23.4336,144.108,100.156,101.919,0.000316784,0.0458892,21.0024,614.576,-0.146652,0.0,0.0
918,229.25,23.4167,24.0474,141.674,100.148,101.694,0.000309186,0.0457742,21.0028,614.586,-0.128722,0.0,0.0
927,231.5,23.0403,23.7486,138.865,100.169,102.598,0.00024228,0.0457214,21.0027,614.566,-0.201328,0.0,0.0
936,233.75,22.7924,23.3537,136.514,100.186,102.167,0.000283307,0.0459026,21.0022,614.546,-0.164496,0.0,0.0
945,236,23.1547,23.775,142.25,100.187,101.942,0.000401058,0.0462902,21.0019,614.536,-0.145875,0.0,0.0
954,238.25,22.8672,24.0531,142.377,100.192,101.865,0.000386873,0.0467343,21.0018,614.566,-0.139178,0.0,0.0
963,240.5,23.4161,24.0438,137.982,100.208,101.823,0.000290237,0.0466912,21.0018,614.556,-0.13437,0.0,0.0
972,242.75,23.1569,23.906,137.318,100.219,102.783,0.000294257,0.0464429,21.0018,614.566,-0.212318,0.0,0.0
981,245,23.3076,23.6337,139.871,100.212,102.099,0.00041451,0.0462259,21.0018,614.536,-0.156767,0.0,0.0
990,247.25,22.6738,24.1677,142.366,100.237,101.878,0.00044159,0.0460716,21.0018,614.536,-0.13648,0.0,0.0
999,249.5,23.7229,23.8624,139.017,100.246,102.536,0.000364362,0.0460825,21.0018,614.546,-0.18976,0.0,0.0
1008,251.75,23.0978,23.4679,138.491,100.253,101.808,0.000364168,0.0463687,21.0008,614.536,-0.129322,0.0,0.0
1017,254,22.5234,23.8067,146.22,100.248,102.28,0.000433592,0.04668,21,614.526,-0.168675,0.0,0.0
1026,256.25,23.0864,24.1569,143.959,100.257,102.032,0.000493688,0.0467379,21.0005,614.556,-0.147529,0.0,0.0
1035,258.5,23.3076,23.2849,142.369,100.284,102.22,0.000516253,0.0465573,21.002,614.526,-0.160672,0.0,0.0
1044,260.75,23.0094,24.3316,141.496,100.264,101.313,0.000418809,0.046472,21.0027,614.526,-0.0874677,0.0,0.0
1053,263,22.8998,24.122,139.457,100.268,102.272,0.000291704,0.0463654,21.0021,614.526,-0.166373,0.0,0.0
1062,265.25,23.5709,24.1591,139.201,100.275,101.855,0.000267859,0.0463371,21.0013,614.536,-0.131343,0.0,0.0
1071,267.5,23.1866,23.681,138.979,100.272,102.292,0.000282416,0.0465687,21.0016,614.506,-0.16762,0.0,0.0
1080,269.75,23.5272,23.8213,141.134,100.265,102.235,0.000309701,0.0467362,21.0024,614.516,-0.163527,0.0,0.0
1089,272,22.8803,23.7616,149.136,100.281,102.336,0.000318029,0.0465952,21.0022,614.496,-0.170437,0.0,0.0
1098,274.25,23.2378,23.8853,147.556,100.279,101.959,0.000336183,0.046497,21.0026,614.506,-0.139582,0.0,0.0
1107,276.5,23.2626,24.0526,141.089,100.284,102.182,0.000392294,0.046337,21.0028,614.526,-0.157586,0.0,0.0
1116,278.75,23.1667,24.2614,143.435,100.286,102.492,0.000387781,0.0461929,21.0033,614.486,-0.182887,0.0,0.0
1125,281,22.9188,23.6605,139.845,100.285,101.99,0.000344533,0.0460586,21.0027,614.486,-0.141723,0.0,0.0
1134,283.25,23.1859,23.6515,140.365,100.279,102.268,0.000279671,0.0460282,21.0024,614.486,-0.165066,0.0,0.0
1143,285.5,23.4207,23.8225,138.371,100.272,101.761,0.00029397,0.0462461,21.0018,614.496,-0.123805,0.0,0.0
1152,287.75,23.3163,23.5635,137.585,100.286,101.746,0.000348059,0.0461314,21.0018,614.486,-0.121518,0.0,0.0
1161,290,23.2234,23.5738,142.264,100.287,101.929,0.000322089,0.0461618,21.003,614.476,-0.136479,0.0,0.0
1170,292.25,23.7952,24.1788,139.172,100.279,101.529,0.000230277,0.0460207,21.0034,614.466,-0.104119,0.0,0.0
1179,294.5,22.9905,24.0324,133.535,100.277,102.146,0.00014851,0.0457608,21.0022,614.496,-0.155183,0.0,0.0
1188,296.75,23.1805,24.3828,140.877,100.282,102.392,0.000230187,0.0456151,21.0017,614.416,-0.175057,0.0,0.0
1197,299,22.8762,23.8726,142.727,100.281,101.727,0.000352152,0.0456337,21.0015,614.486,-0.120265,0.0,0.0
1206,301.25,23.3682,23.6821,140.165,100.276,101.757,0.000377865,0.0457983,21.0016,614.466,-0.123245,0.0,0.0
1215,303.5,22.9821,23.7358,141.329,100.278,101.462,0.000398936,0.0460906,21.0019,614.436,-0.098641,0.0,0.0
1224,305.75,23.001,23.938,139.202,100.273,102.075,0.000534911,0.0462581,21.002,614.456,-0.14968,0.0,0.0
1233,308,23.0623,24.1858,143.066,100.285,101.711,0.000510308,0.0464627,21.002,614.476,-0.118709,0.0,0.0
1242,310.25,23.2636,24.1035,139.289,100.268,102.024,0.000405267,0.0468708,21.002,614.446,-0.14589,0.0,0.0
1251,312.5,22.7779,23.985,141.008,100.283,102.401,0.0004446,0.0473702,21.0007,614.436,-0.175688,0.0,0.0
1260,314.75,23.3392,23.8411,140.82,100.291,102.071,0.000501187,0.0476796,21.0001,614.446,-0.147872,0.0,0.0
1269,317,23.2855,24.0693,142.436,100.281,102.144,0.000607432,0.0480435,20.9999,614.436,-0.154664,0.0,0.0
1278,319.25,23.1022,24.0074,139.003,100.293,101.919,0.000575764,0.0480625,21.0006,614.436,-0.135166,0.0,0.0
1287,321.5,23.4723,23.9544,137.508,100.289,101.958,0.000392137,0.0475294,21.0015,614.446,-0.138668,0.0,0.0
1296,323.75,23.3293,23.7054,146.393,100.292,101.753,0.000361659,0.0469006,21.0021,614.446,-0.121567,0.0,0.0
1305,326,23.2116,23.4724,139.4,100.278,102.118,0.000458068,0.0465112,21.0029,614.426,-0.152767,0.0,0.0
1314,328.25,23.0281,24.1364,140.538,100.277,101.793,0.000525898,0.0463738,21.0027,614.446,-0.126089,0.0,0.0
1323,330.5,23.2559,23.9503,135.854,100.282,102.128,0.000646856,0.0467657,21.0013,614.426,-0.153275,0.0,0.0
1332,332.75,23.0661,24.1561,137.655,100.26,101.699,0.000711684,0.0484179,20.9982,614.426,-0.119792,0.0,0.0
1341,335,23.3431,24.1254,138.963,100.25,101.416,0.000643581,0.050615,20.9957,614.416,-0.0972231,0.0,0.0
1350,337.25,23.213,23.7831,141.53,100.247,102.244,0.000663898,0.051692,20.9948,614.426,-0.165738,0.0,0.0
1359,339.5,23.6617,23.88,136.169,100.232,101.786,0.000721429,0.051307,20.9956,614.396,-0.129367,0.0,0.0
1368,341.75,23.4408,24.3214,141.173,100.21,101.973,0.000707253,0.0499467,20.9985,614.386,-0.146534,0.0,0.0
1377,344,22.7012,24.2554,140.893,100.211,101.452,0.000594186,0.0485814,21.0006,614.366,-0.103471,0.0,0.0
1386,346.25,23.438,23.5593,141.086,100.2,101.773,0.000477882,0.0475208,21.0014,614.366,-0.130879,0.0,0.0
1395,348.5,23.0709,24.0382,143.013,100.19,101.961,0.000449681,0.0466726,21.0011,614.386,-0.147221,0.0,0.0
1404,350.75,23.0997,24.1731,143.335,100.18,101.573,0.000537982,0.0463739,21.0007,614.396,-0.116071,0.0,0.0
1413,353,23.3238,24.406,144.921,100.157,101.543,0.00060682,0.046087,21.001,614.386,-0.115512,0.0,0.0
1422,355.25,23.2309,23.7282,141.705,100.145,101.54,0.000564106,0.0458574,21.0015,614.386,-0.116228,0.0,0.0
1431,357.5,23.1228,24.2234,139.238,100.117,101.707,0.000494297,0.045886,21.0004,614.386,-0.132488,0.0,0.0
1440,359.75,22.7824,24.1228,139.746,100.104,101.571,0.000509487,0.0461846,20.9999,614.376,-0.122276,0.0,0.0
1449,362,22.8259,24.3905,142.95,100.09,101.547,0.00048748,0.0464341,20.9997,614.376,-0.121456,0.0,0.0
1458,364.25,23.3029,23.8002,137.637,100.075,102.016,0.0003244,0.046424,20.9996,614.406,-0.161392,0.0,0.0
1467,366.5,23.6962,23.8994,141.905,100.042,101.448,0.000182817,0.0460956,20.9996,614.366,-0.117327,0.0,0.0
1476,368.75,23.3418,23.9543,138.043,100.034,101.938,0.000178778,0.045947,20.9995,614.376,-0.158387,0.0,0.0
1485,371,23.0952,23.914,137.939,100.003,101.752,0.00028337,0.0459545,20.9998,614.376,-0.145695,0.0,0.0
1494,373.25,22.9198,23.6811,131.816,99.9984,101.578,0.000260904,0.0461376,21.0006,614.366,-0.131749,0.0,0.0
1503,375.5,23.3429,24.0569,138.084,99.9527,101.205,0.000239975,0.0460306,21.0009,614.346,-0.104629,0.0,0.0
1512,377.75,23.2325,24.1982,140.59,99.9491,101.134,0.00023892,0.0457537,21.0003,614.366,-0.0990004,0.0,0.0
1521,380,23.2605,24.0625,140.934,99.9243,101.538,0.000177574,0.0457618,21.0007,614.335,-0.134655,0.0,0.0
1530,382.25,23.3858,23.6981,140.922,99.8618,101.455,6.16977e-05,0.0456855,21.0009,614.356,-0.133003,0.0,0.0
1539,384.5,23.639,24.1908,141.679,99.851,101.649,2.99288e-05,0.045716,21.001,614.356,-0.150014,0.0,0.0
1548,386.75,23.5443,23.8627,138.687,99.8342,101.284,0.000111256,0.0459246,21.001,614.335,-0.12116,0.0,0.0
1557,389,23.2078,23.9401,140.412,99.7869,100.825,0.00027515,0.0459592,21.001,614.326,-0.0869894,0.0,0.0
1566,391.25,23.4264,24.3132,139.924,99.7701,100.969,0.000353879,0.0459387,21.001,614.326,-0.100412,0.0,0.0
1575,393.5,23.3726,24.5594,137.194,99.7532,101.411,0.000359614,0.0464168,21.0001,614.326,-0.138519,0.0,0.0
1584,395.75,23.3161,24.4454,140.156,99.7284,101.008,0.000374093,0.0471189,20.9993,614.305,-0.107115,0.0,0.0
1593,398,23.5697,24.4094,140.112,99.6876,101.169,0.000392267,0.0472688,20.999,614.305,-0.123951,0.0,0.0
1602,400.25,23.3352,24.022,141.693,99.6587,100.972,0.000431903,0.0468643,20.9988,614.305,-0.109982,0.0,0.0
1611,402.5,23.247,24.1112,141.267,99.6431,101.013,0.000543532,0.0463331,20.9988,614.305,-0.114715,0.0,0.0
1620,404.75,23.562,24.3169,142.126,99.5886,100.856,0.000614063,0.0458964,20.9998,614.295,-0.106233,0.0,0.0
1629,407,23.7776,24.1353,141.281,99.5646,100.93,0.000487248,0.0455173,21.0006,614.265,-0.114506,0.0,0.0
1638,409.25,23.8042,24.3892,138.678,99.5309,101.065,0.000278051,0.045213,21.0009,614.275,-0.128523,0.0,0.0
1647,411.5,23.5243,24.567,138.837,99.4981,101.04,0.000264745,0.0450185,21.001,614.255,-0.129218,0.0,0.0
1656,413.75,23.7434,24.586,138.2,99.4424,100.791,0.000407715,0.0451388,21.001,614.275,-0.113223,0.0,0.0
1665,416,23.3881,23.7808,138.971,99.4228,100.986,0.000459215,0.0452112,21.001,614.255,-0.131089,0.0,0.0
1674,418.25,23.4631,24.1468,137.826,99.408,100.638,0.000463153,0.0451763,21.0024,614.275,-0.103325,0.0,0.0
1683,420.5,23.3865,24.4975,139.632,99.3503,100.747,0.000349886,0.0452764,21.002,614.265,-0.117327,0.0,0.0
1692,422.75,23.5727,23.7895,136.932,99.3006,101.107,0.000213644,0.0453646,21.0016,614.265,-0.151479,0.0,0.0
1701,425,23.2675,24.2741,140.918,99.2545,101.109,0.00018428,0.0454394,21.0014,614.255,-0.155527,0.0,0.0
1710,427.25,23.1008,24.0908,141.065,99.2225,100.694,0.000223717,0.0456161,21.0019,614.255,-0.123712,0.0,0.0
1719,429.5,23.5149,24.391,138.523,99.1684,100.631,0.000314016,0.0455366,21.0022,614.235,-0.123003,0.0,0.0
1728,431.75,23.4635,24.4927,139.859,99.1496,101.196,0.000405881,0.0455513,21.0031,614.225,-0.171721,0.0,0.0
1737,434,23.8498,24.0984,141.131,99.1288,100.723,0.000372226,0.0454856,21.0034,614.245,-0.134037,0.0,0.0
1746,436.25,23.6734,24.3145,138.825,99.0831,100.559,0.000336703,0.0452657,21.0036,614.235,-0.124234,0.0,0.0
1755,438.5,23.6706,24.2965,141.907,99.0563,100.425,0.00034933,0.0452734,21.0036,614.225,-0.115352,0.0,0.0
1764,440.75,23.9633,24.3315,139.185,99.0122,100.665,0.000303915,0.0453632,21.0035,614.225,-0.139158,0.0,0.0
1773,443,23.8902,24.363,140.957,98.9786,99.8854,0.000380806,0.0453809,21.0019,614.215,-0.0766402,0.0,0.0
1782,445.25,23.8678,24.742,141.181,98.9229,100.28,0.000496766,0.0454282,21.0012,614.215,-0.114493,0.0,0.0
1791,447.5,23.5965,24.0755,145.597,98.8888,100.116,0.000470494,0.0454519,21.0023,614.215,-0.10365,0.0,0.0
1800,449.75,23.6519,24.5567,140.767,98.858,100.258,0.000329527,0.0454191,21.0027,614.225,-0.118213,0.0,0.0
1809,452,23.0931,24.0302,136.821,98.8356,100.672,0.000214168,0.0454506,21.0015,614.225,-0.154686,0.0,0.0
1818,454.25,23.6774,24.6973,135.828,98.7931,100.124,0.000172689,0.0454193,21.001,614.215,-0.112426,0.0,0.0
1827,456.5,23.7434,24.2981,139.543,98.7919,100.18,0.000192813,0.0453798,21.0023,614.215,-0.117247,0.0,0.0
1836,458.75,23.8242,24.5456,137.989,98.7506,100.409,0.000267513,0.0453841,21.0027,614.205,-0.139939,0.0,0.0
1845,461,23.1533,24.5495,139.795,98.7206,100.217,0.00039247,0.0453726,21.0029,614.195,-0.126421,0.0,0.0
1854,463.25,23.5875,24.2635,138.498,98.7074,100.171,0.000447064,0.0453217,21.0032,614.195,-0.123728,0.0,0.0
1863,465.5,23.5756,24.338,140.847,98.697,100.139,0.000389493,0.0453719,21.0039,614.175,-0.121881,0.0,0.0
1872,467.75,23.61,24.6148,141.999,98.6765,100.355,0.000370465,0.0456341,21.0032,614.165,-0.141727,0.0,0.0
1881,470,23.4318,24.4322,141.687,98.6637,99.7278,0.000359478,0.0457212,21.0039,614.165,-0.0901496,0.0,0.0
1890,472.25,23.9977,24.4796,139.132,98.6629,99.7019,0.000232631,0.0456709,21.0041,614.165,-0.0880361,0.0,0.0
1899,474.5,23.1661,24.4743,138.977,98.6537,100.042,0.000111645,0.0455183,21.0042,614.165,-0.117435,0.0,0.0
1908,476.75,23.7715,24.5413,139.939,98.6497,99.8996,0.000132092,0.0455265,21.0043,614.155,-0.105809,0.0,0.0
1917,479,23.6668,23.9866,139.563,98.6401,100.701,0.000202752,0.0454186,21.0043,614.165,-0.173781,0.0,0.0
1926,481.25,23.6387,24.8192,140.232,98.6397,100.067,0.000280409,0.0453756,21.0043,614.185,-0.120728,0.0,0.0
1935,483.5,23.9184,24.223,140.045,98.6449,99.7363,0.000330074,0.0455011,21.0043,614.155,-0.0924678,0.0,0.0
1944,485.75,23.5881,24.3505,139.641,98.6313,99.5649,0.00035968,0.0455519,21.0039,614.155,-0.0791766,0.0,0.0
1953,488,23.7695,24.6878,143.72,98.6209,99.9661,0.000272526,0.0453557,21.0034,614.185,-0.113858,0.0,0.0
1962,490.25,23.7914,24.4158,137.193,98.6253,100.191,4.15844e-05,0.0451786,21.0031,614.175,-0.132331,0.0,0.0
1971,492.5,23.4877,24.3532,144.164,98.6341,99.8385,-2.90628e-05,0.0451522,21.0031,614.125,-0.101996,0.0,0.0
1980,494.75,23.6629,24.3223,140.621,98.6164,100.253,0.000106731,0.0450878,21.003,614.155,-0.138284,0.0,0.0
1989,497,23.9451,24.5922,141.052,98.6289,100.09,0.000315687,0.0451767,21.003,614.135,-0.12356,0.0,0.0
1998,499.25,23.6615,24.5315,141.555,98.6293,99.8184,0.000363074,0.0451874,21.003,614.145,-0.100715,0.0,0.0
2007,501.5,23.1079,24.4676,139.532,98.6429,99.9742,0.000183553,0.0454243,21.003,614.145,-0.112656,0.0,0.0
2016,503.75,23.7939,24.7774,140.578,98.6321,99.6801,-1.69375e-05,0.0458565,21.0019,614.145,-0.0888207,0.0,0.0
2025,506,23.7729,23.8911,141.116,98.6449,99.4614,3.49629e-05,0.0466293,21.0012,614.105,-0.0692735,0.0,0.0
2034,508.25,23.6072,24.6968,139.475,98.6389,99.7617,0.000211917,0.0473718,21.001,614.115,-0.0951225,0.0,0.0
2043,510.5,23.268,24.9261,138.111,98.6277,99.3226,0.000378312,0.0474152,21.0012,614.115,-0.0590066,0.0,0.0
2052,512.75,23.6911,24.7882,140.169,98.6417,99.7497,0.000431076,0.0471098,21.0013,614.085,-0.0938687,0.0,0.0
2061,515,23.9437,24.4681,138.062,98.6433,100.046,0.00053852,0.0465403,21.0013,614.085,-0.118697,0.0,0.0
2070,517.25,23.7033,24.6444,136.943,98.6585,100.093,0.000502076,0.0460659,21.0023,614.085,-0.121298,0.0,0.0
2079,519.5,23.408,24.5175,139.607,98.6465,100.204,0.000406797,0.0457146,21.0031,614.095,-0.131608,0.0,0.0
2088,521.75,24.157,24.7721,137.398,98.6569,99.1923,0.00034778,0.0455416,21.0035,614.105,-0.0454827,0.0,0.0
2097,524,23.651,24.5877,140.623,98.6585,100.704,0.00029063,0.0456758,21.0041,614.085,-0.172472,0.0,0.0
2106,526.25,23.8061,24.5744,140.078,98.6533,100.075,0.000200069,0.0456088,21.0041,614.075,-0.120242,0.0,0.0
2115,528.5,23.8371,24.8523,138.298,98.6573,99.6921,0.000110951,0.0455955,21.0032,614.045,-0.0876863,0.0,0.0
2124,530.75,23.9888,24.7343,141.63,98.6781,99.531,4.68869e-05,0.0455446,21.004,614.095,-0.0723214,0.0,0.0
2133,533,23.4702,24.819,138.161,98.6637,99.7684,4.63998e-05,0.0455146,21.004,614.085,-0.0935709,0.0,0.0
2142,535.25,24.0674,24.4493,141.339,98.6573,99.9777,0.000189936,0.0455023,21.0037,614.065,-0.111728,0.0,0.0
2151,537.5,23.3261,24.3993,141.176,98.6553,99.7738,0.000251122,0.0455752,21.0035,614.045,-0.094739,0.0,0.0
2160,539.75,23.8039,24.3616,138.652,98.6513,99.826,0.000245698,0.0454899,21.0035,614.055,-0.0994763,0.0,0.0
2169,542,24.1704,24.6962,140.558,98.6401,100.022,0.000311554,0.045305,21.0035,614.055,-0.116946,0.0,0.0
2178,544.25,23.9092,24.7502,139.451,98.6309,99.4788,0.000402165,0.0451898,21.003,614.045,-0.0719385,0.0,0.0
2187,546.5,23.9513,24.6135,138.355,98.6201,99.7916,0.000361416,0.0452882,21.0028,614.045,-0.0992447,0.0,0.0
2196,548.75,23.7523,25.1295,139.348,98.6333,100.164,0.000367279,0.0451415,21.0027,614.045,-0.129403,0.0,0.0
2205,551,23.7434,24.3193,140.592,98.6052,99.5908,0.000393696,0.0450481,21.0026,614.065,-0.0835804,0.0,0.0
2214,553.25,23.4945,24.0721,140.767,98.6132,99.7876,0.000362457,0.0450437,21.0026,614.045,-0.0994874,0.0,0.0
2223,555.5,23.7226,24.5743,140.309,98.6064,99.2387,0.000385458,0.0452284,21.0031,614.005,-0.0537133,0.0,0.0
2232,557.75,23.4842,24.7255,139.356,98.5904,99.6801,0.000488802,0.0451765,21.0052,613.995,-0.0923705,0.0,0.0
2241,560,23.5329,24.5044,141.272,98.6084,99.7104,0.000512521,0.0450875,21.0066,614.025,-0.0933931,0.0,0.0
2250,562.25,24.0284,24.3012,139.835,98.574,99.8858,0.000458255,0.045147,21.0062,614.035,-0.111097,0.0,0.0
2259,564.5,24.0147,24.3785,138.211,98.5704,99.6337,0.000413158,0.0451414,21.0061,613.985,-0.0901643,0.0,0.0
2268,566.75,23.9672,24.684,141.941,98.5468,99.7939,0.000408314,0.0452084,21.006,613.995,-0.105682,0.0,0.0
2277,569,23.7422,24.5621,142.261,98.5572,99.589,0.000342319,0.045295,21.006,613.985,-0.0875269,0.0,0.0
2286,571.25,23.8858,24.8131,139.383,98.5524,100.05,0.000138438,0.0452978,21.006,613.955,-0.126709,0.0,0.0
2295,573.5,23.5551,24.519,134.222,98.5203,98.8897,-2.03975e-05,0.0452491,21.006,613.975,-0.0314526,0.0,0.0
2304,575.75,23.4965,24.8225,141.757,98.5119,99.3717,-5.50434e-05,0.0453108,21.0055,613.985,-0.0730283,0.0,0.0
2313,578,23.9601,24.3935,142.337,98.5127,99.4623,0.000104684,0.0462328,21.0044,613.965,-0.0806173,0.0,0.0
2322,580.25,23.6695,25.0287,138.767,98.5063,99.6163,0.000447387,0.0476105,21.0047,613.975,-0.0941625,0.0,0.0
2331,582.5,23.6172,24.6084,137.078,98.4899,99.5515,0.00054828,0.0482836,21.0048,613.965,-0.0901025,0.0,0.0
2340,584.75,23.7603,24.3847,142.123,98.5035,99.6926,0.000572147,0.0478262,21.0049,613.955,-0.100836,0.0,0.0
2349,587,23.7416,24.569,140.525,98.4911,99.3695,0.000568289,0.0471916,21.0049,613.965,-0.074617,0.0,0.0
2358,589.25,23.5576,24.6428,138.021,98.4791,99.3275,0.00055661,0.0464661,21.0049,613.975,-0.0720936,0.0,0.0
2367,591.5,24.002,24.6853,138.7,98.4614,99.6872,0.000575693,0.0458465,21.0063,613.985,-0.103974,0.0,0.0
2376,593.75,24.0981,25.0207,143.226,98.4767,99.1709,0.000594749,0.0454657,21.0069,613.935,-0.0590354,0.0,0.0
2385,596,23.3277,24.463,142.002,98.4622,99.506,0.000630885,0.0451783,21.0059,613.935,-0.0886182,0.0,0.0
2394,598.25,23.5857,24.3921,142.692,98.443,99.1566,0.000700381,0.0452297,21.0053,613.955,-0.0606976,0.0,0.0
2403,600.5,24.0912,24.7957,142.261,98.4474,99.4529,0.000600153,0.0454568,21.0051,613.955,-0.0853978,0.0,0.0
2412,602.75,24.0562,24.3896,135.548,98.4446,99.3351,0.000343792,0.0455386,21.0042,613.925,-0.0756758,0.0,0.0
2421,605,23.6299,24.7907,140.417,98.4374,99.6484,0.00017109,0.0455486,21.0036,613.905,-0.102752,0.0,0.0
2430,607.25,23.9918,24.407,142.602,98.4234,99.3726,0.000276341,0.0455786,21.0034,613.915,-0.0806588,0.0,0.0
2439,609.5,23.9245,24.523,139.95,98.4358,99.494,0.000495228,0.0453731,21.0034,613.905,-0.089857,0.0,0.0
2448,611.75,23.7804,24.6881,143.175,98.4378,99.6618,0.000612268,0.0453951,21.0033,613.905,-0.103847,0.0,0.0
2457,614,23.7937,24.2893,142.16,98.4302,99.8912,0.000586764,0.0454156,21.0033,613.885,-0.123816,0.0,0.0
2466,616.25,24.1803,24.8408,138.939,98.4194,98.8335,0.000577949,0.0453614,21.0033,613.895,-0.0352876,0.0,0.0
2475,618.5,23.8194,24.7998,143.329,98.4254,99.7765,0.000536017,0.0454523,21.0033,613.905,-0.114573,0.0,0.0
2484,620.75,23.5889,24.677,137.963,98.427,99.3896,0.000516675,0.0454816,21.0033,613.885,-0.0817846,0.0,0.0
2493,623,24.0257,24.5954,138.127,98.425,99.7515,0.000401399,0.0457223,21.0033,613.855,-0.112502,0.0,0.0
2502,625.25,24.6886,24.6143,138.951,98.4154,99.3574,0.000288967,0.0459628,21.0039,613.855,-0.0800595,0.0,0.0
2511,627.5,24.209,24.4893,138.426,98.4278,99.207,0.000266157,0.0458871,21.0043,613.875,-0.066269,0.0,0.0
2520,629.75,23.9998,24.6696,141.036,98.4082,98.813,0.000390878,0.0460946,21.0042,613.825,-0.0345,0.0,0.0
2529,632,23.7471,25.029,141.695,98.4106,99.1004,0.000536861,0.0459858,21.0041,613.865,-0.0587009,0.0,0.0
2538,634.25,24.5519,24.4928,140.364,98.4106,98.7144,0.000648377,0.0457548,21.0041,613.845,-0.0259028,0.0,0.0
2547,636.5,24.3433,24.4736,141.787,98.4246,99.5814,0.00072161,0.0456425,21.0041,613.815,-0.0981991,0.0,0.0
2556,638.75,23.939,24.3542,141.523,98.4017,98.9678,0.000756401,0.0456964,21.0041,613.805,-0.0482062,0.0,0.0
2565,641,23.7217,24.5764,138.988,98.4174,99.0004,0.000683117,0.0457703,21.0041,613.815,-0.0496376,0.0,0.0
2574,643.25,23.6217,24.4932,139.579,98.4134,99.1838,0.000546791,0.0459334,21.0041,613.825,-0.0655349,0.0,0.0
2583,645.5,23.9384,24.6521,140.606,98.4082,99.1945,0.000468455,0.0459221,21.0041,613.835,-0.0668865,0.0,0.0
2592,647.75,23.5896,24.7897,139.029,98.4022,99.2271,0.000408399,0.0458256,21.0041,613.835,-0.0701588,0.0,0.0
2601,650,23.7039,24.5798,143.196,98.4122,99.1588,0.000392638,0.0458888,21.0039,613.815,-0.0635199,0.0,0.0
2610,652.25,23.9645,24.6433,141.687,98.4062,98.7996,0.000351729,0.0459467,21.0041,613.795,-0.0335318,0.0,0.0
2619,654.5,23.9057,24.9208,139.755,98.3997,98.9763,0.000245141,0.0458537,21.0041,613.825,-0.0490974,0.0,0.0
2628,656.75,24.0323,24.5687,140.034,98.4017,98.9701,0.000302356,0.0460586,21.0041,613.785,-0.0483961,0.0,0.0
2637,659,23.9747,24.2641,144.444,98.405,98.9268,0.000428404,0.0463986,21.0042,613.765,-0.0444458,0.0,0.0
2646,661.25,24.241,24.9545,144.103,98.4042,98.5823,0.000452125,0.0464948,21.0042,613.785,-0.0151975,0.0,0.0
2655,663.5,23.8635,24.7939,137.733,98.4042,99.0258,0.000438605,0.0462364,21.0055,613.795,-0.0529254,0.0,0.0
2664,665.75,24.0926,24.7578,139.297,98.4182,99.2186,0.000462584,0.0462655,21.0061,613.765,-0.0680731,0.0,0.0
2673,668,23.8638,24.1214,140.434,98.4126,98.8393,0.000507866,0.0465221,21.0054,613.745,-0.0363626,0.0,0.0
2682,670.25,24.259,24.612,141.218,98.4001,99.2534,0.000523052,0.0470118,21.0046,613.745,-0.0725599,0.0,0.0
2691,672.5,23.7041,24.7633,137.278,98.405,98.9143,0.000414566,0.0471752,21.0035,613.715,-0.0433839,0.0,0.0
2700,674.75,23.8562,25.0956,144.93,98.4198,98.5724,0.000341559,0.0468563,21.0028,613.715,-0.0130259,0.0,0.0
2709,677,23.5865,24.6958,140.509,98.4222,98.9897,0.000479544,0.0464614,21.0025,613.705,-0.048318,0.0,0.0
2718,679.25,23.7948,25.1402,142.869,98.4022,98.9455,0.00058723,0.0461654,21.0024,613.715,-0.0462769,0.0,0.0
2727,681.5,24.0757,24.5894,141.19,98.4234,98.697,0.000582626,0.0462386,21.0023,613.685,-0.0233261,0.0,0.0
2736,683.75,23.8672,24.4234,137.776,98.417,98.9335,0.000647827,0.0462477,21.0023,613.715,-0.0439881,0.0,0.0
2745,686,24.0245,24.726,142.856,98.4214,99.4266,0.000884612,0.0461919,21.0023,613.675,-0.0853948,0.0,0.0
2754,688.25,23.4303,24.608,137.49,98.4186,99.0062,0.00109272,0.0462578,21.0023,613.705,-0.0500281,0.0,0.0
2763,690.5,23.4407,24.6381,139.621,98.421,98.838,0.00107517,0.0463441,21.0015,613.695,-0.0355301,0.0,0.0
2772,692.75,23.3832,24.761,139.923,98.425,98.7849,0.000924278,0.0466241,21.0011,613.695,-0.0306718,0.0,0.0
2781,695,23.5952,24.7924,140.985,98.403,98.796,0.000854495,0.0467186,21.0008,613.715,-0.0335022,0.0,0.0
2790,697.25,24.2511,24.748,139.327,98.4122,98.9156,0.000752536,0.0467085,21.0003,613.675,-0.0428824,0.0,0.0
2799,699.5,23.684,24.5085,141.578,98.4366,98.7037,0.000568581,0.0470048,20.999,613.695,-0.0227676,0.0,0.0
2808,701.75,23.6735,24.4511,135.909,98.4322,99.2111,0.000442162,0.0476809,20.9978,613.645,-0.0662336,0.0,0.0
2817,704,23.8985,24.7577,143.99,98.431,99.5908,0.000395258,0.0485164,20.9972,613.685,-0.0984429,0.0,0.0
2826,706.25,24.1947,24.5583,136.287,98.4462,98.6621,0.000431145,0.0488049,20.9981,613.625,-0.0184126,0.0,0.0
2835,708.5,23.8529,24.7439,137.75,98.443,99.4627,0.000553132,0.0487701,20.9987,613.665,-0.0866022,0.0,0.0
2844,710.75,24.1415,24.955,141.125,98.4386,98.9643,0.000700845,0.048324,20.999,613.615,-0.0447565,0.0,0.0
2853,713,24.3169,24.6654,143.907,98.4366,99.6484,0.000777495,0.0479555,21.0002,613.615,-0.10282,0.0,0.0
2862,715.25,23.9154,24.9396,142.505,98.4566,99.0165,0.00084807,0.0477799,21.0009,613.595,-0.0476505,0.0,0.0
2871,717.5,24.3388,25.2339,138.918,98.4514,98.8482,0.000904643,0.0474502,21.0013,613.595,-0.0338039,0.0,0.0
2880,719.75,23.8895,24.8425,135.84,98.4454,98.9098,0.000931621,0.0471673,21.0032,613.615,-0.0395507,0.0,0.0
2889,722,23.9135,24.2197,144.585,98.459,98.6184,0.000953952,0.0469703,21.0041,613.625,-0.0135928,0.0,0.0
2898,724.25,23.4274,24.5581,140.509,98.4562,99.104,0.000899708,0.046845,21.0044,613.595,-0.0551053,0.0,0.0
2907,726.5,23.7139,24.6671,140.667,98.4438,98.5109,0.00080006,0.0469185,21.0045,613.605,-0.00572221,0.0,0.0
2916,728.75,23.9813,24.0859,139.276,98.459,98.8308,0.00067562,0.047444,21.0043,613.595,-0.0316743,0.0,0.0
2925,731,23.8313,24.4784,139.209,98.4811,99.0709,0.000543647,0.0477794,21.0031,613.585,-0.0501843,0.0,0.0
2934,733.25,23.8264,24.6811,142.115,98.4771,99.012,0.000447674,0.0479353,21.0026,613.595,-0.045528,0.0,0.0
2943,735.5,24.0381,24.6821,138.713,98.4739,99.2789,0.000476481,0.0480877,21.0024,613.585,-0.0684215,0.0,0.0
2952,737.75,24.1192,24.8086,140.883,98.4879,99.5279,0.000464312,0.048484,21.0024,613.615,-0.088277,0.0,0.0
2961,740,24.1175,25.2612,142.918,98.4919,98.9018,0.000455754,0.048804,21.0023,613.575,-0.0349023,0.0,0.0
2970,742.25,24.0405,24.9526,140.611,98.4987,99.1263,0.000472285,0.0488491,21.0009,613.565,-0.053373,0.0,0.0
2979,744.5,23.9384,24.3097,140.671,98.5011,98.9098,0.000428697,0.049549,20.9988,613.575,-0.0347987,0.0,0.0
2988,746.75,24.2646,24.5495,140.367,98.5127,99.3248,0.000387272,0.0504876,20.9977,613.525,-0.0689962,0.0,0.0
2997,749,23.8941,24.2685,138.855,98.5179,98.9321,0.000466499,0.0511565,20.9969,613.525,-0.0352595,0.0,0.0
3006,751.25,23.8649,24.7574,140.446,98.5131,98.6961,0.000598133,0.05318,20.9942,613.515,-0.0155929,0.0,0.0
3015,753.5,24.3453,24.9573,142.446,98.5339,99.0816,0.000663183,0.0547444,20.9922,613.495,-0.0465822,0.0,0.0
3024,755.75,24.1952,24.6179,140.394,98.5431,98.8991,0.000681795,0.0555486,20.9909,613.535,-0.0303023,0.0,0.0
3033,758,23.872,24.8585,140.351,98.5452,99.3498,0.000747964,0.0553492,20.9909,613.515,-0.0683432,0.0,0.0
3042,760.25,24.1797,24.4419,139.141,98.5508,98.7407,0.000831639,0.0548118,20.9919,613.495,-0.0161806,0.0,0.0
3051,762.5,23.743,24.9657,138.928,98.5528,98.875,0.000898764,0.0543042,20.9936,613.505,-0.0274338,0.0,0.0
3060,764.75,24.0883,24.8549,135.423,98.5744,98.7148,0.000924831,0.0534653,20.9947,613.495,-0.0119619,0.0,0.0
3069,767,24.0814,24.3876,140.457,98.5552,99.3356,0.000858192,0.05249,20.9968,613.495,-0.0662806,0.0,0.0
3078,769.25,24.1196,25.012,142.791,98.5732,99.6792,0.000585465,0.0516187,20.9978,613.475,-0.0937639,0.0,0.0
3087,771.5,23.775,24.4782,144.884,98.5704,98.7884,0.000327798,0.0507422,20.9981,613.445,-0.0185693,0.0,0.0
3096,773.75,23.8664,24.768,142.891,98.5804,99.0999,0.000290061,0.0502383,20.9983,613.465,-0.0441724,0.0,0.0
3105,776,24.0089,24.9119,137.809,98.5928,99.2976,0.000427822,0.0505219,20.997,613.455,-0.0598612,0.0,0.0
3114,778.25,24.1733,24.5384,141.615,98.6169,98.7942,0.000572059,0.0513399,20.9959,613.425,-0.0151031,0.0,0.0
3123,780.5,23.9735,24.507,139.151,98.6325,99.0143,0.000690982,0.052689,20.9933,613.435,-0.0324657,0.0,0.0
3132,782.75,24.1188,24.9808,139.313,98.6313,98.8054,0.000633346,0.053811,20.9922,613.415,-0.0148231,0.0,0.0
3141,785,24.1993,24.8144,138.144,98.6697,98.7251,0.000450622,0.053735,20.9925,613.405,-0.00471277,0.0,0.0
3150,787.25,23.7407,24.8756,137.686,98.6998,98.7385,0.000350451,0.0524058,20.9945,613.405,-0.00329355,0.0,0.0
3159,789.5,23.6562,24.8578,139.613,98.7102,98.9942,0.000399078,0.0506181,20.9983,613.405,-0.0241419,0.0,0.0
3168,791.75,24.1617,25.3431,138.988,98.7286,99.2807,0.000438294,0.04929,21.0008,613.395,-0.0468602,0.0,0.0
3177,794,23.7046,24.7487,140.683,98.7462,98.842,0.000521117,0.0483094,21.0021,613.375,-0.00814605,0.0,0.0
3186,796.25,23.961,24.502,138.423,98.7775,99.1383,0.000589104,0.0474603,21.0031,613.395,-0.0306427,0.0,0.0
3195,798.5,23.421,24.7032,136.74,98.8007,98.5854,0.000635209,0.0469243,21.0044,613.375,0.0183339,0.0,0.0
3204,800.75,23.9284,24.8178,140.743,98.8263,98.8964,0.000652973,0.0464775,21.0049,613.375,-0.00595829,0.0,0.0
3213,803,24.1806,24.9274,139.851,98.8328,98.3404,0.0007184,0.0462641,21.0051,613.365,0.0419695,0.0,0.0
3222,805.25,23.8895,24.4199,140.557,98.8552,99.2204,0.000754301,0.0463451,21.0052,613.365,-0.0309916,0.0,0.0
3231,807.5,24.0942,24.726,138.656,98.8576,99.1548,0.000874038,0.0464762,21.0052,613.365,-0.0252295,0.0,0.0
3240,809.75,24.5769,24.4572,141.396,98.8828,99.016,0.00102068,0.0463563,21.0052,613.344,-0.0113139,0.0,0.0
3249,812,24.1017,25.2529,141.476,98.8768,98.8076,0.00086861,0.0461825,21.0042,613.294,0.00588249,0.0,0.0
3258,814.25,23.7521,24.6583,141.081,98.882,98.9754,0.000622558,0.0460978,21.0042,613.334,-0.00793447,0.0,0.0
3267,816.5,23.6605,24.791,141.683,98.8772,98.7139,0.000483028,0.0461051,21.0034,613.305,0.0138904,0.0,0.0
3276,818.75,23.613,25.0147,136.408,98.8748,99.2927,0.000522867,0.0466293,21.0029,613.305,-0.0354446,0.0,0.0
3285,821,24.0854,24.5763,140.632,98.8788,98.8643,0.000711266,0.0479619,21.0015,613.315,0.00123312,0.0,0.0
3294,823.25,23.7805,24.6322,138.007,98.8612,98.8456,0.000956122,0.0496099,20.9996,613.294,0.00132928,0.0,0.0
3303,825.5,24.1877,25.1497,135.469,98.846,98.9366,0.00106648,0.0505526,20.9989,613.315,-0.00770183,0.0,0.0
3312,827.75,24.4937,24.63,137.986,98.8388,99.3115,0.00112456,0.0506752,20.9972,613.294,-0.0400947,0.0,0.0
3321,830,24.1532,25.0865,141.114,98.8243,99.5092,0.00100947,0.0502808,20.9965,613.274,-0.0580336,0.0,0.0
3330,832.25,24.5794,24.9717,141.158,98.8023,99.0772,0.000809341,0.0496757,20.997,613.254,-0.0233462,0.0,0.0
3339,834.5,23.9983,24.7514,138.044,98.7931,99.369,0.000746177,0.049278,20.9985,613.244,-0.048848,0.0,0.0
3348,836.75,23.9913,25.2094,135.76,98.7871,99.0986,0.000585811,0.0488078,21,613.254,-0.026458,0.0,0.0
3357,839,24.1416,25.1977,137.557,98.7506,99.6082,0.000398858,0.04854,21.0009,613.224,-0.072665,0.0,0.0
3366,841.25,24.4795,24.5962,139.744,98.7446,98.6296,0.000431541,0.0482174,21.0013,613.194,0.00979787,0.0,0.0
3375,843.5,24.4898,25.285,141.721,98.7322,99.4654,0.000530814,0.0480212,21.0014,613.234,-0.0621765,0.0,0.0
3384,845.75,24.1877,25.1604,139.712,98.717,98.3814,0.000529429,0.04809,21.0015,613.194,0.0286126,0.0,0.0
3393,848,24.2718,25.5124,142.474,98.6773,98.8625,0.000499408,0.0481704,21.0011,613.194,-0.015756,0.0,0.0
3402,850.25,24.5251,25.1538,141.153,98.6861,98.8313,0.000580728,0.0480891,21.0008,613.214,-0.0123497,0.0,0.0
3411,852.5,24.1004,25.3411,140.686,98.6737,98.6037,0.000723568,0.0479835,21.0007,613.194,0.00596659,0.0,0.0
3420,854.75,24.0144,25.1493,143.171,98.6541,98.3471,0.000864906,0.0477596,21.0007,613.184,0.0261942,0.0,0.0
3429,857,24.0452,24.912,137.294,98.6249,99.2186,0.000922481,0.0495302,21,613.164,-0.0504428,0.0,0.0
3438,859.25,24.2894,25.3058,141.804,98.6197,98.2543,0.000969684,0.0583711,20.9913,613.144,0.0311931,0.0,1.0
3447,861.5,23.3297,23.96,137.02,98.6104,95.4928,0.00114777,0.0802158,20.963,613.144,0.269979,0.0,1.0
3456,863.75,23.1649,23.7147,133.824,98.5872,92.3681,0.00186692,0.107023,20.9293,613.044,0.547584,0.0,0.0
3465,866,23.3986,23.98,130.878,98.574,90.2532,0.00313664,0.154254,20.8756,612.834,0.741103,0.0,0.0
3474,868.25,24.6559,24.5712,134.895,98.5648,85.3939,0.00459923,0.211501,20.8039,612.704,1.20542,0.0,0.0
3483,870.5,25.2123,25.5797,136.047,98.5524,87.4427,0.00579883,0.261204,20.7489,612.504,1.00512,0.0,0.0
3492,872.75,25.8266,25.875,131.33,98.5339,86.4167,0.00683378,0.292579,20.7194,612.344,1.10273,0.0,0.0
3501,875,27.2274,26.7927,133.025,98.5267,83.5598,0.00784059,0.322169,20.6733,612.133,1.38464,0.0,0.0
3510,877.25,27.8919,27.7441,125.597,98.5047,82.5481,0.00828302,0.363047,20.6354,611.883,1.48512,0.0,0.0
3519,879.5,29.2011,28.8727,126.705,98.5087,87.4784,0.00789397,0.382269,20.6218,611.703,0.997962,0.0,0.0
3528,881.75,29.9272,29.6622,128.885,98.4915,90.5804,0.00712375,0.36694,20.6361,611.523,0.703663,0.0,0.0
3537,884,30.6494,30.0641,132.226,98.4811,92.742,0.00624098,0.339132,20.6687,611.423,0.504577,0.0,0.0
3546,886.25,30.8618,30.445,132.649,98.4694,93.5895,0.00528167,0.308265,20.7064,611.3125,0.427144,0.0,0.0
3555,888.5,31.055,30.9422,134.054,98.4526,95.6012,0.00462897,0.275803,20.7478,611.172,0.246981,0.0,0.0
3564,890.75,31.2941,31.1873,135.401,98.4382,97.4278,0.00421919,0.245643,20.7814,611.102,0.0867045,0.0,0.0
3573,893,31.061,31.267,139.803,98.4394,99.0723,0.00382853,0.219165,20.809,611.072,-0.0538545,0.0,0.0
3582,895.25,30.8313,31.4673,135.373,98.4198,99.3646,0.00337485,0.198194,20.8336,611.002,-0.0802866,0.0,0.0
3591,897.5,31.0092,31.4437,136.907,98.4258,100.712,0.00302376,0.17657,20.8537,610.952,-0.19299,0.0,0.0
3600,899.75,30.3076,31.4897,137.755,98.4162,100.31,0.0027859,0.157354,20.8753,610.932,-0.160155,0.0,0.0
3609,902,30.7092,30.7874,137.094,98.413,100.216,0.00264296,0.139874,20.8973,610.852,-0.152537,0.0,0.0
3618,904.25,29.8686,31.5263,137.665,98.4046,99.9951,0.00247467,0.124367,20.9143,610.842,-0.134748,0.0,0.0
3627,906.5,30.0658,30.8286,140.716,98.3985,100.088,0.00215588,0.111941,20.9304,610.852,-0.143058,0.0,0.0
3636,908.75,29.2002,31.071,137.51,98.4154,100.759,0.0018543,0.100065,20.9445,610.832,-0.197751,0.0,0.0
3645,911,29.5816,30.3478,137.015,98.3965,100.179,0.00169041,0.089848,20.956,610.792,-0.150832,0.0,0.0
3654,913.25,28.5676,30.4651,137.334,98.3889,99.8273,0.00164659,0.0818057,20.9646,610.782,-0.121969,0.0,0.0
3663,915.5,28.0286,30.2188,139.016,98.3909,100.11,0.00151306,0.0758452,20.9712,610.792,-0.145544,0.0,0.0
3672,917.75,28.811,29.8503,141.561,98.4082,99.7376,0.00130244,0.0707253,20.9769,610.772,-0.112773,0.0,0.0
3681,920,27.7638,29.5527,139.658,98.3897,99.8804,0.00110787,0.0660393,20.9814,610.762,-0.12637,0.0,0.0
3690,922.25,27.7495,29.5806,137.162,98.4017,99.706,0.00097244,0.062458,20.9851,610.762,-0.11065,0.0,0.0
3699,924.5,27.9601,28.8058,140.488,98.3997,99.4431,0.000779359,0.0596614,20.9884,610.752,-0.0886374,0.0,0.0
3708,926.75,26.7911,29.2989,140.029,98.3993,99.7599,0.000578328,0.0576981,20.9903,610.742,-0.115405,0.0,0.0
3717,929,25.9385,27.5393,142.17,98.3945,99.6551,0.000608027,0.0560652,20.9912,610.742,-0.106977,0.0,0.0
3726,931.25,25.7324,27.5146,140.311,98.4074,99.5498,0.000644551,0.0543092,20.9926,610.722,-0.0969956,0.0,0.0
3735,933.5,25.6154,26.7883,139.311,98.409,100.361,0.000580281,0.0529301,20.9937,610.712,-0.165032,0.0,0.0
3744,935.75,25.5315,27.0108,143.209,98.3925,99.83,0.0005743,0.0514613,20.9953,610.722,-0.121886,0.0,0.0
3753,938,25.4527,26.745,140.34,98.4046,99.44,0.00069613,0.0502939,20.997,610.732,-0.0879627,0.0,0.0
3762,940.25,24.8787,26.3845,140.019,98.4009,99.6292,0.000780493,0.0497011,20.998,610.682,-0.104246,0.0,0.0
3771,942.5,24.5806,26.5819,140.681,98.3989,99.3414,0.000815214,0.0494302,20.9984,610.732,-0.0801025,0.0,0.0
3780,944.75,24.696,26.0632,139.257,98.4009,99.98,0.000788466,0.0491789,20.9986,610.722,-0.133781,0.0,0.0
3789,947,25.1873,26.3456,140.855,98.4038,99.8626,0.000694947,0.048788,20.9986,610.712,-0.12367,0.0,0.0
3798,949.25,23.9828,26.0229,139.878,98.409,99.5667,0.000647647,0.0482968,20.9987,610.702,-0.0982903,0.0,0.0
3807,951.5,24.0077,25.5148,140.332,98.3985,99.6216,0.000561859,0.0480046,20.9998,610.702,-0.103812,0.0,0.0
3816,953.75,23.9669,25.6945,138.123,98.3989,99.772,0.000502134,0.047758,21.0003,610.682,-0.116454,0.0,0.0
3825,956,24.2895,25.9411,140.045,98.4014,99.5877,0.000450346,0.0475648,21.0005,610.702,-0.10071,0.0,0.0
3834,958.25,23.562,25.1329,142.518,98.403,99.4525,0.000380008,0.0472955,21.0006,610.692,-0.0891553,0.0,0.0
3843,960.5,23.6889,25.3384,138.233,98.3925,99.9367,0.000400539,0.0471446,21.0019,610.672,-0.130859,0.0,0.0
3852,962.75,23.6196,24.8159,140.682,98.4054,100.167,0.000520668,0.0470489,21.0025,610.662,-0.149144,0.0,0.0
3861,965,23.4133,25.1328,140.509,98.411,99.8938,0.000548869,0.0469238,21.0028,610.662,-0.125683,0.0,0.0
3870,967.25,23.4161,25.3169,137.783,98.4022,100.015,0.000489332,0.0467401,21.0022,610.712,-0.136603,0.0,0.0
3879,969.5,23.363,25.2941,137.223,98.4034,99.8528,0.000541675,0.0467936,21.0024,610.722,-0.122879,0.0,0.0
3888,971.75,23.5103,25.4244,139.384,98.4066,99.9916,0.000678421,0.0468142,21.0027,610.692,-0.134277,0.0,0.0
3897,974,23.8728,24.8134,138.551,98.4022,99.7894,0.000852216,0.046858,21.0018,610.672,-0.117646,0.0,0.0
3906,976.25,23.2513,24.7881,143.376,98.3953,99.9724,0.000896621,0.0470328,21.0002,610.672,-0.133622,0.0,0.0
3915,978.5,23.3398,24.7298,137.675,98.4082,100.249,0.000798994,0.0472613,20.9993,610.662,-0.155715,0.0,0.0
3924,980.75,23.4361,25.0497,140.52,98.4074,99.6993,0.00067359,0.0476103,20.9987,610.672,-0.109606,0.0,0.0
3933,983,23.2541,24.6517,141.083,98.3901,99.6564,0.000721092,0.0481545,20.9973,610.662,-0.107465,0.0,0.0
3942,985.25,23.0781,24.4141,138.884,98.4098,99.0915,0.000881699,0.0487512,20.9967,610.632,-0.0580125,0.0,0.0
3951,987.5,23.5471,24.4063,139.851,98.403,99.2927,0.000843832,0.0492294,20.9965,610.642,-0.075645,0.0,0.0
3960,989.75,23.1841,24.4594,141.976,98.4058,99.4141,0.000697107,0.049398,20.9964,610.622,-0.0856731,0.0,0.0
3969,992,22.9154,24.0247,139.023,98.405,100.18,0.000590417,0.0492833,20.9964,610.642,-0.150264,0.0,0.0
3978,994.25,22.6676,24.0296,142.967,98.4134,99.7314,0.000581553,0.0490097,20.9964,610.642,-0.111801,0.0,0.0
3987,996.5,22.8019,24.1095,140.815,98.4034,100.052,0.000745121,0.0485693,20.9974,610.642,-0.139612,0.0,0.0
3996,998.75,22.8228,24.0728,142.511,98.4114,99.9728,0.000890824,0.0481035,20.9986,610.602,-0.132291,0.0,0.0
4005,1001,22.4795,23.7435,136.191,98.3941,99.481,0.000803193,0.0476073,20.999,610.642,-0.0923214,0.0,0.0
4014,1003.25,22.0922,23.8062,142.644,98.4086,100,0.000735414,0.0474173,20.9992,610.612,-0.134856,0.0,0.0
4023,1005.5,22.0816,24.0648,138.508,98.417,99.2387,0.000753447,0.0470917,20.9993,610.622,-0.0698765,0.0,0.0
4032,1007.75,22.6161,23.6198,141.859,98.4014,100.082,0.000816032,0.0470654,20.9993,610.632,-0.142294,0.0,0.0
4041,1010,22.8332,23.7913,142.069,98.4278,99.8122,0.00100721,0.0469745,20.9993,610.622,-0.117373,0.0,0.0
4050,1012.25,22.5246,23.4633,136.669,98.4074,99.768,0.00105022,0.0469393,21.0005,610.582,-0.115397,0.0,0.0
4059,1014.5,22.6169,23.5237,143.201,98.4106,99.7689,0.00100818,0.0466848,21.0012,610.622,-0.115199,0.0,0.0
4068,1016.75,22.4008,23.5409,142.101,98.405,100.112,0.000830868,0.0466929,21.0003,610.612,-0.144571,0.0,0.0
4077,1019,22.6748,23.748,141.343,98.4134,100.076,0.00065498,0.0468376,20.9999,610.602,-0.140818,0.0,0.0
4086,1021.25,22.4602,23.3231,141.369,98.4342,99.4681,0.000401715,0.0469349,21,610.572,-0.0878073,0.0,0.0
4095,1023.5,22.532,23.8958,141.36,98.4106,99.7207,0.000144699,0.047022,21,610.602,-0.111138,0.0,0.0
4104,1025.75,22.8505,23.0776,139.272,98.4162,100.078,7.41106e-05,0.0470603,21,610.612,-0.140729,0.0,0.0
4113,1028,22.4016,23.413,138.248,98.4258,99.73,0.000244477,0.0470289,21,610.602,-0.110628,0.0,0.0
4122,1030.25,22.7952,23.6278,137.481,98.431,99.6274,0.000473317,0.0470214,21,610.602,-0.10153,0.0,0.0
4131,1032.5,22.6978,23.8617,139.806,98.427,99.3235,0.000479354,0.0470479,21,610.582,-0.0761985,0.0,0.0
4140,1034.75,22.5113,23.1549,138.904,98.4422,100.202,0.00042068,0.0469654,21,610.572,-0.14888,0.0,0.0
4149,1037,22.5688,23.5771,142.422,98.4478,99.7586,0.000453681,0.0469463,21,610.582,-0.111154,0.0,0.0
4158,1039.25,22.4318,23.6127,143.618,98.4458,99.9465,,0.0467703,,610.572,-0.127137,0.0,0.0
4167,1041.5,21.7613,23.176,140.209,98.447,99.4565,,,,610.562,-0.0857333,0.0,0.0
4176,1043.75,22.5947,23.5046,139.005,98.4662,100.238,,,,610.542,-0.14986,0.0,0.0
4185,1046,22.1296,23.1897,139.707,98.4807,99.8086,,,,610.572,-0.11256,0.0,0.0
4194,1048.25,22.144,23.5416,144.314,98.4999,99.9295,,,,610.572,-0.121095,0.0,0.0
4196,1048.75,22.4889,23.4003,138.429,98.4867,99.8099,,,,610.572,-0.112159,0.0,0.0