File: 01_Data/Polyester_Microfiber_Sheet/Cone/Polyester_Microfiber_Sheet_Cone_HF25Scan_220512_R3.csv
Names,Time,Stack TC,Smoke TC,Exh Press,Smoke Comp,Smoke Meas,CO Meter,CO2 Meter,O2 Meter,Sample Mass,Ext Coeff,Start Test,Flame Verif
Chan Gain,,500,500,1,1,1,1,1,1,1,1,1.0,1.0
Offset,,0,0,0.138628,0,0,0,0,0,0,0,0.0,0.0
Gain,,1,1,25.011,13.1256,14.6231,1,1,1,1.001,0.958019,1.0,1.0
Units,sec,C,C,Pa,%,%,%,%,%,g,/m,,
Baseline,,24.0741,24.7434,140.522,99.4426,101.967,0.000484174,0.0429005,21.0044,-444.236,-0.210641,,
5,1,20.8572,22.1399,140.862,99.3723,102.087,0.000332128,0.0477664,20.998,596.007,-0.226512,0.0,0.0
10,2.25,21.1339,21.9105,142.716,99.3807,101.97,0.000345493,0.0477105,20.9989,595.917,-0.216134,0.0,0.0
15,3.5,21.4676,21.7882,138.6,99.3831,102.172,0.000384913,0.0477288,20.9994,595.997,-0.232611,0.0,0.0
20,4.75,21.2504,22.5145,142.748,99.3947,101.888,0.000405512,0.0477389,20.9998,595.967,-0.208215,0.0,0.0
25,6,20.7854,21.7415,139.336,99.3895,102.435,0.000396401,0.0478111,21,595.967,-0.25366,0.0,0.0
30,7.25,21.3824,21.8261,140.398,99.3899,102.033,0.00035843,0.0477996,21.0001,595.937,-0.220539,0.0,0.0
35,8.5,21.3036,21.7003,140.073,99.3967,102.257,0.000343204,0.0476217,21.0001,595.907,-0.238431,0.0,0.0
40,9.75,21.2048,21.7245,139.055,99.3903,101.131,0.000347319,0.0473644,21.0002,595.897,-0.145929,0.0,0.0
45,11,21.3924,21.9379,135.814,99.4048,101.89,0.000356603,0.0470653,21.0002,595.897,-0.207479,0.0,0.0
50,12.25,21.1187,21.9136,139.892,99.4024,101.77,0.000375166,0.0466824,21.0008,595.887,-0.197848,0.0,0.0
55,13.5,21.6175,22.1144,141.145,99.4044,102.368,0.000397213,0.046224,21.0015,595.877,-0.246914,0.0,0.0
60,14.75,21.4643,21.788,138.284,99.3979,101.942,0.000406191,0.0458567,21.0022,595.887,-0.212397,0.0,0.0
65,16,21.4059,22.1246,140.426,99.3999,101.707,0.000379422,0.0454925,21.0033,595.927,-0.192781,0.0,0.0
70,17.25,21.4858,22.3442,140.712,99.4027,102.209,0.000328514,0.0452009,21.0039,595.907,-0.233961,0.0,0.0
75,18.5,21.388,22.371,139.942,99.406,102.145,0.000290823,0.0449797,21.0043,595.907,-0.228442,0.0,0.0
80,19.75,21.4531,22.2249,136.006,99.41,102.209,0.000272614,0.0447658,21.0045,595.887,-0.233315,0.0,0.0
85,21,21.6764,21.8237,145.181,99.4196,101.435,0.000259766,0.0444939,21.0046,595.907,-0.168636,0.0,0.0
90,22.25,21.868,21.8361,138.804,99.4192,102.334,0.000236646,0.0443233,21.0047,595.897,-0.242876,0.0,0.0
95,23.5,22.0333,22.0971,134.702,99.4208,101.797,0.000214252,0.0441195,21.0054,595.897,-0.198465,0.0,0.0
100,24.75,21.5763,21.9075,139.376,99.4356,101.95,0.000200197,0.0438846,21.0061,595.897,-0.209839,0.0,0.0
105,26,21.655,22.2186,140.661,99.4464,102.254,0.000198432,0.043687,21.0059,595.897,-0.233939,0.0,0.0
110,27.25,22.5474,22.2209,139.595,99.4484,101.962,0.000212367,0.0435557,21.0059,595.877,-0.209785,0.0,0.0
115,28.5,21.3413,22.8148,138.029,99.4496,101.99,0.000273377,0.043449,21.0064,595.877,-0.211965,0.0,0.0
120,29.75,21.8362,22.4302,141.881,99.4805,102.073,0.00037428,0.0433235,21.0067,595.907,-0.216232,0.0,0.0
125,31,22.0735,22.5807,143.598,99.4857,101.677,0.000444782,0.0432688,21.0069,595.857,-0.183066,0.0,0.0
130,32.25,21.9553,22.1634,142.29,99.4841,101.994,0.000449817,0.0432458,21.007,595.887,-0.209385,0.0,0.0
135,33.5,21.8143,22.6922,143.972,99.4841,101.677,0.000438083,0.0431525,21.007,595.907,-0.183201,0.0,0.0
140,34.75,21.3321,22.5125,139.935,99.4941,102.148,0.000428372,0.0430179,21.0071,595.907,-0.221215,0.0,0.0
145,36,22.1194,22.3624,140.111,99.5121,102.129,0.00046159,0.0429092,21.0069,595.917,-0.218114,0.0,0.0
150,37.25,22.3174,22.694,141.647,99.5093,102.04,0.000494082,0.0428294,21.007,595.907,-0.211077,0.0,0.0
155,38.5,22.1587,22.7981,140.116,99.5169,101.608,0.000486133,0.042928,21.0081,595.897,-0.174745,0.0,0.0
160,39.75,22.3687,22.355,139.313,99.5317,101.337,0.000424813,0.0428712,21.0087,595.897,-0.151097,0.0,0.0
165,41,22.172,22.4119,138.649,99.5385,102.016,0.000356603,0.0427566,21.0091,595.877,-0.206585,0.0,0.0
170,42.25,22.5997,22.6786,139.737,99.5353,101.525,0.000315088,0.0426144,21.0089,595.887,-0.166358,0.0,0.0
175,43.5,22.214,22.1927,141.03,99.5401,101.692,0.000315903,0.0426753,21.0082,595.887,-0.179719,0.0,0.0
180,44.75,22.0526,22.493,140.183,99.553,101.904,0.000321889,0.0427668,21.0079,595.887,-0.196173,0.0,0.0
185,46,22.1338,22.3267,140.154,99.5478,101.735,0.000328435,0.0428297,21.0076,595.897,-0.182654,0.0,0.0
190,47.25,22.2313,22.4515,139.596,99.5369,101.545,0.000329705,0.0429204,21.0075,595.877,-0.167848,0.0,0.0
195,48.5,22.3175,22.6607,136.969,99.5413,101.876,0.000323917,0.0429834,21.0074,595.897,-0.194835,0.0,0.0
200,49.75,21.6874,22.7202,143.504,99.5401,102.188,0.000295962,0.0430788,21.0074,595.897,-0.220628,0.0,0.0
205,51,22.4058,22.7976,138.162,99.5329,102.052,0.000268002,0.0432227,21.0074,595.877,-0.210037,0.0,0.0
210,52.25,22.7021,22.6762,137.803,99.5213,102.442,0.000245605,0.0431625,21.0074,595.887,-0.243074,0.0,0.0
215,53.5,21.9228,22.5273,140.86,99.5365,102.128,0.000244572,0.0430388,21.0073,595.867,-0.215977,0.0,0.0
220,54.75,22.3834,22.4274,143.724,99.5249,102.101,0.000268776,0.0430623,21.0073,595.847,-0.214718,0.0,0.0
225,56,22.7137,22.6636,140.161,99.5205,101.701,0.000305819,0.0431833,21.0073,595.867,-0.182151,0.0,0.0
230,57.25,22.263,22.5956,138.672,99.5097,102.369,0.00034498,0.0432651,21.0073,595.887,-0.23805,0.0,0.0
235,58.5,22.3641,23.1415,140.033,99.5253,101.955,0.000362367,0.043278,21.0072,595.907,-0.202701,0.0,0.0
240,59.75,22.1442,23.0978,142.427,99.5161,102.79,0.00034572,0.0433206,21.0068,595.897,-0.271983,0.0,0.0
245,61,22.4106,22.6642,139.75,99.5025,101.618,0.000318397,0.0433437,21.0065,595.817,-0.176775,0.0,0.0
250,62.25,22.8805,22.5343,140.112,99.5097,101.779,0.00031262,0.04329,21.0059,595.867,-0.189516,0.0,0.0
255,63.5,22.5354,22.8694,141.444,99.5057,101.553,0.000350229,0.0432969,21.0051,595.907,-0.171188,0.0,0.0
260,64.75,22.3712,22.8859,143.114,99.5097,101.661,0.000437321,0.0433942,21.0046,595.887,-0.179782,0.0,0.0
265,66,22.4899,22.8558,138.289,99.4993,102.159,0.000518656,0.0436125,21.0043,595.837,-0.221656,0.0,0.0
270,67.25,22.7758,22.9352,138.708,99.4849,102.173,0.000556737,0.0438712,21.0041,595.867,-0.224049,0.0,0.0
275,68.5,22.5199,22.3057,135.78,99.4849,102.156,0.000539813,0.0440894,21.004,595.847,-0.222654,0.0,0.0
280,69.75,22.062,22.5207,141.167,99.4809,102.292,0.000457872,0.0443656,21.0043,595.877,-0.234219,0.0,0.0
285,71,22.4185,23.1275,140.414,99.4632,102.358,0.00039696,0.0446942,21.0044,595.867,-0.241095,0.0,0.0
290,72.25,22.0603,23.36,144.671,99.456,101.994,0.000382995,0.045281,21.0037,595.867,-0.211754,0.0,0.0
295,73.5,22.6409,23.0781,137.777,99.4508,102.256,0.000426716,0.0465228,21.0016,595.847,-0.233749,0.0,0.0
300,74.75,22.2575,22.6235,138.547,99.4384,101.558,0.000478624,0.0481818,21,595.827,-0.17728,0.0,0.0
305,76,22.524,23.1115,139.744,99.4216,102.205,0.000493748,0.0500325,20.9983,595.847,-0.232003,0.0,0.0
310,77.25,22.1526,22.9574,134.012,99.4152,101.899,0.000492922,0.0518571,20.9962,595.857,-0.207371,0.0,0.0
315,78.5,22.2669,22.9091,139.635,99.412,102.015,0.000491366,0.0534616,20.994,595.837,-0.217243,0.0,0.0
320,79.75,23.1568,22.8016,138.931,99.4104,102.448,0.000502502,0.05484,20.9929,595.847,-0.252961,0.0,0.0
325,81,22.4615,23.1795,140.992,99.4007,101.717,0.000527062,0.0557374,20.9921,595.837,-0.193598,0.0,0.0
330,82.25,22.7775,23.16,139.105,99.3911,102.166,0.000585572,0.0558963,20.9918,595.847,-0.23142,0.0,0.0
335,83.5,22.5126,23.3702,139.358,99.3811,101.818,0.000688125,0.0557014,20.9918,595.817,-0.203586,0.0,0.0
340,84.75,22.4136,23.2576,140.51,99.3635,101.464,0.000767002,0.0551467,20.9926,595.807,-0.175817,0.0,0.0
345,86,22.7484,22.9897,140.154,99.3595,101.727,0.000785959,0.054702,20.993,595.827,-0.197898,0.0,0.0
350,87.25,22.735,22.7183,143.314,99.3443,101.856,0.000746286,0.0542966,20.9932,595.817,-0.209833,0.0,0.0
355,88.5,22.4817,23.2437,139.629,99.3266,102.292,0.000675121,0.0540526,20.9934,595.837,-0.247219,0.0,0.0
360,89.75,22.7572,22.7587,140.748,99.3126,101.926,0.000631974,0.0540366,20.9941,595.847,-0.218289,0.0,0.0
365,91,22.2235,22.9903,138.868,99.3146,101.817,0.000606917,0.0539873,20.9945,595.847,-0.209137,0.0,0.0
370,92.25,22.7923,23.1065,141.173,99.305,101.841,0.000617007,0.0536128,20.9952,595.817,-0.211902,0.0,0.0
375,93.5,22.3338,22.8743,140.141,99.283,101.657,0.000689658,0.0529081,20.9961,595.847,-0.198618,0.0,0.0
380,94.75,21.9475,23.006,140.48,99.2686,102.012,0.000781666,0.0520186,20.9965,595.837,-0.229116,0.0,0.0
385,96,22.4146,23.0325,139.629,99.2706,101.807,0.000887776,0.0514519,20.9969,595.847,-0.212055,0.0,0.0
390,97.25,22.4989,22.8951,139.67,99.2429,101.398,0.00100572,0.0510248,20.9971,595.807,-0.180549,0.0,0.0
395,98.5,22.5243,22.9267,138.587,99.2273,101.582,0.00104028,0.0511122,20.9972,595.797,-0.197096,0.0,0.0
400,99.75,22.6745,23.3545,140.561,99.2153,101.331,0.00103511,0.0515554,20.9973,595.807,-0.177302,0.0,0.0
405,101,22.5809,23.5705,137.178,99.2037,101.416,0.0009856,0.0523234,20.9957,595.787,-0.185352,0.0,0.0
410,102.25,22.9444,23.0082,145.167,99.2041,101.166,0.000917814,0.0530511,20.9945,595.767,-0.164585,0.0,0.0
415,103.5,22.3774,23.3232,140.989,99.1588,101.155,0.000872149,0.0534726,20.9938,595.787,-0.167456,0.0,0.0
420,104.75,22.3016,23.4144,141.466,99.1548,101.849,0.000846839,0.0535098,20.9949,595.767,-0.225324,0.0,0.0
425,106,22.7943,23.3543,143.512,99.1404,101.291,0.000818862,0.0532649,20.9962,595.787,-0.180318,0.0,0.0
430,107.25,22.594,23.4,139.519,99.1292,101.581,0.00076297,0.0529438,20.997,595.787,-0.205338,0.0,0.0
435,108.5,22.9855,23.3376,140.997,99.1115,101.647,0.000695542,0.0523956,20.9975,595.827,-0.212257,0.0,0.0
440,109.75,22.6958,22.8704,140.693,99.1051,101.32,0.000658325,0.0518208,20.9978,595.857,-0.18575,0.0,0.0
445,111,22.4934,23.5908,141.113,99.0963,102.243,0.000662544,0.0512155,20.998,595.797,-0.262695,0.0,0.0
450,112.25,22.3269,23.3016,138.593,99.0699,101.923,0.000664834,0.0507697,20.9981,595.757,-0.238597,0.0,0.0
455,113.5,22.3137,23.566,140.622,99.0575,101.976,0.000651223,0.0507525,20.9981,595.727,-0.244027,0.0,0.0
460,114.75,22.8009,23.584,145.18,99.0467,101.433,0.000646357,0.0509024,20.9982,595.747,-0.200106,0.0,0.0
465,116,22.4681,23.3713,138.782,99.0366,101.73,0.000623051,0.0510818,20.9982,595.817,-0.225507,0.0,0.0
470,117.25,22.4702,23.6434,141.135,99.0054,101.865,0.000574182,0.051149,20.9982,595.767,-0.239321,0.0,0.0
475,118.5,22.2461,23.4954,144.102,98.995,101.374,0.000516425,0.0510707,20.9982,595.827,-0.199573,0.0,0.0
480,119.75,22.4522,23.6073,139.769,98.9854,101.415,0.00049945,0.0509075,20.9982,595.807,-0.203792,0.0,0.0
485,121,22.9449,23.2804,139.926,98.9798,101.451,0.000534626,0.0506697,20.9982,595.817,-0.207262,0.0,0.0
490,122.25,22.8152,23.4799,143.182,98.9457,102.178,0.000586064,0.0504474,20.9982,595.807,-0.27012,0.0,0.0
495,123.5,22.8357,23.1028,138.434,98.9405,101.473,0.000614474,0.050267,20.9987,595.787,-0.21237,0.0,0.0
500,124.75,23.2341,23.4405,145.152,98.9353,101.707,0.0005697,0.0502018,20.9994,595.797,-0.232194,0.0,0.0
505,126,22.6235,23.2838,139.729,98.9185,101.219,0.00052167,0.0502581,20.9999,595.777,-0.193187,0.0,0.0
510,127.25,22.8675,23.7158,140.664,98.9013,101.646,0.000484863,0.0504225,20.9997,595.777,-0.23007,0.0,0.0
515,128.5,22.5872,23.5722,144.25,98.9008,100.972,0.000454093,0.05072,20.9991,595.787,-0.17417,0.0,0.0
520,129.75,22.7455,23.4209,138.478,98.878,101.185,0.000434773,0.0509884,20.9987,595.817,-0.193845,0.0,0.0
525,131,23.0438,23.1227,139.584,98.8516,101.528,0.000428838,0.0513131,20.9985,595.797,-0.224472,0.0,0.0
530,132.25,23.3287,23.4971,138.219,98.8552,102.058,0.00044801,0.0518903,20.9974,595.777,-0.267933,0.0,0.0
535,133.5,22.8402,23.3304,139.807,98.8464,101.389,0.00046281,0.0526782,20.9962,595.827,-0.213418,0.0,0.0
540,134.75,23.0561,23.1867,142.495,98.8384,101.613,0.000465327,0.0537037,20.9955,595.787,-0.232684,0.0,0.0
545,136,22.8663,23.2427,142.228,98.8199,101.501,0.000458515,0.0545321,20.9951,595.787,-0.224945,0.0,0.0
550,137.25,23.0222,23.3834,140.015,98.8231,101.216,0.00043362,0.0551385,20.9948,595.777,-0.20103,0.0,0.0
555,138.5,22.8233,24.2009,139.302,98.8127,101.201,0.000375946,0.0553934,20.9947,595.787,-0.20073,0.0,0.0
560,139.75,23.1471,23.273,139.997,98.7831,100.798,0.000313655,0.0551105,20.9946,595.767,-0.169648,0.0,0.0
565,141,22.6973,23.664,137.986,98.7715,101.266,0.000258719,0.0545336,20.995,595.777,-0.209574,0.0,0.0
570,142.25,23.0097,23.7912,139.993,98.745,100.721,0.000233939,0.0537997,20.9957,595.787,-0.166483,0.0,0.0
575,143.5,22.6873,23.7072,139.976,98.7566,101.414,0.000245821,0.0530738,20.9968,595.727,-0.223159,0.0,0.0
580,144.75,23.3663,23.9215,139.403,98.7326,101.11,0.000272364,0.0523527,20.9976,595.727,-0.199983,0.0,0.0
585,146,23.3455,23.7764,137.436,98.7326,101.25,0.000324454,0.0515838,20.9982,595.717,-0.211584,0.0,0.0
590,147.25,23.0174,24.1006,142.429,98.7238,101.358,0.000355077,0.0507374,20.9995,595.767,-0.221256,0.0,0.0
595,148.5,22.9033,23.5528,140.642,98.7186,101.265,0.000357613,0.0501242,21.0003,595.767,-0.214,0.0,0.0
600,149.75,23.1618,23.5806,143.999,98.6974,101.419,0.000359537,0.0492335,21.0015,595.777,-0.228574,0.0,0.0
605,151,22.9871,23.7867,139.7,98.6857,101.438,0.000362707,0.0488358,21.0016,595.727,-0.23119,0.0,0.0
610,152.25,22.9302,23.4174,142.676,98.6865,101.298,0.000347827,0.0485188,21.0017,595.747,-0.219468,0.0,0.0
615,153.5,23.2085,23.5014,138.977,98.6861,101.711,0.000295007,0.048291,21.0014,595.747,-0.253751,0.0,0.0
620,154.75,22.7692,23.6509,142.383,98.6637,101.021,0.000247959,0.0480411,21.0012,595.717,-0.198427,0.0,0.0
625,156,22.6,23.8399,139.636,98.6745,101.138,0.000204029,0.0478286,21.0011,595.747,-0.20719,0.0,0.0
630,157.25,23.2188,23.111,140.688,98.6689,101.319,0.000192082,0.0477879,21.0011,595.757,-0.222746,0.0,0.0
635,158.5,23.3379,23.8143,139.222,98.6597,101.376,0.000202666,0.0477915,21.002,595.787,-0.22823,0.0,0.0
640,159.75,22.5254,24.0035,141.367,98.6393,101.034,0.000280638,0.0476857,21.0025,595.827,-0.201549,0.0,0.0
645,161,22.9438,23.2534,141.518,98.6417,100.83,0.000374708,0.0474877,21.0028,595.787,-0.184401,0.0,0.0
650,162.25,23.1118,23.4305,139.89,98.6433,101.188,0.000463504,0.0472248,21.003,595.767,-0.214003,0.0,0.0
655,163.5,23.2717,23.56,140.173,98.6301,101.393,0.000488857,0.047054,21.0035,595.807,-0.232198,0.0,0.0
660,164.75,23.0849,23.223,142.176,98.6245,101.357,0.000460928,0.0471286,21.0037,595.757,-0.229643,0.0,0.0
665,166,23.1343,23.9157,141.854,98.6341,101.523,0.000441124,0.0473634,21.0037,595.697,-0.242614,0.0,0.0
670,167.25,23.6176,23.3916,140.613,98.6273,101.159,0.000468721,0.0478412,21.0025,595.687,-0.212996,0.0,0.0
675,168.5,23.0593,23.6451,139.314,98.6136,100.521,0.000553215,0.0486207,21.0013,595.687,-0.161012,0.0,0.0
680,169.75,22.8968,23.7253,139.463,98.6116,101.08,0.000661131,0.0494906,21.0006,595.727,-0.207763,0.0,0.0
685,171,23.3196,23.4183,140.784,98.612,100.868,0.000722169,0.0502295,21.0001,595.747,-0.190049,0.0,0.0
690,172.25,22.3474,23.6361,137.958,98.614,100.802,0.000741476,0.0506511,20.9999,595.727,-0.18445,0.0,0.0
695,173.5,22.6754,23.9001,143.223,98.5916,101.244,0.000660006,0.0504706,21,595.737,-0.223075,0.0,0.0
700,174.75,23.3097,24.1092,138.243,98.6028,100.708,0.00055135,0.0500976,21.0011,595.727,-0.177514,0.0,0.0
705,176,22.8412,23.5985,142.307,98.592,100.955,0.00050868,0.0492887,21.0021,595.717,-0.199041,0.0,0.0
710,177.25,22.8914,23.6547,144.67,98.5964,101.283,0.000549595,0.0484475,21.0027,595.737,-0.225925,0.0,0.0
715,178.5,23.0049,23.6802,139.337,98.5844,100.791,0.000592953,0.0477243,21.003,595.717,-0.186045,0.0,0.0
720,179.75,22.5468,23.905,141.543,98.5912,100.981,0.00060625,0.0471618,21.0032,595.687,-0.201263,0.0,0.0
725,181,23.1523,23.8169,139.497,98.5992,100.975,0.00058102,0.0468296,21.0033,595.687,-0.200098,0.0,0.0
730,182.25,22.9228,23.7134,138.132,98.6004,100.536,0.000567103,0.0466471,21.0034,595.667,-0.163333,0.0,0.0
735,183.5,22.7077,23.4393,139.314,98.5924,101.005,0.000564013,0.0465955,21.0034,595.707,-0.203204,0.0,0.0
740,184.75,23.1748,23.9636,139.767,98.6004,101.096,0.000573665,0.0465541,21.0033,595.697,-0.210055,0.0,0.0
745,186,22.5899,23.8723,140.341,98.6052,100.59,0.000594672,0.0464217,21.003,595.697,-0.167473,0.0,0.0
750,187.25,22.7876,24.1152,139.493,98.5892,101.074,0.000617759,0.0461876,21.0028,595.717,-0.209192,0.0,0.0
755,188.5,23.0947,23.6971,141.681,98.5928,101.524,0.000648888,0.0459166,21.0028,595.727,-0.246239,0.0,0.0
760,189.75,23.3179,23.4727,138.232,98.5976,100.854,0.000657506,0.0456847,21.0027,595.737,-0.190164,0.0,0.0
765,191,22.92,23.6271,138.746,98.5984,100.769,0.00063922,0.0454446,21.0027,595.687,-0.182952,0.0,0.0
770,192.25,23.1295,23.7441,143.284,98.5892,100.87,0.000614673,0.0453133,21.0026,595.687,-0.192219,0.0,0.0
775,193.5,22.7076,23.5635,143.682,98.5852,101.545,0.000609064,0.0452625,21.0029,595.707,-0.248588,0.0,0.0
780,194.75,22.8628,24.1857,139.496,98.576,100.874,0.000639539,0.045197,21.0037,595.717,-0.19368,0.0,0.0
785,196,22.9723,23.4336,138.808,98.5948,100.96,0.000692856,0.0451619,21.0041,595.677,-0.199174,0.0,0.0
790,197.25,23.445,24.0018,142.044,98.5712,101.121,0.000714814,0.0451528,21.0037,595.667,-0.214624,0.0,0.0
795,198.5,23.421,23.5348,137.746,98.5772,101.958,0.000675387,0.0452624,21.0036,595.677,-0.2834,0.0,0.0
800,199.75,23.0564,23.7923,141.6,98.5736,101.155,0.00059985,0.0452111,21.0042,595.707,-0.217274,0.0,0.0
805,201,23.246,23.598,143.159,98.5632,101.157,0.000536045,0.0450641,21.0046,595.737,-0.21831,0.0,0.0
810,202.25,23.3022,23.639,141.231,98.5536,101.461,0.000486254,0.044862,21.0048,595.677,-0.244302,0.0,0.0
815,203.5,23.1487,24.2925,140.838,98.5528,101.019,0.000438959,0.0446536,21.0049,595.697,-0.207698,0.0,0.0
820,204.75,22.8595,23.506,140.653,98.5568,100.889,0.000403614,0.0444816,21.005,595.687,-0.196509,0.0,0.0
825,206,23.5303,23.5394,140.972,98.5387,100.891,0.000384064,0.0442929,21.0054,595.697,-0.198232,0.0,0.0
830,207.25,23.1849,23.7508,143.111,98.5452,100.726,0.000383318,0.0441679,21.0056,595.697,-0.183958,0.0,0.0
835,208.5,22.8711,23.6557,139.593,98.548,100.35,0.000378588,0.044197,21.0057,595.697,-0.152312,0.0,0.0
840,209.75,23.4003,23.9373,139.173,98.5335,100.826,0.000356274,0.0442329,21.0058,595.687,-0.193248,0.0,0.0
845,211,22.6837,23.957,137.193,98.5167,101.281,0.000291131,0.0441282,21.0059,595.637,-0.232536,0.0,0.0
850,212.25,23.2007,24.2125,142.741,98.5119,101.829,0.00017407,0.0440464,21.0059,595.647,-0.278294,0.0,0.0
855,213.5,22.994,23.9286,140.644,98.5091,100.777,3.25436e-05,0.0439334,21.006,595.657,-0.191276,0.0,0.0
860,214.75,23.4661,24.0774,139.318,98.5119,100.818,-6.18717e-05,0.0437429,21.006,595.617,-0.194497,0.0,0.0
865,216,22.5351,23.6415,142.244,98.4947,100.892,-6.25489e-05,0.0435955,21.006,595.577,-0.202102,0.0,0.0
870,217.25,23.151,24.5177,139.522,98.5091,100.896,5.0776e-05,0.0434407,21.006,595.577,-0.201207,0.0,0.0
875,218.5,23.295,24.0323,142.937,98.4967,100.545,0.000204315,0.043332,21.006,595.547,-0.173,0.0,0.0
880,219.75,23.3506,23.9863,140.138,98.4831,100.63,0.000333373,0.0432399,21.006,595.547,-0.181246,0.0,0.0
885,221,22.932,23.9638,141.549,98.4803,101.036,0.00041491,0.0432398,21.0062,595.607,-0.21533,0.0,0.0
890,222.25,23.2619,24.066,141.218,98.4843,100.477,0.000436318,0.0432053,21.0063,595.637,-0.168313,0.0,0.0
895,223.5,23.2576,23.9995,141.452,98.4863,100.94,0.000409198,0.0431224,21.0063,595.577,-0.206796,0.0,0.0
900,224.75,23.2371,23.9668,139.734,98.4706,100.337,0.000359231,0.0430156,21.0064,595.577,-0.157747,0.0,0.0
905,226,23.2675,23.7576,140.415,98.4618,100.313,0.000343169,0.0429037,21.0064,595.567,-0.156556,0.0,0.0
910,227.25,23.0775,23.9241,141.965,98.4795,100.578,0.000372899,0.0428767,21.0061,595.607,-0.177192,0.0,0.0
915,228.5,22.8584,24.271,136.014,98.4743,100.95,0.000400266,0.0428701,21.0059,595.637,-0.208639,0.0,0.0
920,229.75,23.3808,23.4839,136.274,98.455,100.736,0.000400847,0.042792,21.0058,595.607,-0.192504,0.0,0.0
925,231,23.2528,24.5042,140.336,98.4666,100.454,0.000414443,0.0426728,21.0057,595.647,-0.167914,0.0,0.0
930,232.25,23.2458,24.1575,139.413,98.4686,100.804,0.000467007,0.0426898,21.0066,595.637,-0.196961,0.0,0.0
935,233.5,23.2209,23.8126,142.376,98.4626,100.438,0.000552274,0.0426998,21.0071,595.637,-0.166949,0.0,0.0
940,234.75,23.2836,24.0209,140.259,98.4534,101.024,0.000649131,0.0427464,21.0074,595.637,-0.216582,0.0,0.0
945,236,23.482,23.7687,139.782,98.4554,101.005,0.000743474,0.0427821,21.0076,595.657,-0.214889,0.0,0.0
950,237.25,23.0867,24.4854,134.654,98.4562,100.869,0.00080394,0.0427345,21.0071,595.647,-0.203451,0.0,0.0
955,238.5,23.5456,23.6518,140.189,98.4486,100.662,0.000795497,0.0426971,21.0068,595.647,-0.186869,0.0,0.0
960,239.75,23.6203,23.637,137.12,98.4454,101,0.000697959,0.0427988,21.0066,595.637,-0.21526,0.0,0.0
965,241,23.3834,23.9478,139.3,98.4446,100.632,0.00058695,0.0429803,21.0065,595.637,-0.184676,0.0,0.0
970,242.25,23.4043,23.8549,143.866,98.457,101.128,0.000500523,0.0430991,21.0065,595.627,-0.224956,0.0,0.0
975,243.5,23.3477,24.5596,142.804,98.4494,100.912,0.000421605,0.0431877,21.006,595.587,-0.2076,0.0,0.0
980,244.75,23.2375,24.3995,139.278,98.449,100.887,0.000378901,0.0432711,21.0053,595.607,-0.205554,0.0,0.0
985,246,23.3189,23.4069,140.769,98.4682,100.426,0.000432204,0.0435566,21.004,595.577,-0.165424,0.0,0.0
990,247.25,23.6087,24.2442,145.149,98.4474,100.958,0.000507851,0.0440366,21.0031,595.537,-0.211635,0.0,0.0
995,248.5,23.347,24.4755,143.725,98.4418,100.961,0.000542245,0.0445185,21.0026,595.567,-0.212337,0.0,0.0
1000,249.75,23.7145,24.0846,138.521,98.4634,100.598,0.000546843,0.0446852,21.0023,595.577,-0.180201,0.0,0.0
1005,251,23.6644,24.1694,137.601,98.4522,100.354,0.000534543,0.0446385,21.0023,595.597,-0.160778,0.0,0.0
1010,252.25,22.8921,24.2045,140.548,98.4682,99.9527,0.000531071,0.0444942,21.0026,595.557,-0.125747,0.0,0.0
1015,253.5,23.2883,23.8936,138.195,98.4622,100.701,0.000490852,0.0443138,21.0028,595.557,-0.188909,0.0,0.0
1020,254.75,22.5207,24.243,143.709,98.465,100.642,0.000409741,0.0441175,21.0033,595.507,-0.18379,0.0,0.0
1025,256,23.2104,23.9886,139.62,98.4726,100.539,0.000341392,0.0439546,21.0037,595.537,-0.174529,0.0,0.0
1030,257.25,22.7308,24.3422,141.445,98.4763,100.234,0.000314104,0.0438028,21.0038,595.537,-0.148705,0.0,0.0
1035,258.5,23.4431,23.4598,139.387,98.4819,100.877,0.0003092,0.0435335,21.004,595.547,-0.201969,0.0,0.0
1040,259.75,22.6291,24.0495,139.468,98.4975,100.183,0.000322149,0.0432579,21.0048,595.567,-0.14259,0.0,0.0
1045,261,23.5228,23.5258,138.448,98.4967,100.558,0.000352407,0.0430707,21.0048,595.477,-0.174082,0.0,0.0
1050,262.25,23.3503,23.948,141.274,98.4975,100.541,0.000392437,0.0428821,21.0054,595.557,-0.172559,0.0,0.0
1055,263.5,23.4237,24.2792,147.678,98.5079,100.907,0.000447701,0.0427638,21.0058,595.537,-0.202238,0.0,0.0
1060,264.75,23.6237,24.0242,143.545,98.5183,100.755,0.000528089,0.0427024,21.0061,595.557,-0.18863,0.0,0.0
1065,266,23.2573,24.301,138.426,98.5299,100.892,0.000598661,0.04261,21.0062,595.557,-0.199095,0.0,0.0
1070,267.25,22.8248,23.7976,141.779,98.5219,101.013,0.000668921,0.042468,21.0066,595.507,-0.209809,0.0,0.0
1075,268.5,23.2846,24.2009,141.498,98.5375,100.621,0.000687014,0.0423658,21.0067,595.517,-0.175854,0.0,0.0
1080,269.75,23.0052,23.7306,141.067,98.5584,100.946,0.000650437,0.042407,21.0069,595.567,-0.201166,0.0,0.0
1085,271,23.217,23.9847,140.007,98.5684,100.529,0.000599312,0.0424605,21.007,595.537,-0.165542,0.0,0.0
1090,272.25,23.3891,23.7062,139.422,98.5668,100.789,0.000512106,0.0424931,21.007,595.547,-0.187325,0.0,0.0
1095,273.5,23.1929,24.1761,138.611,98.5884,100.53,0.000411493,0.0425263,21.007,595.557,-0.163872,0.0,0.0
1100,274.75,23.791,23.8896,139.232,98.6032,101.234,0.000305396,0.0426225,21.007,595.527,-0.221307,0.0,0.0
1105,276,23.6906,24.035,139.838,98.61,101.158,0.000239631,0.0425904,21.0071,595.507,-0.214353,0.0,0.0
1110,277.25,23.2568,23.8288,143.07,98.618,100.372,0.000225381,0.0425647,21.0071,595.507,-0.148167,0.0,0.0
1115,278.5,23.7268,24.4805,140.976,98.6361,100.469,0.000271437,0.0426271,21.0071,595.517,-0.154735,0.0,0.0
1120,279.75,23.2496,23.9839,138.591,98.6493,100.882,0.000361507,0.0426936,21.0071,595.487,-0.188103,0.0,0.0
1125,281,23.0965,24.3117,140.117,98.6477,100.556,0.000464254,0.0427328,21.0068,595.487,-0.160983,0.0,0.0
1130,282.25,23.2712,24.1693,137.125,98.6609,100.185,0.000529924,0.0427546,21.0056,595.447,-0.128808,0.0,0.0
1135,283.5,23.2006,23.6953,141.918,98.6829,100.596,0.000549371,0.0427918,21.0049,595.427,-0.161337,0.0,0.0
1140,284.75,22.7656,24.1797,141.985,98.7034,100.812,0.000541769,0.0428048,21.0045,595.477,-0.177622,0.0,0.0
1145,286,23.4276,23.8994,144.446,98.7094,100.487,0.000513042,0.0427563,21.0043,595.477,-0.150022,0.0,0.0
1150,287.25,23.3056,24.2128,137.257,98.725,100.671,0.000490808,0.0427079,21.0041,595.477,-0.164017,0.0,0.0
1155,288.5,23.3533,23.8388,142.776,98.7462,101.458,0.000503654,0.0427298,21.004,595.447,-0.22763,0.0,0.0
1160,289.75,23.5258,24.354,145.501,98.7643,101.346,0.00053286,0.0427771,21.0043,595.417,-0.216814,0.0,0.0
1165,291,23.4854,24.0937,142.392,98.7739,100.986,0.000576805,0.0427805,21.0057,595.477,-0.186154,0.0,0.0
1170,292.25,23.1941,23.8693,143.691,98.7999,100.964,0.00056924,0.0428019,21.0066,595.477,-0.182083,0.0,0.0
1175,293.5,23.6451,24.0607,142.281,98.8175,100.453,0.000521416,0.0428832,21.0072,595.447,-0.137945,0.0,0.0
1180,294.75,23.4876,24.0853,138.816,98.8271,100.835,0.00045602,0.0429614,21.0075,595.467,-0.168987,0.0,0.0
1185,296,23.5874,24.1274,140.359,98.8408,100.778,0.000395296,0.0430076,21.0077,595.437,-0.163142,0.0,0.0
1190,297.25,23.6501,24.0293,136.626,98.876,100.654,0.000373442,0.0429858,21.0078,595.447,-0.149757,0.0,0.0
1195,298.5,22.9829,24.0116,140.02,98.8752,100.076,0.00038529,0.0429708,21.0078,595.457,-0.101436,0.0,0.0
1200,299.75,22.9277,24.4706,144.037,98.8924,100.801,0.000401375,0.0429859,21.0079,595.437,-0.160611,0.0,0.0
1205,301,23.4492,23.9119,140.655,98.9113,100.738,0.000414387,0.0429782,21.0077,595.447,-0.153763,0.0,0.0
1210,302.25,23.3834,24.2724,139.768,98.9189,100.8,0.000444392,0.0428915,21.0075,595.427,-0.158326,0.0,0.0
1215,303.5,23.3332,24.1797,139.605,98.9317,100.675,0.000484734,0.0428156,21.0073,595.407,-0.146777,0.0,0.0
1220,304.75,23.8911,23.9624,138.656,98.9341,100.586,0.000502664,0.0428903,21.0072,595.386,-0.139193,0.0,0.0
1225,306,22.9017,24.243,140.774,98.9689,100.406,0.000449844,0.0429885,21.0072,595.457,-0.121158,0.0,0.0
1230,307.25,23.0038,24.8241,142.492,98.9854,100.655,0.000396007,0.0430589,21.0071,595.437,-0.140542,0.0,0.0
1235,308.5,23.3177,24.3674,143.819,98.9954,101.215,0.000395548,0.0430344,21.0071,595.477,-0.186321,0.0,0.0
1240,309.75,23.1957,24.062,138.74,99.0002,100.997,0.000427351,0.0429681,21.0071,595.417,-0.167812,0.0,0.0
1245,311,23.5365,24.2662,139.861,99.0282,101.173,0.000457974,0.0431067,21.0071,595.457,-0.18005,0.0,0.0
1250,312.25,23.3985,24.3542,137.411,99.0418,100.943,0.000476473,0.0432281,21.0061,595.437,-0.15982,0.0,0.0
1255,313.5,23.3405,24.4282,139.569,99.0443,101.109,0.000458714,0.0431821,21.0056,595.417,-0.173388,0.0,0.0
1260,314.75,23.5018,24.806,138.961,99.0691,101.118,0.000439174,0.0431225,21.0053,595.407,-0.172024,0.0,0.0
1265,316,23.7005,24.1753,137.404,99.0975,100.669,0.00042968,0.0430728,21.0051,595.377,-0.132217,0.0,0.0
1270,317.25,23.3877,24.034,140.457,99.1063,100.691,0.000434553,0.0431993,21.0049,595.377,-0.133333,0.0,0.0
1275,318.5,23.4599,24.1759,139.368,99.1111,101.257,0.000457274,0.0432942,21.0049,595.397,-0.180019,0.0,0.0
1280,319.75,23.1928,24.0712,137.874,99.1304,100.835,0.00049407,0.0432717,21.0048,595.397,-0.143242,0.0,0.0
1285,321,23.4579,24.1497,140.59,99.152,100.826,0.000515798,0.0431617,21.0048,595.397,-0.140703,0.0,0.0
1290,322.25,23.2822,24.2653,138.726,99.1692,99.955,0.000518871,0.0430383,21.0048,595.386,-0.0663215,0.0,0.0
1295,323.5,23.4269,24.6403,141.304,99.1592,101.067,0.000523853,0.0432279,21.0048,595.407,-0.160152,0.0,0.0
1300,324.75,23.4484,24.1947,139.5,99.1973,101.282,0.000526469,0.0433995,21.0048,595.417,-0.174757,0.0,0.0
1305,326,24.1305,24.0805,138.205,99.1897,101.1,0.000524724,0.0433246,21.0048,595.407,-0.160281,0.0,0.0
1310,327.25,23.865,24.514,140.925,99.2181,101.078,0.000531225,0.043375,21.0048,595.397,-0.156054,0.0,0.0
1315,328.5,23.9469,24.42,143.611,99.2217,101.611,0.000544034,0.0435335,21.0048,595.386,-0.200007,0.0,0.0
1320,329.75,23.8888,24.3377,139.277,99.2461,100.89,0.000524823,0.0435983,21.004,595.377,-0.138045,0.0,0.0
1325,331,23.5848,24.5555,139.152,99.2678,100.87,0.000459013,0.0437149,21.0034,595.367,-0.134578,0.0,0.0
1330,332.25,23.6912,24.636,139.163,99.2698,101.292,0.000373081,0.0440381,21.003,595.377,-0.169432,0.0,0.0
1335,333.5,23.6826,24.5456,142.073,99.2846,100.984,0.000341946,0.0445824,21.0028,595.377,-0.142592,0.0,0.0
1340,334.75,23.6679,24.8098,141.09,99.3134,101.349,0.000373082,0.0451022,21.0027,595.377,-0.170512,0.0,0.0
1345,336,23.8374,24.2014,143.378,99.3262,101.184,0.000463272,0.0454676,21.0029,595.357,-0.155725,0.0,0.0
1350,337.25,23.6118,24.6234,135.914,99.3307,101.213,0.000530562,0.0455374,21.0031,595.336,-0.157798,0.0,0.0
1355,338.5,23.6237,24.1015,141.301,99.3535,101.097,0.000564581,0.0455979,21.0033,595.306,-0.146152,0.0,0.0
1360,339.75,23.2253,24.636,141.111,99.3787,101.389,0.00058082,0.0456926,21.0033,595.316,-0.168281,0.0,0.0
1365,341,23.4725,24.3554,136.304,99.3779,101.485,0.000623328,0.0455841,21.0034,595.316,-0.176298,0.0,0.0
1370,342.25,23.9023,24.3346,135.611,99.3787,101.445,0.000669165,0.0452795,21.0036,595.276,-0.172941,0.0,0.0
1375,343.5,24.0479,24.3179,139.182,99.406,101.106,0.000742119,0.0449155,21.0045,595.296,-0.142495,0.0,0.0
1380,344.75,23.9438,24.3897,135.803,99.412,100.672,0.000782631,0.044772,21.005,595.266,-0.105856,0.0,0.0
1385,346,23.6676,24.3351,138.914,99.4208,100.962,0.000787622,0.0447701,21.0053,595.246,-0.12929,0.0,0.0
1390,347.25,23.992,25.029,139.403,99.4336,101.132,0.000780308,0.0446723,21.0047,595.296,-0.142346,0.0,0.0
1395,348.5,23.9135,24.8066,140.977,99.4496,101.6,0.000731895,0.0447074,21.0042,595.246,-0.179765,0.0,0.0
1400,349.75,23.6789,24.6192,137.926,99.4584,101.291,0.000653825,0.0448641,21.0039,595.266,-0.153402,0.0,0.0
1405,351,23.7054,24.3774,139.899,99.4588,102.083,0.000570552,0.0451008,21.0037,595.286,-0.218867,0.0,0.0
1410,352.25,23.6494,24.573,144.081,99.464,100.806,0.000503821,0.0452417,21.0036,595.276,-0.112586,0.0,0.0
1415,353.5,23.8774,24.9023,138.619,99.4821,101.331,0.000474977,0.0451612,21.0035,595.316,-0.154736,0.0,0.0
1420,354.75,23.8911,24.6145,136.294,99.4913,101.03,0.000490604,0.0456272,21.0033,595.266,-0.129014,0.0,0.0
1425,356,24.0289,24.3958,139.313,99.4857,101.442,0.000626926,0.0467702,21.0006,595.266,-0.163643,0.0,1.0
1430,357.25,23.6921,24.5626,137.963,99.5017,101.095,0.000807759,0.0514508,20.9955,595.176,-0.133478,0.0,1.0
1435,358.5,23.7996,24.3805,136.992,99.5197,100.131,0.00131518,0.0603673,20.9859,595.276,-0.0514809,0.0,1.0
1440,359.75,24.1183,24.5322,137.08,99.5301,97.9615,0.00200765,0.0739534,20.966,595.216,0.133498,0.0,1.0
1445,361,22.0221,22.8244,133.458,99.5173,96.4737,0.00277579,0.0961676,20.9366,595.196,0.26103,0.0,1.0
1450,362.25,22.6002,23.2475,133.235,99.5345,93.1566,0.0039788,0.130946,20.8976,595.066,0.556512,0.0,0.0
1455,363.5,23.1307,23.4292,131.536,99.5357,90.3661,0.00548218,0.169683,20.8545,594.976,0.81219,0.0,0.0
1460,364.75,23.5636,23.5499,128.247,99.5498,86.4466,0.00723065,0.222384,20.7961,594.786,1.18601,0.0,0.0
1465,366,24.6924,24.4079,129.635,99.555,85.3787,0.00927417,0.281121,20.7267,594.686,1.29091,0.0,0.0
1470,367.25,24.8246,24.4129,127.053,99.5638,81.1451,0.0112643,0.337535,20.653,594.526,1.71906,0.0,0.0
1475,368.5,26.4881,25.6431,123.433,99.5746,79.4836,0.0134406,0.402886,20.5794,594.225,1.89382,0.0,0.0
1480,369.75,27.742,26.3026,125.995,99.5694,78.5237,0.0155263,0.469327,20.5045,594.105,1.99549,0.0,0.0
1485,371,28.5999,27.2072,116.557,99.5902,79.3475,0.0173354,0.531001,20.4362,593.895,1.90954,0.0,0.0
1490,372.25,29.9635,28.2316,121.921,99.5934,79.5501,0.0187418,0.580297,20.3874,593.645,1.88838,0.0,0.0
1495,373.5,31.2958,29.5283,123.088,99.6066,80.1191,0.019616,0.610817,20.3586,593.485,1.8296,0.0,0.0
1500,374.75,32.2158,30.936,123.259,99.599,76.8065,0.0200222,0.622171,20.3439,593.254,2.18381,0.0,0.0
1505,376,33.3506,31.8632,124.626,99.6094,76.8306,0.0197273,0.617515,20.3453,593.114,2.18205,0.0,0.0
1510,377.25,33.9589,32.3611,124.211,99.6235,81.8827,0.0188658,0.597844,20.3691,592.924,1.64804,0.0,0.0
1515,378.5,34.8266,33.1506,126.356,99.6223,83.5419,0.0175606,0.568567,20.414,592.784,1.47936,0.0,0.0
1520,379.75,35.0443,33.9434,130.448,99.6299,86.6318,0.016323,0.528709,20.4574,592.654,1.17479,0.0,0.0
1525,381,35.3447,34.9415,129.158,99.6447,87.6694,0.0146092,0.487547,20.4997,592.544,1.07599,0.0,0.0
1530,382.25,36.0805,34.9222,127.116,99.6463,86.8625,0.0132351,0.453956,20.5271,592.434,1.15382,0.0,0.0
1535,383.5,36.4844,35.0267,128.163,99.6471,90.1569,0.0115939,0.423049,20.5613,592.383,0.841073,0.0,0.0
1540,384.75,35.8984,35.6842,128.754,99.6523,90.7727,0.0101076,0.395948,20.5951,592.283,0.784304,0.0,0.0
1545,386,36.2358,35.8719,132.385,99.6503,92.5091,0.00873537,0.376098,20.6272,592.193,0.624898,0.0,0.0
1550,387.25,36.6138,35.931,132.233,99.6659,93.2445,0.00758583,0.352094,20.6581,592.113,0.559671,0.0,0.0
1555,388.5,36.1075,35.9637,133.137,99.6583,96.0872,0.00671849,0.327747,20.6843,592.043,0.306659,0.0,0.0
1560,389.75,36.298,36.2037,131.481,99.6619,96.695,0.00598257,0.305919,20.7098,591.983,0.253973,0.0,0.0
1565,391,36.7068,35.4444,133.294,99.6767,97.3885,0.00540986,0.284761,20.7319,591.903,0.195167,0.0,0.0
1570,392.25,35.9845,36.519,134.067,99.6771,99.1883,0.00486516,0.266261,20.7562,591.833,0.0413146,0.0,0.0
1575,393.5,36.1898,36.2272,134.255,99.6675,100.401,0.0043677,0.2466,20.7805,591.813,-0.0616376,0.0,0.0
1580,394.75,36.2116,35.638,133.816,99.6843,100.218,0.00391633,0.228226,20.8008,591.773,-0.044891,0.0,0.0
1585,396,35.3912,36.1117,135.552,99.6871,101.151,0.00367748,0.211353,20.8177,591.733,-0.122465,0.0,0.0
1590,397.25,35.7046,36.3456,134.022,99.7036,101.778,0.00342875,0.195645,20.8344,591.713,-0.173048,0.0,0.0
1595,398.5,35.6921,35.5362,133.523,99.6799,102.243,0.00322861,0.181306,20.8506,591.723,-0.213384,0.0,0.0
1600,399.75,35.1281,36.1514,139.303,99.6876,102.661,0.00309619,0.16824,20.8686,591.703,-0.246968,0.0,0.0
1605,401,34.4428,36.0539,136.834,99.6936,102.48,0.0030381,0.155365,20.8849,591.663,-0.231691,0.0,0.0
1610,402.25,34.5691,35.3337,134.977,99.6912,103.112,0.00301969,0.142894,20.8973,591.653,-0.283552,0.0,0.0
1615,403.5,33.9243,35.1376,136.707,99.6823,103.113,0.003006,0.1314,20.9065,591.633,-0.284367,0.0,0.0
1620,404.75,33.7619,35.6917,140.009,99.686,102.308,0.00290553,0.121132,20.9162,591.623,-0.218158,0.0,0.0
1625,406,33.5873,35.5488,137.829,99.6988,102.811,0.00280065,0.113207,20.9254,591.623,-0.258288,0.0,0.0
1630,407.25,33.6845,34.7076,137.661,99.6843,102.396,0.00273412,0.103511,20.9372,591.603,-0.225548,0.0,0.0
1635,408.5,32.6814,34.4917,137.195,99.6847,102.968,0.00271372,0.0957008,20.9471,591.583,-0.272337,0.0,0.0
1640,409.75,33.2613,34.2474,139.824,99.6803,101.98,0.00268019,0.0887157,20.9547,591.583,-0.191682,0.0,0.0
1645,411,32.3843,34.1725,140.058,99.6783,102.13,0.00257905,0.0827459,20.9622,591.573,-0.204197,0.0,0.0
1650,412.25,32.3388,34.0747,139.868,99.6679,102.72,0.00243634,0.0768212,20.9689,591.573,-0.253444,0.0,0.0
1655,413.5,31.8141,33.8856,137.955,99.6591,102.127,0.00227852,0.0712054,20.975,591.583,-0.205598,0.0,0.0
1660,414.75,31.7191,34.0924,136.924,99.6703,101.65,0.00212696,0.066139,20.9809,591.573,-0.165306,0.0,0.0
1665,416,31.6867,33.3125,137.746,99.6475,102.549,0.00199196,0.0619273,20.9862,591.583,-0.241208,0.0,0.0
1670,417.25,31.003,33.2576,138.44,99.6231,102.472,0.00186692,0.0585194,20.9893,591.563,-0.236976,0.0,0.0
1675,418.5,30.4476,33.1075,145.64,99.6247,102.727,0.00182108,0.0557604,20.9909,591.553,-0.257712,0.0,0.0
1680,419.75,29.1873,31.3351,139.629,99.6231,102.566,0.00179814,0.0535995,20.9927,591.533,-0.244658,0.0,0.0
1685,421,28.9857,31.6283,139.671,99.5994,102.867,0.00174225,0.0519813,20.9942,591.553,-0.27126,0.0,0.0
1690,422.25,28.8734,30.8911,138.669,99.581,101.956,0.0016692,0.050817,20.9956,591.533,-0.198075,0.0,0.0
1695,423.5,28.7697,30.8597,138.4,99.5738,101.657,0.00163356,0.0500126,20.9964,591.543,-0.174002,0.0,0.0
1700,424.75,28.6455,30.4155,140.358,99.561,101.804,0.00165381,0.0493783,20.9977,591.513,-0.187212,0.0,0.0
1705,426,27.9918,30.4654,138.404,99.5297,101.625,0.00171169,0.0488072,20.9986,591.493,-0.175065,0.0,0.0
1710,427.25,27.9861,30.5091,140.245,99.5197,102.022,0.00176625,0.0482948,20.9992,591.503,-0.208728,0.0,0.0
1715,428.5,27.5866,29.688,139.158,99.5069,101.743,0.00181369,0.0478474,21,591.533,-0.186766,0.0,0.0
1720,429.75,27.467,29.6229,140.631,99.4933,102.172,0.00179381,0.0474297,21.0007,591.523,-0.223228,0.0,0.0
1725,431,27.1901,29.2863,141.262,99.4584,101.865,0.00168165,0.047118,21.0017,591.443,-0.200955,0.0,0.0
1730,432.25,27.1289,29.3757,139.518,99.4652,101.761,0.00150507,0.0466906,21.0026,591.503,-0.191723,0.0,0.0
1735,433.5,26.791,29.32,137.442,99.4392,101.598,0.0013483,0.0463075,21.0032,591.503,-0.180461,0.0,0.0
1740,434.75,26.7718,28.9411,141.358,99.418,101.549,0.00126147,0.0460625,21.0035,591.473,-0.178194,0.0,0.0
1745,436,27.0061,28.8105,136.959,99.3911,101.63,0.00124545,0.0458595,21.0037,591.463,-0.187181,0.0,0.0
1750,437.25,26.7896,28.9935,143.64,99.3723,102.332,0.00123341,0.0457126,21.0038,591.533,-0.246619,0.0,0.0
1755,438.5,26.3794,28.9743,141.213,99.3587,100.997,0.00119745,0.0455366,21.0038,591.463,-0.137436,0.0,0.0
1760,439.75,26.2882,28.353,137.523,99.3407,101.883,0.0011335,0.0454793,21.0035,591.483,-0.212347,0.0,0.0
1765,441,26.0369,28.0043,136.075,99.3158,101.7,0.00107948,0.0454437,21.0033,591.513,-0.199343,0.0,0.0
1770,442.25,25.8956,28.136,142.324,99.3006,101.461,0.00106165,0.0452986,21.0032,591.473,-0.180842,0.0,0.0
1775,443.5,25.6666,28.099,141.243,99.3058,101.677,0.00108791,0.0451244,21.004,591.503,-0.198272,0.0,0.0
1780,444.75,25.532,27.6752,140.416,99.2654,102.509,0.00112531,0.0450123,21.0045,591.493,-0.270205,0.0,0.0
1785,446,25.8077,28.1146,138.81,99.2586,101.826,0.00113414,0.044946,21.0049,591.473,-0.214583,0.0,0.0
1790,447.25,25.5292,28.0688,144.049,99.2517,101.55,0.00110556,0.0449069,21.0051,591.463,-0.192368,0.0,0.0
1795,448.5,25.0155,27.4041,135.692,99.2525,101.236,0.00102095,0.0448546,21.0052,591.423,-0.166298,0.0,0.0
1800,449.75,25.129,26.5895,138.072,99.2205,101.591,0.000936117,0.0448242,21.0056,591.483,-0.198374,0.0,0.0
1805,451,25.0463,27.2825,138.61,99.2153,102.015,0.000823603,0.0448074,21.0043,591.423,-0.233885,0.0,0.0
1810,452.25,24.4709,26.7399,139.73,99.2061,101.575,0.00079327,0.0447975,21.0033,591.433,-0.198303,0.0,0.0
1815,453.5,25.1245,26.8928,137.913,99.2157,101.593,0.000842461,0.0446749,21.0027,591.463,-0.199002,0.0,0.0
1820,454.75,24.5152,26.5034,140.622,99.1824,101.305,0.000927777,0.0446609,21.0023,591.413,-0.177975,0.0,0.0
1825,456,24.3408,27.1096,140.399,99.2005,102.164,0.00101988,0.0447401,21.0021,591.453,-0.247336,0.0,0.0
1830,457.25,23.8858,26.4444,139.567,99.1941,101.198,0.00105506,0.0447734,21.002,591.413,-0.168065,0.0,0.0
1835,458.5,24.3958,26.1351,137.209,99.1744,102.031,0.00101395,0.0447581,21.0019,591.423,-0.238633,0.0,0.0
1840,459.75,23.996,26.6057,136.543,99.174,101.825,0.00093133,0.0446902,21.0023,591.403,-0.221705,0.0,0.0
1845,461,23.7797,26.4789,137.172,99.1684,101.783,0.000870912,0.0446215,21.0029,591.403,-0.218717,0.0,0.0
1850,462.25,24.127,26.0465,140.747,99.1792,102.542,0.000847338,0.044571,21.0034,591.403,-0.280242,0.0,0.0
1855,463.5,24.3421,26.1495,138.258,99.1548,102.064,0.000861847,0.0445657,21.0027,591.423,-0.242979,0.0,0.0
1860,464.75,24.285,25.949,138.397,99.1664,101.564,0.000872818,0.044567,21.0023,591.342,-0.200777,0.0,0.0
1865,466,24.2298,26.457,140.37,99.148,101.979,0.000867046,0.0445538,21.0021,591.372,-0.236571,0.0,0.0
1870,467.25,23.255,25.7909,138.263,99.1528,101.76,0.000864291,0.0445019,21.002,591.413,-0.218089,0.0,0.0
1875,468.5,23.7603,25.7152,137.186,99.126,101.067,0.000873168,0.0445254,21.0019,591.372,-0.16297,0.0,0.0
1880,469.75,23.5156,25.7157,140.744,99.1336,102.33,0.000903508,0.0446018,21.0018,591.413,-0.266722,0.0,0.0
1885,471,23.4801,25.3901,143.143,99.1344,102.24,0.000947464,0.0445311,21.0018,591.403,-0.259248,0.0,0.0
1890,472.25,23.9609,25.6949,140.88,99.1304,101.566,0.000969044,0.0444791,21.0018,591.383,-0.204017,0.0,0.0
1895,473.5,23.6101,25.2586,141.144,99.1123,101.62,0.000975783,0.0445453,21.0025,591.403,-0.210012,0.0,0.0
1900,474.75,23.3025,25.4305,138.432,99.1376,101.7,0.00097712,0.0444677,21.0037,591.383,-0.214475,0.0,0.0
1905,476,23.412,25.3978,140.771,99.1228,102.035,0.000978605,0.044476,21.0044,591.393,-0.24338,0.0,0.0
1910,477.25,22.9966,25.7296,142.186,99.1111,101.807,0.00096633,0.0445434,21.0048,591.403,-0.225562,0.0,0.0
1915,478.5,23.3496,24.9048,140.479,99.1023,101.393,0.000942487,0.0446109,21.005,591.393,-0.192019,0.0,0.0
1920,479.75,22.9645,25.3591,139.775,99.1051,101.694,0.000895977,0.044621,21.0052,591.393,-0.21671,0.0,0.0
1925,481,22.9298,25.2595,136.411,99.0991,101.66,0.000852917,0.0446718,21.0049,591.393,-0.214379,0.0,0.0
1930,482.25,22.9385,25.3287,139.493,99.0855,101.685,0.000858085,0.0447167,21.0048,591.393,-0.2176,0.0,0.0
1935,483.5,23.5429,25.0917,137.304,99.0883,101.575,0.000892788,0.0447152,21.0047,591.383,-0.208321,0.0,0.0
1940,484.75,23.4653,24.6575,140.894,99.1003,101.745,0.000933175,0.0447289,21.0046,591.372,-0.221358,0.0,0.0
1945,486,22.9674,24.9419,140.005,99.0863,102.413,0.000994946,0.0447787,21.0052,591.383,-0.277471,0.0,0.0
1950,487.25,23.0049,24.4833,141.392,99.0867,101.39,0.00106677,0.0448081,21.0051,591.362,-0.193084,0.0,0.0
1955,488.5,23.1212,24.2245,138.839,99.0775,102.19,0.00114307,0.0448254,21.0048,591.372,-0.259925,0.0,0.0
1960,489.75,23.112,25.2782,140.63,99.0831,101.863,0.00122773,0.0448357,21.0047,591.372,-0.232543,0.0,0.0
1965,491,22.9098,24.3808,142.226,99.0695,101.856,0.00129725,0.0447977,21.0049,591.372,-0.233073,0.0,0.0
1970,492.25,23.1757,24.672,141.435,99.0599,101.753,0.00134422,0.0448054,21.0051,591.352,-0.225379,0.0,0.0
1975,493.5,22.6572,24.6624,137.67,99.0747,101.61,0.00133955,0.0447458,21.0052,591.322,-0.212319,0.0,0.0
1980,494.75,22.9568,24.6878,140.629,99.0675,101.341,0.00130072,0.0446302,21.0053,591.312,-0.190683,0.0,0.0
1985,496,22.5061,24.2409,138.968,99.0563,102.007,0.00126992,0.0445178,21.0052,591.352,-0.246666,0.0,0.0
1990,497.25,22.8154,24.7962,139.629,99.043,101.257,0.0012611,0.044465,21.0049,591.322,-0.185795,0.0,0.0
1995,498.5,22.6442,24.6344,141.592,99.0671,101.535,0.00124013,0.0444637,21.0047,591.282,-0.206799,0.0,0.0
2000,499.75,22.6661,24.4763,138.307,99.0791,101.568,0.00117624,0.0444935,21.0041,591.282,-0.208512,0.0,0.0
2005,501,22.7494,24.0694,137.737,99.0859,101.978,0.00107426,0.0444761,21.0031,591.302,-0.241799,0.0,0.0
2010,502.25,22.8768,24.366,136.359,99.1059,101.312,0.000976305,0.0445295,21.0023,591.332,-0.184979,0.0,0.0
2015,503.5,22.6822,24.264,139.941,99.1168,101.509,0.000935933,0.044574,21.0026,591.292,-0.200443,0.0,0.0
2020,504.75,22.9995,23.9228,140.441,99.1484,101.717,0.000939055,0.0445997,21.003,591.292,-0.214961,0.0,0.0
2025,506,21.7538,24.3946,142.902,99.1516,101.71,0.000987655,0.044637,21.0032,591.302,-0.214099,0.0,0.0
2030,507.25,22.4104,24.2422,138.52,99.1788,102.294,0.00110752,0.0446952,21.0033,591.312,-0.259917,0.0,0.0
2035,508.5,22.3263,23.4516,138.351,99.1864,101.541,0.0012218,0.0447083,21.0034,591.282,-0.197196,0.0,0.0
2040,509.75,22.6094,23.7495,140.444,99.2141,102.051,0.00128189,0.044657,21.0035,591.292,-0.23689,0.0,0.0
2045,511,22.1119,24.0728,140.996,99.2317,101.81,0.00126173,0.0446873,21.0035,591.272,-0.215529,0.0,0.0
2050,512.25,22.2776,24.0249,142.293,99.2618,102.043,0.00118068,0.044676,21.0038,591.302,-0.232192,0.0,0.0
2055,513.5,21.2844,23.548,142.416,99.289,102.223,0.00107563,0.0446613,21.0034,591.292,-0.244721,0.0,0.0
2060,514.75,22.6825,23.9587,141.392,99.3178,101.602,0.00104365,0.0446283,21.0029,591.292,-0.191094,0.0,0.0
2065,516,22.2667,23.8037,138.885,99.3315,101.933,0.00106581,0.0446532,21.0025,591.292,-0.217284,0.0,0.0
2070,517.25,22.0944,23.9871,140.093,99.3611,102.019,0.00111812,0.044663,21.0024,591.292,-0.221875,0.0,0.0
2075,518.5,22.5178,23.9122,136.547,99.3927,102.048,0.00116018,0.0446105,21.0022,591.292,-0.221588,0.0,0.0
2080,519.75,22.0719,23.6106,139.594,99.418,102.183,0.00118502,0.0444948,21.0026,591.302,-0.230546,0.0,0.0
2085,521,22.1141,24.0447,139.7,99.442,101.261,0.00122831,0.044408,21.0034,591.262,-0.152346,0.0,0.0
2090,522.25,22.0603,22.839,137.343,99.4584,102.165,0.00127685,0.044445,21.004,591.272,-0.225622,0.0,0.0
2095,523.5,21.6997,22.9104,136.341,99.5037,102.453,0.00128238,0.0446126,21.0042,591.272,-0.245478,0.0,0.0
2100,524.75,22.4483,23.3857,142.334,99.5089,102.238,0.0012352,0.0446809,21.0043,591.232,-0.22734,0.0,0.0
2105,526,22.2903,23.467,138.395,99.5337,102.213,0.00119123,0.0446336,21.0044,591.252,-0.223188,0.0,0.0
2110,527.25,22.2188,23.559,141.49,99.5618,102.506,0.00117913,0.0445617,21.0045,591.272,-0.244928,0.0,0.0
2115,528.5,21.7651,23.3359,142.531,99.5586,101.88,,0.0445826,,591.252,-0.193712,0.0,0.0
2120,529.75,22.1211,23.1996,139.186,99.5682,102.297,,0.0445662,,591.292,-0.227175,0.0,0.0
2125,531,22.4046,23.8914,137.085,99.5974,102.039,,0.0444982,,591.262,-0.203564,0.0,0.0
2130,532.25,22.163,23.57,139.466,99.5854,102.094,,,,591.232,-0.209061,0.0,0.0
2135,533.5,21.7958,23.8359,136.835,99.5878,102.157,,,,591.222,-0.214073,0.0,0.0
2140,534.75,22.1406,22.9965,139.569,99.5998,101.654,,,,591.212,-0.171583,0.0,0.0
2145,536,22.3613,23.5925,141.527,99.6199,102.602,,,,591.232,-0.247853,0.0,0.0
2150,537.25,22.1475,23.3728,138.426,99.6203,102.16,,,,591.232,-0.211519,0.0,0.0
2155,538.5,22.2454,23.4812,141.401,99.6223,102.222,,,,591.192,-0.216487,0.0,0.0
2158,539.25,22.219,23.3413,138.476,99.6423,102.318,,,,591.232,-0.222683,0.0,0.0