File: 01_Data/Polyester_Microfiber_Sheet/Cone/Polyester_Microfiber_Sheet_Cone_HF75Scan_220523_R2.csv
Names,Time,Stack TC,Smoke TC,Exh Press,Smoke Comp,Smoke Meas,CO Meter,CO2 Meter,O2 Meter,Sample Mass,Ext Coeff,Start Test,Flame Verif
Chan Gain,,500,500,1,1,1,1,1,1,1,1,1.0,1.0
Offset,,0,0,0.135828,0,0,0,0,0,0,0,0.0,0.0
Gain,,1,1,25.011,13.8491,15.2622,1,1,1,1.00087,1.03118,1.0,1.0
Units,sec,C,C,Pa,%,%,%,%,%,g,/m,,
Baseline,,52.0171,53.9066,127.074,105.116,112.604,0.00021481,0.0445042,20.9954,-450.693,-0.622357,,
3,0.5,50.3955,52.8062,131.296,104.821,111.383,7.52018e-05,0.0450998,20.9983,608.53,-0.549166,0.0,0.0
6,1.25,49.1638,51.0779,129.588,104.775,112.294,7.43023e-05,0.0452727,20.9986,608.71,-0.626865,0.0,0.0
9,2,49.2365,51.4269,132.825,104.754,111.96,5.92887e-05,0.0453987,20.9981,608.53,-0.601712,0.0,0.0
12,2.75,49.4419,51.7113,128.419,104.729,111.315,3.31029e-05,0.0454911,20.9978,608.78,-0.551672,0.0,0.0
15,3.5,48.7127,51.3073,130.033,104.712,111.181,-4.12912e-06,0.0455591,20.9976,608.63,-0.542262,0.0,0.0
18,4.25,48.3094,51.5337,126.221,104.666,110.634,-3.90058e-05,0.0455697,20.9974,608.79,-0.501643,0.0,0.0
21,5,49.0709,51.2737,131.066,104.653,111.267,-7.4782e-05,0.0455365,20.9973,608.78,-0.554308,0.0,0.0
24,5.75,49.1262,50.6906,126.258,104.614,111.595,-9.51335e-05,0.0454877,20.9972,608.84,-0.584398,0.0,0.0
27,6.5,49.0895,50.5053,124.679,104.601,111.648,-0.000100172,0.0454399,20.9972,608.73,-0.589796,0.0,0.0
30,7.25,48.7071,51.0949,126.898,104.56,112.027,-8.83198e-05,0.0453913,20.9976,608.79,-0.623931,0.0,0.0
33,8,49.0422,50.894,126.312,104.528,111.337,-7.96793e-05,0.0453501,20.998,608.82,-0.570843,0.0,0.0
36,8.75,48.7469,50.8907,126.334,104.517,112.294,-7.33804e-05,0.0453201,20.9984,608.82,-0.649149,0.0,0.0
39,9.5,49.0914,50.6664,127.747,104.501,112.308,-7.22389e-05,0.0452436,20.9986,608.73,-0.651665,0.0,0.0
42,10.25,48.9718,50.9666,126.135,104.476,111.202,-6.77075e-05,0.0451287,20.9985,608.78,-0.564324,0.0,0.0
45,11,48.3945,50.9078,125.375,104.457,112.029,-6.28272e-05,0.0449836,20.9978,608.83,-0.633008,0.0,0.0
48,11.75,48.8187,51.2673,128.717,104.436,111.493,-3.14464e-05,0.0448232,20.9974,608.9,-0.591413,0.0,0.0
51,12.5,49.0128,51.0284,126.208,104.429,111.184,2.81467e-05,0.0447042,20.997,608.73,-0.566945,0.0,0.0
54,13.25,49.0597,51.1138,129.009,104.405,110.746,0.000114093,0.0446535,20.9968,608.61,-0.533344,0.0,0.0
57,14,48.9234,51.2098,125.66,104.393,110.314,0.000290939,0.0446848,20.9966,608.58,-0.49907,0.0,0.0
60,14.75,48.8702,51.0006,127.766,104.369,110.575,0.0005281,0.0447366,20.996,608.7,-0.522484,0.0,0.0
63,15.5,48.8822,51.3159,127.082,104.36,109.988,0.000747135,0.0453477,20.9948,608.72,-0.475081,0.0,0.0
66,16.25,49.3397,50.9338,126.863,104.354,110.593,0.00117678,0.0478694,20.9864,608.61,-0.525214,0.0,0.0
69,17,49.52,51.3802,125.894,104.34,110.391,0.00174553,0.0528404,20.9747,608.67,-0.509913,0.0,1.0
72,17.75,49.0732,51.3981,123.252,104.321,105.832,0.00226909,0.0686072,20.9567,608.59,-0.130073,0.0,1.0
75,18.5,49.295,50.9993,120.546,104.339,100.44,0.00340687,0.0992744,20.9269,608.5,0.344451,0.0,1.0
78,19.25,49.5329,51.414,124.096,104.311,95.5451,0.00459477,0.132538,20.8981,608.52,0.793954,0.0,1.0
81,20,49.8556,51.3808,119.973,104.316,90.6928,0.00607373,0.17544,20.8653,608.33,1.26589,0.0,1.0
84,20.75,50.4056,51.8289,117.46,104.311,85.3356,0.00787743,0.230731,20.8212,608.3,1.8162,0.0,1.0
87,21.5,51.0715,51.8997,111.302,104.294,78.18,0.010433,0.281277,20.7576,608.129,2.60691,0.0,1.0
90,22.25,50.0806,50.965,112.076,104.3,74.0436,0.0138813,0.365955,20.6686,608.069,3.09917,0.0,1.0
93,23,51.5214,51.9638,104.671,104.271,67.84,0.0176421,0.427686,20.5508,607.889,3.8881,0.0,1.0
96,23.75,52.2096,52.4218,100.099,104.29,65.6011,0.021509,0.548213,20.4057,607.559,4.19331,0.0,1.0
99,24.5,53.3635,53.1307,100.385,104.281,61.3063,0.0253429,0.717088,20.1858,607.299,4.80501,0.0,1.0
102,25.25,55.5151,54.1863,89.6751,104.288,62.0981,0.0286346,0.878647,20.015,607.008,4.68956,0.0,0.0
105,26,57.4588,55.5012,93.7456,104.284,54.7376,0.0318836,1.02659,19.8728,606.778,5.83044,0.0,0.0
108,26.75,59.8151,57.1567,95.4668,104.266,55.8303,0.0342167,1.14884,19.7691,606.508,5.65004,0.0,0.0
111,27.5,62.1286,58.9601,98.2047,104.3,63.4153,0.0356271,1.22807,19.6935,606.208,4.50069,0.0,0.0
114,28.25,64.8101,60.5773,98.5603,104.289,64.9388,0.0361586,1.26892,19.6383,606.078,4.28503,0.0,0.0
117,29,66.2451,62.8482,102.103,104.285,68.8885,0.03536,1.25798,19.6469,605.958,3.75062,0.0,0.0
120,29.75,67.8907,63.7909,109.275,104.276,74.7441,0.0334853,1.23265,19.7002,605.827,3.01191,0.0,0.0
123,30.5,69.0954,65.0861,114.151,104.275,77.2778,0.0315325,1.15495,19.7836,605.777,2.71025,0.0,0.0
126,31.25,69.7587,65.9697,113.163,104.286,82.302,0.0291069,1.06581,19.894,605.757,2.14144,0.0,0.0
129,32,70.2332,66.7021,117.896,104.289,87.4352,0.0267226,0.973946,19.9745,605.737,1.59446,0.0,0.0
132,32.75,69.9359,67.5474,114.569,104.291,88.438,0.0239313,0.884708,20.0699,605.617,1.49145,0.0,0.0
135,33.5,70.1233,68.076,116.581,104.292,95.3141,0.0209853,0.785096,20.1543,605.457,0.814275,0.0,0.0
138,34.25,70.2296,68.6439,120.972,104.308,99.4925,0.0185181,0.712479,20.2411,605.327,0.427578,0.0,0.0
141,35,70.7647,68.5929,124.381,104.313,102.082,0.016173,0.630312,20.3301,605.447,0.195515,0.0,0.0
144,35.75,69.9791,68.3155,121.417,104.299,103.402,0.0139581,0.56373,20.4125,605.477,0.0781288,0.0,0.0
147,36.5,69.4227,68.2895,118.1,104.31,104.041,0.0120911,0.503765,20.4801,605.457,0.0233572,0.0,0.0
150,37.25,69.2207,68.2419,122.394,104.321,106.336,0.0106224,0.448436,20.5432,605.347,-0.173004,0.0,0.0
153,38,68.7777,68.7733,120.24,104.33,107.015,0.00925268,0.402446,20.5958,605.307,-0.229817,0.0,0.0
156,38.75,68.2268,68.5032,123.41,104.324,107.383,0.00816396,0.364308,20.6369,605.347,-0.261452,0.0,0.0
159,39.5,68.2064,68.787,120.272,104.325,108.542,0.00721606,0.332742,20.6738,605.297,-0.358433,0.0,0.0
162,40.25,67.7117,67.9838,125.871,104.343,108.601,0.00643842,0.305729,20.7007,605.217,-0.361748,0.0,0.0
165,41,67.7747,68.1276,123.793,104.356,109.547,0.00583458,0.28433,20.7272,605.197,-0.439138,0.0,0.0
168,41.75,66.9068,67.3906,122.156,104.346,109.154,0.00534848,0.264642,20.7496,605.257,-0.407463,0.0,0.0
171,42.5,67.3973,68.0634,126.117,104.352,109.535,0.00499164,0.248787,20.7672,605.187,-0.438467,0.0,0.0
174,43.25,66.248,67.5822,124.835,104.37,109.969,0.00473046,0.23466,20.7842,605.097,-0.472705,0.0,0.0
177,44,66.6779,67.784,125.88,104.393,109.768,0.00455735,0.222513,20.798,605.077,-0.454199,0.0,0.0
180,44.75,66.0679,67.4904,125.338,104.385,111.323,0.00443852,0.212455,20.8077,605.177,-0.582115,0.0,0.0
183,45.5,65.5752,67.4097,125.718,104.404,110.197,0.00436423,0.204412,20.816,604.917,-0.488454,0.0,0.0
186,46.25,64.9533,66.8457,123.405,104.414,111.611,0.00431333,0.197935,20.822,604.947,-0.602908,0.0,0.0
189,47,64.9204,66.7055,121.673,104.434,111.7,0.00428179,0.192164,20.8277,604.977,-0.608432,0.0,0.0
192,47.75,64.5729,67.0144,121.814,104.438,112.039,0.00426744,0.186578,20.8329,604.977,-0.635484,0.0,0.0
195,48.5,64.2514,67.1815,121.23,104.443,111.825,0.00426263,0.181918,20.8388,604.917,-0.61773,0.0,0.0
198,49.25,64.5934,66.3552,123.02,104.477,111.72,0.00426245,0.17685,20.8449,604.917,-0.606322,0.0,0.0
201,50,64.4855,66.5843,126.869,104.48,110.935,0.00427115,0.172557,20.8507,604.917,-0.542261,0.0,0.0
204,50.75,63.6502,66.1208,122.489,104.498,112.191,0.00430346,0.168403,20.8554,604.877,-0.642574,0.0,0.0
207,51.5,63.4844,65.9051,126.702,104.513,111.492,0.0043381,0.163654,20.8614,604.937,-0.584789,0.0,0.0
210,52.25,63.8248,65.9787,121.556,104.532,112.413,0.00442701,0.15939,20.8667,604.947,-0.657432,0.0,0.0
213,53,63.1272,65.9196,125.432,104.555,112.29,0.00451335,0.15594,20.8709,604.917,-0.645631,0.0,0.0
216,53.75,62.7929,65.7502,123.36,104.579,112.293,0.00461311,0.152549,20.8737,604.847,-0.643698,0.0,0.0
219,54.5,63.0573,65.5595,123.883,104.597,112.557,0.00472477,0.149235,20.8764,604.807,-0.663449,0.0,0.0
222,55.25,62.4778,65.4414,125.457,104.618,112.04,0.0048397,0.146459,20.8799,604.816,-0.619977,0.0,0.0
225,56,62.1449,65.8053,125.174,104.668,113.136,0.00495937,0.143523,20.8828,604.867,-0.703717,0.0,0.0
228,56.75,61.9369,65.3091,123.375,104.677,112.104,0.00508352,0.141113,20.8855,604.807,-0.620049,0.0,0.0
231,57.5,62.0959,64.7363,126.456,104.7,112.837,0.00522007,0.138896,20.888,604.867,-0.677002,0.0,0.0
234,58.25,61.4942,65.2147,127.38,104.728,112.415,0.00536745,0.136653,20.8905,604.827,-0.640738,0.0,0.0
237,59,61.7119,64.4205,122.607,104.76,112.283,0.0055231,0.134663,20.8924,604.616,-0.627314,0.0,0.0
240,59.75,61.2081,64.7024,123.115,104.789,113.107,0.00566153,0.132891,20.8938,604.736,-0.690932,0.0,0.0
243,60.5,61.1862,64.8883,125.628,104.816,112.618,0.00580512,0.131305,20.8954,604.797,-0.649475,0.0,0.0
246,61.25,60.92,64.0672,127.165,104.836,112.369,0.00593651,0.129524,20.897,604.776,-0.62765,0.0,0.0
249,62,61.0472,64.2591,128.348,104.858,112.918,0.00604608,0.128107,20.8984,604.917,-0.669815,0.0,0.0
252,62.75,60.6136,64.3182,130.503,104.894,113.529,0.00614953,0.12687,20.8994,604.867,-0.715573,0.0,0.0
255,63.5,60.334,63.9979,129.028,104.915,112.459,0.00626775,0.12594,20.9003,604.827,-0.628104,0.0,0.0
258,64.25,59.9846,63.7052,123.503,104.946,112.15,0.0063777,0.12525,20.901,604.816,-0.600534,0.0,0.0
261,65,60.2241,64.1214,122.634,104.988,113.351,0.00648052,0.124447,20.9015,604.816,-0.693334,0.0,0.0
264,65.75,59.9831,63.4062,122.887,105.034,112.933,0.00654808,0.123495,20.9018,604.776,-0.65589,0.0,0.0
267,66.5,60.0037,63.6595,125.244,105.059,113.957,0.00662614,0.122644,20.9028,604.696,-0.735374,0.0,0.0
270,67.25,59.5472,63.064,127.446,105.071,113.629,0.00672791,0.1214,20.9039,604.646,-0.708326,0.0,0.0
273,68,59.928,62.6908,124.961,105.116,113.701,0.00687885,0.120128,20.9055,604.626,-0.710178,0.0,0.0
276,68.75,59.4627,63.2565,125.903,105.151,113.507,0.00704083,0.119368,20.9067,604.636,-0.691659,0.0,0.0
279,69.5,58.9336,63.1591,121.521,105.173,113.768,0.00716268,0.118328,20.9076,604.616,-0.710604,0.0,0.0
282,70.25,59.1013,63.2266,127.047,105.201,111.961,0.00725312,0.117291,20.9082,604.646,-0.563332,0.0,0.0
285,71,58.7249,62.6134,125.423,105.216,113.628,0.00730292,0.116225,20.9091,604.636,-0.69567,0.0,0.0
288,71.75,58.8965,62.6077,126.619,105.256,113.817,0.00732164,0.115317,20.9102,604.646,-0.707333,0.0,0.0
291,72.5,58.6278,62.6593,126.182,105.274,113.451,0.00732595,0.114455,20.911,604.616,-0.676667,0.0,0.0
294,73.25,58.7825,62.3451,125.581,105.299,113.601,0.00730951,0.113587,20.9119,604.566,-0.686438,0.0,0.0
297,74,58.65,61.9813,125.77,105.313,112.322,0.00729885,0.112661,20.9126,604.596,-0.582859,0.0,0.0
300,74.75,58.0899,62.049,126.45,105.344,113.731,0.00729334,0.111658,20.9135,604.546,-0.692969,0.0,0.0
303,75.5,58.4801,62.1662,127.372,105.355,114.23,0.00731618,0.110668,20.9151,604.476,-0.731612,0.0,0.0
306,76.25,58.2021,62.2053,121.844,105.378,112.981,0.00734414,0.109523,20.9166,604.456,-0.630116,0.0,0.0
309,77,58.017,61.6961,124.735,105.378,113.771,0.00736603,0.107931,20.9177,604.396,-0.693214,0.0,0.0
312,77.75,57.6659,61.8311,123.437,105.395,113.684,0.00737634,0.106281,20.9197,604.356,-0.6848,0.0,0.0
315,78.5,57.5976,61.5388,127.385,105.403,113.66,0.00735341,0.104869,20.9214,604.426,-0.682255,0.0,0.0
318,79.25,57.9383,61.6118,126.997,105.403,113.749,0.00732084,0.103602,20.9231,604.526,-0.689259,0.0,0.0
321,80,57.0683,61.2365,127.529,105.407,113.826,0.00726999,0.102478,20.9243,604.516,-0.695043,0.0,0.0
324,80.75,57.3667,61.5799,125.95,105.409,113.092,0.00722105,0.101548,20.9252,604.536,-0.636413,0.0,0.0
327,81.5,57.1852,60.9311,128.52,105.421,112.718,0.00716505,0.100822,20.9258,604.526,-0.605397,0.0,0.0
330,82.25,57.1191,61.6073,123.864,105.389,113.195,0.00712065,0.100054,20.9263,604.526,-0.646384,0.0,0.0
333,83,56.9114,61.1982,128.369,105.381,113.655,0.00708826,0.0993542,20.9266,604.396,-0.683734,0.0,0.0
336,83.75,56.922,60.8723,123.13,105.377,113.146,0.00706461,0.098606,20.9275,604.366,-0.643418,0.0,0.0
339,84.5,57.1349,60.9269,125.431,105.374,113.676,0.00703485,0.0978933,20.9284,604.386,-0.68602,0.0,0.0
342,85.25,56.6457,61.0114,123.855,105.351,113.874,0.00698456,0.0973025,20.9294,604.396,-0.703753,0.0,0.0
345,86,56.8622,60.8835,129.92,105.326,113.594,0.00693604,0.0967129,20.9304,604.386,-0.683594,0.0,0.0
348,86.75,56.6971,60.5919,124.85,105.294,114.231,0.00688038,0.0960891,20.9311,604.346,-0.736839,0.0,0.0
351,87.5,56.7454,60.2653,123.366,105.282,112.755,0.00682927,0.0954491,20.9321,604.336,-0.620252,0.0,0.0
354,88.25,56.4035,60.8436,123.681,105.256,113.407,0.00677398,0.0948071,20.9336,604.326,-0.674627,0.0,0.0
357,89,56.597,60.2161,128.072,105.217,112.741,0.00671049,0.094101,20.9347,604.336,-0.624688,0.0,0.0
360,89.75,56.2511,60.0128,125.603,105.204,112.344,0.0066642,0.0935131,20.9355,604.376,-0.593993,0.0,0.0
363,90.5,56.2059,60.688,124.087,105.178,112.682,0.0065917,0.0929593,20.9363,604.146,-0.62332,0.0,0.0
366,91.25,55.5962,60.0565,122.6,105.142,113.22,0.00651444,0.0925139,20.9373,604.146,-0.669529,0.0,0.0
369,92,55.7761,60.0912,125.792,105.102,112.942,0.00644463,0.0921714,20.938,604.186,-0.650742,0.0,0.0
372,92.75,55.833,59.7021,128.161,105.067,114.095,0.00639521,0.0918998,20.9384,604.226,-0.745619,0.0,0.0
375,93.5,55.1486,59.8671,126.587,105.048,113.017,0.00633812,0.0916643,20.9388,604.286,-0.661403,0.0,0.0
378,94.25,55.8121,60.0312,124.953,105.025,113.558,0.00627342,0.0914231,20.9395,604.286,-0.706581,0.0,0.0
381,95,55.7086,59.7213,127.44,104.97,113.656,0.00622626,0.0911518,20.9403,604.286,-0.71914,0.0,0.0
384,95.75,55.3049,59.5315,125.531,104.938,112.976,0.00616519,0.0909342,20.9407,604.136,-0.667663,0.0,0.0
387,96.5,55.5166,59.5563,123.602,104.901,113.876,0.00610944,0.0905429,20.9409,604.096,-0.742558,0.0,0.0
390,97.25,55.4928,59.0732,123.035,104.878,112.685,0.00606402,0.090198,20.941,604.046,-0.6495,0.0,0.0
393,98,54.9804,59.456,124.201,104.835,112.084,0.00602202,0.0901249,20.9411,604.066,-0.604749,0.0,0.0
396,98.75,55.336,59.3804,124.539,104.801,112.106,0.0059889,0.0901521,20.9412,604.026,-0.609506,0.0,0.0
399,99.5,55.1975,59.3799,118.216,104.766,111.213,0.00596632,0.0903095,20.9412,604.216,-0.540241,0.0,0.0
402,100.25,55.3583,59.0115,122.676,104.736,113.388,0.00595435,0.0903547,20.9413,604.196,-0.717962,0.0,0.0
405,101,54.9369,59.4064,124.744,104.714,111.992,0.00596183,0.0902338,20.9413,604.186,-0.607811,0.0,0.0
408,101.75,55.3152,59.1089,124.051,104.696,112.426,0.0059742,0.089933,20.9413,604.176,-0.644302,0.0,0.0
411,102.5,55.5386,59.1294,123.341,104.679,111.958,0.00598855,0.0895194,20.9418,604.126,-0.60806,0.0,0.0
414,103.25,55.6029,59.3682,129.507,104.673,112.652,0.00598786,0.0890108,20.9423,604.116,-0.664505,0.0,0.0
417,104,55.4092,58.8391,125.791,104.654,112.015,0.00596827,0.0884277,20.9433,604.176,-0.614915,0.0,0.0
420,104.75,55.3569,59.1196,123.659,104.674,112.784,0.00591311,0.08785,20.9445,604.086,-0.675011,0.0,0.0
423,105.5,55.162,58.7006,123.988,104.726,112.261,0.00584799,0.0873637,20.9455,603.976,-0.628507,0.0,0.0
426,106.25,54.9885,58.5586,120.86,104.783,111.843,0.00575794,0.0867522,20.9463,603.936,-0.589817,0.0,0.0
429,107,55.1238,59.0669,123.912,104.817,113.126,0.00563553,0.0861677,20.9473,604.106,-0.690088,0.0,0.0
432,107.75,54.7927,58.7826,123.744,104.856,112.643,0.00552269,0.0855047,20.9484,603.986,-0.647994,0.0,0.0
435,108.5,55.1236,58.8439,125.536,104.9,112.872,0.00543036,0.0847052,20.9496,604.026,-0.662547,0.0,0.0
438,109.25,55.1196,59.1623,126.144,104.95,112.953,0.00534534,0.0839147,20.9505,603.996,-0.664705,0.0,0.0
441,110,55.1832,58.8001,123.338,104.979,113.019,0.00528832,0.0831188,20.9514,603.956,-0.667559,0.0,0.0
444,110.75,54.8832,58.4105,126.413,105.023,112.189,0.00524888,0.0823144,20.9525,604.026,-0.597099,0.0,0.0
447,111.5,54.7832,58.924,123.73,105.094,113.162,0.00520772,0.0814652,20.9532,603.966,-0.669023,0.0,0.0
450,112.25,54.3407,58.3808,128.02,105.119,111.916,0.00515786,0.080625,20.9538,603.936,-0.566735,0.0,0.0
453,113,54.4731,58.6872,126.228,105.186,112.833,0.00511304,0.0798259,20.9546,604.086,-0.634811,0.0,0.0
456,113.75,54.2297,58.4357,125.547,105.219,113.815,0.00506862,0.0789947,20.9558,604.036,-0.710382,0.0,0.0
459,114.5,54.1731,58.264,127.058,105.279,112.527,0.00501352,0.0782827,20.9573,604.086,-0.602252,0.0,0.0
462,115.25,54.5493,57.9592,125.325,105.314,111.579,0.00498223,0.0774289,20.9581,603.966,-0.522689,0.0,0.0
465,116,54.523,57.8546,123.616,105.355,112.757,0.00494609,0.0765886,20.959,603.826,-0.614121,0.0,0.0
468,116.75,54.4374,57.9038,123.485,105.372,113.251,0.00491973,0.0756034,20.9601,603.846,-0.652264,0.0,0.0
471,117.5,54.0857,58.0055,124.845,105.403,113.237,0.00491292,0.074706,20.9611,603.916,-0.648462,0.0,0.0
474,118.25,54.2658,58.0061,128.675,105.427,112.769,0.00492043,0.0741938,20.9618,603.956,-0.608962,0.0,0.0
477,119,54.3874,57.7711,128.133,105.451,113.47,0.00493819,0.0733661,20.9629,603.916,-0.662949,0.0,0.0
480,119.75,54.5702,58.162,123.925,105.452,112.736,0.00494405,0.0726104,20.9638,603.916,-0.604172,0.0,0.0
483,120.5,54.3461,58.28,125.263,105.459,113.535,0.004926,0.0717991,20.9648,603.966,-0.667456,0.0,0.0
486,121.25,54.5556,57.9598,126.977,105.465,112.779,0.00488287,0.0707953,20.9668,603.876,-0.606521,0.0,0.0
489,122,54.5552,58.212,126.737,105.469,112.997,0.00484789,0.0698709,20.9676,603.856,-0.623588,0.0,0.0
492,122.75,53.9999,57.6847,127.074,105.469,112.104,0.00480748,0.0690642,20.9684,603.726,-0.55183,0.0,0.0
495,123.5,54.3179,57.665,127.389,105.451,112.821,0.00474092,0.0683895,20.969,603.666,-0.611079,0.0,0.0
498,124.25,53.996,57.5257,125.69,105.462,112.58,0.00468001,0.0677064,20.9695,603.786,-0.590811,0.0,0.0
501,125,54.3418,58.0392,124.894,105.436,112.804,0.00463034,0.06745,20.9698,603.866,-0.61093,0.0,0.0
504,125.75,54.0744,57.5907,124.499,105.423,113.14,0.00458882,0.0669185,20.9706,603.786,-0.639016,0.0,0.0
507,126.5,53.5581,57.9999,121.954,105.398,113.591,0.00455237,0.066408,20.9715,603.756,-0.677203,0.0,0.0
510,127.25,54.3538,57.7334,123.455,105.382,113.746,0.0045173,0.0658256,20.9725,603.786,-0.690851,0.0,0.0
513,128,54.0098,57.3149,126.044,105.363,113.248,0.00446823,0.0651949,20.9735,603.726,-0.652801,0.0,0.0
516,128.75,54.1924,57.6093,126.092,105.338,113.081,0.00444518,0.0645895,20.9743,603.836,-0.641578,0.0,0.0
519,129.5,53.5348,57.3572,126.702,105.298,113.39,0.00441855,0.0640492,20.9752,603.726,-0.669768,0.0,0.0
522,130.25,53.829,57.5413,126.85,105.269,112.329,0.00440443,0.0635378,20.9758,603.846,-0.587161,0.0,0.0
525,131,53.8421,57.3397,123.613,105.246,113.114,0.00440898,0.0628494,20.9763,603.836,-0.652138,0.0,0.0
528,131.75,53.9326,57.3413,127.528,105.217,113.3,0.00441863,0.0625678,20.9766,603.746,-0.669494,0.0,0.0
531,132.5,53.2919,57.2482,124.813,105.157,113.874,0.00445391,0.0620272,20.9769,603.565,-0.720388,0.0,0.0
534,133.25,53.6857,57.0581,127.328,105.1,112.228,0.0044883,0.0615248,20.9773,603.786,-0.593631,0.0,0.0
537,134,53.8644,57.3119,123.63,105.055,112.677,0.00451577,0.0609733,20.978,603.776,-0.63353,0.0,0.0
540,134.75,53.8378,57.0873,125.39,105.009,112.545,0.00453356,0.0603519,20.9785,603.746,-0.626909,0.0,0.0
543,135.5,54.1526,57.1423,121.734,105.023,113.145,0.00451827,0.0597043,20.9789,603.605,-0.673723,0.0,0.0
546,136.25,53.4181,57.0398,121.62,105.045,112.174,0.00450713,0.0590595,20.9798,603.676,-0.593969,0.0,0.0
549,137,53.6299,57.0529,127.505,105.065,112.835,0.00447882,0.0583941,20.9804,603.646,-0.645397,0.0,0.0
552,137.75,53.5984,57.076,127.316,105.109,112.901,0.00442367,0.0578801,20.9805,603.726,-0.646876,0.0,0.0
555,138.5,53.9442,57.799,125.689,105.125,112.445,0.00435173,0.0574561,20.9807,603.695,-0.608851,0.0,0.0
558,139.25,53.5519,57.0532,125.727,105.157,113.362,0.00428888,0.057147,20.9813,603.766,-0.679563,0.0,0.0
561,140,53.4256,57.062,124.238,105.193,112.943,0.00422527,0.0568044,20.9817,603.676,-0.643036,0.0,0.0
564,140.75,53.5406,57.1858,128.132,105.236,112.981,0.0041789,0.056533,20.982,603.685,-0.642389,0.0,0.0
567,141.5,53.2891,56.7187,127.66,105.26,112.195,0.00415374,0.0562982,20.9823,603.676,-0.577152,0.0,0.0
570,142.25,53.0547,56.4921,126.405,105.297,113.242,0.00413908,0.0560099,20.9824,603.505,-0.658018,0.0,0.0
573,143,53.1544,56.8181,127.189,105.339,113.668,0.00415484,0.0557038,20.9825,603.605,-0.688364,0.0,0.0
576,143.75,53.278,56.7922,126.279,105.395,113.354,0.00416633,0.0554398,20.9826,603.706,-0.658449,0.0,0.0
579,144.5,52.9596,56.7452,124.074,105.422,113,0.00420644,0.0552474,20.9833,603.646,-0.627946,0.0,0.0
582,145.25,53.079,57.0995,120.909,105.463,114.252,0.00423445,0.0549976,20.9838,603.676,-0.72406,0.0,0.0
585,146,53.3299,56.678,127.579,105.506,113.588,0.00424198,0.0547688,20.9842,603.535,-0.6677,0.0,0.0
588,146.75,53.3494,56.6901,126.839,105.553,113.729,0.00422632,0.0545434,20.9845,603.565,-0.674836,0.0,0.0
591,147.5,53.2594,56.627,128.748,105.587,113.594,0.00416557,0.0543575,20.9847,603.485,-0.661228,0.0,0.0
594,148.25,53.2356,56.3488,125.228,105.622,113.736,0.00408426,0.0541851,20.9848,603.595,-0.669527,0.0,0.0
597,149,52.8039,56.4613,127.459,105.665,113.298,0.0040092,0.0540183,20.9849,603.615,-0.630876,0.0,0.0
600,149.75,53.5156,56.4934,125.359,105.707,113.867,0.00391403,0.0538432,20.985,603.525,-0.672621,0.0,0.0
603,150.5,53.4247,56.4249,124.806,105.748,114.138,0.00384465,0.053654,20.985,603.485,-0.69055,0.0,0.0
606,151.25,52.8909,56.3527,123.759,105.768,113.955,0.00375892,0.053516,20.9851,603.435,-0.674405,0.0,0.0
609,152,52.9545,56.2164,125.651,105.817,112.987,0.00369642,0.0534155,20.9851,603.415,-0.593059,0.0,0.0
612,152.75,53.2906,56.4213,125.323,105.839,113.531,0.00365605,0.0533422,20.9851,603.555,-0.634591,0.0,0.0
615,153.5,53.0525,56.3704,129.2,105.861,114.665,0.00363549,0.0531717,20.9851,603.565,-0.722591,0.0,0.0
618,154.25,53.0525,56.3437,123.651,105.878,113.874,0.00361522,0.0530113,20.9856,603.565,-0.658577,0.0,0.0
621,155,53.436,56.6568,126.389,105.9,114.244,0.00358321,0.0528329,20.9861,603.545,-0.685993,0.0,0.0
624,155.75,53.0122,56.5686,125.21,105.931,113.719,0.00355252,0.0526248,20.9865,603.385,-0.6417,0.0,0.0
627,156.5,52.8284,56.0595,126.033,105.936,113.143,0.00351461,0.0524803,20.9867,603.495,-0.595358,0.0,0.0
630,157.25,53.2557,56.1423,127.73,105.938,114.029,0.00347082,0.0523873,20.9869,603.495,-0.665726,0.0,0.0
633,158,52.7216,55.611,124.981,105.93,113.931,0.00340731,0.0523584,20.9872,603.485,-0.658686,0.0,0.0
636,158.75,52.9997,56.2423,129.798,105.939,113.696,0.00334994,0.0522417,20.9875,603.405,-0.6392,0.0,0.0
639,159.5,52.9117,56.4047,127.382,105.942,113.604,0.0033034,0.0521534,20.9877,603.345,-0.631571,0.0,0.0
642,160.25,52.9503,56.0495,124.99,105.928,113.053,0.00326623,0.0519565,20.988,603.135,-0.588856,0.0,0.0
645,161,53.2688,56.3524,129.374,105.906,114.414,0.0032336,0.0517725,20.9883,603.355,-0.69901,0.0,0.0
648,161.75,52.5122,55.8894,127.388,105.884,113.422,0.00321333,0.0515214,20.989,603.395,-0.62204,0.0,0.0
651,162.5,52.8283,55.9411,122.559,105.882,113.235,0.00319978,0.0513383,20.9896,603.445,-0.607314,0.0,0.0
654,163.25,52.9908,55.819,126.268,105.84,113.428,0.00319042,0.0511074,20.9901,603.435,-0.626352,0.0,0.0
657,164,52.9514,55.9692,122.345,105.809,113.785,0.00317132,0.0509117,20.9905,603.435,-0.657396,0.0,0.0
660,164.75,52.5237,56.2043,122.149,105.758,113.46,0.0031574,0.0507717,20.9907,603.385,-0.635888,0.0,0.0
663,165.5,52.8261,55.7558,126.754,105.737,113.945,0.00312622,0.0506943,20.9909,603.415,-0.676232,0.0,0.0
666,166.25,52.5663,55.6916,125.977,105.664,113.916,0.00308144,0.0506789,20.9908,603.435,-0.680159,0.0,0.0
669,167,52.4116,55.6321,124.752,105.585,113.4,0.00302582,0.0506851,20.9904,603.405,-0.645929,0.0,0.0
672,167.75,52.3254,55.152,126.179,105.544,113.062,0.00296207,0.0506702,20.9898,603.315,-0.622392,0.0,0.0
675,168.5,52.6573,55.8372,128.505,105.493,114.076,0.00287711,0.0506593,20.9898,603.515,-0.707611,0.0,0.0
678,169.25,52.7275,55.3487,125.395,105.424,113.376,0.00282465,0.0506513,20.99,603.455,-0.657803,0.0,0.0
681,170,52.8812,55.403,124.961,105.332,113.445,0.00275244,0.0505901,20.9895,603.285,-0.671175,0.0,0.0
684,170.75,52.7294,55.7267,128.026,105.273,113.097,0.00269806,0.0505491,20.9892,603.315,-0.648472,0.0,0.0
687,171.5,52.7959,55.5209,124.428,105.19,113.076,0.00265841,0.0504949,20.9889,603.365,-0.65399,0.0,0.0
690,172.25,52.8337,55.9363,123.533,105.127,113.249,0.00262601,0.0504241,20.9888,603.285,-0.673147,0.0,0.0
693,173,52.1574,55.7398,123.104,105.035,113.129,0.00259504,0.0503278,20.9886,603.285,-0.671437,0.0,0.0
696,173.75,52.4309,55.7995,125.789,104.962,112.033,0.00256933,0.0502331,20.9885,603.305,-0.589753,0.0,0.0
699,174.5,53.0392,55.7237,126.192,104.883,112.806,0.00254534,0.0501251,20.9885,603.315,-0.658741,0.0,0.0
702,175.25,52.4607,55.752,125.866,104.813,112.736,0.0025352,0.0500175,20.9884,603.355,-0.659191,0.0,0.0
705,176,52.582,55.759,126.22,104.723,113.249,0.00253095,0.0498899,20.9884,603.285,-0.707979,0.0,0.0
708,176.75,52.7402,55.6387,125.926,104.652,112.435,0.00252785,0.0498554,20.9884,603.375,-0.648922,0.0,0.0
711,177.5,52.5365,55.4264,126.852,104.581,112.632,0.00251456,0.0498086,20.9883,603.495,-0.670826,0.0,0.0
714,178.25,52.2303,55.1563,125.795,104.532,111.762,0.00250017,0.0497377,20.9883,603.405,-0.604996,0.0,0.0
717,179,52.549,55.4196,125.56,104.469,112.961,0.00247745,0.0496664,20.9883,602.895,-0.706924,0.0,0.0
720,179.75,52.5296,55.6653,123.761,104.403,111.315,0.00246456,0.0495786,20.9883,603.115,-0.579933,0.0,0.0
723,180.5,52.5663,55.6487,124.99,104.366,112.012,0.00246189,0.049453,20.9883,602.995,-0.639526,0.0,0.0
726,181.25,52.5721,55.4469,125.668,104.335,112.92,0.00246877,0.0492522,20.9889,603.045,-0.71525,0.0,0.0
729,182,51.398,53.8743,127.324,104.286,112.519,0.00247902,0.0490592,20.9894,603.305,-0.687282,0.0,0.0
732,182.75,50.5309,53.3788,121.731,104.254,112.308,0.0024865,0.0488016,20.9897,603.115,-0.673091,0.0,0.0
735,183.5,50.5935,53.9924,125.351,104.227,112.315,0.00247272,0.0486002,20.9901,603.145,-0.67604,0.0,0.0
738,184.25,50.8264,53.6381,130.89,104.216,112.675,0.00246011,0.0484203,20.9906,603.135,-0.705941,0.0,0.0
741,185,50.7686,53.7463,125.065,104.185,112.739,0.0024465,0.0482774,20.9917,603.235,-0.713778,0.0,0.0
744,185.75,50.1687,53.3167,126.54,104.163,111.362,0.00244754,0.0481733,20.9924,603.345,-0.604504,0.0,0.0
747,186.5,50.6774,53.6229,125.064,104.156,112.394,0.00246704,0.0480974,20.993,603.055,-0.688578,0.0,0.0
750,187.25,50.5278,53.915,128.783,104.143,112.557,0.00249352,0.0481005,20.9933,603.395,-0.702788,0.0,0.0
753,188,50.8737,53.7167,121.991,104.152,112.9,0.00251736,0.0481027,20.9936,603.115,-0.729451,0.0,0.0
756,188.75,51.0855,53.8319,124.804,104.133,112.454,0.00253359,0.0480654,20.9941,603.115,-0.69543,0.0,0.0
759,189.5,50.541,53.6306,126.319,104.136,111.981,0.0025192,0.0480382,20.9944,603.145,-0.656994,0.0,0.0
762,190.25,50.3511,53.1773,124.654,104.133,111.747,0.00248298,0.0480184,20.9946,603.165,-0.638343,0.0,0.0
765,191,50.7963,53.6885,127.496,104.142,112.009,0.00244562,0.0479856,20.9948,603.035,-0.658661,0.0,0.0
768,191.75,50.3128,53.432,128.018,104.133,112.585,0.00239394,0.0479257,20.9949,603.205,-0.705879,0.0,0.0
771,192.5,50.7499,53.0059,128.829,104.142,112.478,0.00235046,0.0478207,20.995,603.115,-0.696534,0.0,0.0
774,193.25,50.3134,53.3616,126.27,104.158,112.088,0.00230886,0.0477246,20.9951,603.205,-0.663696,0.0,0.0
777,194,50.4082,53.4296,127.325,104.191,111.888,0.0022733,0.0476819,20.9951,603.135,-0.644731,0.0,0.0
780,194.75,50.6211,52.8729,124.061,104.174,111.279,0.002239,0.0476623,20.9952,603.095,-0.596811,0.0,0.0
783,195.5,50.4808,52.8158,123.994,104.196,112.428,0.00219969,0.0476871,20.9952,603.225,-0.687753,0.0,0.0
786,196.25,50.1774,53.1724,126.446,104.2,112.765,0.00215534,0.0476907,20.9952,603.205,-0.71455,0.0,0.0
789,197,49.7224,53.4461,128.894,104.22,112.693,0.00212056,0.0476688,20.9952,603.115,-0.706995,0.0,0.0
792,197.75,50.7269,52.7547,127.191,104.231,112.722,0.00209417,0.0475555,20.9953,603.045,-0.70836,0.0,0.0
795,198.5,50.5017,53.0279,126.899,104.241,112.321,0.0020785,0.0474728,20.9953,602.915,-0.675241,0.0,0.0
798,199.25,50.6811,52.9254,123.119,104.256,112.576,0.00206708,0.0474126,20.9953,603.085,-0.694526,0.0,0.0
801,200,50.3502,52.647,131.227,104.275,112.356,0.00206225,0.0473687,20.995,602.975,-0.675196,0.0,0.0
804,200.75,50.3858,53.0975,125.364,104.294,112.545,0.00206361,0.0474041,20.9949,603.105,-0.688757,0.0,0.0
807,201.5,49.8749,52.6945,125.477,104.299,112.198,0.00206862,0.0474588,20.9947,603.305,-0.660311,0.0,0.0
810,202.25,50.093,53.3475,125.081,104.318,111.937,0.00207557,0.0475765,20.9947,602.985,-0.637646,0.0,0.0
813,203,50.212,53.2472,124.993,104.337,112.007,0.00208587,0.0476407,20.9946,603.085,-0.641641,0.0,0.0
816,203.75,50.464,53.0453,127.13,104.358,112.337,0.00210072,0.0476507,20.9945,602.985,-0.666438,0.0,0.0
819,204.5,49.9976,52.6225,126.607,104.36,112.049,0.00211339,0.047619,20.9945,603.125,-0.642974,0.0,0.0
822,205.25,50.415,53.2616,123.781,104.392,113.069,0.00212042,0.0475823,20.9945,602.965,-0.722273,0.0,0.0
825,206,50.2889,52.9744,127.354,104.404,112.525,0.00212555,0.0475353,20.9951,603.175,-0.67751,0.0,0.0
828,206.75,50.0655,52.8535,122.632,104.437,112.605,0.00209383,0.0474765,20.9957,602.975,-0.681129,0.0,0.0
831,207.5,49.7971,52.9667,127.911,104.453,112.811,0.0020556,0.0474199,20.9963,603.045,-0.696298,0.0,0.0
834,208.25,50.4909,53.023,128.685,104.471,112.732,0.00200507,0.0473729,20.9968,603.065,-0.68841,0.0,0.0
837,209,49.9828,53.051,127.715,104.481,112.169,0.00196091,0.047353,20.9971,603.005,-0.642234,0.0,0.0
840,209.75,49.8674,52.9091,125.65,104.523,112.921,0.00192752,0.047363,20.9974,602.935,-0.69907,0.0,0.0
843,210.5,50.4349,52.8606,125.215,104.526,112.403,0.00190648,0.0473704,20.9976,603.075,-0.657193,0.0,0.0
846,211.25,50.495,53.1812,121.937,104.549,112.585,0.00189985,0.0473757,20.9977,603.105,-0.669825,0.0,0.0
849,212,50.1685,53.3046,125.816,104.557,113.021,0.00189624,0.0473991,20.9978,603.015,-0.704089,0.0,0.0
852,212.75,49.9058,52.6985,126.367,104.602,112.837,0.00189413,0.0473966,20.9979,603.035,-0.685477,0.0,0.0
855,213.5,50.3729,52.8638,123.68,104.591,112.124,0.00188159,0.0473403,20.9979,602.875,-0.629083,0.0,0.0
858,214.25,50.3369,52.9005,128.136,104.608,111.422,0.00186135,0.0472759,20.9979,602.915,-0.570817,0.0,0.0
861,215,50.4404,52.4063,126.037,104.625,112.553,0.0018356,0.0472289,20.998,602.975,-0.660774,0.0,0.0
864,215.75,50.2875,52.4137,127.717,104.638,112.873,0.00180584,0.0471947,20.998,602.995,-0.68521,0.0,0.0
867,216.5,50.1496,52.7935,127.227,104.638,111.939,0.00177947,0.0471698,20.998,603.025,-0.61006,0.0,0.0
870,217.25,50.0513,53.0676,124.274,104.657,112.842,0.00176024,0.0471516,20.998,602.865,-0.681138,0.0,0.0
873,218,50.1091,52.8243,123.758,104.678,112.321,0.00174448,0.0471929,20.998,602.895,-0.637473,0.0,0.0
876,218.75,50.2784,52.5559,125.625,104.698,112.149,0.00172561,0.0472464,20.998,602.885,-0.621869,0.0,0.0
879,219.5,49.988,52.763,128.304,104.713,112.976,0.0017087,0.047188,20.998,602.705,-0.686992,0.0,0.0
882,220.25,49.816,52.6993,128.585,104.703,113.135,0.00169028,0.0471044,20.9981,602.935,-0.700612,0.0,0.0
885,221,50.2387,52.5623,126.491,104.71,112.479,0.00167296,0.0470261,20.9983,602.845,-0.647405,0.0,0.0
888,221.75,50.0337,52.5549,128.562,104.72,111.856,0.00165814,0.0469701,20.9985,602.725,-0.596272,0.0,0.0
891,222.5,49.9516,52.5191,131.37,104.725,113.013,0.00162994,0.0469156,20.9986,602.735,-0.688951,0.0,0.0
894,223.25,50.3617,52.9123,126.798,104.731,113.82,0.0015911,0.0468701,20.9987,602.815,-0.752816,0.0,0.0
897,224,49.5573,52.4991,128.256,104.736,112.661,0.00154408,0.0467785,20.9987,602.785,-0.659775,0.0,0.0
900,224.75,50.046,52.8978,126.124,104.743,112.75,0.00148412,0.0467254,20.9982,602.835,-0.666331,0.0,0.0
903,225.5,50.2457,52.4389,123.819,104.767,112.356,0.00142834,0.046714,20.9977,602.735,-0.632584,0.0,0.0
906,226.25,50.0553,52.5157,129.947,104.764,112.969,0.00138768,0.0467426,20.9974,602.845,-0.682052,0.0,0.0
909,227,49.846,52.5189,120.808,104.763,112.783,0.00134936,0.0468608,20.9972,602.845,-0.667269,0.0,0.0
912,227.75,49.834,52.4195,125.767,104.776,113.113,0.00131899,0.0469743,20.997,602.705,-0.692509,0.0,0.0
915,228.5,49.7029,52.6059,124.937,104.791,113.508,0.00129581,0.0470255,20.9969,602.945,-0.7228,0.0,0.0
918,229.25,49.866,52.5596,125.827,104.789,113.777,0.00128087,0.0469891,20.9968,602.835,-0.744337,0.0,0.0
921,230,49.4944,52.5655,128.04,104.799,112.858,0.00127332,0.0469195,20.9969,602.825,-0.670142,0.0,0.0
924,230.75,49.916,52.5176,125.157,104.811,112.018,0.00128693,0.0467951,20.9968,602.695,-0.601525,0.0,0.0
927,231.5,50.3768,52.644,128.149,104.833,112.573,0.00130659,0.0467043,20.9966,602.965,-0.644313,0.0,0.0
930,232.25,50.0302,51.8189,127.952,104.832,112.597,0.00132508,0.0467161,20.9965,602.985,-0.646368,0.0,0.0
933,233,50.2029,52.5697,125.409,104.813,112.901,0.00134725,0.0467238,20.9964,602.935,-0.672374,0.0,0.0
936,233.75,49.7977,52.419,126.254,104.82,112.043,0.00136533,0.0467291,20.9963,602.985,-0.60279,0.0,0.0
939,234.5,50.2176,52.6142,127.546,104.838,112.389,0.0013818,0.0467135,20.9963,602.845,-0.629043,0.0,0.0
942,235.25,49.9548,52.4765,123.19,104.823,113.009,0.00139388,0.0466749,20.9963,602.835,-0.68015,0.0,0.0
945,236,49.8696,52.5825,126.179,104.834,112.062,0.00141168,0.0466351,20.9962,602.905,-0.603091,0.0,0.0
948,236.75,50.5838,52.0812,125.543,104.826,113.047,0.00143124,0.0467228,20.9962,602.955,-0.682952,0.0,0.0
951,237.5,49.7877,52.2325,126.053,104.82,112.69,0.00145245,0.0467796,20.9962,602.965,-0.654833,0.0,0.0
954,238.25,49.9132,52.3682,126.289,104.818,113.471,0.00146406,0.0468001,20.9962,602.895,-0.717458,0.0,0.0
957,239,49.954,52.1197,125.517,104.799,112.684,0.00146595,0.0468626,20.9962,602.835,-0.656171,0.0,0.0
960,239.75,49.9695,52.8518,126.341,104.805,112.993,0.00144299,0.0469154,20.9962,602.875,-0.680452,0.0,0.0
963,240.5,49.9697,52.0195,122.667,104.805,113.03,0.00142625,0.0469661,20.9962,602.845,-0.683471,0.0,0.0
966,241.25,50.5214,52.3659,121.987,104.81,113.126,0.001355,0.0469252,20.9962,602.805,-0.690635,0.0,0.0
969,242,50.3791,52.6555,125.333,104.794,112.755,0.00127995,0.0468818,20.9962,602.895,-0.662327,0.0,0.0
972,242.75,50.7178,52.7918,124.885,104.789,112.496,0.00121538,0.0468443,20.9962,602.845,-0.642002,0.0,0.0
975,243.5,50.6253,52.7749,124.946,104.776,113.553,0.00114403,0.0467897,20.9962,602.675,-0.727639,0.0,0.0
978,244.25,50.3305,52.7818,124.819,104.778,112.915,0.00108716,0.0467382,20.9962,602.735,-0.676483,0.0,0.0
981,245,50.6141,53.1646,127.434,104.742,112.436,0.00104362,0.0466812,20.9962,602.735,-0.641146,0.0,0.0
984,245.75,50.1203,52.5199,129.325,104.733,112.017,0.00102055,0.0465987,20.9962,602.775,-0.608164,0.0,0.0
987,246.5,50.5182,52.7245,124.719,104.726,112.312,0.00101833,0.0465211,20.9959,602.855,-0.63256,0.0,0.0
990,247.25,50.4564,52.6914,128.839,104.718,112.301,0.00102292,0.0464646,20.9954,602.845,-0.632466,0.0,0.0
993,248,50.2664,53.0867,126.921,104.709,112.168,0.00105912,0.0464643,20.995,602.585,-0.62246,0.0,0.0
996,248.75,49.6578,52.4646,128.587,104.693,112.303,0.00110785,0.0464672,20.9947,602.755,-0.634733,0.0,0.0
999,249.5,50.3581,52.7383,128.217,104.674,112.456,0.00115761,0.0464447,20.9945,602.765,-0.648637,0.0,0.0
1002,250.25,49.747,52.4083,127.18,104.663,112.536,0.00120431,0.0464283,20.9945,602.785,-0.656063,0.0,0.0
1005,251,50.5133,52.5136,126.331,104.638,112.386,0.0012301,0.0464164,20.995,602.875,-0.646157,0.0,0.0
1008,251.75,49.7109,52.4642,126.328,104.618,112.774,0.00126237,0.0464855,20.9952,602.765,-0.679047,0.0,0.0
1011,252.5,50.0289,53.1581,123.579,104.606,111.747,0.00128397,0.0465769,20.9955,602.765,-0.59728,0.0,0.0
1014,253.25,49.6347,53.0809,128.374,104.591,111.662,0.00129643,0.046661,20.9961,602.805,-0.591769,0.0,0.0
1017,254,50.3092,52.4609,124.971,104.543,112.131,0.00127598,0.046663,20.9965,602.885,-0.633778,0.0,0.0
1020,254.75,50.6088,52.5999,124.731,104.514,112.553,0.00126108,0.0466653,20.9968,602.875,-0.670316,0.0,0.0
1023,255.5,50.3912,52.6065,126.264,104.488,112.831,0.00118428,0.0465988,20.9971,602.545,-0.694829,0.0,0.0
1026,256.25,50.1534,52.4433,126.288,104.474,112.233,0.00109549,0.0465212,20.9972,602.655,-0.648002,0.0,0.0
1029,257,50.3005,52.1202,123.863,104.447,112.08,0.00101357,0.0464646,20.9974,602.595,-0.637949,0.0,0.0
1032,257.75,50.4051,52.7702,127.115,104.426,112.195,0.000948391,0.0464039,20.9974,602.685,-0.649096,0.0,0.0
1035,258.5,49.9585,52.32,128.252,104.399,111.846,0.000911805,0.0463596,20.9975,602.785,-0.623308,0.0,0.0
1038,259.25,50.1988,52.3582,123.259,104.367,112.386,0.00089491,0.0463274,20.9976,602.725,-0.669606,0.0,0.0
1041,260,50.1324,52.5691,128.922,104.357,112.467,0.000892408,0.0463233,20.9976,602.785,-0.676969,0.0,0.0
1044,260.75,50.7489,52.8289,125.47,104.323,110.812,0.000889517,0.0463204,20.9976,602.655,-0.545851,0.0,0.0
1047,261.5,50.2074,52.4009,123.595,104.289,111.208,0.00088741,0.0463182,20.9976,602.675,-0.581042,0.0,0.0
1050,262.25,50.2428,52.2301,126.228,104.275,111.981,0.000901474,0.0462777,20.9976,602.685,-0.644922,0.0,0.0
1053,263,50.6168,52.6999,126.83,104.265,112.028,0.000917485,0.046257,20.9977,602.675,-0.649528,0.0,0.0
1056,263.75,50.4001,52.8498,126.073,104.241,112.39,0.000939004,0.0462331,20.997,602.675,-0.680791,0.0,0.0
1059,264.5,50.198,52.7888,124.117,104.219,112.019,0.000972036,0.0461747,20.9966,602.705,-0.652884,0.0,0.0
1062,265.25,50.3755,52.5584,126.179,104.204,112.38,0.00100828,0.0461147,20.9963,602.715,-0.683307,0.0,0.0
1065,266,50.2924,52.4813,127.891,104.203,112.064,0.00105084,0.0460515,20.996,602.725,-0.657926,0.0,0.0
1068,266.75,50.5596,52.8726,126.889,104.172,111.524,0.00108653,0.0460191,20.9958,602.675,-0.616852,0.0,0.0
1071,267.5,50.3909,52.7502,126.268,104.15,112.029,0.00112818,0.0460084,20.9957,602.665,-0.659655,0.0,0.0
1074,268.25,49.9306,52.8009,127.414,104.142,112.043,0.00116687,0.0460129,20.9956,602.695,-0.661406,0.0,0.0
1077,269,50.619,52.8134,128.442,104.164,112.225,0.00120933,0.0459968,20.9956,602.645,-0.674225,0.0,0.0
1080,269.75,49.7909,53.2455,123.795,104.117,111.594,0.00125611,0.0459713,20.9957,602.645,-0.627288,0.0,0.0
1083,270.5,50.0711,52.1832,121.709,104.114,112.34,0.00130338,0.045947,20.9963,602.675,-0.687826,0.0,0.0
1086,271.25,50.3438,52.3544,123.462,104.131,112.702,0.00134881,0.0459681,20.9966,602.665,-0.715524,0.0,0.0
1089,272,50.5741,52.4646,125.12,104.114,112.154,0.00138559,0.0459836,20.9969,602.585,-0.672923,0.0,0.0
1092,272.75,50.2194,52.6663,127.845,104.105,111.788,0.00141331,0.0460143,20.9971,602.635,-0.644046,0.0,0.0
1095,273.5,50.399,52.4201,127.304,104.102,111.703,0.00143243,0.0460503,20.9967,602.605,-0.637479,0.0,0.0
1098,274.25,50.5244,53.0229,126.371,104.084,112.338,0.00143174,0.0460824,20.9963,602.474,-0.69032,0.0,0.0
1101,275,50.3599,52.4376,126.028,104.092,112.315,0.001425,0.0461058,20.9965,602.575,-0.687822,0.0,0.0
1104,275.75,50.4587,53.1469,124.324,104.099,112.057,0.00142009,0.0461365,20.9968,602.535,-0.666354,0.0,0.0
1107,276.5,50.2762,51.912,124.453,104.091,111.541,0.00132969,0.0461504,20.9973,602.545,-0.625336,0.0,0.0
1110,277.25,50.7633,52.5943,125.682,104.09,111.661,0.00122488,0.0461359,20.9975,602.384,-0.63511,0.0,0.0
1113,278,50.664,52.8361,131.625,104.107,111.175,0.00111655,0.0461253,20.9973,602.354,-0.594203,0.0,0.0
1116,278.75,50.5661,53.2633,126.966,104.107,111.92,0.00101133,0.0461176,20.9978,602.394,-0.654521,0.0,0.0
1119,279.5,50.8576,52.6304,121.202,104.116,112.297,0.000906936,0.0460977,20.9981,602.314,-0.684227,0.0,0.0
1122,280.25,50.6577,52.8105,128.739,104.121,112.331,0.000824444,0.0460585,20.9983,602.294,-0.686562,0.0,0.0
1125,281,50.4361,52.2852,127.118,104.149,112.306,0.000753388,0.0460105,20.9985,602.424,-0.68204,0.0,0.0
1128,281.75,49.9341,52.8444,123.712,104.168,112.548,0.000701588,0.045921,20.9986,602.324,-0.699875,0.0,0.0
1131,282.5,50.2873,52.7985,130.803,104.185,111.182,0.000663825,0.0458324,20.9987,602.404,-0.58798,0.0,0.0
1134,283.25,50.1209,52.5769,125.019,104.212,111.402,0.000672644,0.0457873,20.9988,602.444,-0.603462,0.0,0.0
1137,284,50.1553,52.7418,124.399,104.231,111.767,0.00070579,0.045809,20.9989,602.484,-0.63145,0.0,0.0
1140,284.75,49.8235,52.3052,124.035,104.255,112.377,0.000761173,0.0458481,20.9989,602.414,-0.678643,0.0,0.0
1143,285.5,50.1343,52.2879,127.206,104.254,112.487,0.000835458,0.0458766,20.9983,602.434,-0.687523,0.0,0.0
1146,286.25,50.1089,52.445,125.418,104.289,112.143,0.000924315,0.0459117,20.9979,602.494,-0.656833,0.0,0.0
1149,287,50.5901,52.0386,126.319,104.323,112.695,0.00100645,0.0459619,20.9975,602.484,-0.698199,0.0,0.0
1152,287.75,49.9001,52.1179,124.15,104.369,113.054,0.00106754,0.0459401,20.9973,602.274,-0.723021,0.0,0.0
1155,288.5,49.7205,52.5822,127.415,104.394,112.47,0.0011126,0.0459515,20.9971,602.304,-0.674007,0.0,0.0
1158,289.25,49.6792,52.0875,126.013,104.433,112.979,0.00113206,0.0459715,20.997,602.134,-0.711416,0.0,0.0
1161,290,50.017,51.8667,130.435,104.474,112.246,0.00113093,0.045986,20.9969,602.334,-0.649053,0.0,0.0
1164,290.75,49.8407,52.4517,126.322,104.538,112.594,,0.0459771,,602.414,-0.671525,0.0,0.0
1167,291.5,49.4666,52.1702,125.598,104.568,112.103,,0.0459707,,602.234,-0.629403,0.0,0.0
1170,292.25,49.8707,51.878,128.313,104.613,112.812,,0.0459659,,602.274,-0.682512,0.0,0.0
1173,293,49.8076,52.168,128.284,104.663,111.38,,0.0459431,,602.314,-0.562628,0.0,0.0
1176,293.75,50.2161,52.7364,125.336,104.725,113.106,,,,602.294,-0.696404,0.0,0.0
1179,294.5,49.6845,52.5703,126.592,104.752,111.88,,,,602.184,-0.595531,0.0,0.0
1182,295.25,49.321,52.2756,127.714,104.81,112.192,,,,602.294,-0.61569,0.0,0.0
1185,296,49.7654,51.6957,126.228,104.848,113.009,,,,602.424,-0.678036,0.0,0.0
1188,296.75,49.4692,52.1803,124.781,104.916,112.503,,,,602.284,-0.631515,0.0,0.0
1191,297.5,50.0999,51.6069,126.117,104.967,112.999,,,,602.194,-0.666976,0.0,0.0
1194,298.25,49.6555,52.3678,125.777,105.004,112.655,,,,602.254,-0.63625,0.0,0.0
1197,299,49.7202,51.9459,125.217,105.048,113.294,,,,602.154,-0.683519,0.0,0.0
1200,299.75,49.922,51.5925,124.181,105.122,113.007,,,,602.304,-0.654253,0.0,0.0
1203,300.5,49.5821,51.8079,128.775,105.17,112.922,,,,602.184,-0.64332,0.0,0.0
1205,301,49.462,51.9359,128.964,105.192,113.294,,,,602.214,-0.671228,0.0,0.0