File: 01_Data/Polyester_Microfiber_Sheet/Cone/Polyester_Microfiber_Sheet_Cone_HF75Scan_220523_R1.csv
Names,Time,Stack TC,Smoke TC,Exh Press,Smoke Comp,Smoke Meas,CO Meter,CO2 Meter,O2 Meter,Sample Mass,Ext Coeff,Start Test,Flame Verif
Chan Gain,,500,500,1,1,1,1,1,1,1,1,1.0,1.0
Offset,,0,0,0.135828,0,0,0,0,0,0,0,0.0,0.0
Gain,,1,1,25.011,13.8491,15.2622,1,1,1,1.00087,1.03118,1.0,1.0
Units,sec,C,C,Pa,%,%,%,%,%,g,/m,,
Baseline,,47.6213,49.5674,127.01,105.995,112.215,0.000448941,0.0464401,20.9929,-450.236,-0.515696,,
2,0.25,49.336,50.779,123.287,105.032,111.049,0.0003946,0.0576219,20.984,616.146,-0.503972,0.0,0.0
4,0.75,47.932,50.4569,128.737,105.045,112.101,0.000457937,0.0580326,20.9837,615.566,-0.588106,0.0,0.0
6,1.25,47.6636,50.3674,130.539,105.051,112.079,0.000509241,0.0583652,20.9834,615.676,-0.58583,0.0,0.0
8,1.75,47.7371,49.7252,125.447,105.061,110.886,0.000559297,0.0585624,20.9832,615.926,-0.488097,0.0,0.0
10,2.25,47.6362,50.1214,129.14,105.073,112.546,0.000599843,0.0586571,20.9831,615.546,-0.621488,0.0,0.0
12,2.75,48.0928,49.9732,128.13,105.086,112.572,0.000630256,0.0587339,20.9829,615.806,-0.62242,0.0,0.0
14,3.25,47.441,50.0009,127.687,105.104,112.002,0.00065489,0.0586727,20.9828,615.766,-0.575004,0.0,0.0
16,3.75,47.5878,50.0715,128.251,105.117,111.507,0.000674844,0.0586231,20.9827,615.626,-0.533803,0.0,0.0
18,4.25,47.489,49.6094,126.295,105.128,110.806,0.000678867,0.0584819,20.9827,615.816,-0.475852,0.0,0.0
20,4.75,47.6317,50.0541,127.153,105.155,110.777,0.0006712,0.0582766,20.9823,615.646,-0.471165,0.0,0.0
22,5.25,48.1565,50.0442,127.264,105.156,111.843,0.00066499,0.0580383,20.9819,615.686,-0.557695,0.0,0.0
24,5.75,47.9759,50.0394,125.42,105.168,111.061,0.000635695,0.0577803,20.9819,615.746,-0.49317,0.0,0.0
26,6.25,48.4253,49.6729,128.319,105.174,111.982,0.000611967,0.0575713,20.9821,615.676,-0.567388,0.0,0.0
28,6.75,48.0885,49.9124,128.872,105.179,110.519,0.000587003,0.0573587,20.9822,615.746,-0.447888,0.0,0.0
30,7.25,48.5187,49.8183,125.641,105.193,111.403,0.000561614,0.0571477,20.9823,615.706,-0.518829,0.0,0.0
32,7.75,48.4258,50.0306,126.36,105.207,111.32,0.000541048,0.0569767,20.9824,615.716,-0.510894,0.0,0.0
34,8.25,47.725,49.8972,125.984,105.215,111.26,0.000515904,0.056893,20.9823,615.746,-0.505359,0.0,0.0
36,8.75,47.7562,50.4166,126.479,105.236,111.282,0.000495538,0.0568252,20.9819,615.706,-0.505322,0.0,0.0
38,9.25,47.5141,50.3342,129.557,105.226,111.211,0.00046571,0.056864,20.9817,615.746,-0.500398,0.0,0.0
40,9.75,47.8726,50.39,122.281,105.252,111.859,0.000431348,0.0569799,20.9814,615.736,-0.550728,0.0,0.0
42,10.25,48.1695,50.2283,126.522,105.256,111.562,0.000394335,0.0570737,20.9808,615.706,-0.526339,0.0,0.0
44,10.75,48.2034,50.3692,127.915,105.261,111.936,0.000357981,0.0575336,20.9803,615.736,-0.556214,0.0,0.0
46,11.25,48.0532,50.4498,124.813,105.278,111.989,0.000322799,0.0579061,20.9799,615.716,-0.559015,0.0,0.0
48,11.75,48.0131,50.2027,130.535,105.286,111.149,0.000294302,0.0584686,20.9796,615.736,-0.490166,0.0,0.0
50,12.25,48.5505,50.5256,126.922,105.283,111.279,0.000271219,0.0589241,20.9793,615.726,-0.501025,0.0,0.0
52,12.75,48.3743,50.1844,127.324,105.301,111.275,0.000263489,0.0593755,20.9791,615.716,-0.499197,0.0,0.0
54,13.25,48.331,50.3121,126.316,105.316,111.465,0.000257228,0.0597411,20.9789,615.716,-0.513325,0.0,0.0
56,13.75,48.3798,50.4934,125.491,105.328,111.222,0.000309115,0.0599411,20.9787,615.716,-0.492483,0.0,0.0
58,14.25,48.5232,49.8927,128.404,105.326,111.075,0.000351145,0.0601032,20.9784,615.726,-0.480724,0.0,0.0
60,14.75,48.3844,50.303,125.729,105.331,110.67,0.000500595,0.0604368,20.978,615.746,-0.447304,0.0,0.0
62,15.25,48.5604,50.1024,128.614,105.322,109.712,0.000621649,0.0608891,20.9774,615.776,-0.369419,0.0,0.0
64,15.75,48.1372,50.5572,125.144,105.346,110.042,0.000816003,0.0612554,20.9733,615.776,-0.394422,0.0,0.0
66,16.25,48.8736,50.6085,123.981,105.344,109.248,0.0010601,0.0662311,20.9666,615.746,-0.329203,0.0,0.0
68,16.75,48.7314,50.324,121.481,105.36,110.874,0.00140771,0.0702614,20.9612,615.676,-0.461459,0.0,1.0
70,17.25,48.1685,50.425,121.452,105.354,106.67,0.00182417,0.078202,20.9428,615.576,-0.11232,0.0,1.0
72,17.75,48.6485,50.4539,120.964,105.364,102.915,0.00242463,0.0888422,20.9278,615.586,0.212671,0.0,1.0
74,18.25,48.4277,50.6365,125.289,105.364,101.387,0.0031478,0.104623,20.8999,615.516,0.347994,0.0,1.0
76,18.75,48.8413,50.4248,123.975,105.376,99.4664,0.00373357,0.123851,20.8774,615.546,0.522024,0.0,1.0
78,19.25,49.3834,50.819,119.634,105.366,98.3243,0.00460425,0.146952,20.8591,615.466,0.625684,0.0,1.0
80,19.75,49.5148,50.3986,116.708,105.379,95.5926,0.00566608,0.172436,20.8249,615.456,0.881637,0.0,1.0
82,20.25,50.2503,50.9997,114.888,105.373,92.3863,0.0068946,0.193079,20.7973,615.286,1.1897,0.0,1.0
84,20.75,49.9513,50.9342,113.072,105.377,88.9853,0.0082213,0.23149,20.7486,615.236,1.52933,0.0,1.0
86,21.25,50.2865,51.519,115.21,105.373,83.8595,0.00976336,0.262603,20.7092,615.156,2.06562,0.0,1.0
88,21.75,49.4259,50.0458,110.661,105.385,82.2578,0.0114331,0.315081,20.6478,615.055,2.24115,0.0,1.0
90,22.25,49.6555,50.0434,109.015,105.371,80.1334,0.0127856,0.357588,20.5981,615.025,2.47659,0.0,1.0
92,22.75,50.4073,50.3197,112.417,105.387,78.2536,0.0150316,0.412299,20.5052,614.935,2.69266,0.0,1.0
94,23.25,51.323,51.0275,114.703,105.377,77.7636,0.0168509,0.474866,20.43,614.785,2.74864,0.0,1.0
96,23.75,51.989,51.4681,106.246,105.391,71.9313,0.0194536,0.525546,20.3446,614.705,3.45504,0.0,0.0
98,24.25,52.6498,52.1886,104.307,105.389,71.5848,0.0215619,0.603161,20.2533,614.495,3.49854,0.0,0.0
100,24.75,53.5282,52.1404,97.5482,105.39,66.0617,0.0241884,0.666028,20.1587,614.325,4.22498,0.0,0.0
102,25.25,54.3928,53.021,99.8793,105.387,63.6179,0.0263159,0.760314,20.0633,614.125,4.56566,0.0,0.0
104,25.75,55.9213,53.7525,96.9537,105.403,60.8349,0.0280392,0.836686,19.986,613.984,4.97161,0.0,0.0
106,26.25,56.6608,54.6015,96.7628,105.394,62.5862,0.0301307,0.920615,19.9235,613.824,4.71416,0.0,0.0
108,26.75,58.3018,56.1723,89.5438,105.395,62.6905,0.0318248,0.988597,19.8675,613.654,4.69913,0.0,0.0
110,27.25,60.0312,56.8474,96.0316,105.379,60.6146,0.0331971,1.04927,19.8173,613.504,5.00243,0.0,0.0
112,27.75,61.3674,57.9747,101.95,105.395,65.3202,0.034168,1.09842,19.7767,613.364,4.32751,0.0,0.0
114,28.25,62.6639,58.8722,99.3229,105.395,60.7371,0.0348278,1.13312,19.7461,613.184,4.98547,0.0,0.0
116,28.75,63.8799,60.2382,99.8991,105.423,65.7874,0.0350551,1.15662,19.7214,613.104,4.26545,0.0,0.0
118,29.25,64.8943,61.2604,102.475,105.406,69.8046,0.0349628,1.17566,19.7013,613.004,3.72778,0.0,0.0
120,29.75,65.6731,61.8476,100.687,105.404,72.8461,0.0345132,1.19109,19.6851,612.954,3.34186,0.0,0.0
122,30.25,67.0485,63.3209,106.806,105.392,74.6891,0.0338119,1.18341,19.7119,612.833,3.11484,0.0,0.0
124,30.75,67.8759,63.9585,103.164,105.411,73.4553,0.0328439,1.15905,19.7336,612.773,3.26711,0.0,0.0
126,31.25,68.8182,64.852,108.875,105.4,74.0599,0.0317,1.13931,19.7946,612.613,3.19202,0.0,0.0
128,31.75,69.3175,65.3509,110.585,105.417,76.4432,0.030377,1.09666,19.844,612.583,2.907,0.0,0.0
130,32.25,69.2938,66.0392,112.403,105.412,81.2447,0.0289485,1.06211,19.9095,612.453,2.35557,0.0,0.0
132,32.75,69.8215,66.3953,110.238,105.422,77.5247,0.0277914,1.0102,19.9626,612.463,2.78036,0.0,0.0
134,33.25,70.3286,67.1429,108.732,105.411,81.5228,0.0263095,0.958212,20.0055,612.373,2.32459,0.0,0.0
136,33.75,70.582,67.7198,112.083,105.41,81.1828,0.0246189,0.907148,20.0614,612.313,2.36228,0.0,0.0
138,34.25,70.5112,67.8211,116.54,105.413,84.5074,0.0229466,0.856225,20.1067,612.253,1.99949,0.0,0.0
140,34.75,70.3544,68.5914,115.952,105.412,88.3341,0.0213194,0.806373,20.1615,612.233,1.59878,0.0,0.0
142,35.25,70.3514,68.4709,118.052,105.409,90.8209,0.0200013,0.765992,20.2059,612.173,1.34744,0.0,0.0
144,35.75,70.942,68.4064,118.521,105.411,92.4403,0.0184599,0.72347,20.2581,612.123,1.18775,0.0,0.0
146,36.25,70.625,68.5331,117.277,105.428,94.2382,0.0172113,0.680194,20.3004,612.083,1.01493,0.0,0.0
148,36.75,70.2393,68.7864,124.776,105.416,97.6294,0.0158243,0.64514,20.3448,612.073,0.694085,0.0,0.0
150,37.25,70.6033,69.5061,121.448,105.417,98.234,0.0147008,0.602953,20.3899,612.033,0.63839,0.0,0.0
152,37.75,69.8862,68.9577,116.442,105.417,99.7198,0.0135184,0.568782,20.4322,611.983,0.502565,0.0,0.0
154,38.25,70.1193,69.5861,119.063,105.41,100.794,0.0125607,0.531975,20.4717,611.963,0.405079,0.0,0.0
156,38.75,69.9589,69.1684,119.451,105.417,102.931,0.0116616,0.502162,20.5079,611.923,0.215887,0.0,0.0
158,39.25,70.3923,68.9409,115.137,105.415,103.676,0.0108225,0.470575,20.5409,611.893,0.150492,0.0,0.0
160,39.75,69.8289,68.6579,121.335,105.414,104.567,0.0101428,0.44499,20.5676,611.873,0.0730185,0.0,0.0
162,40.25,69.7592,69.8532,121.009,105.42,105.87,0.00936954,0.417935,20.5927,611.853,-0.0385121,0.0,0.0
164,40.75,69.5344,68.9291,121.474,105.414,105.911,0.00874317,0.39602,20.6162,611.843,-0.0425571,0.0,0.0
166,41.25,69.9211,69.1174,125.941,105.414,107.234,0.00813488,0.37333,20.638,611.833,-0.154797,0.0,0.0
168,41.75,69.4754,68.8347,119.811,105.402,108.258,0.00764216,0.354951,20.6581,611.853,-0.241834,0.0,0.0
170,42.25,69.3057,69.3057,121.207,105.414,107.389,0.00717468,0.340064,20.677,611.853,-0.167908,0.0,0.0
172,42.75,68.7723,68.9604,118.415,105.416,107.723,0.00679601,0.322936,20.6945,611.833,-0.195772,0.0,0.0
174,43.25,68.3191,68.9599,121.32,105.403,108.129,0.00646643,0.309063,20.7111,611.813,-0.230939,0.0,0.0
176,43.75,68.5549,68.9723,123.506,105.405,108.998,0.00617888,0.295836,20.7265,611.803,-0.303207,0.0,0.0
178,44.25,67.6204,69.193,121.535,105.414,108.407,0.00594208,0.28333,20.7391,611.753,-0.253262,0.0,0.0
180,44.75,67.8845,68.8031,123.879,105.405,108.62,0.00574676,0.271916,20.7517,611.743,-0.271768,0.0,0.0
182,45.25,68.0583,68.8343,122.958,105.413,108.401,0.00559901,0.261514,20.7619,611.703,-0.252867,0.0,0.0
184,45.75,67.9502,68.8482,122.589,105.415,109.654,0.00548874,0.251053,20.7728,611.682,-0.356596,0.0,0.0
186,46.25,67.0823,68.7713,121.322,105.414,109.829,0.00539941,0.24258,20.7817,611.662,-0.371179,0.0,0.0
188,46.75,66.9278,68.4729,123.154,105.414,110.812,0.00535059,0.234404,20.7888,611.682,-0.45176,0.0,0.0
190,47.25,66.4496,68.2728,122.639,105.42,110.709,0.00533222,0.226599,20.7973,611.682,-0.44281,0.0,0.0
192,47.75,66.9759,68.2755,121.008,105.41,110.267,0.00532847,0.219376,20.8041,611.662,-0.407454,0.0,0.0
194,48.25,66.4814,68.1708,123.047,105.419,110.66,0.00533544,0.212713,20.8114,611.612,-0.438846,0.0,0.0
196,48.75,66.4435,68.5975,119.953,105.412,110.177,0.00534108,0.207315,20.8173,611.612,-0.399897,0.0,0.0
198,49.25,66.6649,67.9412,125.21,105.423,111.132,0.00536306,0.202077,20.8221,611.592,-0.477044,0.0,0.0
200,49.75,66.1103,68.1764,122.75,105.412,110.471,0.00538087,0.197053,20.8266,611.592,-0.424032,0.0,0.0
202,50.25,65.8338,67.6839,123.342,105.422,110.609,0.00539529,0.192214,20.831,611.552,-0.434404,0.0,0.0
204,50.75,65.734,67.2783,125.487,105.424,111.544,0.00544555,0.187599,20.8348,611.542,-0.510421,0.0,0.0
206,51.25,65.791,67.8059,125.776,105.436,111.556,0.00548626,0.183862,20.8383,611.552,-0.510388,0.0,0.0
208,51.75,65.5114,66.625,124.417,105.426,111.636,0.00553957,0.179592,20.8411,611.562,-0.517715,0.0,0.0
210,52.25,65.1624,67.4703,121.544,105.424,111.698,0.00560104,0.176134,20.8451,611.552,-0.522952,0.0,0.0
212,52.75,64.9889,67.5044,122.922,105.418,111.403,0.00566724,0.173332,20.8484,611.532,-0.499478,0.0,0.0
214,53.25,64.3341,66.9868,120.896,105.424,113.145,0.00573562,0.169423,20.8524,611.522,-0.639317,0.0,0.0
216,53.75,64.4281,67.3177,122.051,105.407,112.088,0.00579101,0.166257,20.8556,611.462,-0.55588,0.0,0.0
218,54.25,64.3434,66.7667,124.891,105.425,112.806,0.0058615,0.163233,20.8582,611.442,-0.612096,0.0,0.0
220,54.75,63.9475,66.9979,125.986,105.415,111.204,0.00594166,0.160369,20.8616,611.452,-0.483568,0.0,0.0
222,55.25,64.1378,67.0205,122.582,105.428,111.884,0.00602435,0.157613,20.8644,611.442,-0.537553,0.0,0.0
224,55.75,63.7479,66.5543,126.778,105.424,111.562,0.0061073,0.154988,20.8675,611.432,-0.511858,0.0,0.0
226,56.25,64.0689,66.4645,120.567,105.43,111.936,0.0061745,0.152861,20.87,611.422,-0.541698,0.0,0.0
228,56.75,63.5525,66.04,128.424,105.417,111.82,0.00626895,0.150355,20.8725,611.412,-0.533408,0.0,0.0
230,57.25,63.4211,66.8812,122.242,105.431,110.959,0.00634546,0.148324,20.875,611.452,-0.462314,0.0,0.0
232,57.75,63.0836,66.1719,120.245,105.413,111.943,0.00644875,0.146679,20.8774,611.412,-0.543677,0.0,0.0
234,58.25,62.805,66.0587,125.388,105.436,112.853,0.00653242,0.144707,20.8793,611.412,-0.614925,0.0,0.0
236,58.75,62.6324,65.8448,123.765,105.418,112.416,0.00663904,0.143109,20.8818,611.412,-0.581361,0.0,0.0
238,59.25,62.9512,66.0545,124.188,105.426,112.724,0.00678469,0.141388,20.8847,611.412,-0.605485,0.0,0.0
240,59.75,62.7534,65.6671,125.64,105.42,112.334,0.00683803,0.139995,20.8854,611.412,-0.574654,0.0,0.0
242,60.25,62.4942,65.8408,125.553,105.429,111.735,0.00692925,0.138412,20.8867,611.422,-0.52546,0.0,0.0
244,60.75,62.1692,65.4309,124.122,105.418,110.897,0.00700314,0.13713,20.8878,611.402,-0.458313,0.0,0.0
246,61.25,62.297,65.6468,121.185,105.427,112.302,0.00710822,0.135637,20.8889,611.412,-0.571487,0.0,0.0
248,61.75,61.858,65.344,123.496,105.409,112.157,0.00719333,0.134429,20.89,611.372,-0.561262,0.0,0.0
250,62.25,61.698,65.3946,124.163,105.433,111.602,0.00729748,0.132548,20.8911,611.362,-0.514418,0.0,0.0
252,62.75,61.8036,65.0352,127.285,105.412,112.28,0.00738184,0.132041,20.8922,611.352,-0.570918,0.0,0.0
254,63.25,61.2215,64.9366,124.115,105.428,112.826,0.00747409,0.130945,20.8933,611.362,-0.613412,0.0,0.0
256,63.75,61.3925,65.1224,123.798,105.409,111.968,0.0075488,0.12985,20.8945,611.342,-0.546072,0.0,0.0
258,64.25,61.3837,64.8855,127.339,105.426,113.055,0.00762821,0.128962,20.8954,611.322,-0.631946,0.0,0.0
260,64.75,61.1282,64.7644,125.351,105.403,112.464,0.00769253,0.127721,20.897,611.312,-0.586489,0.0,0.0
262,65.25,60.9029,64.6863,124.374,105.405,112.302,0.00775524,0.126715,20.8983,611.302,-0.573299,0.0,0.0
264,65.75,60.555,64.7929,122.215,105.403,112.565,0.00781559,0.12576,20.8994,611.312,-0.594616,0.0,0.0
266,66.25,61.2013,64.6577,125.486,105.42,112.179,0.00786314,0.124859,20.9002,611.262,-0.562194,0.0,0.0
268,66.75,60.5909,63.9613,127.903,105.411,111.891,0.00790046,0.124025,20.9009,611.272,-0.539642,0.0,0.0
270,67.25,60.3709,64.6579,124.79,105.406,112.184,0.00793069,0.123256,20.9015,611.242,-0.563693,0.0,0.0
272,67.75,60.5239,64.3675,123.356,105.399,113.652,0.00794921,0.122418,20.9024,611.242,-0.681916,0.0,0.0
274,68.25,60.554,64.5419,125.693,105.404,113.04,0.00795884,0.121546,20.9036,611.242,-0.632676,0.0,0.0
276,68.75,60.0195,64.612,123.39,105.39,112.637,0.00796916,0.12058,20.9047,611.252,-0.601538,0.0,0.0
278,69.25,59.8748,64.0965,124.476,105.401,112.267,0.00797752,0.119565,20.9059,611.232,-0.570849,0.0,0.0
280,69.75,60.0691,64.2193,123.282,105.392,112.007,0.00798429,0.118742,20.9068,611.212,-0.550681,0.0,0.0
282,70.25,59.8773,63.8601,125.66,105.402,113.024,0.00799985,0.117725,20.908,611.142,-0.631553,0.0,0.0
284,70.75,59.8664,63.6274,124.432,105.409,113.031,0.00801246,0.1169,20.909,611.122,-0.631459,0.0,0.0
286,71.25,59.7715,63.3941,124.906,105.398,112.545,0.00802897,0.116173,20.9098,611.122,-0.593477,0.0,0.0
288,71.75,59.8248,63.823,126.224,105.394,113.676,0.00804235,0.115531,20.9104,611.092,-0.684314,0.0,0.0
290,72.25,59.2663,62.8524,123.695,105.411,112.956,0.00804814,0.115011,20.9109,611.062,-0.62531,0.0,0.0
292,72.75,58.7969,63.0679,122.488,105.384,111.854,0.00805283,0.11459,20.9113,611.072,-0.538951,0.0,0.0
294,73.25,58.8468,62.9159,122.219,105.395,111.693,0.00805663,0.114249,20.9117,611.132,-0.525002,0.0,0.0
296,73.75,59.0957,63.7526,125.971,105.395,111.686,0.00804963,0.113902,20.912,611.152,-0.524474,0.0,0.0
298,74.25,58.5933,63.4776,128.754,105.379,112.239,0.00804396,0.113621,20.9122,611.112,-0.570409,0.0,0.0
300,74.75,58.7955,62.9517,126.402,105.377,112.449,0.00803741,0.113169,20.9124,611.122,-0.587541,0.0,0.0
302,75.25,58.6518,62.7751,124.146,105.379,111.865,0.00801908,0.112803,20.9125,611.122,-0.540254,0.0,0.0
304,75.75,58.763,63.4693,124.521,105.378,113.129,0.00798773,0.112507,20.9126,611.142,-0.64204,0.0,0.0
306,76.25,58.8227,63.0735,122.823,105.379,110.793,0.00795306,0.112089,20.9127,611.042,-0.453174,0.0,0.0
308,76.75,58.4921,62.7615,120.838,105.368,112.565,0.00791664,0.111591,20.9132,611.142,-0.597626,0.0,0.0
310,77.25,58.4624,62.9427,127.73,105.368,112.157,0.00788912,0.111092,20.9136,611.092,-0.564743,0.0,0.0
312,77.75,58.5948,62.326,124.814,105.363,112.236,0.00786862,0.110393,20.9144,611.102,-0.571636,0.0,0.0
314,78.25,58.2456,62.7528,122.661,105.368,111.883,0.00785731,0.110205,20.9153,611.042,-0.542666,0.0,0.0
316,78.75,58.5853,62.4936,123.054,105.364,112.955,0.00785292,0.109846,20.9162,611.072,-0.629262,0.0,0.0
318,79.25,58.2057,62.1693,122.678,105.357,111.801,0.00785202,0.109522,20.9169,611.052,-0.537015,0.0,0.0
320,79.75,57.8973,62.5353,124.822,105.369,111.508,0.00785367,0.109193,20.9175,611.102,-0.512228,0.0,0.0
322,80.25,57.8839,62.3258,126.324,105.362,112.775,0.00785501,0.108867,20.918,611.062,-0.615071,0.0,0.0
324,80.75,57.7497,62.1642,122.598,105.354,112.853,0.00784476,0.108486,20.9188,611.072,-0.621962,0.0,0.0
326,81.25,57.8785,61.9873,124.139,105.346,112.338,0.00783647,0.10807,20.9195,611.022,-0.581231,0.0,0.0
328,81.75,57.3473,62.0898,126.261,105.357,112.679,0.00781253,0.107601,20.92,611.022,-0.607808,0.0,0.0
330,82.25,57.8992,61.9462,123.909,105.345,112.567,0.00777765,0.107101,20.9205,611.012,-0.599772,0.0,0.0
332,82.75,57.6434,61.7058,127.253,105.339,112.28,0.00773815,0.106601,20.9208,611.012,-0.577195,0.0,0.0
334,83.25,56.9879,61.3189,127.641,105.338,113.381,0.00769603,0.10611,20.9216,611.002,-0.665502,0.0,0.0
336,83.75,57.1807,61.7645,122.222,105.351,112.551,0.00765597,0.105712,20.9222,611.032,-0.597917,0.0,0.0
338,84.25,57.3253,61.4371,127.163,105.328,113.724,0.00761816,0.105316,20.9226,611.042,-0.693718,0.0,0.0
340,84.75,56.9387,61.8785,125.701,105.331,113.374,0.00758753,0.104929,20.923,611.042,-0.665636,0.0,0.0
342,85.25,57.1188,61.4405,122.201,105.327,113.457,0.0075489,0.104615,20.9233,610.982,-0.672612,0.0,0.0
344,85.75,56.7825,61.2065,126.624,105.326,112.845,0.00751762,0.10418,20.9236,610.922,-0.623758,0.0,0.0
346,86.25,57.255,61.3463,127.488,105.309,111.658,0.00749102,0.103827,20.924,610.912,-0.52954,0.0,0.0
348,86.75,57.0298,61.2737,122.052,105.334,112.807,0.00746947,0.103415,20.9246,610.922,-0.620007,0.0,0.0
350,87.25,56.9855,60.8647,123.19,105.313,111.638,0.00746207,0.103082,20.9253,610.922,-0.527627,0.0,0.0
352,87.75,56.7447,61.194,126.75,105.306,110.572,0.00745608,0.10263,20.926,610.892,-0.44141,0.0,0.0
354,88.25,56.5041,61.0868,125.657,105.3,111.781,0.00745122,0.102265,20.9267,610.842,-0.540257,0.0,0.0
356,88.75,56.8234,61.1165,123.958,105.302,111.904,0.00746362,0.101785,20.9272,610.832,-0.550095,0.0,0.0
358,89.25,56.5841,60.3729,125.682,105.293,113.262,0.00747366,0.101231,20.9276,610.832,-0.65998,0.0,0.0
360,89.75,56.4922,60.9781,124.599,105.292,112.103,0.00748305,0.100664,20.9281,610.842,-0.566955,0.0,0.0
362,90.25,56.6573,60.3677,124.299,105.279,111.739,0.00749066,0.1001,20.9288,610.832,-0.538682,0.0,0.0
364,90.75,56.7653,61.187,126.71,105.292,113.104,0.00750212,0.0994814,20.9293,610.822,-0.647397,0.0,0.0
366,91.25,56.0485,60.5794,122.929,105.274,113.054,0.00751616,0.0988351,20.9302,610.792,-0.644935,0.0,0.0
368,91.75,56.0208,60.5463,127.424,105.275,111.779,0.00753812,0.0983116,20.9309,610.842,-0.542285,0.0,0.0
370,92.25,56.0189,60.3403,126.597,105.25,112.537,0.00756544,0.0975115,20.9319,610.882,-0.605508,0.0,0.0
372,92.75,55.7941,59.8091,126.916,105.26,112.241,0.00760015,0.0968635,20.9327,610.882,-0.580906,0.0,0.0
374,93.25,55.9025,60.1932,122.899,105.237,111.971,0.00763959,0.096214,20.9334,610.842,-0.560997,0.0,0.0
376,93.75,55.9018,60.3445,121.63,105.252,111.941,0.00768081,0.0955759,20.9339,610.832,-0.557317,0.0,0.0
378,94.25,55.8422,60.0846,125.533,105.237,112.87,0.00772254,0.0949053,20.9352,610.812,-0.633436,0.0,0.0
380,94.75,55.5819,59.9901,125.846,105.239,112.107,0.00775635,0.0942237,20.9363,610.822,-0.571868,0.0,0.0
382,95.25,55.451,60.2196,123.168,105.223,111.977,0.00778771,0.09354,20.9372,610.802,-0.562757,0.0,0.0
384,95.75,55.7687,60.4322,123.677,105.224,110.994,0.00781669,0.0928677,20.9379,610.812,-0.482873,0.0,0.0
386,96.25,55.5807,59.8696,123.211,105.209,111.698,0.00784016,0.0921769,20.9384,610.782,-0.541318,0.0,0.0
388,96.75,55.9236,59.5918,125.912,105.218,112.124,0.00785917,0.0914857,20.9389,610.812,-0.575003,0.0,0.0
390,97.25,55.4911,59.7921,122.919,105.201,112.743,0.00786446,0.0909259,20.9395,610.782,-0.626291,0.0,0.0
392,97.75,55.251,59.5545,124.899,105.209,112.16,0.00786874,0.0901254,20.9403,610.742,-0.578694,0.0,0.0
394,98.25,55.2936,59.9806,125.07,105.204,112.138,0.00785836,0.0894771,20.9414,610.762,-0.577327,0.0,0.0
396,98.75,55.3556,59.3702,126.943,105.192,111.661,0.00784995,0.0889519,20.9428,610.742,-0.539864,0.0,0.0
398,99.25,54.6356,59.8465,125.874,105.171,112.418,0.00783784,0.0885265,20.944,610.752,-0.602825,0.0,0.0
400,99.75,55.0434,60.0221,126.829,105.18,111.969,0.00782326,0.0876421,20.9449,610.752,-0.565752,0.0,0.0
402,100.25,55.0577,59.1691,124.062,105.155,112.636,0.00780748,0.0869258,20.9457,610.742,-0.621692,0.0,0.0
404,100.75,55.3576,59.5764,126.231,105.15,112.991,0.00779113,0.0860962,20.9467,610.732,-0.650586,0.0,0.0
406,101.25,54.6772,59.2804,125.844,105.125,112.179,0.00777788,0.0854242,20.9476,610.692,-0.587505,0.0,0.0
408,101.75,55.1873,59.3014,125.945,105.13,111.951,0.00776211,0.0847852,20.9483,610.682,-0.568611,0.0,0.0
410,102.25,55.2319,58.8707,124.449,105.107,112.894,0.00774934,0.0841823,20.9488,610.692,-0.646499,0.0,0.0
412,102.75,55.2332,59.0214,128.153,105.1,112.009,0.007739,0.0836211,20.9493,610.682,-0.575821,0.0,0.0
414,103.25,55.0254,58.835,127.581,105.081,112.636,0.00773817,0.083101,20.9499,610.692,-0.628093,0.0,0.0
416,103.75,55.1598,59.1846,124.819,105.067,111.525,0.0077375,0.0825923,20.9506,610.702,-0.539531,0.0,0.0
418,104.25,54.6427,59.174,125.246,105.042,113.357,0.00774702,0.0821016,20.9511,610.682,-0.689121,0.0,0.0
420,104.75,54.7565,58.8717,126.674,105.035,112.189,0.00775473,0.0817042,20.9516,610.692,-0.596007,0.0,0.0
422,105.25,54.1813,58.9008,127.4,105.01,111.39,0.00776628,0.0812949,20.952,610.702,-0.533483,0.0,0.0
424,105.75,54.2325,58.141,127.853,105.004,112.291,0.0077804,0.0808847,20.9523,610.652,-0.606884,0.0,0.0
426,106.25,54.1014,59.0959,125.823,104.988,112.816,0.00780065,0.0805525,20.9527,610.662,-0.650489,0.0,0.0
428,106.75,54.5527,59.2676,127.878,104.957,111.454,0.00781705,0.0800622,20.9533,610.652,-0.543288,0.0,0.0
430,107.25,54.3693,58.8322,122.936,104.954,111.274,0.007835,0.0796651,20.9538,610.692,-0.528902,0.0,0.0
432,107.75,54.3906,58.9052,123.103,104.927,112.174,0.00785374,0.0792707,20.9546,610.682,-0.604128,0.0,0.0
434,108.25,54.6614,58.6729,124.478,104.919,112.624,0.00787024,0.0788858,20.9553,610.662,-0.641066,0.0,0.0
436,108.75,54.1489,58.3386,128.879,104.897,111.394,0.0078848,0.0784794,20.9557,610.662,-0.543584,0.0,0.0
438,109.25,54.9771,58.592,129.987,104.87,111.458,0.00789659,0.0780653,20.956,610.632,-0.551173,0.0,0.0
440,109.75,54.3396,58.2788,125.047,104.865,111.532,0.00789156,0.0776789,20.9562,610.632,-0.557507,0.0,0.0
442,110.25,53.6866,58.7918,127.71,104.849,111.714,0.00787437,0.0773202,20.9564,610.632,-0.573651,0.0,0.0
444,110.75,54.2437,58.3584,121.381,104.835,111.798,0.0078386,0.0769346,20.9566,610.632,-0.581676,0.0,0.0
446,111.25,54.4049,58.364,126.84,104.807,111.856,0.00778997,0.0765369,20.9572,610.632,-0.588794,0.0,0.0
448,111.75,54.1567,58.6603,125.442,104.793,111.049,0.00775057,0.0762148,20.9576,610.602,-0.524525,0.0,0.0
450,112.25,54.0409,58.1456,125.575,104.775,111.945,0.00766967,0.0757882,20.958,610.612,-0.598719,0.0,0.0
452,112.75,53.9354,58.2829,127.279,104.769,110.942,0.00758762,0.0754428,20.9583,610.602,-0.517836,0.0,0.0
454,113.25,53.9103,58.1827,125.921,104.742,111.177,0.0075063,0.075054,20.959,610.582,-0.539366,0.0,0.0
456,113.75,53.8692,58.0138,126.963,104.721,110.749,0.00743383,0.0746411,20.9596,610.562,-0.506225,0.0,0.0
458,114.25,54.188,58.399,128.73,104.713,110.881,0.00736919,0.0742558,20.96,610.562,-0.517715,0.0,0.0
460,114.75,54.1347,57.7338,127.21,104.701,110.829,0.00731881,0.0738981,20.9604,610.572,-0.514554,0.0,0.0
462,115.25,54.0223,58.1877,127.733,104.687,111.647,0.00727979,0.0736083,20.9607,610.562,-0.582193,0.0,0.0
464,115.75,53.6098,57.8872,122.276,104.667,110.713,0.00724817,0.0732908,20.9609,610.552,-0.507969,0.0,0.0
466,116.25,53.6826,57.707,128.054,104.652,110.806,0.00722587,0.0730337,20.9611,610.531,-0.516818,0.0,0.0
468,116.75,53.1945,57.4923,126.365,104.64,111.349,0.00721077,0.0728392,20.9612,610.521,-0.562064,0.0,0.0
470,117.25,53.9407,57.524,124.611,104.617,111.533,0.00719459,0.0726816,20.9614,610.491,-0.579045,0.0,0.0
472,117.75,54.3332,57.4723,122.591,104.606,112.624,0.00717791,0.0725264,20.9615,610.481,-0.667996,0.0,0.0
474,118.25,53.3909,57.7965,131.292,104.606,112.318,0.0071644,0.0724008,20.9616,610.471,-0.643385,0.0,0.0
476,118.75,54.1208,56.9009,123.153,104.574,111.889,0.00712588,0.0722714,20.9616,610.441,-0.611586,0.0,0.0
478,119.25,53.8028,57.5907,126.025,104.559,110.733,0.00709467,0.0721666,20.9619,610.431,-0.518886,0.0,0.0
480,119.75,53.7409,57.2033,125.043,104.551,112.679,0.0070694,0.0720527,20.9624,610.461,-0.677198,0.0,0.0
482,120.25,53.4461,57.4745,123.891,104.537,112.029,0.00701635,0.0719343,20.9628,610.451,-0.626132,0.0,0.0
484,120.75,53.8177,56.9782,128.397,104.511,111.673,0.00697339,0.0718384,20.9633,610.451,-0.599511,0.0,0.0
486,121.25,51.6532,55.8485,126.16,104.521,111.524,0.00692857,0.0715403,20.9636,610.451,-0.586625,0.0,0.0
488,121.75,52.5961,55.2932,123.971,104.494,111.3,0.00689227,0.0712988,20.9639,610.461,-0.570777,0.0,0.0
490,122.25,51.6037,55.4934,122.285,104.503,111.614,0.00685561,0.0711032,20.9642,610.391,-0.595489,0.0,0.0
492,122.75,51.7756,55.3855,129.032,104.478,111.108,0.0068194,0.0707794,20.9648,610.391,-0.556485,0.0,0.0
494,123.25,51.9355,56.0306,123.452,104.464,110.761,0.00679007,0.0705172,20.9653,610.411,-0.529472,0.0,0.0
496,123.75,51.5955,56.0157,125.221,104.447,111.173,0.00672629,0.0702085,20.9658,610.401,-0.564502,0.0,0.0
498,124.25,51.8815,55.5969,124.463,104.448,110.348,0.00667463,0.0699583,20.9661,610.431,-0.497024,0.0,0.0
500,124.75,51.9998,55.4991,125.902,104.429,110.552,0.00659904,0.069734,20.9664,610.451,-0.515378,0.0,0.0
502,125.25,51.3407,55.3826,123.597,104.42,111.478,0.00653782,0.0695327,20.9666,610.441,-0.591556,0.0,0.0
504,125.75,51.9967,56.0536,123.863,104.395,111.269,0.00647377,0.0693697,20.9668,610.451,-0.576843,0.0,0.0
506,126.25,51.4412,55.298,126.147,104.398,111.977,0.00640888,0.0691413,20.9674,610.481,-0.633884,0.0,0.0
508,126.75,51.5028,55.2623,127.053,104.369,112.041,0.00634909,0.0689563,20.9678,610.441,-0.641639,0.0,0.0
510,127.25,51.7268,55.5253,125.889,104.386,110.657,0.00629417,0.0687774,20.9682,610.401,-0.527723,0.0,0.0
512,127.75,51.6096,55.4384,125.102,104.365,110.804,0.00627075,0.0686065,20.9684,610.411,-0.541539,0.0,0.0
514,128.25,51.5168,56.0394,125.932,104.343,110.306,0.00622086,0.0684536,20.9687,610.361,-0.502744,0.0,0.0
516,128.75,51.5361,55.3396,126.51,104.332,111.718,0.00617158,0.0683166,20.9693,610.381,-0.618693,0.0,0.0
518,129.25,51.958,54.3638,121.706,104.33,110.566,0.00611265,0.0681478,20.9699,610.391,-0.52513,0.0,0.0
520,129.75,51.2786,55.3211,129.175,104.318,111.044,0.00604778,0.0679589,20.9703,610.361,-0.565205,0.0,0.0
522,130.25,51.5874,55.0893,125.473,104.316,111.115,0.00599525,0.0678059,20.9707,610.391,-0.571116,0.0,0.0
524,130.75,51.2728,54.8904,125.454,104.298,110.752,0.00591404,0.0676465,20.9709,610.391,-0.54307,0.0,0.0
526,131.25,51.4274,55.221,126.694,104.301,111.406,0.00581348,0.067374,20.9712,610.371,-0.596103,0.0,0.0
528,131.75,51.7753,55.3649,126.482,104.277,111.755,0.00570913,0.067081,20.9714,610.361,-0.626472,0.0,0.0
530,132.25,51.7602,54.8814,125.965,104.275,111.436,0.00560401,0.0667784,20.9715,610.361,-0.600795,0.0,0.0
532,132.75,51.6964,55.3359,126.84,104.274,110.935,0.00551886,0.0665334,20.9716,610.301,-0.560097,0.0,0.0
534,133.25,51.3226,54.7985,127.198,104.275,111.427,0.00543126,0.0662249,20.9717,610.321,-0.600003,0.0,0.0
536,133.75,51.348,54.833,127.061,104.252,111.72,0.0053603,0.065975,20.9718,610.321,-0.625772,0.0,0.0
538,134.25,51.5219,55.0058,125.397,104.255,110.593,0.00531028,0.0657727,20.9719,610.281,-0.533865,0.0,0.0
540,134.75,51.4007,55.1959,124.209,104.239,110.473,0.00526976,0.0656087,20.9719,610.311,-0.525426,0.0,0.0
542,135.25,50.9788,54.6298,125.031,104.237,110.714,0.00525184,0.0654542,20.972,610.291,-0.545304,0.0,0.0
544,135.75,51.303,54.8115,124.495,104.23,110.938,0.00523733,0.0653096,20.972,610.281,-0.564214,0.0,0.0
546,136.25,50.9848,54.717,124.786,104.23,111.587,0.00523551,0.0651924,20.972,610.261,-0.616887,0.0,0.0
548,136.75,50.9732,54.6891,126.612,104.223,110.51,0.00523404,0.06507,20.9721,610.231,-0.529831,0.0,0.0
550,137.25,51.7184,54.1101,120.728,104.23,110.744,0.00522565,0.0649708,20.9721,610.241,-0.548363,0.0,0.0
552,137.75,51.7145,54.8301,128.465,104.212,110.519,0.00521239,0.0648399,20.9721,610.271,-0.531474,0.0,0.0
554,138.25,50.8708,54.734,123.673,104.238,112.014,0.00520165,0.0646883,20.9721,610.241,-0.650745,0.0,0.0
556,138.75,51.1048,54.4439,128.171,104.218,110.976,0.00514329,0.0644555,20.9721,610.211,-0.568354,0.0,0.0
558,139.25,51.6168,54.8525,122.56,104.226,110.989,0.00509603,0.064267,20.9721,610.211,-0.56872,0.0,0.0
560,139.75,51.3379,54.4928,127.043,104.218,111.663,0.00501683,0.0640782,20.9721,610.211,-0.624104,0.0,0.0
562,140.25,51.1492,54.3402,124.122,104.215,111.79,0.00495269,0.0638927,20.9721,610.221,-0.634728,0.0,0.0
564,140.75,50.9687,54.7093,125.433,104.205,110.036,0.00488586,0.0637424,20.9721,610.231,-0.492555,0.0,0.0
566,141.25,50.8173,54.4744,127.42,104.209,112.07,0.00483173,0.0635932,20.9722,610.241,-0.65779,0.0,0.0
568,141.75,50.9251,54.414,124.415,104.22,111.575,0.00479284,0.0634724,20.9722,610.261,-0.61686,0.0,0.0
570,142.25,51.071,54.0118,126.121,104.204,111.339,0.00476134,0.0633883,20.9722,610.271,-0.599016,0.0,0.0
572,142.75,51.3278,54.8764,125.591,104.199,110.843,0.00473583,0.0633201,20.9722,610.231,-0.559103,0.0,0.0
574,143.25,51.1678,54.1069,125.862,104.2,110.396,0.00473003,0.0632512,20.9722,610.211,-0.522543,0.0,0.0
576,143.75,51.0862,54.255,126.744,104.192,111.556,0.00472533,0.0631953,20.9722,610.211,-0.61777,0.0,0.0
578,144.25,50.6007,54.4873,124.748,104.199,111.023,0.00472152,0.0632325,20.9726,610.181,-0.573802,0.0,0.0
580,144.75,50.5355,54.1302,121.517,104.193,111.732,0.00471714,0.0632626,20.9729,610.211,-0.631925,0.0,0.0
582,145.25,50.833,54.52,126.098,104.194,111.647,0.00471241,0.0633145,20.9732,610.191,-0.624911,0.0,0.0
584,145.75,51.0036,54.528,123.102,104.19,110.869,0.0046988,0.0633565,20.9739,610.201,-0.562003,0.0,0.0
586,146.25,50.6625,54.0129,124.762,104.191,111.364,0.00467897,0.0633906,20.9744,610.211,-0.602196,0.0,0.0
588,146.75,51.2397,54.3236,125.857,104.181,110.444,0.00464858,0.0634181,20.9749,610.171,-0.528048,0.0,0.0
590,147.25,51.2685,54.44,126.233,104.191,111.058,0.00461106,0.0632894,20.9752,610.171,-0.577344,0.0,0.0
592,147.75,51.0252,54.0268,124.341,104.181,111.576,0.00458067,0.0631851,20.9755,610.161,-0.62031,0.0,0.0
594,148.25,51.3093,54.3117,122.665,104.189,112.006,0.00453996,0.06305,20.9757,610.111,-0.654399,0.0,0.0
596,148.75,51.2591,54.2288,128.53,104.191,111.523,0.00450699,0.062895,20.9759,610.121,-0.615162,0.0,0.0
598,149.25,50.6494,54.063,123.905,104.192,110.697,0.00447703,0.0627262,20.9761,610.121,-0.547823,0.0,0.0
600,149.75,51.0689,53.9875,125.16,104.179,111.909,0.00444983,0.0625504,20.9762,610.101,-0.647452,0.0,0.0
602,150.25,50.5475,53.9754,125.393,104.187,110.43,0.0044252,0.0623719,20.9763,610.111,-0.526428,0.0,0.0
604,150.75,51.2503,53.9703,124.605,104.183,111.134,0.0044029,0.0621947,20.9764,610.131,-0.584223,0.0,0.0
606,151.25,51.1547,54.2255,126.861,104.187,111.587,0.00438484,0.0620513,20.9765,610.131,-0.620704,0.0,0.0
608,151.75,51.1938,53.9302,127.121,104.177,110.509,0.0043624,0.0618802,20.9765,610.121,-0.533717,0.0,0.0
610,152.25,50.4331,54.5851,125.592,104.175,111.044,0.0043372,0.0617416,20.9766,610.111,-0.577563,0.0,0.0
612,152.75,50.3813,53.94,131.406,104.181,111.023,0.00431093,0.0615932,20.9766,610.131,-0.575378,0.0,0.0
614,153.25,50.8187,53.9125,127.533,104.192,110.483,0.00428438,0.0614405,20.9766,610.111,-0.530335,0.0,0.0
616,153.75,50.7336,53.561,130.839,104.19,111.065,0.00425898,0.0613168,20.9766,610.101,-0.577949,0.0,0.0
618,154.25,50.7146,54.2853,124.248,104.193,111.668,0.00423489,0.061299,20.9767,610.061,-0.626758,0.0,0.0
620,154.75,50.5852,53.7905,123.634,104.182,110.918,0.00420627,0.0612845,20.9767,610.071,-0.566726,0.0,0.0
622,155.25,50.5632,54.3583,125.589,104.183,111.213,0.0041749,0.0613017,20.9767,610.091,-0.590666,0.0,0.0
624,155.75,50.4752,54.0554,126.045,104.178,110.841,0.00413324,0.0613417,20.9767,610.111,-0.560824,0.0,0.0
626,156.25,50.9868,53.9191,125.3,104.189,111.778,0.00408488,0.0613877,20.9767,610.111,-0.635987,0.0,0.0
628,156.75,51.1826,53.5546,123.986,104.205,112.398,0.00402624,0.0614251,20.9767,610.111,-0.684659,0.0,0.0
630,157.25,51.1925,54.0296,128.9,104.18,111.244,0.0039612,0.0614625,20.9767,610.081,-0.593421,0.0,0.0
632,157.75,50.8934,54.387,124.978,104.192,110.247,0.00390853,0.0614994,20.9767,610.041,-0.51102,0.0,0.0
634,158.25,50.8337,53.8314,124.32,104.18,111.581,0.00384511,0.0615075,20.9767,610.051,-0.6208,0.0,0.0
636,158.75,51.2539,53.787,126.3,104.19,111.396,0.00377506,0.0614946,20.9767,610.051,-0.60488,0.0,0.0
638,159.25,51.0733,54.171,127.568,104.177,111.083,0.00371832,0.0614625,20.9767,610.051,-0.580528,0.0,0.0
640,159.75,50.7876,53.7928,125.42,104.185,111.347,0.00366867,0.061417,20.9767,610.031,-0.601422,0.0,0.0
642,160.25,50.7253,54.0043,126.382,104.187,110.32,0.00362845,0.0613801,20.9767,610.041,-0.517382,0.0,0.0
644,160.75,50.3744,53.937,127.596,104.187,112.029,0.00360203,0.0612542,20.9767,610.021,-0.656463,0.0,0.0
646,161.25,50.7209,53.4697,121.4,104.19,112.057,0.00358064,0.0611522,20.9767,610.021,-0.658426,0.0,0.0
648,161.75,50.7705,54.2644,127.595,104.205,111.237,0.00356576,0.0610335,20.9767,609.991,-0.590689,0.0,0.0
650,162.25,50.6851,53.9064,123.259,104.184,111.1,0.00355372,0.0609048,20.9767,610.001,-0.581419,0.0,0.0
652,162.75,50.7751,53.7626,127.461,104.197,111.311,0.00353904,0.0608006,20.9767,610.001,-0.597407,0.0,0.0
654,163.25,51.0875,53.7586,123.688,104.194,110.674,0.00352714,0.0607024,20.9772,609.991,-0.545773,0.0,0.0
656,163.75,50.4612,53.6593,125.363,104.197,111.738,0.0035015,0.0606085,20.9775,610.001,-0.632084,0.0,0.0
658,164.25,50.4614,53.3682,127.336,104.181,110.462,0.00348074,0.0605194,20.9778,609.951,-0.529537,0.0,0.0
660,164.75,50.7755,53.6383,124.973,104.204,110.999,0.00346391,0.0604111,20.978,609.951,-0.57135,0.0,0.0
662,165.25,50.4239,53.6812,125.402,104.183,110.599,0.0034183,0.060291,20.9782,609.951,-0.54056,0.0,0.0
664,165.75,50.7806,53.8031,130.3,104.194,109.925,0.00338135,0.0601936,20.9786,609.931,-0.484353,0.0,0.0
666,166.25,50.6873,53.4674,126.715,104.196,111.539,0.00335142,0.0600599,20.9791,609.911,-0.615969,0.0,0.0
668,166.75,50.2238,53.2505,128.636,104.199,111.301,0.00332199,0.0599516,20.9796,609.951,-0.596465,0.0,0.0
670,167.25,50.7133,53.5006,125.765,104.174,111.134,0.0032935,0.0598501,20.9799,609.941,-0.585029,0.0,0.0
672,167.75,50.3055,53.7276,126.649,104.205,111.209,0.00327534,0.059768,20.9802,609.971,-0.588415,0.0,0.0
674,168.25,50.9494,53.9528,127.25,104.182,110.054,0.00326064,0.0597014,20.9804,609.951,-0.495954,0.0,0.0
676,168.75,51.1684,53.9774,125.276,104.199,111.19,0.00324743,0.0596475,20.9806,609.951,-0.587339,0.0,0.0
678,169.25,50.7708,53.4988,123.695,104.191,110.982,0.00323556,0.0595749,20.9807,609.921,-0.571158,0.0,0.0
680,169.75,50.5882,53.6485,125.839,104.207,110.389,0.00322595,0.0594902,20.9809,609.921,-0.521309,0.0,0.0
682,170.25,50.6925,53.1391,128.415,104.187,111.309,0.00321079,0.0593638,20.9809,609.921,-0.598173,0.0,0.0
684,170.75,50.3724,53.4492,128.587,104.203,110.813,0.00319851,0.0592095,20.981,609.891,-0.556303,0.0,0.0
686,171.25,50.6881,53.2726,126.356,104.191,111.367,0.00317996,0.0590267,20.9811,609.871,-0.60246,0.0,0.0
688,171.75,50.7977,53.1406,127.92,104.21,110.786,0.00316493,0.0588268,20.9811,609.871,-0.553511,0.0,0.0
690,172.25,50.3153,53.2693,130.002,104.201,110.043,0.00315276,0.0586359,20.9812,609.871,-0.493382,0.0,0.0
692,172.75,50.8706,53.3779,128.712,104.222,111.239,0.00313921,0.0584554,20.9812,609.891,-0.589372,0.0,0.0
694,173.25,50.4699,53.4786,130.767,104.193,110.186,0.00312824,0.0583092,20.9812,609.901,-0.505902,0.0,0.0
696,173.75,50.6519,53.1905,124.185,104.214,110.464,0.00312304,0.058177,20.9813,609.891,-0.526864,0.0,0.0
698,174.25,51.0169,53.629,129.126,104.202,111.086,0.00311883,0.05807,20.9813,609.911,-0.578666,0.0,0.0
700,174.75,50.9131,53.6469,123.874,104.215,111.325,0.00311173,0.0579905,20.9815,609.881,-0.596927,0.0,0.0
702,175.25,50.454,53.0345,123.233,104.206,111.362,0.00310597,0.0579326,20.9819,609.871,-0.600723,0.0,0.0
704,175.75,50.2293,53.225,125.757,104.216,111.289,0.00308709,0.0578857,20.9823,609.851,-0.593939,0.0,0.0
706,176.25,50.8103,53.0675,126.856,104.206,111.928,0.00305899,0.0577929,20.9825,609.861,-0.646684,0.0,0.0
708,176.75,50.7971,53.481,122.958,104.222,110.452,0.00301879,0.0577177,20.9827,609.851,-0.525176,0.0,0.0
710,177.25,51.2062,53.5353,124.371,104.204,112.004,0.00297052,0.0576279,20.9829,609.871,-0.652928,0.0,0.0
712,177.75,50.8716,53.4637,125.225,104.216,112.21,0.00291787,0.0575293,20.9831,609.851,-0.668474,0.0,0.0
714,178.25,50.8798,53.331,122.914,104.223,110.951,0.00286302,0.0574422,20.9832,609.841,-0.565825,0.0,0.0
716,178.75,50.8225,53.2916,125.258,104.221,111.439,0.00281859,0.0573651,20.9833,609.841,-0.605754,0.0,0.0
718,179.25,51.1616,53.4538,123.152,104.223,111.377,0.00275441,0.0573027,20.9833,609.841,-0.600505,0.0,0.0
720,179.75,51.3591,53.1977,121.986,104.228,111.131,0.00270243,0.0572247,20.9834,609.811,-0.580031,0.0,0.0
722,180.25,50.6631,53.845,127.217,104.223,111.713,0.00264807,0.0571327,20.9835,609.831,-0.627736,0.0,0.0
724,180.75,50.8904,53.3224,127.912,104.246,112.497,0.00259302,0.0570322,20.9835,609.811,-0.689006,0.0,0.0
726,181.25,50.8473,53.1325,124.123,104.226,111.957,0.00253812,0.0569508,20.9835,609.801,-0.647257,0.0,0.0
728,181.75,50.8115,53.7472,126.046,104.237,111.244,0.00248437,0.0568986,20.9836,609.791,-0.58847,0.0,0.0
730,182.25,50.8176,52.7889,130.172,104.239,111.27,0.00243375,0.0568563,20.9836,609.811,-0.590442,0.0,0.0
732,182.75,51.1066,52.9262,125.372,104.252,111.394,0.00238638,0.0568148,20.9836,609.821,-0.599334,0.0,0.0
734,183.25,50.9981,53.2832,125.622,104.25,112.012,0.00234865,0.0567748,20.9836,609.811,-0.649605,0.0,0.0
736,183.75,50.7569,53.1996,124.596,104.264,110.946,0.00231866,0.0567207,20.9836,609.801,-0.561851,0.0,0.0
738,184.25,50.8943,53.5055,125.786,104.265,111.083,0.00229438,0.0566574,20.9836,609.811,-0.57301,0.0,0.0
740,184.75,50.6627,53.5454,126.7,104.252,112.463,0.0022747,0.0566061,20.9836,609.801,-0.685796,0.0,0.0
742,185.25,50.4245,53.6071,126.039,104.257,111.677,0.00225877,0.0565646,20.9836,609.781,-0.621898,0.0,0.0
744,185.75,50.6804,53.1378,123.333,104.262,110.906,0.00224844,0.0565309,20.9836,609.791,-0.558768,0.0,0.0
746,186.25,51.0185,53.573,123.611,104.269,112.792,0.00224239,0.0565311,20.9836,609.781,-0.710738,0.0,0.0
748,186.75,49.9359,52.4198,130.058,104.257,111.041,0.00224264,0.0565312,20.9837,609.771,-0.570217,0.0,0.0
750,187.25,50.0061,53.3231,122.929,104.266,111.836,0.00224748,0.0565039,20.9837,609.751,-0.633947,0.0,0.0
752,187.75,50.694,53.6254,125.294,104.28,111.302,0.0022514,0.0564818,20.9837,609.771,-0.589535,0.0,0.0
754,188.25,51.0452,53.53,124.461,104.272,112.024,0.00225458,0.0564091,20.9837,609.761,-0.648639,0.0,0.0
756,188.75,50.9841,52.9982,125.094,104.288,110.981,0.00225715,0.0563502,20.9837,609.741,-0.562645,0.0,0.0
758,189.25,50.9264,53.3507,124.871,104.279,111.905,0.00225924,0.0563025,20.9837,609.741,-0.638458,0.0,0.0
760,189.75,50.4357,53.4106,126.077,104.283,111.774,0.00223768,0.0562091,20.9837,609.741,-0.627543,0.0,0.0
762,190.25,50.8647,53.2655,124.282,104.282,112.085,0.00222022,0.0561334,20.9838,609.721,-0.652722,0.0,0.0
764,190.75,50.2256,53.5954,128.139,104.282,111.758,0.00220285,0.0560584,20.9839,609.721,-0.626334,0.0,0.0
766,191.25,50.6213,53.0255,129.413,104.299,111.53,0.00218589,0.0559977,20.984,609.691,-0.606339,0.0,0.0
768,191.75,50.9856,53.3211,125.949,104.303,111.061,0.00217666,0.0559485,20.9841,609.691,-0.567854,0.0,0.0
770,192.25,50.1539,54.0112,126.204,104.293,111.159,0.00217324,0.0558812,20.9841,609.681,-0.576733,0.0,0.0
772,192.75,50.851,53.4505,126.308,104.294,111.47,0.00217047,0.0558268,20.9841,609.681,-0.601904,0.0,0.0
774,193.25,50.4736,53.2365,126.596,104.298,110.455,0.00217466,0.0557538,20.9842,609.691,-0.518806,0.0,0.0
776,193.75,50.4308,52.7833,124.375,104.295,110.493,0.00218385,0.0556688,20.9842,609.701,-0.522226,0.0,0.0
778,194.25,50.757,53.1846,125.533,104.308,111.636,0.00218615,0.0555999,20.9842,609.721,-0.614105,0.0,0.0
780,194.75,50.4213,53.1976,123.566,104.301,111.922,0.00218337,0.0555304,20.9847,609.711,-0.637871,0.0,0.0
782,195.25,50.6605,53.1627,132.388,104.307,111.007,0.00216696,0.0554741,20.9851,609.701,-0.563123,0.0,0.0
784,195.75,50.3879,53.6847,125.902,104.302,111.058,0.00214092,0.0554285,20.9854,609.681,-0.567661,0.0,0.0
786,196.25,50.7076,53.1058,127.74,104.299,111.824,0.00211983,0.0553916,20.9856,609.671,-0.630143,0.0,0.0
788,196.75,50.3777,53.5932,124.39,104.313,111.498,0.00207465,0.0553689,20.9858,609.681,-0.60256,0.0,0.0
790,197.25,50.4349,53.2043,121.82,104.326,110.931,0.00203805,0.055357,20.986,609.661,-0.555247,0.0,0.0
792,197.75,50.6263,53.1241,127.698,104.313,111.526,0.00201329,0.0553474,20.9861,609.661,-0.604792,0.0,0.0
794,198.25,50.0182,52.57,129.084,104.313,111.59,0.00199323,0.0553395,20.9862,609.661,-0.609965,0.0,0.0
796,198.75,50.1109,53.278,122.303,104.32,111.689,0.00199654,0.0553332,20.9863,609.651,-0.617417,0.0,0.0
798,199.25,50.3729,52.9419,124.961,104.326,111.525,0.00199922,0.055287,20.9863,609.631,-0.603616,0.0,0.0
800,199.75,50.4751,53.336,126.393,104.327,111.427,0.00200138,0.0552496,20.9864,609.611,-0.595532,0.0,0.0
802,200.25,50.4441,53.2366,129.473,104.337,111.556,0.0020227,0.0552193,20.9864,609.611,-0.605156,0.0,0.0
804,200.75,50.5684,52.7357,125.575,104.338,110.921,0.00203997,0.0551947,20.9865,609.631,-0.553498,0.0,0.0
806,201.25,50.1254,53.1622,124.3,104.344,111.679,0.00205396,0.0551604,20.9865,609.611,-0.614498,0.0,0.0
808,201.75,50.4736,52.6792,126.914,104.344,111.322,0.00206529,0.0551197,20.9865,609.591,-0.585518,0.0,0.0
810,202.25,50.4701,53.134,126.118,104.355,111.556,0.00207382,0.055065,20.9865,609.601,-0.603581,0.0,0.0
812,202.75,50.346,52.6024,127.096,104.341,111.714,0.00208015,0.0550013,20.9866,609.591,-0.61762,0.0,0.0
814,203.25,50.3074,53.173,126.552,104.361,111.265,0.00208651,0.0549497,20.9866,609.551,-0.579434,0.0,0.0
816,203.75,50.4477,52.9898,124.324,104.344,110.37,0.00209165,0.0548942,20.9866,609.541,-0.507828,0.0,0.0
818,204.25,51.2495,53.0957,124.593,104.36,111.887,0.00209704,0.0548493,20.9866,609.551,-0.630027,0.0,0.0
820,204.75,51.0206,53.1354,127.982,104.348,112.183,0.00210141,0.0547841,20.9866,609.551,-0.654858,0.0,0.0
822,205.25,50.5878,52.9872,125.968,104.365,110.308,0.00210739,0.0547053,20.9866,609.541,-0.500957,0.0,0.0
824,205.75,50.1406,52.778,123.039,104.355,111.344,0.00211224,0.0546559,20.9866,609.541,-0.586344,0.0,0.0
826,206.25,50.723,53.3892,124.524,104.381,111.776,0.00211616,0.0546288,20.9866,609.531,-0.619154,0.0,0.0
828,206.75,50.9109,53.2091,127.174,104.363,112.003,0.00213402,0.0545997,20.9866,609.541,-0.639105,0.0,0.0
830,207.25,50.3473,53.328,124.021,104.381,112.135,0.00214849,0.0545697,20.9866,609.521,-0.648169,0.0,0.0
832,207.75,50.5169,52.8499,124.946,104.386,111.47,0.00216999,0.0545381,20.9866,609.501,-0.593918,0.0,0.0
834,208.25,50.4359,53.1297,123.632,104.39,111.307,0.00218741,0.0545061,20.9866,609.511,-0.580276,0.0,0.0
836,208.75,50.4595,53.331,124.622,104.381,111.568,0.00220281,0.0544513,20.9866,609.511,-0.602291,0.0,0.0
838,209.25,50.8293,53.1977,125.165,104.398,111.073,0.00221645,0.054381,20.9866,609.501,-0.560597,0.0,0.0
840,209.75,50.8182,52.9861,126.966,104.393,111.71,0.00222491,0.0543241,20.9866,609.501,-0.61274,0.0,0.0
842,210.25,50.45,53.0172,125.934,104.404,111.859,0.00222945,0.0542707,20.9866,609.531,-0.623885,0.0,0.0
844,210.75,50.1795,53.0692,123.652,104.403,111.706,0.00222669,0.0542211,20.9866,609.471,-0.611596,0.0,0.0
846,211.25,50.6088,52.7491,126.132,104.44,111.963,0.00221865,0.0541808,20.9866,609.491,-0.629168,0.0,0.0
848,211.75,50.5772,53.0598,123.88,104.415,112.07,0.00221214,0.0541482,20.9866,609.521,-0.639941,0.0,0.0
850,212.25,50.1742,53.0034,125.832,104.43,110.451,0.00220687,0.0541146,20.9866,609.511,-0.506995,0.0,0.0
852,212.75,50.1842,52.7184,126.984,104.425,110.85,0.00219874,0.0540809,20.9869,609.511,-0.54014,0.0,0.0
854,213.25,50.817,53.1944,127.194,104.438,111.311,0.00218868,0.0540536,20.9872,609.521,-0.576518,0.0,0.0
856,213.75,50.4686,52.8319,127.144,104.445,110.747,0.00218052,0.0539904,20.9876,609.511,-0.529941,0.0,0.0
858,214.25,50.4678,53.0074,124.862,104.466,110.459,0.00217637,0.0539393,20.9878,609.511,-0.504573,0.0,0.0
860,214.75,50.4845,53.5516,126.315,104.471,110.442,0.002173,0.0538978,20.988,609.491,-0.502795,0.0,0.0
862,215.25,50.5909,53.139,125.885,104.476,110.925,0.00217761,0.0539003,20.988,609.491,-0.541792,0.0,0.0
864,215.75,50.6743,52.9096,127.018,104.48,111.499,0.00218135,0.0539347,20.9877,609.471,-0.588172,0.0,0.0
866,216.25,50.5819,53.4663,129.254,104.496,112.235,0.00219417,0.0539625,20.9875,609.471,-0.646324,0.0,0.0
868,216.75,51.0209,52.9266,125.233,104.495,111.942,0.00220455,0.0540672,20.9873,609.461,-0.622717,0.0,0.0
870,217.25,50.6242,52.87,126.302,104.508,110.53,0.00221811,0.054152,20.9872,609.451,-0.506782,0.0,0.0
872,217.75,51,53.3016,121.997,104.516,111.196,0.00223373,0.0542755,20.9871,609.461,-0.560394,0.0,0.0
874,218.25,50.6303,52.7531,122.326,104.54,111.921,0.00224961,0.0543755,20.987,609.461,-0.617147,0.0,0.0
876,218.75,50.7644,53.1997,127.43,104.539,111.216,0.00226536,0.0544565,20.9869,609.44,-0.560047,0.0,0.0
878,219.25,50.7271,52.746,122.073,104.554,111.913,0.0022704,0.0545221,20.9869,609.44,-0.615189,0.0,0.0
880,219.75,50.4961,53.372,123.319,104.564,111.55,0.00226752,0.0545478,20.9868,609.451,-0.58501,0.0,0.0
882,220.25,50.4309,53.1008,125.036,104.572,110.909,0.00226519,0.0545687,20.9868,609.451,-0.532196,0.0,0.0
884,220.75,51.1472,53.3018,125.305,104.577,112.012,0.00224463,0.0545928,20.9868,609.431,-0.621229,0.0,0.0
886,221.25,50.5641,52.7935,127.866,104.601,111.877,0.00221117,0.0546188,20.9867,609.421,-0.608269,0.0,0.0
888,221.75,50.9624,53.0001,125.631,104.603,110.559,0.00217442,0.0546327,20.9867,609.431,-0.500882,0.0,0.0
890,222.25,51.0552,53.1966,126.849,104.624,111.128,0.00213597,0.0546374,20.9867,609.431,-0.545501,0.0,0.0
892,222.75,50.6278,53.3299,127.811,104.619,111.14,0.00210482,0.0546413,20.9867,609.431,-0.546961,0.0,0.0
894,223.25,50.7368,52.8313,125.093,104.641,111.61,0.00207348,0.054617,20.9867,609.411,-0.583194,0.0,0.0
896,223.75,50.8396,52.8317,124.062,104.647,112.689,0.0020481,0.0545974,20.9867,609.411,-0.669724,0.0,0.0
898,224.25,50.8122,52.9182,124.873,104.658,112.259,0.00202754,0.0545382,20.9867,609.401,-0.634126,0.0,0.0
900,224.75,50.4836,52.884,126.392,104.666,112.167,0.00201088,0.0544514,20.9867,609.401,-0.626146,0.0,0.0
902,225.25,50.907,52.647,128.598,104.676,111.35,0.00199495,0.0544099,20.9866,609.401,-0.559109,0.0,0.0
904,225.75,50.8645,53.3972,124.229,104.69,112.251,0.00198204,0.0544022,20.9866,609.391,-0.630786,0.0,0.0
906,226.25,50.5071,53.1487,126.566,104.688,112.701,0.00196181,0.054396,20.9866,609.38,-0.667152,0.0,0.0
908,226.75,50.7553,53.0691,121.424,104.704,112.811,0.00194543,0.054432,20.9866,609.36,-0.674546,0.0,0.0
910,227.25,51.0448,53.244,127.383,104.719,112.596,0.00193216,0.0544612,20.9866,609.35,-0.656035,0.0,0.0
912,227.75,50.8476,52.896,124.743,104.723,111.599,0.00191164,0.0544438,20.9866,609.36,-0.575202,0.0,0.0
914,228.25,50.3929,53.1519,125.435,104.739,111.93,0.00189502,0.0544296,20.9866,609.34,-0.600653,0.0,0.0
916,228.75,51.1367,53.2646,125.888,104.726,111.597,0.00188766,0.0543771,20.9866,609.35,-0.57487,0.0,0.0
918,229.25,50.8261,52.9827,123.083,104.757,113.126,0.00188171,0.0543346,20.9866,609.36,-0.695232,0.0,0.0
920,229.75,51.2912,53.324,128.804,104.763,112.212,,0.0543362,,609.36,-0.621354,0.0,0.0
922,230.25,50.8691,53.1205,126.387,104.77,111.312,,0.0543699,,609.37,-0.547867,0.0,0.0
924,230.75,50.6198,52.9337,125.68,104.78,111.634,,0.0543972,,609.37,-0.573144,0.0,0.0
926,231.25,50.8185,52.7333,126.399,104.798,112.696,,0.0544467,,609.34,-0.657215,0.0,0.0
928,231.75,50.6668,53.1256,124.137,104.803,111.502,,0.0544868,,609.34,-0.56045,0.0,0.0
930,232.25,50.4621,53.0354,125.837,104.806,112.29,,0.0544919,,609.33,-0.623901,0.0,0.0
932,232.75,50.751,52.7013,123.765,104.834,111.609,,,,609.3,-0.566474,0.0,0.0
934,233.25,50.1409,52.5595,124.767,104.852,111.478,,,,609.3,-0.554253,0.0,0.0
936,233.75,50.9082,52.9075,124.042,104.856,111.884,,,,609.3,-0.586821,0.0,0.0
938,234.25,51.2016,53.0673,126.264,104.879,112.753,,,,609.31,-0.654811,0.0,0.0
940,234.75,50.67,52.6477,126.75,104.879,111.095,,,,609.3,-0.520839,0.0,0.0
942,235.25,50.7162,52.7381,128.041,104.873,111.619,,,,609.3,-0.563876,0.0,0.0
944,235.75,50.7108,52.5473,125.19,104.903,111.68,,,,609.31,-0.56623,0.0,0.0
946,236.25,50.3575,52.1825,125.482,104.904,112.18,,,,609.28,-0.606546,0.0,0.0
948,236.75,50.7935,53.0122,126.612,104.93,112.235,,,,609.28,-0.608754,0.0,0.0
950,237.25,50.354,53.1055,126.448,104.933,110.655,,,,609.26,-0.480228,0.0,0.0
952,237.75,50.9229,52.7574,124.069,104.958,112.018,,,,609.26,-0.588842,0.0,0.0
954,238.25,50.3913,53.0079,121.416,104.955,111.861,,,,609.24,-0.576413,0.0,0.0
956,238.75,50.8122,52.8487,125.88,105.001,112.6,,,,609.23,-0.632054,0.0,0.0
958,239.25,50.8559,53.4957,124.341,104.988,112.51,,,,609.23,-0.625922,0.0,0.0
960,239.75,50.5594,52.7935,126.601,105.007,112.706,,,,609.23,-0.639962,0.0,0.0
962,240.25,50.8746,53.0741,121.618,105.017,112.335,,,,609.23,-0.609356,0.0,0.0