File: 01_Data/Polyester_Microfiber_Sheet/Cone/Polyester_Microfiber_Sheet_Cone_HF50Scan_220512_R2.csv
Names,Time,Stack TC,Smoke TC,Exh Press,Smoke Comp,Smoke Meas,CO Meter,CO2 Meter,O2 Meter,Sample Mass,Ext Coeff,Start Test,Flame Verif
Chan Gain,,500,500,1,1,1,1,1,1,1,1,1.0,1.0
Offset,,0,0,0.135828,0,0,0,0,0,0,0,0.0,0.0
Gain,,1,1,25.011,13.8491,15.2622,1,1,1,1.00087,1.03118,1.0,1.0
Units,sec,C,C,Pa,%,%,%,%,%,g,/m,,
Baseline,,36.99,38.1895,132.3,105.325,108.459,0.000360682,0.0470996,20.9951,-446.641,-0.265196,,
3,0.5,39.3417,40.8423,134.889,103.723,107.123,0.000299758,0.0526581,20.9911,611.873,-0.291794,0.0,0.0
6,1.25,38.0397,40.1576,130.736,103.708,106.734,0.000326024,0.0528576,20.9913,611.662,-0.260107,0.0,0.0
9,2,38.2948,39.9316,129.974,103.725,106.651,0.000327887,0.0529539,20.9914,611.803,-0.251604,0.0,0.0
12,2.75,38.1453,39.8724,130.84,103.724,105.993,0.000326695,0.0529419,20.9912,611.612,-0.195727,0.0,0.0
15,3.5,38.154,39.9483,133.177,103.727,106.787,0.000321465,0.0528406,20.9911,611.662,-0.262985,0.0,0.0
18,4.25,38.3063,39.3553,133.617,103.725,106.685,0.000315924,0.0526683,20.991,611.713,-0.254525,0.0,0.0
21,5,38.293,39.7209,131.709,103.727,106.305,0.000316731,0.0524779,20.991,611.672,-0.222022,0.0,0.0
24,5.75,37.9161,39.69,129.552,103.725,106.067,0.000319384,0.0522283,20.9914,611.723,-0.202007,0.0,0.0
27,6.5,37.9755,39.1107,131.506,103.718,106.864,0.000343133,0.0518318,20.9918,611.723,-0.270304,0.0,0.0
30,7.25,38.6113,40.2144,132.457,103.712,106.375,0.000372937,0.0514924,20.9922,611.693,-0.229294,0.0,0.0
33,8,38.6241,39.8083,129.663,103.727,106.33,0.000400119,0.0511589,20.9924,611.723,-0.224199,0.0,0.0
36,8.75,38.6032,39.8625,130.28,103.736,106.445,0.000399329,0.0507599,20.9928,611.723,-0.233169,0.0,0.0
39,9.5,38.4002,39.9887,136.103,103.734,106.501,0.000380404,0.0504689,20.9935,611.693,-0.238065,0.0,0.0
42,10.25,37.9017,39.614,130.649,103.734,106.544,0.000335768,0.0501009,20.994,611.672,-0.241743,0.0,0.0
45,11,38.0301,39.4297,135.271,103.737,106.267,0.000311,0.0497895,20.9944,611.632,-0.21796,0.0,0.0
48,11.75,38.3434,39.7157,129.655,103.748,107.272,0.00027512,0.0494888,20.9947,611.642,-0.302119,0.0,0.0
51,12.5,38.1959,39.6131,135.363,103.752,107.097,0.000245867,0.0492832,20.9949,611.642,-0.287048,0.0,0.0
54,13.25,38.0147,39.9193,130.157,103.739,106.324,0.000225752,0.0491247,20.995,611.632,-0.222653,0.0,0.0
57,14,38.6671,39.4711,130.677,103.761,106.688,0.000216065,0.0489559,20.9951,611.652,-0.251555,0.0,0.0
60,14.75,38.5722,40.1934,134.572,103.776,106.39,0.000216462,0.0487836,20.9952,611.642,-0.224957,0.0,0.0
63,15.5,38.5027,39.5519,135.216,103.769,106.225,0.000234193,0.048699,20.9952,611.642,-0.211554,0.0,0.0
66,16.25,38.1602,39.2152,129.766,103.769,107.825,0.000265293,0.0486548,20.9953,611.672,-0.346892,0.0,0.0
69,17,38.382,39.9147,133.305,103.778,106.752,0.00030273,0.04872,20.9953,611.672,-0.255603,0.0,0.0
72,17.75,38.5407,39.9473,130.401,103.804,106.287,0.000342022,0.0487821,20.9947,611.693,-0.213847,0.0,0.0
75,18.5,38.8372,39.805,130.667,103.807,106.989,0.000365816,0.0488907,20.9943,611.682,-0.273091,0.0,0.0
78,19.25,38.7784,39.8107,135.393,103.8,106.07,0.000381095,0.0491258,20.994,611.662,-0.195765,0.0,0.0
81,20,38.6989,39.8516,131.57,103.812,106.313,0.000386492,0.0493245,20.9937,611.662,-0.21529,0.0,0.0
84,20.75,38.8613,39.7192,130.998,103.828,106.572,0.00038061,0.0494954,20.9936,611.662,-0.235934,0.0,0.0
87,21.5,38.1913,40.1452,131.156,103.846,106.704,0.000381508,0.0496446,20.9934,611.642,-0.245574,0.0,0.0
90,22.25,38.6523,40.1745,133.437,103.832,107.116,0.000390646,0.0497318,20.9933,611.632,-0.281626,0.0,0.0
93,23,38.3997,40.224,131.45,103.84,106.345,0.000400925,0.0497585,20.9933,611.622,-0.21567,0.0,0.0
96,23.75,38.3687,39.9214,131,103.87,106.746,0.000413523,0.0497232,20.9932,611.612,-0.247063,0.0,0.0
99,24.5,38.7444,39.4266,130.909,103.88,106,0.000431437,0.0496455,20.9932,611.632,-0.182729,0.0,0.0
102,25.25,38.97,40.6164,128.852,103.882,106.22,0.000438434,0.0495396,20.9932,611.632,-0.201289,0.0,0.0
105,26,38.1014,39.5988,131.067,103.895,107.332,0.000437759,0.0493261,20.9938,611.622,-0.294334,0.0,0.0
108,26.75,38.8552,40.0347,133.33,103.923,106.716,0.000431812,0.0491704,20.9942,611.642,-0.239937,0.0,0.0
111,27.5,39.0686,40.1759,134.444,103.947,105.96,0.000432326,0.0489476,20.9945,611.622,-0.173538,0.0,0.0
114,28.25,38.6741,40.0642,133.535,103.954,106.307,0.000434768,0.0487099,20.9948,611.642,-0.202446,0.0,0.0
117,29,38.5288,40.518,134.402,103.961,105.972,0.000440007,0.0484874,20.9949,611.662,-0.173284,0.0,0.0
120,29.75,38.5301,39.8947,129.317,103.99,106.454,0.000435532,0.0482706,20.9951,611.632,-0.211799,0.0,0.0
123,30.5,38.8829,40.1466,133.608,104.024,106.662,0.000418088,0.0480893,20.9952,611.642,-0.226609,0.0,0.0
126,31.25,38.579,39.4914,129.087,104.031,106.659,0.000393274,0.0479571,20.9952,611.652,-0.225707,0.0,0.0
129,32,38.9179,40.1514,134.029,104.05,106.118,0.000372761,0.047832,20.9953,611.632,-0.178077,0.0,0.0
132,32.75,38.6195,39.9001,132.251,104.056,106.791,0.000359325,0.0476916,20.9953,611.622,-0.234677,0.0,0.0
135,33.5,38.8113,40.1771,132.807,104.081,106.677,0.000353892,0.0475893,20.9953,611.642,-0.222912,0.0,0.0
138,34.25,38.7097,40.098,133.233,104.108,106.013,0.000355671,0.0475557,20.9954,611.632,-0.163991,0.0,0.0
141,35,38.7336,40.0529,132.749,104.117,106.5,0.000366785,0.0475486,20.9954,611.632,-0.204734,0.0,0.0
144,35.75,38.9441,40.4239,129.701,104.141,105.708,0.000378522,0.0475435,20.9954,611.612,-0.135059,0.0,0.0
147,36.5,38.8339,40.3559,132.395,104.163,106.063,0.000395009,0.0475325,20.9954,611.632,-0.16351,0.0,0.0
150,37.25,39.0483,39.7981,128.522,104.183,106.238,0.00041794,0.0475123,20.9954,611.622,-0.176632,0.0,0.0
153,38,39.0723,40.0234,129.375,104.203,105.729,0.000493491,0.0476556,20.9945,611.612,-0.131535,0.0,0.0
156,38.75,38.8228,40.3235,132.662,104.215,105.553,0.00063364,0.0480306,20.9935,611.602,-0.115396,0.0,0.0
159,39.5,38.7751,40.2309,132.856,104.253,104.889,0.000772077,0.0503527,20.9896,611.602,-0.0550741,0.0,0.0
162,40.25,38.9324,40.5729,131.821,104.272,106.196,0.00109635,0.054626,20.9838,611.612,-0.165363,0.0,1.0
165,41,38.7383,40.1806,126.205,104.282,104.428,0.00142795,0.0661037,20.9745,611.612,-0.0126547,0.0,1.0
168,41.75,38.8508,40.3353,127.172,104.304,102.046,0.0020759,0.0812253,20.9571,611.522,0.198002,0.0,1.0
171,42.5,39.1733,40.4846,124.584,104.349,99.0109,0.00293558,0.0992516,20.9314,611.592,0.474951,0.0,1.0
174,43.25,39.4276,40.0899,121.937,104.361,93.9825,0.00392848,0.124367,20.8981,611.482,0.947476,0.0,1.0
177,44,39.8278,40.46,121.862,104.378,94.3071,0.00547565,0.161344,20.8536,611.322,0.917787,0.0,1.0
180,44.75,39.9644,40.2106,122.816,104.413,90.8153,0.00738448,0.196258,20.7974,611.262,1.26207,0.0,1.0
183,45.5,39.314,39.401,117.472,104.431,87.5936,0.00965354,0.25425,20.7303,611.152,1.5904,0.0,1.0
186,46.25,40.0453,40.5565,117.695,104.463,87.3672,0.0122389,0.320892,20.6641,610.972,1.61651,0.0,0.0
189,47,40.8164,39.9876,112.349,104.474,78.9741,0.0150609,0.397973,20.5863,610.842,2.53109,0.0,0.0
192,47.75,41.8012,40.8112,110.638,104.48,74.3645,0.0187207,0.485136,20.471,610.642,3.07558,0.0,0.0
195,48.5,42.5942,41.2515,101.879,104.524,65.1922,0.0219315,0.584194,20.387,610.371,4.27016,0.0,0.0
198,49.25,44.6215,42.5152,105.431,104.538,62.7623,0.0252003,0.671549,20.2682,610.151,4.615,0.0,0.0
201,50,46.6632,43.8905,107.047,104.573,61.4502,0.0277494,0.760151,20.1816,609.931,4.80914,0.0,0.0
204,50.75,48.3166,45.3001,107.579,104.586,64.7338,0.0296786,0.835366,20.1184,609.721,4.33939,0.0,0.0
207,51.5,49.8874,46.1956,107.881,104.609,74.7552,0.0305554,0.880208,20.0724,609.571,3.03936,0.0,0.0
210,52.25,51.6513,47.9376,107.88,104.641,79.8097,0.0306811,0.896412,20.0467,609.431,2.45033,0.0,0.0
213,53,52.0739,48.6462,110.703,104.663,80.5913,0.0302418,0.901197,20.0414,609.33,2.36408,0.0,0.0
216,53.75,53.638,50.0965,118.024,104.669,78.9052,0.0290544,0.882893,20.0682,609.18,2.55584,0.0,0.0
219,54.5,54.0851,50.8998,117.872,104.69,83.2825,0.0276185,0.852545,20.1153,609.11,2.06926,0.0,0.0
222,55.25,55.2339,51.4176,114.005,104.722,81.6299,0.0261344,0.817229,20.1496,609.01,2.25333,0.0,0.0
225,56,55.5942,52.4689,115.897,104.739,84.8987,0.0243046,0.77195,20.1965,608.89,1.89968,0.0,0.0
228,56.75,56.046,52.8283,118.267,104.76,87.0496,0.022206,0.725986,20.2452,608.83,1.67515,0.0,0.0
231,57.5,56.0823,53.2251,116.026,104.772,88.6388,0.0203935,0.686954,20.2868,608.74,1.51253,0.0,0.0
234,58.25,55.5737,53.7685,126.433,104.788,91.3104,0.0183846,0.637509,20.3372,608.7,1.2453,0.0,0.0
237,59,55.9897,53.7003,121.479,104.81,92.7407,0.0165711,0.595162,20.3906,608.62,1.1066,0.0,0.0
240,59.75,56.1669,54.1521,123.394,104.827,96.023,0.014912,0.553516,20.442,608.58,0.7935,0.0,0.0
243,60.5,56.3719,54.5451,128.182,104.816,96.4422,0.0135587,0.510333,20.4885,608.54,0.753187,0.0,0.0
246,61.25,56.2774,54.6062,121.821,104.849,98.5637,0.0120272,0.47176,20.5303,608.5,0.559131,0.0,0.0
249,62,56.0442,54.8303,119.102,104.872,100.789,0.0109107,0.437347,20.5642,608.46,0.359174,0.0,0.0
252,62.75,56.0586,54.6107,125.435,104.879,102.548,0.00972452,0.406669,20.5989,608.42,0.203274,0.0,0.0
255,63.5,55.964,54.6391,124.935,104.895,102.881,0.00872995,0.377819,20.6274,608.4,0.175332,0.0,0.0
258,64.25,56.3145,54.7825,121.853,104.902,105.878,0.00790892,0.354024,20.6576,608.37,-0.0837612,0.0,0.0
261,65,56.0168,55.0236,126.724,104.917,106.386,0.00744057,0.327526,20.6778,608.34,-0.125718,0.0,0.0
264,65.75,55.3007,54.7854,126.324,104.926,106.839,0.00685161,0.305973,20.7063,608.34,-0.163444,0.0,0.0
267,66.5,55.1509,54.6282,127.681,104.938,106.63,0.00639493,0.286436,20.731,608.29,-0.144661,0.0,0.0
270,67.25,54.8482,54.8142,128.934,104.937,107.04,0.00604055,0.267895,20.7518,608.3,-0.179476,0.0,0.0
273,68,54.0712,54.5645,126.455,104.956,107.844,0.00576545,0.257167,20.7707,608.28,-0.245518,0.0,0.0
276,68.75,54.5152,54.5315,129.642,104.964,107.195,0.00555968,0.243167,20.7844,608.26,-0.190239,0.0,0.0
279,69.5,54.1328,54.4321,128.227,104.972,108.176,0.00540074,0.229743,20.7959,608.249,-0.271979,0.0,0.0
282,70.25,54.0883,54.392,129.047,104.968,108.4,0.00528487,0.217935,20.8066,608.229,-0.291059,0.0,0.0
285,71,53.1585,54.8494,127.608,104.974,108.176,0.00523581,0.207424,20.8162,608.209,-0.2718,0.0,0.0
288,71.75,53.1216,54.1679,131.541,104.98,108.691,0.00522882,0.197979,20.8253,608.179,-0.314223,0.0,0.0
291,72.5,53.4243,54.1135,127.733,104.993,108.583,0.00527293,0.191094,20.8338,608.159,-0.304172,0.0,0.0
294,73.25,53.283,53.7989,129.774,104.976,108.455,0.00536542,0.182714,20.8432,608.149,-0.294916,0.0,0.0
297,74,52.8852,53.9659,127.926,104.994,108.036,0.00549148,0.176604,20.8513,608.159,-0.258282,0.0,0.0
300,74.75,52.8133,54.223,128.171,104.965,107.975,0.00562451,0.170427,20.8583,608.129,-0.2558,0.0,0.0
303,75.5,52.6612,53.748,124.987,104.943,108.394,0.00573904,0.165121,20.8642,608.099,-0.292704,0.0,0.0
306,76.25,52.3327,53.5695,129.016,104.978,109.601,0.00590996,0.160519,20.8687,608.079,-0.389869,0.0,0.0
309,77,51.9574,53.4629,127.715,104.982,109.463,0.00611466,0.156157,20.8723,608.089,-0.378079,0.0,0.0
312,77.75,51.8552,53.5521,130.553,104.98,109.283,0.00633711,0.152398,20.8769,608.079,-0.36332,0.0,0.0
315,78.5,51.5334,53.1504,127.417,104.963,109.274,0.00657797,0.14896,20.8802,608.089,-0.364042,0.0,0.0
318,79.25,51.6119,53.0999,133.943,104.966,108.288,0.00680128,0.146156,20.8829,608.089,-0.28187,0.0,0.0
321,80,50.8717,52.6945,128.172,104.966,108.766,0.00700757,0.143401,20.8852,608.089,-0.321663,0.0,0.0
324,80.75,50.8309,52.6033,128.443,104.974,108.191,0.00719755,0.141095,20.8875,608.059,-0.273009,0.0,0.0
327,81.5,50.1712,52.7143,129.041,104.98,108.339,0.00735526,0.139286,20.8892,608.019,-0.284908,0.0,0.0
330,82.25,50.1138,52.5936,128.204,104.953,108.331,0.00750307,0.137543,20.8911,607.989,-0.286542,0.0,0.0
333,83,50.6419,52.217,126.789,104.967,108.833,0.00763536,0.136059,20.8924,607.999,-0.327206,0.0,0.0
336,83.75,49.6292,52.5028,129.342,104.968,109.534,0.00777375,0.134789,20.8934,608.009,-0.385206,0.0,0.0
339,84.5,50.2241,52.2674,132.35,104.956,108.234,0.00791061,0.133698,20.8946,607.979,-0.278232,0.0,0.0
342,85.25,49.5527,52.2087,129.933,104.96,108.633,0.00803814,0.132663,20.8956,607.979,-0.311164,0.0,0.0
345,86,49.9708,51.6387,130.058,104.958,108.937,0.00815557,0.131501,20.8964,607.939,-0.336635,0.0,0.0
348,86.75,49.4668,51.8211,127.149,104.967,108.846,0.00826277,0.130258,20.8982,607.869,-0.328251,0.0,0.0
351,87.5,49.4692,52.4587,128.127,104.969,108.976,0.00837336,0.129183,20.8999,607.839,-0.338937,0.0,0.0
354,88.25,49.4202,51.4561,128.136,104.961,108.561,0.00847294,0.127854,20.9016,607.879,-0.305041,0.0,0.0
357,89,49.0933,51.495,131.245,104.959,107.904,0.00855362,0.126161,20.9032,607.889,-0.250262,0.0,0.0
360,89.75,49.0676,51.3178,128.853,104.966,108.334,0.00862686,0.124574,20.9049,607.879,-0.285648,0.0,0.0
363,90.5,48.6433,51.2565,131.496,104.964,108.119,0.00867959,0.123126,20.9062,607.859,-0.267885,0.0,0.0
366,91.25,46.6893,51.103,127.33,104.944,108.433,0.00871689,0.121829,20.9072,607.839,-0.295858,0.0,0.0
369,92,48.3492,51.1074,131.51,104.959,108.204,0.00872965,0.120504,20.908,607.849,-0.275408,0.0,0.0
372,92.75,48.6155,50.9141,130.847,104.969,107.099,0.00873895,0.119375,20.9098,607.849,-0.181742,0.0,0.0
375,93.5,48.33,50.6633,130.85,104.964,107.811,0.00873183,0.118132,20.911,607.839,-0.242049,0.0,0.0
378,94.25,48.0018,49.7887,130.649,104.95,108.229,0.00871605,0.117028,20.9118,607.839,-0.278277,0.0,0.0
381,95,48.414,51.1363,128.02,104.954,108.526,0.00869659,0.11614,20.913,607.819,-0.302674,0.0,0.0
384,95.75,47.692,50.893,126.892,104.961,109.586,0.00866078,0.115292,20.9139,607.799,-0.390021,0.0,0.0
387,96.5,48.3118,50.4685,128.047,104.966,108.985,0.00863467,0.114333,20.9145,607.819,-0.339854,0.0,0.0
390,97.25,48.1718,50.6911,127.211,104.953,109.198,0.00856161,0.11327,20.9158,607.839,-0.358668,0.0,0.0
393,98,47.6315,50.2335,129.921,104.952,108.384,0.0084806,0.112176,20.9174,607.829,-0.291049,0.0,0.0
396,98.75,47.5189,49.8864,127.879,104.955,108.913,0.00839512,0.111101,20.919,607.829,-0.33484,0.0,0.0
399,99.5,47.4208,50.5096,129.904,104.976,109.238,0.00833393,0.109967,20.9198,607.759,-0.359982,0.0,0.0
402,100.25,47.2528,49.744,130.88,104.952,109.273,0.00820828,0.108992,20.9218,607.729,-0.364875,0.0,0.0
405,101,47.0826,49.5312,129.978,104.95,109.901,0.0081521,0.107761,20.9229,607.719,-0.416958,0.0,0.0
408,101.75,47.2473,50.002,130.366,104.958,109.18,0.00808038,0.106543,20.9249,607.699,-0.35669,0.0,0.0
411,102.5,47.0985,49.5603,131.876,104.97,109.265,0.00803187,0.105684,20.9263,607.699,-0.362728,0.0,0.0
414,103.25,46.4753,49.413,130.83,104.944,108.437,0.00799812,0.104198,20.9273,607.689,-0.29613,0.0,0.0
417,104,46.7701,49.7668,129.828,104.936,108.951,0.00798485,0.103547,20.9281,607.669,-0.339654,0.0,0.0
420,104.75,46.4939,49.7873,127.976,104.942,109.09,0.00798,0.102739,20.9286,607.689,-0.35062,0.0,0.0
423,105.5,46.3384,49.6035,126.745,104.932,109.025,0.00797647,0.102127,20.929,607.629,-0.346126,0.0,0.0
426,106.25,46.2335,49.3874,129.497,104.937,108.301,0.00794876,0.101415,20.9297,607.619,-0.285398,0.0,0.0
429,107,46.3453,49.3877,129.111,104.917,108.832,0.00789961,0.100783,20.9307,607.629,-0.331352,0.0,0.0
432,107.75,45.8666,48.9411,128.627,104.92,108.7,0.00783886,0.0999845,20.9318,607.659,-0.320169,0.0,0.0
435,108.5,46.0486,49.3962,127.16,104.927,108.88,0.00777307,0.099292,20.9326,607.699,-0.334536,0.0,0.0
438,109.25,45.9023,48.7571,131.718,104.923,108.58,0.00769285,0.098467,20.9336,607.669,-0.309913,0.0,0.0
441,110,45.6988,48.43,128.545,104.904,108.53,0.00761982,0.0976398,20.9345,607.629,-0.307398,0.0,0.0
444,110.75,45.5948,48.1614,124.374,104.905,108.548,0.00756506,0.0966992,20.9354,607.619,-0.308803,0.0,0.0
447,111.5,45.6296,48.7807,130.606,104.906,108.941,0.00746687,0.0958889,20.9367,607.609,-0.341426,0.0,0.0
450,112.25,45.759,48.789,130.648,104.897,108.171,0.00742862,0.0950853,20.9372,607.559,-0.278002,0.0,0.0
453,113,45.2204,48.6359,131.774,104.88,108.643,0.0073701,0.094182,20.9382,607.549,-0.318829,0.0,0.0
456,113.75,45.794,48.7352,128.959,104.877,108.132,0.00731615,0.0937204,20.9391,607.559,-0.276518,0.0,0.0
459,114.5,45.2468,48.6978,129.059,104.879,108.792,0.00727201,0.0927667,20.9398,607.539,-0.331302,0.0,0.0
462,115.25,45.5168,48.3767,134.479,104.86,108.324,0.0072291,0.0921014,20.9403,607.539,-0.29405,0.0,0.0
465,116,45.202,48.5258,136.64,104.838,107.977,0.00719781,0.0911282,20.9413,607.519,-0.266889,0.0,0.0
468,116.75,45.0262,47.9926,131.989,104.835,108.756,0.00720006,0.0900688,20.9423,607.509,-0.332072,0.0,0.0
471,117.5,44.9502,48.0243,131.499,104.829,108.961,0.00720169,0.0889775,20.9432,607.519,-0.349762,0.0,0.0
474,118.25,44.2643,48.2571,130.566,104.809,107.833,0.00721721,0.0880459,20.9445,607.509,-0.257341,0.0,0.0
477,119,44.7512,48.395,127.698,104.782,107.539,0.00721598,0.0869787,20.9458,607.499,-0.234988,0.0,0.0
480,119.75,44.7989,48.1132,134.423,104.756,107.87,0.00720717,0.0860353,20.947,607.509,-0.264951,0.0,0.0
483,120.5,44.4014,48.1684,126.208,104.742,108.01,0.0071872,0.0850511,20.9479,607.519,-0.277864,0.0,0.0
486,121.25,44.6655,47.4779,130.127,104.729,108.01,0.0071619,0.0842099,20.9489,607.499,-0.279108,0.0,0.0
489,122,43.7813,47.9676,132.113,104.695,108.102,0.00714346,0.0833848,20.9499,607.489,-0.289634,0.0,0.0
492,122.75,44.6774,47.7392,129.187,104.657,107.455,0.00712606,0.0823886,20.9506,607.479,-0.238588,0.0,0.0
495,123.5,44.6936,47.4472,130.666,104.657,108.575,0.0071066,0.0814688,20.9517,607.489,-0.332434,0.0,0.0
498,124.25,44.476,47.957,128.897,104.639,107.37,0.00707461,0.080643,20.9526,607.469,-0.233021,0.0,0.0
501,125,44.1987,47.3356,131.543,104.606,106.937,0.00702083,0.0799165,20.9532,607.459,-0.199344,0.0,0.0
504,125.75,44.7043,47.4607,129.835,104.572,108.408,0.00694406,0.0792096,20.9539,607.429,-0.325835,0.0,0.0
507,126.5,44.061,47.3995,131.697,104.529,108.316,0.00686352,0.0786942,20.9547,607.449,-0.321869,0.0,0.0
510,127.25,44.199,47.0028,130.493,104.507,108.007,0.00679017,0.0779048,20.9554,607.449,-0.297947,0.0,0.0
513,128,44.0424,47.1357,128.896,104.457,108.186,0.00672544,0.077184,20.9561,607.419,-0.317265,0.0,0.0
516,128.75,44.1171,47.3446,131.528,104.412,107.761,0.00666358,0.0764101,20.957,607.409,-0.285635,0.0,0.0
519,129.5,44.061,47.1857,131.275,104.393,107.466,0.00660161,0.0756665,20.9583,607.439,-0.262464,0.0,0.0
522,130.25,43.5667,47.1367,129.412,104.375,107.721,0.00651722,0.0749174,20.9597,607.429,-0.285458,0.0,0.0
525,131,43.9298,46.8072,131.211,104.339,107.202,0.00642943,0.0741479,20.9608,607.399,-0.24486,0.0,0.0
528,131.75,43.5792,46.9617,125.685,104.298,108.191,0.00632048,0.0732724,20.9623,607.439,-0.331503,0.0,0.0
531,132.5,43.889,46.6279,128.925,104.251,107.112,0.00618594,0.0724413,20.9634,607.429,-0.244897,0.0,0.0
534,133.25,43.319,47.0044,129.463,104.27,108.059,0.0060695,0.0717531,20.9642,607.429,-0.322933,0.0,0.0
537,134,43.649,46.3768,132.56,104.182,107.713,0.00595322,0.0709962,20.9648,607.379,-0.301472,0.0,0.0
540,134.75,42.9349,46.2339,128.485,104.146,106.335,0.0058507,0.0702103,20.9652,607.349,-0.188222,0.0,0.0
543,135.5,43.4439,46.3014,132.373,104.087,106.867,0.005774,0.0695377,20.9658,607.379,-0.238497,0.0,0.0
546,136.25,43.2416,46.4015,131.813,104.064,106.725,0.00571473,0.0687138,20.9665,607.359,-0.228448,0.0,0.0
549,137,42.9156,46.164,128.627,104.027,107.039,0.00566087,0.0678794,20.9676,607.359,-0.258137,0.0,0.0
552,137.75,42.907,46.102,131.758,103.99,106.361,0.0056216,0.0670701,20.9685,607.349,-0.20392,0.0,0.0
555,138.5,43.4866,46.5756,124.291,103.955,106.803,0.00554863,0.0663071,20.9692,607.349,-0.244448,0.0,0.0
558,139.25,43.0252,45.6333,129.804,103.925,106.846,0.00549543,0.0655721,20.9696,607.339,-0.250688,0.0,0.0
561,140,41.1606,45.0009,132.441,103.905,106.39,0.00538931,0.0649602,20.9707,607.359,-0.213765,0.0,0.0
564,140.75,41.1617,44.1321,133.123,103.853,106.677,0.00528216,0.0642204,20.9717,607.369,-0.242732,0.0,0.0
567,141.5,40.8069,44.2299,131.448,103.819,106.597,0.00517829,0.063681,20.9725,607.379,-0.238843,0.0,0.0
570,142.25,41.2979,44.3646,131.045,103.804,106.696,0.00508024,0.0630407,20.9731,607.379,-0.248583,0.0,0.0
573,143,41.4347,44.1135,130.176,103.792,107.234,0.00496987,0.0624686,20.9739,607.389,-0.295106,0.0,0.0
576,143.75,40.7038,43.8374,132.904,103.767,106.402,0.00486791,0.0619341,20.9747,607.359,-0.226834,0.0,0.0
579,144.5,41.5123,43.6414,127.869,103.729,106.366,0.00479001,0.0613291,20.9756,607.349,-0.227067,0.0,0.0
582,145.25,40.4175,43.7312,132.76,103.719,105.959,0.00470001,0.0608376,20.9766,607.329,-0.193227,0.0,0.0
585,146,40.748,43.4756,130.004,103.712,105.945,0.00459029,0.0603929,20.9773,607.329,-0.192623,0.0,0.0
588,146.75,40.7244,43.7521,130.246,103.693,105.997,0.00450411,0.0599905,20.9778,607.319,-0.198773,0.0,0.0
591,147.5,40.7481,43.4668,132.037,103.673,106.282,0.0044204,0.0597848,20.9782,607.329,-0.224835,0.0,0.0
594,148.25,41.0618,43.7483,129.847,103.675,105.506,0.00438918,0.0593516,20.9785,607.329,-0.15837,0.0,0.0
597,149,40.9835,43.6423,130.832,103.677,106.633,0.00432754,0.059007,20.9787,607.339,-0.254342,0.0,0.0
600,149.75,40.2169,43.3116,131.628,103.662,106.234,0.00429243,0.0587064,20.9788,607.329,-0.221673,0.0,0.0
603,150.5,40.3984,43.4019,132.9,103.655,107.198,0.00422551,0.0584478,20.9795,607.329,-0.303946,0.0,0.0
606,151.25,40.2046,43.2594,132.853,103.652,107.141,0.0041545,0.0583065,20.9801,607.319,-0.299448,0.0,0.0
609,152,40.3279,43.554,130.996,103.665,106.685,0.00409428,0.0579955,20.9805,607.289,-0.259723,0.0,0.0
612,152.75,40.2706,43.2011,132.432,103.664,106.025,0.00403595,0.0578535,20.9807,607.259,-0.203741,0.0,0.0
615,153.5,40.4666,43.1889,132.345,103.661,106.664,0.00399835,0.0576348,20.9809,607.319,-0.258317,0.0,0.0
618,154.25,40.1895,43.294,132.745,103.675,106.51,0.0039789,0.0574519,20.9811,607.319,-0.244054,0.0,0.0
621,155,40.4503,43.2958,132.219,103.711,106.403,0.00397472,0.0571623,20.9818,607.309,-0.23182,0.0,0.0
624,155.75,39.8896,43.1613,128.671,103.733,106.927,0.00397011,0.0569079,20.9822,607.279,-0.274338,0.0,0.0
627,156.5,40.5354,42.9117,135.766,103.742,106.765,0.00396479,0.0566485,20.9826,607.259,-0.259879,0.0,0.0
630,157.25,40.4107,42.9212,132.21,103.774,106.869,0.00393627,0.0564398,20.983,607.269,-0.265836,0.0,0.0
633,158,39.8279,42.9222,132.149,103.803,106.148,0.00388957,0.0562805,20.9832,607.289,-0.202064,0.0,0.0
636,158.75,40.1053,42.8093,131.28,103.836,106.266,0.00384448,0.0561904,20.9834,607.239,-0.209225,0.0,0.0
639,159.5,39.7307,42.6959,127.343,103.869,105.941,0.00373605,0.0560278,20.9839,607.249,-0.178717,0.0,0.0
642,160.25,39.0344,42.3072,132.673,103.888,106.232,0.00361638,0.0558732,20.9845,607.209,-0.201765,0.0,0.0
645,161,39.8555,42.5421,132.205,103.933,106.592,0.00349566,0.0556988,20.985,607.229,-0.228547,0.0,0.0
648,161.75,39.7139,42.5507,130.993,103.968,106.91,0.00337999,0.0555033,20.9853,607.249,-0.252449,0.0,0.0
651,162.5,39.6002,42.7378,129.412,104.001,106.6,0.00329567,0.0552883,20.9855,607.249,-0.223223,0.0,0.0
654,163.25,39.8295,42.7796,128.304,104.051,107.1,0.00322193,0.0550576,20.985,607.239,-0.261235,0.0,0.0
657,164,39.7712,42.4524,131.806,104.086,106.646,0.00316695,0.0548895,20.9843,607.259,-0.219749,0.0,0.0
660,164.75,39.6209,42.3265,132.409,104.162,107.329,0.00312634,0.0547669,20.9838,607.259,-0.270946,0.0,0.0
663,165.5,39.7313,42.3587,132.876,104.181,108.005,0.00309674,0.0546913,20.9835,607.219,-0.326037,0.0,0.0
666,166.25,39.8123,42.5233,128.655,104.212,107.368,0.00306804,0.0546563,20.9832,607.219,-0.269837,0.0,0.0
669,167,39.8303,42.3396,133.165,104.263,107.138,0.00303497,0.0546555,20.983,607.239,-0.24603,0.0,0.0
672,167.75,39.8964,42.2802,129.223,104.317,107.085,0.00298998,0.0545573,20.9831,607.219,-0.236857,0.0,0.0
675,168.5,39.6282,42.2439,130.598,104.363,107.63,0.00294829,0.0544857,20.9836,607.249,-0.278778,0.0,0.0
678,169.25,39.5101,42.3266,132.151,104.389,107.581,0.00289339,0.0542969,20.9839,607.189,-0.272509,0.0,0.0
681,170,39.8412,42.3085,131.432,104.429,107.318,0.00284987,0.0541592,20.9842,607.189,-0.246801,0.0,0.0
684,170.75,39.646,42.6323,130.805,104.485,106.929,0.00281943,0.0540783,20.9843,607.179,-0.209169,0.0,0.0
687,171.5,39.9725,42.6745,125.214,104.524,107.178,0.00279945,0.0540057,20.9845,607.149,-0.226819,0.0,0.0
690,172.25,39.7059,42.2048,132.251,104.546,107.466,0.00278664,0.0539181,20.9846,607.139,-0.249178,0.0,0.0
693,173,39.5177,41.6986,130.632,104.586,107.608,0.00277665,0.053805,20.9846,607.149,-0.257693,0.0,0.0
696,173.75,39.4919,42.0485,126.17,104.642,107.49,0.00276826,0.053664,20.9847,607.139,-0.24288,0.0,0.0
699,174.5,38.9701,41.9895,129.763,104.665,106.355,0.0027604,0.0536159,20.9847,607.149,-0.144845,0.0,0.0
702,175.25,39.3316,42.1995,130.689,104.701,108.106,0.00275467,0.0536042,20.9847,607.128,-0.289438,0.0,0.0
705,176,39.4972,42.3364,132.294,104.73,108.022,0.00275049,0.0535762,20.9848,607.128,-0.280012,0.0,0.0
708,176.75,39.6192,41.6995,132.86,104.76,107.712,0.00275619,0.0535269,20.9848,607.109,-0.251369,0.0,0.0
711,177.5,39.0029,41.8053,129.706,104.797,107.03,0.00276681,0.0534418,20.9848,607.089,-0.190717,0.0,0.0
714,178.25,39.6784,41.9476,131.938,104.821,107.485,0.0027856,0.0533016,20.9854,607.078,-0.226975,0.0,0.0
717,179,39.473,41.9682,131.601,104.847,108.143,0.00279929,0.0531584,20.9859,607.068,-0.279966,0.0,0.0
720,179.75,39.2406,41.4579,129.338,104.88,107.769,0.00280927,0.0530221,20.9862,607.099,-0.245746,0.0,0.0
723,180.5,39.6417,41.4633,133.461,104.911,107.888,0.0027798,0.0528981,20.9865,607.089,-0.253124,0.0,0.0
726,181.25,39.0455,42.256,128.812,104.931,107.279,0.00274344,0.0527941,20.9866,607.058,-0.200228,0.0,0.0
729,182,39.3078,41.9096,131.982,104.948,107.436,0.0026741,0.0527124,20.9867,607.038,-0.211883,0.0,0.0
732,182.75,39.0838,41.6976,127.92,104.979,107.189,0.0025537,0.0526138,20.9868,607.048,-0.188457,0.0,0.0
735,183.5,39.2053,41.4784,129.707,105.005,108.111,0.00240836,0.052542,20.9869,607.058,-0.263651,0.0,0.0
738,184.25,39.4614,41.3522,129.974,105.015,107.637,0.00228955,0.0525052,20.987,607.058,-0.223094,0.0,0.0
741,185,39.43,41.3497,129.055,105.023,107.734,0.00218094,0.0524902,20.987,607.058,-0.230504,0.0,0.0
744,185.75,39.4464,41.5484,129.956,105.043,107.644,0.00210177,0.0524836,20.987,607.048,-0.221279,0.0,0.0
747,186.5,39.5354,41.3917,129.297,105.078,108.132,0.00205102,0.0524666,20.9873,607.048,-0.259144,0.0,0.0
750,187.25,39.1108,41.3449,134.553,105.074,107.976,0.00201402,0.0524736,20.9875,607.068,-0.246449,0.0,0.0
753,188,39.443,41.3415,130.505,105.072,108.145,0.00203412,0.0524788,20.9877,607.058,-0.26082,0.0,0.0
756,188.75,39.3801,41.2485,130.63,105.107,107.832,0.00206956,0.0524278,20.9878,607.048,-0.231505,0.0,0.0
759,189.5,39.9727,41.6624,130.463,105.117,107.998,0.00210426,0.0523673,20.9879,607.048,-0.244608,0.0,0.0
762,190.25,39.2206,41.1886,130.263,105.132,108.606,0.00213828,0.0522959,20.988,607.078,-0.294066,0.0,0.0
765,191,39.4224,41.6323,132.605,105.133,108.169,0.0021533,0.0522322,20.9884,607.078,-0.257569,0.0,0.0
768,191.75,39.3589,41.3592,130.593,105.142,107.752,0.0021454,0.0521662,20.989,607.058,-0.221767,0.0,0.0
771,192.5,39.4632,41.4726,132.032,105.161,109.22,0.00212437,0.0521318,20.9894,607.018,-0.342579,0.0,0.0
774,193.25,39.1218,40.9577,130.127,105.182,108.629,0.00209364,0.0521269,20.9897,606.998,-0.291712,0.0,0.0
777,194,39.7617,41.41,130.184,105.174,108.387,0.00206802,0.052148,20.9899,606.978,-0.272215,0.0,0.0
780,194.75,38.9986,41.4202,132.405,105.192,108.847,0.00204384,0.0521634,20.99,606.978,-0.309012,0.0,0.0
783,195.5,39.5983,41.6897,130.363,105.21,108.477,0.00204714,0.0521472,20.9901,606.998,-0.27655,0.0,0.0
786,196.25,39.1373,41.4056,134.05,105.208,108.569,0.00205533,0.0521238,20.9902,606.978,-0.284494,0.0,0.0
789,197,39.5219,41.1032,129.895,105.206,109.075,0.00207121,0.0520677,20.9903,606.978,-0.326683,0.0,0.0
792,197.75,38.7499,41.6731,127.385,105.22,108.512,0.00207581,0.0520196,20.9903,607.008,-0.278741,0.0,0.0
795,198.5,38.9047,41.5346,131.565,105.235,108.564,0.00207916,0.0519722,20.9904,606.988,-0.281705,0.0,0.0
798,199.25,39.1014,41.5064,129.178,105.246,107.257,0.00206242,0.0519767,20.9904,606.978,-0.171168,0.0,0.0
801,200,39.1443,41.3428,131.106,105.249,109.666,0.00204411,0.0519727,20.9904,606.988,-0.371862,0.0,0.0
804,200.75,39.1153,41.1373,129.059,105.245,108.728,0.00202815,0.0519576,20.9904,606.958,-0.29452,0.0,0.0
807,201.5,39.6006,41.7308,126.398,105.269,108.001,0.00199561,0.0519465,20.9904,606.958,-0.23176,0.0,0.0
810,202.25,39.4424,41.745,129.44,105.276,109.442,0.00195967,0.0519456,20.9902,606.988,-0.351075,0.0,0.0
813,203,38.8055,41.184,130.822,105.286,108.373,0.00192377,0.0519573,20.9896,606.968,-0.261385,0.0,0.0
816,203.75,39.0718,40.8799,131.016,105.283,109.049,0.0018899,0.0519795,20.9892,606.968,-0.317835,0.0,0.0
819,204.5,38.8014,40.9165,130.73,105.303,107.546,0.00186347,0.0520015,20.9889,606.958,-0.190662,0.0,0.0
822,205.25,38.909,41.0569,131.951,105.304,108.793,0.00185519,0.051998,20.9887,606.968,-0.294858,0.0,0.0
825,206,39.0191,41.1715,130.665,105.323,108.256,0.00185384,0.0519955,20.9886,606.958,-0.248461,0.0,0.0
828,206.75,38.7152,41.453,132.928,105.294,108.633,0.00187899,0.0520347,20.9884,606.948,-0.282399,0.0,0.0
831,207.5,39.3367,41.1937,134.153,105.307,108.504,0.00189733,0.0520808,20.9884,606.938,-0.27056,0.0,0.0
834,208.25,38.9195,41.1199,130.852,105.327,108.276,0.00192638,0.0522314,20.9883,606.958,-0.249735,0.0,0.0
837,209,38.8432,40.7352,129.879,105.331,109.441,0.00194756,0.0523686,20.9882,606.948,-0.34624,0.0,0.0
840,209.75,38.8462,41.5496,128.53,105.327,108.682,0.00196789,0.0524803,20.9883,606.908,-0.283713,0.0,0.0
843,210.5,38.7628,41.1506,129.558,105.332,108.748,0.00198801,0.0525343,20.9884,606.928,-0.288631,0.0,0.0
846,211.25,38.7084,40.8026,132.594,105.351,108.756,0.00200818,0.052562,20.9885,606.938,-0.287768,0.0,0.0
849,212,38.9998,41.0684,131.538,105.359,108.55,0.00202114,0.0525894,20.9886,606.918,-0.269903,0.0,0.0
852,212.75,39.028,41.1384,131.67,105.36,109.029,0.00201225,0.0526217,20.9886,606.908,-0.309603,0.0,0.0
855,213.5,38.8554,40.8329,131.644,105.356,108.564,0.00198382,0.0526063,20.9887,606.908,-0.271357,0.0,0.0
858,214.25,38.6719,40.9339,132.001,105.378,109.107,0.0019389,0.0526094,20.9887,606.918,-0.314532,0.0,0.0
861,215,39.058,40.8857,130.065,105.373,108.406,0.00188753,0.0526363,20.9887,606.878,-0.256668,0.0,0.0
864,215.75,39.062,40.919,130.741,105.371,109.67,0.00181823,0.0526364,20.9887,606.878,-0.361714,0.0,0.0
867,216.5,38.5587,40.6488,129.164,105.366,108.254,0.00175205,0.0526169,20.9888,606.888,-0.244565,0.0,0.0
870,217.25,38.6281,40.6146,134.585,105.38,108.374,0.00170014,0.0525812,20.9888,606.908,-0.253406,0.0,0.0
873,218,38.4703,40.7298,130.847,105.39,108.064,0.00166203,0.0525181,20.9888,606.888,-0.226643,0.0,0.0
876,218.75,39.0418,40.6625,132.199,105.384,108.335,0.00163644,0.0525269,20.9888,606.888,-0.249889,0.0,0.0
879,219.5,38.8984,40.8832,134.995,105.375,108.24,0.00162649,0.0525351,20.9888,606.898,-0.242675,0.0,0.0
882,220.25,38.926,41.0906,130.477,105.387,108.243,0.00162436,0.052504,20.9888,606.888,-0.241856,0.0,0.0
885,221,38.9866,40.7199,132.017,105.387,108.096,0.0016316,0.0524404,20.9888,606.878,-0.229551,0.0,0.0
888,221.75,39.0522,40.6969,128.347,105.384,109.559,0.00164779,0.0523693,20.9888,606.858,-0.351402,0.0,0.0
891,222.5,38.3644,40.5494,129.497,105.384,108.931,0.00167827,0.0523052,20.9888,606.838,-0.299455,0.0,0.0
894,223.25,38.8898,40.3899,130.974,105.388,108.429,0.00171615,0.0522584,20.9888,606.848,-0.257263,0.0,0.0
897,224,38.7241,40.8455,130.515,105.411,108.903,0.00174249,0.0522172,20.9888,606.868,-0.29481,0.0,0.0
900,224.75,39.0743,41.0007,129.426,105.4,108.819,0.00175949,0.0521748,20.9888,606.858,-0.288753,0.0,0.0
903,225.5,38.6734,40.6912,131.542,105.4,108.07,0.00175621,0.0521028,20.9888,606.838,-0.226355,0.0,0.0
906,226.25,38.9254,40.7563,130.057,105.395,109.198,0.0017343,0.0520329,20.989,606.828,-0.32061,0.0,0.0
909,227,38.643,40.2089,133.172,105.414,107.867,0.0017023,0.0519429,20.9896,606.828,-0.20807,0.0,0.0
912,227.75,38.9838,40.4402,128.554,105.403,108.697,0.0016658,0.051891,20.99,606.858,-0.278347,0.0,0.0
915,228.5,39.2904,40.586,132.551,105.399,108.145,0.00163726,0.0518877,20.9903,606.838,-0.232666,0.0,0.0
918,229.25,38.7372,40.8228,132.518,105.389,109.13,0.00161317,0.0519346,20.9905,606.858,-0.315517,0.0,0.0
921,230,38.633,40.9209,130.603,105.418,109.191,0.00158691,0.0518908,20.9907,606.858,-0.318109,0.0,0.0
924,230.75,38.8643,40.6399,130.601,105.414,108.395,0.00156392,0.0518588,20.9908,606.838,-0.252214,0.0,0.0
927,231.5,39.0773,40.3825,132.412,105.403,109.077,0.00154057,0.051738,20.9909,606.848,-0.309881,0.0,0.0
930,232.25,38.3899,40.4537,132.828,105.411,108.25,0.00152355,0.0516571,20.9909,606.838,-0.240376,0.0,0.0
933,233,38.7978,40.6544,129.646,105.417,108.676,0.0015181,0.0516104,20.991,606.828,-0.275443,0.0,0.0
936,233.75,38.6092,40.1364,130.865,105.419,109.174,0.00152388,0.0515569,20.991,606.818,-0.316609,0.0,0.0
939,234.5,38.8811,40.4156,131.037,105.411,110.087,0.00153995,0.0515179,20.991,606.828,-0.392659,0.0,0.0
942,235.25,38.8234,40.4639,130.59,105.408,107.843,0.00156484,0.0514758,20.991,606.828,-0.206582,0.0,0.0
945,236,39.0243,40.8129,131.464,105.419,109.396,0.00159519,0.0514393,20.9911,606.828,-0.334961,0.0,0.0
948,236.75,39.0703,40.3963,131.269,105.423,108.87,0.00163818,0.0514126,20.9911,606.818,-0.291011,0.0,0.0
951,237.5,39.1547,40.6783,133.086,105.422,107.897,0.00169738,0.0513737,20.9911,606.798,-0.20988,0.0,0.0
954,238.25,38.9655,40.0745,128.729,105.418,109.285,0.00175276,0.0513597,20.9911,606.788,-0.325825,0.0,0.0
957,239,39.183,40.491,130.344,105.423,108.715,0.00181402,0.0513741,20.9911,606.788,-0.278155,0.0,0.0
960,239.75,39.1744,40.6501,130.564,105.435,109.282,0.00188831,0.0513436,20.9911,606.788,-0.324143,0.0,0.0
963,240.5,38.8314,40.4394,129.684,105.415,109.004,0.00195593,0.0513111,20.9911,606.768,-0.302838,0.0,0.0
966,241.25,38.689,40.6863,128.447,105.416,108.707,0.00201096,0.0512997,20.9911,606.778,-0.278037,0.0,0.0
969,242,37.8683,40.6684,133.178,105.421,108.543,0.00204933,0.0512914,20.9911,606.798,-0.263949,0.0,0.0
972,242.75,38.4619,40.3967,131.053,105.432,108.777,0.0020773,0.0512853,20.9911,606.768,-0.28251,0.0,0.0
975,243.5,39.0997,40.8883,130.456,105.444,108.973,0.00207327,0.0512809,20.9911,606.768,-0.297749,0.0,0.0
978,244.25,38.7099,39.9839,130.154,105.433,108.306,0.00205116,0.0512777,20.9911,606.778,-0.243194,0.0,0.0
981,245,38.9764,40.7501,130.524,105.425,109.617,0.0020286,0.0512753,20.9911,606.778,-0.352729,0.0,0.0
984,245.75,38.8789,40.5602,131.611,105.446,110.18,0.00200117,0.0513126,20.9917,606.778,-0.3973,0.0,0.0
987,246.5,38.7231,40.7355,131.545,105.451,108.883,0.00197594,0.0513326,20.9922,606.768,-0.289666,0.0,0.0
990,247.25,39.3969,40.7586,131.003,105.436,108.952,0.00194737,0.0513349,20.9926,606.748,-0.296698,0.0,0.0
993,248,38.99,40.4042,130.242,105.431,108.802,,0.051278,,606.748,-0.284673,0.0,0.0
996,248.75,38.5936,40.4968,130.616,105.453,109.484,,0.0512229,,606.758,-0.339262,0.0,0.0
999,249.5,39.2198,40.8494,133.782,105.453,108.969,,0.0511769,,606.758,-0.296715,0.0,0.0
1002,250.25,38.7939,40.4823,137.616,105.451,108.863,,0.0511343,,606.748,-0.288038,0.0,0.0
1005,251,38.612,40.7919,130.635,105.425,108.045,,,,606.738,-0.222074,0.0,0.0
1008,251.75,38.9137,40.3881,129.03,105.461,108.845,,,,606.748,-0.285659,0.0,0.0
1011,252.5,38.548,40.123,127.63,105.45,108.432,,,,606.748,-0.252241,0.0,0.0
1014,253.25,38.1396,40.2096,129.65,105.447,108.094,,,,606.748,-0.224245,0.0,0.0
1017,254,38.4142,40.8175,131.264,105.452,108.967,,,,606.728,-0.296592,0.0,0.0
1020,254.75,39.0227,39.9592,135.637,105.448,109.031,,,,606.728,-0.302254,0.0,0.0
1023,255.5,38.7932,40.4157,132.734,105.436,109.306,,,,606.728,-0.326,0.0,0.0
1026,256.25,38.5588,40.0758,130.335,105.446,108.729,,,,606.708,-0.277284,0.0,0.0
1029,257,38.8567,40.1127,131.121,105.445,108.667,,,,606.718,-0.272237,0.0,0.0
1032,257.75,38.4927,39.9136,131.093,105.457,108.424,,,,606.708,-0.250926,0.0,0.0
1035,258.5,38.1008,40.5272,131.509,105.452,109.071,,,,606.718,-0.305175,0.0,0.0
1036,258.75,38.6842,40.6291,132.337,105.443,109.221,,,,606.738,-0.318441,0.0,0.0