File: 01_Data/Polyester_Microfiber_Sheet/Cone/Polyester_Microfiber_Sheet_Cone_HF25Scan_220512_R2.csv
Names,Time,Stack TC,Smoke TC,Exh Press,Smoke Comp,Smoke Meas,CO Meter,CO2 Meter,O2 Meter,Sample Mass,Ext Coeff,Start Test,Flame Verif
Chan Gain,,500,500,1,1,1,1,1,1,1,1,1.0,1.0
Offset,,0,0,0.138628,0,0,0,0,0,0,0,0.0,0.0
Gain,,1,1,25.011,13.1256,14.6231,1,1,1,1.001,0.958019,1.0,1.0
Units,sec,C,C,Pa,%,%,%,%,%,g,/m,,
Baseline,,24.0993,24.8206,140.499,99.379,101.599,0.000571712,0.0448616,20.999,-444.368,-0.185596,,
5,1,20.5979,22.0472,140.548,99.1143,101.024,0.000455009,0.0481042,20.9987,620.582,-0.160392,0.0,0.0
10,2.25,20.5526,22.2859,142.24,99.1147,101.27,0.000439198,0.0479993,20.9989,620.742,-0.180789,0.0,0.0
15,3.5,20.564,21.7947,140.464,99.1123,101.237,0.000447025,0.0478589,20.9992,620.582,-0.178251,0.0,0.0
20,4.75,21.2114,21.8691,142.502,99.1176,101.433,0.000475203,0.0477359,20.9994,620.662,-0.194093,0.0,0.0
25,6,20.8294,22.1525,140.195,99.0919,101.461,0.000577889,0.047605,20.9995,620.612,-0.198522,0.0,0.0
30,7.25,21.0362,21.8914,141.093,99.0947,100.807,0.000706996,0.0474848,20.9995,620.662,-0.143958,0.0,0.0
35,8.5,21.4587,21.4177,140.3,99.0947,101.36,0.000803833,0.0472316,20.9996,620.662,-0.189963,0.0,0.0
40,9.75,20.7291,21.7607,138.629,99.0843,100.808,0.000831717,0.0469063,20.9996,620.682,-0.144954,0.0,0.0
45,11,21.2161,21.9088,136.754,99.0759,100.731,0.00080125,0.0466287,20.9996,620.652,-0.139229,0.0,0.0
50,12.25,20.8751,21.978,137.572,99.0855,101.425,0.000771898,0.0464742,20.9996,620.652,-0.196108,0.0,0.0
55,13.5,20.992,22.1585,144.644,99.0971,101.067,0.000756248,0.0463683,20.9996,620.692,-0.165416,0.0,0.0
60,14.75,21.3497,21.6429,137.585,99.0723,101.213,0.000725364,0.0461786,20.9996,620.652,-0.179684,0.0,0.0
65,16,20.9209,21.8582,142.593,99.0771,101.069,0.000646943,0.0459853,20.9997,620.602,-0.1673,0.0,0.0
70,17.25,21.0552,21.6492,140.763,99.0775,101.296,0.000530557,0.0457435,20.9999,620.602,-0.186094,0.0,0.0
75,18.5,21.4842,22.1205,147.915,99.0751,100.926,0.000430498,0.0455241,21,620.662,-0.155587,0.0,0.0
80,19.75,21.3229,21.9183,141.185,99.0707,100.912,0.000399781,0.0455119,21.0001,620.652,-0.154773,0.0,0.0
85,21,21.4756,22.1134,143.224,99.0719,101.566,0.000388155,0.0456495,21.0001,620.642,-0.208902,0.0,0.0
90,22.25,21.0985,21.7456,138.757,99.0707,101.157,0.000392305,0.0457386,21.0001,620.642,-0.175113,0.0,0.0
95,23.5,21.3722,21.843,139.458,99.0563,100.785,0.000406989,0.0457107,21.0001,620.602,-0.145435,0.0,0.0
100,24.75,21.4418,22.1131,139.174,99.0595,101.061,0.000440456,0.0455961,21.0001,620.632,-0.16809,0.0,0.0
105,26,21.2105,22.058,139.471,99.0603,101.196,0.000508244,0.0454522,21.0001,620.652,-0.179295,0.0,0.0
110,27.25,21.5935,21.961,141.233,99.0635,101.206,0.000597019,0.0453903,21.0001,620.592,-0.179839,0.0,0.0
115,28.5,21.4102,22.0951,140.386,99.0631,101.107,0.00068929,0.045498,20.9995,620.612,-0.171643,0.0,0.0
120,29.75,20.9342,21.756,141.255,99.0599,100.97,0.000764383,0.0458486,20.9988,620.602,-0.160483,0.0,0.0
125,31,21.5095,22.3052,140.347,99.0827,100.593,0.000808267,0.0463437,20.9984,620.652,-0.127102,0.0,0.0
130,32.25,21.2338,21.9431,139.909,99.0963,100.902,0.000826312,0.0467198,20.9982,620.622,-0.151781,0.0,0.0
135,33.5,21.339,21.9389,140.632,99.0979,101.471,0.000784393,0.0467798,20.9983,620.622,-0.198862,0.0,0.0
140,34.75,21.2823,21.8489,141.402,99.1272,101.134,0.000644771,0.0466609,20.9993,620.602,-0.168395,0.0,0.0
145,36,20.9681,22.1878,141.703,99.1324,101.281,0.000498067,0.046242,21,620.622,-0.180183,0.0,0.0
150,37.25,21.8065,21.9173,139.613,99.1384,101.287,0.000411392,0.0456335,21.0004,620.602,-0.180191,0.0,0.0
155,38.5,21.9743,22.2658,136.53,99.1372,101.672,0.000383592,0.0450405,21.0006,620.602,-0.212186,0.0,0.0
160,39.75,21.45,21.6915,140.826,99.1516,101.218,0.000411309,0.044682,21.0004,620.612,-0.17333,0.0,0.0
165,41,21.8336,22.0386,139.464,99.1648,101.784,0.000463394,0.0445984,21.0003,620.602,-0.219097,0.0,0.0
170,42.25,21.7864,22.2556,140.393,99.1628,101.045,0.000508077,0.0447011,21.0002,620.632,-0.158028,0.0,0.0
175,43.5,21.4214,22.2552,142.192,99.1604,100.953,0.000524145,0.0448743,21.0002,620.552,-0.150546,0.0,0.0
180,44.75,21.4534,21.9211,144.97,99.1752,101.478,0.000523203,0.0450974,21.0002,620.622,-0.192901,0.0,0.0
185,46,21.8621,21.9942,142.091,99.1812,101.661,0.00053092,0.0452412,21.0002,620.622,-0.207492,0.0,0.0
190,47.25,21.8618,22.0759,142.993,99.1933,101.06,0.000552832,0.0452196,21.0002,620.602,-0.156674,0.0,0.0
195,48.5,21.8054,22.5266,141.737,99.1941,101.286,0.000561645,0.0449861,21.0002,620.572,-0.175362,0.0,0.0
200,49.75,21.6087,22.7747,139.898,99.2069,100.867,0.000535025,0.04484,21.0002,620.602,-0.139474,0.0,0.0
205,51,21.6548,22.414,141.173,99.2109,101.087,0.000483967,0.0447094,21.0002,620.602,-0.157444,0.0,0.0
210,52.25,21.4532,22.3765,142.924,99.2245,101.742,0.000437117,0.0445127,21.0002,620.582,-0.210576,0.0,0.0
215,53.5,21.9808,22.2996,136.258,99.2165,100.889,0.000410087,0.0447369,20.9995,620.602,-0.140481,0.0,0.0
220,54.75,21.4589,22.2639,137.605,99.2325,100.948,0.000399892,0.0455408,20.9988,620.572,-0.144067,0.0,0.0
225,56,21.6191,22.0428,139.098,99.2273,100.957,0.000408815,0.0464802,20.9984,620.572,-0.145214,0.0,0.0
230,57.25,21.8246,22.4182,139.277,99.2233,101.226,0.000425101,0.0472967,20.9982,620.622,-0.167923,0.0,0.0
235,58.5,21.5771,22.1709,137.472,99.2413,101.511,0.000441265,0.04756,20.9981,620.602,-0.190036,0.0,0.0
240,59.75,21.3372,22.3198,142.043,99.2598,101.784,0.000466532,0.047513,20.998,620.602,-0.211019,0.0,0.0
245,61,20.8638,22.1506,138.789,99.2513,102.171,0.000480778,0.0474457,20.9979,620.592,-0.243615,0.0,0.0
250,62.25,21.8391,22.1549,140.757,99.2449,101.208,0.00047335,0.0474305,20.9987,620.562,-0.164609,0.0,0.0
255,63.5,21.4156,22.5787,141.837,99.2622,101.907,0.00046088,0.0474262,20.9989,620.642,-0.221015,0.0,0.0
260,64.75,21.3914,22.3299,139.616,99.2549,100.959,0.000459948,0.0474593,20.9984,620.612,-0.143021,0.0,0.0
265,66,21.8471,22.7185,141.914,99.2525,101.357,0.000494514,0.0475757,20.9977,620.612,-0.176294,0.0,0.0
270,67.25,22.1372,22.0719,140.232,99.2545,101.698,0.000571533,0.0475984,20.9979,620.622,-0.204345,0.0,0.0
275,68.5,21.7609,22.7144,140.029,99.263,101.295,0.00065163,0.0474988,20.9983,620.622,-0.170268,0.0,0.0
280,69.75,22.2156,23.1489,138.782,99.2658,101.5,0.000701449,0.0473387,20.9985,620.602,-0.187081,0.0,0.0
285,71,21.3643,22.4775,140.688,99.2545,101.392,0.000702689,0.0471999,20.9987,620.562,-0.179047,0.0,0.0
290,72.25,22.2699,22.5508,142.15,99.2622,101.156,0.000612915,0.0469416,20.9988,620.572,-0.158813,0.0,0.0
295,73.5,21.626,22.414,141.371,99.263,101.824,0.000489169,0.046541,20.9991,620.582,-0.214063,0.0,0.0
300,74.75,21.7225,22.5712,139.018,99.2565,101.641,0.000391062,0.0460757,21,620.592,-0.199491,0.0,0.0
305,76,21.9947,22.6975,142.167,99.2445,101.255,0.000345805,0.0456906,21.0005,620.612,-0.168569,0.0,0.0
310,77.25,21.9812,22.6446,142.488,99.2505,101.658,0.00037999,0.045449,21.0008,620.572,-0.201439,0.0,0.0
315,78.5,22.1057,21.8794,135.462,99.2437,101.007,0.000445859,0.0452338,21.001,620.592,-0.147982,0.0,0.0
320,79.75,22.0675,22.5731,141.623,99.2341,101.186,0.000493116,0.0449914,21.0017,620.652,-0.163671,0.0,0.0
325,81,21.6723,22.5605,144.021,99.2325,101.491,0.000492028,0.0447977,21.0024,620.612,-0.189157,0.0,0.0
330,82.25,21.8231,22.2406,140.132,99.2353,101.708,0.00044984,0.0445755,21.0029,620.612,-0.206859,0.0,0.0
335,83.5,22.4054,22.5967,137.274,99.2389,101.482,0.000409355,0.0444256,21.0032,620.562,-0.187838,0.0,0.0
340,84.75,22.2507,22.7395,140.672,99.2325,101.086,0.000393922,0.0444246,21.0029,620.572,-0.155538,0.0,0.0
345,86,21.7607,22.2937,143.224,99.2073,101.528,0.000408761,0.0443948,21.0025,620.612,-0.194324,0.0,0.0
350,87.25,21.9691,22.6083,139.032,99.2141,101.692,0.000445258,0.0444262,21.0024,620.602,-0.207329,0.0,0.0
355,88.5,21.9252,22.2865,140.622,99.1929,100.991,0.000486975,0.044529,21.0024,620.602,-0.150991,0.0,0.0
360,89.75,22.1264,22.3708,140.081,99.184,101.176,0.000518154,0.0446529,21.0023,620.602,-0.167098,0.0,0.0
365,91,22.6241,22.7926,137.581,99.1872,101.149,0.000534581,0.0449104,21.0023,620.612,-0.164601,0.0,0.0
370,92.25,21.8061,22.7125,142.463,99.1828,101.231,0.000531469,0.0452376,21.0023,620.592,-0.171794,0.0,0.0
375,93.5,22.1848,23.3003,142.628,99.1704,101.31,0.00048445,0.0455105,21.0023,620.612,-0.179401,0.0,0.0
380,94.75,22.0828,22.7674,139.703,99.1576,101.244,0.000403938,0.0457521,21.0019,620.622,-0.175007,0.0,0.0
385,96,22.2155,22.9455,141.106,99.1824,101.422,0.000328338,0.0459389,21.0011,620.612,-0.187632,0.0,0.0
390,97.25,22.0915,23.0553,142.863,99.1584,101.29,0.000274981,0.0460298,21.0007,620.602,-0.178753,0.0,0.0
395,98.5,22.0528,22.9651,141.704,99.1512,101.604,0.000239391,0.0459578,21.0004,620.592,-0.205352,0.0,0.0
400,99.75,22.2051,22.923,142.377,99.1348,101.522,0.000199624,0.0458155,21.0009,620.612,-0.19995,0.0,0.0
405,101,22.5264,23.0211,138.848,99.1452,101.572,0.000172046,0.0456265,21.0014,620.582,-0.203204,0.0,0.0
410,102.25,21.9609,23.2146,141.639,99.1436,101.483,0.000164728,0.0453502,21.0018,620.582,-0.195989,0.0,0.0
415,103.5,21.924,22.5783,141.12,99.1448,101.146,0.000201783,0.0449955,21.002,620.582,-0.16794,0.0,0.0
420,104.75,22.4648,22.606,137.91,99.1372,101.532,0.000241883,0.0446539,21.0021,620.582,-0.200597,0.0,0.0
425,106,22.5928,22.9312,135.93,99.1436,101.109,0.000279509,0.044386,21.0022,620.562,-0.164964,0.0,0.0
430,107.25,22.1355,22.7791,137.546,99.1552,100.91,0.000308776,0.0440535,21.0022,620.562,-0.147458,0.0,0.0
435,108.5,22.6723,22.9242,139.775,99.1444,101.572,0.00032802,0.0437758,21.0026,620.572,-0.203309,0.0,0.0
440,109.75,22.2106,22.7904,138.407,99.1532,101.325,0.000337421,0.0436326,21.003,620.552,-0.182082,0.0,0.0
445,111,22.4054,23.099,140.245,99.1716,100.814,0.000375966,0.0436939,21.0031,620.552,-0.138034,0.0,0.0
450,112.25,22.2862,23.1633,140.062,99.1596,100.888,0.00041183,0.0437301,21.0032,620.582,-0.145226,0.0,0.0
455,113.5,22.1748,22.961,141.518,99.1592,101.354,0.00042984,0.0438389,21.0033,620.582,-0.183978,0.0,0.0
460,114.75,22.4086,22.5755,140.263,99.18,101.498,0.000440801,0.0440548,21.0033,620.582,-0.194119,0.0,0.0
465,116,22.2184,23.0107,134.895,99.1885,101.541,0.000456875,0.0444618,21.0034,620.582,-0.196953,0.0,0.0
470,117.25,21.9909,22.8045,138.296,99.1901,101.29,0.000483503,0.044854,21.0029,620.572,-0.176072,0.0,0.0
475,118.5,22.2722,23.4497,139.263,99.2201,100.796,0.000503695,0.0451151,21.0026,620.572,-0.132441,0.0,0.0
480,119.75,22.5339,23.144,137.506,99.2337,101.42,0.000520406,0.0451921,21.0029,620.542,-0.183141,0.0,0.0
485,121,22.8575,22.9015,142.052,99.2654,101.226,0.000578201,0.0450511,21.0031,620.552,-0.164361,0.0,0.0
490,122.25,22.4776,22.7144,141.429,99.2714,101.139,0.000646998,0.0448908,21.0032,620.562,-0.156662,0.0,0.0
495,123.5,22.4429,23.2198,138.764,99.2834,101.35,0.000688626,0.0446993,21.0033,620.552,-0.173091,0.0,0.0
500,124.75,22.4522,23.2625,141.709,99.3158,101.267,0.000704515,0.0445456,21.0033,620.552,-0.163497,0.0,0.0
505,126,22.7332,22.4235,140.858,99.3138,101.07,0.000709576,0.0443115,21.0034,620.522,-0.147281,0.0,0.0
510,127.25,22.2412,22.865,139.916,99.3158,101.108,0.000673547,0.0440833,21.0034,620.542,-0.150266,0.0,0.0
515,128.5,22.6468,23.369,139.068,99.3407,101.424,0.000590605,0.043921,21.0036,620.552,-0.174421,0.0,0.0
520,129.75,22.303,22.813,143.034,99.3475,101.721,0.000474133,0.0439098,21.0039,620.542,-0.198398,0.0,0.0
525,131,22.6594,23.0585,141.223,99.3491,101.669,0.000403457,0.0439419,21.0037,620.552,-0.193948,0.0,0.0
530,132.25,22.3514,23.0995,138.575,99.3475,101.338,0.000364268,0.0439901,21.0023,620.542,-0.166743,0.0,0.0
535,133.5,22.7315,22.9743,139.09,99.3751,101.432,0.000359452,0.0439961,21.0016,620.532,-0.172173,0.0,0.0
540,134.75,22.4254,22.8777,140.067,99.3839,101.049,0.000371897,0.0439684,21.0011,620.512,-0.139608,0.0,0.0
545,136,22.4896,23.3742,140.872,99.3915,101.486,0.000382019,0.0438942,21.0008,620.542,-0.175257,0.0,0.0
550,137.25,22.31,22.8564,139.622,99.3995,101.536,0.000382111,0.0438015,21.0007,620.522,-0.17868,0.0,0.0
555,138.5,22.0696,23.2928,140.009,99.4264,101.795,0.00035601,0.0438103,21.0006,620.502,-0.197844,0.0,0.0
560,139.75,22.7577,23.1158,142.049,99.4348,101.726,0.000318177,0.0439462,21.0005,620.542,-0.19142,0.0,0.0
565,141,22.1523,22.9477,139.518,99.4612,101.785,0.000303344,0.0445515,20.9986,620.542,-0.194051,0.0,0.0
570,142.25,22.2508,23.1402,142.784,99.4676,101.576,0.000356161,0.045697,20.9966,620.542,-0.176285,0.0,0.0
575,143.5,22.599,22.951,141.07,99.4849,101.302,0.000464705,0.0470567,20.9944,620.562,-0.152094,0.0,0.0
580,144.75,22.3281,23.5966,142.137,99.5041,101.779,0.000591674,0.0484199,20.9931,620.542,-0.189953,0.0,0.0
585,146,22.549,23.2485,143.864,99.5005,101.419,0.000710523,0.0494515,20.9924,620.552,-0.160468,0.0,0.0
590,147.25,22.6563,23.5909,139.715,99.5149,101.719,0.000784037,0.0500418,20.9927,620.512,-0.1841,0.0,0.0
595,148.5,22.4001,22.9434,137.646,99.5381,101.73,0.000805417,0.0501771,20.993,620.542,-0.183023,0.0,0.0
600,149.75,22.4943,23.1529,142.056,99.547,101.59,0.000794172,0.0499127,20.9933,620.532,-0.170695,0.0,0.0
605,151,22.3032,23.0621,142.879,99.5502,101.371,0.000770413,0.0493456,20.9934,620.562,-0.15228,0.0,0.0
610,152.25,22.4147,23.4436,142.642,99.5718,101.652,0.000747764,0.0488919,20.9934,620.552,-0.173729,0.0,0.0
615,153.5,22.3597,23.2489,138.351,99.587,101.715,0.000727529,0.048611,20.9935,620.502,-0.177645,0.0,0.0
620,154.75,22.9518,23.1885,143.112,99.5986,101.53,0.000686418,0.0483163,20.9944,620.492,-0.161386,0.0,0.0
625,156,22.8745,23.3585,140.034,99.6066,101.934,0.000656242,0.0480952,20.9951,620.502,-0.194109,0.0,0.0
630,157.25,22.8002,23.6073,138.84,99.6183,101.989,0.000633179,0.0477902,20.9962,620.492,-0.197616,0.0,0.0
635,158.5,22.702,23.2119,140.532,99.6299,102.233,0.00062114,0.0474947,20.9971,620.482,-0.216763,0.0,0.0
640,159.75,22.5942,23.7017,142.421,99.6359,101.196,0.000611658,0.047231,20.9977,620.522,-0.130569,0.0,0.0
645,161,22.4477,23.7329,140.581,99.6491,101.753,0.000574193,0.0469298,20.998,620.552,-0.175614,0.0,0.0
650,162.25,22.5341,23.6222,139.273,99.6663,102.161,0.000497883,0.0464995,20.9988,620.532,-0.207744,0.0,0.0
655,163.5,23.0208,23.3379,135.785,99.6683,102.167,0.000418886,0.0460116,20.9995,620.562,-0.208089,0.0,0.0
660,164.75,22.6298,23.563,141.412,99.6679,102.051,0.000344197,0.0455319,21,620.532,-0.198537,0.0,0.0
665,166,22.8077,24.0092,141.258,99.6839,101.833,0.000292314,0.0451131,21.0003,620.502,-0.17927,0.0,0.0
670,167.25,22.4236,23.7513,138.033,99.7008,101.758,0.000267694,0.0448526,21.0014,620.512,-0.171663,0.0,0.0
675,168.5,22.2327,23.283,144.305,99.7056,101.533,0.000273843,0.0444315,21.0021,620.522,-0.152663,0.0,0.0
680,169.75,22.3731,23.3718,139.398,99.706,102.019,0.000313809,0.0440221,21.0025,620.502,-0.192719,0.0,0.0
685,171,22.7528,23.4659,142.171,99.7132,102.13,0.000359265,0.0436343,21.0025,620.492,-0.201259,0.0,0.0
690,172.25,23.0486,23.5735,137.488,99.7264,102.117,0.000384464,0.0433361,21.0028,620.492,-0.199081,0.0,0.0
695,173.5,22.9108,23.5404,142.186,99.7372,102.421,0.000394991,0.0430908,21.0035,620.502,-0.223105,0.0,0.0
700,174.75,22.6983,23.2522,140.864,99.7276,102.269,0.00038626,0.0429174,21.0039,620.452,-0.211457,0.0,0.0
705,176,22.8365,23.4616,141.921,99.7444,101.764,0.000369217,0.0427472,21.0035,620.432,-0.168463,0.0,0.0
710,177.25,22.9227,23.6297,141.53,99.7424,101.753,0.000346077,0.0426906,21.0035,620.482,-0.167747,0.0,0.0
715,178.5,23.0484,23.9282,137.78,99.7516,101.778,0.000327324,0.0426712,21.0037,620.502,-0.168997,0.0,0.0
720,179.75,22.548,23.8149,137.349,99.7432,102.005,0.000309382,0.0425618,21.0038,620.512,-0.18844,0.0,0.0
725,181,22.8431,23.9141,139.334,99.7653,102.105,0.000303993,0.0425368,21.0039,620.522,-0.194853,0.0,0.0
730,182.25,23.0946,23.5466,138.7,99.7689,102.384,0.000346357,0.0425221,21.004,620.492,-0.217474,0.0,0.0
735,183.5,22.9228,24.1044,141.784,99.7649,102.195,0.000429292,0.0425378,21.004,620.502,-0.202266,0.0,0.0
740,184.75,23.0121,23.3899,139.535,99.7733,102.523,0.000539874,0.0425029,21.004,620.472,-0.228486,0.0,0.0
745,186,22.4936,23.6452,143.808,99.7765,102.137,0.000627033,0.0423854,21.004,620.482,-0.196479,0.0,0.0
750,187.25,22.5117,23.765,138.747,99.7821,101.502,0.000664819,0.042374,21.004,620.472,-0.143594,0.0,0.0
755,188.5,23.0134,23.3548,141.754,99.7769,101.986,0.000646014,0.0423775,21.004,620.462,-0.184062,0.0,0.0
760,189.75,23.162,23.3031,139.89,99.7729,101.329,0.000610889,0.0423504,21.004,620.452,-0.130095,0.0,0.0
765,191,22.8385,23.9989,135.489,99.7777,101.76,0.000591298,0.042398,21.004,620.482,-0.165294,0.0,0.0
770,192.25,22.9055,23.6898,138.482,99.7817,102.014,0.00059937,0.0424401,21.004,620.482,-0.185973,0.0,0.0
775,193.5,23.3692,23.2479,138.965,99.7625,102.552,0.000615885,0.0423846,21.004,620.472,-0.231738,0.0,0.0
780,194.75,23.3593,23.6248,139.313,99.7897,102.252,0.000604309,0.0423739,21.004,620.452,-0.204833,0.0,0.0
785,196,22.9531,23.4553,142.098,99.7769,101.72,0.000567434,0.0423967,21.004,620.462,-0.162117,0.0,0.0
790,197.25,23.0565,23.8574,140.738,99.7661,101.936,0.000537631,0.042418,21.004,620.492,-0.180854,0.0,0.0
795,198.5,23.1266,23.976,141.605,99.7637,102.338,0.000520911,0.0423374,21.004,620.462,-0.214065,0.0,0.0
800,199.75,22.849,23.8305,140.282,99.7717,102.174,0.000505965,0.0422393,21.004,620.422,-0.199931,0.0,0.0
805,201,22.7555,23.6142,140.288,99.7645,101.72,0.000466981,0.0420737,21.0039,620.432,-0.163126,0.0,0.0
810,202.25,23.4223,23.7559,140.46,99.7613,102.369,0.000409203,0.0419977,21.0038,620.462,-0.216869,0.0,0.0
815,203.5,22.7244,23.7182,137.767,99.7713,102.036,0.000340487,0.0420282,21.0038,620.442,-0.188652,0.0,0.0
820,204.75,22.9542,23.7825,141.54,99.7701,101.89,0.000282003,0.0421208,21.0037,620.462,-0.176689,0.0,0.0
825,206,22.5781,23.8009,140.467,99.7669,101.826,0.000243213,0.0421733,21.0037,620.452,-0.171657,0.0,0.0
830,207.25,23.0088,23.696,137.888,99.7689,101.672,0.000228603,0.0422393,21.0037,620.452,-0.158773,0.0,0.0
835,208.5,23.1542,24.0672,138.084,99.7621,101.49,0.000227111,0.0422147,21.0037,620.472,-0.14432,0.0,0.0
840,209.75,22.6231,23.5775,141.135,99.7605,101.861,0.00024537,0.0420696,21.0037,620.432,-0.175105,0.0,0.0
845,211,23.0057,23.605,145.191,99.7821,101.704,0.000256862,0.0420083,21.0037,620.442,-0.160314,0.0,0.0
850,212.25,22.945,23.5716,140.59,99.7496,102.025,0.000240476,0.041989,21.0038,620.442,-0.189555,0.0,0.0
855,213.5,22.9917,23.3437,143.498,99.7669,101.82,0.000201581,0.041995,21.0041,620.452,-0.171178,0.0,0.0
860,214.75,23.0309,23.7818,142.379,99.7572,102.092,0.00012229,0.0419862,21.0043,620.432,-0.194389,0.0,0.0
865,216,22.7247,23.3908,140.858,99.7476,101.602,6.01931e-05,0.0419653,21.0044,620.472,-0.154767,0.0,0.0
870,217.25,23.3481,24.1261,139.8,99.7468,101.409,4.52823e-05,0.0419936,21.0038,620.462,-0.138875,0.0,0.0
875,218.5,23.3209,23.8988,139.34,99.7444,101.665,0.000108973,0.0420764,21.0033,620.442,-0.160277,0.0,0.0
880,219.75,22.9469,23.2974,141.683,99.7448,101.599,0.00016808,0.0422087,21.0038,620.422,-0.154746,0.0,0.0
885,221,23.3979,24.1228,140.57,99.7324,101.931,0.000250589,0.0422273,21.0041,620.412,-0.18321,0.0,0.0
890,222.25,23.0349,23.9252,139.386,99.7292,101.702,0.000270939,0.0422243,21.0043,620.412,-0.164621,0.0,0.0
895,223.5,22.8774,23.6421,137.75,99.7376,102.114,0.000233184,0.04231,21.0045,620.432,-0.197916,0.0,0.0
900,224.75,23.4625,23.6794,136.446,99.744,101.425,0.000168039,0.0422148,21.0047,620.462,-0.140442,0.0,0.0
905,226,22.9776,23.8846,139.107,99.7304,102.348,0.000141798,0.0422063,21.0048,620.452,-0.217746,0.0,0.0
910,227.25,22.75,23.8408,138.173,99.7224,102.195,0.000157414,0.0422593,21.0049,620.442,-0.205807,0.0,0.0
915,228.5,22.6493,23.869,139.708,99.7136,102.29,0.000205422,0.0422754,21.0049,620.422,-0.214362,0.0,0.0
920,229.75,23.5633,23.771,141.159,99.7028,101.923,0.000257886,0.0423386,21.005,620.422,-0.185045,0.0,0.0
925,231,23.1387,23.9729,136.959,99.6908,102.114,0.00030891,0.0423759,21.005,620.412,-0.201828,0.0,0.0
930,232.25,22.7697,23.8785,139.46,99.6984,102.241,0.000359771,0.0423254,21.005,620.422,-0.211648,0.0,0.0
935,233.5,23.5665,23.5316,139.95,99.7,102.098,0.000389918,0.0422322,21.005,620.422,-0.19973,0.0,0.0
940,234.75,22.6926,23.5104,140.467,99.7088,102.042,0.000378517,0.042148,21.005,620.412,-0.194394,0.0,0.0
945,236,23.21,23.5816,138.694,99.6843,101.994,0.000338539,0.0421864,21.005,620.432,-0.192484,0.0,0.0
950,237.25,23.6625,23.6034,135.957,99.692,101.777,0.000289803,0.0422767,21.005,620.432,-0.173953,0.0,0.0
955,238.5,23.0316,24.0765,139.976,99.6835,102.077,0.000230375,0.0424127,21.0041,620.402,-0.199425,0.0,0.0
960,239.75,23.2857,23.9105,140.502,99.6711,101.821,0.000167786,0.0426144,21.0035,620.372,-0.17932,0.0,0.0
965,241,23.2725,24.1747,141.373,99.6703,101.643,0.000119528,0.0429533,21.0032,620.372,-0.164678,0.0,0.0
970,242.25,22.7406,23.7631,142.247,99.6675,101.158,0.000103243,0.0433718,21.003,620.341,-0.12475,0.0,0.0
975,243.5,23.2842,24.0545,139.903,99.6611,101.798,0.000123287,0.0437846,21.0029,620.392,-0.178286,0.0,0.0
980,244.75,23.2108,23.9205,140.494,99.6499,101.707,0.000171353,0.0441023,21.0028,620.352,-0.17175,0.0,0.0
985,246,23.0578,23.7691,143.016,99.6651,102.407,0.000245082,0.0442054,21.0029,620.362,-0.228084,0.0,0.0
990,247.25,23.0063,23.8527,143.303,99.6615,101.5,0.000340258,0.0441106,21.0031,620.382,-0.153644,0.0,0.0
995,248.5,23.0852,23.4857,143.712,99.6503,101.445,0.000378588,0.0439782,21.0032,620.392,-0.150007,0.0,0.0
1000,249.75,23.0416,24.0214,141.037,99.6547,101.637,0.000350996,0.0437916,21.0033,620.362,-0.165516,0.0,0.0
1005,251,23.4117,23.9501,138.932,99.6607,102.35,0.00029207,0.0436034,21.0033,620.362,-0.223767,0.0,0.0
1010,252.25,23.2696,23.5578,140.149,99.6579,101.919,0.000249888,0.0434339,21.0033,620.372,-0.188533,0.0,0.0
1015,253.5,23.1381,23.8388,142.58,99.6471,101.684,0.00026617,0.0432897,21.0034,620.332,-0.170031,0.0,0.0
1020,254.75,23.4554,23.9952,140.561,99.6527,101.326,0.000300724,0.0432801,21.0037,620.352,-0.139927,0.0,0.0
1025,256,23.9207,24.0435,138.515,99.6615,101.741,0.000349684,0.0432262,21.0044,620.382,-0.173535,0.0,0.0
1030,257.25,23.1791,23.6235,139.562,99.6507,101.948,0.000300396,0.0431425,21.0052,620.372,-0.191496,0.0,0.0
1035,258.5,23.4856,23.9633,140.174,99.6307,101.834,0.000208765,0.0430199,21.0058,620.382,-0.183799,0.0,0.0
1040,259.75,23.3723,24.0228,137.658,99.6427,101.806,0.000136325,0.042939,21.0058,620.341,-0.180502,0.0,0.0
1045,261,22.8378,24.3407,136.933,99.6455,101.338,0.000102678,0.0429262,21.0052,620.332,-0.141534,0.0,0.0
1050,262.25,22.5868,24.1477,140.983,99.6451,101.697,0.000124069,0.042855,21.0048,620.312,-0.171307,0.0,0.0
1055,263.5,22.9677,23.855,139.286,99.6138,101.927,0.000179175,0.0427698,21.0045,620.332,-0.192912,0.0,0.0
1060,264.75,23.3254,24.1155,140.048,99.6511,101.708,0.000235824,0.0426029,21.0046,620.322,-0.171685,0.0,0.0
1065,266,23.0134,24.0704,140.021,99.6599,102.201,0.000261705,0.0424753,21.005,620.352,-0.211551,0.0,0.0
1070,267.25,23.3008,24.1075,142.709,99.6435,102.296,0.000261936,0.0424274,21.0053,620.301,-0.220785,0.0,0.0
1075,268.5,23.2505,24.1194,137.681,99.6439,102.056,0.000246823,0.0423772,21.0054,620.322,-0.201005,0.0,0.0
1080,269.75,23.0254,24.0264,140.594,99.6627,102.343,0.000264178,0.0423908,21.0057,620.312,-0.223049,0.0,0.0
1085,271,23.0555,23.7973,139.629,99.6675,101.846,0.000341666,0.042465,21.0058,620.291,-0.181723,0.0,0.0
1090,272.25,22.9984,23.9191,140.207,99.6619,101.597,0.000456287,0.0424109,21.0059,620.341,-0.161623,0.0,0.0
1095,273.5,23.1513,23.8884,137.987,99.6787,101.88,0.000542955,0.0423603,21.0059,620.322,-0.183539,0.0,0.0
1100,274.75,23.6231,23.7141,138.844,99.6747,102.346,0.000618101,0.0424178,21.006,620.312,-0.222256,0.0,0.0
1105,276,22.9266,23.961,141.054,99.6868,102.025,0.000650207,0.0424464,21.0064,620.322,-0.194855,0.0,0.0
1110,277.25,23.1439,24.0341,140.612,99.6783,101.814,0.000646521,0.0424153,21.0066,620.301,-0.178123,0.0,0.0
1115,278.5,23.0913,23.9057,141.889,99.692,101.541,0.000608901,0.0423353,21.0067,620.301,-0.154476,0.0,0.0
1120,279.75,23.3136,24.1445,141.234,99.7016,102.189,0.000527576,0.0423165,21.0068,620.301,-0.207048,0.0,0.0
1125,281,23.5375,23.7771,140.379,99.7012,101.769,0.000438895,0.0424206,21.0068,620.312,-0.172513,0.0,0.0
1130,282.25,23.5238,23.8043,141.486,99.7056,102.03,0.000376767,0.0425712,21.0068,620.291,-0.193672,0.0,0.0
1135,283.5,22.9703,24.3397,133.8,99.7228,102.145,0.000372772,0.0427476,21.0068,620.322,-0.201662,0.0,0.0
1140,284.75,23.4463,24.0483,140.119,99.7276,101.477,0.000424773,0.0428568,21.0068,620.241,-0.146113,0.0,0.0
1145,286,23.1017,23.8707,141.242,99.73,101.667,0.000508776,0.0428875,21.0066,620.251,-0.161677,0.0,0.0
1150,287.25,22.5437,23.6831,140.568,99.7452,101.754,0.000566237,0.0430222,21.0061,620.261,-0.167547,0.0,0.0
1155,288.5,23.3518,24.1994,141.844,99.7484,101.709,0.000589846,0.0432233,21.0051,620.291,-0.163591,0.0,0.0
1160,289.75,23.2957,24.0024,142.373,99.7524,102.226,0.000579597,0.0434657,21.0045,620.241,-0.20588,0.0,0.0
1165,291,22.9907,23.9902,137.389,99.752,101.687,0.000542186,0.0436438,21.0042,620.281,-0.161481,0.0,0.0
1170,292.25,23.2604,24.0248,141.947,99.7608,102.448,0.000487808,0.0437974,21.0036,620.281,-0.223385,0.0,0.0
1175,293.5,23.0004,24.1455,140.537,99.7737,102.06,0.000445631,0.0438936,21.0032,620.281,-0.19036,0.0,0.0
1180,294.75,23.1085,23.7743,140.22,99.7733,101.825,0.000414578,0.0438522,21.003,620.271,-0.171044,0.0,0.0
1185,296,23.5186,23.7036,138.606,99.7813,101.89,0.000400531,0.0437652,21.003,620.251,-0.175744,0.0,0.0
1190,297.25,23.2255,24.3112,141.228,99.8101,101.944,0.000403883,0.0437524,21.0032,620.271,-0.177805,0.0,0.0
1195,298.5,23.5104,24.1775,143.915,99.8161,102.409,0.000432136,0.0436958,21.0034,620.271,-0.215507,0.0,0.0
1200,299.75,22.7214,23.7786,140.393,99.8189,102.436,0.000474535,0.0435329,21.0035,620.271,-0.217469,0.0,0.0
1205,301,23.5371,23.8844,138.299,99.8129,103.28,0.000507495,0.0433877,21.0035,620.261,-0.286957,0.0,0.0
1210,302.25,23.4571,24.185,142.44,99.843,101.981,0.000519779,0.0433755,21.0035,620.271,-0.178093,0.0,0.0
1215,303.5,23.3955,24.3203,141.46,99.8414,102.13,0.000512793,0.0434713,21.0035,620.261,-0.190464,0.0,0.0
1220,304.75,23.7425,24.3535,141.419,99.8402,101.98,0.000459331,0.043571,21.0035,620.241,-0.178218,0.0,0.0
1225,306,23.0497,24.2144,140.3,99.841,102.045,0.000406364,0.0436442,21.0036,620.201,-0.183481,0.0,0.0
1230,307.25,23.1898,23.8678,144.497,99.8738,101.922,0.000377563,0.0437671,21.0036,620.251,-0.170605,0.0,0.0
1235,308.5,23.3156,24.4861,139.208,99.8654,102.172,0.000384448,0.0439498,21.0036,620.221,-0.191893,0.0,0.0
1240,309.75,23.4646,24.4773,142.384,99.8522,101.385,0.000406392,0.0440649,21.0029,620.221,-0.128006,0.0,0.0
1245,311,23.3577,23.8415,138.743,99.8634,102.33,0.000400969,0.0441954,21.0022,620.251,-0.205008,0.0,0.0
1250,312.25,22.8228,23.7981,139.571,99.8686,101.802,0.000364409,0.0443537,21.0019,620.211,-0.161102,0.0,0.0
1255,313.5,23.5925,24.2611,139.887,99.8726,101.562,0.000293752,0.0445549,21.0016,620.261,-0.140922,0.0,0.0
1260,314.75,23.6105,23.653,142.047,99.8686,102.558,0.000268322,0.0445176,21.0013,620.221,-0.223349,0.0,0.0
1265,316,23.3137,23.9142,138.707,99.8834,102.456,0.000281008,0.0444514,21.0009,620.221,-0.213688,0.0,0.0
1270,317.25,22.7421,24.2815,137.269,99.885,102.354,0.000333616,0.0443446,21.0006,620.221,-0.205167,0.0,0.0
1275,318.5,22.9658,23.9061,140.15,99.8866,102.085,0.00040373,0.0441262,21.0001,620.181,-0.182982,0.0,0.0
1280,319.75,23.2615,24.0986,143.678,99.8878,101.78,0.00046834,0.0438832,20.9999,620.201,-0.157715,0.0,0.0
1285,321,23.3484,24.0415,138.563,99.8998,101.994,0.000518272,0.0437364,20.9998,620.201,-0.174336,0.0,0.0
1290,322.25,23.3501,24.1144,139.436,99.9083,101.725,0.000556061,0.0435849,20.9997,620.191,-0.151427,0.0,0.0
1295,323.5,23.4659,23.9678,140.896,99.8986,101.737,0.000565684,0.0433741,20.9996,620.131,-0.153268,0.0,0.0
1300,324.75,23.1591,24.104,142.964,99.9002,102.035,0.000526103,0.0431935,20.9996,620.141,-0.177721,0.0,0.0
1305,326,23.2315,24.4687,141.317,99.9071,101.91,0.000432103,0.0430942,21,620.181,-0.166851,0.0,0.0
1310,327.25,23.3627,23.9906,139.959,99.9119,102.156,0.000365871,0.0431903,21.0008,620.221,-0.186698,0.0,0.0
1315,328.5,23.4862,24.2368,143.757,99.8922,101.536,0.000337173,0.0433739,21.0014,620.161,-0.137129,0.0,0.0
1320,329.75,23.6379,24.3687,138.965,99.9023,102.019,0.000324424,0.0435709,21.0019,620.201,-0.176193,0.0,0.0
1325,331,23.2413,23.9192,141.086,99.8954,101.952,0.000324742,0.043698,21.0013,620.191,-0.17125,0.0,0.0
1330,332.25,23.7577,24.1595,143.827,99.9079,102.255,0.000365648,0.0437388,21.0009,620.221,-0.195181,0.0,0.0
1335,333.5,23.3572,24.1063,139.603,99.877,101.953,0.000424649,0.0438165,21.0007,620.191,-0.17291,0.0,0.0
1340,334.75,23.0594,24.1376,140.735,99.8958,102.378,0.000479964,0.0437898,21.0006,620.201,-0.206271,0.0,0.0
1345,336,23.5054,24.5272,139.477,99.8866,101.349,0.000516982,0.0437442,21.0005,620.201,-0.122148,0.0,0.0
1350,337.25,23.7178,24.012,137.62,99.8778,101.907,0.000550552,0.0438155,21.0005,620.211,-0.169054,0.0,0.0
1355,338.5,23.0543,24.0916,140.712,99.8666,101.512,0.000603903,0.0440552,21.0015,620.231,-0.137365,0.0,0.0
1360,339.75,23.0076,24.0859,139.232,99.8702,102.633,0.000693142,0.0443605,21.0026,620.201,-0.229319,0.0,0.0
1365,341,23.5527,24.0349,142.455,99.8666,101.878,0.000765951,0.0446713,21.0024,620.171,-0.167568,0.0,0.0
1370,342.25,23.5931,24.0889,137.697,99.8494,102.122,0.000810012,0.0449769,21.0023,620.171,-0.189129,0.0,0.0
1375,343.5,23.2141,24.0118,141.483,99.8362,101.668,0.000841705,0.0451539,21.0029,620.171,-0.152774,0.0,0.0
1380,344.75,23.3561,24.3614,139.738,99.837,101.872,0.000879894,0.0452246,21.0035,620.211,-0.169547,0.0,0.0
1385,346,23.4138,24.272,141.343,99.841,101.625,0.000922123,0.0451636,21.0039,620.181,-0.148828,0.0,0.0
1390,347.25,23.7346,23.7741,137.225,99.8109,101.352,0.000974255,0.0450645,21.0041,620.171,-0.128779,0.0,0.0
1395,348.5,23.5544,24.3246,140.244,99.8073,101.839,0.00102328,0.0448019,21.0042,620.161,-0.169318,0.0,0.0
1400,349.75,23.8279,24.5888,139.158,99.8057,102.209,0.00100894,0.0445806,21.0043,620.211,-0.199926,0.0,0.0
1405,351,23.706,23.8015,140.015,99.8009,101.706,0.000927617,0.0444948,21.0044,620.181,-0.158876,0.0,0.0
1410,352.25,23.8066,24.7206,139.687,99.7713,102.008,0.000806947,0.0443281,21.0044,620.161,-0.186299,0.0,0.0
1415,353.5,23.4348,24.0581,140.857,99.7697,101.24,0.000646477,0.0440619,21.0044,620.151,-0.122961,0.0,0.0
1420,354.75,23.852,24.2219,141.888,99.7552,102.221,0.000509172,0.0439025,21.0044,620.141,-0.205167,0.0,0.0
1425,356,23.0241,24.1267,142.263,99.75,101.638,0.000422798,0.0437231,21.0044,620.141,-0.157554,0.0,0.0
1430,357.25,23.5956,24.39,141.728,99.7248,101.337,0.000415935,0.0436015,21.0044,620.141,-0.134812,0.0,0.0
1435,358.5,23.9048,24.7278,138.561,99.7108,101.067,0.000433468,0.0435542,21.0044,620.131,-0.113573,0.0,0.0
1440,359.75,23.4077,24.6615,141.55,99.6988,101.763,0.000461123,0.0435018,21.0044,620.141,-0.1722,0.0,0.0
1445,361,23.7748,24.6161,140.852,99.6639,100.984,0.000501388,0.0433542,21.0044,620.131,-0.110545,0.0,0.0
1450,362.25,23.7317,24.3517,140.928,99.6499,100.959,0.000542256,0.0431229,21.0042,620.121,-0.109648,0.0,0.0
1455,363.5,23.7748,24.454,139.116,99.6279,101.494,0.000568272,0.0430134,21.0041,620.121,-0.155927,0.0,0.0
1460,364.75,23.5054,24.5939,143.043,99.6082,101.126,0.000579571,0.0429799,21.0041,620.121,-0.12708,0.0,0.0
1465,366,23.4186,24.1843,141.742,99.5666,101.848,0.000569127,0.0429847,21.004,620.131,-0.190349,0.0,0.0
1470,367.25,23.6188,24.4314,137.668,99.549,100.796,0.000527421,0.0431088,21.004,620.111,-0.104595,0.0,0.0
1475,368.5,23.4479,24.2288,137.565,99.5337,101.83,0.000455909,0.043182,21.004,620.101,-0.191684,0.0,0.0
1480,369.75,23.3893,24.2036,138.169,99.5017,101.893,0.000385028,0.0432468,21.0039,620.101,-0.199546,0.0,0.0
1485,371,23.4414,24.3678,139.268,99.4656,101.483,0.000355437,0.0433802,21.0036,620.091,-0.168772,0.0,0.0
1490,372.25,22.8303,24.4469,141.397,99.436,100.953,0.000356307,0.0434447,21.0034,620.071,-0.127223,0.0,0.0
1495,373.5,23.6923,24.5882,135.495,99.4252,101.417,0.000376495,0.0434933,21.0033,620.101,-0.166719,0.0,0.0
1500,374.75,23.5761,24.6402,139.762,99.4276,101.204,0.000425549,0.0436112,21.0026,620.101,-0.148859,0.0,0.0
1505,376,23.4659,24.8968,139.098,99.428,101.327,0.000519451,0.0437349,21.0019,620.081,-0.158973,0.0,0.0
1510,377.25,23.482,24.037,138.721,99.4568,101.404,0.00060996,0.0437391,21.0024,620.081,-0.1629,0.0,0.0
1515,378.5,23.7679,24.2531,138.768,99.4632,101.271,0.000652099,0.0436541,21.0027,620.091,-0.151367,0.0,0.0
1520,379.75,24.1264,24.5462,138.857,99.4636,101.621,0.000663986,0.0436625,21.0029,620.071,-0.180352,0.0,0.0
1525,381,23.6861,24.7729,138.981,99.4696,101.449,0.000661,0.0436729,21.003,620.071,-0.16555,0.0,0.0
1530,382.25,23.397,24.3795,141.421,99.4913,100.746,0.000676921,0.0436459,21.0031,620.081,-0.105335,0.0,0.0
1535,383.5,23.7393,24.038,143.018,99.5021,101.695,0.000712531,0.0436641,21.0029,620.051,-0.183228,0.0,0.0
1540,384.75,23.2427,24.6286,139.903,99.5005,100.866,0.000730816,0.043802,21.0027,620.041,-0.114564,0.0,0.0
1545,386,23.8973,24.1808,143.988,99.5129,100.598,0.000728923,0.0439092,21.0018,620.041,-0.0911405,0.0,0.0
1550,387.25,23.8148,24.5515,137.133,99.5221,101.837,0.000711374,0.0441759,21.0011,620.031,-0.193255,0.0,0.0
1555,388.5,23.7503,24.487,142.144,99.5337,101.088,0.000681587,0.0444419,21.0007,620.021,-0.130215,0.0,0.0
1560,389.75,23.4806,24.4737,146.715,99.5445,100.633,0.000660481,0.0447156,21.0004,620.071,-0.091376,0.0,0.0
1565,391,23.5668,24.2688,139.623,99.5486,101.009,0.000645836,0.0449553,21.0003,620.011,-0.122395,0.0,0.0
1570,392.25,23.7364,24.3368,136.537,99.5606,100.856,0.000649868,0.0451166,21.0002,620.021,-0.108674,0.0,0.0
1575,393.5,23.5541,24.5365,138.496,99.5818,101.059,0.000698955,0.0452854,20.9997,620.011,-0.123746,0.0,0.0
1580,394.75,23.8043,23.8846,138.443,99.5778,101.312,0.000787095,0.0455157,20.9989,620.021,-0.145062,0.0,0.0
1585,396,23.8805,24.5672,141.156,99.5842,102.014,0.000839004,0.0457251,20.9984,619.991,-0.202584,0.0,0.0
1590,397.25,23.5352,23.9386,141.233,99.6026,101.587,0.000847179,0.0457404,20.9989,619.981,-0.165738,0.0,0.0
1595,398.5,23.563,24.506,141.042,99.5866,101.406,0.000841898,0.0455916,20.9994,619.991,-0.152125,0.0,0.0
1600,399.75,23.4853,24.6966,141.042,99.6034,100.949,0.000880008,0.0458404,20.9992,620.001,-0.112787,0.0,0.0
1605,401,23.5064,23.6672,139.557,99.6279,101.241,0.000986888,0.0470918,20.9964,620.031,-0.134987,0.0,1.0
1610,402.25,23.6453,24.4821,136.251,99.6379,100.825,0.00119331,0.0504703,20.9911,620.001,-0.0995478,0.0,1.0
1615,403.5,23.7315,24.3303,141.424,99.6403,100.486,0.00150699,0.0573086,20.9801,619.961,-0.0710282,0.0,1.0
1620,404.75,22.082,22.9552,140.744,99.6563,97.6964,0.00194453,0.0688502,20.9668,619.891,0.166916,0.0,0.0
1625,406,22.3242,22.8016,135.626,99.6735,95.416,0.00266315,0.0924948,20.9465,619.851,0.366849,0.0,0.0
1630,407.25,22.2735,22.5645,130.924,99.6871,92.3525,0.00362868,0.11166,20.9186,619.791,0.642247,0.0,0.0
1635,408.5,22.6682,23.5105,132.589,99.6735,89.8092,0.00482241,0.144883,20.8862,619.711,0.875769,0.0,0.0
1640,409.75,23.3717,23.5837,129.74,99.6871,87.2383,0.00641649,0.185107,20.837,619.601,1.12099,0.0,0.0
1645,411,23.606,23.8604,125.571,99.7044,83.1064,0.00808269,0.231019,20.782,619.471,1.53021,0.0,0.0
1650,412.25,24.7886,24.3725,125.478,99.708,82.3116,0.00989536,0.290724,20.7179,619.32,1.61127,0.0,0.0
1655,413.5,25.4934,24.8553,124.618,99.7124,80.3619,0.0117902,0.349023,20.638,619.08,1.8131,0.0,0.0
1660,414.75,26.8383,26.1149,123.352,99.7288,78.9459,0.0133605,0.408741,20.5709,618.93,1.96387,0.0,0.0
1665,416,28.0771,27.1069,124.287,99.7564,80.2704,0.0149973,0.468122,20.5001,618.75,1.82638,0.0,0.0
1670,417.25,29.3704,28.0682,122.936,99.744,82.2509,0.0163748,0.519452,20.4457,618.53,1.62051,0.0,0.0
1675,418.5,30.0113,28.8532,121.843,99.752,74.5042,0.0174617,0.557225,20.4131,618.33,2.45246,0.0,0.0
1680,419.75,31.5225,29.7791,123.594,99.7629,76.6262,0.0179147,0.580105,20.3939,618.189,2.21737,0.0,0.0
1685,421,32.0704,30.9294,120.239,99.7761,82.7958,0.0179444,0.582548,20.4023,617.969,1.56772,0.0,0.0
1690,422.25,33.0651,31.817,128.389,99.7689,88.0193,0.01726,0.56674,20.4197,617.819,1.05299,0.0,0.0
1695,423.5,33.5524,32.4565,129.335,99.7865,85.3877,0.0163054,0.53592,20.4506,617.719,1.30956,0.0,0.0
1700,424.75,34.0236,33.1909,126.514,99.7949,86.8532,0.014974,0.506124,20.4795,617.579,1.16725,0.0,0.0
1705,426,34.5963,33.7805,128.719,99.7965,86.132,0.0136581,0.473647,20.5221,617.449,1.23746,0.0,0.0
1710,427.25,34.7364,33.7767,128.703,99.8009,86.8692,0.012356,0.449333,20.5537,617.359,1.16621,0.0,0.0
1715,428.5,35.0757,34.1119,128.368,99.8137,88.1871,0.0114391,0.423934,20.5794,617.248,1.04076,0.0,0.0
1720,429.75,34.9828,34.9259,131.18,99.8301,92.5211,0.00995466,0.398047,20.6038,617.178,0.638956,0.0,0.0
1725,431,35.0728,34.9979,131.859,99.8378,95.1974,0.00860288,0.377248,20.6361,617.118,0.399966,0.0,0.0
1730,432.25,34.9344,35.4408,133.367,99.8334,97.4715,0.00746827,0.344727,20.6697,617.028,0.201201,0.0,0.0
1735,433.5,35.5159,35.1084,139.41,99.8402,98.8371,0.00647838,0.315352,20.7058,616.978,0.0848581,0.0,0.0
1740,434.75,35.3457,35.5928,135.402,99.8478,98.4386,0.00558632,0.288852,20.7368,616.918,0.119451,0.0,0.0
1745,436,35.4964,35.3271,139.259,99.8486,100.119,0.00487341,0.266212,20.7626,616.888,-0.022746,0.0,0.0
1750,437.25,35.2801,35.376,136.062,99.8554,100.76,0.0043296,0.246747,20.7844,616.818,-0.0758274,0.0,0.0
1755,438.5,34.523,35.1209,135.814,99.8514,101.269,0.00391082,0.229409,20.8035,616.818,-0.118451,0.0,0.0
1760,439.75,34.693,35.4197,132.116,99.8566,102.397,0.00361262,0.214423,20.8211,616.768,-0.21115,0.0,0.0
1765,441,34.2153,35.2883,134.383,99.8562,102.132,0.00346008,0.200423,20.8383,616.708,-0.189363,0.0,0.0
1770,442.25,34.1614,35.1057,137.52,99.8706,102.556,0.00341064,0.187482,20.852,616.708,-0.222961,0.0,0.0
1775,443.5,34.0223,34.8379,137.622,99.8722,102.386,0.00343531,0.17464,20.8638,616.668,-0.208883,0.0,0.0
1780,444.75,34.1131,34.7233,135.395,99.869,102.82,0.00342432,0.16367,20.8755,616.658,-0.244717,0.0,0.0
1785,446,34.0205,35.0114,136.485,99.8702,102.501,0.00336905,0.154359,20.8865,616.648,-0.218533,0.0,0.0
1790,447.25,33.5699,35.183,137.037,99.8774,103.064,0.00330534,0.144874,20.8983,616.638,-0.263899,0.0,0.0
1795,448.5,33.361,34.342,134.469,99.8778,103.483,0.00326435,0.134523,20.9104,616.598,-0.297966,0.0,0.0
1800,449.75,33.082,34.4351,139.033,99.8818,103.331,0.00322466,0.125114,20.9199,616.558,-0.285334,0.0,0.0
1805,451,32.778,34.274,135.81,99.883,103.041,0.00313508,0.116453,20.9279,616.488,-0.261608,0.0,0.0
1810,452.25,31.7338,33.2162,136.393,99.9007,102.909,0.00296736,0.108114,20.9344,616.508,-0.249346,0.0,0.0
1815,453.5,32.2132,34.2155,138.278,99.9026,102.031,0.00281728,0.0998879,20.9426,616.518,-0.177152,0.0,0.0
1820,454.75,32.0655,33.4215,136.878,99.9007,101.359,0.00269992,0.0939805,20.9507,616.528,-0.121819,0.0,0.0
1825,456,32.2187,34.0141,137.807,99.9159,101.965,0.0026438,0.0861363,20.9591,616.468,-0.170598,0.0,0.0
1830,457.25,31.0952,32.8384,141.298,99.9315,101.403,0.00260102,0.0792472,20.9665,616.478,-0.122814,0.0,0.0
1835,458.5,31.4571,33.3617,140.944,99.9315,102.984,0.00252766,0.073755,20.9724,616.498,-0.252836,0.0,0.0
1840,459.75,30.9518,32.9265,139.385,99.9279,102.036,0.00242327,0.069308,20.9774,616.478,-0.17547,0.0,0.0
1845,461,30.1474,32.1085,143.254,99.9499,102.321,0.00237181,0.0655325,20.9826,616.488,-0.197034,0.0,0.0
1850,462.25,30.526,32.4264,138.592,99.9523,102.591,0.00236416,0.0623307,20.9856,616.508,-0.219013,0.0,0.0
1855,463.5,29.8067,32.003,142.004,99.9579,101.886,0.00235887,0.0598409,20.9879,616.478,-0.160549,0.0,0.0
1860,464.75,29.7997,31.7871,139.867,99.9495,102.477,0.00234573,0.0577587,20.9894,616.478,-0.209886,0.0,0.0
1865,466,28.6705,30.9214,137.562,99.9651,101.858,0.00228465,0.0560703,20.9917,616.468,-0.15766,0.0,0.0
1870,467.25,29.0946,30.4593,139.077,99.9703,102.403,0.00217955,0.0549319,20.9935,616.458,-0.202021,0.0,0.0
1875,468.5,28.194,30.0684,136.353,99.9679,101.874,0.00205186,0.0537222,20.9945,616.468,-0.158713,0.0,0.0
1880,469.75,28.1243,29.6798,139.997,99.9699,103.12,0.00193032,0.0526797,20.9952,616.438,-0.260701,0.0,0.0
1885,471,28.0905,29.6103,136.005,99.9824,102.239,0.00183826,0.051869,20.9955,616.458,-0.187597,0.0,0.0
1890,472.25,27.4283,29.6505,138.823,99.9776,102.446,0.00180485,0.0512573,20.9965,616.458,-0.20493,0.0,0.0
1895,473.5,27.8841,29.9488,140.47,99.9848,102.771,0.00179182,0.0507348,20.9973,616.458,-0.231005,0.0,0.0
1900,474.75,27.0535,29.9297,141.076,99.9916,102.647,0.00178272,0.0502018,20.9977,616.448,-0.220281,0.0,0.0
1905,476,27.6729,29.0319,140.058,99.9976,102.567,0.00181642,0.0496679,20.998,616.468,-0.213235,0.0,0.0
1910,477.25,26.6805,29.3047,138.431,100.011,102.767,0.00185724,0.0492422,20.9985,616.438,-0.228452,0.0,0.0
1915,478.5,26.7771,29.2069,142.313,99.9964,102.476,0.00187222,0.048874,20.9988,616.408,-0.205873,0.0,0.0
1920,479.75,26.3012,29.1627,139.316,100.006,102.274,0.00187584,0.0485706,20.9998,616.418,-0.188434,0.0,0.0
1925,481,26.5887,28.8215,140.49,100.028,102.559,0.00186882,0.0483623,21.0005,616.408,-0.209948,0.0,0.0
1930,482.25,26.8522,28.7547,141.915,100.037,102.4,0.00184665,0.0483632,21.0009,616.418,-0.19625,0.0,0.0
1935,483.5,26.1059,28.5672,141.482,100.021,102.283,0.00182016,0.0483587,21.0012,616.398,-0.187923,0.0,0.0
1940,484.75,26.1738,28.1559,138.36,100.019,102.977,0.00180672,0.0483634,21.0013,616.388,-0.244949,0.0,0.0
1945,486,25.6414,27.8581,139.326,100.042,102.293,0.00182012,0.0483859,21.0014,616.408,-0.186982,0.0,0.0
1950,487.25,25.9567,28.0311,135.502,100.045,102.28,0.00185348,0.0483502,21.0014,616.398,-0.18572,0.0,0.0
1955,488.5,25.7132,27.9102,139.819,100.038,102.676,0.00187983,0.0481971,21.0017,616.388,-0.218785,0.0,0.0
1960,489.75,25.6568,27.9036,140.164,100.053,102.864,0.00188582,0.0480342,21.0026,616.368,-0.232833,0.0,0.0
1965,491,25.4359,27.76,142.192,100.062,103.056,0.00188514,0.0479073,21.0031,616.368,-0.247756,0.0,0.0
1970,492.25,25.621,27.4668,139.345,100.05,103.012,0.0018934,0.0477391,21.0034,616.378,-0.245235,0.0,0.0
1975,493.5,25.5579,27.5773,137.23,100.057,102.592,0.00191309,0.0475542,21.0036,616.368,-0.210267,0.0,0.0
1980,494.75,25.0317,27.5468,142.84,100.073,102.973,0.00193004,0.0474502,21.0037,616.337,-0.240042,0.0,0.0
1985,496,25.0608,26.8035,142.615,100.076,102.778,0.00191125,0.0473704,21.0037,616.328,-0.223879,0.0,0.0
1990,497.25,24.969,27.3319,138.11,100.064,103.057,0.00185308,0.0472494,21.0038,616.307,-0.247666,0.0,0.0
1995,498.5,25.199,26.9325,139.113,100.078,102.238,0.00181873,0.0470644,21.0036,616.318,-0.179407,0.0,0.0
2000,499.75,24.3566,26.6589,140.693,100.095,103.257,0.0017208,0.0468889,21.0034,616.287,-0.261397,0.0,0.0
2005,501,24.2855,26.9939,140.19,100.089,102.362,0.00164188,0.0467852,21.0032,616.358,-0.188727,0.0,0.0
2010,502.25,24.6182,26.6695,140.262,100.078,103.096,0.00156715,0.0466563,21.0031,616.358,-0.249721,0.0,0.0
2015,503.5,24.3319,26.8078,140.077,100.092,103.017,0.00151268,0.046502,21.003,616.328,-0.242067,0.0,0.0
2020,504.75,24.0197,26.2714,141.854,100.108,103.031,0.00148187,0.0463864,21.003,616.328,-0.241816,0.0,0.0
2025,506,24.5468,26.4171,139.015,100.108,102.51,0.00144395,0.0463134,21.003,616.328,-0.199265,0.0,0.0
2030,507.25,24.0165,26.4175,139.081,100.103,103.301,0.00138127,0.0462703,21.003,616.307,-0.264285,0.0,0.0
2035,508.5,24.0643,25.8992,139.02,100.125,103.775,0.00131155,0.0462449,21.0027,616.257,-0.300902,0.0,0.0
2040,509.75,23.6454,26.061,143.692,100.131,102.751,0.0012686,0.0462007,21.0015,616.328,-0.217046,0.0,0.0
2045,511,24.1016,26.0421,141.536,100.125,102.45,0.00125704,0.046158,21.0008,616.307,-0.192918,0.0,0.0
2050,512.25,23.6667,25.9537,136.554,100.144,102.822,0.0012413,0.0461698,21.0004,616.318,-0.221775,0.0,0.0
2055,513.5,23.9076,25.7926,139.78,100.147,102.933,0.00120123,0.0461547,21.0001,616.237,-0.230651,0.0,0.0
2060,514.75,24.3805,25.8359,140.669,100.162,102.65,0.00116652,0.0461458,21,616.318,-0.206208,0.0,0.0
2065,516,23.9166,25.5009,138.471,100.152,102.595,0.00114117,0.0461263,20.9999,616.267,-0.202554,0.0,0.0
2070,517.25,23.7109,25.6038,142.334,100.163,102.251,0.00111788,0.0460707,21.0005,616.277,-0.173413,0.0,0.0
2075,518.5,24.0557,25.5251,141.86,100.174,102.448,0.00110331,0.0460378,21.0012,616.257,-0.188668,0.0,0.0
2080,519.75,23.4621,25.4792,140.873,100.189,102.268,0.00109791,0.0460674,21.0015,616.328,-0.172589,0.0,0.0
2085,521,23.3191,25.1069,145.079,100.179,102.682,0.00109114,0.0461188,21.0018,616.328,-0.207388,0.0,0.0
2090,522.25,23.1797,24.8891,139.505,100.186,103.051,0.00106031,0.0461538,21.0013,616.277,-0.236936,0.0,0.0
2095,523.5,23.6487,25.3498,140.322,100.211,102.963,0.0010018,0.0461531,21.001,616.307,-0.227681,0.0,0.0
2100,524.75,23.4234,25.4648,143.025,100.204,102.944,0.000922378,0.0460729,21.0017,616.267,-0.226686,0.0,0.0
2105,526,23.362,24.9986,137.509,100.207,102.768,0.000833863,0.0459714,21.0022,616.267,-0.212052,0.0,0.0
2110,527.25,23.1897,24.7752,135.554,100.225,103.31,0.000763336,0.0459406,21.0025,616.227,-0.254792,0.0,0.0
2115,528.5,23.0054,25.0265,139.022,100.23,102.325,0.000735857,0.0459902,21.0027,616.267,-0.173822,0.0,0.0
2120,529.75,23.4627,25.1973,143.706,100.224,102.483,0.000750016,0.0460558,21.0029,616.257,-0.187357,0.0,0.0
2125,531,23.3339,24.6819,136.472,100.232,102.752,0.000793313,0.0461166,21.0033,616.197,-0.208689,0.0,0.0
2130,532.25,23.2578,25.0004,139.334,100.24,102.319,0.000869677,0.0461386,21.0035,616.217,-0.172469,0.0,0.0
2135,533.5,22.8364,24.755,139.921,100.252,102.682,0.000972282,0.0460952,21.0036,616.227,-0.201311,0.0,0.0
2140,534.75,23.3616,24.776,138.666,100.243,103.098,0.00106937,0.0460732,21.0037,616.207,-0.23602,0.0,0.0
2145,536,23.1933,24.9994,140.705,100.261,103.041,0.00112555,0.0460508,21.0037,616.187,-0.229818,0.0,0.0
2150,537.25,23.112,24.6023,139.09,100.256,102.533,0.00115612,0.0459891,21.0038,616.117,-0.188737,0.0,0.0
2155,538.5,22.8974,24.8627,141.153,100.272,102.862,0.00116357,0.0458453,21.0038,616.127,-0.214338,0.0,0.0
2160,539.75,22.924,24.5945,139.231,100.263,102.699,0.00116356,0.0457313,21.0038,616.127,-0.201689,0.0,0.0
2165,541,22.756,24.5206,139.7,100.265,102.205,0.00104792,0.0456504,21.0038,616.237,-0.161036,0.0,0.0
2170,542.25,22.4288,24.5024,142.737,100.276,102.667,0.000944235,0.0455735,21.0038,616.237,-0.198055,0.0,0.0
2175,543.5,22.3875,24.0316,137.153,100.269,102.845,0.00084588,0.0455124,21.0033,616.207,-0.21319,0.0,0.0
2180,544.75,22.384,23.786,142.415,100.278,102.774,0.000792269,0.0454628,21.0025,616.197,-0.206582,0.0,0.0
2185,546,22.8413,24.3001,139.925,100.286,102.62,0.000799206,0.0454179,21.002,616.257,-0.193379,0.0,0.0
2190,547.25,22.588,24.2393,139.564,100.286,103.073,0.00081713,0.0452746,21.0018,616.237,-0.230357,0.0,0.0
2195,548.5,22.4342,24.3006,138.221,100.266,103.123,0.000846146,0.0451708,21.0016,616.177,-0.236146,0.0,0.0
2200,549.75,22.7933,24.399,140.032,100.289,102.624,0.000851186,0.0450609,21.0015,616.187,-0.19337,0.0,0.0
2205,551,22.551,23.8166,139.125,100.284,103.099,0.000828219,0.0449706,21.0014,616.117,-0.232671,0.0,0.0
2210,552.25,22.3749,24.0977,137.147,100.284,102.926,0.00079536,0.0448694,21.0014,616.167,-0.21851,0.0,0.0
2215,553.5,22.7793,24.1747,140.141,100.28,102.529,0.000808109,0.0448539,21.0013,616.167,-0.186461,0.0,0.0
2220,554.75,22.9826,24.5517,139.509,100.275,103.605,0.000863727,0.044832,21.0013,616.207,-0.274555,0.0,0.0
2225,556,22.7348,24.2846,138.342,100.281,103.181,0.000924283,0.0448483,21.0013,616.227,-0.239557,0.0,0.0
2230,557.25,22.3977,24.2868,143.037,100.273,103.028,0.00093841,0.04488,21.0013,616.227,-0.22779,0.0,0.0
2235,558.5,21.9732,23.9553,140.74,100.28,102.604,0.000934121,0.0448403,21.0013,616.157,-0.192567,0.0,0.0
2240,559.75,22.271,23.9001,142.393,100.281,103.297,0.000926482,0.0448305,21.0013,616.147,-0.249039,0.0,0.0
2245,561,22.5911,24.0276,139.835,100.292,102.38,0.000937276,0.0449138,21.0013,616.167,-0.173155,0.0,0.0
2250,562.25,22.1088,23.7744,139.941,100.266,102.935,0.000970627,0.0450505,21.0007,616.167,-0.220715,0.0,0.0
2255,563.5,22.7432,24.0812,137.012,100.263,102.62,0.00102357,0.0452619,21,616.187,-0.19526,0.0,0.0
2260,564.75,22.4758,24.333,136.807,100.261,102.458,0.00109247,0.0453868,20.9996,616.207,-0.182184,0.0,0.0
2265,566,22.3748,23.4393,139.181,100.241,103.125,0.00115286,0.0454242,20.9994,616.177,-0.23837,0.0,0.0
2270,567.25,22.4392,23.5536,141.753,100.233,102.999,0.00120939,0.0454528,21,616.227,-0.228747,0.0,0.0
2275,568.5,22.3816,23.54,139.282,100.238,102.335,0.00124743,0.0455578,20.9997,616.197,-0.173956,0.0,0.0
2280,569.75,22.2805,23.4949,140.675,100.233,102.947,0.00125758,0.0455323,20.9994,616.167,-0.22452,0.0,0.0
2285,571,22.3419,23.3959,137.152,100.225,102.884,0.00122593,0.0455465,21.0002,616.157,-0.220053,0.0,0.0
2290,572.25,22.389,23.284,140.278,100.193,102.781,0.00114991,0.0455043,21.0007,616.147,-0.214319,0.0,0.0
2295,573.5,22.1741,23.9002,138.278,100.192,102.698,0.00105567,0.0454274,21.0009,616.157,-0.20763,0.0,0.0
2300,574.75,22.1554,23.3079,141.805,100.181,102.863,,0.0454048,,616.137,-0.221968,0.0,0.0
2305,576,22.6063,23.1045,137.28,100.152,103.754,,0.0453523,,616.117,-0.296879,0.0,0.0
2310,577.25,22.4661,24.0783,142.569,100.143,103.31,,,,616.147,-0.261649,0.0,0.0
2315,578.5,21.946,23.4302,137.513,100.135,102.533,,,,616.157,-0.198843,0.0,0.0
2320,579.75,22.8482,23.3039,138.46,100.117,102.943,,,,616.167,-0.233937,0.0,0.0
2325,581,21.7601,23.6397,139.22,100.087,102.893,,,,616.137,-0.23231,0.0,0.0
2330,582.25,22.2057,23.3869,142.169,100.058,102.724,,,,616.137,-0.220907,0.0,0.0
2335,583.5,22.3859,23.2218,138.596,100.05,102.905,,,,616.157,-0.236389,0.0,0.0
2340,584.75,22.5297,23.1522,135.205,100.042,102.726,,,,616.097,-0.222435,0.0,0.0