File: 01_Data/PET/STA/N2/3K_min/PET_STA_N2_3KData_210827_R1.csv
##Temp./Â°C,Time/min,Mass loss(subtr.2)/mg,DSC(subtr.2)/(mW/mg),Sensit./(uV/mW)
50.011,10.01,-0.00493,-0.02443653,0.9977
50.611,12.1617,-0.00467506,-0.00906086,0.99816
51.211,12.8262,-0.005038606,-0.00335532,0.99862
51.811,13.3436,-0.006016506,-0.004182365,0.99908
52.411,13.78956,-0.004601958,0.001913705,0.99953
53.011,14.1921,-0.00593055,0.006900749,0.99998
53.611,14.56829,-0.007114955,0.008601948,1.00042
54.211,14.9216,-0.006178618,0.01021151,1.00086
54.811,15.2556,-0.007896794,0.01339241,1.0013
55.411,15.5744,-0.00732108,0.01489741,1.00173
56.011,15.88055,-0.00757,0.0165814,1.00216
56.611,16.1756,-0.00982201,0.01913313,1.00259
57.211,16.46087,-0.00860454,0.02360902,1.00301
57.811,16.73977,-0.007029314,0.02320492,1.00343
58.411,17.01281,-0.009676759,0.02425377,1.00384
59.011,17.2784,-0.008712041,0.02328557,1.00425
59.611,17.54014,-0.00986983,0.02445904,1.00466
60.211,17.79642,-0.00859082,0.02425055,1.00506
60.811,18.0484,-0.00779009,0.02656979,1.00546
61.411,18.29557,-0.009669064,0.02710083,1.00585
62.011,18.53894,-0.009647315,0.02891683,1.00624
62.611,18.77955,-0.009290896,0.03181286,1.00663
63.211,19.01736,-0.00835717,0.03080171,1.00701
63.811,19.25265,-0.00833364,0.03447108,1.00739
64.411,19.4857,-0.00833183,0.03490754,1.00776
65.011,19.71605,-0.00966043,0.03353801,1.00814
65.611,19.9448,-0.008988165,0.03502724,1.0085
66.211,20.1719,-0.008467973,0.0357889,1.00887
66.811,20.39852,-0.009661983,0.03539065,1.00923
67.411,20.62194,-0.01102952,0.03471146,1.00958
68.011,20.8437,-0.0097587,0.03803028,1.00993
68.611,21.06371,-0.01097011,0.03627727,1.01028
69.211,21.28389,-0.01064012,0.03888503,1.01063
69.811,21.5028,-0.009868976,0.03901564,1.01097
70.411,21.71953,-0.01096973,0.03886527,1.0113
71.011,21.93497,-0.01096975,0.03585927,1.01164
71.611,22.1497,-0.01097004,0.03632222,1.01197
72.211,22.36448,-0.01097349,0.03649536,1.01229
72.811,22.57836,-0.01096971,0.0383626,1.01261
73.411,22.79195,-0.01194719,0.03913336,1.01293
74.011,23.0034,-0.01018022,0.03752858,1.01325
74.611,23.21426,-0.01145937,0.0364706,1.01356
75.211,23.42486,-0.01184894,0.03772889,1.01386
75.811,23.63552,-0.01217131,0.03740029,1.01416
76.411,23.8459,-0.01184127,0.04094115,1.01446
77.011,24.05494,-0.01075,0.04086542,1.01476
77.611,24.2633,-0.01075011,0.04533097,1.01505
78.211,24.47139,-0.01075008,0.04490805,1.01534
78.811,24.67936,-0.0107499,0.04551926,1.01562
79.411,24.88694,-0.01008539,0.05021838,1.0159
80.011,25.09422,-0.01041402,0.05209176,1.01618
80.611,25.30004,-0.01206051,0.05458609,1.01645
81.211,25.50521,-0.01075,0.05194346,1.01672
81.811,25.7099,-0.01272372,0.05373772,1.01699
82.411,25.91405,-0.01338036,0.05378231,1.01725
83.011,26.11853,-0.01305,0.05498716,1.01751
83.611,26.32305,-0.01222995,0.05494967,1.01776
84.211,26.5273,-0.01337131,0.0565262,1.01801
84.811,26.73115,-0.01214724,0.05929981,1.01826
85.411,26.93461,-0.01206002,0.05628502,1.0185
86.011,27.13757,-0.01207,0.05643843,1.01874
86.611,27.3392,-0.01206688,0.05452706,1.01898
87.211,27.5407,-0.01211721,0.05616742,1.01921
87.811,27.74199,-0.01403994,0.05631438,1.01944
88.411,27.94352,-0.01404,0.05839103,1.01966
89.011,28.1444,-0.0130345,0.05690362,1.01988
89.611,28.34484,-0.01440376,0.05800497,1.0201
90.211,28.54484,-0.01305013,0.05624085,1.02031
90.811,28.74413,-0.01270532,0.05641567,1.02052
91.411,28.9447,-0.01305222,0.05527278,1.02073
92.011,29.1447,-0.01175887,0.0535812,1.02093
92.611,29.3432,-0.01306901,0.05616727,1.02113
93.211,29.54223,-0.01305,0.05714554,1.02133
93.811,29.7409,-0.01307273,0.05839154,1.02152
94.411,29.9398,-0.01437064,0.05736539,1.02171
95.011,30.13803,-0.01305605,0.05690245,1.02189
95.611,30.33598,-0.0130636,0.0593512,1.02207
96.211,30.53365,-0.01337998,0.05761529,1.02225
96.811,30.73165,-0.0139753,0.05820832,1.02242
97.411,30.9289,-0.01404,0.06241783,1.0226
98.011,31.12642,-0.01273014,0.06280703,1.02276
98.611,31.3233,-0.01404001,0.06016429,1.02293
99.211,31.5199,-0.01371,0.06079775,1.02308
99.811,31.71653,-0.01503,0.06093915,1.02324
100.411,31.9127,-0.01371999,0.06028937,1.02339
101.011,32.1092,-0.01503,0.06154816,1.02354
101.611,32.30597,-0.01632404,0.06049663,1.02369
102.211,32.5025,-0.01633724,0.06064402,1.02383
102.811,32.698,-0.01635297,0.06164412,1.02397
103.411,32.89355,-0.01372,0.06518508,1.0241
104.011,33.0888,-0.01503,0.0631885,1.02423
104.611,33.28452,-0.01503,0.06160541,1.02436
105.211,33.48035,-0.01348996,0.06524059,1.02448
105.811,33.67559,-0.01448,0.06207882,1.0246
106.411,33.87108,-0.01482595,0.06419454,1.02472
107.011,34.0664,-0.0148,0.06321355,1.02484
107.611,34.26158,-0.01446022,0.06406031,1.02495
108.211,34.45752,-0.01447968,0.06385003,1.02505
108.811,34.6524,-0.01448,0.06323353,1.02515
109.411,34.8476,-0.01552111,0.06306369,1.02525
110.011,35.04225,-0.01447547,0.06143209,1.02535
110.611,35.23669,-0.01414881,0.06288409,1.02544
111.211,35.43142,-0.01448,0.0636463,1.02553
111.811,35.6261,-0.01447822,0.06470776,1.02562
112.411,35.82118,-0.01448,0.06687282,1.0257
113.011,36.016,-0.01317392,0.06653026,1.02578
113.611,36.21025,-0.01448,0.0668113,1.02585
114.211,36.40455,-0.01578958,0.0654624,1.02593
114.811,36.598,-0.01348435,0.06792631,1.02599
115.411,36.7923,-0.01481,0.0641379,1.02606
116.011,36.98682,-0.01481886,0.06470861,1.02612
116.611,37.18197,-0.01368368,0.06285808,1.02618
117.211,37.37748,-0.01481013,0.06176494,1.02623
117.811,37.57246,-0.01448365,0.06496307,1.02628
118.411,37.76701,-0.01448,0.06532858,1.02633
119.011,37.9612,-0.01447843,0.06570834,1.02638
119.611,38.15528,-0.01547085,0.06499103,1.02642
120.211,38.3495,-0.01414992,0.0630405,1.02646
120.811,38.54397,-0.01546,0.0680414,1.02649
121.411,38.7385,-0.0141539,0.06392713,1.02652
122.011,38.93284,-0.01546227,0.06342642,1.02655
122.611,39.12703,-0.01415012,0.06476608,1.02657
123.211,39.321,-0.01415,0.06713613,1.02659
123.811,39.51457,-0.01318602,0.06592741,1.02661
124.411,39.7083,-0.01499873,0.06436188,1.02662
125.011,39.90222,-0.01448,0.06581921,1.02663
125.611,40.09499,-0.01448,0.06434237,1.02664
126.211,40.2888,-0.01380878,0.06763846,1.02665
126.811,40.48213,-0.01578568,0.06874479,1.02665
127.411,40.67592,-0.01451312,0.06567121,1.02664
128.011,40.86983,-0.01448,0.06899114,1.02664
128.611,41.0627,-0.01446829,0.06638735,1.02663
129.211,41.2556,-0.01447255,0.06699355,1.02662
129.811,41.44829,-0.01581166,0.06712854,1.0266
130.411,41.64151,-0.01710959,0.06986642,1.02658
131.011,41.83455,-0.01577447,0.06644025,1.02656
131.611,42.0281,-0.01612,0.07105051,1.02653
132.211,42.2214,-0.01743066,0.0688238,1.02651
132.811,42.41453,-0.01744693,0.07005776,1.02647
133.411,42.6072,-0.01711995,0.06738192,1.02644
134.011,42.79954,-0.01746038,0.06916494,1.0264
134.611,42.99094,-0.01503004,0.06992195,1.02636
135.211,43.18251,-0.01589722,0.06922144,1.02631
135.811,43.37397,-0.0163505,0.07154765,1.02626
136.411,43.5659,-0.01634998,0.06922608,1.02621
137.011,43.75827,-0.01633675,0.07066839,1.02616
137.611,43.95108,-0.01663063,0.07245018,1.0261
138.211,44.14345,-0.01535022,0.07222573,1.02604
138.811,44.3356,-0.01634,0.06962893,1.02597
139.411,44.52768,-0.01634991,0.07001447,1.02591
140.011,44.71991,-0.01799,0.07253687,1.02584
140.611,44.91196,-0.01668,0.07243102,1.02576
141.211,45.1034,-0.01666928,0.06996969,1.02568
141.811,45.295,-0.01664549,0.07218629,1.0256
142.411,45.48604,-0.01536005,0.06918096,1.02552
143.011,45.67767,-0.0147,0.06938884,1.02543
143.611,45.86923,-0.0147,0.07003069,1.02534
144.211,46.06077,-0.01536367,0.06783192,1.02525
144.811,46.252,-0.01535959,0.06896796,1.02516
145.411,46.44307,-0.01603134,0.07104324,1.02506
146.011,46.6342,-0.01534628,0.06868629,1.02495
146.611,46.82447,-0.01535012,0.07069431,1.02485
147.211,47.0155,-0.01666993,0.07109507,1.02474
147.811,47.20554,-0.01536023,0.07269299,1.02463
148.411,47.39609,-0.01535998,0.07300831,1.02451
149.011,47.5867,-0.01666991,0.07086685,1.0244
149.611,47.77669,-0.01799737,0.0703735,1.02427
150.211,47.96713,-0.01808899,0.07131198,1.02415
150.811,48.158,-0.01876298,0.07036169,1.02402
151.411,48.34925,-0.01744,0.07140246,1.02389
152.011,48.54031,-0.01842872,0.07495834,1.02376
152.611,48.73115,-0.01712,0.07153941,1.02362
153.211,48.92196,-0.01744923,0.07172462,1.02348
153.811,49.1128,-0.01786266,0.07237578,1.02334
154.411,49.3041,-0.01644961,0.07121737,1.0232
155.011,49.49535,-0.01777,0.06887106,1.02305
155.611,49.68675,-0.01645003,0.07200927,1.0229
156.211,49.878,-0.01744,0.07228866,1.02274
156.811,50.0691,-0.01744,0.07178633,1.02259
157.411,50.2594,-0.01778657,0.07166787,1.02243
158.011,50.44961,-0.01743668,0.07133137,1.02226
158.611,50.64018,-0.01678,0.07242566,1.0221
159.211,50.83058,-0.01677988,0.0707406,1.02193
159.811,51.02162,-0.01640644,0.07647982,1.02175
160.411,51.2115,-0.01591138,0.07110718,1.02158
161.011,51.4018,-0.01777036,0.07499121,1.0214
161.611,51.5922,-0.01776726,0.07263158,1.02122
162.211,51.78199,-0.01711065,0.07479884,1.02103
162.811,51.9722,-0.01842735,0.07497792,1.02085
163.411,52.16168,-0.01712,0.07603386,1.02066
164.011,52.35105,-0.0170757,0.07447333,1.02046
164.611,52.5412,-0.01678151,0.07824876,1.02027
165.211,52.73115,-0.0167723,0.0738368,1.02007
165.811,52.92139,-0.01721252,0.0739187,1.01987
166.411,53.11166,-0.01846111,0.07489393,1.01966
167.011,53.3018,-0.0181,0.07218618,1.01946
167.611,53.4918,-0.01760211,0.07130239,1.01925
168.211,53.6818,-0.0180644,0.07298279,1.01903
168.811,53.8709,-0.01613031,0.07336619,1.01882
169.411,54.06025,-0.01744195,0.07448613,1.0186
170.011,54.2494,-0.01744,0.07412575,1.01838
170.611,54.43915,-0.01876,0.07357844,1.01815
171.211,54.6288,-0.01776997,0.07257533,1.01792
171.811,54.81859,-0.01481,0.07265734,1.01769
172.411,55.009,-0.01547,0.07313551,1.01746
173.011,55.1991,-0.01677984,0.07279655,1.01722
173.611,55.38945,-0.01710974,0.07357841,1.01699
174.211,55.5792,-0.01678,0.0730586,1.01674
174.811,55.76895,-0.0166809,0.07413928,1.0165
175.411,55.9585,-0.01536866,0.07029014,1.01625
176.011,56.1483,-0.01635018,0.06992357,1.016
176.611,56.3382,-0.0166823,0.0725393,1.01575
177.211,56.52788,-0.01669161,0.0728308,1.01549
177.811,56.71852,-0.01728415,0.07357259,1.01524
178.411,56.9086,-0.01665791,0.07014756,1.01498
179.011,57.0988,-0.01732977,0.06996387,1.01471
179.611,57.28852,-0.01798948,0.0695418,1.01445
180.211,57.4776,-0.01667,0.06914685,1.01418
180.811,57.66704,-0.01560238,0.0721211,1.0139
181.411,57.85655,-0.01536,0.06966685,1.01363
182.011,58.0462,-0.01536137,0.07007666,1.01335
182.611,58.23591,-0.01602,0.07021334,1.01307
183.211,58.42514,-0.01601999,0.06790697,1.01279
183.811,58.61509,-0.01733046,0.06873411,1.0125
184.411,58.80495,-0.01700034,0.06810342,1.01222
185.011,58.995,-0.01598655,0.06810612,1.01192
185.611,59.18496,-0.0165726,0.06984025,1.01163
186.211,59.3748,-0.01634,0.07004951,1.01134
186.811,59.565,-0.01502747,0.06911597,1.01104
187.411,59.7553,-0.01535014,0.07121616,1.01074
188.011,59.9454,-0.01502383,0.06922353,1.01043
188.611,60.1352,-0.01569,0.06806586,1.01012
189.211,60.3252,-0.01569188,0.06639821,1.00981
189.811,60.51474,-0.01569,0.06684687,1.0095
190.411,60.7045,-0.01569,0.06950181,1.00919
191.011,60.8943,-0.01635,0.06964323,1.00887
191.611,61.08361,-0.01535691,0.06806865,1.00855
192.211,61.27398,-0.01602504,0.06833953,1.00823
192.811,61.4639,-0.01567923,0.06843706,1.0079
193.411,61.6538,-0.01546834,0.06887351,1.00758
194.011,61.84346,-0.0146905,0.07090272,1.00725
194.611,62.03289,-0.01536028,0.07093355,1.00691
195.211,62.22234,-0.01535838,0.06886397,1.00658
195.811,62.41179,-0.01536,0.06843419,1.00624
196.411,62.6012,-0.01531722,0.0692019,1.0059
197.011,62.7903,-0.01503,0.06665263,1.00556
197.611,62.9793,-0.01503246,0.06671773,1.00521
198.211,63.16836,-0.01502868,0.06674577,1.00487
198.811,63.3579,-0.01372,0.0692449,1.00452
199.411,63.54713,-0.01502999,0.06728111,1.00416
200.011,63.7364,-0.0150349,0.06589089,1.00381
200.611,63.9259,-0.0147,0.06935259,1.00345
201.211,64.11437,-0.01371,0.06654234,1.00309
201.811,64.3039,-0.01500385,0.066134,1.00273
202.411,64.4926,-0.01371334,0.06512161,1.00236
203.011,64.6816,-0.01503244,0.06571343,1.00199
203.611,64.87111,-0.01637746,0.06809841,1.00162
204.211,65.0609,-0.01635,0.06712433,1.00125
204.811,65.2516,-0.01501396,0.06416652,1.00088
205.411,65.44221,-0.01635602,0.06625228,1.0005
206.011,65.63239,-0.01635,0.06809553,1.00012
206.611,65.82248,-0.01601,0.06767125,0.99974
207.211,66.0122,-0.01601,0.06621399,0.99935
207.811,66.20193,-0.01470002,0.06740321,0.99897
208.411,66.39166,-0.01503,0.06560999,0.99858
209.011,66.58094,-0.01503,0.06545823,0.99818
209.611,66.7705,-0.01607373,0.06551055,0.99779
210.211,66.95961,-0.01602543,0.06661412,0.99739
210.811,67.14923,-0.01502988,0.0674133,0.997
211.411,67.3393,-0.01372631,0.06440603,0.99659
212.011,67.5291,-0.01239942,0.06372194,0.99619
212.611,67.7188,-0.0130596,0.0675183,0.99579
213.211,67.90821,-0.01372036,0.06679662,0.99538
213.811,68.0976,-0.01371833,0.06628442,0.99497
214.411,68.2871,-0.01338267,0.06570271,0.99455
215.011,68.4766,-0.01458979,0.06410855,0.99414
215.611,68.66648,-0.0123325,0.05986936,0.99372
216.211,68.8562,-0.01459694,0.06377141,0.9933
216.811,69.04603,-0.01327146,0.063852,0.99288
217.411,69.23594,-0.01329588,0.06216947,0.99246
218.011,69.4254,-0.01596046,0.06282559,0.99203
218.611,69.61486,-0.01227437,0.06087309,0.9916
219.211,69.80448,-0.01224524,0.06015852,0.99117
219.811,69.99422,-0.01360114,0.06163353,0.99074
220.411,70.18365,-0.01525324,0.06116442,0.9903
221.011,70.3729,-0.01426,0.06239028,0.98986
221.611,70.56227,-0.01426119,0.06266896,0.98942
222.211,70.75147,-0.01288602,0.06560911,0.98898
222.811,70.94083,-0.01293989,0.06188406,0.98854
223.411,71.13024,-0.01392974,0.05788357,0.98809
224.011,71.31973,-0.01426007,0.06208804,0.98764
224.611,71.50882,-0.01426011,0.0596015,0.98719
225.211,71.69838,-0.01422287,0.06163964,0.98674
225.811,71.88835,-0.01557497,0.06103489,0.98629
226.411,72.0782,-0.0129353,0.05919467,0.98583
227.011,72.2683,-0.01294025,0.06587093,0.98537
227.611,72.45817,-0.01418765,0.05956841,0.98491
228.211,72.64817,-0.01426038,0.0637095,0.98444
228.811,72.8381,-0.01492038,0.06184739,0.98398
229.411,73.0279,-0.01425882,0.0631283,0.98351
230.011,73.2179,-0.01592821,0.06186515,0.98304
230.611,73.4074,-0.01491427,0.06116574,0.98257
231.211,73.5969,-0.01492,0.06280823,0.98209
231.811,73.7868,-0.01622346,0.06321745,0.98162
232.411,73.9763,-0.01623407,0.06071641,0.98114
233.011,74.1664,-0.01492808,0.06185815,0.98066
233.611,74.35673,-0.01419859,0.06074863,0.98018
234.211,74.54652,-0.01394002,0.0605476,0.97969
234.811,74.73676,-0.0145921,0.06314437,0.97921
235.411,74.9267,-0.01458879,0.06416844,0.97872
236.011,75.1168,-0.0145763,0.06075847,0.97823
236.611,75.3071,-0.01460664,0.05933763,0.97774
237.211,75.49707,-0.01332093,0.05957923,0.97724
237.811,75.6869,-0.01458992,0.06048614,0.97674
238.411,75.87648,-0.01459087,0.06036482,0.97625
239.011,76.06579,-0.01459184,0.06059826,0.97575
239.611,76.25574,-0.01524969,0.05781883,0.97524
240.211,76.44565,-0.01485083,0.0599491,0.97474
240.811,76.63513,-0.0152747,0.05883047,0.97423
241.411,76.8244,-0.01529503,0.05770971,0.97372
242.011,77.01301,-0.01326517,0.05891928,0.97321
242.611,77.20189,-0.01195735,0.06000186,0.9727
243.211,77.39124,-0.01459587,0.0581868,0.97219
243.811,77.58097,-0.01523905,0.05826693,0.97167
244.411,77.7713,-0.01393,0.0625125,0.97115
245.011,77.96123,-0.01390606,0.06149297,0.97063
245.611,78.15128,-0.01517592,0.06465899,0.97011
246.211,78.34051,-0.01491,0.0608762,0.96959
246.811,78.5297,-0.01490939,0.05981637,0.96906
247.411,78.7192,-0.0152513,0.06062591,0.96853
248.011,78.9089,-0.01525,0.06016572,0.96801
248.611,79.09889,-0.01494747,0.05964651,0.96747
249.211,79.28917,-0.0136,0.05829117,0.96694
249.811,79.47915,-0.012696,0.05868226,0.96641
250.411,79.66894,-0.01578819,0.05884543,0.96587
251.011,79.85862,-0.01490175,0.05698798,0.96533
251.611,80.04852,-0.01491705,0.05830858,0.96479
252.211,80.2386,-0.01591,0.05845501,0.96425
252.811,80.42895,-0.01459,0.06070528,0.96371
253.411,80.61946,-0.01590065,0.05748896,0.96316
254.011,80.8099,-0.0159075,0.05590189,0.96261
254.611,81.00056,-0.01414424,0.05717587,0.96206
255.211,81.19082,-0.01579553,0.05341878,0.96151
255.811,81.38079,-0.01311081,0.05568072,0.96096
256.411,81.57143,-0.01699995,0.05641988,0.9604
257.011,81.76169,-0.01700059,0.05655093,0.95985
257.611,81.95186,-0.01831999,0.05668635,0.95929
258.211,82.14231,-0.01831996,0.05616721,0.95873
258.811,82.33199,-0.0179898,0.05628205,0.95817
259.411,82.5227,-0.01799015,0.05818962,0.95761
260.011,82.7127,-0.01832,0.0587062,0.95704
260.611,82.9033,-0.01832,0.05725879,0.95647
261.211,83.09382,-0.01628946,0.05670681,0.95591
261.811,83.28403,-0.01709408,0.05934774,0.95534
262.411,83.47395,-0.01765998,0.05756857,0.95477
263.011,83.66412,-0.01898568,0.05564089,0.95419
263.611,83.85409,-0.01831033,0.05654919,0.95362
264.211,84.04422,-0.01765951,0.05769027,0.95304
264.811,84.23484,-0.01766,0.05812747,0.95246
265.411,84.42494,-0.01699358,0.05614833,0.95188
266.011,84.61556,-0.01832044,0.05729586,0.9513
266.611,84.80552,-0.0183201,0.05619333,0.95072
267.211,84.99511,-0.01898,0.05924913,0.95013
267.811,85.18499,-0.01965335,0.05962169,0.94955
268.411,85.37499,-0.02002608,0.05843972,0.94896
269.011,85.565,-0.01897829,0.05811701,0.94837
269.611,85.75533,-0.01897077,0.05960622,0.94778
270.211,85.94457,-0.01865,0.05741579,0.94719
270.811,86.13436,-0.01772678,0.05465801,0.94659
271.411,86.32478,-0.01606968,0.0577947,0.946
272.011,86.51496,-0.01730344,0.05989387,0.9454
272.611,86.70595,-0.01760769,0.06216087,0.9448
273.211,86.89628,-0.01896579,0.05901778,0.9442
273.811,87.0868,-0.02027618,0.06101796,0.9436
274.411,87.2775,-0.01799,0.06050672,0.943
275.011,87.4682,-0.008379115,0.05476571,0.94239
275.611,87.65904,-0.01938487,0.05922484,0.94178
276.211,87.84945,-0.01909001,0.05955615,0.94118
276.811,88.04089,-0.01777,0.05709863,0.94057
277.411,88.23196,-0.01843,0.0589779,0.93996
278.011,88.42363,-0.01712183,0.05838167,0.93935
278.611,88.61521,-0.01858238,0.05913122,0.93873
279.211,88.80636,-0.01909909,0.05658103,0.93812
279.811,88.99729,-0.01875167,0.058251,0.9375
280.411,89.18791,-0.02007294,0.05831038,0.93688
281.011,89.37869,-0.02007,0.056594,0.93626
281.611,89.56961,-0.01972387,0.06023272,0.93564
282.211,89.7603,-0.0187374,0.05704564,0.93502
282.811,89.95068,-0.02139485,0.05924546,0.9344
283.411,90.14112,-0.01722054,0.05914617,0.93377
284.011,90.3322,-0.01986021,0.05838449,0.93315
284.611,90.52328,-0.01952798,0.0589867,0.93252
285.211,90.71461,-0.01953,0.05856061,0.93189
285.811,90.9055,-0.01952951,0.05609232,0.93126
286.411,91.09617,-0.01887,0.05762155,0.93063
287.011,91.28686,-0.01954351,0.05980006,0.92999
287.611,91.47784,-0.01884739,0.05944281,0.92936
288.211,91.66852,-0.01886909,0.05434874,0.92872
288.811,91.8592,-0.01821,0.05757697,0.92809
289.411,92.05073,-0.01824684,0.05717879,0.92745
290.011,92.24175,-0.01887104,0.05575301,0.92681
290.611,92.43292,-0.0188813,0.06084097,0.92617
291.211,92.62375,-0.01942411,0.06062207,0.92553
291.811,92.81424,-0.01853253,0.0600382,0.92488
292.411,93.00527,-0.01887016,0.05821303,0.92424
293.011,93.19657,-0.01986126,0.05932739,0.92359
293.611,93.38721,-0.02051,0.05717442,0.92294
294.211,93.5783,-0.02413935,0.05971745,0.9223
294.811,93.7698,-0.01930001,0.05815925,0.92165
295.411,93.9612,-0.02162128,0.05708858,0.92099
296.011,94.15244,-0.01908329,0.05949845,0.92034
296.611,94.3438,-0.02085817,0.05536123,0.91969
297.211,94.53519,-0.02158608,0.05599007,0.91903
297.811,94.7268,-0.02029,0.05443618,0.91838
298.411,94.91845,-0.01955077,0.05488309,0.91772
299.011,95.1099,-0.01953982,0.05201768,0.91706
299.611,95.30142,-0.0239064,0.05456127,0.9164
300.211,95.49285,-0.01464283,0.05343686,0.91574
300.811,95.68382,-0.02140726,0.05512304,0.91508
301.411,95.8751,-0.02007,0.05382571,0.91442
302.011,96.06626,-0.02096096,0.05334331,0.91376
302.611,96.2579,-0.02217675,0.05556323,0.91309
303.211,96.44981,-0.02271,0.05667256,0.91242
303.811,96.64149,-0.02532975,0.05889557,0.91176
304.411,96.83397,-0.02402,0.05833292,0.91109
305.011,97.02596,-0.02402,0.05947418,0.91042
305.611,97.21776,-0.0240631,0.05934681,0.90975
306.211,97.4102,-0.02271,0.06218731,0.90908
306.811,97.60194,-0.02271,0.05846975,0.9084
307.411,97.7932,-0.02271,0.0620088,0.90773
308.011,97.9851,-0.02272809,0.05965304,0.90706
308.611,98.1769,-0.02073008,0.05924986,0.90638
309.211,98.369,-0.02271077,0.06229546,0.9057
309.811,98.56103,-0.02303015,0.0647448,0.90503
310.411,98.753,-0.0234275,0.06255768,0.90435
311.011,98.9448,-0.0227,0.06374398,0.90367
311.611,99.13726,-0.02386993,0.06649193,0.90299
312.211,99.3298,-0.02336085,0.06287844,0.9023
312.811,99.52231,-0.02335668,0.0602815,0.90162
313.411,99.7146,-0.02336485,0.06461413,0.90094
314.011,99.90615,-0.02467165,0.06198772,0.90025
314.611,100.0979,-0.02435001,0.06526539,0.89957
315.211,100.29,-0.02500972,0.05939274,0.89888
315.811,100.481,-0.02534,0.06199779,0.89819
316.411,100.672,-0.02517476,0.06476363,0.8975
317.011,100.864,-0.02632553,0.0634932,0.89681
317.611,101.056,-0.02534,0.06207791,0.89612
318.211,101.248,-0.0253436,0.06254463,0.89543
318.811,101.44,-0.02534,0.06253633,0.89474
319.411,101.6323,-0.02468,0.06619639,0.89404
320.011,101.825,-0.02599846,0.06387826,0.89335
320.611,102.018,-0.02730921,0.06404927,0.89266
321.211,102.211,-0.02731,0.06430654,0.89196
321.811,102.403,-0.02731,0.06439112,0.89126
322.411,102.597,-0.02731,0.06454412,0.89056
323.011,102.789,-0.02731088,0.06279795,0.88987
323.611,102.982,-0.02731001,0.06433454,0.88917
324.211,103.174,-0.02928999,0.06419544,0.88847
324.811,103.367,-0.02929,0.06524196,0.88776
325.411,103.56,-0.02863071,0.06775838,0.88706
326.011,103.752,-0.02961,0.06828733,0.88636
326.611,103.945,-0.02830001,0.06797221,0.88566
327.211,104.137,-0.02829975,0.06172502,0.88495
327.811,104.33,-0.0283,0.06443974,0.88425
328.411,104.523,-0.02961,0.06727755,0.88354
329.011,104.717,-0.02961,0.06516206,0.88283
329.611,104.91,-0.02961,0.06718975,0.88213
330.211,105.103,-0.02954235,0.06764886,0.88142
330.811,105.296,-0.0306,0.06902227,0.88071
331.411,105.489,-0.03060094,0.06930608,0.88
332.011,105.682,-0.03191824,0.06520452,0.87929
332.611,105.875,-0.03323999,0.06349404,0.87858
333.211,106.068,-0.03121378,0.06486626,0.87786
333.811,106.261,-0.03126062,0.0663142,0.87715
334.411,106.4538,-0.03192,0.06783135,0.87644
335.011,106.6472,-0.03210315,0.06570851,0.87572
335.611,106.84,-0.03421969,0.06924871,0.87501
336.211,107.034,-0.0342198,0.06763334,0.87429
336.811,107.227,-0.03423366,0.07035465,0.87358
337.411,107.42,-0.0362,0.0693074,0.87286
338.011,107.613,-0.0362,0.06870842,0.87214
338.611,107.806,-0.0362,0.06966079,0.87143
339.211,107.999,-0.03621105,0.07258664,0.87071
339.811,108.192,-0.03554197,0.07340014,0.86999
340.411,108.385,-0.0380524,0.07514566,0.86927
341.011,108.578,-0.04257509,0.07426549,0.86855
341.611,108.771,-0.03993369,0.07638063,0.86782
342.211,108.9637,-0.03832743,0.07576075,0.8671
342.811,109.157,-0.04142585,0.07672607,0.86638
343.411,109.35,-0.04024999,0.07819863,0.86566
344.011,109.544,-0.04124,0.07593406,0.86493
344.611,109.737,-0.04387389,0.0816744,0.86421
345.211,109.932,-0.04386999,0.0815039,0.86348
345.811,110.126,-0.04519,0.08483682,0.86276
346.411,110.32,-0.04552054,0.08217125,0.86203
347.011,110.515,-0.04580925,0.08161936,0.86131
347.611,110.71,-0.04793852,0.08264513,0.86058
348.211,110.903,-0.04892008,0.08555076,0.85985
348.811,111.096,-0.04978532,0.08561005,0.85912
349.411,111.289,-0.05062521,0.09044759,0.85839
350.011,111.482,-0.05322162,0.08933802,0.85766
350.611,111.675,-0.05205528,0.09118688,0.85694
351.211,111.869,-0.05715163,0.09475521,0.85621
351.811,112.062,-0.05978089,0.0989634,0.85547
352.411,112.257,-0.06109541,0.10251,0.85474
353.011,112.45,-0.06240997,0.10237,0.85401
353.611,112.644,-0.0648887,0.10776,0.85328
354.211,112.837,-0.06636,0.10813,0.85255
354.811,113.03,-0.06899007,0.10927,0.85181
355.411,113.224,-0.07164158,0.11187,0.85108
356.011,113.417,-0.07282327,0.11552,0.85035
356.611,113.611,-0.07755485,0.11878,0.84961
357.211,113.805,-0.07775288,0.12094,0.84888
357.811,113.999,-0.08095192,0.11848,0.84814
358.411,114.1936,-0.08357587,0.12188,0.84741
359.011,114.388,-0.08752992,0.12498,0.84667
359.611,114.583,-0.08952585,0.13062,0.84593
360.211,114.778,-0.09402665,0.13456,0.8452
360.811,114.9723,-0.0981837,0.14157,0.84446
361.411,115.167,-0.10209,0.14665,0.84372
362.011,115.362,-0.10619,0.15329,0.84299
362.611,115.557,-0.11149,0.15574,0.84225
363.211,115.752,-0.1166,0.15977,0.84151
363.811,115.946,-0.12088,0.1712,0.84077
364.411,116.14,-0.12625,0.17667,0.84003
365.011,116.334,-0.13336,0.17848,0.83929
365.611,116.528,-0.13966,0.18715,0.83855
366.211,116.722,-0.14881,0.19106,0.83781
366.811,116.917,-0.1547,0.19435,0.83707
367.411,117.111,-0.16091,0.19988,0.83633
368.011,117.306,-0.17048,0.20799,0.83559
368.611,117.501,-0.17663,0.21655,0.83485
369.211,117.6952,-0.18566,0.22279,0.83411
369.811,117.89,-0.19699,0.23245,0.83336
370.411,118.084,-0.20402,0.23857,0.83262
371.011,118.2784,-0.21887,0.24629,0.83188
371.611,118.473,-0.22934,0.25571,0.83114
372.211,118.668,-0.23687,0.26386,0.8304
372.811,118.863,-0.25337,0.27138,0.82965
373.411,119.059,-0.26695,0.28153,0.82891
374.011,119.255,-0.27675,0.29106,0.82817
374.611,119.451,-0.29627,0.29944,0.82742
375.211,119.6484,-0.3106,0.31111,0.82668
375.811,119.845,-0.32873,0.3233,0.82593
376.411,120.043,-0.34376,0.33032,0.82519
377.011,120.241,-0.36148,0.33866,0.82445
377.611,120.439,-0.38012,0.35207,0.8237
378.211,120.636,-0.39902,0.36005,0.82296
378.811,120.833,-0.42139,0.36979,0.82221
379.411,121.028,-0.44037,0.37868,0.82147
380.011,121.224,-0.46441,0.38363,0.82072
380.611,121.419,-0.48938,0.39518,0.81998
381.211,121.615,-0.51273,0.40501,0.81923
381.811,121.81,-0.53681,0.40957,0.81848
382.411,122.006,-0.56008,0.4209,0.81774
383.011,122.2023,-0.58517,0.42993,0.81699
383.611,122.399,-0.61478,0.44232,0.81625
384.211,122.595,-0.64259,0.45052,0.8155
384.811,122.7905,-0.66925,0.45781,0.81475
385.411,122.986,-0.70042,0.46662,0.81401
386.011,123.181,-0.73255,0.4747,0.81326
386.611,123.377,-0.76291,0.48368,0.81252
387.211,123.5722,-0.79444,0.48435,0.81177
387.811,123.768,-0.82899,0.48983,0.81102
388.411,123.964,-0.86165,0.49638,0.81028
389.011,124.16,-0.89794,0.50243,0.80953
389.611,124.356,-0.93253,0.50738,0.80878
390.211,124.552,-0.97137,0.51398,0.80804
390.811,124.748,-1.01,0.5118,0.80729
391.411,124.944,-1.05025,0.50989,0.80654
392.011,125.14,-1.08892,0.50886,0.8058
392.611,125.335,-1.1265,0.50956,0.80505
393.211,125.531,-1.16535,0.5108,0.80431
393.811,125.726,-1.20523,0.51108,0.80356
394.411,125.922,-1.24647,0.5082,0.80281
395.011,126.118,-1.28668,0.50562,0.80207
395.611,126.315,-1.32907,0.50193,0.80132
396.211,126.511,-1.37032,0.49564,0.80057
396.811,126.708,-1.41317,0.49,0.79983
397.411,126.904,-1.45609,0.48144,0.79908
398.011,127.101,-1.49993,0.47848,0.79833
398.611,127.297,-1.53848,0.46618,0.79759
399.211,127.493,-1.58154,0.4599,0.79684
399.811,127.689,-1.62191,0.45123,0.7961
400.411,127.885,-1.66467,0.44028,0.79535
401.011,128.082,-1.70704,0.42984,0.7946
401.611,128.279,-1.74695,0.41685,0.79386
402.211,128.476,-1.78926,0.40744,0.79311
402.811,128.672,-1.82664,0.39765,0.79237
403.411,128.868,-1.86677,0.38769,0.79162
404.011,129.0646,-1.90637,0.3795,0.79088
404.611,129.261,-1.94592,0.36351,0.79013
405.211,129.458,-1.98521,0.35682,0.78939
405.811,129.654,-2.01973,0.34614,0.78864
406.411,129.851,-2.05891,0.33567,0.7879
407.011,130.047,-2.09495,0.32842,0.78715
407.611,130.244,-2.12964,0.31584,0.78641
408.211,130.44,-2.16589,0.30311,0.78567
408.811,130.637,-2.19921,0.29796,0.78492
409.411,130.833,-2.23292,0.28644,0.78418
410.011,131.028,-2.26579,0.27668,0.78344
410.611,131.224,-2.29864,0.27026,0.78269
411.211,131.42,-2.33331,0.26344,0.78195
411.811,131.616,-2.36344,0.25311,0.78121
412.411,131.8122,-2.39419,0.24541,0.78046
413.011,132.008,-2.42463,0.24321,0.77972
413.611,132.205,-2.45516,0.2346,0.77898
414.211,132.401,-2.48478,0.22686,0.77824
414.811,132.598,-2.51529,0.22045,0.7775
415.411,132.794,-2.54256,0.21521,0.77676
416.011,132.991,-2.57131,0.20816,0.77601
416.611,133.188,-2.60061,0.20224,0.77527
417.211,133.386,-2.6275,0.19512,0.77453
417.811,133.583,-2.65663,0.19189,0.77379
418.411,133.78,-2.68295,0.18624,0.77305
419.011,133.978,-2.70808,0.17942,0.77231
419.611,134.174,-2.73265,0.17612,0.77157
420.211,134.371,-2.75647,0.171,0.77084
420.811,134.5667,-2.78087,0.16758,0.7701
421.411,134.763,-2.80132,0.16041,0.76936
422.011,134.96,-2.82324,0.15502,0.76862
422.611,135.158,-2.84688,0.14564,0.76788
423.211,135.3555,-2.86622,0.13986,0.76714
423.811,135.553,-2.88464,0.13962,0.76641
424.411,135.751,-2.90264,0.12577,0.76567
425.011,135.949,-2.92002,0.1168,0.76494
425.611,136.146,-2.93553,0.1127,0.7642
426.211,136.343,-2.95236,0.10205,0.76346
426.811,136.54,-2.96479,0.09623442,0.76273
427.411,136.737,-2.9771,0.08744253,0.76199
428.011,136.9336,-2.99251,0.08362701,0.76126
428.611,137.1306,-3.00303,0.07761732,0.76053
429.211,137.328,-3.01531,0.07372709,0.75979
429.811,137.525,-3.02681,0.06613502,0.75906
430.411,137.722,-3.03777,0.06311805,0.75833
431.011,137.92,-3.04697,0.05492211,0.75759
431.611,138.118,-3.05667,0.05226293,0.75686
432.211,138.316,-3.06575,0.04878456,0.75613
432.811,138.514,-3.07327,0.04147145,0.7554
433.411,138.712,-3.08099,0.03467713,0.75467
434.011,138.911,-3.08787,0.03505231,0.75394
434.611,139.109,-3.09468,0.03081979,0.75321
435.211,139.307,-3.10069,0.02853526,0.75248
435.811,139.504,-3.10611,0.02173631,0.75175
436.411,139.701,-3.11432,0.01807192,0.75102
437.011,139.897,-3.12012,0.01421579,0.75029
437.611,140.094,-3.12567,0.004148705,0.74957
438.211,140.29,-3.1308,-0.0006333942,0.74884
438.811,140.487,-3.13559,-0.00221749,0.74811
439.411,140.684,-3.14119,-0.002095463,0.74739
440.011,140.881,-3.14525,-0.004781965,0.74666
440.611,141.078,-3.15009,-0.007102995,0.74594
441.211,141.276,-3.15445,-0.0140516,0.74521
441.811,141.473,-3.16197,-0.01140889,0.74449
442.411,141.671,-3.16456,-0.01916358,0.74377
443.011,141.869,-3.16948,-0.02219396,0.74304
443.611,142.0668,-3.17421,-0.02169084,0.74232
444.211,142.264,-3.17584,-0.02729167,0.7416
444.811,142.462,-3.17837,-0.02842387,0.74088
445.411,142.659,-3.18272,-0.02584301,0.74016
446.011,142.857,-3.18711,-0.02775086,0.73944
446.611,143.057,-3.19166,-0.03086807,0.73872
447.211,143.256,-3.19296,-0.03071077,0.738
447.811,143.456,-3.19494,-0.03027702,0.73728
448.411,143.655,-3.19757,-0.04014423,0.73657
449.011,143.853,-3.2016,-0.03537759,0.73585
449.611,144.051,-3.20491,-0.04001642,0.73513
450.211,144.249,-3.20623,-0.03816842,0.73442
450.811,144.4478,-3.20823,-0.03620569,0.7337
451.411,144.646,-3.21206,-0.04023198,0.73299
452.011,144.845,-3.21096,-0.04514468,0.73227
452.611,145.043,-3.21424,-0.04249186,0.73156
453.211,145.241,-3.2149,-0.04154748,0.73085
453.811,145.44,-3.21732,-0.03969722,0.73014
454.411,145.638,-3.21961,-0.03952051,0.72942
455.011,145.836,-3.22083,-0.03663802,0.72871
455.611,146.034,-3.22083,-0.04031194,0.728
456.211,146.232,-3.22419,-0.03779563,0.72729
456.811,146.43,-3.2274,-0.0353028,0.72659
457.411,146.627,-3.22871,-0.03594179,0.72588
458.011,146.825,-3.22741,-0.03645585,0.72517
458.611,147.023,-3.22866,-0.03628951,0.72446
459.211,147.221,-3.23069,-0.03131017,0.72376
459.811,147.42,-3.23333,-0.03143255,0.72305
460.411,147.618,-3.23292,-0.03084028,0.72235
461.011,147.817,-3.23432,-0.02993499,0.72164
461.611,148.015,-3.23577,-0.03075726,0.72094
462.211,148.2131,-3.23761,-0.03133819,0.72024
462.811,148.412,-3.23893,-0.03321369,0.71954
463.411,148.61,-3.24089,-0.03034283,0.71884
464.011,148.809,-3.24155,-0.02992609,0.71814
464.611,149.008,-3.24024,-0.03142913,0.71744
465.211,149.207,-3.24288,-0.03586417,0.71674
465.811,149.405,-3.24288,-0.03205898,0.71604
466.411,149.6043,-3.24419,-0.03579712,0.71534
467.011,149.803,-3.24552,-0.03275432,0.71465
467.611,150.002,-3.24551,-0.0285038,0.71395
468.211,150.202,-3.24682,-0.02841693,0.71325
468.811,150.4,-3.24816,-0.02329946,0.71256
469.411,150.599,-3.24819,-0.02328916,0.71187
470.011,150.797,-3.25011,-0.02427411,0.71117
470.611,150.995,-3.25076,-0.02049085,0.71048
471.211,151.194,-3.25076,-0.02101338,0.70979
471.811,151.393,-3.25208,-0.01920691,0.7091
472.411,151.592,-3.25274,-0.02246537,0.70841
473.011,151.792,-3.25242,-0.02039724,0.70772
473.611,151.991,-3.25317,-0.01697294,0.70704
474.211,152.19,-3.25405,-0.02537035,0.70635
474.811,152.388,-3.25405,-0.02283677,0.70566
475.411,152.586,-3.25471,-0.02309474,0.70498
476.011,152.785,-3.25472,-0.02157206,0.70429
476.611,152.984,-3.25679,-0.02081612,0.70361
477.211,153.183,-3.25538,-0.02147949,0.70293
477.811,153.382,-3.25604,-0.02194935,0.70224
478.411,153.581,-3.25866,-0.02037461,0.70156
479.011,153.781,-3.25731,-0.02031992,0.70088
479.611,153.98,-3.25866,-0.02402218,0.7002
480.211,154.179,-3.25866,-0.02279788,0.69952
480.811,154.377,-3.25998,-0.02075253,0.69885
481.411,154.575,-3.25899,-0.02132664,0.69817
482.011,154.774,-3.25999,-0.02470541,0.69749
482.611,154.9728,-3.26169,-0.025568,0.69682
483.211,155.172,-3.26261,-0.02575912,0.69614
483.811,155.371,-3.26163,-0.02895057,0.69547
484.411,155.5691,-3.26028,-0.03234664,0.6948
485.011,155.767,-3.26305,-0.03257836,0.69413
485.611,155.965,-3.26176,-0.03192514,0.69346
486.211,156.1634,-3.26173,-0.03364621,0.69279
486.811,156.362,-3.26404,-0.03551888,0.69212
487.411,156.5608,-3.26337,-0.03637977,0.69145
488.011,156.761,-3.26338,-0.04001593,0.69078
488.611,156.961,-3.26469,-0.04375901,0.69012
489.211,157.16,-3.26535,-0.04420485,0.68945
489.811,157.36,-3.26404,-0.04149907,0.68879
490.411,157.559,-3.26536,-0.04878015,0.68813
491.011,157.757,-3.26438,-0.04377854,0.68746
491.611,157.955,-3.26437,-0.05044221,0.6868
492.211,158.154,-3.267,-0.04304279,0.68614
492.811,158.353,-3.26639,-0.0459278,0.68548
493.411,158.552,-3.2669,-0.04964809,0.68483
494.011,158.751,-3.26577,-0.05012833,0.68417
494.611,158.949,-3.26682,-0.04944197,0.68351
495.211,159.148,-3.2681,-0.04612195,0.68286
495.811,159.347,-3.26692,-0.04679966,0.6822
496.411,159.547,-3.26744,-0.04911273,0.68155
497.011,159.746,-3.26748,-0.04984187,0.6809
497.611,159.945,-3.26744,-0.04520766,0.68024
498.211,160.145,-3.26779,-0.04804753,0.67959
498.811,160.345,-3.26711,-0.04838784,0.67895
499.411,160.544,-3.26714,-0.04645534,0.6783
500.011,160.743,-3.26906,-0.05173192,0.67765
500.611,160.94,-3.26809,-0.04971487,0.677
501.211,161.138,-3.26941,-0.04972589,0.67636
501.811,161.337,-3.26941,-0.050579,0.67571
502.411,161.537,-3.27006,-0.04909383,0.67507
503.011,161.737,-3.27106,-0.04698325,0.67443
503.611,161.938,-3.26975,-0.04661488,0.67379
504.211,162.14,-3.27106,-0.04498111,0.67315
504.811,162.341,-3.27204,-0.04529538,0.67251
505.411,162.541,-3.27074,-0.04539018,0.67187
506.011,162.741,-3.27041,-0.04327145,0.67123
506.611,162.941,-3.27041,-0.04355095,0.6706
507.211,163.141,-3.27074,-0.04837286,0.66996
507.811,163.34,-3.27106,-0.04642859,0.66933
508.411,163.54,-3.27106,-0.04779744,0.6687
509.011,163.7403,-3.27172,-0.04906577,0.66806
509.611,163.9404,-3.27174,-0.04882147,0.66743
510.211,164.14,-3.27171,-0.04884938,0.6668
510.811,164.34,-3.27039,-0.04764484,0.66618
511.411,164.54,-3.26974,-0.0482549,0.66555
512.011,164.74,-3.27205,-0.05219414,0.66492
512.611,164.94,-3.27205,-0.05314284,0.6643
513.211,165.14,-3.27271,-0.05202199,0.66367
513.811,165.34,-3.27271,-0.05019197,0.66305
514.411,165.54,-3.27271,-0.05262154,0.66243
515.011,165.74,-3.27238,-0.05140102,0.66181
515.611,165.94,-3.27238,-0.05080258,0.66119
516.211,166.14,-3.2737,-0.05254632,0.66057
516.811,166.34,-3.2737,-0.05380141,0.65995
517.411,166.54,-3.27403,-0.05355282,0.65934
518.011,166.741,-3.27534,-0.05688241,0.65872
518.611,166.94,-3.27436,-0.05486542,0.65811
519.211,167.141,-3.27465,-0.05062519,0.6575
519.811,167.341,-3.275,-0.05336891,0.65688
520.411,167.543,-3.27567,-0.05054628,0.65627
521.011,167.744,-3.27567,-0.05212096,0.65566
521.611,167.946,-3.27578,-0.05383095,0.65506
522.211,168.147,-3.27578,-0.05529546,0.65445
522.811,168.349,-3.27578,-0.05551614,0.65384
523.411,168.549,-3.27578,-0.05667348,0.65324
524.011,168.75,-3.27607,-0.05309778,0.65264
524.611,168.949,-3.2771,-0.05215156,0.65203
525.211,169.149,-3.2771,-0.05404921,0.65143
525.811,169.348,-3.2771,-0.05688214,0.65083
526.411,169.548,-3.27775,-0.05674888,0.65023
527.011,169.7479,-3.27774,-0.05113444,0.64964
527.611,169.948,-3.27674,-0.05359049,0.64904
528.211,170.149,-3.27677,-0.0535014,0.64844
528.811,170.351,-3.27709,-0.04770452,0.64785
529.411,170.552,-3.27806,-0.04959211,0.64726
530.011,170.7541,-3.27933,-0.04903265,0.64667
530.611,170.956,-3.27838,-0.05226595,0.64608
531.211,171.157,-3.27841,-0.05382029,0.64549
531.811,171.359,-3.27841,-0.05515403,0.6449
532.411,171.561,-3.28203,-0.05252928,0.64431
533.011,171.762,-3.2794,-0.05339581,0.64373
533.611,171.964,-3.28104,-0.05555619,0.64314
534.211,172.165,-3.28104,-0.05712712,0.64256
534.811,172.366,-3.28137,-0.05656309,0.64198
535.411,172.567,-3.28137,-0.06303647,0.6414
536.011,172.768,-3.28038,-0.05921002,0.64082
536.611,172.969,-3.2817,-0.06251736,0.64024
537.211,173.17,-3.28071,-0.06375574,0.63966
537.811,173.372,-3.28225,-0.0627932,0.63909
538.411,173.573,-3.28225,-0.06570283,0.63851
539.011,173.775,-3.28194,-0.06208032,0.63794
539.611,173.978,-3.28291,-0.0637182,0.63737
540.211,174.18,-3.2829,-0.06681976,0.6368
540.811,174.381,-3.28389,-0.06515762,0.63623
541.411,174.583,-3.28389,-0.06768396,0.63566
542.011,174.785,-3.28526,-0.06732041,0.63509
542.611,174.9858,-3.28457,-0.06835956,0.63453
543.211,175.187,-3.28466,-0.07085393,0.63396
543.811,175.388,-3.284,-0.06555691,0.6334
544.411,175.589,-3.284,-0.06625266,0.63284
545.011,175.7894,-3.28797,-0.06396044,0.63228
545.611,175.99,-3.28664,-0.06948178,0.63172
546.211,176.192,-3.28664,-0.06577503,0.63116
546.811,176.394,-3.28697,-0.06342642,0.63061
547.411,176.596,-3.28828,-0.06288043,0.63005
548.011,176.798,-3.28967,-0.06513721,0.6295
548.611,177.001,-3.28795,-0.05735921,0.62894
549.211,177.203,-3.28795,-0.061598,0.62839
549.811,177.405,-3.28795,-0.0576922,0.62784
550.411,177.607,-3.28795,-0.05857939,0.62729
551.011,177.809,-3.28854,-0.05550464,0.62675
551.611,178.011,-3.28927,-0.0593206,0.6262
552.211,178.213,-3.29056,-0.06071677,0.62566
552.811,178.415,-3.29199,-0.05490302,0.62511
553.411,178.616,-3.29222,-0.06201127,0.62457
554.011,178.817,-3.29223,-0.06350451,0.62403
554.611,179.019,-3.29321,-0.05966717,0.62349
555.211,179.22,-3.29058,-0.06071272,0.62295
555.811,179.422,-3.29025,-0.05756977,0.62242
556.411,179.624,-3.2915,-0.05880035,0.62188
557.011,179.825,-3.29097,-0.0591793,0.62135
557.611,180.0261,-3.29257,-0.05556848,0.62081
558.211,180.227,-3.29256,-0.06361659,0.62028
558.811,180.428,-3.29422,-0.06379362,0.61975
559.411,180.631,-3.29261,-0.06467979,0.61922
560.011,180.833,-3.29387,-0.06014314,0.6187
560.611,181.036,-3.29388,-0.05867676,0.61817
561.211,181.238,-3.29452,-0.05838007,0.61764
561.811,181.44,-3.29585,-0.06060783,0.61712
562.411,181.642,-3.29453,-0.05653218,0.6166
563.011,181.843,-3.29585,-0.05580448,0.61608
563.611,182.045,-3.29523,-0.0581542,0.61556
564.211,182.247,-3.29684,-0.05684052,0.61504
564.811,182.45,-3.29585,-0.05513593,0.61452
565.411,182.6512,-3.29519,-0.06385546,0.61401
566.011,182.853,-3.29651,-0.05805921,0.6135
566.611,183.055,-3.29658,-0.064408,0.61298
567.211,183.2573,-3.29585,-0.0610695,0.61247
567.811,183.459,-3.29849,-0.066406,0.61196
568.411,183.661,-3.29716,-0.06205373,0.61145
569.011,183.862,-3.29782,-0.06365914,0.61095
569.611,184.064,-3.29749,-0.06426571,0.61044
570.211,184.265,-3.29652,-0.06317274,0.60994
570.811,184.467,-3.29651,-0.06290268,0.60944
571.411,184.669,-3.29782,-0.06294532,0.60893
572.011,184.872,-3.29687,-0.05850555,0.60843
572.611,185.075,-3.29684,-0.06015917,0.60794
573.211,185.2779,-3.29783,-0.06079706,0.60744
573.811,185.481,-3.29948,-0.0586075,0.60694
574.411,185.683,-3.29684,-0.05941918,0.60645
575.011,185.885,-3.29947,-0.05362452,0.60596
575.611,186.086,-3.29816,-0.05336237,0.60546
576.211,186.288,-3.29947,-0.05345162,0.60497
576.811,186.49,-3.29815,-0.0559804,0.60448
577.411,186.693,-3.29947,-0.05297071,0.604
578.011,186.896,-3.29947,-0.05591709,0.60351
578.611,187.1,-3.2998,-0.05271391,0.60303
579.211,187.303,-3.29926,-0.05591829,0.60254
579.811,187.505,-3.29947,-0.05293341,0.60206
580.411,187.708,-3.30129,-0.04923887,0.60158
581.011,187.911,-3.30189,-0.04658707,0.6011
581.611,188.114,-3.30024,-0.04683651,0.60063
582.211,188.317,-3.30002,-0.04798024,0.60015
582.811,188.52,-3.30134,-0.04389023,0.59968
583.411,188.722,-3.30134,-0.04055431,0.5992
584.011,188.925,-3.30276,-0.03775834,0.59873
584.611,189.129,-3.30145,-0.03765908,0.59826
585.211,189.332,-3.3023,-0.0333677,0.59779
585.811,189.535,-3.30046,-0.03238059,0.59732
586.411,189.738,-3.30175,-0.03525149,0.59686
587.011,189.94,-3.30177,-0.02815117,0.59639
587.611,190.142,-3.30348,-0.02316292,0.59593
588.211,190.345,-3.30342,-0.0260866,0.59547
588.811,190.548,-3.30231,-0.02462193,0.59501
589.411,190.7509,-3.30309,-0.02046182,0.59455
590.011,190.953,-3.30177,-0.02251721,0.59409
590.611,191.155,-3.30304,-0.02215985,0.59364
591.211,191.358,-3.30243,-0.01780326,0.59318
591.811,191.56,-3.30374,-0.0226626,0.59273
592.411,191.763,-3.30243,-0.0173064,0.59228
593.011,191.965,-3.3044,-0.0179196,0.59183
593.611,192.166,-3.3044,-0.01520507,0.59138
594.211,192.369,-3.30439,-0.01977859,0.59093
594.811,192.571,-3.30441,-0.01531125,0.59049
595.411,192.774,-3.30539,-0.0098639,0.59004
596.011,192.978,-3.30542,-0.01569362,0.5896
596.611,193.182,-3.30473,-0.01076751,0.58916
597.211,193.386,-3.30474,-0.01179044,0.58872
597.811,193.5891,-3.30506,-0.0073693,0.58828
598.411,193.792,-3.30603,-0.009616557,0.58785
599.011,193.996,-3.30473,-0.005785285,0.58741
599.611,194.2,-3.30375,-0.000774386,0.58698
600.211,194.404,-3.30605,-0.0007701977,0.58654
600.811,194.607,-3.30373,0.00258297,0.58611
601.411,194.81,-3.31424,-0.0017728,0.58568
602.011,195.013,-3.30644,-0.002799593,0.58526
602.611,195.216,-3.30572,0.0007377452,0.58483
603.211,195.419,-3.30732,-0.00276335,0.5844
603.811,195.623,-3.30603,-0.004351777,0.58398
604.411,195.826,-3.30539,4.846045e-05,0.58356
605.011,196.029,-3.30769,-0.0005508196,0.58314
605.611,196.232,-3.30674,-0.001775765,0.58272
606.211,196.4338,-3.30626,0.003248557,0.5823
606.811,196.637,-3.30622,0.0007886338,0.58188
607.411,196.84,-3.3089,0.001810854,0.58147
608.011,197.044,-3.30749,0.004614369,0.58106
608.611,197.247,-3.30848,0.00671784,0.58065
609.211,197.45,-3.30791,0.005015399,0.58023
609.811,197.652,-3.30791,-0.000665796,0.57983
610.411,197.855,-3.30791,-0.00217205,0.57942
611.011,198.058,-3.3066,0.00296182,0.57901
611.611,198.261,-3.31022,0.0036113,0.57861
612.211,198.465,-3.30888,0.00358044,0.57821
612.811,198.67,-3.30956,0.002555644,0.5778
613.411,198.874,-3.30891,-0.001695954,0.57741
614.011,199.078,-3.30759,0.001719715,0.57701
614.611,199.282,-3.31052,-9.077044e-05,0.57661
615.211,199.486,-3.31,0.001775857,0.57621
615.811,199.689,-3.30732,0.00131936,0.57582
616.411,199.891,-3.30945,0.0008571906,0.57543
617.011,200.094,-3.31107,-0.002386511,0.57504
617.611,200.298,-3.3111,0.0005215148,0.57465
618.211,200.5015,-3.31044,0.004812816,0.57426
618.811,200.705,-3.31176,0.00351108,0.57387
619.411,200.908,-3.30978,2.833903e-05,0.57349
620.011,201.111,-3.31209,0.003310895,0.57311
620.611,201.314,-3.31209,0.006567857,0.57273
621.211,201.517,-3.31339,0.003851077,0.57234
621.811,201.721,-3.31373,0.004576124,0.57197
622.411,201.925,-3.31297,0.009381492,0.57159
623.011,202.129,-3.31307,0.0123198,0.57121
623.611,202.3329,-3.31439,0.007795396,0.57084
624.211,202.536,-3.31243,0.00737191,0.57047
624.811,202.7398,-3.31273,0.01179911,0.57009
625.411,202.944,-3.31407,0.01078995,0.56973
626.011,203.149,-3.31406,0.01004651,0.56936
626.611,203.354,-3.32047,0.01350779,0.56899
627.211,203.558,-3.31373,0.007495035,0.56863
627.811,203.763,-3.31261,0.00741325,0.56826
628.411,203.966,-3.3049,0.00792513,0.5679
629.011,204.17,-3.31571,0.01032618,0.56754
629.611,204.374,-3.31429,0.01178372,0.56718
630.211,204.578,-3.31439,0.01722355,0.56682
630.811,204.7809,-3.31503,0.01493867,0.56647
631.411,204.983,-3.31678,0.01550184,0.56611
632.011,205.187,-3.3157,0.02199041,0.56576
632.611,205.3909,-3.31702,0.02278712,0.56541
633.211,205.5953,-3.31438,0.01926334,0.56506
633.811,205.799,-3.3157,0.01952927,0.56471
634.411,206.003,-3.31576,0.01985421,0.56436
635.011,206.208,-3.3157,0.02272859,0.56402
635.611,206.412,-3.31669,0.02012048,0.56367
636.211,206.616,-3.31537,0.02435739,0.56333
636.811,206.821,-3.3157,0.02548354,0.56299
637.411,207.025,-3.31695,0.02473502,0.56265
638.011,207.229,-3.31647,0.0287846,0.56231
638.611,207.434,-3.31893,0.02116413,0.56197
639.211,207.638,-3.31647,0.02287828,0.56164
639.811,207.842,-3.31612,0.02160798,0.56131
640.411,208.047,-3.31745,0.02142188,0.56097
641.011,208.251,-3.31879,0.02815089,0.56064
641.611,208.455,-3.31748,0.02408913,0.56031
642.211,208.659,-3.31943,0.02578116,0.55999
642.811,208.864,-3.31712,0.02338616,0.55966
643.411,209.0672,-3.31712,0.02776936,0.55934
644.011,209.271,-3.31812,0.02767448,0.55901
644.611,209.473,-3.31844,0.0257105,0.55869
645.211,209.6765,-3.31844,0.03031933,0.55837
645.811,209.879,-3.31977,0.03229715,0.55806
646.111,209.9822,-3.31976,0.03177498,0.5579