File: 01_Data/Cotton_Felt/STA/N2/3K_min/Cotton_Felt_STA_N2_3KData_210716_R1.csv
##Temp./Â°C,Time/min,Mass loss(subtr.2)/mg,DSC(subtr.2)/(mW/mg),Sensit./(uV/mW)
48.915,10.01667,-0.06833,0.05475835,0.5841
49.515,12.12151,-0.07432494,0.07148767,0.58438
50.115,12.72222,-0.07735776,0.0809151,0.58467
50.715,13.18617,-0.07861243,0.09065797,0.58495
51.315,13.59501,-0.08089633,0.09487978,0.58523
51.915,13.96771,-0.07462198,0.10064,0.58551
52.515,14.31409,-0.08205012,0.10544,0.58579
53.115,14.6407,-0.08357822,0.10955,0.58607
53.715,14.95196,-0.08391385,0.11319,0.58635
54.315,15.2531,-0.08648157,0.11575,0.58662
54.915,15.54297,-0.08620736,0.11976,0.5869
55.515,15.82533,-0.08677204,0.12372,0.58717
56.115,16.09918,-0.08683184,0.12558,0.58745
56.715,16.36552,-0.08620003,0.12807,0.58772
57.315,16.62525,-0.09015571,0.13165,0.58799
57.915,16.88056,-0.09151581,0.13486,0.58826
58.515,17.13222,-0.09247114,0.13811,0.58854
59.115,17.37925,-0.09246004,0.13909,0.5888
59.715,17.62339,-0.09247665,0.14253,0.58907
60.315,17.86475,-0.09515038,0.14465,0.58934
60.915,18.1016,-0.09600757,0.14688,0.58961
61.515,18.3361,-0.09704117,0.15042,0.58987
62.115,18.568,-0.09616362,0.15099,0.59014
62.715,18.79726,-0.09763334,0.15202,0.5904
63.315,19.02446,-0.09969448,0.15277,0.59066
63.915,19.24917,-0.09909505,0.15646,0.59093
64.515,19.4733,-0.10022,0.15773,0.59119
65.115,19.69518,-0.10134,0.16119,0.59145
65.715,19.91628,-0.10431,0.16169,0.5917
66.315,20.13577,-0.103,0.16202,0.59196
66.915,20.35445,-0.1049,0.16624,0.59222
67.515,20.57206,-0.10694,0.16668,0.59248
68.115,20.78815,-0.10776,0.16795,0.59273
68.715,21.00362,-0.10835,0.16639,0.59299
69.315,21.21866,-0.11033,0.169,0.59324
69.915,21.43184,-0.11221,0.17263,0.59349
70.515,21.64441,-0.11329,0.16997,0.59374
71.115,21.85581,-0.1155,0.17171,0.59399
71.715,22.06804,-0.11548,0.17361,0.59424
72.315,22.27945,-0.1156,0.17461,0.59449
72.915,22.4886,-0.11682,0.17538,0.59474
73.515,22.69774,-0.11782,0.1744,0.59499
74.115,22.90665,-0.11803,0.17535,0.59523
74.715,23.11506,-0.12076,0.17656,0.59548
75.315,23.32329,-0.1215,0.17588,0.59572
75.915,23.53102,-0.12197,0.17351,0.59596
76.515,23.73799,-0.1246,0.17363,0.5962
77.115,23.9454,-0.13413,0.17705,0.59645
77.715,24.1509,-0.12449,0.17672,0.59669
78.315,24.35781,-0.12668,0.17596,0.59692
78.915,24.56268,-0.13271,0.1768,0.59716
79.515,24.76839,-0.12851,0.17708,0.5974
80.115,24.97234,-0.12962,0.17692,0.59764
80.715,25.17615,-0.13164,0.17729,0.59787
81.315,25.3806,-0.13239,0.17458,0.59811
81.915,25.58488,-0.13274,0.17464,0.59834
82.515,25.78908,-0.13404,0.17523,0.59857
83.115,25.99261,-0.1347,0.1758,0.5988
83.715,26.19604,-0.1347,0.17578,0.59903
84.315,26.3988,-0.13826,0.17697,0.59926
84.915,26.6017,-0.138,0.17352,0.59949
85.515,26.804,-0.13861,0.17462,0.59972
86.115,27.0055,-0.13996,0.17465,0.59995
86.715,27.20665,-0.13995,0.17321,0.60017
87.315,27.40728,-0.14064,0.17462,0.6004
87.915,27.60792,-0.1432,0.17161,0.60062
88.515,27.809,-0.14433,0.17076,0.60084
89.115,28.00971,-0.14584,0.16928,0.60106
89.715,28.2094,-0.14589,0.16993,0.60129
90.315,28.40917,-0.1472,0.17033,0.60151
90.915,28.60833,-0.14793,0.16812,0.60172
91.515,28.80726,-0.14744,0.16862,0.60194
92.115,29.0062,-0.14951,0.16984,0.60216
92.715,29.2039,-0.14852,0.16724,0.60238
93.315,29.4019,-0.14971,0.16863,0.60259
93.915,29.59947,-0.15005,0.16551,0.60281
94.515,29.79706,-0.15134,0.16354,0.60302
95.115,29.9939,-0.14907,0.1632,0.60323
95.715,30.1905,-0.15273,0.16244,0.60344
96.315,30.38727,-0.15332,0.16188,0.60365
96.915,30.58366,-0.15181,0.16205,0.60386
97.515,30.7792,-0.15313,0.16326,0.60407
98.115,30.97454,-0.15429,0.16022,0.60428
98.715,31.17036,-0.15411,0.15968,0.60449
99.315,31.36615,-0.15411,0.15795,0.60469
99.915,31.56192,-0.15431,0.15798,0.6049
100.515,31.7571,-0.15366,0.15679,0.6051
101.115,31.9526,-0.15456,0.15545,0.6053
101.715,32.1482,-0.15456,0.15566,0.6055
102.315,32.34368,-0.15551,0.15449,0.60571
102.915,32.53857,-0.15422,0.15473,0.60591
103.515,32.73363,-0.15455,0.15345,0.6061
104.115,32.92783,-0.15586,0.15369,0.6063
104.715,33.12127,-0.15818,0.15338,0.6065
105.315,33.3159,-0.15674,0.15279,0.6067
105.915,33.50999,-0.15543,0.15235,0.60689
106.515,33.7045,-0.15687,0.15138,0.60709
107.115,33.89915,-0.15411,0.15198,0.60728
107.715,34.09296,-0.15433,0.15192,0.60747
108.315,34.28747,-0.15564,0.15135,0.60766
108.915,34.48113,-0.15561,0.15113,0.60785
109.515,34.67508,-0.15564,0.1498,0.60804
110.115,34.86885,-0.15664,0.15078,0.60823
110.715,35.0625,-0.15532,0.15017,0.60842
111.315,35.25693,-0.1566,0.1506,0.6086
111.915,35.45071,-0.15647,0.14813,0.60879
112.515,35.64505,-0.15684,0.14782,0.60898
113.115,35.83918,-0.15718,0.14668,0.60916
113.715,36.0331,-0.15554,0.14831,0.60934
114.315,36.22726,-0.15685,0.14537,0.60952
114.915,36.4213,-0.15521,0.14522,0.6097
115.515,36.61525,-0.15786,0.14438,0.60988
116.115,36.80862,-0.15789,0.14251,0.61006
116.715,37.0023,-0.15652,0.14403,0.61024
117.315,37.19526,-0.15654,0.14348,0.61042
117.915,37.38919,-0.15521,0.14487,0.61059
118.515,37.5828,-0.15781,0.1456,0.61077
119.115,37.7763,-0.15645,0.14569,0.61094
119.715,37.9701,-0.15523,0.14592,0.61112
120.315,38.16304,-0.15733,0.14386,0.61129
120.915,38.3566,-0.15683,0.1428,0.61146
121.515,38.54991,-0.15488,0.14585,0.61163
122.115,38.74371,-0.15619,0.14324,0.6118
122.715,38.9375,-0.15612,0.14299,0.61197
123.315,39.13089,-0.1574,0.14441,0.61213
123.915,39.3239,-0.15719,0.14463,0.6123
124.515,39.51627,-0.15551,0.1459,0.61247
125.115,39.70888,-0.15542,0.14268,0.61263
125.715,39.90126,-0.15548,0.1429,0.61279
126.315,40.09415,-0.15738,0.14516,0.61296
126.915,40.28675,-0.1577,0.14633,0.61312
127.515,40.47905,-0.15764,0.14809,0.61328
128.115,40.67119,-0.15743,0.14512,0.61344
128.715,40.86334,-0.15801,0.14959,0.6136
129.315,41.05529,-0.14761,0.14833,0.61376
129.915,41.2473,-0.156,0.1492,0.61391
130.515,41.43934,-0.15642,0.14916,0.61407
131.115,41.63113,-0.15575,0.14776,0.61422
131.715,41.82275,-0.15574,0.14771,0.61438
132.315,42.0149,-0.1588,0.14665,0.61453
132.915,42.2071,-0.15614,0.14748,0.61468
133.515,42.39918,-0.15695,0.14743,0.61483
134.115,42.59044,-0.15563,0.14719,0.61498
134.715,42.7812,-0.15559,0.14821,0.61513
135.315,42.97234,-0.15598,0.14667,0.61528
135.915,43.1631,-0.15593,0.14643,0.61543
136.515,43.3542,-0.16337,0.14733,0.61558
137.115,43.54564,-0.15593,0.1473,0.61572
137.715,43.737,-0.15509,0.14783,0.61587
138.315,43.9293,-0.15641,0.14597,0.61601
138.915,44.12194,-0.15569,0.14574,0.61615
139.515,44.31381,-0.15576,0.14708,0.61629
140.115,44.50472,-0.1561,0.14721,0.61643
140.715,44.69441,-0.15544,0.14698,0.61657
141.315,44.884,-0.15479,0.14731,0.61671
141.915,45.07369,-0.15575,0.14842,0.61685
142.515,45.26335,-0.15578,0.14922,0.61699
143.115,45.45302,-0.15444,0.14978,0.61712
143.715,45.64201,-0.15852,0.15253,0.61726
144.315,45.83125,-0.15781,0.15189,0.61739
144.915,46.02146,-0.15774,0.1539,0.61752
145.515,46.21158,-0.15852,0.15111,0.61766
146.115,46.40224,-0.15706,0.1526,0.61779
146.715,46.59206,-0.15575,0.15539,0.61792
147.315,46.78085,-0.15692,0.15717,0.61805
147.915,46.97023,-0.15707,0.15714,0.61817
148.515,47.1591,-0.15806,0.15606,0.6183
149.115,47.34839,-0.15675,0.1537,0.61843
149.715,47.53774,-0.15641,0.15492,0.61855
150.315,47.7273,-0.15641,0.15496,0.61868
150.915,47.9165,-0.15641,0.15388,0.6188
151.515,48.10536,-0.1551,0.15783,0.61892
152.115,48.2945,-0.15549,0.15867,0.61904
152.715,48.4833,-0.1551,0.15876,0.61917
153.315,48.67228,-0.15793,0.15736,0.61928
153.915,48.8615,-0.15522,0.15966,0.6194
154.515,49.0505,-0.15618,0.16056,0.61952
155.115,49.23912,-0.16431,0.15938,0.61964
155.715,49.4282,-0.15475,0.16184,0.61975
156.315,49.61663,-0.15444,0.16001,0.61987
156.915,49.80518,-0.1551,0.1599,0.61998
157.515,49.9936,-0.1551,0.1596,0.6201
158.115,50.182,-0.1551,0.15961,0.62021
158.715,50.37097,-0.1558,0.16185,0.62032
159.315,50.55935,-0.14982,0.16434,0.62043
159.915,50.7483,-0.15478,0.16259,0.62054
160.515,50.93716,-0.15347,0.16507,0.62065
161.115,51.12592,-0.15509,0.16471,0.62075
161.715,51.31452,-0.15378,0.16804,0.62086
162.315,51.504,-0.15509,0.16699,0.62096
162.915,51.69339,-0.1551,0.16513,0.62107
163.515,51.882,-0.15509,0.16575,0.62117
164.115,52.07137,-0.15378,0.16464,0.62128
164.715,52.2596,-0.15513,0.16503,0.62138
165.315,52.4479,-0.15379,0.16711,0.62148
165.915,52.63626,-0.15247,0.1668,0.62158
166.515,52.82379,-0.15355,0.16683,0.62168
167.115,53.01204,-0.15411,0.16763,0.62177
167.715,53.20086,-0.15407,0.1657,0.62187
168.315,53.3899,-0.15542,0.16777,0.62197
168.915,53.57866,-0.15309,0.16889,0.62206
169.515,53.7668,-0.15542,0.16814,0.62215
170.115,53.9544,-0.15411,0.17041,0.62225
170.715,54.1424,-0.15542,0.16841,0.62234
171.315,54.33061,-0.15411,0.17094,0.62243
171.915,54.519,-0.15421,0.17088,0.62252
172.515,54.70768,-0.15523,0.171,0.62261
173.115,54.8963,-0.15479,0.1713,0.6227
173.715,55.08472,-0.15542,0.1725,0.62279
174.315,55.2728,-0.15547,0.17171,0.62287
174.915,55.46114,-0.15312,0.17387,0.62296
175.515,55.64858,-0.15573,0.17322,0.62304
176.115,55.8365,-0.15448,0.1735,0.62313
176.715,56.02486,-0.15467,0.1703,0.62321
177.315,56.21264,-0.15586,0.17196,0.62329
177.915,56.40054,-0.15555,0.17271,0.62337
178.515,56.5884,-0.15514,0.16836,0.62345
179.115,56.7765,-0.15488,0.17015,0.62353
179.715,56.96453,-0.15538,0.17015,0.62361
180.315,57.15277,-0.1544,0.1677,0.62368
180.915,57.3405,-0.15531,0.1731,0.62376
181.515,57.52811,-0.15666,0.17181,0.62384
182.115,57.71527,-0.1566,0.17355,0.62391
182.715,57.90283,-0.15532,0.17141,0.62398
183.315,58.09049,-0.15596,0.17381,0.62406
183.915,58.27842,-0.15597,0.17434,0.62413
184.515,58.46654,-0.15532,0.17252,0.6242
185.115,58.65515,-0.15597,0.17248,0.62427
185.715,58.84336,-0.15588,0.17176,0.62434
186.315,59.03161,-0.15652,0.17553,0.6244
186.915,59.2198,-0.15652,0.17469,0.62447
187.515,59.40791,-0.15594,0.17729,0.62454
188.115,59.59626,-0.15718,0.17426,0.6246
188.715,59.7841,-0.15849,0.17569,0.62466
189.315,59.97132,-0.15502,0.17721,0.62473
189.915,60.15866,-0.15879,0.1767,0.62479
190.515,60.34632,-0.15978,0.17394,0.62485
191.115,60.53416,-0.1585,0.17509,0.62491
191.715,60.7217,-0.1585,0.17318,0.62497
192.315,60.90886,-0.15981,0.17394,0.62503
192.915,61.0961,-0.16046,0.17402,0.62509
193.515,61.28376,-0.16046,0.17601,0.62514
194.115,61.4711,-0.16047,0.17521,0.6252
194.715,61.6581,-0.16047,0.17524,0.62525
195.315,61.84503,-0.16175,0.17777,0.62531
195.915,62.0319,-0.16179,0.17735,0.62536
196.515,62.2185,-0.16306,0.17721,0.62541
197.115,62.4063,-0.16278,0.17669,0.62546
197.715,62.5942,-0.1641,0.17921,0.62551
198.315,62.782,-0.16509,0.17686,0.62556
198.915,62.97045,-0.16539,0.17577,0.62561
199.515,63.15818,-0.16454,0.17878,0.62565
200.115,63.34536,-0.16672,0.17932,0.6257
200.715,63.5328,-0.16607,0.17962,0.62575
201.315,63.72025,-0.16714,0.17937,0.62579
201.915,63.90823,-0.16749,0.179,0.62583
202.515,64.09554,-0.16815,0.1762,0.62588
203.115,64.2835,-0.17111,0.17722,0.62592
203.715,64.47119,-0.1711,0.17685,0.62596
204.315,64.65844,-0.17142,0.17588,0.626
204.915,64.8459,-0.17209,0.17775,0.62604
205.515,65.03277,-0.17442,0.17643,0.62607
206.115,65.21976,-0.17438,0.17874,0.62611
206.715,65.40725,-0.17507,0.17885,0.62615
207.315,65.59414,-0.17735,0.17804,0.62618
207.915,65.7811,-0.17704,0.17888,0.62622
208.515,65.96937,-0.17836,0.17834,0.62625
209.115,66.15745,-0.17934,0.17779,0.62628
209.715,66.34584,-0.17963,0.17776,0.62631
210.315,66.5342,-0.18231,0.17755,0.62634
210.915,66.7218,-0.18221,0.18012,0.62637
211.515,66.9097,-0.18427,0.18133,0.6264
212.115,67.09706,-0.18604,0.17916,0.62643
212.715,67.28542,-0.18858,0.18003,0.62646
213.315,67.473,-0.1877,0.17983,0.62648
213.915,67.66074,-0.18973,0.1822,0.62651
214.515,67.84861,-0.19162,0.17887,0.62653
215.115,68.03657,-0.19171,0.1794,0.62655
215.715,68.2247,-0.19457,0.17828,0.62658
216.315,68.41253,-0.19827,0.17788,0.6266
216.915,68.60027,-0.19952,0.17864,0.62662
217.515,68.7881,-0.20019,0.17823,0.62664
218.115,68.97579,-0.20249,0.17898,0.62666
218.715,69.16326,-0.20424,0.17738,0.62667
219.315,69.35081,-0.2061,0.17651,0.62669
219.915,69.53781,-0.20741,0.17873,0.62671
220.515,69.72431,-0.21004,0.17836,0.62672
221.115,69.91173,-0.21274,0.1791,0.62674
221.715,70.09844,-0.21493,0.1799,0.62675
222.315,70.28509,-0.2174,0.1819,0.62676
222.915,70.47239,-0.22268,0.18187,0.62677
223.515,70.65921,-0.22397,0.18326,0.62678
224.115,70.84685,-0.22409,0.18302,0.62679
224.715,71.03416,-0.22803,0.17981,0.6268
225.315,71.22129,-0.22815,0.17961,0.62681
225.915,71.40875,-0.23067,0.18034,0.62682
226.515,71.5962,-0.23708,0.18165,0.62682
227.115,71.7835,-0.23737,0.18094,0.62683
227.715,71.97066,-0.23893,0.17936,0.62683
228.315,72.15813,-0.24431,0.17994,0.62683
228.915,72.34558,-0.24759,0.18099,0.62684
229.515,72.53301,-0.24985,0.18234,0.62684
230.115,72.72083,-0.25247,0.17988,0.62684
230.715,72.90839,-0.25688,0.18044,0.62684
231.315,73.09621,-0.25684,0.18187,0.62684
231.915,73.28318,-0.26511,0.18444,0.62683
232.515,73.46979,-0.26922,0.17914,0.62683
233.115,73.65651,-0.27279,0.1791,0.62683
233.715,73.84363,-0.27453,0.17696,0.62682
234.315,74.0312,-0.27977,0.17715,0.62682
234.915,74.2189,-0.28385,0.1768,0.62681
235.515,74.4063,-0.2866,0.1777,0.6268
236.115,74.59408,-0.29058,0.17554,0.62679
236.715,74.7819,-0.29442,0.17264,0.62678
237.315,74.96942,-0.2983,0.17276,0.62677
237.915,75.15738,-0.30145,0.17186,0.62676
238.515,75.3446,-0.30536,0.17211,0.62675
239.115,75.53236,-0.30944,0.17366,0.62674
239.715,75.71935,-0.31504,0.17046,0.62672
240.315,75.9071,-0.31789,0.17017,0.62671
240.915,76.0947,-0.32223,0.17343,0.62669
241.515,76.28178,-0.32916,0.17348,0.62668
242.115,76.4689,-0.33275,0.17289,0.62666
242.715,76.65625,-0.33927,0.17138,0.62664
243.315,76.84349,-0.3448,0.17269,0.62662
243.915,77.0303,-0.34692,0.1718,0.6266
244.515,77.21718,-0.35476,0.17207,0.62658
245.115,77.4041,-0.36138,0.17247,0.62656
245.715,77.59111,-0.36536,0.17405,0.62653
246.315,77.77935,-0.36926,0.17198,0.62651
246.915,77.96677,-0.37568,0.17213,0.62649
247.515,78.15465,-0.38036,0.17303,0.62646
248.115,78.34283,-0.38688,0.17176,0.62644
248.715,78.53055,-0.3938,0.17329,0.62641
249.315,78.71802,-0.3986,0.17473,0.62638
249.915,78.90517,-0.40554,0.17433,0.62635
250.515,79.09238,-0.41433,0.17441,0.62632
251.115,79.27955,-0.41987,0.17501,0.62629
251.715,79.4672,-0.42616,0.17265,0.62626
252.315,79.65479,-0.43294,0.16976,0.62623
252.915,79.84278,-0.44008,0.17066,0.62619
253.515,80.02985,-0.44635,0.172,0.62616
254.115,80.21785,-0.4546,0.17404,0.62612
254.715,80.40556,-0.46131,0.17225,0.62609
255.315,80.5937,-0.46821,0.17193,0.62605
255.915,80.78166,-0.4777,0.17307,0.62601
256.515,80.96868,-0.48393,0.17178,0.62597
257.115,81.15559,-0.49213,0.17087,0.62594
257.715,81.34261,-0.49913,0.16932,0.6259
258.315,81.53,-0.50925,0.17103,0.62585
258.915,81.71805,-0.51749,0.17463,0.62581
259.515,81.9059,-0.52772,0.17151,0.62577
260.115,82.0938,-0.53445,0.171,0.62573
260.715,82.28148,-0.54504,0.17209,0.62568
261.315,82.46944,-0.55407,0.17259,0.62564
261.915,82.6568,-0.56556,0.17129,0.62559
262.515,82.8438,-0.57383,0.17354,0.62554
263.115,83.0313,-0.58355,0.17563,0.62549
263.715,83.21829,-0.59228,0.17858,0.62544
264.315,83.40595,-0.60376,0.17679,0.62539
264.915,83.59323,-0.61561,0.17792,0.62534
265.515,83.7802,-0.62452,0.17589,0.62529
266.115,83.96804,-0.63692,0.17885,0.62524
266.715,84.15499,-0.64883,0.17794,0.62519
267.315,84.34179,-0.65888,0.18107,0.62513
267.915,84.52919,-0.67246,0.17992,0.62508
268.515,84.7166,-0.68213,0.17981,0.62502
269.115,84.90426,-0.69542,0.18247,0.62497
269.715,85.09212,-0.70824,0.18305,0.62491
270.315,85.28009,-0.72101,0.18427,0.62485
270.915,85.46851,-0.7337,0.18225,0.62479
271.515,85.65669,-0.74541,0.18433,0.62473
272.115,85.84397,-0.76211,0.18673,0.62467
272.715,86.0318,-0.77512,0.18659,0.62461
273.315,86.21948,-0.78692,0.18592,0.62454
273.915,86.4071,-0.80266,0.18663,0.62448
274.515,86.59567,-0.81698,0.18968,0.62442
275.115,86.7844,-0.8326,0.1871,0.62435
275.715,86.9734,-0.84652,0.1884,0.62429
276.315,87.16185,-0.86263,0.19026,0.62422
276.915,87.34936,-0.87879,0.19083,0.62415
277.515,87.53795,-0.8939,0.19142,0.62408
278.115,87.7261,-0.91037,0.19066,0.62401
278.715,87.9157,-0.92599,0.19139,0.62394
279.315,88.1043,-0.94334,0.19333,0.62387
279.915,88.29325,-0.9599,0.19494,0.6238
280.515,88.48183,-0.97946,0.19496,0.62373
281.115,88.67012,-0.99394,0.19659,0.62365
281.715,88.85801,-1.01383,0.20036,0.62358
282.315,89.04639,-1.03118,0.20043,0.6235
282.915,89.23521,-1.04785,0.20115,0.62343
283.515,89.4239,-1.06691,0.2049,0.62335
284.115,89.61283,-1.08694,0.204,0.62327
284.715,89.8014,-1.10276,0.20275,0.62319
285.315,89.9901,-1.12399,0.20235,0.62311
285.915,90.17922,-1.14316,0.20361,0.62303
286.515,90.3683,-1.16348,0.20461,0.62295
287.115,90.55707,-1.19431,0.20479,0.62287
287.715,90.74596,-1.20543,0.20393,0.62279
288.315,90.93435,-1.2266,0.20737,0.6227
288.915,91.12229,-1.24418,0.20615,0.62262
289.515,91.3104,-1.26781,0.2027,0.62253
290.115,91.49853,-1.2877,0.20687,0.62245
290.715,91.68705,-1.31203,0.20541,0.62236
291.315,91.8759,-1.33437,0.20558,0.62227
291.915,92.06367,-1.35846,0.2065,0.62218
292.515,92.25195,-1.38195,0.20842,0.62209
293.115,92.4401,-1.40238,0.2098,0.622
293.715,92.6285,-1.42673,0.20869,0.62191
294.315,92.81708,-1.45001,0.21058,0.62182
294.915,93.00626,-1.47559,0.20867,0.62173
295.515,93.1948,-1.49927,0.21269,0.62164
296.115,93.38338,-1.52443,0.2108,0.62154
296.715,93.57211,-1.54968,0.21222,0.62145
297.315,93.76076,-1.57591,0.21306,0.62135
297.915,93.94943,-1.60167,0.21377,0.62125
298.515,94.13832,-1.62903,0.21355,0.62116
299.115,94.32727,-1.6579,0.21176,0.62106
299.715,94.5167,-1.68379,0.21218,0.62096
300.315,94.70623,-1.70985,0.21128,0.62086
300.915,94.89528,-1.73925,0.21658,0.62076
301.515,95.08431,-1.76766,0.21556,0.62065
302.115,95.27326,-1.79559,0.21621,0.62055
302.715,95.46216,-1.82618,0.2174,0.62045
303.315,95.65094,-1.85573,0.21956,0.62034
303.915,95.83955,-1.88465,0.21963,0.62024
304.515,96.02769,-1.91574,0.21697,0.62013
305.115,96.2157,-1.94789,0.22147,0.62003
305.715,96.40422,-1.97925,0.22153,0.61992
306.315,96.59218,-2.01207,0.22154,0.61981
306.915,96.78102,-2.04261,0.2203,0.6197
307.515,96.9698,-2.07557,0.22096,0.61959
308.115,97.15862,-2.11318,0.22444,0.61948
308.715,97.34737,-2.14469,0.22324,0.61937
309.315,97.53582,-2.17838,0.22298,0.61926
309.915,97.72448,-2.21366,0.22268,0.61915
310.515,97.91348,-2.24867,0.22436,0.61903
311.115,98.10293,-2.2832,0.2236,0.61892
311.715,98.2922,-2.31858,0.22434,0.6188
312.315,98.48164,-2.35606,0.22529,0.61869
312.915,98.67111,-2.39215,0.22058,0.61857
313.515,98.86063,-2.42856,0.21844,0.61845
314.115,99.051,-2.46669,0.22073,0.61833
314.715,99.241,-2.50402,0.21934,0.61821
315.315,99.43097,-2.54469,0.21928,0.61809
315.915,99.62085,-2.58163,0.21961,0.61797
316.515,99.8103,-2.61892,0.21935,0.61785
317.115,100.001,-2.65818,0.21617,0.61773
317.715,100.191,-2.69568,0.21614,0.61761
318.315,100.381,-2.73574,0.21464,0.61748
318.915,100.5702,-2.77386,0.21326,0.61736
319.515,100.76,-2.81315,0.21075,0.61723
320.115,100.9494,-2.85073,0.20806,0.61711
320.715,101.139,-2.89073,0.20737,0.61698
321.315,101.329,-2.9279,0.20402,0.61685
321.915,101.519,-2.96448,0.20102,0.61672
322.515,101.709,-3.00494,0.19873,0.61659
323.115,101.898,-3.03726,0.19634,0.61646
323.715,102.088,-3.07493,0.1913,0.61633
324.315,102.278,-3.11171,0.18638,0.6162
324.915,102.467,-3.14553,0.1836,0.61607
325.515,102.657,-3.18076,0.1805,0.61593
326.115,102.8464,-3.21299,0.17359,0.6158
326.715,103.036,-3.2459,0.17114,0.61566
327.315,103.226,-3.27508,0.16479,0.61553
327.915,103.415,-3.30468,0.15857,0.61539
328.515,103.604,-3.33244,0.1544,0.61525
329.115,103.793,-3.3563,0.14694,0.61512
329.715,103.982,-3.38355,0.14213,0.61498
330.315,104.172,-3.40691,0.13651,0.61484
330.915,104.362,-3.42774,0.13236,0.6147
331.515,104.552,-3.44835,0.12608,0.61456
332.115,104.742,-3.46611,0.12342,0.61442
332.715,104.932,-3.4835,0.11972,0.61427
333.315,105.122,-3.49976,0.11781,0.61413
333.915,105.312,-3.51283,0.11347,0.61399
334.515,105.502,-3.52514,0.11264,0.61384
335.115,105.692,-3.53947,0.11045,0.6137
335.715,105.882,-3.54925,0.10717,0.61355
336.315,106.071,-3.55798,0.10637,0.6134
336.915,106.261,-3.56727,0.10426,0.61325
337.515,106.451,-3.57575,0.10483,0.61311
338.115,106.641,-3.58195,0.10289,0.61296
338.715,106.832,-3.59135,0.10046,0.61281
339.315,107.023,-3.59568,0.09665086,0.61266
339.915,107.2133,-3.60121,0.09594448,0.6125
340.515,107.404,-3.60968,0.09663532,0.61235
341.115,107.5953,-3.61348,0.09679943,0.6122
341.715,107.787,-3.61988,0.09658181,0.61204
342.315,107.978,-3.62503,0.09712764,0.61189
342.915,108.168,-3.6294,0.09836532,0.61173
343.515,108.359,-3.63509,0.09466785,0.61158
344.115,108.549,-3.6371,0.09586673,0.61142
344.715,108.739,-3.64116,0.09387299,0.61126
345.315,108.929,-3.64641,0.09702986,0.61111
345.915,109.119,-3.65164,0.09706841,0.61095
346.515,109.308,-3.65465,0.09853974,0.61079
347.115,109.499,-3.65905,0.10202,0.61063
347.715,109.69,-3.66318,0.10167,0.61047
348.315,109.881,-3.666,0.10166,0.6103
348.915,110.072,-3.67008,0.10061,0.61014
349.515,110.264,-3.67542,0.09991593,0.60998
350.115,110.4555,-3.67696,0.09958507,0.60981
350.715,110.647,-3.68088,0.10013,0.60965
351.315,110.839,-3.68347,0.10136,0.60948
351.915,111.031,-3.68683,0.10074,0.60932
352.515,111.2226,-3.6904,0.10074,0.60915
353.115,111.415,-3.69346,0.10078,0.60898
353.715,111.607,-3.69642,0.10186,0.60881
354.315,111.8,-3.69892,0.10266,0.60864
354.915,111.991,-3.70202,0.10186,0.60847
355.515,112.183,-3.70174,0.09964394,0.6083
356.115,112.375,-3.70893,0.10148,0.60813
356.715,112.567,-3.71057,0.10232,0.60796
357.315,112.7587,-3.71296,0.10006,0.60779
357.915,112.95,-3.71551,0.09851728,0.60761
358.515,113.1421,-3.71948,0.10169,0.60744
359.115,113.334,-3.72208,0.10026,0.60726
359.715,113.525,-3.72339,0.09917598,0.60709
360.315,113.717,-3.72637,0.09864207,0.60691
360.915,113.908,-3.72931,0.09854075,0.60674
361.515,114.1,-3.73569,0.10014,0.60656
362.115,114.2915,-3.72452,0.10072,0.60638
362.715,114.483,-3.73721,0.09899275,0.6062
363.315,114.675,-3.73831,0.10157,0.60602
363.915,114.867,-3.7412,0.09927309,0.60584
364.515,115.059,-3.74349,0.0986391,0.60566
365.115,115.252,-3.74642,0.09888654,0.60548
365.715,115.444,-3.74878,0.09643924,0.60529
366.315,115.637,-3.75298,0.09682409,0.60511
366.915,115.829,-3.75303,0.09581733,0.60493
367.515,116.022,-3.75433,0.09411103,0.60474
368.115,116.214,-3.7553,0.09632042,0.60455
368.715,116.406,-3.75718,0.09599229,0.60437
369.315,116.5974,-3.76113,0.09686967,0.60418
369.915,116.789,-3.76364,0.09500469,0.60399
370.515,116.98,-3.76459,0.09538759,0.60381
371.115,117.173,-3.76774,0.09540657,0.60362
371.715,117.364,-3.76774,0.09810465,0.60343
372.315,117.5559,-3.77156,0.09159528,0.60324
372.915,117.7474,-3.77297,0.09327522,0.60305
373.515,117.939,-3.77687,0.09250503,0.60285
374.115,118.1314,-3.77897,0.09258358,0.60266
374.715,118.324,-3.77952,0.09117671,0.60247
375.315,118.516,-3.78187,0.09401901,0.60227
375.915,118.709,-3.78246,0.09091082,0.60208
376.515,118.901,-3.78591,0.09162242,0.60188
377.115,119.093,-3.78757,0.09305458,0.60169
377.715,119.2862,-3.78938,0.09358177,0.60149
378.315,119.4794,-3.79089,0.09360956,0.6013
378.915,119.673,-3.79182,0.09285263,0.6011
379.515,119.8655,-3.79479,0.09149262,0.6009
380.115,120.059,-3.79612,0.09375462,0.6007
380.715,120.252,-3.79875,0.09455798,0.6005
381.315,120.446,-3.80002,0.09252791,0.6003
381.915,120.639,-3.80377,0.09377839,0.6001
382.515,120.832,-3.80279,0.08951514,0.5999
383.115,121.025,-3.80546,0.09100758,0.59969
383.715,121.219,-3.80809,0.08909474,0.59949
384.315,121.412,-3.81008,0.09174728,0.59929
384.915,121.605,-3.81335,0.09041164,0.59908
385.515,121.799,-3.81348,0.09071132,0.59888
386.115,121.9923,-3.81519,0.08988952,0.59867
386.715,122.185,-3.81739,0.08747713,0.59846
387.315,122.3778,-3.81782,0.08802755,0.59826
387.915,122.569,-3.8214,0.08692692,0.59805
388.515,122.761,-3.82411,0.09178725,0.59784
389.115,122.953,-3.82462,0.08943808,0.59763
389.715,123.146,-3.82651,0.08932176,0.59742
390.315,123.338,-3.82753,0.08906811,0.59721
390.915,123.531,-3.82924,0.0907933,0.597
391.515,123.724,-3.84144,0.0920751,0.59679
392.115,123.917,-3.83127,0.09146703,0.59657
392.715,124.111,-3.83477,0.09204497,0.59636
393.315,124.305,-3.8369,0.09390642,0.59615
393.915,124.499,-3.83556,0.0935752,0.59593
394.515,124.694,-3.84095,0.09484065,0.59572
395.115,124.888,-3.84306,0.0917357,0.5955
395.715,125.083,-3.84285,0.09446437,0.59529
396.315,125.277,-3.84421,0.09395828,0.59507
396.915,125.471,-3.84838,0.09141746,0.59485
397.515,125.665,-3.84954,0.09092068,0.59463
398.115,125.858,-3.84952,0.08804221,0.59441
398.715,126.051,-3.85481,0.08771324,0.59419
399.315,126.244,-3.85138,0.08915327,0.59397
399.915,126.437,-3.85671,0.08680624,0.59375
400.515,126.63,-3.85667,0.08991631,0.59353
401.115,126.824,-3.85661,0.08975697,0.59331
401.715,127.017,-3.86095,0.09407138,0.59309
402.315,127.211,-3.86403,0.09454084,0.59286
402.915,127.404,-3.86435,0.09567523,0.59264
403.515,127.598,-3.86469,0.09388134,0.59241
404.115,127.792,-3.86731,0.09720497,0.59219
404.715,127.986,-3.87227,0.08935338,0.59196
405.315,128.179,-3.86949,0.08938972,0.59174
405.915,128.373,-3.87228,0.09257029,0.59151
406.515,128.567,-3.87213,0.09404194,0.59128
407.115,128.76,-3.8748,0.09645073,0.59105
407.715,128.953,-3.87602,0.09489404,0.59082
408.315,129.147,-3.88005,0.09664785,0.59059
408.915,129.3415,-3.88003,0.09696721,0.59036
409.515,129.5363,-3.88181,0.09806016,0.59013
410.115,129.731,-3.88365,0.09783629,0.5899
410.715,129.926,-3.88402,0.09615004,0.58967
411.315,130.1211,-3.88227,0.09658884,0.58944
411.915,130.316,-3.88818,0.09439915,0.5892
412.515,130.511,-3.88985,0.09198831,0.58897
413.115,130.705,-3.89243,0.0929341,0.58874
413.715,130.9,-3.88909,0.08999801,0.5885
414.315,131.094,-3.89431,0.09128809,0.58826
414.915,131.288,-3.89722,0.09102274,0.58803
415.515,131.482,-3.89846,0.09339294,0.58779
416.115,131.676,-3.9023,0.090912,0.58755
416.715,131.87,-3.90073,0.09266295,0.58731
417.315,132.064,-3.90242,0.09150619,0.58708
417.915,132.259,-3.90399,0.09144472,0.58684
418.515,132.4537,-3.905,0.0936699,0.5866
419.115,132.649,-3.90846,0.09152411,0.58636
419.715,132.843,-3.90958,0.09135092,0.58611
420.315,133.038,-3.91009,0.09160547,0.58587
420.915,133.233,-3.90383,0.09292325,0.58563
421.515,133.427,-3.92063,0.08712093,0.58539
422.115,133.623,-3.91382,0.09040687,0.58514
422.715,133.817,-3.91733,0.09180687,0.5849
423.315,134.012,-3.91722,0.08968471,0.58466
423.915,134.206,-3.91853,0.09121716,0.58441
424.515,134.4003,-3.91985,0.08843013,0.58416
425.115,134.595,-3.93071,0.08737293,0.58392
425.715,134.79,-3.92368,0.09075001,0.58367
426.315,134.984,-3.92435,0.0902684,0.58342
426.915,135.1791,-3.92819,0.09213475,0.58317
427.515,135.374,-3.93579,0.09330226,0.58293
428.115,135.568,-3.93182,0.09506111,0.58268
428.715,135.763,-3.93183,0.09612949,0.58243
429.315,135.958,-3.93283,0.0943318,0.58218
429.915,136.153,-3.93543,0.09287575,0.58192
430.515,136.348,-3.93545,0.09287911,0.58167
431.115,136.5443,-3.93691,0.0939068,0.58142
431.715,136.74,-3.93817,0.09242263,0.58117
432.315,136.937,-3.94066,0.09443244,0.58091
432.915,137.133,-3.94102,0.09273228,0.58066
433.515,137.329,-3.94265,0.09315199,0.58041
434.115,137.526,-3.94542,0.09323186,0.58015
434.715,137.7213,-3.94481,0.09364803,0.57989
435.315,137.917,-3.94552,0.09441456,0.57964
435.915,138.112,-3.94555,0.09492881,0.57938
436.515,138.3076,-3.9495,0.09371982,0.57912
437.115,138.504,-3.94947,0.09451558,0.57887
437.715,138.7,-3.9521,0.09305509,0.57861
438.315,138.896,-3.95473,0.09442931,0.57835
438.915,139.092,-3.95473,0.09468359,0.57809
439.515,139.286,-3.95737,0.09349111,0.57783
440.115,139.481,-3.96004,0.09435649,0.57757
440.715,139.676,-3.95759,0.09350556,0.57731
441.315,139.872,-3.96001,0.09446593,0.57704
441.915,140.069,-3.96203,0.09507747,0.57678
442.515,140.265,-3.96295,0.09569337,0.57652
443.115,140.461,-3.96391,0.09734422,0.57626
443.715,140.657,-3.96554,0.09599873,0.57599
444.315,140.853,-3.96547,0.09694086,0.57573
444.915,141.048,-3.97092,0.09971301,0.57546
445.515,141.243,-3.96906,0.10305,0.5752
446.115,141.439,-3.96893,0.10376,0.57493
446.715,141.635,-3.97164,0.10324,0.57466
447.315,141.831,-3.97411,0.10274,0.5744
447.915,142.027,-3.97439,0.10567,0.57413
448.515,142.223,-3.9755,0.10437,0.57386
449.115,142.419,-3.97557,0.10517,0.57359
449.715,142.615,-3.9782,0.10591,0.57332
450.315,142.809,-3.97948,0.1028,0.57305
450.915,143.004,-3.98918,0.09880329,0.57278
451.515,143.199,-3.98368,0.10121,0.57251
452.115,143.397,-3.98391,0.1046,0.57224
452.715,143.595,-3.95562,0.11039,0.57197
453.315,143.792,-3.98984,0.10228,0.57169
453.915,143.989,-3.99233,0.1028,0.57142
454.515,144.187,-3.9827,0.10459,0.57115
455.115,144.386,-3.97144,0.10662,0.57087
455.715,144.584,-3.98744,0.10492,0.5706
456.315,144.781,-3.98876,0.10411,0.57032
456.915,144.978,-3.99149,0.10291,0.57005
457.515,145.175,-3.99133,0.10472,0.56977
458.115,145.373,-3.99428,0.10643,0.56949
458.715,145.571,-3.99411,0.10666,0.56922
459.315,145.769,-3.99411,0.10694,0.56894
459.915,145.9675,-3.99706,0.1068,0.56866
460.515,146.165,-3.99674,0.10793,0.56838
461.115,146.364,-3.99795,0.10682,0.5681
461.715,146.563,-3.99925,0.11178,0.56782
462.315,146.761,-3.99925,0.109,0.56754
462.915,146.959,-4.00058,0.11401,0.56726
463.515,147.1567,-3.99977,0.11404,0.56698
464.115,147.354,-4.00058,0.12036,0.5667
464.715,147.551,-4.0013,0.12292,0.56641
465.315,147.749,-4.0019,0.11997,0.56613
465.915,147.946,-4.00453,0.12321,0.56585
466.515,148.145,-4.00453,0.12356,0.56556
467.115,148.343,-4.00646,0.12362,0.56528
467.715,148.543,-4.00585,0.12229,0.56499
468.315,148.741,-4.0065,0.12033,0.56471
468.915,148.94,-4.00779,0.11895,0.56442
469.515,149.138,-4.00797,0.11985,0.56414
470.115,149.336,-4.00782,0.11991,0.56385
470.715,149.534,-4.00913,0.11874,0.56356
471.315,149.7315,-4.01046,0.11854,0.56327
471.915,149.929,-4.01178,0.11725,0.56299
472.515,150.127,-4.01187,0.11426,0.5627
473.115,150.325,-4.01177,0.11417,0.56241
473.715,150.523,-4.01338,0.11307,0.56212
474.315,150.72,-4.01473,0.11163,0.56183
474.915,150.917,-4.01473,0.1092,0.56154
475.515,151.114,-4.01638,0.10668,0.56125
476.115,151.311,-4.01771,0.10274,0.56095
476.715,151.508,-4.01635,0.10278,0.56066
477.315,151.705,-4.01803,0.105,0.56037
477.915,151.902,-4.01991,0.1032,0.56008
478.515,152.1,-4.02099,0.10275,0.55978
479.115,152.299,-4.01965,0.10148,0.55949
479.715,152.498,-4.02166,0.10415,0.55919
480.315,152.698,-4.02131,0.10401,0.5589
480.915,152.897,-4.0233,0.10669,0.5586
481.515,153.096,-4.02353,0.10587,0.55831
482.115,153.295,-4.02493,0.10609,0.55801
482.715,153.494,-4.02559,0.10581,0.55771
483.315,153.692,-4.0262,0.1059,0.55742
483.915,153.891,-4.02691,0.1072,0.55712
484.515,154.089,-4.02595,0.11042,0.55682
485.115,154.288,-4.02856,0.10787,0.55652
485.715,154.4876,-4.02723,0.11009,0.55622
486.315,154.6872,-4.02856,0.11399,0.55592
486.915,154.8868,-4.03123,0.11545,0.55562
487.515,155.086,-4.03118,0.11237,0.55532
488.115,155.285,-4.03118,0.1128,0.55502
488.715,155.483,-4.03184,0.10976,0.55472
489.315,155.682,-4.03247,0.10749,0.55442
489.915,155.88,-4.03329,0.10996,0.55411
490.515,156.079,-4.03481,0.10733,0.55381
491.115,156.277,-4.03613,0.10785,0.55351
491.715,156.476,-4.03711,0.10777,0.5532
492.315,156.675,-4.03711,0.1094,0.5529
492.915,156.874,-4.03779,0.1123,0.55259
493.515,157.072,-4.03854,0.11206,0.55229
494.115,157.2706,-4.04004,0.10788,0.55198
494.715,157.469,-4.04084,0.1082,0.55168
495.315,157.668,-4.04022,0.11071,0.55137
495.915,157.8666,-4.04149,0.11022,0.55106
496.515,158.066,-4.04212,0.11278,0.55076
497.115,158.265,-4.04215,0.10953,0.55045
497.715,158.465,-4.04347,0.10959,0.55014
498.315,158.666,-4.0438,0.10852,0.54983
498.915,158.866,-4.04508,0.10989,0.54952
499.515,159.065,-4.0451,0.1103,0.54921
500.115,159.2647,-4.04618,0.10445,0.5489
500.715,159.4644,-4.04591,0.10606,0.54859
501.315,159.664,-4.04676,0.10702,0.54828
501.915,159.864,-4.04544,0.10583,0.54797
502.515,160.063,-4.04806,0.10854,0.54766
503.115,160.263,-4.04676,0.10766,0.54735
503.715,160.4632,-4.04809,0.10517,0.54704
504.315,160.663,-4.04811,0.10444,0.54672
504.915,160.862,-4.04842,0.10646,0.54641
505.515,161.0604,-4.04743,0.10761,0.5461
506.115,161.259,-4.05017,0.10709,0.54578
506.715,161.458,-4.04969,0.10793,0.54547
507.315,161.658,-4.04979,0.10987,0.54515
507.915,161.858,-4.05073,0.11112,0.54484
508.515,162.058,-4.05174,0.11143,0.54452
509.115,162.257,-4.05142,0.11015,0.54421
509.715,162.456,-4.05137,0.11114,0.54389
510.315,162.656,-4.05148,0.1131,0.54357
510.915,162.856,-4.05313,0.11505,0.54325
511.515,163.056,-4.05431,0.11469,0.54294
512.115,163.256,-4.05386,0.11404,0.54262
512.715,163.456,-4.05433,0.11474,0.5423
513.315,163.655,-4.05681,0.11467,0.54198
513.915,163.854,-4.05433,0.11281,0.54166
514.515,164.0528,-4.05489,0.11274,0.54134
515.115,164.252,-4.0563,0.11421,0.54102
515.715,164.45,-4.05498,0.11423,0.5407
516.315,164.649,-4.05627,0.1157,0.54038
516.915,164.848,-4.0563,0.11653,0.54006
517.515,165.048,-4.05762,0.11897,0.53974
518.115,165.248,-4.06018,0.11972,0.53942
518.715,165.449,-4.05674,0.12546,0.53909
519.315,165.65,-4.05805,0.12146,0.53877
519.915,165.851,-4.06038,0.12316,0.53845
520.515,166.051,-4.05803,0.12431,0.53812
521.115,166.25,-4.06003,0.12545,0.5378
521.715,166.45,-4.05874,0.12281,0.53747
522.315,166.651,-4.06069,0.1227,0.53715
522.915,166.8517,-4.06215,0.12759,0.53682
523.515,167.053,-4.06167,0.12882,0.5365
524.115,167.253,-4.06166,0.12919,0.53617
524.715,167.4531,-4.06433,0.13,0.53585
525.315,167.654,-4.062,0.12893,0.53552
525.915,167.855,-4.06425,0.1317,0.53519
526.515,168.057,-4.06332,0.13195,0.53487
527.115,168.258,-4.06242,0.13477,0.53454
527.715,168.459,-4.06463,0.13601,0.53421
528.315,168.659,-4.06572,0.13668,0.53388
528.915,168.86,-4.06562,0.1362,0.53355
529.515,169.06,-4.06576,0.13594,0.53322
530.115,169.26,-4.06527,0.13769,0.53289
530.715,169.46,-4.06728,0.13774,0.53256
531.315,169.66,-4.06492,0.13801,0.53223
531.915,169.86,-4.06629,0.13745,0.5319
532.515,170.061,-4.06596,0.1397,0.53157
533.115,170.262,-4.06628,0.14057,0.53124
533.715,170.463,-4.06628,0.14048,0.53091
534.315,170.665,-4.06758,0.14132,0.53058
534.915,170.866,-4.06628,0.14337,0.53024
535.515,171.067,-4.06892,0.14287,0.52991
536.115,171.267,-4.0676,0.14099,0.52958
536.715,171.468,-4.0676,0.14059,0.52924
537.315,171.669,-4.06892,0.13927,0.52891
537.915,171.869,-4.06792,0.14175,0.52857
538.515,172.07,-4.07009,0.14622,0.52824
539.115,172.271,-4.06908,0.1458,0.52791
539.715,172.472,-4.06773,0.14398,0.52757
540.315,172.674,-4.06958,0.14361,0.52723
540.915,172.877,-4.06957,0.14501,0.5269
541.515,173.0781,-4.06957,0.14324,0.52656
542.115,173.28,-4.06975,0.14632,0.52623
542.715,173.481,-4.07068,0.14492,0.52589
543.315,173.683,-4.07241,0.14322,0.52555
543.915,173.885,-4.07107,0.14118,0.52521
544.515,174.086,-4.07246,0.1406,0.52488
545.115,174.287,-4.07232,0.14422,0.52454
545.715,174.488,-4.06893,0.14297,0.5242
546.315,174.689,-4.06417,0.14451,0.52386
546.915,174.891,-4.07177,0.13976,0.52352
547.515,175.092,-4.07174,0.1473,0.52318
548.115,175.294,-4.0721,0.14351,0.52284
548.715,175.495,-4.07982,0.14018,0.5225
549.315,175.698,-4.07405,0.14147,0.52216
549.915,175.899,-4.07276,0.14283,0.52182
550.515,176.101,-4.07176,0.13778,0.52148
551.115,176.3029,-4.07453,0.13858,0.52114
551.715,176.504,-4.07436,0.13731,0.52079
552.315,176.706,-4.07199,0.14068,0.52045
552.915,176.908,-4.07536,0.13693,0.52011
553.515,177.11,-4.08135,0.13815,0.51977
554.115,177.312,-4.07459,0.13757,0.51942
554.715,177.514,-4.07592,0.14042,0.51908
555.315,177.715,-4.07627,0.14135,0.51874
555.915,177.917,-4.07627,0.14237,0.51839
556.515,178.118,-4.07592,0.14376,0.51805
557.115,178.3202,-4.07546,0.1444,0.5177
557.715,178.522,-4.07464,0.143,0.51736
558.315,178.725,-4.07472,0.14522,0.51701
558.915,178.927,-4.07616,0.1479,0.51667
559.515,179.129,-4.07728,0.14739,0.51632
560.115,179.33,-4.07725,0.14945,0.51597
560.715,179.531,-4.07593,0.14811,0.51563
561.315,179.7334,-4.07659,0.15062,0.51528
561.915,179.9355,-4.07761,0.14974,0.51493
562.515,180.137,-4.07626,0.14803,0.51459
563.115,180.339,-4.07592,0.1533,0.51424
563.715,180.54,-4.07725,0.15549,0.51389
564.315,180.743,-4.07875,0.15637,0.51354
564.915,180.945,-4.07889,0.15466,0.51319
565.515,181.147,-4.07855,0.15999,0.51284
566.115,181.35,-4.07856,0.16119,0.51249
566.715,181.552,-4.07988,0.16793,0.51215
567.315,181.7552,-4.07987,0.17112,0.5118
567.915,181.958,-4.07966,0.1694,0.51145
568.515,182.16,-4.07967,0.16981,0.5111
569.115,182.362,-4.07956,0.17157,0.51074
569.715,182.563,-4.07956,0.16727,0.51039
570.315,182.7645,-4.07956,0.16674,0.51004
570.915,182.966,-4.07989,0.16671,0.50969
571.515,183.17,-4.07889,0.16839,0.50934
572.115,183.373,-4.08118,0.16727,0.50899
572.715,183.575,-4.07988,0.16659,0.50864
573.315,183.7778,-4.07988,0.17112,0.50828
573.915,183.979,-4.07972,0.16844,0.50793
574.515,184.181,-4.08064,0.17096,0.50758
575.115,184.383,-4.08197,0.17042,0.50722
575.715,184.5849,-4.08266,0.16925,0.50687
576.315,184.789,-4.0812,0.17464,0.50652
576.915,184.994,-4.0812,0.17465,0.50616
577.515,185.198,-4.08294,0.17249,0.50581
578.115,185.402,-4.08209,0.17601,0.50545
578.715,185.605,-4.08079,0.17294,0.5051
579.315,185.807,-4.08251,0.17138,0.50474
579.915,186.01,-4.08251,0.17319,0.50439
580.515,186.2118,-4.08251,0.174,0.50403
581.115,186.4136,-4.08351,0.17422,0.50368
581.715,186.615,-4.08083,0.1716,0.50332
582.315,186.8176,-4.08351,0.1724,0.50296
582.915,187.021,-4.08288,0.17128,0.50261
583.515,187.2236,-4.08228,0.16924,0.50225
584.115,187.4274,-4.08343,0.16909,0.50189
584.715,187.631,-4.08449,0.17199,0.50153
585.315,187.8352,-4.08317,0.17133,0.50118
585.915,188.038,-4.08457,0.17275,0.50082
586.515,188.241,-4.08449,0.17481,0.50046
587.115,188.444,-4.08453,0.17374,0.5001
587.715,188.647,-4.08315,0.17364,0.49974
588.315,188.8504,-4.08475,0.17453,0.49938
588.915,189.055,-4.08603,0.17593,0.49902
589.515,189.259,-4.08599,0.17806,0.49866
590.115,189.462,-4.08438,0.17738,0.49831
590.715,189.665,-4.08562,0.17838,0.49795
591.315,189.868,-4.08438,0.17899,0.49758
591.915,190.071,-4.08436,0.18148,0.49722
592.515,190.274,-4.08537,0.17865,0.49686
593.115,190.477,-4.08458,0.18144,0.4965
593.715,190.68,-4.08438,0.18517,0.49614
594.315,190.883,-4.08569,0.18593,0.49578
594.915,191.086,-4.08548,0.18526,0.49542
595.515,191.289,-4.0847,0.18497,0.49506
596.115,191.4929,-4.08417,0.18318,0.49469
596.715,191.696,-4.08471,0.19203,0.49433
597.315,191.901,-4.08471,0.19225,0.49397
597.915,192.106,-4.08475,0.19461,0.49361
598.515,192.3119,-4.08578,0.19739,0.49324
599.115,192.5175,-4.08471,0.20279,0.49288
599.715,192.723,-4.08632,0.20442,0.49252
600.315,192.928,-4.08544,0.20257,0.49215
600.915,193.131,-4.08637,0.19943,0.49179
601.515,193.334,-4.08515,0.19765,0.49143
602.115,193.537,-4.08745,0.20158,0.49106
602.715,193.74,-4.08612,0.2039,0.4907
603.315,193.943,-4.08652,0.19771,0.49033
603.915,194.146,-4.08647,0.19697,0.48997
604.515,194.35,-4.08647,0.19901,0.4896
605.115,194.554,-4.08648,0.19391,0.48924
605.715,194.758,-4.08613,0.19569,0.48887
606.315,194.962,-4.08845,0.19874,0.48851
606.915,195.167,-4.08645,0.19449,0.48814
607.515,195.371,-4.08462,0.19662,0.48777
608.115,195.577,-4.08644,0.19577,0.48741
608.715,195.782,-4.08777,0.19359,0.48704
609.315,195.987,-4.08581,0.1952,0.48668
609.915,196.1907,-4.08712,0.19076,0.48631
610.515,196.394,-4.08712,0.19424,0.48594
611.115,196.598,-4.08712,0.19329,0.48557
611.715,196.801,-4.08717,0.19452,0.48521
612.315,197.005,-4.08687,0.19581,0.48484
612.915,197.209,-4.08703,0.1927,0.48447
613.515,197.413,-4.08833,0.19327,0.4841
614.115,197.617,-4.08702,0.19197,0.48373
614.715,197.8212,-4.08702,0.19289,0.48337
615.315,198.026,-4.08705,0.19273,0.483
615.915,198.231,-4.08702,0.19348,0.48263
616.515,198.435,-4.08702,0.19105,0.48226
617.115,198.64,-4.0872,0.19155,0.48189
617.715,198.845,-4.08833,0.19244,0.48152
618.315,199.049,-4.08735,0.18681,0.48115
618.915,199.254,-4.08764,0.18354,0.48078
619.515,199.458,-4.08734,0.18477,0.48041
620.115,199.662,-4.08734,0.18156,0.48004
620.715,199.866,-4.08865,0.17926,0.47967
621.315,200.07,-4.08999,0.18003,0.4793
621.915,200.274,-4.08803,0.18089,0.47893
622.515,200.479,-4.08802,0.18337,0.47856
623.115,200.683,-4.08866,0.18259,0.47819
623.715,200.8875,-4.08906,0.18573,0.47782
624.315,201.093,-4.088,0.1837,0.47745
624.915,201.299,-4.08934,0.18635,0.47707
625.515,201.507,-4.08801,0.18624,0.4767
626.115,201.713,-4.08669,0.19373,0.47633
626.715,201.918,-4.08802,0.19431,0.47596
627.315,202.123,-4.08934,0.1923,0.47559
627.915,202.328,-4.08933,0.1963,0.47521
628.515,202.534,-4.0891,0.1956,0.47484
629.115,202.74,-4.08783,0.20199,0.47447
629.715,202.9449,-4.08777,0.19785,0.4741
630.315,203.15,-4.08899,0.19854,0.47372
630.915,203.354,-4.08801,0.19859,0.47335
631.515,203.559,-4.09012,0.19924,0.47298
632.115,203.763,-4.08735,0.20464,0.4726
632.715,203.968,-4.08998,0.20492,0.47223
633.315,204.174,-4.08926,0.20262,0.47185
633.915,204.381,-4.09063,0.20173,0.47148
634.515,204.588,-4.08835,0.20138,0.47111
635.115,204.794,-4.09067,0.20006,0.47073
635.715,205,-4.09054,0.20336,0.47036
636.315,205.206,-4.0912,0.20037,0.46998
636.915,205.411,-4.07164,0.20485,0.46961
637.515,205.617,-4.09825,0.2023,0.46923
638.115,205.822,-4.08732,0.20598,0.46886
638.715,206.027,-4.08968,0.20704,0.46848
639.315,206.231,-4.08986,0.20642,0.46811
639.915,206.4357,-4.08953,0.205,0.46773
640.515,206.6396,-4.08888,0.20378,0.46736
641.115,206.844,-4.08965,0.20195,0.46698
641.715,207.049,-4.08094,0.19917,0.46661
642.315,207.254,-4.09115,0.19701,0.46623
642.915,207.46,-4.08983,0.20377,0.46585
643.515,207.665,-4.08857,0.2046,0.46548
644.115,207.871,-4.08942,0.20498,0.4651
644.715,208.077,-4.08962,0.20213,0.46473
645.315,208.284,-4.08921,0.20094,0.46435
645.915,208.489,-4.09053,0.1961,0.46397
646.515,208.6942,-4.08987,0.1951,0.46359
647.115,208.9,-4.08305,0.19233,0.46322
647.715,209.105,-4.08974,0.19251,0.46284
648.315,209.311,-4.09118,0.19884,0.46246
648.915,209.517,-4.08987,0.19272,0.46209
649.515,209.722,-4.09157,0.1935,0.46171
650.115,209.9264,-4.08862,0.19252,0.46133
650.715,210.132,-4.08861,0.19181,0.46095
651.315,210.337,-4.09142,0.1914,0.46058
651.915,210.543,-4.09,0.19117,0.4602
652.515,210.749,-4.09144,0.19327,0.45982
653.115,210.955,-4.09082,0.19016,0.45944
653.715,211.161,-4.08889,0.19637,0.45906
654.315,211.368,-4.08926,0.19354,0.45868
654.915,211.574,-4.09043,0.18803,0.45831
655.515,211.779,-4.09056,0.19091,0.45793
656.115,211.984,-4.09053,0.19757,0.45755
656.715,212.189,-4.09149,0.20022,0.45717
657.315,212.394,-4.09006,0.20122,0.45679
657.915,212.601,-4.09152,0.19994,0.45641
658.515,212.805,-4.09015,0.19719,0.45603
659.115,213.01,-4.09153,0.1956,0.45565
659.715,213.216,-4.09147,0.19422,0.45527
660.315,213.4213,-4.09052,0.19484,0.45489
660.915,213.627,-4.09185,0.19458,0.45451
661.515,213.833,-4.09052,0.19095,0.45413
662.115,214.039,-4.09118,0.19231,0.45375
662.715,214.2456,-4.09118,0.1883,0.45337
663.315,214.453,-4.09184,0.19028,0.45299
663.915,214.66,-4.09037,0.18886,0.45261
664.515,214.866,-4.09082,0.1868,0.45223
665.115,215.072,-4.08953,0.18865,0.45185
665.715,215.279,-4.09058,0.18623,0.45147
666.315,215.485,-4.09052,0.18099,0.45109
666.915,215.691,-4.09052,0.18089,0.45071
667.515,215.896,-4.09206,0.17859,0.45033
668.115,216.1,-4.09184,0.18358,0.44995
668.715,216.305,-4.09184,0.18463,0.44957
669.315,216.51,-4.09184,0.18674,0.44919
669.915,216.7152,-4.09178,0.18458,0.44881
670.515,216.921,-4.09295,0.18606,0.44843
671.115,217.128,-4.0936,0.18825,0.44804
671.715,217.335,-4.09097,0.18618,0.44766
672.315,217.542,-4.09344,0.18512,0.44728
672.915,217.749,-4.09167,0.18687,0.4469
673.515,217.956,-4.09228,0.18644,0.44652
674.115,218.162,-4.09359,0.18587,0.44614
674.715,218.368,-4.0923,0.18692,0.44576
675.315,218.574,-4.08963,0.18714,0.44537
675.915,218.78,-4.0936,0.18581,0.44499
676.515,218.985,-4.09492,0.18687,0.44461
677.115,219.191,-4.09224,0.18413,0.44423
677.715,219.3966,-4.09166,0.1864,0.44385
678.315,219.6027,-4.09349,0.18735,0.44346
678.915,219.81,-4.09309,0.18749,0.44308
679.515,220.017,-4.09217,0.18987,0.4427
680.115,220.225,-4.09279,0.18738,0.44232
680.715,220.434,-4.09216,0.19193,0.44193
681.315,220.642,-4.09216,0.1975,0.44155
681.915,220.85,-4.09086,0.19886,0.44117
682.515,221.0577,-4.09347,0.20219,0.44079
683.115,221.264,-4.0921,0.19651,0.4404
683.715,221.47,-4.09217,0.20141,0.44002
684.315,221.676,-4.09217,0.19564,0.43964
684.915,221.883,-4.09152,0.19475,0.43926
685.515,222.09,-4.09126,0.19845,0.43887
686.115,222.298,-4.09128,0.20097,0.43849
686.715,222.506,-4.09206,0.20584,0.43811
687.315,222.714,-4.09191,0.2087,0.43772
687.915,222.921,-4.09211,0.20711,0.43734
688.515,223.128,-4.09319,0.20852,0.43696
689.115,223.334,-4.09105,0.21505,0.43657
689.715,223.54,-4.09089,0.21271,0.43619
690.315,223.747,-4.09068,0.21092,0.43581
690.915,223.953,-4.09139,0.21399,0.43542
691.515,224.159,-4.09045,0.21545,0.43504
692.115,224.365,-4.09041,0.21721,0.43466
692.715,224.572,-4.09183,0.22009,0.43427
693.315,224.78,-4.09042,0.23091,0.43389
693.915,224.987,-4.09165,0.23646,0.43351
694.515,225.1932,-4.09318,0.23925,0.43312
695.115,225.399,-4.09074,0.24384,0.43274
695.715,225.605,-4.09076,0.24379,0.43236
696.315,225.813,-4.0911,0.24284,0.43197
696.915,226.022,-4.09107,0.24373,0.43159
697.515,226.231,-4.09248,0.24394,0.4312
698.115,226.439,-4.08997,0.2462,0.43082
698.715,226.646,-4.09239,0.24914,0.43044
699.315,226.853,-4.09107,0.25075,0.43005
699.915,227.06,-4.09097,0.25418,0.42967
700.515,227.266,-4.08975,0.25871,0.42928
701.115,227.474,-4.09107,0.26295,0.4289
701.715,227.6817,-4.09005,0.26689,0.42852
702.315,227.8894,-4.09,0.26546,0.42813
702.915,228.097,-4.0914,0.2653,0.42775
703.515,228.304,-4.09009,0.26294,0.42736
704.115,228.511,-4.09102,0.2627,0.42698
704.715,228.717,-4.0924,0.26353,0.42659
705.315,228.923,-4.08987,0.26028,0.42621
705.915,229.128,-4.08932,0.26143,0.42583
706.515,229.3345,-4.08977,0.25922,0.42544
707.115,229.541,-4.09194,0.26082,0.42506
707.715,229.748,-4.09108,0.26046,0.42467
708.315,229.954,-4.09108,0.26212,0.42429
708.915,230.162,-4.09197,0.26708,0.4239
709.515,230.37,-4.09063,0.26986,0.42352
710.115,230.579,-4.08988,0.275,0.42314
710.715,230.789,-4.09211,0.27674,0.42275
711.315,230.998,-4.09336,0.2801,0.42237
711.915,231.207,-4.09371,0.28265,0.42198
712.515,231.414,-4.09169,0.28017,0.4216
713.115,231.622,-4.09005,0.27788,0.42121
713.715,231.829,-4.08877,0.27902,0.42083
714.315,232.036,-4.09008,0.28233,0.42044
714.915,232.244,-4.0914,0.2867,0.42006
715.515,232.453,-4.09144,0.28904,0.41967
716.115,232.6621,-4.09041,0.29916,0.41929
716.715,232.87,-4.09173,0.30388,0.41891
717.315,233.078,-4.09042,0.30379,0.41852
717.915,233.285,-4.09042,0.30712,0.41814
718.515,233.491,-4.09108,0.30859,0.41775
719.115,233.698,-4.08973,0.30831,0.41737
719.715,233.906,-4.09109,0.31012,0.41698
720.315,234.115,-4.08969,0.31101,0.4166
720.915,234.323,-4.09169,0.30435,0.41621
721.515,234.531,-4.0905,0.30456,0.41583
722.115,234.738,-4.09,0.30743,0.41544
722.715,234.945,-4.09108,0.30518,0.41506
723.315,235.152,-4.09049,0.30447,0.41467
723.915,235.359,-4.09235,0.3042,0.41429
724.515,235.566,-4.09107,0.30163,0.41391
725.115,235.7727,-4.09074,0.30429,0.41352
725.715,235.98,-4.09336,0.30231,0.41314
726.315,236.187,-4.09545,0.29886,0.41275
726.915,236.396,-4.08958,0.30839,0.41237
727.515,236.605,-4.09118,0.31211,0.41198
728.115,236.815,-4.09087,0.31422,0.4116
728.715,237.024,-4.09091,0.31333,0.41121
729.315,237.234,-4.09491,0.312,0.41083
729.915,237.444,-4.09288,0.30931,0.41044
730.515,237.652,-4.09211,0.31108,0.41006
731.115,237.86,-4.09075,0.31259,0.40968
731.715,238.068,-4.09274,0.31914,0.40929
732.315,238.276,-4.09173,0.32225,0.40891
732.915,238.483,-4.09174,0.32179,0.40852
733.515,238.691,-4.09238,0.32059,0.40814
734.115,238.898,-4.09106,0.31909,0.40775
734.715,239.106,-4.09253,0.31876,0.40737
735.315,239.314,-4.09373,0.32034,0.40699
735.915,239.521,-4.09243,0.32391,0.4066
736.515,239.729,-4.08902,0.33183,0.40622
737.115,239.935,-4.09173,0.33813,0.40583
737.715,240.142,-4.09206,0.33663,0.40545
738.315,240.35,-4.09371,0.33867,0.40506
738.915,240.558,-4.09149,0.34563,0.40468
739.515,240.766,-4.09174,0.34582,0.4043
740.115,240.9744,-4.09066,0.34992,0.40391
740.715,241.183,-4.09228,0.34507,0.40353
741.315,241.393,-4.09087,0.35095,0.40314
741.915,241.603,-4.09228,0.35722,0.40276
742.515,241.8123,-4.09036,0.35522,0.40238
743.115,242.02,-4.09251,0.35354,0.40199
743.715,242.229,-4.09249,0.34959,0.40161
744.315,242.437,-4.09252,0.35207,0.40122
744.915,242.645,-4.0925,0.35364,0.40084
745.515,242.854,-4.09118,0.35032,0.40046
746.115,243.062,-4.09387,0.35105,0.40007
746.715,243.27,-4.09365,0.35123,0.39969
746.815,243.303,-4.09513,0.35419,0.39962