File: 01_Data/Polyester_Carpet_MedPile/MCC/Polyester_Carpet_MedPile_MCC_30K_min_211029_R1.txt
Sample ID:	C:\MCC\MCC Cal\Test\Polyester_Carpet_MedPile_MCC_30K_min_211029_R1.txt
Sample Weight (mg):	4.64
Heating Rate (C/s):	0.5
Combustor Temp (C):	900
N2 Flow Rate (cc/min):	80
O2 Flow Rate (cc/min):	20
Calibration File:	C:\MCC\MCC Cal\Coeff1 JN10440_30_210304.txt.txt
T Correction Coefficients:	0	1.024463	0
Time Shift (s):	14
*
Time (s)	Temperature (C)	N2 flow rate (cc/min)	O2 flow rate (cc/min)	Flow Rate (cc/min)	Oxygen (%)	HRR (W/g)	Heating rate (C/s)
0.000	109.447	79.992	19.998	102.897	20.040	0.172	-0.023
2.000	109.464	79.992	19.996	102.891	20.038	0.347	-0.016
4.000	109.429	79.994	19.995	102.877	20.038	0.308	-0.020
6.000	109.437	79.993	19.995	102.898	20.042	0.056	0.030
8.000	109.403	79.994	19.995	102.902	20.037	0.392	-0.003
10.000	109.382	79.996	19.995	102.894	20.040	0.198	-0.004
12.000	109.394	79.994	19.995	102.899	20.042	0.087	-0.004
14.000	109.332	79.994	19.995	102.896	20.040	0.198	-0.025
16.000	109.376	79.992	19.996	102.920	20.041	0.099	0.009
18.000	109.336	79.993	19.996	102.929	20.038	0.304	-0.034
20.000	109.405	79.993	19.994	102.916	20.037	0.374	0.011
22.000	109.402	79.991	19.995	102.933	20.037	0.402	-0.003
24.000	109.422	79.992	19.995	102.911	20.034	0.639	0.040
26.000	109.461	79.991	19.994	102.932	20.033	0.705	-0.009
28.000	109.543	79.991	19.996	102.930	20.027	1.068	0.044
30.000	109.623	79.993	19.996	102.967	20.025	1.223	0.034
32.001	109.689	79.992	19.996	103.007	20.024	1.285	0.045
34.000	109.814	79.990	19.996	103.028	20.021	1.513	0.048
36.000	109.950	79.992	19.996	103.049	20.017	1.788	0.081
38.000	110.121	79.992	19.996	103.056	20.016	1.849	0.106
40.000	110.295	79.991	19.996	103.053	20.013	2.035	0.093
42.000	110.474	79.992	19.996	103.067	20.009	2.369	0.112
44.000	110.716	79.991	19.994	103.089	20.012	2.163	0.133
46.000	110.966	79.992	19.997	103.080	20.009	2.353	0.145
48.000	111.277	79.991	19.995	103.081	20.008	2.435	0.155
50.000	111.554	79.991	19.995	103.083	20.008	2.422	0.166
52.000	111.930	79.992	19.996	103.085	20.003	2.741	0.189
54.000	112.243	79.991	19.996	103.087	20.005	2.638	0.177
56.000	112.600	79.992	19.995	103.086	20.004	2.688	0.189
58.000	113.008	79.994	19.996	103.086	20.002	2.828	0.207
60.000	113.430	79.993	19.996	103.094	20.000	2.997	0.212
62.000	113.890	79.992	19.996	103.107	20.004	2.697	0.241
64.000	114.350	79.992	19.996	103.124	20.000	2.982	0.240
66.001	114.795	79.991	19.997	103.125	19.999	3.050	0.210
68.000	115.315	79.991	19.996	103.125	19.996	3.232	0.254
70.000	115.827	79.992	19.995	103.130	19.996	3.242	0.248
72.000	116.371	79.992	19.995	103.137	19.996	3.280	0.269
74.001	116.904	79.993	19.995	103.137	19.995	3.327	0.291
76.000	117.525	79.994	19.996	103.105	19.993	3.463	0.312
78.001	118.095	79.992	19.994	103.107	19.995	3.285	0.289
80.001	118.697	79.993	19.995	103.205	19.993	3.423	0.346
82.000	119.337	79.993	19.996	103.167	19.998	3.106	0.302
84.000	119.963	79.994	19.995	103.167	19.994	3.408	0.317
86.001	120.638	79.993	19.994	103.167	19.991	3.611	0.318
88.000	121.346	79.993	19.995	103.154	19.990	3.683	0.352
90.000	122.024	79.995	19.994	103.124	19.989	3.720	0.352
92.000	122.774	79.994	19.995	103.133	19.983	4.142	0.387
94.000	123.495	79.993	19.996	103.141	19.984	4.073	0.372
96.000	124.296	79.993	19.996	103.165	19.988	3.793	0.383
98.000	125.087	79.992	19.996	103.166	19.989	3.711	0.386
100.000	125.880	79.990	19.995	103.176	19.985	3.994	0.392
102.000	126.672	79.994	19.994	103.181	19.985	4.001	0.402
104.000	127.483	79.993	19.995	103.197	19.987	3.904	0.389
106.000	128.349	79.993	19.995	103.185	19.986	3.915	0.432
108.001	129.166	79.993	19.995	103.158	19.986	3.971	0.425
110.001	130.035	79.993	19.995	103.138	19.986	3.946	0.444
112.000	130.884	79.992	19.995	103.138	19.986	3.918	0.438
114.000	131.769	79.994	19.994	103.162	19.987	3.854	0.418
116.001	132.665	79.993	19.995	103.159	19.986	3.950	0.438
118.000	133.544	79.993	19.996	103.167	19.991	3.624	0.431
120.001	134.473	79.992	19.996	103.189	19.986	3.919	0.417
122.000	135.378	79.992	19.996	103.188	19.993	3.428	0.447
124.000	136.376	79.993	19.996	103.174	19.991	3.624	0.482
126.000	137.326	79.993	19.996	103.166	19.992	3.528	0.467
128.000	138.291	79.991	19.998	103.150	19.991	3.571	0.476
130.000	139.227	79.992	19.996	103.143	19.990	3.677	0.510
132.000	140.211	79.991	19.996	103.152	19.989	3.764	0.507
134.000	141.177	79.991	19.997	103.166	19.987	3.887	0.473
136.000	142.138	79.992	19.997	103.141	19.989	3.738	0.468
138.000	143.124	79.994	19.997	103.129	19.986	3.927	0.495
140.000	144.118	79.993	19.996	103.156	19.990	3.652	0.487
142.000	145.096	79.994	19.996	103.170	19.995	3.291	0.487
144.000	146.110	79.994	19.996	103.177	19.993	3.479	0.516
146.000	147.062	79.992	19.997	103.194	19.996	3.265	0.480
148.000	148.100	79.994	19.996	103.178	19.995	3.348	0.502
150.000	149.103	79.992	19.997	103.142	19.997	3.204	0.494
152.000	150.075	79.992	19.996	103.154	19.992	3.493	0.493
154.000	151.095	79.993	19.995	103.132	19.992	3.528	0.504
156.000	152.152	79.994	19.996	103.097	19.994	3.401	0.522
158.000	153.149	79.996	19.996	103.122	19.996	3.259	0.485
160.000	154.151	79.992	19.995	103.156	19.997	3.194	0.513
162.000	155.151	79.994	19.996	103.147	19.996	3.256	0.520
164.000	156.170	79.994	19.996	103.142	19.997	3.156	0.523
166.000	157.166	79.994	19.995	103.135	19.995	3.342	0.520
168.000	158.156	79.993	19.995	103.125	19.991	3.611	0.521
170.000	159.146	79.995	19.995	103.093	19.993	3.461	0.500
172.000	160.166	79.995	19.996	103.103	19.993	3.450	0.499
174.000	161.197	79.993	19.996	103.159	19.995	3.347	0.548
176.000	162.208	79.991	19.996	103.168	19.996	3.267	0.530
178.000	163.182	79.993	19.996	103.152	19.995	3.322	0.499
180.000	164.187	79.991	19.996	103.124	19.996	3.223	0.509
182.000	165.181	79.991	19.997	103.123	19.997	3.152	0.509
184.000	166.199	79.992	19.996	103.125	19.998	3.110	0.503
186.000	167.172	79.993	19.996	103.123	19.997	3.170	0.496
188.000	168.148	79.993	19.995	103.124	19.997	3.186	0.488
190.000	169.148	79.992	19.995	103.127	19.995	3.322	0.465
192.000	170.152	79.992	19.995	103.115	19.995	3.302	0.486
194.000	171.157	79.992	19.996	103.120	19.998	3.076	0.513
196.000	172.101	79.993	19.995	103.129	19.998	3.142	0.465
198.000	173.126	79.993	19.995	103.126	19.999	3.046	0.500
200.000	174.105	79.993	19.995	103.128	19.999	3.008	0.497
202.001	175.102	79.993	19.995	103.121	19.997	3.178	0.480
204.000	176.076	79.989	19.995	103.106	19.998	3.100	0.463
206.000	177.057	79.992	19.997	103.097	19.999	3.053	0.505
208.000	178.023	79.991	19.995	103.105	20.002	2.839	0.496
210.000	179.015	79.991	19.996	103.112	20.002	2.864	0.491
212.000	179.993	79.990	19.996	103.106	19.999	3.047	0.517
214.000	180.989	79.991	19.996	103.118	20.003	2.771	0.488
216.000	181.989	79.993	19.996	103.093	20.001	2.925	0.498
218.000	182.968	79.995	19.995	103.092	20.003	2.777	0.484
220.000	183.947	79.996	19.996	103.090	19.997	3.146	0.524
222.000	184.926	79.993	19.997	103.099	19.998	3.101	0.486
224.000	185.892	79.993	19.996	103.099	20.000	2.946	0.478
226.001	186.897	79.994	19.995	103.106	19.999	3.060	0.513
228.000	187.890	79.992	19.996	103.106	19.999	3.052	0.505
230.000	188.882	79.993	19.996	103.104	20.003	2.744	0.492
232.000	189.875	79.992	19.997	103.104	20.002	2.831	0.522
234.000	190.799	79.990	19.997	103.098	20.004	2.672	0.479
236.000	191.770	79.991	19.997	103.097	20.005	2.625	0.478
238.000	192.738	79.993	19.998	103.089	20.004	2.661	0.457
240.000	193.736	79.993	19.998	103.088	20.003	2.766	0.525
242.000	194.692	79.995	19.997	103.099	20.001	2.876	0.461
244.000	195.707	79.995	19.996	103.092	20.005	2.606	0.531
246.000	196.665	79.995	19.997	103.095	20.002	2.831	0.469
248.000	197.625	79.995	19.995	103.087	20.007	2.476	0.478
250.000	198.665	79.996	19.995	103.109	20.004	2.699	0.494
252.000	199.608	79.994	19.995	103.097	20.007	2.494	0.523
254.000	200.547	79.993	19.995	103.097	20.005	2.592	0.474
256.000	201.548	79.992	19.996	103.094	20.002	2.818	0.482
258.000	202.580	79.994	19.995	103.084	20.005	2.614	0.504
260.000	203.540	79.991	19.995	103.084	20.004	2.666	0.461
262.000	204.547	79.991	19.996	103.099	20.002	2.834	0.513
264.000	205.554	79.991	19.996	103.089	20.003	2.768	0.513
266.000	206.570	79.990	19.996	103.096	20.004	2.705	0.520
268.000	207.571	79.992	19.997	103.123	20.003	2.751	0.506
270.000	208.547	79.992	19.996	103.105	20.010	2.265	0.498
272.000	209.536	79.991	19.996	103.094	20.008	2.384	0.488
274.000	210.547	79.991	19.996	103.124	20.011	2.202	0.502
276.000	211.514	79.992	19.994	103.154	20.010	2.291	0.537
278.000	212.527	79.993	19.996	103.139	20.008	2.431	0.504
280.000	213.496	79.993	19.995	103.120	20.006	2.563	0.495
282.001	214.470	79.993	19.998	103.093	20.005	2.640	0.466
284.000	215.519	79.996	19.996	103.085	20.007	2.503	0.504
286.000	216.477	79.993	19.997	103.068	20.006	2.547	0.479
288.000	217.503	79.994	19.995	103.081	20.008	2.408	0.495
290.000	218.489	79.993	19.995	103.077	20.007	2.491	0.499
292.000	219.474	79.992	19.995	103.106	20.010	2.296	0.510
294.000	220.450	79.989	19.996	103.147	20.014	2.023	0.490
296.000	221.463	79.991	19.996	103.161	20.014	2.029	0.490
298.000	222.428	79.991	19.997	103.122	20.011	2.184	0.518
300.000	223.461	79.994	19.996	103.073	20.015	1.956	0.497
302.000	224.411	79.993	19.996	103.059	20.011	2.202	0.453
304.000	225.441	79.995	19.995	103.070	20.008	2.440	0.497
306.000	226.387	79.994	19.996	103.081	20.006	2.563	0.496
308.000	227.419	79.992	19.997	103.061	20.010	2.285	0.495
310.000	228.441	79.991	19.996	103.102	20.012	2.154	0.522
312.000	229.442	79.995	19.995	103.117	20.011	2.198	0.502
314.000	230.433	79.993	19.996	103.052	20.008	2.410	0.514
316.000	231.447	79.994	19.995	103.082	20.011	2.191	0.502
318.000	232.468	79.994	19.997	103.064	20.010	2.276	0.488
320.000	233.487	79.994	19.994	103.086	20.009	2.318	0.489
322.000	234.475	79.996	19.995	103.102	20.009	2.340	0.509
324.000	235.494	79.994	19.997	103.105	20.007	2.461	0.496
326.000	236.550	79.997	19.996	103.107	20.012	2.164	0.507
328.000	237.567	79.994	19.995	103.103	20.011	2.204	0.554
330.000	238.553	79.992	19.996	103.086	20.011	2.231	0.505
332.000	239.552	79.994	19.995	103.070	20.008	2.392	0.516
334.000	240.550	79.992	19.996	103.100	20.012	2.134	0.492
336.000	241.578	79.993	19.995	103.117	20.014	2.030	0.498
338.000	242.610	79.992	19.995	103.091	20.013	2.099	0.534
340.000	243.627	79.990	19.996	103.067	20.010	2.259	0.512
342.000	244.611	79.993	19.996	103.086	20.014	1.978	0.485
344.000	245.666	79.994	19.996	103.095	20.015	1.956	0.514
346.000	246.671	79.994	19.996	103.075	20.021	1.520	0.507
348.000	247.684	79.993	19.996	103.060	20.017	1.798	0.498
350.000	248.660	79.993	19.996	103.092	20.016	1.829	0.521
352.000	249.705	79.993	19.996	103.086	20.013	2.095	0.510
354.000	250.702	79.993	19.997	103.024	20.014	2.002	0.495
356.000	251.728	79.989	19.996	103.020	20.012	2.163	0.533
358.000	252.727	79.993	19.996	103.044	20.011	2.202	0.481
360.000	253.693	79.992	19.996	103.071	20.013	2.099	0.482
362.000	254.680	79.994	19.995	103.085	20.016	1.881	0.507
364.000	255.692	79.991	19.997	103.063	20.016	1.873	0.501
366.000	256.648	79.995	19.995	103.085	20.015	1.909	0.499
368.000	257.654	79.992	19.995	103.082	20.017	1.782	0.495
370.000	258.635	79.996	19.995	103.088	20.013	2.100	0.514
372.000	259.636	79.995	19.995	103.089	20.015	1.951	0.528
374.000	260.567	79.996	19.997	103.057	20.015	1.924	0.494
376.000	261.564	79.992	19.997	103.080	20.017	1.788	0.499
378.000	262.540	79.994	19.996	103.095	20.011	2.192	0.506
380.000	263.496	79.993	19.997	103.064	20.017	1.781	0.461
382.000	264.506	79.995	19.996	103.068	20.015	1.939	0.487
384.000	265.516	79.995	19.995	103.045	20.013	2.034	0.499
386.000	266.474	79.992	19.997	103.057	20.017	1.801	0.491
388.000	267.425	79.993	19.997	103.079	20.017	1.804	0.464
390.000	268.454	79.993	19.996	103.085	20.017	1.823	0.506
392.000	269.408	79.991	19.995	103.076	20.017	1.790	0.511
394.000	270.415	79.992	19.996	103.059	20.016	1.856	0.528
396.000	271.455	79.994	19.995	103.050	20.015	1.916	0.498
398.000	272.431	79.993	19.996	103.065	20.013	2.042	0.508
400.000	273.401	79.994	19.995	103.076	20.015	1.914	0.509
402.000	274.355	79.994	19.996	103.078	20.012	2.142	0.484
404.000	275.353	79.994	19.996	103.090	20.011	2.223	0.477
406.000	276.381	79.994	19.996	103.087	20.011	2.173	0.547
408.000	277.343	79.994	19.995	103.066	20.011	2.182	0.475
410.000	278.286	79.992	19.998	103.062	20.012	2.122	0.470
412.000	279.285	79.993	19.997	103.080	20.014	1.992	0.489
414.000	280.274	79.991	19.999	103.085	20.014	1.973	0.499
416.000	281.250	79.992	19.998	103.086	20.015	1.899	0.515
418.000	282.251	79.991	19.998	103.069	20.015	1.949	0.505
420.000	283.219	79.991	19.997	103.061	20.014	1.982	0.517
422.000	284.215	79.993	19.998	103.067	20.015	1.897	0.485
424.000	285.212	79.996	19.997	103.086	20.017	1.817	0.494
426.000	286.246	79.994	19.996	103.074	20.016	1.879	0.500
428.000	287.181	79.992	19.998	103.072	20.015	1.896	0.471
430.000	288.213	79.994	19.996	103.067	20.016	1.881	0.495
432.000	289.216	79.995	19.995	103.050	20.013	2.067	0.462
434.000	290.231	79.994	19.996	103.067	20.014	2.021	0.504
436.000	291.184	79.992	19.996	103.061	20.015	1.922	0.504
438.000	292.191	79.992	19.997	103.049	20.015	1.959	0.462
440.000	293.237	79.992	19.996	103.049	20.017	1.786	0.516
442.000	294.167	79.992	19.996	103.057	20.014	1.973	0.497
444.000	295.182	79.992	19.996	103.060	20.015	1.912	0.519
446.000	296.158	79.992	19.997	103.051	20.011	2.186	0.506
448.000	297.151	79.991	19.996	103.063	20.011	2.206	0.528
450.000	298.130	79.991	19.996	103.068	20.010	2.275	0.515
452.001	299.104	79.993	19.996	103.069	20.011	2.226	0.491
454.000	300.147	79.994	19.995	103.083	20.011	2.207	0.505
456.000	301.105	79.993	19.996	103.066	20.011	2.174	0.471
458.000	302.094	79.994	19.995	103.065	20.013	2.063	0.492
460.000	303.053	79.995	19.995	103.067	20.012	2.136	0.495
462.000	304.022	79.993	19.995	103.053	20.009	2.353	0.485
464.000	305.049	79.994	19.995	103.051	20.010	2.308	0.520
466.000	306.009	79.992	19.996	103.048	20.009	2.359	0.517
468.000	306.997	79.992	19.997	103.051	20.011	2.213	0.461
470.000	308.021	79.992	19.996	103.062	20.011	2.199	0.528
472.000	309.067	79.993	19.996	103.063	20.005	2.596	0.517
474.000	310.045	79.994	19.996	103.047	20.011	2.232	0.511
476.000	311.025	79.994	19.996	103.070	20.009	2.362	0.503
478.000	312.035	79.994	19.996	103.058	20.008	2.401	0.516
480.000	313.023	79.995	19.996	103.056	20.010	2.310	0.458
482.000	314.028	79.994	19.994	103.069	20.010	2.298	0.482
484.000	315.037	79.996	19.996	103.057	20.010	2.300	0.498
486.000	316.009	79.993	19.996	103.047	20.012	2.118	0.480
488.000	316.968	79.994	19.997	103.046	20.012	2.110	0.496
490.000	318.015	79.993	19.996	103.042	20.009	2.349	0.500
492.000	318.929	79.992	19.995	103.037	20.004	2.689	0.487
494.000	319.933	79.994	19.997	103.045	20.006	2.563	0.497
496.000	320.957	79.992	19.996	103.048	19.999	3.039	0.488
498.000	321.936	79.993	19.996	103.062	20.002	2.839	0.526
500.000	322.938	79.992	19.997	103.072	19.997	3.183	0.496
502.000	323.949	79.991	19.996	103.062	19.999	3.015	0.537
504.000	324.937	79.994	19.995	103.070	20.001	2.876	0.480
506.000	325.961	79.992	19.997	103.077	20.000	2.963	0.504
508.000	326.964	79.991	19.996	103.078	19.999	3.024	0.505
510.000	328.004	79.993	19.996	103.085	19.998	3.096	0.521
512.000	329.041	79.993	19.995	103.079	19.998	3.092	0.526
514.000	330.026	79.992	19.995	103.079	19.997	3.170	0.494
516.000	331.054	79.992	19.996	103.080	19.996	3.257	0.505
518.000	332.131	79.994	19.994	103.072	19.996	3.251	0.538
520.000	333.167	79.991	19.996	103.054	19.993	3.434	0.533
522.000	334.241	79.992	19.996	103.054	19.992	3.490	0.549
524.000	335.307	79.992	19.995	103.051	19.989	3.700	0.538
526.000	336.305	79.994	19.993	103.043	19.987	3.854	0.496
528.000	337.341	79.991	19.996	103.047	19.985	3.979	0.499
530.000	338.379	79.994	19.995	103.051	19.987	3.872	0.513
532.000	339.438	79.994	19.995	103.052	19.988	3.804	0.520
534.000	340.409	79.993	19.996	103.051	19.982	4.204	0.506
536.001	341.432	79.993	19.995	103.075	19.985	4.006	0.490
538.000	342.474	79.993	19.996	103.052	19.985	4.008	0.503
540.000	343.450	79.997	19.996	103.050	19.982	4.218	0.503
542.000	344.473	79.994	19.995	103.050	19.983	4.163	0.510
544.000	345.517	79.995	19.994	103.049	19.975	4.701	0.508
546.000	346.511	79.994	19.996	103.048	19.973	4.820	0.514
548.000	347.547	79.992	19.995	103.051	19.971	5.008	0.511
550.000	348.553	79.992	19.995	103.050	19.972	4.932	0.511
552.000	349.598	79.994	19.997	103.039	19.965	5.359	0.551
554.001	350.610	79.995	19.996	103.031	19.961	5.661	0.466
556.000	351.608	79.995	19.996	103.049	19.963	5.502	0.514
558.000	352.602	79.996	19.996	103.048	19.960	5.759	0.487
560.000	353.636	79.996	19.996	103.048	19.960	5.755	0.501
562.000	354.622	79.996	19.995	103.047	19.952	6.309	0.492
564.000	355.637	79.994	19.996	103.038	19.956	6.015	0.509
566.000	356.607	79.993	19.996	103.050	19.948	6.605	0.499
568.000	357.574	79.993	19.995	103.062	19.943	6.902	0.491
570.000	358.604	79.992	19.996	103.046	19.942	6.980	0.512
572.000	359.601	79.993	19.995	103.050	19.939	7.174	0.530
574.000	360.547	79.992	19.996	103.053	19.932	7.652	0.491
576.000	361.564	79.990	19.995	103.050	19.931	7.749	0.506
578.000	362.536	79.993	19.997	103.049	19.926	8.087	0.474
580.000	363.512	79.993	19.998	103.049	19.922	8.405	0.492
582.000	364.483	79.992	19.995	103.048	19.921	8.440	0.467
584.000	365.461	79.991	19.996	103.050	19.913	8.976	0.469
586.000	366.462	79.991	19.996	103.048	19.906	9.458	0.493
588.000	367.436	79.991	19.997	103.051	19.905	9.547	0.452
590.000	368.420	79.993	19.996	103.053	19.899	9.934	0.469
592.000	369.391	79.993	19.996	103.059	19.895	10.271	0.508
594.000	370.381	79.991	19.996	103.062	19.887	10.800	0.521
596.000	371.342	79.992	19.996	103.063	19.882	11.160	0.485
598.000	372.277	79.994	19.997	103.068	19.875	11.633	0.502
600.000	373.267	79.991	19.996	103.055	19.873	11.780	0.504
602.000	374.278	79.992	19.996	103.054	19.863	12.450	0.474
604.000	375.232	79.991	19.995	103.060	19.859	12.730	0.442
606.001	376.215	79.993	19.995	103.073	19.849	13.402	0.485
608.000	377.199	79.992	19.995	103.075	19.847	13.595	0.499
610.000	378.221	79.993	19.996	103.076	19.837	14.239	0.502
612.000	379.148	79.992	19.996	103.066	19.829	14.799	0.473
614.000	380.157	79.993	19.996	103.078	19.822	15.289	0.523
616.000	381.097	79.992	19.995	103.086	19.817	15.641	0.446
618.000	382.120	79.993	19.996	103.087	19.807	16.381	0.489
620.000	383.113	79.993	19.995	103.097	19.800	16.845	0.502
622.000	384.111	79.994	19.995	103.108	19.792	17.396	0.496
624.000	385.139	79.993	19.995	103.096	19.783	18.024	0.491
626.000	386.139	79.992	19.996	103.107	19.777	18.441	0.505
628.000	387.167	79.994	19.995	103.100	19.763	19.381	0.513
630.000	388.184	79.992	19.995	103.088	19.758	19.768	0.542
632.000	389.215	79.993	19.996	103.087	19.750	20.306	0.506
634.000	390.229	79.993	19.995	103.087	19.739	21.081	0.505
636.000	391.237	79.995	19.995	103.088	19.730	21.702	0.487
638.001	392.279	79.995	19.994	103.089	19.715	22.705	0.504
640.000	393.277	79.995	19.996	103.089	19.705	23.420	0.503
642.000	394.308	79.994	19.995	103.090	19.698	23.934	0.501
644.000	395.298	79.994	19.994	103.093	19.683	24.936	0.500
646.000	396.344	79.992	19.995	103.091	19.673	25.636	0.494
648.000	397.339	79.992	19.995	103.097	19.665	26.216	0.499
650.000	398.363	79.992	19.996	103.125	19.651	27.200	0.510
652.000	399.358	79.990	19.996	103.129	19.635	28.263	0.511
654.001	400.353	79.991	19.995	103.119	19.627	28.809	0.514
656.001	401.333	79.991	19.996	103.131	19.616	29.621	0.484
658.000	402.340	79.993	19.996	103.136	19.603	30.505	0.500
660.000	403.353	79.992	19.996	103.161	19.591	31.344	0.505
662.000	404.387	79.991	19.996	103.151	19.573	32.570	0.525
664.000	405.397	79.991	19.996	103.158	19.559	33.581	0.490
666.000	406.399	79.992	19.996	103.146	19.546	34.462	0.511
668.000	407.479	79.992	19.996	103.141	19.526	35.884	0.566
670.000	408.483	79.992	19.996	103.154	19.509	37.025	0.514
672.000	409.593	79.993	19.997	103.164	19.489	38.402	0.537
674.000	410.684	79.992	19.997	103.163	19.469	39.821	0.549
676.000	411.754	79.991	19.997	103.164	19.448	41.260	0.532
678.000	412.835	79.991	19.998	103.165	19.424	42.982	0.543
680.000	413.916	79.991	19.997	103.165	19.402	44.485	0.553
682.000	414.975	79.992	19.996	103.165	19.377	46.188	0.553
684.000	416.058	79.992	19.997	103.163	19.355	47.760	0.522
686.000	417.163	79.992	19.996	103.191	19.331	49.414	0.541
688.000	418.300	79.993	19.995	103.218	19.302	51.401	0.565
690.000	419.410	79.992	19.996	103.230	19.276	53.199	0.570
692.000	420.506	79.994	19.995	103.212	19.246	55.331	0.531
694.000	421.603	79.995	19.995	103.205	19.216	57.373	0.537
696.000	422.695	79.994	19.994	103.214	19.187	59.433	0.522
698.000	423.847	79.994	19.995	103.218	19.158	61.458	0.545
700.000	424.947	79.993	19.994	103.233	19.124	63.819	0.537
702.000	426.033	79.992	19.995	103.233	19.093	65.927	0.533
704.000	427.177	79.991	19.994	103.238	19.064	67.989	0.567
706.000	428.252	79.992	19.995	103.258	19.030	70.365	0.552
708.000	429.376	79.991	19.996	103.257	19.000	72.481	0.540
710.000	430.451	79.993	19.995	103.254	18.971	74.434	0.549
712.000	431.512	79.991	19.995	103.261	18.939	76.675	0.503
714.000	432.641	79.994	19.995	103.293	18.912	78.571	0.534
716.000	433.754	79.994	19.996	103.311	18.877	81.004	0.558
718.000	434.893	79.995	19.996	103.331	18.852	82.738	0.590
720.000	435.944	79.995	19.994	103.337	18.824	84.718	0.546
722.000	437.031	79.994	19.996	103.322	18.794	86.754	0.549
724.000	438.139	79.994	19.995	103.319	18.766	88.715	0.524
726.000	439.216	79.994	19.994	103.347	18.741	90.495	0.562
728.000	440.289	79.994	19.995	103.347	18.714	92.372	0.552
730.000	441.272	79.993	19.996	103.334	18.688	94.177	0.525
732.000	442.320	79.992	19.996	103.356	18.670	95.433	0.489
734.000	443.423	79.991	19.997	103.348	18.652	96.652	0.519
736.000	444.450	79.991	19.998	103.360	18.637	97.684	0.531
738.000	445.506	79.991	19.995	103.362	18.623	98.641	0.507
740.000	446.582	79.992	19.996	103.362	18.618	98.982	0.520
742.000	447.596	79.992	19.997	103.383	18.612	99.464	0.521
744.000	448.660	79.992	19.997	103.362	18.615	99.222	0.521
746.000	449.649	79.992	19.996	103.352	18.622	98.680	0.488
748.000	450.726	79.992	19.998	103.331	18.636	97.711	0.513
750.000	451.730	79.991	19.996	103.327	18.657	96.275	0.513
752.000	452.795	79.992	19.995	103.338	18.681	94.557	0.539
754.000	453.769	79.992	19.997	103.336	18.717	92.016	0.480
756.000	454.790	79.991	19.996	103.321	18.761	88.953	0.526
758.000	455.825	79.992	19.996	103.300	18.807	85.787	0.522
760.000	456.875	79.991	19.996	103.291	18.860	82.094	0.502
762.000	457.896	79.990	19.996	103.277	18.909	78.663	0.507
764.000	458.943	79.990	19.997	103.250	18.967	74.646	0.518
766.000	459.915	79.992	19.997	103.242	19.024	70.650	0.481
768.000	460.952	79.992	19.996	103.225	19.084	66.528	0.482
770.000	461.994	79.993	19.996	103.206	19.145	62.282	0.517
772.000	462.967	79.992	19.995	103.184	19.204	58.128	0.503
774.000	464.000	79.994	19.996	103.179	19.262	54.097	0.504
776.000	464.993	79.992	19.995	103.160	19.311	50.746	0.511
778.000	465.991	79.994	19.994	103.147	19.354	47.761	0.518
780.000	466.986	79.994	19.996	103.135	19.391	45.170	0.490
782.000	467.999	79.993	19.995	103.128	19.411	43.810	0.512
784.000	469.025	79.994	19.996	103.104	19.430	42.435	0.518
786.000	470.017	79.993	19.997	103.094	19.445	41.439	0.520
788.000	471.009	79.994	19.995	103.080	19.450	41.055	0.491
790.000	472.052	79.994	19.996	103.087	19.446	41.345	0.519
792.000	473.038	79.995	19.995	103.072	19.442	41.651	0.507
794.000	474.077	79.993	19.996	103.050	19.435	42.132	0.504
796.000	475.152	79.994	19.996	103.049	19.424	42.878	0.519
798.000	476.114	79.995	19.994	103.040	19.409	43.920	0.480
800.000	477.095	79.994	19.994	103.017	19.396	44.774	0.487
802.000	478.104	79.995	19.995	103.010	19.378	45.984	0.477
804.000	479.157	79.995	19.995	103.009	19.369	46.671	0.493
806.000	480.140	79.993	19.995	103.008	19.360	47.286	0.517
808.000	481.178	79.993	19.995	103.003	19.350	47.974	0.516
810.000	482.176	79.994	19.995	102.968	19.356	47.541	0.501
812.000	483.186	79.993	19.994	102.945	19.370	46.613	0.502
814.000	484.201	79.994	19.994	102.933	19.396	44.763	0.532
816.000	485.172	79.993	19.995	102.932	19.444	41.481	0.472
818.001	486.161	79.994	19.996	102.932	19.493	38.094	0.504
820.000	487.160	79.993	19.996	102.935	19.547	34.335	0.496
822.000	488.169	79.993	19.996	102.951	19.599	30.717	0.515
824.000	489.150	79.993	19.996	102.968	19.652	27.095	0.490
826.000	490.077	79.992	19.996	102.974	19.698	23.871	0.460
828.000	491.071	79.992	19.995	102.974	19.746	20.549	0.477
830.000	492.066	79.993	19.997	102.975	19.791	17.428	0.507
832.000	493.003	79.992	19.997	103.003	19.831	14.669	0.476
834.000	494.014	79.991	19.996	103.009	19.861	12.580	0.513
836.000	494.985	79.991	19.996	103.012	19.887	10.791	0.509
838.000	495.947	79.993	19.996	103.012	19.914	8.935	0.468
840.000	496.931	79.991	19.995	103.027	19.934	7.543	0.469
842.001	497.887	79.993	19.997	103.052	19.946	6.717	0.467
844.000	498.913	79.991	19.996	103.052	19.965	5.380	0.498
846.000	499.832	79.991	19.996	103.050	19.970	5.050	0.471
848.000	500.810	79.993	19.996	103.043	19.978	4.514	0.461
850.000	501.746	79.993	19.997	103.019	19.980	4.323	0.490
852.000	502.710	79.993	19.998	103.023	19.987	3.834	0.467
854.000	503.670	79.991	19.998	103.033	19.991	3.605	0.473
856.000	504.655	79.993	19.997	103.038	19.992	3.539	0.488
858.000	505.617	79.993	19.997	103.021	19.993	3.432	0.466
860.000	506.608	79.992	19.996	103.023	19.991	3.613	0.468
862.000	507.551	79.992	19.995	103.018	19.993	3.425	0.473
864.000	508.494	79.992	19.995	103.010	19.990	3.651	0.487
866.000	509.501	79.992	19.996	103.009	19.991	3.583	0.499
868.000	510.496	79.992	19.996	103.010	19.997	3.166	0.524
870.000	511.463	79.994	19.996	103.012	19.994	3.387	0.519
872.000	512.444	79.995	19.995	103.023	19.994	3.354	0.492
874.000	513.424	79.994	19.996	103.030	19.995	3.293	0.501
876.000	514.432	79.996	19.995	103.034	19.996	3.235	0.493
878.000	515.459	79.995	19.995	103.039	19.996	3.249	0.502
880.000	516.431	79.994	19.996	103.035	19.996	3.247	0.513
882.000	517.440	79.993	19.995	103.039	19.997	3.175	0.486
884.000	518.452	79.993	19.996	103.040	19.999	3.047	0.495
886.000	519.484	79.992	19.996	103.016	20.002	2.837	0.503
888.000	520.482	79.992	19.997	103.019	20.003	2.753	0.506
890.000	521.485	79.992	19.996	103.029	19.997	3.147	0.505
892.000	522.484	79.993	19.996	103.032	19.999	3.027	0.507
894.000	523.499	79.994	19.995	103.030	19.998	3.129	0.512
896.000	524.491	79.993	19.995	103.013	19.998	3.123	0.512
898.000	525.495	79.992	19.996	103.015	19.997	3.148	0.494
900.000	526.488	79.992	19.995	103.009	19.994	3.394	0.499
902.000	527.528	79.992	19.995	103.016	19.999	3.034	0.503
904.000	528.515	79.993	19.995	103.037	19.997	3.184	0.497
906.000	529.537	79.992	19.995	103.048	19.998	3.095	0.500
908.000	530.535	79.992	19.996	103.030	19.993	3.463	0.517
910.000	531.539	79.992	19.996	103.024	19.998	3.092	0.503
912.000	532.571	79.992	19.995	103.064	19.995	3.336	0.498
914.000	533.616	79.991	19.997	103.034	19.997	3.190	0.509
916.000	534.613	79.990	19.997	103.008	20.000	2.973	0.504
918.000	535.634	79.991	19.995	103.029	20.000	2.968	0.485
920.000	536.643	79.991	19.996	103.052	20.001	2.921	0.510
922.000	537.678	79.991	19.996	103.041	20.004	2.688	0.517
924.000	538.641	79.991	19.997	103.010	20.003	2.768	0.470
926.000	539.647	79.993	19.996	103.023	20.005	2.600	0.495
928.000	540.655	79.995	19.996	103.041	20.006	2.583	0.507
930.000	541.677	79.994	19.996	103.041	20.009	2.361	0.531
932.000	542.692	79.993	19.995	103.032	20.012	2.119	0.517
934.000	543.714	79.994	19.996	103.035	20.011	2.214	0.501
936.000	544.688	79.992	19.996	103.028	20.009	2.313	0.508
938.000	545.678	79.993	19.996	103.010	20.006	2.548	0.510
940.000	546.658	79.993	19.996	103.008	20.010	2.267	0.494
942.000	547.653	79.992	19.996	103.003	20.005	2.635	0.497
944.000	548.678	79.993	19.996	103.011	20.004	2.695	0.496
946.000	549.672	79.993	19.996	103.031	20.001	2.870	0.503
948.000	550.713	79.992	19.996	103.015	19.998	3.088	0.533
950.000	551.761	79.994	19.996	103.021	20.002	2.822	0.533
952.000	552.693	79.993	19.996	103.015	20.000	2.962	0.466
954.000	553.753	79.996	19.995	103.015	19.999	3.057	0.518
956.000	554.771	79.995	19.995	103.030	20.001	2.917	0.516
958.000	555.761	79.995	19.995	103.028	19.997	3.173	0.507
960.000	556.756	79.994	19.996	103.032	19.996	3.233	0.509
962.000	557.813	79.993	19.995	103.045	19.995	3.295	0.513
964.000	558.832	79.992	19.995	103.043	19.992	3.527	0.529
966.000	559.878	79.991	19.996	103.031	19.996	3.230	0.521
968.000	560.872	79.991	19.995	103.037	19.994	3.410	0.526
970.001	561.918	79.992	19.995	103.017	19.992	3.537	0.512
972.000	562.916	79.991	19.995	103.026	19.993	3.431	0.525
974.000	563.948	79.990	19.996	103.046	19.991	3.561	0.492
976.000	564.980	79.991	19.996	103.044	19.991	3.589	0.533
978.000	566.044	79.993	19.996	103.042	19.990	3.690	0.527
980.000	567.051	79.994	19.996	103.047	19.988	3.815	0.530
982.000	568.124	79.992	19.997	103.046	19.986	3.917	0.540
984.000	569.153	79.994	19.996	103.025	19.987	3.886	0.538
986.000	570.214	79.991	19.995	103.027	19.986	3.954	0.531
988.000	571.269	79.993	19.995	103.060	19.978	4.504	0.505
990.000	572.299	79.991	19.996	103.034	19.979	4.392	0.521
992.000	573.351	79.993	19.995	103.010	19.979	4.391	0.521
994.000	574.408	79.992	19.996	103.024	19.976	4.598	0.506
996.000	575.459	79.991	19.995	103.050	19.974	4.773	0.540
998.000	576.479	79.992	19.996	103.062	19.972	4.910	0.493
1000.000	577.540	79.992	19.996	103.050	19.970	5.015	0.540
1002.000	578.529	79.991	19.996	103.047	19.967	5.289	0.510
1004.000	579.591	79.991	19.995	103.036	19.963	5.510	0.526
1006.000	580.623	79.993	19.995	103.033	19.957	5.915	0.513
1008.000	581.631	79.991	19.996	103.061	19.957	5.979	0.518
1010.000	582.645	79.995	19.996	103.057	19.951	6.356	0.501
1012.000	583.669	79.993	19.996	103.033	19.944	6.872	0.509
1014.000	584.694	79.994	19.994	103.053	19.943	6.890	0.527
1016.000	585.739	79.994	19.996	103.076	19.935	7.456	0.525
1018.000	586.760	79.993	19.997	103.055	19.928	7.939	0.516
1020.000	587.796	79.993	19.995	103.062	19.921	8.474	0.517
1022.000	588.832	79.993	19.996	103.079	19.916	8.777	0.535
1024.001	589.875	79.993	19.997	103.082	19.905	9.559	0.526
1026.000	590.894	79.992	19.995	103.054	19.895	10.221	0.534
1028.000	591.928	79.993	19.994	103.057	19.884	10.977	0.529
1030.000	592.945	79.993	19.996	103.056	19.874	11.726	0.525
1032.000	594.039	79.994	19.996	103.082	19.863	12.452	0.544
1034.000	595.036	79.994	19.997	103.087	19.853	13.170	0.521
1036.000	596.069	79.995	19.996	103.088	19.842	13.932	0.535
1038.000	597.082	79.994	19.996	103.079	19.832	14.582	0.507
1040.000	598.108	79.993	19.996	103.069	19.821	15.372	0.538
1042.000	599.150	79.991	19.996	103.060	19.811	16.066	0.512
1044.001	600.113	79.992	19.996	103.061	19.797	17.072	0.462
1046.001	601.165	79.993	19.995	103.078	19.786	17.822	0.507
1048.000	602.200	79.993	19.995	103.087	19.775	18.544	0.542
1050.000	603.238	79.993	19.995	103.080	19.766	19.225	0.521
1052.001	604.270	79.991	19.995	103.086	19.756	19.886	0.503
1054.001	605.313	79.993	19.995	103.088	19.742	20.831	0.513
1056.000	606.347	79.992	19.997	103.088	19.740	20.970	0.520
1058.000	607.327	79.992	19.997	103.086	19.733	21.472	0.502
1060.000	608.370	79.993	19.996	103.091	19.728	21.797	0.547
1062.000	609.402	79.993	19.996	103.101	19.721	22.316	0.531
1064.000	610.405	79.993	19.996	103.098	19.717	22.615	0.505
1066.000	611.428	79.992	19.995	103.090	19.712	22.938	0.533
1068.001	612.454	79.994	19.995	103.098	19.711	23.013	0.490
1070.000	613.540	79.993	19.995	103.092	19.711	22.982	0.542
1072.000	614.572	79.993	19.996	103.090	19.720	22.407	0.527
1074.000	615.619	79.991	19.996	103.091	19.718	22.520	0.530
1076.000	616.702	79.992	19.995	103.091	19.723	22.170	0.523
1078.000	617.781	79.991	19.995	103.095	19.733	21.503	0.516
1080.000	618.828	79.992	19.994	103.092	19.744	20.737	0.547
1082.001	619.903	79.994	19.997	103.091	19.761	19.530	0.552
1084.001	620.966	79.993	19.996	103.090	19.776	18.464	0.521
1086.000	622.065	79.993	19.996	103.087	19.800	16.850	0.538
1088.000	623.107	79.994	19.995	103.080	19.819	15.518	0.522
1090.000	624.196	79.994	19.994	103.083	19.848	13.474	0.536
1092.000	625.281	79.989	19.998	103.075	19.871	11.888	0.512
1094.000	626.348	79.991	19.997	103.060	19.902	9.771	0.525
1096.001	627.433	79.991	20.000	103.052	19.925	8.132	0.544
1098.000	628.498	79.990	19.997	103.047	19.946	6.737	0.550
1100.000	629.538	79.995	19.995	103.046	19.961	5.690	0.515
1102.000	630.602	79.992	19.996	103.039	19.972	4.910	0.511
1104.001	631.696	79.994	19.995	103.047	19.979	4.424	0.549
1106.000	632.714	79.993	19.996	103.041	19.991	3.616	0.504
1108.000	633.786	79.993	19.995	103.037	19.989	3.732	0.539
1110.000	634.896	79.995	19.996	103.041	19.996	3.214	0.540
1112.001	635.939	79.994	19.996	103.025	19.999	3.063	0.545
1114.001	636.999	79.992	19.997	103.012	19.998	3.111	0.528
1116.000	638.021	79.994	19.996	103.019	19.999	3.004	0.524
1118.000	639.037	79.993	19.996	103.033	20.001	2.923	0.530
1120.000	640.047	79.992	19.997	103.030	20.004	2.709	0.496
1122.000	641.048	79.991	19.996	103.031	20.000	2.948	0.491
1124.000	642.054	79.992	19.996	103.040	20.004	2.678	0.516
1126.000	643.036	79.992	19.995	103.014	20.005	2.597	0.467
1128.000	643.962	79.993	19.996	103.025	20.003	2.764	0.472
1130.000	644.924	79.991	19.997	103.037	20.005	2.649	0.448
1132.000	645.895	79.992	19.994	103.050	20.005	2.653	0.476
1134.000	646.880	79.994	19.996	103.043	20.003	2.772	0.480
1136.001	647.829	79.992	19.996	103.015	20.002	2.848	0.464
1138.001	648.834	79.994	19.996	103.035	20.003	2.782	0.474
1140.000	649.777	79.993	19.996	103.041	20.004	2.685	0.509
1142.001	650.761	79.993	19.994	103.049	20.001	2.916	0.503
1144.000	651.708	79.993	19.995	103.049	20.004	2.665	0.474
1146.000	652.650	79.993	19.996	103.052	20.001	2.916	0.473
1148.000	653.700	79.991	19.996	103.052	20.005	2.634	0.542
1150.000	654.639	79.992	19.997	103.055	20.003	2.727	0.534
1152.001	655.632	79.990	19.996	103.055	20.002	2.820	0.473
1154.000	656.621	79.991	19.997	103.052	20.000	2.995	0.514
1156.000	657.587	79.991	19.996	103.060	20.000	2.985	0.488
1158.000	658.571	79.992	19.995	103.054	20.003	2.772	0.514
1160.001	659.481	79.994	19.994	103.053	20.003	2.757	0.447
1162.000	660.497	79.992	19.996	103.054	20.004	2.704	0.490
1164.000	661.422	79.994	19.995	103.038	20.000	2.971	0.467
1166.000	662.392	79.996	19.995	103.049	20.001	2.918	0.500
1168.000	663.366	79.994	19.993	103.049	20.000	2.994	0.510
1170.001	664.352	79.993	19.995	103.052	20.003	2.761	0.487
1172.001	665.356	79.993	19.996	103.063	20.002	2.803	0.488
1174.000	666.358	79.994	19.997	103.068	20.000	2.939	0.539
1176.000	667.382	79.993	19.996	103.078	20.000	2.976	0.541
1178.000	668.345	79.993	19.995	103.068	20.002	2.832	0.484
1180.000	669.384	79.992	19.996	103.062	19.997	3.190	0.525
1182.000	670.413	79.992	19.997	103.062	19.997	3.146	0.504
1184.000	671.439	79.994	19.997	103.050	19.999	3.045	0.504
1186.001	672.447	79.996	19.996	103.050	20.001	2.916	0.476
1188.000	673.471	79.995	19.995	103.045	19.999	3.038	0.499
1190.000	674.487	79.996	19.997	103.057	20.000	2.986	0.530
1192.000	675.545	79.995	19.996	103.072	19.997	3.157	0.540
1194.001	676.584	79.994	19.995	103.086	19.996	3.235	0.520
1196.000	677.617	79.993	19.995	103.088	19.994	3.395	0.498
1198.000	678.672	79.993	19.996	103.065	19.995	3.304	0.528
1200.000	679.718	79.990	19.997	103.076	19.998	3.113	0.503
1202.000	680.769	79.992	19.996	103.089	19.997	3.212	0.513
1204.000	681.839	79.991	19.999	103.095	19.995	3.340	0.495
1206.000	682.901	79.992	19.997	103.109	19.991	3.615	0.527
1208.000	683.922	79.991	19.997	103.127	19.990	3.661	0.507
1210.000	685.007	79.991	19.996	103.126	19.992	3.518	0.532
1212.000	686.037	79.992	19.997	103.096	19.991	3.588	0.538
1214.000	687.121	79.993	19.997	103.097	19.986	3.916	0.564
1216.000	688.136	79.991	19.995	103.113	19.988	3.791	0.547
1218.000	689.152	79.993	19.996	103.119	19.987	3.887	0.523
1220.000	689.890	79.992	19.995	103.123	19.981	4.317	0.335
1222.000	691.120	79.994	19.995	103.129	19.983	4.162	0.505
1224.000	692.208	79.992	19.995	103.129	19.979	4.430	0.457
1226.000	693.328	79.992	19.994	103.109	19.979	4.419	0.513
1228.000	694.356	79.991	19.996	103.119	19.980	4.391	0.563
1230.000	695.417	79.994	19.996	103.134	19.977	4.535	0.521
1232.001	696.437	79.991	19.996	103.153	19.979	4.458	0.487
1234.001	697.459	79.991	19.995	103.138	19.978	4.531	0.482
1236.000	698.476	79.993	19.996	103.141	19.982	4.187	0.503
1238.000	699.447	79.992	19.996	103.138	19.980	4.378	0.508
1240.000	700.506	79.992	19.996	103.157	19.972	4.882	0.505
1242.001	701.439	79.994	19.996	103.138	19.975	4.735	0.477
1244.000	702.436	79.994	19.996	103.138	19.979	4.403	0.486
1246.000	703.457	79.993	19.997	103.145	19.975	4.679	0.498
1248.000	704.441	79.995	19.995	103.149	19.974	4.742	0.493
1250.001	705.414	79.994	19.995	103.149	19.974	4.771	0.468
1252.000	706.426	79.994	19.996	103.137	19.976	4.608	0.530
1254.000	707.465	79.993	19.995	103.166	19.977	4.592	0.532
1256.000	708.410	79.994	19.995	103.168	19.977	4.548	0.502
1258.000	709.435	79.994	19.994	103.168	19.980	4.386	0.518
1260.000	710.384	79.994	19.995	103.168	19.977	4.586	0.470
1262.000	711.367	79.992	19.998	103.168	19.976	4.639	0.483
1264.000	712.330	79.994	19.996	103.173	19.975	4.707	0.498
1266.000	713.352	79.993	19.996	103.182	19.972	4.900	0.510
1268.000	714.328	79.993	19.997	103.174	19.978	4.498	0.486
1270.001	715.343	79.996	19.995	103.171	19.973	4.846	0.468
1272.000	716.373	79.995	19.995	103.169	19.975	4.693	0.500
1274.001	717.295	79.994	19.996	103.178	19.975	4.680	0.492
1276.000	718.295	79.994	19.996	103.180	19.978	4.489	0.497
1278.000	719.197	79.992	19.995	103.203	19.976	4.603	0.477
1280.000	720.181	79.991	19.996	103.203	19.975	4.679	0.459
1282.000	721.194	79.992	19.996	103.180	19.977	4.590	0.506
1284.000	722.125	79.993	19.995	103.177	19.977	4.574	0.466
1286.000	723.100	79.993	19.997	103.173	19.978	4.476	0.517
1288.001	723.998	79.991	19.996	103.165	19.977	4.554	0.461
1290.000	724.969	79.991	19.996	103.164	19.980	4.328	0.439
1292.001	725.937	79.990	19.996	103.165	19.977	4.588	0.482
1294.000	726.870	79.991	19.997	103.164	19.980	4.336	0.470
1296.001	727.826	79.991	19.998	103.151	19.984	4.056	0.472
1298.000	728.755	79.991	19.996	103.153	19.986	3.942	0.455
1300.000	729.713	79.992	19.997	103.132	19.987	3.890	0.487
1302.000	730.721	79.993	19.996	103.115	19.986	3.938	0.477
1304.000	731.659	79.992	19.997	103.104	19.990	3.687	0.497
1306.000	732.654	79.991	19.995	103.081	19.991	3.567	0.507
1308.000	733.639	79.992	19.995	103.093	19.998	3.086	0.513
1310.001	734.601	79.991	19.996	103.059	20.002	2.837	0.521
1312.000	735.577	79.993	19.996	103.046	20.005	2.612	0.495
1314.000	736.564	79.993	19.994	103.031	20.007	2.505	0.483
1316.001	737.547	79.993	19.997	103.035	20.007	2.502	0.494
1318.000	738.557	79.992	19.995	103.044	20.010	2.293	0.495
1320.000	739.560	79.993	19.995	103.043	20.011	2.177	0.517
1322.000	740.576	79.994	19.995	103.017	20.012	2.121	0.513
1324.000	741.571	79.993	19.996	103.009	20.008	2.406	0.460
1326.000	742.611	79.994	19.995	102.986	20.012	2.144	0.518
1328.000	743.587	79.994	19.997	102.976	20.012	2.165	0.500