File: 01_Data/Polyester_Carpet_MedPile/MCC/Polyester_Carpet_MedPile_MCC_30K_min_211029_R2.txt
Sample ID:	C:\MCC\MCC Cal\Test\Polyester_Carpet_MedPile_MCC_30K_min_211029_R2.txt
Sample Weight (mg):	4.17
Heating Rate (C/s):	0.5
Combustor Temp (C):	900
N2 Flow Rate (cc/min):	80
O2 Flow Rate (cc/min):	20
Calibration File:	C:\MCC\MCC Cal\Coeff1 JN10440_30_210304.txt.txt
T Correction Coefficients:	0	1.024463	0
Time Shift (s):	14
*
Time (s)	Temperature (C)	N2 flow rate (cc/min)	O2 flow rate (cc/min)	Flow Rate (cc/min)	Oxygen (%)	HRR (W/g)	Heating rate (C/s)
0.000	108.847	79.996	19.996	102.883	20.094	0.099	0.019
2.000	108.817	79.985	19.996	102.869	20.091	0.323	-0.013
4.000	108.865	79.994	19.995	102.865	20.094	0.104	-0.004
6.000	108.816	80.003	19.996	102.863	20.095	0.052	-0.003
8.001	108.843	79.999	19.995	102.881	20.094	0.136	-0.006
10.001	108.848	79.997	19.994	102.888	20.094	0.140	-0.019
12.001	108.812	79.988	19.998	102.885	20.092	0.287	-0.024
14.000	108.865	79.988	19.994	102.892	20.088	0.556	0.020
16.000	108.804	79.967	19.997	102.903	20.090	0.388	-0.020
18.000	108.871	79.992	19.994	102.916	20.088	0.593	0.032
20.000	108.899	79.992	19.995	102.904	20.090	0.445	0.014
22.000	108.910	79.992	19.994	102.900	20.086	0.701	-0.011
24.000	108.950	79.992	19.994	102.909	20.090	0.462	0.048
26.000	108.990	80.011	19.994	102.926	20.088	0.546	0.033
28.000	108.986	79.996	19.995	102.935	20.084	0.900	-0.013
30.000	109.052	79.993	19.997	102.939	20.087	0.624	0.022
32.001	109.141	79.997	19.993	102.957	20.083	0.991	0.040
34.000	109.198	80.000	19.996	102.961	20.081	1.093	0.036
36.000	109.294	79.995	19.996	102.965	20.077	1.446	0.068
38.000	109.388	79.995	19.995	103.016	20.073	1.727	0.060
40.000	109.538	80.005	19.996	103.035	20.068	2.150	0.043
42.000	109.695	79.981	19.995	103.043	20.066	2.301	0.096
44.000	109.913	80.005	19.994	103.041	20.064	2.426	0.102
46.000	110.097	79.986	19.995	103.076	20.060	2.770	0.076
48.000	110.403	80.000	19.993	103.088	20.061	2.698	0.125
50.000	110.662	79.995	19.995	103.100	20.060	2.757	0.159
52.000	110.974	79.996	19.995	103.093	20.055	3.120	0.185
54.000	111.307	79.993	19.994	103.094	20.057	2.952	0.162
56.000	111.685	79.989	19.996	103.086	20.054	3.190	0.211
58.000	112.067	80.003	19.995	103.081	20.055	3.129	0.185
60.000	112.475	79.994	19.995	103.084	20.053	3.248	0.186
62.000	112.849	79.988	19.998	103.090	20.056	3.015	0.218
64.000	113.336	80.002	19.995	103.086	20.056	3.058	0.216
66.000	113.817	79.987	19.996	103.104	20.056	3.013	0.216
68.000	114.326	79.991	19.995	103.097	20.053	3.303	0.244
70.000	114.806	79.997	19.996	103.107	20.054	3.218	0.246
72.000	115.371	79.995	19.994	103.128	20.051	3.446	0.270
74.000	115.880	79.999	19.998	103.129	20.051	3.415	0.252
76.000	116.488	79.991	19.995	103.121	20.050	3.486	0.308
78.001	117.078	79.996	19.994	103.126	20.050	3.476	0.309
80.000	117.676	79.998	19.995	103.128	20.049	3.625	0.294
82.000	118.285	80.006	19.995	103.130	20.048	3.694	0.303
84.000	118.955	79.995	19.994	103.132	20.049	3.610	0.318
86.000	119.599	79.990	19.996	103.123	20.047	3.709	0.331
88.000	120.301	79.996	19.994	103.126	20.047	3.781	0.352
90.000	121.010	80.007	19.993	103.130	20.047	3.778	0.345
92.000	121.733	79.994	19.993	103.131	20.045	3.919	0.378
94.000	122.486	79.990	19.995	103.137	20.049	3.615	0.366
96.000	123.205	79.989	19.995	103.136	20.049	3.570	0.372
98.001	123.961	79.986	19.996	103.148	20.050	3.528	0.409
100.000	124.788	79.990	19.996	103.138	20.049	3.570	0.420
102.000	125.544	79.988	19.995	103.132	20.047	3.724	0.380
104.000	126.329	79.987	19.995	103.149	20.048	3.679	0.409
106.001	127.137	80.004	19.993	103.158	20.044	3.960	0.425
108.000	128.020	79.991	19.995	103.143	20.043	4.018	0.439
110.001	128.813	80.000	19.995	103.147	20.044	4.012	0.397
112.000	129.698	80.001	19.993	103.144	20.045	3.895	0.485
114.000	130.488	79.986	19.996	103.126	20.044	3.984	0.419
116.001	131.356	79.992	19.995	103.128	20.050	3.548	0.433
118.001	132.242	79.997	19.994	103.140	20.046	3.860	0.441
120.000	133.098	79.990	19.996	103.130	20.047	3.710	0.413
122.000	133.984	79.987	19.997	103.133	20.043	4.067	0.448
124.000	134.862	79.989	19.996	103.132	20.043	4.093	0.425
126.000	135.824	79.998	19.995	103.155	20.044	3.977	0.484
128.001	136.714	79.991	19.995	103.160	20.044	4.015	0.470
130.001	137.660	79.994	19.995	103.163	20.041	4.170	0.477
132.000	138.596	79.993	19.995	103.155	20.043	4.073	0.443
134.000	139.538	79.995	19.995	103.166	20.041	4.233	0.465
136.001	140.510	79.997	19.996	103.173	20.046	3.857	0.468
138.000	141.508	79.987	19.997	103.160	20.044	3.993	0.463
140.000	142.501	79.993	19.994	103.150	20.045	3.865	0.499
142.000	143.566	79.994	19.995	103.139	20.043	4.030	0.528
144.000	144.562	79.996	19.995	103.147	20.041	4.175	0.504
146.000	145.546	79.995	19.994	103.136	20.046	3.816	0.483
148.000	146.574	79.993	19.994	103.141	20.045	3.934	0.491
150.000	147.568	79.995	19.996	103.137	20.047	3.770	0.533
152.001	148.597	79.990	19.994	103.145	20.045	3.899	0.507
154.000	149.658	79.993	19.994	103.152	20.049	3.620	0.526
156.000	150.667	79.995	19.996	103.142	20.051	3.465	0.492
158.001	151.710	79.995	19.996	103.145	20.048	3.631	0.523
160.000	152.732	79.994	19.996	103.133	20.050	3.513	0.487
162.001	153.765	79.987	19.996	103.129	20.055	3.150	0.477
164.000	154.767	79.996	19.995	103.125	20.051	3.445	0.512
166.000	155.815	79.999	19.996	103.129	20.047	3.748	0.503
168.000	156.815	79.998	19.995	103.132	20.050	3.550	0.515
170.000	157.876	79.993	19.995	103.125	20.047	3.713	0.542
172.000	158.864	79.993	19.995	103.141	20.049	3.575	0.519
174.000	159.951	79.991	19.995	103.121	20.053	3.313	0.532
176.000	160.954	79.994	19.995	103.126	20.052	3.384	0.496
178.000	161.966	79.993	19.995	103.106	20.051	3.436	0.503
180.000	162.993	79.989	19.995	103.111	20.052	3.369	0.522
182.000	163.965	79.993	19.996	103.123	20.054	3.229	0.521
184.001	165.005	79.991	19.996	103.124	20.054	3.195	0.489
186.001	166.019	79.992	19.996	103.105	20.051	3.423	0.507
188.000	167.081	79.993	19.996	103.106	20.054	3.224	0.501
190.000	168.118	79.991	19.996	103.112	20.054	3.170	0.501
192.000	169.107	79.991	19.996	103.097	20.054	3.226	0.491
194.000	170.136	79.990	19.995	103.114	20.052	3.367	0.477
196.000	171.151	79.993	19.995	103.113	20.051	3.397	0.513
198.000	172.145	79.992	19.995	103.103	20.053	3.310	0.482
200.000	173.122	79.992	19.994	103.102	20.053	3.250	0.473
202.000	174.167	79.992	19.994	103.106	20.052	3.375	0.513
204.000	175.197	79.992	19.994	103.099	20.052	3.356	0.512
206.000	176.162	79.993	19.996	103.096	20.049	3.598	0.475
208.000	177.142	79.992	19.995	103.094	20.051	3.401	0.504
210.000	178.129	79.991	19.995	103.105	20.053	3.261	0.502
212.001	179.088	79.991	19.996	103.097	20.055	3.148	0.446
214.001	180.066	79.993	19.995	103.102	20.049	3.554	0.474
216.001	181.059	79.993	19.995	103.098	20.054	3.232	0.481
218.001	182.086	79.992	19.995	103.092	20.054	3.182	0.494
220.000	183.018	79.994	19.995	103.095	20.049	3.574	0.443
222.000	184.032	79.993	19.996	103.091	20.054	3.237	0.479
224.000	185.042	79.994	19.995	103.086	20.052	3.343	0.501
226.000	186.021	79.993	19.995	103.087	20.050	3.474	0.506
228.001	187.004	79.991	19.994	103.087	20.049	3.606	0.487
230.000	187.976	79.992	20.001	103.088	20.050	3.487	0.480
232.000	188.950	79.995	19.997	103.092	20.050	3.483	0.473
234.000	189.882	79.992	19.996	103.087	20.046	3.837	0.511
236.000	190.892	79.993	19.995	103.092	20.051	3.422	0.506
238.000	191.874	79.993	19.994	103.083	20.053	3.250	0.483
240.000	192.825	79.993	19.996	103.097	20.055	3.113	0.476
242.000	193.763	79.993	19.996	103.090	20.053	3.264	0.470
244.000	194.809	79.995	19.996	103.085	20.054	3.178	0.495
246.000	195.740	79.995	19.996	103.071	20.053	3.256	0.515
248.001	196.671	79.995	19.996	103.082	20.053	3.312	0.479
250.000	197.713	79.995	19.996	103.083	20.053	3.308	0.512
252.000	198.692	79.995	19.996	103.071	20.056	3.055	0.493
254.000	199.648	79.991	19.996	103.079	20.051	3.418	0.495
256.000	200.625	79.991	19.995	103.082	20.053	3.267	0.443
258.000	201.619	79.992	19.996	103.072	20.053	3.273	0.517
260.000	202.561	79.992	19.996	103.068	20.054	3.237	0.475
262.000	203.550	79.992	19.995	103.089	20.053	3.255	0.461
264.000	204.537	79.993	19.995	103.077	20.055	3.104	0.501
266.000	205.483	79.993	19.995	103.082	20.052	3.387	0.476
268.000	206.469	79.992	19.996	103.090	20.055	3.148	0.453
270.000	207.461	79.992	19.995	103.091	20.051	3.416	0.515
272.000	208.445	79.991	19.996	103.074	20.052	3.392	0.473
274.000	209.446	79.994	19.996	103.057	20.054	3.198	0.477
276.000	210.418	79.992	19.997	103.057	20.053	3.243	0.501
278.000	211.375	79.993	19.997	103.065	20.055	3.146	0.488
280.000	212.390	79.991	19.997	103.086	20.053	3.254	0.480
282.000	213.372	79.991	19.995	103.070	20.057	2.942	0.517
284.000	214.322	79.993	19.994	103.077	20.057	2.959	0.507
286.000	215.314	79.991	19.996	103.085	20.053	3.258	0.499
288.000	216.308	79.991	19.996	103.086	20.056	3.012	0.503
290.000	217.295	79.992	19.996	103.083	20.058	2.890	0.506
292.000	218.264	79.991	19.996	103.075	20.058	2.910	0.497
294.000	219.253	79.992	19.995	103.056	20.055	3.093	0.501
296.000	220.279	79.991	19.995	103.057	20.055	3.092	0.496
298.000	221.216	79.994	19.995	103.077	20.053	3.249	0.497
300.000	222.208	79.994	19.995	103.074	20.057	2.960	0.490
302.000	223.241	79.993	19.995	103.065	20.058	2.901	0.520
304.000	224.206	79.993	19.995	103.068	20.053	3.314	0.487
306.000	225.204	79.994	19.995	103.068	20.054	3.229	0.488
308.000	226.204	79.993	19.996	103.075	20.057	2.955	0.482
310.000	227.153	79.995	19.995	103.074	20.057	2.981	0.487
312.000	228.177	79.992	19.995	103.071	20.057	2.985	0.513
314.000	229.170	79.992	19.996	103.061	20.058	2.869	0.510
316.000	230.196	79.993	19.996	103.066	20.054	3.221	0.476
318.000	231.179	79.993	19.996	103.058	20.056	3.028	0.498
320.000	232.178	79.995	19.995	103.067	20.056	3.080	0.504
322.000	233.186	79.995	19.994	103.067	20.057	2.957	0.523
324.001	234.194	79.995	19.995	103.057	20.059	2.821	0.478
326.000	235.183	79.995	19.995	103.063	20.059	2.838	0.494
328.000	236.174	79.995	19.995	103.050	20.059	2.825	0.519
330.000	237.162	79.993	19.995	103.063	20.061	2.679	0.504
332.000	238.212	79.993	19.996	103.043	20.060	2.726	0.541
334.000	239.127	79.992	19.996	103.051	20.060	2.752	0.438
336.000	240.171	79.991	19.996	103.054	20.063	2.532	0.497
338.000	241.151	79.990	19.995	103.059	20.062	2.549	0.493
340.000	242.172	79.991	19.996	103.068	20.057	2.974	0.522
342.000	243.215	79.990	19.997	103.069	20.056	3.011	0.511
344.000	244.208	79.991	19.995	103.057	20.062	2.581	0.495
346.000	245.217	79.992	19.996	103.070	20.061	2.631	0.502
348.000	246.260	79.994	19.995	103.052	20.062	2.613	0.494
350.000	247.250	79.993	19.996	103.052	20.061	2.656	0.463
352.000	248.221	79.993	19.996	103.045	20.059	2.842	0.489
354.000	249.227	79.993	19.996	103.045	20.057	2.998	0.485
356.000	250.266	79.992	19.995	103.046	20.061	2.691	0.501
358.000	251.256	79.991	19.996	103.042	20.054	3.216	0.488
360.000	252.296	79.992	19.997	103.048	20.061	2.665	0.518
362.000	253.266	79.993	19.995	103.042	20.059	2.780	0.489
364.000	254.248	79.990	19.996	103.047	20.057	3.008	0.510
366.000	255.250	79.990	19.997	103.047	20.061	2.650	0.503
368.000	256.289	79.990	19.996	103.048	20.059	2.823	0.518
370.000	257.270	79.992	19.996	103.051	20.064	2.397	0.507
372.000	258.228	79.993	19.995	103.049	20.060	2.752	0.464
374.000	259.265	79.994	19.996	103.047	20.059	2.792	0.509
376.000	260.270	79.993	19.995	103.034	20.061	2.650	0.501
378.000	261.240	79.993	19.996	103.049	20.059	2.806	0.500
380.000	262.243	79.993	19.995	103.050	20.059	2.804	0.515
382.000	263.263	79.993	19.995	103.045	20.063	2.523	0.499
384.000	264.272	79.995	19.995	103.039	20.064	2.430	0.503
386.000	265.229	79.992	19.996	103.035	20.063	2.534	0.496
388.000	266.193	79.994	19.995	103.051	20.059	2.836	0.476
390.000	267.236	79.994	19.996	103.056	20.058	2.898	0.542
392.000	268.232	79.993	19.995	103.058	20.058	2.862	0.478
394.000	269.244	79.993	19.995	103.054	20.059	2.829	0.496
396.000	270.254	79.994	19.996	103.051	20.062	2.557	0.521
398.000	271.271	79.993	19.995	103.049	20.060	2.734	0.477
400.000	272.314	79.994	19.996	103.046	20.062	2.603	0.529
402.000	273.260	79.995	19.994	103.048	20.062	2.613	0.472
404.000	274.260	79.996	19.996	103.040	20.060	2.741	0.519
406.000	275.256	79.995	19.993	103.035	20.057	2.996	0.501
408.001	276.291	79.994	19.995	103.047	20.057	2.935	0.481
410.000	277.309	79.994	19.995	103.041	20.061	2.628	0.507
412.000	278.307	79.993	19.995	103.053	20.058	2.904	0.488
414.000	279.312	79.994	19.995	103.034	20.058	2.922	0.515
416.000	280.303	79.992	19.995	103.047	20.058	2.866	0.491
418.000	281.304	79.992	19.995	103.044	20.057	3.006	0.500
420.000	282.310	79.992	19.995	103.031	20.060	2.777	0.506
422.000	283.312	79.993	19.996	103.040	20.057	2.954	0.499
424.000	284.332	79.993	19.995	103.035	20.053	3.263	0.529
426.000	285.290	79.992	19.995	103.044	20.056	3.064	0.474
428.000	286.299	79.993	19.995	103.031	20.059	2.799	0.478
430.000	287.326	79.992	19.996	103.040	20.059	2.790	0.512
432.000	288.359	79.994	19.995	103.040	20.059	2.824	0.543
434.000	289.315	79.993	19.996	103.044	20.057	2.976	0.483
436.000	290.338	79.994	19.995	103.031	20.062	2.606	0.492
438.000	291.339	79.993	19.996	103.024	20.056	3.047	0.494
440.000	292.310	79.993	19.997	103.036	20.057	2.932	0.488
442.000	293.375	79.991	19.996	103.021	20.057	2.958	0.502
444.000	294.408	79.991	19.996	103.023	20.056	3.016	0.520
446.000	295.349	79.992	19.996	103.023	20.054	3.181	0.485
448.000	296.340	79.991	19.996	103.020	20.056	3.017	0.495
450.000	297.376	79.991	19.996	103.014	20.055	3.116	0.498
452.000	298.413	79.992	19.996	103.020	20.055	3.109	0.507
454.000	299.396	79.991	19.996	103.017	20.060	2.764	0.494
456.000	300.361	79.993	19.996	103.020	20.055	3.106	0.492
458.000	301.346	79.994	19.996	103.039	20.055	3.097	0.490
460.001	302.360	79.993	19.995	103.020	20.054	3.172	0.500
462.000	303.405	79.993	19.995	103.029	20.057	2.937	0.505
464.000	304.387	79.991	19.997	103.032	20.058	2.920	0.522
466.000	305.342	79.993	19.994	103.031	20.055	3.105	0.490
468.000	306.397	79.993	19.995	103.047	20.054	3.215	0.528
470.000	307.395	79.992	19.995	103.043	20.053	3.289	0.510
472.000	308.379	79.993	19.994	103.030	20.053	3.265	0.519
474.000	309.405	79.992	19.996	103.043	20.053	3.256	0.505
476.000	310.420	79.994	19.996	103.035	20.053	3.269	0.512
478.000	311.429	79.994	19.995	103.023	20.053	3.259	0.515
480.000	312.500	79.994	19.995	103.024	20.055	3.162	0.506
482.000	313.495	79.995	19.995	103.038	20.053	3.241	0.508
484.000	314.482	79.993	19.996	103.023	20.055	3.118	0.510
486.000	315.519	79.994	19.995	103.012	20.052	3.336	0.500
488.000	316.534	79.995	19.995	103.036	20.048	3.656	0.503
490.000	317.520	79.993	19.996	103.048	20.051	3.418	0.472
492.000	318.589	79.992	19.995	103.029	20.049	3.580	0.535
494.000	319.520	79.993	19.995	103.020	20.049	3.574	0.473
496.000	320.545	79.993	19.995	103.025	20.050	3.496	0.505
498.000	321.573	79.993	19.996	103.026	20.049	3.576	0.528
500.000	322.610	79.993	19.994	103.024	20.049	3.556	0.498
502.000	323.570	79.992	19.996	103.028	20.046	3.804	0.493
504.000	324.599	79.993	19.995	103.014	20.045	3.884	0.465
506.000	325.608	79.992	19.995	103.027	20.046	3.837	0.534
508.000	326.612	79.991	19.996	103.011	20.046	3.833	0.535
510.000	327.630	79.992	19.995	103.025	20.042	4.148	0.496
512.000	328.618	79.992	19.995	103.014	20.043	4.055	0.502
514.000	329.605	79.993	19.995	103.014	20.043	4.064	0.503
516.000	330.604	79.993	19.997	103.020	20.041	4.191	0.497
518.000	331.614	79.991	19.996	103.023	20.043	4.075	0.496
520.000	332.643	79.991	19.996	103.036	20.040	4.271	0.526
522.000	333.649	79.991	19.996	103.020	20.040	4.275	0.511
524.000	334.657	79.991	19.996	103.016	20.036	4.567	0.522
526.000	335.666	79.991	19.997	103.017	20.038	4.412	0.497
528.000	336.659	79.991	19.996	103.033	20.038	4.441	0.482
530.001	337.664	79.990	19.996	103.019	20.036	4.620	0.504
532.000	338.673	79.992	19.996	103.018	20.035	4.694	0.483
534.000	339.674	79.993	19.997	103.017	20.032	4.919	0.490
536.000	340.714	79.993	19.996	103.022	20.026	5.387	0.512
538.000	341.702	79.993	19.996	103.019	20.027	5.286	0.505
540.000	342.655	79.993	19.995	103.007	20.025	5.433	0.519
542.000	343.664	79.993	19.997	103.008	20.024	5.523	0.509
544.001	344.659	79.993	19.996	103.023	20.020	5.787	0.487
546.000	345.626	79.994	19.996	103.013	20.020	5.799	0.481
548.000	346.660	79.992	19.996	103.013	20.018	5.987	0.526
550.000	347.648	79.995	19.995	103.021	20.018	5.963	0.476
552.000	348.659	79.992	19.995	103.027	20.014	6.289	0.493
554.000	349.694	79.993	19.995	103.014	20.012	6.410	0.496
556.000	350.701	79.994	19.995	103.015	20.012	6.420	0.482
558.000	351.683	79.995	19.995	103.009	20.006	6.904	0.489
560.000	352.681	79.996	19.995	103.008	20.004	7.027	0.494
562.000	353.760	79.995	19.994	103.013	20.001	7.252	0.507
564.000	354.770	79.996	19.994	103.008	19.999	7.416	0.482
566.000	355.762	79.994	19.995	103.017	19.997	7.622	0.482
568.000	356.775	79.995	19.996	103.041	19.996	7.684	0.515
570.000	357.793	79.993	19.996	103.036	19.991	8.091	0.534
572.000	358.766	79.993	19.995	103.036	19.987	8.375	0.484
574.000	359.812	79.992	19.994	103.025	19.983	8.671	0.515
576.000	360.840	79.991	19.994	103.037	19.981	8.794	0.506
578.000	361.866	79.992	19.994	103.039	19.980	8.940	0.519
580.000	362.901	79.992	19.996	103.032	19.973	9.421	0.526
582.000	363.898	79.991	19.994	103.007	19.966	10.022	0.502
584.000	364.871	79.993	19.995	103.007	19.963	10.243	0.514
586.001	365.921	79.992	19.995	103.025	19.957	10.677	0.534
588.000	366.935	79.993	19.994	103.035	19.953	10.977	0.528
590.000	367.944	79.993	19.996	103.030	19.948	11.346	0.488
592.000	368.994	79.992	19.996	103.027	19.946	11.540	0.524
594.000	369.989	79.993	19.995	103.039	19.939	12.050	0.498
596.000	371.016	79.993	19.996	103.032	19.930	12.725	0.518
598.000	372.021	79.991	19.995	103.043	19.928	12.939	0.506
600.000	373.005	79.992	19.996	103.028	19.925	13.147	0.498
602.000	374.036	79.992	19.996	103.028	19.918	13.712	0.522
604.000	375.088	79.992	19.996	103.021	19.913	14.080	0.551
606.000	376.072	79.991	19.997	103.019	19.905	14.694	0.508
608.000	377.060	79.993	19.995	103.027	19.899	15.114	0.492
610.000	378.059	79.991	19.996	103.026	19.894	15.528	0.481
612.000	379.064	79.994	19.995	103.028	19.884	16.313	0.511
614.000	380.068	79.994	19.995	103.023	19.875	16.981	0.496
616.000	381.099	79.995	19.996	103.035	19.873	17.174	0.504
618.000	382.105	79.994	19.996	103.041	19.864	17.871	0.491
620.000	383.081	79.994	19.996	103.046	19.856	18.441	0.495
622.000	384.123	79.995	19.997	103.042	19.851	18.883	0.501
624.000	385.141	79.994	19.995	103.052	19.840	19.678	0.548
626.000	386.089	79.994	19.996	103.044	19.835	20.070	0.495
628.000	387.121	79.993	19.996	103.043	19.828	20.606	0.509
630.000	388.110	79.992	19.997	103.045	19.818	21.377	0.498
632.000	389.154	79.993	19.996	103.049	19.807	22.229	0.495
634.000	390.150	79.993	19.997	103.047	19.799	22.845	0.509
636.000	391.138	79.993	19.995	103.052	19.790	23.549	0.484
638.000	392.164	79.994	19.995	103.051	19.783	24.135	0.513
640.000	393.203	79.994	19.995	103.047	19.773	24.870	0.496
642.000	394.244	79.997	19.995	103.059	19.763	25.640	0.527
644.000	395.263	79.995	19.995	103.050	19.753	26.386	0.505
646.000	396.282	79.995	19.995	103.064	19.746	26.952	0.498
648.000	397.267	79.994	19.995	103.053	19.734	27.869	0.491
650.000	398.307	79.993	19.995	103.059	19.726	28.478	0.519
652.000	399.291	79.993	19.996	103.086	19.716	29.261	0.507
654.000	400.301	79.993	19.997	103.067	19.707	29.964	0.520
656.000	401.320	79.992	19.996	103.068	19.691	31.199	0.512
658.000	402.291	79.993	19.994	103.064	19.683	31.827	0.504
660.000	403.328	79.991	19.996	103.070	19.672	32.676	0.504
662.000	404.348	79.992	19.997	103.085	19.656	33.890	0.521
664.000	405.377	79.992	19.996	103.083	19.642	34.965	0.530
666.000	406.399	79.991	19.996	103.074	19.632	35.759	0.516
668.000	407.387	79.993	19.995	103.086	19.615	37.037	0.516
670.000	408.362	79.994	19.994	103.094	19.603	38.020	0.522
672.000	409.414	79.992	19.996	103.091	19.584	39.466	0.524
674.000	410.380	79.991	19.995	103.092	19.574	40.252	0.487
676.000	411.369	79.993	19.995	103.106	19.555	41.671	0.495
678.000	412.403	79.993	19.995	103.105	19.540	42.871	0.490
680.000	413.393	79.992	19.995	103.123	19.517	44.621	0.503
682.000	414.378	79.993	19.995	103.125	19.499	46.044	0.507
684.000	415.386	79.993	19.996	103.123	19.480	47.544	0.502
686.000	416.377	79.993	19.996	103.131	19.459	49.170	0.495
688.000	417.422	79.994	19.996	103.130	19.437	50.862	0.538
690.000	418.419	79.992	19.997	103.130	19.416	52.454	0.502
692.000	419.436	79.993	19.995	103.166	19.393	54.221	0.529
694.000	420.411	79.993	19.995	103.165	19.370	55.973	0.485
696.000	421.484	79.994	19.994	103.165	19.348	57.690	0.520
698.000	422.453	79.994	19.995	103.167	19.323	59.648	0.479
700.000	423.501	79.994	19.995	103.146	19.300	61.453	0.524
702.000	424.489	79.994	19.996	103.177	19.276	63.292	0.482
704.000	425.515	79.994	19.995	103.172	19.248	65.451	0.522
706.000	426.533	79.993	19.996	103.187	19.227	67.039	0.497
708.000	427.514	79.993	19.996	103.183	19.202	69.013	0.493
710.000	428.543	79.992	19.995	103.195	19.181	70.602	0.503
712.000	429.573	79.993	19.997	103.202	19.155	72.626	0.508
714.000	430.544	79.993	19.996	103.202	19.136	74.161	0.511
716.000	431.567	79.993	19.998	103.210	19.113	75.895	0.536
718.000	432.598	79.994	19.997	103.226	19.091	77.634	0.535
720.000	433.607	79.995	19.996	103.233	19.071	79.144	0.504
722.000	434.647	79.994	19.997	103.232	19.048	80.963	0.499
724.001	435.637	79.992	19.997	103.248	19.025	82.732	0.508
726.000	436.648	79.993	19.996	103.248	19.004	84.313	0.484
728.000	437.649	79.992	19.995	103.246	18.981	86.098	0.489
730.000	438.666	79.992	19.996	103.256	18.961	87.635	0.510
732.000	439.708	79.992	19.996	103.251	18.941	89.251	0.531
734.000	440.711	79.990	19.997	103.266	18.925	90.486	0.507
736.000	441.713	79.994	19.995	103.274	18.906	91.891	0.505
738.000	442.723	79.992	19.995	103.278	18.895	92.745	0.505
740.000	443.744	79.991	19.995	103.281	18.886	93.519	0.503
742.000	444.719	79.992	19.994	103.288	18.873	94.501	0.493
744.001	445.744	79.994	19.995	103.283	18.866	95.044	0.478
746.000	446.741	79.996	19.994	103.283	18.867	94.915	0.496
748.000	447.741	79.991	19.996	103.280	18.870	94.637	0.482
750.000	448.741	79.991	19.995	103.299	18.874	94.348	0.513
752.000	449.726	79.991	19.995	103.283	18.888	93.298	0.491
754.001	450.763	79.993	19.995	103.280	18.902	92.133	0.517
756.000	451.745	79.991	19.996	103.273	18.927	90.270	0.498
758.000	452.756	79.991	19.995	103.257	18.955	88.057	0.510
760.000	453.767	79.993	19.996	103.245	18.989	85.401	0.499
762.000	454.772	79.991	19.995	103.244	19.028	82.424	0.522
764.000	455.744	79.991	19.994	103.227	19.074	78.830	0.477
766.000	456.781	79.992	19.995	103.213	19.118	75.461	0.490
768.000	457.789	79.993	19.994	103.207	19.164	71.859	0.512
770.000	458.813	79.993	19.995	103.194	19.208	68.518	0.520
772.000	459.832	79.992	19.995	103.173	19.254	64.887	0.511
774.000	460.855	79.992	19.995	103.162	19.300	61.333	0.516
776.000	461.850	79.993	19.995	103.133	19.345	57.892	0.491
778.000	462.900	79.994	19.996	103.129	19.386	54.717	0.509
780.000	463.884	79.992	19.996	103.129	19.430	51.299	0.457
782.000	464.905	79.991	19.995	103.126	19.467	48.478	0.494
784.000	465.922	79.993	19.995	103.101	19.502	45.742	0.493
786.000	466.956	79.993	19.995	103.087	19.525	43.996	0.520
788.000	467.984	79.995	19.996	103.081	19.540	42.859	0.516
790.000	468.985	79.994	19.995	103.062	19.551	41.989	0.494
792.000	470.025	79.994	19.994	103.045	19.552	41.897	0.535
794.000	471.080	79.993	19.995	103.046	19.553	41.783	0.541
796.000	472.087	79.995	19.995	103.042	19.548	42.169	0.501
798.000	473.116	79.996	19.995	103.034	19.539	42.855	0.501
800.000	474.173	79.996	19.995	103.023	19.530	43.593	0.531
802.000	475.173	79.995	19.996	103.015	19.519	44.423	0.473
804.000	476.179	79.995	19.996	102.997	19.502	45.735	0.489
806.000	477.184	79.992	19.996	102.994	19.492	46.449	0.484
808.000	478.249	79.991	19.997	102.998	19.473	47.973	0.547
810.000	479.264	79.992	19.997	102.969	19.464	48.642	0.510
812.000	480.259	79.993	19.997	102.956	19.461	48.898	0.492
814.000	481.285	79.992	19.995	102.943	19.466	48.516	0.506
816.000	482.320	79.993	19.996	102.941	19.484	47.110	0.487
818.000	483.356	79.993	19.996	102.934	19.502	45.712	0.526
820.000	484.379	79.994	19.995	102.937	19.529	43.658	0.535
822.000	485.382	79.992	19.996	102.935	19.565	40.902	0.499
824.000	486.374	79.994	19.996	102.935	19.602	37.994	0.506
826.000	487.377	79.993	19.995	102.949	19.641	35.053	0.478
828.000	488.440	79.991	19.994	102.962	19.685	31.662	0.497
830.000	489.499	79.991	19.995	102.966	19.718	29.067	0.535
832.000	490.485	79.993	19.996	102.969	19.760	25.819	0.505
834.000	491.478	79.993	19.995	102.966	19.802	22.636	0.469
836.000	492.527	79.993	19.995	102.983	19.838	19.868	0.533
838.000	493.543	79.993	19.995	102.978	19.872	17.241	0.523
840.000	494.582	79.991	19.996	102.988	19.900	15.075	0.530
842.000	495.630	79.991	19.996	102.991	19.928	12.943	0.502
844.000	496.598	79.991	19.994	102.996	19.949	11.316	0.461
846.000	497.641	79.992	19.995	102.996	19.966	9.948	0.525
848.000	498.649	79.993	19.996	102.999	19.977	9.100	0.508
850.000	499.660	79.994	19.995	102.980	19.988	8.326	0.488
852.000	500.681	79.995	19.994	102.998	19.995	7.759	0.523
854.000	501.676	79.995	19.993	103.002	20.002	7.244	0.518
856.000	502.691	79.994	19.995	102.985	20.009	6.644	0.504
858.000	503.631	79.994	19.995	102.994	20.010	6.587	0.484
860.000	504.680	79.994	19.995	103.014	20.014	6.319	0.499
862.000	505.685	79.993	19.996	103.011	20.016	6.165	0.512
864.000	506.688	79.992	19.995	103.009	20.020	5.788	0.500
866.000	507.686	79.995	19.996	103.027	20.019	5.877	0.479
868.000	508.717	79.994	19.995	103.005	20.022	5.661	0.503
870.000	509.699	79.995	19.996	103.001	20.021	5.749	0.484
872.000	510.729	79.995	19.996	102.989	20.022	5.690	0.506
874.000	511.696	79.995	19.995	102.998	20.020	5.838	0.497
876.000	512.742	79.995	19.996	103.007	20.018	5.945	0.505
878.000	513.755	79.996	19.995	103.011	20.021	5.710	0.515
880.000	514.807	79.995	19.995	103.012	20.019	5.905	0.554
882.000	515.809	79.994	19.995	103.005	20.020	5.795	0.481
884.000	516.862	79.993	19.995	102.999	20.020	5.836	0.499
886.000	517.883	79.992	19.995	103.006	20.023	5.554	0.501
888.000	518.904	79.992	19.995	102.993	20.019	5.872	0.499
890.000	519.948	79.992	19.996	103.011	20.022	5.672	0.515
892.000	520.954	79.992	19.996	103.003	20.022	5.704	0.510
894.000	521.977	79.992	19.996	103.012	20.023	5.568	0.507
896.000	522.975	79.992	19.995	103.008	20.018	6.007	0.506
898.000	524.047	79.992	19.997	103.024	20.018	5.998	0.530
900.000	525.108	79.991	19.995	103.006	20.020	5.806	0.521
902.000	526.106	79.992	19.995	103.011	20.021	5.776	0.504
904.000	527.131	79.994	19.995	103.012	20.021	5.771	0.494
906.000	528.142	79.993	19.994	103.015	20.021	5.709	0.520
908.000	529.179	79.992	19.995	103.027	20.020	5.819	0.510
910.000	530.175	79.992	19.994	103.020	20.017	6.026	0.487
912.000	531.203	79.990	19.996	103.021	20.022	5.643	0.492
914.000	532.251	79.992	19.996	103.011	20.018	5.979	0.513
916.000	533.288	79.992	19.997	103.012	20.020	5.840	0.515
918.000	534.324	79.992	19.997	103.024	20.019	5.909	0.514
920.000	535.345	79.992	19.996	103.013	20.017	6.023	0.529
922.000	536.404	79.992	19.996	103.009	20.019	5.872	0.508
924.000	537.378	79.992	19.996	102.994	20.015	6.218	0.499
926.000	538.449	79.994	19.995	102.998	20.017	6.030	0.547
928.000	539.457	79.994	19.996	103.009	20.015	6.170	0.502
930.000	540.501	79.994	19.996	103.000	20.021	5.773	0.496
932.000	541.531	79.993	19.995	103.009	20.019	5.890	0.529
934.000	542.544	79.995	19.996	103.007	20.019	5.866	0.511
936.000	543.565	79.994	19.994	103.012	20.018	5.940	0.488
938.000	544.587	79.994	19.995	103.008	20.018	5.978	0.514
940.000	545.595	79.993	19.995	103.009	20.017	6.035	0.511
942.000	546.631	79.993	19.995	103.011	20.015	6.192	0.524
944.000	547.663	79.994	19.996	103.010	20.020	5.842	0.544
946.000	548.698	79.993	19.996	103.010	20.017	6.015	0.506
948.000	549.669	79.994	19.996	103.011	20.017	6.039	0.494
950.000	550.727	79.992	19.997	103.010	20.019	5.922	0.489
952.000	551.779	79.994	19.996	103.009	20.020	5.810	0.511
954.000	552.772	79.995	19.996	103.007	20.017	6.089	0.492
956.000	553.770	79.994	19.996	103.013	20.019	5.931	0.492
958.000	554.826	79.993	19.995	103.016	20.018	5.981	0.544
960.000	555.824	79.995	19.996	103.006	20.016	6.121	0.487
962.000	556.865	79.993	19.996	103.011	20.015	6.227	0.516
964.000	557.889	79.992	19.996	103.012	20.015	6.232	0.512
966.000	558.921	79.994	19.995	103.011	20.017	6.043	0.529
968.000	559.936	79.992	19.995	103.010	20.017	6.030	0.515
970.000	560.940	79.992	19.995	103.014	20.012	6.408	0.539
972.000	562.004	79.991	19.995	103.014	20.011	6.488	0.537
974.000	563.018	79.991	19.996	103.019	20.015	6.216	0.509
976.000	564.027	79.991	19.995	103.020	20.013	6.391	0.510
978.000	565.033	79.992	19.996	103.012	20.011	6.537	0.531
980.000	566.050	79.991	19.998	103.008	20.012	6.442	0.501
982.000	567.056	79.991	19.996	103.011	20.009	6.665	0.499
984.000	568.104	79.992	19.996	103.012	20.010	6.596	0.521
986.000	569.142	79.992	19.996	103.008	20.008	6.708	0.516
988.000	570.155	79.992	19.997	103.009	20.010	6.583	0.506
990.000	571.157	79.991	19.995	103.006	20.007	6.799	0.508
992.001	572.165	79.991	19.995	103.008	20.006	6.888	0.505
994.001	573.226	79.992	19.996	103.008	20.003	7.143	0.526
996.000	574.304	79.992	19.996	103.008	19.998	7.495	0.554
998.000	575.309	79.990	19.996	103.009	19.998	7.542	0.519
1000.000	576.338	79.991	19.994	103.015	19.997	7.587	0.493
1002.000	577.373	79.992	19.996	103.023	19.997	7.634	0.518
1004.000	578.407	79.991	19.996	103.021	19.991	8.064	0.510
1006.000	579.419	79.992	19.996	103.022	19.989	8.215	0.513
1008.000	580.453	79.993	19.995	103.017	19.985	8.499	0.530
1010.000	581.448	79.992	19.995	103.030	19.986	8.469	0.494
1012.000	582.494	79.992	19.996	103.038	19.986	8.406	0.515
1014.000	583.471	79.993	19.995	103.040	19.979	8.981	0.501
1016.000	584.495	79.993	19.997	103.041	19.971	9.583	0.517
1018.000	585.485	79.992	19.996	103.031	19.963	10.195	0.501
1020.000	586.500	79.993	19.996	103.022	19.956	10.766	0.513
1022.000	587.528	79.993	19.996	103.033	19.955	10.845	0.504
1024.000	588.521	79.992	19.996	103.022	19.943	11.733	0.485
1026.000	589.544	79.992	19.995	103.041	19.936	12.295	0.529
1028.000	590.541	79.993	19.995	103.036	19.926	13.091	0.497
1030.000	591.535	79.995	19.996	103.030	19.913	14.071	0.476
1032.000	592.557	79.995	19.994	103.044	19.906	14.635	0.527
1034.000	593.537	79.996	19.993	103.052	19.894	15.544	0.501
1036.000	594.575	79.995	19.995	103.056	19.882	16.502	0.521
1038.000	595.600	79.995	19.995	103.053	19.870	17.390	0.531
1040.001	596.617	79.994	19.996	103.049	19.860	18.185	0.538
1042.000	597.634	79.992	19.996	103.048	19.854	18.650	0.490
1044.000	598.632	79.994	19.997	103.056	19.843	19.510	0.494
1046.000	599.643	79.994	19.996	103.058	19.837	19.961	0.517
1048.001	600.663	79.992	19.996	103.052	19.824	20.913	0.508
1050.001	601.661	79.991	19.996	103.057	19.813	21.780	0.517
1052.000	602.673	79.992	19.996	103.071	19.807	22.256	0.496
1054.000	603.689	79.993	19.994	103.075	19.798	22.950	0.492
1056.000	604.733	79.993	19.996	103.068	19.786	23.890	0.523
1058.000	605.743	79.992	19.996	103.057	19.781	24.252	0.513
1060.001	606.767	79.993	19.996	103.064	19.776	24.645	0.484
1062.000	607.789	79.993	19.996	103.068	19.769	25.166	0.513
1064.000	608.802	79.993	19.996	103.078	19.764	25.535	0.509
1066.000	609.807	79.994	19.995	103.072	19.760	25.859	0.496
1068.000	610.874	79.992	19.997	103.067	19.757	26.073	0.546
1070.000	611.860	79.991	19.997	103.075	19.753	26.387	0.481
1072.001	612.944	79.991	19.997	103.075	19.754	26.363	0.530
1074.001	613.958	79.990	19.997	103.082	19.754	26.372	0.564
1076.000	615.007	79.991	19.997	103.085	19.759	25.958	0.517
1078.000	616.049	79.993	19.996	103.070	19.760	25.869	0.545
1080.000	617.083	79.993	19.996	103.070	19.776	24.656	0.531
1082.000	618.112	79.991	19.996	103.070	19.785	23.931	0.543
1084.000	619.108	79.992	19.996	103.059	19.790	23.519	0.535
1086.001	620.134	79.994	19.996	103.060	19.812	21.856	0.514
1088.000	621.158	79.993	19.995	103.059	19.829	20.532	0.517
1090.002	622.182	79.995	19.995	103.053	19.849	19.019	0.510
1092.000	623.187	79.994	19.995	103.049	19.874	17.078	0.509
1094.000	624.238	79.992	19.995	103.049	19.898	15.264	0.531
1096.000	625.256	79.993	19.996	103.044	19.918	13.651	0.513
1098.000	626.259	79.992	19.996	103.042	19.938	12.142	0.521
1100.000	627.280	79.993	19.995	103.022	19.961	10.385	0.515
1102.000	628.309	79.992	19.995	103.030	19.977	9.121	0.499
1104.000	629.310	79.993	19.996	103.039	19.988	8.289	0.556
1106.000	630.327	79.993	19.996	103.013	20.003	7.168	0.525
1108.000	631.337	79.994	19.996	103.024	20.008	6.730	0.492
1110.000	632.325	79.994	19.995	103.024	20.015	6.207	0.480
1112.000	633.316	79.995	19.995	102.996	20.015	6.233	0.512
1114.001	634.358	79.996	19.995	103.015	20.015	6.170	0.516
1116.000	635.382	79.997	19.994	103.009	20.017	6.028	0.529
1118.000	636.377	79.995	19.995	103.008	20.021	5.779	0.529
1120.001	637.348	79.993	19.995	103.010	20.020	5.806	0.491
1122.000	638.377	79.994	19.995	103.003	20.023	5.624	0.543
1124.000	639.303	79.992	19.996	103.009	20.023	5.607	0.496
1126.000	640.283	79.992	19.996	103.007	20.019	5.892	0.492
1128.000	641.292	79.992	19.996	103.005	20.024	5.547	0.493
1130.000	642.264	79.991	19.997	103.007	20.023	5.558	0.514
1132.000	643.233	79.992	19.996	103.009	20.023	5.595	0.499
1134.000	644.219	79.994	19.995	103.010	20.027	5.308	0.497
1136.000	645.251	79.991	19.996	103.016	20.024	5.521	0.496
1138.000	646.226	79.991	19.995	103.013	20.024	5.547	0.552
1140.000	647.199	79.992	19.995	103.027	20.020	5.817	0.482
1142.000	648.205	79.993	19.996	103.020	20.019	5.866	0.563
1144.000	649.219	79.991	19.996	103.027	20.023	5.628	0.484
1146.000	650.206	79.992	19.994	103.026	20.018	5.955	0.503
1148.001	651.237	79.992	19.996	103.014	20.018	5.979	0.451
1150.000	652.198	79.991	19.996	103.019	20.019	5.932	0.509
1152.000	653.213	79.990	19.996	103.012	20.015	6.227	0.457
1154.000	654.212	79.990	19.995	103.023	20.014	6.308	0.502
1156.000	655.169	79.991	19.996	103.029	20.015	6.218	0.485
1158.000	656.169	79.990	19.996	103.021	20.016	6.170	0.493
1160.001	657.177	79.991	19.997	103.033	20.013	6.337	0.502
1162.000	658.148	79.992	19.997	103.025	20.018	5.985	0.460
1164.000	659.138	79.992	19.996	103.027	20.017	6.023	0.497
1166.000	660.164	79.994	19.996	103.045	20.014	6.311	0.497
1168.000	661.169	79.994	19.994	103.035	20.016	6.130	0.483
1170.000	662.203	79.993	19.994	103.039	20.013	6.376	0.517
1172.000	663.221	79.994	19.994	103.046	20.015	6.199	0.518
1174.001	664.188	79.994	19.996	103.038	20.016	6.112	0.487
1176.000	665.201	79.995	19.995	103.044	20.014	6.307	0.497
1178.000	666.200	79.992	19.995	103.053	20.013	6.342	0.481
1180.000	667.160	79.994	19.994	103.050	20.014	6.298	0.482
1182.000	668.159	79.994	19.995	103.047	20.012	6.456	0.496
1184.000	669.151	79.995	19.995	103.050	20.012	6.420	0.500
1186.000	670.168	79.992	19.995	103.051	20.013	6.401	0.524
1188.000	671.110	79.994	19.995	103.060	20.013	6.329	0.500
1190.001	672.088	79.994	19.996	103.058	20.010	6.602	0.469
1192.000	673.066	79.995	19.995	103.057	20.010	6.559	0.480
1194.000	674.066	79.995	19.995	103.055	20.013	6.374	0.521
1196.000	675.013	79.994	19.995	103.074	20.011	6.512	0.494
1198.000	676.036	79.996	19.995	103.060	20.012	6.458	0.526
1200.001	676.974	79.992	19.994	103.070	20.014	6.273	0.481
1202.000	677.960	79.994	19.995	103.066	20.014	6.321	0.508
1204.000	678.896	79.994	19.994	103.081	20.013	6.351	0.447
1206.002	679.936	79.989	19.996	103.085	20.014	6.264	0.460
1208.000	680.834	79.993	19.994	103.087	20.010	6.599	0.448
1210.000	681.817	79.993	19.995	103.090	20.003	7.138	0.538
1212.000	682.789	79.992	19.995	103.096	20.008	6.766	0.489
1214.000	683.750	79.993	19.997	103.103	20.007	6.852	0.475
1216.000	684.741	79.993	19.995	103.095	20.008	6.773	0.493
1218.000	685.723	79.993	19.997	103.090	20.006	6.878	0.509
1220.000	686.712	79.994	19.996	103.095	20.007	6.822	0.524
1222.000	687.654	79.992	19.995	103.104	20.006	6.902	0.478
1224.001	688.606	79.991	19.996	103.099	20.008	6.767	0.435
1226.000	689.652	79.994	19.994	103.110	20.003	7.118	0.338
1228.001	690.640	79.993	19.994	103.122	20.002	7.230	0.511
1230.001	691.635	79.991	19.996	103.127	20.002	7.251	0.506
1232.000	692.644	79.989	19.997	103.110	20.002	7.183	0.512
1234.000	693.650	79.992	19.994	103.103	20.003	7.135	0.491
1236.000	694.696	79.991	19.998	103.109	20.001	7.286	0.515
1238.000	695.730	79.993	19.998	103.113	19.999	7.476	0.503
1240.000	696.789	79.996	19.991	103.127	20.001	7.289	0.500
1242.000	697.806	79.995	19.994	103.123	19.999	7.485	0.512
1244.001	698.842	79.994	19.995	103.131	20.000	7.404	0.526
1246.000	699.880	79.993	19.999	103.127	19.999	7.434	0.519
1248.001	700.929	79.994	19.996	103.125	20.000	7.408	0.536
1250.000	701.945	79.992	19.998	103.127	19.993	7.901	0.503
1252.000	702.986	79.995	19.997	103.128	19.998	7.495	0.530
1254.001	703.955	79.998	19.996	103.123	19.993	7.902	0.501
1256.000	704.976	79.993	19.999	103.138	19.995	7.735	0.498
1258.001	706.012	79.993	19.995	103.128	19.987	8.359	0.496
1260.000	707.000	79.994	19.997	103.132	19.989	8.215	0.492
1262.000	708.033	79.994	19.995	103.137	19.989	8.199	0.517
1264.000	709.012	79.994	19.994	103.159	19.992	8.020	0.507
1266.000	710.029	80.002	19.993	103.149	19.991	8.106	0.500
1268.000	711.031	79.991	19.998	103.156	19.991	8.052	0.507
1270.000	712.041	79.998	19.995	103.167	19.990	8.184	0.504
1272.001	713.035	79.996	19.995	103.166	19.989	8.193	0.491
1274.000	714.022	79.995	19.995	103.163	19.989	8.216	0.514
1276.000	715.051	79.993	19.996	103.166	19.988	8.279	0.521
1278.000	716.049	79.992	19.992	103.165	19.989	8.225	0.503
1280.001	717.086	79.992	19.995	103.166	19.986	8.427	0.519
1282.000	718.072	79.994	19.995	103.163	19.987	8.342	0.502
1284.000	719.045	79.989	19.994	103.154	19.987	8.351	0.467
1286.001	720.090	79.992	19.995	103.158	19.988	8.315	0.531
1288.000	721.077	79.991	19.994	103.162	19.985	8.535	0.512
1290.001	722.023	79.992	19.995	103.162	19.986	8.431	0.467
1292.001	723.015	79.994	19.995	103.145	19.988	8.324	0.497
1294.000	724.009	79.993	19.995	103.134	19.984	8.635	0.514
1296.000	725.007	79.994	19.996	103.152	19.988	8.275	0.509
1298.001	726.008	79.993	19.995	103.140	19.985	8.488	0.506
1300.000	727.087	79.994	19.994	103.152	19.989	8.252	0.548
1302.000	728.144	79.993	19.996	103.131	19.989	8.182	0.528
1304.000	729.243	79.993	19.996	103.128	19.994	7.827	0.589
1306.000	730.341	79.992	19.997	103.120	19.993	7.933	0.555
1308.000	731.437	79.992	19.995	103.091	19.998	7.552	0.559
1310.000	732.576	79.995	19.996	103.103	19.995	7.722	0.599
1312.000	733.737	79.991	19.996	103.065	19.999	7.423	0.564
1314.000	734.929	79.990	20.000	103.051	20.004	7.093	0.598
1316.000	736.074	79.993	19.996	103.052	20.009	6.641	0.586
1318.000	737.262	79.994	19.996	103.032	20.006	6.882	0.642
1320.000	738.444	79.992	19.996	103.041	20.013	6.362	0.590
1322.001	739.600	79.995	19.996	103.017	20.014	6.277	0.577
1324.000	740.807	79.993	19.996	103.014	20.014	6.273	0.595
1326.000	741.971	79.992	19.998	103.008	20.012	6.409	0.596
1327.000	742.579	79.994	19.995	103.008	20.017	6.059	0.617