File: 01_Data/Pine_Siding/Cone/Pine_Siding_Cone_HF25Scan_221004_R3.csv
Names,Time,Stack TC,Smoke TC,Exh Press,Smoke Comp,Smoke Meas,CO Meter,CO2 Meter,O2 Meter,Sample Mass,Ext Coeff,Start Test,Flame Verif
Chan Gain,,500,500,1,1,1,1,1,1,1,1,1.0,1.0
Offset,,0,0,0.13918,0,0,0,0,0,0,0,0.0,0.0
Gain,,1,1,25.011,14.0162,15.5607,1,1,1,1.0009,1.02981,1.0,1.0
Units,sec,C,C,Pa,%,%,%,%,%,g,/m,,
Baseline,,21.9973,22.4144,162.089,103.427,4.19938,0.000337346,0.0864183,20.961,-2.45021,28.9426,,
14,3.25,20.575,20.7298,160.144,103.791,4.24254,0.000324376,0.0883282,20.9582,578.172,28.8819,0.0,0.0
28,6.75,20.4115,21.3037,159.812,103.922,4.19268,0.0002928,0.0880913,20.9583,578.222,29.0001,0.0,0.0
42,10.25,20.9649,21.2865,163.886,104.039,4.24016,0.000267847,0.0875981,20.9591,578.132,28.9085,0.0,0.0
56,13.75,21.1296,21.0599,163.195,104.15,4.24444,0.000176151,0.0869297,20.9602,578.102,28.909,0.0,0.0
70,17.25,20.8314,20.9968,158.021,104.275,4.24919,0.000131964,0.0863471,20.9619,578.112,28.9097,0.0,0.0
84,20.75,21.2455,22.0703,160.174,104.404,4.26581,0.000239612,0.0859929,20.9632,578.072,28.8856,0.0,0.0
98,24.25,20.9644,21.559,160.067,104.494,4.215,0.000387894,0.0855576,20.9636,578.022,29.0017,0.0,0.0
112,27.75,20.972,21.9243,156.807,104.555,4.28338,0.000544745,0.0853206,20.965,577.982,28.8616,0.0,0.0
126,31.25,21.4683,22.1051,161.56,104.609,4.22069,0.000593955,0.0853885,20.964,577.952,28.9994,0.0,0.0
140,34.75,21.7728,21.938,162.954,104.607,4.20075,0.000423787,0.0857698,20.962,577.912,29.042,0.0,0.0
154,38.25,21.4261,22.0538,165.644,104.575,4.23779,0.000396837,0.086145,20.9609,577.882,28.96,0.0,0.0
168,41.75,21.6087,22.012,158.426,104.499,4.18698,0.000566207,0.0864856,20.9601,577.842,29.0624,0.0,0.0
182,45.25,21.7946,22.2084,162.17,104.401,4.19173,0.000681313,0.0864293,20.9598,577.781,29.0436,0.0,0.0
196,48.75,21.6855,22.0706,159.346,104.299,4.22022,0.000513998,0.0865296,20.9597,577.711,28.9736,0.0,0.0
210,52.25,21.7586,22.621,157.988,104.205,4.15516,0.000461478,0.0864716,20.9599,577.661,29.1058,0.0,0.0
224,55.75,21.9925,22.5592,161.225,104.099,4.20692,0.000805358,0.0863529,20.9601,577.621,28.9848,0.0,0.0
238,59.25,22.1331,22.0756,162.621,104.069,4.18745,0.000797852,0.0864229,20.9604,577.551,29.0241,0.0,0.0
252,62.75,21.8084,22.2191,161.058,104.349,4.17273,0.000687142,0.0866287,20.9605,577.511,29.0802,0.0,0.0
266,66.25,22.0131,22.0752,160.578,104.672,4.16608,0.000571212,0.0866653,20.9605,577.441,29.1225,0.0,0.0
280,69.75,21.6932,22.5601,160.248,104.857,4.18413,0.00050012,0.0868433,20.9605,577.391,29.0994,0.0,0.0
294,73.25,21.8524,22.6495,160.83,104.967,4.28195,0.0012786,0.110834,20.9293,577.231,28.9001,0.0,1.0
308,76.75,23.4747,23.5246,145.095,104.967,4.79387,0.0033189,0.259973,20.7648,576.851,27.88,0.0,1.0
322,80.25,27.4748,26.3254,137.928,104.852,4.68085,0.0052612,0.421265,20.5676,576.28,28.0856,0.0,0.0
336,83.75,30.1261,28.957,141.721,104.605,4.72359,0.00584179,0.494896,20.4522,575.82,27.9822,0.0,0.0
350,87.25,32.9797,31.4188,137.994,104.479,4.6685,0.0058638,0.509792,20.4292,575.319,28.0773,0.0,0.0
364,90.75,34.7141,33.9338,140.135,104.661,4.65805,0.00559214,0.484861,20.454,574.899,28.1133,0.0,0.0
378,94.25,36.2466,35.6992,152.254,104.873,4.56878,0.0050714,0.448207,20.5021,574.488,28.3063,0.0,0.0
392,97.75,37.0701,36.9685,148.737,105.095,4.5683,0.0047072,0.412401,20.5452,574.138,28.3263,0.0,0.0
406,101.25,38.1445,38.1415,148.661,105.253,4.51084,0.00458769,0.388563,20.5789,573.828,28.4543,0.0,0.0
420,104.75,38.5142,38.7514,148.799,105.328,4.51322,0.00450119,0.37159,20.5979,573.478,28.4559,0.0,0.0
434,108.25,39.2404,39.8308,147.62,105.283,4.45956,0.0044327,0.353575,20.6229,573.177,28.5602,0.0,0.0
448,111.75,39.6949,40.2254,147.609,105.1,4.44151,0.00435192,0.338548,20.6439,572.857,28.5811,0.0,0.0
462,115.25,39.2596,41.1534,151.545,104.818,4.41587,0.00387804,0.321993,20.6648,572.557,28.6091,0.0,0.0
476,118.75,39.369,40.7087,153.673,104.383,4.45861,0.0035711,0.310106,20.6804,572.297,28.4845,0.0,0.0
490,122.25,39.5272,41.0126,150.486,103.942,4.45671,0.0032571,0.30267,20.691,572.066,28.4501,0.0,0.0
504,125.75,39.5133,40.8797,150.928,103.572,4.36031,0.00320082,0.296872,20.6969,571.766,28.6154,0.0,0.0
518,129.25,39.3594,41.3229,150.517,103.34,4.33277,0.00328963,0.290337,20.7044,571.526,28.6524,0.0,0.0
532,132.75,39.1639,41.461,154.099,103.276,4.41207,0.00314618,0.284158,20.7113,571.236,28.483,0.0,0.0
546,136.25,38.6803,39.9746,152.085,103.429,4.40067,0.00292196,0.278172,20.7193,571.035,28.5197,0.0,0.0
560,139.75,39.0569,40.7022,147.218,103.712,4.40922,0.00264435,0.272836,20.7265,570.815,28.5269,0.0,0.0
574,143.25,38.67,40.8625,146.819,104.048,4.404,0.00263374,0.269529,20.7307,570.575,28.5668,0.0,0.0
588,146.75,38.4237,41.0904,152.22,104.373,4.43439,0.0026923,0.266446,20.7341,570.325,28.5329,0.0,0.0
602,150.25,38.1855,41.027,147.789,104.596,4.43581,0.00295794,0.263035,20.7388,570.075,28.5492,0.0,0.0
616,153.75,37.7553,41.7799,152.099,104.63,4.41729,0.00307735,0.260096,20.7421,569.874,28.5899,0.0,0.0
630,157.25,37.9077,40.8466,149.497,104.461,4.44009,0.0032196,0.256733,20.7459,569.634,28.5289,0.0,0.0
644,160.75,37.9872,41.2937,155.641,104.274,4.42964,0.00322791,0.255538,20.7487,569.474,28.5339,0.0,0.0
658,164.25,37.2971,40.5445,152.079,104.055,4.44626,0.00310379,0.253893,20.7513,569.214,28.4812,0.0,0.0
672,167.75,37.5918,40.533,150.628,104.46,4.44579,0.00307302,0.253432,20.7516,568.984,28.5172,0.0,0.0
686,171.25,37.6691,40.7218,148.714,104.885,4.44246,0.00320934,0.253822,20.7524,568.793,28.5606,0.0,0.0
700,174.75,37.4936,40.4364,153.698,104.923,4.44626,0.00319685,0.254168,20.7522,568.553,28.5562,0.0,0.0
714,178.25,36.9797,40.4678,151.271,104.558,4.4059,0.00286843,0.25441,20.7515,568.313,28.6071,0.0,0.0
728,181.75,37.5627,40.4042,149.283,104.628,4.43914,0.0026603,0.253035,20.7529,568.113,28.5453,0.0,0.0
742,185.25,37.1933,40.2414,154.568,104.98,4.44484,0.00273719,0.253056,20.7534,567.913,28.564,0.0,0.0
756,188.75,37.1914,40.0205,149.786,105.254,4.52082,0.00293094,0.250929,20.7555,567.692,28.4344,0.0,0.0
770,192.25,36.7741,40.0782,151.07,105.329,4.49612,0.00298555,0.249747,20.759,567.472,28.4904,0.0,0.0
784,195.75,36.5305,39.5253,154.621,105.093,4.49232,0.00283297,0.247406,20.7606,567.262,28.4777,0.0,0.0
798,199.25,36.9486,39.9885,154.241,104.618,4.46668,0.00287467,0.246498,20.7625,567.042,28.4885,0.0,0.0
812,202.75,36.7342,39.5015,149.492,104.033,4.44389,0.00292189,0.245732,20.7629,566.852,28.4841,0.0,0.0
826,206.25,36.4967,39.5016,154.75,103.532,4.3888,0.00287617,0.246381,20.7616,566.611,28.5531,0.0,0.0
840,209.75,36.7707,39.5204,150.643,103.328,4.40875,0.00268454,0.246567,20.7615,566.401,28.4943,0.0,0.0
854,213.25,36.702,39.7827,150.862,103.487,4.40305,0.00271071,0.244594,20.7649,566.201,28.5199,0.0,0.0
868,216.75,36.4674,39.5353,158.436,103.898,4.41302,0.00281132,0.243486,20.7659,566.021,28.5353,0.0,0.0
882,220.25,36.3623,39.1502,149.641,104.36,4.47,0.00286346,0.241751,20.7667,565.751,28.4594,0.0,0.0
896,223.75,36.5412,39.4092,154.305,104.632,4.47903,0.00277942,0.239849,20.7693,565.55,28.4648,0.0,0.0
910,227.25,36.6051,39.4983,149.926,104.606,4.4738,0.00266982,0.240875,20.7703,565.37,28.4731,0.0,0.0
924,230.75,36.4753,39.2152,151.766,104.331,4.45528,0.00267054,0.241021,20.7694,565.21,28.4867,0.0,0.0
938,234.25,36.8387,39.1989,150.465,104.067,4.44816,0.00279359,0.239895,20.7712,564.99,28.4783,0.0,0.0
952,237.75,36.1249,38.9444,153.085,104.523,4.4814,0.00262042,0.237445,20.7719,564.8,28.4506,0.0,0.0
966,241.25,36.0036,38.6548,148.5,104.912,4.4776,0.00252357,0.236725,20.7737,564.63,28.4918,0.0,0.0
980,244.75,36.1421,39.0499,154.164,104.782,4.45148,0.00260638,0.235166,20.778,564.389,28.5335,0.0,0.0
994,248.25,36.0279,38.9405,151.249,104.521,4.45861,0.00285301,0.234015,20.7805,564.159,28.4964,0.0,0.0
1008,251.75,36.3461,38.9611,150.895,104.858,4.51654,0.00292628,0.23614,20.7778,563.929,28.4089,0.0,0.0
1022,255.25,36.08,39.0713,152.869,105.205,4.50799,0.00276369,0.237118,20.7758,563.759,28.4559,0.0,0.0
1036,258.75,36.1188,38.8237,152.026,105.311,4.52889,0.00266177,0.236516,20.7746,563.549,28.4232,0.0,0.0
1050,262.25,36.4827,39.0569,152.989,105.19,4.46763,0.00256702,0.235923,20.7744,563.308,28.5358,0.0,0.0
1064,265.75,36.1993,38.8548,152.835,104.824,4.51132,0.00244217,0.235414,20.7749,563.118,28.4164,0.0,0.0
1078,269.25,36.0436,38.3483,154.643,104.344,4.49945,0.00238123,0.235457,20.7747,562.938,28.3988,0.0,0.0
1092,272.75,35.8616,38.8877,151.594,103.847,4.46431,0.00253851,0.235341,20.7741,562.708,28.4264,0.0,0.0
1106,276.25,36.0779,38.6501,151.538,103.496,4.44769,0.00269177,0.232702,20.7767,562.468,28.4296,0.0,0.0
1120,279.75,35.8078,38.4373,152.145,103.342,4.46905,0.00258458,0.231966,20.7779,562.307,28.3728,0.0,0.0
1134,283.25,35.4247,38.758,150.487,103.411,4.49755,0.00237997,0.232174,20.7782,562.207,28.3214,0.0,0.0
1148,286.75,36.4108,38.7241,156.648,103.601,4.42252,0.00262188,0.232485,20.7799,561.987,28.49,0.0,0.0
1162,290.25,35.6077,38.3585,154.247,103.88,4.50135,0.00266511,0.230784,20.7804,561.757,28.3547,0.0,0.0
1176,293.75,35.8994,38.7973,152.261,104.164,4.50467,0.00269359,0.228487,20.7839,561.597,28.3727,0.0,0.0
1190,297.25,35.5957,38.3063,151.813,104.387,4.51274,0.00261654,0.227317,20.7849,561.397,28.3759,0.0,0.0
1204,300.75,36.0264,38.051,153.148,104.559,4.50989,0.0025138,0.226948,20.7856,561.187,28.3964,0.0,0.0
1218,304.25,35.5088,38.2764,155.534,104.632,4.41634,0.0027369,0.226544,20.7873,560.986,28.5921,0.0,0.0
1232,307.75,35.3979,37.7041,151.803,104.652,4.51369,0.00303136,0.224973,20.7893,560.816,28.3968,0.0,0.0
1246,311.25,35.1317,38.2838,152.707,104.592,4.46668,0.00281578,0.223104,20.7897,560.636,28.4862,0.0,0.0
1260,314.75,36.0738,37.6668,151.555,104.49,4.41919,0.00249201,0.222922,20.7898,560.456,28.574,0.0,0.0
1274,318.25,35.2532,38.0721,153.749,104.332,4.49422,0.00233729,0.222851,20.7912,560.266,28.4082,0.0,0.0
1288,321.75,34.984,37.4766,151.321,104.206,4.44863,0.00239461,0.222188,20.792,560.086,28.4894,0.0,0.0
1302,325.25,35.3194,37.9097,159.214,104.107,4.47903,0.00246104,0.221886,20.7927,559.875,28.4193,0.0,0.0
1316,328.75,35.0675,37.1072,154.443,104.04,4.40922,0.00232221,0.222383,20.792,559.685,28.5554,0.0,0.0
1330,332.25,34.935,37.5875,153.846,104.087,4.43581,0.00242095,0.222313,20.792,559.545,28.5052,0.0,0.0
1344,335.75,34.8624,37.1517,149.923,104.349,4.43819,0.00246396,0.221709,20.792,559.335,28.5231,0.0,0.0
1358,339.25,34.6464,37.5546,160.063,104.553,4.50989,0.00252389,0.222658,20.7916,559.155,28.3959,0.0,0.0
1372,342.75,34.9831,37.6847,155.041,104.719,4.47143,0.00248457,0.219979,20.7942,558.984,28.4876,0.0,0.0
1386,346.25,34.7403,37.3063,151.062,104.824,4.52556,0.00232743,0.220077,20.7941,558.784,28.3879,0.0,0.0
1400,349.75,35.1338,36.7476,155.581,104.891,4.50182,0.00239976,0.221974,20.7922,558.634,28.4412,0.0,0.0
1414,353.25,35.0698,36.8137,152.345,104.902,4.52177,0.00257118,0.222137,20.7917,558.464,28.4022,0.0,0.0
1428,356.75,35.2754,36.7186,153.217,104.836,4.53079,0.00263448,0.220682,20.7919,558.254,28.3786,0.0,0.0
1442,360.25,34.9717,36.3675,153.762,104.744,4.46953,0.00250759,0.219244,20.7939,558.054,28.4936,0.0,0.0
1456,363.75,35.0237,36.6108,152.597,104.632,4.50704,0.00269129,0.218859,20.7944,557.894,28.4085,0.0,0.0
1470,367.25,34.592,36.7986,154.932,104.484,4.45433,0.00286581,0.219607,20.7945,557.723,28.5019,0.0,0.0
1484,370.75,34.6133,36.419,152.439,104.399,4.49422,0.00283014,0.218873,20.7963,557.553,28.414,0.0,0.0
1498,374.25,34.4148,36.6349,152.683,104.451,4.51274,0.00257581,0.218149,20.7956,557.363,28.3814,0.0,0.0
1512,377.75,34.3283,37.2049,152.771,104.507,4.46098,0.00244668,0.218206,20.7948,557.203,28.4904,0.0,0.0
1526,381.25,34.3647,36.3146,153.512,104.569,4.49565,0.0024453,0.217481,20.7963,557.003,28.4259,0.0,0.0
1540,384.75,34.8368,36.2418,153.486,104.619,4.4757,0.00258022,0.217268,20.7972,556.883,28.4703,0.0,0.0
1554,388.25,34.353,36.7499,150.636,104.668,4.52366,0.00259786,0.216745,20.7974,556.642,28.3783,0.0,0.0
1568,391.75,34.7705,36.3968,153.49,104.743,4.4719,0.002603,0.217842,20.7964,556.482,28.4887,0.0,0.0
1582,395.25,33.9761,36.8447,153.757,104.782,4.51037,0.00286773,0.218239,20.7954,556.312,28.4147,0.0,0.0
1596,398.75,34.6297,36.1336,150.793,104.832,4.49327,0.00303851,0.217542,20.7952,556.132,28.4533,0.0,0.0
1610,402.25,34.4001,36.2258,150.221,104.874,4.48188,0.00290562,0.217983,20.7952,555.942,28.4798,0.0,0.0
1624,405.75,34.4098,36.554,154.712,104.919,4.48188,0.00285956,0.21821,20.7948,555.772,28.4838,0.0,0.0
1638,409.25,34.1359,36.4107,151.845,104.954,4.46336,0.00292619,0.218131,20.7946,555.631,28.5242,0.0,0.0
1652,412.75,34.0914,36.296,152.158,104.994,4.47333,0.00303554,0.217893,20.7945,555.451,28.5075,0.0,0.0
1666,416.25,34.207,36.6759,152.096,105.041,4.46905,0.00302305,0.217994,20.7945,555.261,28.5202,0.0,0.0
1680,419.75,34.2231,36.3123,157.367,105.068,4.46715,0.00284092,0.218027,20.7945,555.101,28.5263,0.0,0.0
1694,423.25,34.0814,36.3145,156.028,105.122,4.49232,0.00275927,0.217759,20.7945,554.901,28.4802,0.0,0.0
1708,426.75,33.9241,36.1422,153.783,105.136,4.50704,0.00259857,0.21721,20.7945,554.761,28.4519,0.0,0.0
1722,430.25,34.5721,35.7067,153.061,105.178,4.50135,0.00266323,0.217848,20.7961,554.581,28.4669,0.0,0.0
1736,433.75,34.0408,36.6282,152.01,105.195,4.52556,0.00296639,0.2191,20.7965,554.4,28.4198,0.0,0.0
1750,437.25,34.0736,36.5952,151.803,105.212,4.48378,0.00314227,0.21835,20.7977,554.2,28.5051,0.0,0.0
1764,440.75,34.4523,35.5375,151.935,105.232,4.47665,0.00314206,0.218111,20.7969,554.03,28.5212,0.0,0.0
1778,444.25,34.209,36.237,148.911,105.242,4.51512,0.00313332,0.218785,20.796,553.84,28.4448,0.0,0.0
1792,447.75,34.1743,36.443,151.982,105.253,4.50894,0.00311438,0.218735,20.7959,553.68,28.4581,0.0,0.0
1806,451.25,34.0419,36.1105,156.25,105.257,4.49755,0.00279316,0.21838,20.7965,553.5,28.4813,0.0,0.0
1820,454.75,34.2648,35.841,148.346,105.277,4.48283,0.00254686,0.219025,20.7968,553.329,28.5126,0.0,0.0
1834,458.25,34.4248,36.2609,151.639,105.275,4.46193,0.0029556,0.219684,20.7955,553.159,28.5546,0.0,0.0
1848,461.75,34.1576,36.1064,149.382,105.278,4.52414,0.00321874,0.219766,20.7952,552.959,28.4298,0.0,0.0
1862,465.25,34.1634,36.1092,156.7,105.281,4.52604,0.00313732,0.219837,20.7952,552.809,28.4263,0.0,0.0
1876,468.75,34.3419,36.0631,152.189,105.289,4.4947,0.00312817,0.219122,20.7952,552.639,28.4897,0.0,0.0
1890,472.25,34.2965,36.0894,155.323,105.27,4.4833,0.0030432,0.219447,20.7956,552.439,28.511,0.0,0.0
1904,475.75,34.0654,35.8828,153.137,105.279,4.50704,0.00287456,0.21991,20.7936,552.288,28.4641,0.0,0.0
1918,479.25,34.1612,36.3717,152.529,105.273,4.47618,0.00281641,0.220161,20.7922,552.118,28.5257,0.0,0.0
1932,482.75,34.7087,35.9776,157.767,105.276,4.53031,0.00282448,0.220224,20.7913,551.928,28.4173,0.0,0.0
1946,486.25,34.1678,35.9535,157.66,105.275,4.48947,0.00316136,0.219729,20.7913,551.778,28.4991,0.0,0.0
1960,489.75,34.4958,36.0956,152.014,105.256,4.49612,0.00302397,0.218851,20.7928,551.608,28.4841,0.0,0.0
1974,493.25,34.3424,35.9888,155.494,105.264,4.49327,0.0028152,0.218278,20.7942,551.428,28.4905,0.0,0.0
1988,496.75,33.5545,35.8569,151.911,105.255,4.51132,0.00301758,0.21824,20.7951,551.258,28.4535,0.0,0.0
2002,500.25,34.6338,35.9657,152.135,105.241,4.52841,0.00285443,0.219211,20.7944,551.127,28.4182,0.0,0.0
2016,503.75,34.1071,36.2115,150.854,105.221,4.52034,0.00264731,0.219657,20.793,550.917,28.4326,0.0,0.0
2030,507.25,34.0619,36.4192,150.365,105.219,4.55501,0.00268631,0.220491,20.7921,550.747,28.3634,0.0,0.0
2044,510.75,34.5535,35.8422,150.454,105.199,4.48473,0.00293537,0.220245,20.7923,550.597,28.5021,0.0,0.0
2058,514.25,34.0906,36.3984,156.344,105.184,4.52319,0.00278723,0.219363,20.7937,550.387,28.4237,0.0,0.0
2072,517.75,34.1136,35.9578,153.697,105.18,4.49802,0.00279321,0.219353,20.794,550.257,28.4737,0.0,0.0
2086,521.25,34.3648,35.923,152.055,105.183,4.49232,0.00277419,0.219398,20.7951,550.076,28.4854,0.0,0.0
2100,524.75,34.2085,36.0554,156.085,105.158,4.48045,0.00298438,0.218955,20.7961,549.896,28.5072,0.0,0.0
2114,528.25,34.0975,36.1467,153.826,105.138,4.4909,0.00284546,0.2194,20.7964,549.726,28.4844,0.0,0.0
2128,531.75,33.9987,36.3709,156.378,105.122,4.44579,0.00283323,0.219925,20.7962,549.546,28.5743,0.0,0.0
2142,535.25,34.4198,36.0228,153.236,105.112,4.4814,0.00295203,0.220223,20.7946,549.386,28.5013,0.0,0.0
2156,538.75,34.2481,36.0517,156.081,105.085,4.52319,0.00298734,0.219723,20.7942,549.166,28.4151,0.0,0.0
2170,542.25,34.5718,35.8814,148.789,105.045,4.47903,0.00287826,0.221105,20.7925,549.036,28.5003,0.0,0.0
2184,545.75,34.5503,36.1919,155.021,105.032,4.46953,0.0028192,0.220499,20.7928,548.875,28.5184,0.0,0.0
2198,549.25,34.343,36.1001,155.407,104.993,4.50942,0.00292796,0.220133,20.793,548.715,28.4348,0.0,0.0
2212,552.75,34.1318,36.0388,153.603,104.956,4.47095,0.00289779,0.221514,20.7931,548.545,28.509,0.0,0.0
2226,556.25,34.2915,36.1803,150.303,104.908,4.48283,0.00277754,0.221701,20.7931,548.365,28.4809,0.0,0.0
2240,559.75,33.5989,36.307,149.467,104.867,4.46146,0.00247854,0.221651,20.7931,548.185,28.5205,0.0,0.0
2254,563.25,34.196,36.2509,152.758,104.83,4.4947,0.00241621,0.221557,20.7931,548.005,28.4503,0.0,0.0
2268,566.75,34.3281,36.3559,155.197,104.764,4.48567,0.00271335,0.221761,20.7932,547.875,28.4628,0.0,0.0
2282,570.25,34.3947,36.0261,152.796,104.733,4.51417,0.00316185,0.222538,20.7914,547.684,28.4029,0.0,0.0
2296,573.75,34.5941,35.9094,156.071,104.687,4.52984,0.00321727,0.222806,20.7894,547.524,28.3677,0.0,0.0
2310,577.25,34.4508,36.4185,149.869,104.634,4.51607,0.00321437,0.222916,20.7885,547.354,28.3905,0.0,0.0
2324,580.75,34.7325,35.8624,154.35,104.566,4.44721,0.00340729,0.223922,20.7881,547.184,28.5234,0.0,0.0
2338,584.25,34.3103,36.4875,157.237,104.524,4.46763,0.00327878,0.222579,20.788,547.014,28.4785,0.0,0.0
2352,587.75,34.3814,36.2057,152.387,104.476,4.49042,0.0030708,0.223803,20.7885,546.844,28.4283,0.0,0.0
2366,591.25,34.7243,36.2236,155.649,104.439,4.47855,0.00305121,0.223907,20.7886,546.673,28.449,0.0,0.0
2380,594.75,34.2067,36.4993,154.516,104.396,4.47143,0.00314616,0.224014,20.7885,546.503,28.4597,0.0,0.0
2394,598.25,34.3448,36.2095,155.018,104.537,4.43914,0.00278272,0.223937,20.7897,546.333,28.5374,0.0,0.0
2408,601.75,34.4514,36.0901,152.403,104.652,4.49802,0.002597,0.224311,20.7899,546.173,28.4282,0.0,0.0
2422,605.25,34.3172,35.8903,152.24,104.738,4.49517,0.00244854,0.223187,20.7882,546.033,28.4414,0.0,0.0
2436,608.75,34.4721,36.0675,156.575,104.802,4.48188,0.00241907,0.224853,20.7868,545.813,28.4737,0.0,0.0
2450,612.25,34.568,36.1497,150.737,104.847,4.48662,0.00238583,0.225003,20.7863,545.662,28.468,0.0,0.0
2464,615.75,34.4053,36.2535,154.62,104.881,4.47333,0.00222809,0.224899,20.7869,545.502,28.4978,0.0,0.0
2478,619.25,34.7445,36.2976,153.719,104.894,4.47618,0.00257354,0.226071,20.7874,545.332,28.4931,0.0,0.0
2492,622.75,34.4268,36.3213,153.778,104.911,4.46715,0.00301736,0.224832,20.7878,545.152,28.5128,0.0,0.0
2506,626.25,34.5112,36.3546,150.912,104.89,4.47238,0.00298166,0.225973,20.7879,544.992,28.5004,0.0,0.0
2520,629.75,34.4579,36.4764,154.792,104.854,4.51512,0.00287601,0.226209,20.788,544.852,28.4114,0.0,0.0
2534,633.25,34.7481,36.1262,149.403,104.78,4.54266,0.00280444,0.224727,20.7892,544.642,28.3501,0.0,0.0
2548,636.75,34.6415,36.6358,153.906,104.68,4.50372,0.00265865,0.225408,20.7884,544.481,28.4193,0.0,0.0
2562,640.25,34.8492,36.4126,151.903,104.583,4.4852,0.00250761,0.227084,20.7871,544.321,28.4481,0.0,0.0
2576,643.75,34.8101,35.9908,152.226,104.424,4.48283,0.00228898,0.22881,20.7849,544.181,28.4391,0.0,0.0
2590,647.25,35.0593,36.0198,154.286,104.27,4.51559,0.002418,0.228871,20.7831,543.991,28.36,0.0,0.0
2604,650.75,34.701,36.468,154.369,104.07,4.48093,0.00259422,0.228383,20.784,543.821,28.4123,0.0,0.0
2618,654.25,34.4436,36.6026,153.338,104.012,4.46241,0.00284423,0.229758,20.7827,543.641,28.4447,0.0,0.0
2632,657.75,34.6973,36.6914,151.027,104.048,4.4985,0.00290947,0.231685,20.7809,543.451,28.375,0.0,0.0
2646,661.25,35.0208,36.3417,150.421,104.094,4.50799,0.00270919,0.232244,20.7793,543.3,28.36,0.0,0.0
2660,664.75,35.0563,36.7166,153.289,104.142,4.48093,0.00254896,0.23503,20.7777,543.14,28.4185,0.0,0.0
2674,668.25,34.98,37.2739,153.907,104.199,4.49612,0.00262673,0.235116,20.7771,542.96,28.3929,0.0,0.0
2688,671.75,34.9462,36.6664,151.897,104.273,4.51132,0.00279476,0.235582,20.776,542.76,28.3689,0.0,0.0
2702,675.25,35.4362,36.9793,153.476,104.337,4.49232,0.00268597,0.2372,20.7749,542.61,28.4125,0.0,0.0
2716,678.75,34.9766,37.1615,150.888,104.443,4.53459,0.00261784,0.237385,20.7742,542.39,28.3371,0.0,0.0
2730,682.25,35.486,36.3729,150.232,104.499,4.49707,0.00273882,0.238138,20.7724,542.259,28.4169,0.0,0.0
2744,685.75,34.758,37.7186,151.443,104.576,4.41159,0.00253472,0.238794,20.7713,542.029,28.597,0.0,0.0
2758,689.25,35.4854,36.8342,153.751,104.615,4.46668,0.00242118,0.239014,20.7701,541.879,28.4882,0.0,0.0
2772,692.75,35.4609,37.394,152.677,104.664,4.4757,0.00257102,0.240424,20.7695,541.719,28.4742,0.0,0.0
2786,696.25,35.6151,37.3313,150.069,104.667,4.53364,0.00255024,0.240841,20.769,541.519,28.3583,0.0,0.0
2800,699.75,35.1134,37.8118,153.408,104.673,4.50989,0.00246747,0.242549,20.7668,541.369,28.4063,0.0,0.0
2814,703.25,35.4975,37.314,151.878,104.654,4.54361,0.0023268,0.243764,20.7648,541.178,28.3373,0.0,0.0
2828,706.75,35.4637,37.8612,152.5,104.594,4.50467,0.00225088,0.243913,20.7632,540.988,28.4099,0.0,0.0
2842,710.25,35.8014,37.9548,151.513,104.529,4.52889,0.00232694,0.244733,20.7622,540.778,28.3559,0.0,0.0
2856,713.75,36.0483,37.4546,152.258,104.438,4.50515,0.00221953,0.243749,20.7632,540.618,28.3954,0.0,0.0
2870,717.25,36,37.4766,149.877,104.339,4.52984,0.00204916,0.244109,20.7638,540.438,28.3376,0.0,0.0
2884,720.75,35.8907,37.7827,155.917,104.222,4.50277,0.00186557,0.245811,20.7623,540.258,28.3816,0.0,0.0
2898,724.25,35.7853,37.8805,152.942,104.101,4.45243,0.00182153,0.245905,20.7624,540.077,28.4726,0.0,0.0
2912,727.75,35.9817,37.8287,151.956,103.965,4.48567,0.0018861,0.245928,20.7627,539.867,28.3936,0.0,0.0
2926,731.25,35.6842,38.2081,152.639,103.843,4.47903,0.00209709,0.246174,20.7639,539.687,28.3964,0.0,0.0
2940,734.75,36.0684,38.0884,153.389,103.699,4.49612,0.00224909,0.245604,20.7638,539.527,28.3494,0.0,0.0
2954,738.25,35.4556,38.5247,155.081,103.589,4.47285,0.00207625,0.246188,20.7635,539.347,28.3867,0.0,0.0
2968,741.75,36.232,38.4309,152.903,103.487,4.51037,0.00189472,0.246177,20.7634,539.137,28.3024,0.0,0.0
2982,745.25,36.0622,38.5329,152.368,103.426,4.49042,0.00201101,0.248185,20.7623,538.966,28.3371,0.0,0.0
2996,748.75,36.3166,38.0974,159.478,103.364,4.49327,0.00185182,0.248364,20.762,538.756,28.3259,0.0,0.0
3010,752.25,35.7736,38.5867,154.898,103.334,4.44009,0.00177087,0.247498,20.7607,538.556,28.4309,0.0,0.0
3024,755.75,36.4359,38.3613,154.526,103.38,4.49185,0.00184154,0.248777,20.759,538.366,28.3302,0.0,0.0
3038,759.25,36.0285,38.1829,149.34,103.429,4.50752,0.00198335,0.24971,20.7569,538.206,28.3031,0.0,0.0
3052,762.75,36.5711,38.2604,153.83,103.544,4.55358,0.00209294,0.251077,20.756,538.036,28.2212,0.0,0.0
3066,766.25,36.1274,38.5756,151.335,103.671,4.50704,0.00202846,0.250223,20.7558,537.815,28.3251,0.0,0.0
3080,769.75,36.7134,38.3518,150.778,103.849,4.49137,0.00222384,0.251085,20.7558,537.615,28.3721,0.0,0.0
3094,773.25,36.252,38.7418,154.966,104.044,4.54029,0.00228476,0.251258,20.7558,537.465,28.2911,0.0,0.0
3108,776.75,36.6848,38.7947,149.737,104.263,4.5626,0.00235496,0.253077,20.755,537.255,28.2658,0.0,0.0
3122,780.25,36.7199,38.6194,152.629,104.5,4.52794,0.00236607,0.252498,20.755,537.085,28.3553,0.0,0.0
3136,783.75,36.963,39.2484,154.57,104.717,4.54931,0.00222087,0.25464,20.7532,536.865,28.3314,0.0,0.0
3150,787.25,36.6183,38.7418,148.443,104.918,4.53601,0.00205855,0.256307,20.7503,536.684,28.3752,0.0,0.0
3164,790.75,36.9761,38.7215,152.126,105.072,4.59015,0.00190703,0.25747,20.7485,536.484,28.2813,0.0,0.0
3178,794.25,36.8585,38.9547,153.086,105.208,4.57733,0.00166028,0.258036,20.7477,536.264,28.3182,0.0,0.0
3192,797.75,37.0257,39.0932,155.294,105.279,4.5797,0.00181747,0.259282,20.7465,536.084,28.3196,0.0,0.0
3206,801.25,36.824,38.7905,149.708,105.321,4.60819,0.00192294,0.26024,20.7467,535.854,28.2672,0.0,0.0
3220,804.75,37.233,38.975,150.568,105.311,4.5968,0.00193787,0.259132,20.7467,535.694,28.2887,0.0,0.0
3234,808.25,37.1808,39.0914,150.028,105.261,4.58302,0.00196493,0.260999,20.7453,535.483,28.3115,0.0,0.0
3248,811.75,37.3837,39.1404,156.209,105.161,4.63479,0.00191729,0.261854,20.7446,535.283,28.2016,0.0,0.0
3262,815.25,37.1721,39.4646,153.196,105.063,4.56545,0.00186683,0.262504,20.7444,535.063,28.3293,0.0,0.0
3276,818.75,36.9281,39.8742,151.18,104.913,4.53269,0.00173307,0.264497,20.7414,534.873,28.3814,0.0,0.0
3290,822.25,37.2684,39.3114,154.199,104.758,4.56593,0.00176536,0.264556,20.7411,534.673,28.3021,0.0,0.0
3304,825.75,37.0895,39.5476,156.082,104.618,4.56593,0.00181079,0.264492,20.742,534.502,28.2899,0.0,0.0
3318,829.25,37.5858,39.6643,154.073,104.485,4.55216,0.00198017,0.264382,20.7412,534.272,28.3057,0.0,0.0
3332,832.75,37.7809,39.2029,156.143,104.462,4.56355,0.00206817,0.265403,20.7409,534.062,28.2812,0.0,0.0
3346,836.25,37.3455,40.0594,152.137,104.693,4.57258,0.00186804,0.266021,20.7409,533.872,28.2833,0.0,0.0
3360,839.75,37.4445,39.7156,150.394,104.85,4.5873,0.00193507,0.267898,20.7386,533.642,28.2678,0.0,0.0
3374,843.25,37.6246,39.7119,151.178,104.922,4.62006,0.00198607,0.270231,20.7347,533.461,28.2097,0.0,0.0
3388,846.75,37.7623,39.7764,150.855,104.917,4.58445,0.00194898,0.270969,20.734,533.221,28.2792,0.0,0.0
3402,850.25,37.8289,40.1007,149.827,104.832,4.61389,0.00186844,0.271757,20.7339,533.041,28.214,0.0,0.0
3416,853.75,37.8949,40.481,151.356,104.655,4.55263,0.00167454,0.271381,20.735,532.801,28.3195,0.0,0.0
3430,857.25,38.2741,40.0936,153.124,104.406,4.56925,0.00168263,0.272627,20.7323,532.631,28.2651,0.0,0.0
3444,860.75,38.2626,40.319,154.194,104.05,4.52604,0.00181448,0.273906,20.7314,532.411,28.32,0.0,0.0
3458,864.25,38.0299,40.5203,149.763,104.066,4.57115,0.00179504,0.272959,20.7315,532.2,28.2318,0.0,0.0
3472,867.75,36.4533,41.3447,144.534,104.145,4.52984,0.00180659,0.274075,20.7298,531.98,28.3207,0.0,0.0
3486,871.25,38.1886,40.3033,149.682,104.248,4.54693,0.00191699,0.274384,20.7263,531.76,28.2956,0.0,0.0
3500,874.75,38.7842,40.4002,149.135,104.349,4.54883,0.00214668,0.277637,20.7231,531.56,28.3006,0.0,0.0
3514,878.25,38.5652,40.42,150.657,104.488,4.54978,0.00220166,0.280732,20.7175,531.34,28.3107,0.0,0.0
3528,881.75,38.5449,40.9299,151.875,104.587,4.54598,0.00242,0.284205,20.713,531.099,28.3268,0.0,0.0
3542,885.25,39.2231,40.56,148.62,104.649,4.55406,0.00274816,0.287284,20.7081,530.899,28.3161,0.0,0.0
3556,888.75,39.1765,41.1465,146.591,104.655,4.56735,0.00279317,0.289288,20.7052,530.679,28.2903,0.0,0.0
3570,892.25,38.6275,41.523,151.192,104.61,4.56023,0.00262608,0.287674,20.7082,530.449,28.3006,0.0,0.0
3584,895.75,38.893,41.0225,147.655,104.526,4.57448,0.00267607,0.285327,20.7126,530.208,28.2651,0.0,0.0
3598,899.25,39.2176,41.4866,152.294,104.382,4.52366,0.00267405,0.28563,20.7142,530.018,28.3536,0.0,0.0
3612,902.75,39.3704,41.4888,147.38,104.214,4.59347,0.00258117,0.287629,20.7107,529.758,28.2007,0.0,0.0
3626,906.25,38.6861,41.9252,151.585,104.018,4.53554,0.00260796,0.287114,20.7095,529.568,28.2983,0.0,0.0
3640,909.75,39.5025,41.3751,152.181,103.836,4.54029,0.00269629,0.287341,20.7093,529.328,28.2731,0.0,0.0
3654,913.25,39.4745,41.5452,151.034,103.654,4.56403,0.00252357,0.286737,20.709,529.118,28.2101,0.0,0.0
3668,916.75,39.3108,41.8073,147.592,103.505,4.53269,0.00245392,0.287381,20.7087,528.917,28.2593,0.0,0.0
3682,920.25,39.5696,41.8901,152.931,103.385,4.53126,0.00261636,0.290215,20.7069,528.647,28.2517,0.0,0.0
3696,923.75,39.8168,41.6383,152.4,103.328,4.53459,0.00267233,0.28896,20.7064,528.427,28.2401,0.0,0.0
3710,927.25,39.9863,41.9102,155.063,103.316,4.54409,0.00246014,0.287829,20.7077,528.237,28.2201,0.0,0.0
3724,930.75,39.5471,42.0742,151.462,103.37,4.55263,0.00208646,0.287811,20.7094,527.997,28.2079,0.0,0.0
3738,934.25,39.6406,41.9309,150.82,103.48,4.56213,0.00217777,0.286667,20.711,527.786,28.1987,0.0,0.0
3752,937.75,39.701,41.8694,149.917,103.633,4.54693,0.00241516,0.286823,20.7099,527.536,28.2422,0.0,0.0
3766,941.25,39.8596,41.9756,151.039,103.832,4.19505,0.00260307,0.287536,20.7098,527.346,28.9872,0.0,0.0
3780,944.75,39.5357,42.371,153.951,104.007,3.72777,0.00258736,0.284782,20.7108,527.126,30.0691,0.0,0.0
3794,948.25,39.696,42.0133,146.137,104.232,3.76671,0.00273867,0.284977,20.7098,526.906,29.9948,0.0,0.0
3808,951.75,39.8057,42.2938,153.686,104.453,3.74107,0.00264593,0.287214,20.7069,526.685,30.0756,0.0,0.0
3822,955.25,40.0303,41.905,147.752,104.687,3.78191,0.00263914,0.286598,20.7079,526.475,29.9978,0.0,0.0
3836,958.75,40.2561,41.94,154.96,104.867,3.74487,0.00268177,0.287008,20.7082,526.245,30.1022,0.0,0.0
3850,962.25,39.8101,42.2818,156.206,105.036,3.78856,0.00261405,0.284396,20.7113,526.025,30.012,0.0,0.0
3864,965.75,39.525,42.2708,148.413,105.166,3.76814,0.00250568,0.282059,20.7146,525.805,30.0719,0.0,0.0
3878,969.25,39.8663,42.125,152.702,105.269,3.75199,0.00268399,0.281977,20.7155,525.614,30.1196,0.0,0.0
3892,972.75,39.259,42.0842,147.544,105.318,3.81468,0.00276268,0.282274,20.7145,525.394,29.9741,0.0,0.0
3906,976.25,39.916,42.8514,150.288,105.312,3.81847,0.0026531,0.283539,20.7137,525.184,29.9646,0.0,0.0
3920,979.75,39.3888,42.7241,148.271,105.292,3.80328,0.00244504,0.282191,20.7135,524.924,29.9989,0.0,0.0
3934,983.25,39.7642,42.236,150.246,105.213,3.76624,0.00241094,0.28079,20.7153,524.764,30.0805,0.0,0.0
3948,986.75,40.1088,41.9358,147.963,105.132,3.78476,0.00238552,0.279895,20.7162,524.553,30.0293,0.0,0.0
3962,990.25,39.6692,42.1754,150.217,104.998,3.82845,0.00240536,0.278431,20.7182,524.323,29.9141,0.0,0.0
3976,993.75,40.3618,41.76,152.156,104.879,3.8123,0.00246931,0.277544,20.7186,524.143,29.942,0.0,0.0
3990,997.25,39.4102,42.4972,152.415,104.757,3.75389,0.00267175,0.277373,20.7192,523.923,30.0709,0.0,0.0
4004,1000.75,39.6172,41.9658,152.092,104.623,3.69121,0.0027108,0.278164,20.7195,523.723,30.2115,0.0,0.0
4018,1004.25,39.5703,42.0068,147.538,104.527,3.77194,0.00269457,0.275773,20.7209,523.503,30.0078,0.0,0.0
4032,1007.75,39.7457,42.1744,150.93,104.436,3.7368,0.00272885,0.272785,20.7238,523.312,30.0845,0.0,0.0
4046,1011.25,39.6947,41.9583,150.162,104.591,3.74344,0.00284789,0.271329,20.7254,523.132,30.0818,0.0,0.0
4060,1014.75,39.5058,41.8011,156.064,104.737,3.75722,0.00272212,0.269682,20.7283,522.892,30.0613,0.0,0.0
4074,1018.25,39.2543,41.9339,154.554,104.874,3.76861,0.00253346,0.268108,20.7297,522.702,30.0457,0.0,0.0
4088,1021.75,39.0906,41.7215,151.22,104.93,3.74819,0.00278585,0.268178,20.73,522.512,30.0996,0.0,0.0
4102,1025.25,39.638,40.967,151.403,104.965,3.72113,0.00294096,0.266897,20.7317,522.331,30.1681,0.0,0.0
4116,1028.75,39.0728,41.7723,152.437,104.921,3.76434,0.00319617,0.267362,20.7315,522.121,30.06,0.0,0.0
4130,1032.25,39.7859,41.0239,153.876,104.819,3.71448,0.00348932,0.26766,20.7303,521.921,30.1716,0.0,0.0
4144,1035.75,39.454,40.9843,149.453,104.653,3.75722,0.00362561,0.267283,20.7316,521.751,30.054,0.0,0.0
4158,1039.25,38.711,41.7507,151.347,104.44,3.68693,0.00364662,0.266743,20.7307,521.561,30.2062,0.0,0.0
4172,1042.75,38.6968,41.2439,148.692,104.184,3.79995,0.00376893,0.266407,20.7304,521.341,29.9113,0.0,0.0
4186,1046.25,38.795,41.2748,150.059,104.045,3.66746,0.00405078,0.265392,20.7316,521.18,30.2197,0.0,0.0
4200,1049.75,39.1697,40.9476,152.289,104.108,3.65132,0.0043412,0.265081,20.7319,520.99,30.2651,0.0,0.0
4214,1053.25,38.5905,41.105,150.724,104.17,3.74487,0.00449742,0.264367,20.7326,520.78,30.042,0.0,0.0
4228,1056.75,38.288,41.0741,154.193,104.256,3.69928,0.00446663,0.262347,20.7348,520.57,30.1601,0.0,0.0
4242,1060.25,38.7091,40.4728,156.024,104.338,3.74487,0.00431188,0.261133,20.7376,520.4,30.0565,0.0,0.0
4256,1063.75,38.4706,40.2315,147.579,104.409,3.70735,0.00443608,0.260354,20.7397,520.23,30.1536,0.0,0.0
4270,1067.25,38.4343,40.6556,153.748,104.498,3.75437,0.00439419,0.258942,20.741,520.039,30.0475,0.0,0.0
4284,1070.75,38.1843,40.7131,150.955,104.554,3.65987,0.00420079,0.257624,20.7423,519.839,30.2826,0.0,0.0
4298,1074.25,38.5529,40.1186,148.434,104.624,3.69881,0.00408708,0.25656,20.7432,519.679,30.193,0.0,0.0
4312,1077.75,38.1412,40.4944,149.862,104.64,3.73917,0.00428006,0.257555,20.7432,519.489,30.0964,0.0,0.0
4326,1081.25,37.3349,41.1974,153.654,104.632,3.75769,0.0042966,0.256385,20.7445,519.289,30.0511,0.0,0.0
4340,1084.75,37.884,40.6921,153.192,104.587,3.72682,0.00439412,0.254221,20.7453,519.149,30.1217,0.0,0.0
4354,1088.25,37.9264,40.2517,153.006,104.521,3.69168,0.00454354,0.254326,20.7455,518.958,30.2016,0.0,0.0
4368,1091.75,38.1374,40.1538,151.742,104.419,3.73632,0.00454002,0.254387,20.7463,518.768,30.0842,0.0,0.0
4382,1095.25,37.6416,40.3773,152.451,104.323,3.68883,0.00430007,0.252476,20.7487,518.608,30.1914,0.0,0.0
4396,1098.75,37.9277,39.8773,156.8,104.188,3.75389,0.00452501,0.251459,20.7491,518.438,30.0218,0.0,0.0
4410,1102.25,38.1553,39.5531,149.566,104.018,3.70735,0.00432223,0.250189,20.7503,518.238,30.1197,0.0,0.0
4424,1105.75,37.5755,40.1086,156.221,103.868,3.73917,0.00414484,0.247953,20.7523,518.098,30.0295,0.0,0.0
4438,1109.25,37.3785,39.6987,151.11,103.729,3.75342,0.0042157,0.246082,20.7547,517.907,29.983,0.0,0.0
4452,1112.75,37.3678,39.8313,154.553,103.564,3.65512,0.00411516,0.24497,20.7556,517.777,30.2084,0.0,0.0
4466,1116.25,37.8473,39.2798,149.014,103.442,3.68314,0.00417193,0.244167,20.7583,517.577,30.1288,0.0,0.0
4480,1119.75,37.3108,39.6074,153.198,103.349,3.67791,0.00431722,0.241748,20.7614,517.437,30.1335,0.0,0.0
4494,1123.25,37.578,39.4343,149.505,103.296,3.68931,0.00418779,0.241152,20.7636,517.267,30.1009,0.0,0.0
4508,1126.75,36.972,39.5035,154.173,103.28,3.7197,0.003937,0.239861,20.7649,517.127,30.0254,0.0,0.0
4522,1130.25,37.0332,39.3678,158.113,103.294,3.68551,0.00403669,0.238025,20.7665,516.967,30.11,0.0,0.0
4536,1133.75,37.5141,38.7024,155.425,103.36,3.66794,0.00425478,0.235039,20.7692,516.796,30.1589,0.0,0.0
4550,1137.25,36.4546,39.39,152.9,103.445,3.7235,0.00456201,0.234707,20.7701,516.626,30.0306,0.0,0.0
4564,1140.75,36.7883,38.7982,151.957,103.589,3.72207,0.00467366,0.236341,20.7687,516.506,30.0465,0.0,0.0
4578,1144.25,36.6981,39.017,153.65,103.733,3.67696,0.00469536,0.235445,20.7692,516.326,30.1693,0.0,0.0
4592,1147.75,36.547,38.8617,152.974,103.916,3.68693,0.00480935,0.233068,20.7718,516.196,30.1608,0.0,0.0
4606,1151.25,36.4781,38.5034,152.793,104.108,3.69073,0.00478639,0.231052,20.7745,516.026,30.1681,0.0,0.0
4620,1154.75,36.6828,38.6615,151.415,104.289,3.70735,0.0046238,0.230576,20.776,515.906,30.1432,0.0,0.0
4634,1158.25,36.0967,38.66,153.239,104.469,3.78191,0.00440209,0.229669,20.7763,515.766,29.9789,0.0,0.0
4648,1161.75,36.5309,38.4368,155.7,104.624,3.75294,0.00425773,0.228765,20.7764,515.595,30.0618,0.0,0.0
4662,1165.25,36.1397,38.2851,156.176,104.794,3.72113,0.0043109,0.227888,20.7764,515.455,30.1533,0.0,0.0
4676,1168.75,35.8869,38.3806,154.046,104.93,3.68456,0.00464772,0.226959,20.7773,515.315,30.2543,0.0,0.0
4690,1172.25,35.8477,37.9889,152.087,105.075,3.74392,0.00484393,0.225648,20.7804,515.155,30.1224,0.0,0.0
4704,1175.75,35.5574,37.8517,152.83,105.158,3.75484,0.00500817,0.224146,20.7835,515.045,30.1032,0.0,0.0
4718,1179.25,35.9371,37.6484,152.452,105.234,3.7159,0.00521101,0.223843,20.7842,514.895,30.2039,0.0,0.0
4732,1182.75,35.8601,37.3041,156.474,105.285,3.70783,0.00518891,0.224278,20.7843,514.745,30.228,0.0,0.0
4746,1186.25,35.6721,37.4495,153.345,105.326,3.77384,0.00501037,0.223799,20.7844,514.615,30.0721,0.0,0.0
4760,1189.75,35.6028,37.567,152.33,105.338,3.77479,0.00502227,0.223693,20.7844,514.464,30.0708,0.0,0.0
4774,1193.25,35.4247,37.4266,158.534,105.304,3.69358,0.00482573,0.222877,20.7855,514.354,30.2643,0.0,0.0
4788,1196.75,35.1672,37.3979,158.205,105.283,3.7178,0.00489045,0.221398,20.7879,514.194,30.2035,0.0,0.0
4802,1200.25,35.3225,36.9644,156.596,105.222,3.76671,0.00519388,0.221057,20.7885,514.084,30.0802,0.0,0.0
4816,1203.75,35.1145,37.2917,160.193,105.155,3.68978,0.00509494,0.22118,20.7886,513.924,30.2608,0.0,0.0
4830,1207.25,35.5363,36.495,149.733,105.07,3.77146,0.00504268,0.220841,20.7886,513.784,30.0558,0.0,0.0
4844,1210.75,35.1406,36.9592,154.268,104.993,3.75247,0.00491693,0.219565,20.7901,513.654,30.0948,0.0,0.0
4858,1214.25,34.7325,37.3707,157.132,104.913,3.69168,0.00481958,0.219554,20.7903,513.544,30.2354,0.0,0.0
4872,1217.75,34.9279,36.9501,160.581,104.831,3.68741,0.00495594,0.219645,20.7907,513.383,30.2388,0.0,0.0
4886,1221.25,35.2414,36.6982,155.393,104.745,3.68931,0.00517168,0.21823,20.7914,513.263,30.2267,0.0,0.0
4900,1224.75,35.0692,36.9103,156.573,104.659,3.68598,0.00535105,0.218537,20.7916,513.123,30.2274,0.0,0.0
4914,1228.25,35.1488,36.389,154.078,104.575,3.71685,0.00547959,0.217513,20.7916,513.003,30.1448,0.0,0.0
4928,1231.75,34.8477,36.631,153.355,104.489,3.69406,0.00543525,0.21685,20.7924,512.863,30.1929,0.0,0.0
4942,1235.25,34.8556,35.9539,155.139,104.449,3.7197,0.00551875,0.215918,20.7932,512.733,30.127,0.0,0.0
4956,1238.75,34.7492,36.6761,153.051,104.495,3.70925,0.00576059,0.216286,20.791,512.613,30.1564,0.0,0.0
4970,1242.25,35.0911,35.6852,159.047,104.658,3.67886,0.00587035,0.215956,20.7908,512.483,30.2448,0.0,0.0
4984,1245.75,34.1235,36.4074,154.864,104.748,3.72255,0.00583061,0.214296,20.7926,512.342,30.1459,0.0,0.0
4998,1249.25,34.675,36.2851,156.603,104.855,3.69786,0.00606147,0.213901,20.7931,512.232,30.2153,0.0,0.0
5012,1252.75,34.505,36.1004,154.56,104.907,3.70593,0.00599929,0.214622,20.7916,512.132,30.2,0.0,0.0
5026,1256.25,34.6037,35.8654,154.646,104.95,3.69406,0.00616093,0.213484,20.7928,511.982,30.2328,0.0,0.0
5040,1259.75,34.2651,35.9596,152.43,104.967,3.64515,0.00641866,0.212522,20.7943,511.832,30.3546,0.0,0.0
5054,1263.25,34.0508,36.2422,151.073,104.957,3.72587,0.00649182,0.212551,20.7954,511.712,30.1559,0.0,0.0
5068,1266.75,34.2939,35.3554,156.782,104.936,3.70355,0.00666196,0.212006,20.7956,511.602,30.2083,0.0,0.0
5082,1270.25,34.4417,35.8606,159.75,104.875,3.69311,0.0068032,0.210336,20.7971,511.472,30.2286,0.0,0.0
5096,1273.75,33.4996,36.205,154.056,104.783,3.68171,0.00699923,0.209896,20.7977,511.372,30.2486,0.0,0.0
5110,1277.25,34.1763,35.7034,150.455,104.659,3.66462,0.00720066,0.209581,20.7985,511.221,30.2799,0.0,0.0
5124,1280.75,33.4538,36.0771,156.44,104.531,3.7368,0.00695586,0.209088,20.7994,511.101,30.0927,0.0,0.0
5138,1284.25,33.9827,35.1328,155.379,104.335,3.66936,0.00676453,0.208475,20.7997,510.991,30.2402,0.0,0.0
5152,1287.75,34.4944,35.246,155.031,104.157,3.71068,0.00686525,0.207364,20.8006,510.891,30.1237,0.0,0.0
5166,1291.25,33.9865,35.1726,156.152,104.068,3.66462,0.00736507,0.207262,20.8008,510.771,30.2288,0.0,0.0
5180,1294.75,34.0207,35.4388,156.379,104.079,3.66746,0.00792718,0.206036,20.8025,510.631,30.2227,0.0,0.0
5194,1298.25,33.1245,35.8221,150.713,104.104,3.65037,0.00798023,0.205309,20.8039,510.531,30.2671,0.0,0.0
5208,1301.75,33.8248,34.8914,151.854,104.151,3.62995,0.00786313,0.204734,20.8037,510.401,30.3219,0.0,0.0
5222,1305.25,32.9906,35.4341,156.032,104.211,3.60858,0.00780709,0.203753,20.8058,510.301,30.3804,0.0,0.0
5236,1308.75,33.3363,34.8211,154.233,104.258,3.65179,0.00776146,0.20348,20.8071,510.18,30.277,0.0,0.0
5250,1312.25,32.4762,35.8217,157.949,104.302,3.65844,0.00777607,0.202139,20.8087,510.07,30.2643,0.0,0.0
5264,1315.75,33.1789,35.0293,156.634,104.349,3.6442,0.00764095,0.20126,20.8095,509.96,30.3036,0.0,0.0
5278,1319.25,33.5272,34.8441,158.822,104.406,3.65417,0.00750087,0.200515,20.8103,509.83,30.2839,0.0,0.0
5292,1322.75,33.0472,34.3782,153.058,104.449,3.6309,0.00758979,0.198987,20.8105,509.74,30.3453,0.0,0.0
5306,1326.25,32.8121,34.7499,158.032,104.509,3.67316,0.00756841,0.197751,20.812,509.64,30.246,0.0,0.0
5320,1329.75,32.579,34.5727,153.593,104.549,3.7178,0.00764109,0.197539,20.8127,509.51,30.1403,0.0,0.0
5334,1333.25,32.257,34.8264,156.702,104.57,3.64657,0.00729681,0.197845,20.814,509.39,30.3168,0.0,0.0
5348,1336.75,32.4671,34.3382,160.171,104.61,3.64277,0.00718056,0.197033,20.8154,509.3,30.3297,0.0,0.0
5362,1340.25,32.6334,34.3094,156.769,104.609,3.67269,0.00751095,0.195921,20.8164,509.18,30.2558,0.0,0.0
5376,1343.75,32.468,34.1923,156.097,104.617,3.69691,0.00796532,0.194091,20.8182,509.049,30.1971,0.0,0.0
5390,1347.25,32.412,34.039,152.793,104.585,3.64467,0.00842649,0.193348,20.8189,508.969,30.3229,0.0,0.0
5404,1350.75,32.3167,34.0368,151.961,104.567,3.67126,0.00849854,0.192694,20.819,508.869,30.2557,0.0,0.0
5418,1354.25,32.5043,33.6291,156.305,104.526,3.62093,0.00847241,0.191639,20.8198,508.789,30.3768,0.0,0.0
5432,1357.75,32.0676,33.9723,154.273,104.493,3.66082,0.00861376,0.190573,20.8202,508.649,30.275,0.0,0.0
5446,1361.25,32.7302,33.2192,158.385,104.43,3.67791,0.00889771,0.188845,20.8222,508.589,30.2274,0.0,0.0
5460,1364.75,32.1618,33.2,154.724,104.366,3.67839,0.00886963,0.187928,20.8234,508.479,30.2207,0.0,0.0
5474,1368.25,32.0662,33.3399,151.763,104.294,3.66651,0.00863194,0.187639,20.8236,508.369,30.2437,0.0,0.0
5488,1371.75,31.8418,33.3782,157.115,104.212,3.69026,0.0083376,0.185494,20.8259,508.249,30.1783,0.0,0.0
5502,1375.25,31.058,34.0724,157.085,104.125,3.65464,0.00824254,0.185302,20.8267,508.179,30.2584,0.0,0.0
5516,1378.75,31.6757,33.1133,157.062,104.015,3.66034,0.00838368,0.183984,20.8284,508.099,30.2348,0.0,0.0
5530,1382.25,31.7543,32.6428,157.216,103.906,3.62995,0.0087643,0.183418,20.8289,507.978,30.3005,0.0,0.0
5544,1385.75,31.5151,32.7639,158.415,103.809,3.67174,0.00887598,0.183375,20.8291,507.868,30.1887,0.0,0.0
5558,1389.25,31.367,32.8726,158.924,103.74,3.60858,0.00884417,0.181737,20.8313,507.768,30.3395,0.0,0.0
5572,1392.75,31.4456,32.4575,152.952,103.675,3.65987,0.00889788,0.181911,20.832,507.718,30.2064,0.0,0.0
5586,1396.25,31.3125,32.8541,159.638,103.633,3.63755,0.00887283,0.181285,20.8321,507.628,30.2579,0.0,0.0
5600,1399.75,30.9903,32.5775,154.761,103.604,3.66272,0.00907963,0.181322,20.8322,507.538,30.1931,0.0,0.0
5614,1403.25,31.0566,32.2115,158.316,103.588,3.61475,0.00935523,0.18007,20.8323,507.428,30.3108,0.0,0.0
5628,1406.75,31.1187,32.4026,157.726,103.601,3.67886,0.00934401,0.17888,20.8339,507.348,30.1531,0.0,0.0
5642,1410.25,30.9769,32.0823,156.052,103.619,3.66129,0.0089589,0.178089,20.8353,507.338,30.1979,0.0,0.0
5656,1413.75,31.1646,31.9921,155.379,103.661,3.67031,0.00876606,0.17662,20.8377,507.198,30.1794,0.0,0.0
5670,1417.25,31.2142,31.9546,153.248,103.691,3.69928,0.00884987,0.176086,20.8389,507.128,30.111,0.0,0.0
5684,1420.75,30.5676,32.2499,156.034,103.751,3.66462,0.00879582,0.174346,20.8387,507.018,30.2012,0.0,0.0
5698,1424.25,31.0896,32.0282,155.696,103.828,3.67934,0.0086407,0.17231,20.8409,507.008,30.1717,0.0,0.0
5712,1427.75,30.521,32.0908,157.826,103.932,3.7235,0.00857941,0.171977,20.8424,506.918,30.073,0.0,0.0
5726,1431.25,31.0316,31.6926,154.073,104.032,3.65227,0.00885284,0.171618,20.8436,506.817,30.2562,0.0,0.0
5740,1434.75,30.6799,31.8246,156.404,104.162,3.68503,0.00940197,0.169569,20.8463,506.767,30.1867,0.0,0.0
5754,1438.25,30.5167,32.043,162.848,104.255,3.68266,0.00950647,0.168289,20.8481,506.697,30.2007,0.0,0.0
5768,1441.75,30.353,31.9275,153.219,104.367,3.7368,0.00956735,0.167601,20.8485,506.597,30.0785,0.0,0.0
5782,1445.25,30.4255,31.8213,152.995,104.463,3.71543,0.0100704,0.166807,20.8494,506.517,30.1387,0.0,0.0
5796,1448.75,30.63,31.5135,159.515,104.54,3.70308,0.0102665,0.16538,20.852,506.477,30.1754,0.0,0.0
5810,1452.25,30.2198,31.7344,154.758,104.587,3.72682,0.0104187,0.163448,20.854,506.407,30.1216,0.0,0.0
5824,1455.75,29.8693,31.3197,152.977,104.596,3.72397,0.0104591,0.161212,20.8565,506.357,30.1293,0.0,0.0
5838,1459.25,29.8241,31.1949,157.791,104.585,3.69501,0.0105925,0.157987,20.86,506.307,30.199,0.0,0.0
5852,1462.75,30.1631,31.4676,156.047,104.507,3.69263,0.0110818,0.154458,20.8656,506.257,30.198,0.0,0.0
5866,1466.25,29.6047,31.1578,156.429,104.411,3.69073,0.0116881,0.151816,20.8696,506.187,30.1944,0.0,0.0
5880,1469.75,29.7421,30.6789,157.804,104.309,3.7178,0.0121086,0.149308,20.8702,506.127,30.1195,0.0,0.0
5894,1473.25,29.2755,31.1551,158.988,104.216,3.69738,0.0124665,0.147102,20.8726,506.077,30.1612,0.0,0.0
5908,1476.75,29.3494,30.5467,155.545,104.116,3.70261,0.0130247,0.145567,20.8754,506.027,30.1398,0.0,0.0
5922,1480.25,29.1256,30.6178,155.119,104.054,3.67126,0.0132216,0.144826,20.8762,505.977,30.2112,0.0,0.0
5936,1483.75,29.0053,30.1292,157.124,104.258,3.69548,0.0132747,0.142035,20.8784,505.897,30.1695,0.0,0.0
5950,1487.25,28.7592,30.0127,157.748,104.588,3.75532,0.0136114,0.141281,20.8804,505.867,30.053,0.0,0.0
5964,1490.75,29.1218,29.7508,154.691,104.793,3.73917,0.0134846,0.139671,20.8833,505.797,30.1095,0.0,0.0
5978,1494.25,28.3566,30.0875,163.326,104.924,3.70403,0.0135746,0.137342,20.8858,505.756,30.2061,0.0,0.0
5992,1497.75,28.5237,29.3697,156.559,104.969,3.69026,0.0140317,0.134722,20.8902,505.706,30.2437,0.0,0.0
6006,1501.25,28.5524,29.4601,159.139,104.9,3.71448,0.0142378,0.133258,20.8907,505.706,30.1786,0.0,0.0
6020,1504.75,28.0109,29.4144,159.354,104.732,3.71685,0.0141188,0.132558,20.8916,505.636,30.1583,0.0,0.0
6034,1508.25,28.1453,29.085,159.496,104.441,3.68029,0.0140655,0.131541,20.8922,505.616,30.2226,0.0,0.0
6048,1511.75,27.7585,28.956,159.57,104.536,3.69073,0.0145253,0.130018,20.895,505.556,30.2052,0.0,0.0
6062,1515.25,27.1047,29.0003,160.147,104.705,3.73442,0.0146531,0.12831,20.8969,505.536,30.1135,0.0,0.0
6076,1518.75,27.4109,28.8062,159.949,104.91,3.69026,0.0145921,0.127274,20.8996,505.486,30.2386,0.0,0.0
6090,1522.25,26.5451,28.1216,161.036,105.086,3.75199,0.0145679,0.126617,20.9004,505.406,30.1039,0.0,0.0
6104,1525.75,26.1754,27.7675,159.236,105.241,3.68266,0.0148367,0.126596,20.9006,505.406,30.2857,0.0,0.0
6118,1529.25,26.0581,27.6806,158.125,105.304,3.68551,0.0147722,0.126277,20.9019,505.346,30.2841,0.0,0.0
6132,1532.75,26.3095,27.686,159.616,105.282,3.66984,0.0145007,0.126709,20.901,505.316,30.3207,0.0,0.0
6146,1536.25,26.2158,27.4267,160.333,105.173,3.67981,0.0144968,0.126838,20.9013,505.276,30.2868,0.0,0.0
6160,1539.75,25.8905,26.5936,160.382,104.926,3.66509,0.0148692,0.126998,20.9008,505.276,30.3018,0.0,0.0
6174,1543.25,26.092,26.7181,157.876,104.598,3.66414,0.0150861,0.126238,20.9007,505.216,30.2759,0.0,0.0
6188,1546.75,25.5747,26.6763,157.065,104.227,3.71115,0.0149556,0.125814,20.9016,505.206,30.1286,0.0,0.0
6202,1550.25,25.4274,26.8865,156.938,103.836,3.64989,0.0148988,0.125361,20.902,505.136,30.245,0.0,0.0
6216,1553.75,25.464,26.3514,159.717,103.505,3.65749,0.0150974,0.125431,20.9021,505.106,30.1973,0.0,0.0
6230,1557.25,24.7293,25.9932,160.265,103.314,3.61808,0.0150965,0.125499,20.9021,505.066,30.2785,0.0,0.0
6244,1560.75,24.8443,25.8573,157.228,103.282,3.6404,0.0149078,0.125172,20.9016,505.056,30.2202,0.0,0.0
6258,1564.25,24.7709,26.2385,157.836,103.425,3.61523,0.0146584,0.125057,20.9009,505.016,30.2954,0.0,0.0
6272,1567.75,24.8058,26.0847,156.113,103.68,3.63137,0.0143852,0.124378,20.9025,504.966,30.2774,0.0,0.0
6286,1571.25,24.7207,25.9725,156.45,103.998,3.63422,0.0144949,0.123915,20.9029,504.956,30.2979,0.0,0.0
6300,1574.75,25.168,25.9139,158.482,104.327,3.6404,0.0144809,0.124136,20.9019,504.926,30.3111,0.0,0.0
6314,1578.25,24.4978,25.7982,159.041,104.542,3.63375,0.0145593,0.124077,20.902,504.876,30.3463,0.0,0.0
6328,1581.75,24.673,25.697,158.129,104.637,3.66841,0.0147162,0.124216,20.9028,504.846,30.2687,0.0,0.0
6342,1585.25,24.3073,25.5713,157.609,104.551,3.6442,0.0147392,0.123987,20.9035,504.806,30.3211,0.0,0.0
6356,1588.75,24.7602,25.3114,158.978,104.359,3.65227,0.0144536,0.123844,20.9043,504.776,30.2845,0.0,0.0
6370,1592.25,24.2582,25.0709,159.293,104.17,3.61285,0.0145064,0.123885,20.9045,504.776,30.3661,0.0,0.0
6384,1595.75,24.9586,25.3906,157.556,104.036,3.59718,0.0147565,0.123819,20.9045,504.686,30.3937,0.0,0.0
6398,1599.25,24.013,24.9772,155.276,104.633,3.69168,0.0147334,0.123218,20.9045,504.665,30.2112,0.0,0.0
6412,1602.75,24.2792,25.2251,158.524,104.928,3.65607,0.0147421,0.122827,20.9059,504.615,30.3242,0.0,0.0
6426,1606.25,24.4688,25.3661,156.629,104.901,3.66651,0.0148741,0.123328,20.9062,504.645,30.2962,0.0,0.0
6440,1609.75,24.6749,25.3803,159.253,104.516,3.65844,0.0150675,0.123312,20.9049,504.565,30.2829,0.0,0.0
6454,1613.25,24.0733,25.0813,158.02,104.63,3.65369,0.0150935,0.123114,20.9046,504.535,30.3044,0.0,0.0
6468,1616.75,24.237,25.0877,156.426,104.938,3.68931,0.0148431,0.123127,20.9045,504.525,30.2433,0.0,0.0
6482,1620.25,24.7759,25.0221,161.518,105.229,3.6385,0.0148093,0.122612,20.9058,504.475,30.3936,0.0,0.0
6496,1623.75,23.7806,24.8009,163.128,105.322,3.66082,0.0147229,0.122621,20.9069,504.455,30.3463,0.0,0.0
6510,1627.25,23.6025,24.3057,161.034,105.186,3.67744,0.0147431,0.122718,20.9075,504.405,30.2938,0.0,0.0
6524,1630.75,23.9378,25.0168,157.431,104.792,3.66082,,0.12267,,504.395,30.3008,0.0,0.0
6538,1634.25,24.1639,25.2171,160.89,104.239,3.65607,,,,504.375,30.2647,0.0,0.0
6552,1637.75,23.7993,24.7243,157.653,103.701,3.6423,,,,504.335,30.2521,0.0,0.0
6565,1641,24.2175,24.8522,161.857,103.373,3.61998,,,,504.315,30.279,0.0,0.0