File: 01_Data/Pine_Siding/Cone/Pine_Siding_Cone_HF50Scan_221004_R3.csv
Names,Time,Stack TC,Smoke TC,Exh Press,Smoke Comp,Smoke Meas,CO Meter,CO2 Meter,O2 Meter,Sample Mass,Ext Coeff,Start Test,Flame Verif
Chan Gain,,500,500,1,1,1,1,1,1,1,1,1.0,1.0
Offset,,0,0,0.13918,0,0,0,0,0,0,0,0.0,0.0
Gain,,1,1,25.011,14.0162,15.5607,1,1,1,1.0009,1.02981,1.0,1.0
Units,sec,C,C,Pa,%,%,%,%,%,g,/m,,
Baseline,,33.9236,35.0386,155.368,103.703,3.48137,0.000425024,0.0839442,20.9604,-2.56603,30.6606,,
8,1.75,31.8364,32.7933,154.795,105.365,3.56204,0.000638072,0.0919058,20.9514,553.309,30.5971,0.0,0.0
16,3.75,32.0199,33.5289,156.749,105.385,3.5478,0.000570061,0.0906764,20.9528,553.249,30.6351,0.0,0.0
24,5.75,31.9527,33.3628,156.435,105.381,3.52073,0.000570355,0.0895142,20.9537,553.199,30.7039,0.0,0.0
32,7.75,31.8613,33.0509,158.875,105.402,3.50886,0.000760731,0.0887241,20.9529,553.179,30.7362,0.0,0.0
40,9.75,32.3179,33.1258,154.124,105.371,3.46612,0.00123929,0.0965555,20.9371,553.089,30.8443,0.0,1.0
48,11.75,32.7536,33.8057,139.271,105.369,3.6347,0.00194968,0.15616,20.8702,552.839,30.4151,0.0,1.0
56,13.75,34.858,34.9089,127.22,105.334,3.76861,0.00279945,0.269077,20.7359,552.469,30.0852,0.0,1.0
64,15.75,36.7963,36.2925,129.579,105.301,3.8351,0.003915,0.395578,20.5625,552.118,29.9244,0.0,0.0
72,17.75,39.1208,38.5747,131.765,105.267,3.78998,0.00498506,0.511103,20.4226,551.778,30.0284,0.0,0.0
80,19.75,42.224,41.3237,134.382,105.213,3.68551,0.00579424,0.58577,20.3426,551.408,30.2763,0.0,0.0
88,21.75,44.4824,43.1705,135.369,105.171,3.68029,0.00627427,0.616123,20.3105,551.077,30.2855,0.0,0.0
96,23.75,45.884,44.7934,128.698,105.11,3.69311,0.00652009,0.611146,20.3164,550.737,30.2488,0.0,0.0
104,25.75,46.863,46.9312,132.957,105.068,3.60716,0.00645277,0.587184,20.3415,550.447,30.4579,0.0,0.0
112,27.75,48.0548,48.3687,138.371,105.002,3.71163,0.00611383,0.557568,20.3821,550.167,30.1943,0.0,0.0
120,29.75,48.8836,49.2107,140.757,104.934,3.67316,0.00573529,0.525651,20.4235,549.876,30.2826,0.0,0.0
128,31.75,50.049,50.5221,138.171,104.872,3.70498,0.00539029,0.496676,20.4571,549.636,30.1993,0.0,0.0
136,33.75,50.6599,51.4476,137.954,104.795,3.59386,0.00508553,0.471358,20.4879,549.446,30.4678,0.0,0.0
144,35.75,51.1126,51.6209,138.095,104.731,3.75864,0.00483903,0.450885,20.5119,549.176,30.0573,0.0,0.0
152,37.75,51.4103,52.2287,141.642,104.669,3.67079,0.00444581,0.435022,20.5307,548.945,30.2656,0.0,0.0
160,39.75,51.9426,52.8493,140.372,104.611,3.68883,0.00409766,0.422545,20.5451,548.735,30.2163,0.0,0.0
168,41.75,52.2589,53.1816,141.634,104.556,3.69026,0.00383954,0.412387,20.5598,548.505,30.208,0.0,0.0
176,43.75,52.4657,54.1599,141.888,104.501,3.66557,0.00363407,0.403844,20.5725,548.315,30.264,0.0,0.0
184,45.75,52.6305,54.3422,145.44,104.465,3.66794,0.00341727,0.396208,20.5833,548.105,30.255,0.0,0.0
192,47.75,53.0048,55.0509,144.397,104.548,3.70023,0.00328169,0.38875,20.5932,547.914,30.183,0.0,0.0
200,49.75,52.7683,54.9209,143.898,104.648,3.70023,0.00314852,0.380249,20.6044,547.694,30.1916,0.0,0.0
208,51.75,53.2399,55.3433,145.736,104.731,3.68978,0.00296088,0.370639,20.6165,547.464,30.2243,0.0,0.0
216,53.75,53.4386,55.2823,141.229,104.804,3.77146,0.00282556,0.364292,20.6231,547.324,30.0328,0.0,0.0
224,55.75,53.6411,55.4654,147.089,104.862,3.77289,0.00277396,0.359763,20.6286,547.114,30.0345,0.0,0.0
232,57.75,53.2867,55.9427,144.245,104.904,3.73205,0.0026944,0.355116,20.6342,546.944,30.1364,0.0,0.0
240,59.75,53.5031,55.9569,143.778,104.96,3.79521,0.00263498,0.351869,20.6376,546.713,29.9896,0.0,0.0
248,61.75,53.7813,56.4499,144.031,104.936,3.75674,0.00265287,0.348282,20.6413,546.573,30.0795,0.0,0.0
256,63.75,53.7028,56.8635,141.715,104.923,3.76244,0.00271488,0.342303,20.6493,546.383,30.0647,0.0,0.0
264,65.75,53.1741,56.234,144.38,104.912,3.78428,0.00269743,0.336857,20.6556,546.203,30.0114,0.0,0.0
272,67.75,53.333,56.3646,147.179,104.88,3.73775,0.00258378,0.333066,20.6612,546.013,30.1205,0.0,0.0
280,69.75,53.268,56.2821,142.138,104.811,3.75389,0.00246213,0.330293,20.6649,545.883,30.0756,0.0,0.0
288,71.75,53.5843,56.6421,144.144,104.736,3.72397,0.00241808,0.327252,20.6698,545.672,30.1415,0.0,0.0
296,73.75,53.4032,56.7942,137.249,104.647,3.76576,0.00241846,0.324054,20.6733,545.512,30.0329,0.0,0.0
304,75.75,53.3401,56.799,139.804,104.553,3.73205,0.00236244,0.32037,20.6782,545.332,30.1061,0.0,0.0
312,77.75,53.1003,56.6258,143.949,104.432,3.78761,0.00228561,0.316908,20.6814,545.172,29.9621,0.0,0.0
320,79.75,53.3087,56.8619,144.075,104.298,3.733,0.00221531,0.314815,20.6847,545.002,30.0817,0.0,0.0
328,81.75,53.2991,56.9363,140.586,104.184,3.77384,0.00216208,0.313215,20.6858,544.862,29.9736,0.0,0.0
336,83.75,53.0636,56.5923,143.253,104.081,3.73442,0.00211432,0.311137,20.6883,544.712,30.0595,0.0,0.0
344,85.75,52.935,56.6628,141.86,104.113,3.83747,0.00210873,0.309264,20.6904,544.501,29.8163,0.0,0.0
352,87.75,52.8016,56.6711,145.302,104.139,3.78903,0.00214226,0.306077,20.6937,544.381,29.9334,0.0,0.0
360,89.75,52.6306,56.8467,140.796,104.183,3.74439,0.00217519,0.303106,20.6985,544.231,30.0442,0.0,0.0
368,91.75,52.431,56.8581,148.657,104.223,3.86691,0.00218068,0.300581,20.7019,544.041,29.7569,0.0,0.0
376,93.75,52.8298,56.7376,149.14,104.274,3.80803,0.00215415,0.298061,20.7041,543.851,29.8999,0.0,0.0
384,95.75,52.2128,56.2118,143.262,104.325,3.75864,0.00215976,0.29511,20.7072,543.711,30.0222,0.0,0.0
392,97.75,52.5164,56.5368,145.051,104.398,3.8237,0.00219889,0.292337,20.7108,543.561,29.8735,0.0,0.0
400,99.75,51.9774,56.7504,141.756,104.473,3.81373,0.0021496,0.289969,20.7136,543.43,29.9036,0.0,0.0
408,101.75,52.388,56.5133,147.179,104.544,3.75627,0.00196033,0.287938,20.7165,543.25,30.0469,0.0,0.0
416,103.75,52.2158,56.4255,146.546,104.604,3.85314,0.00175122,0.285663,20.7198,543.13,29.8221,0.0,0.0
424,105.75,51.9363,56.5695,142.743,104.646,3.78428,0.00167487,0.283345,20.7218,542.96,29.9885,0.0,0.0
432,107.75,52.2779,56.3519,145.07,104.694,3.77099,0.00170604,0.281107,20.724,542.82,30.0245,0.0,0.0
440,109.75,51.7841,56.1216,143.356,104.726,3.80423,0.00169011,0.278295,20.727,542.68,29.9479,0.0,0.0
448,111.75,52.0679,55.9685,146.711,104.747,3.78666,0.00168107,0.275919,20.7295,542.55,29.9916,0.0,0.0
456,113.75,51.6347,56.1302,145.177,104.749,3.83225,0.00171232,0.274537,20.7307,542.42,29.8837,0.0,0.0
464,115.75,51.3552,55.6287,149.319,104.765,3.83462,0.00176427,0.274421,20.7313,542.249,29.8794,0.0,0.0
472,117.75,51.5664,55.7702,146.245,104.749,3.79283,0.00185132,0.274251,20.7317,542.139,29.9771,0.0,0.0
480,119.75,51.6369,55.4588,145.448,104.737,3.8047,0.00204606,0.273506,20.733,541.979,29.9478,0.0,0.0
488,121.75,51.5281,55.6569,143.646,104.713,3.80043,0.00223055,0.272874,20.7333,541.819,29.9558,0.0,0.0
496,123.75,51.2658,55.5706,142.675,104.676,3.8275,0.00217733,0.272424,20.7334,541.699,29.8886,0.0,0.0
504,125.75,51.2897,55.6593,143.053,104.625,3.84792,0.00195863,0.271428,20.7346,541.559,29.8361,0.0,0.0
512,127.75,51.1096,55.5166,145.897,104.577,3.8332,0.00171459,0.269628,20.7368,541.439,29.8666,0.0,0.0
520,129.75,50.9022,55.1593,145.397,104.507,3.82892,0.00161135,0.267696,20.7394,541.279,29.8706,0.0,0.0
528,131.75,50.983,54.7962,147.303,104.436,3.85172,0.00166426,0.266912,20.7423,541.118,29.8109,0.0,0.0
536,133.75,50.8454,54.9066,145.488,104.359,3.83415,0.0017523,0.266898,20.7436,541.018,29.8455,0.0,0.0
544,135.75,50.6162,54.8874,143.916,104.27,3.82797,0.0017305,0.2658,20.7444,540.848,29.8523,0.0,0.0
552,137.75,51.039,54.8609,147.056,104.175,3.79853,0.00158595,0.264132,20.7458,540.718,29.9139,0.0,0.0
560,139.75,50.0519,55.314,143.503,104.103,3.82892,0.00143551,0.263222,20.7464,540.608,29.8356,0.0,0.0
568,141.75,50.3695,54.7429,150.887,104.015,3.79663,0.00134703,0.26324,20.7467,540.448,29.9045,0.0,0.0
576,143.75,51.1037,54.8222,147.625,103.933,3.78713,0.00141873,0.263294,20.7472,540.318,29.92,0.0,0.0
584,145.75,49.5673,54.8619,145.042,103.852,3.8275,0.00160983,0.262674,20.7488,540.198,29.8171,0.0,0.0
592,147.75,49.5954,55.9808,149.059,103.765,3.81278,0.0017525,0.26078,20.7513,540.067,29.8444,0.0,0.0
600,149.75,50.4257,54.6796,146.078,103.693,3.84507,0.00180277,0.258912,20.7532,539.897,29.762,0.0,0.0
608,151.75,50.3161,54.5438,150.934,103.637,3.85789,0.00179672,0.258089,20.7541,539.797,29.727,0.0,0.0
616,153.75,50.3673,54.4091,149.507,103.571,3.76149,0.00170301,0.257421,20.7547,539.687,29.9499,0.0,0.0
624,155.75,50.0624,53.7596,145.225,103.54,3.74202,0.00160543,0.256671,20.7556,539.537,29.994,0.0,0.0
632,157.75,50.2504,54.3131,148.738,103.494,3.83035,0.00161851,0.256293,20.7566,539.377,29.7793,0.0,0.0
640,159.75,50.0616,54.2206,149.063,103.465,3.82797,0.0015885,0.256169,20.7573,539.267,29.7823,0.0,0.0
648,161.75,50.1463,54.0292,147.567,103.464,3.82512,0.00150757,0.255147,20.7598,539.127,29.789,0.0,0.0
656,163.75,50.1226,53.8935,141.808,103.467,3.82892,0.00149862,0.253652,20.7611,538.986,29.7802,0.0,0.0
664,165.75,49.962,54.0756,144.384,103.498,3.8256,0.00162902,0.253036,20.7624,538.876,29.7908,0.0,0.0
672,167.75,49.526,53.4694,144.979,103.535,3.83225,0.00175605,0.252683,20.7622,538.726,29.7783,0.0,0.0
680,169.75,49.9644,54.1458,145.709,103.592,3.86739,0.00183389,0.252931,20.7619,538.616,29.7009,0.0,0.0
688,171.75,49.3017,53.4509,145.376,103.644,3.82037,0.0019115,0.253602,20.7607,538.476,29.8159,0.0,0.0
696,173.75,49.7935,53.7703,146.403,103.75,3.82417,0.00200391,0.253771,20.7602,538.356,29.8161,0.0,0.0
704,175.75,49.9913,53.7522,150.307,103.848,3.88163,0.00210111,0.25336,20.7604,538.206,29.6899,0.0,0.0
712,177.75,49.8574,53.7042,146.383,103.947,3.81468,0.00213778,0.252465,20.7612,538.076,29.8558,0.0,0.0
720,179.75,49.5964,53.1339,145.835,104.062,3.88068,0.00208291,0.251478,20.7623,537.976,29.7107,0.0,0.0
728,181.75,49.3128,52.7801,150.512,104.185,3.85504,0.00200388,0.25108,20.7628,537.815,29.7813,0.0,0.0
736,183.75,49.7562,53.7789,144.642,104.291,3.89493,0.00191707,0.251171,20.7619,537.715,29.6976,0.0,0.0
744,185.75,49.4641,53.2927,148.421,104.421,3.84602,0.00184214,0.251732,20.7604,537.555,29.823,0.0,0.0
752,187.75,49.7099,53.6117,151.525,104.542,3.88638,0.00190026,0.251601,20.7606,537.485,29.739,0.0,0.0
760,189.75,49.6904,53.303,145.268,104.661,3.93007,0.00213165,0.25095,20.762,537.325,29.6483,0.0,0.0
768,191.75,49.5604,53.2971,146.479,104.77,3.90918,0.00237422,0.249808,20.763,537.185,29.706,0.0,0.0
776,193.75,49.4574,53.4395,144.693,104.886,3.92057,0.00244778,0.248611,20.7636,537.055,29.6897,0.0,0.0
784,195.75,49.5289,53.0341,144.531,104.973,3.91108,0.00230702,0.248531,20.7653,536.955,29.719,0.0,0.0
792,197.75,49.2995,53.2481,148.971,105.064,3.9106,0.00210339,0.247973,20.7664,536.855,29.7279,0.0,0.0
800,199.75,49.42,53.2664,142.743,105.131,3.90063,0.0018482,0.247149,20.7675,536.674,29.7568,0.0,0.0
808,201.75,49.1437,52.7206,146.032,105.189,3.94859,0.00171185,0.24696,20.7672,536.544,29.6514,0.0,0.0
816,203.75,49.8433,53.2135,141.966,105.253,3.85362,0.00178805,0.247638,20.7666,536.474,29.8768,0.0,0.0
824,205.75,49.5778,53.2792,149.708,105.289,3.86501,0.00191104,0.247996,20.7663,536.314,29.8532,0.0,0.0
832,207.75,49.4669,53.1863,149.796,105.324,3.94907,0.00197641,0.247759,20.7659,536.194,29.6619,0.0,0.0
840,209.75,49.3066,52.7429,148.708,105.356,3.94337,0.00203922,0.247843,20.7647,536.084,29.6776,0.0,0.0
848,211.75,49.0373,52.5023,141.949,105.375,3.93719,0.00214296,0.248168,20.7642,535.934,29.6935,0.0,0.0
856,213.75,49.1781,52.7623,144.784,105.391,3.92865,0.00222,0.248103,20.7644,535.814,29.7144,0.0,0.0
864,215.75,49.126,52.691,146.588,105.401,3.87404,0.00217135,0.247442,20.7653,535.703,29.8417,0.0,0.0
872,217.75,48.9621,52.6146,148.237,105.399,3.96379,0.00209307,0.246717,20.7652,535.593,29.6347,0.0,0.0
880,219.75,48.7919,52.4922,145.864,105.399,3.98278,0.00203921,0.246929,20.7639,535.483,29.5915,0.0,0.0
888,221.75,49.0533,52.5595,141.499,105.393,3.92105,0.00199761,0.247807,20.7638,535.353,29.7321,0.0,0.0
896,223.75,49.008,52.3313,145.838,105.372,3.93814,0.00198203,0.248296,20.7642,535.173,29.691,0.0,0.0
904,225.75,48.9195,52.4422,143.26,105.338,3.94622,0.00199003,0.24757,20.7656,535.083,29.6696,0.0,0.0
912,227.75,48.8381,52.5072,147.062,105.316,3.92532,0.00197922,0.246842,20.7675,534.933,29.7157,0.0,0.0
920,229.75,48.9513,52.3293,146.74,105.288,3.93339,0.00185171,0.24568,20.7689,534.803,29.6947,0.0,0.0
928,231.75,48.9188,52.3826,144.636,105.238,3.97044,0.00172695,0.244918,20.7695,534.683,29.6057,0.0,0.0
936,233.75,48.869,52.383,143.336,105.195,3.93624,0.0016992,0.244737,20.771,534.552,29.6801,0.0,0.0
944,235.75,49.0471,52.456,145.364,105.138,3.91155,0.0017167,0.244013,20.7717,534.442,29.7321,0.0,0.0
952,237.75,48.8023,52.2826,149.211,105.091,3.86976,0.00173221,0.243778,20.772,534.292,29.8251,0.0,0.0
960,239.75,48.7847,52.1425,146.68,105.027,3.95002,0.00175282,0.243912,20.7721,534.202,29.6342,0.0,0.0
968,241.75,48.8185,52.2204,148.511,104.966,3.88211,0.0018203,0.244136,20.7715,534.082,29.7856,0.0,0.0
976,243.75,48.8018,52.0369,144.043,104.906,3.89066,0.0019236,0.244625,20.7704,533.952,29.7606,0.0,0.0
984,245.75,48.829,52.2487,145.404,104.848,3.95286,0.00195423,0.244778,20.7696,533.832,29.6122,0.0,0.0
992,247.75,49.1125,52.3839,143.627,104.789,3.90965,0.00187407,0.244839,20.7693,533.712,29.7065,0.0,0.0
1000,249.75,48.8584,52.1834,144.358,104.719,3.89351,0.00170691,0.244886,20.7692,533.582,29.7378,0.0,0.0
1008,251.75,48.8783,52.1206,146.418,104.666,3.90728,0.00162765,0.245157,20.7691,533.461,29.7013,0.0,0.0
1016,253.75,48.9389,52.1486,142.095,104.606,3.87831,0.00163258,0.245378,20.7691,533.341,29.7634,0.0,0.0
1024,255.75,48.6492,51.8905,146.607,104.557,3.88496,0.00171102,0.245142,20.769,533.251,29.7437,0.0,0.0
1032,257.75,49.3454,52.0876,145.566,104.509,3.86406,0.00167864,0.244441,20.7704,533.121,29.7882,0.0,0.0
1040,259.75,48.9605,52.1081,147.698,104.477,3.92105,0.00154824,0.244231,20.7697,532.981,29.6532,0.0,0.0
1048,261.75,48.9145,52.0106,147.494,104.596,3.94669,0.00143072,0.245321,20.7693,532.841,29.6047,0.0,0.0
1056,263.75,48.7126,52.2566,147.592,104.699,3.91487,0.00140041,0.246095,20.7678,532.711,29.6867,0.0,0.0
1064,265.75,49.0361,51.9029,145.31,104.784,3.90253,0.0014941,0.246997,20.7672,532.601,29.7225,0.0,0.0
1072,267.75,48.5021,52.0614,144.597,104.848,3.94574,0.00164602,0.247429,20.7667,532.461,29.6285,0.0,0.0
1080,269.75,48.8836,51.6636,147.382,104.899,3.92295,0.0018329,0.246747,20.7663,532.36,29.6853,0.0,0.0
1088,271.75,49.1833,52.2729,142.221,104.931,3.90728,0.0019295,0.24535,20.7675,532.27,29.7242,0.0,0.0
1096,273.75,48.6241,52.1919,150.933,104.959,3.96996,0.00186372,0.244973,20.768,532.13,29.5829,0.0,0.0
1104,275.75,48.6193,51.9878,144.339,104.977,3.90538,0.00178826,0.245117,20.7682,532,29.7326,0.0,0.0
1112,277.75,48.619,51.9299,147.16,104.964,3.95097,0.00184607,0.245283,20.7683,531.91,29.6266,0.0,0.0
1120,279.75,48.7782,51.9882,147.941,104.943,3.97518,0.00194176,0.245791,20.7684,531.76,29.5696,0.0,0.0
1128,281.75,48.8509,52.049,145.62,104.911,3.97851,0.00200996,0.245947,20.7684,531.64,29.5593,0.0,0.0
1136,283.75,48.7984,52.0866,144.686,104.858,3.93624,0.00206071,0.245665,20.7684,531.53,29.6512,0.0,0.0
1144,285.75,48.7024,51.6098,146.258,104.797,3.93814,0.0019813,0.24564,20.7684,531.41,29.6415,0.0,0.0
1152,287.75,48.5159,51.9392,146.552,104.713,3.98278,0.00185574,0.245357,20.7684,531.3,29.5325,0.0,0.0
1160,289.75,48.7861,52.0346,143.56,104.623,3.95381,0.00178319,0.245371,20.7684,531.149,29.5907,0.0,0.0
1168,291.75,48.7168,51.6714,145.494,104.523,3.9182,0.00170529,0.245471,20.7684,531.049,29.6638,0.0,0.0
1176,293.75,48.9631,51.994,144.87,104.376,3.90063,0.00165867,0.245301,20.7684,530.899,29.6917,0.0,0.0
1184,295.75,48.4967,51.8595,143.869,104.242,3.94004,0.00172594,0.244937,20.7684,530.779,29.5893,0.0,0.0
1192,297.75,48.905,52.0557,142.921,104.124,3.9068,0.00187297,0.245305,20.7684,530.639,29.6556,0.0,0.0
1200,299.75,48.8382,52.0895,150.096,104.108,3.88923,0.0019976,0.245459,20.7684,530.539,29.6949,0.0,0.0
1208,301.75,48.5931,51.8154,145.315,104.126,3.89113,0.0019941,0.24521,20.7684,530.449,29.6921,0.0,0.0
1216,303.75,48.5231,51.874,145.572,104.173,3.88686,0.00191614,0.245641,20.7684,530.279,29.706,0.0,0.0
1224,305.75,48.6506,51.8284,146.98,104.217,3.90918,0.00179633,0.246396,20.7684,530.208,29.6582,0.0,0.0
1232,307.75,48.8216,51.8233,149.212,104.248,3.90823,0.00171485,0.246195,20.7684,530.078,29.663,0.0,0.0
1240,309.75,49.0042,51.8401,149.034,104.303,3.94574,0.00176815,0.245379,20.7685,529.978,29.5815,0.0,0.0
1248,311.75,48.9967,51.9981,143.953,104.352,3.89493,0.0019267,0.245954,20.7685,529.838,29.7028,0.0,0.0
1256,313.75,48.7346,51.9373,144.413,104.403,3.87783,0.00199764,0.247419,20.7676,529.708,29.747,0.0,0.0
1264,315.75,49.2925,52.0555,144.236,104.462,3.92485,0.00204221,0.248401,20.7661,529.598,29.6432,0.0,0.0
1272,317.75,49.0698,52.0341,144.345,104.532,3.98563,0.00204546,0.248593,20.7655,529.468,29.5104,0.0,0.0
1280,319.75,48.806,52.1134,146.046,104.581,3.90443,0.00202234,0.248039,20.7659,529.378,29.7006,0.0,0.0
1288,321.75,48.9941,52.2865,147.621,104.628,3.94717,0.00196062,0.24756,20.7667,529.218,29.6064,0.0,0.0
1296,323.75,49.1725,51.754,145.532,104.661,3.92247,0.00189184,0.247502,20.7671,529.108,29.6659,0.0,0.0
1304,325.75,48.7896,51.6584,150.808,104.695,3.90918,0.00189017,0.247384,20.7673,528.957,29.6995,0.0,0.0
1312,327.75,48.8582,51.8271,144.312,104.726,3.97233,0.00189633,0.24772,20.7667,528.867,29.5574,0.0,0.0
1320,329.75,48.7503,51.6753,142.001,104.739,3.90205,0.00174265,0.247779,20.7658,528.757,29.7198,0.0,0.0
1328,331.75,48.7675,51.7265,147.328,104.752,3.95286,0.0015104,0.247308,20.765,528.637,29.604,0.0,0.0
1336,333.75,49.2863,52.0198,143.13,104.75,3.91582,0.00136672,0.247153,20.7645,528.517,29.6889,0.0,0.0
1344,335.75,49.0769,52.2656,145.658,104.737,3.90728,0.00142929,0.247635,20.7643,528.417,29.7075,0.0,0.0
1352,337.75,49.1095,52.152,145.196,104.718,3.90395,0.00158969,0.248031,20.764,528.287,29.7136,0.0,0.0
1360,339.75,48.8139,52.0017,149.13,104.699,3.95951,0.00173238,0.247506,20.7639,528.147,29.5842,0.0,0.0
1368,341.75,49.307,52.5174,147.773,104.661,4.01412,0.00192579,0.247587,20.764,528.087,29.4572,0.0,0.0
1376,343.75,49.3674,52.1569,149.064,104.63,3.89018,0.00214058,0.247425,20.7644,527.946,29.7379,0.0,0.0
1384,345.75,49.0739,52.0618,149.753,104.598,3.93292,0.00223801,0.247428,20.7645,527.826,29.6364,0.0,0.0
1392,347.75,49.4538,52.4823,146.953,104.549,3.88923,0.00222028,0.247167,20.7658,527.676,29.7331,0.0,0.0
1400,349.75,49.008,52.2101,146.936,104.499,3.9258,0.00211155,0.246571,20.7664,527.596,29.6442,0.0,0.0
1408,351.75,49.0862,52.0209,147.085,104.458,3.89873,0.00196272,0.246434,20.7667,527.496,29.7031,0.0,0.0
1416,353.75,48.8969,51.8984,144.754,104.385,3.91013,0.00183114,0.24594,20.7664,527.336,29.6705,0.0,0.0
1424,355.75,49.3563,52.4692,142.829,104.33,3.94479,0.00189036,0.246292,20.7662,527.236,29.586,0.0,0.0
1432,357.75,49.1837,52.1581,146.371,104.265,3.86216,0.00204151,0.246943,20.7661,527.136,29.7716,0.0,0.0
1440,359.75,48.9377,52.2716,146.261,104.208,3.87546,0.00213478,0.247427,20.7659,527.026,29.7356,0.0,0.0
1448,361.75,49.475,51.0099,147.057,104.131,3.96806,0.00203068,0.247639,20.7664,526.885,29.5156,0.0,0.0
1456,363.75,49.0995,52.1465,151.22,104.086,3.90015,0.00178804,0.247391,20.7669,526.785,29.6676,0.0,0.0
1464,365.75,48.979,52.0289,149.288,104.007,3.86311,0.00165232,0.247568,20.7672,526.665,29.747,0.0,0.0
1472,367.75,49.0511,52.0671,147.334,103.93,3.89635,0.00167166,0.247539,20.7673,526.555,29.6629,0.0,0.0
1480,369.75,49.0733,52.1336,146.455,103.858,3.89445,0.00164767,0.247492,20.7673,526.445,29.6611,0.0,0.0
1488,371.75,49.2167,52.1527,145.325,103.804,3.84792,0.0016292,0.247983,20.7674,526.315,29.7649,0.0,0.0
1496,373.75,49.0401,52.0193,142.066,103.72,3.92295,0.00172075,0.24824,20.7674,526.195,29.5832,0.0,0.0
1504,375.75,49.1504,52.0895,145.325,103.662,3.87831,0.00192944,0.248887,20.7662,526.075,29.6815,0.0,0.0
1512,377.75,49.2495,51.915,149.817,103.617,3.87451,0.00215197,0.249791,20.7655,525.945,29.6864,0.0,0.0
1520,379.75,48.802,52.0372,146.751,103.565,3.94194,0.00229863,0.250494,20.7653,525.815,29.5261,0.0,0.0
1528,381.75,49.0152,52.0579,148.483,103.524,3.9239,0.00239811,0.25089,20.7638,525.704,29.5639,0.0,0.0
1536,383.75,49.1994,52.0424,151.373,103.495,3.88258,0.00234547,0.250559,20.7628,525.574,29.657,0.0,0.0
1544,385.75,49.4047,52.0552,142.934,103.464,3.91298,0.00222178,0.251192,20.7615,525.524,29.5838,0.0,0.0
1552,387.75,49.1118,51.9475,140.921,103.451,3.9087,0.00219984,0.252428,20.7602,525.364,29.5926,0.0,0.0
1560,389.75,49.0879,52.1777,144.693,103.434,3.89825,0.00218367,0.252903,20.7592,525.244,29.6153,0.0,0.0
1568,391.75,49.0163,51.9865,143.872,103.428,3.88828,0.00212429,0.253276,20.7596,525.094,29.6379,0.0,0.0
1576,393.75,49.211,52.2548,146.188,103.434,3.89778,0.00211714,0.253248,20.7598,525.004,29.6164,0.0,0.0
1584,395.75,49.2503,51.9233,145.294,103.466,3.87736,0.0020921,0.253744,20.7591,524.874,29.6666,0.0,0.0
1592,397.75,49.1395,52.2026,147.987,103.464,3.94622,0.00200037,0.254794,20.7573,524.784,29.5074,0.0,0.0
1600,399.75,49.4394,52.1667,142.718,103.488,3.87498,0.00195847,0.25617,20.7557,524.624,29.674,0.0,0.0
1608,401.75,49.1132,52.25,143.594,103.53,3.9087,0.00190495,0.256691,20.755,524.463,29.5994,0.0,0.0
1616,403.75,49.4564,52.442,147.167,103.556,3.90965,0.00189298,0.257364,20.7539,524.373,29.5996,0.0,0.0
1624,405.75,49.146,52.0467,144.424,103.592,3.96236,0.00202417,0.258353,20.753,524.253,29.4817,0.0,0.0
1632,407.75,49.2164,52.5732,144.18,103.642,3.87451,0.00221994,0.258925,20.7529,524.163,29.6887,0.0,0.0
1640,409.75,49.7831,52.6973,143.604,103.7,3.9296,0.0023484,0.259465,20.7528,524.023,29.5662,0.0,0.0
1648,411.75,49.7127,52.6492,144.449,103.764,3.88733,0.0023808,0.260149,20.7516,523.883,29.6694,0.0,0.0
1656,413.75,49.6695,52.6371,147.425,103.813,3.89351,0.00234129,0.261233,20.7496,523.813,29.6593,0.0,0.0
1664,415.75,49.9141,52.4766,147.952,103.881,3.85789,0.00227455,0.261309,20.7498,523.653,29.7482,0.0,0.0
1672,417.75,49.8806,52.4343,144.867,103.943,3.90538,0.00219384,0.260253,20.7497,523.553,29.6431,0.0,0.0
1680,419.75,49.4357,52.6503,144.726,104.015,3.97661,0.00219504,0.26006,20.7497,523.382,29.4861,0.0,0.0
1688,421.75,49.9079,52.7938,147.097,104.084,3.96521,0.00225467,0.260984,20.7484,523.282,29.5181,0.0,0.0
1696,423.75,49.4608,53.0784,148.25,104.162,3.96379,0.00231567,0.262563,20.7464,523.142,29.528,0.0,0.0
1704,425.75,49.9563,52.6502,146.252,104.244,3.88828,0.00226516,0.26401,20.7451,523.022,29.7089,0.0,0.0
1712,427.75,49.7172,52.7777,140.611,104.332,3.97708,0.00211439,0.265637,20.7424,522.942,29.5125,0.0,0.0
1720,429.75,50.1795,52.8744,146.225,104.407,3.97376,0.00198466,0.266302,20.7408,522.752,29.5265,0.0,0.0
1728,431.75,50.3756,53.395,145.294,104.471,3.98848,0.00198526,0.266267,20.7414,522.642,29.4987,0.0,0.0
1736,433.75,50.1967,53.1883,145.466,104.56,3.95334,0.00205457,0.266365,20.7417,522.562,29.5863,0.0,0.0
1744,435.75,50.109,53.1126,148.95,104.632,3.98183,0.00212289,0.266652,20.7418,522.401,29.5277,0.0,0.0
1752,437.75,50.1384,53.0535,145.537,104.72,3.94812,0.00222863,0.266473,20.7415,522.281,29.6121,0.0,0.0
1760,439.75,50.0978,52.8829,144.455,104.796,3.93434,0.00239555,0.266614,20.7409,522.191,29.6502,0.0,0.0
1768,441.75,50.0167,53.2153,145.177,104.867,3.99275,0.00246918,0.268325,20.7395,522.061,29.5232,0.0,0.0
1776,443.75,50.0409,53.0978,145.8,104.944,3.95619,0.00239866,0.269458,20.7377,521.931,29.6129,0.0,0.0
1784,445.75,50.1031,53.1953,142.351,105.01,4.02884,0.00229454,0.270614,20.7358,521.771,29.4542,0.0,0.0
1792,447.75,50.2632,53.2341,144.42,105.074,4.03359,0.00213458,0.272278,20.7344,521.681,29.4491,0.0,0.0
1800,449.75,50.4225,53.2795,145.488,105.125,3.95381,0.00203886,0.272898,20.7339,521.531,29.6339,0.0,0.0
1808,451.75,50.3808,53.3102,144.391,105.189,3.93767,0.00207174,0.272775,20.734,521.391,29.6764,0.0,0.0
1816,453.75,50.298,53.3471,142.1,105.23,3.96379,0.0021531,0.27362,20.7349,521.27,29.6202,0.0,0.0
1824,455.75,50.4556,53.5928,141.051,105.262,3.95191,0.00220369,0.275501,20.7337,521.12,29.65,0.0,0.0
1832,457.75,50.6398,53.7399,144.361,105.302,3.9994,0.00224912,0.276399,20.7321,521.05,29.5455,0.0,0.0
1840,459.75,50.5732,53.511,148.979,105.326,3.94907,0.00226136,0.277009,20.731,520.91,29.662,0.0,0.0
1848,461.75,50.5953,53.536,142.553,105.357,4.01507,0.00220159,0.277667,20.7304,520.75,29.515,0.0,0.0
1856,463.75,50.7335,53.7994,147.433,105.38,3.93624,0.00210793,0.277905,20.7302,520.65,29.696,0.0,0.0
1864,465.75,51.1759,54.0211,149.65,105.406,3.9918,0.00198323,0.278137,20.7301,520.51,29.5716,0.0,0.0
1872,467.75,50.8854,53.7121,145.348,105.399,3.98136,0.00203317,0.278585,20.729,520.39,29.5947,0.0,0.0
1880,469.75,50.9326,53.8668,143.113,105.403,3.94289,0.00221077,0.278972,20.7288,520.27,29.6828,0.0,0.0
1888,471.75,50.8901,53.8214,145.325,105.409,4.01555,0.00236124,0.278935,20.7286,520.129,29.5184,0.0,0.0
1896,473.75,51.119,54.0927,142.854,105.411,3.98183,0.0024271,0.279378,20.7286,519.989,29.5947,0.0,0.0
1904,475.75,51.1047,53.8247,146.171,105.402,3.98658,0.00243567,0.280671,20.726,519.859,29.5831,0.0,0.0
1912,477.75,51.1043,54.4512,144.061,105.386,3.95904,0.0024632,0.282163,20.7231,519.699,29.6444,0.0,0.0
1920,479.75,50.9471,54.2236,142.363,105.363,3.95856,0.0025125,0.283819,20.7208,519.609,29.6435,0.0,0.0
1928,481.75,51.5616,54.5242,145.563,105.332,3.97281,0.00249516,0.285445,20.719,519.479,29.6084,0.0,0.0
1936,483.75,51.6478,53.9007,143.706,105.309,3.98041,0.00241295,0.28628,20.7173,519.339,29.5892,0.0,0.0
1944,485.75,51.0084,54.0945,145.94,105.268,4.04357,0.00229656,0.286646,20.7168,519.229,29.4435,0.0,0.0
1952,487.75,52.0444,54.8617,140.589,105.258,3.91535,0.00221342,0.28726,20.7172,519.059,29.7336,0.0,0.0
1960,489.75,51.2934,54.429,142.753,105.185,3.93482,0.00220637,0.287585,20.717,518.928,29.6826,0.0,0.0
1968,491.75,51.6166,54.8886,144.189,105.137,3.92912,0.0022233,0.287432,20.7169,518.788,29.6916,0.0,0.0
1976,493.75,51.1636,54.6816,140.589,105.088,3.97281,0.00216,0.287185,20.7168,518.688,29.5875,0.0,0.0
1984,495.75,51.5376,55.1209,145.286,105.042,3.98943,0.00204642,0.287676,20.7156,518.548,29.5458,0.0,0.0
1992,497.75,51.6713,54.6883,149.163,104.999,3.97186,0.0020625,0.287657,20.7159,518.408,29.5819,0.0,0.0
2000,499.75,51.2884,54.7248,143.741,104.95,3.9258,0.00215763,0.287563,20.7167,518.258,29.6831,0.0,0.0
2008,501.75,51.7945,54.655,143.845,104.879,3.90965,0.00217218,0.289625,20.7164,518.128,29.7142,0.0,0.0
2016,503.75,51.7803,54.9386,145.197,104.846,4.00415,0.00215409,0.292114,20.7146,517.978,29.4956,0.0,0.0
2024,505.75,52.3473,54.7217,144.584,104.779,3.94004,0.00214458,0.293453,20.7138,517.847,29.6356,0.0,0.0
2032,507.75,52.0798,55.0268,137.419,104.735,3.91582,0.002111,0.2931,20.7134,517.727,29.6875,0.0,0.0
2040,509.75,51.9365,55.043,146.239,104.694,4.04499,0.00214188,0.2931,20.7131,517.577,29.3909,0.0,0.0
2048,511.75,52.0688,55.2635,139.751,104.657,3.92722,0.00211941,0.29419,20.7111,517.407,29.6546,0.0,0.0
2056,513.75,52.2991,55.2604,144.907,104.619,3.88401,0.00206436,0.295845,20.7092,517.337,29.7513,0.0,0.0
2064,515.75,52.1796,55.4286,146.914,104.583,3.91725,0.00207578,0.297345,20.707,517.187,29.6712,0.0,0.0
2072,517.75,52.1564,55.4452,150.484,104.548,3.90728,0.00211893,0.298273,20.7047,517.017,29.6911,0.0,0.0
2080,519.75,52.3899,55.5221,142.775,104.524,3.97281,0.00215082,0.29897,20.7038,516.867,29.5388,0.0,0.0
2088,521.75,52.4844,55.8463,144.945,104.489,3.9182,0.00225546,0.299069,20.7033,516.746,29.6608,0.0,0.0
2096,523.75,52.5416,55.6042,144.119,104.56,3.99228,0.0023899,0.299929,20.7024,516.626,29.4978,0.0,0.0
2104,525.75,52.7149,55.7876,141.366,104.647,4.03074,0.00252764,0.302247,20.6989,516.446,29.4187,0.0,0.0
2112,527.75,52.8162,55.9977,146.065,104.7,3.96901,0.00256387,0.304982,20.6959,516.346,29.5627,0.0,0.0
2120,529.75,52.7054,55.9534,143.293,104.773,3.95144,0.00251287,0.305791,20.6947,516.196,29.609,0.0,0.0
2128,531.75,52.8337,55.8869,139.308,104.832,4.01697,0.00246759,0.307047,20.6942,516.066,29.4655,0.0,0.0
2136,533.75,52.9486,55.9618,147.564,104.879,3.93672,0.0024274,0.307897,20.6933,515.896,29.6519,0.0,0.0
2144,535.75,53.0557,56.1336,143.343,104.915,3.97044,0.00236616,0.307976,20.6922,515.735,29.578,0.0,0.0
2152,537.75,52.9668,56.0552,142.53,104.952,4.02077,0.00225559,0.308478,20.6928,515.625,29.4673,0.0,0.0
2160,539.75,53.1305,56.4308,140.252,104.981,3.96426,0.00214006,0.30789,20.6933,515.485,29.5977,0.0,0.0
2168,541.75,53.103,56.5123,144.545,104.994,3.91915,0.00206527,0.308371,20.6925,515.365,29.7022,0.0,0.0
2176,543.75,53.1777,56.4455,146.161,105.011,4.03977,0.00203523,0.310667,20.6893,515.175,29.4299,0.0,0.0
2184,545.75,53.3898,56.7176,141.221,105.009,3.97376,0.00209394,0.312137,20.6879,515.075,29.5785,0.0,0.0
2192,547.75,53.4446,56.6147,138.306,105.01,3.99275,0.00217141,0.312486,20.6873,514.905,29.5355,0.0,0.0
2200,549.75,53.5089,56.6672,142.06,105.016,3.99418,0.00214073,0.311678,20.6879,514.755,29.5328,0.0,0.0
2208,551.75,53.911,56.6133,142.13,104.979,3.99893,0.00211499,0.31033,20.6885,514.615,29.5189,0.0,0.0
2216,553.75,53.384,56.8856,144.708,104.96,3.97376,0.00209938,0.309535,20.6901,514.424,29.5743,0.0,0.0
2224,555.75,53.9468,56.8862,143.267,104.938,4.01127,0.00208117,0.309749,20.6901,514.304,29.4875,0.0,0.0
2232,557.75,53.6279,57.3175,140.852,104.885,3.94004,0.00198065,0.309783,20.6907,514.144,29.6448,0.0,0.0
2240,559.75,53.8364,56.9292,145.68,104.844,3.99418,0.00188862,0.309287,20.6916,513.984,29.518,0.0,0.0
2248,561.75,53.9974,57.0752,145.5,104.773,4.02932,0.00186234,0.308408,20.692,513.864,29.4328,0.0,0.0
2256,563.75,53.7168,57.3577,147.202,104.716,3.92247,0.00192737,0.308714,20.6917,513.744,29.6706,0.0,0.0
2264,565.75,54.3752,56.6924,143.879,104.638,3.99988,0.00203996,0.30843,20.6916,513.594,29.4874,0.0,0.0
2272,567.75,53.9738,56.8277,144.358,104.557,4.01127,0.00209155,0.308397,20.6903,513.433,29.4546,0.0,0.0
2280,569.75,54.3696,57.5219,142.018,104.474,3.95856,0.00203913,0.309258,20.6888,513.293,29.5669,0.0,0.0
2288,571.75,53.8374,57.6047,137.911,104.376,3.94717,0.00193621,0.310996,20.6871,513.163,29.5845,0.0,0.0
2296,573.75,53.7806,57.439,144.861,104.261,3.96379,0.00189566,0.311339,20.6874,513.013,29.5367,0.0,0.0
2304,575.75,53.7334,57.3728,140.982,104.151,3.96569,0.00193397,0.311486,20.6883,512.863,29.5228,0.0,0.0
2312,577.75,54.0148,57.7921,141.097,104.074,3.92722,0.0018988,0.311348,20.6887,512.713,29.6041,0.0,0.0
2320,579.75,54.2787,57.3487,143.074,104.093,3.96806,0.0018572,0.311903,20.6873,512.573,29.5123,0.0,0.0
2328,581.75,54.3245,57.4548,144.455,104.109,3.96711,0.0019192,0.313597,20.6857,512.432,29.5159,0.0,0.0
2336,583.75,54.1297,57.6903,146.886,104.133,4.0051,0.00205721,0.314098,20.6849,512.252,29.4319,0.0,0.0
2344,585.75,54.2301,57.5373,141.843,104.166,3.96569,0.00218931,0.314221,20.6846,512.142,29.524,0.0,0.0
2352,587.75,54.2016,57.7665,145.884,104.198,3.9315,0.00220189,0.314489,20.6844,511.972,29.6051,0.0,0.0
2360,589.75,54.3819,57.5121,141.625,104.214,3.95856,0.00214665,0.314312,20.6843,511.812,29.5444,0.0,0.0
2368,591.75,54.4311,57.7335,147.834,104.246,3.93624,0.00208815,0.314008,20.685,511.702,29.5983,0.0,0.0
2376,593.75,54.5798,57.8068,139.193,104.268,3.96236,0.00204945,0.314688,20.6845,511.552,29.5405,0.0,0.0
2384,595.75,54.5479,57.8884,141.127,104.302,3.98516,0.00199469,0.316303,20.6832,511.372,29.4916,0.0,0.0
2392,597.75,54.333,57.7856,143.333,104.321,3.92057,0.00194095,0.317142,20.6821,511.261,29.6409,0.0,0.0
2400,599.75,54.5359,57.9118,144.881,104.353,3.95049,0.00185462,0.316899,20.6819,511.121,29.5749,0.0,0.0
2408,601.75,54.5462,57.947,142.55,104.376,3.94099,0.00183044,0.316443,20.681,510.981,29.5986,0.0,0.0
2416,603.75,54.7246,57.9646,140.852,104.389,3.93767,0.00186104,0.316706,20.6806,510.831,29.6074,0.0,0.0
2424,605.75,55.0098,58.1199,143.67,104.419,3.96094,0.00197188,0.317244,20.6804,510.631,29.5568,0.0,0.0
2432,607.75,54.8828,57.8958,144.683,104.445,3.95666,0.00204704,0.317282,20.6803,510.501,29.5688,0.0,0.0
2440,609.75,54.8049,58.4231,141.852,104.489,3.9258,0.00207529,0.316595,20.6803,510.351,29.6433,0.0,0.0
2448,611.75,54.7131,58.333,144.123,104.504,4.0089,0.00211001,0.31659,20.6803,510.23,29.4554,0.0,0.0
2456,613.75,54.9908,58.0656,147.785,104.548,3.96616,0.00209269,0.316792,20.6804,510.06,29.5561,0.0,0.0
2464,615.75,54.8444,58.4184,143.349,104.57,3.98611,0.0019724,0.316536,20.6812,509.95,29.5126,0.0,0.0
2472,617.75,54.7594,58.2423,142.479,104.608,4.01032,0.00187524,0.315251,20.6815,509.77,29.4612,0.0,0.0
2480,619.75,54.656,58.2746,144.571,104.631,3.97946,0.00193797,0.315208,20.6814,509.66,29.533,0.0,0.0
2488,621.75,54.9448,58.0152,141.424,104.642,4.02647,0.0021363,0.31717,20.6796,509.45,29.4278,0.0,0.0
2496,623.75,54.8452,57.8245,143.078,104.658,3.91298,0.00230372,0.318032,20.6783,509.34,29.6875,0.0,0.0
2504,625.75,55.3345,58.3321,143.539,104.666,3.9087,0.00233433,0.317904,20.6781,509.19,29.698,0.0,0.0
2512,627.75,54.4991,58.4329,141.902,104.697,3.922,0.00232026,0.317287,20.6788,509.029,29.6701,0.0,0.0
2520,629.75,55.2175,58.342,144.31,104.683,3.98658,0.00231524,0.316741,20.6792,508.919,29.5213,0.0,0.0
2528,631.75,55.0469,58.1289,148.531,104.69,3.91867,0.00229579,0.316044,20.6793,508.759,29.6771,0.0,0.0
2536,633.75,54.7086,58.8289,144.731,104.696,3.95002,0.00225187,0.315765,20.6794,508.619,29.6057,0.0,0.0
2544,635.75,54.636,58.8094,141.697,104.698,3.99845,0.00222829,0.315699,20.6794,508.459,29.4957,0.0,0.0
2552,637.75,54.9025,58.6884,144.122,104.693,3.92437,0.00233177,0.314399,20.6809,508.299,29.6642,0.0,0.0
2560,639.75,54.9343,58.907,144.132,104.697,3.96284,0.00246341,0.313881,20.6828,508.189,29.5765,0.0,0.0
2568,641.75,54.8667,58.76,141.063,104.689,3.93957,0.00248489,0.314345,20.6843,508.059,29.629,0.0,0.0
2576,643.75,54.7818,58.6738,145.732,104.693,3.90918,0.0024528,0.313695,20.6849,507.888,29.6993,0.0,0.0
2584,645.75,54.9447,58.8776,137.646,104.689,3.92342,0.0024304,0.313794,20.6852,507.768,29.6661,0.0,0.0
2592,647.75,54.8957,58.7139,142.777,104.683,3.94954,0.00235137,0.31405,20.6843,507.658,29.6056,0.0,0.0
2600,649.75,54.9555,58.4822,143.024,104.675,3.9258,0.00225321,0.314108,20.6853,507.548,29.6594,0.0,0.0
2608,651.75,55.2579,58.2954,146.229,104.671,3.96996,0.00223924,0.31344,20.6869,507.398,29.558,0.0,0.0
2616,653.75,55.1623,58.824,138.551,104.663,4.03027,0.00235679,0.312576,20.6878,507.248,29.4211,0.0,0.0
2624,655.75,54.9851,58.6059,146.048,104.654,3.9994,0.00243667,0.31278,20.6873,507.078,29.4898,0.0,0.0
2632,657.75,55.3678,58.6524,147.905,104.639,3.94052,0.00253676,0.314269,20.6854,506.998,29.6225,0.0,0.0
2640,659.75,55.0534,58.6578,142.364,104.614,3.9956,0.00266948,0.315347,20.6836,506.857,29.4949,0.0,0.0
2648,661.75,55.256,58.5644,146.038,104.603,3.97044,0.00285242,0.317735,20.6802,506.677,29.5511,0.0,0.0
2656,663.75,55.1892,58.6757,142.796,104.566,3.98373,0.00300769,0.319755,20.6781,506.527,29.5177,0.0,0.0
2664,665.75,55.2538,58.9654,141.505,104.536,3.93339,0.00320968,0.320388,20.6784,506.427,29.6299,0.0,0.0
2672,667.75,55.1376,58.671,143.13,104.49,3.91345,0.00339639,0.319518,20.6788,506.297,29.6719,0.0,0.0
2680,669.75,55.3731,58.8461,142.596,104.45,3.9163,0.00348271,0.317262,20.6804,506.147,29.6618,0.0,0.0
2688,671.75,55.4515,58.6666,144.704,104.404,3.98231,0.00350445,0.314991,20.6822,505.997,29.5069,0.0,0.0
2696,673.75,55.2853,58.9056,143.778,104.365,3.97091,0.00353564,0.312442,20.6859,505.897,29.5294,0.0,0.0
2704,675.75,55.1498,58.6569,141.847,104.324,3.95191,0.00362661,0.310603,20.688,505.746,29.5692,0.0,0.0
2712,677.75,55.2868,58.9159,139.807,104.305,3.94099,0.00377015,0.308969,20.6889,505.606,29.5925,0.0,0.0
2720,679.75,55.0711,58.8153,142.946,104.242,3.87831,0.00392241,0.30638,20.6938,505.466,29.7319,0.0,0.0
2728,681.75,55.1659,58.6068,144.852,104.214,3.89968,0.0038671,0.302948,20.6967,505.376,29.6798,0.0,0.0
2736,683.75,55.0976,58.7858,147.243,104.169,3.9258,0.00363163,0.299087,20.7016,505.246,29.6156,0.0,0.0
2744,685.75,54.7632,58.7774,141.967,104.136,3.85172,0.00340559,0.296607,20.7047,505.146,29.7848,0.0,0.0
2752,687.75,54.9939,58.5175,138.708,104.085,3.9258,0.00329424,0.29524,20.7068,504.956,29.6083,0.0,0.0
2760,689.75,54.9075,58.5079,147.897,104.115,3.87119,0.00338408,0.293938,20.7087,504.896,29.7375,0.0,0.0
2768,691.75,54.7059,58.3331,146.343,104.277,3.91013,0.00351179,0.29105,20.7136,504.695,29.6611,0.0,0.0
2776,693.75,54.7255,58.1613,147.447,104.441,3.93909,0.00354587,0.287742,20.7175,504.595,29.6087,0.0,0.0
2784,695.75,54.6491,58.2631,148.406,104.58,3.96806,0.00346506,0.286342,20.7194,504.495,29.5545,0.0,0.0
2792,697.75,54.5794,58.0802,146.672,104.711,3.96521,0.00344809,0.288559,20.7162,504.385,29.5722,0.0,0.0
2800,699.75,54.6512,58.3874,144.768,104.82,3.94859,0.00350516,0.289522,20.7148,504.235,29.6196,0.0,0.0
2808,701.75,54.7324,57.5248,143.787,104.907,3.93672,0.0035505,0.2875,20.7162,504.135,29.6543,0.0,0.0
2816,703.75,54.9245,58.014,141.84,104.955,3.94432,0.00355288,0.285208,20.7183,504.005,29.641,0.0,0.0
2824,705.75,54.2965,58.0922,142.859,104.985,4.01175,0.00352991,0.28338,20.7197,503.915,29.4905,0.0,0.0
2832,707.75,54.5219,58.4599,143.305,104.974,3.99275,0.00343164,0.281953,20.7195,503.815,29.5324,0.0,0.0
2840,709.75,54.3799,57.4747,145.251,104.942,3.98706,0.00326629,0.280614,20.7211,503.715,29.5426,0.0,0.0
2848,711.75,54.0905,58.0132,147.264,104.871,3.94432,0.00310086,0.278338,20.725,503.615,29.6338,0.0,0.0
2856,713.75,54.1956,57.6809,148.26,104.755,3.96949,0.00307639,0.274018,20.7297,503.504,29.5663,0.0,0.0
2864,715.75,53.7937,57.4152,149.32,104.595,3.98326,0.00315271,0.270524,20.7337,503.414,29.5213,0.0,0.0
2872,717.75,53.7665,57.5368,143.366,104.477,3.95951,0.00321389,0.26733,20.7369,503.324,29.5651,0.0,0.0
2880,719.75,53.5782,57.3341,141.515,104.548,4.02552,0.00333955,0.263327,20.7417,503.224,29.4218,0.0,0.0
2888,721.75,53.271,56.9152,141.558,104.639,3.97851,0.0036348,0.259741,20.7459,503.114,29.5358,0.0,0.0
2896,723.75,53.148,56.8503,141.866,104.738,3.9994,0.00410307,0.257032,20.749,503.044,29.4971,0.0,0.0
2904,725.75,53.0292,56.7995,147.98,104.848,3.99228,0.00448954,0.255101,20.751,502.964,29.5226,0.0,0.0
2912,727.75,52.8307,56.7163,143.984,104.971,3.95951,0.00468334,0.252781,20.7538,502.864,29.6076,0.0,0.0
2920,729.75,52.4395,55.9885,147.72,105.078,3.97661,0.00475042,0.249189,20.7572,502.764,29.578,0.0,0.0
2928,731.75,52.4264,56.1714,149.198,105.182,4.1205,0.00475852,0.245618,20.7597,502.634,29.2658,0.0,0.0
2936,733.75,52.2927,55.6239,150.219,105.27,3.98658,0.00480582,0.242335,20.7635,502.574,29.5718,0.0,0.0
2944,735.75,52.2031,55.8189,144.993,105.346,3.98943,0.00476999,0.238975,20.7674,502.534,29.5719,0.0,0.0
2952,737.75,51.9997,55.5673,147.393,105.385,4.0165,0.00455283,0.234818,20.7733,502.433,29.5142,0.0,0.0
2960,739.75,51.6156,55.4818,153.416,105.399,3.9956,0.00435911,0.230075,20.781,502.353,29.5625,0.0,0.0
2968,741.75,51.2738,55.1186,146.856,105.358,4.01935,0.00434824,0.225601,20.7848,502.303,29.5054,0.0,0.0
2976,743.75,51.0048,54.9813,147.254,105.287,4.00605,0.00440005,0.223291,20.7875,502.213,29.5293,0.0,0.0
2984,745.75,50.8155,54.5258,143.991,105.18,4.00558,0.00450868,0.221753,20.79,502.183,29.5211,0.0,0.0
2992,747.75,50.7205,54.7244,147.975,105.057,4.04309,0.00467726,0.219362,20.7937,502.083,29.4264,0.0,0.0
3000,749.75,50.7087,54.0061,144.126,104.881,3.93529,0.00489651,0.216367,20.798,501.993,29.6554,0.0,0.0
3008,751.75,50.0809,54.1026,149.195,104.69,3.93339,0.00515708,0.212549,20.802,501.943,29.6433,0.0,0.0
3016,753.75,50.0646,53.6673,148.348,104.475,3.91867,0.00534926,0.20965,20.8054,501.873,29.6585,0.0,0.0
3024,755.75,49.9406,53.8166,147.241,104.251,3.94289,0.00537864,0.207039,20.8086,501.813,29.5835,0.0,0.0
3032,757.75,50.1139,53.2635,148.966,104.03,3.9296,0.00541061,0.203741,20.8131,501.753,29.5949,0.0,0.0
3040,759.75,49.6896,53.1324,147.341,103.835,3.89113,0.00565329,0.200193,20.8164,501.723,29.6668,0.0,0.0
3048,761.75,49.4844,52.7962,147.777,103.663,3.90538,0.00597076,0.196107,20.8217,501.673,29.6187,0.0,0.0
3056,763.75,48.8963,52.4206,145.335,103.544,3.87973,0.00635219,0.19165,20.8262,501.633,29.6679,0.0,0.0
3064,765.75,48.8572,52.0492,143.946,103.451,3.86026,0.00669497,0.188117,20.8305,501.563,29.7053,0.0,0.0
3072,767.75,48.2478,51.6849,149.17,103.414,3.89493,0.00702346,0.184829,20.8345,501.533,29.6213,0.0,0.0
3080,769.75,47.865,51.5939,148.244,103.45,3.88638,0.00740405,0.182203,20.837,501.493,29.6443,0.0,0.0
3088,771.75,47.7486,51.042,148.674,103.519,3.87831,0.00777908,0.180172,20.8386,501.433,29.6691,0.0,0.0
3096,773.75,47.6173,50.8399,151.448,103.645,3.91962,0.00809762,0.177946,20.8405,501.443,29.5843,0.0,0.0
3104,775.75,47.2589,51.1521,147.007,103.776,3.94384,0.0083029,0.175299,20.8441,501.342,29.54,0.0,0.0
3112,777.75,47.1463,50.3863,148.998,103.944,3.93814,0.00846781,0.172635,20.8476,501.322,29.5678,0.0,0.0
3120,779.75,46.9759,49.9029,149.466,104.126,3.91013,0.0086382,0.170533,20.8503,501.322,29.648,0.0,0.0
3128,781.75,46.3322,49.8272,151.428,104.29,3.85789,0.00893918,0.168105,20.8532,501.272,29.7838,0.0,0.0
3136,783.75,46.1063,49.732,148.912,104.436,3.89683,0.00935196,0.165845,20.8565,501.262,29.7057,0.0,0.0
3144,785.75,45.8068,48.9346,153.077,104.569,3.88876,0.00983396,0.163648,20.8587,501.222,29.7359,0.0,0.0
3152,787.75,45.2102,48.9581,148.804,104.663,3.91962,0.0102969,0.161805,20.8606,501.182,29.6726,0.0,0.0
3160,789.75,44.8611,48.8869,149.538,104.718,3.89968,0.0105579,0.160435,20.8618,501.162,29.7234,0.0,0.0
3168,791.75,45.0138,48.0723,149.701,104.737,3.88401,0.0106908,0.159629,20.8638,501.122,29.7614,0.0,0.0
3176,793.75,45.3285,48.0561,149.52,104.71,3.83225,0.0106914,0.15863,20.8649,501.102,29.8803,0.0,0.0
3184,795.75,44.654,47.3846,150.265,104.63,3.90348,0.0107214,0.157438,20.8666,501.122,29.707,0.0,0.0
3192,797.75,44.0654,47.058,151.18,104.531,3.90823,0.0108811,0.156658,20.8677,501.082,29.6875,0.0,0.0
3200,799.75,43.966,47.0967,151.927,104.391,3.87261,0.011099,0.156455,20.8681,501.072,29.7581,0.0,0.0
3208,801.75,44.0315,47.0553,153.587,104.289,3.89398,0.0113562,0.156307,20.8684,500.992,29.6996,0.0,0.0
3216,803.75,43.5555,46.9688,149.884,104.199,3.92295,0.0114265,0.155895,20.869,500.942,29.6248,0.0,0.0
3224,805.75,43.723,46.6807,148.615,104.12,3.85409,0.0113565,0.155502,20.8693,500.912,29.7779,0.0,0.0
3232,807.75,43.0258,45.526,154.281,104.106,3.87783,0.0113184,0.155113,20.8694,500.912,29.7212,0.0,0.0
3240,809.75,43.0013,45.3934,148.929,104.409,3.86406,0.0113672,0.154703,20.8704,500.882,29.7796,0.0,0.0
3248,811.75,42.5343,45.5043,148.644,104.69,3.87973,0.0114313,0.153559,20.8711,500.812,29.7674,0.0,0.0
3256,813.75,42.4654,45.2843,153.193,104.872,3.91962,0.0114042,0.152989,20.8715,500.782,29.6906,0.0,0.0
3264,815.75,41.6705,44.4823,155.103,104.965,3.91535,0.0113204,0.152587,20.8715,500.792,29.7085,0.0,0.0
3272,817.75,41.5955,44.5588,147.716,104.976,3.9125,0.011285,0.152506,20.8712,500.782,29.716,0.0,0.0
3280,819.75,41.9859,44.7138,153.141,104.904,3.91487,0.011311,0.151928,20.8719,500.752,29.7043,0.0,0.0
3288,821.75,41.7573,43.8948,149.288,104.707,3.92865,0.0114366,0.151345,20.8727,500.722,29.6556,0.0,0.0
3296,823.75,41.5192,44.1516,151.31,104.486,3.8351,0.0115673,0.151115,20.8733,500.682,29.8542,0.0,0.0
3304,825.75,41.6488,44.2187,151.796,104.599,3.87736,0.0116932,0.150947,20.8738,500.692,29.765,0.0,0.0
3312,827.75,41.1537,43.8434,153.98,104.741,3.88353,0.0117615,0.150919,20.874,500.642,29.7629,0.0,0.0
3320,829.75,40.6443,43.2846,147.861,104.921,3.88401,0.0117309,0.150494,20.8741,500.582,29.7773,0.0,0.0
3328,831.75,40.9403,43.4269,149.166,105.096,3.92152,0.0116198,0.150176,20.8747,500.582,29.7055,0.0,0.0
3336,833.75,40.6895,42.9879,152.34,105.245,3.8954,0.0115866,0.149902,20.8757,500.542,29.7787,0.0,0.0
3344,835.75,40.4901,42.8499,156.569,105.349,3.88781,0.0116649,0.149681,20.8761,500.522,29.8052,0.0,0.0
3352,837.75,40.6405,42.9465,150.103,105.404,3.87593,0.0117243,0.149733,20.8767,500.482,29.8376,0.0,0.0
3360,839.75,40.1183,42.623,151.533,105.4,3.9144,0.0117137,0.149594,20.877,500.512,29.748,0.0,0.0
3368,841.75,40.0982,42.7055,152.329,105.29,3.85884,0.0116514,0.149095,20.8772,500.472,29.8677,0.0,0.0
3376,843.75,40.1958,42.2274,149.99,105.137,3.86549,0.0115081,0.148753,20.8773,500.462,29.839,0.0,0.0
3384,845.75,40.3923,42.2363,153.006,104.925,3.87309,0.0113658,0.148647,20.8773,500.412,29.8031,0.0,0.0
3392,847.75,39.887,42.1528,153.716,104.652,3.84649,0.0113337,0.148584,20.8772,500.362,29.8418,0.0,0.0
3400,849.75,39.8998,42.1522,155.603,104.369,3.83842,0.0113261,0.148601,20.8781,500.402,29.8363,0.0,0.0
3408,851.75,40.0694,42.2307,151.79,104.045,3.85646,0.0113507,0.148049,20.8789,500.342,29.7659,0.0,0.0
3416,853.75,39.8009,42.1278,155.684,103.789,3.84222,0.0113588,0.147719,20.8792,500.332,29.777,0.0,0.0
3424,855.75,39.516,41.4775,150.695,103.6,3.80185,0.0114381,0.147996,20.8793,500.282,29.856,0.0,0.0
3432,857.75,39.6811,41.8565,153.034,103.473,3.78428,0.0115656,0.147829,20.8794,500.282,29.8867,0.0,0.0
3440,859.75,39.5134,41.6534,151.716,103.456,3.80565,0.0116414,0.147446,20.8804,500.262,29.8344,0.0,0.0
3448,861.75,39.8695,41.9315,152.248,103.521,3.8199,0.0117165,0.147363,20.8811,500.272,29.8063,0.0,0.0
3456,863.75,39.6632,41.2569,155.521,103.665,3.82702,0.0117753,0.147251,20.8815,500.231,29.802,0.0,0.0
3464,865.75,39.4732,40.8587,152.599,103.855,3.87024,0.0116545,0.146918,20.8816,500.111,29.7172,0.0,0.0
3472,867.75,39.5194,41.4258,150.248,104.075,3.85741,0.0114482,0.146749,20.8817,500.141,29.7662,0.0,0.0
3480,869.75,39.0779,41.4391,153.424,104.293,3.85124,0.0112751,0.146842,20.8815,500.121,29.7996,0.0,0.0
3488,871.75,39.7486,41.3659,152.812,104.498,3.80755,0.0111356,0.146915,20.8803,500.121,29.9204,0.0,0.0
3496,873.75,39.1237,40.6317,150.259,104.651,3.84032,0.0110816,0.146886,20.8806,500.091,29.8562,0.0,0.0
3504,875.75,39.1527,40.8096,147.388,104.726,3.86026,0.011079,0.14632,20.8813,500.111,29.8159,0.0,0.0
3512,877.75,39.0938,41.2361,146.507,104.757,3.88163,0.0110856,0.146113,20.8815,500.091,29.7687,0.0,0.0
3520,879.75,39.2951,40.8178,153.393,104.715,3.83842,0.0111577,0.146227,20.8817,500.051,29.8662,0.0,0.0
3528,881.75,38.7848,40.6268,154.444,104.6,3.88258,0.0112643,0.146152,20.8817,499.971,29.7529,0.0,0.0
3536,883.75,39.1909,40.8194,150.75,104.441,3.83082,0.0111951,0.145709,20.8817,499.981,29.8604,0.0,0.0
3544,885.75,39.3678,40.7147,155.273,104.279,3.8351,0.0110899,0.145248,20.8829,499.931,29.8363,0.0,0.0
3552,887.75,38.9132,40.2428,149.273,104.165,3.81468,0.0111515,0.14506,20.8836,499.941,29.8747,0.0,0.0
3560,889.75,38.7819,40.426,152.239,104.08,3.8237,0.0111825,0.145136,20.8839,499.871,29.8459,0.0,0.0
3568,891.75,39.1071,40.2354,150.763,104.316,3.85314,0.0111595,0.144745,20.884,499.881,29.7971,0.0,0.0
3576,893.75,39.004,40.028,146.648,104.651,3.85362,0.0111919,0.144206,20.8851,499.821,29.825,0.0,0.0
3584,895.75,38.9847,39.9626,152.885,104.859,3.80755,0.0112167,0.143927,20.8861,499.741,29.9516,0.0,0.0
3592,897.75,38.942,40.3043,153.755,104.949,3.8332,0.0111288,0.144131,20.8866,499.801,29.8986,0.0,0.0
3600,899.75,38.7071,40.1755,152.923,104.933,3.88116,0.0111069,0.144301,20.8869,499.801,29.785,0.0,0.0
3608,901.75,38.85,40.2765,152.613,104.77,3.82227,0.0112068,0.144463,20.887,499.781,29.909,0.0,0.0
3616,903.75,38.4657,40.1102,151.404,104.497,3.77526,0.0112977,0.1447,20.887,499.781,29.9972,0.0,0.0
3624,905.75,38.5665,40.3047,153.87,104.574,3.81563,0.0112838,0.144904,20.887,499.711,29.9078,0.0,0.0
3632,907.75,38.5488,40.0159,151.542,104.768,3.82037,0.011253,0.144444,20.887,499.661,29.9133,0.0,0.0
3640,909.75,38.6168,40.4264,150.098,104.942,3.84744,0.0113106,0.144058,20.887,499.651,29.8645,0.0,0.0
3648,911.75,38.769,39.8096,149.404,105.119,3.83367,0.0113574,0.144277,20.8858,499.601,29.9122,0.0,0.0
3656,913.75,38.5985,40.368,154.096,105.258,3.8351,0.0112899,0.144316,20.8852,499.581,29.9207,0.0,0.0
3664,915.75,38.558,39.9134,155.323,105.355,3.83225,0.0112079,0.144262,20.8849,499.551,29.9358,0.0,0.0
3672,917.75,38.7976,40.2838,152.12,105.394,3.82607,,0.14429,,499.561,29.9537,0.0,0.0
3680,919.75,38.4058,40.2396,151.159,105.376,3.88163,,,,499.511,29.8219,0.0,0.0
3688,921.75,38.6924,40.3589,151.38,105.288,3.84934,,,,499.571,29.8898,0.0,0.0
3696,923.75,38.5546,39.9308,151.097,105.166,3.83605,,,,499.481,29.9106,0.0,0.0
3704,925.75,38.4166,40.167,152.832,105.013,3.80755,,,,499.461,29.9648,0.0,0.0
3711,927.5,38.1891,40.1947,153.251,104.826,3.85979,,,,499.441,29.8257,0.0,0.0