File: 01_Data/Pine_Siding/Cone/Pine_Siding_Cone_HF50Scan_221004_R1.csv
Names,Time,Stack TC,Smoke TC,Exh Press,Smoke Comp,Smoke Meas,CO Meter,CO2 Meter,O2 Meter,Sample Mass,Ext Coeff,Start Test,Flame Verif
Chan Gain,,500,500,1,1,1,1,1,1,1,1,1.0,1.0
Offset,,0,0,0.13918,0,0,0,0,0,0,0,0.0,0.0
Gain,,1,1,25.011,14.0162,15.5607,1,1,1,1.0009,1.02981,1.0,1.0
Units,sec,C,C,Pa,%,%,%,%,%,g,/m,,
Baseline,,27.6404,28.9139,158.104,104.944,3.56957,0.000761789,0.0868108,20.9557,-2.49408,30.5421,,
8,1.75,26.5567,27.9896,156.686,104.623,3.59861,0.000598732,0.0902793,20.9495,559.195,30.441,0.0,0.0
16,3.75,26.8561,28.2721,156.074,104.625,3.55159,0.000601489,0.0903647,20.9502,559.065,30.56,0.0,0.0
24,5.75,26.6456,28.2397,155.705,104.619,3.55539,0.000746484,0.0907154,20.9505,559.025,30.5499,0.0,0.0
32,7.75,26.691,28.4961,162.469,104.59,3.53165,0.000981684,0.090929,20.9493,558.965,30.6078,0.0,0.0
40,9.75,27.1008,27.9664,158.724,104.549,3.51693,0.00132184,0.091728,20.9472,558.934,30.6421,0.0,0.0
48,11.75,27.1892,28.1693,145.742,104.493,3.69786,0.00181923,0.120692,20.9105,558.834,30.184,0.0,1.0
56,13.75,28.5418,28.9395,136.53,104.435,3.69453,0.0025167,0.216476,20.8141,558.534,30.1871,0.0,1.0
64,15.75,30.0419,29.9953,133.125,104.362,3.72682,0.00351515,0.33772,20.6531,558.154,30.1022,0.0,0.0
72,17.75,32.6089,32.1047,128.445,104.283,3.77146,0.00468694,0.466028,20.4939,557.813,29.9878,0.0,0.0
80,19.75,35.4862,34.4682,133.533,104.187,3.74439,0.00600409,0.573894,20.3738,557.443,30.0446,0.0,0.0
88,21.75,37.839,36.9547,133.07,104.094,3.72825,0.00669289,0.628894,20.3023,557.063,30.0755,0.0,0.0
96,23.75,39.893,39.4846,139.42,103.998,3.78238,0.00689548,0.639044,20.2784,556.722,29.937,0.0,0.0
104,25.75,41.651,41.322,138.528,103.901,3.6271,0.00679205,0.615327,20.2993,556.402,30.3072,0.0,0.0
112,27.75,43.0867,42.44,135.511,103.798,3.73965,0.00647098,0.580879,20.3362,556.132,30.0223,0.0,0.0
120,29.75,44.0257,43.7836,140.921,103.725,3.66794,0.00617271,0.546659,20.3799,555.832,30.1908,0.0,0.0
128,31.75,45.0444,45.2655,142.656,103.607,3.73775,0.00597091,0.518874,20.4177,555.561,30.0102,0.0,0.0
136,33.75,45.6343,45.8286,140.131,103.529,3.65654,0.00581295,0.496322,20.444,555.341,30.2018,0.0,0.0
144,35.75,46.2889,47.1011,145.029,103.463,3.6366,0.00572211,0.476322,20.4684,555.051,30.2454,0.0,0.0
152,37.75,47.0153,47.6597,143.769,103.412,3.65179,0.00550407,0.459248,20.4936,554.841,30.2033,0.0,0.0
160,39.75,47.22,48.0435,141.595,103.351,3.67411,0.00521145,0.444512,20.5108,554.611,30.143,0.0,0.0
168,41.75,47.6402,48.8912,138.048,103.318,3.6119,0.00488461,0.430254,20.5295,554.35,30.2943,0.0,0.0
176,43.75,48.1072,49.3016,145.113,103.3,3.71068,0.00467191,0.419659,20.5433,554.15,30.0491,0.0,0.0
184,45.75,48.1334,49.6665,139.806,103.286,3.6233,0.00451849,0.411026,20.555,553.95,30.2631,0.0,0.0
192,47.75,48.5527,50.0277,144.386,103.296,3.65797,0.00444644,0.401521,20.5664,553.72,30.1779,0.0,0.0
200,49.75,49.0996,50.2001,142.93,103.316,3.67649,0.00438979,0.393141,20.5786,553.49,30.1341,0.0,0.0
208,51.75,48.4428,50.8714,144.123,103.349,3.70023,0.00423761,0.384463,20.5909,553.279,30.0788,0.0,0.0
216,53.75,49.1443,51.3915,147.354,103.4,3.62805,0.00398434,0.376585,20.5995,553.099,30.2612,0.0,0.0
224,55.75,49.2511,51.4672,142.943,103.464,3.69786,0.00372084,0.369788,20.6076,552.879,30.0946,0.0,0.0
232,57.75,49.4237,51.7016,142.386,103.537,3.70023,0.00342192,0.363454,20.6168,552.689,30.0952,0.0,0.0
240,59.75,48.991,51.8781,150.52,103.612,3.66557,0.0031042,0.358013,20.6255,552.499,30.1868,0.0,0.0
248,61.75,49.698,52.12,143.771,103.703,3.66272,0.00282864,0.354101,20.6306,552.329,30.2017,0.0,0.0
256,63.75,49.6556,52.1827,148.164,103.799,3.66224,0.00274188,0.348987,20.6362,552.138,30.2112,0.0,0.0
264,65.75,49.2373,52.2581,147.125,103.901,3.714,0.00277252,0.343674,20.6425,551.948,30.0934,0.0,0.0
272,67.75,49.7809,52.6281,144.255,104.012,3.79901,0.00279421,0.339642,20.6469,551.758,29.8986,0.0,0.0
280,69.75,49.2124,52.2894,142.259,104.11,3.72492,0.00275955,0.336076,20.6521,551.608,30.0849,0.0,0.0
288,71.75,49.6634,52.7279,143.946,104.213,3.79663,0.00265191,0.332178,20.6581,551.428,29.9217,0.0,0.0
296,73.75,49.415,52.9521,143.999,104.317,3.76576,0.00258791,0.327535,20.6644,551.248,30.0044,0.0,0.0
304,75.75,49.1655,52.6101,144.407,104.432,3.75722,0.00257258,0.323052,20.6695,551.087,30.0349,0.0,0.0
312,77.75,49.3285,52.9796,150.168,104.535,3.81278,0.00255151,0.318607,20.6751,550.877,29.9112,0.0,0.0
320,79.75,49.2937,52.8771,147.839,104.631,3.92722,0.0025097,0.314824,20.6791,550.737,29.6524,0.0,0.0
328,81.75,49.02,52.8387,145.753,104.725,3.80708,0.00235428,0.311778,20.6827,550.597,29.9411,0.0,0.0
336,83.75,48.9443,52.747,146.94,104.817,3.79948,0.00212427,0.309829,20.6856,550.417,29.9671,0.0,0.0
344,85.75,49.0406,53.0305,146.048,104.919,3.80423,0.00204991,0.307318,20.6886,550.257,29.9646,0.0,0.0
352,87.75,49.0886,52.9632,144.036,105.002,3.84792,0.00211417,0.304355,20.6915,550.086,29.8686,0.0,0.0
360,89.75,49.1074,52.8669,143.597,105.075,3.91108,0.00219447,0.30169,20.6955,549.906,29.7278,0.0,0.0
368,91.75,48.5464,52.9774,144.133,105.14,3.86074,0.00222209,0.299535,20.6988,549.746,29.8504,0.0,0.0
376,93.75,49.1888,52.4802,150.023,105.194,3.79141,0.00220963,0.297413,20.7029,549.586,30.0188,0.0,0.0
384,95.75,48.7329,52.465,147.103,105.237,3.85741,0.00219152,0.295721,20.7046,549.486,29.8665,0.0,0.0
392,97.75,48.586,52.5666,146.679,105.277,3.88923,0.0021464,0.294788,20.706,549.306,29.7958,0.0,0.0
400,99.75,48.5378,52.7282,144.596,105.31,3.9163,0.00208658,0.293985,20.7068,549.166,29.736,0.0,0.0
408,101.75,48.4456,52.8149,144.504,105.341,3.90585,0.00206376,0.293127,20.7078,548.985,29.7627,0.0,0.0
416,103.75,48.5289,52.5334,150.407,105.328,3.89873,0.00215579,0.291687,20.7093,548.835,29.7781,0.0,0.0
424,105.75,48.647,52.6173,147.541,105.335,3.87261,0.00222901,0.290272,20.7109,548.695,29.8394,0.0,0.0
432,107.75,48.6842,52.3753,142.111,105.323,3.8992,0.00222647,0.289729,20.7119,548.545,29.7765,0.0,0.0
440,109.75,48.3114,52.4006,145.033,105.313,3.84174,0.00214091,0.288975,20.7131,548.395,29.9098,0.0,0.0
448,111.75,48.1576,52.5053,156.598,105.307,3.86121,0.0020938,0.287739,20.7143,548.225,29.8636,0.0,0.0
456,113.75,48.2664,52.4281,145.347,105.253,3.88021,0.00213744,0.287585,20.7152,548.035,29.8147,0.0,0.0
464,115.75,48.2497,52.3848,144.852,105.219,3.95049,0.00216343,0.287711,20.7149,547.945,29.6496,0.0,0.0
472,117.75,48.5919,51.9924,149.013,105.165,3.88021,0.00218121,0.287056,20.7146,547.784,29.8071,0.0,0.0
480,119.75,47.9251,52.665,146.062,105.112,3.93197,0.00221001,0.286048,20.7162,547.604,29.6828,0.0,0.0
488,121.75,48.6682,51.8927,151.264,105.055,3.95144,0.00222202,0.284431,20.7186,547.474,29.6334,0.0,0.0
496,123.75,48.3253,51.9552,145.634,104.995,3.89018,0.00218043,0.281823,20.7217,547.314,29.7694,0.0,0.0
504,125.75,47.8817,52.2571,145.997,104.939,3.93102,0.00207967,0.280059,20.7236,547.164,29.6702,0.0,0.0
512,127.75,47.8917,52.1105,147.416,104.883,3.89493,0.00204124,0.279701,20.7245,547.064,29.7487,0.0,0.0
520,129.75,48.0138,52.12,143.825,104.812,3.87973,0.0021808,0.279383,20.7257,546.854,29.7778,0.0,0.0
528,131.75,48.1726,51.766,144.755,104.743,3.94622,0.00244901,0.278596,20.7267,546.763,29.6184,0.0,0.0
536,133.75,47.3181,52.299,147.889,104.676,3.95809,0.0025212,0.277497,20.7271,546.563,29.5855,0.0,0.0
544,135.75,48.1216,52.1401,146.198,104.622,3.85267,0.00254172,0.276639,20.7273,546.443,29.8247,0.0,0.0
552,137.75,48.3094,52.1741,145.932,104.552,3.91392,0.00257754,0.276244,20.7276,546.263,29.6762,0.0,0.0
560,139.75,47.7695,52.4804,146.831,104.511,3.8973,0.00255619,0.276099,20.7288,546.113,29.711,0.0,0.0
568,141.75,47.5303,52.0721,148.592,104.476,3.87736,0.00248829,0.275819,20.7294,546.003,29.7544,0.0,0.0
576,143.75,47.541,51.6778,144.212,104.436,3.93197,0.00240907,0.275484,20.7296,545.893,29.6246,0.0,0.0
584,145.75,47.4189,52.2889,147.062,104.495,3.93719,0.00235575,0.274544,20.7308,545.723,29.6177,0.0,0.0
592,147.75,47.4395,51.4051,144.608,104.602,3.91108,0.00241151,0.273794,20.7315,545.582,29.6871,0.0,0.0
600,149.75,47.8661,52.0496,144.906,104.681,3.92532,0.0024413,0.273461,20.7315,545.432,29.661,0.0,0.0
608,151.75,47.6749,51.5428,150.677,104.765,3.94052,0.00239781,0.272656,20.7313,545.262,29.6334,0.0,0.0
616,153.75,47.511,51.5714,146.525,104.821,3.95714,0.00238618,0.271613,20.7313,545.152,29.6002,0.0,0.0
624,155.75,47.5292,51.2853,148.324,104.867,3.92485,0.00240644,0.272919,20.7303,545.012,29.6781,0.0,0.0
632,157.75,47.5483,51.7135,145.798,104.904,3.93482,0.002384,0.274138,20.7295,544.862,29.6584,0.0,0.0
640,159.75,47.1817,51.9802,148.25,104.936,3.92532,0.00229294,0.273453,20.7305,544.682,29.683,0.0,0.0
648,161.75,47.3271,51.7352,146.348,104.951,3.93719,0.0022468,0.272084,20.7318,544.552,29.657,0.0,0.0
656,163.75,47.0096,51.528,146.316,104.981,3.91962,0.0022827,0.271178,20.7336,544.401,29.7,0.0,0.0
664,165.75,47.2375,51.476,146.632,104.961,3.97613,0.00227001,0.270757,20.7355,544.271,29.569,0.0,0.0
672,167.75,47.191,51.3542,148.483,104.957,3.95002,0.00219027,0.269365,20.7365,544.141,29.6282,0.0,0.0
680,169.75,47.193,51.2263,152.023,104.929,3.98801,0.00219669,0.269127,20.737,543.991,29.5393,0.0,0.0
688,171.75,47.0665,51.1104,146.707,104.891,3.9277,0.00226685,0.268891,20.7374,543.831,29.6737,0.0,0.0
696,173.75,46.8159,51.2014,149.072,104.849,3.93102,0.00234207,0.268047,20.739,543.711,29.6624,0.0,0.0
704,175.75,47.5427,50.7904,148.458,104.803,3.94717,0.00239956,0.267713,20.7399,543.561,29.6214,0.0,0.0
712,177.75,46.6915,51.3556,146.204,104.744,3.94337,0.00241161,0.267834,20.7403,543.42,29.625,0.0,0.0
720,179.75,46.7893,51.1723,150.127,104.669,3.88923,0.00234709,0.267114,20.7412,543.31,29.7435,0.0,0.0
728,181.75,47.0253,51.0058,145.233,104.59,3.92437,0.0022566,0.266389,20.743,543.18,29.6553,0.0,0.0
736,183.75,46.8734,50.9637,146.252,104.496,3.91345,0.0022404,0.265274,20.7435,543.01,29.6724,0.0,0.0
744,185.75,47.0024,51.1706,146.883,104.39,3.91582,0.00232637,0.263947,20.7438,542.89,29.6578,0.0,0.0
752,187.75,46.6161,50.7525,147.837,104.288,3.9239,0.0023363,0.263239,20.7439,542.72,29.6303,0.0,0.0
760,189.75,46.504,51.0327,146.032,104.176,3.95761,0.00225981,0.263965,20.7439,542.6,29.5433,0.0,0.0
768,191.75,46.7361,50.8622,146.354,104.073,3.91867,0.0021419,0.264753,20.743,542.45,29.6237,0.0,0.0
776,193.75,46.691,50.6768,148.667,104.076,3.9277,0.00197945,0.265217,20.7422,542.32,29.6032,0.0,0.0
784,195.75,46.642,50.8748,147.609,104.086,3.91345,0.00187773,0.265649,20.7419,542.189,29.6369,0.0,0.0
792,197.75,46.7764,50.6127,148.905,104.101,3.85884,0.00185279,0.265703,20.7417,542.049,29.7652,0.0,0.0
800,199.75,46.7368,50.5777,147.559,104.121,3.93767,0.00189739,0.265417,20.7417,541.879,29.5842,0.0,0.0
808,201.75,46.7646,50.4517,149.356,104.158,3.92722,0.00197449,0.266133,20.7417,541.769,29.6114,0.0,0.0
816,203.75,46.8475,51,149.53,104.195,3.93767,0.00204864,0.266532,20.7412,541.599,29.5906,0.0,0.0
824,205.75,46.8354,50.9108,142.715,104.227,3.89256,0.00219762,0.265343,20.7427,541.459,29.6975,0.0,0.0
832,207.75,47.0834,50.7312,143.572,104.256,3.94622,0.00232426,0.264449,20.7447,541.379,29.5763,0.0,0.0
840,209.75,46.8139,50.6442,148.073,104.287,3.91915,0.00231004,0.263202,20.7469,541.269,29.6412,0.0,0.0
848,211.75,46.962,50.6205,143.175,104.319,3.93434,0.00218826,0.261789,20.749,541.068,29.609,0.0,0.0
856,213.75,47.0778,50.1876,143.185,104.351,3.97613,0.00209088,0.261997,20.7504,540.968,29.5163,0.0,0.0
864,215.75,47.1237,50.6842,151.546,104.377,3.95002,0.00200491,0.263411,20.7487,540.838,29.5781,0.0,0.0
872,217.75,47.0527,50.7435,144.27,104.401,3.97328,0.00191693,0.264311,20.7478,540.718,29.5271,0.0,0.0
880,219.75,47.0489,50.6776,146.416,104.43,3.92437,0.00188899,0.262977,20.7489,540.568,29.6415,0.0,0.0
888,221.75,46.6546,50.4189,148.386,104.449,3.96854,0.00193335,0.26039,20.7505,540.428,29.5421,0.0,0.0
896,223.75,46.9279,50.3884,148.961,104.488,3.95619,0.00194608,0.26069,20.7504,540.268,29.5736,0.0,0.0
904,225.75,46.855,50.1501,142.124,104.507,3.95904,0.001866,0.261187,20.7494,540.138,29.5687,0.0,0.0
912,227.75,46.8755,50.6481,147.903,104.529,3.93339,0.0018177,0.261293,20.7489,540.007,29.6293,0.0,0.0
920,229.75,46.8671,50.4608,146.303,104.559,3.95856,0.00177803,0.262269,20.747,539.897,29.5743,0.0,0.0
928,231.75,46.6334,50.6919,141.821,104.574,3.94099,0.00163553,0.263425,20.7459,539.757,29.6158,0.0,0.0
936,233.75,46.8755,50.4913,144.348,104.583,3.91582,0.00164249,0.263458,20.7467,539.607,29.6744,0.0,0.0
944,235.75,46.9073,50.7241,147.966,104.601,3.98516,0.00177435,0.262854,20.7472,539.447,29.5174,0.0,0.0
952,237.75,46.8378,50.4624,148.281,104.607,4.0013,0.00190224,0.261886,20.7474,539.347,29.4814,0.0,0.0
960,239.75,47.1666,49.8903,145.252,104.615,4.01697,0.00189965,0.261445,20.7475,539.217,29.4468,0.0,0.0
968,241.75,46.6477,50.4174,153.957,104.609,3.95809,0.00183225,0.260506,20.7475,539.057,29.5797,0.0,0.0
976,243.75,46.9365,50.7193,147.185,104.608,3.94907,0.00187975,0.260178,20.7488,538.956,29.6002,0.0,0.0
984,245.75,46.3524,50.7201,150.34,104.608,3.9087,0.00203918,0.259756,20.7494,538.816,29.6931,0.0,0.0
992,247.75,46.7914,50.5095,144.833,104.587,3.97423,0.00211327,0.259421,20.7497,538.676,29.541,0.0,0.0
1000,249.75,46.6051,50.7562,147.783,104.58,3.91203,0.0021021,0.259137,20.7498,538.536,29.683,0.0,0.0
1008,251.75,47.3472,49.8753,145.036,104.566,4.02315,0.00214908,0.259193,20.7501,538.416,29.4287,0.0,0.0
1016,253.75,46.7948,50.5261,147.514,104.527,4.06114,0.00222827,0.259838,20.7513,538.246,29.3405,0.0,0.0
1024,255.75,46.6203,51.0025,141.018,104.512,3.91772,0.00221255,0.260066,20.7518,538.146,29.6639,0.0,0.0
1032,257.75,46.8972,50.8086,152.913,104.483,3.90728,0.00215435,0.260157,20.752,538.016,29.6856,0.0,0.0
1040,259.75,46.5624,51.1723,148.456,104.453,3.86834,0.00213615,0.259298,20.7532,537.885,29.7734,0.0,0.0
1048,261.75,47.5275,50.1307,149.123,104.425,3.94812,0.00215454,0.257912,20.754,537.745,29.5866,0.0,0.0
1056,263.75,47.1471,49.8974,150.064,104.385,3.94527,0.00227089,0.257475,20.7537,537.615,29.5897,0.0,0.0
1064,265.75,46.7333,50.2548,146.612,104.336,3.99133,0.00235544,0.258482,20.7528,537.465,29.4805,0.0,0.0
1072,267.75,46.4997,51.0522,146.225,104.286,3.8973,0.00233589,0.259078,20.7525,537.335,29.6916,0.0,0.0
1080,269.75,46.8273,50.464,146.266,104.254,3.94764,0.00221029,0.259272,20.7523,537.255,29.5729,0.0,0.0
1088,271.75,47.066,50.5158,146.845,104.208,3.9182,0.00204422,0.259718,20.7523,537.115,29.6365,0.0,0.0
1096,273.75,46.7675,50.802,152.726,104.163,4.02695,0.00203809,0.259546,20.7509,536.955,29.3853,0.0,0.0
1104,275.75,47.1491,50.3238,143.491,104.113,3.99418,0.0021135,0.260784,20.7503,536.834,29.4548,0.0,0.0
1112,277.75,47.0184,50.5452,149.492,104.063,3.9315,0.00213148,0.260783,20.7506,536.674,29.5933,0.0,0.0
1120,279.75,47.1342,50.3148,148.247,104.021,3.95239,0.00205867,0.259624,20.7513,536.564,29.5418,0.0,0.0
1128,281.75,46.6867,51.0021,143.67,103.974,3.922,0.00209192,0.259872,20.7518,536.464,29.6075,0.0,0.0
1136,283.75,47.1648,50.2196,148.691,103.922,3.94717,0.00222139,0.260891,20.7512,536.304,29.5452,0.0,0.0
1144,285.75,47.3886,50.3469,148.822,103.866,3.91677,0.00231257,0.261206,20.7493,536.144,29.6101,0.0,0.0
1152,287.75,47.4278,50.5752,145.293,103.813,3.93055,0.00233624,0.26145,20.7491,536.024,29.5738,0.0,0.0
1160,289.75,47.9733,51.2998,146.392,103.761,4.07158,0.00234982,0.261261,20.7496,535.904,29.2508,0.0,0.0
1168,291.75,47.5731,50.3611,148.863,103.712,3.93482,0.00240605,0.2605,20.7507,535.774,29.5552,0.0,0.0
1176,293.75,47.3565,50.371,148.135,103.655,3.92342,0.00251792,0.259959,20.7516,535.653,29.5765,0.0,0.0
1184,295.75,47.3687,50.636,145.795,103.608,3.92342,0.00258263,0.26009,20.7519,535.523,29.5723,0.0,0.0
1192,297.75,47.2084,50.3534,143.595,103.556,3.94099,0.00251092,0.260714,20.7521,535.393,29.5274,0.0,0.0
1200,299.75,47.4175,50.9079,144.729,103.523,3.92295,0.00237845,0.262385,20.7489,535.283,29.566,0.0,0.0
1208,301.75,47.4483,50.476,148.024,103.485,3.95191,0.00230404,0.26285,20.7468,535.163,29.4962,0.0,0.0
1216,303.75,47.3052,50.8313,146.409,103.459,3.93767,0.00230686,0.263168,20.7459,534.993,29.5266,0.0,0.0
1224,305.75,47.8181,50.7105,145.603,103.407,3.89778,0.00237147,0.263148,20.7457,534.863,29.614,0.0,0.0
1232,307.75,47.4093,50.6455,148.309,103.382,3.88448,0.00244999,0.262233,20.7464,534.743,29.6427,0.0,0.0
1240,309.75,47.0842,50.7513,144.03,103.344,3.97044,0.00248986,0.260953,20.7475,534.633,29.4417,0.0,0.0
1248,311.75,47.1939,50.3829,145.181,103.319,3.97946,0.0024654,0.261461,20.7474,534.492,29.419,0.0,0.0
1256,313.75,47.5064,50.8547,144.9,103.305,3.92152,0.00234128,0.262368,20.7462,534.352,29.5502,0.0,0.0
1264,315.75,47.5358,50.5913,151.483,103.281,3.97518,0.00215765,0.26192,20.7448,534.242,29.4254,0.0,0.0
1272,317.75,47.6556,50.6991,152.079,103.27,3.92722,0.00201926,0.261499,20.745,534.122,29.5341,0.0,0.0
1280,319.75,47.4016,50.957,151.426,103.257,3.91582,0.00193642,0.261365,20.7443,533.962,29.5592,0.0,0.0
1288,321.75,47.3168,50.5221,147.118,103.24,4.03692,0.00193839,0.261557,20.7449,533.842,29.2825,0.0,0.0
1296,323.75,47.2044,50.8047,145.137,103.236,3.90775,0.00203992,0.261936,20.7454,533.702,29.576,0.0,0.0
1304,325.75,47.5986,50.5786,148.052,103.24,3.94859,0.00225369,0.26189,20.7453,533.552,29.4825,0.0,0.0
1312,327.75,47.6034,50.5524,147.783,103.259,3.96474,0.00248385,0.263447,20.7453,533.431,29.4472,0.0,0.0
1320,329.75,47.5726,50.6044,149.925,103.254,3.92105,0.00252886,0.264486,20.7453,533.301,29.5469,0.0,0.0
1328,331.75,47.532,50.9187,148.904,103.246,3.91108,0.00242933,0.263941,20.7453,533.161,29.5692,0.0,0.0
1336,333.75,47.8269,50.9439,151.733,103.248,3.86359,0.00228817,0.26171,20.7465,533.061,29.6797,0.0,0.0
1344,335.75,47.6592,50.9509,142.956,103.265,3.94289,0.0021749,0.261695,20.7465,532.911,29.4976,0.0,0.0
1352,337.75,48.0124,50.832,145.147,103.283,3.93862,0.00210216,0.26228,20.7458,532.781,29.509,0.0,0.0
1360,339.75,47.5269,50.6429,140.728,103.289,3.94859,0.0020818,0.261903,20.7459,532.651,29.4867,0.0,0.0
1368,341.75,48.5563,50.6271,148.257,103.278,3.88876,0.00208134,0.261342,20.7464,532.541,29.6236,0.0,0.0
1376,343.75,48.2483,51.1709,147.863,103.299,3.9163,0.00211244,0.260515,20.7465,532.431,29.5618,0.0,0.0
1384,345.75,48.5152,50.6142,149.9,103.293,3.90205,0.00211323,0.259696,20.7465,532.29,29.5942,0.0,0.0
1392,347.75,47.3291,51.0885,143.367,103.297,3.98516,0.00213371,0.25999,20.7465,532.15,29.4042,0.0,0.0
1400,349.75,48.1218,50.4087,142.851,103.294,3.95856,0.00221182,0.260901,20.7465,532.02,29.4644,0.0,0.0
1408,351.75,47.2274,51.352,148.855,103.289,3.95334,0.00230143,0.261202,20.7456,531.87,29.4758,0.0,0.0
1416,353.75,47.3553,51.1161,148.987,103.272,3.9049,0.00241391,0.26232,20.7442,531.76,29.5858,0.0,0.0
1424,355.75,47.7414,50.9058,149.938,103.269,3.95002,0.00241693,0.263115,20.7429,531.66,29.4817,0.0,0.0
1432,357.75,48.0149,50.8491,147.065,103.255,3.92485,0.00238649,0.262549,20.7435,531.52,29.5382,0.0,0.0
1440,359.75,48.2405,50.7714,148.745,103.244,3.92437,0.00239196,0.261892,20.744,531.4,29.5384,0.0,0.0
1448,361.75,48.153,51.2205,143.357,103.228,3.98848,0.0023448,0.261404,20.7446,531.31,29.3906,0.0,0.0
1456,363.75,47.8662,51.085,145.887,103.222,3.922,0.00221841,0.261086,20.7449,531.169,29.5419,0.0,0.0
1464,365.75,48.021,51.0695,146.027,103.218,3.97471,0.00216177,0.261264,20.7462,530.999,29.4209,0.0,0.0
1472,367.75,47.7635,51.1318,148.592,103.235,3.98468,0.00220436,0.26162,20.7459,530.899,29.3998,0.0,0.0
1480,369.75,48.0425,51.2121,146.111,103.228,3.89303,0.00216674,0.26218,20.7457,530.789,29.6093,0.0,0.0
1488,371.75,47.8184,51.2929,146.321,103.239,3.94907,0.00203022,0.262233,20.7454,530.649,29.4812,0.0,0.0
1496,373.75,47.8545,51.419,147.929,103.269,3.9106,0.00188764,0.261858,20.7452,530.519,29.5723,0.0,0.0
1504,375.75,48.0739,51.0514,146.216,103.298,3.95286,0.00176363,0.26137,20.7463,530.399,29.4777,0.0,0.0
1512,377.75,47.6489,51.2744,144.565,103.32,3.99465,0.00167765,0.26083,20.7465,530.269,29.3847,0.0,0.0
1520,379.75,48.1063,51.233,144.763,103.385,3.99845,0.00154806,0.261804,20.7457,530.118,29.3817,0.0,0.0
1528,381.75,48.0758,51.3045,146.193,103.449,3.97661,0.00143659,0.263088,20.744,529.988,29.4368,0.0,0.0
1536,383.75,48.5016,51.2478,149.095,103.523,4.01412,0.00147673,0.263193,20.7433,529.868,29.3585,0.0,0.0
1544,385.75,48.2962,51.3854,147.896,103.576,4.06351,0.00162695,0.263305,20.7436,529.718,29.2526,0.0,0.0
1552,387.75,48.5081,51.399,150.575,103.666,4.04262,0.0018116,0.262773,20.7444,529.608,29.3071,0.0,0.0
1560,389.75,47.8582,51.8068,146.476,103.76,4.03834,0.00192299,0.262785,20.7448,529.538,29.3248,0.0,0.0
1568,391.75,48.1251,51.2901,145.208,103.85,3.99608,0.00185536,0.261523,20.7441,529.398,29.4276,0.0,0.0
1576,393.75,47.9428,51.1599,144.43,103.958,4.01222,0.00168075,0.26237,20.7428,529.278,29.4006,0.0,0.0
1584,395.75,48.1179,51.3524,146.69,104.039,3.96474,0.00146643,0.264278,20.7423,529.168,29.5152,0.0,0.0
1592,397.75,48.2021,51.4926,141.85,104.14,3.99133,0.00135536,0.264467,20.7421,529.047,29.4636,0.0,0.0
1600,399.75,48.3705,51.2233,145.826,104.231,3.99608,0.00140149,0.264637,20.742,528.877,29.4608,0.0,0.0
1608,401.75,48.4754,51.5097,145.682,104.32,3.98088,0.00155158,0.264544,20.7419,528.787,29.5029,0.0,0.0
1616,403.75,48.2767,51.7457,144.455,104.404,3.99988,0.00170098,0.264199,20.7419,528.677,29.4671,0.0,0.0
1624,405.75,48.1745,51.5964,143.797,104.479,4.03882,0.0016851,0.265093,20.7419,528.547,29.3861,0.0,0.0
1632,407.75,48.311,51.452,150.098,104.535,4.04452,0.00162047,0.264419,20.7419,528.417,29.3782,0.0,0.0
1640,409.75,48.1971,51.7667,146.552,104.577,4.06873,0.00161612,0.264708,20.7419,528.287,29.3279,0.0,0.0
1648,411.75,48.3556,51.6575,147.496,104.604,4.07253,0.00161432,0.266213,20.7401,528.167,29.3218,0.0,0.0
1656,413.75,48.142,51.8295,140.844,104.605,3.95191,0.00154173,0.267849,20.7388,528.047,29.5935,0.0,0.0
1664,415.75,48.639,51.6006,143.481,104.605,4.05021,0.00148953,0.268272,20.738,527.886,29.3715,0.0,0.0
1672,417.75,49.0777,50.9673,143.347,104.577,4.03549,0.00151372,0.267907,20.7385,527.776,29.402,0.0,0.0
1680,419.75,48.6639,51.5826,144.998,104.531,3.94479,0.00159003,0.267447,20.7391,527.636,29.6034,0.0,0.0
1688,421.75,49.5418,51.475,141.885,104.461,3.9975,0.00170091,0.267157,20.7394,527.486,29.4774,0.0,0.0
1696,423.75,49.589,51.7971,145.414,104.391,4.00178,0.0018309,0.266856,20.7379,527.376,29.4617,0.0,0.0
1704,425.75,49.1244,51.5489,144.642,104.35,4.02267,0.00192401,0.268199,20.737,527.256,29.4112,0.0,0.0
1712,427.75,48.8537,52.215,144.84,104.273,4.04879,0.00194477,0.2689,20.7367,527.126,29.346,0.0,0.0
1720,429.75,49.4972,52.1869,145.809,104.204,3.99323,0.00197226,0.269038,20.7365,526.996,29.4648,0.0,0.0
1728,431.75,48.5257,52.2584,145.139,104.157,3.96236,0.0020447,0.269312,20.7375,526.896,29.5309,0.0,0.0
1736,433.75,49.0923,52.1386,147.295,104.08,3.97898,0.00203852,0.26837,20.7382,526.735,29.4863,0.0,0.0
1744,435.75,49.252,52.0056,143.507,104.051,4.04974,0.00193497,0.268324,20.7385,526.635,29.3246,0.0,0.0
1752,437.75,49.0139,52.7646,145.373,104.205,4.0241,0.00183646,0.268786,20.7389,526.495,29.3954,0.0,0.0
1760,439.75,49.2136,52.298,143.827,104.43,4.00463,0.00185185,0.269412,20.7381,526.365,29.4587,0.0,0.0
1768,441.75,49.0207,52.4082,145.242,104.625,4.03834,0.00189975,0.27039,20.7376,526.215,29.3998,0.0,0.0
1776,443.75,49.3053,52.5667,147.38,104.766,4.09058,0.00194977,0.270313,20.7374,526.105,29.2958,0.0,0.0
1784,445.75,49.3379,52.7867,145.113,104.881,4.02552,0.002004,0.27017,20.7373,525.965,29.4506,0.0,0.0
1792,447.75,49.3631,52.6022,144.683,104.938,4.01222,0.00197313,0.27054,20.7361,525.825,29.4853,0.0,0.0
1800,449.75,49.532,52.3131,147.279,104.966,4.07681,0.00187145,0.271547,20.7354,525.685,29.3435,0.0,0.0
1808,451.75,49.618,52.5599,149.835,104.934,3.99798,0.00175882,0.271926,20.7349,525.584,29.5171,0.0,0.0
1816,453.75,49.3104,52.477,144.943,104.868,4.06636,0.00171104,0.271951,20.7336,525.464,29.3583,0.0,0.0
1824,455.75,49.4281,52.7144,148.235,104.751,4.04499,0.00172397,0.27313,20.7324,525.344,29.3958,0.0,0.0
1832,457.75,49.4444,52.5856,145.985,104.603,4.07633,0.00181245,0.274392,20.731,525.204,29.3133,0.0,0.0
1840,459.75,49.435,52.8586,144.76,104.419,4.04784,0.00191071,0.274991,20.7293,525.044,29.3607,0.0,0.0
1848,461.75,49.5787,52.6695,143.392,104.513,4.08773,0.00192483,0.277029,20.7287,524.904,29.2803,0.0,0.0
1856,463.75,49.6595,53.1962,143.604,104.613,4.08773,0.00186115,0.278394,20.7277,524.804,29.2889,0.0,0.0
1864,465.75,49.7893,53.1619,147.592,104.742,4.03977,0.00176633,0.278337,20.7275,524.734,29.4067,0.0,0.0
1872,467.75,49.9756,52.669,144.662,104.879,4.07776,0.00170096,0.27728,20.7281,524.523,29.3339,0.0,0.0
1880,469.75,49.8737,52.9834,148.435,105.01,4.08441,0.00165791,0.275865,20.7292,524.443,29.3305,0.0,0.0
1888,471.75,49.8749,52.809,144.568,105.122,4.08393,0.00164588,0.276706,20.7297,524.303,29.3411,0.0,0.0
1896,473.75,50.0301,52.8532,146.818,105.233,4.11527,0.00172641,0.278389,20.7292,524.173,29.2816,0.0,0.0
1904,475.75,49.571,53.465,144.055,105.292,4.18318,0.00187778,0.280907,20.7272,524.033,29.1388,0.0,0.0
1912,477.75,49.5377,53.7342,147.708,105.315,4.06541,0.00199768,0.281704,20.7258,523.903,29.3988,0.0,0.0
1920,479.75,50.2127,52.8658,146.56,105.313,4.03549,0.00205183,0.281175,20.7251,523.753,29.4653,0.0,0.0
1928,481.75,50.6109,53.0744,143.122,105.244,4.08298,0.00208478,0.280667,20.7249,523.603,29.3537,0.0,0.0
1936,483.75,50.0899,53.8632,144.8,105.161,4.17843,0.00207817,0.280648,20.7251,523.482,29.1379,0.0,0.0
1944,485.75,50.6005,53.0404,144.12,105.036,4.0863,0.00195502,0.280986,20.7246,523.352,29.3286,0.0,0.0
1952,487.75,50.7344,53.2553,150.318,104.856,4.06683,0.00184692,0.281979,20.7243,523.252,29.3562,0.0,0.0
1960,489.75,50.5339,53.2012,141.87,104.652,4.03882,0.00180988,0.282532,20.7244,523.102,29.4011,0.0,0.0
1968,491.75,50.3721,53.6211,142.907,104.426,4.02457,0.0018399,0.282699,20.7245,522.982,29.4134,0.0,0.0
1976,493.75,50.7501,53.7785,143.562,104.199,3.96379,0.00188556,0.283077,20.7235,522.842,29.5312,0.0,0.0
1984,495.75,50.0589,54.0681,143.674,103.949,4.0032,0.00189565,0.284041,20.7218,522.692,29.4202,0.0,0.0
1992,497.75,50.4922,53.5831,148.334,103.741,3.96331,0.00183318,0.285306,20.7204,522.552,29.4925,0.0,0.0
2000,499.75,50.3578,53.9063,150.026,103.548,3.99133,0.00173151,0.284579,20.7206,522.482,29.412,0.0,0.0
2008,501.75,50.7004,53.7068,143.318,103.409,4.00273,0.00162218,0.284225,20.7208,522.321,29.3742,0.0,0.0
2016,503.75,50.8444,53.8358,146.312,103.299,3.99133,0.00157576,0.285353,20.7199,522.211,29.3903,0.0,0.0
2024,505.75,50.7911,53.9743,147.959,103.275,3.97328,0.00157415,0.285902,20.7194,522.071,29.4292,0.0,0.0
2032,507.75,50.539,53.9455,150.648,103.318,3.97898,0.0016517,0.286104,20.7187,521.911,29.42,0.0,0.0
2040,509.75,50.905,53.8889,146.875,103.415,3.98136,0.00180042,0.287493,20.7165,521.791,29.4231,0.0,0.0
2048,511.75,50.3288,53.9142,144.696,103.554,3.99608,0.00184497,0.289956,20.7145,521.621,29.4018,0.0,0.0
2056,513.75,50.7283,54.1949,142.303,103.759,4.04736,0.00182982,0.290216,20.7137,521.541,29.3045,0.0,0.0
2064,515.75,50.4963,53.9069,149.16,103.942,4.03074,0.00176588,0.29,20.7133,521.371,29.3576,0.0,0.0
2072,517.75,50.8403,54.1252,144.837,104.146,4.00985,0.001695,0.289138,20.7132,521.27,29.4223,0.0,0.0
2080,519.75,50.628,54.0266,148.544,104.323,4.01032,0.00165381,0.289955,20.7127,521.13,29.4365,0.0,0.0
2088,521.75,50.7243,54.0699,139.245,104.476,4.02932,0.00173273,0.292335,20.71,520.95,29.4071,0.0,0.0
2096,523.75,50.871,53.9845,145.762,104.566,4.10577,0.00183079,0.294519,20.7068,520.84,29.245,0.0,0.0
2104,525.75,51.4773,54.2375,141.029,104.618,4.05971,0.00179521,0.295829,20.7051,520.7,29.3515,0.0,0.0
2112,527.75,50.7158,54.1721,142.659,104.624,4.09628,0.00169018,0.296332,20.7056,520.57,29.271,0.0,0.0
2120,529.75,51.1325,54.4183,145.68,104.545,4.04689,0.00166824,0.296745,20.7062,520.43,29.3738,0.0,0.0
2128,531.75,51.169,54.2202,146.148,104.424,3.98943,0.00171359,0.297244,20.7058,520.3,29.4924,0.0,0.0
2136,533.75,51.0119,54.2994,139.16,104.311,4.04926,0.00161927,0.297424,20.7056,520.159,29.3483,0.0,0.0
2144,535.75,50.7454,54.7413,148.952,104.196,4.02552,0.00154238,0.297953,20.7055,520.009,29.3914,0.0,0.0
2152,537.75,51.4023,54.6448,144.402,104.089,4.02695,0.00157077,0.297765,20.7055,519.849,29.3789,0.0,0.0
2160,539.75,50.9359,54.6114,145.706,104.052,4.03929,0.00162657,0.297429,20.7052,519.729,29.3481,0.0,0.0
2168,541.75,51.1175,54.4771,149.111,104.449,4.092,0.00159429,0.298218,20.7046,519.599,29.2653,0.0,0.0
2176,543.75,51.0272,54.9826,143.485,104.729,3.98278,0.00155621,0.299147,20.7033,519.429,29.5339,0.0,0.0
2184,545.75,51.118,54.8846,143.975,104.903,3.98183,0.00165185,0.299323,20.7027,519.279,29.551,0.0,0.0
2192,547.75,51.3978,54.6153,143.969,104.963,4.03644,0.00175223,0.299255,20.7025,519.139,29.4331,0.0,0.0
2200,549.75,51.2633,54.413,148.366,104.892,4.01175,0.0017521,0.300497,20.7023,519.008,29.4825,0.0,0.0
2208,551.75,51.3837,54.5009,146.506,104.692,4.06351,0.00175721,0.302788,20.7001,518.858,29.3494,0.0,0.0
2216,553.75,51.2742,55.0551,143.981,104.443,4.04167,0.00183566,0.304771,20.6985,518.718,29.3766,0.0,0.0
2224,555.75,51.3612,54.8648,145.137,104.571,3.98658,0.00195896,0.305536,20.6976,518.568,29.5116,0.0,0.0
2232,557.75,51.3659,54.9565,142.45,104.753,3.99798,0.00203983,0.30564,20.6962,518.408,29.5016,0.0,0.0
2240,559.75,51.4968,55.1018,148.382,104.945,4.02505,0.00208158,0.306299,20.6952,518.278,29.4572,0.0,0.0
2248,561.75,51.6746,55.0419,146.014,105.121,4.03644,0.00203349,0.307068,20.6948,518.138,29.4467,0.0,0.0
2256,563.75,51.5287,55.4153,145.144,105.258,4.1053,0.00183939,0.306799,20.6946,517.978,29.3057,0.0,0.0
2264,565.75,52.0738,54.9288,141.785,105.326,4.10103,0.00166667,0.307581,20.6941,517.847,29.321,0.0,0.0
2272,567.75,51.9128,55.0365,144.03,105.317,4.05496,0.00159054,0.309959,20.6928,517.697,29.4222,0.0,0.0
2280,569.75,52.1126,55.3082,147.393,105.204,4.08488,0.00158829,0.311044,20.6911,517.537,29.3461,0.0,0.0
2288,571.75,52.1801,55.4596,145.2,105.015,4.02552,0.00160862,0.311966,20.6896,517.407,29.4621,0.0,0.0
2296,573.75,52.0268,55.3713,141.88,104.743,4.02172,0.00167404,0.312601,20.6884,517.277,29.4472,0.0,0.0
2304,575.75,52.0301,55.64,147.379,104.435,3.95002,0.00180171,0.312491,20.6886,517.097,29.5831,0.0,0.0
2312,577.75,52.1411,55.2481,141.92,104.101,3.99323,0.00200855,0.31262,20.6884,516.937,29.4559,0.0,0.0
2320,579.75,52.5445,55.4209,141.282,103.804,3.98516,0.00214256,0.312637,20.6877,516.826,29.4483,0.0,0.0
2328,581.75,52.1406,55.7061,141.8,103.537,3.96379,0.00213433,0.313518,20.6867,516.646,29.4737,0.0,0.0
2336,583.75,52.1563,55.6598,142.915,103.365,3.96759,0.0020141,0.313425,20.6875,516.526,29.45,0.0,0.0
2344,585.75,52.245,55.5877,143.155,103.313,4.0032,0.00199105,0.312996,20.6884,516.356,29.3647,0.0,0.0
2352,587.75,52.175,55.3893,144.974,103.363,3.95049,0.00202148,0.313061,20.6888,516.206,29.4888,0.0,0.0
2360,589.75,52.4868,56.106,142.23,103.511,3.96521,0.00209513,0.31357,20.6874,516.096,29.4681,0.0,0.0
2368,591.75,52.4855,55.9073,145.892,103.725,3.96426,0.00210269,0.315054,20.6851,515.896,29.489,0.0,0.0
2376,593.75,52.4375,55.9831,148.618,103.977,3.98516,0.00206924,0.317311,20.6818,515.786,29.4634,0.0,0.0
2384,595.75,52.4318,56.0997,143.474,104.23,4.02552,0.00213084,0.318649,20.6801,515.645,29.3943,0.0,0.0
2392,597.75,52.9014,55.9909,142.196,104.439,4.06066,0.0021915,0.319246,20.6794,515.465,29.3339,0.0,0.0
2400,599.75,52.9572,56.2764,140.699,104.572,4.05544,0.00224905,0.319417,20.6791,515.295,29.357,0.0,0.0
2408,601.75,52.8934,56.3675,143.883,104.636,3.95286,0.0022905,0.319623,20.679,515.145,29.594,0.0,0.0
2416,603.75,52.9891,56.3024,144.604,104.607,4.02932,0.00223351,0.319902,20.6794,515.015,29.4184,0.0,0.0
2424,605.75,53.228,56.2492,143.292,104.472,4.03122,0.00212208,0.320259,20.68,514.875,29.4025,0.0,0.0
2432,607.75,53.0013,56.5414,146.746,104.302,3.95571,0.00205099,0.31997,20.6812,514.725,29.5586,0.0,0.0
2440,609.75,53.5652,56.6551,147.412,104.177,3.99893,0.0020229,0.319643,20.6817,514.594,29.4496,0.0,0.0
2448,611.75,52.5536,57.2377,140.302,104.047,3.97233,0.0020884,0.320279,20.6807,514.404,29.4986,0.0,0.0
2456,613.75,53.0665,56.6404,140.923,104.235,4.06399,0.00219098,0.3204,20.6798,514.294,29.3089,0.0,0.0
2464,615.75,53.1081,56.7379,145.984,104.623,3.9899,0.00210952,0.320717,20.6782,514.114,29.5086,0.0,0.0
2472,617.75,53.2458,56.9004,146.283,104.864,4.00273,0.00189143,0.321468,20.6773,513.934,29.5004,0.0,0.0
2480,619.75,53.2184,56.9422,144.881,104.924,4.02884,0.00185782,0.321638,20.6769,513.804,29.4468,0.0,0.0
2488,621.75,53.5278,56.989,145.126,104.805,4.05354,0.00197281,0.32267,20.6767,513.624,29.3814,0.0,0.0
2496,623.75,53.4626,56.9931,140.302,104.526,3.98611,0.00213322,0.322449,20.6757,513.483,29.5088,0.0,0.0
2504,625.75,53.7121,57.0536,147.595,104.508,4.007,0.00222052,0.322309,20.6752,513.343,29.46,0.0,0.0
2512,627.75,53.4356,57.0265,136.682,104.721,4.00795,0.00220053,0.321731,20.6753,513.193,29.4763,0.0,0.0
2520,629.75,53.379,57.291,140.57,104.953,3.98278,0.00218702,0.320754,20.6764,513.053,29.5532,0.0,0.0
2528,631.75,53.4754,57.2017,137.156,105.15,4.02172,0.0021786,0.321767,20.6762,512.883,29.4823,0.0,0.0
2536,633.75,53.3879,57.1835,143.701,105.283,3.9918,0.00213419,0.323777,20.6743,512.753,29.5611,0.0,0.0
2544,635.75,53.7827,57.4024,146.097,105.32,4.06066,0.00207441,0.32447,20.6733,512.623,29.4098,0.0,0.0
2552,637.75,54.1508,57.6019,140.276,105.242,3.96189,0.00208572,0.323574,20.6739,512.453,29.6256,0.0,0.0
2560,639.75,54.1701,57.0277,142.073,105.054,3.96949,0.0021804,0.322203,20.6745,512.282,29.5921,0.0,0.0
2568,641.75,53.4823,57.9168,144.006,104.754,4.06399,0.00226934,0.322578,20.6747,512.162,29.3537,0.0,0.0
2576,643.75,54.6629,57.2018,143.89,104.402,4.06731,0.00237209,0.323068,20.6748,512.012,29.3159,0.0,0.0
2584,645.75,53.7167,57.8754,140.077,104.033,4.06494,0.00243245,0.32491,20.6736,511.862,29.2893,0.0,0.0
2592,647.75,53.8043,58.0011,145.225,103.72,3.91772,0.00235833,0.325721,20.673,511.732,29.5952,0.0,0.0
2600,649.75,53.8927,57.378,148.423,103.478,3.91915,0.00223617,0.325272,20.6728,511.572,29.5708,0.0,0.0
2608,651.75,54.153,57.4127,140.15,103.356,3.99893,0.00223721,0.326048,20.6722,511.412,29.3781,0.0,0.0
2616,653.75,54.1308,58.0016,141.09,103.346,3.95809,0.0022721,0.327585,20.6711,511.251,29.47,0.0,0.0
2624,655.75,54.2061,57.9501,142.235,103.453,3.98516,0.00222987,0.326967,20.6712,511.061,29.4178,0.0,0.0
2632,657.75,54.4687,58.0386,142.212,103.654,3.95049,0.00217267,0.325187,20.6715,510.921,29.5142,0.0,0.0
2640,659.75,54.5926,58.0694,144.855,103.889,3.97471,0.00214072,0.323543,20.6728,510.801,29.4795,0.0,0.0
2648,661.75,54.3437,58.0948,144.249,104.128,3.96901,0.00217398,0.322347,20.6748,510.661,29.5132,0.0,0.0
2656,663.75,54.4028,57.7873,144.001,104.345,4.04119,0.00224898,0.321595,20.6757,510.501,29.3692,0.0,0.0
2664,665.75,54.4311,58.1614,147.778,104.518,3.95381,0.00227261,0.320774,20.6767,510.341,29.5817,0.0,0.0
2672,667.75,54.4502,57.9804,142.386,104.625,4.02125,0.00224682,0.31954,20.6778,510.13,29.4381,0.0,0.0
2680,669.75,54.5106,57.942,142.529,104.66,3.94527,0.00221249,0.317603,20.6787,509.99,29.6134,0.0,0.0
2688,671.75,54.281,57.9661,148.118,104.614,3.99275,0.00216925,0.315656,20.6806,509.87,29.5014,0.0,0.0
2696,673.75,54.3818,58.0313,141.311,104.502,3.95666,0.00215507,0.314226,20.6827,509.74,29.5737,0.0,0.0
2704,675.75,54.1019,57.7445,148.238,104.354,3.97423,0.00214861,0.312727,20.6847,509.6,29.5209,0.0,0.0
2712,677.75,54.0879,57.8306,143.933,104.214,3.91203,0.00216879,0.310929,20.6875,509.46,29.6513,0.0,0.0
2720,679.75,54.1535,57.7298,140.95,104.101,3.96616,0.00229541,0.309212,20.6892,509.32,29.5173,0.0,0.0
2728,681.75,54.1729,57.6844,143.812,104.014,3.94527,0.00237242,0.308167,20.6904,509.16,29.5575,0.0,0.0
2736,683.75,53.5245,58.2121,141.634,104.141,3.91962,0.0023745,0.307108,20.6929,509.009,29.6274,0.0,0.0
2744,685.75,54.2111,57.4766,145.294,104.474,3.95524,0.00228648,0.305246,20.6942,508.859,29.5746,0.0,0.0
2752,687.75,53.5283,57.4147,142.628,104.699,4.01697,0.00216161,0.303741,20.6962,508.739,29.454,0.0,0.0
2760,689.75,53.5513,57.5042,143.519,104.835,3.99655,0.00216819,0.30169,20.6974,508.619,29.5118,0.0,0.0
2768,691.75,53.7118,57.2842,141.533,104.893,4.00748,0.00231104,0.301393,20.6987,508.479,29.4922,0.0,0.0
2776,693.75,53.725,57.6335,144.226,104.865,3.91155,0.00239339,0.301274,20.6992,508.349,29.7086,0.0,0.0
2784,695.75,53.6384,57.1742,141.598,104.797,3.98943,0.00227628,0.300655,20.6997,508.229,29.5247,0.0,0.0
2792,697.75,53.595,57.6524,140.927,104.625,3.94194,0.00218872,0.300646,20.7001,508.079,29.6181,0.0,0.0
2800,699.75,53.6022,57.0026,143.153,104.408,3.92342,0.00227641,0.300023,20.7003,507.958,29.6418,0.0,0.0
2808,701.75,53.2239,57.341,144.379,104.486,3.96141,0.00255582,0.299097,20.7004,507.808,29.5615,0.0,0.0
2816,703.75,53.5392,57.367,146.663,104.585,3.98041,0.00276238,0.298419,20.7008,507.718,29.5269,0.0,0.0
2824,705.75,53.6168,57.01,139.731,104.71,3.91108,0.0028133,0.298559,20.7019,507.578,29.6964,0.0,0.0
2832,707.75,53.2873,57.1495,149.518,104.838,3.98136,0.00274532,0.296373,20.7036,507.398,29.5465,0.0,0.0
2840,709.75,53.0216,57.1112,144.348,104.976,3.96901,0.00265778,0.293723,20.7053,507.288,29.5864,0.0,0.0
2848,711.75,53.4394,56.643,146.374,105.086,3.95286,0.00263549,0.292212,20.7071,507.168,29.6327,0.0,0.0
2856,713.75,53.0006,56.8929,144.971,105.178,3.93767,0.00269175,0.291331,20.7081,507.028,29.6754,0.0,0.0
2864,715.75,52.6246,56.5809,147.96,105.248,3.97091,0.00279094,0.290917,20.7114,506.908,29.6055,0.0,0.0
2872,717.75,52.9352,56.7643,149.156,105.282,3.94432,0.00285704,0.289832,20.7144,506.807,29.6691,0.0,0.0
2880,719.75,52.6887,56.4681,146.19,105.311,3.98326,0.00289282,0.287591,20.7163,506.697,29.5829,0.0,0.0
2888,721.75,52.6259,56.5455,145.443,105.309,3.94147,0.00280806,0.285163,20.7186,506.567,29.678,0.0,0.0
2896,723.75,52.1715,56.4044,144.635,105.279,4.00558,0.00268058,0.283855,20.7209,506.467,29.5297,0.0,0.0
2904,725.75,52.7811,55.8309,144.471,105.226,3.91298,0.00266569,0.283626,20.722,506.337,29.7364,0.0,0.0
2912,727.75,52.1058,56.4593,144.948,105.158,3.89208,0.00272733,0.283435,20.7224,506.257,29.7789,0.0,0.0
2920,729.75,52.5329,56.1109,145.206,105.054,4.0165,0.00281936,0.284833,20.7213,506.077,29.4857,0.0,0.0
2928,731.75,52.1477,56.1358,143.182,104.954,4.00083,0.00283504,0.285757,20.7195,505.987,29.5125,0.0,0.0
2936,733.75,52.3863,56.1473,145.328,104.806,3.94479,0.0027975,0.285812,20.719,505.877,29.6271,0.0,0.0
2944,735.75,52.0722,55.4253,146.241,104.656,3.98136,0.00273069,0.284433,20.7208,505.756,29.5308,0.0,0.0
2952,737.75,52.3364,55.589,147.556,104.511,3.94812,0.00268634,0.282031,20.7221,505.616,29.594,0.0,0.0
2960,739.75,52.1981,55.7649,138.964,104.369,3.93577,0.00268848,0.279177,20.7251,505.506,29.61,0.0,0.0
2968,741.75,52.0437,55.4738,145.433,104.231,3.88686,0.00271425,0.277225,20.7275,505.446,29.7111,0.0,0.0
2976,743.75,51.8013,55.3115,144.314,104.117,3.89113,0.00274545,0.275487,20.7305,505.276,29.6912,0.0,0.0
2984,745.75,52.1583,55.2639,146.048,103.995,3.91155,0.00284548,0.274438,20.7319,505.176,29.6333,0.0,0.0
2992,747.75,51.9412,55.5263,146.146,103.864,3.92627,0.00286921,0.272732,20.7342,505.086,29.588,0.0,0.0
3000,749.75,51.8007,55.3506,145.77,103.759,3.90918,0.00283682,0.269733,20.7372,504.976,29.6183,0.0,0.0
3008,751.75,51.6642,55.0464,146.067,103.646,3.94859,0.00286067,0.266425,20.7407,504.886,29.5179,0.0,0.0
3016,753.75,51.89,54.912,147.568,103.559,3.87356,0.00289288,0.263313,20.7437,504.756,29.6836,0.0,0.0
3024,755.75,51.4247,55.0064,149.821,103.478,3.88733,0.00285614,0.260943,20.7468,504.686,29.6445,0.0,0.0
3032,757.75,51.1371,54.858,145.351,103.423,3.89303,0.00285288,0.257761,20.7518,504.585,29.6264,0.0,0.0
3040,759.75,51.0026,54.5587,144.981,103.396,3.88733,0.00291179,0.254241,20.7551,504.475,29.6373,0.0,0.0
3048,761.75,50.7668,54.4868,147.06,103.371,3.903,0.00293488,0.25104,20.7582,504.345,29.5988,0.0,0.0
3056,763.75,50.6611,54.209,144.583,103.369,3.8992,0.0029098,0.247733,20.7628,504.295,29.6074,0.0,0.0
3064,765.75,50.4582,53.8191,148.588,103.386,3.85789,0.00292249,0.244995,20.7668,504.205,29.7051,0.0,0.0
3072,767.75,50.815,53.4643,142.675,103.404,3.84222,0.00299739,0.242265,20.771,504.155,29.7434,0.0,0.0
3080,769.75,50.2824,53.6187,145.132,103.453,3.88021,0.00316938,0.239532,20.7734,504.015,29.6589,0.0,0.0
3088,771.75,50.3236,53.5801,147.23,103.492,3.84839,0.00342963,0.237248,20.7753,503.975,29.7367,0.0,0.0
3096,773.75,49.545,53.6311,147.5,103.538,3.89493,0.00357573,0.234581,20.7784,503.875,29.632,0.0,0.0
3104,775.75,49.777,53.4036,152.483,103.617,3.8218,0.00362514,0.231062,20.782,503.815,29.8102,0.0,0.0
3112,777.75,49.15,53.0571,145.834,103.665,3.84412,0.0037323,0.227605,20.786,503.715,29.7617,0.0,0.0
3120,779.75,49.6113,52.484,152.414,103.725,3.85457,0.00377293,0.224293,20.7892,503.655,29.7425,0.0,0.0
3128,781.75,48.8991,52.8318,148.493,103.795,3.86929,0.00368142,0.221466,20.7913,503.544,29.7141,0.0,0.0
3136,783.75,49.0747,52.4491,144.816,103.852,3.82227,0.00360665,0.218553,20.7942,503.484,29.8295,0.0,0.0
3144,785.75,48.5747,51.8467,150.639,103.935,3.87641,0.00367636,0.216523,20.7972,503.414,29.7097,0.0,0.0
3152,787.75,48.4619,51.5584,153.525,103.993,3.87356,0.00382231,0.215243,20.7988,503.354,29.7214,0.0,0.0
3160,789.75,47.9592,51.6002,149.456,104.051,3.94289,0.00394828,0.21277,20.8013,503.264,29.5661,0.0,0.0
3168,791.75,47.5532,51.5633,149.918,104.113,3.93102,0.00413937,0.211136,20.8029,503.224,29.5987,0.0,0.0
3176,793.75,47.9768,50.9085,151.545,104.161,3.86121,0.00440213,0.209827,20.8036,503.174,29.7648,0.0,0.0
3184,795.75,47.2891,50.9985,145.65,104.215,3.85789,0.00465591,0.207618,20.8048,503.104,29.7773,0.0,0.0
3192,797.75,47.1826,50.5609,148.298,104.261,3.84744,0.00489838,0.206139,20.806,503.034,29.8057,0.0,0.0
3200,799.75,46.5857,50.8557,144.391,104.302,3.9296,0.0051461,0.206008,20.8071,502.994,29.6184,0.0,0.0
3208,801.75,46.8332,50.43,149.595,104.343,3.90728,0.00538745,0.204952,20.808,502.944,29.6734,0.0,0.0
3216,803.75,47.0182,50.2923,150.454,104.404,3.83272,0.00562783,0.202614,20.8102,502.844,29.8528,0.0,0.0
3224,805.75,46.6532,49.9207,150.564,104.433,3.83652,0.0058346,0.200644,20.8123,502.814,29.8463,0.0,0.0
3232,807.75,46.5904,49.716,148.985,104.473,3.9315,0.00593034,0.198384,20.8157,502.784,29.6288,0.0,0.0
3240,809.75,46.312,49.2992,147.341,104.504,3.84602,0.00600867,0.196634,20.8186,502.724,29.8301,0.0,0.0
3248,811.75,46.7747,49.3275,149.844,104.536,3.88496,0.00612407,0.194953,20.8216,502.644,29.7418,0.0,0.0
3256,813.75,46.0163,49.2378,147.665,104.561,3.88733,0.00638856,0.193091,20.8228,502.604,29.7385,0.0,0.0
3264,815.75,45.8333,48.5714,150.52,104.581,3.89493,0.00663073,0.191441,20.8239,502.544,29.7226,0.0,0.0
3272,817.75,45.2655,48.4001,150.139,104.599,3.8954,0.00673722,0.18982,20.8254,502.524,29.7231,0.0,0.0
3280,819.75,44.9394,48.5721,147.286,104.631,3.84032,0.00688125,0.187561,20.8274,502.484,29.8545,0.0,0.0
3288,821.75,45.0917,48.7596,149.063,104.638,3.8332,0.0071741,0.185543,20.8301,502.423,29.8718,0.0,0.0
3296,823.75,45.0747,47.6528,151.945,104.655,3.86216,0.00756264,0.183443,20.8328,502.393,29.8053,0.0,0.0
3304,825.75,44.6641,47.7794,152.337,104.663,3.88021,0.00802577,0.180624,20.836,502.343,29.7639,0.0,0.0
3312,827.75,44.6993,47.3404,151.935,104.669,3.89493,0.00870274,0.177293,20.8402,502.313,29.7302,0.0,0.0
3320,829.75,43.992,47.4244,148.405,104.676,3.83937,0.00905949,0.174273,20.8432,502.273,29.8606,0.0,0.0
3328,831.75,43.8534,46.9987,148.882,104.675,3.86881,0.00940565,0.172242,20.8459,502.263,29.7915,0.0,0.0
3336,833.75,43.6727,46.6554,151.229,104.684,3.86216,0.009761,0.169751,20.8488,502.213,29.8078,0.0,0.0
3344,835.75,43.7119,46.5686,152.18,104.686,3.86786,0.0101381,0.168223,20.8517,502.153,29.7947,0.0,0.0
3352,837.75,43.3569,46.2573,153.751,104.691,3.89683,0.0103107,0.167903,20.8526,502.143,29.7277,0.0,0.0
3360,839.75,43.051,45.9462,152.357,104.681,3.85409,0.0103661,0.167012,20.8531,502.113,29.8265,0.0,0.0
3368,841.75,43.1197,45.5031,149.847,104.683,3.83082,0.0103889,0.166795,20.8526,502.113,29.8813,0.0,0.0
3376,843.75,42.6076,45.4964,153.449,104.666,3.84269,0.0104893,0.167463,20.8518,502.043,29.8519,0.0,0.0
3384,845.75,42.8377,45.042,148.338,104.671,3.80375,0.0107365,0.168268,20.8514,502.033,29.9443,0.0,0.0
3392,847.75,42.5011,45.1008,153.716,104.67,3.88496,0.0109742,0.168482,20.8513,501.963,29.7535,0.0,0.0
3400,849.75,42.1934,44.6973,152.706,104.655,3.8123,0.0110831,0.168566,20.8512,501.923,29.9227,0.0,0.0
3408,851.75,41.5247,44.0529,148.652,104.637,3.8313,0.0110884,0.168087,20.8525,501.963,29.8763,0.0,0.0
3416,853.75,41.444,44.198,155.962,104.637,3.82417,0.0109877,0.166817,20.8531,501.903,29.893,0.0,0.0
3424,855.75,41.2468,43.6953,151.22,104.633,3.8085,0.0108195,0.165345,20.8545,501.883,29.9298,0.0,0.0
3432,857.75,40.9847,43.5912,151.086,104.615,3.86406,0.0108091,0.164471,20.8566,501.853,29.7974,0.0,0.0
3440,859.75,40.9233,43.2566,150.991,104.6,3.81135,0.0109674,0.163653,20.8575,501.853,29.9202,0.0,0.0
3448,861.75,40.9086,43.1424,155.112,104.591,3.79758,0.0111301,0.16284,20.8588,501.813,29.9521,0.0,0.0
3456,863.75,40.8739,43.2592,152.516,104.578,3.80328,0.0112058,0.161705,20.8597,501.733,29.9374,0.0,0.0
3464,865.75,40.589,42.9884,152.945,104.548,3.85931,0.0111469,0.160612,20.8605,501.713,29.8027,0.0,0.0
3472,867.75,40.4859,42.7799,152.104,104.523,3.79995,0.0110229,0.1599,20.8623,501.723,29.9406,0.0,0.0
3480,869.75,39.95,42.4309,153.536,104.504,3.81325,0.0110539,0.159589,20.8631,501.673,29.9074,0.0,0.0
3488,871.75,39.8819,42.348,153.775,104.478,3.87688,0.0111825,0.159365,20.8634,501.643,29.7557,0.0,0.0
3496,873.75,39.861,42.5636,152.91,104.475,3.83794,0.011281,0.159172,20.8635,501.623,29.8466,0.0,0.0
3504,875.75,39.992,42.2512,151.178,104.45,3.79711,0.0113092,0.159133,20.8636,501.593,29.9411,0.0,0.0
3512,877.75,39.971,41.915,151.058,104.446,3.82702,0.0113511,0.158856,20.8632,501.553,29.8698,0.0,0.0
3520,879.75,39.4785,41.7655,156.351,104.425,3.79378,0.011405,0.158037,20.8637,501.533,29.9468,0.0,0.0
3528,881.75,39.6968,41.5357,153.562,104.413,3.8161,0.0113297,0.157308,20.8639,501.493,29.8928,0.0,0.0
3536,883.75,39.6925,41.2308,152.2,104.402,3.81135,0.0112075,0.157089,20.864,501.463,29.9031,0.0,0.0
3544,885.75,39.1306,41.4287,152.341,104.404,3.79901,0.0111967,0.1577,20.8627,501.423,29.9326,0.0,0.0
3552,887.75,39.3228,41.4986,149.168,104.388,3.81753,0.011222,0.158313,20.8622,501.403,29.8873,0.0,0.0
3560,889.75,39.5381,41.2105,149.5,104.366,3.81753,0.0111788,0.158029,20.8622,501.383,29.8854,0.0,0.0
3568,891.75,39.0792,41.2271,151.057,104.352,3.76007,0.0111353,0.157114,20.8633,501.352,30.0211,0.0,0.0
3576,893.75,39.4031,40.7051,152.586,104.331,3.82085,0.0110661,0.156928,20.8637,501.363,29.8745,0.0,0.0
3584,895.75,38.4977,41.196,156.633,104.311,3.76054,0.0109469,0.156437,20.8646,501.302,30.0165,0.0,0.0
3592,897.75,39.1063,40.5917,155.037,104.295,3.84554,0.0110157,0.156085,20.8656,501.312,29.8132,0.0,0.0
3600,899.75,39.0486,39.962,157.491,104.298,3.79283,0.011187,0.156147,20.8656,501.272,29.9381,0.0,0.0
3608,901.75,38.5612,40.6773,151.496,104.261,3.8199,0.0112991,0.156494,20.8657,501.262,29.8706,0.0,0.0
3616,903.75,38.3806,40.3928,153.534,104.255,3.79758,0.0113041,0.156604,20.8657,501.202,29.9231,0.0,0.0
3624,905.75,38.2346,40.3484,153.304,104.241,3.77859,0.0112796,0.156099,20.8657,501.182,29.9672,0.0,0.0
3632,907.75,38.554,40.3261,153.874,104.237,3.79331,0.0112161,0.15573,20.8657,501.152,29.9317,0.0,0.0
3640,909.75,38.6947,40.3446,152.221,104.233,3.818,0.0111755,0.1552,20.8662,501.132,29.8727,0.0,0.0
3648,911.75,37.81,39.0941,154.212,104.215,3.80708,0.011188,0.155014,20.8669,501.102,29.897,0.0,0.0
3656,913.75,38.4177,40.129,151.849,104.203,3.80708,0.0113003,0.155035,20.868,501.092,29.896,0.0,0.0
3664,915.75,38.1888,39.6517,153.15,104.208,3.74487,0.0114557,0.155309,20.8685,501.052,30.0452,0.0,0.0
3672,917.75,37.816,39.8933,148.045,104.206,3.7349,0.0114867,0.154586,20.8688,501.032,30.0691,0.0,0.0
3680,919.75,38.1946,40.1878,150.872,104.195,3.81847,0.0114799,0.154463,20.8678,501.002,29.8683,0.0,0.0
3688,921.75,38.0185,40.0061,153.761,104.202,3.80423,0.011438,0.155142,20.8666,501.002,29.9026,0.0,0.0
3696,923.75,38.2248,39.7352,152.958,104.195,3.78856,0.0113458,0.155075,20.8672,500.942,29.9394,0.0,0.0
3704,925.75,37.6318,39.3487,153.728,104.2,3.80803,0.0112208,0.154573,20.8688,500.942,29.8935,0.0,0.0
3712,927.75,38.1268,39.7179,152.002,104.194,3.70593,0.0110724,0.153802,20.8697,500.942,30.1384,0.0,0.0
3720,929.75,37.7089,39.2454,151.736,104.198,3.78903,0.0109611,0.153816,20.8703,500.912,29.9384,0.0,0.0
3728,931.75,37.6255,39.4095,152.845,104.193,3.80518,0.0109172,0.153995,20.8709,500.872,29.8996,0.0,0.0
3736,933.75,37.9848,39.436,155.202,104.199,3.73632,0.0109648,0.153846,20.8711,500.842,30.0651,0.0,0.0
3744,935.75,37.3841,39.5844,155.263,104.199,3.77479,0.01093,0.153592,20.8712,500.842,29.9725,0.0,0.0
3752,937.75,37.4183,39.3369,153.813,104.213,3.76149,0.010704,0.153518,20.8712,500.812,30.0056,0.0,0.0
3760,939.75,37.9041,39.3851,151.162,104.229,3.81278,0.0105278,0.153444,20.8707,500.782,29.8848,0.0,0.0
3768,941.75,37.7262,39.2254,155.373,104.237,3.80708,0.010493,0.153534,20.871,500.732,29.899,0.0,0.0
3776,943.75,37.5456,39.294,155.947,104.248,3.77811,0.0105094,0.153195,20.8711,500.732,29.9689,0.0,0.0
3784,945.75,37.2424,39.4325,153.706,104.256,3.78143,0.0105515,0.152809,20.871,500.702,29.9616,0.0,0.0
3792,947.75,37.2464,39.1026,158.071,104.282,3.74249,0.0106047,0.152438,20.8706,500.682,30.0573,0.0,0.0
3800,949.75,37.7667,39.2807,153.586,104.301,3.70973,0.0105927,0.152032,20.8706,500.652,30.1385,0.0,0.0
3808,951.75,37.2761,38.9713,155.771,104.31,3.73442,0.0105299,0.151391,20.8704,500.612,30.0793,0.0,0.0
3816,953.75,37.1494,39.3785,158.134,104.325,3.72492,0.0103977,0.150998,20.8703,500.582,30.1036,0.0,0.0
3824,955.75,37.422,39.1214,149.226,104.353,3.76529,0.0103429,0.15177,20.8702,500.562,30.0087,0.0,0.0
3832,957.75,37.6933,38.7811,152.959,104.358,3.85124,0.0104703,0.152551,20.8694,500.542,29.8052,0.0,0.0
3840,959.75,37.2741,38.6501,157.941,104.375,3.73252,0.0106099,0.152584,20.8685,500.502,30.0896,0.0,0.0
3848,961.75,37.2598,38.479,155.93,104.397,3.74534,,0.152148,,500.482,30.0604,0.0,0.0
3856,963.75,37.0703,38.5763,154.58,104.411,3.77051,,,,500.472,30.0012,0.0,0.0
3864,965.75,36.9952,38.1727,150.973,104.445,3.76007,,,,500.442,30.0292,0.0,0.0
3872,967.75,37.3777,38.4836,156.853,104.459,3.76339,,,,500.432,30.0225,0.0,0.0
3880,969.75,36.9854,38.2988,148.613,104.479,3.77811,,,,500.402,29.9889,0.0,0.0
3885,971,37.083,38.6487,153.455,104.494,3.73822,,,,500.402,30.0861,0.0,0.0