File: 01_Data/Pine_Siding/Cone/Pine_Siding_Cone_HF75Scan_221004_R1.csv
Names,Time,Stack TC,Smoke TC,Exh Press,Smoke Comp,Smoke Meas,CO Meter,CO2 Meter,O2 Meter,Sample Mass,Ext Coeff,Start Test,Flame Verif
Chan Gain,,500,500,1,1,1,1,1,1,1,1,1.0,1.0
Offset,,0,0,0.13918,0,0,0,0,0,0,0,0.0,0.0
Gain,,1,1,25.011,14.0162,15.5607,1,1,1,1.0009,1.02981,1.0,1.0
Units,sec,C,C,Pa,%,%,%,%,%,g,/m,,
Baseline,,43.1243,45.3237,149.852,103.662,3.71992,0.00054751,0.0826681,20.9598,-3.24205,30.0585,,
7,1.5,41.2124,43.6699,147.409,104.084,3.68551,0.000284767,0.0866131,20.957,554.901,30.1788,0.0,0.0
14,3.25,41.0132,43.2629,148.638,104.167,3.67506,0.000661759,0.0893687,20.9483,554.961,30.2117,0.0,0.0
21,5,41.2874,43.2925,135.37,104.347,3.85646,0.00179455,0.140551,20.8872,554.661,29.7921,0.0,1.0
28,6.75,43.4863,44.6785,123.882,104.49,3.90633,0.00334588,0.243237,20.728,554.34,29.6883,0.0,1.0
35,8.5,44.9898,46.0463,119.207,104.641,4.01745,0.00502291,0.405939,20.5116,554.01,29.448,0.0,1.0
42,10.25,47.9046,48.0438,119.246,104.782,4.02457,0.00650255,0.552534,20.3396,553.62,29.4442,0.0,0.0
49,12,50.6982,51.0219,121.006,104.876,3.88353,0.00800799,0.673717,20.2051,553.159,29.7745,0.0,0.0
56,13.75,53.8607,53.6807,122.29,104.932,4.04309,0.00896894,0.747732,20.1342,552.819,29.4156,0.0,0.0
63,15.5,55.8295,55.7897,127.727,104.98,3.9956,0.00945226,0.774856,20.1022,552.519,29.5265,0.0,0.0
70,17.25,57.923,58.2218,126.66,104.992,3.87641,0.00953153,0.770547,20.1004,552.158,29.8011,0.0,0.0
77,19,59.5271,60.2728,127.47,104.983,3.93482,0.00930409,0.750076,20.1304,551.818,29.6652,0.0,0.0
84,20.75,61.3921,61.6964,131.639,104.927,3.82987,0.00901002,0.721378,20.1782,551.518,29.9046,0.0,0.0
91,22.5,62.061,63.1483,131.561,104.856,3.78286,0.00880657,0.683612,20.2253,551.217,30.0101,0.0,0.0
98,24.25,62.9649,64.4015,127.855,104.73,3.82275,0.00863769,0.651416,20.2651,550.907,29.9044,0.0,0.0
105,26,63.6022,65.1781,128.795,104.585,3.85362,0.00842079,0.627071,20.2918,550.627,29.8193,0.0,0.0
112,27.75,64.7165,66.3256,130.816,104.503,3.79948,0.0081204,0.604723,20.3202,550.327,29.94,0.0,0.0
119,29.5,65.1876,66.9433,129.828,104.572,3.80613,0.00777998,0.581832,20.3531,550.076,29.9302,0.0,0.0
126,31.25,65.8051,67.5386,132.861,104.669,3.82132,0.0075186,0.560131,20.3781,549.786,29.9026,0.0,0.0
133,33,66.0918,68.5456,132.165,104.792,3.88876,0.00727583,0.542773,20.3951,549.536,29.7551,0.0,0.0
140,34.75,66.2776,68.6917,129.041,104.911,3.9049,0.00695512,0.528346,20.4146,549.306,29.728,0.0,0.0
147,36.5,66.8353,69.7009,139.175,105.021,3.89161,0.00654547,0.515157,20.434,549.086,29.7682,0.0,0.0
154,38.25,67.3069,69.7029,133.351,105.136,3.92437,0.00621307,0.50118,20.4477,548.855,29.7024,0.0,0.0
161,40,67.4009,70.9233,136.594,105.235,3.85741,0.00589122,0.487013,20.4613,548.665,29.8663,0.0,0.0
168,41.75,67.6431,71.0613,134.706,105.329,3.93102,0.00557193,0.475862,20.478,548.425,29.7036,0.0,0.0
175,43.5,67.6151,71.2357,137.261,105.363,3.96331,0.00524051,0.463121,20.4963,548.175,29.6327,0.0,0.0
182,45.25,67.965,71.3082,138.11,105.394,4.01127,0.00501622,0.451747,20.5096,547.995,29.5267,0.0,0.0
189,47,67.8094,71.8171,132.908,105.39,3.90205,0.00482284,0.441964,20.5221,547.764,29.7757,0.0,0.0
196,48.75,67.9177,71.6701,133.181,105.35,4.01127,0.00462985,0.433672,20.533,547.564,29.5229,0.0,0.0
203,50.5,68.2335,72.172,135.997,105.273,3.94669,0.00442919,0.42547,20.5437,547.354,29.663,0.0,0.0
210,52.25,68.4127,72.1561,137.329,105.151,4.0863,0.00417203,0.418337,20.5513,547.184,29.3384,0.0,0.0
217,54,68.2232,72.7102,140.05,105.02,3.92912,0.00388785,0.412082,20.5587,547.014,29.6815,0.0,0.0
224,55.75,68.0756,72.6756,134.437,104.861,3.91915,0.00370681,0.406409,20.5657,546.824,29.6907,0.0,0.0
231,57.5,68.3395,72.9878,138.913,104.694,3.96094,0.00357478,0.40075,20.5732,546.613,29.5806,0.0,0.0
238,59.25,68.4775,72.6989,142.575,104.475,3.94954,0.0035339,0.395151,20.5818,546.463,29.5877,0.0,0.0
245,61,67.8484,73.214,134.918,104.309,4.02789,0.00352561,0.389428,20.5882,546.283,29.3958,0.0,0.0
252,62.75,67.7057,72.7751,138.026,104.078,4.05639,0.00344222,0.383902,20.5954,546.113,29.3121,0.0,0.0
259,64.5,67.2467,73.5513,136.939,103.893,4.01982,0.00330162,0.379443,20.6017,545.963,29.3778,0.0,0.0
266,66.25,67.7195,73.0706,137.62,103.719,3.98563,0.00315801,0.374842,20.6071,545.743,29.4399,0.0,0.0
273,68,67.5815,72.7244,136.595,103.582,4.00558,0.00310053,0.37045,20.6119,545.572,29.3829,0.0,0.0
280,69.75,68.0244,72.5452,139.151,103.465,3.97376,0.00305901,0.366207,20.6168,545.422,29.4447,0.0,0.0
287,71.5,67.7199,72.9214,137.797,103.424,3.94907,0.00302145,0.363454,20.6219,545.262,29.4974,0.0,0.0
294,73.25,67.6628,73.2471,133.055,103.424,4.026,0.00304649,0.360207,20.6265,545.102,29.3231,0.0,0.0
301,75,66.7849,72.8699,136.01,103.458,3.94859,0.00311655,0.357252,20.6305,544.902,29.5014,0.0,0.0
308,76.75,67.7385,73.2508,138.732,103.545,3.9899,0.00316384,0.353882,20.6351,544.702,29.415,0.0,0.0
315,78.5,67.0365,72.6227,140.98,103.685,4.01507,0.00308401,0.350532,20.6384,544.582,29.3704,0.0,0.0
322,80.25,67.1326,73.0501,137.81,103.844,3.98516,0.00291365,0.347707,20.6419,544.441,29.4519,0.0,0.0
329,82,67.0463,72.9008,137.806,104,4.07016,0.00280872,0.345818,20.6441,544.271,29.2748,0.0,0.0
336,83.75,67.389,72.9793,136.238,104.168,4.04214,0.00276955,0.344779,20.6452,544.111,29.3517,0.0,0.0
343,85.5,66.9527,72.9217,132.754,104.332,4.05401,0.00278354,0.344044,20.6461,543.951,29.3394,0.0,0.0
350,87.25,67.1841,72.729,137.703,104.487,4.026,0.00274363,0.343658,20.6471,543.761,29.4155,0.0,0.0
357,89,66.6327,72.8791,132.34,104.607,4.10388,0.0026454,0.34338,20.6485,543.641,29.2528,0.0,0.0
364,90.75,66.3677,72.2038,137.47,104.672,4.14994,0.00255404,0.342623,20.6504,543.43,29.1575,0.0,0.0
371,92.5,66.5592,72.5505,138.314,104.731,4.05686,0.00249961,0.341675,20.6522,543.29,29.3676,0.0,0.0
378,94.25,66.4899,72.3888,136.217,104.733,3.95097,0.0023851,0.339786,20.6543,543.15,29.6067,0.0,0.0
385,96,66.3475,73.6984,138.5,104.706,4.03692,0.00228656,0.337724,20.6568,543,29.41,0.0,0.0
392,97.75,66.7026,72.6395,134.569,104.613,4.10198,0.00232558,0.336862,20.658,542.85,29.2575,0.0,0.0
399,99.5,66.0676,72.0007,137.14,104.507,4.08013,0.00245246,0.336598,20.6585,542.68,29.2966,0.0,0.0
406,101.25,66.6689,72.402,141.477,104.386,4.07728,0.00256901,0.335597,20.6594,542.46,29.2924,0.0,0.0
413,103,66.4136,72.1983,136.872,104.293,4.00273,0.00267109,0.334659,20.6605,542.32,29.451,0.0,0.0
420,104.75,66.2119,72.3634,141.481,104.174,4.05021,0.00269191,0.333986,20.662,542.189,29.3342,0.0,0.0
427,106.5,66.2898,72.494,138.206,104.103,4.06494,0.00267373,0.332609,20.6631,542.059,29.2953,0.0,0.0
434,108.25,66.6042,71.7889,137.363,104.181,3.9975,0.00271187,0.330527,20.665,541.889,29.4531,0.0,0.0
441,110,66.1393,72.0709,136.801,104.496,4.12524,0.0027822,0.328451,20.6673,541.729,29.1963,0.0,0.0
448,111.75,65.4888,70.1494,136.801,104.736,4.20882,0.00275252,0.327277,20.6687,541.569,29.0358,0.0,0.0
455,113.5,65.9318,72.4033,137.332,104.888,4.10103,0.00266886,0.326583,20.6698,541.409,29.2833,0.0,0.0
462,115.25,65.68,72.1386,139.521,104.961,4.07776,0.00252018,0.325812,20.6711,541.309,29.341,0.0,0.0
469,117,65.7084,71.9645,138.129,104.951,4.13759,0.00235401,0.325161,20.6718,541.128,29.2085,0.0,0.0
476,118.75,65.7369,71.8463,137.428,104.852,4.12477,0.00225175,0.324885,20.6721,540.978,29.228,0.0,0.0
483,120.5,65.7451,71.7519,137.631,104.655,4.06683,0.00215993,0.324553,20.6722,540.818,29.3389,0.0,0.0
490,122.25,65.5116,71.5524,138.925,104.491,4.05496,0.00206258,0.323918,20.6723,540.678,29.3511,0.0,0.0
497,124,65.7308,71.5513,134.377,104.62,4.15326,0.00202184,0.323831,20.6723,540.498,29.1458,0.0,0.0
504,125.75,65.6292,71.6669,141.303,104.793,4.1053,0.00202362,0.323394,20.6723,540.348,29.2657,0.0,0.0
511,127.5,65.6749,71.4633,134.677,104.972,4.1129,0.00208564,0.323264,20.6728,540.218,29.2644,0.0,0.0
518,129.25,65.676,71.2488,138.66,105.131,4.10625,0.00218532,0.322818,20.6734,540.067,29.2927,0.0,0.0
525,131,65.5616,71.6184,134.123,105.277,4.23921,0.0022431,0.321339,20.6752,539.917,29.0174,0.0,0.0
532,132.75,65.5911,71.4279,139.126,105.36,4.09865,0.00229107,0.319657,20.6789,539.767,29.3291,0.0,0.0
539,134.5,65.3553,71.5165,140.566,105.395,4.10245,0.00235447,0.318216,20.6807,539.617,29.3238,0.0,0.0
546,136.25,64.2734,71.731,138.784,105.35,4.14614,0.00239724,0.317299,20.6815,539.497,29.2242,0.0,0.0
553,138,65.0255,71.0756,140.281,105.234,4.13142,0.00237398,0.317814,20.6816,539.327,29.2463,0.0,0.0
560,139.75,65.0174,70.9854,139.24,105.081,4.07491,0.00229511,0.318408,20.6812,539.157,29.3577,0.0,0.0
567,141.5,65.1948,71.1465,137.482,104.853,4.12145,0.00219401,0.318814,20.6814,539.017,29.2355,0.0,0.0
574,143.25,65.1119,70.9742,140.883,104.593,4.08203,0.00201473,0.317815,20.6831,538.946,29.2998,0.0,0.0
581,145,65.2563,71.3721,133.601,104.299,4.07158,0.00182558,0.316204,20.6843,538.766,29.2975,0.0,0.0
588,146.75,65.2777,70.9272,138.2,104.033,4.07016,0.00174792,0.315429,20.6849,538.686,29.2776,0.0,0.0
595,148.5,65.313,70.8084,139.59,103.803,4.03359,0.00176271,0.315346,20.6852,538.456,29.3391,0.0,0.0
602,150.25,64.8839,71.0369,137.055,103.604,4.12714,0.00182979,0.315833,20.6853,538.306,29.1147,0.0,0.0
609,152,65.4204,70.9817,138.885,103.473,3.98516,0.00188591,0.315773,20.6854,538.196,29.4195,0.0,0.0
616,153.75,65.3934,70.7802,137.092,103.442,4.13379,0.00190174,0.3155,20.6855,538.016,29.086,0.0,0.0
623,155.5,64.9757,70.7251,143.251,103.49,4.1129,0.00184014,0.314853,20.6859,537.885,29.136,0.0,0.0
630,157.25,65.1664,70.7455,136.24,103.617,4.06541,0.00176883,0.314139,20.6861,537.745,29.252,0.0,0.0
637,159,65.0192,70.8375,136.178,103.778,4.15184,0.00174587,0.314129,20.6862,537.595,29.076,0.0,0.0
644,160.75,65.529,70.8936,134.574,103.985,4.09628,0.00183378,0.31395,20.6862,537.485,29.2156,0.0,0.0
651,162.5,65.0018,70.7323,136.611,104.206,4.12667,0.00196037,0.312958,20.6862,537.345,29.1681,0.0,0.0
658,164.25,65.1894,71.0399,136.95,104.403,4.07633,0.00200306,0.312435,20.6872,537.195,29.296,0.0,0.0
665,166,64.8014,70.7184,136.469,104.571,4.11907,0.0019624,0.312281,20.6879,537.055,29.2163,0.0,0.0
672,167.75,65.0789,70.8576,138.122,104.676,4.13047,0.00200173,0.311333,20.6907,536.885,29.2004,0.0,0.0
679,169.5,65.1026,70.4765,138.64,104.743,4.10435,0.0020899,0.309921,20.692,536.714,29.2635,0.0,0.0
686,171.25,64.9805,70.837,137.119,104.74,4.13189,0.00213332,0.309041,20.6925,536.614,29.2028,0.0,0.0
693,173,65.1112,70.7828,139.797,104.686,4.08393,0.0021228,0.307551,20.6936,536.474,29.3036,0.0,0.0
700,174.75,64.7565,70.5722,136.143,104.558,4.21262,0.00211537,0.306368,20.6942,536.374,29.0123,0.0,0.0
707,176.5,65.2855,70.5506,141.012,104.386,4.13094,0.00209732,0.30588,20.6951,536.174,29.1743,0.0,0.0
714,178.25,64.7669,70.6545,138.644,104.256,4.10388,0.00201326,0.305118,20.697,535.984,29.2224,0.0,0.0
721,180,65.0022,70.4862,137.38,104.135,4.1941,0.00198232,0.304467,20.6983,535.854,29.0155,0.0,0.0
728,181.75,65.0242,70.5522,139.415,104.102,4.06161,0.00201354,0.303876,20.6997,535.774,29.3026,0.0,0.0
735,183.5,64.7635,70.5954,136.743,104.373,4.12477,0.00201448,0.30315,20.701,535.613,29.1867,0.0,0.0
742,185.25,64.838,70.7124,138.174,104.666,4.20407,0.00200684,0.302339,20.7017,535.453,29.04,0.0,0.0
749,187,64.5645,70.6445,137.913,104.857,4.14044,0.00198789,0.302245,20.702,535.343,29.1942,0.0,0.0
756,188.75,64.7942,70.4266,138.236,104.938,4.11195,0.00195639,0.301611,20.7022,535.203,29.2636,0.0,0.0
763,190.5,64.875,70.4618,139.335,104.916,4.13284,0.00194039,0.300828,20.7023,535.043,29.2159,0.0,0.0
770,192.25,64.834,70.4781,139.084,104.791,4.13997,0.00199895,0.301021,20.7023,534.933,29.1896,0.0,0.0
777,194,65.1237,70.3787,135.343,104.578,4.05449,0.00210461,0.301095,20.7019,534.753,29.3597,0.0,0.0
784,195.75,64.5922,70.5094,134.998,104.518,4.15231,0.00212796,0.30162,20.7009,534.653,29.1391,0.0,0.0
791,197.5,64.8391,70.1575,142.621,104.64,4.16751,0.00208358,0.302157,20.7005,534.522,29.1167,0.0,0.0
798,199.25,64.7162,70.3164,140.815,104.8,4.07871,0.00203997,0.301784,20.7005,534.412,29.325,0.0,0.0
805,201,64.5842,70.2594,141.976,104.961,4.1922,0.00199691,0.301263,20.7014,534.262,29.0909,0.0,0.0
812,202.75,64.6962,70.2055,137.636,105.131,4.13332,0.00191232,0.300721,20.7014,534.062,29.2334,0.0,0.0
819,204.5,64.6271,70.2156,138.271,105.261,4.13902,0.00180365,0.300951,20.7013,533.932,29.232,0.0,0.0
826,206.25,64.7443,69.9059,135.549,105.329,4.15374,0.0017508,0.30194,20.7002,533.812,29.2058,0.0,0.0
833,208,64.4927,70.1415,138.436,105.366,4.20977,0.00179911,0.302904,20.6995,533.702,29.088,0.0,0.0
840,209.75,65.0505,70.0621,139.644,105.372,4.21832,0.0018449,0.30363,20.6992,533.592,29.0702,0.0,0.0
847,211.5,64.6954,69.989,141.902,105.323,4.10198,0.00180125,0.303805,20.6991,533.401,29.3186,0.0,0.0
854,213.25,64.6876,69.9166,136.321,105.213,4.21927,0.00171794,0.30399,20.6986,533.311,29.0545,0.0,0.0
861,215,64.6118,70.2371,139.69,105.052,4.09533,0.001646,0.304463,20.698,533.131,29.31,0.0,0.0
868,216.75,64.6478,70.2686,137.439,104.871,4.13997,0.00166738,0.305004,20.6969,532.981,29.1965,0.0,0.0
875,218.5,64.7421,69.8171,136.86,104.677,4.14566,0.00168297,0.305633,20.696,532.841,29.1673,0.0,0.0
882,220.25,64.8292,69.8748,138.835,104.468,4.23399,0.00166147,0.30601,20.6956,532.721,28.9588,0.0,0.0
889,222,64.7911,69.7838,142.308,104.234,4.06968,0.00166969,0.305674,20.6966,532.561,29.2961,0.0,0.0
896,223.75,64.8112,70.1928,137.689,104.026,4.10815,0.00176772,0.304852,20.6978,532.411,29.1931,0.0,0.0
903,225.5,64.6489,69.8457,135.878,103.861,4.14139,0.00195138,0.303746,20.6992,532.33,29.106,0.0,0.0
910,227.25,64.6852,70.0478,136.972,103.72,4.1015,0.00210523,0.301898,20.7011,532.14,29.1811,0.0,0.0
917,229,64.6926,69.8953,138.138,103.595,4.09058,0.00212707,0.300684,20.7029,532.03,29.1943,0.0,0.0
924,230.75,64.4234,70.0972,142.082,103.516,4.08251,0.0020758,0.299698,20.7048,531.92,29.2052,0.0,0.0
931,232.5,64.9419,69.9991,141.079,103.489,4.14424,0.00208843,0.299094,20.7062,531.79,29.0673,0.0,0.0
938,234.25,64.5396,69.8451,143.965,103.488,4.08963,0.00213951,0.298296,20.7071,531.65,29.1871,0.0,0.0
945,236,64.9031,70.286,136.66,103.516,4.05164,0.00215423,0.297674,20.7088,531.51,29.2738,0.0,0.0
952,237.75,64.832,69.8703,137.578,103.561,4.10388,0.00211779,0.297156,20.7097,531.42,29.162,0.0,0.0
959,239.5,64.6668,70.0543,134.09,103.641,4.10815,0.00204394,0.296467,20.7102,531.229,29.1596,0.0,0.0
966,241.25,64.7597,70.0753,140.257,103.744,4.07728,0.0019899,0.295783,20.7106,531.099,29.2367,0.0,0.0
973,243,64.5585,69.7467,137.086,103.87,4.08773,0.00194782,0.295213,20.7112,530.979,29.2246,0.0,0.0
980,244.75,64.9158,69.797,139.353,103.98,4.12477,0.00191141,0.29457,20.7109,530.859,29.1526,0.0,0.0
987,246.5,65.2741,69.9099,137.069,104.104,4.11005,0.00187195,0.293879,20.7105,530.719,29.1957,0.0,0.0
994,248.25,64.6012,69.2084,138.474,104.237,4.07253,0.00182479,0.29302,20.7094,530.549,29.29,0.0,0.0
1001,250,64.71,69.6119,137.24,104.363,4.17368,0.00185593,0.293114,20.7095,530.449,29.0794,0.0,0.0
1008,251.75,64.7239,69.6229,138.277,104.471,4.09723,0.0019582,0.293721,20.7091,530.339,29.2557,0.0,0.0
1015,253.5,64.8445,69.7288,138.325,104.553,4.13094,0.00207169,0.2944,20.7087,530.169,29.1887,0.0,0.0
1022,255.25,64.3731,69.497,139.419,104.636,4.11717,0.00209949,0.29524,20.7086,530.048,29.2261,0.0,0.0
1029,257,64.4799,69.4026,137.547,104.709,4.16133,0.00204961,0.295152,20.7085,529.918,29.136,0.0,0.0
1036,258.75,64.5772,69.3678,133.589,104.75,4.11765,0.00201072,0.294617,20.7097,529.818,29.2349,0.0,0.0
1043,260.5,64.7297,69.413,138.1,104.756,4.14614,0.00200517,0.294407,20.7102,529.638,29.1731,0.0,0.0
1050,262.25,64.5194,69.7326,146.153,104.769,4.0996,0.00195528,0.29451,20.7093,529.528,29.2762,0.0,0.0
1057,264,64.8806,69.8939,141.502,104.756,4.15231,0.00192585,0.294988,20.7086,529.348,29.1597,0.0,0.0
1064,265.75,64.4466,69.4457,139.881,104.726,4.15849,0.0019998,0.295707,20.7071,529.248,29.1437,0.0,0.0
1071,267.5,64.8713,69.5238,138.618,104.673,4.22354,0.00208297,0.296255,20.7061,529.098,28.9988,0.0,0.0
1078,269.25,65.0525,69.5888,141.303,104.619,4.20027,0.0021468,0.296506,20.7059,528.987,29.0441,0.0,0.0
1085,271,64.7958,69.8209,139.064,104.566,4.13902,0.00219199,0.29693,20.7065,528.847,29.1723,0.0,0.0
1092,272.75,64.6339,69.5007,135.824,104.49,4.1224,0.00220656,0.297234,20.7057,528.767,29.202,0.0,0.0
1099,274.5,64.6681,69.2811,139.228,104.41,4.1129,0.00219965,0.29732,20.7054,528.577,29.2159,0.0,0.0
1106,276.25,64.7183,69.8447,140.31,104.32,4.14471,0.00218806,0.297458,20.7057,528.457,29.1386,0.0,0.0
1113,278,64.802,69.5352,138.272,104.233,4.12714,0.00210363,0.297533,20.7058,528.327,29.1694,0.0,0.0
1120,279.75,64.3897,69.1615,139.877,104.202,4.11005,0.00193352,0.29822,20.7059,528.197,29.2042,0.0,0.0
1127,281.5,64.7411,69.602,135.388,104.148,4.10577,0.00176368,0.299159,20.7051,528.047,29.2089,0.0,0.0
1134,283.25,64.8388,69.66,137.201,104.102,4.11337,0.00168131,0.29987,20.7043,527.956,29.1882,0.0,0.0
1141,285,64.2146,69.5528,140.667,104.062,4.18603,0.00173546,0.30056,20.704,527.776,29.0265,0.0,0.0
1148,286.75,64.5791,69.823,139.427,104.113,4.16371,0.00188024,0.300549,20.7036,527.636,29.0793,0.0,0.0
1155,288.5,64.4736,69.5928,138.138,104.243,4.07443,0.00214654,0.300124,20.7031,527.506,29.2864,0.0,0.0
1162,290.25,64.8501,69.4453,135.44,104.343,4.20692,0.00232449,0.300278,20.7022,527.396,29.006,0.0,0.0
1169,292,64.9561,68.9688,147.648,104.456,4.05734,0.00232596,0.300726,20.7013,527.246,29.3428,0.0,0.0
1176,293.75,64.5434,69.2373,141.883,104.566,4.15041,0.00215944,0.300986,20.7012,527.106,29.1474,0.0,0.0
1183,295.5,64.8155,69.38,137.13,104.676,4.09438,0.00191466,0.301036,20.7012,526.996,29.2797,0.0,0.0
1190,297.25,64.835,69.5506,138.387,104.747,4.19743,0.00177957,0.301304,20.7013,526.876,29.0613,0.0,0.0
1197,299,64.9047,69.0627,134.53,104.785,4.15041,0.0017469,0.301533,20.7008,526.735,29.1663,0.0,0.0
1204,300.75,64.4286,69.3954,135.509,104.823,4.16608,0.00169869,0.301829,20.7002,526.605,29.1355,0.0,0.0
1211,302.5,65.0907,69.8309,138.67,104.877,4.1091,0.00167395,0.302485,20.6999,526.475,29.2646,0.0,0.0
1218,304.25,64.8155,69.6308,136.678,104.9,4.15991,0.00172402,0.302796,20.6998,526.335,29.1555,0.0,0.0
1225,306,65.0398,69.8813,137.21,104.902,4.11147,0.00176783,0.302418,20.7001,526.225,29.2615,0.0,0.0
1232,307.75,65.4043,69.5794,139.136,104.903,4.15754,0.00177053,0.302081,20.7011,526.065,29.161,0.0,0.0
1239,309.5,64.6983,70.1079,139.447,104.9,4.1072,0.00174235,0.301968,20.7011,525.955,29.2707,0.0,0.0
1246,311.25,64.9981,69.7369,135.344,104.887,4.12192,0.00175683,0.302021,20.7003,525.815,29.2373,0.0,0.0
1253,313,64.834,69.7491,139.689,104.862,4.08203,0.00178155,0.302346,20.7,525.674,29.323,0.0,0.0
1260,314.75,65.3639,69.3748,137.152,104.826,4.0977,0.0017586,0.302533,20.6998,525.534,29.2853,0.0,0.0
1267,316.5,65.0422,69.8734,139.016,104.803,4.12904,0.00175863,0.302549,20.699,525.424,29.2144,0.0,0.0
1274,318.25,65.7451,69.4887,134.278,104.746,4.14092,0.00177505,0.30234,20.6982,525.294,29.1836,0.0,0.0
1281,320,64.6761,69.609,138.096,104.716,4.09058,0.00179777,0.30184,20.6988,525.164,29.2915,0.0,0.0
1288,321.75,65.0288,69.7104,139.608,104.648,4.13569,0.00186035,0.301503,20.6993,525.034,29.1866,0.0,0.0
1295,323.5,65.5847,70.0531,135.582,104.573,4.10435,0.00195863,0.30141,20.6993,524.924,29.2488,0.0,0.0
1302,325.25,65.0393,69.1605,137.417,104.5,4.14566,0.00200639,0.302272,20.6984,524.754,29.152,0.0,0.0
1309,327,64.8771,69.9873,142.111,104.443,4.21785,0.00196981,0.302913,20.6975,524.633,28.9912,0.0,0.0
1316,328.75,64.8393,69.3802,139.973,104.453,4.15374,0.00190336,0.303268,20.6963,524.513,29.1304,0.0,0.0
1323,330.5,65.0062,69.8316,137.569,104.479,4.18128,0.00189904,0.303887,20.6957,524.393,29.0729,0.0,0.0
1330,332.25,64.8478,69.3755,139.455,104.51,4.12524,0.00191971,0.304626,20.6954,524.223,29.1975,0.0,0.0
1337,334,65.5019,69.721,137.575,104.548,4.14566,0.00188487,0.305071,20.6953,524.103,29.1562,0.0,0.0
1344,335.75,65.1498,69.8635,139.38,104.602,4.12762,0.00191602,0.304504,20.6952,523.953,29.2002,0.0,0.0
1351,337.5,65.3943,69.6869,140.155,104.615,4.17226,0.00206015,0.303489,20.6954,523.833,29.1042,0.0,0.0
1358,339.25,64.6119,69.7736,139.092,104.647,4.05069,0.00206741,0.303042,20.6969,523.703,29.3741,0.0,0.0
1365,341,65.4991,70.079,139.822,104.679,4.08251,0.00191412,0.303123,20.6979,523.583,29.3062,0.0,0.0
1372,342.75,65.1038,69.7487,138.99,104.732,4.11147,0.00188733,0.303337,20.6983,523.432,29.2469,0.0,0.0
1379,344.5,65.3188,70.0118,140.631,104.772,4.12097,0.00202257,0.304424,20.6975,523.332,29.2295,0.0,0.0
1386,346.25,65.491,70.1062,138.809,104.798,4.11242,0.0021752,0.305107,20.6969,523.192,29.2505,0.0,0.0
1393,348,65.8842,70.5049,139.67,104.853,4.19648,0.00222242,0.30433,20.6967,523.082,29.0724,0.0,0.0
1400,349.75,65.625,70.0024,136.664,104.896,4.15991,0.00218715,0.304367,20.6965,522.942,29.1552,0.0,0.0
1407,351.5,65.3233,69.9518,142.345,104.937,4.04926,0.00215785,0.305252,20.6952,522.762,29.4023,0.0,0.0
1414,353.25,65.68,69.9679,139.565,104.975,4.20122,0.00212907,0.306197,20.6931,522.672,29.0727,0.0,0.0
1421,355,65.1706,69.6892,139.42,105.006,4.14994,0.00208099,0.30682,20.692,522.512,29.1863,0.0,0.0
1428,356.75,65.5588,70.3939,139.996,105.041,4.10577,0.00204364,0.307017,20.6914,522.422,29.286,0.0,0.0
1435,358.5,65.5439,70.1796,134.093,105.078,4.13332,0.00203711,0.307545,20.6912,522.271,29.2288,0.0,0.0
1442,360.25,65.6186,70.1295,140.501,105.096,4.19933,0.00201827,0.307774,20.6911,522.181,29.0872,0.0,0.0
1449,362,66.0079,70.652,135.988,105.129,4.29288,0.00197717,0.307666,20.6905,522.021,28.891,0.0,0.0
1456,363.75,65.5696,70.3914,136.724,105.151,4.15279,0.00195089,0.30801,20.69,521.851,29.1926,0.0,0.0
1463,365.5,65.417,70.1701,140.27,105.187,4.19173,0.00190471,0.308201,20.6897,521.751,29.1114,0.0,0.0
1470,367.25,65.5893,70.3657,138.309,105.205,4.16276,0.00179541,0.30835,20.6896,521.631,29.1756,0.0,0.0
1477,369,65.4516,70.6374,140.228,105.201,4.15469,0.00164479,0.308294,20.6895,521.501,29.1928,0.0,0.0
1484,370.75,65.6142,69.8317,134.882,105.108,4.15896,0.00157744,0.308862,20.6885,521.371,29.1755,0.0,0.0
1491,372.5,65.4409,70.4683,139.393,105.104,4.12002,0.0016354,0.309586,20.6883,521.24,29.2602,0.0,0.0
1498,374.25,65.551,70.1691,144.622,105.138,4.11575,0.00175521,0.309882,20.6881,521.1,29.2724,0.0,0.0
1505,376,65.9665,70.1705,137.538,105.14,4.20977,0.00183507,0.310539,20.6881,520.98,29.0686,0.0,0.0
1512,377.75,65.8289,70.4731,138.626,105.157,4.10008,0.00180487,0.310995,20.6881,520.83,29.3085,0.0,0.0
1519,379.5,65.8209,70.4021,134.445,105.18,4.22212,0.00167449,0.310905,20.688,520.71,29.0456,0.0,0.0
1526,381.25,66.1062,70.3806,139.487,105.211,4.15801,0.0014795,0.310884,20.688,520.59,29.1865,0.0,0.0
1533,383,65.9813,70.3892,134.806,105.221,4.09343,0.00134865,0.310822,20.6871,520.46,29.3287,0.0,0.0
1540,384.75,65.9284,70.4523,137.364,105.232,4.14946,0.0013452,0.311182,20.6864,520.32,29.2068,0.0,0.0
1547,386.5,65.8224,70.4299,136.517,105.254,4.17843,0.0014908,0.31152,20.6866,520.18,29.1458,0.0,0.0
1554,388.25,66.2992,70.1393,139.13,105.273,4.08298,0.00173226,0.312328,20.6865,520.039,29.3562,0.0,0.0
1561,390,65.9735,70.4607,138.633,105.286,4.196,0.0019851,0.313912,20.6854,519.909,29.1107,0.0,0.0
1568,391.75,65.7476,70.0428,135.529,105.295,4.15516,0.00210134,0.314717,20.6849,519.769,29.1998,0.0,0.0
1575,393.5,65.9691,70.2934,138.055,105.308,4.13664,0.00206753,0.314614,20.6847,519.639,29.2413,0.0,0.0
1582,395.25,66.1093,70.8325,136.411,105.332,4.1846,0.00197627,0.314834,20.6846,519.549,29.1392,0.0,0.0
1589,397,65.9794,70.4284,135.145,105.344,4.26106,0.00189401,0.315735,20.6833,519.399,28.9767,0.0,0.0
1596,398.75,66.0767,70.5564,136.593,105.356,4.18128,0.0018512,0.316328,20.6827,519.259,29.1485,0.0,0.0
1603,400.5,66.204,71.0371,139.648,105.341,4.14044,0.00187744,0.315948,20.6835,519.139,29.2358,0.0,0.0
1610,402.25,66.5199,70.4008,135.72,105.356,4.05591,0.00193804,0.315138,20.684,518.968,29.4234,0.0,0.0
1617,404,66.0786,70.8561,137.074,105.373,4.14376,0.0019623,0.314792,20.6842,518.848,29.2313,0.0,0.0
1624,405.75,66.1927,70.5286,133.227,105.379,4.17321,0.00195709,0.315339,20.6836,518.718,29.1679,0.0,0.0
1631,407.5,65.6404,70.741,139.265,105.37,4.16988,0.0019577,0.316391,20.6828,518.578,29.1743,0.0,0.0
1638,409.25,66.0681,71.0788,132.093,105.382,4.08488,0.00201556,0.317018,20.6821,518.468,29.3614,0.0,0.0
1645,411,66.485,70.6623,139.992,105.39,4.15421,0.00207028,0.317768,20.6808,518.338,29.21,0.0,0.0
1652,412.75,66.6955,71.1572,137.456,105.392,4.18175,0.00208727,0.318313,20.68,518.188,29.1505,0.0,0.0
1659,414.5,66.3654,70.7173,137.869,105.382,4.10815,0.00210305,0.318778,20.6786,518.078,29.3101,0.0,0.0
1666,416.25,66.7126,70.4849,135.29,105.368,4.22639,0.00208597,0.31985,20.6765,517.927,29.0525,0.0,0.0
1673,418,66.5642,70.7532,137.354,105.389,4.10055,0.00198714,0.320383,20.6755,517.757,29.3274,0.0,0.0
1680,419.75,66.5729,71.0771,135.914,105.38,4.25821,0.00189434,0.320674,20.675,517.617,28.9858,0.0,0.0
1687,421.5,66.6893,71.2449,133.441,105.375,4.13712,0.00183881,0.320955,20.6745,517.517,29.246,0.0,0.0
1694,423.25,66.9504,71.3488,135.575,105.362,4.20882,0.00180069,0.321423,20.6733,517.347,29.0897,0.0,0.0
1701,425,66.5784,71.1442,135.284,105.364,4.10483,0.0018199,0.322237,20.6727,517.217,29.3158,0.0,0.0
1708,426.75,67.0459,71.258,135.31,105.37,4.17938,0.00187215,0.322938,20.6725,517.107,29.1537,0.0,0.0
1715,428.5,66.9044,71.1576,138.625,105.362,4.20122,0.00191877,0.323545,20.6723,516.937,29.106,0.0,0.0
1722,430.25,66.8086,71.4535,136.314,105.358,4.12477,0.00199116,0.323964,20.6713,516.786,29.2715,0.0,0.0
1729,432,66.9397,71.5332,138,105.356,4.11622,0.00208384,0.324135,20.6709,516.656,29.2901,0.0,0.0
1736,433.75,66.6914,71.2117,135.281,105.343,4.21072,0.00225323,0.324482,20.6701,516.546,29.084,0.0,0.0
1743,435.5,67.3006,71.4993,133.08,105.356,4.14566,0.00241348,0.325372,20.6687,516.426,29.2257,0.0,0.0
1750,437.25,66.9224,71.4337,136.596,105.336,4.13664,0.00249922,0.326354,20.6672,516.276,29.2437,0.0,0.0
1757,439,66.99,71.5086,140.927,105.321,4.05496,0.00246861,0.326873,20.6666,516.136,29.4226,0.0,0.0
1764,440.75,67.3329,71.5139,133.737,105.314,4.12287,0.00226951,0.327107,20.6662,515.986,29.2719,0.0,0.0
1771,442.5,67.2151,71.4035,137.242,105.324,4.12714,0.00208723,0.327325,20.6656,515.876,29.2634,0.0,0.0
1778,444.25,67.1483,71.4835,135.648,105.295,4.16751,0.0020183,0.32872,20.6636,515.755,29.173,0.0,0.0
1785,446,66.8495,71.9402,135.125,105.303,4.14566,0.00202877,0.330492,20.6615,515.605,29.2212,0.0,0.0
1792,447.75,67.1891,71.6607,132.442,105.307,4.12952,0.00211761,0.331553,20.6597,515.455,29.2568,0.0,0.0
1799,449.5,67.4382,71.7922,133.961,105.295,4.08915,0.00217913,0.331854,20.6589,515.305,29.3445,0.0,0.0
1806,451.25,67.4493,71.9441,138.902,105.3,4.17083,0.00220291,0.331936,20.6584,515.185,29.1662,0.0,0.0
1813,453,67.3294,71.9314,140.68,105.279,4.09818,0.00222222,0.332132,20.6583,515.075,29.3232,0.0,0.0
1820,454.75,67.3394,71.8608,135.43,105.271,4.03454,0.00222821,0.332496,20.6583,514.925,29.4639,0.0,0.0
1827,456.5,67.6275,71.7937,134.938,105.261,4.08298,0.00219975,0.332925,20.6586,514.775,29.3552,0.0,0.0
1834,458.25,66.8872,71.9691,135.576,105.269,4.07016,0.00213694,0.333432,20.6582,514.665,29.3843,0.0,0.0
1841,460,67.0823,72.0995,133.028,105.269,4.05401,0.0021174,0.333793,20.6574,514.544,29.4202,0.0,0.0
1848,461.75,67.4531,72.0917,137.019,105.251,4.13949,0.00217467,0.333847,20.657,514.404,29.2302,0.0,0.0
1855,463.5,67.254,71.8854,138.024,105.255,4.08725,0.00218334,0.333815,20.6568,514.224,29.3453,0.0,0.0
1862,465.25,67.0377,71.9024,135.478,105.263,4.12287,0.00218342,0.33433,20.6561,514.104,29.2676,0.0,0.0
1869,467,67.733,72.323,137.82,105.26,4.10198,0.00224787,0.335331,20.6555,513.954,29.3132,0.0,0.0
1876,468.75,67.4071,71.8976,139.348,105.25,4.06019,0.00238606,0.336161,20.6549,513.824,29.4048,0.0,0.0
1883,470.5,67.7051,72.3009,136.017,105.244,4.092,0.00252854,0.337296,20.6538,513.714,29.3338,0.0,0.0
1890,472.25,67.7085,72.4231,136.784,105.25,4.10245,0.00263408,0.337837,20.6533,513.573,29.3113,0.0,0.0
1897,474,67.3867,71.471,135.019,105.255,4.0882,0.00263087,0.337769,20.6531,513.433,29.3432,0.0,0.0
1904,475.75,68.0098,72.3181,139.115,105.258,4.07586,0.00257474,0.33837,20.6529,513.253,29.3707,0.0,0.0
1911,477.5,67.5664,72.1008,139.054,105.248,4.08678,0.00254618,0.338815,20.6529,513.123,29.3457,0.0,0.0
1918,479.25,67.4167,71.85,137.125,105.255,4.03407,0.00251487,0.339499,20.6526,513.003,29.4635,0.0,0.0
1925,481,67.9057,72.4633,136.887,105.259,4.06161,0.00245004,0.340204,20.6508,512.843,29.4024,0.0,0.0
1932,482.75,67.4015,72.0607,132.585,105.255,4.04784,0.00236446,0.340926,20.6497,512.753,29.4328,0.0,0.0
1939,484.5,67.4573,72.0386,133.686,105.243,4.05496,0.0023702,0.341293,20.6493,512.573,29.4159,0.0,0.0
1946,486.25,68.1253,72.8264,134.322,105.234,4.0882,0.00235672,0.341114,20.6502,512.432,29.3413,0.0,0.0
1953,488,67.5045,72.1607,136.378,105.245,4.13902,0.00226044,0.3411,20.6506,512.292,29.2307,0.0,0.0
1960,489.75,67.9024,72.6682,134.658,105.26,4.01697,0.00219583,0.341425,20.6503,512.172,29.5023,0.0,0.0
1967,491.5,67.6982,72.4569,135.081,105.235,4.11907,0.00221981,0.342144,20.649,511.972,29.2735,0.0,0.0
1974,493.25,67.9949,72.4395,135.909,105.252,4.03834,0.00232107,0.343419,20.6464,511.842,29.4537,0.0,0.0
1981,495,67.7325,72.3298,136.035,105.237,4.14471,0.0024783,0.344414,20.6451,511.732,29.2176,0.0,0.0
1988,496.75,68.1709,73.1771,138.646,105.245,4.10767,0.00256144,0.344739,20.6445,511.602,29.2994,0.0,0.0
1995,498.5,68.2671,72.9433,137.947,105.244,4.05876,0.00255836,0.345476,20.6442,511.422,29.4075,0.0,0.0
2002,500.25,67.8761,72.683,137.926,105.249,4.05306,0.00251848,0.34652,20.6432,511.311,29.4206,0.0,0.0
2009,502,68.0605,72.7369,137.343,105.244,4.12667,0.00241217,0.348453,20.6408,511.141,29.2576,0.0,0.0
2016,503.75,68.0817,73.2023,136.701,105.25,3.95714,0.00224182,0.34974,20.6395,511.041,29.637,0.0,0.0
2023,505.5,68.0713,72.8898,136.981,105.229,4.0863,0.00214431,0.349465,20.6389,510.881,29.3451,0.0,0.0
2030,507.25,68.6108,73.3689,135.742,105.225,4.11195,0.00214211,0.349508,20.6386,510.741,29.2883,0.0,0.0
2037,509,68.3998,73.1023,135.904,105.218,4.04594,0.00219525,0.350266,20.6375,510.621,29.4338,0.0,0.0
2044,510.75,68.5828,73.4524,135.055,105.237,4.07728,0.00227476,0.350836,20.6367,510.421,29.3658,0.0,0.0
2051,512.5,68.3805,73.2355,139.736,105.247,4.01175,0.00226114,0.350796,20.6361,510.251,29.513,0.0,0.0
2058,514.25,68.6216,73.4061,135.869,105.268,4.06351,0.00218504,0.350467,20.6356,510.15,29.399,0.0,0.0
2065,516,68.2444,72.8444,136.176,105.229,4.15041,0.00213803,0.350585,20.6358,510.01,29.2045,0.0,0.0
2072,517.75,68.4651,73.213,138.978,105.24,4.007,0.00216637,0.350397,20.6359,509.84,29.5231,0.0,0.0
2079,519.5,68.7651,73.0758,139.154,105.238,4.12572,0.00221279,0.350321,20.6359,509.72,29.2592,0.0,0.0
2086,521.25,68.6535,73.3808,139.683,105.242,4.02315,0.00221418,0.349954,20.636,509.56,29.487,0.0,0.0
2093,523,69.0588,73.8856,136.488,105.221,4.04072,0.0021809,0.349023,20.6372,509.43,29.4458,0.0,0.0
2100,524.75,68.7852,73.7266,140.308,105.228,4.07491,0.00216478,0.348403,20.6382,509.27,29.3702,0.0,0.0
2107,526.5,68.6146,73.336,131.549,105.227,4.17036,0.00213927,0.347998,20.6395,509.14,29.161,0.0,0.0
2114,528.25,68.8942,73.5363,135.33,105.245,4.03122,0.00210741,0.347643,20.64,508.999,29.4691,0.0,0.0
2121,530,68.5017,73.4931,138.951,105.24,4.01032,0.00213727,0.347589,20.6403,508.849,29.5156,0.0,0.0
2128,531.75,68.8699,73.625,136.301,105.241,4.05639,0.00222817,0.347973,20.64,508.729,29.4126,0.0,0.0
2135,533.5,69.023,74.0184,135.71,105.234,4.05876,0.00222384,0.349005,20.6382,508.589,29.4066,0.0,0.0
2142,535.25,69.1232,73.4353,136.913,105.235,4.04736,0.00223373,0.349983,20.637,508.409,29.4322,0.0,0.0
2149,537,68.5293,73.5396,140.923,105.248,4.03359,0.00232531,0.350341,20.6365,508.309,29.464,0.0,0.0
2156,538.75,69.2093,73.8601,134.834,105.228,4.02884,0.00243389,0.350839,20.637,508.129,29.4729,0.0,0.0
2163,540.5,69.0204,73.727,136.642,105.23,4.06826,0.0025134,0.350375,20.6376,507.999,29.3852,0.0,0.0
2170,542.25,69.3645,73.9698,134.943,105.238,4.09913,0.00254089,0.349527,20.638,507.858,29.3176,0.0,0.0
2177,544,69.0821,73.7872,138.294,105.239,4.01127,0.00245195,0.349926,20.6381,507.708,29.5134,0.0,0.0
2184,545.75,69.4779,73.9379,136.333,105.23,4.1053,0.00236081,0.350067,20.6382,507.538,29.3033,0.0,0.0
2191,547.5,69.3808,74.0682,137.721,105.227,4.09438,0.00234821,0.349786,20.6383,507.408,29.3271,0.0,0.0
2198,549.25,69.5616,74.0642,141.784,105.244,3.9994,0.00239003,0.350137,20.6383,507.298,29.5405,0.0,0.0
2205,551,69.2536,74.2548,142.185,105.258,4.02695,0.00243341,0.350038,20.6372,507.118,29.4798,0.0,0.0
2212,552.75,69.2259,73.3077,135.895,105.256,4.06541,0.00244469,0.349635,20.6372,506.998,29.3938,0.0,0.0
2219,554.5,69.5487,74.2976,136.533,105.242,4.13284,0.00239478,0.348727,20.6382,506.827,29.2439,0.0,0.0
2226,556.25,69.3187,73.8683,139.571,105.249,4.04642,0.00232864,0.347652,20.6395,506.707,29.4354,0.0,0.0
2233,558,69.0344,74.0841,135.099,105.26,4.1072,0.00231182,0.347153,20.6401,506.577,29.3017,0.0,0.0
2240,559.75,69.4954,73.844,137.446,105.258,4.04736,0.00227167,0.345961,20.6413,506.437,29.4341,0.0,0.0
2247,561.5,69.1611,74.0436,139.74,105.264,4.11765,0.00221696,0.345409,20.6422,506.297,29.2791,0.0,0.0
2254,563.25,69.5646,74.4543,136.435,105.272,4.07111,0.00214342,0.345809,20.6426,506.147,29.3825,0.0,0.0
2261,565,68.7844,73.7067,136.098,105.279,4.08963,0.00211809,0.345954,20.6428,506.037,29.3421,0.0,0.0
2268,566.75,68.9948,73.6486,145.743,105.296,4.007,0.00217622,0.345336,20.6429,505.907,29.5279,0.0,0.0
2275,568.5,69.1552,73.9805,136.69,105.296,4.01792,0.002281,0.344635,20.644,505.766,29.5033,0.0,0.0
2282,570.25,68.7283,73.6756,137.4,105.288,4.06494,0.00229978,0.343793,20.6447,505.596,29.3976,0.0,0.0
2289,572,68.6019,73.5067,138.005,105.293,4.08773,0.00221504,0.342411,20.6453,505.516,29.3475,0.0,0.0
2296,573.75,69.0546,74.1131,135,105.311,4.026,0.00211855,0.340995,20.6467,505.376,29.4865,0.0,0.0
2303,575.5,68.2959,73.0396,135.383,105.306,4.06351,0.00211149,0.339086,20.6487,505.226,29.4023,0.0,0.0
2310,577.25,68.9465,74.0095,135.632,105.3,4.07348,0.00218005,0.337436,20.6509,505.066,29.3796,0.0,0.0
2317,579,68.4454,73.4147,138.983,105.307,3.96046,0.0022771,0.335663,20.6519,504.956,29.6344,0.0,0.0
2324,580.75,69.2027,73.5719,138.816,105.3,4.09723,0.00237728,0.334052,20.6541,504.836,29.3271,0.0,0.0
2331,582.5,68.8798,73.8093,138.152,105.315,4.04879,0.00241251,0.332352,20.6562,504.706,29.4358,0.0,0.0
2338,584.25,68.7248,73.6867,138.987,105.307,4.03169,0.00244137,0.330585,20.6585,504.555,29.4733,0.0,0.0
2345,586,68.722,73.7001,135.615,105.299,4.05116,0.00251255,0.328416,20.661,504.435,29.4291,0.0,0.0
2352,587.75,68.8241,73.6217,136.738,105.299,4.05021,0.00253443,0.327434,20.6632,504.335,29.4313,0.0,0.0
2359,589.5,68.9001,73.7299,140.569,105.312,4.15611,0.0024662,0.326447,20.6643,504.185,29.1992,0.0,0.0
2366,591.25,68.6154,73.5553,136.921,105.305,4.07823,0.00240078,0.325588,20.6649,504.085,29.3695,0.0,0.0
2373,593,68.9434,73.7072,137.703,105.295,4.04357,0.00237753,0.325192,20.6651,503.975,29.4458,0.0,0.0
2380,594.75,68.3624,73.1192,135.862,105.302,4.07396,0.00246607,0.324326,20.6661,503.875,29.3787,0.0,0.0
2387,596.5,67.7649,73.094,141.241,105.294,4.05544,0.00265176,0.3235,20.6681,503.715,29.4192,0.0,0.0
2394,598.25,68.2719,73.1475,135.967,105.311,4.12762,0.00277165,0.322369,20.6719,503.564,29.2613,0.0,0.0
2401,600,67.96,72.3548,140.05,105.293,4.10293,0.00273072,0.320389,20.6743,503.494,29.3139,0.0,0.0
2408,601.75,68.8589,72.8044,136.741,105.28,4.03169,0.00261511,0.318192,20.6771,503.374,29.471,0.0,0.0
2415,603.5,68.2031,73.0817,138.396,105.284,4.14424,0.00248778,0.315785,20.6792,503.244,29.2226,0.0,0.0
2422,605.25,68.0034,72.7281,134.283,105.309,4.06494,0.00233624,0.313025,20.6825,503.124,29.3993,0.0,0.0
2429,607,67.7267,72.5249,138.065,105.301,4.08108,0.00227052,0.309801,20.6861,503.034,29.3628,0.0,0.0
2436,608.75,67.6809,72.7563,136.112,105.293,4.04974,0.00238335,0.307497,20.6883,502.914,29.4318,0.0,0.0
2443,610.5,67.617,72.82,138.242,105.289,4.0977,0.00251796,0.304585,20.6928,502.794,29.3251,0.0,0.0
2450,612.25,67.5691,72.4319,141.309,105.298,4.11147,0.00269549,0.301063,20.697,502.704,29.2956,0.0,0.0
2457,614,67.3415,72.0051,134.36,105.303,4.05876,0.0028731,0.298453,20.6994,502.614,29.4125,0.0,0.0
2464,615.75,66.8724,72.3033,139.296,105.284,4.092,0.00300046,0.296113,20.7015,502.524,29.3372,0.0,0.0
2471,617.5,67.2985,71.7641,138.79,105.288,4.09533,0.00300106,0.293234,20.7051,502.413,29.3303,0.0,0.0
2478,619.25,67.611,71.8565,136.039,105.297,4.04594,0.00299831,0.289719,20.7097,502.313,29.4406,0.0,0.0
2485,621,66.6589,71.3889,138.607,105.307,4.11907,0.00300914,0.285772,20.7141,502.203,29.2797,0.0,0.0
2492,622.75,66.4553,71.3248,136.427,105.298,4.02647,0.00302419,0.282059,20.7173,502.093,29.4843,0.0,0.0
2499,624.5,66.1309,70.8497,139.69,105.289,4.08915,0.00304455,0.279223,20.7202,502.033,29.344,0.0,0.0
2506,626.25,65.8299,70.901,138.642,105.297,4.05259,0.00302188,0.276153,20.7238,501.933,29.4258,0.0,0.0
2513,628,66.0812,70.7267,135.911,105.308,4.14187,0.00298795,0.272352,20.7291,501.853,29.2299,0.0,0.0
2520,629.75,65.9835,70.7905,138.554,105.312,4.04167,0.00302392,0.268132,20.7349,501.753,29.4514,0.0,0.0
2527,631.5,65.7814,70.609,140.548,105.294,4.13332,0.00316144,0.264473,20.7406,501.653,29.2474,0.0,0.0
2534,633.25,65.5922,69.9344,140.476,105.304,4.02125,0.0032839,0.260376,20.7458,501.583,29.4965,0.0,0.0
2541,635,65.5834,70.0533,142.572,105.308,4.10103,0.00334916,0.256489,20.7502,501.503,29.3194,0.0,0.0
2548,636.75,64.9897,70.0557,136.421,105.321,4.06066,0.00336259,0.253302,20.7533,501.403,29.4099,0.0,0.0
2555,638.5,64.8266,69.5642,141.372,105.309,4.14092,0.00335188,0.250159,20.7562,501.342,29.2321,0.0,0.0
2562,640.25,64.7617,69.4568,140.598,105.305,4.05781,0.0032663,0.246794,20.7595,501.282,29.4149,0.0,0.0
2569,642,64.4597,69.3679,142.617,105.318,4.03264,0.00321493,0.243381,20.7627,501.202,29.4722,0.0,0.0
2576,643.75,64.1578,68.5734,139.029,105.314,3.98373,0.00324749,0.238934,20.7676,501.162,29.5821,0.0,0.0
2583,645.5,63.78,68.4498,138.916,105.319,4.06921,0.0033429,0.234763,20.7738,501.122,29.3907,0.0,0.0
2590,647.25,63.342,68.2031,141.664,105.314,4.04119,0.00354556,0.231193,20.7795,501.022,29.4527,0.0,0.0
2597,649,63.349,67.7785,142.513,105.315,4.06209,0.00382895,0.227297,20.7831,500.982,29.4062,0.0,0.0
2604,650.75,62.8117,67.4694,140.633,105.32,4.04499,0.00416026,0.223359,20.7878,500.962,29.4447,0.0,0.0
2611,652.5,62.8142,67.629,141.969,105.327,4.10577,0.00447144,0.218728,20.7929,500.872,29.3106,0.0,0.0
2618,654.25,62.8642,67.6393,145.046,105.323,3.95002,0.0047626,0.213894,20.7978,500.812,29.6596,0.0,0.0
2625,656,62.1591,66.9234,139.009,105.318,4.11005,0.00498632,0.209623,20.8015,500.792,29.3004,0.0,0.0
2632,657.75,61.7866,66.5661,143.342,105.33,4.0108,0.00520022,0.206029,20.8052,500.732,29.5223,0.0,0.0
2639,659.5,61.6706,66.2257,145.534,105.341,4.00178,0.0054052,0.202752,20.8097,500.722,29.5435,0.0,0.0
2646,661.25,60.9005,65.1336,144.483,105.34,4.00273,0.00561621,0.198977,20.814,500.692,29.5413,0.0,0.0
2653,663,60.8362,65.3058,143.937,105.332,4.02315,0.00589151,0.194625,20.8194,500.622,29.4947,0.0,0.0
2660,664.75,60.1789,64.8198,145.067,105.333,4.06731,0.00627944,0.189915,20.8252,500.602,29.3962,0.0,0.0
2667,666.5,59.9657,64.7436,148.687,105.349,4.03787,0.00660152,0.185397,20.83,500.542,29.4631,0.0,0.0
2674,668.25,59.7822,64.2785,144.123,105.356,4.05734,0.00691265,0.181469,20.8347,500.532,29.4203,0.0,0.0
2681,670,59.4897,63.9761,146.945,105.341,4.07016,0.00721478,0.177853,20.84,500.502,29.3905,0.0,0.0
2688,671.75,59.282,63.7115,144.678,105.354,4.06541,0.00752602,0.17513,20.8437,500.472,29.4022,0.0,0.0
2695,673.5,58.7813,63.1278,150.517,105.358,4.02789,0.00781401,0.172894,20.8467,500.462,29.4862,0.0,0.0
2702,675.25,58.4048,63.0782,149.477,105.371,4.07538,0.00807309,0.171134,20.8496,500.442,29.3814,0.0,0.0
2709,677,58.3061,62.7182,144.211,105.364,4.02884,0.00822185,0.16971,20.8507,500.402,29.4846,0.0,0.0
2716,678.75,57.8957,62.4364,145.483,105.361,3.98088,0.00817356,0.168594,20.8531,500.342,29.5926,0.0,0.0
2723,680.5,57.8928,61.8412,146.347,105.378,4.01887,0.00805154,0.167117,20.8549,500.312,29.5082,0.0,0.0
2730,682.25,57.4663,61.8196,144.005,105.385,4.02267,0.00803546,0.165736,20.8557,500.312,29.5003,0.0,0.0
2737,684,57.1168,61.1973,141.219,105.385,4.05876,0.00811929,0.164911,20.8561,500.312,29.4196,0.0,0.0
2744,685.75,57.0244,61.1609,148.539,105.374,4.04452,0.00821237,0.164514,20.8563,500.282,29.4504,0.0,0.0
2751,687.5,56.7938,60.8999,142.937,105.38,3.96664,0.00835459,0.16386,20.8564,500.251,29.6266,0.0,0.0
2758,689.25,56.2339,60.4985,144.323,105.371,4.05829,0.00851222,0.163047,20.8569,500.242,29.4194,0.0,0.0
2765,691,56.0964,60.0317,148.528,105.379,3.97613,0.0085828,0.162316,20.8579,500.191,29.6049,0.0,0.0
2772,692.75,55.5607,59.7022,149.6,105.368,4.02077,0.00861315,0.161501,20.8586,500.151,29.5031,0.0,0.0
2779,694.5,54.9915,59.1987,145.165,105.384,4.06494,0.00862279,0.161088,20.8597,500.131,29.4058,0.0,0.0
2786,696.25,55.182,58.7445,144.778,105.359,4.04214,0.00863021,0.160955,20.8599,500.081,29.4544,0.0,0.0
2793,698,54.5559,58.7714,143.822,105.361,4.04262,0.00865052,0.161112,20.8605,500.091,29.4535,0.0,0.0
2800,699.75,53.9843,58.3718,145.081,105.34,4.05306,0.00864103,0.161049,20.8602,500.061,29.4284,0.0,0.0
2807,701.5,54.5513,58.3711,145.394,105.329,4.07443,0.00864607,0.16098,20.8607,500.051,29.3799,0.0,0.0
2814,703.25,54.737,58.1074,145.735,105.313,4.0013,0.00869913,0.160574,20.8609,500.041,29.5422,0.0,0.0
2821,705,54.3386,57.9719,149.977,105.319,3.97518,0.00869852,0.159638,20.862,499.991,29.6019,0.0,0.0
2828,706.75,54.0146,57.6382,145.118,105.309,4.02267,0.00860947,0.15891,20.8634,499.991,29.4938,0.0,0.0
2835,708.5,54.1948,57.469,144.941,105.286,3.98421,0.00852182,0.158324,20.8646,499.951,29.5786,0.0,0.0
2842,710.25,53.9737,57.0053,147.539,105.271,3.98896,0.00854737,0.157686,20.866,499.971,29.5666,0.0,0.0
2849,712,53.4771,56.483,143.4,105.256,3.98326,0.00863163,0.157165,20.8674,499.911,29.5781,0.0,0.0
2856,713.75,53.3216,56.8136,143.87,105.25,4.07586,0.00876585,0.157231,20.8681,499.901,29.37,0.0,0.0
2863,715.5,53.2418,56.3351,144.097,105.228,3.98421,0.00883163,0.157284,20.8685,499.871,29.5736,0.0,0.0
2870,717.25,53.3296,56.9647,141.03,105.215,4.0032,0.0088199,0.156888,20.8686,499.841,29.5295,0.0,0.0
2877,719,53.1739,56.5295,145.27,105.194,3.96806,0.00874326,0.156626,20.8687,499.821,29.6074,0.0,0.0
2884,720.75,52.8563,56.0386,147.491,105.19,3.98801,0.0086925,0.156221,20.8687,499.811,29.5617,0.0,0.0
2891,722.5,52.5828,55.994,146.196,105.16,3.93957,0.00869955,0.155978,20.8679,499.771,29.6695,0.0,0.0
2898,724.25,52.7941,55.6553,147.297,105.14,3.97138,0.00865966,0.155947,20.8684,499.761,29.5951,0.0,0.0
2905,726,52.4474,55.7468,148.352,105.109,3.95144,0.00863308,0.155892,20.8686,499.721,29.638,0.0,0.0
2912,727.75,52.3367,55.433,145.994,105.098,3.95619,0.00864484,0.155705,20.8687,499.721,29.6262,0.0,0.0
2919,729.5,52.6448,55.1687,143.884,105.084,3.99323,0.00860507,0.155487,20.8683,499.671,29.5408,0.0,0.0
2926,731.25,52.4107,55.473,143.761,105.037,3.95666,0.00846161,0.155293,20.8681,499.691,29.6198,0.0,0.0
2933,733,52.1685,54.9673,150.121,105.021,3.9277,0.00838195,0.155144,20.868,499.631,29.6849,0.0,0.0
2940,734.75,52.0281,55.3888,146.265,105.001,3.98943,0.00842941,0.154874,20.8685,499.671,29.5423,0.0,0.0
2947,736.5,51.9346,54.4301,143.095,104.987,3.97091,0.00850167,0.154618,20.8695,499.631,29.5831,0.0,0.0
2954,738.25,52.0149,54.985,146.615,104.952,3.91013,0.00853893,0.154364,20.87,499.621,29.7194,0.0,0.0
2961,740,51.6624,54.1568,150.43,104.927,3.92105,0.00852976,0.154131,20.8702,499.571,29.6921,0.0,0.0
2968,741.75,51.7425,54.6909,141.742,104.918,3.95286,0.00849747,0.154381,20.8703,499.571,29.6183,0.0,0.0
2975,743.5,51.6201,54.278,148.473,104.912,3.89256,0.00851864,0.154226,20.8704,499.571,29.7567,0.0,0.0
2982,745.25,51.181,54.505,146.819,104.89,3.96094,0.00857915,0.153901,20.8704,499.511,29.5975,0.0,0.0
2989,747,51.6142,53.8741,146.267,104.867,3.9106,0.00865908,0.153796,20.8704,499.481,29.711,0.0,0.0
2996,748.75,51.4329,53.7786,150.172,104.826,3.91535,0.00866037,0.153672,20.8704,499.481,29.6965,0.0,0.0
3003,750.5,51.9887,54.0519,143.297,104.823,3.89635,0.0085136,0.153385,20.8708,499.441,29.7402,0.0,0.0
3010,752.25,51.3845,53.9398,146.517,104.817,3.96046,0.00841375,0.152892,20.8719,499.441,29.5922,0.0,0.0
3017,754,50.9077,54.0494,146.402,104.79,3.94052,0.00849132,0.152085,20.8728,499.391,29.6355,0.0,0.0
3024,755.75,51.4727,53.78,145.264,104.764,3.96236,0.0086321,0.151465,20.8733,499.421,29.5833,0.0,0.0
3031,757.5,51.2926,53.5839,146.98,104.74,3.90015,0.00875068,0.15115,20.8737,499.381,29.7242,0.0,0.0
3038,759.25,50.752,53.4159,149.928,104.731,3.89256,0.00875912,0.151285,20.8739,499.351,29.7411,0.0,0.0
3045,761,51.1769,53.3739,150.62,104.701,3.8992,0.00869372,0.151139,20.874,499.381,29.723,0.0,0.0
3052,762.75,50.9778,53.5367,143.309,104.666,3.95619,0.00864655,0.150821,20.8744,499.331,29.5889,0.0,0.0
3059,764.5,50.9827,52.8627,146.119,104.645,3.92342,0.00864794,0.150375,20.8755,499.301,29.6623,0.0,0.0
3066,766.25,50.774,53.255,143.278,104.623,3.94954,0.00865775,0.150191,20.8759,499.301,29.6005,0.0,0.0
3073,768,50.6105,52.7109,145.2,104.622,3.91013,0.008662,0.149929,20.8771,499.251,29.691,0.0,0.0
3080,769.75,50.8587,53.1403,147.973,104.581,3.94527,0.00863701,0.149339,20.8779,499.261,29.6066,0.0,0.0
3087,771.5,50.1286,53.0105,150.586,104.557,3.8992,0.00869315,0.148883,20.8783,499.201,29.7106,0.0,0.0
3094,773.25,50.4048,53.1093,145.174,104.532,3.86454,0.00886717,0.149299,20.8776,499.171,29.7892,0.0,0.0
3101,775,50.6073,52.8581,146.606,104.515,3.91203,0.00903156,0.149957,20.8769,499.161,29.6773,0.0,0.0
3108,776.75,50.302,52.8235,145.223,104.501,3.90015,0.00894333,0.150272,20.8766,499.181,29.7036,0.0,0.0
3115,778.5,50.5986,53.0398,145.761,104.467,3.90395,0.00874414,0.149904,20.8773,499.171,29.6919,0.0,0.0
3122,780.25,50.2811,52.5665,152.24,104.455,3.97613,0.00855952,0.149302,20.877,499.11,29.5253,0.0,0.0
3129,782,50.239,52.2379,148.722,104.443,3.9011,0.00847319,0.149171,20.8769,499.1,29.6964,0.0,0.0
3136,783.75,50.2686,52.3503,146.361,104.465,3.87166,0.00841474,0.149049,20.8768,499.09,29.7667,0.0,0.0
3143,785.5,49.7776,52.5687,145.748,104.49,3.93292,0.00836545,0.148914,20.8772,499.141,29.6271,0.0,0.0
3150,787.25,50.2606,52.5799,147.609,104.54,3.96664,0.00833515,0.14797,20.8782,499.08,29.5543,0.0,0.0
3157,789,50.4024,52.0985,144.818,104.574,3.94194,0.00838956,0.147461,20.8786,499.04,29.6136,0.0,0.0
3164,790.75,50.2124,52.4403,146.715,104.64,3.90918,0.00844739,0.147482,20.8788,499.03,29.6948,0.0,0.0
3171,792.5,49.9712,52.6926,147.709,104.689,3.9068,0.00847102,0.147258,20.879,499.02,29.7044,0.0,0.0
3178,794.25,50.2522,52.3103,147.795,104.696,3.93767,0.00854633,0.146947,20.879,498.97,29.634,0.0,0.0
3185,796,49.7968,51.3783,147.303,104.747,3.92342,0.00863336,0.146802,20.8795,498.96,29.6711,0.0,0.0
3192,797.75,50.3169,51.6365,147.905,104.782,3.92532,0.00862025,0.146677,20.8805,498.96,29.6697,0.0,0.0
3199,799.5,50.2835,51.7464,148.086,104.808,3.9296,0.00856998,0.146289,20.8809,498.91,29.6621,0.0,0.0
3206,801.25,49.6054,52.1015,149.632,104.82,3.88258,,0.146138,,498.87,29.7719,0.0,0.0
3213,803,49.8347,52.0218,149.575,104.86,3.94907,,0.146051,,498.86,29.622,0.0,0.0
3220,804.75,49.9106,51.8348,145.014,104.87,3.89351,,,,498.84,29.7508,0.0,0.0
3227,806.5,49.1849,51.9977,144.517,104.903,3.89588,,,,498.83,29.7481,0.0,0.0
3234,808.25,49.7719,51.6209,143.816,104.905,3.97423,,,,498.81,29.5684,0.0,0.0
3241,810,49.5503,51.9076,148.059,104.897,3.93387,,,,498.77,29.66,0.0,0.0
3245,811,49.5183,51.8637,148.013,104.908,3.95144,,,,498.78,29.6207,0.0,0.0