File: 01_Data/Pine_Siding/Cone/Pine_Siding_Cone_HF50Scan_221004_R2.csv
Names,Time,Stack TC,Smoke TC,Exh Press,Smoke Comp,Smoke Meas,CO Meter,CO2 Meter,O2 Meter,Sample Mass,Ext Coeff,Start Test,Flame Verif
Chan Gain,,500,500,1,1,1,1,1,1,1,1,1.0,1.0
Offset,,0,0,0.13918,0,0,0,0,0,0,0,0.0,0.0
Gain,,1,1,25.011,14.0162,15.5607,1,1,1,1.0009,1.02981,1.0,1.0
Units,sec,C,C,Pa,%,%,%,%,%,g,/m,,
Baseline,,33.2183,34.2132,155.636,104.546,3.56746,0.000438654,0.0860646,20.9578,-2.53266,30.5131,,
8,1.75,31.4309,32.5393,154.061,104.677,3.55587,0.000401021,0.0923726,20.951,552.349,30.5536,0.0,0.0
16,3.75,31.4145,32.8426,154.44,104.656,3.51455,0.000450155,0.0919686,20.9519,552.308,30.6574,0.0,0.0
24,5.75,30.9755,32.793,154.596,104.65,3.53497,0.000448645,0.0911271,20.9527,552.268,30.6045,0.0,0.0
32,7.75,30.6324,32.5028,156.14,104.6,3.52358,0.000499459,0.0905377,20.9526,552.198,30.6294,0.0,0.0
40,9.75,31.1648,32.9684,153.965,104.558,3.48131,0.000772484,0.090664,20.9502,552.148,30.7348,0.0,0.0
48,11.75,31.7557,32.7047,157.824,104.51,3.49081,0.00145545,0.101936,20.9394,552.008,30.706,0.0,1.0
56,13.75,32.4181,33.428,134.187,104.444,3.67791,0.00246524,0.162492,20.8514,551.588,30.2286,0.0,1.0
64,15.75,34.8252,34.1737,132.963,104.378,3.76149,0.00365526,0.28056,20.6501,551.348,30.0199,0.0,1.0
72,17.75,37.4244,36.7027,131.545,104.321,3.88258,0.00462007,0.436355,20.4871,550.977,29.7288,0.0,0.0
80,19.75,39.7867,38.9667,132.84,104.274,3.75104,0.00529257,0.524976,20.378,550.637,30.0361,0.0,0.0
88,21.75,43.0141,41.7856,129.487,104.186,3.69168,0.00573688,0.58508,20.3266,550.317,30.1725,0.0,0.0
96,23.75,44.2745,43.6834,129.619,104.122,3.66224,0.00606125,0.60649,20.3045,549.976,30.2394,0.0,0.0
104,25.75,46.0673,45.5586,130.009,104.041,3.57866,0.00615262,0.604602,20.3098,549.646,30.4408,0.0,0.0
112,27.75,47.3239,46.8275,134.453,103.959,3.76291,0.00590581,0.588184,20.3391,549.346,29.9802,0.0,0.0
120,29.75,48.685,48.2483,133.567,103.866,3.64847,0.00557387,0.561127,20.3826,549.046,30.2511,0.0,0.0
128,31.75,49.6032,49.7023,139.251,103.798,3.65844,0.00528742,0.531211,20.418,548.815,30.2206,0.0,0.0
136,33.75,50.1403,50.5498,137.408,103.725,3.72207,0.00503463,0.506877,20.4478,548.535,30.0584,0.0,0.0
144,35.75,50.7924,51.1693,141.382,103.657,3.64562,0.00494213,0.485702,20.4733,548.345,30.24,0.0,0.0
152,37.75,51.544,51.8602,142.44,103.601,3.66651,0.00490337,0.469677,20.4948,548.085,30.1835,0.0,0.0
160,39.75,51.9649,52.811,135.755,103.547,3.60526,0.00475628,0.45354,20.5129,547.844,30.3309,0.0,0.0
168,41.75,52.2933,53.3266,139.279,103.497,3.63992,0.00457032,0.439445,20.531,547.604,30.2402,0.0,0.0
176,43.75,52.8119,53.8611,143.317,103.457,3.60763,0.00441052,0.42503,20.5477,547.384,30.3172,0.0,0.0
184,45.75,50.5973,54.3874,139.868,103.421,3.6176,0.00424604,0.414725,20.5603,547.164,30.2891,0.0,0.0
192,47.75,52.7014,54.6622,136.447,103.402,3.58341,0.00404512,0.405984,20.569,546.954,30.3732,0.0,0.0
200,49.75,53.9402,54.9814,143.289,103.383,3.69786,0.00370171,0.397016,20.5809,546.743,30.0875,0.0,0.0
208,51.75,51.8896,55.749,143.598,103.365,3.68409,0.00341838,0.387345,20.5941,546.563,30.1197,0.0,0.0
216,53.75,53.4216,55.3742,141.297,103.374,3.66319,0.00320437,0.378932,20.6028,546.353,30.1718,0.0,0.0
224,55.75,53.3467,55.3774,143.367,103.392,3.68693,0.00301047,0.372891,20.6102,546.153,30.1151,0.0,0.0
232,57.75,53.3168,55.8443,142.553,103.417,3.70973,0.00286562,0.368463,20.6152,545.943,30.0616,0.0,0.0
240,59.75,53.9169,55.7231,145.253,103.462,3.68551,0.00280393,0.365501,20.6192,545.743,30.1247,0.0,0.0
248,61.75,53.4871,55.8154,147.499,103.521,3.70545,0.0027326,0.362467,20.623,545.572,30.081,0.0,0.0
256,63.75,53.5468,56.2081,143.854,103.577,3.7406,0.00254322,0.358837,20.6273,545.382,30.0007,0.0,0.0
264,65.75,53.4626,56.4172,144.287,103.655,3.73537,0.00237262,0.354236,20.6345,545.182,30.0201,0.0,0.0
272,67.75,53.4299,55.9441,142.864,103.752,3.71685,0.00233973,0.348077,20.6426,544.952,30.0735,0.0,0.0
280,69.75,53.8163,56.5745,141.277,103.832,3.79995,0.00239981,0.3428,20.6492,544.772,29.8807,0.0,0.0
288,71.75,53.5052,56.5585,141.65,103.925,3.74487,0.00250943,0.338644,20.6539,544.602,30.0207,0.0,0.0
296,73.75,53.3437,56.929,145.728,104.009,3.75674,0.00260324,0.335096,20.6591,544.421,29.9994,0.0,0.0
304,75.75,53.1296,56.7257,144.513,104.104,3.82655,0.00268108,0.330646,20.6653,544.271,29.8414,0.0,0.0
312,77.75,53.2502,56.9285,141.124,104.191,3.8161,0.00272355,0.326404,20.6712,544.121,29.8736,0.0,0.0
320,79.75,53.2564,57.1747,145.153,104.293,3.80755,0.00265547,0.321905,20.6771,543.941,29.9027,0.0,0.0
328,81.75,53.323,56.5369,143.024,104.391,3.79426,0.00240676,0.317811,20.682,543.791,29.9427,0.0,0.0
336,83.75,53.0023,56.9654,143.946,104.497,3.80138,0.00217761,0.315267,20.6849,543.611,29.935,0.0,0.0
344,85.75,53.2843,56.8151,144.667,104.584,3.80708,0.00203503,0.31309,20.6876,543.44,29.929,0.0,0.0
352,87.75,53.2931,56.9507,144.494,104.689,3.88116,0.00199493,0.309784,20.6907,543.3,29.7639,0.0,0.0
360,89.75,52.8853,56.9206,145.397,104.765,3.85029,0.00200425,0.30597,20.6947,543.15,29.8426,0.0,0.0
368,91.75,53.1003,56.5933,143.913,104.86,3.82085,0.00203045,0.30323,20.6984,542.96,29.9201,0.0,0.0
376,93.75,52.5251,56.9752,139.748,104.923,3.9049,0.00205353,0.300459,20.7007,542.79,29.729,0.0,0.0
384,95.75,53.0015,56.7274,146.47,104.997,3.81753,0.00198691,0.298093,20.7046,542.65,29.9398,0.0,0.0
392,97.75,52.4296,56.6031,145.364,105.066,3.81753,0.00186596,0.295075,20.7103,542.49,29.9458,0.0,0.0
400,99.75,52.6612,56.5719,152.143,105.119,3.85646,0.00178867,0.292411,20.7131,542.32,29.8587,0.0,0.0
408,101.75,52.499,56.2878,141.773,105.172,3.88448,0.00174543,0.291579,20.7142,542.199,29.7978,0.0,0.0
416,103.75,52.5415,56.345,148.161,105.221,3.86216,0.00175445,0.289993,20.7164,542.039,29.854,0.0,0.0
424,105.75,52.1924,56.2427,144.666,105.264,3.85884,0.00186721,0.288106,20.7197,541.909,29.8655,0.0,0.0
432,107.75,52.2152,56.3848,145.178,105.296,3.91582,0.00203669,0.284965,20.7234,541.749,29.7358,0.0,0.0
440,109.75,51.9256,56.1813,143.184,105.325,3.9258,0.00214206,0.282007,20.7265,541.629,29.7153,0.0,0.0
448,111.75,51.6455,55.9136,146.671,105.338,3.85267,0.0020356,0.279485,20.7298,541.479,29.8864,0.0,0.0
456,113.75,51.5909,55.7694,144.499,105.349,3.84602,0.00189026,0.277762,20.7321,541.329,29.9028,0.0,0.0
464,115.75,51.5104,55.7141,144.701,105.353,3.89351,0.00186951,0.276582,20.733,541.188,29.7924,0.0,0.0
472,117.75,51.3471,55.5906,143.501,105.344,3.86834,0.00188283,0.276249,20.733,541.038,29.8502,0.0,0.0
480,119.75,51.3106,55.7668,145.184,105.334,3.87641,0.001857,0.276344,20.7329,540.908,29.8305,0.0,0.0
488,121.75,51.3533,55.4159,146.305,105.305,3.92057,0.00183423,0.275859,20.7329,540.758,29.7256,0.0,0.0
496,123.75,51.2175,55.382,142.999,105.285,3.91535,0.0018556,0.274987,20.7342,540.628,29.7359,0.0,0.0
504,125.75,51.192,55.1798,151.116,105.247,3.9011,0.00190366,0.27366,20.7359,540.488,29.7656,0.0,0.0
512,127.75,51.3151,55.5929,141.805,105.211,3.89303,0.00192498,0.272479,20.7368,540.328,29.7812,0.0,0.0
520,129.75,51.0502,55.0486,147.152,105.171,3.93529,0.00187634,0.272202,20.7372,540.178,29.6803,0.0,0.0
528,131.75,51.2819,55.2341,144.143,105.131,3.90205,0.00180814,0.272298,20.7374,540.037,29.7534,0.0,0.0
536,133.75,51.1354,55.3798,141.648,105.079,3.9163,0.00184404,0.271605,20.7375,539.887,29.7161,0.0,0.0
544,135.75,50.8967,55.0975,146.995,105.023,3.94479,0.00197084,0.269934,20.739,539.777,29.6458,0.0,0.0
552,137.75,50.7765,55.0129,149.336,104.964,3.85457,0.00206622,0.268719,20.7408,539.647,29.8497,0.0,0.0
560,139.75,50.7592,54.975,144.18,104.901,3.86454,0.00199876,0.267227,20.742,539.467,29.821,0.0,0.0
568,141.75,50.5132,54.8092,147.907,104.841,3.88781,0.00183391,0.265644,20.7437,539.337,29.7616,0.0,0.0
576,143.75,50.2432,54.5208,148.065,104.777,3.88923,0.00175087,0.265749,20.7437,539.237,29.7527,0.0,0.0
584,145.75,50.5163,54.9392,143.398,104.711,4.0146,0.00167073,0.266318,20.7432,539.097,29.4605,0.0,0.0
592,147.75,50.4903,54.6081,143.279,104.66,3.85931,0.00161736,0.265679,20.7446,538.956,29.8124,0.0,0.0
600,149.75,50.4988,54.6785,149.056,104.605,3.8954,0.0016172,0.265305,20.7454,538.816,29.7236,0.0,0.0
608,151.75,49.9815,54.4118,142.604,104.554,3.86644,0.00174199,0.265316,20.7457,538.676,29.7866,0.0,0.0
616,153.75,50.4947,54.4444,141.881,104.496,3.86834,0.00188152,0.265122,20.7459,538.536,29.7772,0.0,0.0
624,155.75,50.4891,54.5287,146.631,104.465,3.86739,0.00189154,0.26452,20.746,538.406,29.7767,0.0,0.0
632,157.75,50.3578,54.2842,145.764,104.435,3.87641,0.00178637,0.26466,20.746,538.306,29.753,0.0,0.0
640,159.75,50.3733,54.3601,148.591,104.491,3.87736,0.00172505,0.264705,20.746,538.156,29.7557,0.0,0.0
648,161.75,50.2669,53.9427,143.393,104.581,3.89683,0.00175161,0.264655,20.7473,538.016,29.7182,0.0,0.0
656,163.75,50.4203,53.9202,146.69,104.672,3.89825,0.00184892,0.264271,20.7479,537.865,29.7228,0.0,0.0
664,165.75,50.1942,54.0413,147.989,104.748,3.88828,0.00206167,0.262988,20.748,537.735,29.7525,0.0,0.0
672,167.75,50.0816,54.1975,147.564,104.809,3.87498,0.0021349,0.261565,20.7478,537.585,29.7886,0.0,0.0
680,169.75,49.8601,54.2389,145.303,104.845,3.93387,0.00213102,0.260873,20.7481,537.455,29.6555,0.0,0.0
688,171.75,49.8738,53.9194,147.497,104.88,3.94527,0.00209211,0.26038,20.7489,537.325,29.6324,0.0,0.0
696,173.75,49.5728,53.7519,144.879,104.906,3.903,0.00196738,0.25964,20.7502,537.195,29.7319,0.0,0.0
704,175.75,50.5592,54.0736,148.145,104.942,3.94622,0.00184939,0.258418,20.7512,537.055,29.6356,0.0,0.0
712,177.75,49.6685,53.6423,149.315,104.934,3.96094,0.00185328,0.258375,20.7504,536.895,29.6013,0.0,0.0
720,179.75,49.9286,53.7941,140.26,104.937,3.92295,0.00196648,0.258618,20.7503,536.794,29.6886,0.0,0.0
728,181.75,49.586,53.3948,148.705,104.926,3.89493,0.00203078,0.258533,20.7504,536.604,29.7523,0.0,0.0
736,183.75,49.8263,53.3911,146.928,104.886,3.93529,0.00197904,0.257319,20.7528,536.484,29.6558,0.0,0.0
744,185.75,49.8154,53.5012,145.641,104.849,3.90775,0.00201572,0.256452,20.7541,536.344,29.716,0.0,0.0
752,187.75,49.6543,53.5352,147.905,104.817,3.88306,0.00213731,0.256421,20.7553,536.234,29.7705,0.0,0.0
760,189.75,49.5843,53.3607,147.907,104.738,3.90728,0.00222919,0.257226,20.7541,536.144,29.7076,0.0,0.0
768,191.75,49.5634,53.3885,141.089,104.665,3.88686,0.00216394,0.258084,20.7533,535.974,29.7486,0.0,0.0
776,193.75,49.8466,53.253,147.457,104.578,3.93055,0.00195133,0.258562,20.753,535.864,29.6401,0.0,0.0
784,195.75,49.6055,53.06,146.665,104.482,3.87546,0.00179499,0.258387,20.7528,535.734,29.7593,0.0,0.0
792,197.75,49.6031,53.338,146.302,104.375,3.89635,0.00173971,0.258269,20.7528,535.623,29.7015,0.0,0.0
800,199.75,49.3065,53.0347,147.249,104.269,3.9106,0.00174534,0.25734,20.7539,535.453,29.6593,0.0,0.0
808,201.75,49.4704,53.2469,145.171,104.142,3.90395,0.00183728,0.257204,20.7545,535.283,29.6637,0.0,0.0
816,203.75,49.6523,53.1865,150.611,104.043,3.85931,0.00198843,0.257143,20.7548,535.223,29.759,0.0,0.0
824,205.75,49.5578,53.2443,148.664,104.036,3.86026,0.00208218,0.256646,20.7556,535.093,29.7562,0.0,0.0
832,207.75,49.7397,53.2825,144.909,104.063,3.88828,0.00205363,0.255872,20.7566,534.963,29.6932,0.0,0.0
840,209.75,49.3064,52.6596,148.168,104.088,3.90728,0.00200298,0.255568,20.757,534.813,29.6513,0.0,0.0
848,211.75,49.0572,52.662,150.003,104.117,3.85789,0.00196104,0.255382,20.7566,534.683,29.7688,0.0,0.0
856,213.75,49.4971,53.1835,146.477,104.151,3.89398,0.00194772,0.255562,20.7563,534.552,29.6876,0.0,0.0
864,215.75,49.3567,53.0184,144.653,104.182,3.96046,0.00194201,0.256042,20.757,534.422,29.5373,0.0,0.0
872,217.75,49.1957,53.1677,147.491,104.212,3.94004,0.00193306,0.255294,20.7586,534.272,29.5867,0.0,0.0
880,219.75,48.9881,52.8115,144.782,104.246,3.85267,0.00192532,0.253504,20.7598,534.162,29.7922,0.0,0.0
888,221.75,48.933,52.5838,149.124,104.284,3.86074,0.00188805,0.253395,20.7594,534.042,29.7766,0.0,0.0
896,223.75,49.0398,52.3819,143.433,104.297,3.95761,0.00182407,0.253837,20.7588,533.932,29.5538,0.0,0.0
904,225.75,49.6079,52.5442,148.651,104.332,3.90015,0.00178992,0.253953,20.7586,533.802,29.6889,0.0,0.0
912,227.75,49.2964,52.722,143.45,104.37,3.92437,0.00178504,0.253742,20.7585,533.632,29.6364,0.0,0.0
920,229.75,48.9579,53.0367,146.679,104.405,3.93292,0.00182875,0.253715,20.7584,533.512,29.6197,0.0,0.0
928,231.75,49.4227,52.2766,143.74,104.437,3.85599,0.00195609,0.253922,20.7594,533.401,29.8009,0.0,0.0
936,233.75,49.4099,51.8991,142.837,104.473,3.95619,0.00212149,0.253193,20.7601,533.261,29.5723,0.0,0.0
944,235.75,49.2043,51.8637,142.671,104.507,3.95429,0.00225321,0.252899,20.7601,533.131,29.5796,0.0,0.0
952,237.75,49.011,52.1522,146.168,104.543,3.94099,0.00224472,0.25337,20.7588,532.991,29.6131,0.0,0.0
960,239.75,49.4729,52.6944,146.109,104.578,3.94479,0.00218258,0.253339,20.7591,532.871,29.6074,0.0,0.0
968,241.75,49.037,52.4115,147.86,104.612,3.94194,0.002034,0.253132,20.7597,532.741,29.6169,0.0,0.0
976,243.75,48.9923,52.2016,146.341,104.621,3.95049,0.00194836,0.253117,20.7599,532.611,29.5981,0.0,0.0
984,245.75,49.0629,52.2159,147.299,104.647,3.94812,0.0020027,0.253481,20.76,532.491,29.6058,0.0,0.0
992,247.75,49.3396,52.2587,143.505,104.651,3.9144,0.00204821,0.254127,20.7593,532.36,29.6836,0.0,0.0
1000,249.75,49.1502,52.5186,146.166,104.674,3.91392,0.002128,0.254171,20.7584,532.24,29.6867,0.0,0.0
1008,251.75,49.2136,52.5021,147.84,104.676,3.91535,0.00221802,0.254175,20.758,532.09,29.6836,0.0,0.0
1016,253.75,49.0301,52.1964,144.771,104.652,3.95239,0.00221849,0.254347,20.7579,531.99,29.5964,0.0,0.0
1024,255.75,49.1377,52.3688,145.98,104.642,3.90395,0.00219961,0.254228,20.7578,531.86,29.7069,0.0,0.0
1032,257.75,48.9208,52.2126,146.34,104.632,3.94622,0.00218201,0.254415,20.7576,531.73,29.6088,0.0,0.0
1040,259.75,48.9175,52.3705,148.796,104.604,3.9201,0.00219625,0.254672,20.7577,531.6,29.6664,0.0,0.0
1048,261.75,49.1703,52.4439,145.76,104.579,3.91108,0.00220254,0.254382,20.7589,531.47,29.685,0.0,0.0
1056,263.75,49.0084,52.5453,147.785,104.554,3.93245,0.0021873,0.254392,20.7592,531.37,29.6337,0.0,0.0
1064,265.75,49.1381,52.239,145.165,104.513,4.00178,0.00225033,0.254483,20.7587,531.209,29.4723,0.0,0.0
1072,267.75,48.9771,52.3931,148.193,104.484,3.93197,0.00237107,0.254347,20.7584,531.069,29.6287,0.0,0.0
1080,269.75,48.8981,52.2712,145.077,104.428,3.92817,0.00247436,0.254562,20.7583,530.969,29.6326,0.0,0.0
1088,271.75,49.1709,52.4284,144.212,104.4,3.92247,0.00250706,0.255032,20.7577,530.819,29.6433,0.0,0.0
1096,273.75,49.0156,52.1022,147.552,104.335,3.92627,0.00258391,0.254982,20.7566,530.729,29.629,0.0,0.0
1104,275.75,49.2815,52.2346,142.371,104.282,3.95856,0.00266905,0.255641,20.7551,530.599,29.5504,0.0,0.0
1112,277.75,49.0589,52.3965,143.046,104.223,3.89968,0.00261547,0.256592,20.7538,530.469,29.6807,0.0,0.0
1120,279.75,49.3203,52.4418,143.704,104.176,3.94384,0.00248356,0.256712,20.7532,530.349,29.5748,0.0,0.0
1128,281.75,49.2029,52.6198,147.245,104.119,3.9201,0.00228695,0.256364,20.7534,530.179,29.6245,0.0,0.0
1136,283.75,49.3804,52.5622,146.83,104.069,3.86216,0.00216801,0.255529,20.754,530.088,29.7546,0.0,0.0
1144,285.75,49.1619,52.294,144.495,104.021,3.88923,0.00213084,0.254993,20.7542,529.938,29.6873,0.0,0.0
1152,287.75,49.3193,52.5515,142.92,103.96,3.88828,0.00210979,0.254392,20.7551,529.808,29.6842,0.0,0.0
1160,289.75,49.4003,52.5527,146.103,103.897,3.85931,0.0021134,0.25359,20.7578,529.658,29.7463,0.0,0.0
1168,291.75,49.0625,52.22,151.169,103.854,3.89161,0.00212913,0.252553,20.7598,529.568,29.6673,0.0,0.0
1176,293.75,48.9059,52.325,145.312,103.806,3.90728,0.00209755,0.252067,20.7594,529.438,29.6268,0.0,0.0
1184,295.75,49.5987,52.3579,151.848,103.745,3.88876,0.00196083,0.252639,20.7582,529.328,29.6644,0.0,0.0
1192,297.75,49.4719,52.4157,145.372,103.698,3.89351,0.00188182,0.253253,20.7578,529.208,29.6493,0.0,0.0
1200,299.75,49.31,52.2366,146.662,103.645,3.92912,0.00193865,0.253871,20.7577,529.098,29.5624,0.0,0.0
1208,301.75,48.8802,52.1175,151.739,103.598,3.80945,0.00201634,0.254218,20.7576,528.927,29.8378,0.0,0.0
1216,303.75,49.6635,52.5392,148.7,103.565,3.8992,0.0020575,0.254299,20.7576,528.827,29.6245,0.0,0.0
1224,305.75,48.9629,51.9578,149.089,103.519,3.88306,0.00203381,0.253998,20.7575,528.667,29.658,0.0,0.0
1232,307.75,49.2907,52.4063,143.778,103.481,3.95856,0.00209585,0.252913,20.7595,528.537,29.4807,0.0,0.0
1240,309.75,49.0486,52.4482,145.719,103.444,3.85552,0.00216829,0.251762,20.761,528.427,29.7158,0.0,0.0
1248,311.75,48.8775,52.2303,147.012,103.406,3.92437,0.00213663,0.251126,20.7616,528.297,29.5525,0.0,0.0
1256,313.75,49.4021,52.8673,145.674,103.376,3.8992,0.00209194,0.250872,20.7606,528.197,29.608,0.0,0.0
1264,315.75,49.5261,52.6014,144.869,103.365,3.90348,0.00200164,0.251574,20.7584,528.087,29.5972,0.0,0.0
1272,317.75,48.7053,52.0525,143.592,103.339,3.91108,0.00189329,0.252636,20.756,527.946,29.5773,0.0,0.0
1280,319.75,49.0585,52.3577,142.554,103.328,3.91915,0.00185142,0.253701,20.755,527.826,29.5577,0.0,0.0
1288,321.75,49.4075,52.5878,146.238,103.32,3.89303,0.00206125,0.2542,20.7557,527.726,29.6175,0.0,0.0
1296,323.75,49.4122,52.3667,144.177,103.311,3.87498,0.00220378,0.253673,20.7574,527.576,29.6586,0.0,0.0
1304,325.75,49.3405,52.5447,142.487,103.314,3.89256,0.00217068,0.253462,20.7582,527.516,29.618,0.0,0.0
1312,327.75,49.381,52.021,147.258,103.331,3.91772,0.00206976,0.253381,20.7587,527.356,29.5612,0.0,0.0
1320,329.75,49.6212,52.1381,151.167,103.331,3.85836,0.00206537,0.253005,20.7589,527.246,29.6992,0.0,0.0
1328,331.75,49.3774,51.9228,148.441,103.354,3.83177,0.0021057,0.252566,20.759,527.116,29.7637,0.0,0.0
1336,333.75,48.9285,52.597,144.936,103.375,3.85504,0.00219417,0.253201,20.7579,526.986,29.7108,0.0,0.0
1344,335.75,48.9072,52.5168,143.544,103.39,3.82892,0.00231892,0.254363,20.7573,526.876,29.7735,0.0,0.0
1352,337.75,49.309,51.9668,147.057,103.42,3.90158,0.00232672,0.254838,20.7563,526.735,29.6063,0.0,0.0
1360,339.75,49.5734,52.1613,148.779,103.461,3.92247,0.00215929,0.254531,20.7552,526.625,29.5617,0.0,0.0
1368,341.75,49.063,52.027,146.801,103.507,3.87831,0.00198686,0.254703,20.7548,526.525,29.668,0.0,0.0
1376,343.75,49.5438,52.7224,148.544,103.546,3.91013,0.00190913,0.255413,20.7546,526.385,29.5976,0.0,0.0
1384,345.75,49.676,52.0201,145.588,103.599,3.83082,0.00200197,0.255783,20.7545,526.215,29.7873,0.0,0.0
1392,347.75,49.6358,52.0671,148.679,103.647,3.9087,0.0021169,0.255568,20.7544,526.115,29.6097,0.0,0.0
1400,349.75,48.9494,52.6416,144.386,103.702,3.92627,0.00206335,0.255501,20.7547,525.985,29.5739,0.0,0.0
1408,351.75,49.2585,52.4701,147.649,103.776,3.94242,0.00193875,0.255472,20.7549,525.845,29.5433,0.0,0.0
1416,353.75,49.3756,52.7287,146.589,103.84,3.91298,0.00198838,0.255476,20.755,525.704,29.6166,0.0,0.0
1424,355.75,49.053,52.8527,144.004,103.906,3.93197,0.00200369,0.256272,20.755,525.644,29.5786,0.0,0.0
1432,357.75,49.5646,51.9798,147.789,103.983,3.90443,0.001959,0.257163,20.7551,525.504,29.6488,0.0,0.0
1440,359.75,49.0363,52.638,146.469,104.044,3.9049,0.00192956,0.256593,20.7551,525.374,29.653,0.0,0.0
1448,361.75,49.371,52.1395,145.781,104.105,3.88306,0.00187316,0.255562,20.7551,525.274,29.709,0.0,0.0
1456,363.75,49.8166,51.93,147.828,104.184,3.86739,0.00180247,0.256127,20.7544,525.154,29.7524,0.0,0.0
1464,365.75,49.1262,52.1581,146.183,104.253,3.94669,0.00181947,0.257112,20.7535,525.054,29.575,0.0,0.0
1472,367.75,49.4377,52.2635,147.231,104.332,3.95049,0.00187918,0.258327,20.7531,524.934,29.5731,0.0,0.0
1480,369.75,49.4679,52.5359,143.678,104.393,3.96711,0.00190478,0.258824,20.7529,524.744,29.5405,0.0,0.0
1488,371.75,49.4856,52.3705,144.229,104.47,3.9201,0.00181907,0.258708,20.7531,524.633,29.6548,0.0,0.0
1496,373.75,49.4216,52.4056,145.468,104.558,3.93482,0.00167701,0.25904,20.7539,524.523,29.6286,0.0,0.0
1504,375.75,49.5206,52.8557,143.762,104.631,3.90015,0.00156011,0.259259,20.7542,524.413,29.7148,0.0,0.0
1512,377.75,49.6401,52.5395,144.533,104.683,3.91772,0.00154929,0.258313,20.753,524.303,29.6787,0.0,0.0
1520,379.75,49.6586,52.6214,147.543,104.743,3.96996,0.00154734,0.258311,20.7525,524.213,29.5643,0.0,0.0
1528,381.75,49.6289,52.6981,144.426,104.805,3.92865,0.00160705,0.259694,20.7513,524.013,29.6641,0.0,0.0
1536,383.75,49.8259,52.6733,147.354,104.854,3.96426,0.00177241,0.261526,20.7505,523.923,29.5868,0.0,0.0
1544,385.75,49.4392,52.2873,147.551,104.92,3.96616,0.00190621,0.262105,20.7509,523.813,29.5881,0.0,0.0
1552,387.75,49.4553,52.3935,149.359,104.981,3.91677,0.00194981,0.261356,20.7516,523.693,29.7066,0.0,0.0
1560,389.75,49.7309,52.7882,146.354,105.036,3.94622,0.00196051,0.260758,20.7508,523.543,29.6436,0.0,0.0
1568,391.75,49.3589,52.377,146.89,105.087,3.91962,0.00198819,0.260406,20.7505,523.452,29.7091,0.0,0.0
1576,393.75,49.4348,52.311,144.792,105.125,4.0127,0.00202286,0.260175,20.7508,523.322,29.5003,0.0,0.0
1584,395.75,49.5758,52.7337,146.585,105.173,4.00748,0.00200728,0.25995,20.752,523.222,29.5163,0.0,0.0
1592,397.75,49.6085,52.6792,141.492,105.208,3.96996,0.00190633,0.260576,20.7516,523.112,29.6043,0.0,0.0
1600,399.75,49.6026,52.6719,148.031,105.233,4.04214,0.00183885,0.261979,20.7509,522.972,29.4436,0.0,0.0
1608,401.75,49.9609,52.3267,145.043,105.277,3.99608,0.00182281,0.262645,20.7504,522.782,29.5509,0.0,0.0
1616,403.75,49.8436,52.7825,147.811,105.307,3.92532,0.00182577,0.262757,20.7491,522.702,29.7149,0.0,0.0
1624,405.75,49.5476,52.5562,146.318,105.304,3.98468,0.00183213,0.263749,20.7485,522.572,29.579,0.0,0.0
1632,407.75,49.6101,52.6719,141.248,105.332,3.99703,0.00186567,0.264687,20.7475,522.432,29.5535,0.0,0.0
1640,409.75,49.9527,52.8309,143.06,105.333,3.95761,0.00183407,0.2652,20.7473,522.331,29.6431,0.0,0.0
1648,411.75,49.7949,52.9656,148.511,105.335,3.94717,0.00167101,0.265437,20.7461,522.241,29.6672,0.0,0.0
1656,413.75,49.9091,53.3187,143.113,105.328,4.01887,0.00162417,0.266098,20.7446,522.071,29.5039,0.0,0.0
1664,415.75,49.9806,52.8661,143.713,105.324,3.92912,0.001708,0.267142,20.7435,521.931,29.7076,0.0,0.0
1672,417.75,50.0291,52.8333,143.129,105.311,3.94384,0.00180344,0.267823,20.7427,521.801,29.6727,0.0,0.0
1680,419.75,49.8387,52.9872,149.461,105.312,4.00415,0.00186763,0.267986,20.7418,521.681,29.5357,0.0,0.0
1688,421.75,49.9883,53.0037,148.611,105.269,4.04262,0.00194308,0.267383,20.7414,521.561,29.4456,0.0,0.0
1696,423.75,49.6091,53.4577,144.342,105.244,3.93339,0.00187532,0.267573,20.7417,521.451,29.6909,0.0,0.0
1704,425.75,50.2911,53.1922,143.356,105.221,3.93719,0.00170675,0.267826,20.7413,521.32,29.6802,0.0,0.0
1712,427.75,49.9636,52.703,144.976,105.184,3.99323,0.00168336,0.268432,20.7397,521.16,29.5494,0.0,0.0
1720,429.75,50.1201,52.9611,147.056,105.149,3.93577,0.00183206,0.269846,20.7384,521.05,29.6773,0.0,0.0
1728,431.75,50.3172,52.8949,142.243,105.125,4.04167,0.00195882,0.270835,20.7378,520.93,29.4354,0.0,0.0
1736,433.75,49.9912,53.3888,141.457,105.088,3.93577,0.00197618,0.271256,20.7369,520.82,29.6721,0.0,0.0
1744,435.75,50.501,53.1066,141.447,105.04,3.98231,0.00196007,0.271889,20.7359,520.71,29.5617,0.0,0.0
1752,437.75,50.2715,53.2524,143.462,104.995,4.05164,0.00196654,0.272966,20.7352,520.55,29.402,0.0,0.0
1760,439.75,50.0579,53.4746,143.81,104.931,3.8992,0.00194517,0.274054,20.7338,520.45,29.7429,0.0,0.0
1768,441.75,50.9267,53.1715,148.579,104.879,3.98183,0.00179993,0.275214,20.7342,520.3,29.5489,0.0,0.0
1776,443.75,50.6828,53.3324,148.248,104.826,3.8992,0.00175423,0.276168,20.7334,520.149,29.7339,0.0,0.0
1784,445.75,50.5291,53.9137,152.114,104.772,3.99655,0.00186981,0.27711,20.7321,519.999,29.5064,0.0,0.0
1792,447.75,50.6057,53.6996,145.362,104.724,3.95381,0.00200888,0.278516,20.7303,519.889,29.5994,0.0,0.0
1800,449.75,50.8198,53.8749,147.129,104.685,3.95809,0.00209358,0.279539,20.7288,519.779,29.5863,0.0,0.0
1808,451.75,51.1189,54.0377,144.346,104.666,3.9315,0.00212491,0.28036,20.7281,519.639,29.6455,0.0,0.0
1816,453.75,51.0316,53.8414,147.286,104.634,3.96236,0.00210575,0.280895,20.7266,519.509,29.5721,0.0,0.0
1824,455.75,51.2585,54.2066,147.299,104.624,3.97091,0.002096,0.280861,20.7259,519.379,29.5518,0.0,0.0
1832,457.75,51.0413,54.0105,143.108,104.582,3.91915,0.0020671,0.280644,20.7256,519.239,29.6667,0.0,0.0
1840,459.75,51.1754,54.2152,147.809,104.574,3.88543,0.00202261,0.280449,20.7254,519.099,29.744,0.0,0.0
1848,461.75,51.3142,54.0572,141.648,104.561,3.93814,0.00193108,0.281059,20.7244,518.958,29.6212,0.0,0.0
1856,463.75,51.1486,54.2119,146.445,104.562,3.9296,0.00183132,0.281949,20.7236,518.838,29.6409,0.0,0.0
1864,465.75,51.103,54.0838,142.964,104.551,3.95809,0.00188151,0.282795,20.723,518.738,29.5747,0.0,0.0
1872,467.75,51.4388,54.4338,147.603,104.546,3.93672,0.00208505,0.284288,20.721,518.588,29.6232,0.0,0.0
1880,469.75,51.4173,54.5996,141.317,104.559,4.00415,0.00233979,0.285968,20.72,518.478,29.4709,0.0,0.0
1888,471.75,51.9144,54.3025,143.031,104.577,3.94289,0.00246251,0.287101,20.7191,518.338,29.6117,0.0,0.0
1896,473.75,50.8111,55.0667,145.187,104.595,3.96331,0.00242545,0.287925,20.718,518.208,29.5666,0.0,0.0
1904,475.75,51.4241,54.9957,145.137,104.603,4.01317,0.00235591,0.288901,20.7179,518.058,29.4544,0.0,0.0
1912,477.75,51.6843,55.0725,148.787,104.625,3.91677,0.00224973,0.289024,20.7178,517.947,29.6759,0.0,0.0
1920,479.75,51.6358,54.6585,148.678,104.662,3.91298,0.00207092,0.288882,20.7178,517.807,29.6878,0.0,0.0
1928,481.75,52.1251,54.7562,144.115,104.688,3.95999,0.00190797,0.2893,20.7178,517.677,29.5822,0.0,0.0
1936,483.75,51.9162,54.9663,152.706,104.72,4.0108,0.00179271,0.29001,20.7167,517.517,29.4697,0.0,0.0
1944,485.75,52.2895,55.1208,142.579,104.761,4.02457,0.0016894,0.290778,20.7158,517.397,29.4423,0.0,0.0
1952,487.75,52.0606,55.1223,142.254,104.816,4.01412,0.00157433,0.291711,20.7146,517.217,29.4706,0.0,0.0
1960,489.75,52.2096,55.0514,143.804,104.864,4.02172,0.00156183,0.293328,20.7118,517.117,29.4576,0.0,0.0
1968,491.75,52.3516,55.1224,145.357,104.912,3.99703,0.00163297,0.29556,20.709,516.997,29.5174,0.0,0.0
1976,493.75,52.1131,55.6862,149.804,104.963,3.94384,0.00171959,0.296453,20.7079,516.836,29.6428,0.0,0.0
1984,495.75,52.6952,55.1441,145.388,105.001,3.97044,0.00176954,0.296602,20.7077,516.706,29.5854,0.0,0.0
1992,497.75,52.3049,55.5047,146.238,105.069,3.92865,0.00182872,0.296634,20.7078,516.596,29.6868,0.0,0.0
2000,499.75,52.4761,55.7212,143.443,105.125,4.03217,0.00182107,0.296641,20.7078,516.506,29.4566,0.0,0.0
2008,501.75,52.5292,55.7684,142.327,105.176,4.02884,0.00180099,0.296939,20.7072,516.356,29.4685,0.0,0.0
2016,503.75,52.5134,55.7982,144.064,105.218,3.95049,0.00185924,0.299154,20.7036,516.206,29.6495,0.0,0.0
2024,505.75,52.3799,56.1322,146.269,105.254,4.07301,0.00193511,0.300887,20.7022,516.056,29.3767,0.0,0.0
2032,507.75,52.9179,55.9043,146.28,105.294,4.00985,0.00205688,0.300254,20.7036,515.906,29.5213,0.0,0.0
2040,509.75,52.2513,56.6329,142.401,105.314,4.05496,0.00216271,0.300564,20.7036,515.755,29.4219,0.0,0.0
2048,511.75,53.4867,55.6913,141.949,105.34,3.97328,0.00221135,0.303261,20.699,515.635,29.608,0.0,0.0
2056,513.75,53.375,56.2709,143.625,105.328,3.95429,0.00224568,0.307024,20.6943,515.485,29.6502,0.0,0.0
2064,515.75,53.5094,56.1355,139.893,105.322,4.05401,0.00222151,0.309197,20.6917,515.345,29.4248,0.0,0.0
2072,517.75,53.434,56.6715,141.103,105.313,4.00178,0.00211889,0.309567,20.6916,515.185,29.5411,0.0,0.0
2080,519.75,53.4472,56.5683,146.358,105.274,4.03977,0.00193815,0.309252,20.6919,515.045,29.4524,0.0,0.0
2088,521.75,53.3455,56.5655,144.299,105.211,3.99845,0.00175884,0.310001,20.6913,514.905,29.5399,0.0,0.0
2096,523.75,53.2381,56.2786,146.225,105.145,4.03692,0.00178119,0.31243,20.6883,514.745,29.4478,0.0,0.0
2104,525.75,53.6248,56.7604,143.553,105.054,4.06351,0.00185543,0.314514,20.6857,514.604,29.3806,0.0,0.0
2112,527.75,53.7641,56.8155,145.655,104.952,4.01697,0.00187249,0.316018,20.6834,514.434,29.4759,0.0,0.0
2120,529.75,54.1208,57.2526,141.731,104.844,4.04594,0.00194422,0.317648,20.6811,514.314,29.4017,0.0,0.0
2128,531.75,54.2479,57.4178,138.317,104.736,4.06826,0.00200908,0.319523,20.6782,514.164,29.3427,0.0,0.0
2136,533.75,53.9625,56.8854,143.673,104.628,4.03312,0.00208956,0.321185,20.6779,513.994,29.4117,0.0,0.0
2144,535.75,54.1418,57.2159,141.031,104.464,4.12857,0.00221847,0.32261,20.6775,513.854,29.1862,0.0,0.0
2152,537.75,54.4629,57.9652,144.274,104.313,4.02837,0.00237411,0.324459,20.6755,513.664,29.3951,0.0,0.0
2160,539.75,54.3458,57.7052,138.989,104.181,3.94052,0.0024801,0.325134,20.6739,513.554,29.5828,0.0,0.0
2168,541.75,54.4247,57.4559,139.821,104.026,3.96284,0.00241729,0.326078,20.6732,513.393,29.5184,0.0,0.0
2176,543.75,54.4762,57.5572,139.451,103.9,3.98706,0.00227859,0.327436,20.6723,513.253,29.4524,0.0,0.0
2184,545.75,54.719,58.3326,139.552,103.759,3.9315,0.00223013,0.329026,20.6712,513.103,29.5669,0.0,0.0
2192,547.75,54.6126,58.5561,140.028,103.656,3.93055,0.00218972,0.329118,20.6719,512.943,29.5601,0.0,0.0
2200,549.75,55.4665,57.6879,142.266,103.52,3.903,0.00209476,0.327491,20.6724,512.813,29.6118,0.0,0.0
2208,551.75,54.9899,58.6663,142.153,103.431,3.93102,0.00202668,0.32629,20.6721,512.573,29.5394,0.0,0.0
2216,553.75,54.4726,58.8446,141.499,103.364,3.99703,0.00203359,0.32814,20.6711,512.473,29.3831,0.0,0.0
2224,555.75,55.5855,58.2543,143.256,103.328,3.87024,0.00207439,0.33034,20.6701,512.312,29.6712,0.0,0.0
2232,557.75,55.619,58.4379,148.909,103.331,3.94384,0.00215194,0.330724,20.667,512.182,29.5012,0.0,0.0
2240,559.75,55.2526,58.6284,140.896,103.343,4.01222,0.00223623,0.330816,20.6667,511.972,29.347,0.0,0.0
2248,561.75,55.6461,58.5915,141.36,103.393,3.97138,0.00232493,0.33051,20.6666,511.852,29.4438,0.0,0.0
2256,563.75,55.552,58.8154,137.978,103.479,3.96379,0.00238679,0.330958,20.6644,511.662,29.4686,0.0,0.0
2264,565.75,55.8973,58.9674,144.323,103.573,4.00795,0.00238034,0.332477,20.6625,511.512,29.3767,0.0,0.0
2272,567.75,55.7699,58.8356,140.077,103.715,3.9975,0.00241787,0.334163,20.6609,511.362,29.4127,0.0,0.0
2280,569.75,56.1772,59.0262,138.452,103.854,3.93434,0.00245014,0.335172,20.6601,511.201,29.5686,0.0,0.0
2288,571.75,55.6162,59.3296,142.108,103.998,3.93672,0.00238206,0.335041,20.6598,511.051,29.5757,0.0,0.0
2296,573.75,56.1426,59.3286,139.574,104.127,3.88876,0.00229538,0.334831,20.6597,510.901,29.6976,0.0,0.0
2304,575.75,56.1078,59.4717,139.204,104.263,3.95002,0.00222169,0.335476,20.6585,510.681,29.5682,0.0,0.0
2312,577.75,56.2589,59.5566,141.9,104.395,3.95334,0.00213543,0.336526,20.6578,510.591,29.5721,0.0,0.0
2320,579.75,56.0789,59.4457,138.809,104.51,4.0108,0.00211619,0.337821,20.6566,510.461,29.4517,0.0,0.0
2328,581.75,56.3193,59.8213,140.18,104.598,3.9296,0.00215542,0.338462,20.656,510.251,29.644,0.0,0.0
2336,583.75,56.3495,59.9941,143.457,104.65,3.96331,0.00224719,0.33767,20.6571,510.1,29.5714,0.0,0.0
2344,585.75,56.5455,59.8191,145.368,104.679,3.96379,0.00238161,0.336571,20.6576,509.88,29.5728,0.0,0.0
2352,587.75,56.7177,59.3718,139.512,104.655,3.98183,0.00252432,0.33638,20.6578,509.78,29.5297,0.0,0.0
2360,589.75,56.2184,60.181,142.175,104.609,3.87831,0.00258752,0.336187,20.6581,509.63,29.7637,0.0,0.0
2368,591.75,56.0881,59.8552,144.023,104.516,3.97566,0.0025079,0.335396,20.6595,509.48,29.5317,0.0,0.0
2376,593.75,56.3986,60.2681,143.494,104.419,4.04072,0.00240163,0.334654,20.6608,509.33,29.3767,0.0,0.0
2384,595.75,56.8137,60.2988,139.129,104.299,3.93434,0.00235056,0.334474,20.6605,509.15,29.6073,0.0,0.0
2392,597.75,56.365,60.3066,142.478,104.201,4.02789,0.0023106,0.335019,20.6603,508.989,29.3865,0.0,0.0
2400,599.75,56.5174,60.2779,140.898,104.121,3.89066,0.0022564,0.33594,20.6591,508.849,29.6927,0.0,0.0
2408,601.75,56.5085,60.1735,141.285,104.049,3.93245,0.00223836,0.336606,20.6589,508.679,29.5899,0.0,0.0
2416,603.75,56.9524,60.2167,137.571,104.16,3.9975,0.00230297,0.336847,20.6593,508.479,29.4514,0.0,0.0
2424,605.75,56.674,60.2563,140.031,104.448,3.97946,0.00233199,0.337149,20.6594,508.349,29.5172,0.0,0.0
2432,607.75,56.7057,60.4248,147.444,104.674,4.03549,0.00234805,0.3369,20.6598,508.199,29.4104,0.0,0.0
2440,609.75,56.5146,60.3796,141.934,104.848,4.01602,0.00240734,0.335508,20.6618,508.049,29.4691,0.0,0.0
2448,611.75,56.6952,60.548,142.495,104.92,3.9315,0.002381,0.333221,20.6642,507.888,29.6674,0.0,0.0
2456,613.75,56.5812,60.4196,136.387,104.924,4.03217,0.00224906,0.331736,20.6656,507.718,29.4394,0.0,0.0
2464,615.75,56.7066,60.1786,143.335,104.864,4.03597,0.0022034,0.331831,20.665,507.568,29.4257,0.0,0.0
2472,617.75,56.5582,60.4275,141.709,104.731,3.98801,0.0024108,0.333164,20.6632,507.438,29.5222,0.0,0.0
2480,619.75,56.8661,60.3216,142.98,104.513,4.01175,0.00264258,0.334185,20.6633,507.268,29.4497,0.0,0.0
2488,621.75,56.9152,60.1383,143.236,104.472,4.02695,0.00268602,0.3338,20.664,507.078,29.4121,0.0,0.0
2496,623.75,56.5752,60.2592,144.508,104.581,3.97471,0.00265218,0.33317,20.665,506.968,29.5394,0.0,0.0
2504,625.75,56.4337,60.6693,143.819,104.729,4.07491,0.00268478,0.332699,20.6651,506.817,29.3273,0.0,0.0
2512,627.75,56.2883,60.5742,145.525,104.896,4.01365,0.00276945,0.332438,20.6659,506.697,29.4786,0.0,0.0
2520,629.75,56.307,60.4591,144.433,105.033,3.99323,0.00277434,0.331004,20.6674,506.497,29.5364,0.0,0.0
2528,631.75,56.4626,60.5586,146.911,105.172,4.01365,0.00269512,0.328363,20.6694,506.327,29.5023,0.0,0.0
2536,633.75,56.6965,59.983,147.657,105.274,4.02647,0.00257785,0.326637,20.67,506.217,29.4823,0.0,0.0
2544,635.75,56.4764,60.4827,144.702,105.322,4.03692,0.00250443,0.326658,20.6702,506.057,29.463,0.0,0.0
2552,637.75,56.6766,59.9573,145.095,105.341,3.9975,0.00241663,0.32631,20.6703,505.917,29.5532,0.0,0.0
2560,639.75,56.3793,60.4637,147.364,105.277,4.01175,0.00235797,0.325946,20.6705,505.756,29.5156,0.0,0.0
2568,641.75,56.5194,59.8827,140.873,105.184,4.01365,0.00239793,0.324678,20.6725,505.636,29.5033,0.0,0.0
2576,643.75,56.3008,60.1867,144.786,105.03,3.98468,0.00240975,0.323265,20.6745,505.456,29.5555,0.0,0.0
2584,645.75,55.9653,60.0813,143.469,104.821,4.03597,0.00232433,0.320245,20.6788,505.336,29.422,0.0,0.0
2592,647.75,55.7583,60.4836,140.707,104.589,4.01365,0.0022073,0.317409,20.681,505.196,29.4521,0.0,0.0
2600,649.75,55.8637,59.6151,143.572,104.326,3.95571,0.00212034,0.316421,20.682,504.996,29.5607,0.0,0.0
2608,651.75,55.6572,60.2224,137.348,104.084,4.05781,0.00222741,0.316369,20.6825,504.856,29.3095,0.0,0.0
2616,653.75,55.52,60.0987,142.553,103.846,3.96046,0.00247127,0.315424,20.684,504.766,29.5082,0.0,0.0
2624,655.75,55.6722,59.4637,144.565,103.634,3.91535,0.00264597,0.313708,20.6852,504.595,29.5932,0.0,0.0
2632,657.75,55.985,59.5965,146.675,103.515,3.9144,0.00270778,0.313369,20.6877,504.485,29.585,0.0,0.0
2640,659.75,55.9775,59.3095,145.342,103.378,3.96806,0.00266574,0.31275,20.6888,504.325,29.45,0.0,0.0
2648,661.75,55.6025,59.5221,146.229,103.352,4.0165,0.00248402,0.311179,20.6903,504.175,29.3381,0.0,0.0
2656,663.75,55.4899,59.5318,141.501,103.408,3.97946,0.00236831,0.310208,20.6921,504.045,29.4268,0.0,0.0
2664,665.75,55.369,59.2302,144.072,103.509,3.94337,0.00241348,0.308365,20.693,503.935,29.5178,0.0,0.0
2672,667.75,55.2287,59.7934,144.653,103.681,3.91867,0.00254207,0.306868,20.6933,503.825,29.5897,0.0,0.0
2680,669.75,55.4602,59.4257,142.282,103.877,3.97756,0.00258955,0.306366,20.6934,503.665,29.4719,0.0,0.0
2688,671.75,55.1516,59.4708,142.118,104.067,3.98753,0.00249414,0.3061,20.6946,503.555,29.4658,0.0,0.0
2696,673.75,55.407,59.0843,146.071,104.273,3.99275,0.00241201,0.305305,20.6952,503.414,29.4718,0.0,0.0
2704,675.75,55.6628,59.3057,146.501,104.431,4.00463,0.00241594,0.303716,20.6973,503.294,29.4587,0.0,0.0
2712,677.75,55.3662,59.3392,146.574,104.557,3.99465,0.00256768,0.302634,20.6982,503.164,29.4922,0.0,0.0
2720,679.75,55.4086,59.38,144.299,104.633,4.03027,0.00287429,0.302574,20.6988,503.054,29.4185,0.0,0.0
2728,681.75,55.5023,58.7762,144.658,104.68,3.95761,0.00316804,0.302189,20.7006,502.954,29.5869,0.0,0.0
2736,683.75,54.6119,59.1692,142.717,104.632,3.98658,0.00322188,0.299372,20.7055,502.814,29.5169,0.0,0.0
2744,685.75,55.0291,58.9749,143.827,104.551,4.01887,0.00320235,0.295388,20.7081,502.654,29.4371,0.0,0.0
2752,687.75,55.0212,58.5299,142.027,104.399,4.09485,0.00317874,0.293147,20.71,502.604,29.2547,0.0,0.0
2760,689.75,54.4466,58.5127,143.498,104.237,4.05496,0.00311654,0.292256,20.7113,502.433,29.3291,0.0,0.0
2768,691.75,54.3955,58.3749,144.578,104.123,4.03074,0.00308258,0.289959,20.7152,502.303,29.3734,0.0,0.0
2776,693.75,54.3588,57.8039,142.94,104.037,3.95476,0.0031049,0.286118,20.7184,502.203,29.5378,0.0,0.0
2784,695.75,54.4203,58.3172,145.828,104.169,4.01792,0.00315483,0.28324,20.7209,502.073,29.4061,0.0,0.0
2792,697.75,54.0689,57.7501,145.99,104.515,3.98373,0.00321675,0.281158,20.7233,502.003,29.5133,0.0,0.0
2800,699.75,54.205,57.2425,147.235,104.759,3.96094,0.00329874,0.279374,20.7256,501.883,29.5861,0.0,0.0
2808,701.75,53.6293,58.3125,144.537,104.891,3.94147,0.00334448,0.27751,20.7279,501.853,29.6421,0.0,0.0
2816,703.75,54.2961,57.5042,147.594,104.892,4.03597,0.00334589,0.275255,20.7309,501.723,29.4281,0.0,0.0
2824,705.75,53.7924,57.3046,147.954,104.81,3.99845,0.00328252,0.272035,20.7355,501.603,29.5054,0.0,0.0
2832,707.75,53.1208,57.8053,142.188,104.596,3.9258,0.00323738,0.269984,20.737,501.483,29.6526,0.0,0.0
2840,709.75,53.866,56.8393,149.106,104.452,3.94194,0.00324546,0.267485,20.7401,501.383,29.6031,0.0,0.0
2848,711.75,52.9744,57.1924,142.399,104.607,3.98136,0.0032658,0.264017,20.7433,501.282,29.5266,0.0,0.0
2856,713.75,52.6543,57.147,147.286,104.793,4.02742,0.00330625,0.261008,20.7468,501.172,29.4387,0.0,0.0
2864,715.75,53.155,56.7526,144.441,104.974,3.97233,0.00331083,0.257322,20.7502,501.102,29.5787,0.0,0.0
2872,717.75,52.3876,56.8854,150.725,105.143,4.01935,0.00326002,0.252746,20.7572,501.012,29.487,0.0,0.0
2880,719.75,52.8934,55.6249,149.253,105.271,4.00605,0.00313895,0.248753,20.7625,500.952,29.5279,0.0,0.0
2888,721.75,52.3549,55.6977,149.104,105.332,3.99133,0.00309072,0.244763,20.7683,500.852,29.5664,0.0,0.0
2896,723.75,51.6216,56.0299,146.047,105.319,3.9937,0.00326041,0.241477,20.7713,500.752,29.5599,0.0,0.0
2904,725.75,51.7405,55.7139,146.238,105.202,4.00225,0.00362837,0.24082,20.7712,500.682,29.5305,0.0,0.0
2912,727.75,51.6985,55.1089,151.578,105.016,3.97233,0.00394338,0.241318,20.7712,500.592,29.5824,0.0,0.0
2920,729.75,52.2485,54.7232,151.091,104.77,3.93197,0.0042495,0.240696,20.772,500.482,29.6534,0.0,0.0
2928,731.75,51.3529,55.1089,147.241,104.474,3.9975,0.00452124,0.238422,20.7755,500.372,29.4785,0.0,0.0
2936,733.75,51.2097,54.9956,151.383,104.175,3.97281,0.00476286,0.23355,20.7818,500.282,29.5086,0.0,0.0
2944,735.75,51.0705,54.376,145.484,103.871,3.97708,0.0050058,0.229061,20.785,500.251,29.4725,0.0,0.0
2952,737.75,50.7221,54.3395,147.6,103.64,3.9144,0.00518183,0.225226,20.7879,500.201,29.5959,0.0,0.0
2960,739.75,50.1951,54.1043,147.817,103.461,4.03407,0.00535489,0.222497,20.7914,500.111,29.3083,0.0,0.0
2968,741.75,50.0053,53.9121,149.129,103.392,3.86596,0.00557077,0.220549,20.795,500.061,29.6867,0.0,0.0
2976,743.75,50.0062,53.594,145.964,103.428,3.95904,0.00580187,0.218039,20.7976,499.991,29.475,0.0,0.0
2984,745.75,49.6852,53.2769,148.451,103.565,3.9125,0.00609936,0.215081,20.8018,499.911,29.5938,0.0,0.0
2992,747.75,49.4292,53.0759,150.382,103.769,3.903,0.00642204,0.211267,20.8052,499.891,29.6335,0.0,0.0
3000,749.75,49.2843,52.8002,150.147,104.017,3.92105,0.00673712,0.207496,20.8096,499.781,29.6134,0.0,0.0
3008,751.75,48.965,52.79,152.111,104.264,3.90633,0.00700971,0.204277,20.8144,499.731,29.6687,0.0,0.0
3016,753.75,48.8973,52.4288,150.356,104.457,3.92057,0.00720824,0.200503,20.8199,499.691,29.6526,0.0,0.0
3024,755.75,48.5671,52.043,148.065,104.631,3.98896,0.00735416,0.196779,20.8235,499.661,29.5114,0.0,0.0
3032,757.75,48.3484,51.8029,153.645,104.682,3.93767,0.00746583,0.193105,20.8275,499.641,29.6328,0.0,0.0
3040,759.75,48.3485,51.7395,145.707,104.678,4.02125,0.00760421,0.189622,20.8321,499.601,29.4427,0.0,0.0
3048,761.75,47.5995,51.6172,149.919,104.597,3.97898,0.00773806,0.186372,20.8353,499.521,29.5311,0.0,0.0
3056,763.75,47.5575,50.4225,148.36,104.434,3.92485,0.0079757,0.18387,20.8374,499.451,29.6408,0.0,0.0
3064,765.75,47.6236,50.5994,147.671,104.239,3.90538,0.00823524,0.181956,20.8393,499.431,29.6688,0.0,0.0
3072,767.75,47.0606,50.0362,147.387,104.113,3.93055,0.00845234,0.180511,20.8416,499.421,29.5998,0.0,0.0
3080,769.75,46.755,50.503,150.969,103.996,3.9315,0.00860638,0.179204,20.843,499.391,29.5875,0.0,0.0
3088,771.75,46.3915,49.2975,153.615,104.286,3.97328,0.00877777,0.177914,20.8444,499.341,29.5172,0.0,0.0
3096,773.75,46.3276,49.3757,152.364,104.628,3.93529,0.00904032,0.176936,20.8458,499.321,29.6336,0.0,0.0
3104,775.75,45.7948,49.6535,151.106,104.826,3.95524,0.00934611,0.176257,20.8476,499.221,29.6049,0.0,0.0
3112,777.75,45.2339,49.1474,148.705,104.872,3.93767,0.00966958,0.175877,20.8485,499.211,29.6491,0.0,0.0
3120,779.75,45.6401,48.8792,155.036,104.83,3.96474,0.00994541,0.175111,20.8487,499.171,29.5836,0.0,0.0
3128,781.75,44.6602,49.1464,150.175,104.624,4.02362,0.0101543,0.174188,20.8485,499.13,29.4326,0.0,0.0
3136,783.75,45.1509,48.7272,149.619,104.418,3.88163,0.0104065,0.173613,20.8493,499.04,29.7394,0.0,0.0
3144,785.75,45.2992,48.0416,151.807,104.554,3.94812,0.0106591,0.172998,20.85,499.03,29.5978,0.0,0.0
3152,787.75,45.169,47.5281,152.987,104.738,3.89303,0.0106692,0.172343,20.8497,498.97,29.7406,0.0,0.0
3160,789.75,44.0545,47.8708,149.746,104.862,3.90158,0.0105224,0.171662,20.8505,498.98,29.7315,0.0,0.0
3168,791.75,44.0875,47.1422,150.955,104.981,3.9011,0.0103503,0.170986,20.8511,498.9,29.7428,0.0,0.0
3176,793.75,44.3045,46.7867,151.268,105.114,3.95097,0.0103415,0.170442,20.8515,498.93,29.6395,0.0,0.0
3184,795.75,43.8744,46.9829,152.862,105.229,3.96141,0.0104737,0.170473,20.8516,498.88,29.6255,0.0,0.0
3192,797.75,43.6485,47.2007,151.366,105.308,3.90965,0.0105492,0.170365,20.8517,498.82,29.7511,0.0,0.0
3200,799.75,43.4135,45.7083,151.318,105.338,3.91582,0.0105051,0.169841,20.8517,498.79,29.7394,0.0,0.0
3208,801.75,43.4014,45.6309,151.442,105.339,3.88211,0.0103785,0.169163,20.8528,498.79,29.8176,0.0,0.0
3216,803.75,43.0599,45.5363,148.428,105.277,3.87831,0.0102814,0.168255,20.8543,498.74,29.8211,0.0,0.0
3224,805.75,43.0723,45.5782,154.751,105.19,3.90585,0.0102696,0.166936,20.8552,498.7,29.7497,0.0,0.0
3232,807.75,42.786,45.1205,154.805,105.074,3.94622,0.0103108,0.16581,20.8567,498.66,29.6469,0.0,0.0
3240,809.75,42.2964,45.382,150.494,104.932,3.90728,0.0103356,0.165664,20.8581,498.62,29.7243,0.0,0.0
3248,811.75,42.2008,44.8184,151.39,104.773,3.88068,0.0103975,0.165561,20.8588,498.59,29.7722,0.0,0.0
3256,813.75,42.5059,44.226,149.843,104.594,3.86026,0.0105338,0.165066,20.8591,498.58,29.8045,0.0,0.0
3264,815.75,41.9756,44.9602,151.662,104.424,3.81468,0.0105777,0.164216,20.8605,498.53,29.8971,0.0,0.0
3272,817.75,41.7198,44.4923,147.628,104.252,3.88068,0.0104918,0.163678,20.8609,498.53,29.7272,0.0,0.0
3280,819.75,41.6654,44.1708,150.743,104.092,3.84032,0.0104356,0.163433,20.86,498.49,29.8078,0.0,0.0
3288,821.75,41.4355,44.166,152.371,103.923,3.88258,0.0104466,0.163177,20.8596,498.46,29.6943,0.0,0.0
3296,823.75,41.5502,44.0741,151.38,103.79,3.84697,0.0105209,0.162682,20.8611,498.43,29.766,0.0,0.0
3304,825.75,41.2687,43.7293,148.418,103.67,3.86929,0.0106329,0.162527,20.8615,498.37,29.7032,0.0,0.0
3312,827.75,41.3635,43.6828,151.191,103.59,3.86169,0.0106991,0.162429,20.8608,498.35,29.714,0.0,0.0
3320,829.75,41.3973,43.363,152.881,103.517,3.77574,0.0106683,0.162473,20.8605,498.32,29.911,0.0,0.0
3328,831.75,40.9329,43.305,154.834,103.476,3.81468,0.0105722,0.162433,20.8603,498.32,29.8147,0.0,0.0
3336,833.75,41.5126,43.3518,151.678,103.44,3.8199,0.0104114,0.162032,20.8598,498.26,29.7992,0.0,0.0
3344,835.75,40.8236,42.811,153.819,103.447,3.84934,0.0102365,0.161727,20.8594,498.24,29.7304,0.0,0.0
3352,837.75,41.0294,42.9169,150.903,103.437,3.81942,0.0100752,0.161548,20.8593,498.21,29.8001,0.0,0.0
3360,839.75,41.1884,42.5317,149.25,103.476,3.79426,0.0100391,0.161195,20.8592,498.2,29.8632,0.0,0.0
3368,841.75,40.5507,42.5401,155.252,103.522,3.79236,0.0102036,0.160703,20.8592,498.14,29.8718,0.0,0.0
3376,843.75,40.6936,42.659,151.861,103.571,3.79378,0.0104276,0.160722,20.8592,498.15,29.8726,0.0,0.0
3384,845.75,40.4812,42.0407,153.723,103.629,3.78761,0.0104659,0.160654,20.8592,498.11,29.8924,0.0,0.0
3392,847.75,40.3401,42.6168,155.291,103.692,3.8218,0.0103452,0.160157,20.8592,498.08,29.8167,0.0,0.0
3400,849.75,39.8899,42.6828,147.051,103.776,3.86881,0.0102282,0.160092,20.8592,498.05,29.7135,0.0,0.0
3408,851.75,40.4194,42.6767,152.814,103.846,3.84364,0.010202,0.160203,20.8592,498.009,29.7786,0.0,0.0
3416,853.75,40.2708,42.0224,148.866,103.906,3.85979,0.0102606,0.160031,20.8596,498.009,29.746,0.0,0.0
3424,855.75,39.9251,41.6642,151.357,103.997,3.82322,0.0103707,0.159692,20.8622,497.999,29.8398,0.0,0.0
3432,857.75,39.6958,41.6639,151.105,104.054,3.82037,0.0104476,0.158946,20.8637,497.929,29.8516,0.0,0.0
3440,859.75,39.9455,41.7336,148.803,104.147,3.81088,0.0104525,0.158866,20.8633,497.929,29.8821,0.0,0.0
3448,861.75,40.2123,41.811,151.645,104.205,3.86976,0.0104327,0.159319,20.8631,497.889,29.7486,0.0,0.0
3456,863.75,39.7806,41.5347,156.137,104.267,3.81278,0.0103814,0.15955,20.8631,497.859,29.888,0.0,0.0
3464,865.75,40.1203,41.3562,153.345,104.33,3.81373,0.0103601,0.159566,20.863,497.829,29.8912,0.0,0.0
3472,867.75,40.0619,41.6877,149.491,104.388,3.79616,0.0105169,0.159539,20.863,497.819,29.938,0.0,0.0
3480,869.75,40.0008,41.2815,150.483,104.451,3.79711,0.0105009,0.159379,20.863,497.789,29.9411,0.0,0.0
3488,871.75,40.0813,41.0671,155.552,104.507,3.83937,0.0102907,0.15905,20.863,497.779,29.846,0.0,0.0
3496,873.75,39.9089,41.084,154.115,104.562,3.76671,0.0101393,0.158456,20.863,497.749,30.0233,0.0,0.0
3504,875.75,39.6816,41.2023,152.8,104.607,3.75579,0.0101623,0.158214,20.8645,497.729,30.0535,0.0,0.0
3512,877.75,39.2264,41.4488,153.471,104.64,3.78666,0.0102323,0.157953,20.8655,497.689,29.9824,0.0,0.0
3520,879.75,39.5809,41.3026,151.716,104.679,3.84079,0.0102145,0.157852,20.8654,497.629,29.8575,0.0,0.0
3528,881.75,39.0416,40.4973,151.986,104.702,3.79283,0.0100714,0.157957,20.8653,497.639,29.973,0.0,0.0
3536,883.75,39.172,40.9538,159.387,104.724,3.78238,0.00999143,0.158125,20.8651,497.609,29.9998,0.0,0.0
3544,885.75,39.488,41.2277,149.053,104.747,3.81325,0.0100869,0.158128,20.8635,497.579,29.9284,0.0,0.0
3552,887.75,39.2899,40.6681,153.29,104.755,3.81278,0.0102272,0.158351,20.8634,497.569,29.9302,0.0,0.0
3560,889.75,39.2441,40.7057,154.015,104.755,3.8294,0.0102007,0.157984,20.8644,497.529,29.8909,0.0,0.0
3568,891.75,39.1769,40.3125,151.758,104.764,3.74582,0.0100819,0.156816,20.8657,497.519,30.091,0.0,0.0
3576,893.75,39.0557,40.3597,152.545,104.761,3.81753,0.010064,0.15598,20.8663,497.499,29.9195,0.0,0.0
3584,895.75,39.1495,40.7661,153.62,104.741,3.77526,0.0101615,0.155781,20.8666,497.459,30.0183,0.0,0.0
3592,897.75,38.7595,40.2277,151.926,104.729,3.81325,0.0102971,0.156071,20.8667,497.469,29.9269,0.0,0.0
3600,899.75,38.6181,40.1565,150.159,104.709,3.81135,0.0104392,0.156676,20.8667,497.439,29.9296,0.0,0.0
3608,901.75,38.5979,40.6785,149.604,104.69,3.77241,0.0105015,0.156498,20.8668,497.379,30.0207,0.0,0.0
3616,903.75,39.0765,40.4356,152.731,104.656,3.75152,0.0104429,0.156291,20.8671,497.359,30.068,0.0,0.0
3624,905.75,38.7675,40.5783,150.794,104.631,3.77479,0.0103225,0.156376,20.8672,497.339,30.01,0.0,0.0
3632,907.75,38.5294,40.421,156.378,104.587,3.76434,0.0102487,0.156135,20.8688,497.289,30.0312,0.0,0.0
3640,909.75,38.8858,40.4879,148.773,104.552,3.78571,,0.155542,,497.309,29.977,0.0,0.0
3648,911.75,38.9195,40.0821,152.958,104.51,3.8047,,,,497.259,29.9282,0.0,0.0
3656,913.75,38.827,39.9212,152.742,104.471,3.80993,,,,497.229,29.9124,0.0,0.0
3664,915.75,38.7747,40.3815,150.388,104.433,3.76339,,,,497.219,30.0202,0.0,0.0
3672,917.75,38.0437,39.9491,153.459,104.381,3.75342,,,,497.189,30.0396,0.0,0.0
3676,918.75,38.5596,39.9938,156.098,104.36,3.74962,,,,497.189,30.047,0.0,0.0