File: 01_Data/Pine_Siding/Cone/Pine_Siding_Cone_HF75Scan_221004_R2.csv
Names,Time,Stack TC,Smoke TC,Exh Press,Smoke Comp,Smoke Meas,CO Meter,CO2 Meter,O2 Meter,Sample Mass,Ext Coeff,Start Test,Flame Verif
Chan Gain,,500,500,1,1,1,1,1,1,1,1,1.0,1.0
Offset,,0,0,0.13918,0,0,0,0,0,0,0,0.0,0.0
Gain,,1,1,25.011,14.0162,15.5607,1,1,1,1.0009,1.02981,1.0,1.0
Units,sec,C,C,Pa,%,%,%,%,%,g,/m,,
Baseline,,45.229,46.7061,150.209,103.992,3.6521,0.000257236,0.0794638,20.96875,-3.39265,30.2535,,
8,1.75,42.4532,44.4039,154.122,105.389,3.67554,0.00044024,0.0870499,20.9564,570.905,30.3159,0.0,0.0
16,3.75,43.0503,44.4337,149.931,105.387,3.62615,0.000771197,0.0903586,20.9564,570.875,30.4379,0.0,0.0
24,5.75,43.4951,44.7607,130.533,105.39,3.65179,0.00187007,0.126944,20.9174,570.635,30.3745,0.0,1.0
32,7.75,45.3644,45.9689,125.43,105.388,3.78048,0.00380411,0.276127,20.752,570.225,30.0614,0.0,1.0
40,9.75,47.8026,46.9402,123.999,105.384,3.72587,0.00612247,0.446803,20.5066,569.804,30.1926,0.0,0.0
48,11.75,50.7712,50.1828,120.974,105.368,3.63565,0.00804649,0.595238,20.3296,569.364,30.4126,0.0,0.0
56,13.75,53.5203,53.1971,122.807,105.361,3.68314,0.00973492,0.675664,20.2109,568.914,30.2948,0.0,0.0
64,15.75,55.892,56.0556,125.79,105.342,3.58246,0.0109398,0.720216,20.1561,568.493,30.5435,0.0,0.0
72,17.75,58.6405,58.1548,123.316,105.315,3.55065,0.0114611,0.731645,20.1405,568.193,30.6218,0.0,0.0
80,19.75,60.8525,60.7981,126.854,105.294,3.56917,0.0115448,0.723158,20.1472,567.802,30.573,0.0,0.0
88,21.75,62.4985,62.7777,126.26,105.273,3.6119,0.0114301,0.707954,20.1626,567.412,30.4637,0.0,0.0
96,23.75,63.9753,64.1575,124.561,105.24,3.55397,0.0113596,0.690185,20.1845,567.082,30.6069,0.0,0.0
104,25.75,65.4183,66.0349,128.937,105.224,3.66841,0.0113541,0.671737,20.2041,566.651,30.3192,0.0,0.0
112,27.75,66.4412,67.4158,130.056,105.193,3.52595,0.0113246,0.653357,20.2241,566.361,30.6744,0.0,0.0
120,29.75,67.7273,68.8175,127.496,105.157,3.4305,0.0113703,0.639845,20.2421,566.031,30.9192,0.0,0.0
128,31.75,68.535,70.2559,136.367,105.131,3.53402,0.0114773,0.628294,20.2607,565.671,30.6483,0.0,0.0
136,33.75,69.4568,71.2904,128.161,105.1,3.52928,0.0115725,0.617486,20.2733,565.37,30.6579,0.0,0.0
144,35.75,70.4496,71.6523,129.043,105.075,3.58389,0.0115541,0.608357,20.2846,564.99,30.517,0.0,0.0
152,37.75,70.485,73.2803,129.649,105.048,3.40818,0.0114245,0.593504,20.3051,564.67,30.9688,0.0,0.0
160,39.75,71.1219,73.7924,130.782,105.003,3.48939,0.0111943,0.579456,20.3222,564.409,30.7522,0.0,0.0
168,41.75,71.7804,75.0388,129.723,104.97,3.54115,0.0108825,0.570294,20.332,564.129,30.6163,0.0,0.0
176,43.75,72.4881,75.3916,126.896,104.93,3.49888,0.0106002,0.561718,20.3449,563.789,30.7214,0.0,0.0
184,45.75,72.8355,76.0131,131.172,104.894,3.44807,0.0103763,0.551931,20.3585,563.479,30.8505,0.0,0.0
192,47.75,73.2004,76.6332,132.52,104.863,3.60193,0.0101041,0.540761,20.3709,563.248,30.4534,0.0,0.0
200,49.75,73.5418,77.1697,129.547,104.842,3.59291,0.0097598,0.530706,20.3814,562.888,30.4742,0.0,0.0
208,51.75,73.5108,77.3762,136.955,104.782,3.62947,0.00932234,0.52362,20.39,562.608,30.3776,0.0,0.0
216,53.75,73.5168,78.4293,127.742,104.745,3.54447,0.00896948,0.515342,20.4019,562.368,30.5885,0.0,0.0
224,55.75,74.2689,77.9143,133.098,104.716,3.63422,0.00877037,0.50862,20.4107,562.097,30.3601,0.0,0.0
232,57.75,74.3326,78.5999,134.675,104.682,3.45614,0.00859942,0.503833,20.4172,561.807,30.811,0.0,0.0
240,59.75,74.0132,78.7834,132.417,104.669,3.45614,0.00839922,0.500246,20.4236,561.527,30.8099,0.0,0.0
248,61.75,74.2373,78.44,132.93,104.625,3.54685,0.0082413,0.494946,20.431,561.257,30.5721,0.0,0.0
256,63.75,74.5061,78.9435,130.47,104.592,3.62757,0.00797962,0.487991,20.4398,561.016,30.366,0.0,0.0
264,65.75,73.8741,78.7338,133.139,104.574,3.49461,0.00768973,0.481818,20.4484,560.726,30.7017,0.0,0.0
272,67.75,74.6542,80.0289,135.813,104.545,3.59006,0.0075026,0.475481,20.4562,560.496,30.4557,0.0,0.0
280,69.75,74.9997,79.9242,136.925,104.505,3.51645,0.0074757,0.470464,20.4609,560.216,30.6394,0.0,0.0
288,71.75,73.5266,79.6006,132.65,104.501,3.64562,0.00742884,0.467544,20.4637,559.995,30.3133,0.0,0.0
296,73.75,74.5264,79.4962,130.165,104.499,3.60336,0.00727016,0.463895,20.4676,559.655,30.4184,0.0,0.0
304,75.75,74.4771,79.771,130.198,104.478,3.62568,0.00706828,0.459369,20.4756,559.445,30.3608,0.0,0.0
312,77.75,74.4245,79.9707,129.53,104.532,3.6233,0.00686703,0.453993,20.4826,559.225,30.3714,0.0,0.0
320,79.75,74.2892,79.9997,134.138,104.585,3.62093,0.00675809,0.448213,20.491,558.954,30.3819,0.0,0.0
328,81.75,74.2423,79.7298,130.363,104.639,3.62425,0.00665879,0.441742,20.5005,558.694,30.3783,0.0,0.0
336,83.75,74.348,80.189,138.517,104.692,3.60431,0.00650535,0.435844,20.508,558.484,30.4327,0.0,0.0
344,85.75,74.1302,79.8509,137.94,104.728,3.65702,0.00636045,0.43002,20.5157,558.224,30.3047,0.0,0.0
352,87.75,73.9634,79.3731,135.691,104.793,3.59101,0.00621067,0.426376,20.5214,558.014,30.4748,0.0,0.0
360,89.75,74.1131,79.8983,133.066,104.814,3.64277,0.00606756,0.423921,20.525,557.773,30.3473,0.0,0.0
368,91.75,73.3587,79.9519,134.941,104.833,3.61475,0.00601647,0.420927,20.5291,557.523,30.4187,0.0,0.0
376,93.75,73.7381,79.843,133.911,104.86,3.7311,0.00602909,0.417261,20.5349,557.343,30.1349,0.0,0.0
384,95.75,73.8596,79.6022,134.318,104.886,3.70593,0.00598737,0.413603,20.5394,557.113,30.1982,0.0,0.0
392,97.75,73.572,79.4935,138.656,104.891,3.68788,0.00586186,0.41051,20.5424,556.843,30.2427,0.0,0.0
400,99.75,73.6053,79.3742,135.976,104.912,3.70735,0.0057763,0.407619,20.5464,556.612,30.1971,0.0,0.0
408,101.75,73.3113,79.5451,131.78,104.912,3.72207,0.00585793,0.404283,20.552,556.432,30.1612,0.0,0.0
416,103.75,73.1755,79.9974,142.305,104.935,3.70023,0.0059434,0.401383,20.5571,556.212,30.2164,0.0,0.0
424,105.75,73.1318,79.5783,133.115,104.935,3.66414,0.00586278,0.399131,20.5596,555.972,30.3049,0.0,0.0
432,107.75,73.0664,79.6346,141.556,104.938,3.84839,0.0055811,0.396703,20.5618,555.712,29.862,0.0,0.0
440,109.75,72.7746,79.6934,139.335,104.943,3.73347,0.00530868,0.393864,20.5649,555.541,30.1363,0.0,0.0
448,111.75,72.884,79.3408,136.352,104.938,3.71258,0.0052876,0.392184,20.5667,555.291,30.1865,0.0,0.0
456,113.75,72.95,79.3657,133.371,104.934,3.73727,0.00537301,0.392081,20.5675,555.121,30.1263,0.0,0.0
464,115.75,72.5778,79.1122,134.232,104.925,3.81705,0.00544726,0.39174,20.5679,554.851,29.9347,0.0,0.0
472,117.75,72.735,79.1506,134.998,104.913,3.72682,0.00541192,0.390648,20.5686,554.651,30.1498,0.0,0.0
480,119.75,72.4814,78.7592,134.162,104.902,3.81753,0.00522871,0.389532,20.5697,554.49,29.9316,0.0,0.0
488,121.75,72.3247,79.151,136.826,104.891,3.79331,0.0050949,0.388506,20.5714,554.25,29.9881,0.0,0.0
496,123.75,72.7135,79.1144,137.209,104.85,3.75579,0.00494255,0.387391,20.5722,554.03,30.0744,0.0,0.0
504,125.75,72.452,78.6902,134.862,104.831,3.84317,0.00477231,0.385313,20.576,553.86,29.865,0.0,0.0
512,127.75,72.5952,78.5313,135.718,104.791,3.77906,0.00471283,0.382225,20.5809,553.64,30.0135,0.0,0.0
520,129.75,72.2932,78.395,133.951,104.749,3.65844,0.00476839,0.377989,20.5855,553.419,30.3029,0.0,0.0
528,131.75,71.9888,78.2944,139.674,104.708,3.71258,0.00485779,0.376277,20.5875,553.239,30.1667,0.0,0.0
536,133.75,72.2146,78.2255,138.133,104.669,3.80233,0.00498583,0.376295,20.5884,552.949,29.9475,0.0,0.0
544,135.75,71.6105,77.8971,137.324,104.622,3.75199,0.00517537,0.375149,20.5895,552.799,30.0639,0.0,0.0
552,137.75,71.5268,77.9952,134.524,104.569,3.75484,0.00530632,0.373594,20.5912,552.549,30.0524,0.0,0.0
560,139.75,71.9204,78.2553,137.217,104.531,3.75722,0.00520551,0.370967,20.5946,552.379,30.0435,0.0,0.0
568,141.75,71.5033,77.8969,132.803,104.482,3.79758,0.00505697,0.368061,20.5986,552.198,29.9427,0.0,0.0
576,143.75,71.7334,77.976,135.252,104.427,3.7273,0.00495406,0.365532,20.6032,552.008,30.1066,0.0,0.0
584,145.75,71.2502,77.7861,133.977,104.369,3.70973,0.00486311,0.364021,20.6062,551.768,30.1444,0.0,0.0
592,147.75,71.5486,77.36,136.797,104.314,3.8256,0.00467366,0.363838,20.6064,551.608,29.8617,0.0,0.0
600,149.75,71.3175,77.8182,138.603,104.256,3.68503,0.0045063,0.364401,20.6063,551.358,30.1949,0.0,0.0
608,151.75,71.2002,77.4546,134.469,104.217,3.76956,0.00443909,0.364412,20.6059,551.198,29.9867,0.0,0.0
616,153.75,71.3634,77.697,133.586,104.181,3.76291,0.00442856,0.362632,20.6068,551.017,29.9995,0.0,0.0
624,155.75,71.3195,77.2981,138.742,104.135,3.81183,0.00442528,0.360517,20.609,550.837,29.8788,0.0,0.0
632,157.75,71.019,77.1033,137.957,104.097,3.75674,0.00437625,0.358356,20.6119,550.627,30.007,0.0,0.0
640,159.75,70.9182,77.2753,134.04,104.095,3.69738,0.00430124,0.356449,20.6138,550.437,30.1507,0.0,0.0
648,161.75,71.2024,77.1488,136.066,104.096,3.72018,0.00414946,0.355287,20.6152,550.227,30.0953,0.0,0.0
656,163.75,70.8535,76.8088,134.307,104.096,3.68503,0.00407017,0.354103,20.6169,550.016,30.1811,0.0,0.0
664,165.75,70.8897,77.1075,135.666,104.126,3.77336,0.00405523,0.353449,20.6177,549.816,29.9696,0.0,0.0
672,167.75,70.6373,76.6704,137.717,104.115,3.66936,0.00406933,0.353605,20.6187,549.626,30.2211,0.0,0.0
680,169.75,70.5027,76.4156,140.448,104.133,3.7064,0.0040627,0.353536,20.6179,549.466,30.132,0.0,0.0
688,171.75,70.1984,76.1495,137.441,104.145,3.7349,0.00395043,0.353907,20.6175,549.246,30.0639,0.0,0.0
696,173.75,70.23,76.4157,137.294,104.176,3.76386,0.00380864,0.35299,20.6181,549.056,29.9968,0.0,0.0
704,175.75,70.2145,76.4046,138.255,104.173,3.74962,0.00379209,0.351668,20.6202,548.875,30.0308,0.0,0.0
712,177.75,70.1021,76.1515,132.022,104.195,3.71875,0.0038905,0.35028,20.6219,548.695,30.1073,0.0,0.0
720,179.75,69.9621,76.0966,138.545,104.202,3.79046,0.00403215,0.349262,20.624,548.515,29.9354,0.0,0.0
728,181.75,70.2257,76.0067,138.152,104.21,3.78998,0.00413502,0.347839,20.6258,548.305,29.9373,0.0,0.0
736,183.75,70.0393,75.9553,136.984,104.234,3.72018,0.00410545,0.346415,20.6275,548.115,30.1072,0.0,0.0
744,185.75,69.8857,75.724,133.734,104.248,3.75152,0.00399919,0.345883,20.6271,547.945,30.0327,0.0,0.0
752,187.75,69.4939,75.6681,137.041,104.263,3.79521,0.00393754,0.345245,20.6267,547.744,29.9294,0.0,0.0
760,189.75,69.6578,76.4288,138.548,104.281,3.91298,0.00393779,0.344912,20.6271,547.534,29.6549,0.0,0.0
768,191.75,70.3335,76.0558,136.636,104.284,3.71733,0.00383231,0.3451,20.628,547.344,30.1185,0.0,0.0
776,193.75,69.9102,75.6385,135.82,104.307,3.8104,0.00366362,0.34445,20.629,547.174,29.8971,0.0,0.0
784,195.75,70.6314,75.9474,139.938,104.319,3.84602,0.00357173,0.343088,20.6319,546.964,29.8141,0.0,0.0
792,197.75,70.1187,75.4555,138.129,104.344,3.82607,0.00359503,0.342248,20.6333,546.794,29.8632,0.0,0.0
800,199.75,69.6462,75.8776,141.118,104.401,3.87973,0.00364411,0.342155,20.6332,546.583,29.7423,0.0,0.0
808,201.75,69.8288,75.0293,135.918,104.375,3.75722,0.00364815,0.341718,20.6333,546.413,30.03,0.0,0.0
816,203.75,69.1865,74.7803,137.209,104.394,3.77241,0.00359945,0.341587,20.6347,546.283,29.9952,0.0,0.0
824,205.75,69.4721,75.249,135.13,104.423,3.73205,0.00355554,0.340567,20.6356,546.053,30.0949,0.0,0.0
832,207.75,69.4716,75.3687,133.947,104.446,3.8161,0.0035593,0.339555,20.636,545.843,29.8957,0.0,0.0
840,209.75,69.5707,75.1906,138.632,104.47,3.81183,0.00365641,0.340354,20.6351,545.682,29.9079,0.0,0.0
848,211.75,69.5841,75.1233,137.845,104.483,3.77859,0.00375214,0.340957,20.6343,545.532,29.9881,0.0,0.0
856,213.75,69.3299,74.8825,136.579,104.51,3.82037,0.00383652,0.340881,20.6349,545.362,29.8911,0.0,0.0
864,215.75,69.7412,74.6894,137.761,104.535,3.84459,0.00383481,0.340579,20.6358,545.112,29.8362,0.0,0.0
872,217.75,69.0514,74.7625,139.524,104.547,3.82037,0.00380218,0.339841,20.6363,544.952,29.8942,0.0,0.0
880,219.75,69.3892,74.867,136.342,104.571,3.66414,0.00385014,0.339305,20.6364,544.732,30.2735,0.0,0.0
888,221.75,69.3238,74.8632,138.893,104.591,3.76861,0.0038717,0.339136,20.6365,544.612,30.0213,0.0,0.0
896,223.75,69.6182,74.5416,134.496,104.611,3.84934,0.00379918,0.339247,20.6364,544.411,29.8315,0.0,0.0
904,225.75,69.0944,74.0826,136.478,104.633,3.86311,0.00368405,0.339088,20.6376,544.231,29.8012,0.0,0.0
912,227.75,69.2235,74.345,135.768,104.653,3.78523,0.00363414,0.337483,20.6392,544.081,29.9869,0.0,0.0
920,229.75,69.1994,74.623,136.159,104.675,3.8104,0.00358983,0.33732,20.6398,543.881,29.929,0.0,0.0
928,231.75,69.376,74.2687,138.192,104.684,3.83035,0.00338579,0.337511,20.6401,543.641,29.8825,0.0,0.0
936,233.75,69.2351,74.2936,138.684,104.7,3.78761,0.00321469,0.336822,20.6403,543.491,29.9853,0.0,0.0
944,235.75,68.9266,74.2727,141.963,104.707,3.8104,0.00322444,0.335941,20.6419,543.27,29.9317,0.0,0.0
952,237.75,69.2446,74.1315,142.498,104.721,3.8218,0.00323582,0.33427,20.6438,543.11,29.9059,0.0,0.0
960,239.75,68.6714,74.2009,136.411,104.734,3.88496,0.00329092,0.334911,20.6418,542.89,29.759,0.0,0.0
968,241.75,69.0813,74.0592,136.329,104.752,3.81325,0.00341205,0.337695,20.6398,542.77,29.9288,0.0,0.0
976,243.75,69.006,74.2625,138.822,104.743,3.82512,0.00346578,0.338141,20.6403,542.58,29.9,0.0,0.0
984,245.75,68.733,74.2082,135.036,104.752,3.87783,0.00333859,0.337233,20.6418,542.4,29.7771,0.0,0.0
992,247.75,69.0053,73.8453,139.204,104.755,3.75199,0.00316185,0.335327,20.6438,542.239,30.0754,0.0,0.0
1000,249.75,69.0305,73.9937,138.365,104.756,3.77669,0.00308553,0.334301,20.6446,542.089,30.0162,0.0,0.0
1008,251.75,69.008,73.939,141.114,104.762,3.84412,0.00309534,0.335152,20.645,541.869,29.8569,0.0,0.0
1016,253.75,68.9706,73.9222,136.185,104.763,3.88496,0.00319549,0.335147,20.6454,541.689,29.7614,0.0,0.0
1024,255.75,68.761,73.9151,140.265,104.767,3.8009,0.00321202,0.333945,20.6466,541.509,29.9594,0.0,0.0
1032,257.75,68.676,74.0632,135.475,104.762,3.86121,0.00309118,0.333976,20.6472,541.339,29.8168,0.0,0.0
1040,259.75,68.5728,73.9279,138.917,104.757,3.85552,0.00296032,0.334261,20.6466,541.158,29.8297,0.0,0.0
1048,261.75,68.757,73.9096,131.813,104.771,3.85362,0.00298898,0.334261,20.6458,540.948,29.8354,0.0,0.0
1056,263.75,68.8615,73.4964,137.887,104.752,3.80945,0.00306849,0.334651,20.6455,540.848,29.9378,0.0,0.0
1064,265.75,68.8447,73.88,140.244,104.74,3.80565,0.00305582,0.335024,20.6454,540.648,29.9458,0.0,0.0
1072,267.75,68.8249,73.8895,139.631,104.734,3.84744,0.00300935,0.33575,20.644,540.448,29.8466,0.0,0.0
1080,269.75,68.8427,73.7694,136.143,104.725,3.87166,0.00298686,0.336741,20.6434,540.278,29.7891,0.0,0.0
1088,271.75,68.8713,73.8171,134.045,104.719,3.89968,0.00304551,0.335761,20.6432,540.067,29.7235,0.0,0.0
1096,273.75,68.8261,73.6854,137.295,104.715,3.8237,0.00313967,0.333995,20.643,539.897,29.9009,0.0,0.0
1104,275.75,68.9436,73.7969,135.44,104.714,3.87593,0.00328988,0.335228,20.643,539.687,29.7782,0.0,0.0
1112,277.75,68.5614,73.4105,138.858,104.711,3.91725,0.00343882,0.336256,20.6417,539.547,29.6822,0.0,0.0
1120,279.75,68.7028,73.7337,145.542,104.689,3.83747,0.00339661,0.336355,20.6419,539.357,29.8662,0.0,0.0
1128,281.75,68.5865,73.7964,140.27,104.667,3.84649,0.00320562,0.33602,20.6427,539.227,29.8431,0.0,0.0
1136,283.75,68.6323,73.7013,139.196,104.665,3.79141,0.00300226,0.334604,20.6457,539.047,29.9732,0.0,0.0
1144,285.75,68.7558,73.4288,137.981,104.674,3.84507,0.00290038,0.332684,20.6475,538.816,29.847,0.0,0.0
1152,287.75,68.7014,73.2542,134.734,104.661,3.80803,0.00289985,0.332763,20.6477,538.646,29.9334,0.0,0.0
1160,289.75,68.4825,73.3464,138.054,104.636,3.84697,0.0029411,0.335078,20.6442,538.486,29.8393,0.0,0.0
1168,291.75,68.9414,73.2669,137.39,104.639,3.95144,0.00304137,0.337222,20.6415,538.296,29.5975,0.0,0.0
1176,293.75,68.8858,73.5544,136.555,104.611,3.98801,0.00313553,0.338369,20.6404,538.106,29.5119,0.0,0.0
1184,295.75,68.5927,73.4652,136.377,104.588,3.92485,0.00311568,0.338641,20.6399,537.936,29.6541,0.0,0.0
1192,297.75,68.8326,73.7945,139.122,104.571,3.78476,0.00301013,0.337692,20.6404,537.795,29.981,0.0,0.0
1200,299.75,68.551,73.2902,135.327,104.556,3.91392,0.00290958,0.336319,20.6422,537.635,29.6765,0.0,0.0
1208,301.75,68.8659,73.3791,142.136,104.526,3.82845,0.00284915,0.335424,20.6431,537.405,29.8734,0.0,0.0
1216,303.75,68.7666,73.4455,136.36,104.51,3.82037,0.00282801,0.335963,20.6418,537.205,29.891,0.0,0.0
1224,305.75,68.6853,73.4479,137.607,104.498,3.8028,0.00282502,0.337904,20.6391,537.015,29.9316,0.0,0.0
1232,307.75,68.4812,73.1398,138.309,104.493,3.90918,0.00298285,0.338975,20.6377,536.905,29.682,0.0,0.0
1240,309.75,68.5642,73.7639,133.835,104.458,3.84554,0.00317346,0.339749,20.6371,536.684,29.8273,0.0,0.0
1248,311.75,68.8333,73.8261,140.969,104.439,3.86929,0.00326798,0.340174,20.6373,536.514,29.77,0.0,0.0
1256,313.75,69.1348,73.8164,135.363,104.411,3.85124,0.00326878,0.338655,20.6382,536.344,29.8098,0.0,0.0
1264,315.75,68.8608,73.4487,142.072,104.383,3.78618,0.00322947,0.337418,20.6386,536.154,29.9613,0.0,0.0
1272,317.75,68.9262,73.5904,135.821,104.361,3.79426,0.00312389,0.337451,20.6388,535.974,29.9402,0.0,0.0
1280,319.75,68.8441,73.6212,135.656,104.327,3.88353,0.00299364,0.338363,20.6389,535.804,29.7271,0.0,0.0
1288,321.75,69.1585,73.563,136.878,104.304,3.74534,0.00295794,0.339448,20.6389,535.633,30.0524,0.0,0.0
1296,323.75,68.7606,73.5012,136.153,104.281,3.8066,0.00306101,0.339538,20.6389,535.413,29.9038,0.0,0.0
1304,325.75,69.1957,73.5474,134.757,104.243,3.88876,0.00320091,0.33896,20.6389,535.273,29.7077,0.0,0.0
1312,327.75,69.3285,73.8679,136.062,104.222,3.77906,0.00317917,0.338785,20.6389,535.053,29.9644,0.0,0.0
1320,329.75,68.8767,74.0468,135.624,104.193,3.77146,0.00307027,0.337975,20.6394,534.893,29.98,0.0,0.0
1328,331.75,68.868,73.7888,136.037,104.16,3.85599,0.00308163,0.338377,20.6402,534.743,29.7769,0.0,0.0
1336,333.75,69.0882,73.4986,139.53,104.128,3.71448,0.00313443,0.338814,20.64,534.512,30.1119,0.0,0.0
1344,335.75,69.2165,73.7985,136.53,104.101,3.84602,0.00316525,0.33995,20.639,534.352,29.7952,0.0,0.0
1352,337.75,69.2824,73.6003,138.457,104.075,3.88638,0.00312661,0.340737,20.6381,534.222,29.6986,0.0,0.0
1360,339.75,69.2591,73.5463,135.545,104.044,3.83937,0.00297049,0.340202,20.6399,534.052,29.8059,0.0,0.0
1368,341.75,69.2327,74.0932,138.09,104.014,3.71448,0.00279774,0.337579,20.6424,533.842,30.102,0.0,0.0
1376,343.75,69.1822,73.9973,134.586,104.006,3.84982,0.00277458,0.3371,20.6427,533.672,29.778,0.0,0.0
1384,345.75,69.17,73.664,141.813,103.953,3.75722,0.00292185,0.338969,20.6411,533.521,29.9934,0.0,0.0
1392,347.75,69.4729,73.952,136.938,103.926,3.88591,0.00308698,0.340672,20.6396,533.311,29.6868,0.0,0.0
1400,349.75,68.9516,73.8006,136.955,103.899,3.84887,0.00319798,0.341624,20.6384,533.181,29.771,0.0,0.0
1408,351.75,68.9534,73.7319,136.748,103.86,3.79283,0.00315619,0.341484,20.6388,532.991,29.9001,0.0,0.0
1416,353.75,69.0677,73.6248,136.814,103.823,3.83842,0.00303387,0.340354,20.6404,532.811,29.7889,0.0,0.0
1424,355.75,69.4187,73.8216,137.174,103.801,3.88448,0.00290616,0.340107,20.6406,532.651,29.6793,0.0,0.0
1432,357.75,69.2811,73.5697,134.528,103.787,3.84934,0.00282059,0.341304,20.6387,532.431,29.7601,0.0,0.0
1440,359.75,69.4396,74.1079,139.929,103.752,3.7064,0.00277851,0.342467,20.6375,532.25,30.0989,0.0,0.0
1448,361.75,69.5207,73.9295,139.124,103.738,3.8104,0.00279399,0.343471,20.6358,532.12,29.8477,0.0,0.0
1456,363.75,69.6247,73.9161,133.806,103.725,3.83082,0.00293345,0.3439,20.6351,531.95,29.7983,0.0,0.0
1464,365.75,69.1909,74.2069,133.884,103.719,3.87878,0.00309102,0.342618,20.6363,531.74,29.6854,0.0,0.0
1472,367.75,69.6394,74.2373,135.953,103.698,3.83035,0.00317758,0.34112,20.6378,531.59,29.797,0.0,0.0
1480,369.75,69.3325,74.2135,137.174,103.696,3.75959,0.00323566,0.340666,20.6378,531.4,29.9653,0.0,0.0
1488,371.75,69.4998,73.979,135.103,103.699,3.79426,0.0032157,0.343084,20.6348,531.24,29.8826,0.0,0.0
1496,373.75,69.4199,73.9944,134.822,103.705,3.79331,0.00309628,0.34649,20.6312,531.029,29.8855,0.0,0.0
1504,375.75,69.3735,74.0066,136.143,103.71,3.89588,0.00292517,0.348419,20.6299,530.849,29.6449,0.0,0.0
1512,377.75,69.9526,74.5093,135.269,103.73,3.82607,0.00289009,0.348595,20.6293,530.689,29.8099,0.0,0.0
1520,379.75,69.7208,73.7028,135.718,103.732,3.82037,0.00296803,0.347615,20.6291,530.509,29.8236,0.0,0.0
1528,381.75,70.0853,74.3942,137.815,103.743,3.89113,0.00299607,0.347047,20.6289,530.309,29.6587,0.0,0.0
1536,383.75,70.0867,74.334,135.187,103.761,3.84317,0.00298693,0.347277,20.6289,530.169,29.7723,0.0,0.0
1544,385.75,69.7509,74.4631,133.43,103.769,3.88448,0.00296879,0.348152,20.628,529.998,29.6765,0.0,0.0
1552,387.75,70.337,74.4683,137.359,103.784,3.84364,0.00291323,0.349301,20.6266,529.898,29.7732,0.0,0.0
1560,389.75,69.631,74.2025,138.569,103.821,3.79236,0.0028694,0.349819,20.6257,529.698,29.8978,0.0,0.0
1568,391.75,69.4273,74.2085,134.035,103.838,3.84507,0.0028322,0.349365,20.626,529.448,29.7746,0.0,0.0
1576,393.75,69.5416,74.2685,137.686,103.889,3.88686,0.00287808,0.349107,20.6263,529.338,29.6814,0.0,0.0
1584,395.75,69.9316,74.6789,140.751,103.935,3.84412,0.00300024,0.348953,20.6265,529.138,29.7853,0.0,0.0
1592,397.75,69.4082,74.0839,137.655,103.98,3.98088,0.00307126,0.349066,20.6265,528.917,29.4733,0.0,0.0
1600,399.75,69.8762,74.2716,132.367,104.014,3.88686,0.00303098,0.350025,20.6247,528.717,29.6923,0.0,0.0
1608,401.75,70.0249,74.256,132.871,104.066,3.86026,0.00297921,0.351435,20.6219,528.547,29.7588,0.0,0.0
1616,403.75,70.043,74.6525,132.734,104.135,3.97661,0.00300699,0.35243,20.6206,528.377,29.4965,0.0,0.0
1624,405.75,69.9978,74.2142,134.656,104.202,3.87688,0.00306458,0.353188,20.62,528.257,29.7318,0.0,0.0
1632,407.75,70.0427,74.6023,136.098,104.249,3.85029,0.00312668,0.353454,20.6211,528.097,29.798,0.0,0.0
1640,409.75,69.8217,74.7773,134.394,104.321,3.94764,0.00305384,0.352884,20.6215,527.836,29.5787,0.0,0.0
1648,411.75,69.7966,74.4369,135.476,104.386,3.86169,0.00288402,0.352617,20.6217,527.696,29.7832,0.0,0.0
1656,413.75,69.8047,74.5037,138.73,104.438,3.92675,0.00283537,0.352828,20.6218,527.526,29.6367,0.0,0.0
1664,415.75,69.9947,74.2566,134.435,104.505,3.88828,0.00284665,0.353691,20.6209,527.316,29.7315,0.0,0.0
1672,417.75,69.607,74.463,133.993,104.545,3.90063,0.00286263,0.355348,20.6189,527.196,29.7063,0.0,0.0
1680,419.75,70.1461,74.7173,134.08,104.608,3.8973,0.0029376,0.356794,20.618,526.996,29.7194,0.0,0.0
1688,421.75,69.8818,74.7274,135.522,104.64,3.87688,0.00299849,0.358041,20.6157,526.846,29.7696,0.0,0.0
1696,423.75,69.8246,74.5587,139.162,104.676,3.94859,0.00304973,0.357469,20.6146,526.665,29.6072,0.0,0.0
1704,425.75,69.6231,74.8061,136.788,104.71,3.94622,0.00311633,0.357516,20.6153,526.485,29.6156,0.0,0.0
1712,427.75,70.0691,74.5495,135.317,104.743,3.87973,0.00313083,0.357935,20.6158,526.305,29.7719,0.0,0.0
1720,429.75,70.4087,74.5033,136.298,104.749,3.87878,0.00309947,0.357908,20.616,526.125,29.7746,0.0,0.0
1728,431.75,69.7861,74.3663,133.931,104.743,3.93055,0.0030523,0.357503,20.6161,525.885,29.6544,0.0,0.0
1736,433.75,70.404,74.3696,140.218,104.731,3.86691,0.00305196,0.357701,20.6162,525.745,29.8007,0.0,0.0
1744,435.75,69.9726,74.8475,136.095,104.711,3.91487,0.00315843,0.358145,20.6151,525.514,29.6877,0.0,0.0
1752,437.75,69.9143,74.5531,135.474,104.675,3.97471,0.00334862,0.359582,20.6136,525.324,29.5476,0.0,0.0
1760,439.75,69.9393,74.7511,134.818,104.625,3.92247,0.00345669,0.360917,20.6124,525.164,29.6628,0.0,0.0
1768,441.75,70.1275,74.5155,132.748,104.567,3.98041,0.00337539,0.360371,20.6119,525.004,29.5253,0.0,0.0
1776,443.75,70.3082,74.8193,132.337,104.489,3.94432,0.00321231,0.361595,20.6117,524.814,29.6008,0.0,0.0
1784,445.75,70.5394,74.9669,138.854,104.393,3.94479,0.00315229,0.362904,20.6116,524.604,29.5915,0.0,0.0
1792,447.75,70.4702,74.6924,135.953,104.306,4.00795,0.0031431,0.362819,20.6116,524.403,29.4405,0.0,0.0
1800,449.75,70.1411,75.183,133.533,104.236,3.95049,0.00311028,0.362651,20.6116,524.233,29.5648,0.0,0.0
1808,451.75,70.494,74.7279,135.862,104.17,3.83937,0.00305464,0.362857,20.6116,524.083,29.8168,0.0,0.0
1816,453.75,70.5464,75.1469,136.491,104.121,3.94099,0.00299178,0.363077,20.6116,523.903,29.5766,0.0,0.0
1824,455.75,70.6365,75.1651,137.159,104.07,3.76766,0.00299041,0.36345,20.6116,523.753,29.9784,0.0,0.0
1832,457.75,70.8273,74.9907,137.136,104.181,3.88496,0.00310002,0.36346,20.6116,523.553,29.7111,0.0,0.0
1840,459.75,70.8804,75.3839,141.122,104.366,3.86501,0.00314978,0.36238,20.6132,523.392,29.7737,0.0,0.0
1848,461.75,70.6901,75.1425,139.302,104.541,3.93624,0.00309382,0.360537,20.6149,523.162,29.6238,0.0,0.0
1856,463.75,70.8329,75.1268,136.996,104.69,3.96949,0.00307457,0.362481,20.6114,523.032,29.5607,0.0,0.0
1864,465.75,70.7436,75.3792,135.823,104.814,3.9258,0.00315152,0.364163,20.6088,522.842,29.6714,0.0,0.0
1872,467.75,70.8665,75.2557,140.449,104.881,3.88353,0.00333028,0.364841,20.6084,522.642,29.775,0.0,0.0
1880,469.75,70.7325,75.8007,135.589,104.927,3.96996,0.00339969,0.365721,20.6083,522.472,29.5801,0.0,0.0
1888,471.75,71.0354,75.4964,131.662,104.93,3.89256,0.00337045,0.366656,20.6082,522.301,29.7582,0.0,0.0
1896,473.75,70.9761,75.6249,135.199,104.909,3.86881,0.00329088,0.366829,20.6082,522.091,29.8117,0.0,0.0
1904,475.75,71.0061,75.715,135.095,104.859,3.94622,0.0032128,0.366657,20.607,521.951,29.6284,0.0,0.0
1912,477.75,71.0585,75.9008,135.524,104.764,3.84649,0.00314045,0.366942,20.6064,521.771,29.8514,0.0,0.0
1920,479.75,71.3893,76.0468,137.626,104.651,3.87451,0.00304578,0.366444,20.6061,521.601,29.7761,0.0,0.0
1928,481.75,71.0443,75.9203,135.303,104.484,3.88638,0.00291854,0.366358,20.606,521.381,29.7341,0.0,0.0
1936,483.75,71.4992,75.8897,137.471,104.495,3.84839,0.00296794,0.367704,20.605,521.21,29.8238,0.0,0.0
1944,485.75,71.3509,76.111,141.36,104.57,3.89398,0.00320718,0.368164,20.6042,521.04,29.7239,0.0,0.0
1952,487.75,71.264,75.8877,133.367,104.673,3.88543,0.0034289,0.368673,20.6038,520.84,29.7526,0.0,0.0
1960,489.75,71.5398,76.0242,131.347,104.764,3.85314,0.00338976,0.369517,20.6033,520.69,29.8359,0.0,0.0
1968,491.75,71.6191,76.6914,133.912,104.895,3.86454,0.0033175,0.370041,20.6029,520.48,29.8205,0.0,0.0
1976,493.75,71.4529,76.2086,136.694,105.006,3.9068,0.00337665,0.369969,20.6027,520.3,29.7318,0.0,0.0
1984,495.75,71.503,76.3203,137.248,105.114,3.88971,0.00351283,0.370026,20.6024,520.149,29.7807,0.0,0.0
1992,497.75,71.6887,76.2742,137.409,105.208,3.91487,0.00357728,0.371053,20.6011,519.899,29.7304,0.0,0.0
2000,499.75,71.2603,76.4046,134.839,105.297,3.84602,0.0036226,0.370227,20.6022,519.709,29.8984,0.0,0.0
2008,501.75,71.7539,76.6898,135.031,105.352,3.79901,0.00370447,0.368257,20.6037,519.539,30.0142,0.0,0.0
2016,503.75,71.3249,76.2638,137.455,105.378,3.87071,0.00373337,0.367431,20.6044,519.389,29.8476,0.0,0.0
2024,505.75,71.7157,76.2264,137.47,105.375,3.81563,0.0036578,0.368279,20.6033,519.189,29.9767,0.0,0.0
2032,507.75,71.3891,76.3354,133.978,105.344,3.86169,0.0034559,0.368792,20.6031,519.028,29.8657,0.0,0.0
2040,509.75,71.91,76.4823,140.19,105.267,3.92865,0.00323314,0.368201,20.6041,518.848,29.7038,0.0,0.0
2048,511.75,71.8589,76.4033,136.239,105.179,3.83082,0.00304423,0.368064,20.6043,518.678,29.9241,0.0,0.0
2056,513.75,71.8062,76.402,132.667,105.025,3.76149,0.00288647,0.36886,20.6023,518.498,30.0758,0.0,0.0
2064,515.75,71.7839,76.2404,136.467,104.863,3.92152,0.00285686,0.369434,20.6011,518.328,29.6855,0.0,0.0
2072,517.75,71.5351,76.2145,134.567,104.68,3.82132,0.00299985,0.369391,20.6017,518.138,29.9035,0.0,0.0
2080,519.75,71.6918,76.421,130.168,104.497,3.83747,0.00320405,0.369437,20.6022,517.917,29.8496,0.0,0.0
2088,521.75,71.4611,75.9807,136.768,104.291,3.96949,0.00335655,0.368902,20.6024,517.757,29.5263,0.0,0.0
2096,523.75,71.7196,76.6658,139.62,104.099,3.77906,0.00342428,0.367776,20.6044,517.607,29.9537,0.0,0.0
2104,525.75,71.7659,76.2488,138.686,103.921,3.86881,0.00346313,0.366101,20.606,517.387,29.7262,0.0,0.0
2112,527.75,71.8489,76.6001,136.742,103.774,3.75912,0.00350488,0.365347,20.6064,517.207,29.9733,0.0,0.0
2120,529.75,71.6668,76.6277,137.824,103.661,3.82037,0.00372492,0.366695,20.6047,517.047,29.8174,0.0,0.0
2128,531.75,71.8495,76.9819,134.394,103.557,3.76766,0.00391872,0.368064,20.6035,516.886,29.9338,0.0,0.0
2136,533.75,71.2659,77.1508,138.01,103.506,3.93102,0.00384634,0.368501,20.6029,516.716,29.546,0.0,0.0
2144,535.75,71.848,76.5361,137.01,103.471,3.84602,0.00366432,0.36888,20.6029,516.506,29.7404,0.0,0.0
2152,537.75,71.4636,76.1841,132.583,103.494,3.81895,0.00355845,0.369077,20.603,516.306,29.8062,0.0,0.0
2160,539.75,71.9212,76.6094,133.435,103.549,3.87451,0.00356189,0.369065,20.6031,516.136,29.6805,0.0,0.0
2168,541.75,71.8114,76.8119,133.689,103.636,3.77241,0.00357793,0.369075,20.6021,515.966,29.9293,0.0,0.0
2176,543.75,71.8318,76.8822,134.325,103.76,3.76861,0.00369002,0.370491,20.6014,515.806,29.9492,0.0,0.0
2184,545.75,71.7329,76.7583,137.21,103.888,3.86406,0.00381898,0.371581,20.601,515.605,29.7344,0.0,0.0
2192,547.75,71.9062,76.7674,136.246,104.039,3.87546,0.00387737,0.371206,20.6009,515.415,29.721,0.0,0.0
2200,549.75,71.8586,76.4559,134.489,104.204,3.78618,0.00393529,0.370076,20.6009,515.265,29.9458,0.0,0.0
2208,551.75,71.7538,76.8174,137.268,104.353,3.86644,0.0038337,0.369256,20.6009,515.065,29.7692,0.0,0.0
2216,553.75,71.7254,76.8051,136.064,104.513,3.9163,0.00366261,0.368939,20.6009,514.895,29.6673,0.0,0.0
2224,555.75,71.6258,76.7788,135.467,104.624,3.85457,0.00356805,0.368895,20.6009,514.725,29.8204,0.0,0.0
2232,557.75,71.7985,76.3869,134.08,104.72,3.84887,0.00355253,0.368302,20.6009,514.574,29.842,0.0,0.0
2240,559.75,71.8324,76.6246,135.579,104.76,3.85741,0.00359522,0.366945,20.6039,514.434,29.8255,0.0,0.0
2248,561.75,71.7265,76.6874,132.766,104.765,3.88306,0.00362542,0.364594,20.6071,514.184,29.766,0.0,0.0
2256,563.75,71.9007,76.7193,136.846,104.711,3.89635,0.00366196,0.363664,20.6085,514.014,29.7306,0.0,0.0
2264,565.75,71.8591,76.9007,141.691,104.628,3.83415,0.00382489,0.364443,20.6079,513.884,29.8687,0.0,0.0
2272,567.75,71.3541,76.9001,134.88,104.493,3.89683,0.0040152,0.366363,20.6061,513.674,29.7106,0.0,0.0
2280,569.75,71.7422,76.4699,138.568,104.365,3.84934,0.00406215,0.365844,20.606,513.523,29.8102,0.0,0.0
2288,571.75,71.5873,76.6993,142.886,104.22,3.82512,0.00411199,0.363923,20.6073,513.363,29.8548,0.0,0.0
2296,573.75,71.566,76.5768,136.017,104.11,3.80375,0.00424556,0.3629,20.6086,513.203,29.8958,0.0,0.0
2304,575.75,71.6085,76.5577,134.679,104.079,3.74914,0.0042847,0.362532,20.6091,513.023,30.0237,0.0,0.0
2312,577.75,71.9155,76.8309,135.459,104.309,3.74297,0.00424489,0.362413,20.6093,512.823,30.0586,0.0,0.0
2320,579.75,71.6349,76.6545,140.558,104.582,3.75484,0.00419256,0.361246,20.611,512.673,30.0536,0.0,0.0
2328,581.75,71.6758,76.2936,135.761,104.798,3.81515,0.00414661,0.358854,20.6141,512.473,29.9283,0.0,0.0
2336,583.75,71.7853,76.3268,139.856,104.916,3.9068,0.00413524,0.356753,20.6169,512.342,29.724,0.0,0.0
2344,585.75,71.6258,76.5032,132.199,104.918,3.82987,0.00415503,0.354678,20.62,512.162,29.9038,0.0,0.0
2352,587.75,71.5932,76.4119,138.632,104.867,3.86074,0.00421825,0.353219,20.6221,511.972,29.8269,0.0,0.0
2360,589.75,71.4419,76.5158,136.303,104.701,3.87688,0.00426664,0.352084,20.6242,511.802,29.7749,0.0,0.0
2368,591.75,71.5409,76.7277,141.273,104.463,3.81705,0.00416761,0.350656,20.6261,511.642,29.8949,0.0,0.0
2376,593.75,71.2299,75.9431,136.015,104.58,3.87119,0.00399582,0.348425,20.6302,511.552,29.7778,0.0,0.0
2384,595.75,71.3841,75.9902,139.892,104.74,3.9011,0.00385525,0.344699,20.6354,511.342,29.7221,0.0,0.0
2392,597.75,71.4594,76.4043,140.791,104.905,3.86881,0.00376813,0.341017,20.6393,511.201,29.8113,0.0,0.0
2400,599.75,70.4236,75.662,136.057,105.073,3.84982,0.00376665,0.338363,20.6422,511.051,29.8702,0.0,0.0
2408,601.75,71.1752,75.8151,136.682,105.212,3.79711,0.00383573,0.336673,20.6446,510.951,30.0068,0.0,0.0
2416,603.75,70.6093,76.0705,139.338,105.324,3.84032,0.00386904,0.335704,20.6451,510.771,29.9141,0.0,0.0
2424,605.75,70.8427,75.9959,135.864,105.386,3.88401,0.00381247,0.334817,20.6448,510.601,29.8172,0.0,0.0
2432,607.75,70.6691,75.6259,139.769,105.376,3.81658,0.0037224,0.333556,20.6455,510.411,29.9746,0.0,0.0
2440,609.75,69.8541,75.0135,141.042,105.301,3.8047,0.00369284,0.332602,20.6476,510.281,29.9963,0.0,0.0
2448,611.75,70.3435,75.642,134.587,105.137,3.88971,0.00376394,0.331668,20.649,510.14,29.7826,0.0,0.0
2456,613.75,69.9652,74.799,139.776,104.926,3.8218,0.00380817,0.330866,20.6505,509.99,29.9236,0.0,0.0
2464,615.75,70.0006,75.0632,137.527,104.668,3.84982,0.00384948,0.329,20.6513,509.81,29.8354,0.0,0.0
2472,617.75,69.4323,74.6139,138.881,104.412,3.95097,0.00385343,0.327011,20.6534,509.68,29.579,0.0,0.0
2480,619.75,69.6774,74.7929,135.385,104.137,3.83225,0.0037707,0.325308,20.655,509.56,29.8307,0.0,0.0
2488,621.75,70.2138,75.0006,133.928,103.881,3.88496,0.00366853,0.324001,20.6566,509.42,29.6851,0.0,0.0
2496,623.75,69.7403,74.8177,140.666,103.675,3.77241,0.00359376,0.322025,20.659,509.29,29.9328,0.0,0.0
2504,625.75,69.9014,75.269,135.244,103.538,3.81942,0.00359225,0.320332,20.6603,509.15,29.8089,0.0,0.0
2512,627.75,69.3726,74.7434,137.806,103.502,3.82085,0.00365868,0.318784,20.6622,508.979,29.8024,0.0,0.0
2520,629.75,69.8757,74.3767,139.964,103.557,3.84887,0.00362149,0.316934,20.6643,508.859,29.7411,0.0,0.0
2528,631.75,69.5433,74.4139,138.065,103.686,3.83272,0.00345689,0.315348,20.6667,508.739,29.7904,0.0,0.0
2536,633.75,69.2353,74.4713,134.591,103.782,3.83035,0.00335242,0.313818,20.669,508.599,29.8044,0.0,0.0
2544,635.75,69.5088,74.337,137.831,103.877,3.71923,0.00341827,0.312036,20.6714,508.489,30.0786,0.0,0.0
2552,637.75,68.8706,74.3135,138.54,104.05,3.79378,0.0034977,0.309016,20.6752,508.339,29.9143,0.0,0.0
2560,639.75,69.1986,74.0342,138.602,104.242,3.87214,0.00340707,0.305591,20.6791,508.159,29.7463,0.0,0.0
2568,641.75,68.7781,73.8867,135.681,104.432,3.83842,0.00320731,0.303324,20.6825,508.029,29.8418,0.0,0.0
2576,643.75,68.8895,73.85,139.496,104.578,3.85409,0.00308531,0.300761,20.6861,507.918,29.8176,0.0,0.0
2584,645.75,68.8022,73.9094,136.379,104.703,3.88876,0.00312474,0.299139,20.688,507.778,29.7475,0.0,0.0
2592,647.75,68.6583,73.6219,137.955,104.794,3.84174,0.00329841,0.297521,20.6903,507.638,29.8652,0.0,0.0
2600,649.75,68.803,73.8383,140.922,104.816,3.90823,0.00342261,0.294587,20.6931,507.588,29.7121,0.0,0.0
2608,651.75,68.3413,72.9046,136.811,104.788,3.81373,0.00343703,0.292459,20.694,507.428,29.9308,0.0,0.0
2616,653.75,68.6407,73.5953,140.308,104.707,3.8066,0.00350992,0.290512,20.6956,507.308,29.9407,0.0,0.0
2624,655.75,67.9501,72.6236,138.919,104.596,3.86406,0.0036107,0.288482,20.6985,507.208,29.7958,0.0,0.0
2632,657.75,67.736,72.7162,139.98,104.47,3.85979,0.00369208,0.286809,20.7016,507.098,29.7949,0.0,0.0
2640,659.75,68.0513,72.8377,138.507,104.303,3.89493,0.0037171,0.28461,20.7049,506.988,29.6986,0.0,0.0
2648,661.75,67.9195,72.4172,136.452,104.191,3.89256,0.00364298,0.282432,20.7075,506.887,29.6943,0.0,0.0
2656,663.75,67.8359,72.2867,135.686,104.115,3.86929,0.00356612,0.279944,20.7108,506.767,29.7419,0.0,0.0
2664,665.75,67.5981,72.291,139.181,104.232,3.8294,0.00358122,0.276834,20.7145,506.627,29.8457,0.0,0.0
2672,667.75,67.3396,72.345,137.097,104.427,3.78286,0.00360119,0.274215,20.7166,506.477,29.973,0.0,0.0
2680,669.75,67.5,72.4613,142.721,104.658,3.87261,0.00355921,0.272032,20.7188,506.427,29.7812,0.0,0.0
2688,671.75,67.3245,71.9325,141.503,104.815,3.86834,0.00358722,0.2696,20.7217,506.337,29.8047,0.0,0.0
2696,673.75,66.9514,71.7313,137.063,104.924,3.82132,0.00365487,0.266778,20.7243,506.227,29.9246,0.0,0.0
2704,675.75,66.7651,71.4014,135.956,104.942,3.90205,0.00370036,0.263978,20.7295,506.137,29.7372,0.0,0.0
2712,677.75,66.7886,71.3472,141.286,104.927,3.88116,0.00359388,0.261381,20.7336,506.007,29.7844,0.0,0.0
2720,679.75,66.5045,71.4784,139.038,104.831,3.92865,0.00340132,0.259453,20.7364,505.927,29.6663,0.0,0.0
2728,681.75,66.3123,70.8947,138.649,104.69,3.89968,0.00327164,0.257852,20.7385,505.847,29.721,0.0,0.0
2736,683.75,65.9823,70.3596,137.7,104.48,3.83272,0.00335084,0.255904,20.7408,505.716,29.8594,0.0,0.0
2744,685.75,66.3824,70.8797,141.735,104.542,3.83794,0.00352003,0.253444,20.7434,505.626,29.8524,0.0,0.0
2752,687.75,65.8411,70.1526,142.381,104.656,3.83937,0.00364457,0.251846,20.7449,505.516,29.8589,0.0,0.0
2760,689.75,65.7846,70.4832,140.002,104.781,3.83699,0.00367942,0.25165,20.7456,505.406,29.8753,0.0,0.0
2768,691.75,65.5977,69.9475,140.721,104.928,3.88828,0.00362573,0.251234,20.7463,505.336,29.7679,0.0,0.0
2776,693.75,65.6503,70.066,138.65,105.036,3.88021,0.00342767,0.249691,20.7486,505.236,29.7961,0.0,0.0
2784,695.75,65.6567,69.8833,136.939,105.161,3.91487,0.00318683,0.247993,20.75,505.136,29.7264,0.0,0.0
2792,697.75,65.3355,69.5843,138.703,105.259,3.89351,0.00312605,0.246664,20.7516,505.066,29.7843,0.0,0.0
2800,699.75,65.183,69.4701,143.881,105.343,3.92722,0.00318831,0.245798,20.7532,505.006,29.7136,0.0,0.0
2808,701.75,65.073,69.3998,139.39,105.405,3.91013,0.00326331,0.244505,20.7549,504.876,29.7583,0.0,0.0
2816,703.75,64.4552,68.8574,139.283,105.426,3.9163,0.00329327,0.243227,20.757,504.806,29.7459,0.0,0.0
2824,705.75,64.184,68.7978,140.161,105.427,3.92247,0.00336892,0.242074,20.7586,504.676,29.7318,0.0,0.0
2832,707.75,64.3923,68.4102,140.47,105.395,3.83652,0.00343882,0.240205,20.7603,504.645,29.9291,0.0,0.0
2840,709.75,64.3634,68.4415,141.204,105.353,3.85694,0.00338119,0.238184,20.7613,504.495,29.8776,0.0,0.0
2848,711.75,64.2797,68.327,140.615,105.28,3.93339,0.00321581,0.236449,20.7638,504.475,29.694,0.0,0.0
2856,713.75,64.1399,68.208,141.104,105.187,3.92627,0.00315635,0.235009,20.7664,504.375,29.7024,0.0,0.0
2864,715.75,63.7708,67.9419,138.516,105.073,3.84839,0.00325981,0.234041,20.7679,504.285,29.8736,0.0,0.0
2872,717.75,63.6624,68.0934,140.041,104.96,3.91677,0.00344497,0.23318,20.7694,504.205,29.7048,0.0,0.0
2880,719.75,63.7237,67.5163,135.298,104.837,3.86454,0.00357512,0.232207,20.7703,504.135,29.8154,0.0,0.0
2888,721.75,63.1845,67.2668,142.762,104.722,3.81278,0.00362768,0.230554,20.7704,504.045,29.9274,0.0,0.0
2896,723.75,63.1129,67.3685,139.044,104.603,3.98136,0.00360196,0.228475,20.7734,503.985,29.5263,0.0,0.0
2904,725.75,63.0193,67.2236,143.263,104.486,3.82417,0.00355321,0.227524,20.7749,503.855,29.88,0.0,0.0
2912,727.75,62.9146,66.8093,140.244,104.367,3.88306,0.00365304,0.226251,20.7765,503.855,29.7316,0.0,0.0
2920,729.75,62.4685,66.7175,139.681,104.268,3.84649,0.00379688,0.22533,20.7776,503.755,29.8086,0.0,0.0
2928,731.75,62.572,66.586,142.366,104.166,3.82465,0.00388843,0.223873,20.7792,503.695,29.8512,0.0,0.0
2936,733.75,62.1855,66.222,142.056,104.069,3.84127,0.00390415,0.222312,20.7817,503.605,29.8036,0.0,0.0
2944,735.75,62.5315,66.3386,141.819,104.008,3.83272,0.00391344,0.220863,20.7838,503.514,29.8184,0.0,0.0
2952,737.75,62.1271,66.1357,141.84,103.912,3.88258,0.00388709,0.219611,20.7856,503.434,29.6933,0.0,0.0
2960,739.75,62.1961,65.6498,142.298,103.836,3.82227,0.00375512,0.217995,20.7868,503.414,29.8281,0.0,0.0
2968,741.75,62.2191,65.8681,142.746,103.781,3.87119,0.00367645,0.216434,20.7873,503.314,29.7085,0.0,0.0
2976,743.75,61.3715,65.8863,147.27,103.744,3.85029,0.00368192,0.214658,20.7897,503.254,29.7542,0.0,0.0
2984,745.75,61.0884,65.7754,143.251,103.704,3.79568,0.00374915,0.213146,20.7922,503.154,29.8797,0.0,0.0
2992,747.75,61.2211,64.9461,142.229,103.679,3.84887,0.00380283,0.211582,20.7946,503.094,29.7518,0.0,0.0
3000,749.75,60.7535,65.2531,142.861,103.664,3.80755,0.0038455,0.210216,20.7965,503.064,29.848,0.0,0.0
3008,751.75,61.3306,64.7368,148.209,103.65,3.84459,0.0038878,0.208635,20.798,503.004,29.7593,0.0,0.0
3016,753.75,60.8917,64.6964,143.133,103.648,3.84887,0.00392027,0.206898,20.8011,502.924,29.7491,0.0,0.0
3024,755.75,60.8128,64.3548,142.813,103.645,3.85694,0.0038827,0.205483,20.8033,502.864,29.73,0.0,0.0
3032,757.75,60.5906,64.7865,145.891,103.655,3.94859,0.00378597,0.203792,20.8052,502.784,29.5186,0.0,0.0
3040,759.75,60.4303,63.9875,144.825,103.676,3.88496,0.00371702,0.201939,20.8072,502.754,29.6673,0.0,0.0
3048,761.75,60.2648,64.0264,143.14,103.705,3.80565,0.0038102,0.199673,20.8105,502.734,29.8561,0.0,0.0
3056,763.75,60.7993,64.0901,145.271,103.73,3.86311,0.00400631,0.197414,20.8141,502.594,29.7229,0.0,0.0
3064,765.75,60.2783,63.555,146.788,103.764,3.82037,0.00416769,0.195158,20.8168,502.554,29.8263,0.0,0.0
3072,767.75,60.2384,63.7634,141.431,103.793,3.87973,0.00422305,0.192941,20.8199,502.534,29.6896,0.0,0.0
3080,769.75,59.711,62.9752,144.612,103.829,3.91962,0.00427482,0.19116,20.8226,502.474,29.6003,0.0,0.0
3088,771.75,59.0574,63.3848,141.64,103.871,3.92295,0.00423938,0.189107,20.8255,502.413,29.5963,0.0,0.0
3096,773.75,59.4753,63.0588,145.401,103.912,3.9163,0.00409499,0.18678,20.8279,502.393,29.6152,0.0,0.0
3104,775.75,59.4736,62.7366,142.834,103.961,3.89351,0.00400761,0.184343,20.8315,502.363,29.6722,0.0,0.0
3112,777.75,59.0949,62.5452,142.481,104.024,3.91345,0.0039939,0.181948,20.835,502.313,29.6315,0.0,0.0
3120,779.75,58.6544,62.4639,144.684,104.057,3.98088,0.00410768,0.179626,20.8375,502.283,29.48,0.0,0.0
3128,781.75,58.7974,62.2524,142.659,104.11,3.8973,0.00432835,0.177135,20.8417,502.233,29.6763,0.0,0.0
3136,783.75,58.2012,62.5421,141.782,104.162,3.91915,0.00450121,0.174997,20.8448,502.173,29.6304,0.0,0.0
3144,785.75,58.3941,62.0012,145.542,104.189,3.87309,0.00454801,0.173366,20.8471,502.173,29.7395,0.0,0.0
3152,787.75,58.5778,61.5819,141.886,103.893,3.903,0.00452382,0.171623,20.8501,502.123,29.6443,0.0,0.0
3160,789.75,57.801,62.0822,143.815,103.922,3.84982,0.00457441,0.170074,20.8522,502.113,29.7708,0.0,0.0
3168,791.75,58.0699,61.0997,145.158,103.951,3.88116,0.00471983,0.168293,20.8538,502.033,29.7,0.0,0.0
3176,793.75,58.1321,61.2455,144.811,103.992,3.93529,0.00490654,0.16624,20.8561,502.023,29.5784,0.0,0.0
3184,795.75,57.2767,61.4473,145.966,104.027,3.94954,0.00511007,0.163771,20.859,501.993,29.5488,0.0,0.0
3192,797.75,57.7679,60.9848,145.364,104.096,3.94147,0.00521443,0.161267,20.8625,501.953,29.5733,0.0,0.0
3200,799.75,57.2874,60.6199,146.823,104.133,3.88068,0.00520127,0.158995,20.8649,501.903,29.7169,0.0,0.0
3208,801.75,56.6551,60.212,146.49,104.182,3.96094,0.00526902,0.156657,20.8667,501.933,29.5363,0.0,0.0
3216,803.75,56.6485,59.6096,150.549,104.243,3.92152,0.00550469,0.154892,20.8701,501.853,29.6319,0.0,0.0
3224,805.75,56.3512,59.4069,144.42,104.293,3.93102,0.00585639,0.152818,20.8726,501.823,29.6143,0.0,0.0
3232,807.75,56.3096,59.1858,145.266,104.344,3.92152,0.00611534,0.151231,20.8745,501.823,29.6407,0.0,0.0
3240,809.75,55.9458,59.1373,145.009,104.394,3.90158,0.0062268,0.149945,20.8765,501.753,29.691,0.0,0.0
3248,811.75,55.5275,59.2998,142.282,104.451,3.89968,0.00630661,0.148513,20.8788,501.753,29.7004,0.0,0.0
3256,813.75,55.7577,58.9733,146.864,104.504,3.92865,0.00630525,0.147389,20.8808,501.753,29.6381,0.0,0.0
3264,815.75,55.583,58.7842,146.406,104.569,3.96901,0.00625713,0.146776,20.882,501.713,29.5514,0.0,0.0
3272,817.75,55.1596,58.0714,148.618,104.593,3.89493,0.00623244,0.146491,20.8817,501.673,29.7236,0.0,0.0
3280,819.75,55.2798,58.1753,145.622,104.64,3.93814,0.00615893,0.146215,20.8811,501.663,29.6281,0.0,0.0
3288,821.75,54.6849,58.0776,145.065,104.663,3.93862,0.0060863,0.145721,20.8811,501.623,29.6289,0.0,0.0
3296,823.75,54.8154,57.4891,146.042,104.705,3.90538,0.00605443,0.145366,20.882,501.613,29.7091,0.0,0.0
3304,825.75,54.629,57.6491,148.619,104.73,3.92152,0.00604536,0.145023,20.8832,501.613,29.674,0.0,0.0
3312,827.75,54.1646,57.5728,146.372,104.752,3.90965,0.00604673,0.144712,20.8844,501.573,29.7033,0.0,0.0
3320,829.75,54.575,57.442,148.269,104.777,3.91867,0.00609705,0.144281,20.8849,501.543,29.6846,0.0,0.0
3328,831.75,54.3656,57.2786,144.443,104.802,3.88448,0.00613945,0.143906,20.8851,501.523,29.7659,0.0,0.0
3336,833.75,54.0214,56.5386,144.984,104.793,3.90348,0.00607406,0.143308,20.8852,501.533,29.7211,0.0,0.0
3344,835.75,54.0755,56.9714,146.932,104.818,3.91392,0.00603269,0.14302,20.8852,501.473,29.6991,0.0,0.0
3352,837.75,53.8345,56.5244,145.123,104.815,3.9163,0.00616858,0.142948,20.8852,501.483,29.6934,0.0,0.0
3360,839.75,53.1193,55.7754,145.182,104.824,3.90348,0.00637866,0.143343,20.8853,501.513,29.7238,0.0,0.0
3368,841.75,53.044,55.8018,144.055,104.844,3.91345,0.00648503,0.143166,20.8863,501.443,29.7024,0.0,0.0
3376,843.75,52.6623,55.1643,147.241,104.858,3.86834,0.00656526,0.142374,20.8873,501.463,29.8084,0.0,0.0
3384,845.75,52.7048,55.4145,143.074,104.859,3.86834,0.00667031,0.141732,20.8888,501.393,29.8085,0.0,0.0
3392,847.75,52.3337,54.783,146.506,104.864,3.90918,0.00671953,0.142023,20.8888,501.383,29.714,0.0,0.0
3400,849.75,52.1557,54.6024,146.351,104.879,3.92342,0.0066672,0.142084,20.8881,501.423,29.6824,0.0,0.0
3408,851.75,52.4879,54.8472,147.658,104.894,3.90823,0.00657511,0.142123,20.8878,501.363,29.7189,0.0,0.0
3416,853.75,51.8143,54.9207,144.703,104.898,3.89303,0.00654248,0.142098,20.8877,501.332,29.7544,0.0,0.0
3424,855.75,51.8948,54.3846,143.388,104.897,3.88163,0.00654281,0.14175,20.8876,501.302,29.7808,0.0,0.0
3432,857.75,51.5663,54.421,144.676,104.921,3.93292,0.00657784,0.141683,20.8876,501.262,29.6642,0.0,0.0
3440,859.75,51.8327,54.4687,146.483,104.912,3.87831,0.00665307,0.141975,20.8868,501.292,29.7898,0.0,0.0
3448,861.75,51.7209,54.4412,146.256,104.912,3.91203,0.0066688,0.14214,20.8859,501.182,29.7116,0.0,0.0
3456,863.75,51.537,54.2118,151.264,104.925,3.9125,0.00657143,0.141639,20.8855,501.162,29.7116,0.0,0.0
3464,865.75,51.1215,54.0241,151.701,104.924,3.88496,0.00658208,0.141002,20.8854,501.172,29.7753,0.0,0.0
3472,867.75,51.028,53.1488,146.869,104.93,3.84744,0.00670628,0.14042,20.8853,501.152,29.8635,0.0,0.0
3480,869.75,50.9135,53.9508,144.779,104.945,3.94432,0.00682031,0.14027,20.8853,501.082,29.6402,0.0,0.0
3488,871.75,51.0229,53.6764,148.26,104.922,3.90205,0.0068305,0.140452,20.8853,501.092,29.7355,0.0,0.0
3496,873.75,51.4575,53.1468,147.663,104.934,3.90015,0.00679078,0.140686,20.8853,501.102,29.741,0.0,0.0
3504,875.75,51.2726,53.6941,145.221,104.941,3.91298,0.00676328,0.140591,20.8853,501.072,29.7119,0.0,0.0
3512,877.75,51.2407,53.4542,145.665,104.954,3.9106,0.00678114,0.140142,20.8853,501.032,29.7185,0.0,0.0
3520,879.75,51.0469,53.3802,145.485,104.953,3.93102,0.00685797,0.139882,20.8853,501.012,29.6714,0.0,0.0
3528,881.75,50.9597,53.209,150.733,104.955,3.90253,0.00686858,0.139845,20.8853,500.992,29.7372,0.0,0.0
3536,883.75,51.3447,53.164,146.831,104.961,3.88543,0.00677301,0.140096,20.8866,500.982,29.7774,0.0,0.0
3544,885.75,51.1782,53.3696,145.29,104.957,4.00225,0.00671843,0.140675,20.8872,500.982,29.5095,0.0,0.0
3552,887.75,50.7694,53.1459,145.993,104.957,3.86786,0.00667508,0.140661,20.8878,500.942,29.8181,0.0,0.0
3560,889.75,50.6322,53.1329,149.005,104.956,3.9144,0.00658687,0.139962,20.889,500.902,29.7099,0.0,0.0
3568,891.75,51.2538,52.9832,144.945,104.966,3.87688,0.00659313,0.13948,20.8895,500.942,29.7978,0.0,0.0
3576,893.75,50.4706,53.0778,143.943,104.951,3.87356,0.00668888,0.139294,20.8897,500.922,29.8042,0.0,0.0
3584,895.75,50.6563,52.6654,146.918,104.954,3.89635,0.00680669,0.139603,20.8891,500.912,29.7514,0.0,0.0
3592,897.75,50.4008,52.6908,147.814,104.957,3.88068,0.00694145,0.139907,20.8896,500.842,29.7882,0.0,0.0
3600,899.75,50.7488,52.7208,146.287,104.956,3.85884,0.0069921,0.139995,20.8898,500.812,29.8391,0.0,0.0
3608,901.75,50.7256,52.2208,147.513,104.971,3.88116,0.00695143,0.139778,20.8898,500.792,29.7882,0.0,0.0
3616,903.75,50.5283,52.446,145.922,104.96,3.91772,0.00681096,0.139509,20.8899,500.802,29.7026,0.0,0.0
3624,905.75,50.6605,52.6489,148.157,104.971,3.94527,0.00676174,0.139139,20.8899,500.762,29.6403,0.0,0.0
3632,907.75,50.5796,52.0305,147.851,104.948,3.88971,0.00678752,0.138942,20.8899,500.762,29.7664,0.0,0.0
3640,909.75,50.3985,52.7429,147.359,104.959,3.84554,0.00677589,0.139046,20.8899,500.752,29.8705,0.0,0.0
3648,911.75,50.3326,52.6993,141.447,104.957,3.90728,0.0067769,0.139192,20.8899,500.712,29.7265,0.0,0.0
3656,913.75,50.5579,52.694,146.655,104.943,3.87783,0.00681204,0.139307,20.8899,500.682,29.7936,0.0,0.0
3664,915.75,50.2274,52.2517,148.339,104.934,3.87214,0.00677853,0.139074,20.8899,500.702,29.806,0.0,0.0
3672,917.75,50.0766,52.268,146.296,104.92,3.88211,0.00679277,0.138871,20.8899,500.692,29.7816,0.0,0.0
3680,919.75,50.2471,52.2876,144.978,104.914,3.8973,0.0068128,0.139057,20.8899,500.642,29.7458,0.0,0.0
3688,921.75,50.4087,52.3162,144.752,104.914,3.85789,0.00685089,0.139424,20.8899,500.602,29.8376,0.0,0.0
3696,923.75,50.071,51.8578,146.391,104.904,3.87973,0.00683423,0.139471,20.8899,500.592,29.7858,0.0,0.0
3704,925.75,49.8562,51.9386,147.265,104.906,3.81753,0.00674616,0.138818,20.8899,500.572,29.932,0.0,0.0
3712,927.75,50.4005,52.5322,147.525,104.887,3.85124,0.00669166,0.138565,20.8901,500.572,29.8509,0.0,0.0
3720,929.75,50.2422,52.1174,149.095,104.879,3.89683,0.00669134,0.138718,20.8904,500.552,29.7439,0.0,0.0
3728,931.75,49.7309,52.1633,147.738,104.872,3.9049,0.0067113,0.13867,20.8905,500.522,29.7246,0.0,0.0
3736,933.75,49.8232,52.1346,145.916,104.859,3.87498,0.00679129,0.138557,20.8905,500.502,29.793,0.0,0.0
3744,935.75,49.8725,51.7022,147.92,104.848,3.88448,0.00696365,0.138214,20.8905,500.472,29.7699,0.0,0.0
3752,937.75,50.0833,52.0133,148.909,104.836,3.81373,0.00715826,0.137942,20.8919,500.462,29.935,0.0,0.0
3760,939.75,50.0488,52.1532,151.857,104.814,3.86644,0.00726271,0.138017,20.8925,500.432,29.8091,0.0,0.0
3768,941.75,50.1455,52.167,148.582,104.806,3.82607,0.00722271,0.138015,20.8927,500.412,29.9032,0.0,0.0
3776,943.75,49.8391,51.8211,145.51,104.796,3.87261,0.00704983,0.137944,20.8918,500.382,29.7931,0.0,0.0
3784,945.75,50.2825,52.2122,143.759,104.776,3.903,0.0068468,0.137893,20.8923,500.402,29.7208,0.0,0.0
3792,947.75,49.6059,52.1421,147.41,104.774,3.83794,,0.137349,,500.372,29.8724,0.0,0.0
3800,949.75,49.2123,51.6856,147.635,104.745,3.83652,,0.136742,,500.342,29.8732,0.0,0.0
3808,951.75,49.8283,51.5252,150.694,104.727,3.81325,,,,500.312,29.9266,0.0,0.0
3816,953.75,49.5185,51.6723,146.931,104.714,3.85124,,,,500.362,29.836,0.0,0.0
3824,955.75,49.8966,51.8845,146.363,104.705,3.9315,,,,500.332,29.6489,0.0,0.0
3832,957.75,49.5124,51.6086,142.817,104.689,3.86929,,,,500.292,29.7916,0.0,0.0
3834,958.25,49.6332,51.9183,148.17,104.676,3.83747,,,,500.292,29.8651,0.0,0.0