File: 01_Data/Pine_Siding/Cone/Pine_Siding_Cone_HF25Scan_221004_R2.csv
Names,Time,Stack TC,Smoke TC,Exh Press,Smoke Comp,Smoke Meas,CO Meter,CO2 Meter,O2 Meter,Sample Mass,Ext Coeff,Start Test,Flame Verif
Chan Gain,,500,500,1,1,1,1,1,1,1,1,1.0,1.0
Offset,,0,0,0.13918,0,0,0,0,0,0,0,0.0,0.0
Gain,,1,1,25.011,14.0162,15.5607,1,1,1,1.0009,1.02981,1.0,1.0
Units,sec,C,C,Pa,%,%,%,%,%,g,/m,,
Baseline,,21.7138,22.3699,162.22,103.698,4.18244,0.000648926,0.088725,20.9565,-2.54542,29.0028,,
11,2.5,19.9746,20.7261,160.948,104.735,4.2093,0.000579211,0.100382,20.9423,560.906,29.0347,0.0,0.0
22,5.25,19.4794,20.1218,162.788,104.866,4.21974,0.000527308,0.0993969,20.942,560.886,29.0236,0.0,0.0
33,8,20.3486,20.7569,156.073,104.978,4.17986,0.000516353,0.0980164,20.9443,560.836,29.1191,0.0,0.0
44,10.75,19.9792,20.6411,163.05,105.113,4.19315,0.000437735,0.0965407,20.9462,560.826,29.102,0.0,0.0
55,13.5,19.818,20.8685,162.192,105.186,4.20502,0.000307403,0.0946947,20.9492,560.796,29.0827,0.0,0.0
66,16.25,19.9859,20.7722,158.484,105.25,4.22687,0.000222559,0.092422,20.9525,560.776,29.0414,0.0,0.0
77,19,20.1306,21.0109,162.85,105.299,4.21879,0.000298369,0.090765,20.9543,560.716,29.0628,0.0,0.0
88,21.75,20.1968,20.8904,160.077,105.318,4.25773,0.000465886,0.089398,20.9561,560.716,28.9815,0.0,0.0
99,24.5,20.3951,20.3526,160.444,105.329,4.19505,0.000559502,0.0886636,20.9585,560.666,29.1164,0.0,0.0
110,27.25,20.5398,20.9829,162.848,105.313,4.23969,0.000584855,0.0880103,20.9594,560.636,29.0194,0.0,0.0
121,30,20.7681,20.9411,158.08,105.287,4.23352,0.000491444,0.0877713,20.9601,560.606,29.0304,0.0,0.0
132,32.75,20.3565,20.4825,156.671,105.234,4.20455,0.000556844,0.0880402,20.9615,560.576,29.0879,0.0,0.0
143,35.5,19.8353,20.9222,161.867,105.171,4.1808,0.000743819,0.0883838,20.9612,560.556,29.1336,0.0,0.0
154,38.25,20.429,21.0193,164.029,105.111,4.22402,0.000734009,0.0882399,20.961,560.536,29.0355,0.0,0.0
165,41,20.3856,20.9093,163.781,105.051,4.18983,0.000657332,0.0881313,20.9617,560.516,29.1038,0.0,0.0
176,43.75,19.9493,20.9906,165.68,104.97,4.17701,0.000565526,0.088064,20.962,560.476,29.1245,0.0,0.0
187,46.5,20.5676,21.9313,161.264,104.873,4.17178,0.000538406,0.0879698,20.9621,560.426,29.1275,0.0,0.0
198,49.25,20.3075,21.1801,161.08,104.769,4.1224,0.0005991,0.0879235,20.9621,560.396,29.2261,0.0,0.0
209,52,20.4672,21.3413,160.784,104.679,4.10388,0.000654976,0.0882235,20.9621,560.356,29.259,0.0,0.0
220,54.75,20.3874,21.272,164.765,104.602,4.16228,0.000634967,0.0884566,20.9609,560.316,29.1247,0.0,0.0
231,57.5,20.8605,21.8949,159.713,104.535,4.20075,0.00100619,0.0961478,20.9501,560.236,29.0358,0.0,1.0
242,60.25,20.6455,21.2765,154.515,104.47,4.404,0.00187117,0.142015,20.8868,559.985,28.6033,0.0,1.0
253,63,22.174,22.1953,147.942,104.434,4.57828,0.00274239,0.240084,20.7816,559.775,28.2497,0.0,1.0
264,65.75,24.5411,23.9755,141.384,104.58,4.65948,0.00352164,0.340702,20.6517,559.415,28.1035,0.0,1.0
275,68.5,27.0564,26.3004,139.193,104.719,4.84801,0.00417629,0.433584,20.5327,559.005,27.7572,0.0,0.0
286,71.25,29.5704,28.6989,144.717,104.814,4.61532,0.00457544,0.483932,20.4725,558.654,28.2097,0.0,0.0
297,74,31.4292,30.487,140.415,104.903,4.64096,0.00462977,0.488769,20.4645,558.274,28.1673,0.0,0.0
308,76.75,33.5056,32.9628,138.486,104.942,4.61009,0.00462457,0.471198,20.4787,557.974,28.231,0.0,0.0
319,79.5,34.55,33.4143,144.916,104.989,4.54741,0.00446899,0.443579,20.5124,557.673,28.3586,0.0,0.0
330,82.25,34.4242,34.1635,150.009,104.989,4.54978,0.00428492,0.41501,20.5551,557.373,28.3539,0.0,0.0
341,85,36.0432,35.7021,147.1,104.957,4.47333,0.00406485,0.394058,20.5825,557.073,28.5043,0.0,0.0
352,87.75,36.5036,36.7398,151.899,104.9,4.46146,0.00383444,0.377629,20.6021,556.843,28.5233,0.0,0.0
363,90.5,36.8124,36.9932,147.706,104.822,4.40305,0.00337214,0.363973,20.6185,556.592,28.6357,0.0,0.0
374,93.25,36.6311,37.3334,149.501,104.71,4.45576,0.0030235,0.350771,20.6361,556.332,28.5185,0.0,0.0
385,96,37.0428,37.8404,149.511,104.576,4.5042,0.00291721,0.336321,20.655,556.102,28.4093,0.0,0.0
396,98.75,37.5599,38.5259,150.498,104.428,4.44199,0.00285564,0.324863,20.6677,555.882,28.5222,0.0,0.0
407,101.5,37.2031,39.0467,145.358,104.228,4.42916,0.0026845,0.315815,20.6801,555.672,28.5309,0.0,0.0
418,104.25,37.4485,38.8114,152.973,104.094,4.43676,0.00262255,0.305432,20.693,555.441,28.5039,0.0,0.0
429,107,37.4375,39.0003,152.479,104.113,4.43059,0.00263021,0.29675,20.7052,555.271,28.5181,0.0,0.0
440,109.75,37.4685,39.3832,151.742,104.131,4.37218,0.00263605,0.289959,20.7141,555.041,28.6395,0.0,0.0
451,112.5,37.4228,39.357,149.543,104.157,4.45908,0.00259639,0.285102,20.7192,554.881,28.464,0.0,0.0
462,115.25,37.6578,39.611,155.167,104.199,4.41872,0.00243021,0.279324,20.7261,554.671,28.5498,0.0,0.0
473,118,37.3167,39.3734,153.603,104.252,4.41302,0.00220406,0.273032,20.7354,554.531,28.566,0.0,0.0
484,120.75,37.3129,39.4039,149.334,104.301,4.38168,0.00206,0.266947,20.7422,554.32,28.6346,0.0,0.0
495,123.5,37.1487,39.2683,151.74,104.339,4.47238,0.00203638,0.261889,20.7486,554.14,28.4528,0.0,0.0
506,126.25,37.1545,39.5604,150.632,104.379,4.47665,0.00212673,0.258074,20.7533,553.99,28.4477,0.0,0.0
517,129,36.8673,39.3513,149.775,104.422,4.42252,0.00213088,0.254577,20.7575,553.8,28.5613,0.0,0.0
528,131.75,36.8291,39.2566,155.505,104.468,4.45623,0.00219782,0.252421,20.7606,553.65,28.4967,0.0,0.0
539,134.5,36.5605,39.257,153.877,104.481,4.42442,0.00228288,0.250419,20.7624,553.46,28.5625,0.0,0.0
550,137.25,36.3799,39.1112,149.738,104.511,4.43391,0.00233988,0.247028,20.7664,553.329,28.5457,0.0,0.0
561,140,36.4776,39.0401,152.924,104.525,4.4757,0.00252101,0.244445,20.7694,553.179,28.4622,0.0,0.0
572,142.75,35.8588,38.5536,152.533,104.554,4.42062,0.00248016,0.242441,20.7707,553.019,28.5766,0.0,0.0
583,145.5,35.8219,38.9275,150.017,104.573,4.38548,0.00229781,0.240857,20.7724,552.829,28.6504,0.0,0.0
594,148.25,35.5227,38.7769,157.182,104.577,4.45528,0.00223233,0.239455,20.7737,552.679,28.508,0.0,0.0
605,151,35.8838,38.3999,154.05,104.567,4.49422,0.00226149,0.237698,20.7768,552.549,28.4285,0.0,0.0
616,153.75,35.5517,38.3518,150.734,104.58,4.45766,0.00229753,0.235766,20.7799,552.369,28.5034,0.0,0.0
627,156.5,35.2704,38.2537,152.682,104.59,4.44769,0.00234484,0.234334,20.7816,552.218,28.5245,0.0,0.0
638,159.25,35.3211,38.0684,153.074,104.577,4.44484,0.0024761,0.233254,20.7833,552.108,28.5292,0.0,0.0
649,162,35.1714,37.9967,153.873,104.573,4.46953,0.00267389,0.231893,20.7854,551.928,28.4788,0.0,0.0
660,164.75,35.338,37.9942,151.171,104.562,4.45433,0.00273534,0.231227,20.7863,551.788,28.5086,0.0,0.0
671,167.5,34.8285,38.1832,151.29,104.558,4.4078,0.00269285,0.229988,20.7866,551.608,28.6032,0.0,0.0
682,170.25,34.9742,37.8971,157.404,104.549,4.45671,0.00259731,0.228764,20.7889,551.508,28.5027,0.0,0.0
693,173,34.8481,37.6338,156.169,104.535,4.44484,0.00260558,0.227779,20.7902,551.358,28.5256,0.0,0.0
704,175.75,34.7287,37.6089,153.472,104.503,4.44721,0.00266139,0.226528,20.7914,551.208,28.518,0.0,0.0
715,178.5,35.1444,37.7757,155.884,104.456,4.43771,0.00276956,0.226233,20.7918,551.047,28.5332,0.0,0.0
726,181.25,34.4234,37.5583,155.943,104.447,4.47665,0.00290035,0.225795,20.7934,550.927,28.4536,0.0,0.0
737,184,34.418,37.1452,152.885,104.419,4.46478,0.00293153,0.224369,20.7945,550.787,28.4752,0.0,0.0
748,186.75,34.442,37.2885,156.029,104.376,4.51322,0.0028647,0.223299,20.7959,550.597,28.3739,0.0,0.0
759,189.5,34.1691,36.8608,152.064,104.338,4.50467,0.00282911,0.222334,20.7974,550.487,28.3877,0.0,0.0
770,192.25,34.6181,37.2132,152.673,104.276,4.46715,0.00292185,0.220719,20.7984,550.277,28.4579,0.0,0.0
781,195,33.8995,37.2481,152.941,104.218,4.43961,0.00307136,0.219571,20.8,550.177,28.5088,0.0,0.0
792,197.75,33.9149,36.6762,153.464,104.182,4.45766,0.00314079,0.219329,20.8007,550.006,28.469,0.0,0.0
803,200.5,34.2768,37.0506,153.229,104.135,4.46668,0.00315843,0.217705,20.8026,549.906,28.4467,0.0,0.0
814,203.25,34.4631,36.9824,151.867,104.099,4.51844,0.00323923,0.2169,20.8032,549.756,28.3395,0.0,0.0
825,206,34.2618,37.1043,153.643,104.085,4.4757,0.00336804,0.216199,20.8047,549.586,28.4241,0.0,0.0
836,208.75,34.4519,35.4653,153.723,104.263,4.44009,0.00332257,0.215595,20.8054,549.466,28.5117,0.0,0.0
847,211.5,34.207,36.6551,153.718,104.464,4.47808,0.00309686,0.214513,20.8059,549.286,28.4521,0.0,0.0
858,214.25,33.9899,36.5073,152.248,104.663,4.50989,0.00311414,0.213792,20.8074,549.196,28.4054,0.0,0.0
869,217,33.8629,36.4225,154.27,104.794,4.4757,0.00332683,0.213294,20.8081,548.995,28.4855,0.0,0.0
880,219.75,33.8569,36.4927,155.107,104.921,4.52746,0.00352153,0.212131,20.8091,548.925,28.3925,0.0,0.0
891,222.5,33.8815,36.604,152.299,104.974,4.51322,0.00362853,0.212205,20.8102,548.795,28.4255,0.0,0.0
902,225.25,34.0257,36.7374,156.005,104.948,4.49042,0.00341489,0.211111,20.8118,548.615,28.4691,0.0,0.0
913,228,33.4334,36.1031,153.91,104.868,4.50562,0.00330708,0.210894,20.8127,548.485,28.4316,0.0,0.0
924,230.75,33.691,36.0252,154.193,104.723,4.50562,0.00332931,0.210416,20.8129,548.355,28.4191,0.0,0.0
935,233.5,33.7714,36.2356,158.57,104.503,4.48045,0.00341984,0.209057,20.8144,548.225,28.4507,0.0,0.0
946,236.25,34.3923,36.3273,158.636,104.474,4.47095,0.0035531,0.208169,20.8139,548.085,28.4674,0.0,0.0
957,239,33.7184,36.0555,153.977,104.592,4.4985,0.00353487,0.208119,20.8139,547.975,28.4221,0.0,0.0
968,241.75,33.6995,36.077,161.178,104.704,4.5023,0.0034818,0.206067,20.8175,547.854,28.4242,0.0,0.0
979,244.5,33.4849,35.9511,151.916,104.857,4.50087,0.00338019,0.205012,20.8199,547.704,28.4402,0.0,0.0
990,247.25,33.2531,35.8631,150.618,104.996,4.51749,0.00335003,0.207092,20.8179,547.554,28.4189,0.0,0.0
1001,250,33.7535,35.9978,152.735,105.108,4.53174,0.0034755,0.208055,20.8168,547.414,28.4001,0.0,0.0
1012,252.75,33.885,35.9062,151.862,105.243,4.53601,0.00362656,0.208318,20.8165,547.264,28.4032,0.0,0.0
1023,255.5,33.8137,36.5512,153.823,105.283,4.54266,0.0036436,0.208227,20.8164,547.094,28.3933,0.0,0.0
1034,258.25,33.5181,35.4591,159.122,105.319,4.50942,0.00377568,0.208423,20.8163,546.964,28.4628,0.0,0.0
1045,261,33.6369,36.007,153.509,105.28,4.58207,0.00386812,0.209329,20.8151,546.804,28.3151,0.0,0.0
1056,263.75,33.7849,36.2549,155.686,105.21,4.48567,0.0035747,0.209797,20.8143,546.703,28.5011,0.0,0.0
1067,266.5,32.6465,35.2449,153.284,105.064,4.56213,0.00330795,0.210066,20.8137,546.533,28.3359,0.0,0.0
1078,269.25,33.8004,36.2719,153.416,104.849,4.55928,0.00333777,0.210299,20.8135,546.433,28.323,0.0,0.0
1089,272,32.0006,35.7979,155.587,104.602,4.52366,0.00329688,0.210911,20.8122,546.283,28.3726,0.0,0.0
1100,274.75,33.7596,36.5585,153.965,104.34,4.44056,0.00312784,0.211215,20.8121,546.143,28.5174,0.0,0.0
1111,277.5,33.059,35.2599,155.524,104.028,4.51987,0.00304422,0.211382,20.8124,546.013,28.3305,0.0,0.0
1122,280.25,33.5658,35.6729,154.137,103.741,4.51464,0.00294844,0.212228,20.8113,545.853,28.316,0.0,0.0
1133,283,33.0095,35.4437,153.242,103.505,4.52936,0.00284524,0.212445,20.8113,545.723,28.266,0.0,0.0
1144,285.75,33.3817,33.7774,153.251,103.338,4.44056,0.0027298,0.212084,20.8112,545.552,28.4302,0.0,0.0
1155,288.5,33.4885,35.6406,154.967,103.243,4.5004,0.00273256,0.212525,20.811,545.462,28.3011,0.0,0.0
1166,291.25,33.3221,35.6178,156.098,103.252,4.48805,0.00289209,0.212774,20.8109,545.302,28.3266,0.0,0.0
1177,294,33.2356,35.5169,151.663,103.332,4.47285,0.00290243,0.211628,20.8123,545.172,28.3643,0.0,0.0
1188,296.75,33.311,35.6385,158.388,103.51,4.43819,0.00286405,0.210512,20.8137,545.002,28.4501,0.0,0.0
1199,299.5,33.3454,35.6488,153.418,103.755,4.42916,0.00303104,0.208762,20.8158,544.882,28.4899,0.0,0.0
1210,302.25,33.1967,35.5454,157.49,103.996,4.38975,0.00324259,0.207125,20.8172,544.732,28.5916,0.0,0.0
1221,305,33.0381,35.1177,156.026,104.226,4.51749,0.003402,0.207352,20.8165,544.591,28.3524,0.0,0.0
1232,307.75,33.2011,35.7218,152.657,104.415,4.50087,0.00338078,0.208431,20.8149,544.451,28.4021,0.0,0.0
1243,310.5,32.8389,35.4607,155.769,104.548,4.4776,0.00324383,0.208612,20.8138,544.331,28.4604,0.0,0.0
1254,313.25,33.0713,35.4951,156.346,104.615,4.53601,0.00320408,0.208493,20.8135,544.211,28.3491,0.0,0.0
1265,316,33.0089,35.3698,156.413,104.584,4.55121,0.00320642,0.20888,20.8134,544.111,28.3162,0.0,0.0
1276,318.75,32.7516,35.1639,158.996,104.465,4.49232,0.00348068,0.208139,20.8139,543.911,28.4236,0.0,0.0
1287,321.5,33.0173,34.8215,154.934,104.357,4.52794,0.00375812,0.207238,20.8145,543.801,28.3429,0.0,0.0
1298,324.25,33.0184,35.2314,162.051,104.236,4.4966,0.00379153,0.207062,20.8147,543.661,28.3951,0.0,0.0
1309,327,32.916,34.6321,152.521,104.105,4.52129,0.00383767,0.207211,20.8149,543.501,28.3343,0.0,0.0
1320,329.75,32.0673,35.5263,149.424,104.185,4.47903,0.00376919,0.206993,20.8164,543.38,28.4261,0.0,0.0
1331,332.5,32.8363,35.09,152.993,104.607,4.50372,0.00364666,0.206288,20.8184,543.24,28.4129,0.0,0.0
1342,335.25,33.3515,35.0743,155.625,104.869,4.53031,0.00341723,0.205847,20.819,543.07,28.3823,0.0,0.0
1353,338,32.441,34.8214,155.918,104.971,4.51132,0.00323831,0.205248,20.8189,543,28.4291,0.0,0.0
1364,340.75,32.7456,34.9591,155.864,104.896,4.54741,0.00327251,0.205674,20.8186,542.86,28.3506,0.0,0.0
1375,343.5,32.7285,34.8807,152.978,104.621,4.49707,0.00338873,0.204564,20.8185,542.73,28.4275,0.0,0.0
1386,346.25,32.8775,34.8931,152.39,104.505,4.52366,0.00340533,0.203974,20.8198,542.59,28.3642,0.0,0.0
1397,349,32.6267,34.9812,151.634,104.711,4.55453,0.00343839,0.20448,20.8205,542.43,28.3206,0.0,0.0
1408,351.75,32.6885,34.9441,156.649,104.945,4.54409,0.00342248,0.204705,20.8202,542.299,28.3615,0.0,0.0
1419,354.5,32.5659,34.6793,154.386,105.163,4.56403,0.00341918,0.206004,20.8188,542.169,28.3406,0.0,0.0
1430,357.25,32.9613,34.7777,150.887,105.285,4.56688,0.00344491,0.208825,20.8154,542.039,28.3455,0.0,0.0
1441,360,33.1274,35.4494,154.237,105.297,4.57448,0.00339901,0.211324,20.8128,541.929,28.3315,0.0,0.0
1452,362.75,32.6047,34.5415,155.531,105.2,4.54314,0.00326218,0.212322,20.8117,541.759,28.3853,0.0,0.0
1463,365.5,33.0385,34.8323,151.616,104.929,4.54836,0.00306152,0.212125,20.8121,541.629,28.3516,0.0,0.0
1474,368.25,32.8156,34.6682,155.179,104.561,4.53079,0.00305797,0.21155,20.8123,541.519,28.3549,0.0,0.0
1485,371,32.8369,34.8331,155.408,104.116,4.52556,0.00319901,0.210966,20.8134,541.369,28.3268,0.0,0.0
1496,373.75,32.4695,34.5338,156.645,103.724,4.51322,0.00330929,0.2097,20.8142,541.239,28.3173,0.0,0.0
1507,376.5,32.7635,34.9096,156.688,103.418,4.46668,0.00327997,0.208415,20.8157,541.048,28.3843,0.0,0.0
1518,379.25,32.565,34.8014,156.965,103.285,4.46478,0.00329212,0.208034,20.8154,540.968,28.3765,0.0,0.0
1529,382,32.4206,34.6244,162.999,103.316,4.46003,0.00333371,0.209541,20.8133,540.828,28.3888,0.0,0.0
1540,384.75,33.0049,35.1234,153.075,103.498,4.53934,0.00332879,0.209962,20.8126,540.708,28.2455,0.0,0.0
1551,387.5,32.988,34.698,152.971,103.835,4.51844,0.00315033,0.210714,20.8124,540.538,28.3165,0.0,0.0
1562,390.25,32.8905,34.6052,152.948,104.163,4.51559,0.00292637,0.210215,20.8131,540.398,28.3507,0.0,0.0
1573,393,32.811,34.9855,157.165,104.446,4.4947,0.00299496,0.209979,20.8142,540.308,28.4172,0.0,0.0
1584,395.75,32.7624,34.9655,152.997,104.596,4.53459,0.00321529,0.208714,20.8158,540.158,28.3503,0.0,0.0
1595,398.5,33.1148,34.9039,151.496,104.606,4.53554,0.00341196,0.207991,20.8166,540.037,28.3492,0.0,0.0
1606,401.25,32.746,34.5777,154.558,104.487,4.52699,0.00338258,0.207561,20.8172,539.877,28.356,0.0,0.0
1617,404,32.8283,34.63,153.294,104.281,4.49707,0.00333114,0.206995,20.8169,539.777,28.3981,0.0,0.0
1628,406.75,33.0388,34.7832,151.614,104.101,4.44436,0.00338666,0.207226,20.8168,539.597,28.489,0.0,0.0
1639,409.5,32.7329,34.7774,161.697,104.297,4.45053,0.00356464,0.206634,20.8168,539.467,28.4934,0.0,0.0
1650,412.25,32.4903,34.9635,152.773,104.786,4.50515,0.00361994,0.206858,20.8173,539.357,28.4256,0.0,0.0
1661,415,32.5959,34.5133,151.966,104.974,4.51417,0.00375712,0.206547,20.8181,539.237,28.4237,0.0,0.0
1672,417.75,32.7648,34.8765,153.524,104.812,4.55738,0.00388936,0.205491,20.8196,539.097,28.3236,0.0,0.0
1683,420.5,32.7497,34.6427,153.786,104.456,4.51987,0.00385812,0.204947,20.8193,539.007,28.3675,0.0,0.0
1694,423.25,32.9421,34.8333,155.663,104.695,4.53506,0.00384912,0.20545,20.8186,538.896,28.3579,0.0,0.0
1705,426,32.3581,35.0173,154.01,105.029,4.55976,0.00381052,0.205588,20.819,538.736,28.3376,0.0,0.0
1716,428.75,32.5361,34.687,151.952,105.268,4.51227,0.00366777,0.205407,20.8201,538.626,28.4527,0.0,0.0
1727,431.5,32.5458,34.5831,157.123,105.326,4.52984,0.00377869,0.204203,20.8221,538.456,28.4226,0.0,0.0
1738,434.25,32.7607,34.6105,157.588,105.178,4.52414,0.00390598,0.202485,20.824,538.286,28.4213,0.0,0.0
1749,437,32.6728,34.7158,155.547,104.782,4.51607,0.00382781,0.202877,20.8232,538.236,28.4033,0.0,0.0
1760,439.75,32.6864,34.6696,153.795,104.311,4.50182,0.00393148,0.203743,20.8216,538.106,28.3912,0.0,0.0
1771,442.5,32.6172,34.7862,151.401,103.803,4.47238,0.00407142,0.204174,20.8209,537.956,28.4064,0.0,0.0
1782,445.25,32.5522,34.6703,151.561,103.44,4.48093,0.00411714,0.205554,20.8196,537.895,28.3574,0.0,0.0
1793,448,32.6718,34.664,156.727,103.32,4.48567,0.00407186,0.205494,20.8187,537.745,28.3373,0.0,0.0
1804,450.75,32.827,34.6706,152.471,103.423,4.46193,0.00405549,0.204676,20.8196,537.615,28.3943,0.0,0.0
1815,453.5,32.704,34.5943,153.367,103.729,4.49185,0.00404884,0.204244,20.8203,537.475,28.3606,0.0,0.0
1826,456.25,32.9631,34.8035,153.573,104.098,4.4871,0.00398631,0.204433,20.8205,537.315,28.4022,0.0,0.0
1837,459,32.579,34.4063,157.549,104.414,4.47475,0.00393239,0.20299,20.8218,537.175,28.4546,0.0,0.0
1848,461.75,32.7822,34.578,156.66,104.603,4.53696,0.00378297,0.20209,20.8225,537.105,28.3461,0.0,0.0
1859,464.5,32.4336,34.82,150.039,104.647,4.50799,0.00372633,0.202249,20.8228,536.985,28.4078,0.0,0.0
1870,467.25,32.8401,34.6536,150.936,104.516,4.53126,0.00384167,0.203111,20.8226,536.885,28.35,0.0,0.0
1881,470,32.838,34.6711,154.593,104.295,4.45623,0.00394225,0.203455,20.8212,536.724,28.4817,0.0,0.0
1892,472.75,32.8146,34.7271,156.089,104.119,4.49802,0.00400276,0.20372,20.8208,536.594,28.3821,0.0,0.0
1903,475.5,32.7406,34.5664,157.457,104.058,4.50562,0.00418366,0.203912,20.8206,536.464,28.3616,0.0,0.0
1914,478.25,32.8509,34.6795,152.139,104.599,4.49945,0.00435953,0.203943,20.8206,536.344,28.4208,0.0,0.0
1925,481,32.9686,34.8464,159.497,104.871,4.52699,0.00442368,0.203863,20.8206,536.194,28.3892,0.0,0.0
1936,483.75,33.0079,34.4408,159.051,104.941,4.50799,0.00425183,0.203892,20.8206,536.124,28.4331,0.0,0.0
1947,486.5,32.7382,34.5101,156.108,104.773,4.49375,0.00399676,0.204685,20.8194,535.954,28.4473,0.0,0.0
1958,489.25,32.802,34.737,154.807,104.433,4.49185,0.00388885,0.204891,20.8186,535.834,28.4217,0.0,0.0
1969,492,32.7202,34.7151,156.696,104.569,4.52984,0.00385243,0.205433,20.8205,535.703,28.3574,0.0,0.0
1980,494.75,32.6325,35.0035,150.275,104.759,4.47475,0.0039328,0.20643,20.8198,535.613,28.4843,0.0,0.0
1991,497.5,33.047,35.1343,155.348,104.971,4.47523,0.00404095,0.206894,20.8201,535.463,28.5016,0.0,0.0
2002,500.25,32.8141,34.5169,156.564,105.156,4.53316,0.00423919,0.20724,20.8187,535.343,28.4013,0.0,0.0
2013,503,33.005,34.3766,154.083,105.268,4.52984,0.00425555,0.208709,20.817,535.203,28.4176,0.0,0.0
2024,505.75,32.6124,34.7379,159.047,105.316,4.54551,0.00412903,0.209644,20.8161,535.073,28.3905,0.0,0.0
2035,508.5,33.0763,35.132,152.97,105.291,4.51654,0.00409021,0.209415,20.8153,534.953,28.4461,0.0,0.0
2046,511.25,33.0875,34.9217,153.542,105.186,4.53316,0.00396029,0.209075,20.815,534.803,28.4039,0.0,0.0
2057,514,32.7598,34.3069,157.923,105.029,4.52604,0.00388281,0.209086,20.815,534.703,28.4047,0.0,0.0
2068,516.75,32.5454,35.0782,153.236,104.855,4.53411,0.00373585,0.209279,20.814,534.573,28.3736,0.0,0.0
2079,519.5,33.1018,35.0931,155.308,104.647,4.49042,0.00363438,0.2099,20.8128,534.442,28.4431,0.0,0.0
2090,522.25,32.6479,35.0758,153.694,104.412,4.46953,0.00372598,0.21138,20.8113,534.312,28.4649,0.0,0.0
2101,525,33.3952,34.2599,151.333,104.174,4.45196,0.00381717,0.211725,20.81,534.182,28.4799,0.0,0.0
2112,527.75,32.4714,34.2587,153.387,103.927,4.47808,0.00382711,0.211723,20.8094,534.072,28.4056,0.0,0.0
2123,530.5,32.9879,34.8806,157.828,103.756,4.44009,0.00405709,0.212329,20.8079,533.932,28.4677,0.0,0.0
2134,533.25,32.7024,35.2185,154.247,103.579,4.50752,0.00426041,0.213116,20.8055,533.822,28.3161,0.0,0.0
2145,536,33.0301,35.1549,152.504,103.462,4.43961,0.00430702,0.213489,20.8059,533.692,28.443,0.0,0.0
2156,538.75,32.5886,35.1274,154.593,103.39,4.47665,0.00423565,0.21359,20.8066,533.572,28.3617,0.0,0.0
2167,541.5,32.8464,34.6721,151.355,103.336,4.51037,0.00409521,0.213211,20.8071,533.421,28.2892,0.0,0.0
2178,544.25,33.2674,34.7868,156.289,103.342,4.404,0.00407238,0.213263,20.8072,533.291,28.5053,0.0,0.0
2189,547,32.9423,34.7902,149.118,103.38,4.45101,0.00384985,0.214173,20.8073,533.181,28.4127,0.0,0.0
2200,549.75,32.915,35.2585,154.836,103.44,4.43724,0.0037294,0.214425,20.8069,533.061,28.446,0.0,0.0
2211,552.5,33.1355,34.405,152.298,103.513,4.489,0.00371453,0.215231,20.8056,532.901,28.3475,0.0,0.0
2222,555.25,33.0142,35.2303,153.841,103.619,4.44816,0.00385823,0.215054,20.8065,532.791,28.4393,0.0,0.0
2233,558,33.0829,35.2569,152.048,103.731,4.45528,0.00401475,0.215642,20.8063,532.671,28.4347,0.0,0.0
2244,560.75,33.2644,35.179,157.847,103.841,4.4097,0.00399197,0.215635,20.8054,532.551,28.5372,0.0,0.0
2255,563.5,32.7166,35.6816,155.371,103.94,4.50609,0.00384907,0.216033,20.8046,532.401,28.3504,0.0,0.0
2266,566.25,33.0928,34.9,155.744,104.078,4.51132,0.00362319,0.216453,20.803,532.29,28.3519,0.0,0.0
2277,569,33.078,35.0694,155.558,104.198,4.46526,0.00349727,0.216409,20.8036,532.17,28.455,0.0,0.0
2288,571.75,33.0518,35.7497,153.273,104.297,4.47143,0.00355381,0.216481,20.8037,532.04,28.4511,0.0,0.0
2299,574.5,33.2579,35.4345,154.228,104.385,4.5004,0.00361435,0.216671,20.8027,531.9,28.4004,0.0,0.0
2310,577.25,33.2893,35.0422,154.285,104.465,4.49707,0.0036248,0.217895,20.8012,531.76,28.414,0.0,0.0
2321,580,33.8021,34.7879,151.869,104.526,4.50799,0.00354814,0.218448,20.8001,531.63,28.3974,0.0,0.0
2332,582.75,33.4756,35.1444,155.212,104.59,4.47618,0.00328383,0.219415,20.7984,531.51,28.4669,0.0,0.0
2343,585.5,33.7476,35.6361,152.578,104.627,4.46905,0.00308783,0.219828,20.7988,531.37,28.4844,0.0,0.0
2354,588.25,33.6993,35.5503,154.873,104.651,4.46146,0.00319546,0.220563,20.7982,531.25,28.5019,0.0,0.0
2365,591,33.4342,35.6045,156.43,104.655,4.49707,0.00333361,0.221195,20.7974,531.089,28.4304,0.0,0.0
2376,593.75,33.8601,35.1946,150.485,104.68,4.45671,0.00353182,0.221472,20.7963,530.969,28.5141,0.0,0.0
2387,596.5,33.5613,35.3331,159.467,104.639,4.43154,0.00357051,0.222203,20.7952,530.859,28.5616,0.0,0.0
2398,599.25,33.6187,35.5343,156.546,104.602,4.44246,0.00342601,0.222021,20.7949,530.739,28.5362,0.0,0.0
2409,602,33.4361,35.6767,153.602,104.554,4.48615,0.00329559,0.222555,20.7932,530.599,28.4437,0.0,0.0
2420,604.75,33.6909,35.4551,158.504,104.501,4.46715,0.00343186,0.223267,20.7926,530.489,28.4774,0.0,0.0
2431,607.5,33.312,35.861,154.399,104.452,4.50277,0.00358621,0.224145,20.7927,530.359,28.4014,0.0,0.0
2442,610.25,33.6708,35.7943,157.334,104.385,4.44863,0.00373753,0.224983,20.7934,530.219,28.5049,0.0,0.0
2453,613,33.9578,35.5601,153.619,104.307,4.45956,0.00367193,0.225003,20.7933,530.068,28.476,0.0,0.0
2464,615.75,33.6594,36.1044,154.415,104.242,4.40685,0.00362817,0.22478,20.7933,529.968,28.5778,0.0,0.0
2475,618.5,34.0098,35.7033,153.313,104.202,4.47475,0.00357279,0.225695,20.7915,529.818,28.4361,0.0,0.0
2486,621.25,33.6134,36.1932,152.387,104.169,4.42204,0.00354302,0.227051,20.7904,529.708,28.5404,0.0,0.0
2497,624,33.822,35.8404,154.315,104.121,4.42252,0.00349128,0.22756,20.7895,529.588,28.5352,0.0,0.0
2508,626.75,33.7947,36.3905,150.998,104.089,4.49802,0.00343207,0.22689,20.7901,529.478,28.3796,0.0,0.0
2519,629.5,34.2045,35.6688,155.54,104.054,4.46621,0.00343068,0.226046,20.7907,529.318,28.4406,0.0,0.0
2530,632.25,33.6798,36.2549,150.212,104.047,4.51179,0.00338772,0.226642,20.7903,529.158,28.3482,0.0,0.0
2541,635,34.5366,35.6908,152.134,104.022,4.46905,0.00332932,0.226521,20.7915,529.057,28.4321,0.0,0.0
2552,637.75,34.4528,35.4919,151.462,104.013,4.47665,0.00330593,0.227149,20.7909,528.907,28.4159,0.0,0.0
2563,640.5,34.0026,35.9998,153.283,104,4.49755,0.00350389,0.228742,20.7903,528.787,28.3728,0.0,0.0
2574,643.25,34.3716,35.7743,150.891,104.062,4.45338,0.00362773,0.229729,20.7895,528.687,28.4673,0.0,0.0
2585,646,34.0503,36.0683,153.638,104.11,4.47998,0.00359709,0.230113,20.7889,528.537,28.4176,0.0,0.0
2596,648.75,34.3798,35.9186,150.055,104.147,4.46241,0.00355404,0.230057,20.7887,528.397,28.4564,0.0,0.0
2607,651.5,34.4063,35.7581,150.669,104.181,4.53554,0.00348276,0.230475,20.7886,528.267,28.3125,0.0,0.0
2618,654.25,34.8154,35.896,149.163,104.216,4.49802,0.00328972,0.23083,20.7874,528.127,28.3905,0.0,0.0
2629,657,34.9038,36.4599,153.216,104.258,4.49327,0.00299252,0.231382,20.7849,528.007,28.4037,0.0,0.0
2640,659.75,34.4627,36.1584,150.444,104.293,4.49517,0.00294948,0.231653,20.784,527.886,28.4029,0.0,0.0
2651,662.5,33.4532,36.8373,152.464,104.342,4.55406,0.00319291,0.231994,20.7837,527.726,28.2896,0.0,0.0
2662,665.25,34.247,36.4785,150.204,104.37,4.53316,0.00327639,0.232849,20.7834,527.596,28.3336,0.0,0.0
2673,668,34.5544,36.4624,152.445,104.382,4.49232,0.003295,0.234101,20.7813,527.486,28.4164,0.0,0.0
2684,670.75,34.5766,36.1331,156.646,104.397,4.49802,0.00321192,0.235059,20.7799,527.356,28.4062,0.0,0.0
2695,673.5,34.9021,36.2861,151.303,104.401,4.55026,0.00305235,0.234726,20.7808,527.206,28.3023,0.0,0.0
2706,676.25,34.3853,36.7449,152.729,104.401,4.52082,0.00295595,0.235298,20.7813,527.076,28.3609,0.0,0.0
2717,679,34.4146,37.0791,151.771,104.391,4.53554,0.00295919,0.235302,20.7812,526.926,28.3306,0.0,0.0
2728,681.75,34.4343,36.4755,155.228,104.409,4.4738,0.00301859,0.235553,20.7809,526.795,28.4561,0.0,0.0
2739,684.5,34.3915,37.0785,154.728,104.436,4.45861,0.00321025,0.235945,20.7806,526.655,28.4891,0.0,0.0
2750,687.25,35.2005,36.2553,151.179,104.441,4.49565,0.00324256,0.237417,20.7783,526.535,28.4148,0.0,0.0
2761,690,34.6533,36.8137,153.528,104.455,4.4795,0.00307075,0.238805,20.7775,526.365,28.4485,0.0,0.0
2772,692.75,35.4092,36.4189,157.777,104.456,4.52366,0.00295459,0.23931,20.7771,526.235,28.3599,0.0,0.0
2783,695.5,35.2497,37.2027,151.552,104.459,4.4985,0.00264781,0.239693,20.7768,526.115,28.4107,0.0,0.0
2794,698.25,35.3688,36.359,152.79,104.485,4.46573,0.00260763,0.240639,20.7747,525.965,28.4789,0.0,0.0
2805,701,34.5824,36.8745,149.078,104.489,4.46621,0.00273742,0.242761,20.7731,525.845,28.4783,0.0,0.0
2816,703.75,35.59,37.4797,153.498,104.491,4.53221,0.00254927,0.244032,20.7713,525.664,28.346,0.0,0.0
2827,706.5,34.7766,37.4358,151.934,104.503,4.48235,0.00243737,0.245515,20.7696,525.564,28.4469,0.0,0.0
2838,709.25,35.0228,36.9703,148.678,104.507,4.55121,0.00225772,0.245034,20.7702,525.414,28.3095,0.0,0.0
2849,712,35.6355,37.7969,150.149,104.514,4.49992,0.00221843,0.244543,20.7704,525.274,28.4125,0.0,0.0
2860,714.75,35.2323,37.9799,151.092,104.494,4.50182,0.00221319,0.245115,20.7705,525.154,28.407,0.0,0.0
2871,717.5,35.1105,37.7838,149.876,104.465,4.50752,0.00242443,0.246132,20.7697,524.974,28.3931,0.0,0.0
2882,720.25,35.464,37.5033,149.73,104.447,4.4985,0.00272448,0.24787,20.7667,524.904,28.4096,0.0,0.0
2893,723,36.0156,37.8403,152.343,104.451,4.49375,0.00291411,0.248673,20.7651,524.734,28.4195,0.0,0.0
2904,725.75,35.5366,37.9133,156.285,104.451,4.49707,0.00299531,0.24859,20.764,524.563,28.4128,0.0,0.0
2915,728.5,35.9034,37.6969,147.805,104.446,4.51084,0.0030101,0.248624,20.7637,524.403,28.3848,0.0,0.0
2926,731.25,36.1641,38.214,151.176,104.444,4.54266,0.00297659,0.248767,20.7636,524.273,28.3211,0.0,0.0
2937,734,36.2678,37.4619,155.08,104.436,4.54266,0.00292262,0.249355,20.7635,524.153,28.3204,0.0,0.0
2948,736.75,35.7241,38.0077,148.537,104.421,4.54361,0.00284568,0.249833,20.7634,523.983,28.3172,0.0,0.0
2959,739.5,36.3484,37.8187,150.434,104.374,4.49185,0.00294428,0.250073,20.7615,523.843,28.4167,0.0,0.0
2970,742.25,36.0166,38.3251,150.205,104.329,4.50325,0.00306553,0.251096,20.76,523.703,28.3899,0.0,0.0
2981,745,35.8185,37.9617,150.69,104.267,4.50372,0.00290953,0.252864,20.7587,523.553,28.3836,0.0,0.0
2992,747.75,36.2559,38.2086,151.356,104.205,4.51417,0.00259208,0.254208,20.7578,523.402,28.3572,0.0,0.0
3003,750.5,36.4864,38.1432,154.634,104.122,4.51322,0.00246199,0.254182,20.7574,523.252,28.352,0.0,0.0
3014,753.25,36.154,38.2635,149.735,104.054,4.53791,0.00239058,0.254562,20.7565,523.112,28.2967,0.0,0.0
3025,756,36.803,37.883,150.6,104.005,4.57258,0.00237511,0.255137,20.757,522.932,28.2238,0.0,0.0
3036,758.75,36.3851,38.3629,149.45,104.007,4.50609,0.00240302,0.255551,20.7555,522.772,28.3562,0.0,0.0
3047,761.5,36.8269,38.5563,153.792,104.029,4.54029,0.00253345,0.255583,20.7549,522.662,28.2899,0.0,0.0
3058,764.25,36.4709,38.4515,151.323,104.06,4.51464,0.00270235,0.258722,20.7511,522.492,28.3437,0.0,0.0
3069,767,36.7632,38.5553,155.457,104.086,4.50894,0.00267266,0.26044,20.7489,522.331,28.3574,0.0,0.0
3080,769.75,36.404,38.9652,151.958,104.131,4.55453,0.00243906,0.260216,20.7493,522.181,28.2704,0.0,0.0
3091,772.5,36.7475,38.3665,152.202,104.15,4.55928,0.00229047,0.260393,20.7482,522.021,28.2626,0.0,0.0
3102,775.25,36.6766,39.082,151.847,104.206,4.51037,0.00230667,0.262185,20.7465,521.861,28.3649,0.0,0.0
3113,778,36.7914,38.8639,148.573,104.239,4.51227,0.00239751,0.263899,20.7452,521.721,28.364,0.0,0.0
3124,780.75,36.7577,39.0571,157.32,104.274,4.53649,0.00237213,0.263777,20.7443,521.571,28.3187,0.0,0.0
3135,783.5,36.3693,39.7119,152.885,104.308,4.48473,0.00236692,0.265504,20.7427,521.411,28.4253,0.0,0.0
3146,786.25,36.9683,38.9241,152.416,104.361,4.51274,0.00250423,0.266955,20.7418,521.25,28.3736,0.0,0.0
3157,789,36.7715,39.6568,152.706,104.412,4.49992,0.00252907,0.267096,20.7416,521.08,28.4037,0.0,0.0
3168,791.75,36.9069,39.5474,148.814,104.436,4.55833,0.00255034,0.266913,20.7419,520.92,28.2893,0.0,0.0
3179,794.5,37.1374,39.5791,157.611,104.474,4.52414,0.00266426,0.267717,20.7417,520.77,28.3606,0.0,0.0
3190,797.25,37.3337,39.7853,151.804,104.496,4.58397,0.0026867,0.26921,20.7401,520.6,28.2438,0.0,0.0
3201,800,37.2971,39.7489,152.173,104.538,4.54788,0.00262296,0.26933,20.738,520.45,28.3188,0.0,0.0
3212,802.75,37.7341,39.62,152.651,104.556,4.54171,0.00251929,0.271281,20.7358,520.28,28.3326,0.0,0.0
3223,805.5,37.6214,39.4658,146.674,104.579,4.54361,0.00253738,0.272911,20.7345,520.109,28.3309,0.0,0.0
3234,808.25,37.6506,39.8348,151.721,104.598,4.60012,0.00270357,0.273619,20.7324,519.959,28.2209,0.0,0.0
3245,811,37.8486,40.01,149.719,104.602,4.50657,0.00270734,0.275361,20.7302,519.769,28.4068,0.0,0.0
3256,813.75,37.9266,39.9225,149.191,104.643,4.53459,0.00265395,0.277423,20.7295,519.599,28.3543,0.0,0.0
3267,816.5,38.1234,39.9446,148.927,104.648,4.58967,0.00272698,0.278706,20.7277,519.409,28.2457,0.0,0.0
3278,819.25,37.9927,40.4176,156.164,104.651,4.59775,0.00270909,0.280052,20.7266,519.239,28.2301,0.0,0.0
3289,822,38.2115,40.0951,148.272,104.654,4.59157,0.00263663,0.280972,20.7262,519.109,28.2425,0.0,0.0
3300,824.75,38.4706,40.3002,150.878,104.661,4.5892,0.00265408,0.281146,20.7261,518.948,28.2477,0.0,0.0
3311,827.5,38.5297,40.1849,154.787,104.675,4.53981,0.0026166,0.281632,20.7247,518.748,28.3468,0.0,0.0
3322,830.25,38.3949,40.533,150.463,104.666,4.54361,0.00250724,0.282301,20.7236,518.578,28.3384,0.0,0.0
3333,833,38.3296,40.9072,152.464,104.663,4.56878,0.00267845,0.284228,20.7215,518.388,28.2882,0.0,0.0
3344,835.75,38.0325,40.8875,150.761,104.634,4.57258,0.00295118,0.285135,20.7193,518.218,28.2782,0.0,0.0
3355,838.5,39.054,40.5296,150.839,104.64,4.57353,0.00298191,0.286566,20.72,518.008,28.2768,0.0,0.0
3366,841.25,38.3619,41.0372,149.584,104.628,4.54361,0.00284103,0.287644,20.721,517.817,28.3351,0.0,0.0
3377,844,38.646,41.3657,150.907,104.58,4.52604,0.00273675,0.28768,20.7213,517.667,28.3659,0.0,0.0
3388,846.75,39.1537,40.7305,152.845,104.543,4.55073,0.00266298,0.287661,20.7214,517.497,28.3136,0.0,0.0
3399,849.5,39.2037,41.1006,148.29,104.49,4.52177,0.00236369,0.28841,20.7214,517.317,28.3667,0.0,0.0
3410,852.25,39.0226,41.2905,153.067,104.457,4.51939,0.00210822,0.287881,20.721,517.117,28.3686,0.0,0.0
3421,855,39.0592,41.4387,156.962,104.405,4.489,0.00213525,0.290194,20.7184,516.947,28.4251,0.0,0.0
3432,857.75,39.4881,41.261,152.945,104.344,4.55596,0.00238072,0.291427,20.7168,516.746,28.2861,0.0,0.0
3443,860.5,38.8729,41.3555,148.123,104.275,4.53506,0.00283334,0.292483,20.7148,516.556,28.3216,0.0,0.0
3454,863.25,38.9051,41.2224,150.388,104.212,4.54646,0.00303664,0.295026,20.7109,516.376,28.2935,0.0,0.0
3465,866,39.7989,41.4671,153.872,104.14,4.55643,0.00290356,0.296172,20.7081,516.196,28.2674,0.0,0.0
3476,868.75,40.0128,41.5959,150.024,104.05,4.59252,0.00269082,0.29732,20.7065,515.966,28.1883,0.0,0.0
3487,871.5,39.3196,41.6152,147.403,103.952,4.57258,0.00258616,0.29722,20.706,515.826,28.2191,0.0,0.0
3498,874.25,39.8015,42.0543,147.454,103.859,4.53174,0.0025791,0.298117,20.7057,515.615,28.2921,0.0,0.0
3509,877,39.8349,42.3392,150.633,103.773,4.51987,0.00280477,0.299619,20.7042,515.455,28.3083,0.0,0.0
3520,879.75,40.1355,42.2124,145.577,103.694,4.50087,0.00276948,0.300352,20.7037,515.265,28.3395,0.0,0.0
3531,882.5,39.9041,42.3042,150.435,103.623,4.4928,0.00251081,0.300699,20.7031,515.045,28.3495,0.0,0.0
3542,885.25,40.3886,42.5513,149.607,103.539,4.50942,0.00235942,0.301452,20.7011,514.845,28.3088,0.0,0.0
3553,888,40.1571,42.6622,148.67,103.466,4.51369,0.00243211,0.303877,20.6992,514.665,28.2939,0.0,0.0
3564,890.75,39.9965,42.7532,150.139,103.435,4.51037,0.00264818,0.305586,20.6981,514.484,28.2978,0.0,0.0
3575,893.5,40.3766,42.7623,155.614,103.395,4.51417,0.0026604,0.305675,20.6977,514.284,28.2867,0.0,0.0
3586,896.25,40.5493,42.6344,153.066,103.353,4.55596,0.00254823,0.304998,20.6976,514.084,28.1998,0.0,0.0
3597,899,40.8,42.7523,145.916,103.345,4.56688,0.00239408,0.306282,20.696,513.874,28.1775,0.0,0.0
3608,901.75,40.5732,43.0077,154.973,103.334,4.52272,0.00230393,0.306998,20.694,513.704,28.2643,0.0,0.0
3619,904.5,40.7955,42.4845,149.893,103.361,4.52651,0.00229697,0.308741,20.6921,513.483,28.2591,0.0,0.0
3630,907.25,40.4624,43.2611,153.364,103.394,4.52889,0.00246184,0.310607,20.6909,513.323,28.2573,0.0,0.0
3641,910,40.8749,43.3102,158.349,103.434,4.55406,0.0026896,0.310584,20.6904,513.113,28.2106,0.0,0.0
3652,912.75,40.6624,43.2854,150.195,103.507,4.5987,0.00278616,0.310338,20.6903,512.893,28.1289,0.0,0.0
3663,915.5,40.987,43.3626,156.518,103.575,4.56308,0.00287455,0.310274,20.6896,512.693,28.2051,0.0,0.0
3674,918.25,41.2419,43.3465,151.661,103.693,4.57258,0.00285616,0.310021,20.6885,512.523,28.1966,0.0,0.0
3685,921,41.0112,43.6541,149.442,103.821,4.58065,0.00273588,0.309776,20.6889,512.302,28.1918,0.0,0.0
3696,923.75,41.2695,43.6653,153.432,103.927,4.51654,0.00273507,0.309126,20.6898,512.122,28.3283,0.0,0.0
3707,926.5,41.1193,43.5169,149.363,104.048,4.57543,0.00284037,0.308542,20.6901,511.922,28.2219,0.0,0.0
3718,929.25,41.3159,43.676,145.906,104.184,4.57875,0.00293701,0.309026,20.6904,511.722,28.2271,0.0,0.0
3729,932,41.2935,43.5599,151.548,104.31,4.54503,0.00289931,0.309425,20.6918,511.542,28.3047,0.0,0.0
3740,934.75,41.2546,43.75,151.71,104.461,4.51559,0.00301121,0.307732,20.6949,511.362,28.3766,0.0,0.0
3751,937.5,41.1959,43.8548,147.234,104.57,4.59537,0.00313979,0.305605,20.6972,511.161,28.2278,0.0,0.0
3762,940.25,41.2321,43.9563,147.007,104.689,4.61009,0.00322041,0.308072,20.6944,510.961,28.2092,0.0,0.0
3773,943,41.4584,43.79,155.665,104.815,4.63716,0.00331269,0.313569,20.6877,510.771,28.1672,0.0,0.0
3784,945.75,41.4276,43.8944,146.232,104.927,4.61152,0.0030641,0.313357,20.6882,510.571,28.2269,0.0,0.0
3795,948.5,41.2245,43.9577,151.058,105.029,4.56308,0.00288579,0.308249,20.6935,510.361,28.331,0.0,0.0
3806,951.25,41.6095,44.1769,151.191,105.12,4.55501,0.00285687,0.305443,20.6966,510.18,28.3549,0.0,0.0
3817,954,41.3725,44.037,149.401,105.197,4.5664,0.00270642,0.302185,20.7002,510.03,28.3389,0.0,0.0
3828,956.75,41.3769,43.7547,150.54,105.252,4.59727,0.00256837,0.299621,20.7027,509.83,28.2827,0.0,0.0
3839,959.5,41.4441,43.8589,154.529,105.3,4.60392,0.00288619,0.298247,20.7053,509.67,28.2738,0.0,0.0
3850,962.25,41.5196,43.753,149.189,105.32,4.55168,0.00307026,0.294995,20.7087,509.47,28.3786,0.0,0.0
3861,965,41.312,43.5606,154.805,105.326,4.66755,0.0028699,0.293704,20.7099,509.25,28.1521,0.0,0.0
3872,967.75,41.1712,43.8659,147.774,105.315,4.59062,0.0027842,0.294108,20.7103,509.12,28.3013,0.0,0.0
3883,970.5,40.8709,43.7624,147.847,105.279,4.56973,0.0028308,0.291879,20.7122,508.949,28.3394,0.0,0.0
3894,973.25,41.1804,43.5631,155.546,105.22,4.55976,0.0030236,0.289121,20.7142,508.759,28.3541,0.0,0.0
3905,976,40.8375,43.708,148.982,105.129,4.62766,0.00343411,0.286105,20.7179,508.599,28.2127,0.0,0.0
3916,978.75,41.0157,43.6483,149.004,105.024,4.64428,0.00376792,0.284414,20.7201,508.439,28.1713,0.0,0.0
3927,981.5,40.654,43.4212,146.825,104.926,4.61532,0.00404572,0.283826,20.7207,508.259,28.2194,0.0,0.0
3938,984.25,40.8178,43.2904,150.539,104.815,4.63526,0.00438378,0.283746,20.7209,508.149,28.1709,0.0,0.0
3949,987,40.5522,43.1739,146.883,104.702,4.6761,0.00465385,0.281625,20.7222,507.958,28.0818,0.0,0.0
3960,989.75,40.5606,43.2522,153.546,104.592,4.51892,0.00490527,0.277309,20.7272,507.818,28.3813,0.0,0.0
3971,992.5,40.5494,43.1741,155.002,104.495,4.58207,0.00506901,0.271792,20.7348,507.658,28.2475,0.0,0.0
3982,995.25,40.3682,42.9145,150.645,104.435,4.53934,0.00490294,0.266523,20.7405,507.508,28.3269,0.0,0.0
3993,998,40.0958,42.6963,151.045,104.552,4.52224,0.00479827,0.260959,20.7481,507.358,28.3711,0.0,0.0
4004,1000.75,40.0488,42.331,152.435,104.73,4.53079,0.00478337,0.255397,20.7522,507.238,28.3694,0.0,0.0
4015,1003.5,39.8714,42.3697,154.771,104.812,4.52556,0.00469604,0.251377,20.7569,507.118,28.3869,0.0,0.0
4026,1006.25,39.4048,42.9496,154.802,104.893,4.53839,0.00462858,0.247261,20.7615,506.998,28.3684,0.0,0.0
4037,1009,39.4617,41.8077,152.109,104.931,4.53554,0.00476844,0.243848,20.7657,506.857,28.3773,0.0,0.0
4048,1011.75,38.8478,41.6665,149.897,104.918,4.55596,0.00509206,0.241847,20.768,506.717,28.3356,0.0,0.0
4059,1014.5,39.0507,41.2367,153.121,104.863,4.51987,0.00553262,0.240425,20.7688,506.587,28.4027,0.0,0.0
4070,1017.25,38.6327,41.3243,156.931,104.766,4.55311,0.00601245,0.238256,20.7719,506.477,28.3282,0.0,0.0
4081,1020,38.1835,41.1098,155.85,104.654,4.54456,0.00635785,0.23501,20.7747,506.367,28.3355,0.0,0.0
4092,1022.75,38.0284,41.0907,155.11,104.489,4.48662,0.00664756,0.232178,20.7795,506.237,28.4371,0.0,0.0
4103,1025.5,37.7052,40.5598,155.711,104.281,4.52461,0.00705388,0.229518,20.783,506.157,28.3429,0.0,0.0
4114,1028.25,37.2749,40.7175,153.463,104.03,4.51464,0.00732357,0.227445,20.7864,506.027,28.3411,0.0,0.0
4125,1031,36.9593,40.9093,157.277,104.041,4.56355,0.00739865,0.225582,20.7884,505.907,28.2447,0.0,0.0
4136,1033.75,37.4346,39.5655,155.679,104.111,4.47855,0.00741707,0.223889,20.7905,505.816,28.4206,0.0,0.0
4147,1036.5,36.9482,39.9373,153.054,104.179,4.50562,0.0076084,0.22203,20.7919,505.696,28.3721,0.0,0.0
4158,1039.25,36.7923,39.2646,152.984,104.243,4.4852,0.00779281,0.218824,20.7954,505.586,28.4187,0.0,0.0
4169,1042,36.4691,39.0283,154.654,104.305,4.51654,0.00791779,0.216457,20.798,505.496,28.3612,0.0,0.0
4180,1044.75,35.8174,38.2664,155.204,104.399,4.48615,0.00805367,0.214958,20.8003,505.396,28.4303,0.0,0.0
4191,1047.5,36.2351,38.5787,152.219,104.485,4.51749,0.00810294,0.213357,20.8014,505.316,28.3748,0.0,0.0
4202,1050.25,35.7904,38.2048,154.704,104.548,4.4719,0.0081941,0.211553,20.802,505.196,28.4719,0.0,0.0
4213,1053,35.4805,38.4766,152.839,104.603,4.51702,0.00838331,0.20923,20.8042,505.096,28.386,0.0,0.0
4224,1055.75,36.146,37.8882,152.976,104.637,4.4833,0.00855923,0.207643,20.8058,504.986,28.4566,0.0,0.0
4235,1058.5,35.5063,37.8395,156.602,104.653,4.44674,0.00908402,0.20626,20.8084,504.916,28.532,0.0,0.0
4246,1061.25,35.1395,37.7647,157.254,104.643,4.46241,0.00985049,0.203566,20.8103,504.776,28.4993,0.0,0.0
4257,1064,35.2327,37.1737,153.639,104.603,4.53744,0.0099615,0.205231,20.8086,504.676,28.3452,0.0,0.0
4268,1066.75,35.0717,37.0264,156.801,104.56,4.49612,0.00961763,0.209722,20.8042,504.555,28.4242,0.0,0.0
4279,1069.5,34.8861,37.1968,155.366,104.489,4.47523,0.00965473,0.214525,20.798,504.465,28.4601,0.0,0.0
4290,1072.25,34.769,36.9379,154.966,104.401,4.49897,0.00974027,0.213666,20.7978,504.355,28.4047,0.0,0.0
4301,1075,34.3931,37.0799,157.094,104.292,4.46573,0.0095804,0.210688,20.7993,504.295,28.4622,0.0,0.0
4312,1077.75,34.8813,36.4776,154.017,104.179,4.46098,0.00943669,0.209338,20.8,504.145,28.462,0.0,0.0
4323,1080.5,34.521,36.3795,154.642,104.042,4.4757,0.0096554,0.210589,20.7989,504.085,28.4204,0.0,0.0
4334,1083.25,34.3544,36.4151,155.273,103.915,4.44199,0.0100269,0.207029,20.8011,503.995,28.4777,0.0,0.0
4345,1086,34.2305,35.9579,153.525,103.79,4.45481,0.0102342,0.202345,20.8066,503.905,28.4407,0.0,0.0
4356,1088.75,33.8876,35.7652,155.963,103.658,4.44484,0.0103876,0.198423,20.8115,503.815,28.4495,0.0,0.0
4367,1091.5,33.793,35.6169,155.662,103.555,4.39782,0.0107809,0.195185,20.8155,503.745,28.5366,0.0,0.0
4378,1094.25,33.6463,35.2759,153.522,103.44,4.46905,0.0113556,0.190249,20.8203,503.675,28.3814,0.0,0.0
4389,1097,33.2649,34.9145,153.079,103.388,4.40732,0.0116424,0.186189,20.8253,503.615,28.5025,0.0,0.0
4400,1099.75,33.3159,34.8428,159.059,103.331,4.39592,0.0118541,0.182538,20.8308,503.555,28.5209,0.0,0.0
4411,1102.5,32.5631,35.0029,157.227,103.32,4.37076,0.0121406,0.177911,20.8365,503.454,28.5718,0.0,0.0
4422,1105.25,32.445,34.4883,158.865,103.327,4.35413,0.0125268,0.173168,20.8405,503.414,28.6068,0.0,0.0
4433,1108,32.6344,34.363,155.664,103.374,4.36316,0.0130283,0.170328,20.8425,503.384,28.5923,0.0,0.0
4444,1110.75,32.2958,33.7955,156.874,103.452,4.36981,0.0134986,0.169268,20.8435,503.304,28.5853,0.0,0.0
4455,1113.5,31.8626,34.1588,161.721,103.553,4.42157,0.0139393,0.167859,20.8449,503.244,28.4878,0.0,0.0
4466,1116.25,31.6408,33.4803,163.602,103.694,4.38263,0.0143034,0.165029,20.8482,503.194,28.58,0.0,0.0
4477,1119,31.4141,33.0321,158.945,103.84,4.45006,0.0148575,0.161166,20.8526,503.164,28.4547,0.0,0.0
4488,1121.75,30.285,32.6236,160.127,103.991,4.39877,0.0156397,0.157003,20.8586,503.104,28.5726,0.0,0.0
4499,1124.5,30.8236,32.5461,153.527,104.187,4.40305,0.0164554,0.154139,20.8608,503.064,28.5809,0.0,0.0
4510,1127.25,30.2546,32.2692,155.782,104.346,4.4002,0.0165876,0.152485,20.8618,502.994,28.6005,0.0,0.0
4521,1130,29.907,32.4071,156.527,104.516,4.42584,0.0163111,0.153602,20.8624,502.954,28.5627,0.0,0.0
4532,1132.75,30.0965,31.8502,159.247,104.665,4.45718,0.0172133,0.150923,20.8657,502.924,28.5118,0.0,0.0
4543,1135.5,30.1002,31.7202,165.145,104.814,4.38928,0.0187847,0.146823,20.8698,502.874,28.6633,0.0,0.0
4554,1138.25,29.0724,31.8673,154.86,104.953,4.43914,0.0203675,0.143032,20.8731,502.814,28.5733,0.0,0.0
4565,1141,28.7925,31.0149,160.2,105.074,4.41729,0.021626,0.140173,20.8745,502.774,28.6282,0.0,0.0
4576,1143.75,28.9566,30.0938,164.421,105.166,4.42679,0.0222229,0.13833,20.8759,502.744,28.6167,0.0,0.0
4587,1146.5,27.9788,29.9037,160.506,105.225,4.40352,0.0226418,0.137393,20.8777,502.684,28.6694,0.0,0.0
4598,1149.25,28.3353,29.7484,154.738,105.282,4.46431,0.0228757,0.137008,20.8785,502.644,28.5505,0.0,0.0
4609,1152,27.5937,29.3038,164.181,105.326,4.45053,0.0227473,0.136774,20.8788,502.594,28.5821,0.0,0.0
4620,1154.75,27.864,29.3409,156.63,105.335,4.41587,0.0226222,0.136059,20.8788,502.544,28.6536,0.0,0.0
4631,1157.5,27.7886,29.1528,160.11,105.309,4.46383,0.0229138,0.136143,20.8789,502.504,28.5537,0.0,0.0
4642,1160.25,27.516,28.9994,162.044,105.281,4.41919,0.0231948,0.136206,20.8789,502.453,28.6421,0.0,0.0
4653,1163,26.8918,28.9557,158.659,105.241,4.3964,0.0230771,0.136225,20.881,502.413,28.6854,0.0,0.0
4664,1165.75,27.2995,28.7004,161.694,105.16,4.40875,0.0229566,0.135868,20.8826,502.363,28.6531,0.0,0.0
4675,1168.5,26.8118,27.8865,159.313,105.066,4.39972,0.0232658,0.13595,20.882,502.323,28.6635,0.0,0.0
4686,1171.25,26.9723,28.205,158.61,104.967,4.43771,0.0235443,0.135995,20.8814,502.273,28.5773,0.0,0.0
4697,1174,26.4521,28.3165,157.707,104.867,4.42014,0.0237232,0.135279,20.8827,502.263,28.6046,0.0,0.0
4708,1176.75,26.5628,27.68,161.468,104.788,4.34891,0.0238447,0.135181,20.8832,502.203,28.7445,0.0,0.0
4719,1179.5,26.4459,27.4048,157.767,104.681,4.40447,0.0239833,0.13547,20.8822,502.173,28.6206,0.0,0.0
4730,1182.25,26.3349,27.6165,158.262,104.589,4.42489,0.024169,0.135464,20.8815,502.093,28.5709,0.0,0.0
4741,1185,26.3599,27.4139,158.721,104.518,4.35888,0.0242338,0.135284,20.8806,502.033,28.7005,0.0,0.0
4752,1187.75,25.8588,26.4879,152.618,104.46,4.36268,0.0242991,0.135291,20.88,502.013,28.6877,0.0,0.0
4763,1190.5,25.8902,26.6416,161.703,104.545,4.34131,0.0242051,0.135129,20.8798,501.993,28.7393,0.0,0.0
4774,1193.25,25.6851,26.8319,157.422,104.682,4.4078,0.0245405,0.134704,20.8798,501.933,28.6139,0.0,0.0
4785,1196,26.0934,26.8492,158.001,104.811,4.38073,0.0249334,0.135338,20.879,501.893,28.6807,0.0,0.0
4796,1198.75,25.5286,27.0042,160.132,104.897,4.38595,0.0252086,0.136268,20.8779,501.863,28.6774,0.0,0.0
4807,1201.5,25.561,26.5932,155.915,104.931,4.39592,0.0252734,0.136807,20.8776,501.813,28.6597,0.0,0.0
4818,1204.25,25.768,26.803,158.24,104.956,4.43819,0.025186,0.137147,20.877,501.773,28.5755,0.0,0.0
4829,1207,25.6767,26.552,158.482,104.939,4.43059,0.0251474,0.136588,20.8774,501.743,28.5894,0.0,0.0
4840,1209.75,25.1551,26.7971,161.714,104.89,4.40922,0.0249222,0.135643,20.8789,501.693,28.6289,0.0,0.0
4851,1212.5,25.4532,26.5233,160.113,104.798,4.43771,0.0248014,0.135093,20.8799,501.673,28.5628,0.0,0.0
4862,1215.25,25.4164,25.9704,155.915,104.682,4.41634,0.0250204,0.135548,20.8803,501.643,28.5964,0.0,0.0
4873,1218,24.9234,26.0812,155.897,104.521,4.43201,0.0251061,0.136256,20.8804,501.563,28.5505,0.0,0.0
4884,1220.75,25.3349,26.2422,159.841,104.315,4.34131,0.0250265,0.135917,20.8804,501.533,28.7194,0.0,0.0
4895,1223.5,25.2181,26.0575,163.315,104.079,4.36126,0.0246342,0.135242,20.8804,501.513,28.6576,0.0,0.0
4906,1226.25,25.2474,26.2405,155.943,104.055,4.35508,0.0242918,0.135002,20.8818,501.473,28.6683,0.0,0.0
4917,1229,24.9035,25.6511,160.385,104.105,4.3755,0.0242911,0.134999,20.8824,501.443,28.6304,0.0,0.0
4928,1231.75,25.1514,26.2429,157.347,104.168,4.40305,0.0244074,0.135309,20.8823,501.403,28.5792,0.0,0.0
4939,1234.5,25.0127,25.9655,163.863,104.24,4.40162,0.0240836,0.134787,20.8832,501.352,28.5883,0.0,0.0
4950,1237.25,25.3006,25.5966,160.746,104.305,4.35271,0.0237444,0.134495,20.884,501.332,28.695,0.0,0.0
4961,1240,24.8071,26.2143,159.146,104.373,4.40922,0.0236895,0.134474,20.8843,501.312,28.5842,0.0,0.0
4972,1242.75,25.0371,25.8223,158.121,104.457,4.38168,0.0236516,0.134557,20.8844,501.262,28.6482,0.0,0.0
4983,1245.5,24.9372,25.6606,158.859,104.532,4.37123,0.0235031,0.134327,20.8849,501.232,28.6762,0.0,0.0
4994,1248.25,25.0408,25.5739,159.878,104.58,4.37693,0.0235102,0.134349,20.8845,501.192,28.6686,0.0,0.0
5005,1251,24.9423,25.3546,161.16,104.612,4.3755,,0.134793,,501.152,28.6743,0.0,0.0
5016,1253.75,24.4578,24.9489,158.405,104.651,4.3812,,,,501.122,28.6659,0.0,0.0
5027,1256.5,25.2247,25.1567,156.438,104.638,4.38643,,,,501.072,28.654,0.0,0.0
5038,1259.25,25.2949,25.5485,155.814,104.62,4.43439,,,,501.062,28.5542,0.0,0.0