File: 01_Data/Pine_Siding/Cone/Pine_Siding_Cone_HF75Scan_221004_R3.csv
Names,Time,Stack TC,Smoke TC,Exh Press,Smoke Comp,Smoke Meas,CO Meter,CO2 Meter,O2 Meter,Sample Mass,Ext Coeff,Start Test,Flame Verif
Chan Gain,,500,500,1,1,1,1,1,1,1,1,1.0,1.0
Offset,,0,0,0.13918,0,0,0,0,0,0,0,0.0,0.0
Gain,,1,1,25.011,14.0162,15.5607,1,1,1,1.0009,1.02981,1.0,1.0
Units,sec,C,C,Pa,%,%,%,%,%,g,/m,,
Baseline,,45.7601,47.4195,150.098,104.653,3.62582,0.000143795,0.0800498,20.9667,-3.50334,30.3757,,
7,1.5,43.6079,44.6731,146.392,103.738,3.56442,0.00048354,0.0909026,20.9534,556.753,30.4505,0.0,0.0
14,3.25,43.6323,45.1063,153.734,103.715,3.46232,0.000796707,0.092392,20.9495,556.712,30.7111,0.0,0.0
21,5,43.8181,45.5073,144.955,103.702,3.67364,0.00141802,0.118687,20.9189,556.562,30.1747,0.0,1.0
28,6.75,44.7932,46.2942,135.023,103.686,3.70403,0.00233903,0.206166,20.8314,556.172,30.0989,0.0,1.0
35,8.5,45.7782,46.1091,123.094,103.667,3.7121,0.00371649,0.331484,20.6918,555.822,30.0776,0.0,1.0
42,10.25,48.82,48.3432,115.198,103.668,3.67791,0.00513375,0.490978,20.4698,555.391,30.1613,0.0,0.0
49,12,51.5036,51.0129,120.067,103.704,3.65132,0.00633582,0.626953,20.3042,555.061,30.23,0.0,0.0
56,13.75,54.2036,53.9646,125.025,103.728,3.53782,0.00747222,0.720202,20.1921,554.651,30.5173,0.0,0.0
63,15.5,56.7242,56.26,120.748,103.75,3.64847,0.00826901,0.770735,20.132,554.25,30.241,0.0,0.0
70,17.25,59.2988,58.7336,125.161,103.799,3.67506,0.00871299,0.781983,20.1108,553.84,30.1797,0.0,0.0
77,19,60.5699,60.8199,128.063,103.846,3.58056,0.00887616,0.766792,20.1228,553.51,30.4191,0.0,0.0
84,20.75,62.2633,62.6866,124.649,103.928,3.68456,0.00882887,0.741454,20.1458,553.169,30.1676,0.0,0.0
91,22.5,63.4662,64.211,129.786,103.977,3.63945,0.00860723,0.714901,20.1746,552.919,30.2831,0.0,0.0
98,24.25,64.3818,65.793,128.209,104.031,3.57914,0.00833618,0.687192,20.2112,552.549,30.4388,0.0,0.0
105,26,65.4814,66.6691,124.533,104.096,3.65227,0.00807089,0.659044,20.2481,552.268,30.2617,0.0,0.0
112,27.75,66.4713,68.1225,133.691,104.172,3.69311,0.00784294,0.635594,20.276,551.968,30.1679,0.0,0.0
119,29.5,67.333,69.0396,127.576,104.246,3.74867,0.00771044,0.614862,20.2986,551.698,30.0394,0.0,0.0
126,31.25,67.9938,69.7016,135.695,104.311,3.73965,0.00755177,0.59542,20.3228,551.388,30.0667,0.0,0.0
133,33,68.6871,70.5825,135.138,104.392,3.61238,0.00734349,0.576118,20.3461,551.147,30.3866,0.0,0.0
140,34.75,68.7892,71.2507,134.76,104.471,3.63422,0.00703429,0.556593,20.372,550.887,30.339,0.0,0.0
147,36.5,69.3442,71.5944,134.705,104.578,3.67221,0.00676392,0.539155,20.3966,550.637,30.2543,0.0,0.0
154,38.25,70.0922,72.2659,131.107,104.649,3.69548,0.00645355,0.524958,20.4167,550.387,30.2033,0.0,0.0
161,40,69.9337,72.7967,136.319,104.724,3.70213,0.00617036,0.512507,20.4336,550.156,30.1936,0.0,0.0
168,41.75,70.234,73.3755,135.588,104.834,3.67981,0.00591847,0.499834,20.4489,549.876,30.2577,0.0,0.0
175,43.5,70.0316,73.7626,133.937,104.903,3.75294,0.0056358,0.489967,20.4605,549.696,30.0858,0.0,0.0
182,45.25,70.2666,74.5153,138.827,104.972,3.77764,0.00544987,0.481079,20.4728,549.456,30.0325,0.0,0.0
189,47,70.7162,74.1275,134.829,105.036,3.75057,0.00532602,0.471204,20.4856,549.226,30.103,0.0,0.0
196,48.75,70.8031,74.3492,134.709,105.113,3.74629,0.00516186,0.463446,20.4949,549.005,30.1199,0.0,0.0
203,50.5,70.5697,74.676,136.14,105.178,3.80423,0.00497416,0.456231,20.5054,548.805,29.9869,0.0,0.0
210,52.25,70.8111,74.6578,136.33,105.236,3.75437,0.00477628,0.449163,20.5129,548.575,30.1111,0.0,0.0
217,54,71.0514,75.1649,135.147,105.273,3.7349,0.00461862,0.442505,20.5198,548.385,30.1612,0.0,0.0
224,55.75,70.7914,75.3728,139.021,105.335,3.85029,0.00453073,0.437681,20.5255,548.155,29.8916,0.0,0.0
231,57.5,70.8214,75.3177,136.427,105.381,3.75579,0.00442221,0.432931,20.5321,547.975,30.12,0.0,0.0
238,59.25,71.2059,75.7799,134.381,105.44,3.77954,0.00419588,0.427763,20.5392,547.744,30.0682,0.0,0.0
245,61,70.8606,75.4771,132.364,105.473,3.733,0.00392001,0.42374,20.5445,547.554,30.1829,0.0,0.0
252,62.75,70.9861,75.6789,137.268,105.479,3.77146,0.00369005,0.420291,20.5488,547.334,30.0908,0.0,0.0
259,64.5,71.0802,76.0911,134.13,105.509,3.79853,0.00358134,0.4174,20.5521,547.134,30.0288,0.0,0.0
266,66.25,71.1473,75.9734,133.551,105.531,3.79236,0.00359054,0.414803,20.5558,546.934,30.0454,0.0,0.0
273,68,71.0367,76.3747,134.311,105.547,3.85267,0.00361928,0.411158,20.5603,546.693,29.9042,0.0,0.0
280,69.75,70.9268,75.9245,137.774,105.536,3.87166,0.00356919,0.408256,20.564,546.483,29.8588,0.0,0.0
287,71.5,70.9006,76.1799,135.114,105.545,3.83605,0.00342279,0.404997,20.5697,546.353,29.9431,0.0,0.0
294,73.25,70.5413,76.224,139.229,105.539,3.89445,0.00325058,0.400688,20.5755,546.113,29.806,0.0,0.0
301,75,70.7627,76.2048,136.688,105.538,3.85077,0.00313691,0.396897,20.5787,545.883,29.9079,0.0,0.0
308,76.75,70.661,76.3656,137.751,105.531,3.87356,0.00317506,0.39399,20.5814,545.713,29.854,0.0,0.0
315,78.5,70.4525,75.9402,139.339,105.488,3.87404,0.00332561,0.390228,20.5864,545.562,29.8492,0.0,0.0
322,80.25,70.5773,76.1104,137.642,105.479,3.84032,0.00342307,0.38659,20.5918,545.332,29.9274,0.0,0.0
329,82,70.5492,76.1204,134.602,105.47,3.83605,0.00341194,0.384311,20.595,545.132,29.9367,0.0,0.0
336,83.75,70.2146,75.8153,138.564,105.434,3.82797,0.00333611,0.383351,20.5972,544.972,29.9526,0.0,0.0
343,85.5,70.3904,75.6816,134.527,105.385,3.93292,0.00319043,0.38209,20.5988,544.732,29.7041,0.0,0.0
350,87.25,70.0867,75.7681,138.005,105.353,3.88733,0.00307943,0.379982,20.6012,544.591,29.8067,0.0,0.0
357,89,70.2198,76.0668,134.312,105.329,3.93292,0.00308638,0.377492,20.6043,544.421,29.6993,0.0,0.0
364,90.75,70.141,75.8459,134.695,105.289,3.91013,0.00313963,0.374778,20.6071,544.201,29.7484,0.0,0.0
371,92.5,69.972,75.5743,141.823,105.255,3.93577,0.00317247,0.371519,20.6115,544.011,29.6864,0.0,0.0
378,94.25,70.1938,76.0496,134.432,105.206,3.86074,0.00321241,0.369563,20.6141,543.871,29.8561,0.0,0.0
385,96,69.7031,75.7996,135.314,105.173,3.94479,0.00322837,0.368589,20.6154,543.661,29.6587,0.0,0.0
392,97.75,69.9214,75.4841,129.6,105.141,3.89208,0.00318617,0.367463,20.616,543.491,29.7775,0.0,0.0
399,99.5,69.6177,75.6761,137.793,105.092,3.86596,0.00303122,0.365516,20.618,543.34,29.834,0.0,0.0
406,101.25,69.8029,75.5416,138.822,105.03,3.91345,0.00288797,0.364083,20.6199,543.14,29.7185,0.0,0.0
413,103,69.6355,75.6412,137.488,104.996,3.96711,0.00280814,0.362391,20.6217,542.95,29.5925,0.0,0.0
420,104.75,69.7123,75.5215,132.132,104.956,3.88306,0.00274874,0.359529,20.6249,542.77,29.7825,0.0,0.0
427,106.5,69.6543,75.4459,136.262,104.916,3.90728,0.00267277,0.356739,20.6283,542.61,29.7229,0.0,0.0
434,108.25,69.4091,75.5468,136.317,104.858,3.9125,0.00259549,0.355761,20.6309,542.45,29.7058,0.0,0.0
441,110,69.4666,74.896,137.911,104.83,3.88116,0.002484,0.354522,20.6332,542.249,29.7761,0.0,0.0
448,111.75,69.0786,74.7312,133.889,104.791,3.93862,0.00239453,0.353304,20.6344,542.029,29.64,0.0,0.0
455,113.5,68.6479,75.1072,134.998,104.77,3.91298,0.00240874,0.351947,20.6369,541.939,29.6971,0.0,0.0
462,115.25,68.9564,75.2484,137.134,104.72,3.97186,0.00240507,0.350296,20.6397,541.769,29.558,0.0,0.0
469,117,69.0646,75.0206,135.585,104.678,3.97993,0.00228874,0.349164,20.6412,541.559,29.536,0.0,0.0
476,118.75,68.9884,74.465,142.394,104.646,3.94052,0.00216938,0.347972,20.6419,541.389,29.6231,0.0,0.0
483,120.5,68.8564,74.968,137.109,104.627,3.93957,0.00210923,0.348042,20.6422,541.239,29.6236,0.0,0.0
490,122.25,69.1072,74.6248,135.895,104.611,3.9011,0.00211192,0.34808,20.6418,541.028,29.7109,0.0,0.0
497,124,68.9773,74.5874,137.731,104.687,3.95714,0.00218048,0.346883,20.6427,540.878,29.5887,0.0,0.0
504,125.75,69.1283,74.6371,135.337,104.737,3.95144,0.00224751,0.345257,20.645,540.738,29.606,0.0,0.0
511,127.5,68.6992,74.6599,137.775,104.797,3.98753,0.0022379,0.343104,20.6476,540.558,29.529,0.0,0.0
518,129.25,68.6002,74.5713,137.896,104.869,4.0146,0.00219143,0.339833,20.6518,540.368,29.4741,0.0,0.0
525,131,68.313,74.1787,138.337,104.913,3.94954,0.00214067,0.336041,20.6557,540.238,29.6255,0.0,0.0
532,132.75,68.5218,74.3976,136.91,104.963,4.0032,0.0021451,0.333817,20.6576,540.087,29.5078,0.0,0.0
539,134.5,67.8399,74.8232,138.676,105,4.01127,0.00222256,0.33295,20.6586,539.927,29.4928,0.0,0.0
546,136.25,68.061,74.3433,134.711,105.053,3.93814,0.00231427,0.332748,20.659,539.707,29.6636,0.0,0.0
553,138,68.1478,73.9314,137.531,105.072,3.87926,0.0023979,0.331751,20.6607,539.547,29.8014,0.0,0.0
560,139.75,66.3837,74.0049,136.53,105.057,4.03312,0.00236701,0.331111,20.6628,539.397,29.4486,0.0,0.0
567,141.5,67.76,72.5628,136.474,105.075,4.06968,0.00220615,0.329867,20.6642,539.247,29.3687,0.0,0.0
574,143.25,68.2318,73.5535,141.009,105.065,3.95476,0.00202423,0.327964,20.6658,539.077,29.6266,0.0,0.0
581,145,68.0874,74.0104,140.122,105.071,3.94669,0.00186087,0.325938,20.6688,538.886,29.6456,0.0,0.0
588,146.75,67.6884,73.4651,138.757,105.059,4.02362,0.00177779,0.324914,20.6711,538.766,29.4701,0.0,0.0
595,148.5,67.1158,74.132,140.786,105.069,3.97566,0.00180313,0.323422,20.6725,538.696,29.5793,0.0,0.0
602,150.25,67.4788,73.2746,140.95,105.005,3.9937,0.00187191,0.321966,20.6737,538.486,29.5329,0.0,0.0
609,152,68.1377,73.2512,138.192,104.986,3.97993,0.00193835,0.320977,20.6749,538.346,29.5625,0.0,0.0
616,153.75,67.5739,73.663,138.585,104.943,4.01555,0.00195244,0.320021,20.6761,538.146,29.4783,0.0,0.0
623,155.5,67.522,73.2607,137.533,104.885,4.00273,0.00182463,0.319421,20.6767,538.026,29.5022,0.0,0.0
630,157.25,67.3304,72.9533,137.195,104.83,3.93434,0.00172161,0.31874,20.6769,537.825,29.6532,0.0,0.0
637,159,67.4258,73.2981,139.361,104.787,3.94479,0.00171191,0.318286,20.6775,537.685,29.6254,0.0,0.0
644,160.75,67.336,72.7991,137.975,104.731,4.00985,0.00172074,0.317289,20.6792,537.545,29.4728,0.0,0.0
651,162.5,67.245,73.0793,140.241,104.636,3.97613,0.0016821,0.316082,20.6818,537.415,29.541,0.0,0.0
658,164.25,67.2543,72.98,135.925,104.569,3.97851,0.00166085,0.315091,20.6829,537.275,29.5298,0.0,0.0
665,166,66.8338,72.906,139.399,104.488,4.00463,0.00168221,0.314164,20.6836,537.065,29.4636,0.0,0.0
672,167.75,67.0897,72.7701,131.265,104.446,3.96236,0.00174606,0.312875,20.6836,536.965,29.5559,0.0,0.0
679,169.5,67.1871,72.7399,138.761,104.388,3.9956,0.00180585,0.311458,20.6831,536.815,29.4754,0.0,0.0
686,171.25,66.8029,72.658,136.366,104.314,3.97423,0.00184045,0.311502,20.6829,536.624,29.5175,0.0,0.0
693,173,66.8524,72.448,136.957,104.263,3.96426,0.00184518,0.312415,20.6828,536.464,29.5357,0.0,0.0
700,174.75,66.9765,72.7348,134.486,104.242,4.03549,0.00187172,0.312573,20.6827,536.324,29.373,0.0,0.0
707,176.5,66.672,72.6358,139.444,104.251,3.96806,0.00193725,0.311594,20.6833,536.204,29.526,0.0,0.0
714,178.25,67.071,72.5007,132.763,104.258,3.96711,0.00199918,0.3103,20.6853,536.054,29.5288,0.0,0.0
721,180,66.3908,72.3386,137.313,104.276,3.94764,0.00213548,0.308923,20.6864,535.864,29.5747,0.0,0.0
728,181.75,67.0253,72.3157,136.642,104.293,3.94099,0.00233123,0.308239,20.6869,535.703,29.5915,0.0,0.0
735,183.5,66.6927,72.0684,139.732,104.328,4.05686,0.00243665,0.308151,20.6871,535.603,29.3328,0.0,0.0
742,185.25,66.444,72.1515,141.477,104.341,4.08203,0.00238471,0.30814,20.6875,535.423,29.278,0.0,0.0
749,187,66.5305,72.5855,141.394,104.365,3.97518,0.00217631,0.307566,20.6886,535.253,29.5197,0.0,0.0
756,188.75,66.4651,71.8792,136.55,104.38,3.95381,0.00192886,0.307123,20.6904,535.163,29.5697,0.0,0.0
763,190.5,66.4469,71.9592,139.789,104.434,3.97281,0.00177343,0.306679,20.6912,535.003,29.531,0.0,0.0
770,192.25,66.3275,71.7813,139.294,104.454,3.99988,0.00168472,0.305599,20.6939,534.883,29.4715,0.0,0.0
777,194,66.5004,71.4715,140.109,104.488,3.95381,0.00175185,0.304364,20.6956,534.743,29.579,0.0,0.0
784,195.75,66.8471,71.8781,138.589,104.527,3.9144,0.00185432,0.304363,20.6956,534.582,29.6729,0.0,0.0
791,197.5,67.1425,71.723,138.361,104.574,3.92105,0.00194274,0.304866,20.6952,534.432,29.6616,0.0,0.0
798,199.25,65.9773,71.584,137.153,104.628,3.98468,0.00200956,0.304824,20.6951,534.252,29.5209,0.0,0.0
805,201,65.9555,71.3481,138.391,104.64,4.07396,0.00203429,0.305147,20.6946,534.112,29.3217,0.0,0.0
812,202.75,66.1501,71.5132,138.385,104.679,3.97993,0.00198058,0.305708,20.694,533.992,29.5361,0.0,0.0
819,204.5,66.2411,71.5337,137.446,104.714,4.07111,0.00197734,0.305874,20.6938,533.802,29.3344,0.0,0.0
826,206.25,66.0642,71.3247,140.025,104.77,3.95334,0.00197828,0.305162,20.6936,533.742,29.6045,0.0,0.0
833,208,66.4915,71.4142,137.326,104.789,3.97661,0.0018761,0.304352,20.6936,533.582,29.5531,0.0,0.0
840,209.75,66.434,71.6325,135.155,104.827,4.01507,0.00171118,0.304331,20.6947,533.361,29.4694,0.0,0.0
847,211.5,66.2534,71.4067,133.553,104.832,4.10198,0.0015969,0.304074,20.695,533.211,29.2764,0.0,0.0
854,213.25,66.2177,71.547,136.891,104.876,3.99513,0.00154323,0.303154,20.6959,533.091,29.5186,0.0,0.0
861,215,66.2842,71.2262,143.32,104.893,4.03407,0.00155127,0.302269,20.6966,532.981,29.4325,0.0,0.0
868,216.75,66.2188,71.196,137.059,104.892,4.02315,0.00163556,0.301997,20.6969,532.801,29.4568,0.0,0.0
875,218.5,65.9999,71.306,137.729,104.914,3.9899,0.00176036,0.302116,20.6971,532.651,29.5337,0.0,0.0
882,220.25,66.1144,71.2707,139.115,104.935,4.08393,0.00185569,0.303308,20.6964,532.541,29.3251,0.0,0.0
889,222,65.7992,71.3122,141.07,104.939,3.96379,0.001976,0.304703,20.6957,532.441,29.5952,0.0,0.0
896,223.75,66.072,71.1873,138.641,104.927,3.99893,0.00206334,0.3049,20.6956,532.24,29.5144,0.0,0.0
903,225.5,66.0317,71.1646,141.362,104.933,3.98753,0.00206196,0.303963,20.6965,532.1,29.5407,0.0,0.0
910,227.25,66.0677,70.853,140.118,104.927,4.08061,0.00196948,0.303153,20.6969,531.96,29.3318,0.0,0.0
917,229,66.3232,70.655,138.793,104.937,4.05069,0.00187146,0.302315,20.6971,531.78,29.3991,0.0,0.0
924,230.75,66.0535,70.783,138.178,104.923,4.07301,0.00186263,0.302639,20.6968,531.65,29.3483,0.0,0.0
931,232.5,65.9124,70.9882,141.032,104.907,4.07491,0.00187595,0.303464,20.6959,531.53,29.3426,0.0,0.0
938,234.25,65.7615,70.8522,138.089,104.874,4.0108,0.00194908,0.303862,20.6954,531.37,29.4831,0.0,0.0
945,236,66.0184,70.8918,135.314,104.864,4.01745,0.00209642,0.30344,20.6952,531.189,29.4672,0.0,0.0
952,237.75,65.6641,71.0453,139.859,104.84,4.00605,0.00219956,0.302974,20.6954,531.069,29.4908,0.0,0.0
959,239.5,66.1776,70.5022,141.966,104.815,4.06304,0.00218452,0.303336,20.6955,530.949,29.3611,0.0,0.0
966,241.25,65.8818,70.5206,142.519,104.797,4.01697,0.00213482,0.30385,20.6956,530.849,29.4625,0.0,0.0
973,243,66.5146,70.9548,139.858,104.765,4.04594,0.00204098,0.303313,20.6964,530.659,29.3949,0.0,0.0
980,244.75,65.8514,70.656,137.11,104.746,4.0939,0.00187749,0.302067,20.6984,530.499,29.2868,0.0,0.0
987,246.5,66.0456,70.2221,140.09,104.705,4.03549,0.00186164,0.301279,20.6978,530.379,29.4131,0.0,0.0
994,248.25,65.9306,70.8964,135.962,104.648,3.99085,0.00198691,0.301951,20.6967,530.239,29.5086,0.0,0.0
1001,250,66.0515,70.6519,139.034,104.624,4.02267,0.00215841,0.303849,20.695,530.118,29.4348,0.0,0.0
1008,251.75,66.1452,70.5432,138.375,104.585,3.96189,0.00221483,0.304834,20.6941,529.998,29.569,0.0,0.0
1015,253.5,65.9062,70.7635,140.591,104.553,4.07538,0.00215843,0.305136,20.6937,529.808,29.3111,0.0,0.0
1022,255.25,66.0143,70.9478,136.841,104.5,4.03882,0.00203674,0.305013,20.6935,529.668,29.3879,0.0,0.0
1029,257,66.1396,70.7664,134.632,104.436,4.03597,0.00186926,0.304524,20.6938,529.548,29.3887,0.0,0.0
1036,258.75,65.4426,70.9282,137.674,104.416,4.08156,0.00175003,0.303829,20.6947,529.408,29.2856,0.0,0.0
1043,260.5,66.0646,70.737,139.651,104.375,4.04024,0.00178956,0.303667,20.6944,529.278,29.3739,0.0,0.0
1050,262.25,66.0502,70.6844,140.249,104.341,4.02552,0.0018161,0.304075,20.6942,529.098,29.4039,0.0,0.0
1057,264,65.9325,70.5815,142.3,104.273,4.092,0.00170888,0.304913,20.6941,528.937,29.2501,0.0,0.0
1064,265.75,66.0695,70.4881,139.448,104.239,4.01887,0.00160974,0.305408,20.694,528.887,29.4101,0.0,0.0
1071,267.5,65.7183,70.636,136.634,104.196,4.15611,0.00159646,0.305352,20.694,528.677,29.103,0.0,0.0
1078,269.25,65.9749,70.8513,135.095,104.154,4.01412,0.00162825,0.304674,20.6939,528.587,29.4133,0.0,0.0
1085,271,66.7364,70.8024,138.053,104.101,4.03027,0.00167086,0.30436,20.6939,528.377,29.3725,0.0,0.0
1092,272.75,65.9244,70.2022,133.815,104.05,4.00795,0.001678,0.304441,20.6939,528.247,29.4182,0.0,0.0
1099,274.5,65.659,70.5105,136.363,104.007,4.02837,0.00168008,0.304097,20.6939,528.087,29.3686,0.0,0.0
1106,276.25,65.7181,70.4039,136.71,103.984,4.12762,0.00172104,0.304022,20.6943,527.987,29.1467,0.0,0.0
1113,278,65.9871,70.608,138.045,103.925,4.00415,0.00172024,0.304748,20.6945,527.866,29.416,0.0,0.0
1120,279.75,65.3375,71.0034,139.432,103.89,4.0882,0.00167498,0.304634,20.6959,527.696,29.2252,0.0,0.0
1127,281.5,65.7678,70.3008,135.386,103.855,3.98706,0.00164867,0.304003,20.6965,527.566,29.4485,0.0,0.0
1134,283.25,65.7271,70.3043,138.176,103.823,3.93482,0.00161452,0.302946,20.6979,527.406,29.5648,0.0,0.0
1141,285,65.8037,70.6507,140.411,103.794,3.99798,0.00163008,0.302184,20.6991,527.306,29.4185,0.0,0.0
1148,286.75,65.4662,70.1962,143.302,103.752,3.95951,0.00167179,0.302562,20.6993,527.176,29.5021,0.0,0.0
1155,288.5,65.96,70.4871,139.02,103.734,3.98848,0.00169415,0.3039,20.6974,527.026,29.4347,0.0,0.0
1162,290.25,65.4977,70.3494,134.631,103.714,4.06494,0.00171338,0.305232,20.6964,526.885,29.2615,0.0,0.0
1169,292,65.7401,70.4434,134.889,103.696,4.03074,0.00171105,0.305987,20.696,526.735,29.3362,0.0,0.0
1176,293.75,65.8935,70.4588,138.155,103.68,4.00985,0.00168912,0.306398,20.6958,526.585,29.3817,0.0,0.0
1183,295.5,65.8571,70.4883,143.599,103.65,3.94004,0.00171243,0.306131,20.6957,526.435,29.5378,0.0,0.0
1190,297.25,65.9321,70.1951,139.451,103.641,3.93814,0.00181417,0.306465,20.6953,526.315,29.5414,0.0,0.0
1197,299,65.5661,70.5835,138.701,103.671,3.97566,0.00188034,0.305856,20.695,526.185,29.4583,0.0,0.0
1204,300.75,65.5474,70.6748,139.361,103.65,3.93055,0.00181919,0.304673,20.6949,526.085,29.5596,0.0,0.0
1211,302.5,65.8013,70.2699,135.149,103.643,4.01317,0.00166339,0.304734,20.6948,525.925,29.371,0.0,0.0
1218,304.25,65.7818,70.2357,138.79,103.657,3.97328,0.00148738,0.30565,20.6936,525.745,29.4625,0.0,0.0
1225,306,65.6617,70.3988,135.793,103.676,3.93482,0.00143839,0.306116,20.6932,525.624,29.552,0.0,0.0
1232,307.75,65.7791,70.5616,137.951,103.694,4.01935,0.00154523,0.306318,20.6932,525.484,29.3616,0.0,0.0
1239,309.5,66.1243,70.635,138.902,103.689,4.02789,0.0016634,0.306651,20.6933,525.334,29.342,0.0,0.0
1246,311.25,65.6677,70.1335,140.274,103.711,4.04119,0.00182977,0.306518,20.6933,525.184,29.3142,0.0,0.0
1253,313,65.6565,70.2074,142.513,103.742,3.98611,0.00201716,0.306151,20.6933,525.094,29.4408,0.0,0.0
1260,314.75,65.694,70.0527,137.094,103.778,4.01697,0.00212344,0.306085,20.6933,524.914,29.3742,0.0,0.0
1267,316.5,65.6951,70.2312,138.255,103.8,3.92105,0.00213404,0.306164,20.6933,524.804,29.5945,0.0,0.0
1274,318.25,65.7277,70.456,140.572,103.825,3.97471,0.00207358,0.306568,20.6933,524.684,29.4739,0.0,0.0
1281,320,65.7178,70.5459,135.475,103.849,3.95761,0.0019951,0.306673,20.6933,524.523,29.5149,0.0,0.0
1288,321.75,65.7254,70.4859,138.835,103.9,3.9975,0.00189861,0.306411,20.6945,524.383,29.4287,0.0,0.0
1295,323.5,65.6348,70.1152,138.893,103.944,4.04404,0.0017791,0.305569,20.6951,524.253,29.3281,0.0,0.0
1302,325.25,65.7325,70.251,141.047,103.956,4.00748,0.00170028,0.306104,20.6947,524.113,29.4111,0.0,0.0
1309,327,65.7381,70.3709,138.464,104.005,4.03644,0.00164136,0.30659,20.694,523.983,29.3503,0.0,0.0
1316,328.75,65.8122,70.3819,137.836,104.058,4.0222,0.00157238,0.307146,20.693,523.833,29.3869,0.0,0.0
1323,330.5,65.8167,70.2647,139.196,104.102,4.00178,0.00152456,0.307998,20.6907,523.723,29.4367,0.0,0.0
1330,332.25,65.7842,70.5256,138.802,104.139,4.04262,0.00155513,0.308617,20.6892,523.543,29.3481,0.0,0.0
1337,334,65.9781,70.2865,139.261,104.175,4.01602,0.0016212,0.309389,20.6877,523.402,29.4109,0.0,0.0
1344,335.75,66.0697,70.384,141.102,104.213,3.95999,0.0017139,0.310085,20.687,523.332,29.5411,0.0,0.0
1351,337.5,66.0928,70.4012,141.204,104.272,4.00225,0.00181175,0.309803,20.6877,523.152,29.4503,0.0,0.0
1358,339.25,66.1723,70.557,139.8,104.302,4.0108,0.00182891,0.309411,20.6877,522.992,29.4337,0.0,0.0
1365,341,65.9536,70.3985,138.535,104.326,3.98136,0.00179251,0.31004,20.6856,522.902,29.5023,0.0,0.0
1372,342.75,65.907,70.8669,137.446,104.377,4.03929,0.00175602,0.311456,20.6843,522.732,29.3762,0.0,0.0
1379,344.5,65.9568,70.7993,142.624,104.43,3.98801,0.00176051,0.311606,20.6837,522.632,29.4963,0.0,0.0
1386,346.25,65.712,70.9053,135.238,104.475,4.07396,0.00180903,0.311203,20.6834,522.442,29.3075,0.0,0.0
1393,348,66.1761,70.3613,137.675,104.504,4.03359,0.00184216,0.3104,20.6846,522.341,29.3999,0.0,0.0
1400,349.75,66.3614,70.6709,138.474,104.542,4.02647,0.0018147,0.310001,20.6855,522.271,29.4192,0.0,0.0
1407,351.5,66.4209,70.5838,137.855,104.584,4.02647,0.00176941,0.310466,20.6859,522.051,29.4228,0.0,0.0
1414,353.25,66.234,70.7051,135.866,104.643,4.12857,0.00174637,0.310683,20.6861,521.911,29.2017,0.0,0.0
1421,355,66.3677,70.8064,136.918,104.677,4.1034,0.00176916,0.31028,20.6862,521.821,29.2599,0.0,0.0
1428,356.75,66.352,70.7936,138.265,104.708,4.07396,0.00172966,0.310353,20.6863,521.621,29.3276,0.0,0.0
1435,358.5,66.0823,70.7016,143.259,104.766,4.03264,0.00166533,0.310563,20.6862,521.471,29.4247,0.0,0.0
1442,360.25,66.2269,70.6921,136.377,104.804,4.092,0.00174164,0.311501,20.6858,521.331,29.296,0.0,0.0
1449,362,66.1041,70.5387,141.884,104.841,3.98183,0.00183957,0.312017,20.6856,521.23,29.5457,0.0,0.0
1456,363.75,66.0124,70.8446,135.85,104.868,4.04119,0.00183626,0.312238,20.6855,521.07,29.4143,0.0,0.0
1463,365.5,66.3158,70.8426,141.257,104.904,4.06589,0.00177081,0.312292,20.6855,520.91,29.3624,0.0,0.0
1470,367.25,66.7647,70.8467,137.42,104.945,4.09818,0.00170916,0.31223,20.6855,520.78,29.2945,0.0,0.0
1477,369,66.3363,70.5463,135.25,104.995,4.09438,0.00169391,0.313455,20.6839,520.67,29.3071,0.0,0.0
1484,370.75,66.3338,70.8093,145.89,105.022,4.03597,0.00170119,0.314751,20.6823,520.55,29.4393,0.0,0.0
1491,372.5,66.2421,71.0755,136.527,105.049,4.05971,0.00166711,0.315058,20.6815,520.39,29.3886,0.0,0.0
1498,374.25,66.4444,70.8626,138.689,105.082,4.04357,0.00157987,0.314289,20.6824,520.26,29.4274,0.0,0.0
1505,376,66.2662,70.9457,138.058,105.12,4.07871,0.00152185,0.313618,20.6842,520.109,29.3526,0.0,0.0
1512,377.75,66.3115,70.6623,140.37,105.139,4.02932,0.00155597,0.314758,20.6836,519.989,29.4642,0.0,0.0
1519,379.5,66.4836,70.8694,141.582,105.146,3.99465,0.00169846,0.316316,20.6824,519.909,29.5429,0.0,0.0
1526,381.25,66.6087,70.9168,138.081,105.164,4.08488,0.00189983,0.317878,20.6809,519.769,29.3426,0.0,0.0
1533,383,66.4735,70.7112,138.348,105.212,4.07301,0.00207625,0.318641,20.6799,519.569,29.3731,0.0,0.0
1540,384.75,66.2035,70.5514,135.778,105.235,4.13474,0.00223711,0.320007,20.677,519.499,29.2392,0.0,0.0
1547,386.5,66.5514,70.9519,137.939,105.249,4.08488,0.00229922,0.321501,20.6756,519.259,29.3499,0.0,0.0
1554,388.25,66.3145,70.784,138.148,105.258,4.07776,0.0022743,0.322064,20.6749,519.159,29.3665,0.0,0.0
1561,390,66.6325,70.9243,135.963,105.286,4.08678,0.00223291,0.322306,20.6746,518.998,29.3489,0.0,0.0
1568,391.75,66.6637,70.8895,140.518,105.329,4.04167,0.00222145,0.322731,20.6744,518.848,29.4529,0.0,0.0
1575,393.5,67.0711,71.034,137.592,105.338,4.02884,0.00231143,0.323144,20.6744,518.728,29.4824,0.0,0.0
1582,395.25,66.7419,71.2244,134.517,105.347,4.09865,0.00235577,0.322639,20.6743,518.578,29.3279,0.0,0.0
1589,397,66.8391,70.987,138.995,105.363,4.07681,0.00232905,0.322146,20.6743,518.488,29.3776,0.0,0.0
1596,398.75,66.7419,71.1745,135.262,105.392,4.05876,0.0022861,0.32279,20.6743,518.308,29.4202,0.0,0.0
1603,400.5,66.597,70.9783,139.796,105.429,4.07776,0.00223362,0.323121,20.6743,518.138,29.3812,0.0,0.0
1610,402.25,66.7592,71.2533,138.44,105.418,4.08298,0.00213823,0.322939,20.6732,518.048,29.3687,0.0,0.0
1617,404,66.82,71.1117,139.569,105.43,4.00653,0.00206942,0.323883,20.6715,517.907,29.5404,0.0,0.0
1624,405.75,66.8715,71.3304,133.574,105.448,4.14139,0.00205315,0.325728,20.6706,517.727,29.2429,0.0,0.0
1631,407.5,66.8306,71.0328,136.628,105.471,4.13094,0.00206098,0.326197,20.6701,517.577,29.2677,0.0,0.0
1638,409.25,66.6742,71.2579,137.503,105.477,4.0901,0.00207462,0.32605,20.6699,517.477,29.358,0.0,0.0
1645,411,67.1194,71.4681,136.228,105.473,4.06541,0.00211024,0.325204,20.6723,517.307,29.4124,0.0,0.0
1652,412.75,66.9937,71.3924,137.742,105.496,4.13189,0.00209482,0.3243,20.6738,517.187,29.2678,0.0,0.0
1659,414.5,66.9601,70.9979,143.788,105.508,4.08203,0.00200162,0.325005,20.6727,517.057,29.3785,0.0,0.0
1666,416.25,66.7697,71.148,136.364,105.516,4.09438,0.00200028,0.326142,20.6705,516.947,29.3519,0.0,0.0
1673,418,66.9999,71.2255,139.289,105.519,4.18793,0.00210554,0.327767,20.6685,516.746,29.1481,0.0,0.0
1680,419.75,67.2169,71.7034,137.723,105.517,4.06351,0.00222346,0.329427,20.6671,516.636,29.4204,0.0,0.0
1687,421.5,67.3092,71.4026,132.249,105.524,4.04831,0.0022946,0.330319,20.6646,516.496,29.4548,0.0,0.0
1694,423.25,67.4871,71.7269,138.067,105.547,4.06778,0.0022537,0.330449,20.6628,516.376,29.4134,0.0,0.0
1701,425,67.692,71.6238,135.689,105.537,4.08488,0.0021163,0.330642,20.6632,516.226,29.3747,0.0,0.0
1708,426.75,67.2335,71.8461,139.696,105.542,4.06114,0.00194273,0.330407,20.6633,516.106,29.4277,0.0,0.0
1715,428.5,67.3168,71.5377,134.339,105.543,4.07348,0.00181994,0.330336,20.6626,515.936,29.4004,0.0,0.0
1722,430.25,67.1463,71.6695,133.946,105.568,4.05021,0.00183846,0.330839,20.6619,515.786,29.4543,0.0,0.0
1729,432,67.3629,71.6762,137.078,105.551,4.02315,0.00190377,0.330791,20.6615,515.665,29.5134,0.0,0.0
1736,433.75,67.4814,71.7081,136.382,105.547,4.13569,0.00199691,0.330923,20.6616,515.495,29.2638,0.0,0.0
1743,435.5,67.4669,71.5264,137.742,105.551,4.07586,0.002108,0.33166,20.6606,515.335,29.3958,0.0,0.0
1750,437.25,67.371,71.4819,132.851,105.559,3.9899,0.00212021,0.333124,20.6593,515.215,29.5891,0.0,0.0
1757,439,67.4381,71.9156,136.415,105.575,4.13474,0.00200127,0.335421,20.6571,515.055,29.2683,0.0,0.0
1764,440.75,66.8074,71.4995,137.842,105.54,3.96331,0.00188802,0.336465,20.6566,514.945,29.6478,0.0,0.0
1771,442.5,67.5825,71.9764,137.481,105.535,4.05354,0.00188225,0.336192,20.657,514.775,29.4441,0.0,0.0
1778,444.25,67.6734,71.9733,139.873,105.535,4.12524,0.00199679,0.336545,20.6568,514.705,29.2857,0.0,0.0
1785,446,67.6062,72.11,134.476,105.554,4.0165,0.00205421,0.33769,20.6547,514.514,29.5286,0.0,0.0
1792,447.75,67.2787,72.035,139.38,105.54,4.0051,0.00206448,0.338503,20.6537,514.354,29.5531,0.0,0.0
1799,449.5,67.6411,71.9029,139.253,105.522,4.01127,0.0020388,0.338074,20.6532,514.204,29.5376,0.0,0.0
1806,451.25,67.5516,72.4588,135.79,105.515,4.14376,0.00197111,0.337364,20.653,514.064,29.2435,0.0,0.0
1813,453,67.8467,71.8253,134.359,105.525,4.07681,0.00183422,0.337226,20.6528,513.924,29.3915,0.0,0.0
1820,454.75,67.913,72.1952,137.041,105.512,4.08298,0.00173989,0.337407,20.6528,513.754,29.3767,0.0,0.0
1827,456.5,67.719,72.0746,140.831,105.495,4.07016,0.00174712,0.337636,20.6528,513.634,29.4037,0.0,0.0
1834,458.25,67.7584,72.3882,137.671,105.486,4.05591,0.0017987,0.338443,20.6528,513.513,29.4346,0.0,0.0
1841,460,67.87,72.2034,133.652,105.485,4.00463,0.0018363,0.338718,20.6517,513.313,29.5494,0.0,0.0
1848,461.75,67.664,71.8568,138.428,105.483,4.01887,0.00189307,0.339826,20.6504,513.213,29.5172,0.0,0.0
1855,463.5,67.9156,72.3165,136.031,105.468,4.05259,0.00192149,0.341773,20.6483,513.083,29.4404,0.0,0.0
1862,465.25,67.8784,72.404,138.167,105.459,4.04689,0.00189264,0.342934,20.6474,512.903,29.4524,0.0,0.0
1869,467,67.9283,72.4715,141.85,105.451,4.05211,0.00191627,0.34317,20.6468,512.763,29.44,0.0,0.0
1876,468.75,67.6733,72.1932,138.393,105.442,3.98753,0.00201581,0.343179,20.6463,512.623,29.5845,0.0,0.0
1883,470.5,68.1355,72.4836,136.536,105.429,4.04119,0.00213147,0.344105,20.6452,512.473,29.4625,0.0,0.0
1890,472.25,68.0106,72.4951,140.295,105.412,4.09153,0.00226604,0.345092,20.6438,512.352,29.3493,0.0,0.0
1897,474,68.2205,72.3163,140.261,105.398,4.02932,0.00237005,0.346494,20.6415,512.172,29.4865,0.0,0.0
1904,475.75,67.9392,72.5498,139.174,105.395,4.05211,0.002397,0.347807,20.6396,512.042,29.4353,0.0,0.0
1911,477.5,68.2188,72.4143,135.485,105.4,4.0863,0.00236044,0.348366,20.6387,511.862,29.3597,0.0,0.0
1918,479.25,68.395,72.5478,136.743,105.377,4.06209,0.00233491,0.348412,20.6395,511.752,29.4115,0.0,0.0
1925,481,67.9964,72.5147,137.753,105.354,4.0203,0.00238675,0.348729,20.6399,511.592,29.5029,0.0,0.0
1932,482.75,68.3127,72.7296,141.208,105.345,4.03929,0.00245261,0.34908,20.6393,511.452,29.4596,0.0,0.0
1939,484.5,68.2731,72.6034,137.806,105.335,4.04214,0.00249906,0.34987,20.6387,511.261,29.4524,0.0,0.0
1946,486.25,68.3364,72.7121,138.974,105.329,3.99513,0.00255275,0.350149,20.6387,511.171,29.5575,0.0,0.0
1953,488,68.0652,72.8136,138.476,105.297,4.01982,0.00255643,0.349467,20.6388,510.981,29.4991,0.0,0.0
1960,489.75,68.1853,72.9718,140.34,105.294,4.09105,0.00249486,0.349664,20.6385,510.841,29.3402,0.0,0.0
1967,491.5,68.5372,72.753,139.149,105.276,3.92485,0.00236326,0.350389,20.6366,510.681,29.7134,0.0,0.0
1974,493.25,68.3239,72.8185,134.914,105.261,4.01412,0.00225082,0.353229,20.632,510.551,29.5089,0.0,0.0
1981,495,68.3267,72.6496,143.178,105.244,4.11527,0.00217255,0.356129,20.6285,510.441,29.2825,0.0,0.0
1988,496.75,68.6402,73.0862,141.627,105.232,4.12667,0.00214234,0.357817,20.6261,510.241,29.2566,0.0,0.0
1995,498.5,68.8717,73.0653,137.426,105.228,4.05971,0.00220407,0.359243,20.6239,510.08,29.404,0.0,0.0
2002,500.25,69.0129,73.1434,134.979,105.218,4.02837,0.0023005,0.361222,20.621,509.94,29.4731,0.0,0.0
2009,502,69.1632,73.4461,139.345,105.189,4.07348,0.00237642,0.36308,20.6186,509.8,29.37,0.0,0.0
2016,503.75,68.6169,73.4823,135.094,105.174,4.05829,0.00243465,0.364467,20.6169,509.65,29.4026,0.0,0.0
2023,505.5,69.1817,73.5995,135.919,105.148,4.08156,0.00246977,0.365394,20.6162,509.45,29.3486,0.0,0.0
2030,507.25,69.2327,73.9848,135.366,105.165,4.00225,0.00250253,0.366001,20.6157,509.29,29.5273,0.0,0.0
2037,509,69.2152,73.7357,134.183,105.127,4.02837,0.00253395,0.365612,20.6155,509.19,29.4654,0.0,0.0
2044,510.75,69.3376,73.7934,135.808,105.098,3.99133,0.00256265,0.365589,20.6154,509.059,29.5463,0.0,0.0
2051,512.5,69.3489,73.8942,140.85,105.075,4.04024,0.00258836,0.365684,20.616,508.869,29.4343,0.0,0.0
2058,514.25,69.5393,73.9379,136.822,105.069,4.00368,0.00264228,0.365963,20.6165,508.719,29.5159,0.0,0.0
2065,516,69.4083,73.8919,133.834,105.057,4.04831,0.00275005,0.36591,20.6163,508.529,29.4147,0.0,0.0
2072,517.75,68.9477,73.6237,134.821,105.032,4.04736,0.00290766,0.365338,20.6171,508.449,29.4147,0.0,0.0
2079,519.5,69.7,73.9182,138.104,105.015,3.98896,0.00295562,0.364759,20.6194,508.209,29.5445,0.0,0.0
2086,521.25,69.372,74.3807,137.136,104.997,4.00985,0.00281905,0.363587,20.6211,508.069,29.4958,0.0,0.0
2093,523,69.7567,74.2432,137.59,104.995,4.04262,0.00253273,0.363108,20.6222,507.898,29.4221,0.0,0.0
2100,524.75,69.0095,73.7881,136.485,104.974,3.98896,0.00229516,0.363493,20.6217,507.748,29.541,0.0,0.0
2107,526.5,69.9875,73.9151,133.026,104.949,3.95714,0.00218553,0.364638,20.6204,507.608,29.6112,0.0,0.0
2114,528.25,69.1226,74.545,137.599,104.931,4.11717,0.00217598,0.36581,20.6182,507.538,29.2515,0.0,0.0
2121,530,69.2485,74.4757,137.344,104.927,4.07206,0.00221185,0.366312,20.6173,507.358,29.3507,0.0,0.0
2128,531.75,69.786,74.535,133.374,104.92,4.07871,0.00226342,0.366116,20.6167,507.158,29.3354,0.0,0.0
2135,533.5,69.8047,74.297,136.993,104.885,4.00985,0.002337,0.365583,20.6176,507.028,29.4862,0.0,0.0
2142,535.25,70.0502,73.9617,134.444,104.883,4.0013,0.00241548,0.365158,20.6181,506.878,29.5053,0.0,0.0
2149,537,69.9571,73.9948,134.553,104.871,4.01032,0.00254973,0.365906,20.6175,506.677,29.4839,0.0,0.0
2156,538.75,69.5615,74.0876,135.084,104.869,3.98136,0.00265085,0.36641,20.6172,506.547,29.5492,0.0,0.0
2163,540.5,69.4989,73.8799,136.759,104.846,4.0013,0.00269133,0.367453,20.617,506.387,29.5021,0.0,0.0
2170,542.25,70.1989,74.0707,133.618,104.825,4.07206,0.00272632,0.367743,20.6169,506.237,29.3419,0.0,0.0
2177,544,69.7845,74.4352,134.579,104.829,4.05116,0.00275882,0.367071,20.6169,506.077,29.3887,0.0,0.0
2184,545.75,70.0204,74.4818,136.789,104.807,3.98896,0.0027998,0.365597,20.6177,505.907,29.5266,0.0,0.0
2191,547.5,69.9458,74.3295,136.012,104.788,4.0241,0.00280152,0.363978,20.6195,505.816,29.4458,0.0,0.0
2198,549.25,70.1354,74.8857,138.397,104.759,4.0089,0.00276929,0.363251,20.6206,505.626,29.4774,0.0,0.0
2205,551,70.2513,74.4502,136.149,104.75,4.02457,0.00270633,0.362266,20.6229,505.496,29.4414,0.0,0.0
2212,552.75,69.8974,74.2959,135.285,104.743,4.12524,0.00264036,0.360839,20.6255,505.356,29.2177,0.0,0.0
2219,554.5,69.8454,74.5386,139.426,104.751,3.98801,0.00261919,0.35934,20.6271,505.176,29.524,0.0,0.0
2226,556.25,70.0183,74.7481,138.75,104.724,3.99133,0.00259056,0.359248,20.6266,505.046,29.5141,0.0,0.0
2233,558,69.6457,74.6426,133.77,104.702,4.03217,0.00253933,0.35926,20.6263,504.856,29.4202,0.0,0.0
2240,559.75,69.9074,74.6709,138.385,104.705,4.1034,0.00251798,0.358821,20.6269,504.766,29.2623,0.0,0.0
2247,561.5,69.9243,75.1205,135.247,104.687,4.05971,0.00250343,0.357613,20.6277,504.645,29.3574,0.0,0.0
2254,563.25,69.9913,74.4777,136.913,104.678,4.026,0.0024416,0.354684,20.6305,504.525,29.432,0.0,0.0
2261,565,69.598,74.5479,138.495,104.657,4.04404,0.00240449,0.351677,20.6331,504.315,29.3898,0.0,0.0
2268,566.75,70.1046,74.5205,137.813,104.658,3.97281,0.00240619,0.351416,20.6343,504.185,29.5504,0.0,0.0
2275,568.5,70.0582,74.3246,134.002,104.668,4.0958,0.00241118,0.353991,20.6325,504.055,29.2759,0.0,0.0
2282,570.25,69.8999,74.2983,136.84,104.651,4.04499,0.00240424,0.35547,20.6312,503.915,29.3871,0.0,0.0
2289,572,69.7587,74.4241,139.409,104.63,3.96426,0.00239139,0.354405,20.6313,503.745,29.5674,0.0,0.0
2296,573.75,69.3572,74.8454,140.304,104.621,4.03359,0.00237043,0.351484,20.6339,503.645,29.41,0.0,0.0
2303,575.5,69.6863,74.362,138.887,104.611,4.08868,0.00240054,0.348105,20.6375,503.514,29.2867,0.0,0.0
2310,577.25,69.4572,74.3544,141.156,104.646,4.00273,0.00246096,0.344494,20.642,503.364,29.4816,0.0,0.0
2317,579,69.7388,74.347,136.323,104.663,4.03312,0.00244498,0.341887,20.6454,503.194,29.4148,0.0,0.0
2324,580.75,69.3156,74.1117,138.654,104.663,4.05164,0.00235431,0.339996,20.648,503.084,29.3733,0.0,0.0
2331,582.5,69.164,74.2153,137.919,104.685,4.07871,0.00227474,0.337495,20.6498,502.974,29.3151,0.0,0.0
2338,584.25,69.0082,74.3471,140.351,104.7,3.98278,0.00225321,0.335422,20.6528,502.844,29.5314,0.0,0.0
2345,586,68.8965,74.0873,137.332,104.718,4.02884,0.00229825,0.333079,20.6565,502.714,29.429,0.0,0.0
2352,587.75,69.0904,74.6067,135.746,104.708,4.02267,0.00234504,0.329814,20.6601,502.584,29.4421,0.0,0.0
2359,589.5,68.8678,73.7346,141.482,104.722,4.03787,0.00236109,0.326326,20.664,502.474,29.4092,0.0,0.0
2366,591.25,69.3237,73.655,141.288,104.723,4.06019,0.00228667,0.323741,20.6677,502.343,29.3595,0.0,0.0
2373,593,68.6469,73.414,139.166,104.751,4.11147,0.00220588,0.320169,20.6733,502.223,29.2485,0.0,0.0
2380,594.75,68.5957,73.3159,139.616,104.746,4.06209,0.002279,0.317012,20.6766,502.113,29.3573,0.0,0.0
2387,596.5,68.1977,73.7028,141.028,104.737,4.07016,0.00243052,0.314553,20.68,502.003,29.3385,0.0,0.0
2394,598.25,68.7725,72.7931,141.629,104.762,3.9937,0.00249731,0.313001,20.6822,501.903,29.512,0.0,0.0
2401,600,68.1338,72.8103,143.974,104.781,4.06399,0.00252273,0.310578,20.6841,501.803,29.356,0.0,0.0
2408,601.75,68.0893,72.9183,144.205,104.797,4.13949,0.00255814,0.306856,20.687,501.653,29.1912,0.0,0.0
2415,603.5,68.1572,72.6284,140.862,104.794,4.06304,0.00260168,0.302789,20.6932,501.523,29.3592,0.0,0.0
2422,605.25,67.3147,73.1254,143.681,104.797,3.97708,0.00267342,0.298199,20.6995,501.463,29.5526,0.0,0.0
2429,607,67.6173,72.3866,141.743,104.814,4.03454,0.00277451,0.29345,20.7052,501.373,29.4246,0.0,0.0
2436,608.75,67.2146,72.015,139.622,104.84,4.04262,0.00282411,0.289857,20.7089,501.222,29.4088,0.0,0.0
2443,610.5,67.5011,72.266,139.027,104.841,4.01745,0.00290644,0.286536,20.7128,501.182,29.4653,0.0,0.0
2450,612.25,67.395,71.9562,143.807,104.853,3.93387,0.00304043,0.283728,20.7162,501.022,29.6562,0.0,0.0
2457,614,67.2235,72.1735,143.094,104.859,3.99703,0.00312084,0.280293,20.7204,500.952,29.5128,0.0,0.0
2464,615.75,66.8227,71.8067,138.718,104.883,3.9937,0.00308952,0.276459,20.7251,500.882,29.5224,0.0,0.0
2471,617.5,66.5821,71.4109,142.926,104.888,3.96284,0.00292408,0.273006,20.7296,500.772,29.5929,0.0,0.0
2478,619.25,66.3583,70.9996,141.001,104.877,4.06304,0.00270894,0.269941,20.7336,500.662,29.3664,0.0,0.0
2485,621,66.3591,71.3978,141.134,104.884,3.9918,0.00263966,0.267046,20.737,500.602,29.5268,0.0,0.0
2492,622.75,66.4346,70.8381,143.34,104.9,4.05116,0.00270281,0.264079,20.7402,500.532,29.3948,0.0,0.0
2499,624.5,66.0767,70.8869,140.692,104.915,4.04024,0.00284909,0.260733,20.744,500.442,29.4206,0.0,0.0
2506,626.25,65.6316,70.6167,140.181,104.905,4.01745,0.00297627,0.256156,20.7491,500.342,29.4708,0.0,0.0
2513,628,65.8997,69.9736,139.458,104.91,4.00273,0.00305801,0.250955,20.7539,500.282,29.5044,0.0,0.0
2520,629.75,64.9999,69.7216,140.998,104.923,4.0146,0.00317178,0.246533,20.7588,500.221,29.4787,0.0,0.0
2527,631.5,64.8792,69.4324,144.29,104.97,4.07016,0.00320625,0.24332,20.7624,500.181,29.3586,0.0,0.0
2534,633.25,64.6521,69.3566,140.029,104.946,3.91772,0.00327883,0.238374,20.769,500.071,29.7013,0.0,0.0
2541,635,64.4578,68.9732,143.439,104.947,4.03549,0.00346575,0.234134,20.7744,500.031,29.4339,0.0,0.0
2548,636.75,64.1814,68.6825,142.51,104.954,4.00653,0.0036957,0.229446,20.7789,499.961,29.4995,0.0,0.0
2555,638.5,63.7703,68.4332,143.139,104.976,3.99703,0.00389348,0.224921,20.784,499.901,29.5229,0.0,0.0
2562,640.25,63.6853,68.655,140.517,104.979,4.04072,0.00412528,0.220565,20.7899,499.841,29.4249,0.0,0.0
2569,642,63.2743,68.1154,142.846,104.985,3.98611,0.00437645,0.216104,20.7953,499.751,29.5484,0.0,0.0
2576,643.75,63.8873,67.9808,140.802,104.977,3.97328,0.00461151,0.211808,20.8003,499.711,29.5768,0.0,0.0
2583,645.5,63.1609,67.3021,141.252,104.995,3.98848,0.00472283,0.206939,20.8059,499.681,29.5439,0.0,0.0
2590,647.25,62.6068,66.712,144.24,105.009,4.00083,0.00478727,0.202172,20.8119,499.621,29.5172,0.0,0.0
2597,649,61.916,66.9043,139.664,105.006,4.03027,0.00488124,0.196942,20.8178,499.581,29.4507,0.0,0.0
2604,650.75,62.3264,66.4907,145.632,104.999,4.01602,0.00505882,0.192415,20.8226,499.581,29.4821,0.0,0.0
2611,652.5,61.2875,66.3547,141.771,105.013,4.03597,0.00543753,0.188151,20.8283,499.521,29.4385,0.0,0.0
2618,654.25,61.2176,65.8238,144.382,105.038,4.0089,0.00592307,0.184816,20.8318,499.491,29.5014,0.0,0.0
2625,656,60.9839,65.357,147.229,105.038,3.95951,0.00631577,0.181335,20.8365,499.431,29.6135,0.0,0.0
2632,657.75,60.4533,64.5291,146.501,105.035,4.01555,0.00658464,0.177942,20.8412,499.431,29.4862,0.0,0.0
2639,659.5,60.3481,64.3374,145.832,105.037,3.99893,0.0067417,0.174197,20.8455,499.371,29.5239,0.0,0.0
2646,661.25,59.5589,64.1311,144.629,105.043,3.96996,0.00693259,0.170934,20.8496,499.361,29.5901,0.0,0.0
2653,663,59.3988,64.0522,146.132,105.063,4.05449,0.00716559,0.168211,20.8537,499.341,29.4015,0.0,0.0
2660,664.75,59.3325,63.6216,145.026,105.045,4.00795,0.00739415,0.166677,20.8559,499.321,29.5042,0.0,0.0
2667,666.5,58.8059,63.1825,146.519,105.055,4.026,0.00761761,0.165357,20.8582,499.331,29.4645,0.0,0.0
2674,668.25,58.5183,62.8574,146.113,105.058,3.95999,0.00790276,0.164073,20.8604,499.271,29.6141,0.0,0.0
2681,670,58.4323,61.9263,142.688,105.077,4.0108,0.00815892,0.163115,20.8615,499.251,29.5005,0.0,0.0
2688,671.75,57.8188,62.0825,149.372,105.071,3.96094,0.00829317,0.162351,20.8621,499.191,29.613,0.0,0.0
2695,673.5,57.8942,61.7961,147.944,105.072,3.94907,0.00827769,0.161538,20.8626,499.221,29.6402,0.0,0.0
2702,675.25,57.4806,61.3671,147.733,105.076,3.97756,0.00826743,0.160766,20.8628,499.171,29.5756,0.0,0.0
2709,677,57.3712,60.5696,146.293,105.087,4.00653,0.00831715,0.160161,20.8634,499.141,29.5111,0.0,0.0
2716,678.75,57.1006,60.9466,144.096,105.094,4.0203,0.00843516,0.159719,20.8639,499.13,29.4806,0.0,0.0
2723,680.5,56.8487,60.3554,145.095,105.08,4.00985,0.0086075,0.159357,20.8641,499.12,29.5029,0.0,0.0
2730,682.25,56.5029,60.7486,149.873,105.09,3.93862,0.00874295,0.158904,20.8642,499.12,29.6657,0.0,0.0
2737,684,56.3946,60.0183,148.982,105.088,3.96141,0.00885811,0.158371,20.8645,499.1,29.6134,0.0,0.0
2744,685.75,55.3496,59.5817,142.659,105.096,4.05734,0.00891176,0.15774,20.8661,499.04,29.3979,0.0,0.0
2751,687.5,55.6359,58.702,142.705,105.102,4.02837,0.00881195,0.1575,20.8662,498.99,29.4632,0.0,0.0
2758,689.25,54.8935,58.6114,144.097,105.099,3.97661,0.0086557,0.157632,20.8657,498.99,29.5797,0.0,0.0
2765,691,54.5301,58.5858,143.601,105.098,4.05164,0.00845536,0.157961,20.8654,499,29.4108,0.0,0.0
2772,692.75,54.6669,58.3221,146.392,105.101,4.00463,0.00836262,0.158188,20.8652,498.98,29.5165,0.0,0.0
2779,694.5,54.5853,57.9006,146.844,105.116,3.94574,0.00841275,0.158426,20.865,498.92,29.6516,0.0,0.0
2786,696.25,54.1866,57.8839,143.015,105.096,3.98088,0.00845563,0.1585,20.8646,498.98,29.5698,0.0,0.0
2793,698,54.4017,57.5156,145.777,105.102,3.97566,0.00845845,0.158297,20.8644,498.98,29.5821,0.0,0.0
2800,699.75,54.0848,57.5216,148.895,105.113,3.96664,0.00853195,0.157618,20.8653,498.92,29.6037,0.0,0.0
2807,701.5,53.688,56.392,143.386,105.127,4.05211,0.00870898,0.157364,20.8663,498.91,29.4122,0.0,0.0
2814,703.25,53.658,56.3636,142.455,105.103,3.9937,0.00886474,0.157545,20.8668,498.84,29.5414,0.0,0.0
2821,705,53.6156,56.9294,145.659,105.098,3.96379,0.00894162,0.157443,20.867,498.79,29.6088,0.0,0.0
2828,706.75,53.5082,56.4776,147.135,105.102,4.0032,0.00900533,0.156782,20.8671,498.77,29.5198,0.0,0.0
2835,708.5,53.296,56.1612,146.212,105.11,3.94289,0.00903308,0.156314,20.8672,498.72,29.6576,0.0,0.0
2842,710.25,53.1942,56.1657,145.367,105.096,3.94574,0.008989,0.156007,20.8672,498.76,29.6499,0.0,0.0
2849,712,53.2736,56.4968,143.935,105.095,3.95097,0.00886344,0.155469,20.8684,498.73,29.6379,0.0,0.0
2856,713.75,53.5082,56.2817,146.329,105.077,3.93719,0.00870683,0.154721,20.869,498.7,29.6679,0.0,0.0
2863,715.5,52.6318,55.812,144.177,105.079,3.95097,0.00871346,0.153475,20.6966,498.67,29.6365,0.0,0.0
2870,717.25,53.0649,55.7905,146.375,105.074,3.89493,0.00879079,0.151813,20.5261,498.59,29.7651,0.0,0.0
2877,719,52.5017,55.0557,151.271,105.065,3.98041,0.00883431,0.150719,20.4446,32.9597,29.5682,0.0,0.0
2884,720.75,52.3127,55.2975,148.966,105.052,3.84174,0.00880651,0.150203,20.4056,-3.51317,29.8874,0.0,0.0
2891,722.5,51.9638,55.0464,155.11,105.041,3.78998,0.00875592,0.149883,20.5523,-3.51317,30.009,0.0,0.0
2898,724.25,51.5475,54.6677,152.687,105.045,3.8237,0.00875503,0.149813,20.708,-3.47313,29.9293,0.0,0.0
2905,726,51.4047,54.9323,153.032,105.03,3.80708,0.00881307,0.149842,20.7825,-3.52318,29.9674,0.0,0.0
2912,727.75,51.1283,54.1151,151.915,105.009,3.8047,0.00890201,0.149794,20.8181,-3.49315,29.9712,0.0,0.0
2919,729.5,50.2518,53.218,150.757,104.994,3.8142,0.00894973,0.149784,20.8352,-3.48314,29.9474,0.0,0.0
2926,731.25,50.4585,52.9595,151.487,104.977,3.78666,0.0089451,0.149747,20.8433,-3.5432,30.0114,0.0,0.0
2933,733,49.6536,52.6092,152.852,104.965,3.75912,0.00892249,0.149796,20.8472,-3.5432,30.0763,0.0,0.0
2940,734.75,49.3926,52.4061,153.819,104.964,3.74297,0.008796,0.149927,20.8491,-3.46313,30.1151,0.0,0.0
2947,736.5,48.8985,51.5896,153.232,104.927,3.78523,0.00860338,0.149861,20.8499,-3.4331,30.0105,0.0,0.0
2954,738.25,48.1949,51.1445,151.259,104.909,3.79806,0.0085046,0.149833,20.8503,-3.5432,29.9784,0.0,0.0
2961,740,47.9827,50.6549,156.856,104.892,3.71163,0.00854742,0.149982,20.8506,-3.52318,30.1849,0.0,0.0
2968,741.75,47.1174,50.3605,155.075,104.859,3.78523,0.00858094,0.150084,20.8507,-3.55321,30.0047,0.0,0.0
2975,743.5,46.9699,49.4249,151.586,104.832,3.73347,0.00857664,0.150014,20.8507,-3.57323,30.1267,0.0,0.0
2982,745.25,46.699,49.4726,150.795,104.806,3.72207,0.00862512,0.150119,20.8512,-3.50316,30.1521,0.0,0.0
2989,747,45.9861,48.702,152.955,104.781,3.76244,0.00875021,0.150309,20.8522,-3.56322,30.0525,0.0,0.0
2996,748.75,46.1606,48.3344,158.2,104.763,3.73157,0.00887358,0.15025,20.8527,-3.49315,30.1254,0.0,0.0
3003,750.5,45.3035,48.3065,154.163,104.732,3.71353,0.0088761,0.15014,20.8529,-3.50316,30.1665,0.0,0.0
3010,752.25,45.0857,48.0138,155.698,104.7,3.7045,0.00885131,0.15015,20.8531,-3.56322,30.1857,0.0,0.0
3017,754,44.8005,47.0314,157.288,104.679,3.71733,0.00889213,0.150137,20.852,-3.5432,30.1527,0.0,0.0
3024,755.75,44.2147,47.3121,153.934,104.642,3.68171,0.00893979,0.150117,20.852,-3.56322,30.2364,0.0,0.0
3031,757.5,44.4054,47.1023,152.687,104.584,3.64752,0.00890033,0.150179,20.8513,-3.58323,30.3157,0.0,0.0
3038,759.25,43.8998,46.2937,155.307,104.533,3.72635,0.00882927,0.150116,20.8511,-3.53319,30.1182,0.0,0.0
3045,761,43.1935,45.7788,157.048,104.507,3.67174,0.0087992,0.150103,20.8509,-3.5432,30.2493,0.0,0.0
3052,762.75,43.1116,45.182,156.504,104.465,3.67649,0.0088092,0.150233,20.8508,-3.50316,30.2339,0.0,0.0
3059,764.5,43.1815,45.1895,155.355,104.415,3.64277,0.00881169,0.150405,20.8508,-3.50316,30.3129,0.0,0.0
3066,766.25,42.4942,44.9874,154.742,104.402,3.7273,0.00875668,0.150286,20.8508,-3.53319,30.1045,0.0,0.0
3073,768,42.4119,44.5605,158.849,104.382,3.74962,0.00867557,0.150393,20.8508,-3.50316,30.0489,0.0,0.0
3080,769.75,42.2856,44.3396,157.227,104.359,3.70213,0.00857594,0.150516,20.8495,-3.51317,30.162,0.0,0.0
3087,771.5,41.5787,43.8848,158.453,104.338,3.72113,0.00851974,0.150489,20.8489,-3.49315,30.114,0.0,0.0
3094,773.25,41.7238,43.5782,157.449,104.323,3.66414,0.00856103,0.150465,20.8487,-3.51317,30.2521,0.0,0.0
3101,775,41.5575,43.1506,158.158,104.297,3.6138,0.0086801,0.150581,20.8485,-3.50316,30.3748,0.0,0.0
3108,776.75,40.9934,42.8593,153.861,104.283,3.6461,0.00879933,0.150695,20.8485,-3.5432,30.2932,0.0,0.0
3115,778.5,41.5945,42.4976,153.835,104.273,3.65797,0.00892027,0.150699,20.848,-3.50316,30.263,0.0,0.0
3122,780.25,40.4212,42.7699,153.962,104.241,3.6233,0.00899348,0.150702,20.8478,-3.5432,30.3462,0.0,0.0
3129,782,40.8195,42.2856,154.051,104.236,3.64847,0.00904771,0.15059,20.8476,-3.5432,30.2832,0.0,0.0
3136,783.75,40.3138,42.1823,152.954,104.253,3.63422,0.00909926,0.150575,20.8476,-3.5432,30.3201,0.0,0.0
3143,785.5,40.2101,41.8615,156.297,104.257,3.69928,0.00909874,0.1506,20.8476,-3.53319,30.1601,0.0,0.0
3150,787.25,40.0616,41.8011,155.563,104.256,3.65892,0.0089742,0.150646,20.8475,-3.55321,30.2591,0.0,0.0
3157,789,39.4362,41.6307,152.709,104.267,3.6423,0.00876869,0.150721,20.848,-3.59324,30.3012,0.0,0.0
3164,790.75,39.5869,40.9071,157.138,104.265,3.67126,0.00856012,0.150689,20.8482,-3.5432,30.2295,0.0,0.0
3171,792.5,39.5332,40.9697,157.211,104.27,3.63565,0.00844797,0.150746,20.8481,-3.53319,30.318,0.0,0.0
3178,794.25,39.0383,40.827,160.07,104.273,3.60953,,0.150964,,-3.5432,30.3834,0.0,0.0
3185,796,38.9781,40.2006,156.141,104.268,3.60621,,0.151146,,-3.57323,30.3913,0.0,0.0
3192,797.75,38.7074,40.1718,155.872,104.282,3.6309,,,,-3.55321,30.3308,0.0,0.0
3199,799.5,38.747,39.6657,154.271,104.273,3.66936,,,,-3.55321,30.2349,0.0,0.0
3206,801.25,39.1494,39.4313,155.621,104.286,3.66319,,,,-3.51317,30.2512,0.0,0.0
3213,803,38.3655,39.2398,152.765,104.28,3.6214,,,,-3.53319,30.3543,0.0,0.0
3219,804.5,38.5211,39.531,157.694,104.275,3.57486,,,,-3.51317,30.4707,0.0,0.0