File: 01_Data/Pine_Siding/Cone/Pine_Siding_Cone_HF25Scan_221004_R1.csv
Names,Time,Stack TC,Smoke TC,Exh Press,Smoke Comp,Smoke Meas,CO Meter,CO2 Meter,O2 Meter,Sample Mass,Ext Coeff,Start Test,Flame Verif
Chan Gain,,500,500,1,1,1,1,1,1,1,1,1.0,1.0
Offset,,0,0,0.13918,0,0,0,0,0,0,0,0.0,0.0
Gain,,1,1,25.011,14.0162,15.5607,1,1,1,1.0009,1.02981,1.0,1.0
Units,sec,C,C,Pa,%,%,%,%,%,g,/m,,
Baseline,,22.0776,22.8906,161.972,104.646,4.20137,0.00075447,0.0885314,20.9523,-2.65453,29.0441,,
12,2.75,20.1867,21.0657,162.939,104.674,4.15706,0.000822772,0.0985481,20.94,556.572,29.1422,0.0,0.0
24,5.75,20.2292,20.8183,164.529,104.474,4.1808,0.000690881,0.0972709,20.9414,556.472,29.0736,0.0,0.0
36,8.75,20.3439,21.0513,160.212,104.237,4.14994,0.000645621,0.0961955,20.9429,556.442,29.12,0.0,0.0
48,11.75,19.9312,21.0214,160.63,104.031,4.18033,0.000684383,0.094869,20.9452,556.392,29.0362,0.0,0.0
60,14.75,20.3536,21.4359,163.75,104.075,4.1053,0.000785409,0.0932287,20.9474,556.382,29.2036,0.0,0.0
72,17.75,20.4854,20.8741,166.168,104.132,4.15279,0.000873431,0.0918294,20.9485,556.332,29.1047,0.0,0.0
84,20.75,20.2845,21.2424,162.663,104.209,4.19315,0.000802688,0.0909932,20.9502,556.282,29.0239,0.0,0.0
96,23.75,20.2382,21.0323,161.681,104.264,4.15231,0.000594128,0.0902883,20.9529,556.282,29.1171,0.0,0.0
108,26.75,20.9272,21.0076,161.95,104.35,4.15706,0.000563324,0.0894661,20.9538,556.262,29.1142,0.0,0.0
120,29.75,20.3033,20.8332,163.143,104.408,4.16276,0.000712943,0.0888131,20.9541,556.212,29.1069,0.0,0.0
132,32.75,20.0003,21.3333,160.739,104.496,4.19553,0.000877428,0.0882477,20.9541,556.162,29.0437,0.0,0.0
144,35.75,20.4143,21.4859,159.885,104.556,4.15469,0.000907024,0.0883739,20.9542,556.152,29.1372,0.0,0.0
156,38.75,20.528,21.1261,162.668,104.619,4.16276,0.000892567,0.0889592,20.9542,556.092,29.1251,0.0,0.0
168,41.75,20.5597,21.484,158.982,104.637,4.15136,0.00072482,0.0892319,20.9542,556.072,29.1515,0.0,0.0
180,44.75,20.2682,20.9271,161.451,104.625,4.14661,0.000730212,0.0892266,20.9539,556.032,29.1608,0.0,0.0
192,47.75,21.2555,21.3451,159.437,104.579,4.13142,0.00102531,0.0891059,20.9539,556.002,29.19,0.0,0.0
204,50.75,20.9843,21.787,160.844,104.51,4.14519,0.00110404,0.0888368,20.9538,555.972,29.1539,0.0,0.0
216,53.75,20.7346,21.7984,159.646,104.412,4.12145,0.00101112,0.0887584,20.9538,555.892,29.1973,0.0,0.0
228,56.75,20.6872,21.2928,161.638,104.313,4.15754,0.000946795,0.0886392,20.9538,555.852,29.11,0.0,0.0
240,59.75,20.7096,21.8023,162.147,104.181,4.06636,0.00110266,0.0885399,20.9538,555.812,29.2989,0.0,0.0
252,62.75,21.0755,21.6233,161.176,104.037,4.14234,0.00119929,0.0887491,20.9538,555.752,29.1192,0.0,0.0
264,65.75,20.653,21.4832,162.014,103.897,4.1034,0.00118359,0.0891191,20.9538,555.722,29.1923,0.0,0.0
276,68.75,21.1092,22.1089,161.102,103.752,4.09723,0.00125819,0.0891617,20.9551,555.652,29.1933,0.0,0.0
288,71.75,20.9111,22.1916,161.876,103.61,4.07348,0.00165607,0.0913279,20.9515,555.601,29.2334,0.0,0.0
300,74.75,21.5437,21.932,151.078,103.48,4.61104,0.00240859,0.145575,20.877,555.391,28.1023,0.0,1.0
312,77.75,23.6054,23.9352,140.433,103.373,4.81619,0.00327538,0.288993,20.689,554.901,27.6998,0.0,1.0
324,80.75,26.4163,25.6146,135.882,103.323,4.71457,0.00411453,0.430512,20.519,554.44,27.8881,0.0,0.0
336,83.75,29.5355,28.5101,138.47,103.29,4.8765,0.00460686,0.513268,20.427,553.97,27.5801,0.0,0.0
348,86.75,31.9124,31.4724,143.072,103.293,4.69415,0.0046858,0.537611,20.4049,553.55,27.9247,0.0,0.0
360,89.75,33.9009,32.9383,141.55,103.322,4.60392,0.00452413,0.511288,20.4356,553.169,28.1025,0.0,0.0
372,92.75,34.1645,35.5959,147.779,103.408,4.50372,0.00423097,0.472087,20.4895,552.819,28.3088,0.0,0.0
384,95.75,36.3994,35.5976,149.293,103.508,4.62196,0.00386528,0.433491,20.5363,552.489,28.0834,0.0,0.0
396,98.75,36.9499,36.4715,147.221,103.669,4.52651,0.00359784,0.400093,20.581,552.238,28.2859,0.0,0.0
408,101.75,37.4558,37.5335,147.452,103.831,4.52224,0.00327573,0.371201,20.6178,551.978,28.3086,0.0,0.0
420,104.75,37.4342,37.9136,145.166,104.04,4.47238,0.00299297,0.34951,20.6469,551.688,28.427,0.0,0.0
432,107.75,37.5737,38.4665,148.727,104.249,4.4795,0.00275627,0.331682,20.6656,551.488,28.4307,0.0,0.0
444,110.75,37.8346,38.4452,144.868,104.454,4.46478,0.0025328,0.316558,20.6821,551.208,28.4782,0.0,0.0
456,113.75,37.5052,38.9666,152.654,104.643,4.47238,0.00244357,0.30235,20.6995,551.037,28.4792,0.0,0.0
468,116.75,37.545,38.9169,155.328,104.851,4.46003,0.00239612,0.290234,20.7126,550.787,28.5221,0.0,0.0
480,119.75,37.3083,39.1787,152.158,104.99,4.45053,0.00228154,0.282236,20.7241,550.637,28.5533,0.0,0.0
492,122.75,37.0538,39.135,152.906,105.155,4.46051,0.00215288,0.274282,20.7318,550.437,28.5472,0.0,0.0
504,125.75,36.7381,39.3957,153.28,105.235,4.47,0.0020337,0.267628,20.7402,550.197,28.5349,0.0,0.0
516,128.75,36.8691,39.1175,151.304,105.32,4.47523,0.00207256,0.262357,20.7463,550.036,28.5316,0.0,0.0
528,131.75,36.6576,39.0932,147.934,105.34,4.46858,0.00224498,0.25685,20.7534,549.836,28.5468,0.0,0.0
540,134.75,36.5278,38.9427,154.466,105.339,4.46098,0.00232443,0.251253,20.7616,549.676,28.5621,0.0,0.0
552,137.75,36.3134,38.9481,151.184,105.304,4.43391,0.00212028,0.246191,20.7684,549.456,28.6141,0.0,0.0
564,140.75,36.1501,38.3673,151.25,105.258,4.44056,0.00197043,0.241696,20.7753,549.296,28.5966,0.0,0.0
576,143.75,36.3141,38.2161,155.606,105.189,4.4776,0.00191549,0.236672,20.7807,549.146,28.5156,0.0,0.0
588,146.75,35.8188,38.598,154.046,105.095,4.47713,0.00177837,0.232406,20.7869,549.005,28.5085,0.0,0.0
600,149.75,35.4489,38.4947,153.287,104.992,4.41064,0.0017379,0.228653,20.7902,548.835,28.6348,0.0,0.0
612,152.75,35.3946,37.8075,153.79,104.894,4.40115,0.00176412,0.225546,20.7937,548.655,28.6458,0.0,0.0
624,155.75,35.1409,37.7963,154.798,104.8,4.40447,0.00196478,0.223899,20.7954,548.495,28.6309,0.0,0.0
636,158.75,34.4471,38.0692,152.945,104.678,4.38928,0.00241865,0.222012,20.7969,548.365,28.6516,0.0,0.0
648,161.75,34.6241,37.4317,152.299,104.59,4.41634,0.00240767,0.219023,20.8003,548.185,28.5885,0.0,0.0
660,164.75,34.1659,37.2811,156.071,104.502,4.44294,0.00234166,0.215925,20.8044,548.045,28.5266,0.0,0.0
672,167.75,33.6202,37.2793,153.344,104.445,4.39925,0.00247646,0.2129,20.8066,547.914,28.611,0.0,0.0
684,170.75,33.3294,37.1046,152.202,104.616,4.42774,0.00259061,0.212012,20.8085,547.734,28.5675,0.0,0.0
696,173.75,34.1272,36.6116,153.142,104.778,4.41349,0.00250505,0.211042,20.809,547.654,28.6105,0.0,0.0
708,176.75,33.8681,36.3278,153.359,104.884,4.40827,0.00247814,0.210484,20.8091,547.464,28.6304,0.0,0.0
720,179.75,33.6721,35.9587,155.199,104.947,4.44863,0.00270097,0.209679,20.8108,547.284,28.5534,0.0,0.0
732,182.75,33.0786,36.2641,157.63,104.969,4.43819,0.00291089,0.208734,20.812,547.164,28.5765,0.0,0.0
744,185.75,33.6032,35.679,155.157,104.951,4.45481,0.00297298,0.207545,20.8145,547.034,28.5413,0.0,0.0
756,188.75,33.4921,35.6654,155.968,104.903,4.43296,0.00292098,0.206826,20.8155,546.854,28.5815,0.0,0.0
768,191.75,32.8629,35.9009,156.129,104.82,4.45101,0.00290103,0.207488,20.8145,546.703,28.5376,0.0,0.0
780,194.75,33.05,35.2779,161.325,104.692,4.40542,0.00322842,0.207788,20.8136,546.553,28.6196,0.0,0.0
792,197.75,32.2461,35.9249,151.875,104.538,4.41254,0.00332724,0.207418,20.8133,546.423,28.5917,0.0,0.0
804,200.75,32.4921,35.4025,149.522,104.368,4.3983,0.0032162,0.20656,20.8132,546.253,28.6063,0.0,0.0
816,203.75,32.5696,35.0262,155.347,104.174,4.35793,0.0032345,0.205365,20.8147,546.123,28.6727,0.0,0.0
828,206.75,32.1495,35.1821,154.718,104.074,4.39022,0.00329545,0.204579,20.8157,545.983,28.5974,0.0,0.0
840,209.75,32.1169,34.8516,155.749,104.092,4.36173,0.00344145,0.204268,20.816,545.863,28.6578,0.0,0.0
852,212.75,31.9586,34.7986,152.246,104.147,4.41967,0.00358695,0.204359,20.8161,545.672,28.5433,0.0,0.0
864,215.75,31.8972,35.0263,156.527,104.185,4.38785,0.0037066,0.20441,20.8161,545.522,28.6119,0.0,0.0
876,218.75,31.8814,34.1838,153.619,104.267,4.37835,0.00373436,0.204048,20.8161,545.402,28.6386,0.0,0.0
888,221.75,31.6076,34.5099,158.263,104.306,4.41064,0.0036103,0.203539,20.8161,545.262,28.5755,0.0,0.0
900,224.75,31.3713,34.7296,156.614,104.376,4.40067,0.00380225,0.203497,20.8166,545.112,28.602,0.0,0.0
912,227.75,31.9357,34.5931,154.718,104.429,4.39877,0.00415287,0.204242,20.8168,544.972,28.6105,0.0,0.0
924,230.75,32.1487,33.8077,157.539,104.478,4.38073,0.00404116,0.204289,20.8168,544.792,28.6519,0.0,0.0
936,233.75,31.8209,33.48,152.601,104.551,4.45433,0.00389481,0.204284,20.8165,544.682,28.5077,0.0,0.0
948,236.75,31.7921,34.1606,152.745,104.583,4.40067,0.00402206,0.204598,20.8161,544.511,28.6199,0.0,0.0
960,239.75,31.3761,34.0333,154.702,104.608,4.43059,0.00414109,0.204152,20.816,544.371,28.5609,0.0,0.0
972,242.75,31.5194,33.9755,156.687,104.613,4.42727,0.00431008,0.204144,20.8153,544.231,28.5682,0.0,0.0
984,245.75,31.806,34.215,153.535,104.606,4.39877,0.00417711,0.204924,20.8141,544.071,28.6258,0.0,0.0
996,248.75,31.5025,33.9376,154.182,104.57,4.44436,0.0038369,0.205499,20.8137,543.901,28.5296,0.0,0.0
1008,251.75,31.7964,33.8293,158.412,104.518,4.41587,0.00376675,0.205745,20.8138,543.761,28.5832,0.0,0.0
1020,254.75,31.9259,33.8296,156.088,104.449,4.38168,0.00397692,0.206714,20.8126,543.621,28.6475,0.0,0.0
1032,257.75,31.8592,33.9624,158.449,104.388,4.44958,0.00412515,0.20712,20.8129,543.471,28.5033,0.0,0.0
1044,260.75,31.6097,33.8573,158.591,104.276,4.35271,0.00424334,0.207505,20.813,543.32,28.6924,0.0,0.0
1056,263.75,31.7474,33.6245,152.355,104.165,4.39735,0.00410608,0.207611,20.812,543.17,28.5906,0.0,0.0
1068,266.75,31.5767,33.9982,153.357,104.05,4.40732,0.00391947,0.208047,20.8111,542.99,28.5602,0.0,0.0
1080,269.75,31.5762,33.8326,154.338,103.945,4.41872,0.00390159,0.208314,20.8108,542.89,28.5277,0.0,0.0
1092,272.75,31.8045,33.698,154.054,103.841,4.35746,0.00392018,0.207868,20.8111,542.76,28.6448,0.0,0.0
1104,275.75,31.7565,33.5646,153.998,103.738,4.3774,0.0040253,0.207909,20.8114,542.56,28.5946,0.0,0.0
1116,278.75,31.6615,33.7231,152.512,103.642,4.37123,0.00403439,0.208747,20.8095,542.42,28.599,0.0,0.0
1128,281.75,31.3759,34.2789,157.826,103.547,4.41207,0.00418089,0.209712,20.8089,542.279,28.5066,0.0,0.0
1140,284.75,32.2247,33.6183,157.393,103.462,4.37645,0.00402306,0.20989,20.8091,542.119,28.5724,0.0,0.0
1152,287.75,31.8023,33.6763,155.148,103.404,4.35983,0.00373644,0.208928,20.8104,541.979,28.6018,0.0,0.0
1164,290.75,31.9362,33.8114,157.133,103.342,4.37693,0.00375473,0.208666,20.8121,541.819,28.561,0.0,0.0
1176,293.75,31.8647,33.7655,151.741,103.296,4.4002,0.00392871,0.20823,20.8129,541.639,28.509,0.0,0.0
1188,296.75,31.7532,33.6707,152.422,103.273,4.42157,0.0038402,0.208041,20.8129,541.509,28.4633,0.0,0.0
1200,299.75,31.8836,33.3527,154.56,103.246,4.33466,0.0037519,0.207491,20.8128,541.379,28.6403,0.0,0.0
1212,302.75,31.8093,33.6607,152.551,103.248,4.39877,0.00394785,0.207694,20.8128,541.218,28.5078,0.0,0.0
1224,305.75,31.8142,33.7211,155.772,103.279,4.41492,0.00396688,0.207749,20.8128,541.038,28.4774,0.0,0.0
1236,308.75,32.0739,33.5906,157.761,103.314,4.4002,0.00384243,0.207547,20.8132,540.908,28.5106,0.0,0.0
1248,311.75,32.1849,33.1976,155.521,103.357,4.42916,0.0038052,0.207482,20.8121,540.748,28.4552,0.0,0.0
1260,314.75,31.9272,33.3197,155.05,103.429,4.43106,0.00400506,0.20852,20.8116,540.618,28.4575,0.0,0.0
1272,317.75,32.2585,33.6969,155.222,103.536,4.35746,0.00396654,0.209292,20.8114,540.458,28.6182,0.0,0.0
1284,320.75,31.9665,33.2629,152.88,103.64,4.41064,0.00367348,0.209498,20.8112,540.298,28.5177,0.0,0.0
1296,323.75,31.934,33.3834,159.737,103.771,4.41302,0.00364157,0.209331,20.8101,540.138,28.5243,0.0,0.0
1308,326.75,31.8088,33.6677,153.406,103.892,4.42252,0.00365919,0.210141,20.8107,539.987,28.5154,0.0,0.0
1320,329.75,32.061,33.5072,155.508,104.06,4.50277,0.00360897,0.209412,20.8108,539.857,28.3675,0.0,0.0
1332,332.75,31.7199,33.7168,153.968,104.181,4.39355,0.0036346,0.2089,20.8104,539.677,28.5998,0.0,0.0
1344,335.75,31.7695,33.901,155.144,104.336,4.42394,0.00368375,0.208231,20.8117,539.527,28.5509,0.0,0.0
1356,338.75,32.0499,33.5801,156.762,104.474,4.43296,0.00383206,0.206957,20.8139,539.377,28.5445,0.0,0.0
1368,341.75,31.5726,34.2472,152.196,104.596,4.43391,0.0039453,0.206719,20.8151,539.257,28.5531,0.0,0.0
1380,344.75,32.2453,33.9325,158.394,104.693,4.45196,0.00410143,0.206631,20.8156,539.087,28.5248,0.0,0.0
1392,347.75,31.5212,34.1509,158.14,104.832,4.44246,0.00411885,0.206421,20.8157,538.956,28.556,0.0,0.0
1404,350.75,31.8342,33.7125,157.692,104.943,4.47713,0.00409813,0.206156,20.8169,538.796,28.4954,0.0,0.0
1416,353.75,31.4301,34.3642,151.552,105.016,4.44484,0.00409735,0.205154,20.8171,538.656,28.5671,0.0,0.0
1428,356.75,32.1299,33.5655,156.685,105.113,4.40827,0.00410106,0.20437,20.8188,538.516,28.6501,0.0,0.0
1440,359.75,31.6856,33.7723,153.149,105.186,4.4757,0.0041671,0.203548,20.8195,538.376,28.5192,0.0,0.0
1452,362.75,31.574,33.7121,150.962,105.247,4.48615,0.00416879,0.203511,20.8201,538.236,28.5033,0.0,0.0
1464,365.75,31.8114,33.6387,155.77,105.295,4.48852,0.00419633,0.204338,20.8194,538.106,28.5027,0.0,0.0
1476,368.75,31.8817,33.4916,151.087,105.318,4.4738,0.00402429,0.204554,20.817,537.936,28.5343,0.0,0.0
1488,371.75,31.6291,33.5842,157.069,105.332,4.50277,0.00376146,0.206011,20.8156,537.785,28.4772,0.0,0.0
1500,374.75,31.4535,33.7745,151.678,105.328,4.5042,0.00389376,0.206688,20.8141,537.615,28.4741,0.0,0.0
1512,377.75,31.966,33.6507,155.673,105.297,4.47855,0.00398599,0.207123,20.813,537.485,28.5229,0.0,0.0
1524,380.75,32.1427,33.7117,155.382,105.264,4.46573,0.00398475,0.206816,20.8127,537.365,28.5461,0.0,0.0
1536,383.75,31.853,33.7253,156.362,105.202,4.47903,0.00406904,0.20585,20.8126,537.205,28.5138,0.0,0.0
1548,386.75,31.2622,34.0574,155.543,105.146,4.5042,0.00410725,0.205749,20.8126,537.045,28.4584,0.0,0.0
1560,389.75,31.5,33.7477,153.428,105.067,4.46573,0.00411441,0.20614,20.8127,536.915,28.5291,0.0,0.0
1572,392.75,31.6319,34.1161,157.268,104.982,4.4738,0.00404186,0.205689,20.8128,536.734,28.5055,0.0,0.0
1584,395.75,31.7176,33.8089,156.523,104.913,4.51512,0.00401558,0.205924,20.8128,536.604,28.4165,0.0,0.0
1596,398.75,31.684,33.6226,158.195,104.841,4.46051,0.00414695,0.205971,20.8142,536.454,28.5203,0.0,0.0
1608,401.75,31.6675,33.762,155.07,104.756,4.48093,0.00431746,0.205524,20.815,536.314,28.4716,0.0,0.0
1620,404.75,31.8621,33.2111,157.276,104.675,4.50657,0.00431016,0.205826,20.8146,536.154,28.4131,0.0,0.0
1632,407.75,31.3577,33.8365,155.166,104.604,4.44341,0.00450651,0.206625,20.8133,536.014,28.5345,0.0,0.0
1644,410.75,31.4143,33.6979,155.714,104.534,4.43059,0.00461334,0.207596,20.8119,535.864,28.5546,0.0,0.0
1656,413.75,32.0626,33.2855,154.272,104.476,4.43534,0.00441245,0.208071,20.8118,535.764,28.5398,0.0,0.0
1668,416.75,31.8401,33.3226,158.816,104.427,4.43296,0.00417798,0.207938,20.8116,535.613,28.5405,0.0,0.0
1680,419.75,31.6491,33.5412,151.43,104.592,4.44958,0.00409054,0.207675,20.8116,535.453,28.5209,0.0,0.0
1692,422.75,31.8162,33.5941,155.268,104.732,4.48473,0.00411229,0.208581,20.8101,535.333,28.4619,0.0,0.0
1704,425.75,31.9381,33.404,155.37,104.841,4.48045,0.00408478,0.208766,20.8095,535.193,28.4799,0.0,0.0
1716,428.75,31.7133,33.6863,155.953,104.92,4.50847,0.00422316,0.208663,20.8093,535.033,28.4304,0.0,0.0
1728,431.75,31.5984,33.6405,155.515,104.978,4.46383,0.00458536,0.208211,20.8105,534.903,28.5253,0.0,0.0
1740,434.75,31.6578,33.5814,159.097,104.998,4.49945,0.00468255,0.208114,20.8117,534.743,28.4552,0.0,0.0
1752,437.75,31.8656,33.4845,153.762,104.981,4.4909,0.00448189,0.207713,20.8131,534.592,28.4709,0.0,0.0
1764,440.75,31.9106,33.5474,155.608,104.937,4.48093,0.00436954,0.207116,20.8136,534.442,28.4872,0.0,0.0
1776,443.75,32.302,33.3041,156.171,104.853,4.45433,0.00463175,0.207172,20.8129,534.342,28.5338,0.0,0.0
1788,446.75,31.9114,33.5287,156.102,104.756,4.45861,0.00476241,0.207902,20.8106,534.192,28.5168,0.0,0.0
1800,449.75,31.9353,33.6411,151.705,104.612,4.46573,0.0046216,0.207814,20.81,534.032,28.4899,0.0,0.0
1812,452.75,31.7711,34.0767,154.615,104.437,4.46051,0.00460929,0.206721,20.811,533.872,28.4853,0.0,0.0
1824,455.75,32.3096,33.1648,155.718,104.227,4.46573,0.00471999,0.206234,20.8124,533.752,28.4566,0.0,0.0
1836,458.75,32.2047,33.2879,157.474,104.097,4.4814,0.00480406,0.207222,20.8118,533.622,28.4137,0.0,0.0
1848,461.75,31.7725,33.5985,155.339,104.115,4.47285,0.00482352,0.207107,20.8115,533.502,28.4325,0.0,0.0
1860,464.75,32.2154,33.1021,152.026,104.149,4.47713,0.00488093,0.207341,20.8114,533.321,28.4268,0.0,0.0
1872,467.75,31.4794,33.784,157.685,104.188,4.41444,0.00491739,0.207578,20.8102,533.201,28.5576,0.0,0.0
1884,470.75,32.0789,33.4531,153.104,104.228,4.44626,0.0049492,0.208588,20.8088,533.041,28.4961,0.0,0.0
1896,473.75,32.0869,33.6425,157.716,104.29,4.44863,0.00485754,0.208008,20.8092,532.911,28.4967,0.0,0.0
1908,476.75,31.823,33.5513,152.167,104.344,4.43629,0.00478982,0.207169,20.8102,532.771,28.5265,0.0,0.0
1920,479.75,31.407,33.6232,155.704,104.396,4.44294,0.00458031,0.206793,20.8104,532.651,28.5174,0.0,0.0
1932,482.75,31.7695,33.6614,153.041,104.447,4.50325,0.0045892,0.206966,20.8101,532.491,28.4001,0.0,0.0
1944,485.75,32.3293,33.5248,150.471,104.478,4.43201,0.00458016,0.206739,20.8098,532.35,28.5468,0.0,0.0
1956,488.75,32.1369,33.7793,156.695,104.527,4.45718,0.0045553,0.205545,20.8134,532.2,28.4999,0.0,0.0
1968,491.75,31.9348,33.8489,154.337,104.566,4.45956,0.00463755,0.204796,20.8138,532.08,28.4984,0.0,0.0
1980,494.75,31.9073,33.751,153.737,104.59,4.45718,0.00461862,0.20508,20.8132,531.99,28.5053,0.0,0.0
1992,497.75,31.7702,33.8989,155.02,104.601,4.4738,0.00470918,0.20558,20.8109,531.85,28.4727,0.0,0.0
2004,500.75,31.8586,33.7053,154.917,104.595,4.44294,0.00473194,0.205771,20.8101,531.67,28.5347,0.0,0.0
2016,503.75,32.0577,33.6628,154.915,104.582,4.46715,0.0046561,0.20593,20.8098,531.55,28.4844,0.0,0.0
2028,506.75,31.8364,33.4973,158.458,104.571,4.4947,0.00481928,0.206507,20.8107,531.38,28.428,0.0,0.0
2040,509.75,31.7125,34.0361,151.37,104.523,4.43581,0.00485959,0.206502,20.8112,531.26,28.5429,0.0,0.0
2052,512.75,31.7848,34.0633,152.515,104.474,4.47523,0.00474633,0.206561,20.8121,531.109,28.4587,0.0,0.0
2064,515.75,31.2965,34.1243,148.686,104.439,4.50704,0.00448885,0.207263,20.8116,530.979,28.3918,0.0,0.0
2076,518.75,31.9852,34.0505,152.285,104.372,4.40162,0.00439927,0.207502,20.811,530.899,28.5997,0.0,0.0
2088,521.75,32.4143,33.5033,152.426,104.312,4.49327,0.00439278,0.207068,20.8107,530.729,28.4084,0.0,0.0
2100,524.75,32.4547,33.3397,154.075,104.253,4.44531,0.00435255,0.207231,20.8106,530.599,28.5003,0.0,0.0
2112,527.75,31.9869,33.6655,155.317,104.181,4.4719,0.0044626,0.207332,20.8106,530.459,28.4402,0.0,0.0
2124,530.75,31.8179,33.8986,153.299,104.099,4.45433,0.00475094,0.207166,20.8142,530.329,28.4686,0.0,0.0
2136,533.75,32.2336,33.759,154.17,103.998,4.46526,0.00502051,0.207391,20.8153,530.179,28.4377,0.0,0.0
2148,536.75,31.981,33.5908,157.768,103.903,4.46146,0.00498645,0.207557,20.8155,530.048,28.4371,0.0,0.0
2160,539.75,32.2844,33.5519,156.653,103.807,4.47095,0.00502217,0.207793,20.816,529.898,28.4096,0.0,0.0
2172,542.75,31.5172,34.1499,155.234,103.717,4.42062,0.00486297,0.207202,20.8164,529.808,28.504,0.0,0.0
2184,545.75,31.3115,34.3373,156.794,103.62,4.43059,0.0046238,0.207077,20.818,529.668,28.4752,0.0,0.0
2196,548.75,31.8505,33.5488,155.347,103.521,4.47095,0.00463921,0.206886,20.8182,529.538,28.3846,0.0,0.0
2208,551.75,31.4166,33.7812,154.538,103.438,4.39165,0.00447907,0.207726,20.8155,529.388,28.539,0.0,0.0
2220,554.75,32.3012,33.6616,155.112,103.381,4.47523,0.00408188,0.209815,20.8121,529.258,28.3638,0.0,0.0
2232,557.75,32.136,33.5986,156.391,103.332,4.42442,0.00431251,0.210862,20.8104,529.118,28.4626,0.0,0.0
2244,560.75,32.3212,33.6262,154.018,103.282,4.41444,0.00462826,0.210474,20.8099,528.987,28.4786,0.0,0.0
2256,563.75,31.9576,33.6213,156.229,103.241,4.39497,0.00491477,0.210645,20.8086,528.837,28.515,0.0,0.0
2268,566.75,31.701,34.1984,156.568,103.217,4.39545,0.00499933,0.210722,20.8077,528.697,28.5119,0.0,0.0
2280,569.75,32.0559,33.8318,153.065,103.196,4.43819,0.00496318,0.210698,20.8075,528.547,28.4227,0.0,0.0
2292,572.75,32.2684,34.134,153.696,103.188,4.3831,0.00479463,0.211434,20.8074,528.437,28.5348,0.0,0.0
2304,575.75,31.9318,34.0287,154.999,103.216,4.43201,0.00441796,0.21251,20.8074,528.297,28.437,0.0,0.0
2316,578.75,32.5558,33.5952,157.656,103.196,4.46953,0.00399308,0.213517,20.8063,528.177,28.3591,0.0,0.0
2328,581.75,32.6918,33.8974,155.579,103.2,4.39497,0.0038151,0.214205,20.8059,528.017,28.5114,0.0,0.0
2340,584.75,32.3298,34.1533,155.498,103.222,4.46621,0.00395001,0.214567,20.8058,527.886,28.3681,0.0,0.0
2352,587.75,32.186,34.2015,151.887,103.201,4.44484,0.00426832,0.216473,20.803,527.746,28.4096,0.0,0.0
2364,590.75,32.585,34.1114,155.121,103.213,4.4871,0.00445213,0.21776,20.8017,527.616,28.3252,0.0,0.0
2376,593.75,32.555,34.3002,157.283,103.196,4.45053,0.00438634,0.218462,20.7996,527.486,28.3976,0.0,0.0
2388,596.75,32.6019,34.4533,152.103,103.193,4.46431,0.00419103,0.219389,20.7984,527.396,28.3694,0.0,0.0
2400,599.75,32.7735,34.0929,157.067,103.188,4.41634,0.00411104,0.220432,20.7975,527.186,28.4665,0.0,0.0
2412,602.75,32.6766,34.438,158.82,103.189,4.40305,0.00415592,0.220781,20.7972,527.066,28.4938,0.0,0.0
2424,605.75,32.9342,34.7519,158.884,103.176,4.48567,0.00420671,0.222059,20.7955,526.896,28.3248,0.0,0.0
2436,608.75,32.8186,34.7145,156.234,103.178,4.49137,0.00434974,0.222846,20.7939,526.755,28.3135,0.0,0.0
2448,611.75,33.0353,34.8426,152.912,103.207,4.48473,0.0044247,0.223324,20.7942,526.645,28.3294,0.0,0.0
2460,614.75,33.2225,34.9965,160.783,103.228,4.47998,0.00425249,0.223186,20.7936,526.505,28.3408,0.0,0.0
2472,617.75,33.0112,35.2405,155.852,103.28,4.46953,0.00401805,0.223426,20.7937,526.365,28.3665,0.0,0.0
2484,620.75,32.864,34.9229,152.292,103.322,4.46241,0.00388053,0.222999,20.7945,526.225,28.3845,0.0,0.0
2496,623.75,33.4158,34.9035,154.56,103.407,4.50657,0.00411252,0.223661,20.7931,526.075,28.303,0.0,0.0
2508,626.75,33.8673,34.6059,154.167,103.509,4.5778,0.00434068,0.224982,20.7914,525.935,28.1703,0.0,0.0
2520,629.75,33.1778,35.3844,156.54,103.626,4.48662,0.00439573,0.224898,20.7915,525.775,28.3622,0.0,0.0
2532,632.75,33.6717,35.4211,153.668,103.735,4.46288,0.00451035,0.224937,20.792,525.694,28.4196,0.0,0.0
2544,635.75,33.8962,35.3893,154.966,103.865,4.55073,0.00459453,0.225382,20.7901,525.544,28.2548,0.0,0.0
2556,638.75,33.7738,35.5588,153.77,103.992,4.48757,0.00449417,0.226797,20.7879,525.414,28.3921,0.0,0.0
2568,641.75,33.8059,35.2391,150.097,104.135,4.5626,0.00419691,0.228198,20.7873,525.244,28.2548,0.0,0.0
2580,644.75,34.07,35.3547,148.933,104.27,4.50657,0.00380313,0.228335,20.7881,525.114,28.3781,0.0,0.0
2592,647.75,33.8279,35.5799,157.356,104.4,4.56735,0.00366305,0.228388,20.7901,524.884,28.2683,0.0,0.0
2604,650.75,33.8325,36.1784,150.002,104.486,4.58872,0.00373319,0.228945,20.7906,524.844,28.2335,0.0,0.0
2616,653.75,34.2783,36.1433,153.753,104.552,4.57448,0.00382203,0.230048,20.7891,524.684,28.2674,0.0,0.0
2628,656.75,34.1558,36.4905,152.458,104.582,4.56355,0.00388828,0.230969,20.7887,524.503,28.2916,0.0,0.0
2640,659.75,34.6005,36.3662,154.4,104.565,4.61579,0.00371794,0.232081,20.7872,524.323,28.1873,0.0,0.0
2652,662.75,34.9709,36.2173,154.474,104.511,4.5797,0.00359232,0.233689,20.7859,524.203,28.2535,0.0,0.0
2664,665.75,35.1842,36.3346,152.561,104.442,4.53316,0.00327623,0.233603,20.7849,524.083,28.3398,0.0,0.0
2676,668.75,35.0098,36.8526,151.52,104.347,4.56403,0.00292993,0.232715,20.7846,523.943,28.2703,0.0,0.0
2688,671.75,34.9252,37.1343,154.699,104.239,4.56023,0.00303958,0.23356,20.785,523.813,28.2684,0.0,0.0
2700,674.75,34.664,36.6882,156.194,104.166,4.59822,0.00323099,0.233886,20.7831,523.693,28.1872,0.0,0.0
2712,677.75,35.0546,36.8196,149.488,104.101,4.53174,0.00323935,0.2357,20.7813,523.503,28.3131,0.0,0.0
2724,680.75,35.0248,37.1766,147.419,104.287,4.55881,0.00352407,0.238137,20.7801,523.332,28.2755,0.0,0.0
2736,683.75,35.3727,37.2432,149.801,104.622,4.67895,0.0035724,0.239975,20.7771,523.132,28.0694,0.0,0.0
2748,686.75,35.3911,37.1406,154.231,104.837,4.59347,0.00329409,0.240783,20.776,522.992,28.2545,0.0,0.0
2760,689.75,35.5445,37.5552,151.05,104.966,4.59727,0.00312312,0.241475,20.7747,522.812,28.2582,0.0,0.0
2772,692.75,35.4419,37.333,151.681,104.974,4.60154,0.00315114,0.241307,20.7752,522.702,28.2504,0.0,0.0
2784,695.75,35.5283,37.4867,150.748,104.859,4.61437,0.00301756,0.242371,20.7755,522.562,28.2155,0.0,0.0
2796,698.75,35.4143,37.7343,154.485,104.64,4.62006,0.0027327,0.243177,20.7756,522.391,28.1854,0.0,0.0
2808,701.75,35.7905,37.5169,154.967,104.459,4.57495,0.00258039,0.244081,20.7743,522.201,28.2584,0.0,0.0
2820,704.75,35.8591,37.3703,151.108,104.608,4.59442,0.00275499,0.245054,20.7723,522.101,28.2329,0.0,0.0
2832,707.75,35.5097,38.373,155.02,104.812,4.53459,0.00289824,0.246601,20.7709,521.901,28.3689,0.0,0.0
2844,710.75,35.9473,37.8214,152.615,105.013,4.64048,0.0027565,0.248107,20.7681,521.731,28.1777,0.0,0.0
2856,713.75,36.0525,38.3354,153.28,105.188,4.63811,0.00267241,0.250027,20.7665,521.571,28.1974,0.0,0.0
2868,716.75,35.9088,38.0576,156.694,105.293,4.61247,0.00272971,0.251951,20.7646,521.411,28.2564,0.0,0.0
2880,719.75,36.2218,38.6221,155.908,105.318,4.66233,0.00267747,0.253085,20.7626,521.24,28.1615,0.0,0.0
2892,722.75,36.0111,38.6268,154.707,105.251,4.58397,0.00269192,0.25345,20.762,521.07,28.3088,0.0,0.0
2904,725.75,36.4423,38.6736,152.215,105.074,4.5721,0.00283041,0.254087,20.7612,520.91,28.317,0.0,0.0
2916,728.75,36.5316,38.3479,150.691,104.799,4.60439,0.00270184,0.254665,20.7601,520.74,28.2298,0.0,0.0
2928,731.75,36.4168,38.6169,148.381,104.47,4.59395,0.00255284,0.255541,20.7586,520.58,28.2219,0.0,0.0
2940,734.75,37.1243,38.8501,154.074,104.122,4.55073,0.00261103,0.255388,20.7598,520.39,28.2772,0.0,0.0
2952,737.75,36.6868,38.7402,150.33,103.764,4.61674,0.00273857,0.257018,20.7587,520.23,28.1159,0.0,0.0
2964,740.75,36.7202,38.8078,147.936,103.452,4.62481,0.00259031,0.259624,20.7556,520.079,28.0729,0.0,0.0
2976,743.75,36.8382,38.8793,151.359,103.269,4.54124,0.0024828,0.261679,20.7534,519.899,28.2217,0.0,0.0
2988,746.75,36.7581,38.662,149.943,103.244,4.59965,0.00254506,0.261878,20.753,519.719,28.1041,0.0,0.0
3000,749.75,36.9093,39.1442,149.795,103.358,4.5873,0.00263822,0.262356,20.7536,519.519,28.1384,0.0,0.0
3012,752.75,37.521,39.0688,148.519,103.577,4.60867,0.00267854,0.263913,20.7524,519.379,28.1154,0.0,0.0
3024,755.75,37.0016,39.3959,154.041,103.884,4.55596,0.00265503,0.265929,20.7487,519.219,28.2461,0.0,0.0
3036,758.75,37.4977,39.1946,151.58,104.184,4.64761,0.00256558,0.265211,20.7489,519.008,28.0923,0.0,0.0
3048,761.75,37.2989,39.3347,153.163,104.423,4.64001,0.00229335,0.264905,20.7495,518.818,28.1277,0.0,0.0
3060,764.75,37.4428,39.6439,152.613,104.576,4.63859,0.0020467,0.265846,20.7499,518.668,28.1437,0.0,0.0
3072,767.75,37.6287,39.4239,151.366,104.602,4.63194,0.00194921,0.266318,20.75,518.478,28.1589,0.0,0.0
3084,770.75,37.6176,39.6036,152.752,104.488,4.63479,0.00196682,0.267553,20.7482,518.278,28.1435,0.0,0.0
3096,773.75,37.525,39.9182,147.312,104.341,4.68132,0.00220756,0.269013,20.7462,518.118,28.0405,0.0,0.0
3108,776.75,37.5071,40.2147,149.126,104.161,4.62481,0.00248918,0.269539,20.7456,517.957,28.1347,0.0,0.0
3120,779.75,37.4503,40.2699,152.511,104.055,4.61532,0.00258023,0.270836,20.7436,517.737,28.1441,0.0,0.0
3132,782.75,37.9129,39.8015,149.533,104.588,4.64713,0.00238767,0.272774,20.7416,517.567,28.1282,0.0,0.0
3144,785.75,37.9538,39.9123,148.634,104.906,4.64951,0.00213599,0.272487,20.7399,517.347,28.1509,0.0,0.0
3156,788.75,37.9801,39.7926,148.431,104.967,4.6609,0.00216054,0.272295,20.7393,517.187,28.1341,0.0,0.0
3168,791.75,38.0126,40.2975,151.885,104.767,4.65426,0.00244059,0.273648,20.7386,516.987,28.1297,0.0,0.0
3180,794.75,37.9009,40.3604,152.954,104.465,4.61057,0.00263199,0.275461,20.7361,516.756,28.1889,0.0,0.0
3192,797.75,38.4177,40.4725,152.742,104.699,4.63669,0.00283981,0.277017,20.7341,516.606,28.158,0.0,0.0
3204,800.75,38.248,40.5429,154.418,105.002,4.73214,0.00267044,0.279599,20.7314,516.406,28.0001,0.0,0.0
3216,803.75,38.6234,40.7717,155.192,105.223,4.68607,0.0023731,0.279968,20.7303,516.216,28.1074,0.0,0.0
3228,806.75,38.602,41.1211,146.367,105.324,4.66945,0.00240291,0.280163,20.7298,516.026,28.1482,0.0,0.0
3240,809.75,38.4063,40.7649,149.949,105.226,4.67183,0.00246313,0.281211,20.7279,515.856,28.1352,0.0,0.0
3252,812.75,38.4751,41.2893,151.41,104.951,4.74923,0.00243387,0.283491,20.7249,515.655,27.9631,0.0,0.0
3264,815.75,39.1019,40.9202,149.221,104.512,4.62719,0.00242104,0.286314,20.7214,515.465,28.1604,0.0,0.0
3276,818.75,38.9778,41.2207,153.832,104.025,4.61484,0.00243174,0.286719,20.7204,515.245,28.1424,0.0,0.0
3288,821.75,38.9908,41.1635,151.581,103.587,4.63289,0.00241926,0.286978,20.7201,515.025,28.069,0.0,0.0
3300,824.75,39.3109,41.3701,146.706,103.323,4.5873,0.00240414,0.288871,20.7184,514.895,28.1353,0.0,0.0
3312,827.75,39.2891,41.6624,151.069,103.3,4.58302,0.00226202,0.290633,20.7165,514.634,28.1417,0.0,0.0
3324,830.75,39.8702,41.5817,155.725,103.513,4.60772,0.00207443,0.290054,20.7181,514.444,28.1117,0.0,0.0
3336,833.75,39.2598,41.965,151.52,103.88,4.62339,0.00203298,0.289752,20.7194,514.274,28.113,0.0,0.0
3348,836.75,39.4406,41.8225,153.312,104.257,4.69747,0.0020151,0.290286,20.7198,514.054,28.0021,0.0,0.0
3360,839.75,39.8136,41.9062,152.004,104.532,4.63336,0.0021006,0.291773,20.7185,513.824,28.1501,0.0,0.0
3372,842.75,39.7715,42.5826,150.39,104.631,4.62244,0.00228906,0.292113,20.7172,513.634,28.18,0.0,0.0
3384,845.75,39.6578,42.2803,147.691,104.499,4.69889,0.00237465,0.294734,20.7143,513.433,28.0204,0.0,0.0
3396,848.75,39.5778,42.7404,143.212,104.278,4.70269,0.00248508,0.297744,20.712,513.263,27.9939,0.0,0.0
3408,851.75,40.0892,42.3359,149.23,104.063,4.67942,0.00245203,0.297734,20.7111,513.033,28.0201,0.0,0.0
3420,854.75,40.1963,42.5633,146.224,104.483,4.68227,0.00228059,0.297627,20.7106,512.843,28.051,0.0,0.0
3432,857.75,40.2949,42.7004,151.407,104.883,4.72929,0.00217757,0.298041,20.7092,512.613,27.9953,0.0,0.0
3444,860.75,40.3626,42.9568,150.552,104.933,4.6609,0.00220713,0.297921,20.7091,512.422,28.1312,0.0,0.0
3456,863.75,40.2237,43.0322,150.236,104.551,4.70697,0.00219905,0.297158,20.71,512.222,28.0094,0.0,0.0
3468,866.75,40.6154,42.7198,148.366,104.621,4.72074,0.00212511,0.298027,20.7102,512.012,27.989,0.0,0.0
3480,869.75,40.6114,43.0325,151.425,104.959,4.70127,0.00231532,0.29755,20.7103,511.772,28.0555,0.0,0.0
3492,872.75,40.9157,43.3288,153.571,105.233,4.67753,0.00254279,0.297564,20.7103,511.592,28.1248,0.0,0.0
3504,875.75,40.8331,42.9863,151.89,105.33,4.74971,0.00252085,0.298171,20.7097,511.321,27.9948,0.0,0.0
3516,878.75,40.6031,43.9219,149.334,105.181,4.64001,0.00220192,0.300209,20.7072,511.201,28.1931,0.0,0.0
3528,881.75,40.4711,44.0086,148.863,104.806,4.70697,0.00209085,0.301312,20.7066,510.941,28.0313,0.0,0.0
3540,884.75,41.1699,43.5826,150.093,104.299,4.70792,0.00225601,0.300241,20.7079,510.711,27.9858,0.0,0.0
3552,887.75,40.8678,43.8827,146.782,103.806,4.65236,0.00242556,0.300292,20.7075,510.521,28.0502,0.0,0.0
3564,890.75,41.1522,43.8516,148.196,103.454,4.63669,0.00233914,0.302054,20.7058,510.381,28.05,0.0,0.0
3576,893.75,41.2283,43.9644,151.6,103.314,4.64143,0.00218747,0.298672,20.7088,510.17,28.0285,0.0,0.0
3588,896.75,40.9706,43.7135,150.916,103.413,4.63146,0.00221814,0.295667,20.7106,509.95,28.0566,0.0,0.0
3600,899.75,41.0606,43.6266,146.233,103.673,4.76253,0.00231521,0.29579,20.7113,509.72,27.8272,0.0,0.0
3612,902.75,41.5028,43.8374,152.503,104.027,4.64618,0.00247447,0.295965,20.7122,509.52,28.0814,0.0,0.0
3624,905.75,40.7713,43.9365,151.258,104.327,4.76015,0.00245844,0.294123,20.7144,509.3,27.8885,0.0,0.0
3636,908.75,40.9334,43.6215,147.044,104.547,4.70649,0.00257374,0.293605,20.7154,509.13,28.0099,0.0,0.0
3648,911.75,40.6887,44.1766,149.119,104.645,4.73498,0.00279069,0.294035,20.7157,508.929,27.9639,0.0,0.0
3660,914.75,41.3573,44.2004,152.079,104.613,4.66613,0.00309792,0.291697,20.7178,508.729,28.0934,0.0,0.0
3672,917.75,40.8518,44.1907,150.098,104.489,4.68655,0.00348986,0.290508,20.7193,508.529,28.0433,0.0,0.0
3684,920.75,41.3035,43.4692,151.157,104.305,4.63526,0.00362053,0.28829,20.7218,508.339,28.1267,0.0,0.0
3696,923.75,40.7349,44.0415,153.383,104.17,4.72881,0.00362539,0.286984,20.7234,508.159,27.9346,0.0,0.0
3708,926.75,40.8941,43.2284,150.719,104.05,4.63289,0.00351036,0.285909,20.7237,507.978,28.1093,0.0,0.0
3720,929.75,40.6431,43.7598,151.288,104.214,4.65093,0.00361547,0.284679,20.724,507.778,28.0884,0.0,0.0
3732,932.75,41.02,43.3868,150.643,104.587,4.62861,0.00367453,0.283706,20.7255,507.568,28.1641,0.0,0.0
3744,935.75,40.8478,43.383,150.334,104.814,4.678,0.00355032,0.281663,20.7276,507.398,28.0878,0.0,0.0
3756,938.75,40.4901,43.2876,152.789,104.918,4.68512,0.00344569,0.280363,20.7295,507.178,28.083,0.0,0.0
3768,941.75,40.6342,43.198,152.329,104.914,4.67658,0.0032657,0.27902,20.731,507.008,28.0992,0.0,0.0
3780,944.75,40.3349,43.6678,148.44,104.81,4.72454,0.00342689,0.277519,20.7315,506.817,27.998,0.0,0.0
3792,947.75,40.6819,42.981,153.663,104.602,4.68275,0.00339861,0.276754,20.733,506.657,28.0604,0.0,0.0
3804,950.75,40.7749,42.8167,150.872,104.428,4.65236,0.00335489,0.275828,20.7332,506.487,28.1041,0.0,0.0
3816,953.75,40.2371,43.1838,162.473,104.548,4.70364,0.00347811,0.273854,20.7349,506.377,28.0155,0.0,0.0
3828,956.75,39.9529,42.979,152.236,104.699,4.59252,0.00336339,0.272929,20.7354,506.127,28.2445,0.0,0.0
3840,959.75,40.4415,42.7946,153.847,104.848,4.64286,0.0030721,0.271757,20.7369,505.987,28.1589,0.0,0.0
3852,962.75,39.8246,42.628,150.544,105.011,4.63289,0.00309175,0.271169,20.7376,505.816,28.1923,0.0,0.0
3864,965.75,40.0962,42.5556,155.004,105.137,4.65283,0.00326379,0.270176,20.7384,505.666,28.1644,0.0,0.0
3876,968.75,39.7907,42.7981,152.506,105.241,4.63289,0.00338503,0.268082,20.7403,505.456,28.2121,0.0,0.0
3888,971.75,39.7167,42.3391,152.161,105.299,4.66138,0.00350725,0.264152,20.7447,505.326,28.1617,0.0,0.0
3900,974.75,39.6791,42.1126,150.594,105.322,4.6818,0.00369595,0.260944,20.748,505.186,28.1242,0.0,0.0
3912,977.75,39.288,42.133,153.096,105.302,4.61057,0.00398779,0.256936,20.7527,504.986,28.2609,0.0,0.0
3924,980.75,39.2476,42.0644,152.085,105.244,4.62481,0.00419346,0.252937,20.756,504.856,28.2281,0.0,0.0
3936,983.75,39.1355,42.1073,149.356,105.158,4.66423,0.00409202,0.251306,20.7596,504.686,28.144,0.0,0.0
3948,986.75,38.6741,41.6725,153.772,105.019,4.60297,0.00381237,0.247168,20.7639,504.585,28.2515,0.0,0.0
3960,989.75,38.8776,41.4334,148.731,104.881,4.59585,0.00379929,0.245377,20.7669,504.395,28.2536,0.0,0.0
3972,992.75,38.4246,41.2211,155.507,104.708,4.59727,0.00400667,0.244391,20.7681,504.285,28.2359,0.0,0.0
3984,995.75,38.2719,41.4127,151.742,104.541,4.55928,0.0042445,0.243499,20.7702,504.135,28.2965,0.0,0.0
3996,998.75,37.7719,41.2283,157.243,104.364,4.55738,0.00455069,0.242028,20.7722,504.005,28.2849,0.0,0.0
4008,1001.75,38.407,40.2786,150.973,104.199,4.56878,0.00461417,0.240524,20.7731,503.845,28.248,0.0,0.0
4020,1004.75,38.1452,39.971,157.354,104.039,4.5816,0.00474614,0.239119,20.7755,503.715,28.2089,0.0,0.0
4032,1007.75,37.6854,40.6326,154.278,103.888,4.55881,0.00532508,0.236489,20.7774,503.605,28.2409,0.0,0.0
4044,1010.75,37.7699,40.1045,157.643,103.746,4.54456,0.0059949,0.233847,20.7801,503.484,28.2568,0.0,0.0
4056,1013.75,37.2354,40.172,152.42,103.642,4.49137,0.00647212,0.230863,20.7816,503.344,28.3541,0.0,0.0
4068,1016.75,36.8556,39.9736,155.942,103.518,4.49042,0.00658172,0.226436,20.7852,503.254,28.3451,0.0,0.0
4080,1019.75,36.8607,39.7461,159.989,103.438,4.51749,0.00670807,0.221081,20.7916,503.134,28.2839,0.0,0.0
4092,1022.75,36.2419,39.1885,155.143,103.385,4.48757,0.00718129,0.216334,20.7993,503.004,28.3393,0.0,0.0
4104,1025.75,36.2161,39.3492,152.213,103.358,4.50182,0.00776322,0.213876,20.8023,502.904,28.3082,0.0,0.0
4116,1028.75,35.9647,38.2896,154.492,103.349,4.46905,0.00817782,0.213098,20.8031,502.744,28.3735,0.0,0.0
4128,1031.75,35.8701,38.1623,157.298,103.37,4.4776,0.0084325,0.211074,20.8049,502.634,28.358,0.0,0.0
4140,1034.75,35.4227,38.276,154.928,103.404,4.45291,0.00878549,0.207536,20.8074,502.564,28.411,0.0,0.0
4152,1037.75,35.187,38.2349,155.578,103.47,4.47523,0.00889719,0.203721,20.8121,502.474,28.3715,0.0,0.0
4164,1040.75,34.7006,37.5662,155.125,103.527,4.48473,0.00888546,0.201592,20.8167,502.323,28.3574,0.0,0.0
4176,1043.75,35.1294,37.1156,156.974,103.595,4.51559,0.00946587,0.199241,20.8199,502.283,28.3014,0.0,0.0
4188,1046.75,34.8366,36.919,160.554,103.672,4.45481,0.0101123,0.196422,20.8229,502.143,28.4304,0.0,0.0
4200,1049.75,34.7608,36.8,157.372,103.749,4.47855,0.0102198,0.193832,20.825,502.053,28.3892,0.0,0.0
4212,1052.75,34.0788,36.7548,157.1,103.844,4.44484,0.0102747,0.190545,20.8281,501.943,28.4657,0.0,0.0
4224,1055.75,33.7255,35.829,155.999,103.931,4.45718,0.0104564,0.187991,20.8324,501.863,28.4482,0.0,0.0
4236,1058.75,33.8024,35.9496,156.486,104.003,4.48473,0.0104754,0.18586,20.8337,501.783,28.3988,0.0,0.0
4248,1061.75,33.6407,35.5174,153.302,104.078,4.51939,0.0106924,0.18654,20.8341,501.713,28.3358,0.0,0.0
4260,1064.75,33.6369,35.7261,155.358,104.142,4.5042,0.0114613,0.185102,20.8345,501.613,28.3717,0.0,0.0
4272,1067.75,33.0985,35.0388,158.742,104.21,4.46953,0.0121451,0.180651,20.8384,501.553,28.4474,0.0,0.0
4284,1070.75,33.1861,34.9767,155.253,104.263,4.47855,0.0125874,0.176264,20.842,501.493,28.4338,0.0,0.0
4296,1073.75,32.6061,34.5371,154.227,104.322,4.45766,0.0129877,0.172392,20.8476,501.413,28.4812,0.0,0.0
4308,1076.75,32.2615,34.2695,158.309,104.376,4.4757,0.0136486,0.168481,20.8523,501.342,28.4494,0.0,0.0
4320,1079.75,32.0179,34.1432,159.376,104.411,4.51607,0.0134017,0.16762,20.8537,501.272,28.3712,0.0,0.0
4332,1082.75,31.7641,33.7236,153.823,104.443,4.48283,0.012492,0.168951,20.8521,501.192,28.4408,0.0,0.0
4344,1085.75,31.2773,33.566,154.989,104.466,4.53696,0.0114707,0.171148,20.8488,501.142,28.3343,0.0,0.0
4356,1088.75,31.4907,33.5362,155.711,104.486,4.47665,0.0109066,0.172774,20.8458,501.052,28.457,0.0,0.0
4368,1091.75,31.2032,33.4936,153.283,104.513,4.45528,0.0109011,0.173522,20.8447,500.982,28.5025,0.0,0.0
4380,1094.75,31.3717,33.0814,160.532,104.511,4.45718,0.0109283,0.173522,20.8429,500.902,28.4985,0.0,0.0
4392,1097.75,30.9625,33.0974,155.986,104.523,4.47143,0.0109855,0.173626,20.8413,500.852,28.4707,0.0,0.0
4404,1100.75,30.9461,32.9716,155.098,104.545,4.41682,0.0114897,0.174416,20.8401,500.782,28.5836,0.0,0.0
4416,1103.75,30.9039,32.6443,158.021,104.542,4.44056,0.0125424,0.17303,20.8409,500.722,28.5349,0.0,0.0
4428,1106.75,30.6445,32.3298,153.874,104.568,4.45196,0.0137584,0.170388,20.8426,500.662,28.514,0.0,0.0
4440,1109.75,30.5066,32.4158,162.155,104.569,4.45528,0.0143823,0.168456,20.8438,500.592,28.5073,0.0,0.0
4452,1112.75,30.5681,32.3511,160.752,104.57,4.42062,0.0148069,0.16853,20.8445,500.502,28.578,0.0,0.0
4464,1115.75,30.4586,31.9536,159.519,104.578,4.44769,0.0153251,0.168748,20.8457,500.422,28.5235,0.0,0.0
4476,1118.75,30.5771,31.8002,154.979,104.569,4.43249,0.0161985,0.169537,20.8434,500.362,28.5536,0.0,0.0
4488,1121.75,30.3361,31.6405,160.317,104.572,4.41587,0.0177098,0.169336,20.8424,500.282,28.5878,0.0,0.0
4500,1124.75,29.9871,31.6435,159.735,104.566,4.42347,0.0192093,0.168939,20.843,500.242,28.5718,0.0,0.0
4512,1127.75,30.3953,31.0733,158.813,104.559,4.41682,0.0196521,0.168129,20.8439,500.171,28.5848,0.0,0.0
4524,1130.75,29.6489,30.9646,157.355,104.561,4.46668,0.0200735,0.167194,20.8442,500.121,28.4836,0.0,0.0
4536,1133.75,29.533,31.3374,156.835,104.556,4.45006,0.0199894,0.167454,20.8434,500.031,28.5168,0.0,0.0
4548,1136.75,29.4143,31.0039,158.367,104.535,4.42062,0.0194795,0.168812,20.8416,500.001,28.5749,0.0,0.0
4560,1139.75,29.8433,30.941,158.416,104.531,4.45243,0.0198988,0.168305,20.8418,499.931,28.5098,0.0,0.0
4572,1142.75,29.3692,30.6026,155.731,104.522,4.45291,0.0206071,0.167599,20.8429,499.851,28.5081,0.0,0.0
4584,1145.75,29.1215,30.4425,159.11,104.51,4.41254,0.0213152,0.165774,20.8431,499.821,28.5893,0.0,0.0
4596,1148.75,29.2723,30.7464,155.147,104.513,4.42062,0.0218429,0.164726,20.8439,499.751,28.5731,0.0,0.0
4608,1151.75,29.2422,29.9179,160.308,104.492,4.43391,0.0220303,0.164309,20.8451,499.701,28.5441,0.0,0.0
4620,1154.75,28.7791,30.5261,158.51,104.487,4.43534,0.0221139,0.163768,20.8455,499.631,28.5408,0.0,0.0
4632,1157.75,29.0817,29.6296,161.456,104.483,4.39497,0.0219417,0.1636,20.8445,499.571,28.623,0.0,0.0
4644,1160.75,28.8996,30.0614,156.15,104.483,4.41967,0.0217952,0.164253,20.8436,499.531,28.5724,0.0,0.0
4656,1163.75,29.027,29.7946,155.311,104.473,4.42062,0.0219508,0.164657,20.8434,499.471,28.5696,0.0,0.0
4668,1166.75,28.528,30.11,154.966,104.492,4.36601,0.02231,0.164347,20.8444,499.421,28.6836,0.0,0.0
4680,1169.75,28.4338,29.6397,157.915,104.456,4.38215,0.0223417,0.163732,20.8467,499.391,28.6471,0.0,0.0
4692,1172.75,28.622,29.1806,160.987,104.441,4.39735,0.0223609,0.163445,20.8469,499.311,28.6145,0.0,0.0
4704,1175.75,28.2964,29.3099,157.244,104.438,4.38738,0.0224935,0.163345,20.8471,499.271,28.6348,0.0,0.0
4716,1178.75,28.0785,28.9281,156.614,104.405,4.44389,0.0225876,0.162437,20.8487,499.241,28.5163,0.0,0.0
4728,1181.75,28.283,28.8056,160.248,104.376,4.42632,0.022896,0.161325,20.8503,499.201,28.5495,0.0,0.0
4740,1184.75,27.4918,29.1204,157.127,104.353,4.39212,0.0233288,0.160376,20.8507,499.161,28.6177,0.0,0.0
4752,1187.75,27.31,28.9238,154.919,104.326,4.404,0.0234471,0.158971,20.8525,499.08,28.5909,0.0,0.0
4764,1190.75,27.5702,28.6703,159.267,104.292,4.4059,0.0231965,0.15769,20.8534,499.07,28.5841,0.0,0.0
4776,1193.75,27.5378,28.6739,157.778,104.269,4.37788,0.022827,0.158021,20.8539,499,28.6397,0.0,0.0
4788,1196.75,27.0943,28.5803,160.661,104.24,4.37076,0.0225906,0.159264,20.8529,498.96,28.6519,0.0,0.0
4800,1199.75,27.4972,28.3789,159.646,104.236,4.3774,0.0222707,0.159972,20.8522,498.91,28.6378,0.0,0.0
4812,1202.75,27.4096,28.445,159.41,104.212,4.37645,0.0222218,0.159945,20.8515,498.88,28.6377,0.0,0.0
4824,1205.75,27.4483,28.2577,157.775,104.202,4.34701,0.0226233,0.159775,20.8511,498.84,28.6978,0.0,0.0
4836,1208.75,27.3457,28.0286,158.023,104.182,4.34511,0.02287,0.159288,20.8509,498.78,28.7001,0.0,0.0
4848,1211.75,27.1548,27.999,161.096,104.153,4.37171,0.0233176,0.159388,20.8499,498.75,28.6424,0.0,0.0
4860,1214.75,27.1342,28.1759,157.504,104.104,4.37883,0.0238127,0.159906,20.8503,498.71,28.6235,0.0,0.0
4872,1217.75,27.2452,28.0065,158.642,104.057,4.37265,0.0239865,0.158949,20.8512,498.65,28.6321,0.0,0.0
4884,1220.75,26.9257,27.9842,156.928,104.016,4.36886,0.0240448,0.157143,20.8526,498.63,28.6364,0.0,0.0
4896,1223.75,27.101,27.6785,160.28,103.989,4.35746,0.0239985,0.156141,20.8533,498.56,28.6576,0.0,0.0
4908,1226.75,27.1679,27.5268,156.909,103.96,4.36173,0.023858,0.155488,20.8555,498.54,28.6463,0.0,0.0
4920,1229.75,26.8286,27.4003,160.354,103.944,4.34606,0.0240893,0.155302,20.8556,498.47,28.6774,0.0,0.0
4932,1232.75,26.6174,27.1559,154.899,103.928,4.39925,0.0246454,0.156887,20.8546,498.44,28.5661,0.0,0.0
4944,1235.75,26.2946,27.2753,159.628,103.931,4.31187,0.0248276,0.157173,20.8543,498.38,28.7476,0.0,0.0
4956,1238.75,26.4782,27.2205,157.155,103.909,4.3774,0.0244622,0.156368,20.8555,498.36,28.6094,0.0,0.0
4968,1241.75,26.4754,27.2659,158.18,103.906,4.35223,0.024202,0.154856,20.8578,498.31,28.6613,0.0,0.0
4980,1244.75,26.4103,27.2793,161.447,103.89,4.31709,0.0240901,0.153413,20.859,498.29,28.7331,0.0,0.0
4992,1247.75,26.7002,26.9688,157.759,103.875,4.32992,0.0241816,0.15261,20.8599,498.26,28.705,0.0,0.0
5004,1250.75,26.4701,26.8262,155.612,103.859,4.30665,0.0243935,0.152011,20.8594,498.22,28.7523,0.0,0.0
5016,1253.75,26.2324,27.1709,158.559,103.799,4.33419,0.0243938,0.150706,20.8607,498.15,28.6895,0.0,0.0
5028,1256.75,26.2684,27.0666,152.458,103.738,4.36316,0.0242915,0.150217,20.861,498.13,28.624,0.0,0.0
5040,1259.75,26.2369,27.2297,154.253,103.671,4.32944,0.024182,0.150955,20.8611,498.07,28.6882,0.0,0.0
5052,1262.75,26.13,26.6279,156.546,103.608,4.32802,0.0237914,0.151413,20.8612,498.02,28.6857,0.0,0.0
5064,1265.75,25.6477,26.8231,153.448,103.542,4.30427,0.0237077,0.152132,20.8599,497.919,28.7297,0.0,0.0
5076,1268.75,25.5889,26.2621,157.171,103.491,4.32422,0.0240292,0.155167,20.8559,497.919,28.6835,0.0,0.0
5088,1271.75,25.8092,26.1246,158.807,103.436,4.35461,0.0240597,0.155811,20.8561,497.879,28.6154,0.0,0.0
5100,1274.75,25.7679,26.9025,163.079,103.406,4.30902,0.0237049,0.15431,20.8601,497.869,28.7078,0.0,0.0
5112,1277.75,25.1752,26.2033,160.445,103.361,4.36553,0.023318,0.151805,20.8638,497.819,28.5862,0.0,0.0
5124,1280.75,25.4323,26.5251,156.411,103.342,4.29335,0.023277,0.149882,20.8673,497.809,28.7351,0.0,0.0
5136,1283.75,25.3762,26.9426,159.051,103.351,4.28528,0.02327,0.148376,20.8684,497.759,28.7529,0.0,0.0
5148,1286.75,25.364,26.3678,161.243,103.37,4.33656,0.0232847,0.147911,20.87,497.699,28.6471,0.0,0.0
5160,1289.75,25.378,25.8521,155.869,103.401,4.34986,0.0231261,0.147136,20.8708,497.669,28.6222,0.0,0.0
5172,1292.75,25.3437,26.2841,162.149,103.466,4.34796,0.0229808,0.14631,20.871,497.629,28.6318,0.0,0.0
5184,1295.75,25.4457,26.4087,158.865,103.531,4.35034,0.0232268,0.147048,20.8696,497.579,28.6326,0.0,0.0
5196,1298.75,25.441,25.9286,157.144,103.628,4.2848,0.0232459,0.14762,20.869,497.539,28.7782,0.0,0.0
5208,1301.75,25.4615,26.1076,159.499,103.754,4.35651,0.022543,0.147057,20.8688,497.519,28.6392,0.0,0.0
5220,1304.75,25.8087,25.8918,158.115,103.915,4.37123,0.0221219,0.146575,20.8688,497.469,28.6227,0.0,0.0
5232,1307.75,25.0141,25.8461,159.7,104.037,4.37645,0.0219362,0.146244,20.8688,497.419,28.6226,0.0,0.0
5244,1310.75,24.8992,26.252,157.86,104.194,4.3869,0.0218621,0.146163,20.8688,497.419,28.6146,0.0,0.0
5256,1313.75,25.4044,25.8891,160.664,104.347,4.38263,0.0217715,0.146053,20.8688,497.349,28.6366,0.0,0.0
5268,1316.75,24.8283,26.1314,161.916,104.507,4.41302,0.0218312,0.146274,20.8688,497.319,28.588,0.0,0.0
5280,1319.75,25.2746,26.0159,157.562,104.648,4.38595,0.0221282,0.14718,20.8671,497.289,28.6558,0.0,0.0
5292,1322.75,25.1195,25.7129,162.822,104.786,4.3812,0.0223387,0.147226,20.8666,497.229,28.6776,0.0,0.0
5304,1325.75,25.4246,25.4306,160.657,104.922,4.40685,0.0220244,0.146475,20.8665,497.199,28.6366,0.0,0.0
5316,1328.75,24.9637,25.5271,159.751,105.052,4.3907,0.0217814,0.146047,20.8677,497.179,28.6809,0.0,0.0
5328,1331.75,24.6982,25.8762,157.48,105.14,4.36126,0.0218714,0.145759,20.8689,497.129,28.7492,0.0,0.0
5340,1334.75,25.3025,26.1857,156.573,105.216,4.36506,0.0217967,0.145287,20.8705,497.109,28.7479,0.0,0.0
5352,1337.75,25.0401,25.5068,160.765,105.269,4.36078,0.0218602,0.145062,20.8701,497.039,28.7613,0.0,0.0
5364,1340.75,25.0827,25.6641,161.147,105.315,4.35651,0.0220584,0.145252,20.8697,497.019,28.7741,0.0,0.0
5376,1343.75,24.9643,25.4234,157.958,105.347,4.41112,0.0222201,0.144994,20.8702,496.979,28.6643,0.0,0.0
5388,1346.75,24.9624,25.6903,160.686,105.332,4.36411,0.0222175,0.14489,20.8719,496.929,28.7598,0.0,0.0
5400,1349.75,24.8916,25.9773,157.975,105.315,4.42109,0.0218965,0.144947,20.8725,496.898,28.6411,0.0,0.0
5412,1352.75,24.3502,25.4302,157.163,105.283,4.36078,0.0215342,0.144441,20.8727,496.888,28.7625,0.0,0.0
5424,1355.75,25.0093,25.0138,158.029,105.231,4.36696,0.0215947,0.144108,20.8727,496.828,28.7452,0.0,0.0
5436,1358.75,25.0568,25.303,158.148,105.159,4.37408,0.021527,0.144317,20.8727,496.788,28.7243,0.0,0.0
5448,1361.75,25.0457,25.5335,154.857,105.077,4.39545,0.0216267,0.143877,20.8727,496.778,28.6733,0.0,0.0
5460,1364.75,24.6815,25.4413,162.674,104.971,4.37835,0.0219014,0.143603,20.8719,496.738,28.6993,0.0,0.0
5472,1367.75,25.1846,25.0215,162.705,104.853,4.35793,0.0218891,0.143279,20.8713,496.688,28.7314,0.0,0.0
5484,1370.75,24.7507,25.6343,158.954,104.738,4.36791,0.0218057,0.142594,20.8712,496.668,28.7008,0.0,0.0
5496,1373.75,25.0101,25.3666,161.34,104.654,4.39022,,0.143188,,496.628,28.6475,0.0,0.0
5508,1376.75,25.0489,25.6469,160.75,104.541,4.34464,,,,496.598,28.7321,0.0,0.0
5520,1379.75,24.4541,25.0948,162.733,104.465,4.33371,,,,496.558,28.7482,0.0,0.0
5528,1381.75,24.506,24.713,159.077,104.426,4.32374,,,,496.528,28.7657,0.0,0.0