File: 01_Data/Cotton_Sheet/Cone/Cotton_Sheet_Cone_HF50Scan_220429_R2.csv
Names,Time,Stack TC,Smoke TC,Exh Press,Smoke Comp,Smoke Meas,CO Meter,CO2 Meter,O2 Meter,Sample Mass,Ext Coeff,Start Test,Flame Verif
Chan Gain,,500,500,1,1,1,1,1,1,1,1,1.0,1.0
Offset,,0,0,0.138979,0,0,0,0,0,0,0,0.0,0.0
Gain,,1,1,25.011,14.099,15.1965,1,1,1,1.00087,0.986176,1.0,1.0
Units,sec,C,C,Pa,%,%,%,%,%,g,/m,,
Baseline,,29.7967,30.8535,149.34,105.37,102.121,0.000607553,0.0493121,21.0315,-835.101,0.270958,,
2,0.25,28.738,29.1702,150.97,106.366,103.088,0.000710003,0.0478797,21.0321,180.567,0.270808,0.0,0.0
4,0.75,27.8389,28.9488,150.414,106.355,102.717,0.000777713,0.0495408,21.0296,180.527,0.301083,0.0,0.0
6,1.25,27.9039,28.7263,145.889,106.375,102.008,0.000930529,0.0508864,21.0175,180.467,0.362653,0.0,0.0
8,1.75,27.8372,28.9925,151.044,106.358,101.698,0.00105431,0.0637681,20.9985,180.617,0.387531,0.0,0.0
10,2.25,27.8669,29.4072,151.788,106.384,99.2501,0.00115457,0.0742023,20.9832,180.297,0.600496,0.0,0.0
12,2.75,27.9675,28.7582,139.537,106.356,106.464,0.00137412,0.0956143,20.9518,180.317,-0.00880611,0.0,1.0
14,3.25,27.7629,29.1815,126.759,106.263,107.417,0.00155195,0.124622,20.9094,180.076,-0.0934621,0.0,1.0
16,3.75,28.2641,29.3164,127.503,106.312,108.514,0.0017885,0.165858,20.875,180.107,-0.177351,0.0,1.0
18,4.25,28.6325,29.519,122.919,106.304,108.734,0.00198012,0.215226,20.8279,179.826,-0.195489,0.0,1.0
20,4.75,28.862,29.6099,115.848,106.263,108.271,0.00218542,0.255213,20.7897,179.836,-0.161914,0.0,1.0
22,5.25,29.4157,30.4083,114.278,106.238,107.552,0.00239681,0.30905,20.7588,179.696,-0.106356,0.0,1.0
24,5.75,30.2439,30.7369,112.958,106.185,107.981,0.00262987,0.352658,20.7337,179.626,-0.145066,0.0,1.0
26,6.25,31.4766,31.8294,125.837,106.153,106.243,0.0028743,0.38382,20.7134,179.646,-0.00735019,0.0,1.0
28,6.75,32.6267,32.5652,133.39,106.094,106.054,0.0031557,0.405317,20.697,179.556,0.00330037,0.0,1.0
30,7.25,33.2132,33.4065,142.801,106.055,104.972,0.0034587,0.413342,20.7074,179.596,0.0887791,0.0,1.0
32,7.75,32.8858,32.3805,137.797,105.982,104.363,0.00370412,0.411394,20.7158,179.586,0.133211,0.0,1.0
34,8.25,33.2926,34.2752,149.028,105.935,103.526,0.00409422,0.399608,20.7316,179.606,0.198971,0.0,0.0
36,8.75,34.245,34.6073,146.659,105.847,102.891,0.00441019,0.380874,20.7525,179.586,0.24502,0.0,0.0
38,9.25,34.6315,35.215,145.751,105.789,103.182,0.00466614,0.358336,20.7694,179.586,0.215818,0.0,0.0
40,9.75,34.8506,35.416,144.531,105.692,102.883,0.00505453,0.333453,20.7889,179.576,0.233017,0.0,0.0
42,10.25,34.6105,35.2165,145.589,105.635,102.894,0.00536912,0.313298,20.8098,179.566,0.227392,0.0,0.0
44,10.75,34.3277,35.064,145.787,105.534,102.636,0.00571481,0.286072,20.8268,179.576,0.240852,0.0,0.0
46,11.25,34.3349,35.2402,145.776,105.471,102.617,0.00599482,0.26402,20.8485,179.586,0.237304,0.0,0.0
48,11.75,34.2837,35.4568,145.582,105.373,102.3,0.00624263,0.246157,20.866,179.566,0.255997,0.0,0.0
50,12.25,34.1851,35.5483,148.052,105.301,102.547,0.00646225,0.224041,20.8846,179.566,0.229294,0.0,0.0
52,12.75,34.0941,35.3841,147.586,105.214,102.134,0.00663358,0.206126,20.8996,179.556,0.257079,0.0,0.0
54,13.25,34.301,35.4232,148.975,105.135,101.942,0.00676645,0.189532,20.9153,179.546,0.26677,0.0,0.0
56,13.75,34.2752,35.4827,149.284,105.053,101.913,0.00681052,0.174217,20.929,179.566,0.262525,0.0,0.0
58,14.25,34.1543,35.7074,148.476,104.952,101.764,0.00684622,0.160614,20.9409,179.546,0.266876,0.0,0.0
60,14.75,34.2438,35.5651,148.759,104.866,101.75,0.00682017,0.148518,20.9516,179.526,0.260927,0.0,0.0
62,15.25,34.1284,35.3077,147.131,104.789,101.752,0.0067496,0.137899,20.9614,179.516,0.254484,0.0,0.0
64,15.75,34.0848,35.3942,149.884,104.711,101.587,0.00669244,0.128559,20.9693,179.506,0.26206,0.0,0.0
66,16.25,34.0658,35.0566,152.682,104.653,101.766,0.00642577,0.120334,20.9762,179.496,0.241992,0.0,0.0
68,16.75,34.0904,35.34,145.412,104.577,101.572,0.00620977,0.11308,20.9822,179.506,0.252267,0.0,0.0
70,17.25,33.6536,35.1715,148.37,104.524,101.496,0.00584765,0.106604,20.987,179.516,0.254292,0.0,0.0
72,17.75,33.8155,35.1013,150.463,104.469,101.146,0.00555433,0.100819,20.9914,179.526,0.279629,0.0,0.0
74,18.25,34.112,35.1596,146.568,104.421,101.292,0.00531674,0.0961336,20.9954,179.526,0.263183,0.0,0.0
76,18.75,33.4865,35.0121,148.441,104.371,101.279,0.00512429,0.0910794,20.9986,179.506,0.260164,0.0,0.0
78,19.25,33.5369,34.8096,149.402,104.339,101.04,0.00467479,0.0869856,21.0013,179.506,0.277945,0.0,0.0
80,19.75,33.5042,34.6437,147.689,104.292,101.051,0.00431069,0.083138,21.0034,179.506,0.273031,0.0,0.0
82,20.25,33.3725,34.7636,148.407,104.277,101.192,0.00389534,0.079543,21.0056,179.496,0.259757,0.0,0.0
84,20.75,33.5038,34.6133,151.357,104.256,100.81,0.0035589,0.0766311,21.0079,179.486,0.290814,0.0,0.0
86,21.25,33.5219,34.7287,148.619,104.232,101.207,0.0032051,0.0737134,21.0101,179.476,0.25474,0.0,0.0
88,21.75,33.3292,34.0539,151.202,104.231,100.8,0.00291852,0.0708469,21.0123,179.466,0.289578,0.0,0.0
90,22.25,32.5367,34.1603,151.14,104.242,100.972,0.00277085,0.068525,21.0133,179.476,0.275758,0.0,0.0
92,22.75,32.8067,34.3581,150.268,104.232,101.035,0.00251833,0.0660733,21.0154,179.476,0.269499,0.0,0.0
94,23.25,33.3328,34.0949,146.959,104.251,101.041,0.00231379,0.0640874,21.017,179.486,0.27055,0.0,0.0
96,23.75,32.6139,33.974,151.189,104.266,101.088,0.00212876,0.0621664,21.0184,179.486,0.267714,0.0,0.0
98,24.25,33.0365,34.0639,147.254,104.298,101.051,0.00197888,0.0606105,21.0195,179.476,0.273571,0.0,0.0
100,24.75,33.0445,34.621,146.723,104.337,101.168,0.00185366,0.0592501,21.0204,179.486,0.266815,0.0,0.0
102,25.25,32.4093,33.546,150.659,104.365,101.2,0.0017488,0.0586227,21.0211,179.486,0.266437,0.0,0.0
104,25.75,32.0941,33.5995,148.661,104.412,101.278,0.00165622,0.05755,21.0217,179.486,0.263591,0.0,0.0
106,26.25,32.3072,33.9627,148.646,104.443,101.286,0.00157436,0.0565182,21.0226,179.476,0.26548,0.0,0.0
108,26.75,32.4758,33.7807,148.974,104.5,101.292,0.00149724,0.0556824,21.0234,179.476,0.269783,0.0,0.0
110,27.25,32.6669,33.6616,148.857,104.553,101.185,0.00142504,0.0549341,21.024,179.486,0.283242,0.0,0.0
112,27.75,32.2574,34.3978,148.712,104.613,101.4,0.00133395,0.0542636,21.0244,179.466,0.269886,0.0,0.0
114,28.25,32.2006,34.2306,151.367,104.673,101.501,0.00126017,0.0537206,21.0248,179.466,0.266206,0.0,0.0
116,28.75,31.8841,33.8413,145.713,104.722,101.511,0.00118262,0.0532807,21.0252,179.496,0.269389,0.0,0.0
118,29.25,31.6239,33.124,148.852,104.779,101.584,0.00110381,0.0529244,21.0254,179.496,0.267841,0.0,0.0
120,29.75,32.38,33.2338,147.435,104.838,102.269,0.00103997,0.0526358,21.0256,179.486,0.214647,0.0,0.0
122,30.25,32.7846,33.8795,144.524,104.892,101.832,0.000976207,0.0523877,21.0258,179.466,0.256075,0.0,0.0
124,30.75,31.9389,33.5305,147.137,104.966,101.723,0.000913706,0.052174,21.0255,179.486,0.271441,0.0,0.0
126,31.25,31.8701,33.5247,146.401,105.015,101.94,0.000855471,0.0519794,21.0252,179.466,0.25708,0.0,0.0
128,31.75,32.1022,32.9042,148.271,105.073,101.945,0.000801451,0.0518025,21.025,179.456,0.261469,0.0,0.0
130,32.25,31.8782,33.1524,148.668,105.12,101.628,0.000757695,0.0516593,21.0249,179.466,0.292215,0.0,0.0
132,32.75,31.8525,33.1612,149.852,105.185,101.829,0.000700573,0.0515147,21.0248,179.496,0.280484,0.0,0.0
134,33.25,31.773,32.9164,145.617,105.227,102.307,0.000654305,0.0513718,21.0247,179.486,0.243431,0.0,0.0
136,33.75,31.2686,32.8515,149.196,105.295,102.303,0.000607197,0.0512561,21.0246,179.466,0.249402,0.0,0.0
138,34.25,31.8457,33.1843,148.868,105.318,102.06,0.00056904,0.051176,21.0245,179.476,0.271774,0.0,0.0
140,34.75,31.8325,33.0138,148.345,105.379,102.192,0.00054054,0.0511111,21.0244,179.466,0.265669,0.0,0.0
142,35.25,31.7579,33.4517,150.055,105.423,102.26,0.000517455,0.0510314,21.0244,179.476,0.263543,0.0,0.0
144,35.75,32.2731,33.5065,149.184,105.462,102.241,0.000501163,0.0509668,21.0244,179.476,0.268328,0.0,0.0
146,36.25,30.9875,32.7853,150.409,105.488,102.198,0.000487967,0.0509145,21.0243,179.466,0.274091,0.0,0.0
148,36.75,31.3999,32.8988,152.019,105.531,102.495,0.000479179,0.0508721,21.0243,179.456,0.252457,0.0,0.0
150,37.25,31.7325,33.0174,148.156,105.549,102.478,0.000473772,0.0509056,21.0243,179.446,0.255462,0.0,0.0
152,37.75,31.4284,32.7077,149.325,105.587,102.247,0.00046369,0.0509328,21.0243,179.446,0.278008,0.0,0.0
154,38.25,31.411,32.7727,150.522,105.596,102.363,0.000450392,0.0509548,21.0238,179.456,0.268944,0.0,0.0
156,38.75,31.7767,33.4526,147.144,105.627,102.485,0.00043012,0.0509726,21.0235,179.486,0.26118,0.0,0.0
158,39.25,31.512,32.7851,149.475,105.618,102.304,0.000405151,0.0509799,21.0232,179.486,0.275795,0.0,0.0
160,39.75,31.679,33.2487,148.624,105.644,102.669,0.000384926,0.0509793,21.0229,179.466,0.247097,0.0,0.0
162,40.25,32.0191,33.1329,151.28,105.643,102.57,0.000366644,0.0509789,21.0227,179.456,0.255359,0.0,0.0
164,40.75,31.4273,33.276,145.199,105.649,102.504,0.000350126,0.0510328,21.0226,179.466,0.261408,0.0,0.0
166,41.25,31.9858,32.4477,152.04,105.639,102.458,0.000336746,0.0510765,21.0224,179.456,0.264477,0.0,0.0
168,41.75,31.7024,33.1042,147.596,105.643,102.443,0.000337942,0.0510983,21.0223,179.466,0.266047,0.0,0.0
170,42.25,31.5976,32.9441,147.961,105.603,102.546,0.000349739,0.051116,21.0229,179.446,0.254151,0.0,0.0
172,42.75,31.7417,33.0341,146.486,105.619,102.591,0.000367533,0.0511031,21.0233,179.456,0.251699,0.0,0.0
174,43.25,31.7821,33.0415,149.228,105.587,102.625,0.000389359,0.0510928,21.0237,179.466,0.246088,0.0,0.0
176,43.75,31.8122,32.7988,146.404,105.566,102.277,0.000407038,0.0510843,21.0239,179.466,0.273809,0.0,0.0
178,44.25,31.399,32.3305,150.293,105.529,102.417,0.000428331,0.0510775,21.0242,179.466,0.258969,0.0,0.0
180,44.75,31.6727,33.3203,148.902,105.514,102.42,0.000451854,0.0510991,21.0244,179.456,0.257499,0.0,0.0
182,45.25,31.657,33.0244,146.685,105.471,102.397,0.000472809,0.0511166,21.0245,179.456,0.255891,0.0,0.0
184,45.75,30.918,33.0508,143.786,105.477,102.264,0.000491495,0.0511173,21.0246,179.486,0.267636,0.0,0.0
186,46.25,31.6174,33.0672,150.377,105.449,101.975,0.000507899,0.0511178,21.0247,179.476,0.289818,0.0,0.0
188,46.75,31.3586,32.7174,151.666,105.436,102.316,0.000522327,0.0511182,21.0248,179.486,0.259894,0.0,0.0
190,47.25,31.0458,32.2731,152.765,105.418,102.299,0.000543528,0.0511185,21.0249,179.466,0.259859,0.0,0.0
192,47.75,31.3925,32.9865,151.025,105.413,102.278,0.000569263,0.051133,21.0249,179.466,0.261126,0.0,0.0
194,48.25,31.3802,32.5516,146.663,105.395,102.051,0.000598358,0.0511577,21.025,179.466,0.278959,0.0,0.0
196,48.75,31.1809,31.9792,144.385,105.375,102.119,0.000629349,0.0511919,21.025,179.456,0.271448,0.0,0.0
198,49.25,31.4614,33.2337,147.175,105.385,102.227,0.000655087,0.0512325,21.025,179.456,0.263182,0.0,0.0
200,49.75,31.2097,32.6901,149.826,105.402,102.139,0.00066636,0.0512653,21.0248,179.456,0.271983,0.0,0.0
202,50.25,31.039,32.0744,148.398,105.368,102.198,0.000685637,0.0513326,21.0244,179.446,0.264281,0.0,0.0
204,50.75,30.8087,32.2627,149.614,105.384,102.411,0.000702197,0.0513729,21.024,179.446,0.247513,0.0,0.0
206,51.25,30.812,32.5029,147.471,105.332,102.089,0.000703813,0.0513926,21.0239,179.456,0.270468,0.0,0.0
208,51.75,30.8553,32.2448,150.232,105.325,102.041,0.000704502,0.0513872,21.0237,179.456,0.27403,0.0,0.0
210,52.25,31.2163,32.5048,148.361,105.303,102.06,0.000711708,0.0513635,21.0235,179.446,0.270611,0.0,0.0
212,52.75,30.6917,31.6853,148.571,105.288,102.162,0.000717545,0.0513535,21.0234,179.446,0.260728,0.0,0.0
214,53.25,30.9396,32.5942,149.618,105.277,102.186,0.000733127,0.0513433,21.0233,179.436,0.25777,0.0,0.0
216,53.75,31.0913,32.2,148.106,105.253,101.951,0.000745749,0.0513408,21.0232,179.416,0.275792,0.0,0.0
218,54.25,30.9629,32.2457,152.333,105.24,102.02,0.000766829,0.0513401,21.0231,179.426,0.26887,0.0,0.0
220,54.75,31.0741,32.1214,146.924,105.238,102.5,0.000783904,0.0513525,21.0231,179.436,0.228014,0.0,0.0
222,55.25,31.1792,32.4962,147.447,105.223,102.018,0.000808596,0.0513626,21.0233,179.436,0.267573,0.0,0.0
224,55.75,31.0984,32.0902,148.463,105.211,101.951,0.000828596,0.051425,21.0236,179.446,0.272322,0.0,0.0
226,56.25,31.0798,32.7357,152.141,105.196,101.933,0.00084289,0.0514756,21.0239,179.436,0.272619,0.0,0.0
228,56.75,30.6451,32.3121,150.374,105.221,102.189,0.000852754,0.0515236,21.0242,179.456,0.252937,0.0,0.0
230,57.25,30.7739,31.9999,150.358,105.257,102.053,0.000860744,0.051569,21.0243,179.446,0.267458,0.0,0.0
232,57.75,30.932,32.1519,153.587,105.275,101.955,0.000847912,0.0515986,21.0245,179.446,0.277241,0.0,0.0
234,58.25,30.6796,31.9387,147.542,105.272,102.317,0.000837518,0.0516162,21.0246,179.436,0.246282,0.0,0.0
236,58.75,30.3596,32.1201,151.67,105.258,102.31,0.000811012,0.0515876,21.0247,179.436,0.245663,0.0,0.0
238,59.25,30.9254,32.0013,146.491,105.246,102.312,0.000789541,0.0515258,21.0248,179.436,0.244587,0.0,0.0
240,59.75,30.5858,31.7505,153.038,105.244,101.915,0.000762507,0.0514758,21.0249,179.426,0.278044,0.0,0.0
242,60.25,30.7336,32.1593,148.687,105.23,102.174,0.00074061,0.0514082,21.0249,179.426,0.254976,0.0,0.0
244,60.75,30.8448,32.2972,148.845,105.227,102.432,0.00073131,0.0513534,21.025,179.426,0.232885,0.0,0.0
246,61.25,30.2922,32.2269,151.406,105.216,101.908,0.000723778,0.0513362,21.025,179.416,0.276336,0.0,0.0
248,61.75,30.2976,31.7837,144.454,105.208,102.047,0.000727831,0.0513222,21.025,179.416,0.263894,0.0,0.0
250,62.25,30.4301,31.409,150.344,105.2,102.013,0.000740252,0.0513109,21.0251,179.436,0.266095,0.0,0.0
252,62.75,30.8267,31.5411,149.161,105.197,101.969,0.000770824,0.0513017,21.0251,179.416,0.26966,0.0,0.0
254,63.25,30.7251,32.0187,146.358,105.207,102.249,0.000795588,0.0512657,21.0251,179.426,0.246742,0.0,0.0
256,63.75,30.535,31.8843,147.104,105.255,102.186,0.000806145,0.0512109,21.0251,179.416,0.256041,0.0,0.0
258,64.25,30.1923,31.4231,148.238,105.328,102.326,0.000824197,0.0511665,21.0251,179.406,0.250163,0.0,0.0
260,64.75,29.9786,31.0265,148.997,105.392,102.197,0.000847079,0.0511169,21.0251,179.416,0.266301,0.0,0.0
262,65.25,30.5328,32.557,149.277,105.451,102.51,0.000873046,0.0510768,21.0249,179.406,0.244678,0.0,0.0
264,65.75,30.0813,31.6742,149.631,105.511,102.719,0.000886455,0.0510443,21.0248,179.416,0.231985,0.0,0.0
266,66.25,30.6215,31.4816,144.88,105.566,102.267,0.000890456,0.051018,21.0247,179.396,0.274703,0.0,0.0
268,66.75,30.7125,32.123,149.572,105.625,102.332,0.000881631,0.0510067,21.0246,179.386,0.274007,0.0,0.0
270,67.25,31.0656,31.8039,145.038,105.678,102.44,0.000863624,0.0509947,21.0245,179.396,0.26921,0.0,0.0
272,67.75,30.7945,31.6636,152.381,105.723,102.622,0.000838251,0.0509913,21.0244,179.396,0.257533,0.0,0.0
274,68.25,29.7395,31.3804,148.026,105.767,102.631,0.000807988,0.0509672,21.0244,179.396,0.260303,0.0,0.0
276,68.75,29.7761,31.8024,147.938,105.805,102.508,0.000783476,0.0509284,21.0243,179.416,0.273839,0.0,0.0
278,69.25,30.8224,31.5834,147.776,105.846,102.615,0.000747954,0.050897,21.0243,179.436,0.268218,0.0,0.0
280,69.75,30.4401,31.7085,145.589,105.885,102.666,0.000719182,0.0509393,21.0243,179.456,0.267044,0.0,0.0
282,70.25,30.1086,31.775,148.148,105.919,102.867,0.000691057,0.0509736,21.0243,179.476,0.252878,0.0,0.0
284,70.75,30.6348,31.6315,147.924,105.941,102.761,0.000668275,0.051015,21.0242,179.456,0.263606,0.0,0.0
286,71.25,30.6068,32.2964,146.485,105.962,102.807,0.000649823,0.0510485,21.024,179.426,0.261498,0.0,0.0
288,71.75,30.5354,31.9882,147.511,106.009,103.003,0.000634876,0.0510213,21.0236,179.416,0.248874,0.0,0.0
290,72.25,29.9535,31.5401,151.807,106.013,102.754,0.000634818,0.0509994,21.0233,179.416,0.270166,0.0,0.0
292,72.75,30.0421,31.5445,151.13,106.038,102.794,0.000634771,0.0509544,21.023,179.406,0.268736,0.0,0.0
294,73.25,30.7389,31.803,148.852,106.078,102.678,0.000639554,0.0509181,21.0228,179.416,0.281837,0.0,0.0
296,73.75,30.5923,32.0121,149.37,106.071,102.937,0.000643428,0.0508886,21.0226,179.416,0.259388,0.0,0.0
298,74.25,30.6682,32.0849,149.255,106.091,102.694,0.00065621,0.0508918,21.0225,179.396,0.281487,0.0,0.0
300,74.75,30.4807,32.301,148.94,106.118,103.03,0.000666563,0.0508945,21.0223,179.406,0.255494,0.0,0.0
302,75.25,29.9899,31.2964,149.508,106.126,103.09,0.000685802,0.0509109,21.0222,179.416,0.251099,0.0,0.0
304,75.75,30.2751,31.6458,147.66,106.118,103.323,0.000701385,0.050937,21.0222,179.406,0.230881,0.0,0.0
306,76.25,30.7476,31.8267,150.915,106.143,103.153,0.000711595,0.0509368,21.0221,179.406,0.247216,0.0,0.0
308,76.75,30.6599,31.9851,145.341,106.126,103.13,0.000719866,0.0509173,21.0221,179.406,0.247754,0.0,0.0
310,77.25,29.9608,31.7325,147.86,106.148,103.079,0.000713302,0.0509158,21.022,179.406,0.253748,0.0,0.0
312,77.75,30.0516,31.7902,151.322,106.134,103.041,0.000707985,0.0509275,21.022,179.396,0.255822,0.0,0.0
314,78.25,30.5275,32.0704,147.027,106.144,102.879,0.000703679,0.0509369,21.022,179.396,0.270259,0.0,0.0
316,78.75,30.3867,31.7648,148.997,106.13,102.902,0.000679704,0.0509852,21.0219,179.396,0.267156,0.0,0.0
318,79.25,30.2746,31.5688,149.442,106.14,102.962,0.000660285,0.0510244,21.0219,179.386,0.262932,0.0,0.0
320,79.75,30.6524,32.1621,147.47,106.122,103.034,0.000634918,0.0510289,21.0219,179.396,0.255459,0.0,0.0
322,80.25,30.2288,31.7406,152.282,106.134,103.077,0.000614371,0.0510327,21.0219,179.396,0.252821,0.0,0.0
324,80.75,30.1424,31.7398,146.335,106.12,103.204,0.000585685,0.0510571,21.0219,179.406,0.241041,0.0,0.0
326,81.25,29.8582,31.6091,149.944,106.117,103.03,0.00056245,0.0510961,21.0219,179.416,0.25535,0.0,0.0
328,81.75,30.2174,31.3451,146.373,106.082,102.924,0.00052789,0.0511278,21.0219,179.416,0.26143,0.0,0.0
330,82.25,30.3585,31.7171,151.179,106.092,102.736,0.000499897,0.0511534,21.0219,179.436,0.278037,0.0,0.0
332,82.75,29.843,31.4889,149.955,106.073,102.713,0.000477223,0.051167,21.022,179.416,0.278408,0.0,0.0
334,83.25,30.0848,32.0469,149.6,106.06,102.919,0.000458857,0.0511716,21.0222,179.426,0.259995,0.0,0.0
336,83.75,30.5519,32.0137,149.281,106.033,103.015,0.00044398,0.0511754,21.0223,179.426,0.249828,0.0,0.0
338,84.25,30.3903,32.1178,147.539,106.025,103.07,0.000436744,0.0512063,21.0223,179.416,0.244492,0.0,0.0
340,84.75,29.7541,31.2095,145.216,105.991,102.761,0.000430883,0.0512313,21.0224,179.416,0.26772,0.0,0.0
342,85.25,30.0893,31.5083,148.292,105.99,103.12,0.000426136,0.0512587,21.0225,179.416,0.237445,0.0,0.0
344,85.75,30.2975,31.4746,151.445,105.938,102.834,0.000430718,0.0512873,21.0225,179.406,0.257307,0.0,0.0
346,86.25,29.7564,31.377,146.728,105.934,102.866,0.000434429,0.0513034,21.0226,179.416,0.254299,0.0,0.0
348,86.75,30.319,31.3745,147.788,105.893,102.577,0.000437435,0.0513099,21.0226,179.426,0.275218,0.0,0.0
350,87.25,30.1879,31.4147,146.719,105.876,102.394,0.00044811,0.0513153,21.0226,179.436,0.289271,0.0,0.0
352,87.75,30.1149,31.4663,146.061,105.83,102.619,0.000471019,0.051306,21.0227,179.426,0.266565,0.0,0.0
354,88.25,30.4875,31.6959,143.09,105.811,102.594,0.000478449,0.0512985,21.0227,179.416,0.267094,0.0,0.0
356,88.75,30.0379,31.6804,147.572,105.77,102.685,0.000491155,0.0512924,21.0227,179.416,0.256051,0.0,0.0
358,89.25,30.3145,31.418,148.528,105.737,102.505,0.000498912,0.0512875,21.0228,179.416,0.268514,0.0,0.0
360,89.75,30.1786,31.8689,149.668,105.701,102.745,0.000502912,0.0512835,21.0228,179.446,0.245341,0.0,0.0
362,90.25,29.7757,31.7608,149.576,105.67,102.481,0.000505518,0.0512803,21.0228,179.436,0.26513,0.0,0.0
364,90.75,30.3349,31.0377,149.848,105.625,102.418,0.000507059,0.0512991,21.0224,179.416,0.266721,0.0,0.0
366,91.25,30.1477,31.8741,146.99,105.592,102.497,0.000516495,0.0513336,21.0219,179.426,0.257343,0.0,0.0
368,91.75,29.6804,31.2184,151.038,105.582,102.616,0.000523863,0.0513616,21.0217,179.416,0.246518,0.0,0.0
370,92.25,30.4265,31.5284,146.315,105.591,102.376,0.000541835,0.0513707,21.0215,179.406,0.267498,0.0,0.0
372,92.75,30.0238,31.1757,145.181,105.594,102.664,0.000546669,0.051378,21.0213,179.416,0.243409,0.0,0.0
374,93.25,30.0178,31.1382,145.869,105.625,102.5,0.000582658,0.051384,21.0211,179.416,0.259822,0.0,0.0
376,93.75,29.9833,31.3423,152.063,105.622,102.712,0.000611809,0.0513959,21.0208,179.416,0.241676,0.0,0.0
378,94.25,29.898,31.3637,147.867,105.649,102.513,0.000647481,0.0514189,21.0206,179.406,0.260704,0.0,0.0
380,94.75,29.8217,31.157,150.076,105.652,102.541,0.000676375,0.0514251,21.0204,179.406,0.258563,0.0,0.0
382,95.25,30.0555,31.6395,146.186,105.689,102.398,0.000702319,0.0514259,21.0203,179.416,0.27369,0.0,0.0
384,95.75,30.0584,31.1487,150.572,105.684,102.448,0.00072562,0.0514238,21.0202,179.396,0.269033,0.0,0.0
386,96.25,30.1714,31.4102,150.345,105.714,102.542,0.000741319,0.0514203,21.0201,179.386,0.263592,0.0,0.0
388,96.75,29.9811,31.5217,144.863,105.728,102.517,0.000751178,0.0514603,21.02,179.366,0.266756,0.0,0.0
390,97.25,30.3057,31.1211,150.581,105.748,102.59,0.00074774,0.0515313,21.0199,179.366,0.262309,0.0,0.0
392,97.75,29.9056,31.5783,147.828,105.761,102.686,0.000734675,0.0515817,21.0199,179.386,0.255309,0.0,0.0
394,98.25,29.5657,31.0124,146.506,105.773,102.935,0.000714578,0.051616,21.0199,179.406,0.23534,0.0,0.0
396,98.75,30.0388,31.0391,147.504,105.802,102.796,0.000689737,0.0516367,21.0198,179.396,0.249319,0.0,0.0
398,99.25,29.4803,31.2972,147.703,105.822,102.919,0.000669616,0.051647,21.0198,179.386,0.240675,0.0,0.0
400,99.75,29.2349,31.2578,150.783,105.843,102.699,0.000656489,0.051634,21.0198,179.386,0.260864,0.0,0.0
402,100.25,30.0052,31.2322,146.939,105.869,103.036,0.00064871,0.0516041,21.0198,179.396,0.23469,0.0,0.0
404,100.75,29.2874,31.6471,148.434,105.88,102.721,0.000648751,0.0515799,21.0197,179.396,0.262012,0.0,0.0
406,101.25,30.0806,31.27,151.054,105.898,102.627,0.000654494,0.0515875,21.0197,179.386,0.271457,0.0,0.0
408,101.75,29.8961,31.2822,149.188,105.918,103.057,0.000659145,0.0515936,21.0197,179.396,0.236907,0.0,0.0
410,102.25,29.5784,30.6902,148.117,105.939,102.879,0.000676175,0.0515443,21.0197,179.406,0.253519,0.0,0.0
412,102.75,30.1984,31.5392,150.271,105.971,102.893,0.000689969,0.0515043,21.0197,179.396,0.254984,0.0,0.0
414,103.25,29.3215,30.903,148.687,105.985,102.959,0.000711997,0.0514791,21.0197,179.396,0.250569,0.0,0.0
416,103.75,29.582,31.1272,144.528,106.021,103.125,0.00072984,0.0514651,21.0197,179.406,0.239547,0.0,0.0
418,104.25,29.6896,31.4543,145.189,106.017,103.228,0.000756356,0.0514823,21.0197,179.406,0.230597,0.0,0.0
420,104.75,29.8066,31.5292,144.693,106.057,103.205,0.000777834,0.051522,21.0197,179.376,0.235732,0.0,0.0
422,105.25,30.5015,31.1066,148.088,106.084,102.8,0.000790406,0.0515541,21.0199,179.366,0.272019,0.0,0.0
424,105.75,30.064,31.2923,150.047,106.105,102.875,0.000800589,0.0515666,21.0203,179.376,0.267382,0.0,0.0
426,106.25,30.2914,30.9522,149.437,106.118,102.726,0.000808837,0.0515766,21.0206,179.346,0.280997,0.0,0.0
428,106.75,30.142,31.4109,149.977,106.138,103.071,0.000782958,0.0515577,21.0209,179.346,0.253638,0.0,0.0
430,107.25,29.6329,30.7758,151.036,106.145,102.88,0.000761997,0.0515423,21.0211,179.356,0.270289,0.0,0.0
432,107.75,29.7359,31.0662,148.587,106.182,103.34,0.000717305,0.0515156,21.0213,179.376,0.234669,0.0,0.0
434,108.25,29.4741,31.02,147.775,106.187,103.108,0.000681104,0.0514811,21.0214,179.366,0.2546,0.0,0.0
436,108.75,30.209,31.5618,149.516,106.207,103.172,0.000622887,0.0514532,21.0215,179.376,0.250805,0.0,0.0
438,109.25,29.4888,31.2566,149.4,106.23,102.967,0.000575731,0.0514305,21.0216,179.376,0.269941,0.0,0.0
440,109.75,29.8303,30.993,145.411,106.25,102.998,0.000537535,0.0514122,21.0217,179.366,0.268908,0.0,0.0
442,110.25,30.0415,30.6153,149.88,106.264,103.638,0.000488548,0.051438,21.0216,179.366,0.216478,0.0,0.0
444,110.75,29.9606,31.2492,147.731,106.286,103.327,0.000448868,0.051459,21.0214,179.366,0.244312,0.0,0.0
446,111.25,29.4927,31.1948,151.233,106.297,102.919,0.000429962,0.0514617,21.0212,179.366,0.279311,0.0,0.0
448,111.75,29.9226,31.4109,149.26,106.325,103.125,0.000414648,0.051451,21.0211,179.366,0.264297,0.0,0.0
450,112.25,29.4625,31.4332,153.627,106.324,103.229,0.000418717,0.0514423,21.021,179.356,0.25559,0.0,0.0
452,112.75,29.8058,31.087,146.105,106.352,103.526,0.000436839,0.0514639,21.0213,179.366,0.232951,0.0,0.0
454,113.25,29.7834,31.2628,147.926,106.347,103.307,0.000451518,0.051507,21.0216,179.356,0.250954,0.0,0.0
456,113.75,29.938,31.4172,149.566,106.379,103.663,0.000463408,0.0515634,21.0219,179.346,0.223696,0.0,0.0
458,114.25,30.1195,31.3088,147.572,106.376,103.482,0.000524864,0.0516284,21.0221,179.326,0.238632,0.0,0.0
460,114.75,29.7258,31.1107,144.992,106.408,103.349,0.000574643,0.0516403,21.0222,179.346,0.252389,0.0,0.0
462,115.25,29.489,31.0289,151.827,106.387,103.391,0.00063306,0.0516499,21.0223,179.336,0.247146,0.0,0.0
464,115.75,29.8169,30.7754,146.092,106.435,103.226,0.000682284,0.0516577,21.0224,179.336,0.264776,0.0,0.0
466,116.25,30.1625,31.5679,149.671,106.421,103.272,0.00072387,0.0516369,21.0225,179.336,0.259885,0.0,0.0
468,116.75,30.5352,31.3265,145.14,106.447,103.419,0.000753108,0.0516201,21.0226,179.336,0.249638,0.0,0.0
470,117.25,29.1638,31.3077,149.025,106.427,103.269,0.00077279,0.0516064,21.0226,179.336,0.260533,0.0,0.0
472,117.75,29.9658,31.4104,151.897,106.457,103.532,0.000781181,0.0515411,21.0226,179.336,0.24106,0.0,0.0
474,118.25,29.6663,31.1714,147.773,106.448,103.703,0.00078093,0.0514882,21.0227,179.346,0.226003,0.0,0.0
476,118.75,30.1595,31.1777,149.276,106.463,103.602,0.000767586,0.0514454,21.0227,179.336,0.235623,0.0,0.0
478,119.25,30.0453,31.1927,150.493,106.453,103.491,0.000737118,0.0514106,21.0227,179.346,0.244116,0.0,0.0
480,119.75,30.1548,31.3366,147.036,106.468,103.48,0.000694744,0.0514232,21.0228,179.346,0.246275,0.0,0.0
482,120.25,29.6973,31.474,150.379,106.463,103.446,0.000660421,0.0514334,21.0228,179.336,0.248721,0.0,0.0
484,120.75,30.0831,30.7996,148.589,106.481,103.361,0.000616146,0.0514663,21.0228,179.336,0.257251,0.0,0.0
486,121.25,29.5157,30.4489,151.43,106.485,103.41,0.000565457,0.0515226,21.0228,179.326,0.253565,0.0,0.0
488,121.75,29.8464,31.1591,147.327,106.48,103.583,0.000523765,0.0515396,21.0228,179.316,0.238613,0.0,0.0
490,122.25,29.9026,31.5589,146.908,106.475,103.317,0.000489425,0.0515277,21.0228,179.326,0.260453,0.0,0.0
492,122.75,30.2662,31.1958,151.599,106.478,103.535,0.00046161,0.051518,21.0228,179.346,0.242463,0.0,0.0
494,123.25,29.3595,31.3379,151.69,106.488,103.689,0.000458248,0.0514966,21.0228,179.346,0.230412,0.0,0.0
496,123.75,30.0352,30.9334,150.953,106.489,103.223,0.000455524,0.0514793,21.0228,179.336,0.269528,0.0,0.0
498,124.25,29.9634,31.0643,149.4,106.479,103.351,0.000471069,0.0514867,21.0229,179.336,0.257968,0.0,0.0
500,124.75,30.107,30.8355,146.809,106.485,103.57,0.000499636,0.0515119,21.0231,179.336,0.24019,0.0,0.0
502,125.25,29.9986,31.0079,149.397,106.467,103.508,0.000542447,0.0515395,21.0232,179.336,0.243802,0.0,0.0
504,125.75,30.2361,31.3788,144.384,106.484,103.504,0.000594828,0.0515683,21.0233,179.326,0.245553,0.0,0.0
506,126.25,30.0699,31.3928,148.488,106.466,103.269,0.000653772,0.0515916,21.0234,179.326,0.26368,0.0,0.0
508,126.75,29.812,31.2974,148.86,106.481,103.37,0.00071638,0.051557,21.0234,179.336,0.256552,0.0,0.0
510,127.25,29.6384,31.3567,148.654,106.463,103.304,0.000767092,0.051529,21.0235,179.346,0.260522,0.0,0.0
512,127.75,29.9617,31.3102,150.208,106.46,103.609,0.000833533,0.0515134,21.0235,179.326,0.234836,0.0,0.0
514,128.25,29.6557,31.4219,145.947,106.444,103.482,0.00088735,0.0515072,21.0236,179.326,0.244123,0.0,0.0
516,128.75,29.7657,31.5227,149.33,106.458,103.532,0.000925855,0.0515093,21.0236,179.316,0.241091,0.0,0.0
518,129.25,30.2933,30.7814,145.208,106.442,103.634,0.000952466,0.0515174,21.0236,179.316,0.231311,0.0,0.0
520,129.75,30.1977,31.4695,146.691,106.435,103.834,0.000961311,0.051524,21.0236,179.326,0.213974,0.0,0.0
522,130.25,29.6715,30.9244,150.321,106.424,103.414,,0.0515429,,179.336,0.248212,0.0,0.0
524,130.75,29.9221,31.4178,151.857,106.424,103.378,,0.0515583,,179.316,0.251241,0.0,0.0
526,131.25,29.7794,31.0487,149.758,106.407,103.637,,0.0515992,,179.326,0.228211,0.0,0.0
528,131.75,30.6266,30.9389,150.059,106.413,103.477,,0.0516581,,179.326,0.242028,0.0,0.0
530,132.25,29.9882,31.2257,151.864,106.404,103.178,,0.0516915,,179.326,0.266301,0.0,0.0
532,132.75,30.2262,31.0566,149.331,106.39,103.157,,0.0517058,,179.326,0.267005,0.0,0.0
534,133.25,30.1913,31.2484,148.829,106.379,103.362,,,,179.316,0.248923,0.0,0.0
536,133.75,29.5077,31.1932,151.391,106.378,103.272,,,,179.306,0.256386,0.0,0.0
538,134.25,30.2134,31.311,148.459,106.353,103.024,,,,179.306,0.275056,0.0,0.0
540,134.75,29.8152,31.2045,148.471,106.348,103.275,,,,179.316,0.25363,0.0,0.0
542,135.25,30.5033,31.2451,143.882,106.337,103.225,,,,179.296,0.256986,0.0,0.0
544,135.75,30.562,31.2331,151.051,106.317,103.245,,,,179.306,0.253634,0.0,0.0
546,136.25,29.8662,30.9008,147.928,106.308,103.711,,,,179.306,0.214009,0.0,0.0
548,136.75,30.105,31.0163,144.799,106.307,103.267,,,,179.306,0.25093,0.0,0.0
550,137.25,30.1435,30.9425,149.126,106.285,102.872,,,,179.296,0.282381,0.0,0.0
552,137.75,30.4329,31.4597,149.463,106.271,103.261,,,,179.296,0.248562,0.0,0.0
554,138.25,30.0269,31.3379,145.825,106.264,103.413,,,,179.286,0.235307,0.0,0.0
556,138.75,30.4121,31.4406,149.386,106.242,103.066,,,,179.286,0.262552,0.0,0.0
558,139.25,29.7215,30.7412,148.654,106.223,103.163,,,,179.286,0.252876,0.0,0.0
560,139.75,29.3519,30.7879,150.932,106.213,103.229,,,,179.296,0.246515,0.0,0.0
562,140.25,29.4473,31.229,149.656,106.201,103.013,,,,179.296,0.263628,0.0,0.0
564,140.75,29.6502,31.3325,149.574,106.19,102.986,,,,179.306,0.26505,0.0,0.0