File: 01_Data/Cotton_Sheet/Cone/Cotton_Sheet_Cone_HF25Scan_220429_R3.csv
Names,Time,Stack TC,Smoke TC,Exh Press,Smoke Comp,Smoke Meas,CO Meter,CO2 Meter,O2 Meter,Sample Mass,Ext Coeff,Start Test,Flame Verif
Chan Gain,,500,500,1,1,1,1,1,1,1,1,1.0,1.0
Offset,,0,0,0.138979,0,0,0,0,0,0,0,0.0,0.0
Gain,,1,1,25.011,14.099,15.1965,1,1,1,1.00087,0.986176,1.0,1.0
Units,sec,C,C,Pa,%,%,%,%,%,g,/m,,
Baseline,,18.0819,18.5897,157.129,104.481,100.702,0.00084799,0.0510948,21.0233,-833.995,0.318729,,
2,0.25,17.3022,17.8315,152.66,106.138,102.392,0.000845957,0.0573474,21.0145,181.798,0.310853,0.0,0.0
4,0.75,16.5472,17.3125,155.091,106.158,102.374,0.000888964,0.0572276,21.0144,181.658,0.31399,0.0,0.0
6,1.25,16.7489,17.3772,156.803,106.16,102.332,0.000932423,0.0570855,21.0143,181.788,0.317698,0.0,0.0
8,1.75,17.1416,17.2328,159.86,106.181,102.365,0.000967624,0.0569703,21.0141,181.698,0.316628,0.0,0.0
10,2.25,16.8643,17.2096,153.73,106.177,102.334,0.000996138,0.0568227,21.014,181.758,0.318978,0.0,0.0
12,2.75,16.9833,17.6616,154.549,106.199,102.194,0.00101923,0.0567032,21.014,181.698,0.332464,0.0,0.0
14,3.25,16.9832,17.5567,157.832,106.204,102.253,0.00103349,0.0564832,21.0139,181.758,0.327941,0.0,0.0
16,3.75,16.9791,17.8475,156.223,106.21,102.083,0.00104103,0.0563051,21.0138,181.708,0.342838,0.0,0.0
18,4.25,16.7513,17.9787,149.694,106.214,102.045,0.00104206,0.0561608,21.0138,181.738,0.346416,0.0,0.0
20,4.75,17.0881,17.1475,157.428,106.223,101.864,0.00103831,0.0559353,21.0138,181.718,0.362533,0.0,0.0
22,5.25,17.5283,17.545,156.471,106.222,101.824,0.00102956,0.0557526,21.0137,181.718,0.365777,0.0,0.0
24,5.75,16.6953,17.7449,154.494,106.242,101.775,0.00101732,0.0556046,21.0137,181.718,0.37157,0.0,0.0
26,6.25,17.2885,17.3509,157.832,106.239,101.913,0.00100804,0.0554848,21.0137,181.718,0.359581,0.0,0.0
28,6.75,16.951,17.7936,156.289,106.26,101.714,0.0010011,0.0555092,21.0128,181.708,0.378277,0.0,0.0
30,7.25,16.7584,18.0329,154.439,106.264,101.668,0.00101137,0.0556385,21.0121,181.708,0.382463,0.0,0.0
32,7.75,17.6216,17.8314,160.93,106.256,101.817,0.00103399,0.0572929,21.008,181.698,0.369139,0.0,0.0
34,8.25,17.0559,17.4179,155.123,106.266,101.48,0.00105231,0.0600278,21.0047,181.678,0.398673,0.0,0.0
36,8.75,17.0341,17.5193,160.29,106.276,100.851,0.00110789,0.0671926,21.002,181.668,0.453178,0.0,0.0
38,9.25,17.168,17.6227,155.925,106.279,102.253,0.00118958,0.0774507,20.9884,181.618,0.334036,0.0,0.0
40,9.75,16.8642,18.1811,148.92,106.286,102.9,0.00125575,0.0924524,20.9774,181.578,0.280107,0.0,1.0
42,10.25,16.8655,17.3842,147.864,106.288,103.88,0.00137237,0.110627,20.955,181.508,0.198221,0.0,1.0
44,10.75,17.3682,17.4549,145.172,106.295,104.257,0.00146682,0.125349,20.9368,181.548,0.167437,0.0,1.0
46,11.25,17.1417,17.3197,142.698,106.294,104.805,0.00158096,0.153255,20.9142,181.478,0.122005,0.0,1.0
48,11.75,17.8523,18.1259,141.291,106.303,105.179,0.0016734,0.175859,20.8888,181.458,0.0919744,0.0,1.0
50,12.25,18.4319,18.3589,136.832,106.306,104.891,0.00177015,0.20089,20.8593,181.197,0.115903,0.0,1.0
52,12.75,18.1154,18.6473,137.48,106.305,105.349,0.00184851,0.227214,20.8273,181.388,0.0781296,0.0,1.0
54,13.25,18.2672,18.4997,138.966,106.312,105.34,0.00193021,0.248536,20.8014,181.077,0.0794141,0.0,1.0
56,13.75,18.9386,18.7943,139.384,106.297,105.484,0.00199639,0.270453,20.7804,181.227,0.0663864,0.0,1.0
58,14.25,19.4377,19.5151,137.445,106.313,105.247,0.00207431,0.288206,20.7634,180.987,0.0871397,0.0,1.0
60,14.75,19.6928,19.3452,140.546,106.309,105.27,0.00213743,0.301022,20.7496,181.097,0.0849945,0.0,0.0
62,15.25,19.8725,19.4552,144.428,106.311,104.611,0.00218856,0.309995,20.7385,180.927,0.139494,0.0,0.0
64,15.75,20.2474,20.4339,140.343,106.325,104.39,0.00231399,0.313157,20.7336,180.977,0.158816,0.0,0.0
66,16.25,20.758,20.2303,140.066,106.321,104.014,0.00241559,0.312022,20.7334,180.897,0.189725,0.0,0.0
68,16.75,20.7534,21.0414,145.564,106.331,103.419,0.00259555,0.305745,20.7332,180.957,0.240195,0.0,0.0
70,17.25,21.5076,21.5136,152.209,106.316,103.218,0.00274131,0.29584,20.744,180.887,0.255819,0.0,0.0
72,17.75,21.7515,21.956,153.688,106.318,102.892,0.00296833,0.287817,20.7527,180.907,0.283287,0.0,0.0
74,18.25,21.725,22.2111,150.529,106.309,102.773,0.00315221,0.269687,20.7703,180.887,0.292618,0.0,0.0
76,18.75,21.9826,21.6236,157.303,106.303,102.633,0.00334573,0.255002,20.7903,180.917,0.303885,0.0,0.0
78,19.25,21.4404,22.3353,153.429,106.308,102.867,0.00354259,0.238202,20.8117,180.897,0.284626,0.0,0.0
80,19.75,21.7757,21.6788,158.637,106.303,102.674,0.00373571,0.220178,20.8291,180.917,0.300516,0.0,0.0
82,20.25,22.2339,22.7031,157.177,106.302,102.638,0.00392242,0.203024,20.8431,180.907,0.30342,0.0,0.0
84,20.75,21.7139,22.2833,154.356,106.303,102.491,0.00407366,0.186831,20.8606,180.937,0.315894,0.0,0.0
86,21.25,21.9594,22.3137,156.056,106.302,102.467,0.00419617,0.172001,20.8748,180.937,0.317895,0.0,0.0
88,21.75,21.7683,22.3831,156.886,106.315,102.708,0.00434985,0.158446,20.8889,180.927,0.298574,0.0,0.0
90,22.25,22.2518,22.653,154.575,106.294,102.564,0.00452334,0.146217,20.9026,180.917,0.309016,0.0,0.0
92,22.75,22.4341,23.0849,157.084,106.288,102.481,0.00466386,0.135185,20.9137,180.917,0.315526,0.0,0.0
94,23.25,21.6352,22.0349,158.723,106.289,102.367,0.00484687,0.12625,20.9242,180.917,0.32527,0.0,0.0
96,23.75,21.5453,21.6619,158.051,106.284,102.508,0.0049951,0.119012,20.934,180.917,0.312979,0.0,0.0
98,24.25,21.9929,22.0413,154.88,106.291,102.611,0.00513536,0.110979,20.9419,180.907,0.304816,0.0,0.0
100,24.75,22.2515,22.8069,160.382,106.273,102.396,0.00526713,0.104473,20.9505,180.907,0.321466,0.0,0.0
102,25.25,21.2559,22.5235,152.36,106.266,102.445,0.00538103,0.0992026,20.9575,180.897,0.316793,0.0,0.0
104,25.75,21.7943,22.3303,153.296,106.251,102.479,0.00547975,0.0940165,20.9649,180.907,0.312709,0.0,0.0
106,26.25,21.2316,22.8807,157.121,106.259,102.406,0.00554993,0.0898157,20.9709,180.907,0.319483,0.0,0.0
108,26.75,21.6285,22.0178,156.561,106.239,102.406,0.00559798,0.0861828,20.9767,180.907,0.317802,0.0,0.0
110,27.25,21.0011,22.075,159.512,106.248,102.732,0.00561672,0.083033,20.9813,180.917,0.291189,0.0,0.0
112,27.75,20.8934,21.6887,155.288,106.228,102.594,0.00561374,0.080345,20.9851,180.897,0.301109,0.0,0.0
114,28.25,20.7545,21.3998,157.035,106.228,102.4375,0.00558206,0.0780448,20.9881,180.877,0.314301,0.0,0.0
116,28.75,20.5503,21.1912,160.505,106.207,102.489,0.00553007,0.0760452,20.9915,180.867,0.308238,0.0,0.0
118,29.25,20.5562,22.1466,156.961,106.214,102.365,0.00548796,0.0743026,20.9942,180.857,0.319327,0.0,0.0
120,29.75,20.9172,21.5943,156.403,106.205,102.42,0.00539934,0.0727331,20.9966,180.837,0.313859,0.0,0.0
122,30.25,20.4609,21.4802,159.098,106.193,102.372,0.00527851,0.0713196,20.9988,180.827,0.317022,0.0,0.0
124,30.75,20.4403,21.396,157.103,106.179,102.286,0.00513145,0.0699738,21.0006,180.827,0.323119,0.0,0.0
126,31.25,20.8079,21.4048,156.853,106.171,102.554,0.00496807,0.0687028,21.0029,180.817,0.299885,0.0,0.0
128,31.75,20.4016,21.4713,154.349,106.177,102.466,0.00483573,0.0676733,21.0047,180.827,0.307743,0.0,0.0
130,32.25,20.662,21.0863,160.527,106.165,102.373,0.00462307,0.0664035,21.0065,180.857,0.314555,0.0,0.0
132,32.75,20.6245,21.0473,153.588,106.149,102.423,0.00445081,0.065375,21.0081,180.867,0.309066,0.0,0.0
134,33.25,20.1764,21.5145,158.497,106.146,102.339,0.00425011,0.0643199,21.0098,180.857,0.315983,0.0,0.0
136,33.75,20.4617,20.7437,162.626,106.123,102.3,0.00408754,0.0632653,21.0117,180.847,0.317423,0.0,0.0
138,34.25,20.9069,21.0402,157.694,106.121,102.309,0.00392114,0.0624112,21.0134,180.847,0.316502,0.0,0.0
140,34.75,19.8516,21.2915,154.082,106.103,102.274,0.00375511,0.0613521,21.015,180.847,0.317896,0.0,0.0
142,35.25,19.9221,20.9499,161.772,106.112,102.252,0.00358021,0.0604943,21.0166,180.837,0.320586,0.0,0.0
144,35.75,20.6003,20.5397,154.09,106.081,102.37,0.00340216,0.0595684,21.018,180.837,0.3081,0.0,0.0
146,36.25,20.3435,21.027,161.016,106.084,102.354,0.00325793,0.0588185,21.0192,180.857,0.309717,0.0,0.0
148,36.75,20.4043,20.7999,153.808,106.059,102.074,0.0030341,0.0581037,21.0201,180.857,0.331275,0.0,0.0
150,37.25,19.6446,20.7924,160.166,106.069,102.169,0.00285279,0.0574283,21.0209,180.857,0.324065,0.0,0.0
152,37.75,20.372,21.2949,157.563,106.04,102.229,0.00262952,0.0567454,21.0218,180.857,0.316614,0.0,0.0
154,38.25,20.108,20.7265,155.68,106.041,102.241,0.00244866,0.0560701,21.0227,180.867,0.315739,0.0,0.0
156,38.75,20.185,20.6792,155.708,106.023,102.386,0.00227094,0.055523,21.0236,180.857,0.301956,0.0,0.0
158,39.25,19.9785,20.6183,156.564,106.02,102.245,0.00209889,0.0548899,21.0246,180.857,0.313634,0.0,0.0
160,39.75,19.8293,20.5965,157.718,106.012,102.277,0.00192446,0.0543771,21.0254,180.857,0.31029,0.0,0.0
162,40.25,20.4829,20.5223,158.208,106.001,102.148,0.00178317,0.0538618,21.026,180.847,0.320289,0.0,0.0
164,40.75,19.7655,20.4812,157.335,105.978,102.233,0.00165538,0.0533544,21.0266,180.847,0.311208,0.0,0.0
166,41.25,19.8836,20.3977,161.06,105.976,102.09,0.00153984,0.0528934,21.0274,180.857,0.323237,0.0,0.0
168,41.75,19.9636,20.6261,158.274,105.96,102.09,0.00144626,0.0524751,21.0281,180.857,0.321903,0.0,0.0
170,42.25,19.9927,20.5703,157.174,105.967,102.151,0.00135597,0.0521291,21.0287,180.857,0.317276,0.0,0.0
172,42.75,19.859,20.6687,158.842,105.951,102.149,0.00128283,0.0518424,21.0292,180.847,0.31614,0.0,0.0
174,43.25,19.798,20.6334,158.209,105.949,102.016,0.00122359,0.0515816,21.0295,180.857,0.327165,0.0,0.0
176,43.75,19.7688,20.3375,162.797,105.935,102.156,0.00117561,0.0513447,21.0297,180.857,0.314248,0.0,0.0
178,44.25,19.8872,20.5407,156.777,105.93,102.055,0.00112916,0.0511243,21.0298,180.847,0.322391,0.0,0.0
180,44.75,19.7018,20.137,156.127,105.902,102.139,0.00108472,0.05092,21.0298,180.847,0.312955,0.0,0.0
182,45.25,19.9255,20.6305,157.182,105.905,102.145,0.00105063,0.0507546,21.0296,180.847,0.312766,0.0,0.0
184,45.75,19.5391,20.0897,158.066,105.889,101.974,0.00102473,0.0505845,21.0295,180.827,0.325896,0.0,0.0
186,46.25,19.3073,20.3508,156.006,105.882,102.232,0.00101138,0.0504143,21.0294,180.827,0.303526,0.0,0.0
188,46.75,19.6219,19.7387,157.859,105.869,102.125,0.00100742,0.0502764,21.0293,180.847,0.311427,0.0,0.0
190,47.25,19.4201,20.2209,157.817,105.871,102.032,0.00100422,0.0501647,21.0292,180.847,0.319503,0.0,0.0
192,47.75,19.4624,20.5588,159.126,105.851,102.232,0.00101612,0.050142,21.0292,180.847,0.300995,0.0,0.0
194,48.25,19.3158,19.9529,155.201,105.847,102.032,0.00102575,0.0501237,21.0291,180.837,0.317569,0.0,0.0
196,48.75,19.5891,19.988,159.397,105.816,102.16,0.00104201,0.0500731,21.0291,180.837,0.304122,0.0,0.0
198,49.25,19.2048,19.5872,153.398,105.834,102.047,0.00105264,0.0500001,21.0291,180.847,0.315259,0.0,0.0
200,49.75,18.8969,20.3668,156.184,105.809,101.981,0.00105896,0.0499337,21.029,180.837,0.318729,0.0,0.0
202,50.25,19.2435,19.8139,155.977,105.822,102.068,0.00106408,0.0498736,21.029,180.837,0.312467,0.0,0.0
204,50.75,19.1825,19.938,155.903,105.794,102.021,0.00105488,0.0498606,21.029,180.837,0.314077,0.0,0.0
206,51.25,19.3951,20.0382,156.576,105.789,102.034,0.00103542,0.0498821,21.029,180.837,0.312703,0.0,0.0
208,51.75,19.1353,19.8635,154.968,105.772,102.029,0.00100758,0.0499424,21.029,180.827,0.311688,0.0,0.0
210,52.25,19.1401,19.9836,157.58,105.769,101.977,0.000974178,0.0500298,21.029,180.827,0.315851,0.0,0.0
212,52.75,19.2252,19.9185,153.692,105.757,102.065,0.00094712,0.0501005,21.029,180.827,0.307429,0.0,0.0
214,53.25,18.9244,19.7331,159.231,105.747,102.078,0.000918854,0.0501578,21.029,180.817,0.30548,0.0,0.0
216,53.75,19.3524,19.8742,152.057,105.742,102.029,0.000890246,0.0502043,21.029,180.837,0.309259,0.0,0.0
218,54.25,18.7828,19.3881,158.365,105.733,102.033,0.000870881,0.0502562,21.029,180.827,0.308167,0.0,0.0
220,54.75,18.4845,19.2447,158.733,105.725,102.065,0.000858624,0.050311,21.029,180.827,0.304786,0.0,0.0
222,55.25,19.0129,19.6032,154.053,105.747,102.036,0.00085314,0.0503555,21.029,180.827,0.308982,0.0,0.0
224,55.75,18.9543,19.6023,160.168,105.71,101.831,0.000852698,0.050405,21.029,180.837,0.323386,0.0,0.0
226,56.25,18.856,19.821,156.124,105.72,101.977,0.000847895,0.0504452,21.029,180.837,0.311909,0.0,0.0
228,56.75,18.9129,20.0052,156.99,105.692,101.891,0.000840005,0.050492,21.029,180.827,0.316792,0.0,0.0
230,57.25,19.0479,19.934,157.648,105.704,102.057,0.000833615,0.0505427,21.029,180.827,0.303767,0.0,0.0
232,57.75,18.8393,19.8271,156.634,105.685,101.871,0.000811939,0.0505695,21.029,180.827,0.31796,0.0,0.0
234,58.25,18.3246,19.2913,152.898,105.681,101.963,0.000779533,0.0505784,21.029,180.837,0.30981,0.0,0.0
236,58.75,18.6469,18.7896,155.279,105.673,101.882,0.000743138,0.0505571,21.029,180.837,0.316064,0.0,0.0
238,59.25,18.6558,19.6969,156.122,105.656,102.093,0.000704527,0.0505141,21.029,180.837,0.296793,0.0,0.0
240,59.75,18.7157,19.7824,155.294,105.65,102.02,0.000673252,0.0504793,21.029,180.837,0.302471,0.0,0.0
242,60.25,18.5927,19.303,155.341,105.642,102.047,0.000627449,0.0504511,21.029,180.827,0.299447,0.0,0.0
244,60.75,18.5858,19.0822,158.076,105.635,101.869,0.000590348,0.0504282,21.029,180.817,0.313993,0.0,0.0
246,61.25,19.1661,19.1798,153.179,105.642,101.948,0.000538634,0.0504026,21.029,180.827,0.307903,0.0,0.0
248,61.75,18.7997,19.563,152.971,105.611,101.846,0.000496746,0.0503754,21.0294,180.837,0.314027,0.0,0.0
250,62.25,18.0356,19.0753,155.991,105.612,101.842,0.000455599,0.0503177,21.0297,180.837,0.314413,0.0,0.0
252,62.75,18.2687,19.1717,157.748,105.606,101.76,0.000422269,0.0502388,21.03,180.837,0.32093,0.0,0.0
254,63.25,18.6129,19.6388,155.998,105.604,101.842,0.000397805,0.0501678,21.0303,180.827,0.313739,0.0,0.0
256,63.75,18.8037,19.4851,152.093,105.583,101.852,0.000380268,0.0501039,21.0305,180.827,0.311259,0.0,0.0
258,64.25,18.4624,19.1926,153.762,105.584,101.931,0.000366063,0.0500164,21.0306,180.827,0.304562,0.0,0.0
260,64.75,17.8981,19.2644,157.045,105.588,101.867,0.000370393,0.0499135,21.0307,180.817,0.310352,0.0,0.0
262,65.25,18.0057,19.5101,158.453,105.577,101.787,0.000388152,0.0498301,21.0308,180.817,0.316208,0.0,0.0
264,65.75,18.9459,18.7956,157.017,105.573,101.813,0.000414581,0.0496947,21.0309,180.827,0.313683,0.0,0.0
266,66.25,18.6178,18.5829,161.353,105.556,101.721,0.000446828,0.0495851,21.031,180.817,0.320079,0.0,0.0
268,66.75,18.1828,18.7232,154.397,105.561,101.877,0.000472948,0.0494964,21.031,180.837,0.307259,0.0,0.0
270,67.25,18.8663,19.3869,154.192,105.543,101.81,0.000494105,0.0494244,21.0311,180.827,0.311566,0.0,0.0
272,67.75,18.2441,19.0215,155.08,105.54,101.889,0.000525703,0.0493662,21.0311,180.817,0.304544,0.0,0.0
274,68.25,18.2752,19.3317,157.263,105.527,101.776,0.000551298,0.0492762,21.0309,180.797,0.313102,0.0,0.0
276,68.75,18.4742,19.1149,157.586,105.536,101.819,0.000568414,0.0491648,21.0308,180.817,0.310178,0.0,0.0
278,69.25,18.4698,19.7235,160.766,105.52,101.867,0.000582278,0.0490603,21.0307,180.827,0.30474,0.0,0.0
280,69.75,18.4991,19.2672,160.285,105.524,101.822,0.000583867,0.0489628,21.0306,180.827,0.30895,0.0,0.0
282,70.25,18.7049,19.0784,154.019,105.507,101.826,0.000585155,0.0488839,21.0306,180.817,0.307149,0.0,0.0
284,70.75,18.1513,19.3339,159.95,105.52,101.74,0.000582583,0.0488199,21.0305,180.827,0.315535,0.0,0.0
286,71.25,18.3176,18.9462,153.8,105.486,101.679,0.000580501,0.0487139,21.0307,180.817,0.317919,0.0,0.0
288,71.75,18.0805,18.5816,158.565,105.495,101.765,0.000578814,0.048628,21.031,180.837,0.311398,0.0,0.0
290,72.25,18.1881,19.3449,153.93,105.48,101.766,0.000587087,0.0485449,21.0313,180.827,0.31008,0.0,0.0
292,72.75,18.2906,19.1119,160.752,105.496,101.74,0.000598862,0.0484776,21.0316,180.837,0.313633,0.0,0.0
294,73.25,18.5228,18.9085,157.437,105.47,101.779,0.000612968,0.0484095,21.0317,180.837,0.308165,0.0,0.0
296,73.75,17.909,18.8262,153.482,105.473,101.834,0.000624393,0.0483544,21.0319,180.837,0.303726,0.0,0.0
298,74.25,18.1526,19.135,157.49,105.467,101.67,0.000633601,0.0482955,21.032,180.837,0.317194,0.0,0.0
300,74.75,17.7716,19.0882,158.693,105.471,101.712,0.000641017,0.0482349,21.0321,180.807,0.313993,0.0,0.0
302,75.25,18.2058,19.1319,158.429,105.456,101.729,0.000636242,0.0482001,21.0324,180.807,0.311298,0.0,0.0
304,75.75,17.6736,19.397,153.23,105.486,101.587,0.000622671,0.0481848,21.0326,180.817,0.325774,0.0,0.0
306,76.25,17.8334,19.2759,158.844,105.486,101.816,0.000605338,0.0481724,21.0327,180.827,0.306397,0.0,0.0
308,76.75,18.3497,19.1512,160.245,105.522,101.81,0.000585594,0.0481758,21.0329,180.827,0.309802,0.0,0.0
310,77.25,18.3762,18.6025,154.51,105.523,101.849,0.000575306,0.0481786,21.0325,180.827,0.306634,0.0,0.0
312,77.75,18.4847,18.8035,154.968,105.547,101.759,0.000572108,0.048167,21.0323,180.827,0.316179,0.0,0.0
314,78.25,18.1354,19.1025,157.193,105.578,101.765,0.000569517,0.0481452,21.0323,180.827,0.318241,0.0,0.0
316,78.75,18.0834,19.26,154.112,105.591,102.007,0.000586449,0.0481274,21.0325,180.827,0.298748,0.0,0.0
318,79.25,17.9318,18.7883,156.459,105.584,101.875,0.000617291,0.0481131,21.0327,180.827,0.309325,0.0,0.0
320,79.75,17.8428,18.6113,156.151,105.627,101.958,0.000652431,0.0481015,21.0328,180.817,0.305843,0.0,0.0
322,80.25,18.5541,18.668,157.805,105.627,101.846,0.000690036,0.048092,21.0329,180.817,0.315367,0.0,0.0
324,80.75,17.9832,18.8807,161.055,105.655,102.032,0.000724306,0.0480844,21.033,180.817,0.301802,0.0,0.0
326,81.25,18.152,18.9825,157.306,105.662,101.923,0.000755494,0.0480511,21.0331,180.817,0.311644,0.0,0.0
328,81.75,18.1849,19.1869,159.674,105.688,101.789,0.000782662,0.0480242,21.0327,180.807,0.32518,0.0,0.0
330,82.25,17.678,18.7032,158.131,105.699,102.002,0.000806383,0.0480095,21.0324,180.807,0.307989,0.0,0.0
332,82.75,17.8531,18.7446,157.888,105.718,101.985,0.000824327,0.048004,21.0326,180.807,0.31095,0.0,0.0
334,83.25,17.6895,18.6008,157.636,105.734,102.128,0.000837718,0.0479995,21.0328,180.817,0.300145,0.0,0.0
336,83.75,17.82,18.7889,156.109,105.745,102.106,0.000848564,0.0479959,21.0329,180.807,0.302871,0.0,0.0
338,84.25,17.9304,18.7732,158.857,105.744,101.938,0.000835635,0.047993,21.033,180.807,0.317076,0.0,0.0
340,84.75,17.8449,19.172,157.025,105.77,102.1,0.000825162,0.0479906,21.0331,180.817,0.305424,0.0,0.0
342,85.25,17.6364,19.07,157.106,105.79,101.867,0.000816679,0.0480173,21.0331,180.817,0.326864,0.0,0.0
344,85.75,17.6992,18.6454,158.002,105.796,102.048,0.000782078,0.0480645,21.0332,180.817,0.312046,0.0,0.0
346,86.25,17.6714,18.1924,156.384,105.803,102.047,0.000754052,0.048117,21.0332,180.807,0.312614,0.0,0.0
348,86.75,18.1365,18.4721,153.869,105.814,102.073,0.000722916,0.0481724,21.0333,180.817,0.311363,0.0,0.0
350,87.25,18.0338,18.5441,155.594,105.831,102.101,0.000697696,0.0482172,21.0333,180.817,0.310376,0.0,0.0
352,87.75,18.4906,18.3904,158.415,105.84,102.062,0.000676,0.0482963,21.0333,180.817,0.31438,0.0,0.0
354,88.25,17.5023,18.5686,163.112,105.845,102.34,0.000657284,0.0483989,21.0333,180.817,0.291324,0.0,0.0
356,88.75,17.8566,18.4945,157.875,105.856,102.141,0.000638954,0.048482,21.0329,180.817,0.309076,0.0,0.0
358,89.25,17.4329,17.9754,160.569,105.874,102.134,0.000621254,0.0486036,21.0326,180.817,0.311067,0.0,0.0
360,89.75,18.0946,18.6291,156.79,105.899,102.2,0.000606917,0.048702,21.0323,180.847,0.30757,0.0,0.0
362,90.25,17.7024,18.3996,160.658,105.897,102.108,0.000587697,0.0488089,21.0321,180.827,0.315205,0.0,0.0
364,90.75,17.7079,18.5843,155.807,105.905,102.141,0.000565284,0.0488954,21.0319,180.817,0.313119,0.0,0.0
366,91.25,17.9514,18.697,156.67,105.915,102.13,0.000545227,0.0489655,21.032,180.817,0.314721,0.0,0.0
368,91.75,17.8382,18.3106,157.274,105.928,102.142,0.00052727,0.0490223,21.0321,180.827,0.314828,0.0,0.0
370,92.25,17.5386,18.8068,160.979,105.943,102.086,0.000512726,0.049054,21.0318,180.837,0.320773,0.0,0.0
372,92.75,17.8045,18.3179,160.405,105.958,102.126,0.000500944,0.0490669,21.0315,180.837,0.318698,0.0,0.0
374,93.25,17.495,18.0691,156.211,105.962,102.162,0.000491401,0.0490773,21.0312,180.837,0.31595,0.0,0.0
376,93.75,17.4625,17.698,157.301,105.974,102.166,0.000481771,0.0490643,21.0311,180.837,0.31662,0.0,0.0
378,94.25,17.9019,18.6006,162.016,105.978,102.193,0.000472259,0.0490346,21.0309,180.827,0.314584,0.0,0.0
380,94.75,17.6371,18.4497,158.733,105.992,102.228,0.000464555,0.0490105,21.0308,180.837,0.312725,0.0,0.0
382,95.25,17.806,18.614,155.844,105.998,102.279,0.000458103,0.0490587,21.0307,180.827,0.30901,0.0,0.0
384,95.75,17.4009,18.2426,157.923,106.009,102.297,0.00044707,0.0490978,21.0306,180.817,0.308319,0.0,0.0
386,96.25,17.4845,18.5493,158.796,106.026,102.197,0.0004394,0.0491294,21.0306,180.807,0.318167,0.0,0.0
388,96.75,17.7998,18.1249,158.103,106.012,102.492,0.000434328,0.0491551,21.0305,180.807,0.292113,0.0,0.0
390,97.25,17.2979,18.4343,162.378,106.024,102.38,0.000430219,0.0491759,21.0305,180.797,0.30253,0.0,0.0
392,97.75,17.6227,18.9607,159.755,106.036,102.302,0.000426891,0.049152,21.0304,180.807,0.310178,0.0,0.0
394,98.25,17.6008,18.3239,158.491,106.041,102.4375,0.000422928,0.0491419,21.0304,180.797,0.299116,0.0,0.0
396,98.75,17.4013,18.9582,155.655,106.044,102.196,0.000418579,0.0491102,21.0304,180.807,0.319752,0.0,0.0
398,99.25,17.4481,18.3809,156.758,106.05,102.345,0.000415055,0.0490717,21.0303,180.807,0.30765,0.0,0.0
400,99.75,17.5159,18.8053,153.872,106.059,102.244,0.000413468,0.0490406,21.0303,180.817,0.316902,0.0,0.0
402,100.25,17.531,18.008,158.966,106.066,102.486,0.000413323,0.049056,21.0303,180.817,0.297045,0.0,0.0
404,100.75,17.5902,18.7339,156.229,106.061,102.307,0.000417006,0.0490827,21.0303,180.817,0.311748,0.0,0.0
406,101.25,17.2888,18.1516,161.49,106.057,102.454,0.000423412,0.0491172,21.0303,180.807,0.298975,0.0,0.0
408,101.75,17.1487,17.9675,161.147,106.063,102.315,0.0004286,0.0491452,21.0303,180.807,0.311182,0.0,0.0
410,102.25,17.8767,18.5329,155.536,106.074,102.438,0.000432802,0.0491001,21.0303,180.797,0.301745,0.0,0.0
412,102.75,17.801,18.735,156.012,106.081,102.212,0.000438741,0.0490635,21.0303,180.797,0.321404,0.0,0.0
414,103.25,17.5094,18.3145,160.782,106.086,102.398,0.000445833,0.0490268,21.0303,180.797,0.306096,0.0,0.0
416,103.75,17.1201,17.9847,153.514,106.07,102.42,0.000458551,0.0489906,21.0303,180.797,0.302956,0.0,0.0
418,104.25,17.484,17.952,161.295,106.081,102.388,0.000475127,0.0489756,21.0303,180.797,0.306498,0.0,0.0
420,104.75,17.7785,18.0049,158.437,106.075,102.459,0.000488554,0.0489762,21.0303,180.807,0.300014,0.0,0.0
422,105.25,16.9923,17.9737,158.683,106.091,102.249,0.000510273,0.0489554,21.0303,180.807,0.319032,0.0,0.0
424,105.75,17.1614,17.409,154.663,106.078,102.496,0.000527865,0.0489192,21.0303,180.797,0.297166,0.0,0.0
426,106.25,17.4624,18.0139,156.439,106.092,102.349,0.000542115,0.0488828,21.0303,180.807,0.310702,0.0,0.0
428,106.75,17.3617,18.5633,158.103,106.087,102.489,0.000561903,0.0488469,21.0303,180.817,0.298455,0.0,0.0
430,107.25,17.5477,18.1782,153.494,106.087,102.434,0.000585352,0.0488249,21.0303,180.827,0.303185,0.0,0.0
432,107.75,17.751,18.6759,154.238,106.089,102.476,0.000604346,0.0488135,21.0303,180.827,0.299766,0.0,0.0
434,108.25,17.7315,18.9783,158.823,106.091,102.408,0.0006342,0.0488043,21.0303,180.817,0.305659,0.0,0.0
436,108.75,17.6619,18.066,156.412,106.085,102.492,0.000658381,0.0487969,21.0303,180.817,0.298041,0.0,0.0
438,109.25,17.882,18.198,154.818,106.103,102.35,0.000692443,0.0487502,21.0303,180.807,0.31154,0.0,0.0
440,109.75,17.6592,18.5341,154.146,106.081,102.281,0.000720033,0.0487123,21.0307,180.807,0.315588,0.0,0.0
442,110.25,17.6593,18.3171,155.821,106.094,102.466,0.000750826,0.0486603,21.031,180.817,0.301045,0.0,0.0
444,110.75,17.6049,18.1245,156.638,106.078,102.469,0.000774498,0.0485989,21.0313,180.817,0.299472,0.0,0.0
446,111.25,17.1558,18.511,155.051,106.087,102.585,0.000792529,0.0485492,21.0316,180.817,0.290391,0.0,0.0
448,111.75,17.6653,18.5964,155.734,106.084,102.438,0.000807135,0.0485089,21.0318,180.817,0.302586,0.0,0.0
450,112.25,17.4511,18.5054,159.031,106.1,102.425,0.000818965,0.0484905,21.0319,180.807,0.304907,0.0,0.0
452,112.75,17.0463,18.0796,153.301,106.094,102.366,0.000823722,0.0484885,21.032,180.807,0.30947,0.0,0.0
454,113.25,17.559,18.2897,160.079,106.092,102.421,0.000827575,0.0485011,21.0323,180.807,0.304628,0.0,0.0
456,113.75,17.4559,17.6246,157.64,106.078,102.416,0.000830695,0.0485241,21.0326,180.807,0.303906,0.0,0.0
458,114.25,17.5049,18.3176,161.085,106.091,102.445,0.000860983,0.0485428,21.0328,180.807,0.302451,0.0,0.0
460,114.75,17.3594,18.2437,156.248,106.071,102.348,0.000885515,0.0485579,21.033,180.797,0.309139,0.0,0.0
462,115.25,17.2867,17.7836,161.046,106.087,102.328,0.000928334,0.0485702,21.0332,180.807,0.312049,0.0,0.0
464,115.75,17.5257,18.097,162.578,106.069,102.284,0.000963018,0.0485801,21.0331,180.807,0.31434,0.0,0.0
466,116.25,16.7173,17.3951,158.688,106.075,102.34,0.0010007,0.0485667,21.0328,180.807,0.310086,0.0,0.0
468,116.75,16.7565,17.8626,159.076,106.075,102.362,0.00103985,0.0485366,21.0325,180.797,0.308275,0.0,0.0
470,117.25,17.4301,17.9801,163.139,106.075,102.342,0.00107092,0.0485265,21.0321,180.797,0.309925,0.0,0.0
472,117.75,17.153,18.0024,157.435,106.063,102.491,0.00109552,0.0485312,21.0319,180.787,0.296404,0.0,0.0
474,118.25,17.6302,18.1892,157.819,106.072,102.456,0.00109891,0.048535,21.0316,180.797,0.300042,0.0,0.0
476,118.75,16.8765,17.9965,160.977,106.063,102.336,0.00108678,0.0485245,21.0317,180.787,0.309448,0.0,0.0
478,119.25,17.6291,17.9892,157.667,106.052,102.286,0.00105218,0.048516,21.0319,180.787,0.312775,0.0,0.0
480,119.75,17.2143,18.1609,158.974,106.047,102.376,0.00100185,0.0485087,21.0321,180.777,0.304744,0.0,0.0
482,120.25,16.9998,17.6774,157.033,106.062,102.369,0.000961093,0.0485025,21.0323,180.797,0.306599,0.0,0.0
484,120.75,16.612,17.0801,156.443,106.045,102.402,0.000859396,0.0484839,21.0324,180.787,0.302414,0.0,0.0
486,121.25,17.5963,17.3517,158.137,106.047,102.493,0.000777021,0.0484688,21.0325,180.777,0.294948,0.0,0.0
488,121.75,17.4255,18.2444,155.42,106.033,102.39,0.000702063,0.0484566,21.0326,180.787,0.302449,0.0,0.0
490,122.25,17.5376,17.8719,154.007,106.035,102.315,0.000633937,0.0484467,21.0323,180.797,0.308975,0.0,0.0
492,122.75,17.6042,18.3865,157.507,106.033,102.451,0.000582554,0.0484102,21.032,180.797,0.297314,0.0,0.0
494,123.25,17.5,18.2672,157.167,106.014,102.435,0.000544354,0.0483549,21.0317,180.797,0.29714,0.0,0.0
496,123.75,17.5088,17.8538,152.975,106.013,102.239,0.000519113,0.0483102,21.0315,180.797,0.313503,0.0,0.0
498,124.25,16.5959,17.98,160.801,106.017,102.337,0.0005038,0.0482953,21.0314,180.787,0.305614,0.0,0.0
500,124.75,16.7484,17.4899,162.154,106.005,102.35,0.000502805,0.0483025,21.0312,180.797,0.303533,0.0,0.0
502,125.25,17.2567,17.6427,159.35,106.012,102.23,0.000512267,0.0483298,21.0311,180.797,0.314257,0.0,0.0
504,125.75,17.3877,17.6582,157.192,106.002,102.284,0.000534518,0.0483711,21.0311,180.787,0.308895,0.0,0.0
506,126.25,17.0913,17.997,158.969,106.001,102.349,0.000565669,0.0484331,21.031,180.787,0.303296,0.0,0.0
508,126.75,17.1106,18.1195,156.99,105.993,102.313,0.000590902,0.048509,21.0309,180.787,0.305725,0.0,0.0
510,127.25,17.012,17.6124,153.176,106.005,102.271,0.000615149,0.0485776,21.0309,180.797,0.310239,0.0,0.0
512,127.75,17.5822,17.8694,153.434,105.987,102.397,0.000638215,0.0486396,21.0308,180.807,0.298066,0.0,0.0
514,128.25,16.7293,17.5604,159.006,105.968,102.056,0.000652457,0.0486969,21.0308,180.807,0.325439,0.0,0.0
516,128.75,16.7087,17.7844,156.94,105.966,102.27,0.000659995,0.0487498,21.0308,180.807,0.307086,0.0,0.0
518,129.25,17.4443,18.1113,155.533,105.97,102.276,0.000662295,0.0487926,21.0308,180.797,0.306932,0.0,0.0
520,129.75,17.1969,17.8169,156.323,105.951,102.197,0.000660732,0.048868,21.0308,180.797,0.312092,0.0,0.0
522,130.25,16.9827,17.1149,161.667,105.955,102.266,0.000655026,0.048929,21.0308,180.787,0.306558,0.0,0.0
524,130.75,16.773,17.4128,160.607,105.949,102.2,0.000646408,0.0489927,21.0307,180.787,0.311646,0.0,0.0
526,131.25,17.3238,17.8754,157.77,105.941,102.192,0.000635623,0.0490571,21.0307,180.777,0.311677,0.0,0.0
528,131.75,16.8576,18.0355,161.649,105.934,102.148,0.000623463,0.0491093,21.0307,180.777,0.314884,0.0,0.0
530,132.25,17.3977,18.0116,156.948,105.933,102.239,0.000608542,0.0491381,21.0307,180.787,0.30704,0.0,0.0
532,132.75,17.3877,17.6749,154.42,105.924,102.145,0.000591891,0.0491613,21.0303,180.797,0.314277,0.0,0.0
534,133.25,17.3865,17.9017,158.115,105.915,102.164,0.000578404,0.0491802,21.0299,180.797,0.311963,0.0,0.0
536,133.75,16.8379,18.3727,160.447,105.908,102.263,0.000553539,0.0491955,21.0296,180.797,0.303006,0.0,0.0
538,134.25,17.5306,18.0411,153.188,105.893,102.044,0.000520852,0.0493298,21.0294,180.797,0.320348,0.0,0.0
540,134.75,17.0178,18.3626,155.21,105.896,102.158,0.000494375,0.0494387,21.0292,180.787,0.310853,0.0,0.0
542,135.25,17.6617,17.3228,152.4,105.878,102.188,0.000456467,0.0496082,21.029,180.797,0.306828,0.0,0.0
544,135.75,17.3782,17.872,158.877,105.891,102.286,0.000410946,0.0497455,21.0292,180.787,0.299639,0.0,0.0
546,136.25,17.4882,17.6265,158.695,105.854,102.238,0.000374074,0.0498431,21.0293,180.787,0.30073,0.0,0.0
548,136.75,17.174,17.8001,160.798,105.869,102.087,,0.0499222,,180.777,0.314723,0.0,0.0
550,137.25,16.7194,17.8669,164.599,105.843,102.147,,0.0499863,,180.777,0.307436,0.0,0.0
552,137.75,17.073,17.1292,155.142,105.838,102.266,,0.0500168,,180.777,0.297036,0.0,0.0
554,138.25,17.7336,17.84,157.171,105.822,102.352,,0.0500222,,180.787,0.288371,0.0,0.0
556,138.75,17.2388,17.9773,158.462,105.817,102.118,,0.0500266,,180.787,0.30784,0.0,0.0
558,139.25,17.0694,17.8536,155.368,105.804,102.045,,0.0499895,,180.787,0.312951,0.0,0.0
560,139.75,17.1908,18.2529,157.103,105.807,102.073,,,,180.777,0.310803,0.0,0.0
562,140.25,17.199,17.8145,159.363,105.794,102.08,,,,180.787,0.309154,0.0,0.0
564,140.75,17.1935,17.8302,156.839,105.794,102.004,,,,180.787,0.315601,0.0,0.0
566,141.25,17.1137,17.8538,157.199,105.773,102.08,,,,180.787,0.307396,0.0,0.0
568,141.75,17.4191,17.8446,156.913,105.766,102.011,,,,180.777,0.312729,0.0,0.0
570,142.25,17.4487,17.7632,158.183,105.739,102.016,,,,180.777,0.310114,0.0,0.0
572,142.75,17.655,18.1594,157.851,105.755,102.028,,,,180.777,0.310398,0.0,0.0
574,143.25,17.8416,18.1272,159.186,105.722,102.089,,,,180.787,0.30246,0.0,0.0
576,143.75,17.3554,17.7505,157.794,105.73,102.082,,,,180.777,0.303792,0.0,0.0
578,144.25,17.7707,17.5397,155.636,105.69,102.041,,,,180.777,0.303942,0.0,0.0
580,144.75,17.2383,17.7322,153.862,105.701,102.129,,,,180.787,0.297355,0.0,0.0
582,145.25,17.1866,17.8811,155.123,105.674,101.998,,,,180.777,0.306221,0.0,0.0
584,145.75,17.1902,17.4455,159.618,105.683,101.962,,,,180.787,0.310104,0.0,0.0
586,146.25,17.2211,17.677,155.876,105.652,101.99,,,,180.787,0.305243,0.0,0.0
588,146.75,17.2101,17.9896,162.172,105.673,101.894,,,,180.787,0.315001,0.0,0.0
590,147.25,17.2098,17.8222,154.264,105.634,101.951,,,,180.797,0.306918,0.0,0.0