File: 01_Data/Cotton_Sheet/Cone/Cotton_Sheet_Cone_HF50Scan_220429_R1.csv
Names,Time,Stack TC,Smoke TC,Exh Press,Smoke Comp,Smoke Meas,CO Meter,CO2 Meter,O2 Meter,Sample Mass,Ext Coeff,Start Test,Flame Verif
Chan Gain,,500,500,1,1,1,1,1,1,1,1,1.0,1.0
Offset,,0,0,0.138979,0,0,0,0,0,0,0,0.0,0.0
Gain,,1,1,25.011,14.099,15.1965,1,1,1,1.00087,0.986176,1.0,1.0
Units,sec,C,C,Pa,%,%,%,%,%,g,/m,,
Baseline,,28.4617,29.526,150.523,105.857,102.552,0.000905541,0.0496726,21.0311,-834.625,0.274385,,
2,0.25,26.5316,28.2144,148.936,104.369,100.819,0.00102012,0.052793,21.0195,186.062,0.29937,0.0,0.0
4,0.75,25.6819,27.171,150.743,104.361,100.503,0.0010835,0.0534798,21.0185,186.482,0.325869,0.0,0.0
6,1.25,26.4835,27.3747,150.474,104.366,100.388,0.00116006,0.0599257,20.9975,186.212,0.336203,0.0,0.0
8,1.75,26.0983,27.4844,159.137,104.352,97.92,0.00122207,0.0704475,20.9805,186.282,0.55033,0.0,0.0
10,2.25,26.4137,27.7134,146.24,104.363,100.434,0.00133166,0.0789701,20.9501,186.202,0.331995,0.0,0.0
12,2.75,25.962,27.1643,128.529,104.357,104.709,0.00142043,0.107316,20.9106,186.012,-0.0291367,0.0,1.0
14,3.25,26.2071,27.3202,127.839,104.365,106.821,0.00156645,0.130275,20.868,185.982,-0.201241,0.0,1.0
16,3.75,26.5687,27.7401,130.822,104.362,106.199,0.00168473,0.174958,20.8239,185.912,-0.150903,0.0,1.0
18,4.25,26.7315,27.3708,118.102,104.367,106.265,0.00178054,0.211151,20.7882,185.721,-0.155877,0.0,1.0
20,4.75,27.4118,28.2977,116.703,104.341,106.187,0.00200057,0.25855,20.7592,185.711,-0.151634,0.0,1.0
22,5.25,28.3104,28.4745,115.697,104.365,106.6,0.00217879,0.296942,20.7357,185.551,-0.183305,0.0,1.0
24,5.75,29.2166,28.9277,126.862,104.343,104.7,0.0024392,0.32963,20.7166,185.621,-0.0295469,0.0,1.0
26,6.25,30.1577,30.0044,131.922,104.36,103.503,0.00265014,0.356107,20.7011,185.461,0.0713472,0.0,1.0
28,6.75,30.682,31.1312,137.11,104.356,103.808,0.00291524,0.377553,20.6983,185.571,0.0455616,0.0,1.0
30,7.25,31.8434,31.7909,138.551,104.36,102.933,0.00321479,0.380131,20.7047,185.431,0.119119,0.0,1.0
32,7.75,31.248,31.4432,142.006,104.352,102.137,0.00355797,0.382219,20.7099,185.501,0.185583,0.0,0.0
34,8.25,32.2393,32.4972,138.496,104.362,102.401,0.00392645,0.374742,20.7338,185.451,0.164043,0.0,0.0
36,8.75,32.1345,33.1196,144.865,104.357,102.011,0.00431879,0.360433,20.7532,185.461,0.196698,0.0,0.0
38,9.25,32.1175,32.7683,144.904,104.361,101.809,0.00472107,0.342501,20.7744,185.471,0.214147,0.0,0.0
40,9.75,32.1891,33.0018,147.64,104.342,101.945,0.00504691,0.322268,20.7966,185.431,0.201078,0.0,0.0
42,10.25,32.886,33.782,151.589,104.357,101.311,0.00541435,0.300906,20.8145,185.471,0.256291,0.0,0.0
44,10.75,32.2455,33.3114,145.197,104.346,101.529,0.00580514,0.279126,20.8365,185.421,0.236692,0.0,0.0
46,11.25,32.7928,33.7189,148.264,104.352,101.087,0.00612168,0.258245,20.8544,185.461,0.274966,0.0,0.0
48,11.75,32.4308,33.2958,147.806,104.339,101.264,0.00644302,0.238415,20.8711,185.431,0.258753,0.0,0.0
50,12.25,33.1387,34.1004,148.398,104.345,101.239,0.0067033,0.222354,20.8868,185.461,0.261432,0.0,0.0
52,12.75,32.7258,34.1057,152.489,104.337,101.286,0.00689441,0.206185,20.8994,185.441,0.256673,0.0,0.0
54,13.25,32.6874,33.8727,149.229,104.353,101.233,0.00703145,0.190244,20.9128,185.431,0.26255,0.0,0.0
56,13.75,32.6433,33.8301,148.917,104.325,101.398,0.00714245,0.177333,20.9236,185.411,0.246208,0.0,0.0
58,14.25,32.6033,33.6269,148.829,104.347,101.251,0.00708273,0.163903,20.9351,185.101,0.260616,0.0,0.0
60,14.75,32.7309,33.6031,147.318,104.345,101.235,0.00703435,0.153025,20.9445,185.441,0.261784,0.0,0.0
62,15.25,32.2053,33.5634,149.689,104.357,101.548,0.00680532,0.14309,20.9532,185.381,0.236039,0.0,0.0
64,15.75,32.5353,33.8211,146.28,104.339,101.517,0.0066198,0.134033,20.9613,185.461,0.237224,0.0,0.0
66,16.25,32.5842,33.7995,142.893,104.363,101.199,0.00612197,0.125622,20.9728,185.421,0.266302,0.0,0.0
68,16.75,32.3331,33.4933,146.646,104.354,101.051,0.00598806,0.117844,20.9763,185.441,0.278205,0.0,0.0
70,17.25,32.2677,33.422,147.095,104.357,101.362,0.00559689,0.111543,20.9831,185.431,0.251892,0.0,0.0
72,17.75,31.7411,33.1462,148.887,104.336,101.153,0.00528004,0.104533,20.9895,185.421,0.268013,0.0,0.0
74,18.25,32.4836,33.5807,150.29,104.355,101.289,0.0050234,0.0988537,20.9946,185.421,0.258009,0.0,0.0
76,18.75,32.3297,33.0883,148.908,104.349,101.181,0.00463696,0.0935918,20.9995,185.401,0.266743,0.0,0.0
78,19.25,32.2256,33.0068,152.07,104.349,101.011,0.00432395,0.0866627,21.004,185.421,0.281268,0.0,0.0
80,19.75,31.61,32.9773,150.301,104.352,101.154,0.00396685,0.0842818,21.008,185.401,0.269258,0.0,0.0
82,20.25,31.7486,33.0902,147.02,104.364,100.998,0.0036776,0.0802106,21.0114,185.411,0.283631,0.0,0.0
84,20.75,31.6576,32.3099,149.737,104.346,101.337,0.00335218,0.0765187,21.0146,185.411,0.253105,0.0,0.0
86,21.25,31.2969,32.3393,152.943,104.357,101.162,0.00308859,0.0731736,21.0176,185.401,0.268936,0.0,0.0
88,21.75,31.4629,32.4257,148.662,104.344,101.219,0.00279749,0.0704641,21.02,185.411,0.262989,0.0,0.0
90,22.25,31.4773,32.7338,150.465,104.355,101.263,0.00256171,0.0677391,21.022,185.411,0.260192,0.0,0.0
92,22.75,31.0091,32.3697,147.384,104.356,101.154,0.00230538,0.0655318,21.0236,185.401,0.269579,0.0,0.0
94,23.25,31.0572,32.3127,147.009,104.351,101.223,0.00209776,0.0636081,21.0249,185.391,0.263314,0.0,0.0
96,23.75,31.2437,32.1797,146.575,104.342,100.863,0.00190352,0.0619275,21.0259,185.401,0.293375,0.0,0.0
98,24.25,31.3089,32.2913,151.162,104.344,100.998,0.00172273,0.0604806,21.027,185.411,0.282027,0.0,0.0
100,24.75,31.6525,32.071,151.442,104.347,101.093,0.00157629,0.0592313,21.0281,185.421,0.274066,0.0,0.0
102,25.25,30.7453,32.4165,157.16,104.36,101.125,0.00145767,0.0581379,21.029,185.411,0.27243,0.0,0.0
104,25.75,30.7412,32.3629,147.881,104.338,101.227,0.00133625,0.0572523,21.0297,185.431,0.261927,0.0,0.0
106,26.25,31.1902,32.3961,148.001,104.367,101.012,0.00123789,0.056535,21.0303,185.421,0.282685,0.0,0.0
108,26.75,31.2123,32.0074,151.871,104.334,101.282,0.00116064,0.0558996,21.0307,185.411,0.256855,0.0,0.0
110,27.25,30.7764,32.5001,145.992,104.362,101.167,0.00109807,0.055385,21.0311,185.401,0.269004,0.0,0.0
112,27.75,31.1091,32.2971,147.057,104.351,101.12,0.00105583,0.0549252,21.0314,185.401,0.272078,0.0,0.0
114,28.25,30.6711,32.2016,151.57,104.362,101.125,0.00102161,0.0545143,21.0317,185.401,0.272573,0.0,0.0
116,28.75,30.562,31.8542,152.331,104.35,101.207,0.000998727,0.0541814,21.0319,185.391,0.264519,0.0,0.0
118,29.25,29.9964,31.8255,153.188,104.362,101.033,0.000980188,0.0537354,21.032,185.391,0.280435,0.0,0.0
120,29.75,30.1707,31.2408,147.936,104.348,101.154,0.000957932,0.0533741,21.0322,185.401,0.268897,0.0,0.0
122,30.25,30.5863,31.5679,147.746,104.366,101.017,0.000939904,0.0529865,21.0323,185.401,0.282217,0.0,0.0
124,30.75,30.2423,31.8992,145.172,104.351,101.078,0.000899972,0.0526725,21.0326,185.401,0.275689,0.0,0.0
126,31.25,30.1585,31.6521,150.864,104.361,101.18,0.000867627,0.0523754,21.033,185.381,0.267782,0.0,0.0
128,31.75,30.5318,30.9192,148.051,104.37,101.312,0.000841428,0.0520961,21.0334,185.391,0.257242,0.0,0.0
130,32.25,30.9449,31.5827,148.499,104.37,101.24,0.000773214,0.0518271,21.0337,185.381,0.263417,0.0,0.0
132,32.75,30.725,31.5925,152.503,104.363,101.122,0.00071796,0.0515707,21.034,185.401,0.272958,0.0,0.0
134,33.25,30.0997,30.9224,147.431,104.362,101.21,0.000673205,0.0513487,21.0342,185.401,0.265279,0.0,0.0
136,33.75,30.1219,31.1486,152.171,104.358,101.029,0.000626183,0.051156,21.0343,185.411,0.280507,0.0,0.0
138,34.25,30.5389,31.6766,150.639,104.367,101.119,0.000578401,0.051,21.0342,185.401,0.273477,0.0,0.0
140,34.75,30.0757,31.6954,150.219,104.366,101.04,0.000539697,0.0508465,21.0341,185.421,0.280197,0.0,0.0
142,35.25,30.1758,31.2823,146.528,104.381,101.116,0.000533629,0.0507221,21.034,185.411,0.274896,0.0,0.0
144,35.75,30.5083,31.6744,144.22,104.347,101.311,0.000528713,0.0506214,21.0339,185.411,0.255427,0.0,0.0
146,36.25,30.2529,31.5319,152.246,104.36,101.286,0.000548826,0.0504898,21.0338,185.401,0.258603,0.0,0.0
148,36.75,29.7592,31.3225,146.43,104.354,101.145,0.000565117,0.0503383,21.0337,185.401,0.270228,0.0,0.0
150,37.25,29.7261,31.0263,155.228,104.346,101.227,0.000592778,0.0501942,21.0337,185.391,0.262529,0.0,0.0
152,37.75,29.4886,31.0847,148.836,104.363,101.051,0.000615184,0.0500582,21.0337,185.391,0.27899,0.0,0.0
154,38.25,30.2754,31.3399,149.853,104.368,101.101,0.000634538,0.049948,21.0339,185.391,0.2751,0.0,0.0
156,38.75,30.152,31.3501,152.442,104.363,101.01,0.000650214,0.0498453,21.0342,185.391,0.282564,0.0,0.0
158,39.25,29.8492,31.1572,146.225,104.354,101.267,0.000658471,0.049762,21.0345,185.401,0.259768,0.0,0.0
160,39.75,29.9626,30.9688,150.135,104.379,101.083,0.000661162,0.0496403,21.0348,185.381,0.27757,0.0,0.0
162,40.25,29.827,31.4278,152.735,104.368,101.19,0.00065573,0.0495418,21.035,185.391,0.267444,0.0,0.0
164,40.75,29.6063,31.335,148.346,104.368,100.999,0.000644481,0.049462,21.0351,185.391,0.283829,0.0,0.0
166,41.25,29.344,30.6717,151.121,104.357,101.239,0.000635368,0.0493973,21.0353,185.371,0.262426,0.0,0.0
168,41.75,29.6742,30.6787,148.746,104.368,101.188,0.00060751,0.0493093,21.0354,185.381,0.267682,0.0,0.0
170,42.25,30.5092,31.4369,150.716,104.357,101.147,0.000581776,0.0492059,21.0355,185.391,0.270244,0.0,0.0
172,42.75,29.7891,31.2593,151.436,104.352,101.365,0.000558079,0.0491007,21.0355,185.391,0.251266,0.0,0.0
174,43.25,29.6876,31.0979,147.222,104.361,101.211,0.000538884,0.0489963,21.0356,185.391,0.265165,0.0,0.0
176,43.75,29.6575,30.5995,151.436,104.366,101.231,0.000517317,0.0489117,21.0356,185.391,0.263818,0.0,0.0
178,44.25,29.7861,31.2879,146.969,104.369,101.395,0.000499848,0.048789,21.0357,185.391,0.250045,0.0,0.0
180,44.75,29.7356,31.1534,150.379,104.363,101.074,0.000480794,0.0486896,21.0357,185.381,0.276973,0.0,0.0
182,45.25,29.8546,31.0921,153.61,104.35,101.107,0.000465359,0.0485549,21.0357,185.371,0.273121,0.0,0.0
184,45.75,29.3419,31.1731,152.292,104.36,101.273,0.000452858,0.0484458,21.0358,185.361,0.259823,0.0,0.0
186,46.25,29.7488,30.9115,151.372,104.353,101.102,0.000444632,0.0482896,21.036,185.381,0.273772,0.0,0.0
188,46.75,29.646,31.4812,144.877,104.359,101.326,0.00043968,0.0481632,21.0361,185.371,0.255162,0.0,0.0
190,47.25,29.2855,30.8285,150.515,104.343,100.981,0.000439471,0.0480322,21.0362,185.371,0.28335,0.0,0.0
192,47.75,29.6994,30.9386,148.069,104.357,101.29,0.000442723,0.0479005,21.0363,185.361,0.258108,0.0,0.0
194,48.25,29.5846,31.1647,149.561,104.354,101.157,0.000445357,0.0477938,21.0364,185.361,0.269158,0.0,0.0
196,48.75,29.6332,30.6578,152.421,104.35,100.99,0.000454716,0.0477216,21.0364,185.361,0.283165,0.0,0.0
198,49.25,29.4606,31.0094,148.614,104.342,101.165,0.000462296,0.0476632,21.0365,185.351,0.267445,0.0,0.0
200,49.75,29.3773,30.671,148.67,104.353,101.132,0.000474458,0.0476301,21.0365,185.351,0.271193,0.0,0.0
202,50.25,30.087,30.8695,151.628,104.342,101.08,0.000484309,0.0476161,21.0361,185.381,0.274746,0.0,0.0
204,50.75,29.3691,31.1897,149.092,104.349,101.118,0.000495902,0.0476048,21.0358,185.371,0.272101,0.0,0.0
206,51.25,29.4008,31.1013,152.115,104.342,101.154,0.000505292,0.0475956,21.0355,185.361,0.268473,0.0,0.0
208,51.75,29.2401,30.8237,149.685,104.351,101.073,0.000518921,0.0475882,21.0353,185.361,0.276054,0.0,0.0
210,52.25,29.6612,30.8959,149.362,104.338,101.243,0.000529961,0.0475416,21.0351,185.381,0.2605,0.0,0.0
212,52.75,29.2416,30.6571,151.509,104.345,100.939,0.000538903,0.0474967,21.035,185.371,0.287145,0.0,0.0
214,53.25,29.0054,30.5459,146.592,104.335,100.924,0.000564223,0.0474539,21.0349,185.361,0.287596,0.0,0.0
216,53.75,29.0858,30.4473,149.72,104.342,101.149,0.000584732,0.0474121,21.0348,185.371,0.268909,0.0,0.0
218,54.25,28.9776,30.491,151.875,104.323,101.317,0.000610989,0.0473718,21.0347,185.351,0.252953,0.0,0.0
220,54.75,29.3187,30.9157,150.935,104.349,100.926,0.000632257,0.0473392,21.0346,185.371,0.288503,0.0,0.0
222,55.25,28.8469,30.7764,149.495,104.338,101.209,0.000649484,0.0472721,21.0346,185.381,0.263397,0.0,0.0
224,55.75,29.2119,30.306,152.004,104.353,101.041,0.000672371,0.0472178,21.0345,185.371,0.279047,0.0,0.0
226,56.25,29.3681,30.079,149.693,104.342,100.99,0.000698949,0.0471738,21.0345,185.361,0.282524,0.0,0.0
228,56.75,29.0472,29.641,150.992,104.353,101.5,0.000720477,0.0471246,21.0346,185.361,0.239752,0.0,0.0
230,57.25,29.3145,30.6412,153.837,104.341,100.936,0.000751186,0.0470848,21.0346,185.351,0.286986,0.0,0.0
232,57.75,29.2283,30.0489,151.249,104.351,101.263,0.00077606,0.0470932,21.0347,185.361,0.259831,0.0,0.0
234,58.25,28.8946,30.0942,147.511,104.343,101.213,0.00080707,0.0471,21.0347,185.371,0.263509,0.0,0.0
236,58.75,28.443,30.2291,149.992,104.358,101.194,0.000832188,0.0471054,21.0347,185.381,0.266342,0.0,0.0
238,59.25,28.9317,30.4918,152.304,104.346,101.382,0.000852534,0.0470952,21.0347,185.371,0.249342,0.0,0.0
240,59.75,29.0952,30.3411,144.996,104.363,101.407,0.000869014,0.0470738,21.0347,185.361,0.248556,0.0,0.0
242,60.25,29.0282,30.1375,151.045,104.352,101.013,0.000882363,0.0470636,21.0348,185.371,0.281283,0.0,0.0
244,60.75,29.2759,30.0018,149.616,104.359,101.273,0.000865423,0.0470617,21.0348,185.361,0.259602,0.0,0.0
246,61.25,28.705,29.7154,147.513,104.35,101.317,0.000851703,0.0470602,21.0348,185.361,0.255204,0.0,0.0
248,61.75,28.5058,30.4915,150.812,104.355,101.063,0.000829735,0.0470454,21.0348,185.351,0.277284,0.0,0.0
250,62.25,28.7573,30.1944,152.831,104.34,101.35,0.000811941,0.0470335,21.0348,185.361,0.251459,0.0,0.0
252,62.75,29.3004,30.3268,148.942,104.356,101.041,0.000793911,0.0470309,21.0348,185.351,0.279261,0.0,0.0
254,63.25,28.5629,30.2091,150.843,104.344,101.151,0.000779307,0.0470352,21.0348,185.351,0.268857,0.0,0.0
256,63.75,28.941,30.2202,151.172,104.354,101.084,0.000761449,0.0470388,21.0348,185.341,0.275351,0.0,0.0
258,64.25,29.0529,29.8869,151.379,104.34,101.002,0.000746985,0.0470281,21.0348,185.321,0.281238,0.0,0.0
260,64.75,28.5812,29.8723,152.734,104.358,101.305,0.000723216,0.0470265,21.0348,185.331,0.256832,0.0,0.0
262,65.25,29.0212,30.3139,152.45,104.349,101.162,0.000703964,0.0470317,21.0348,185.341,0.268293,0.0,0.0
264,65.75,29.0557,30.4519,150.308,104.354,101.062,0.000673912,0.0470216,21.0348,185.331,0.277367,0.0,0.0
266,66.25,28.5908,29.9696,145.574,104.356,101.068,0.000639192,0.0470006,21.0348,185.351,0.276918,0.0,0.0
268,66.75,28.6162,29.801,152.251,104.357,101.156,0.000629853,0.0469694,21.0348,185.341,0.269491,0.0,0.0
270,67.25,29.2584,29.5276,150.791,104.347,101.089,0.000601206,0.0469312,21.0348,185.351,0.274344,0.0,0.0
272,67.75,29.2312,30.2473,152.57,104.357,101.283,0.000566594,0.0469004,21.0348,185.341,0.258702,0.0,0.0
274,68.25,28.5732,29.2242,152.628,104.351,101.246,0.000534125,0.0468889,21.0348,185.351,0.261373,0.0,0.0
276,68.75,28.6504,29.7341,150.739,104.361,101.286,0.000503834,0.0468796,21.0348,185.351,0.25871,0.0,0.0
278,69.25,28.6698,29.9448,149.239,104.353,101.101,0.000480565,0.0468553,21.0348,185.351,0.273851,0.0,0.0
280,69.75,28.616,29.9873,149.679,104.381,101.195,0.000462857,0.0468466,21.0348,185.351,0.268118,0.0,0.0
282,70.25,28.695,29.8769,149.173,104.356,101.055,0.000452314,0.0468318,21.0348,185.351,0.278066,0.0,0.0
284,70.75,28.7932,30.2226,152.091,104.36,101.133,0.000447196,0.0468055,21.0352,185.351,0.271684,0.0,0.0
286,71.25,28.9678,30.1508,155.221,104.353,101.23,0.000441149,0.0467714,21.0356,185.341,0.262788,0.0,0.0
288,71.75,28.5754,30.2757,148.807,104.36,101.217,0.000434541,0.0467224,21.0359,185.351,0.264543,0.0,0.0
290,72.25,28.2856,28.8736,147.696,104.35,101.167,0.000425388,0.0466635,21.0361,185.341,0.267929,0.0,0.0
292,72.75,27.9536,29.9096,151.365,104.357,100.925,0.000414554,0.0466158,21.0363,185.351,0.289296,0.0,0.0
294,73.25,28.8563,29.7059,147.868,104.356,101.158,0.000405778,0.0465771,21.0365,185.351,0.269297,0.0,0.0
296,73.75,28.7993,29.5347,144.079,104.349,101.114,0.000402036,0.0465529,21.0365,185.351,0.272415,0.0,0.0
298,74.25,28.6803,29.6216,149.971,104.351,101.165,0.000390825,0.0465397,21.0366,185.321,0.268199,0.0,0.0
300,74.75,28.5042,29.9761,154.398,104.365,101.228,0.000381743,0.046529,21.0367,185.331,0.264024,0.0,0.0
302,75.25,29.0715,29.7405,145.702,104.36,101.075,0.000368372,0.046561,21.0368,185.351,0.27664,0.0,0.0
304,75.75,28.5059,29.5812,155.459,104.354,101.062,0.000357541,0.0465869,21.0369,185.341,0.277256,0.0,0.0
306,76.25,28.3937,29.5408,151.535,104.366,101.342,0.000343955,0.0466215,21.0369,185.351,0.254351,0.0,0.0
308,76.75,28.3178,29.9352,152.479,104.363,101.008,0.000332951,0.0466362,21.037,185.361,0.282651,0.0,0.0
310,77.25,28.6102,29.7395,152.442,104.364,101.024,0.000334866,0.0466613,21.037,185.351,0.281364,0.0,0.0
312,77.75,28.8072,29.7996,152.525,104.367,101.031,0.000336417,0.0467224,21.037,185.341,0.281057,0.0,0.0
314,78.25,28.6117,29.6373,148.383,104.371,101.256,0.000337673,0.0467718,21.0366,185.351,0.262105,0.0,0.0
316,78.75,29.0453,30.1457,153.307,104.378,101.09,0.000361503,0.0468403,21.0363,185.341,0.276908,0.0,0.0
318,79.25,28.5428,30.1831,152.399,104.376,101.104,0.000401337,0.0469215,21.036,185.321,0.275535,0.0,0.0
320,79.75,28.0369,29.5532,151.972,104.36,100.961,0.000444384,0.0469873,21.0358,185.331,0.28645,0.0,0.0
322,80.25,28.3806,29.8589,150.692,104.37,101.3,0.000488956,0.0470405,21.0356,185.341,0.258267,0.0,0.0
324,80.75,28.3683,30.0494,150.706,104.363,101.235,0.00052506,0.0470837,21.0354,185.331,0.263243,0.0,0.0
326,81.25,28.5287,29.7468,152.712,104.379,101.113,0.000565727,0.0471186,21.0353,185.331,0.27507,0.0,0.0
328,81.75,28.267,30.1452,152.915,104.373,101.23,0.000608948,0.0471875,21.0352,185.341,0.264539,0.0,0.0
330,82.25,28.1416,29.6623,151.831,104.385,101.266,0.000652212,0.0472434,21.0351,185.331,0.26245,0.0,0.0
332,82.75,28.5214,29.6673,150.516,104.372,101.124,0.000694684,0.0472886,21.0351,185.331,0.273512,0.0,0.0
334,83.25,28.6592,29.4127,150.625,104.382,101.426,0.000730357,0.0473253,21.035,185.341,0.24858,0.0,0.0
336,83.75,28.5894,29.875,150.983,104.369,101.381,0.000760396,0.0473692,21.035,185.331,0.251312,0.0,0.0
338,84.25,28.4926,29.9481,148.493,104.384,101.216,0.000777742,0.0474176,21.035,185.321,0.266615,0.0,0.0
340,84.75,28.4301,29.4108,151.597,104.384,101.183,0.000785506,0.0474568,21.0345,185.301,0.269434,0.0,0.0
342,85.25,28.2154,29.76,146.666,104.397,101.114,0.000791794,0.0475293,21.0341,185.311,0.276337,0.0,0.0
344,85.75,28.8928,29.2898,153.903,104.368,101.243,0.000769154,0.0475879,21.0338,185.311,0.262926,0.0,0.0
346,86.25,28.5554,30.0108,146.149,104.386,101.132,0.000750815,0.0476625,21.0336,185.311,0.273975,0.0,0.0
348,86.75,28.4767,29.9698,151.892,104.383,101.301,0.000693797,0.0477229,21.0334,185.311,0.259262,0.0,0.0
350,87.25,28.0118,29.489,150.473,104.388,101.24,0.000647612,0.0477583,21.0332,185.311,0.264879,0.0,0.0
352,87.75,28.323,29.5744,150.038,104.384,101.363,0.000610202,0.047787,21.0331,185.301,0.254099,0.0,0.0
354,88.25,28.5175,30.0241,150.173,104.394,101.178,0.000562799,0.047878,21.033,185.311,0.27069,0.0,0.0
356,88.75,28.5793,29.6349,148.601,104.378,101.216,0.000509011,0.0479517,21.0329,185.321,0.266155,0.0,0.0
358,89.25,28.8658,29.3094,155.697,104.396,101.248,0.00046861,0.0480256,21.0328,185.311,0.264883,0.0,0.0
360,89.75,28.0418,29.4499,153.267,104.386,100.959,0.000438733,0.0480983,21.0328,185.301,0.288749,0.0,0.0
362,90.25,28.2098,29.2658,148.304,104.397,101.199,0.000429736,0.0481501,21.0327,185.301,0.26912,0.0,0.0
364,90.75,28.3957,29.7296,149.998,104.393,101.286,0.000436131,0.0481857,21.0327,185.311,0.261345,0.0,0.0
366,91.25,28.4135,29.7249,149.218,104.405,101.194,0.000457794,0.0482144,21.0326,185.301,0.270269,0.0,0.0
368,91.75,28.1029,29.356,150.821,104.392,101.108,0.000490176,0.0482235,21.0322,185.311,0.276536,0.0,0.0
370,92.25,28.6866,29.5032,146.987,104.416,101.144,0.000529096,0.048218,21.0318,185.301,0.275443,0.0,0.0
372,92.75,28.1078,30.0312,147.914,104.401,101.435,0.000572041,0.0482135,21.0315,185.281,0.249321,0.0,0.0
374,93.25,28.053,29.6624,152.1,104.417,101.096,0.00061,0.0482505,21.0313,185.281,0.279601,0.0,0.0
376,93.75,28.2133,29.5189,152.034,104.403,101.155,0.000643604,0.0482805,21.0311,185.291,0.273381,0.0,0.0
378,94.25,27.8439,29.592,151.223,104.413,101.334,0.000670822,0.0483455,21.0309,185.301,0.258982,0.0,0.0
380,94.75,28.2831,29.6518,151.804,104.395,101.593,0.000685888,0.0483981,21.0308,185.311,0.235342,0.0,0.0
382,95.25,28.2693,29.4441,149.394,104.418,101.24,0.000691808,0.0484543,21.0307,185.301,0.267339,0.0,0.0
384,95.75,27.7996,29.7462,155.113,104.41,101.202,0.000686453,0.048514,21.0306,185.291,0.269943,0.0,0.0
386,96.25,28.5429,29.8616,151.728,104.424,101.114,0.000672981,0.0485753,21.0305,185.291,0.278619,0.0,0.0
388,96.75,28.004,29.3444,149.103,104.409,101.296,0.000646219,0.0486249,21.0304,185.321,0.261836,0.0,0.0
390,97.25,28.0256,29.3209,150.159,104.436,101.239,0.000610278,0.0487193,21.0304,185.311,0.268916,0.0,0.0
392,97.75,27.4987,29.8351,148.646,104.415,101.126,0.000581166,0.0487957,21.0304,185.321,0.276918,0.0,0.0
394,98.25,28.3811,29.7782,151.015,104.434,101.404,0.000533513,0.0488648,21.0303,185.311,0.254681,0.0,0.0
396,98.75,28.4142,29.5317,147.285,104.416,101.272,0.000494914,0.0489272,21.0303,185.301,0.264502,0.0,0.0
398,99.25,28.6531,29.9266,149.477,104.441,101.13,0.000462446,0.0489777,21.0303,185.301,0.278661,0.0,0.0
400,99.75,28.4768,29.2439,151.476,104.421,101.406,0.000436147,0.0490457,21.0303,185.311,0.253489,0.0,0.0
402,100.25,28.1622,29.6197,149.706,104.452,101.453,0.000427513,0.0491008,21.0303,185.301,0.252017,0.0,0.0
404,100.75,28.4981,29.1404,153.188,104.426,101.288,0.000431922,0.0492132,21.0303,185.291,0.263971,0.0,0.0
406,101.25,28.5754,29.3229,148.587,104.455,101.631,0.000433802,0.0493043,21.0302,185.291,0.237103,0.0,0.0
408,101.75,28.5165,29.7377,152.444,104.436,101.109,0.000437016,0.0494066,21.0302,185.301,0.280094,0.0,0.0
410,102.25,28.255,29.2144,149.16,104.449,101.302,0.000466252,0.0495151,21.0302,185.311,0.264708,0.0,0.0
412,102.75,27.675,28.7192,146.801,104.445,101.082,0.000513903,0.0496316,21.0298,185.301,0.283143,0.0,0.0
414,103.25,28.3946,30.0111,151.858,104.462,101.093,0.000555039,0.0497516,21.0294,185.301,0.283546,0.0,0.0
416,103.75,28.5859,29.7409,152.447,104.445,101.096,0.000590643,0.0498488,21.0291,185.291,0.281918,0.0,0.0
418,104.25,28.1711,29.7143,147.405,104.469,101.459,0.000615675,0.0498903,21.0289,185.291,0.252892,0.0,0.0
420,104.75,28.2629,29.7669,151.572,104.459,101.457,0.000632524,0.0499754,21.0287,185.291,0.25227,0.0,0.0
422,105.25,28.4462,29.926,148.722,104.47,101.42,0.000641097,0.0500573,21.0286,185.281,0.25625,0.0,0.0
424,105.75,28.7134,29.1315,147.811,104.461,101.254,0.000643473,0.0501235,21.0284,185.281,0.269751,0.0,0.0
426,106.25,28.3481,29.3529,147.61,104.483,101.235,0.000640323,0.0501637,21.0283,185.281,0.273187,0.0,0.0
428,106.75,28.2018,29.9359,147.572,104.474,101.316,0.000633206,0.0501962,21.0283,185.301,0.265546,0.0,0.0
430,107.25,28.6068,29.7722,151.447,104.485,101.402,0.000627441,0.0502767,21.0282,185.291,0.259075,0.0,0.0
432,107.75,28.3463,29.2639,153.227,104.487,101.369,0.000611928,0.0503563,21.0281,185.291,0.262106,0.0,0.0
434,108.25,28.218,29.7912,151.697,104.489,101.375,0.000599363,0.0504335,21.0281,185.261,0.261734,0.0,0.0
436,108.75,28.3676,29.5378,150.432,104.498,101.448,0.000589185,0.0504818,21.0281,185.271,0.256193,0.0,0.0
438,109.25,28.2493,29.9351,151.394,104.488,101.355,0.00055445,0.0505081,21.028,185.281,0.263325,0.0,0.0
440,109.75,28.1801,29.6286,150.053,104.489,101.23,0.000526315,0.0505294,21.028,185.261,0.274091,0.0,0.0
442,110.25,28.3727,29.7789,146.825,104.478,101.5,0.000486678,0.0505873,21.0278,185.261,0.250125,0.0,0.0
444,110.75,28.2733,29.8209,152.335,104.501,101.443,0.000454571,0.0506343,21.0273,185.271,0.256877,0.0,0.0
446,111.25,28.4699,29.398,150.526,104.495,101.359,0.000433378,0.0506651,21.027,185.281,0.26365,0.0,0.0
448,111.75,28.0907,29.6431,151.234,104.5,101.352,0.000416211,0.0506837,21.0267,185.291,0.2646,0.0,0.0
450,112.25,27.8413,29.4947,149.214,104.493,101.461,0.000425176,0.0506988,21.0265,185.271,0.254769,0.0,0.0
452,112.75,28.3322,30.012,150.471,104.504,101.249,0.000432437,0.0507038,21.0263,185.271,0.273673,0.0,0.0
454,113.25,28.1398,29.65,150.458,104.507,101.119,0.000449729,0.0507015,21.0262,185.271,0.285025,0.0,0.0
456,113.75,28.4119,29.1506,151.422,104.517,101.242,0.000474005,0.0506853,21.0261,185.261,0.275411,0.0,0.0
458,114.25,28.8199,30.3862,149.056,104.502,101.362,0.000494936,0.0506594,21.026,185.251,0.263872,0.0,0.0
460,114.75,27.903,29.8584,149.4,104.528,101.607,0.000513033,0.0506598,21.0259,185.261,0.245132,0.0,0.0
462,115.25,27.8572,29.3633,149.543,104.522,101.536,0.00052769,0.0506794,21.0259,185.261,0.250716,0.0,0.0
464,115.75,28.5946,29.2519,150.045,104.536,101.646,0.000516678,0.0507167,21.0258,185.261,0.242532,0.0,0.0
466,116.25,28.6708,29.5145,149.687,104.525,101.638,0.000507758,0.0507662,21.0258,185.271,0.242353,0.0,0.0
468,116.75,28.4312,29.5037,155.192,104.541,101.234,0.000486087,0.0508205,21.0257,185.271,0.278039,0.0,0.0
470,117.25,28.2518,29.2312,152.702,104.539,101.399,0.000468533,0.0508774,21.0257,185.271,0.263769,0.0,0.0
472,117.75,28.436,29.8902,147.906,104.546,101.34,0.000454901,0.0509235,21.0257,185.271,0.2694,0.0,0.0
474,118.25,28.4707,29.7535,149.058,104.554,101.267,0.000444386,0.0509337,21.0252,185.271,0.276337,0.0,0.0
476,118.75,28.4658,29.2104,152.689,104.56,101.372,0.000443473,0.0509419,21.0249,185.271,0.267919,0.0,0.0
478,119.25,28.4887,29.4634,148.432,104.556,101.398,0.000449577,0.0509557,21.0246,185.271,0.265307,0.0,0.0
480,119.75,28.4588,29.4124,149.638,104.573,101.342,0.000454521,0.0509733,21.0246,185.251,0.271489,0.0,0.0
482,120.25,28.6528,29.1627,151.979,104.562,101.253,0.000469364,0.0509876,21.0247,185.251,0.278203,0.0,0.0
484,120.75,28.0593,29.4118,149.581,104.573,101.59,0.000481388,0.0509592,21.025,185.251,0.250335,0.0,0.0
486,121.25,28.1752,29.4252,150.668,104.57,101.345,0.000492331,0.050922,21.0253,185.251,0.270958,0.0,0.0
488,121.75,28.5299,30.0725,151.065,104.577,101.474,0.000501195,0.0508789,21.0255,185.261,0.260565,0.0,0.0
490,122.25,28.0935,29.8998,148.517,104.571,101.315,0.000508375,0.0508441,21.0257,185.261,0.273638,0.0,0.0
492,122.75,28.263,29.5521,152.25,104.598,101.469,0.00051901,0.0508158,21.0258,185.261,0.262749,0.0,0.0
494,123.25,29.0362,29.5129,150.888,104.589,101.404,0.000527624,0.050793,21.026,185.251,0.267498,0.0,0.0
496,123.75,28.1909,29.48,149.56,104.6,101.619,0.00054183,0.0507602,21.0261,185.261,0.250085,0.0,0.0
498,124.25,28.579,29.1912,153.009,104.604,101.431,0.000553337,0.0507208,21.0261,185.261,0.266413,0.0,0.0
500,124.75,28.0908,29.0642,149.639,104.617,101.531,0.000562657,0.0507245,21.0262,185.241,0.259052,0.0,0.0
502,125.25,28.5616,29.4895,149.241,104.616,101.361,0.000546116,0.0507597,21.0262,185.241,0.273495,0.0,0.0
504,125.75,28.3851,29.2575,146.22,104.634,101.585,0.000532717,0.0507882,21.0262,185.251,0.255893,0.0,0.0
506,126.25,28.3614,29.506,148.758,104.622,101.502,0.000489368,0.0508112,21.0262,185.241,0.261929,0.0,0.0
508,126.75,28.3419,29.6323,150.296,104.64,101.655,0.000454254,0.0508299,21.0262,185.241,0.250394,0.0,0.0
510,127.25,27.8685,29.3288,150.05,104.638,101.582,0.000393345,0.0508451,21.0262,185.241,0.256375,0.0,0.0
512,127.75,27.9507,29.0441,152.171,104.659,101.477,,0.050843,,185.241,0.267123,0.0,0.0
514,128.25,28.2243,29.3856,149.127,104.641,101.749,,0.0508286,,185.241,0.242418,0.0,0.0
516,128.75,27.6925,29.3581,145.542,104.661,101.56,,0.050824,,185.231,0.260192,0.0,0.0
518,129.25,28.028,29.1805,149.561,104.65,101.401,,0.0508267,,185.231,0.272752,0.0,0.0
520,129.75,28.2591,29.6745,149.603,104.667,101.479,,0.0508432,,185.241,0.267566,0.0,0.0
522,130.25,28.1732,29.8089,147.81,104.672,101.377,,0.0508693,,185.241,0.276734,0.0,0.0
524,130.75,28.2303,28.8139,153.056,104.691,101.22,,,,185.241,0.291724,0.0,0.0
526,131.25,27.9751,29.4945,148.203,104.678,101.724,,,,185.241,0.247643,0.0,0.0
528,131.75,28.7107,29.2792,147.136,104.69,101.713,,,,185.241,0.249624,0.0,0.0
530,132.25,28.6347,29.4257,151.049,104.685,101.703,,,,185.231,0.24999,0.0,0.0
532,132.75,28.8934,29.7234,151.879,104.707,101.523,,,,185.231,0.267157,0.0,0.0
534,133.25,28.1981,29.1203,149.896,104.708,101.446,,,,185.231,0.273751,0.0,0.0
536,133.75,28.5266,29.7673,150.1,104.718,101.511,,,,185.241,0.268998,0.0,0.0
538,134.25,27.878,28.9114,149.792,104.711,101.598,,,,185.241,0.261117,0.0,0.0
540,134.75,27.9647,28.4792,149.158,104.725,101.529,,,,185.231,0.268176,0.0,0.0
542,135.25,28.6865,29.4265,152.303,104.736,101.722,,,,185.231,0.252603,0.0,0.0
544,135.75,28.1809,29.3843,148.247,104.742,101.421,,,,185.231,0.278734,0.0,0.0
546,136.25,28.3644,29.2489,151.501,104.728,101.87,,,,185.231,0.239316,0.0,0.0
548,136.75,28.7427,29.6404,144.705,104.763,102.079,,,,185.231,0.224566,0.0,0.0
550,137.25,28.5471,29.0269,153.381,104.742,101.613,,,,185.231,0.262372,0.0,0.0
552,137.75,28.5004,29.7065,149.424,104.769,101.72,,,,185.241,0.255535,0.0,0.0
554,138.25,27.6066,28.9621,151.708,104.755,101.519,,,,185.241,0.271458,0.0,0.0
555,138.5,28.1586,29.043,146.334,104.775,101.666,,,,185.241,0.260534,0.0,0.0