File: 01_Data/Cotton_Sheet/Cone/Cotton_Sheet_Cone_HF75Scan_220429_R3.csv
Names,Time,Stack TC,Smoke TC,Exh Press,Smoke Comp,Smoke Meas,CO Meter,CO2 Meter,O2 Meter,Sample Mass,Ext Coeff,Start Test,Flame Verif
Chan Gain,,500,500,1,1,1,1,1,1,1,1,1.0,1.0
Offset,,0,0,0.138979,0,0,0,0,0,0,0,0.0,0.0
Gain,,1,1,25.011,14.099,15.1965,1,1,1,1.00087,0.986176,1.0,1.0
Units,sec,C,C,Pa,%,%,%,%,%,g,/m,,
Baseline,,39.6371,41.1356,144.86,104.591,102.064,0.000629212,0.0498065,21.0219,-836.667,0.211615,,
2,0.25,37.7045,39.3786,144.109,104.773,102.014,0.00115063,0.0568837,21.0139,187.223,0.230811,0.0,0.0
4,0.75,36.7133,38.0368,145.07,104.793,101.877,0.00131375,0.0666748,20.9978,187.643,0.244164,0.0,0.0
6,1.25,37.0368,38.5975,157.135,104.774,100.23,0.00151307,0.0746056,20.9847,187.133,0.383545,0.0,0.0
8,1.75,37.0974,38.4356,127.221,104.793,105.755,0.001735,0.121942,20.9275,187.223,-0.0790483,0.0,1.0
10,2.25,36.9384,38.499,118.595,104.755,106.723,0.00196676,0.160284,20.8813,186.992,-0.161021,0.0,1.0
12,2.75,37.1702,38.9633,113.11,104.78,107.17,0.00220129,0.216032,20.831,186.882,-0.195087,0.0,1.0
14,3.25,37.4,39.3822,106.597,104.775,107.051,0.00245306,0.28341,20.7904,186.562,-0.185887,0.0,1.0
16,3.75,38.7069,39.3081,99.7661,104.773,106.451,0.00271263,0.342051,20.7574,186.632,-0.13751,0.0,1.0
18,4.25,39.593,40.6019,115.334,104.773,104.209,0.00300171,0.393208,20.7307,186.632,0.0467628,0.0,1.0
20,4.75,40.2908,41.3289,129.317,104.784,104.698,0.00330682,0.424357,20.7091,186.522,0.00709614,0.0,1.0
22,5.25,41.8902,42.2771,134.269,104.781,104.386,0.00355395,0.440326,20.6916,186.562,0.0326348,0.0,1.0
24,5.75,43.6191,43.6369,134.417,104.793,103.701,0.00387493,0.453262,20.6774,186.552,0.0906203,0.0,1.0
26,6.25,43.2794,43.6718,138.607,104.78,104.164,0.00424363,0.438745,20.6901,186.552,0.0510306,0.0,1.0
28,6.75,43.7756,44.2166,141.319,104.793,102.93,0.00461342,0.426987,20.7003,186.592,0.155193,0.0,0.0
30,7.25,43.9841,44.3642,140.902,104.808,102.418,0.00497696,0.398646,20.7177,186.532,0.199577,0.0,0.0
32,7.75,43.4575,44.7894,143.301,104.782,102.601,0.00532511,0.375689,20.7398,186.592,0.181913,0.0,0.0
34,8.25,43.9796,44.8717,142.052,104.78,102.414,0.00565543,0.348492,20.7691,186.512,0.19758,0.0,0.0
36,8.75,43.2746,45.0978,142.079,104.784,102.163,0.00595053,0.318721,20.7929,186.522,0.219117,0.0,0.0
38,9.25,43.4791,45.3747,141.849,104.784,102.64,0.00621436,0.294606,20.8201,186.482,0.178847,0.0,0.0
40,9.75,43.5999,45.439,141.428,104.783,102.853,0.00641887,0.266888,20.8421,186.482,0.160814,0.0,0.0
42,10.25,43.7605,44.9303,144.158,104.782,102.539,0.00657626,0.244438,20.8643,186.502,0.187229,0.0,0.0
44,10.75,43.4366,45.1067,141.402,104.785,102.78,0.00665787,0.221806,20.8823,186.492,0.167156,0.0,0.0
46,11.25,43.6131,45.0917,146.13,104.787,102.819,0.00668268,0.203474,20.9003,186.452,0.164016,0.0,0.0
48,11.75,43.2637,45.3243,136.406,104.78,102.543,0.00670278,0.185288,20.915,186.452,0.18666,0.0,0.0
50,12.25,43.1524,45.6448,140.457,104.792,102.83,0.00671907,0.170557,20.9269,186.482,0.163435,0.0,0.0
52,12.75,43.264,45.3899,143.56,104.786,102.361,0.00648679,0.156075,20.9379,186.462,0.202621,0.0,0.0
54,13.25,43.0971,45.1357,141.778,104.789,102.28,0.00629864,0.144345,20.948,186.482,0.209653,0.0,0.0
56,13.75,42.4849,44.2611,144.596,104.792,102.23,0.00593307,0.132694,20.9576,186.462,0.214139,0.0,0.0
58,14.25,43.1808,44.4413,142.422,104.794,102.13,0.00563696,0.123257,20.9666,186.472,0.222723,0.0,0.0
60,14.75,42.5661,44.7295,142.502,104.787,102.132,0.00530806,0.114551,20.9749,186.482,0.221962,0.0,0.0
62,15.25,42.4232,44.6343,141.112,104.796,102.47,0.00496152,0.106546,20.9824,186.502,0.194155,0.0,0.0
64,15.75,42.3947,44.0671,143.929,104.8,102.39,0.00460565,0.100061,20.9885,186.492,0.201253,0.0,0.0
66,16.25,42.8594,44.4793,146.64,104.802,102.161,0.00424973,0.094075,20.9947,186.482,0.220809,0.0,0.0
68,16.75,42.2224,44.2528,147.71,104.807,102.047,0.00392044,0.0885664,20.9998,186.492,0.230859,0.0,0.0
70,17.25,42.3015,44.4729,143.645,104.801,102.515,0.00361682,0.0836957,21.0039,186.512,0.190713,0.0,0.0
72,17.75,42.9819,44.5068,147.035,104.795,102.294,0.00337089,0.0793824,21.0081,186.482,0.209012,0.0,0.0
74,18.25,42.4294,44.0391,145.484,104.808,102.308,0.00317168,0.0755807,21.0115,186.492,0.208827,0.0,0.0
76,18.75,41.9503,43.9511,144.707,104.801,102.235,0.00293502,0.0722242,21.0121,186.502,0.214457,0.0,0.0
78,19.25,42.7006,43.914,143.976,104.819,102.395,0.00274332,0.069305,21.0127,186.502,0.202457,0.0,0.0
80,19.75,42.0258,44.0165,142.205,104.806,102.104,0.00255869,0.0667602,21.0131,186.502,0.225956,0.0,0.0
82,20.25,41.7196,44.3877,144.399,104.816,102.199,0.00238273,0.0646989,21.0139,186.492,0.218796,0.0,0.0
84,20.75,42.3267,43.8389,148.874,104.818,102.35,0.00221662,0.0630293,21.0146,186.482,0.206112,0.0,0.0
86,21.25,42.4555,43.6292,149.631,104.841,102.362,0.00206085,0.0613373,21.0156,186.492,0.206939,0.0,0.0
88,21.75,41.9453,43.819,144.136,104.829,102.517,0.00193468,0.0599667,21.0163,186.492,0.192899,0.0,0.0
90,22.25,41.4289,43.5226,145.791,104.838,102.479,0.00179136,0.0586122,21.0172,186.482,0.196859,0.0,0.0
92,22.75,41.3389,43.7386,143.385,104.821,102.332,0.00167527,0.0575151,21.0181,186.472,0.207854,0.0,0.0
94,23.25,41.5045,43.8213,144.838,104.837,102.349,0.0015607,0.0566264,21.0191,186.482,0.207792,0.0,0.0
96,23.75,41.5406,43.5632,142.327,104.827,102.114,0.0014679,0.0556758,21.0201,186.482,0.226831,0.0,0.0
98,24.25,41.5725,43.5416,142.139,104.849,102.151,0.00142643,0.0548559,21.0205,186.482,0.225539,0.0,0.0
100,24.75,42.0202,43.1868,146.337,104.834,102.287,0.00135552,0.0541468,21.0212,186.472,0.212762,0.0,0.0
102,25.25,41.6865,43.6778,142.257,104.849,102.34,0.00130062,0.0535724,21.0218,186.482,0.209534,0.0,0.0
104,25.75,41.4811,43.8098,141.714,104.845,102.302,0.00124046,0.0529851,21.0231,186.482,0.212391,0.0,0.0
106,26.25,41.2602,42.8446,143.553,104.849,102.295,0.00122428,0.0525094,21.0234,186.472,0.213373,0.0,0.0
108,26.75,41.129,43.2247,146.769,104.85,102.286,0.0011947,0.0520427,21.024,186.462,0.214186,0.0,0.0
110,27.25,41.6016,43.4488,146.389,104.861,102.131,0.00116902,0.0518438,21.0245,186.462,0.228186,0.0,0.0
112,27.75,41.6417,42.9408,146.577,104.856,102.214,0.00113932,0.0514821,21.0249,186.462,0.220842,0.0,0.0
114,28.25,41.5867,43.5306,142.093,104.868,102.123,0.00110726,0.0511699,21.0252,186.472,0.229458,0.0,0.0
116,28.75,41.3797,43.5303,143.928,104.865,102.515,0.00106795,0.0508093,21.0255,186.472,0.196042,0.0,0.0
118,29.25,41.5159,43.4466,141.654,104.875,102.466,0.00102411,0.0506694,21.0257,186.482,0.201043,0.0,0.0
120,29.75,41.1752,43.4571,144.999,104.867,102.533,0.000976531,0.0504303,21.0259,186.472,0.19469,0.0,0.0
122,30.25,41.0125,42.7385,145.005,104.887,102.452,0.00092714,0.0501938,21.026,186.462,0.203207,0.0,0.0
124,30.75,41.0891,42.8046,144.133,104.877,102.293,0.000878886,0.0499637,21.0261,186.452,0.215801,0.0,0.0
126,31.25,41.24,43.2187,140.637,104.894,102.32,0.000832378,0.0497631,21.0262,186.442,0.214946,0.0,0.0
128,31.75,41.1501,43.4616,143.413,104.881,102.071,0.000792804,0.0495878,21.0263,186.452,0.234924,0.0,0.0
130,32.25,41.4199,43.076,146.101,104.909,102.446,0.000759036,0.0494386,21.0263,186.442,0.205491,0.0,0.0
132,32.75,41.513,43.0531,143.204,104.891,102.18,0.000731684,0.0493114,21.0264,186.462,0.226583,0.0,0.0
134,33.25,40.9365,42.8206,143.352,104.908,102.45,0.000709528,0.0492226,21.0264,186.442,0.205071,0.0,0.0
136,33.75,40.6563,42.6226,145.18,104.919,102.198,0.000718103,0.0491635,21.0265,186.442,0.227322,0.0,0.0
138,34.25,41.1315,42.8712,144.517,104.924,102.478,0.000725049,0.0490942,21.0265,186.422,0.20407,0.0,0.0
140,34.75,40.967,42.7619,146.721,104.916,102.244,0.000742736,0.0490188,21.0265,186.432,0.223189,0.0,0.0
142,35.25,40.7609,43.3421,140.204,104.916,102.346,0.000757063,0.0489578,21.0265,186.442,0.214596,0.0,0.0
144,35.75,41.3745,43.2624,142.983,104.918,102.4,0.000769873,0.0489155,21.0265,186.452,0.21015,0.0,0.0
146,36.25,40.8826,42.9526,146.307,104.938,102.579,0.00078025,0.0488876,21.0266,186.452,0.196671,0.0,0.0
148,36.75,40.8401,42.7809,146.795,104.931,102.501,0.000781037,0.0488651,21.0266,186.452,0.202756,0.0,0.0
150,37.25,40.9467,43.1651,147.038,104.95,102.457,0.000774819,0.0488604,21.0266,186.432,0.207957,0.0,0.0
152,37.75,41.3962,42.8785,146.519,104.934,102.249,0.000758362,0.0488565,21.0266,186.412,0.224173,0.0,0.0
154,38.25,40.5484,43.1242,145.604,104.942,102.225,0.000734754,0.0487992,21.0266,186.412,0.226926,0.0,0.0
156,38.75,40.773,43.1581,147.189,104.934,102.109,0.000709289,0.0487528,21.0266,186.412,0.236069,0.0,0.0
158,39.25,41.2204,42.8293,146.997,104.947,102.22,0.000682955,0.048701,21.0266,186.422,0.227779,0.0,0.0
160,39.75,40.8417,42.3663,142.152,104.949,102.308,0.000661624,0.0486461,21.0266,186.422,0.220472,0.0,0.0
162,40.25,41.0745,42.5647,145.206,104.943,102.323,0.000649165,0.0486017,21.0266,186.402,0.218642,0.0,0.0
164,40.75,41.2627,42.5802,143.349,104.946,102.549,0.000639073,0.0485657,21.0266,186.382,0.199856,0.0,0.0
166,41.25,41.0642,42.4815,145.322,104.958,102.688,0.000630899,0.0485579,21.0266,186.392,0.189153,0.0,0.0
168,41.75,40.729,42.82,144.23,104.944,102.734,0.000628718,0.0485709,21.0266,186.412,0.184116,0.0,0.0
170,42.25,40.4862,42.5093,141.971,104.98,102.329,0.000630947,0.0485814,21.0261,186.422,0.221256,0.0,0.0
172,42.75,40.1919,42.376,145.978,104.949,102.426,0.000632752,0.0485899,21.0258,186.412,0.210513,0.0,0.0
174,43.25,40.3432,42.7008,141.51,104.959,102.451,0.000619755,0.0485968,21.0255,186.412,0.209211,0.0,0.0
176,43.75,40.6856,42.4184,145.125,104.967,102.469,0.000604156,0.0486024,21.0253,186.412,0.208326,0.0,0.0
178,44.25,40.5337,42.625,145.383,104.973,102.578,0.000586956,0.0486141,21.0246,186.402,0.199587,0.0,0.0
180,44.75,41.1878,42.5663,142.358,104.963,102.382,0.000577461,0.0486299,21.0241,186.422,0.21537,0.0,0.0
182,45.25,40.8556,42.2389,145.453,105.001,102.34,0.000573765,0.0486499,21.0237,186.432,0.222091,0.0,0.0
184,45.75,40.1789,42.2693,143.582,104.978,103.357,0.000577112,0.0486725,21.0234,186.422,0.13463,0.0,0.0
186,46.25,40.2639,42.2679,146.414,104.981,102.638,0.000585531,0.0486908,21.0231,186.422,0.195253,0.0,0.0
188,46.75,40.1686,42.0969,147.211,104.981,102.324,0.00059235,0.0487057,21.0229,186.442,0.221759,0.0,0.0
190,47.25,40.4811,42.2008,146.781,104.987,102.219,0.000599142,0.0487605,21.0227,186.422,0.231195,0.0,0.0
192,47.75,40.1092,42.3841,146.621,104.983,102.472,0.000605785,0.0488434,21.0221,186.422,0.209437,0.0,0.0
194,48.25,40.7087,42.0803,142.2,104.988,102.467,0.000609897,0.0489248,21.0217,186.382,0.210254,0.0,0.0
196,48.75,40.141,42.0694,143.881,104.99,102.531,0.000612087,0.0490036,21.0213,186.382,0.205031,0.0,0.0
198,49.25,40.1423,42.2758,146.907,104.99,102.776,0.00061386,0.0490675,21.021,186.392,0.1844,0.0,0.0
200,49.75,39.8952,42.0426,143.916,104.988,102.383,0.000615296,0.0491263,21.0207,186.392,0.217383,0.0,0.0
202,50.25,40.6086,42.2613,145.794,104.995,102.451,0.00061646,0.0491804,21.0205,186.392,0.212118,0.0,0.0
204,50.75,41.0379,41.572,143.007,104.984,102.793,0.000624633,0.0492242,21.0204,186.392,0.182455,0.0,0.0
206,51.25,40.1191,41.9539,143.553,104.99,102.528,0.000631254,0.0492325,21.0202,186.372,0.20523,0.0,0.0
208,51.75,40.0485,41.9117,144.093,104.996,102.607,0.000652289,0.0492393,21.0201,186.372,0.199077,0.0,0.0
210,52.25,39.8967,41.7884,145.571,104.996,102.964,0.000669327,0.0492448,21.02,186.362,0.169058,0.0,0.0
212,52.75,39.9445,42.2925,142.053,104.995,102.384,0.000693983,0.0492493,21.0202,186.372,0.217872,0.0,0.0
214,53.25,40.2272,41.6901,145.198,105.006,102.621,0.000713954,0.04928,21.0205,186.362,0.198794,0.0,0.0
216,53.75,40.2924,42.2563,147.171,105.001,102.81,0.00073013,0.0493049,21.0208,186.352,0.182468,0.0,0.0
218,54.25,39.9241,42.0387,143.722,105.012,102.662,0.000741963,0.0493115,21.021,186.372,0.195776,0.0,0.0
220,54.75,40.4515,41.6836,146.747,105.012,102.66,0.000750405,0.0493168,21.0212,186.402,0.196007,0.0,0.0
222,55.25,40.3987,41.8729,143.789,105.012,102.644,0.000754704,0.0493482,21.0214,186.382,0.197261,0.0,0.0
224,55.75,39.7853,41.394,144.944,105.015,102.539,0.000755902,0.0493737,21.0215,186.372,0.206387,0.0,0.0
226,56.25,40.055,41.8082,147.188,105.023,102.327,0.000756872,0.0493943,21.0216,186.362,0.224959,0.0,0.0
228,56.75,39.7918,42.0302,144.68,105.052,102.412,0.000757658,0.0493568,21.0216,186.362,0.220156,0.0,0.0
230,57.25,39.6615,41.5531,147.736,105.046,102.399,0.000758294,0.0493264,21.0217,186.372,0.220722,0.0,0.0
232,57.75,40.1176,41.68,140.774,105.031,102.62,0.000765957,0.0492804,21.0218,186.362,0.200853,0.0,0.0
234,58.25,40.0711,42.0875,140.025,105.014,102.486,0.000772165,0.0492239,21.0219,186.352,0.210812,0.0,0.0
236,58.75,40.2491,42.0243,145.176,105.03,102.295,0.000776558,0.0491567,21.0221,186.362,0.228267,0.0,0.0
238,59.25,39.7576,42.1386,144.007,105.023,102.497,0.000779545,0.049083,21.0222,186.372,0.210546,0.0,0.0
240,59.75,40.2272,42.0707,144.438,105.029,102.278,0.000775934,0.0490233,21.0223,186.392,0.229607,0.0,0.0
242,60.25,40.1159,41.5924,143.498,105.031,102.487,0.000773009,0.0489479,21.0224,186.382,0.21208,0.0,0.0
244,60.75,39.757,41.7427,147.452,105.033,102.399,0.00077064,0.0488868,21.0225,186.372,0.219773,0.0,0.0
246,61.25,39.5139,41.7849,142.031,105.024,102.584,0.000755457,0.048838,21.0226,186.352,0.203375,0.0,0.0
248,61.75,39.958,41.5369,142.944,105.032,102.51,0.00074316,0.0487985,21.0226,186.352,0.210229,0.0,0.0
250,62.25,39.9407,41.6822,146.523,105.03,102.468,0.000727489,0.0487801,21.0227,186.362,0.213654,0.0,0.0
252,62.75,40.4494,41.5998,144.332,105.038,102.439,0.000709658,0.0487651,21.0227,186.362,0.216751,0.0,0.0
254,63.25,39.8638,41.2586,148.729,105.031,102.924,0.000695214,0.0487387,21.0227,186.332,0.175359,0.0,0.0
256,63.75,39.9401,41.5535,143.017,105.042,102.683,0.000683515,0.0487045,21.0227,186.342,0.196498,0.0,0.0
258,64.25,39.9115,42.2181,139.391,105.037,102.405,0.000680064,0.0486768,21.023,186.342,0.219508,0.0,0.0
260,64.75,39.6385,42.0215,141.761,105.04,102.491,0.000677269,0.0486473,21.0235,186.342,0.212547,0.0,0.0
262,65.25,39.5169,41.3626,140.92,105.025,102.533,0.000675005,0.0486169,21.0239,186.342,0.207711,0.0,0.0
264,65.75,39.5723,40.7976,142.821,105.051,103.026,0.000673172,0.0485923,21.0242,186.312,0.168304,0.0,0.0
266,66.25,39.9256,41.8232,143.725,105.024,102.737,0.000669276,0.0485296,21.0245,186.322,0.190476,0.0,0.0
268,66.75,39.6363,41.5032,143.014,105.028,102.716,0.000666121,0.0484403,21.0247,186.322,0.192555,0.0,0.0
270,67.25,40.0747,41.4322,142.886,105.024,102.606,0.000658491,0.0483679,21.0249,186.322,0.201495,0.0,0.0
272,67.75,39.7953,42.3608,145.94,105.035,102.287,0.000647743,0.04835,21.025,186.332,0.229327,0.0,0.0
274,68.25,39.5857,41.6297,145.633,105.033,102.459,0.000639038,0.0483354,21.0251,186.332,0.214682,0.0,0.0
276,68.75,39.7366,41.1986,144.871,105.047,102.56,0.000628228,0.0483379,21.0252,186.322,0.207244,0.0,0.0
278,69.25,39.9273,41.9885,143.764,105.032,102.27,0.000616091,0.0483528,21.0251,186.302,0.2306,0.0,0.0
280,69.75,39.7971,41.8987,143.737,105.057,102.698,0.000614117,0.048372,21.025,186.312,0.196488,0.0,0.0
282,70.25,39.6355,41.5544,142.023,105.038,102.737,0.000615482,0.0483939,21.025,186.322,0.191649,0.0,0.0
284,70.75,39.6039,41.8412,144.868,105.054,102.525,0.000633044,0.0484117,21.0249,186.332,0.210859,0.0,0.0
286,71.25,39.703,41.6322,145.962,105.055,102.512,0.000660974,0.0484253,21.0245,186.322,0.211951,0.0,0.0
288,71.75,38.9337,41.4044,140.972,105.062,102.636,0.000699474,0.0484364,21.0241,186.352,0.202072,0.0,0.0
290,72.25,39.8022,41.4234,148.191,105.056,102.616,0.000744947,0.0484668,21.0242,186.362,0.203261,0.0,0.0
292,72.75,39.8536,41.3289,141.292,105.064,102.531,0.000795763,0.0485293,21.0243,186.362,0.211127,0.0,0.0
294,73.25,39.7591,41.7403,143.377,105.061,102.343,0.000824049,0.0485604,21.0243,186.352,0.22674,0.0,0.0
296,73.75,39.6594,41.7122,143.523,105.069,102.509,0.000872419,0.0486136,21.0244,186.372,0.213391,0.0,0.0
298,74.25,39.7617,41.8679,144.225,105.054,102.7,0.00094381,0.0486709,21.0245,186.362,0.196048,0.0,0.0
300,74.75,39.4919,41.353,146.939,105.069,102.252,0.000980299,0.0487302,21.0245,186.372,0.235028,0.0,0.0
302,75.25,39.9559,41.8178,144.877,105.071,102.604,0.000995854,0.0487925,21.0246,186.362,0.205513,0.0,0.0
304,75.75,39.7097,42.152,145.109,105.085,102.538,0.00101762,0.0488558,21.0246,186.362,0.212314,0.0,0.0
306,76.25,39.4092,41.1768,147.166,105.063,102.577,0.00103525,0.0488827,21.0246,186.362,0.207187,0.0,0.0
308,76.75,39.5833,41.3685,146.376,105.074,102.654,0.00103866,0.048956,21.0246,186.322,0.201578,0.0,0.0
310,77.25,39.5111,41.585,141.45,105.07,102.472,0.00104143,0.0490406,21.0247,186.332,0.216558,0.0,0.0
312,77.75,39.4523,41.7018,142.883,105.082,102.399,0.00103413,0.0490296,21.0247,186.332,0.223738,0.0,0.0
314,78.25,39.5427,41.5644,142.933,105.077,102.576,0.00101964,0.049025,21.0242,186.312,0.208359,0.0,0.0
316,78.75,39.5875,41.1673,149.296,105.099,102.491,0.000999011,0.049017,21.0239,186.312,0.2174,0.0,0.0
318,79.25,39.6117,41.3759,145.079,105.082,102.535,0.000974297,0.0489563,21.0236,186.322,0.212265,0.0,0.0
320,79.75,39.5801,41.6687,144.316,105.097,102.828,0.000948564,0.0489071,21.0234,186.322,0.188848,0.0,0.0
322,80.25,39.6513,41.6564,145.784,105.076,102.465,0.000922577,0.0488816,21.0232,186.312,0.217715,0.0,0.0
324,80.75,39.5688,41.3777,145.252,105.084,102.704,0.000896449,0.0488737,21.0231,186.332,0.198212,0.0,0.0
326,81.25,38.8658,41.2755,144.464,105.085,102.519,0.000870715,0.0488745,21.0229,186.302,0.213919,0.0,0.0
328,81.75,39.5476,41.1721,145.633,105.104,102.497,0.000849871,0.0488815,21.0228,186.302,0.217317,0.0,0.0
330,82.25,39.632,41.2162,146.191,105.089,102.911,0.000819723,0.0489086,21.0228,186.302,0.181194,0.0,0.0
332,82.75,39.3503,41.649,141.486,105.096,102.622,0.000795304,0.0489499,21.0227,186.312,0.206081,0.0,0.0
334,83.25,39.8148,41.4315,142.145,105.089,102.559,0.000767087,0.0489904,21.0226,186.292,0.210837,0.0,0.0
336,83.75,38.8695,40.9161,140.723,105.095,102.521,0.000744231,0.0490296,21.0226,186.282,0.214499,0.0,0.0
338,84.25,39.6776,41.4269,142.166,105.08,102.568,0.000716077,0.0490614,21.0226,186.292,0.209272,0.0,0.0
340,84.75,39.3557,41.6648,144.747,105.088,102.339,0.000693272,0.04906,21.0225,186.292,0.229324,0.0,0.0
342,85.25,39.4305,41.4598,143.29,105.093,102.587,0.000669093,0.0490589,21.0225,186.302,0.208767,0.0,0.0
344,85.75,39.6629,41.2396,145.591,105.106,102.501,0.000644372,0.0490652,21.0225,186.272,0.217071,0.0,0.0
346,86.25,39.3282,41.1345,142.584,105.096,102.573,0.000624349,0.0490766,21.0225,186.262,0.210226,0.0,0.0
348,86.75,38.9453,41.1883,145.437,105.102,102.58,0.000608764,0.0491002,21.0225,186.282,0.210096,0.0,0.0
350,87.25,39.0631,41.1273,145.3,105.094,102.684,0.00059671,0.0491321,21.0229,186.282,0.200667,0.0,0.0
352,87.75,39.1203,41.0951,143.143,105.099,102.513,0.000586947,0.0491794,21.0232,186.272,0.215522,0.0,0.0
354,88.25,39.3649,41.0328,144.601,105.1,102.697,0.000591087,0.0492369,21.0235,186.272,0.200105,0.0,0.0
356,88.75,39.7762,41.5462,144.512,105.103,102.409,0.00059444,0.0492835,21.0237,186.282,0.224685,0.0,0.0
358,89.25,38.7006,41.6627,143.195,105.103,102.636,0.000597156,0.0493213,21.0239,186.292,0.205516,0.0,0.0
360,89.75,39.6491,41.0116,143.048,105.107,102.559,0.000611408,0.0493248,21.024,186.282,0.212246,0.0,0.0
362,90.25,39.2167,41.2002,142.436,105.101,102.5,0.000622952,0.0493347,21.0241,186.282,0.216759,0.0,0.0
364,90.75,39.4503,41.7206,145.629,105.109,102.787,0.000628686,0.0493492,21.0242,186.262,0.193238,0.0,0.0
366,91.25,39.8506,41.4211,148.984,105.119,102.447,0.000630794,0.0493609,21.0243,186.292,0.222749,0.0,0.0
368,91.75,39.0025,41.2617,142.116,105.11,102.871,0.000630218,0.0493918,21.0243,186.302,0.186321,0.0,0.0
370,92.25,39.1957,41.3699,141.571,105.124,102.53,0.000634827,0.0494361,21.0244,186.282,0.216131,0.0,0.0
372,92.75,39.4688,41.2422,145.055,105.11,102.672,0.000643127,0.049472,21.0244,186.292,0.203068,0.0,0.0
374,93.25,39.2626,41.1386,145.596,105.108,102.845,0.000661273,0.0495011,21.0245,186.302,0.188329,0.0,0.0
376,93.75,39.6379,41.0373,143.4,105.109,102.636,0.00067442,0.0495246,21.0245,186.292,0.206011,0.0,0.0
378,94.25,39.7713,41.2007,146.283,105.119,102.592,0.000696901,0.049503,21.0245,186.292,0.210461,0.0,0.0
380,94.75,39.4672,41.3448,145.694,105.121,102.673,0.000732001,0.0494855,21.0245,186.292,0.203841,0.0,0.0
382,95.25,39.3542,41.3183,147.124,105.126,102.954,0.000760432,0.0494849,21.0245,186.292,0.180654,0.0,0.0
384,95.75,39.7776,41.1251,142.858,105.122,102.172,0.000783461,0.0494844,21.0245,186.302,0.246246,0.0,0.0
386,96.25,39.8145,41.3063,145.477,105.135,102.569,0.000791956,0.0495247,21.0245,186.292,0.2138,0.0,0.0
388,96.75,38.9021,41.1274,141.885,105.134,102.899,0.000789693,0.0495418,21.0246,186.292,0.185886,0.0,0.0
390,97.25,38.9714,41.5477,144.748,105.143,102.559,0.000774535,0.0495576,21.0246,186.292,0.215334,0.0,0.0
392,97.75,39.1111,41.2155,143.947,105.125,102.565,0.000740751,0.0495704,21.0246,186.292,0.213339,0.0,0.0
394,98.25,39.6157,40.5585,145.258,105.137,102.55,0.000704825,0.0495808,21.0246,186.272,0.215511,0.0,0.0
396,98.75,39.7269,40.9792,141.635,105.129,102.64,0.000675724,0.0496299,21.0246,186.272,0.207323,0.0,0.0
398,99.25,39.5893,41.4102,142.638,105.148,103.321,0.000626865,0.0496696,21.0246,186.272,0.151613,0.0,0.0
400,99.75,39.5303,41.0403,143.036,105.13,102.446,0.000587288,0.0496476,21.0246,186.262,0.223748,0.0,0.0
402,100.25,38.9771,41.0237,145.94,105.156,102.244,0.000545603,0.0496297,21.0246,186.252,0.242958,0.0,0.0
404,100.75,39.5226,41.0163,143.967,105.149,102.772,0.000511837,0.0496153,21.0246,186.272,0.19778,0.0,0.0
406,101.25,39.34,40.9813,144.424,105.162,102.463,0.000489555,0.0496036,21.0246,186.262,0.224993,0.0,0.0
408,101.75,39.8296,41.4791,146.387,105.164,102.376,0.000476068,0.0495869,21.0246,186.252,0.232385,0.0,0.0
410,102.25,39.2374,41.1615,142.5,105.172,102.854,0.000465143,0.049567,21.0246,186.252,0.192824,0.0,0.0
412,102.75,39.6856,41.7325,143.799,105.159,102.732,0.000485196,0.0495081,21.0246,186.262,0.20203,0.0,0.0
414,103.25,40.0384,40.7054,142.194,105.176,102.593,0.00050144,0.0494219,21.0246,186.262,0.215094,0.0,0.0
416,103.75,39.1994,41.2069,143.725,105.178,102.665,0.000527851,0.0493378,21.0246,186.252,0.209213,0.0,0.0
418,104.25,39.4946,40.9838,142.574,105.173,102.962,0.000549245,0.0492568,21.0246,186.262,0.183772,0.0,0.0
420,104.75,39.3624,41.1301,144.92,105.166,102.558,0.000564163,0.0491912,21.0246,186.262,0.217214,0.0,0.0
422,105.25,39.9064,41.6168,142.368,105.187,103.251,0.000576247,0.0490974,21.0246,186.262,0.160667,0.0,0.0
424,105.75,39.2558,41.4329,144.968,105.169,102.742,0.00057589,0.0490214,21.0246,186.262,0.201985,0.0,0.0
426,106.25,40.0872,41.1263,146.298,105.187,103.006,0.000566468,0.0489314,21.0246,186.272,0.181278,0.0,0.0
428,106.75,39.585,40.9148,140.317,105.176,102.808,0.000552499,0.0488327,21.0246,186.272,0.197008,0.0,0.0
430,107.25,39.3408,41.1977,143.218,105.191,102.656,0.000535479,0.0487457,21.0248,186.262,0.210977,0.0,0.0
432,107.75,39.1506,41.3576,141.893,105.18,102.469,0.00052613,0.0486688,21.0252,186.262,0.225931,0.0,0.0
434,108.25,39.4953,41.1408,143.474,105.194,103.04,0.000522551,0.0485994,21.0255,186.272,0.178966,0.0,0.0
436,108.75,39.7375,41.1237,142.232,105.186,102.737,0.000519651,0.0485367,21.0258,186.282,0.203791,0.0,0.0
438,109.25,39.3729,41.0067,142.242,105.2,102.879,0.000517303,0.048486,21.026,186.272,0.193057,0.0,0.0
440,109.75,39.5255,40.9254,144.306,105.187,102.77,0.0005154,0.0484042,21.0262,186.252,0.201054,0.0,0.0
442,110.25,39.7037,41.1406,145.121,105.215,102.515,0.000572921,0.048338,21.0262,186.252,0.224921,0.0,0.0
444,110.75,39.611,41.2831,145.601,105.194,102.779,0.000619512,0.0483115,21.0262,186.242,0.200949,0.0,0.0
446,111.25,40.0687,41.636,149.723,105.201,102.575,0.000681298,0.04829,21.0263,186.232,0.218708,0.0,0.0
448,111.75,39.1511,41.422,146.146,105.184,102.64,0.000731344,0.0482726,21.0265,186.242,0.211779,0.0,0.0
450,112.25,39.9026,40.9359,146.379,105.206,102.815,0.00078154,0.0482656,21.0266,186.242,0.198899,0.0,0.0
452,112.75,39.4518,40.8041,142.755,105.196,102.754,0.000822199,0.0482664,21.0267,186.242,0.203125,0.0,0.0
454,113.25,39.2086,41.1447,146.305,105.207,102.781,0.000852718,0.048267,21.0268,186.262,0.201855,0.0,0.0
456,113.75,39.9104,41.1506,143.838,105.206,102.931,0.000877439,0.0482465,21.0268,186.292,0.189071,0.0,0.0
458,114.25,39.1412,41.1041,144.76,105.203,102.972,0.000891744,0.048211,21.0269,186.282,0.18547,0.0,0.0
460,114.75,39.1336,40.8495,141.412,105.205,102.625,0.000898185,0.0481893,21.0269,186.272,0.214767,0.0,0.0
462,115.25,39.1528,41.1395,143.056,105.232,102.509,0.00089705,0.0481782,21.027,186.272,0.226774,0.0,0.0
464,115.75,38.5938,41.1709,144.156,105.206,102.655,0.000890414,0.0481549,21.027,186.272,0.212372,0.0,0.0
466,116.25,39.4611,40.7032,144.76,105.214,102.693,0.000885038,0.0481233,21.027,186.262,0.209797,0.0,0.0
468,116.75,39.6423,40.8262,139.215,105.206,102.612,0.000870526,0.0480905,21.027,186.272,0.215968,0.0,0.0
470,117.25,39.2361,40.6437,142.949,105.217,102.966,0.000849629,0.0480575,21.027,186.252,0.187105,0.0,0.0
472,117.75,39.2247,41.0848,143.803,105.214,102.974,0.00082699,0.0480379,21.0271,186.232,0.186198,0.0,0.0
474,118.25,39.1772,41.1609,142.181,105.23,103.054,0.000803513,0.0480285,21.0271,186.262,0.18077,0.0,0.0
476,118.75,39.6229,40.7786,145.692,105.227,102.566,0.000783227,0.0480208,21.0271,186.242,0.221574,0.0,0.0
478,119.25,39.2055,40.665,144.322,105.229,102.976,0.000765653,0.0480553,21.0271,186.232,0.187202,0.0,0.0
480,119.75,39.0899,41.1967,144.918,105.218,102.633,0.000755226,0.0480832,21.0271,186.192,0.215201,0.0,0.0
482,120.25,39.4585,40.7631,148.993,105.227,102.413,0.000750206,0.0480773,21.0271,186.202,0.234491,0.0,0.0
484,120.75,39.5947,41.0525,141.338,105.223,102.783,0.000749314,0.0480468,21.0271,186.202,0.203008,0.0,0.0
486,121.25,39.5768,40.5375,144.248,105.245,102.971,0.000751447,0.0480221,21.0271,186.212,0.188975,0.0,0.0
488,121.75,39.3704,41.1291,142.284,105.238,103.366,,0.0480563,,186.192,0.155247,0.0,0.0
490,122.25,39.4289,41.1072,143.68,105.245,102.742,,0.0480983,,186.202,0.208282,0.0,0.0
492,122.75,39.2655,41.5154,140.39,105.236,102.866,,0.0481451,,186.202,0.19712,0.0,0.0
494,123.25,39.3184,41.0306,144.291,105.247,103.07,,0.0481759,,186.182,0.180787,0.0,0.0
496,123.75,39.0878,40.8911,145.203,105.25,102.841,,0.0481945,,186.162,0.200319,0.0,0.0
498,124.25,39.6139,41.1535,145.914,105.248,103.102,,0.0482023,,186.182,0.178211,0.0,0.0
500,124.75,39.2064,41.1499,145.076,105.261,102.783,,,,186.202,0.206077,0.0,0.0
502,125.25,39.6457,40.8534,139.646,105.255,102.854,,,,186.182,0.199612,0.0,0.0
504,125.75,39.3844,40.8276,142.457,105.264,102.9,,,,186.172,0.196498,0.0,0.0
506,126.25,39.5603,40.6147,146.364,105.268,102.752,,,,186.172,0.209259,0.0,0.0
508,126.75,39.2357,41.2119,143.762,105.257,102.865,,,,186.182,0.198858,0.0,0.0
510,127.25,39.5609,40.8309,146.807,105.259,103.12,,,,186.192,0.177649,0.0,0.0
512,127.75,39.0556,40.6059,140.947,105.274,102.693,,,,186.182,0.214791,0.0,0.0
514,128.25,39.6715,40.8911,144.87,105.263,102.735,,,,186.182,0.210283,0.0,0.0
516,128.75,39.5504,40.8401,142.633,105.27,102.715,,,,186.172,0.21256,0.0,0.0
518,129.25,39.2241,41.2151,141.524,105.264,102.984,,,,186.172,0.189479,0.0,0.0
520,129.75,38.9604,40.6646,146.808,105.279,102.653,,,,186.182,0.218502,0.0,0.0
522,130.25,39.7147,41.2453,141.494,105.268,102.996,,,,186.182,0.188749,0.0,0.0
524,130.75,39.4785,41.0719,149.724,105.284,102.641,,,,186.152,0.219945,0.0,0.0
526,131.25,38.7349,40.9525,148.643,105.275,102.677,,,,186.152,0.216116,0.0,0.0
528,131.75,39.349,40.7934,145.905,105.288,102.825,,,,186.152,0.204795,0.0,0.0
530,132.25,38.9354,41.4241,144.005,105.283,102.695,,,,186.192,0.215264,0.0,0.0
531,132.5,39.458,41.6585,146.808,105.279,102.87,,,,186.202,0.20027,0.0,0.0