File: 01_Data/Bamboo_Rug_A/STA/N2/10K_min/Bamboo_Rug_A_STA_N2_10KData_220120_R1.csv
##Temp./Â°C,Time/min,Mass loss(subtr.)/mg,DSC(subtr.)/(mW/mg),Sensit./(uV/mW)
49.248,10.00917,-0.00307,0.01057916,1.07447
49.948,10.77,-0.00201564,0.03796828,1.07443
50.648,10.97216,-0.003928163,0.06384737,1.07438
51.348,11.1241,-0.001895441,0.07915274,1.07433
52.048,11.25314,-0.002828539,0.09622874,1.07427
52.748,11.3687,-0.001357526,0.11207,1.07422
53.448,11.47538,-0.00345902,0.12503,1.07417
54.148,11.57516,-0.005138954,0.13572,1.07411
54.848,11.66987,-0.002843224,0.14376,1.07406
55.548,11.76118,-0.003902108,0.15168,1.074
56.248,11.85021,-0.0045403,0.15954,1.07394
56.948,11.9366,-0.003114572,0.16596,1.07388
57.648,12.0213,-0.004014108,0.173,1.07382
58.348,12.10442,-0.003040875,0.17743,1.07376
59.048,12.18643,-0.004105055,0.1827,1.07369
59.748,12.26697,-0.00294929,0.18804,1.07363
60.448,12.34727,-0.004104817,0.19068,1.07356
61.148,12.42676,-0.00415993,0.19416,1.0735
61.848,12.5054,-0.004136019,0.19874,1.07343
62.548,12.5832,-0.004156453,0.20213,1.07336
63.248,12.6607,-0.00416417,0.20597,1.07329
63.948,12.73782,-0.004119404,0.20965,1.07322
64.648,12.81461,-0.005579812,0.21208,1.07315
65.348,12.8909,-0.004104967,0.21305,1.07307
66.048,12.96693,-0.004170433,0.21683,1.073
66.748,13.043,-0.002862738,0.21891,1.07292
67.448,13.11865,-0.00417021,0.21978,1.07285
68.148,13.1938,-0.00389694,0.22201,1.07277
68.848,13.2691,-0.002849885,0.22576,1.07269
69.548,13.34375,-0.00284533,0.2275,1.07261
70.248,13.41792,-0.00371536,0.22885,1.07253
70.948,13.4918,-0.004159122,0.23377,1.07245
71.648,13.5657,-0.002842308,0.23472,1.07236
72.348,13.63984,-0.004157523,0.23666,1.07228
73.048,13.7135,-0.003697748,0.23935,1.07219
73.748,13.787,-0.002697959,0.24173,1.0721
74.448,13.86036,-0.004036419,0.24369,1.07202
75.148,13.93366,-0.002734082,0.24687,1.07193
75.848,14.00704,-0.00406022,0.2467,1.07184
76.548,14.0802,-0.004060033,0.24915,1.07174
77.248,14.15286,-0.005027535,0.25001,1.07165
77.948,14.2254,-0.004501763,0.25176,1.07156
78.648,14.29817,-0.004046645,0.25102,1.07146
79.348,14.37079,-0.005369904,0.25273,1.07137
80.048,14.44319,-0.00539034,0.25516,1.07127
80.748,14.51534,-0.006730393,0.25602,1.07117
81.448,14.58753,-0.0053798,0.25615,1.07107
82.148,14.65939,-0.005681699,0.25776,1.07097
82.848,14.7309,-0.006762729,0.25953,1.07087
83.548,14.8022,-0.005394466,0.25828,1.07077
84.248,14.8734,-0.006686095,0.26122,1.07066
84.948,14.9444,-0.007149013,0.26032,1.07056
85.648,15.0154,-0.00802354,0.261,1.07045
86.348,15.08656,-0.009079251,0.25922,1.07034
87.048,15.1577,-0.008989563,0.25863,1.07023
87.748,15.22835,-0.009000754,0.26053,1.07012
88.448,15.29861,-0.009696281,0.26154,1.07001
89.148,15.369,-0.008996954,0.2604,1.0699
89.848,15.4394,-0.008989901,0.25894,1.06979
90.548,15.50872,-0.00931089,0.25997,1.06967
91.248,15.5785,-0.01025928,0.25828,1.06956
91.948,15.64853,-0.01000951,0.25656,1.06944
92.648,15.7193,-0.009970002,0.25637,1.06932
93.348,15.78921,-0.0099683,0.25281,1.0692
94.048,15.8591,-0.01030956,0.25463,1.06908
94.748,15.92884,-0.01061209,0.25527,1.06896
95.448,15.9987,-0.01067159,0.2536,1.06884
96.148,16.06831,-0.01161569,0.25227,1.06872
96.848,16.13782,-0.01162159,0.25103,1.06859
97.548,16.20694,-0.01120919,0.2533,1.06847
98.248,16.27603,-0.01227603,0.24977,1.06834
98.948,16.3452,-0.01130091,0.25026,1.06821
99.648,16.41435,-0.0113,0.25192,1.06808
100.348,16.4833,-0.01130011,0.24865,1.06796
101.048,16.5521,-0.01256974,0.24662,1.06782
101.748,16.62049,-0.01260888,0.24977,1.06769
102.448,16.68929,-0.01227127,0.24868,1.06756
103.148,16.7581,-0.01195024,0.25033,1.06742
103.848,16.8275,-0.01130611,0.25031,1.06729
104.548,16.89636,-0.01130004,0.24974,1.06715
105.248,16.9648,-0.01165969,0.24891,1.06701
105.948,17.03325,-0.01162999,0.25141,1.06687
106.648,17.10164,-0.01166934,0.25064,1.06673
107.348,17.1704,-0.01129016,0.25123,1.06659
108.048,17.23892,-0.01129,0.25115,1.06645
108.748,17.30751,-0.01129133,0.25104,1.06631
109.448,17.37594,-0.01260881,0.25188,1.06616
110.148,17.4446,-0.01242964,0.25069,1.06602
110.848,17.51294,-0.01369704,0.24872,1.06587
111.548,17.58138,-0.01227406,0.25002,1.06572
112.248,17.64946,-0.01261578,0.24952,1.06557
112.948,17.71796,-0.01127706,0.25282,1.06542
113.648,17.78657,-0.01261014,0.25092,1.06527
114.348,17.85521,-0.01261,0.25074,1.06512
115.048,17.92384,-0.01261633,0.24986,1.06497
115.748,17.99209,-0.01326953,0.25074,1.06481
116.448,18.06063,-0.01326999,0.25035,1.06466
117.148,18.12914,-0.01294097,0.25085,1.0645
117.848,18.1975,-0.01261003,0.25001,1.06434
118.548,18.26574,-0.01222988,0.25128,1.06418
119.248,18.33379,-0.01260853,0.25305,1.06402
119.948,18.40213,-0.0126182,0.2503,1.06386
120.648,18.47041,-0.01392941,0.2524,1.0637
121.348,18.53854,-0.01393,0.25228,1.06354
122.048,18.60691,-0.01393047,0.25348,1.06337
122.748,18.67513,-0.01296269,0.253,1.06321
123.448,18.7436,-0.01258072,0.25525,1.06304
124.148,18.81158,-0.01395311,0.25186,1.06287
124.848,18.8798,-0.01260769,0.25359,1.06271
125.548,18.948,-0.01353935,0.25564,1.06254
126.248,19.0162,-0.01222488,0.25451,1.06236
126.948,19.0842,-0.01392056,0.25485,1.06219
127.648,19.1521,-0.01392105,0.25651,1.06202
128.348,19.2199,-0.01452561,0.25591,1.06185
129.048,19.2878,-0.01393002,0.25763,1.06167
129.748,19.35594,-0.01393,0.25666,1.06149
130.448,19.42417,-0.01393,0.25875,1.06132
131.148,19.49239,-0.01392983,0.26118,1.06114
131.848,19.5604,-0.01528036,0.26057,1.06096
132.548,19.62817,-0.01525001,0.26056,1.06078
133.248,19.696,-0.01485156,0.26208,1.0606
133.948,19.76371,-0.01393004,0.26284,1.06041
134.648,19.83144,-0.01477466,0.26379,1.06023
135.348,19.8992,-0.01392,0.26408,1.06004
136.048,19.96705,-0.01393136,0.26545,1.05986
136.748,20.03471,-0.01656518,0.26279,1.05967
137.448,20.1023,-0.0165326,0.2653,1.05948
138.148,20.16965,-0.01524003,0.26512,1.05929
138.848,20.2372,-0.01524552,0.26578,1.0591
139.548,20.30443,-0.01392965,0.26782,1.05891
140.248,20.372,-0.01510298,0.26828,1.05872
140.948,20.43935,-0.01524,0.26718,1.05852
141.648,20.50685,-0.01524,0.26846,1.05833
142.348,20.57451,-0.01524,0.27068,1.05813
143.048,20.64211,-0.01523181,0.27068,1.05794
143.748,20.70968,-0.01391885,0.27261,1.05774
144.448,20.7772,-0.01605525,0.27145,1.05754
145.148,20.84457,-0.01655999,0.2716,1.05734
145.848,20.9118,-0.01653943,0.27327,1.05714
146.548,20.9791,-0.01524055,0.27304,1.05694
147.248,21.04652,-0.01655947,0.27426,1.05673
147.948,21.11407,-0.0165664,0.27097,1.05653
148.648,21.1817,-0.01524962,0.27435,1.05632
149.348,21.24908,-0.01656128,0.2738,1.05612
150.048,21.31656,-0.01523311,0.27412,1.05591
150.748,21.3839,-0.01591062,0.27681,1.0557
151.448,21.4512,-0.01753864,0.27632,1.05549
152.148,21.51856,-0.01754,0.27711,1.05528
152.848,21.58599,-0.01756757,0.27643,1.05507
153.548,21.65352,-0.01820805,0.27701,1.05485
154.248,21.72092,-0.01821,0.27675,1.05464
154.948,21.78839,-0.01821,0.27825,1.05443
155.648,21.85567,-0.01820863,0.2792,1.05421
156.348,21.9229,-0.01754477,0.28118,1.05399
157.048,21.99009,-0.01651086,0.28085,1.05377
157.748,22.0573,-0.01655999,0.28218,1.05356
158.448,22.1246,-0.01656,0.28388,1.05333
159.148,22.19207,-0.01655013,0.28413,1.05311
159.848,22.2594,-0.01755113,0.28543,1.05289
160.548,22.32667,-0.01884772,0.28472,1.05267
161.248,22.394,-0.01759851,0.28811,1.05244
161.948,22.46105,-0.01829055,0.2896,1.05222
162.648,22.52836,-0.02040006,0.28933,1.05199
163.348,22.59548,-0.0204,0.29118,1.05176
164.048,22.66264,-0.0203987,0.2909,1.05153
164.748,22.72983,-0.01908065,0.29097,1.0513
165.448,22.79681,-0.01908,0.2933,1.05107
166.148,22.86374,-0.01908088,0.29598,1.05084
166.848,22.9308,-0.02039056,0.29625,1.05061
167.548,22.998,-0.02173119,0.29488,1.05037
168.248,23.06508,-0.02172507,0.29653,1.05014
168.948,23.1323,-0.02106599,0.29877,1.0499
169.648,23.19962,-0.01973988,0.29934,1.04967
170.348,23.26677,-0.02020285,0.3007,1.04943
171.048,23.334,-0.02105969,0.30169,1.04919
171.748,23.40136,-0.02241361,0.30188,1.04895
172.448,23.4685,-0.02363749,0.30452,1.04871
173.148,23.53568,-0.02368003,0.30351,1.04846
173.848,23.6026,-0.02368,0.30455,1.04822
174.548,23.67001,-0.02368,0.30569,1.04798
175.248,23.73712,-0.02368,0.30433,1.04773
175.948,23.80416,-0.02368165,0.3058,1.04749
176.648,23.87126,-0.02499664,0.30771,1.04724
177.348,23.93834,-0.02598936,0.30817,1.04699
178.048,24.00555,-0.02599,0.31139,1.04674
178.748,24.07266,-0.02599,0.31123,1.04649
179.448,24.1398,-0.02598951,0.31241,1.04624
180.148,24.20673,-0.027325,0.31452,1.04598
180.848,24.27391,-0.02731,0.31453,1.04573
181.548,24.34083,-0.02731,0.31637,1.04548
182.248,24.408,-0.02731,0.31669,1.04522
182.948,24.47481,-0.02731,0.3195,1.04496
183.648,24.54127,-0.02731002,0.31868,1.04471
184.348,24.60812,-0.0276109,0.32212,1.04445
185.048,24.67519,-0.02904897,0.32293,1.04419
185.748,24.74259,-0.03297146,0.3239,1.04393
186.448,24.8096,-0.03301,0.32434,1.04366
187.148,24.8763,-0.03301,0.32531,1.0434
187.848,24.94293,-0.03300995,0.32515,1.04314
188.548,25.0096,-0.03231279,0.32698,1.04287
189.248,25.0764,-0.03267105,0.32722,1.04261
189.948,25.14321,-0.03433994,0.32833,1.04234
190.648,25.20993,-0.03393205,0.32831,1.04207
191.348,25.27693,-0.03294354,0.33036,1.0418
192.048,25.34381,-0.03504756,0.33105,1.04153
192.748,25.41054,-0.03697312,0.33522,1.04126
193.448,25.47707,-0.03696997,0.33176,1.04099
194.148,25.54365,-0.03737096,0.33387,1.04072
194.848,25.61041,-0.03828002,0.33693,1.04044
195.548,25.67709,-0.0390192,0.3355,1.04017
196.248,25.74335,-0.04091025,0.33706,1.03989
196.948,25.81025,-0.04091278,0.33742,1.03962
197.648,25.87738,-0.04222134,0.33716,1.03934
198.348,25.9452,-0.04351915,0.34078,1.03906
199.048,26.0121,-0.04353989,0.34188,1.03878
199.748,26.0789,-0.0454859,0.34334,1.0385
200.448,26.14574,-0.04616996,0.3425,1.03822
201.148,26.21272,-0.04617133,0.34278,1.03793
201.848,26.2796,-0.0474896,0.34501,1.03765
202.548,26.34634,-0.04763769,0.34717,1.03736
203.248,26.4132,-0.04899793,0.34752,1.03708
203.948,26.48028,-0.05011999,0.3475,1.03679
204.648,26.54692,-0.05089181,0.34838,1.0365
205.348,26.61386,-0.05144153,0.35067,1.03621
206.048,26.6808,-0.05342571,0.3509,1.03592
206.748,26.74809,-0.05472775,0.35195,1.03563
207.448,26.81496,-0.05602869,0.3519,1.03534
208.148,26.8819,-0.05606039,0.35404,1.03505
208.848,26.94864,-0.05736058,0.35433,1.03475
209.548,27.01554,-0.05867866,0.35746,1.03446
210.248,27.08222,-0.05868008,0.3594,1.03416
210.948,27.1491,-0.05965813,0.36115,1.03387
211.648,27.21586,-0.06128165,0.36278,1.03357
212.348,27.2826,-0.06271092,0.36345,1.03327
213.048,27.34924,-0.06405017,0.36334,1.03297
213.748,27.41605,-0.06537419,0.36486,1.03267
214.448,27.48286,-0.06698667,0.36603,1.03237
215.148,27.54985,-0.06733545,0.36573,1.03206
215.848,27.61658,-0.06998181,0.36741,1.03176
216.548,27.6833,-0.07007096,0.3672,1.03146
217.248,27.75,-0.06998312,0.36885,1.03115
217.948,27.8168,-0.07260451,0.3656,1.03084
218.648,27.88366,-0.07402743,0.36255,1.03054
219.348,27.95053,-0.07401625,0.36268,1.03023
220.048,28.0172,-0.07554357,0.36038,1.02992
220.748,28.08401,-0.07797036,0.35976,1.02961
221.448,28.1508,-0.07936312,0.36018,1.0293
222.148,28.21749,-0.08187473,0.36118,1.02898
222.848,28.2842,-0.08457848,0.35868,1.02867
223.548,28.35111,-0.08856021,0.36016,1.02836
224.248,28.41773,-0.09037601,0.35877,1.02804
224.948,28.48452,-0.09038731,0.3597,1.02772
225.648,28.5512,-0.09167819,0.36089,1.02741
226.348,28.61832,-0.09300594,0.36016,1.02709
227.048,28.6852,-0.09427732,0.35941,1.02677
227.748,28.7519,-0.09432702,0.3603,1.02645
228.448,28.81873,-0.09604213,0.36054,1.02613
229.148,28.8856,-0.09849529,0.36029,1.02581
229.848,28.95228,-0.10155,0.3583,1.02548
230.548,29.0189,-0.10308,0.35947,1.02516
231.248,29.08577,-0.10525,0.35847,1.02483
231.948,29.1525,-0.10699,0.35953,1.02451
232.648,29.21932,-0.10957,0.36211,1.02418
233.348,29.2859,-0.11206,0.35973,1.02385
234.048,29.35241,-0.11344,0.36236,1.02352
234.748,29.4192,-0.11616,0.36097,1.0232
235.448,29.48586,-0.11864,0.36198,1.02286
236.148,29.55283,-0.12016,0.36041,1.02253
236.848,29.6198,-0.12266,0.36077,1.0222
237.548,29.68698,-0.12329,0.36256,1.02187
238.248,29.75412,-0.12618,0.36324,1.02153
238.948,29.8208,-0.1297,0.36262,1.0212
239.648,29.88757,-0.13241,0.36369,1.02086
240.348,29.95451,-0.13448,0.36326,1.02052
241.048,30.02148,-0.13737,0.36493,1.02019
241.748,30.08825,-0.14017,0.3666,1.01985
242.448,30.1548,-0.1433,0.36758,1.01951
243.148,30.2216,-0.14583,0.36734,1.01917
243.848,30.28841,-0.14878,0.36981,1.01882
244.548,30.3554,-0.15108,0.36968,1.01848
245.248,30.4221,-0.15249,0.37449,1.01814
245.948,30.489,-0.15585,0.37498,1.01779
246.648,30.5558,-0.1596,0.37623,1.01745
247.348,30.6228,-0.16345,0.37814,1.0171
248.048,30.6897,-0.16749,0.37759,1.01675
248.748,30.7563,-0.17068,0.38139,1.01641
249.448,30.82305,-0.17395,0.38248,1.01606
250.148,30.88973,-0.17697,0.38355,1.01571
250.848,30.95658,-0.17937,0.38392,1.01536
251.548,31.02345,-0.18462,0.38593,1.015
252.248,31.09021,-0.18589,0.38924,1.01465
252.948,31.15717,-0.19205,0.38727,1.0143
253.648,31.22393,-0.19524,0.38656,1.01394
254.348,31.29073,-0.19957,0.38343,1.01359
255.048,31.3576,-0.20308,0.38155,1.01323
255.748,31.4245,-0.20707,0.37544,1.01287
256.448,31.4914,-0.21237,0.3695,1.01251
257.148,31.55824,-0.21736,0.36615,1.01216
257.848,31.6251,-0.2228,0.36435,1.01179
258.548,31.69203,-0.22848,0.36289,1.01143
259.248,31.7589,-0.23371,0.3624,1.01107
259.948,31.82573,-0.23873,0.36287,1.01071
260.648,31.89248,-0.24286,0.36084,1.01035
261.348,31.95935,-0.24613,0.36131,1.00998
262.048,32.0262,-0.2548,0.36169,1.00962
262.748,32.09299,-0.26143,0.36016,1.00925
263.448,32.1596,-0.26559,0.36016,1.00888
264.148,32.22612,-0.27288,0.35918,1.00851
264.848,32.29296,-0.27863,0.35831,1.00814
265.548,32.35988,-0.28622,0.36013,1.00777
266.248,32.42706,-0.29206,0.36277,1.0074
266.948,32.494,-0.29898,0.36025,1.00703
267.648,32.5608,-0.30587,0.35958,1.00666
268.348,32.62762,-0.3131,0.35805,1.00629
269.048,32.69454,-0.3185,0.35795,1.00591
269.748,32.7614,-0.3267,0.35792,1.00554
270.448,32.82816,-0.33321,0.35477,1.00516
271.148,32.89508,-0.34196,0.35443,1.00478
271.848,32.96216,-0.35038,0.35269,1.0044
272.548,33.02928,-0.35835,0.35078,1.00403
273.248,33.09636,-0.36581,0.35031,1.00365
273.948,33.1633,-0.37394,0.35061,1.00326
274.648,33.2303,-0.38258,0.34784,1.00288
275.348,33.29712,-0.39251,0.34825,1.0025
276.048,33.36412,-0.401,0.34497,1.00212
276.748,33.4311,-0.41004,0.34485,1.00173
277.448,33.4983,-0.42032,0.34219,1.00135
278.148,33.56535,-0.42907,0.34246,1.00096
278.848,33.63234,-0.43932,0.33999,1.00058
279.548,33.69914,-0.44883,0.3396,1.00019
280.248,33.76607,-0.45752,0.34007,0.9998
280.948,33.8329,-0.46782,0.33707,0.99941
281.648,33.89991,-0.47684,0.33427,0.99902
282.348,33.9668,-0.48828,0.33266,0.99863
283.048,34.03385,-0.49845,0.33263,0.99824
283.748,34.10085,-0.50997,0.33136,0.99785
284.448,34.16791,-0.52208,0.33251,0.99745
285.148,34.2348,-0.53398,0.33113,0.99706
285.848,34.30177,-0.54338,0.32904,0.99666
286.548,34.36855,-0.55596,0.32908,0.99627
287.248,34.4355,-0.56788,0.32633,0.99587
287.948,34.50242,-0.5787,0.32876,0.99547
288.648,34.5695,-0.59017,0.3261,0.99507
289.348,34.63648,-0.60334,0.32463,0.99467
290.048,34.70329,-0.6156,0.32616,0.99427
290.748,34.77005,-0.62737,0.3269,0.99387
291.448,34.83692,-0.64056,0.32443,0.99347
292.148,34.9039,-0.65193,0.32448,0.99307
292.848,34.97098,-0.6655,0.3226,0.99266
293.548,35.0379,-0.67847,0.32392,0.99226
294.248,35.10499,-0.69212,0.32458,0.99185
294.948,35.17192,-0.70443,0.32323,0.99145
295.648,35.23894,-0.72049,0.32176,0.99104
296.348,35.30594,-0.73384,0.32104,0.99063
297.048,35.3729,-0.74722,0.32367,0.99022
297.748,35.43994,-0.76101,0.32192,0.98981
298.448,35.50699,-0.77457,0.32179,0.9894
299.148,35.5743,-0.78897,0.32354,0.98899
299.848,35.64163,-0.80293,0.32072,0.98858
300.548,35.70881,-0.81861,0.32179,0.98817
301.248,35.7759,-0.83243,0.32031,0.98775
301.948,35.8427,-0.84774,0.32252,0.98734
302.648,35.90978,-0.86083,0.32079,0.98692
303.348,35.97695,-0.87624,0.32228,0.98651
304.048,36.0443,-0.88997,0.3213,0.98609
304.748,36.11166,-0.90543,0.325,0.98567
305.448,36.17877,-0.92073,0.32251,0.98525
306.148,36.24609,-0.93527,0.32309,0.98483
306.848,36.3134,-0.94853,0.32583,0.98441
307.548,36.3808,-0.96324,0.32293,0.98399
308.248,36.4478,-0.97669,0.32371,0.98357
308.948,36.51485,-0.991,0.32299,0.98315
309.648,36.58209,-1.00577,0.32442,0.98272
310.348,36.64945,-1.02026,0.32657,0.9823
311.048,36.71665,-1.03562,0.32599,0.98187
311.748,36.78372,-1.05067,0.32851,0.98145
312.448,36.85076,-1.06389,0.32942,0.98102
313.148,36.91786,-1.07874,0.33003,0.98059
313.848,36.98509,-1.092,0.33181,0.98017
314.548,37.05218,-1.10611,0.33183,0.97974
315.248,37.11938,-1.1217,0.33447,0.97931
315.948,37.1865,-1.13548,0.3351,0.97888
316.648,37.25394,-1.15064,0.33604,0.97844
317.348,37.32134,-1.16547,0.33426,0.97801
318.048,37.38865,-1.17878,0.33705,0.97758
318.748,37.4559,-1.19336,0.34049,0.97714
319.448,37.52326,-1.20745,0.34212,0.97671
320.148,37.5906,-1.22206,0.34249,0.97627
320.848,37.65784,-1.23439,0.34568,0.97584
321.548,37.72462,-1.25001,0.34518,0.9754
322.248,37.79208,-1.26456,0.34681,0.97496
322.948,37.85973,-1.27986,0.34947,0.97452
323.648,37.9275,-1.29391,0.35024,0.97409
324.348,37.99523,-1.30972,0.35388,0.97365
325.048,38.06248,-1.32399,0.35714,0.9732
325.748,38.12996,-1.33911,0.36077,0.97276
326.448,38.19744,-1.3536,0.36028,0.97232
327.148,38.26513,-1.36771,0.36436,0.97188
327.848,38.33263,-1.38313,0.36774,0.97143
328.548,38.4,-1.39831,0.36944,0.97099
329.248,38.46744,-1.41171,0.37267,0.97054
329.948,38.5346,-1.42736,0.37633,0.9701
330.648,38.60177,-1.44406,0.38105,0.96965
331.348,38.66921,-1.45927,0.38702,0.9692
332.048,38.73695,-1.47606,0.38865,0.96875
332.748,38.8049,-1.49232,0.394,0.9683
333.448,38.87236,-1.5084,0.39661,0.96785
334.148,38.93972,-1.52497,0.40302,0.9674
334.848,39.00703,-1.54175,0.40466,0.96695
335.548,39.0744,-1.55803,0.41077,0.9665
336.248,39.1418,-1.57512,0.41358,0.96604
336.948,39.20924,-1.59145,0.422,0.96559
337.648,39.27681,-1.60797,0.42927,0.96514
338.348,39.34426,-1.62836,0.43511,0.96468
339.048,39.41152,-1.64689,0.44247,0.96422
339.748,39.47886,-1.66416,0.45036,0.96377
340.448,39.5461,-1.68397,0.45782,0.96331
341.148,39.61353,-1.70358,0.46398,0.96285
341.848,39.68093,-1.72355,0.46993,0.96239
342.548,39.74853,-1.74302,0.47657,0.96193
343.248,39.81603,-1.7669,0.48676,0.96147
343.948,39.8836,-1.78876,0.4945,0.96101
344.648,39.95113,-1.81023,0.50269,0.96055
345.348,40.01859,-1.83302,0.51149,0.96008
346.048,40.08617,-1.85646,0.51788,0.95962
346.748,40.15388,-1.87841,0.53006,0.95916
347.448,40.22188,-1.9036,0.53769,0.95869
348.148,40.28952,-1.92993,0.54717,0.95823
348.848,40.357,-1.95592,0.55846,0.95776
349.548,40.42459,-1.98186,0.56799,0.95729
350.248,40.49237,-2.01164,0.5775,0.95682
350.948,40.5604,-2.04205,0.58847,0.95636
351.648,40.62816,-2.07209,0.5971,0.95589
352.348,40.6958,-2.10189,0.60495,0.95542
353.048,40.76351,-2.13378,0.61113,0.95495
353.748,40.83113,-2.16633,0.61292,0.95447
354.448,40.89884,-2.19952,0.61419,0.954
355.148,40.9668,-2.23394,0.61508,0.95353
355.848,41.03464,-2.26732,0.60596,0.95305
356.548,41.10241,-2.3005,0.59676,0.95258
357.248,41.17002,-2.33554,0.57885,0.9521
357.948,41.23754,-2.3663,0.55659,0.95163
358.648,41.3052,-2.39772,0.52828,0.95115
359.348,41.3728,-2.42857,0.49648,0.95068
360.048,41.44038,-2.45636,0.46174,0.9502
360.748,41.50795,-2.48194,0.42259,0.94972
361.448,41.5754,-2.50688,0.38359,0.94924
362.148,41.64298,-2.53033,0.347,0.94876
362.848,41.71054,-2.55151,0.31247,0.94828
363.548,41.77823,-2.56966,0.28187,0.9478
364.248,41.84575,-2.58616,0.24782,0.94731
364.948,41.91338,-2.60013,0.2198,0.94683
365.648,41.98082,-2.61331,0.19401,0.94635
366.348,42.04833,-2.62498,0.17338,0.94586
367.048,42.11573,-2.63499,0.15022,0.94538
367.748,42.18334,-2.6455,0.13323,0.94489
368.448,42.25107,-2.65208,0.11872,0.94441
369.148,42.31863,-2.66046,0.10741,0.94392
369.848,42.38629,-2.66792,0.08992843,0.94343
370.548,42.45368,-2.67328,0.08443774,0.94294
371.248,42.52153,-2.67817,0.07373855,0.94245
371.948,42.58941,-2.68304,0.06886796,0.94196
372.648,42.6575,-2.6869,0.05818389,0.94147
373.348,42.72535,-2.69155,0.05360053,0.94098
374.048,42.79311,-2.69682,0.04817888,0.94049
374.748,42.8609,-2.69991,0.04235721,0.94
375.448,42.92902,-2.70232,0.03940392,0.93951
376.148,42.99698,-2.70532,0.03580535,0.93901
376.848,43.06501,-2.70877,0.02908345,0.93852
377.548,43.13281,-2.71263,0.02554205,0.93802
378.248,43.20071,-2.7165,0.02395956,0.93753
378.948,43.26862,-2.71831,0.02250749,0.93703
379.648,43.3367,-2.72224,0.02016628,0.93653
380.348,43.4047,-2.72417,0.01675631,0.93604
381.048,43.47282,-2.72766,0.0134367,0.93554
381.748,43.5409,-2.73005,0.01072722,0.93504
382.448,43.60853,-2.73301,0.00764379,0.93454
383.148,43.67654,-2.73426,0.00708647,0.93404
383.848,43.74431,-2.7378,0.0056487,0.93354
384.548,43.81283,-2.74023,0.001776073,0.93303
385.248,43.88105,-2.74318,-0.002030891,0.93253
385.948,43.94939,-2.7461,-0.00271017,0.93203
386.648,44.01774,-2.74868,-0.002834355,0.93153
387.348,44.0861,-2.75061,-0.00465535,0.93102
388.048,44.15455,-2.75328,-0.007452348,0.93052
388.748,44.22302,-2.75542,-0.01038401,0.93001
389.448,44.29139,-2.75598,-0.01165347,0.9295
390.148,44.35971,-2.75668,-0.01452604,0.929
390.848,44.42799,-2.7618,-0.01561282,0.92849
391.548,44.4963,-2.76363,-0.01865297,0.92798
392.248,44.56465,-2.76605,-0.0201009,0.92747
392.948,44.63301,-2.76761,-0.02213077,0.92696
393.648,44.70134,-2.76961,-0.02144923,0.92645
394.348,44.7695,-2.77235,-0.02332311,0.92594
395.048,44.83766,-2.77514,-0.02475208,0.92543
395.748,44.90563,-2.77604,-0.02686349,0.92492
396.448,44.9737,-2.77732,-0.0270086,0.92441
397.148,45.0419,-2.78011,-0.02771622,0.92389
397.848,45.10996,-2.78144,-0.02997392,0.92338
398.548,45.1778,-2.7837,-0.03084128,0.92286
399.248,45.2455,-2.78581,-0.03472705,0.92235
399.948,45.31341,-2.78699,-0.03473083,0.92183
400.648,45.3812,-2.79126,-0.03759905,0.92132
401.348,45.44908,-2.79118,-0.03703045,0.9208
402.048,45.51697,-2.79372,-0.03798445,0.92028
402.748,45.58502,-2.79646,-0.03848182,0.91976
403.448,45.653,-2.79778,-0.03967966,0.91925
404.148,45.7211,-2.80087,-0.04147893,0.91873
404.848,45.78913,-2.80247,-0.04531238,0.91821
405.548,45.85717,-2.80512,-0.04462385,0.91769
406.248,45.92499,-2.80703,-0.04611498,0.91716
406.948,45.99293,-2.80707,-0.04777536,0.91664
407.648,46.061,-2.81029,-0.04769238,0.91612
408.348,46.12919,-2.81366,-0.05029698,0.9156
409.048,46.1972,-2.81596,-0.04912836,0.91507
409.748,46.26505,-2.81594,-0.05347532,0.91455
410.448,46.33324,-2.81728,-0.05252077,0.91402
411.148,46.40168,-2.82032,-0.0553987,0.9135
411.848,46.4702,-2.82263,-0.05369508,0.91297
412.548,46.53838,-2.82563,-0.05790679,0.91245
413.248,46.60652,-2.82624,-0.05803328,0.91192
413.948,46.6748,-2.82733,-0.05943098,0.91139
414.648,46.74335,-2.83,-0.06377714,0.91086
415.348,46.81188,-2.83192,-0.06214622,0.91033
416.048,46.8803,-2.83504,-0.06131386,0.9098
416.748,46.94865,-2.83659,-0.05907274,0.90927
417.448,47.01721,-2.83857,-0.06189525,0.90874
418.148,47.08555,-2.84093,-0.06089815,0.90821
418.848,47.15401,-2.84294,-0.06365921,0.90768
419.548,47.22231,-2.84359,-0.06142924,0.90715
420.248,47.29125,-2.84553,-0.06405017,0.90661
420.948,47.3601,-2.84831,-0.06216143,0.90608
421.648,47.42918,-2.84964,-0.06127544,0.90555
422.348,47.49772,-2.85243,-0.06415396,0.90501
423.048,47.56633,-2.85318,-0.06536474,0.90448
423.748,47.6351,-2.85574,-0.06469615,0.90394
424.448,47.70394,-2.85753,-0.06558552,0.9034
425.148,47.7731,-2.85982,-0.06585146,0.90287
425.848,47.84173,-2.86165,-0.06587863,0.90233
426.548,47.91044,-2.86324,-0.06708795,0.90179
427.248,47.97895,-2.8649,-0.06665192,0.90125
427.948,48.04772,-2.86588,-0.06742712,0.90071
428.648,48.11635,-2.86686,-0.06455402,0.90017
429.348,48.185,-2.86917,-0.06454247,0.89963
430.048,48.25357,-2.87109,-0.06144847,0.89909
430.748,48.32249,-2.87339,-0.06116225,0.89855
431.448,48.3915,-2.87362,-0.0629205,0.89801
432.148,48.46046,-2.87477,-0.06086808,0.89747
432.848,48.52919,-2.87608,-0.06035994,0.89692
433.548,48.5978,-2.87865,-0.06300849,0.89638
434.248,48.66649,-2.88122,-0.05940775,0.89583
434.948,48.73522,-2.88133,-0.06006454,0.89529
435.648,48.80393,-2.88265,-0.06028824,0.89474
436.348,48.8727,-2.88404,-0.06078811,0.8942
437.048,48.94129,-2.88791,-0.05954016,0.89365
437.748,49.01015,-2.88922,-0.06059266,0.89311
438.448,49.07889,-2.88988,-0.06088019,0.89256
439.148,49.14776,-2.89056,-0.05957141,0.89201
439.848,49.2164,-2.89197,-0.06071599,0.89146
440.548,49.2851,-2.89451,-0.05989621,0.89091
441.248,49.35368,-2.89519,-0.0573558,0.89036
441.948,49.42215,-2.8966,-0.05579952,0.88981
442.648,49.49062,-2.89792,-0.0535407,0.88926
443.348,49.55923,-2.89989,-0.05225546,0.88871
444.048,49.6278,-2.90054,-0.05184397,0.88816
444.748,49.69641,-2.90186,-0.04995287,0.88761
445.448,49.7648,-2.90317,-0.05125005,0.88705
446.148,49.83348,-2.90448,-0.04923071,0.8865
446.848,49.902,-2.90578,-0.04974324,0.88595
447.548,49.97056,-2.9078,-0.04525578,0.88539
448.248,50.03942,-2.90909,-0.04660571,0.88484
448.948,50.1083,-2.9104,-0.04719933,0.88428
449.648,50.1774,-2.91173,-0.045349,0.88373
450.348,50.2461,-2.91307,-0.04486033,0.88317
451.048,50.31487,-2.91435,-0.04454053,0.88261
451.748,50.38367,-2.91537,-0.04531087,0.88206
452.448,50.45245,-2.91567,-0.04515689,0.8815
453.148,50.52145,-2.91809,-0.04361078,0.88094
453.848,50.5905,-2.91962,-0.04268204,0.88038
454.548,50.6597,-2.92064,-0.04515551,0.87982
455.248,50.72873,-2.92225,-0.04513265,0.87926
455.948,50.7977,-2.92357,-0.04184133,0.8787
456.648,50.86672,-2.92488,-0.04393218,0.87814
457.348,50.936,-2.92626,-0.04211913,0.87758
458.048,51.0052,-2.92696,-0.04343681,0.87702
458.748,51.07448,-2.92681,-0.0426463,0.87645
459.448,51.14371,-2.9282,-0.04088378,0.87589
460.148,51.21304,-2.93071,-0.04109692,0.87533
460.848,51.28242,-2.93081,-0.03733856,0.87476
461.548,51.35171,-2.93222,-0.03840897,0.8742
462.248,51.42107,-2.93475,-0.03961662,0.87364
462.948,51.49,-2.93576,-0.03918068,0.87307
463.648,51.55944,-2.93609,-0.04058325,0.8725
464.348,51.6286,-2.93739,-0.03513825,0.87194
465.048,51.69815,-2.93739,-0.03741329,0.87137
465.748,51.76722,-2.94006,-0.03834175,0.8708
466.448,51.83652,-2.94257,-0.03847324,0.87024
467.148,51.90578,-2.9442,-0.03798211,0.86967
467.848,51.97498,-2.94408,-0.03145092,0.8691
468.548,52.0441,-2.94514,-0.03714442,0.86853
469.248,52.11313,-2.94598,-0.03348607,0.86796
469.948,52.1821,-2.94737,-0.03433331,0.86739
470.648,52.25103,-2.94868,-0.03379664,0.86682
471.348,52.32008,-2.95002,-0.03257386,0.86625
472.048,52.3889,-2.95,-0.030513,0.86568
472.748,52.45795,-2.95128,-0.02793451,0.86511
473.448,52.5268,-2.95262,-0.03025879,0.86453
474.148,52.59607,-2.95263,-0.02742065,0.86396
474.848,52.665,-2.95364,-0.02878392,0.86339
475.548,52.73409,-2.95494,-0.02691065,0.86282
476.248,52.80315,-2.95562,-0.02532637,0.86224
476.948,52.87209,-2.95697,-0.02373077,0.86167
477.648,52.9409,-2.95691,-0.02244115,0.86109
478.348,53.0097,-2.95791,-0.02106684,0.86052
479.048,53.07877,-2.95955,-0.01693368,0.85994
479.748,53.1479,-2.96088,-0.01843446,0.85936
480.448,53.217,-2.96218,-0.01689092,0.85879
481.148,53.286,-2.96285,-0.01327961,0.85821
481.848,53.3548,-2.9635,-0.01443574,0.85763
482.548,53.4237,-2.96481,-0.01140977,0.85705
483.248,53.49279,-2.96498,-0.01036515,0.85648
483.948,53.5618,-2.96672,-0.01278821,0.8559
484.648,53.631,-2.96713,-0.01262684,0.85532
485.348,53.7,-2.96711,-0.01222033,0.85474
486.048,53.7693,-2.96843,-0.006562715,0.85416
486.748,53.8383,-2.96976,-0.005542775,0.85358
487.448,53.90721,-2.96977,-0.0008577225,0.85299
488.148,53.97596,-2.97107,0.0015146,0.85241
488.848,54.045,-2.97233,-0.00160523,0.85183
489.548,54.11424,-2.97327,-0.00216336,0.85125
490.248,54.1836,-2.97371,-0.0006541477,0.85067
490.948,54.25281,-2.97501,0.001905026,0.85008
491.648,54.3217,-2.97435,0.003499535,0.8495
492.348,54.39069,-2.97565,0.003086285,0.84891
493.048,54.45981,-2.97699,0.005617267,0.84833
493.748,54.5292,-2.9783,0.00908558,0.84775
494.448,54.5982,-2.97962,0.01058996,0.84716
495.148,54.6674,-2.97962,0.011668,0.84657
495.848,54.7363,-2.98092,0.01213755,0.84599
496.548,54.80539,-2.98092,0.01241039,0.8454
497.248,54.8744,-2.98168,0.01342965,0.84481
497.948,54.94344,-2.9816,0.01167008,0.84423
498.648,55.01249,-2.98025,0.01419615,0.84364
499.348,55.08149,-2.98333,0.01309356,0.84305
500.048,55.1505,-2.98469,0.01379501,0.84246
500.748,55.2197,-2.98598,0.01603532,0.84187
501.448,55.28892,-2.98662,0.01416287,0.84128
502.148,55.35825,-2.9873,0.01459311,0.84069
502.848,55.42734,-2.9873,0.01068505,0.8401
503.548,55.49655,-2.98599,0.0127399,0.83951
504.248,55.5657,-2.98862,0.01474147,0.83892
504.948,55.63488,-2.98993,0.01302946,0.83833
505.648,55.7041,-2.98993,0.01422989,0.83774
506.348,55.77324,-2.98988,0.01351315,0.83715
507.048,55.8423,-2.99019,0.01251775,0.83656
507.748,55.91146,-2.99256,0.01725739,0.83596
508.448,55.98064,-2.99389,0.01460802,0.83537
509.148,56.05001,-2.99519,0.0164696,0.83478
509.848,56.11942,-2.99651,0.01682608,0.83418
510.548,56.189,-2.99651,0.01410674,0.83359
511.248,56.25855,-2.99652,0.01523752,0.83299
511.948,56.3281,-2.99783,0.01592654,0.8324
512.648,56.39773,-2.99783,0.01379947,0.8318
513.348,56.4673,-2.99784,0.01445252,0.83121
514.048,56.53697,-3.00067,0.01475121,0.83061
514.748,56.60645,-2.99904,0.01160933,0.83001
515.448,56.67606,-2.99904,0.0113538,0.82942
516.148,56.7458,-3.00035,0.01137695,0.82882
516.848,56.81576,-2.99898,0.009045812,0.82822
517.548,56.88559,-3.00167,0.008370795,0.82762
518.248,56.9554,-3.00167,0.004417465,0.82702
518.948,57.02514,-3.00284,0.002366374,0.82643
519.648,57.0948,-3.00299,0.001694819,0.82583
520.348,57.16449,-3.0043,-0.006911846,0.82523
521.048,57.2341,-3.00562,-0.008149511,0.82463
521.748,57.3039,-3.00693,-0.01278556,0.82403
522.448,57.3735,-3.00689,-0.01805902,0.82343
523.148,57.4428,-3.00824,-0.02216325,0.82283
523.848,57.5122,-3.00756,-0.024907,0.82222
524.548,57.58197,-3.00822,-0.02694869,0.82162
525.248,57.65191,-3.00945,-0.02938293,0.82102
525.948,57.7217,-3.00826,-0.03163048,0.82042
526.648,57.7911,-3.00957,-0.02979811,0.81982
527.348,57.86071,-3.01088,-0.03344963,0.81921
528.048,57.9303,-3.01023,-0.0343098,0.81861
528.748,58.00003,-3.01154,-0.03687268,0.81801
529.448,58.0697,-3.01287,-0.03515038,0.8174
530.148,58.1393,-3.01286,-0.03679095,0.8168
530.848,58.2087,-3.0122,-0.03706594,0.81619
531.548,58.27811,-3.01351,-0.03722137,0.81559
532.248,58.3475,-3.01477,-0.03597057,0.81498
532.948,58.41712,-3.0155,-0.03816473,0.81438
533.648,58.4866,-3.01712,-0.0375746,0.81377
534.348,58.55611,-3.01713,-0.04377323,0.81316
535.048,58.6254,-3.01677,-0.04035895,0.81256
535.748,58.69491,-3.01713,-0.04092891,0.81195
536.448,58.76435,-3.01713,-0.04540276,0.81134
537.148,58.8339,-3.01846,-0.04496266,0.81074
537.848,58.90341,-3.01979,-0.04584716,0.81013
538.548,58.9729,-3.02048,-0.04684344,0.80952
539.248,59.04244,-3.01999,-0.04665587,0.80891
539.948,59.1119,-3.01978,-0.04735897,0.8083
540.648,59.1814,-3.02108,-0.05006771,0.80769
541.348,59.25095,-3.02112,-0.04853981,0.80708
542.048,59.3207,-3.02218,-0.05070337,0.80647
542.748,59.3904,-3.0224,-0.05254051,0.80586
543.448,59.45994,-3.02371,-0.05280052,0.80525
544.148,59.52921,-3.0224,-0.05602808,0.80464
544.848,59.59871,-3.02392,-0.05271718,0.80403
545.548,59.6684,-3.02525,-0.05623999,0.80342
546.248,59.7381,-3.0252,-0.05292697,0.80281
546.948,59.80786,-3.02653,-0.05543785,0.8022
547.648,59.87764,-3.0279,-0.05584657,0.80159
548.348,59.9475,-3.02924,-0.05530673,0.80097
549.048,60.01726,-3.0279,-0.05777319,0.80036
549.748,60.08687,-3.03032,-0.05682063,0.79975
550.448,60.1565,-3.02985,-0.05820813,0.79913
551.148,60.2262,-3.03117,-0.05765746,0.79852
551.848,60.2958,-3.03117,-0.05668697,0.79791
552.548,60.3655,-3.03117,-0.05649978,0.79729
553.248,60.4351,-3.03117,-0.05865679,0.79668
553.948,60.50493,-3.03256,-0.05763231,0.79606
554.648,60.5747,-3.03379,-0.05752578,0.79545
555.348,60.64427,-3.0338,-0.05971454,0.79483
556.048,60.7138,-3.03513,-0.06214722,0.79422
556.748,60.7837,-3.03512,-0.06239698,0.7936
557.448,60.8538,-3.03537,-0.06252498,0.79298
558.148,60.9238,-3.03709,-0.06642797,0.79237
558.848,60.9937,-3.03831,-0.06469022,0.79175
559.548,61.06325,-3.03705,-0.0659219,0.79113
560.248,61.133,-3.0394,-0.06789843,0.79052
560.948,61.2025,-3.0394,-0.07018671,0.7899
561.648,61.27242,-3.04071,-0.07327512,0.78928
562.348,61.34208,-3.03939,-0.06809929,0.78866
563.048,61.41189,-3.0394,-0.07356431,0.78805
563.748,61.4818,-3.0394,-0.07072744,0.78743
564.448,61.5518,-3.03942,-0.07198328,0.78681
565.148,61.62165,-3.0417,-0.07290549,0.78619
565.848,61.69119,-3.04303,-0.07182398,0.78557
566.548,61.76095,-3.04309,-0.07630228,0.78495
567.248,61.83084,-3.04433,-0.07395957,0.78433
567.948,61.90075,-3.04302,-0.0730385,0.78371
568.648,61.97075,-3.04302,-0.074764,0.78309
569.348,62.0408,-3.04434,-0.07354202,0.78247
570.048,62.11054,-3.04696,-0.07393564,0.78185
570.748,62.1804,-3.04695,-0.07569034,0.78123
571.448,62.25036,-3.04563,-0.07903957,0.78061
572.148,62.3204,-3.04796,-0.07735356,0.77998
572.848,62.3902,-3.04795,-0.07977694,0.77936
573.548,62.45981,-3.04795,-0.07862468,0.77874
574.248,62.52941,-3.04795,-0.07725961,0.77812
574.948,62.5992,-3.04927,-0.07880005,0.7775
575.648,62.669,-3.04926,-0.08036436,0.77687
576.348,62.73893,-3.04927,-0.07938441,0.77625
577.048,62.8087,-3.05058,-0.07939082,0.77563
577.748,62.8786,-3.05059,-0.0791586,0.775
578.448,62.9483,-3.0519,-0.08233194,0.77438
579.148,63.01825,-3.05324,-0.08153112,0.77376
579.848,63.08824,-3.05322,-0.08033156,0.77313
580.548,63.1584,-3.05322,-0.0822485,0.77251
581.248,63.2286,-3.05322,-0.08207336,0.77188
581.948,63.29886,-3.05322,-0.08511483,0.77126
582.648,63.36885,-3.05322,-0.08297985,0.77063
583.348,63.4387,-3.05323,-0.08464169,0.77001
584.048,63.50866,-3.05454,-0.08355416,0.76938
584.748,63.57864,-3.05454,-0.08472222,0.76876
585.448,63.64889,-3.05454,-0.08516353,0.76813
586.148,63.71889,-3.05454,-0.083646,0.7675
586.848,63.78904,-3.05454,-0.08764413,0.76688
587.548,63.8591,-3.05585,-0.08320593,0.76625
588.248,63.92941,-3.05585,-0.0858061,0.76562
588.948,63.99978,-3.05451,-0.08652407,0.765
589.648,64.06992,-3.05589,-0.08717905,0.76437
590.348,64.13977,-3.05717,-0.08386243,0.76374
591.048,64.20962,-3.05783,-0.08431216,0.76311
591.748,64.2795,-3.05849,-0.08122911,0.76249
592.448,64.3496,-3.0575,-0.08493969,0.76186
593.148,64.41975,-3.05749,-0.08598766,0.76123
593.848,64.48987,-3.05982,-0.08396247,0.7606
594.548,64.56009,-3.06013,-0.08495284,0.75997
595.248,64.6302,-3.06013,-0.08446667,0.75935
595.948,64.70034,-3.05951,-0.0865824,0.75872
596.648,64.77017,-3.06013,-0.08690272,0.75809
597.348,64.84003,-3.06078,-0.08917492,0.75746
598.048,64.90996,-3.06112,-0.08795572,0.75683
598.748,64.97997,-3.06244,-0.08710143,0.7562
599.448,65.05004,-3.06304,-0.08250277,0.75557
600.148,65.1202,-3.06276,-0.08727349,0.75494
600.848,65.1903,-3.06496,-0.08754584,0.75431
601.548,65.26039,-3.06525,-0.08854387,0.75368
602.248,65.33028,-3.06397,-0.08439027,0.75305
602.948,65.3998,-3.06397,-0.08679855,0.75242
603.648,65.4697,-3.06397,-0.08695753,0.75178
604.348,65.5399,-3.06397,-0.08653655,0.75115
605.048,65.61029,-3.06531,-0.08424597,0.75052
605.748,65.68019,-3.06528,-0.0856646,0.74989
606.448,65.75015,-3.06396,-0.08494216,0.74926
607.148,65.82021,-3.06528,-0.08623042,0.74863
607.848,65.8905,-3.0666,-0.0825468,0.74799
608.548,65.96047,-3.06537,-0.08253287,0.74736
609.248,66.03063,-3.0666,-0.08253255,0.74673
609.948,66.1008,-3.06791,-0.08048374,0.7461
610.648,66.17086,-3.06924,-0.08302826,0.74546
611.348,66.24101,-3.0719,-0.08263267,0.74483
612.048,66.31099,-3.07174,-0.08300758,0.7442
612.748,66.38113,-3.07055,-0.08283544,0.74357
613.448,66.45124,-3.07055,-0.07970225,0.74293
614.148,66.5215,-3.07055,-0.08403922,0.7423
614.848,66.59165,-3.07051,-0.08497826,0.74166
615.548,66.66197,-3.07089,-0.08253717,0.74103
616.248,66.73223,-3.0709,-0.07746999,0.7404
616.948,66.8026,-3.07219,-0.07603093,0.73976
617.648,66.87276,-3.07219,-0.07760858,0.73913
618.348,66.9429,-3.07219,-0.0752129,0.73849
619.048,67.013,-3.07237,-0.07752651,0.73786
619.748,67.08298,-3.07472,-0.07736516,0.73722
620.448,67.15292,-3.07482,-0.07948525,0.73659
621.148,67.22321,-3.07482,-0.07729016,0.73595
621.848,67.29343,-3.07482,-0.07822104,0.73532
622.548,67.36378,-3.0766,-0.07762835,0.73468
623.248,67.43387,-3.07507,-0.07485361,0.73405
623.948,67.50392,-3.07522,-0.079785,0.73341
624.648,67.5741,-3.07622,-0.07973602,0.73278
625.348,67.6442,-3.07516,-0.07527743,0.73214
626.048,67.71444,-3.07507,-0.07924904,0.73151
626.748,67.78446,-3.07777,-0.07919358,0.73087
627.448,67.85463,-3.07779,-0.07558024,0.73023
628.148,67.92489,-3.07779,-0.07771966,0.7296
628.848,67.99523,-3.07878,-0.07950889,0.72896
629.548,68.06505,-3.07878,-0.08101346,0.72832
630.248,68.13521,-3.07746,-0.08118002,0.72769
630.948,68.20537,-3.07774,-0.07828846,0.72705
631.648,68.27589,-3.07911,-0.07809136,0.72641
632.348,68.34621,-3.0801,-0.07481522,0.72578
633.048,68.4165,-3.08011,-0.08003177,0.72514
633.748,68.48687,-3.08139,-0.0808253,0.7245
634.448,68.55708,-3.08002,-0.07832064,0.72386
635.148,68.6271,-3.08141,-0.0813592,0.72323
635.848,68.6972,-3.08275,-0.08053533,0.72259
636.548,68.76738,-3.08273,-0.08180776,0.72195
637.248,68.83762,-3.08314,-0.07773647,0.72131
637.948,68.90824,-3.08306,-0.0817728,0.72068
638.648,68.9787,-3.0802,-0.08020362,0.72004
639.348,69.0493,-3.08306,-0.07904652,0.7194
640.048,69.11952,-3.08308,-0.07735982,0.71876
640.748,69.1899,-3.08437,-0.08274035,0.71812
641.448,69.26042,-3.08405,-0.08082042,0.71748
642.148,69.331,-3.08371,-0.08200347,0.71684
642.848,69.4017,-3.08458,-0.08455604,0.71621
643.548,69.47225,-3.08503,-0.08341243,0.71557
644.248,69.5427,-3.08503,-0.08152581,0.71493
644.948,69.61316,-3.08503,-0.0829138,0.71429
645.648,69.6836,-3.08635,-0.08236705,0.71365
646.348,69.75392,-3.08635,-0.08555992,0.71301
647.048,69.82417,-3.08505,-0.08301499,0.71237
647.748,69.89431,-3.08633,-0.08472187,0.71173
648.448,69.96472,-3.08776,-0.08601433,0.71109
649.148,70.0352,-3.08634,-0.08694173,0.71045
649.848,70.10565,-3.08767,-0.09075748,0.70981
650.548,70.17595,-3.08726,-0.08972498,0.70917
651.248,70.24615,-3.08741,-0.08918906,0.70853
651.948,70.31663,-3.08766,-0.09278028,0.70789
652.648,70.38716,-3.08635,-0.09487294,0.70725
653.348,70.45773,-3.08629,-0.09406048,0.70661
654.048,70.52807,-3.08893,-0.09693223,0.70597
654.748,70.59836,-3.08898,-0.09335744,0.70533
655.448,70.66839,-3.08996,-0.09653431,0.70469
656.148,70.7389,-3.08931,-0.09441501,0.70405
656.848,70.80946,-3.0893,-0.09372181,0.70341
657.548,70.88033,-3.0893,-0.09356035,0.70277
658.248,70.9507,-3.08859,-0.10031,0.70213
658.948,71.02117,-3.08931,-0.09965277,0.70149
659.648,71.09167,-3.08931,-0.09881177,0.70085
660.348,71.1621,-3.0903,-0.10019,0.70021
661.048,71.2325,-3.09029,-0.10034,0.69957
661.748,71.30282,-3.09022,-0.09963625,0.69893
662.448,71.37313,-3.0916,-0.09970695,0.69829
663.148,71.4432,-3.09168,-0.09817021,0.69764
663.848,71.51318,-3.09161,-0.10082,0.697
664.548,71.5832,-3.09161,-0.10567,0.69636
665.248,71.65325,-3.09161,-0.10244,0.69572
665.948,71.72336,-3.09153,-0.10348,0.69508
666.648,71.79342,-3.09293,-0.1035,0.69444
667.348,71.86362,-3.09555,-0.10593,0.6938
668.048,71.93386,-3.09455,-0.10623,0.69316
668.748,72.0043,-3.09457,-0.10614,0.69251
669.448,72.0745,-3.09457,-0.10937,0.69187
670.148,72.14454,-3.09457,-0.10628,0.69123
670.848,72.21446,-3.0959,-0.10818,0.69059
671.548,72.28454,-3.09589,-0.10667,0.68995
672.248,72.3549,-3.09593,-0.10895,0.68931
672.948,72.42532,-3.09457,-0.11278,0.68866
673.648,72.4956,-3.09419,-0.11182,0.68802
674.348,72.566,-3.09556,-0.11335,0.68738
675.048,72.63648,-3.09556,-0.11431,0.68674
675.748,72.7072,-3.09556,-0.11802,0.6861
676.448,72.77801,-3.09586,-0.11472,0.68545
677.148,72.84885,-3.09589,-0.12052,0.68481
677.848,72.91959,-3.0972,-0.11997,0.68417
678.548,72.99015,-3.09589,-0.12148,0.68353
679.248,73.06068,-3.09783,-0.1239,0.68289
679.948,73.1314,-3.09742,-0.12037,0.68224
680.648,73.20209,-3.09841,-0.11929,0.6816
681.348,73.27284,-3.09973,-0.12311,0.68096
682.048,73.34342,-3.09973,-0.12466,0.68032
682.748,73.41365,-3.09893,-0.12589,0.67968
683.448,73.4842,-3.09838,-0.12771,0.67903
684.148,73.55513,-3.09874,-0.12813,0.67839
684.848,73.62614,-3.10068,-0.12983,0.67775
685.548,73.69699,-3.10092,-0.13148,0.67711
686.248,73.7674,-3.10071,-0.13124,0.67646
686.948,73.83829,-3.10071,-0.13236,0.67582
687.648,73.90912,-3.10071,-0.13554,0.67518
688.348,73.98003,-3.10071,-0.13158,0.67454
689.048,74.05075,-3.10142,-0.13482,0.6739
689.748,74.12135,-3.10272,-0.1349,0.67325
690.448,74.19203,-3.10283,-0.13572,0.67261
691.148,74.26268,-3.10367,-0.1368,0.67197
691.848,74.33321,-3.10286,-0.13897,0.67133
692.548,74.40378,-3.10461,-0.14036,0.67068
693.248,74.47434,-3.10238,-0.14032,0.67004
693.948,74.54495,-3.09975,-0.1416,0.6694
694.648,74.61564,-3.10106,-0.14357,0.66876
695.348,74.68633,-3.10235,-0.14421,0.66811
696.048,74.75721,-3.10366,-0.14681,0.66747
696.748,74.82796,-3.10367,-0.14684,0.66683
697.448,74.89885,-3.10367,-0.147,0.66619
698.148,74.9696,-3.10367,-0.15165,0.66554
698.848,75.0403,-3.10401,-0.14982,0.6649
699.548,75.1109,-3.10401,-0.15385,0.66426
700.248,75.1816,-3.10401,-0.1539,0.66362
700.948,75.25237,-3.10532,-0.15367,0.66297
701.648,75.32316,-3.10533,-0.15718,0.66233
702.348,75.39358,-3.10664,-0.16015,0.66169
703.048,75.46405,-3.10519,-0.15885,0.66105
703.748,75.53472,-3.10472,-0.16048,0.6604
704.448,75.6056,-3.10652,-0.16171,0.65976
705.148,75.67616,-3.1062,-0.16213,0.65912
705.848,75.74672,-3.10626,-0.1676,0.65848
706.548,75.81742,-3.10423,-0.16421,0.65784
707.248,75.88815,-3.10422,-0.17051,0.65719
707.948,75.95862,-3.1042,-0.16798,0.65655
708.648,76.02893,-3.1062,-0.16975,0.65591
709.348,76.0996,-3.1062,-0.16887,0.65527
710.048,76.17022,-3.1062,-0.171,0.65462
710.748,76.2409,-3.1062,-0.17131,0.65398
711.448,76.3112,-3.10751,-0.17403,0.65334
712.148,76.3817,-3.10652,-0.17592,0.6527
712.848,76.452,-3.10521,-0.17239,0.65206
713.548,76.52252,-3.10521,-0.17824,0.65141
714.248,76.593,-3.10653,-0.17592,0.65077
714.948,76.66364,-3.10652,-0.17823,0.65013
715.648,76.73437,-3.10643,-0.18067,0.64949
716.348,76.80513,-3.10784,-0.18607,0.64885
717.048,76.87592,-3.10784,-0.18642,0.6482
717.748,76.94651,-3.10784,-0.18737,0.64756
718.448,77.01717,-3.10881,-0.18844,0.64692
719.148,77.08779,-3.10916,-0.18733,0.64628
719.848,77.15858,-3.10884,-0.18967,0.64564
720.548,77.2294,-3.10883,-0.19329,0.645
721.248,77.30033,-3.10882,-0.19442,0.64435
721.948,77.37119,-3.10727,-0.19255,0.64371
722.648,77.44207,-3.11015,-0.19688,0.64307
723.348,77.51292,-3.11014,-0.19397,0.64243
724.048,77.58381,-3.11014,-0.19558,0.64179
724.748,77.65472,-3.11014,-0.19572,0.64115
725.448,77.72578,-3.11014,-0.20234,0.64051
726.148,77.79678,-3.11014,-0.20135,0.63986
726.848,77.86788,-3.11013,-0.20284,0.63922
727.548,77.93871,-3.10948,-0.20256,0.63858
728.248,78.00975,-3.1108,-0.20317,0.63794
728.948,78.08067,-3.1108,-0.20692,0.6373
729.648,78.15187,-3.1108,-0.20289,0.63666
730.348,78.2226,-3.11085,-0.20715,0.63602
731.048,78.29375,-3.11014,-0.21051,0.63538
731.748,78.3646,-3.11147,-0.2128,0.63474
732.448,78.4354,-3.11147,-0.21344,0.6341
733.148,78.50605,-3.1105,-0.21439,0.63346
733.848,78.57695,-3.11179,-0.21127,0.63281
734.548,78.64826,-3.11054,-0.21653,0.63217
735.248,78.71906,-3.11048,-0.21842,0.63153
735.948,78.78984,-3.11179,-0.21752,0.63089
736.648,78.86072,-3.11311,-0.22057,0.63025
737.348,78.93159,-3.11212,-0.21829,0.62961
738.048,79.00243,-3.11212,-0.22065,0.62897
738.748,79.0732,-3.11212,-0.22073,0.62833
739.448,79.14386,-3.11215,-0.22247,0.62769
740.148,79.21421,-3.11311,-0.22464,0.62705
740.848,79.28503,-3.1131,-0.22461,0.62641
741.548,79.35606,-3.11345,-0.23047,0.62577
742.248,79.42742,-3.11344,-0.22552,0.62513
742.948,79.49842,-3.11344,-0.22508,0.62449
743.648,79.5693,-3.11278,-0.23003,0.62385
744.348,79.64012,-3.11245,-0.22898,0.62321
745.048,79.71083,-3.11375,-0.22908,0.62258
745.748,79.78152,-3.11475,-0.23271,0.62194
746.448,79.85212,-3.11475,-0.23189,0.6213
747.148,79.9229,-3.11452,-0.23451,0.62066
747.848,79.99367,-3.11381,-0.22977,0.62002
748.548,80.06446,-3.11377,-0.2307,0.61938
749.248,80.1351,-3.11377,-0.23394,0.61874
749.948,80.2059,-3.11377,-0.2331,0.6181
750.648,80.27675,-3.11377,-0.23393,0.61746
751.348,80.3476,-3.11409,-0.23763,0.61682
752.048,80.4183,-3.11409,-0.23708,0.61619
752.748,80.48915,-3.11541,-0.24038,0.61555
753.448,80.55999,-3.11541,-0.2369,0.61491
754.148,80.63095,-3.11677,-0.23737,0.61427
754.848,80.70193,-3.11804,-0.24155,0.61363
755.548,80.77235,-3.11815,-0.23912,0.613
756.248,80.84312,-3.11805,-0.23972,0.61236
756.948,80.91381,-3.11806,-0.24102,0.61172
757.648,80.98516,-3.11706,-0.24128,0.61108
758.348,81.0563,-3.11706,-0.2439,0.61044
759.048,81.12756,-3.11701,-0.24645,0.60981
759.748,81.19887,-3.11837,-0.24725,0.60917
760.448,81.27005,-3.11843,-0.24848,0.60853
761.148,81.3411,-3.11829,-0.24703,0.6079
761.848,81.4121,-3.11837,-0.24888,0.60726
762.548,81.4828,-3.11837,-0.25097,0.60662
763.248,81.5537,-3.11837,-0.25375,0.60599
763.948,81.6246,-3.11837,-0.25703,0.60535
764.648,81.69584,-3.11941,-0.25817,0.60471
765.348,81.7671,-3.11969,-0.2554,0.60408
766.048,81.8382,-3.11959,-0.25622,0.60344
766.748,81.90953,-3.122,-0.25507,0.6028
767.448,81.98035,-3.12156,-0.25556,0.60217
768.148,82.05134,-3.12064,-0.26045,0.60153
768.848,82.12213,-3.12002,-0.26113,0.60089
769.548,82.19332,-3.11935,-0.26218,0.60026
770.248,82.26446,-3.11918,-0.26319,0.59962
770.948,82.33556,-3.12175,-0.26454,0.59899
771.648,82.40647,-3.12177,-0.26026,0.59835
772.348,82.47736,-3.12177,-0.26436,0.59772
773.048,82.5484,-3.12177,-0.26446,0.59708
773.748,82.61928,-3.12177,-0.26649,0.59645
774.448,82.69026,-3.12276,-0.26768,0.59581
775.148,82.76127,-3.12276,-0.27125,0.59518
775.848,82.83252,-3.12156,-0.26964,0.59454
776.548,82.90378,-3.12144,-0.27116,0.59391
777.248,82.975,-3.12212,-0.2685,0.59328
777.948,83.04626,-3.12245,-0.27165,0.59264
778.648,83.11737,-3.12243,-0.27278,0.59201
779.348,83.18862,-3.12337,-0.27079,0.59137
780.048,83.2599,-3.12374,-0.2719,0.59074
780.748,83.3312,-3.12374,-0.2726,0.59011
781.448,83.40236,-3.12372,-0.27131,0.58947
782.148,83.4738,-3.12244,-0.27484,0.58884
782.848,83.54514,-3.12244,-0.27371,0.58821
783.548,83.6166,-3.12243,-0.2757,0.58757
784.248,83.6879,-3.12375,-0.27695,0.58694
784.948,83.75918,-3.12375,-0.27635,0.58631
785.648,83.83027,-3.12375,-0.27792,0.58567
786.348,83.90139,-3.12375,-0.27686,0.58504
787.048,83.97272,-3.12375,-0.27296,0.58441
787.748,84.0442,-3.12507,-0.27742,0.58378
788.448,84.11553,-3.12507,-0.28111,0.58315
789.148,84.18687,-3.12414,-0.28172,0.58251
789.848,84.258,-3.12408,-0.28172,0.58188
790.548,84.32907,-3.12408,-0.28375,0.58125
791.248,84.4002,-3.12408,-0.28779,0.58062
791.948,84.47135,-3.12408,-0.28321,0.57999
792.648,84.54257,-3.12408,-0.28289,0.57936
793.348,84.61365,-3.12538,-0.28422,0.57873
794.048,84.6848,-3.12539,-0.28816,0.5781
794.748,84.75588,-3.12669,-0.28704,0.57747
795.448,84.82705,-3.12671,-0.28682,0.57683
796.148,84.89819,-3.12638,-0.29167,0.5762
796.848,84.96938,-3.12603,-0.28894,0.57557
797.148,84.9991,-3.12506,-0.28936,0.5753