File: 01_Data/Fiber_Cement_Board/STA/N2/3K_min/Fiber_Cement_Board_STA_N2_3KData_210623_R1.csv
##Temp./Â°C,Time/min,Mass loss(subtr.2)/mg,DSC(subtr.2)/mW,Sensit./(uV/mW)
49.119,10.0158,-0.01623,0.10056,0.5842
49.619,11.98667,-0.02018893,0.13019,0.58443
50.119,12.5349,-0.0215292,0.14204,0.58467
50.619,12.9584,-0.02276714,0.17804,0.5849
51.119,13.32139,-0.02158696,0.18178,0.58514
51.619,13.6498,-0.02307166,0.18632,0.58537
52.119,13.955,-0.02969472,0.19934,0.58561
52.619,14.24286,-0.02405664,0.23233,0.58584
53.119,14.5179,-0.02414293,0.23947,0.58607
53.619,14.78365,-0.02877749,0.24237,0.5863
54.119,15.04055,-0.02732189,0.24585,0.58653
54.619,15.2887,-0.02731149,0.26551,0.58676
55.119,15.5287,-0.0272936,0.25286,0.58699
55.619,15.76335,-0.0299461,0.26525,0.58722
56.119,15.9931,-0.02861452,0.27939,0.58745
56.619,16.21632,-0.02843128,0.30507,0.58768
57.119,16.43727,-0.03043017,0.30078,0.5879
57.619,16.65332,-0.03101331,0.30981,0.58813
58.119,16.8674,-0.03103589,0.30547,0.58836
58.619,17.07666,-0.03236,0.3249,0.58858
59.119,17.28358,-0.03172747,0.3277,0.58881
59.619,17.48781,-0.03359669,0.33276,0.58903
60.119,17.69053,-0.03345089,0.33075,0.58925
60.619,17.89079,-0.03476999,0.33449,0.58948
61.119,18.08896,-0.0346384,0.33896,0.5897
61.619,18.28603,-0.03609351,0.35538,0.58992
62.119,18.4805,-0.03780025,0.352,0.59014
62.619,18.67411,-0.03653018,0.36207,0.59036
63.119,18.86557,-0.03595987,0.363,0.59058
63.619,19.05579,-0.03936655,0.37249,0.5908
64.119,19.2449,-0.03819354,0.3661,0.59101
64.619,19.43214,-0.04101529,0.38989,0.59123
65.119,19.61823,-0.04101924,0.40164,0.59145
65.619,19.80356,-0.04230365,0.41713,0.59166
66.119,19.98777,-0.04246893,0.41869,0.59188
66.619,20.17207,-0.04224889,0.41533,0.59209
67.119,20.356,-0.04421817,0.41555,0.59231
67.619,20.53849,-0.04563005,0.42381,0.59252
68.119,20.72044,-0.04563,0.43383,0.59273
68.619,20.90147,-0.04561665,0.44795,0.59294
69.119,21.0807,-0.04695004,0.43359,0.59316
69.619,21.259,-0.04958565,0.4583,0.59337
70.119,21.4366,-0.05089093,0.45638,0.59358
70.619,21.61401,-0.04825567,0.46362,0.59379
71.119,21.79111,-0.05002194,0.47673,0.59399
71.619,21.96799,-0.05133803,0.47193,0.5942
72.119,22.1453,-0.05134806,0.49394,0.59441
72.619,22.32239,-0.05386986,0.4909,0.59462
73.119,22.49956,-0.0559403,0.48733,0.59482
73.619,22.67516,-0.05460454,0.49918,0.59503
74.119,22.8497,-0.05564867,0.50089,0.59523
74.619,23.02383,-0.05725202,0.50741,0.59544
75.119,23.19681,-0.05856995,0.50039,0.59564
75.619,23.37012,-0.05856478,0.50534,0.59584
76.119,23.54257,-0.05989363,0.52448,0.59604
76.619,23.71483,-0.05988747,0.51982,0.59625
77.119,23.88755,-0.06119999,0.5273,0.59645
77.619,24.05903,-0.06209644,0.53157,0.59665
78.119,24.2307,-0.06257099,0.53756,0.59685
78.619,24.40184,-0.06521522,0.53142,0.59705
79.119,24.5728,-0.06657377,0.5492,0.59724
79.619,24.74411,-0.06713262,0.54447,0.59744
80.119,24.91525,-0.06715125,0.55528,0.59764
80.619,25.08653,-0.06712707,0.55821,0.59783
81.119,25.25816,-0.06911068,0.56263,0.59803
81.619,25.42919,-0.06911214,0.56576,0.59822
82.119,25.5998,-0.07304895,0.55864,0.59842
82.619,25.77069,-0.07305971,0.56516,0.59861
83.119,25.94067,-0.0729598,0.5745,0.5988
83.619,26.11027,-0.07295882,0.56878,0.599
84.119,26.27989,-0.07567881,0.57432,0.59919
84.619,26.44903,-0.07569174,0.58937,0.59938
85.119,26.6167,-0.07737336,0.58825,0.59957
85.619,26.78547,-0.07844652,0.59421,0.59976
86.119,26.95338,-0.082248,0.60199,0.59995
86.619,27.12095,-0.08094365,0.58876,0.60014
87.119,27.28952,-0.08372203,0.58746,0.60032
87.619,27.457,-0.08261201,0.59287,0.60051
88.119,27.6246,-0.08456776,0.59975,0.6007
88.619,27.7916,-0.0862112,0.60803,0.60088
89.119,27.9583,-0.08724801,0.5993,0.60107
89.619,28.12417,-0.08851998,0.59201,0.60125
90.119,28.2903,-0.08851999,0.6013,0.60143
90.619,28.4566,-0.09110166,0.59751,0.60162
91.119,28.6206,-0.08930904,0.59988,0.6018
91.619,28.7853,-0.09146822,0.59473,0.60198
92.119,28.95014,-0.09475838,0.60457,0.60216
92.619,29.1156,-0.09443873,0.60167,0.60234
93.119,29.28225,-0.09286124,0.6077,0.60252
93.619,29.4489,-0.09486623,0.61004,0.6027
94.119,29.61417,-0.09718045,0.62818,0.60288
94.619,29.77839,-0.09850258,0.61347,0.60306
95.119,29.942,-0.09871333,0.61113,0.60323
95.619,30.10598,-0.09992989,0.61031,0.60341
96.119,30.27068,-0.10059,0.62223,0.60358
96.619,30.4349,-0.10255,0.61223,0.60376
97.119,30.5994,-0.10519,0.62164,0.60393
97.619,30.76284,-0.10277,0.62938,0.60411
98.119,30.92587,-0.10552,0.62593,0.60428
98.619,31.0883,-0.10552,0.62465,0.60445
99.119,31.25103,-0.10702,0.61486,0.60462
99.619,31.4138,-0.10946,0.62404,0.6048
100.119,31.5765,-0.1095,0.62612,0.60497
100.619,31.73883,-0.11079,0.62284,0.60514
101.119,31.9015,-0.11222,0.61883,0.6053
101.619,32.06364,-0.11221,0.61788,0.60547
102.119,32.2262,-0.11386,0.61913,0.60564
102.619,32.38957,-0.11559,0.62869,0.60581
103.119,32.5528,-0.11562,0.64073,0.60597
103.619,32.71584,-0.11747,0.61802,0.60614
104.119,32.8784,-0.11747,0.6261,0.6063
104.619,33.04091,-0.11888,0.63118,0.60647
105.119,33.20348,-0.11923,0.63418,0.60663
105.619,33.36606,-0.12111,0.61854,0.6068
106.119,33.52844,-0.12131,0.61475,0.60696
106.619,33.69024,-0.12365,0.61832,0.60712
107.119,33.8508,-0.12372,0.62751,0.60728
107.619,34.0113,-0.1254,0.62724,0.60744
108.119,34.17168,-0.12757,0.62213,0.6076
108.619,34.33273,-0.12559,0.6163,0.60776
109.119,34.49418,-0.12744,0.62066,0.60792
109.619,34.65667,-0.13021,0.61395,0.60807
110.119,34.82005,-0.12889,0.61512,0.60823
110.619,34.9827,-0.13152,0.61701,0.60839
111.119,35.14567,-0.13271,0.6134,0.60854
111.619,35.30724,-0.13287,0.61769,0.6087
112.119,35.46865,-0.13282,0.61933,0.60885
112.619,35.6304,-0.13547,0.60428,0.60901
113.119,35.79137,-0.13575,0.60005,0.60916
113.619,35.95285,-0.13678,0.60601,0.60931
114.119,36.11423,-0.13678,0.6021,0.60946
114.619,36.27465,-0.13922,0.59457,0.60961
115.119,36.43577,-0.13942,0.5968,0.60977
115.619,36.5983,-0.14073,0.60775,0.60991
116.119,36.76024,-0.142,0.5854,0.61006
116.619,36.92196,-0.14204,0.57725,0.61021
117.119,37.08404,-0.14934,0.58672,0.61036
117.619,37.2455,-0.14151,0.58852,0.61051
118.119,37.4062,-0.14329,0.58382,0.61065
118.619,37.56745,-0.14588,0.58518,0.6108
119.119,37.72855,-0.14721,0.58973,0.61094
119.619,37.889,-0.14749,0.58056,0.61109
120.119,38.05045,-0.14786,0.59077,0.61123
120.619,38.21138,-0.14828,0.58463,0.61138
121.119,38.37287,-0.14983,0.58133,0.61152
121.619,38.5345,-0.14983,0.57861,0.61166
122.119,38.695,-0.15093,0.57691,0.6118
122.619,38.85556,-0.15104,0.5692,0.61194
123.119,39.0163,-0.15378,0.56581,0.61208
123.619,39.1768,-0.15663,0.58175,0.61222
124.119,39.3374,-0.15576,0.57593,0.61236
124.619,39.49805,-0.15711,0.56527,0.6125
125.119,39.65855,-0.15817,0.57443,0.61263
125.619,39.81862,-0.15816,0.57992,0.61277
126.119,39.97907,-0.15981,0.58503,0.6129
126.619,40.1395,-0.16128,0.58121,0.61304
127.119,40.29873,-0.16113,0.58106,0.61317
127.619,40.4593,-0.16295,0.57814,0.61331
128.119,40.61886,-0.16393,0.5791,0.61344
128.619,40.7786,-0.16409,0.56101,0.61357
129.119,40.9385,-0.16409,0.57003,0.6137
129.619,41.09883,-0.16409,0.57404,0.61384
130.119,41.25857,-0.1665,0.56754,0.61397
130.619,41.41822,-0.16678,0.57452,0.6141
131.119,41.5783,-0.16671,0.55851,0.61422
131.619,41.73749,-0.16936,0.56781,0.61435
132.119,41.89682,-0.17069,0.56925,0.61448
132.619,42.0564,-0.16937,0.56176,0.61461
133.119,42.21529,-0.17166,0.55485,0.61473
133.619,42.37515,-0.17437,0.55985,0.61486
134.119,42.53494,-0.1743,0.56304,0.61499
134.619,42.69441,-0.17448,0.57513,0.61511
135.119,42.8536,-0.17563,0.55895,0.61523
135.619,43.01226,-0.17528,0.5629,0.61536
136.119,43.1711,-0.17657,0.56847,0.61548
136.619,43.33,-0.17824,0.58413,0.6156
137.119,43.4892,-0.17827,0.57017,0.61572
137.619,43.64804,-0.18085,0.57422,0.61584
138.119,43.80656,-0.18083,0.55778,0.61596
138.619,43.9647,-0.18083,0.55869,0.61608
139.119,44.12283,-0.18186,0.56194,0.6162
139.619,44.28138,-0.18186,0.57315,0.61632
140.119,44.43965,-0.18352,0.56736,0.61643
140.619,44.59751,-0.18385,0.56508,0.61655
141.119,44.7565,-0.18388,0.56565,0.61667
141.619,44.91471,-0.18647,0.56036,0.61678
142.119,45.07328,-0.18712,0.57695,0.6169
142.619,45.23263,-0.1891,0.56385,0.61701
143.119,45.3915,-0.1891,0.55946,0.61712
143.619,45.54996,-0.18847,0.54756,0.61724
144.119,45.7087,-0.18977,0.55275,0.61735
144.619,45.8673,-0.19041,0.54147,0.61746
145.119,46.0255,-0.19042,0.54313,0.61757
145.619,46.18334,-0.19305,0.55083,0.61768
146.119,46.34125,-0.19225,0.54958,0.61779
146.619,46.49946,-0.19173,0.54821,0.6179
147.119,46.65658,-0.19444,0.55061,0.618
147.619,46.8148,-0.19431,0.5458,0.61811
148.119,46.97224,-0.19608,0.54305,0.61822
148.619,47.13055,-0.19799,0.5403,0.61832
149.119,47.2886,-0.19667,0.53971,0.61843
149.619,47.4476,-0.19535,0.54228,0.61853
150.119,47.60624,-0.19796,0.54535,0.61864
150.619,47.76439,-0.19925,0.52805,0.61874
151.119,47.92224,-0.19989,0.51322,0.61884
151.619,48.07971,-0.19974,0.52576,0.61894
152.119,48.2365,-0.20234,0.52337,0.61905
152.619,48.39434,-0.20286,0.53131,0.61915
153.119,48.55167,-0.20171,0.52067,0.61925
153.619,48.70859,-0.20307,0.52372,0.61935
154.119,48.8664,-0.20436,0.51609,0.61944
154.619,49.02395,-0.20699,0.51918,0.61954
155.119,49.1815,-0.20703,0.52445,0.61964
155.619,49.3399,-0.20698,0.52968,0.61974
156.119,49.49794,-0.20699,0.51718,0.61983
156.619,49.6561,-0.2083,0.53094,0.61993
157.119,49.81345,-0.20853,0.5142,0.62002
157.619,49.97034,-0.2096,0.52772,0.62011
158.119,50.12746,-0.21092,0.51448,0.62021
158.619,50.28457,-0.21093,0.51485,0.6203
159.119,50.44207,-0.21183,0.52484,0.62039
159.619,50.60022,-0.2116,0.51368,0.62048
160.119,50.7575,-0.21225,0.50654,0.62057
160.619,50.91455,-0.21422,0.49248,0.62066
161.119,51.07192,-0.21356,0.49177,0.62075
161.619,51.22938,-0.21492,0.49906,0.62084
162.119,51.387,-0.21619,0.50875,0.62093
162.619,51.5441,-0.2162,0.50483,0.62102
163.119,51.70066,-0.21617,0.49917,0.6211
163.619,51.85729,-0.21757,0.50593,0.62119
164.119,52.01348,-0.22015,0.50882,0.62128
164.619,52.17047,-0.21916,0.50379,0.62136
165.119,52.32756,-0.21869,0.50593,0.62144
165.619,52.48367,-0.22014,0.50763,0.62153
166.119,52.64075,-0.22019,0.50701,0.62161
166.619,52.7968,-0.22014,0.5105,0.62169
167.119,52.95335,-0.22015,0.49446,0.62177
167.619,53.11121,-0.22277,0.5129,0.62185
168.119,53.2685,-0.22278,0.50403,0.62193
168.619,53.42626,-0.22283,0.50897,0.62201
169.119,53.5837,-0.22443,0.50896,0.62209
169.619,53.74126,-0.22311,0.52172,0.62217
170.119,53.89819,-0.22445,0.50745,0.62225
170.619,54.05545,-0.22563,0.51526,0.62233
171.119,54.21278,-0.22573,0.51995,0.6224
171.619,54.37021,-0.22668,0.51913,0.62248
172.119,54.52735,-0.22573,0.51181,0.62255
172.619,54.6843,-0.22705,0.50282,0.62263
173.119,54.84059,-0.2287,0.50547,0.6227
173.619,54.99677,-0.2287,0.49464,0.62277
174.119,55.15341,-0.22971,0.49788,0.62284
174.619,55.30969,-0.231,0.50419,0.62292
175.119,55.46665,-0.22968,0.49711,0.62299
175.619,55.6235,-0.2313,0.49262,0.62306
176.119,55.7803,-0.2324,0.50458,0.62313
176.619,55.9373,-0.23222,0.50313,0.6232
177.119,56.0942,-0.23396,0.49771,0.62326
177.619,56.2513,-0.23299,0.49729,0.62333
178.119,56.40758,-0.2344,0.51047,0.6234
178.619,56.5635,-0.2344,0.5137,0.62346
179.119,56.7195,-0.23549,0.51153,0.62353
179.619,56.87477,-0.23605,0.51287,0.6236
180.119,57.03154,-0.238,0.51279,0.62366
180.619,57.1901,-0.23732,0.51607,0.62372
181.119,57.34835,-0.23735,0.52495,0.62379
181.619,57.5071,-0.23868,0.51729,0.62385
182.119,57.665,-0.23867,0.51124,0.62391
182.619,57.82207,-0.23999,0.50278,0.62397
183.119,57.9791,-0.24098,0.51073,0.62403
183.619,58.13649,-0.24098,0.507,0.62409
184.119,58.2935,-0.24098,0.49454,0.62415
184.619,58.45055,-0.24098,0.50786,0.62421
185.119,58.6074,-0.24131,0.50227,0.62427
185.619,58.7631,-0.24263,0.52233,0.62432
186.119,58.91986,-0.24399,0.50774,0.62438
186.619,59.0762,-0.2352,0.51238,0.62444
187.119,59.23251,-0.24362,0.51556,0.62449
187.619,59.38961,-0.2446,0.50611,0.62455
188.119,59.54616,-0.2446,0.5024,0.6246
188.619,59.7025,-0.2446,0.50612,0.62465
189.119,59.85835,-0.24938,0.50331,0.62471
189.619,60.014,-0.24415,0.52004,0.62476
190.119,60.17,-0.24691,0.51281,0.62481
190.619,60.32639,-0.24691,0.52002,0.62486
191.119,60.48315,-0.24757,0.53458,0.62491
191.619,60.64099,-0.24757,0.53292,0.62496
192.119,60.79745,-0.24757,0.52441,0.62501
192.619,60.95389,-0.25342,0.53609,0.62506
193.119,61.10955,-0.24856,0.54089,0.6251
193.619,61.2654,-0.24832,0.53449,0.62515
194.119,61.42156,-0.25193,0.53938,0.6252
194.619,61.57764,-0.24801,0.53486,0.62524
195.119,61.7335,-0.25152,0.52227,0.62529
195.619,61.8897,-0.25052,0.51081,0.62533
196.119,62.04599,-0.25218,0.50944,0.62538
196.619,62.20222,-0.25054,0.51652,0.62542
197.119,62.3583,-0.25217,0.51119,0.62546
197.619,62.51405,-0.25217,0.52238,0.6255
198.119,62.6697,-0.25217,0.5175,0.62554
198.619,62.82577,-0.25348,0.51607,0.62558
199.119,62.98189,-0.2548,0.512,0.62562
199.619,63.13853,-0.25348,0.50665,0.62566
200.119,63.29526,-0.25612,0.49928,0.6257
200.619,63.45182,-0.25612,0.51298,0.62574
201.119,63.60821,-0.2548,0.50979,0.62578
201.619,63.7638,-0.25677,0.50187,0.62581
202.119,63.92005,-0.25711,0.49996,0.62585
202.619,64.07549,-0.25842,0.49398,0.62588
203.119,64.2309,-0.25908,0.49774,0.62592
203.619,64.38686,-0.25974,0.48075,0.62595
204.119,64.54261,-0.25974,0.48389,0.62598
204.619,64.69838,-0.26106,0.49611,0.62602
205.119,64.8544,-0.26012,0.48424,0.62605
205.619,65.01018,-0.26139,0.48914,0.62608
206.119,65.1664,-0.26204,0.48498,0.62611
206.619,65.3225,-0.26204,0.49631,0.62614
207.119,65.479,-0.26208,0.50367,0.62617
207.619,65.63543,-0.26334,0.50291,0.6262
208.119,65.79182,-0.26166,0.51166,0.62623
208.619,65.94793,-0.26406,0.50672,0.62626
209.119,66.10374,-0.26165,0.50685,0.62628
209.619,66.25793,-0.26434,0.49728,0.62631
210.119,66.4118,-0.26466,0.49205,0.62633
210.619,66.5676,-0.26671,0.50477,0.62636
211.119,66.7236,-0.26534,0.5041,0.62638
211.619,66.88099,-0.26662,0.50772,0.62641
212.119,67.03883,-0.26534,0.48532,0.62643
212.619,67.19585,-0.26603,0.49375,0.62645
213.119,67.35195,-0.26648,0.47754,0.62647
213.619,67.50761,-0.26815,0.48785,0.6265
214.119,67.66396,-0.26697,0.49698,0.62652
214.619,67.8201,-0.26666,0.49058,0.62654
215.119,67.97625,-0.26797,0.48231,0.62655
215.619,68.133,-0.26895,0.476,0.62657
216.119,68.28973,-0.2683,0.48498,0.62659
216.619,68.4457,-0.26697,0.48074,0.62661
217.119,68.60141,-0.26961,0.47677,0.62663
217.619,68.75737,-0.27006,0.48316,0.62664
218.119,68.9123,-0.26819,0.47814,0.62666
218.619,69.06689,-0.27092,0.46871,0.62667
219.119,69.22208,-0.27026,0.4692,0.62669
219.619,69.37743,-0.27157,0.46892,0.6267
220.119,69.53318,-0.27158,0.48584,0.62671
220.619,69.68926,-0.27158,0.48294,0.62672
221.119,69.84568,-0.27239,0.51048,0.62674
221.619,70.00148,-0.27378,0.50858,0.62675
222.119,70.15811,-0.2729,0.50018,0.62676
222.619,70.31479,-0.27552,0.50528,0.62677
223.119,70.47083,-0.276,0.50222,0.62678
223.619,70.6268,-0.27586,0.50362,0.62678
224.119,70.78281,-0.27784,0.511,0.62679
224.619,70.93875,-0.27718,0.51624,0.6268
225.119,71.0951,-0.27718,0.50109,0.62681
225.619,71.25184,-0.27586,0.50572,0.62681
226.119,71.4088,-0.27782,0.5026,0.62682
226.619,71.56529,-0.27917,0.51354,0.62682
227.119,71.72194,-0.2792,0.50668,0.62683
227.619,71.87814,-0.27915,0.51171,0.62683
228.119,72.03454,-0.28047,0.50255,0.62683
228.619,72.1908,-0.27918,0.50379,0.62683
229.119,72.34761,-0.28169,0.50951,0.62684
229.619,72.50401,-0.28167,0.5009,0.62684
230.119,72.66111,-0.28299,0.5098,0.62684
230.619,72.818,-0.28332,0.49981,0.62684
231.119,72.97381,-0.282,0.51118,0.62684
231.619,73.13,-0.28463,0.50281,0.62683
232.119,73.28619,-0.28563,0.50309,0.62683
232.619,73.44246,-0.28643,0.5082,0.62683
233.119,73.59959,-0.28562,0.51603,0.62683
233.619,73.75607,-0.28586,0.50799,0.62682
234.119,73.913,-0.28731,0.50791,0.62682
234.619,74.0701,-0.29388,0.51884,0.62681
235.119,74.2267,-0.28711,0.51707,0.62681
235.619,74.38351,-0.28989,0.51147,0.6268
236.119,74.54038,-0.28851,0.51834,0.62679
236.619,74.69703,-0.29122,0.51887,0.62678
237.119,74.85413,-0.28896,0.51077,0.62678
237.619,75.0112,-0.29122,0.51087,0.62677
238.119,75.16819,-0.29046,0.51629,0.62676
238.619,75.32514,-0.29319,0.52504,0.62675
239.119,75.48186,-0.29264,0.52972,0.62674
239.619,75.63781,-0.29396,0.52068,0.62672
240.119,75.79441,-0.29421,0.52464,0.62671
240.619,75.95023,-0.29428,0.52955,0.6267
241.119,76.10638,-0.29429,0.53038,0.62669
241.619,76.26252,-0.29693,0.52434,0.62667
242.119,76.4191,-0.29629,0.53574,0.62666
242.619,76.57571,-0.29766,0.52149,0.62664
243.119,76.73224,-0.29889,0.52956,0.62663
243.619,76.8883,-0.29934,0.53317,0.62661
244.119,77.04476,-0.29951,0.53499,0.62659
244.619,77.2004,-0.30065,0.5488,0.62658
245.119,77.3563,-0.30321,0.54201,0.62656
245.619,77.5125,-0.30093,0.54227,0.62654
246.119,77.66851,-0.3023,0.55397,0.62652
246.619,77.82497,-0.30338,0.55367,0.6265
247.119,77.98139,-0.30493,0.5449,0.62648
247.619,78.13773,-0.30362,0.56846,0.62646
248.119,78.29419,-0.30491,0.57252,0.62643
248.619,78.45029,-0.30395,0.56167,0.62641
249.119,78.6066,-0.30526,0.57326,0.62639
249.619,78.763,-0.30461,0.5716,0.62637
250.119,78.91915,-0.30702,0.56203,0.62634
250.619,79.0757,-0.30789,0.5748,0.62632
251.119,79.23232,-0.30789,0.56765,0.62629
251.619,79.38842,-0.30984,0.58394,0.62626
252.119,79.545,-0.30986,0.58147,0.62624
252.619,79.70058,-0.30847,0.58192,0.62621
253.119,79.85625,-0.31118,0.58811,0.62618
253.619,80.01209,-0.31136,0.59117,0.62615
254.119,80.16843,-0.3125,0.58584,0.62612
254.619,80.32513,-0.31389,0.59345,0.62609
255.119,80.48238,-0.3138,0.59226,0.62606
255.619,80.63959,-0.31513,0.59301,0.62603
256.119,80.79698,-0.31504,0.59166,0.626
256.619,80.95415,-0.31517,0.6047,0.62597
257.119,81.11109,-0.31776,0.59426,0.62594
257.619,81.2678,-0.31781,0.60158,0.6259
258.119,81.4243,-0.31984,0.59806,0.62587
258.619,81.5805,-0.3184,0.61466,0.62583
259.119,81.73687,-0.31998,0.60896,0.6258
259.619,81.89361,-0.3228,0.61112,0.62576
260.119,82.05028,-0.32276,0.61811,0.62572
260.619,82.20707,-0.32389,0.63708,0.62569
261.119,82.3638,-0.32534,0.63742,0.62565
261.619,82.51983,-0.32661,0.64538,0.62561
262.119,82.67622,-0.32665,0.65112,0.62557
262.619,82.83238,-0.32796,0.66465,0.62553
263.119,82.98872,-0.32928,0.66265,0.62549
263.619,83.14536,-0.32797,0.67083,0.62545
264.119,83.30194,-0.32331,0.66842,0.62541
264.619,83.45866,-0.3293,0.68128,0.62537
265.119,83.61516,-0.32712,0.66148,0.62533
265.619,83.77141,-0.33334,0.66122,0.62528
266.119,83.92788,-0.33334,0.66401,0.62524
266.619,84.08426,-0.33465,0.66291,0.6252
267.119,84.24088,-0.33498,0.65716,0.62515
267.619,84.39721,-0.33479,0.66478,0.6251
268.119,84.55376,-0.33748,0.67115,0.62506
268.619,84.71088,-0.33514,0.66524,0.62501
269.119,84.8674,-0.33838,0.67487,0.62496
269.619,85.02423,-0.33971,0.6752,0.62492
270.119,85.1811,-0.3445,0.68141,0.62487
270.619,85.33781,-0.34046,0.6632,0.62482
271.119,85.4944,-0.34032,0.68955,0.62477
271.619,85.65129,-0.34323,0.68814,0.62472
272.119,85.80785,-0.34442,0.6886,0.62467
272.619,85.96465,-0.34471,0.69036,0.62462
273.119,86.12132,-0.34474,0.69156,0.62456
273.619,86.27667,-0.34605,0.69708,0.62451
274.119,86.43308,-0.34606,0.69891,0.62446
274.619,86.5887,-0.34743,0.70498,0.62441
275.119,86.74431,-0.34869,0.70622,0.62435
275.619,86.90106,-0.34968,0.70141,0.6243
276.119,87.05771,-0.35055,0.69285,0.62424
276.619,87.2149,-0.35099,0.70148,0.62418
277.119,87.37252,-0.35228,0.69945,0.62413
277.619,87.52988,-0.35363,0.69353,0.62407
278.119,87.68768,-0.35495,0.68993,0.62401
278.619,87.845,-0.35483,0.68594,0.62395
279.119,88.0018,-0.35658,0.69004,0.62389
279.619,88.15853,-0.35659,0.69516,0.62383
280.119,88.31526,-0.35525,0.70313,0.62377
280.619,88.4718,-0.36023,0.71721,0.62371
281.119,88.62872,-0.36152,0.70756,0.62365
281.619,88.78618,-0.36021,0.7138,0.62359
282.119,88.9435,-0.36152,0.71936,0.62353
282.619,89.10089,-0.36348,0.71583,0.62346
283.119,89.25843,-0.36522,0.71864,0.6234
283.619,89.41552,-0.36414,0.72469,0.62334
284.119,89.57258,-0.36581,0.72286,0.62327
284.619,89.72978,-0.3658,0.71868,0.62321
285.119,89.88693,-0.36712,0.72935,0.62314
285.619,90.04417,-0.36843,0.72974,0.62307
286.119,90.2011,-0.36975,0.72624,0.62301
286.619,90.35814,-0.37004,0.72249,0.62294
287.119,90.51491,-0.37103,0.71891,0.62287
287.619,90.67178,-0.3738,0.70792,0.6228
288.119,90.8292,-0.37239,0.71095,0.62273
288.619,90.98646,-0.37364,0.71834,0.62266
289.119,91.14384,-0.37633,0.71853,0.62259
289.619,91.3018,-0.37503,0.72516,0.62252
290.119,91.45872,-0.37765,0.7266,0.62245
290.619,91.61593,-0.37896,0.71954,0.62237
291.119,91.77323,-0.38028,0.72844,0.6223
291.619,91.93004,-0.3816,0.7148,0.62223
292.119,92.08631,-0.38138,0.7259,0.62215
292.619,92.24343,-0.38418,0.72343,0.62208
293.119,92.4002,-0.38686,0.7236,0.622
293.619,92.55726,-0.38624,0.71641,0.62193
294.119,92.7148,-0.3871,0.71278,0.62185
294.619,92.87238,-0.38936,0.71697,0.62177
295.119,93.03011,-0.38939,0.73756,0.6217
295.619,93.188,-0.38991,0.74023,0.62162
296.119,93.34563,-0.39202,0.73947,0.62154
296.619,93.5031,-0.39302,0.73337,0.62146
297.119,93.66049,-0.39605,0.73739,0.62138
297.619,93.81791,-0.39465,0.71925,0.6213
298.119,93.97525,-0.39457,0.71962,0.62122
298.619,94.13207,-0.3973,0.71595,0.62114
299.119,94.28933,-0.39863,0.72415,0.62106
299.619,94.44672,-0.39986,0.71611,0.62097
300.119,94.60441,-0.40063,0.71364,0.62089
300.619,94.76231,-0.40373,0.71901,0.62081
301.119,94.92031,-0.40444,0.71522,0.62072
301.619,95.07821,-0.40493,0.70763,0.62064
302.119,95.23564,-0.40705,0.71454,0.62055
302.619,95.39326,-0.40866,0.71163,0.62047
303.119,95.55068,-0.40858,0.70689,0.62038
303.619,95.70804,-0.41097,0.71559,0.62029
304.119,95.86577,-0.41088,0.7221,0.6202
304.619,96.02298,-0.41312,0.70636,0.62012
305.119,96.17907,-0.41285,0.70991,0.62003
305.619,96.33538,-0.41556,0.70412,0.61994
306.119,96.49168,-0.41447,0.69678,0.61985
306.619,96.64871,-0.41745,0.69184,0.61976
307.119,96.80716,-0.41883,0.7024,0.61967
307.619,96.96562,-0.41845,0.7007,0.61957
308.119,97.12424,-0.42121,0.70022,0.61948
308.619,97.2826,-0.42306,0.68734,0.61939
309.119,97.44021,-0.42471,0.69648,0.6193
309.619,97.598,-0.42602,0.6825,0.6192
310.119,97.75511,-0.42629,0.68918,0.61911
310.619,97.91291,-0.4288,0.68481,0.61901
311.119,98.0702,-0.42926,0.68461,0.61892
311.619,98.22797,-0.43053,0.70287,0.61882
312.119,98.38587,-0.43209,0.69926,0.61872
312.619,98.54406,-0.43298,0.70708,0.61863
313.119,98.7017,-0.43304,0.69891,0.61853
313.619,98.85981,-0.43459,0.70383,0.61843
314.119,99.01751,-0.4359,0.69638,0.61833
314.619,99.17475,-0.4372,0.69488,0.61823
315.119,99.33301,-0.43821,0.69377,0.61813
315.619,99.49104,-0.43983,0.69436,0.61803
316.119,99.64922,-0.44083,0.67783,0.61793
316.619,99.8079,-0.44393,0.68095,0.61783
317.119,99.9662,-0.44425,0.67933,0.61773
317.619,100.125,-0.44522,0.67436,0.61763
318.119,100.283,-0.44664,0.68334,0.61752
318.619,100.441,-0.44796,0.68678,0.61742
319.119,100.6,-0.44928,0.69199,0.61731
319.619,100.758,-0.45567,0.69294,0.61721
320.119,100.916,-0.45289,0.69721,0.6171
320.619,101.074,-0.45481,0.67987,0.617
321.119,101.2321,-0.45839,0.69022,0.61689
321.619,101.39,-0.45686,0.6692,0.61679
322.119,101.548,-0.45639,0.6756,0.61668
322.619,101.706,-0.45804,0.66432,0.61657
323.119,101.865,-0.46069,0.66383,0.61646
323.619,102.023,-0.46346,0.64905,0.61635
324.119,102.182,-0.46473,0.6519,0.61624
324.619,102.34,-0.4654,0.66493,0.61613
325.119,102.498,-0.46738,0.66049,0.61602
325.619,102.656,-0.46739,0.66536,0.61591
326.119,102.814,-0.47029,0.66816,0.6158
326.619,102.973,-0.47302,0.67029,0.61569
327.119,103.131,-0.47431,0.68163,0.61557
327.619,103.2886,-0.47561,0.67278,0.61546
328.119,103.447,-0.47833,0.67065,0.61535
328.619,103.6056,-0.47896,0.6598,0.61523
329.119,103.764,-0.48084,0.68686,0.61512
329.619,103.923,-0.4823,0.66725,0.615
330.119,104.081,-0.48239,0.68112,0.61488
330.619,104.239,-0.48506,0.683,0.61477
331.119,104.398,-0.48902,0.67807,0.61465
331.619,104.556,-0.48929,0.67769,0.61453
332.119,104.714,-0.49172,0.67214,0.61441
332.619,104.872,-0.49305,0.68231,0.6143
333.119,105.031,-0.49156,0.67329,0.61418
333.619,105.189,-0.49924,0.67752,0.61406
334.119,105.348,-0.50113,0.68156,0.61394
334.619,105.507,-0.49776,0.67634,0.61382
335.119,105.666,-0.5017,0.66898,0.61369
335.619,105.825,-0.50303,0.66188,0.61357
336.119,105.984,-0.50558,0.66187,0.61345
336.619,106.144,-0.50693,0.67552,0.61333
337.119,106.3024,-0.50983,0.66873,0.6132
337.619,106.461,-0.51033,0.66229,0.61308
338.119,106.62,-0.51216,0.6676,0.61296
338.619,106.779,-0.51485,0.67612,0.61283
339.119,106.938,-0.51643,0.65542,0.6127
339.619,107.096,-0.52019,0.64617,0.61258
340.119,107.255,-0.52147,0.65577,0.61245
340.619,107.414,-0.52404,0.64482,0.61232
341.119,107.5731,-0.52409,0.66093,0.6122
341.619,107.732,-0.52573,0.65191,0.61207
342.119,107.891,-0.52691,0.65769,0.61194
342.619,108.051,-0.52968,0.65105,0.61181
343.119,108.21,-0.53242,0.6468,0.61168
343.619,108.369,-0.53375,0.63298,0.61155
344.119,108.528,-0.53508,0.64403,0.61142
344.619,108.687,-0.53627,0.63735,0.61129
345.119,108.8462,-0.53899,0.63651,0.61116
345.619,109.005,-0.54163,0.63756,0.61103
346.119,109.164,-0.54295,0.647,0.61089
346.619,109.323,-0.54425,0.63103,0.61076
347.119,109.482,-0.5469,0.62591,0.61063
347.619,109.642,-0.54755,0.63297,0.61049
348.119,109.802,-0.55018,0.62164,0.61036
348.619,109.962,-0.55282,0.63898,0.61022
349.119,110.121,-0.55136,0.63197,0.61009
349.619,110.281,-0.554,0.61224,0.60995
350.119,110.441,-0.5622,0.61813,0.60981
350.619,110.6013,-0.55851,0.60383,0.60967
351.119,110.761,-0.56198,0.59357,0.60954
351.619,110.921,-0.5632,0.5912,0.6094
352.119,111.08,-0.56194,0.5743,0.60926
352.619,111.24,-0.56291,0.58533,0.60912
353.119,111.4,-0.56422,0.56986,0.60898
353.619,111.56,-0.56591,0.56618,0.60884
354.119,111.72,-0.56731,0.56316,0.6087
354.619,111.879,-0.56828,0.54477,0.60856
355.119,112.039,-0.56993,0.54798,0.60842
355.619,112.198,-0.56857,0.54089,0.60827
356.119,112.357,-0.57081,0.53318,0.60813
356.619,112.516,-0.57245,0.53208,0.60799
357.119,112.676,-0.57114,0.51125,0.60784
357.619,112.835,-0.57246,0.51079,0.6077
358.119,112.995,-0.57378,0.50695,0.60755
358.619,113.155,-0.57508,0.49749,0.60741
359.119,113.315,-0.57509,0.49117,0.60726
359.619,113.475,-0.57738,0.48858,0.60712
360.119,113.635,-0.5777,0.48059,0.60697
360.619,113.795,-0.57686,0.48295,0.60682
361.119,113.954,-0.57521,0.47271,0.60667
361.619,114.112,-0.57815,0.4697,0.60653
362.119,114.271,-0.58058,0.45981,0.60638
362.619,114.4306,-0.57947,0.47022,0.60623
363.119,114.591,-0.57809,0.46467,0.60608
363.619,114.7523,-0.58078,0.48053,0.60593
364.119,114.913,-0.57952,0.47143,0.60578
364.619,115.074,-0.58093,0.47075,0.60563
365.119,115.234,-0.5821,0.47053,0.60547
365.619,115.395,-0.58342,0.46913,0.60532
366.119,115.5552,-0.581,0.47282,0.60517
366.619,115.715,-0.58342,0.46046,0.60502
367.119,115.875,-0.58342,0.46872,0.60486
367.619,116.035,-0.58339,0.46733,0.60471
368.119,116.1945,-0.58473,0.46023,0.60455
368.619,116.3542,-0.5852,0.4761,0.6044
369.119,116.514,-0.58639,0.47051,0.60424
369.619,116.674,-0.58604,0.4802,0.60409
370.119,116.834,-0.58671,0.47298,0.60393
370.619,116.994,-0.58671,0.45822,0.60377
371.119,117.154,-0.58767,0.46488,0.60362
371.619,117.314,-0.58802,0.46537,0.60346
372.119,117.474,-0.58802,0.46015,0.6033
372.619,117.634,-0.58935,0.46099,0.60314
373.119,117.795,-0.59069,0.45438,0.60298
373.619,117.955,-0.59074,0.45841,0.60282
374.119,118.115,-0.59209,0.45816,0.60266
374.619,118.275,-0.59079,0.45025,0.6025
375.119,118.435,-0.59078,0.45535,0.60234
375.619,118.595,-0.59012,0.45547,0.60218
376.119,118.755,-0.59012,0.45547,0.60201
376.619,118.915,-0.59142,0.45533,0.60185
377.119,119.076,-0.59194,0.45944,0.60169
377.619,119.237,-0.59371,0.46399,0.60152
378.119,119.398,-0.59494,0.46981,0.60136
378.619,119.558,-0.59382,0.46233,0.60119
379.119,119.72,-0.59363,0.45738,0.60103
379.619,119.881,-0.59494,0.47124,0.60086
380.119,120.041,-0.59494,0.45972,0.6007
380.619,120.203,-0.59353,0.46769,0.60053
381.119,120.3641,-0.59483,0.45565,0.60036
381.619,120.524,-0.59583,0.45185,0.6002
382.119,120.685,-0.59611,0.47439,0.60003
382.619,120.846,-0.59648,0.45309,0.59986
383.119,121.007,-0.59712,0.45057,0.59969
383.619,121.168,-0.59845,0.43935,0.59952
384.119,121.33,-0.59994,0.44826,0.59935
384.619,121.491,-0.59887,0.43793,0.59918
385.119,121.652,-0.60137,0.44158,0.59901
385.619,121.8131,-0.60093,0.41737,0.59884
386.119,121.974,-0.59914,0.43076,0.59867
386.619,122.1351,-0.60072,0.43628,0.5985
387.119,122.296,-0.60207,0.44415,0.59832
387.619,122.456,-0.6024,0.43445,0.59815
388.119,122.617,-0.60273,0.44353,0.59798
388.619,122.778,-0.60273,0.43696,0.5978
389.119,122.939,-0.60417,0.44323,0.59763
389.619,123.101,-0.60524,0.44352,0.59745
390.119,123.2626,-0.60272,0.43894,0.59728
390.619,123.423,-0.60547,0.43402,0.5971
391.119,123.585,-0.60567,0.43178,0.59693
391.619,123.745,-0.60727,0.43439,0.59675
392.119,123.906,-0.607,0.42836,0.59657
392.619,124.066,-0.60832,0.4221,0.5964
393.119,124.227,-0.607,0.42845,0.59622
393.619,124.387,-0.60964,0.42403,0.59604
394.119,124.547,-0.61062,0.42448,0.59586
394.619,124.707,-0.61049,0.41809,0.59568
395.119,124.867,-0.61055,0.41336,0.5955
395.619,125.027,-0.60963,0.41049,0.59532
396.119,125.188,-0.6083,0.41715,0.59514
396.619,125.35,-0.6083,0.42045,0.59496
397.119,125.511,-0.61063,0.41875,0.59478
397.619,125.672,-0.61194,0.41683,0.59459
398.119,125.833,-0.61063,0.41458,0.59441
398.619,125.994,-0.61184,0.40864,0.59423
399.119,126.154,-0.61335,0.39713,0.59405
399.619,126.316,-0.61391,0.41239,0.59386
400.119,126.476,-0.61524,0.40834,0.59368
400.619,126.637,-0.61391,0.40119,0.59349
401.119,126.799,-0.61392,0.41185,0.59331
401.619,126.96,-0.61622,0.41362,0.59312
402.119,127.121,-0.61762,0.40911,0.59294
402.619,127.283,-0.61786,0.41445,0.59275
403.119,127.444,-0.61653,0.42482,0.59256
403.619,127.605,-0.61658,0.42276,0.59238
404.119,127.765,-0.61724,0.42927,0.59219
404.619,127.926,-0.61916,0.4291,0.592
405.119,128.086,-0.61789,0.42784,0.59181
405.619,128.247,-0.61918,0.44188,0.59162
406.119,128.409,-0.62046,0.42532,0.59143
406.619,128.571,-0.62049,0.43448,0.59124
407.119,128.733,-0.62181,0.43864,0.59105
407.619,128.896,-0.62148,0.43219,0.59086
408.119,129.059,-0.62181,0.43688,0.59067
408.619,129.222,-0.62199,0.43856,0.59048
409.119,129.385,-0.62215,0.43151,0.59029
409.619,129.5476,-0.62313,0.4291,0.59009
410.119,129.71,-0.62352,0.43203,0.5899
410.619,129.872,-0.62412,0.42568,0.58971
411.119,130.034,-0.62315,0.42586,0.58951
411.619,130.196,-0.62577,0.42701,0.58932
412.119,130.358,-0.62445,0.42777,0.58912
412.619,130.52,-0.62675,0.42969,0.58893
413.119,130.681,-0.62748,0.41833,0.58873
413.619,130.842,-0.62609,0.42478,0.58854
414.119,131.004,-0.6277,0.42066,0.58834
414.619,131.165,-0.62772,0.41918,0.58814
415.119,131.328,-0.62838,0.42632,0.58795
415.619,131.491,-0.62713,0.40822,0.58775
416.119,131.653,-0.62867,0.42367,0.58755
416.619,131.816,-0.62839,0.42866,0.58735
417.119,131.979,-0.62954,0.44202,0.58715
417.619,132.142,-0.62966,0.42558,0.58695
418.119,132.306,-0.62971,0.42001,0.58676
418.619,132.469,-0.6284,0.41531,0.58655
419.119,132.632,-0.63069,0.43999,0.58635
419.619,132.796,-0.63098,0.42612,0.58615
420.119,132.959,-0.63115,0.43668,0.58595
420.619,133.121,-0.63235,0.4384,0.58575
421.119,133.285,-0.63347,0.43194,0.58555
421.619,133.447,-0.63203,0.42692,0.58535
422.119,133.61,-0.63201,0.42352,0.58514
422.619,133.773,-0.63432,0.42333,0.58494
423.119,133.936,-0.63432,0.43436,0.58474
423.619,134.098,-0.63367,0.4296,0.58453
424.119,134.261,-0.63494,0.4316,0.58433
424.619,134.423,-0.63512,0.44368,0.58412
425.119,134.586,-0.63432,0.42689,0.58392
425.619,134.748,-0.63525,0.43478,0.58371
426.119,134.91,-0.63537,0.44066,0.5835
426.619,135.072,-0.63531,0.42475,0.5833
427.119,135.234,-0.63662,0.43515,0.58309
427.619,135.397,-0.6366,0.42814,0.58288
428.119,135.56,-0.63794,0.42888,0.58267
428.619,135.724,-0.63818,0.42887,0.58247
429.119,135.886,-0.63926,0.44557,0.58226
429.619,136.048,-0.63926,0.43758,0.58205
430.119,136.211,-0.63926,0.4271,0.58184
430.619,136.3731,-0.63874,0.44118,0.58163
431.119,136.536,-0.64128,0.44631,0.58142
431.619,136.698,-0.64122,0.43281,0.58121
432.119,136.861,-0.64189,0.43024,0.581
432.619,137.023,-0.64268,0.44422,0.58079
433.119,137.185,-0.64317,0.43954,0.58057
433.619,137.348,-0.64255,0.44988,0.58036
434.119,137.511,-0.64412,0.43848,0.58015
434.619,137.675,-0.64278,0.44375,0.57994
435.119,137.839,-0.64546,0.43308,0.57972
435.619,138.001,-0.6442,0.44183,0.57951
436.119,138.165,-0.64485,0.44845,0.57929
436.619,138.328,-0.64605,0.44432,0.57908
437.119,138.491,-0.64618,0.44813,0.57886
437.619,138.655,-0.64682,0.45907,0.57865
438.119,138.817,-0.64649,0.45289,0.57843
438.619,138.98,-0.64717,0.45619,0.57822
439.119,139.143,-0.64715,0.45909,0.578
439.619,139.307,-0.64979,0.45879,0.57778
440.119,139.47,-0.64844,0.46685,0.57757
440.619,139.634,-0.64978,0.4655,0.57735
441.119,139.798,-0.6511,0.46658,0.57713
441.619,139.961,-0.64978,0.47613,0.57691
442.119,140.1252,-0.65101,0.46848,0.57669
442.619,140.29,-0.6511,0.47434,0.57647
443.119,140.454,-0.65241,0.46736,0.57625
443.619,140.619,-0.65136,0.46053,0.57603
444.119,140.783,-0.65242,0.46654,0.57581
444.619,140.947,-0.65373,0.46707,0.57559
445.119,141.111,-0.65373,0.46863,0.57537
445.619,141.274,-0.65172,0.47908,0.57515
446.119,141.438,-0.65374,0.46094,0.57493
446.619,141.601,-0.65499,0.46507,0.57471
447.119,141.7635,-0.65407,0.46636,0.57448
447.619,141.9272,-0.655,0.46603,0.57426
448.119,142.092,-0.65601,0.45762,0.57404
448.619,142.255,-0.65645,0.46165,0.57381
449.119,142.4193,-0.65702,0.46971,0.57359
449.619,142.5824,-0.65834,0.45908,0.57336
450.119,142.746,-0.65674,0.46957,0.57314
450.619,142.908,-0.65798,0.46308,0.57291
451.119,143.071,-0.65866,0.47807,0.57269
451.619,143.236,-0.65866,0.47128,0.57246
452.119,143.4,-0.65932,0.46737,0.57224
452.619,143.566,-0.66063,0.47596,0.57201
453.119,143.731,-0.66104,0.47054,0.57178
453.619,143.894,-0.66022,0.46344,0.57155
454.119,144.057,-0.66179,0.47501,0.57133
454.619,144.22,-0.66132,0.47545,0.5711
455.119,144.383,-0.66067,0.47579,0.57087
455.619,144.546,-0.66255,0.46795,0.57064
456.119,144.71,-0.66261,0.46922,0.57041
456.619,144.8743,-0.66263,0.46521,0.57018
457.119,145.038,-0.66228,0.45874,0.56995
457.619,145.203,-0.6636,0.45522,0.56972
458.119,145.367,-0.66558,0.44504,0.56949
458.619,145.532,-0.66558,0.46386,0.56926
459.119,145.697,-0.66558,0.46725,0.56903
459.619,145.861,-0.6669,0.46473,0.5688
460.119,146.026,-0.66679,0.46719,0.56856
460.619,146.19,-0.66659,0.47058,0.56833
461.119,146.355,-0.66558,0.4714,0.5681
461.619,146.5199,-0.66595,0.47236,0.56787
462.119,146.684,-0.66659,0.46561,0.56763
462.619,146.849,-0.66656,0.47225,0.5674
463.119,147.0129,-0.66722,0.45998,0.56716
463.619,147.177,-0.66854,0.45451,0.56693
464.119,147.341,-0.66854,0.45453,0.56669
464.619,147.505,-0.6692,0.46631,0.56646
465.119,147.6693,-0.66919,0.45526,0.56622
465.619,147.8337,-0.67183,0.47468,0.56599
466.119,147.998,-0.67051,0.46695,0.56575
466.619,148.162,-0.67051,0.46785,0.56551
467.119,148.3266,-0.67046,0.46723,0.56528
467.619,148.49,-0.67192,0.47143,0.56504
468.119,148.6542,-0.67083,0.47341,0.5648
468.619,148.8181,-0.67216,0.46586,0.56456
469.119,148.982,-0.67347,0.46929,0.56433
469.619,149.146,-0.67347,0.48017,0.56409
470.119,149.3105,-0.67333,0.45848,0.56385
470.619,149.475,-0.67346,0.45296,0.56361
471.119,149.639,-0.67479,0.46459,0.56337
471.619,149.8036,-0.67552,0.45776,0.56313
472.119,149.9676,-0.67545,0.45516,0.56289
472.619,150.132,-0.67414,0.46701,0.56265
473.119,150.296,-0.67477,0.46052,0.56241
473.619,150.46,-0.67544,0.46531,0.56216
474.119,150.624,-0.67676,0.46055,0.56192
474.619,150.789,-0.67676,0.46414,0.56168
475.119,150.953,-0.67676,0.46825,0.56144
475.619,151.118,-0.67575,0.45126,0.56119
476.119,151.282,-0.67578,0.45564,0.56095
476.619,151.447,-0.67994,0.43358,0.56071
477.119,151.613,-0.67864,0.44285,0.56046
477.619,151.779,-0.67971,0.45869,0.56022
478.119,151.945,-0.68125,0.43213,0.55998
478.619,152.11,-0.67995,0.42869,0.55973
479.119,152.276,-0.67961,0.44707,0.55949
479.619,152.442,-0.67992,0.4468,0.55924
480.119,152.608,-0.68129,0.44366,0.55899
480.619,152.774,-0.68126,0.43037,0.55875
481.119,152.939,-0.68128,0.42984,0.5585
481.619,153.105,-0.68258,0.42582,0.55825
482.119,153.269,-0.68665,0.41841,0.55801
482.619,153.434,-0.6811,0.43166,0.55776
483.119,153.598,-0.68093,0.41753,0.55751
483.619,153.763,-0.68225,0.4138,0.55726
484.119,153.927,-0.68306,0.41521,0.55702
484.619,154.092,-0.68352,0.42216,0.55677
485.119,154.257,-0.6843,0.42661,0.55652
485.619,154.422,-0.68549,0.44838,0.55627
486.119,154.587,-0.68184,0.45282,0.55602
486.619,154.753,-0.68455,0.45419,0.55577
487.119,154.918,-0.68454,0.4599,0.55552
487.619,155.084,-0.68357,0.45092,0.55527
488.119,155.2493,-0.68324,0.46057,0.55502
488.619,155.415,-0.68324,0.45916,0.55477
489.119,155.58,-0.68324,0.4612,0.55451
489.619,155.745,-0.68489,0.45921,0.55426
490.119,155.911,-0.6853,0.45069,0.55401
490.619,156.076,-0.6862,0.44837,0.55376
491.119,156.242,-0.6875,0.44842,0.55351
491.619,156.407,-0.68653,0.44516,0.55325
492.119,156.572,-0.68656,0.43039,0.553
492.619,156.737,-0.68751,0.43848,0.55274
493.119,156.901,-0.68751,0.42572,0.55249
493.619,157.067,-0.68751,0.42172,0.55224
494.119,157.232,-0.6885,0.42432,0.55198
494.619,157.397,-0.68751,0.41815,0.55173
495.119,157.562,-0.68804,0.41104,0.55147
495.619,157.727,-0.68911,0.40857,0.55122
496.119,157.893,-0.68818,0.40837,0.55096
496.619,158.058,-0.69057,0.42396,0.5507
497.119,158.225,-0.68949,0.4176,0.55045
497.619,158.391,-0.6895,0.43166,0.55019
498.119,158.5577,-0.68981,0.44053,0.54993
498.619,158.724,-0.6885,0.43837,0.54968
499.119,158.891,-0.69113,0.46074,0.54942
499.619,159.058,-0.69113,0.4501,0.54916
500.119,159.224,-0.68987,0.45226,0.5489
500.619,159.391,-0.69016,0.45186,0.54864
501.119,159.557,-0.69277,0.45195,0.54839
501.619,159.722,-0.69277,0.44281,0.54813
502.119,159.887,-0.69214,0.43548,0.54787
502.619,160.053,-0.69205,0.43728,0.54761
503.119,160.219,-0.69475,0.42185,0.54735
503.619,160.3856,-0.69334,0.43464,0.54709
504.119,160.553,-0.69457,0.43367,0.54683
504.619,160.72,-0.69508,0.43111,0.54656
505.119,160.886,-0.69581,0.43924,0.5463
505.619,161.053,-0.69561,0.44215,0.54604
506.119,161.219,-0.69476,0.4397,0.54578
506.619,161.385,-0.69736,0.44296,0.54552
507.119,161.55,-0.69642,0.43646,0.54526
507.619,161.715,-0.69673,0.43657,0.54499
508.119,161.881,-0.69673,0.42135,0.54473
508.619,162.046,-0.69673,0.43165,0.54447
509.119,162.211,-0.69856,0.427,0.5442
509.619,162.377,-0.69871,0.42518,0.54394
510.119,162.543,-0.69794,0.42754,0.54368
510.619,162.7101,-0.69904,0.43327,0.54341
511.119,162.877,-0.69948,0.40822,0.54315
511.619,163.043,-0.70134,0.40239,0.54288
512.119,163.211,-0.70042,0.4067,0.54262
512.619,163.378,-0.70002,0.39181,0.54235
513.119,163.545,-0.70134,0.40537,0.54209
513.619,163.712,-0.70114,0.39818,0.54182
514.119,163.877,-0.70302,0.39668,0.54155
514.619,164.043,-0.70399,0.39807,0.54129
515.119,164.209,-0.70271,0.41272,0.54102
515.619,164.376,-0.70167,0.41179,0.54075
516.119,164.543,-0.70341,0.40623,0.54049
516.619,164.71,-0.70293,0.4127,0.54022
517.119,164.876,-0.70463,0.39599,0.53995
517.619,165.042,-0.7043,0.39184,0.53968
518.119,165.2078,-0.70305,0.40215,0.53941
518.619,165.374,-0.70436,0.39745,0.53914
519.119,165.54,-0.7063,0.40063,0.53888
519.619,165.7066,-0.70562,0.40157,0.53861
520.119,165.873,-0.70486,0.39592,0.53834
520.619,166.04,-0.70562,0.40935,0.53807
521.119,166.206,-0.70562,0.40587,0.5378
521.619,166.373,-0.70601,0.39712,0.53753
522.119,166.54,-0.7068,0.39406,0.53726
522.619,166.708,-0.70957,0.39958,0.53698
523.119,166.875,-0.70698,0.40685,0.53671
523.619,167.042,-0.70826,0.3919,0.53644
524.119,167.209,-0.70946,0.39921,0.53617
524.619,167.376,-0.70825,0.41154,0.5359
525.119,167.544,-0.70956,0.40108,0.53563
525.619,167.71,-0.70971,0.39999,0.53535
526.119,167.877,-0.70989,0.41068,0.53508
526.619,168.044,-0.71024,0.40336,0.53481
527.119,168.211,-0.71055,0.40482,0.53454
527.619,168.378,-0.71153,0.41179,0.53426
528.119,168.5458,-0.71055,0.40065,0.53399
528.619,168.713,-0.71056,0.41294,0.53371
529.119,168.881,-0.7112,0.42114,0.53344
529.619,169.048,-0.70994,0.41691,0.53317
530.119,169.215,-0.71121,0.41811,0.53289
530.619,169.383,-0.71252,0.41401,0.53262
531.119,169.55,-0.71251,0.41208,0.53234
531.619,169.717,-0.71252,0.41754,0.53206
532.119,169.885,-0.71276,0.40856,0.53179
532.619,170.052,-0.71383,0.3989,0.53151
533.119,170.219,-0.71383,0.39644,0.53124
533.619,170.387,-0.71647,0.37881,0.53096
534.119,170.554,-0.71779,0.38978,0.53068
534.619,170.722,-0.71647,0.39496,0.53041
535.119,170.888,-0.71774,0.39391,0.53013
535.619,171.055,-0.71877,0.39515,0.52985
536.119,171.221,-0.71943,0.38911,0.52957
536.619,171.388,-0.71861,0.39828,0.5293
537.119,171.556,-0.71893,0.40175,0.52902
537.619,171.723,-0.72094,0.39769,0.52874
538.119,171.889,-0.72011,0.38876,0.52846
538.619,172.056,-0.72077,0.3897,0.52818
539.119,172.222,-0.7207,0.38993,0.5279
539.619,172.389,-0.72117,0.39088,0.52762
540.119,172.557,-0.72141,0.40559,0.52734
540.619,172.726,-0.72028,0.41089,0.52706
541.119,172.894,-0.72239,0.39949,0.52678
541.619,173.063,-0.72268,0.38469,0.5265
542.119,173.231,-0.72338,0.3934,0.52622
542.619,173.399,-0.72339,0.38159,0.52594
543.119,173.567,-0.72334,0.38012,0.52566
543.619,173.735,-0.72344,0.37946,0.52538
544.119,173.903,-0.72468,0.38891,0.5251
544.619,174.072,-0.72338,0.40599,0.52482
545.119,174.2403,-0.72469,0.40137,0.52453
545.619,174.409,-0.72558,0.39246,0.52425
546.119,174.5765,-0.72471,0.39405,0.52397
546.619,174.744,-0.72635,0.36753,0.52369
547.119,174.911,-0.72583,0.37197,0.5234
547.619,175.078,-0.72569,0.3698,0.52312
548.119,175.245,-0.7247,0.36094,0.52284
548.619,175.412,-0.72709,0.36247,0.52255
549.119,175.5797,-0.72606,0.37624,0.52227
549.619,175.747,-0.72733,0.37606,0.52199
550.119,175.9143,-0.72733,0.37127,0.5217
550.619,176.0815,-0.72865,0.3854,0.52142
551.119,176.248,-0.72733,0.38817,0.52113
551.619,176.417,-0.72865,0.3646,0.52085
552.119,176.586,-0.72964,0.3758,0.52056
552.619,176.755,-0.72865,0.36961,0.52028
553.119,176.925,-0.73005,0.37358,0.51999
553.619,177.094,-0.73161,0.38832,0.51971
554.119,177.262,-0.73017,0.38691,0.51942
554.619,177.43,-0.73018,0.36318,0.51913
555.119,177.597,-0.73117,0.34696,0.51885
555.619,177.766,-0.72985,0.34868,0.51856
556.119,177.934,-0.7295,0.36515,0.51827
556.619,178.102,-0.72948,0.35636,0.51799
557.119,178.269,-0.72954,0.34831,0.5177
557.619,178.4371,-0.73084,0.35976,0.51741
558.119,178.605,-0.73085,0.35786,0.51712
558.619,178.772,-0.73169,0.38337,0.51684
559.119,178.94,-0.73281,0.3557,0.51655
559.619,179.107,-0.73114,0.37116,0.51626
560.119,179.274,-0.73215,0.3881,0.51597
560.619,179.4428,-0.73335,0.3906,0.51568
561.119,179.612,-0.73346,0.38947,0.51539
561.619,179.78,-0.73348,0.38141,0.5151
562.119,179.948,-0.73251,0.36918,0.51482
562.619,180.115,-0.73249,0.38099,0.51453
563.119,180.282,-0.73249,0.39022,0.51424
563.619,180.451,-0.73312,0.37871,0.51395
564.119,180.621,-0.73443,0.38551,0.51366
564.619,180.792,-0.73314,0.37722,0.51337
565.119,180.962,-0.73446,0.3756,0.51307
565.619,181.132,-0.73416,0.38391,0.51278
566.119,181.301,-0.73404,0.3775,0.51249
566.619,181.47,-0.73346,0.35969,0.5122
567.119,181.639,-0.73555,0.36908,0.51191
567.619,181.809,-0.73485,0.37142,0.51162
568.119,181.978,-0.73381,0.36918,0.51133
568.619,182.147,-0.73381,0.36626,0.51103
569.119,182.316,-0.73511,0.35253,0.51074
569.619,182.4842,-0.73512,0.36065,0.51045
570.119,182.653,-0.73644,0.35749,0.51016
570.619,182.821,-0.73644,0.35973,0.50986
571.119,182.99,-0.73644,0.36628,0.50957
571.619,183.16,-0.73779,0.34181,0.50928
572.119,183.329,-0.73775,0.33795,0.50899
572.619,183.499,-0.73775,0.32994,0.50869
573.119,183.668,-0.73774,0.34444,0.5084
573.619,183.836,-0.73773,0.37068,0.5081
574.119,184.005,-0.73775,0.39317,0.50781
574.619,184.173,-0.73775,0.39754,0.50752
575.119,184.342,-0.73776,0.36612,0.50722
575.619,184.511,-0.73907,0.35849,0.50693
576.119,184.68,-0.73903,0.33376,0.50663
576.619,184.85,-0.73905,0.31343,0.50634
577.119,185.019,-0.73907,0.31152,0.50604
577.619,185.189,-0.74005,0.31681,0.50575
578.119,185.359,-0.73926,0.3145,0.50545
578.619,185.528,-0.73836,0.32064,0.50515
579.119,185.698,-0.73972,0.29315,0.50486
579.619,185.867,-0.74005,0.27651,0.50456
580.119,186.037,-0.73918,0.24546,0.50427
580.619,186.207,-0.74128,0.25022,0.50397
581.119,186.376,-0.74154,0.23175,0.50367
581.619,186.545,-0.74242,0.23465,0.50338
582.119,186.714,-0.74236,0.24434,0.50308
582.619,186.883,-0.74137,0.2413,0.50278
583.119,187.052,-0.74268,0.2513,0.50248
583.619,187.22,-0.74142,0.25357,0.50219
584.119,187.389,-0.74282,0.24366,0.50189
584.619,187.556,-0.74271,0.23726,0.50159
585.119,187.725,-0.74232,0.24601,0.50129
585.619,187.894,-0.74268,0.23995,0.50099
586.119,188.063,-0.74295,0.22504,0.5007
586.619,188.233,-0.7417,0.22703,0.5004
587.119,188.4024,-0.74301,0.20851,0.5001
587.619,188.572,-0.74375,0.21536,0.4998
588.119,188.742,-0.74368,0.20915,0.4995
588.619,188.911,-0.74368,0.22153,0.4992
589.119,189.081,-0.74499,0.2013,0.4989
589.619,189.251,-0.74367,0.19999,0.4986
590.119,189.4209,-0.74367,0.20281,0.4983
590.619,189.591,-0.74496,0.1978,0.498
591.119,189.76,-0.74499,0.18346,0.4977
591.619,189.929,-0.74366,0.18221,0.4974
592.119,190.097,-0.74499,0.19093,0.4971
592.619,190.266,-0.74499,0.20426,0.4968
593.119,190.435,-0.74631,0.19464,0.4965
593.619,190.603,-0.74489,0.21725,0.4962
594.119,190.772,-0.74504,0.20441,0.4959
594.619,190.942,-0.74576,0.1829,0.4956
595.119,191.1117,-0.74498,0.20283,0.4953
595.619,191.282,-0.74499,0.18274,0.49499
596.119,191.452,-0.74636,0.15698,0.49469
596.619,191.622,-0.74621,0.16307,0.49439
597.119,191.792,-0.74632,0.17039,0.49409
597.619,191.963,-0.74504,0.16176,0.49379
598.119,192.133,-0.74631,0.15566,0.49348
598.619,192.304,-0.74655,0.14583,0.49318
599.119,192.474,-0.74762,0.1456,0.49288
599.619,192.645,-0.74761,0.14518,0.49258
600.119,192.814,-0.74765,0.15526,0.49227
600.619,192.984,-0.74767,0.14639,0.49197
601.119,193.153,-0.7475,0.16079,0.49167
601.619,193.323,-0.74791,0.1632,0.49136
602.119,193.4926,-0.74597,0.12705,0.49106
602.619,193.662,-0.74768,0.11772,0.49076
603.119,193.832,-0.74862,0.12721,0.49045
603.619,194.002,-0.74796,0.12807,0.49015
604.119,194.172,-0.74874,0.11545,0.48984
604.619,194.342,-0.74807,0.11816,0.48954
605.119,194.513,-0.74669,0.12492,0.48924
605.619,194.683,-0.74927,0.10785,0.48893
606.119,194.853,-0.74796,0.10312,0.48863
606.619,195.024,-0.74665,0.12256,0.48832
607.119,195.195,-0.74795,0.11245,0.48802
607.619,195.3651,-0.74731,0.13484,0.48771
608.119,195.536,-0.74924,0.13479,0.48741
608.619,195.706,-0.74917,0.14087,0.4871
609.119,195.8751,-0.74939,0.11818,0.48679
609.619,196.044,-0.74894,0.13012,0.48649
610.119,196.2136,-0.74927,0.12322,0.48618
610.619,196.383,-0.74861,0.12426,0.48588
611.119,196.553,-0.7487,0.12122,0.48557
611.619,196.723,-0.74762,0.12702,0.48526
612.119,196.893,-0.74852,0.12987,0.48496
612.619,197.0633,-0.7486,0.13976,0.48465
613.119,197.2339,-0.74796,0.12332,0.48435
613.619,197.404,-0.74867,0.13934,0.48404
614.119,197.574,-0.74619,0.1168,0.48373
614.619,197.743,-0.74796,0.1277,0.48342
615.119,197.913,-0.74658,0.10888,0.48312
615.619,198.082,-0.74795,0.12168,0.48281
616.119,198.252,-0.74795,0.12224,0.4825
616.619,198.423,-0.748,0.12539,0.4822
617.119,198.594,-0.74796,0.12033,0.48189
617.619,198.765,-0.74796,0.12514,0.48158
618.119,198.936,-0.74796,0.10989,0.48127
618.619,199.106,-0.74828,0.11941,0.48096
619.119,199.276,-0.74894,0.10908,0.48066
619.619,199.446,-0.74894,0.09756347,0.48035
620.119,199.6156,-0.74927,0.1063,0.48004
620.619,199.785,-0.75047,0.10749,0.47973
621.119,199.955,-0.74824,0.13017,0.47942
621.619,200.126,-0.74999,0.14058,0.47911
622.119,200.2967,-0.75032,0.12211,0.4788
622.619,200.468,-0.74926,0.12437,0.47849
623.119,200.639,-0.74927,0.13639,0.47819
623.619,200.811,-0.75057,0.14761,0.47788
624.119,200.982,-0.74959,0.12477,0.47757
624.619,201.154,-0.74961,0.11614,0.47726
625.119,201.3246,-0.74952,0.15799,0.47695
625.619,201.4952,-0.75093,0.11646,0.47664
626.119,201.666,-0.7496,0.11052,0.47633
626.619,201.836,-0.74927,0.11875,0.47602
627.119,202.006,-0.75026,0.1022,0.47571
627.619,202.177,-0.75026,0.08831192,0.4754
628.119,202.347,-0.75026,0.11011,0.47509
628.619,202.518,-0.75026,0.10767,0.47478
629.119,202.689,-0.75079,0.08772277,0.47447
629.619,202.8606,-0.75123,0.08355337,0.47415
630.119,203.032,-0.7519,0.07741899,0.47384
630.619,203.2036,-0.75059,0.08510828,0.47353
631.119,203.3753,-0.75058,0.08712354,0.47322
631.619,203.547,-0.75225,0.09103924,0.47291
632.119,203.719,-0.75112,0.07680377,0.4726
632.619,203.89,-0.75112,0.07079209,0.47229
633.119,204.062,-0.7514,0.06437894,0.47198
633.619,204.233,-0.75123,0.04567885,0.47167
634.119,204.404,-0.75273,0.04041871,0.47135
634.619,204.574,-0.75161,0.02815907,0.47104
635.119,204.744,-0.75127,0.006033917,0.47073
635.619,204.913,-0.75125,0.002678108,0.47042
636.119,205.083,-0.75125,-0.02478018,0.47011
636.619,205.2532,-0.75115,-0.02746147,0.46979
637.119,205.424,-0.75189,-0.01961713,0.46948
637.619,205.596,-0.7519,-0.01395498,0.46917
638.119,205.768,-0.75218,-0.00822591,0.46886
638.619,205.9403,-0.75223,-0.01797394,0.46854
639.119,206.112,-0.75256,-0.03692375,0.46823
639.619,206.284,-0.75256,-0.04373197,0.46792
640.119,206.456,-0.75257,-0.05102146,0.46761
640.619,206.627,-0.75275,-0.05217271,0.46729
641.119,206.798,-0.75355,-0.0274409,0.46698
641.619,206.969,-0.75452,-0.02022014,0.46667
642.119,207.14,-0.75345,-0.02077677,0.46635
642.619,207.31,-0.75289,-0.00866289,0.46604
643.119,207.481,-0.75289,-0.00791996,0.46573
643.619,207.652,-0.75315,-0.01219333,0.46541
644.119,207.823,-0.75194,-0.02419863,0.4651
644.619,207.995,-0.7543,-0.0245636,0.46479
645.119,208.166,-0.75453,-0.02959524,0.46447
645.619,208.338,-0.75285,-0.03197583,0.46416
646.119,208.51,-0.75387,-0.02412544,0.46384
646.619,208.682,-0.75386,-0.02689864,0.46353
647.119,208.853,-0.75256,-0.036178,0.46322
647.619,209.025,-0.75289,-0.02516545,0.4629
648.119,209.196,-0.75552,-0.03781253,0.46259
648.619,209.368,-0.75552,-0.02159372,0.46227
649.119,209.54,-0.75552,-0.04462125,0.46196
649.619,209.712,-0.75525,-0.0437021,0.46164
650.119,209.885,-0.75388,-0.02713737,0.46133
650.419,209.9896,-0.75288,-0.02672848,0.46114