File: 01_Data/Cotton_Felt/STA/N2/30K_min/Cotton_Felt_STA_N2_30KData_210716_R1.csv
##Temp./Â°C,Time/min,Mass loss(subtr.2)/mg,DSC(subtr.2)/(mW/mg),Sensit./(uV/mW)
50.586,10.00917,-0.03619,-0.02077874,0.6235
51.186,11.00882,-0.037646,0.007437199,0.6235
51.786,11.21667,-0.0377253,0.02818031,0.62349
52.386,11.36219,-0.04028037,0.0470816,0.62348
52.986,11.47535,-0.03909976,0.06433404,0.62347
53.586,11.57088,-0.04048366,0.08351381,0.62347
54.186,11.655,-0.03924635,0.09751852,0.62346
54.786,11.72911,-0.04189817,0.11139,0.62345
55.386,11.79819,-0.04003016,0.12671,0.62344
55.986,11.86133,-0.04067364,0.13715,0.62343
56.586,11.92051,-0.04136031,0.15436,0.62342
57.186,11.97495,-0.04113331,0.16639,0.6234
57.786,12.02853,-0.04178486,0.17689,0.62339
58.386,12.08118,-0.04113705,0.19181,0.62338
58.986,12.12975,-0.04027,0.20138,0.62337
59.586,12.17644,-0.04011262,0.21227,0.62335
60.186,12.22161,-0.04189323,0.22251,0.62334
60.786,12.26607,-0.04114428,0.23158,0.62332
61.386,12.30868,-0.04202112,0.24433,0.62331
61.986,12.3499,-0.04218924,0.25278,0.62329
62.586,12.3903,-0.04413086,0.26612,0.62327
63.186,12.42994,-0.04322974,0.27585,0.62326
63.786,12.46861,-0.04396909,0.28411,0.62324
64.386,12.50651,-0.04453684,0.29235,0.62322
64.986,12.54387,-0.0439186,0.30006,0.6232
65.586,12.58108,-0.04240454,0.30866,0.62318
66.186,12.6173,-0.0438514,0.3167,0.62316
66.786,12.65274,-0.04487262,0.32977,0.62314
67.386,12.68775,-0.0459927,0.33813,0.62312
67.986,12.72245,-0.0455671,0.3448,0.6231
68.586,12.7567,-0.04415339,0.35344,0.62308
69.186,12.7902,-0.04420542,0.35865,0.62306
69.786,12.82373,-0.04423762,0.36861,0.62303
70.386,12.85718,-0.04578861,0.37588,0.62301
70.986,12.88996,-0.04551938,0.38294,0.62299
71.586,12.9223,-0.0452439,0.39502,0.62296
72.186,12.95453,-0.04624181,0.40094,0.62294
72.786,12.98666,-0.04773675,0.4067,0.62291
73.386,13.0184,-0.04835947,0.41506,0.62288
73.986,13.04988,-0.04788783,0.42636,0.62286
74.586,13.08107,-0.04815792,0.43411,0.62283
75.186,13.112,-0.04952968,0.44386,0.6228
75.786,13.14275,-0.04957375,0.44993,0.62277
76.386,13.17314,-0.05116413,0.45845,0.62274
76.986,13.2035,-0.05216683,0.46587,0.62272
77.586,13.2334,-0.05123234,0.47326,0.62269
78.186,13.2635,-0.05204757,0.479,0.62266
78.786,13.29328,-0.05119699,0.48888,0.62262
79.386,13.32303,-0.05289933,0.49569,0.62259
79.986,13.3522,-0.05314466,0.50482,0.62256
80.586,13.3814,-0.05296159,0.5135,0.62253
81.186,13.41035,-0.0528698,0.51812,0.6225
81.786,13.43946,-0.05418623,0.52359,0.62246
82.386,13.46834,-0.05293551,0.5316,0.62243
82.986,13.4969,-0.05436539,0.54088,0.62239
83.586,13.5253,-0.05450281,0.55053,0.62236
84.186,13.5536,-0.05569611,0.55782,0.62232
84.786,13.5817,-0.0562938,0.5656,0.62229
85.386,13.6096,-0.05703279,0.57385,0.62225
85.986,13.63735,-0.05850899,0.58096,0.62221
86.586,13.665,-0.05957069,0.59057,0.62217
87.186,13.69251,-0.05978439,0.60017,0.62214
87.786,13.71989,-0.05977455,0.60568,0.6221
88.386,13.747,-0.06108673,0.61334,0.62206
88.986,13.7738,-0.06014024,0.62409,0.62202
89.586,13.80066,-0.06173137,0.6304,0.62198
90.186,13.8272,-0.06167393,0.63748,0.62194
90.786,13.8538,-0.06288536,0.64358,0.6219
91.386,13.88026,-0.06293374,0.65104,0.62185
91.986,13.90666,-0.06279834,0.65887,0.62181
92.586,13.93299,-0.06388555,0.66725,0.62177
93.186,13.9591,-0.06548168,0.67518,0.62173
93.786,13.985,-0.0668492,0.6811,0.62168
94.386,14.0107,-0.06726343,0.68638,0.62164
94.986,14.0363,-0.0680945,0.69653,0.62159
95.586,14.06184,-0.06811802,0.70055,0.62155
96.186,14.08714,-0.06860329,0.70752,0.6215
96.786,14.1124,-0.06935304,0.71512,0.62145
97.386,14.1376,-0.07073206,0.72273,0.62141
97.986,14.1626,-0.07072673,0.72762,0.62136
98.586,14.1875,-0.06991079,0.73287,0.62131
99.186,14.21222,-0.06625972,0.73771,0.62126
99.786,14.237,-0.06483481,0.74257,0.62121
100.386,14.2617,-0.07531874,0.74464,0.62116
100.986,14.28615,-0.08336532,0.75035,0.62111
101.586,14.3106,-0.08057484,0.75514,0.62106
102.186,14.3348,-0.07764497,0.76211,0.62101
102.786,14.35888,-0.07743157,0.76377,0.62096
103.386,14.38285,-0.07743965,0.77073,0.62091
103.986,14.4068,-0.07789719,0.77875,0.62086
104.586,14.4306,-0.07872665,0.78232,0.6208
105.186,14.45437,-0.0798198,0.78681,0.62075
105.786,14.478,-0.08006695,0.79287,0.6207
106.386,14.50159,-0.08007109,0.79746,0.62064
106.986,14.5252,-0.08009491,0.80047,0.62059
107.586,14.5483,-0.08097508,0.80624,0.62053
108.186,14.5714,-0.08139035,0.80711,0.62048
108.786,14.5946,-0.08192288,0.8132,0.62042
109.386,14.61766,-0.08279484,0.81505,0.62036
109.986,14.64095,-0.08567971,0.81899,0.6203
110.586,14.66411,-0.0856636,0.82585,0.62025
111.186,14.6869,-0.08583745,0.827,0.62019
111.786,14.70955,-0.08697404,0.83082,0.62013
112.386,14.7323,-0.08762129,0.83102,0.62007
112.986,14.7549,-0.08827781,0.8342,0.62001
113.586,14.7774,-0.08829951,0.83597,0.61995
114.186,14.80005,-0.08829837,0.83903,0.61989
114.786,14.8225,-0.08819987,0.84023,0.61983
115.386,14.84481,-0.09066704,0.84087,0.61977
115.986,14.867,-0.09093491,0.83924,0.6197
116.586,14.88915,-0.09157865,0.84417,0.61964
117.186,14.91112,-0.09220894,0.84354,0.61958
117.786,14.9331,-0.0932175,0.84376,0.61951
118.386,14.95505,-0.09355046,0.84649,0.61945
118.986,14.97681,-0.09358225,0.84566,0.61938
119.586,14.9985,-0.09449367,0.84369,0.61932
120.186,15.0202,-0.09488075,0.84826,0.61925
120.786,15.0418,-0.09495194,0.84981,0.61919
121.386,15.06345,-0.09511616,0.84478,0.61912
121.986,15.08496,-0.09641677,0.84315,0.61905
122.586,15.10634,-0.09746703,0.84216,0.61899
123.186,15.12775,-0.09750998,0.83944,0.61892
123.786,15.14901,-0.0975124,0.83856,0.61885
124.386,15.17025,-0.09858287,0.83508,0.61878
124.986,15.19145,-0.09882826,0.83411,0.61871
125.586,15.2125,-0.09882702,0.83188,0.61864
126.186,15.2336,-0.09877884,0.82988,0.61857
126.786,15.2546,-0.10082,0.83084,0.6185
127.386,15.2755,-0.10143,0.82645,0.61843
127.986,15.29631,-0.10146,0.8264,0.61835
128.586,15.317,-0.10146,0.82336,0.61828
129.186,15.3377,-0.10146,0.82031,0.61821
129.786,15.3583,-0.10144,0.81922,0.61814
130.386,15.37885,-0.10276,0.81757,0.61806
130.986,15.3993,-0.10277,0.81553,0.61799
131.586,15.41973,-0.10422,0.81154,0.61791
132.186,15.44007,-0.1042,0.81003,0.61784
132.786,15.4604,-0.10419,0.80873,0.61776
133.386,15.48054,-0.10497,0.79968,0.61769
133.986,15.5009,-0.10551,0.79588,0.61761
134.586,15.52108,-0.10552,0.79556,0.61753
135.186,15.5412,-0.10552,0.7934,0.61745
135.786,15.5613,-0.10553,0.78919,0.61738
136.386,15.58138,-0.10562,0.7854,0.6173
136.986,15.6013,-0.1064,0.78409,0.61722
137.586,15.62129,-0.10587,0.77838,0.61714
138.186,15.6412,-0.10585,0.77558,0.61706
138.786,15.66115,-0.10586,0.776,0.61698
139.386,15.68101,-0.10538,0.77335,0.6169
139.986,15.7007,-0.10206,0.76983,0.61682
140.586,15.72045,-0.09896486,0.7689,0.61673
141.186,15.74,-0.10423,0.76603,0.61665
141.786,15.75959,-0.11094,0.76544,0.61657
142.386,15.7791,-0.11571,0.75976,0.61649
142.986,15.79856,-0.11298,0.76086,0.6164
143.586,15.8181,-0.11071,0.7583,0.61632
144.186,15.8376,-0.10893,0.75467,0.61623
144.786,15.857,-0.10929,0.75627,0.61615
145.386,15.87636,-0.10994,0.75465,0.61606
145.986,15.8957,-0.10944,0.75477,0.61598
146.586,15.91491,-0.10945,0.75715,0.61589
147.186,15.9342,-0.10935,0.75419,0.61581
147.786,15.9535,-0.10919,0.75137,0.61572
148.386,15.97267,-0.10977,0.74801,0.61563
148.986,15.9919,-0.10987,0.74708,0.61554
149.586,16.01101,-0.11011,0.74824,0.61545
150.186,16.03013,-0.11012,0.74886,0.61536
150.786,16.04915,-0.11045,0.7478,0.61527
151.386,16.06821,-0.11146,0.7442,0.61519
151.986,16.08716,-0.11153,0.74291,0.61509
152.586,16.10611,-0.1104,0.74341,0.615
153.186,16.12504,-0.11049,0.74601,0.61491
153.786,16.14382,-0.11009,0.74726,0.61482
154.386,16.16262,-0.11011,0.74721,0.61473
154.986,16.18143,-0.10998,0.74726,0.61464
155.586,16.20024,-0.11019,0.74502,0.61454
156.186,16.21904,-0.11045,0.74763,0.61445
156.786,16.23787,-0.11045,0.74646,0.61436
157.386,16.2566,-0.11045,0.74683,0.61426
157.986,16.27532,-0.11045,0.74593,0.61417
158.586,16.29397,-0.11045,0.74568,0.61407
159.186,16.31261,-0.11045,0.74716,0.61398
159.786,16.33128,-0.11045,0.7494,0.61388
160.386,16.34988,-0.11045,0.7517,0.61378
160.986,16.3685,-0.11045,0.75211,0.61369
161.586,16.38716,-0.11045,0.75155,0.61359
162.186,16.40569,-0.11045,0.75169,0.61349
162.786,16.42425,-0.11048,0.7513,0.61339
163.386,16.4428,-0.11008,0.75583,0.61329
163.986,16.4612,-0.11012,0.7552,0.61319
164.586,16.47958,-0.11012,0.75767,0.6131
165.186,16.498,-0.11011,0.75999,0.613
165.786,16.5164,-0.11097,0.75926,0.61289
166.386,16.5347,-0.1111,0.76179,0.61279
166.986,16.55311,-0.11111,0.76354,0.61269
167.586,16.5715,-0.11113,0.7655,0.61259
168.186,16.58981,-0.11077,0.76635,0.61249
168.786,16.60804,-0.1108,0.76838,0.61239
169.386,16.62635,-0.11019,0.76962,0.61228
169.986,16.64461,-0.11013,0.77664,0.61218
170.586,16.66283,-0.11009,0.77927,0.61208
171.186,16.6811,-0.11095,0.7793,0.61197
171.786,16.6993,-0.11144,0.78402,0.61187
172.386,16.71746,-0.11144,0.78285,0.61176
172.986,16.73558,-0.11144,0.78943,0.61166
173.586,16.75371,-0.11144,0.78818,0.61155
174.186,16.77184,-0.11144,0.79108,0.61144
174.786,16.78991,-0.11144,0.79211,0.61134
175.386,16.80797,-0.11144,0.79591,0.61123
175.986,16.82601,-0.11144,0.79867,0.61112
176.586,16.844,-0.11139,0.80324,0.61101
177.186,16.86198,-0.11233,0.80503,0.61091
177.786,16.8799,-0.11275,0.80382,0.6108
178.386,16.89787,-0.11276,0.80542,0.61069
178.986,16.91581,-0.11264,0.80953,0.61058
179.586,16.93375,-0.11134,0.81359,0.61047
180.186,16.95165,-0.1114,0.81711,0.61036
180.786,16.96955,-0.11044,0.8177,0.61025
181.386,16.98736,-0.11046,0.82432,0.61014
181.986,17.00515,-0.11045,0.82611,0.61002
182.586,17.0229,-0.11044,0.83091,0.60991
183.186,17.0407,-0.11042,0.83406,0.6098
183.786,17.05834,-0.11137,0.83726,0.60969
184.386,17.07607,-0.11218,0.83769,0.60957
184.986,17.0938,-0.11314,0.83828,0.60946
185.586,17.1114,-0.11309,0.84495,0.60935
186.186,17.12908,-0.11309,0.84916,0.60923
186.786,17.14677,-0.11307,0.84834,0.60912
187.386,17.16442,-0.1126,0.85268,0.609
187.986,17.182,-0.11173,0.85418,0.60888
188.586,17.19953,-0.11246,0.85995,0.60877
189.186,17.21705,-0.11311,0.8627,0.60865
189.786,17.2346,-0.11309,0.86039,0.60853
190.386,17.25209,-0.11309,0.86382,0.60842
190.986,17.26954,-0.11309,0.87329,0.6083
191.586,17.28704,-0.11309,0.87714,0.60818
192.186,17.30446,-0.11308,0.8789,0.60806
192.786,17.3218,-0.11304,0.87715,0.60794
193.386,17.33925,-0.11409,0.88222,0.60782
193.986,17.3566,-0.11441,0.88652,0.60771
194.586,17.37397,-0.11441,0.88865,0.60758
195.186,17.39134,-0.11441,0.89194,0.60746
195.786,17.4087,-0.11441,0.8953,0.60734
196.386,17.42602,-0.11442,0.89637,0.60722
196.986,17.4434,-0.11365,0.89734,0.6071
197.586,17.46061,-0.11311,0.89818,0.60698
198.186,17.47791,-0.11306,0.9047,0.60686
198.786,17.4952,-0.1142,0.90547,0.60673
199.386,17.51238,-0.11439,0.90948,0.60661
199.986,17.52957,-0.1144,0.90633,0.60649
200.586,17.5469,-0.1144,0.90358,0.60636
201.186,17.56407,-0.1144,0.91119,0.60624
201.786,17.58126,-0.1144,0.91562,0.60611
202.386,17.59842,-0.1144,0.91463,0.60599
202.986,17.61569,-0.1144,0.9169,0.60586
203.586,17.6328,-0.1144,0.9149,0.60574
204.186,17.64997,-0.1144,0.91909,0.60561
204.786,17.6671,-0.1144,0.92169,0.60548
205.386,17.68427,-0.1144,0.9251,0.60536
205.986,17.70133,-0.11438,0.93071,0.60523
206.586,17.7184,-0.115,0.93307,0.6051
207.186,17.7355,-0.11573,0.93435,0.60497
207.786,17.75258,-0.11544,0.93534,0.60484
208.386,17.76957,-0.11441,0.93462,0.60472
208.986,17.78655,-0.11442,0.93929,0.60459
209.586,17.8036,-0.11463,0.9358,0.60446
210.186,17.8206,-0.11575,0.93646,0.60433
210.786,17.83761,-0.11592,0.94006,0.6042
211.386,17.85465,-0.11711,0.94295,0.60406
211.986,17.87177,-0.11704,0.9438,0.60393
212.586,17.88873,-0.11703,0.95074,0.6038
213.186,17.90568,-0.11703,0.95278,0.60367
213.786,17.92261,-0.11703,0.95396,0.60354
214.386,17.9395,-0.11703,0.95158,0.60341
214.986,17.95647,-0.11703,0.95197,0.60327
215.586,17.97342,-0.11703,0.95001,0.60314
216.186,17.9904,-0.11703,0.95374,0.60301
216.786,18.00734,-0.11703,0.95463,0.60287
217.386,18.02425,-0.11703,0.95503,0.60274
217.986,18.04099,-0.11702,0.95466,0.6026
218.586,18.05779,-0.1173,0.95576,0.60247
219.186,18.07462,-0.11771,0.95697,0.60233
219.786,18.0915,-0.1177,0.95393,0.60219
220.386,18.10834,-0.11766,0.95424,0.60206
220.986,18.12529,-0.1184,0.95877,0.60192
221.586,18.1422,-0.1183,0.9592,0.60179
222.186,18.15905,-0.11933,0.94781,0.60165
222.786,18.17585,-0.11969,0.94546,0.60151
223.386,18.19267,-0.11984,0.94617,0.60137
223.986,18.20947,-0.12099,0.94723,0.60123
224.586,18.22628,-0.12083,0.94788,0.60109
225.186,18.24311,-0.11956,0.949,0.60096
225.786,18.2599,-0.11966,0.94641,0.60082
226.386,18.2767,-0.11982,0.94799,0.60068
226.986,18.29342,-0.12107,0.94736,0.60054
227.586,18.31012,-0.12097,0.95038,0.6004
228.186,18.3268,-0.12146,0.9529,0.60025
228.786,18.34352,-0.12257,0.95658,0.60011
229.386,18.36022,-0.12365,0.96602,0.59997
229.986,18.3769,-0.12379,0.9687,0.59983
230.586,18.39366,-0.12502,0.9668,0.59969
231.186,18.4104,-0.12493,0.96578,0.59954
231.786,18.42707,-0.12493,0.96547,0.5994
232.386,18.44374,-0.12493,0.96388,0.59926
232.986,18.4604,-0.12494,0.95979,0.59912
233.586,18.477,-0.12609,0.95869,0.59897
234.186,18.49362,-0.12625,0.96042,0.59883
234.786,18.51033,-0.12633,0.96088,0.59868
235.386,18.527,-0.12765,0.96164,0.59854
235.986,18.54363,-0.12771,0.96282,0.59839
236.586,18.56028,-0.12916,0.96171,0.59825
237.186,18.57694,-0.12909,0.95901,0.5981
237.786,18.59349,-0.12997,0.9646,0.59795
238.386,18.61006,-0.13062,0.96341,0.59781
238.986,18.62668,-0.13212,0.9615,0.59766
239.586,18.64326,-0.13257,0.96051,0.59751
240.186,18.65985,-0.13405,0.95813,0.59736
240.786,18.67643,-0.13473,0.95966,0.59722
241.386,18.69306,-0.13544,0.95672,0.59707
241.986,18.7096,-0.13616,0.95143,0.59692
242.586,18.7262,-0.13721,0.95547,0.59677
243.186,18.7428,-0.13876,0.95442,0.59662
243.786,18.7593,-0.13985,0.95508,0.59647
244.386,18.77587,-0.13993,0.95185,0.59632
244.986,18.79239,-0.14155,0.95436,0.59617
245.586,18.80891,-0.14268,0.95133,0.59602
246.186,18.82548,-0.1436,0.95106,0.59587
246.786,18.84205,-0.14483,0.9512,0.59572
247.386,18.8586,-0.1455,0.9522,0.59557
247.986,18.87511,-0.14666,0.95636,0.59541
248.586,18.89169,-0.14831,0.9531,0.59526
249.186,18.90819,-0.14985,0.9504,0.59511
249.786,18.92469,-0.15108,0.95295,0.59496
250.386,18.94121,-0.15231,0.95191,0.5948
250.986,18.95769,-0.15389,0.95263,0.59465
251.586,18.9742,-0.15581,0.95118,0.5945
252.186,18.99067,-0.15754,0.95071,0.59434
252.786,19.0071,-0.15843,0.94637,0.59419
253.386,19.02356,-0.1597,0.94021,0.59403
253.986,19.04004,-0.161,0.94495,0.59388
254.586,19.05647,-0.16263,0.94531,0.59372
255.186,19.07293,-0.16458,0.93132,0.59357
255.786,19.08941,-0.16642,0.92813,0.59341
256.386,19.10587,-0.1678,0.92792,0.59325
256.986,19.12226,-0.16901,0.92541,0.5931
257.586,19.1387,-0.17097,0.93016,0.59294
258.186,19.15519,-0.1733,0.9265,0.59278
258.786,19.17158,-0.17555,0.92386,0.59263
259.386,19.18802,-0.17792,0.92585,0.59247
259.986,19.20448,-0.18025,0.9294,0.59231
260.586,19.22087,-0.18213,0.92378,0.59215
261.186,19.23725,-0.18539,0.92801,0.59199
261.786,19.25369,-0.18815,0.92803,0.59183
262.386,19.27011,-0.19048,0.93309,0.59167
262.986,19.2865,-0.19305,0.93254,0.59151
263.586,19.30293,-0.19529,0.9328,0.59135
264.186,19.31936,-0.19724,0.93291,0.59119
264.786,19.33575,-0.19981,0.93251,0.59103
265.386,19.3521,-0.20184,0.93437,0.59087
265.986,19.36855,-0.204,0.93567,0.59071
266.586,19.38498,-0.20735,0.93622,0.59055
267.186,19.40137,-0.21006,0.93636,0.59039
267.786,19.41773,-0.21236,0.93442,0.59023
268.386,19.43415,-0.21505,0.93773,0.59006
268.986,19.45054,-0.21738,0.93348,0.5899
269.586,19.4669,-0.22043,0.92868,0.58974
270.186,19.48327,-0.22425,0.92639,0.58957
270.786,19.4997,-0.22606,0.92691,0.58941
271.386,19.51601,-0.22863,0.93022,0.58925
271.986,19.53235,-0.232,0.92944,0.58908
272.586,19.5487,-0.23451,0.93206,0.58892
273.186,19.56501,-0.23774,0.9381,0.58875
273.786,19.5814,-0.24147,0.94091,0.58859
274.386,19.59778,-0.24433,0.93938,0.58842
274.986,19.6142,-0.24872,0.94407,0.58826
275.586,19.63055,-0.25271,0.94467,0.58809
276.186,19.6469,-0.25713,0.94874,0.58792
276.786,19.66325,-0.26074,0.94472,0.58776
277.386,19.67963,-0.26475,0.94736,0.58759
277.986,19.696,-0.26764,0.94926,0.58742
278.586,19.71234,-0.27157,0.94969,0.58726
279.186,19.72869,-0.27607,0.95285,0.58709
279.786,19.7452,-0.27913,0.95133,0.58692
280.386,19.76151,-0.28351,0.95336,0.58675
280.986,19.77785,-0.28747,0.95404,0.58659
281.586,19.7942,-0.29285,0.95348,0.58642
282.186,19.81061,-0.29708,0.9509,0.58625
282.786,19.82699,-0.30096,0.94946,0.58608
283.386,19.84338,-0.30505,0.94891,0.58591
283.986,19.85979,-0.30862,0.95214,0.58574
284.586,19.87619,-0.31415,0.95748,0.58557
285.186,19.89252,-0.31829,0.95658,0.5854
285.786,19.9089,-0.32337,0.95322,0.58523
286.386,19.9253,-0.32881,0.9523,0.58506
286.986,19.94166,-0.33335,0.95106,0.58489
287.586,19.95805,-0.33933,0.95197,0.58471
288.186,19.9744,-0.34281,0.95423,0.58454
288.786,19.99076,-0.3479,0.95653,0.58437
289.386,20.0071,-0.35337,0.95627,0.5842
289.986,20.0234,-0.35875,0.95477,0.58403
290.586,20.03976,-0.36535,0.95546,0.58385
291.186,20.0561,-0.36993,0.95663,0.58368
291.786,20.07241,-0.37606,0.95929,0.58351
292.386,20.08875,-0.38212,0.96118,0.58333
292.986,20.10507,-0.38778,0.96146,0.58316
293.586,20.12132,-0.39431,0.96184,0.58299
294.186,20.13766,-0.39984,0.96544,0.58281
294.786,20.15407,-0.40837,0.95938,0.58264
295.386,20.1705,-0.41528,0.95977,0.58246
295.986,20.18686,-0.4216,0.97144,0.58229
296.586,20.2033,-0.4288,0.96994,0.58211
297.186,20.2198,-0.43472,0.96991,0.58194
297.786,20.23613,-0.44264,0.97168,0.58176
298.386,20.2525,-0.44928,0.97411,0.58158
298.986,20.26882,-0.45687,0.97641,0.58141
299.586,20.28516,-0.46528,0.97194,0.58123
300.186,20.30149,-0.47243,0.97392,0.58105
300.786,20.31781,-0.48119,0.97383,0.58088
301.386,20.33416,-0.48771,0.97305,0.5807
301.986,20.35057,-0.49584,0.97289,0.58052
302.586,20.36693,-0.50446,0.97533,0.58034
303.186,20.3833,-0.51282,0.97726,0.58017
303.786,20.39971,-0.5227,0.97477,0.57999
304.386,20.4161,-0.52984,0.97577,0.57981
304.986,20.4324,-0.53957,0.98199,0.57963
305.586,20.4487,-0.54876,0.97732,0.57945
306.186,20.46504,-0.55785,0.97949,0.57927
306.786,20.48135,-0.56927,0.98274,0.57909
307.386,20.4977,-0.5781,0.98019,0.57891
307.986,20.5141,-0.59051,0.98086,0.57873
308.586,20.53054,-0.60005,0.98319,0.57855
309.186,20.547,-0.61032,0.98428,0.57837
309.786,20.56334,-0.62195,0.98319,0.57819
310.386,20.57968,-0.63101,0.98563,0.57801
310.986,20.59601,-0.64319,0.98283,0.57783
311.586,20.61233,-0.65338,0.98269,0.57765
312.186,20.62865,-0.66544,0.98384,0.57747
312.786,20.64498,-0.67898,0.99009,0.57728
313.386,20.66135,-0.69026,0.98916,0.5771
313.986,20.67773,-0.70447,0.9844,0.57692
314.586,20.69409,-0.71502,0.99285,0.57674
315.186,20.71043,-0.72822,0.99259,0.57655
315.786,20.72682,-0.74207,0.99439,0.57637
316.386,20.74312,-0.75517,0.99651,0.57619
316.986,20.7594,-0.7712,0.99778,0.576
317.586,20.7758,-0.78339,0.99862,0.57582
318.186,20.79215,-0.79828,1.00769,0.57564
318.786,20.80852,-0.81208,1.01172,0.57545
319.386,20.82485,-0.82557,1.01185,0.57527
319.986,20.84119,-0.84167,1.01387,0.57508
320.586,20.8576,-0.85446,1.01404,0.5749
321.186,20.87398,-0.87153,1.0186,0.57471
321.786,20.8903,-0.8858,1.01967,0.57453
322.386,20.90675,-0.90227,1.01902,0.57434
322.986,20.92323,-0.92043,1.02358,0.57415
323.586,20.93962,-0.93407,1.02293,0.57397
324.186,20.95598,-0.95136,1.02796,0.57378
324.786,20.97235,-0.9656,1.02827,0.5736
325.386,20.9887,-0.98276,1.02924,0.57341
325.986,21.00508,-1.00198,1.03107,0.57322
326.586,21.02143,-1.01868,1.03374,0.57304
327.186,21.03782,-1.03957,1.03818,0.57285
327.786,21.05422,-1.0551,1.0358,0.57266
328.386,21.07058,-1.07313,1.04285,0.57247
328.986,21.087,-1.09187,1.04298,0.57228
329.586,21.1034,-1.10986,1.05015,0.5721
330.186,21.1198,-1.13259,1.05378,0.57191
330.786,21.13617,-1.14942,1.05801,0.57172
331.386,21.15255,-1.17037,1.064,0.57153
331.986,21.16894,-1.18942,1.06013,0.57134
332.586,21.18529,-1.20818,1.06732,0.57115
333.186,21.20167,-1.23179,1.07097,0.57096
333.786,21.21814,-1.2496,1.07235,0.57077
334.386,21.23455,-1.27282,1.07698,0.57058
334.986,21.251,-1.29363,1.08009,0.57039
335.586,21.26744,-1.31472,1.08521,0.5702
336.186,21.2839,-1.33978,1.08923,0.57001
336.786,21.3003,-1.36033,1.09723,0.56982
337.386,21.31673,-1.38706,1.1,0.56963
337.986,21.33319,-1.40727,1.10594,0.56944
338.586,21.34956,-1.42963,1.11117,0.56925
339.186,21.36597,-1.45469,1.11446,0.56906
339.786,21.3824,-1.47633,1.12547,0.56887
340.386,21.39882,-1.50575,1.12549,0.56867
340.986,21.4152,-1.52779,1.13015,0.56848
341.586,21.4316,-1.55372,1.13661,0.56829
342.186,21.44806,-1.57912,1.14834,0.5681
342.786,21.46446,-1.6022,1.15283,0.5679
343.386,21.48087,-1.63138,1.15574,0.56771
343.986,21.49728,-1.65305,1.1621,0.56752
344.586,21.51375,-1.68064,1.16702,0.56732
345.186,21.53022,-1.70397,1.17551,0.56713
345.786,21.5467,-1.7282,1.1771,0.56694
346.386,21.56318,-1.75653,1.18328,0.56674
346.986,21.5796,-1.78012,1.18863,0.56655
347.586,21.59611,-1.81131,1.19711,0.56636
348.186,21.6126,-1.83646,1.20521,0.56616
348.786,21.62904,-1.86487,1.21227,0.56597
349.386,21.6455,-1.89415,1.20917,0.56577
349.986,21.662,-1.91797,1.22097,0.56558
350.586,21.6785,-1.95012,1.22202,0.56538
351.186,21.69495,-1.97507,1.22161,0.56519
351.786,21.71142,-2.00598,1.22722,0.56499
352.386,21.72788,-2.03526,1.22911,0.5648
352.986,21.7444,-2.0629,1.22896,0.5646
353.586,21.7609,-2.09658,1.22993,0.5644
354.186,21.7774,-2.12252,1.22707,0.56421
354.786,21.79397,-2.15576,1.22316,0.56401
355.386,21.81048,-2.18388,1.2203,0.56381
355.986,21.827,-2.21331,1.21763,0.56362
356.586,21.84354,-2.24691,1.21143,0.56342
357.186,21.86,-2.27387,1.19877,0.56322
357.786,21.87656,-2.30713,1.1887,0.56303
358.386,21.89312,-2.33458,1.17756,0.56283
358.986,21.9097,-2.36559,1.16622,0.56263
359.586,21.92626,-2.39642,1.15116,0.56243
360.186,21.94288,-2.42419,1.1307,0.56224
360.786,21.9595,-2.45824,1.11799,0.56204
361.386,21.97612,-2.48417,1.098,0.56184
361.986,21.99279,-2.51648,1.07508,0.56164
362.586,22.00946,-2.54504,1.04755,0.56144
363.186,22.02608,-2.57336,1.02256,0.56124
363.786,22.04269,-2.60583,0.997,0.56105
364.386,22.05929,-2.63091,0.96741,0.56085
364.986,22.07591,-2.66149,0.93647,0.56065
365.586,22.09256,-2.68558,0.90093,0.56045
366.186,22.10925,-2.71268,0.86023,0.56025
366.786,22.12596,-2.74037,0.81778,0.56005
367.386,22.14268,-2.76288,0.77535,0.55985
367.986,22.15944,-2.7896,0.72781,0.55965
368.586,22.1762,-2.80947,0.68054,0.55945
369.186,22.19296,-2.83298,0.63487,0.55925
369.786,22.20974,-2.85273,0.59029,0.55905
370.386,22.22655,-2.87165,0.54236,0.55885
370.986,22.2434,-2.89196,0.4985,0.55864
371.586,22.2602,-2.90655,0.46074,0.55844
372.186,22.27704,-2.92358,0.42386,0.55824
372.786,22.2939,-2.9361,0.39035,0.55804
373.386,22.31079,-2.95034,0.35108,0.55784
373.986,22.32767,-2.96321,0.3208,0.55764
374.586,22.34456,-2.97384,0.2894,0.55744
375.186,22.36143,-2.98472,0.26625,0.55723
375.786,22.3783,-2.99236,0.23835,0.55703
376.386,22.39526,-3.0014,0.21772,0.55683
376.986,22.4121,-3.00837,0.1964,0.55663
377.586,22.42905,-3.01522,0.18185,0.55643
378.186,22.44593,-3.02105,0.16587,0.55622
378.786,22.46282,-3.02599,0.15444,0.55602
379.386,22.47972,-3.03211,0.13723,0.55582
379.986,22.4967,-3.03649,0.12418,0.55561
380.586,22.51362,-3.04181,0.11608,0.55541
381.186,22.5306,-3.04605,0.10524,0.55521
381.786,22.54757,-3.05053,0.0998415,0.555
382.386,22.5645,-3.05455,0.09219539,0.5548
382.986,22.58147,-3.05834,0.08115653,0.5546
383.586,22.59838,-3.06115,0.07917056,0.55439
384.186,22.6153,-3.06435,0.0714903,0.55419
384.786,22.6322,-3.06682,0.06543214,0.55398
385.386,22.64912,-3.06803,0.06303823,0.55378
385.986,22.66604,-3.06959,0.06186829,0.55357
386.586,22.68297,-3.07287,0.05710651,0.55337
387.186,22.6999,-3.07486,0.05208048,0.55316
387.786,22.71694,-3.0773,0.04895411,0.55296
388.386,22.734,-3.08033,0.04909713,0.55275
388.986,22.751,-3.08204,0.04504416,0.55255
389.586,22.768,-3.08402,0.04120797,0.55234
390.186,22.785,-3.08561,0.03984482,0.55214
390.786,22.80199,-3.0875,0.03876541,0.55193
391.386,22.81895,-3.0894,0.03818286,0.55173
391.986,22.83592,-3.09227,0.03471188,0.55152
392.586,22.85289,-3.09555,0.03232687,0.55131
393.186,22.8699,-3.09783,0.03075445,0.55111
393.786,22.88685,-3.10036,0.03052775,0.5509
394.386,22.90387,-3.10188,0.03212628,0.5507
394.986,22.92087,-3.10322,0.0309917,0.55049
395.586,22.9379,-3.10472,0.0265624,0.55028
396.186,22.95487,-3.10609,0.026095,0.55008
396.786,22.97192,-3.10764,0.02580272,0.54987
397.386,22.989,-3.10991,0.02388106,0.54966
397.986,23.00601,-3.11159,0.02335507,0.54945
398.586,23.02306,-3.11265,0.01898997,0.54925
399.186,23.0402,-3.11408,0.01856903,0.54904
399.786,23.05728,-3.11587,0.01542187,0.54883
400.386,23.07439,-3.11841,0.01780692,0.54863
400.986,23.09147,-3.12031,0.0145307,0.54842
401.586,23.10856,-3.12101,0.01315429,0.54821
402.186,23.12561,-3.12235,0.01108972,0.548
402.786,23.1427,-3.12384,0.01028156,0.54779
403.386,23.15979,-3.12564,0.00836594,0.54759
403.986,23.17686,-3.12728,0.002559263,0.54738
404.586,23.19391,-3.12911,0.00181649,0.54717
405.186,23.21094,-3.13081,0.001184782,0.54696
405.786,23.22808,-3.13233,0.004618578,0.54675
406.386,23.24517,-3.13366,0.003031926,0.54654
406.986,23.2623,-3.13514,0.0002560307,0.54633
407.586,23.27947,-3.13784,0.0009927951,0.54612
408.186,23.29666,-3.13925,4.56493e-05,0.54592
408.786,23.3138,-3.14102,-0.00484713,0.54571
409.386,23.33096,-3.14234,-0.005811546,0.5455
409.986,23.34812,-3.14338,-0.00444053,0.54529
410.586,23.36526,-3.14504,-0.00706695,0.54508
411.186,23.3825,-3.14643,-0.01049438,0.54487
411.786,23.39957,-3.14802,-0.01119461,0.54466
412.386,23.41675,-3.14963,-0.01125234,0.54445
412.986,23.43388,-3.15102,-0.01218601,0.54424
413.586,23.4511,-3.15195,-0.01529018,0.54403
414.186,23.46826,-3.15333,-0.0144721,0.54382
414.786,23.48552,-3.15466,-0.01563908,0.54361
415.386,23.50274,-3.15639,-0.01861992,0.5434
415.986,23.51996,-3.15828,-0.0209307,0.54319
416.586,23.53718,-3.15958,-0.02032003,0.54298
417.186,23.55435,-3.16046,-0.0208771,0.54277
417.786,23.57155,-3.16103,-0.02471457,0.54255
418.386,23.58878,-3.16231,-0.02385248,0.54234
418.986,23.606,-3.16371,-0.02649975,0.54213
419.586,23.62319,-3.16561,-0.02467208,0.54192
420.186,23.64046,-3.16597,-0.02747628,0.54171
420.786,23.65766,-3.16829,-0.02979683,0.5415
421.386,23.6749,-3.16989,-0.033768,0.54129
421.986,23.69214,-3.1717,-0.0328942,0.54108
422.586,23.7094,-3.17324,-0.0329721,0.54086
423.186,23.72666,-3.17378,-0.03663564,0.54065
423.786,23.74393,-3.17533,-0.0385651,0.54044
424.386,23.76124,-3.17655,-0.03821807,0.54023
424.986,23.77853,-3.17809,-0.0396801,0.54002
425.586,23.79583,-3.17953,-0.03592407,0.53981
426.186,23.81312,-3.18094,-0.03731734,0.53959
426.786,23.83043,-3.18257,-0.04064267,0.53938
427.386,23.8477,-3.1842,-0.04196977,0.53917
427.986,23.86504,-3.18576,-0.04608938,0.53896
428.586,23.88233,-3.18662,-0.0466238,0.53874
429.186,23.89963,-3.18761,-0.04742578,0.53853
429.786,23.9169,-3.1893,-0.04980238,0.53832
430.386,23.93424,-3.19112,-0.04980362,0.53811
430.986,23.9515,-3.19237,-0.04966626,0.53789
431.586,23.9689,-3.19348,-0.05317407,0.53768
432.186,23.98626,-3.19523,-0.05364252,0.53747
432.786,24.00358,-3.19697,-0.04942086,0.53725
433.386,24.02084,-3.1985,-0.05229576,0.53704
433.986,24.03825,-3.19964,-0.05352011,0.53683
434.586,24.05561,-3.20042,-0.05474678,0.53662
435.186,24.073,-3.2018,-0.05508258,0.5364
435.786,24.09047,-3.20266,-0.0575469,0.53619
436.386,24.10799,-3.20421,-0.05869046,0.53598
436.986,24.12537,-3.20719,-0.06040457,0.53576
437.586,24.14278,-3.20874,-0.06116693,0.53555
438.186,24.1602,-3.21057,-0.05914937,0.53533
438.786,24.17761,-3.21143,-0.0612526,0.53512
439.386,24.19503,-3.212,-0.06063383,0.53491
439.986,24.21249,-3.21261,-0.05962803,0.53469
440.586,24.22993,-3.2129,-0.06126398,0.53448
441.186,24.24742,-3.21402,-0.0622689,0.53426
441.786,24.2649,-3.21545,-0.06555378,0.53405
442.386,24.28229,-3.21591,-0.06642393,0.53384
442.986,24.29974,-3.21744,-0.06579511,0.53362
443.586,24.31723,-3.21757,-0.06847231,0.53341
444.186,24.33469,-3.21906,-0.06695108,0.53319
444.786,24.35224,-3.22052,-0.06453059,0.53298
445.386,24.3698,-3.22166,-0.06552891,0.53276
445.986,24.38729,-3.2232,-0.06587111,0.53255
446.586,24.40482,-3.22474,-0.06665721,0.53233
447.186,24.42233,-3.22627,-0.06847877,0.53212
447.786,24.43985,-3.22809,-0.06827538,0.53191
448.386,24.4573,-3.22976,-0.06859641,0.53169
448.986,24.47486,-3.23099,-0.0706436,0.53148
449.586,24.4924,-3.23259,-0.06947104,0.53126
450.186,24.50992,-3.23251,-0.06848192,0.53105
450.786,24.5274,-3.23411,-0.06976937,0.53083
451.386,24.54502,-3.23594,-0.06855108,0.53062
451.986,24.5626,-3.23754,-0.06610535,0.5304
452.586,24.5802,-3.23861,-0.06798887,0.53018
453.186,24.59778,-3.23998,-0.07028801,0.52997
453.786,24.61536,-3.24176,-0.06844795,0.52975
454.386,24.63295,-3.24336,-0.06819345,0.52954
454.986,24.65053,-3.24443,-0.06874727,0.52932
455.586,24.66816,-3.24519,-0.07033631,0.52911
456.186,24.68579,-3.24528,-0.07130643,0.52889
456.786,24.70341,-3.2457,-0.06892957,0.52868
457.386,24.72105,-3.24691,-0.06961002,0.52846
457.986,24.73874,-3.24855,-0.06885412,0.52824
458.586,24.75637,-3.24985,-0.06910919,0.52803
459.186,24.77401,-3.2506,-0.06809373,0.52781
459.786,24.7917,-3.25188,-0.07007057,0.5276
460.386,24.80934,-3.25352,-0.07097577,0.52738
460.986,24.82702,-3.25365,-0.06950693,0.52717
461.586,24.84468,-3.25509,-0.07031377,0.52695
462.186,24.86236,-3.2562,-0.0701107,0.52673
462.786,24.88008,-3.25685,-0.06971379,0.52652
463.386,24.89775,-3.25833,-0.07033749,0.5263
463.986,24.91544,-3.25901,-0.0686996,0.52608
464.586,24.93317,-3.26006,-0.06846496,0.52587
465.186,24.9509,-3.26142,-0.0691841,0.52565
465.786,24.96862,-3.26255,-0.06816845,0.52544
466.386,24.9864,-3.26317,-0.06667879,0.52522
466.986,25.00412,-3.26451,-0.06493259,0.525
467.586,25.02185,-3.26687,-0.06533811,0.52479
468.186,25.03955,-3.2678,-0.06416482,0.52457
468.786,25.05729,-3.26915,-0.06550895,0.52435
469.386,25.07509,-3.27059,-0.06521212,0.52414
469.986,25.09297,-3.27178,-0.06326472,0.52392
470.586,25.11078,-3.27318,-0.06276573,0.5237
471.186,25.12865,-3.2739,-0.0618223,0.52349
471.786,25.14646,-3.27519,-0.06359928,0.52327
472.386,25.16423,-3.27523,-0.06243729,0.52305
472.986,25.182,-3.27666,-0.06219191,0.52284
473.586,25.19973,-3.27689,-0.05958624,0.52262
474.186,25.21751,-3.27808,-0.06125611,0.5224
474.786,25.2353,-3.27849,-0.06386058,0.52218
475.386,25.25315,-3.2797,-0.06449824,0.52197
475.986,25.27103,-3.28065,-0.0648053,0.52175
476.586,25.28894,-3.28091,-0.06384925,0.52153
477.186,25.30688,-3.28203,-0.06009876,0.52132
477.786,25.32476,-3.28319,-0.05992414,0.5211
478.386,25.34265,-3.28467,-0.05725957,0.52088
478.986,25.36037,-3.2862,-0.0592636,0.52067
479.586,25.37818,-3.2871,-0.06380558,0.52045
480.186,25.39601,-3.28775,-0.0599424,0.52023
480.786,25.4139,-3.2884,-0.05826797,0.52001
481.386,25.4317,-3.28902,-0.05934027,0.5198
481.986,25.44973,-3.28992,-0.05918288,0.51958
482.586,25.46773,-3.29249,-0.05910506,0.51936
483.186,25.48566,-3.29338,-0.05775861,0.51914
483.786,25.50362,-3.29447,-0.05638744,0.51893
484.386,25.5215,-3.29605,-0.05460772,0.51871
484.986,25.5395,-3.29666,-0.05310019,0.51849
485.586,25.5574,-3.29778,-0.05574994,0.51827
486.186,25.5753,-3.2993,-0.05446063,0.51806
486.786,25.59328,-3.2994,-0.05266367,0.51784
487.386,25.61129,-3.30075,-0.05181668,0.51762
487.986,25.6292,-3.30067,-0.0514648,0.5174
488.586,25.64718,-3.30195,-0.05025789,0.51719
489.186,25.6652,-3.30245,-0.05021463,0.51697
489.786,25.68313,-3.30374,-0.0524304,0.51675
490.386,25.70114,-3.30501,-0.04973837,0.51653
490.986,25.71924,-3.30528,-0.0491311,0.51632
491.586,25.7373,-3.30662,-0.04875034,0.5161
492.186,25.75526,-3.30679,-0.04590295,0.51588
492.786,25.77334,-3.30823,-0.04724366,0.51566
493.386,25.79133,-3.3087,-0.04735768,0.51545
493.986,25.80933,-3.30956,-0.0471204,0.51523
494.586,25.8274,-3.31109,-0.04191314,0.51501
495.186,25.84541,-3.31255,-0.03989046,0.51479
495.786,25.86349,-3.31325,-0.04315592,0.51458
496.386,25.8816,-3.31445,-0.04265946,0.51436
496.986,25.89971,-3.31574,-0.04234867,0.51414
497.586,25.91778,-3.3157,-0.04135859,0.51392
498.186,25.93586,-3.31572,-0.04012025,0.5137
498.786,25.95395,-3.31592,-0.0437817,0.51349
499.386,25.97196,-3.31725,-0.04190754,0.51327
499.986,25.99,-3.31854,-0.04195672,0.51305
500.586,26.0081,-3.31925,-0.03963951,0.51283
501.186,26.0262,-3.3205,-0.03983002,0.51262
501.786,26.0443,-3.3207,-0.03856612,0.5124
502.386,26.0625,-3.32179,-0.03728291,0.51218
502.986,26.08061,-3.32222,-0.03503327,0.51196
503.586,26.0988,-3.3233,-0.03071198,0.51174
504.186,26.11695,-3.32282,-0.03249663,0.51153
504.786,26.13514,-3.3235,-0.03126537,0.51131
505.386,26.15331,-3.32433,-0.03239172,0.51109
505.986,26.1715,-3.32497,-0.0343801,0.51087
506.586,26.18964,-3.32572,-0.03128841,0.51065
507.186,26.20779,-3.32744,-0.0324176,0.51044
507.786,26.2259,-3.32902,-0.03108244,0.51022
508.386,26.24411,-3.32931,-0.03028556,0.51
508.986,26.26227,-3.32957,-0.02730491,0.50978
509.586,26.2805,-3.33076,-0.02671219,0.50957
510.186,26.2987,-3.3295,-0.02221119,0.50935
510.786,26.31697,-3.33083,-0.02067177,0.50913
511.386,26.3351,-3.33083,-0.02022684,0.50891
511.986,26.35337,-3.3308,-0.02143866,0.50869
512.586,26.37155,-3.33354,-0.02063696,0.50848
513.186,26.3897,-3.33409,-0.02242415,0.50826
513.786,26.40792,-3.33546,-0.01759999,0.50804
514.386,26.4262,-3.3368,-0.01925988,0.50782
514.986,26.4444,-3.33698,-0.02002949,0.50761
515.586,26.4626,-3.33714,-0.0201987,0.50739
516.186,26.4808,-3.33834,-0.02323567,0.50717
516.786,26.4992,-3.3383,-0.02271725,0.50695
517.386,26.51742,-3.33825,-0.019844,0.50673
517.986,26.5357,-3.33903,-0.01984261,0.50652
518.586,26.55402,-3.33929,-0.02091632,0.5063
519.186,26.5723,-3.33962,-0.01829823,0.50608
519.786,26.59062,-3.33973,-0.01717611,0.50586
520.386,26.60887,-3.34085,-0.01855935,0.50565
520.986,26.6271,-3.34075,-0.01571273,0.50543
521.586,26.6454,-3.34149,-0.01611884,0.50521
522.186,26.6637,-3.34153,-0.01459427,0.50499
522.786,26.682,-3.34194,-0.01385464,0.50478
523.386,26.7003,-3.34412,-0.01357518,0.50456
523.986,26.7187,-3.34412,-0.01322865,0.50434
524.586,26.7369,-3.34487,-0.01131919,0.50412
525.186,26.75524,-3.34555,-0.007616761,0.5039
525.786,26.7736,-3.3455,-0.009586746,0.50369
526.386,26.792,-3.34643,-0.01060515,0.50347
526.986,26.81045,-3.34684,-0.01033833,0.50325
527.586,26.8289,-3.34748,-0.01072213,0.50303
528.186,26.8473,-3.34842,-0.009719282,0.50282
528.786,26.8657,-3.34851,-0.007871702,0.5026
529.386,26.8841,-3.34981,-0.00956525,0.50238
529.986,26.9025,-3.34985,-0.0094733,0.50216
530.586,26.92087,-3.35128,-0.0093384,0.50195
531.186,26.9393,-3.35191,-0.007513697,0.50173
531.786,26.95767,-3.35257,-0.00968814,0.50151
532.386,26.976,-3.35256,-0.01026051,0.5013
532.986,26.9944,-3.35247,-0.00821395,0.50108
533.586,27.0129,-3.35377,-0.00982423,0.50086
534.186,27.0314,-3.35386,-0.007267155,0.50064
534.786,27.04982,-3.35459,-0.01072689,0.50043
535.386,27.0683,-3.35531,-0.008994159,0.50021
535.986,27.08672,-3.35547,-0.00543257,0.49999
536.586,27.1052,-3.3567,-0.003961263,0.49977
537.186,27.1236,-3.35667,-0.00689287,0.49956
537.786,27.1421,-3.35802,-0.00637128,0.49934
538.386,27.16062,-3.3584,-0.003202048,0.49912
538.986,27.1791,-3.35924,0.0007209797,0.49891
539.586,27.19762,-3.35902,0.001133258,0.49869
540.186,27.2162,-3.35895,0.000513914,0.49847
540.786,27.23473,-3.35922,-0.00144491,0.49826
541.386,27.25328,-3.35925,-0.0008874486,0.49804
541.986,27.2718,-3.35925,0.0008038326,0.49782
542.586,27.29028,-3.35923,-0.0003088521,0.4976
543.186,27.30882,-3.36021,-0.00396645,0.49739
543.786,27.3273,-3.36057,-0.004474815,0.49717
544.386,27.3458,-3.3616,-0.004970719,0.49695
544.986,27.36435,-3.36187,-0.00446916,0.49674
545.586,27.38295,-3.36206,-0.00276617,0.49652
546.186,27.40148,-3.36325,-0.001497162,0.4963
546.786,27.42,-3.3632,-0.001191385,0.49609
547.386,27.4386,-3.3632,-0.001103175,0.49587
547.986,27.45713,-3.36334,-0.001111215,0.49565
548.586,27.47568,-3.36573,-0.0002678479,0.49544
549.186,27.49421,-3.36582,0.001114819,0.49522
549.786,27.5128,-3.36576,0.00357087,0.49501
550.386,27.5314,-3.36696,0.00565227,0.49479
550.986,27.54999,-3.36714,0.00787946,0.49457
551.586,27.56855,-3.36714,0.007226415,0.49436
552.186,27.58718,-3.3671,0.008113293,0.49414
552.786,27.6058,-3.3683,0.009630157,0.49392
553.386,27.6244,-3.3684,0.01088288,0.49371
553.986,27.64305,-3.36943,0.009095135,0.49349
554.586,27.66165,-3.36973,0.01105746,0.49328
555.186,27.6803,-3.37053,0.01167871,0.49306
555.786,27.69898,-3.37109,0.01169127,0.49284
556.386,27.71759,-3.37106,0.01043546,0.49263
556.986,27.7362,-3.37228,0.009046091,0.49241
557.586,27.7549,-3.3724,0.01076006,0.4922
558.186,27.7735,-3.37241,0.01195274,0.49198
558.786,27.7921,-3.37241,0.01280488,0.49176
559.386,27.8108,-3.37242,0.01381236,0.49155
559.986,27.8295,-3.37243,0.01355336,0.49133
560.586,27.8482,-3.37497,0.01096421,0.49112
561.186,27.8669,-3.37503,0.01226998,0.4909
561.786,27.8856,-3.37504,0.01433356,0.49069
562.386,27.90428,-3.37504,0.01582751,0.49047
562.986,27.923,-3.37499,0.01554001,0.49025
563.586,27.94166,-3.37576,0.01576349,0.49004
564.186,27.9604,-3.37568,0.01699536,0.48982
564.786,27.97908,-3.37536,0.01910414,0.48961
565.386,27.99778,-3.37668,0.02086171,0.48939
565.986,28.01646,-3.37672,0.0232954,0.48918
566.586,28.03515,-3.37633,0.02216235,0.48896
567.186,28.0539,-3.37636,0.02355818,0.48875
567.786,28.07258,-3.37637,0.02677114,0.48853
568.386,28.0913,-3.37645,0.02440255,0.48832
568.986,28.11008,-3.37769,0.02504997,0.4881
569.586,28.12882,-3.37767,0.02363532,0.48789
570.186,28.14756,-3.3776,0.02343036,0.48767
570.786,28.16633,-3.37897,0.02408086,0.48746
571.386,28.1851,-3.37899,0.02077614,0.48724
571.986,28.20383,-3.37899,0.02166683,0.48703
572.586,28.2226,-3.37899,0.02194272,0.48681
573.186,28.2414,-3.37899,0.02283298,0.4866
573.786,28.26016,-3.37899,0.02337853,0.48639
574.386,28.2789,-3.37898,0.02439621,0.48617
574.986,28.2977,-3.38029,0.02669194,0.48596
575.586,28.3164,-3.3803,0.03032514,0.48574
576.186,28.33519,-3.38027,0.03325242,0.48553
576.786,28.35398,-3.38072,0.03094999,0.48531
577.386,28.3728,-3.38205,0.03129093,0.4851
577.986,28.39163,-3.382,0.03029311,0.48489
578.586,28.41054,-3.38459,0.03158836,0.48467
579.186,28.42942,-3.38448,0.03199914,0.48446
579.786,28.44823,-3.38538,0.03461833,0.48424
580.386,28.467,-3.38579,0.03539463,0.48403
580.986,28.48586,-3.38579,0.03169194,0.48382
581.586,28.50465,-3.38577,0.0352722,0.4836
582.186,28.5235,-3.38635,0.0390507,0.48339
582.786,28.54233,-3.38571,0.04173359,0.48317
583.386,28.56121,-3.38579,0.04096093,0.48296
583.986,28.58,-3.38579,0.03920298,0.48275
584.586,28.599,-3.38579,0.04063054,0.48253
585.186,28.6179,-3.38573,0.04165784,0.48232
585.786,28.63668,-3.38709,0.04290717,0.48211
586.386,28.65557,-3.38706,0.04306067,0.48189
586.986,28.6745,-3.38818,0.04433391,0.48168
587.586,28.6933,-3.3884,0.04634029,0.48147
588.186,28.7122,-3.38838,0.04528082,0.48126
588.786,28.73113,-3.38919,0.04631889,0.48104
589.386,28.7501,-3.38941,0.04285606,0.48083
589.986,28.769,-3.38941,0.04336734,0.48062
590.586,28.78792,-3.38942,0.04432714,0.4804
591.186,28.8069,-3.38968,0.04662392,0.48019
591.786,28.8258,-3.38984,0.04411598,0.47998
592.386,28.84465,-3.39126,0.04488711,0.47977
592.986,28.86358,-3.39118,0.04529238,0.47955
593.586,28.8825,-3.39117,0.04626114,0.47934
594.186,28.90152,-3.39118,0.04785486,0.47913
594.786,28.9205,-3.39122,0.0492134,0.47892
595.386,28.9395,-3.39249,0.04884775,0.4787
595.986,28.95856,-3.39248,0.04698525,0.47849
596.586,28.97751,-3.39249,0.04814951,0.47828
597.186,28.9965,-3.39295,0.04777697,0.47807
597.786,29.01548,-3.39347,0.04232592,0.47786
598.386,29.0344,-3.39315,0.04357919,0.47764
598.986,29.0534,-3.39246,0.04483763,0.47743
599.586,29.0724,-3.39248,0.0462785,0.47722
600.186,29.09142,-3.39249,0.04143347,0.47701
600.786,29.1104,-3.39252,0.0420824,0.4768
601.386,29.1294,-3.3938,0.04226044,0.47659
601.986,29.1484,-3.39439,0.04157672,0.47638
602.586,29.1674,-3.39513,0.04125743,0.47616
603.186,29.1865,-3.39507,0.04424109,0.47595
603.786,29.2055,-3.39625,0.04513259,0.47574
604.386,29.2245,-3.39642,0.04369745,0.47553
604.986,29.2436,-3.39643,0.04319632,0.47532
605.586,29.26255,-3.39643,0.04327513,0.47511
606.186,29.28156,-3.39641,0.04135906,0.4749
606.786,29.30065,-3.39721,0.04246445,0.47469
607.386,29.31973,-3.39775,0.03892378,0.47448
607.986,29.3388,-3.39774,0.04208355,0.47427
608.586,29.35789,-3.39809,0.04217916,0.47406
609.186,29.3769,-3.39808,0.03948734,0.47385
609.786,29.396,-3.39799,0.04075565,0.47364
610.386,29.415,-3.39935,0.03900881,0.47343
610.986,29.43406,-3.39939,0.04026016,0.47322
611.586,29.4532,-3.39939,0.04313286,0.47301
612.186,29.4723,-3.39939,0.04279356,0.4728
612.786,29.49138,-3.39939,0.04193096,0.47259
613.386,29.5105,-3.3994,0.04446455,0.47238
613.986,29.5296,-3.40073,0.04233885,0.47217
614.586,29.5487,-3.40071,0.0453795,0.47196
615.186,29.5678,-3.40071,0.04272367,0.47175
615.786,29.5869,-3.40071,0.0419039,0.47154
616.386,29.60592,-3.40066,0.04133554,0.47133
616.986,29.625,-3.40182,0.0435265,0.47112
617.586,29.6441,-3.40202,0.03912392,0.47091
618.186,29.6632,-3.40203,0.04098327,0.4707
618.786,29.68232,-3.40203,0.03533158,0.47049
619.386,29.7015,-3.40203,0.03741757,0.47028
619.986,29.72063,-3.4025,0.03819118,0.47007
620.586,29.73975,-3.40333,0.03855968,0.46986
621.186,29.7588,-3.40334,0.03560146,0.46966
621.786,29.7778,-3.4034,0.03898772,0.46945
622.386,29.7969,-3.40205,0.03957939,0.46924
622.986,29.81611,-3.40203,0.03565365,0.46903
623.586,29.83532,-3.40202,0.03786092,0.46882
624.186,29.85462,-3.40293,0.03461863,0.46861
624.786,29.8739,-3.40332,0.03476623,0.46841
625.386,29.89312,-3.40334,0.03412318,0.4682
625.986,29.91227,-3.40334,0.03336806,0.46799
626.586,29.93129,-3.40334,0.0355992,0.46778
627.186,29.9504,-3.40334,0.03603015,0.46757
627.786,29.96961,-3.40334,0.03578305,0.46737
628.386,29.98875,-3.40333,0.0331612,0.46716
628.986,30.0079,-3.40461,0.03345275,0.46695
629.586,30.02727,-3.40464,0.03461947,0.46674
630.186,30.0464,-3.40416,0.03320537,0.46654
630.786,30.0656,-3.40402,0.03328533,0.46633
631.386,30.0848,-3.40409,0.03379198,0.46612
631.986,30.104,-3.40541,0.03069286,0.46592
632.586,30.1232,-3.40533,0.02614565,0.46571
633.186,30.1425,-3.40531,0.02702485,0.4655
633.786,30.1617,-3.40519,0.02793869,0.4653
634.386,30.181,-3.4048,0.02656537,0.46509
634.986,30.2001,-3.40597,0.02588062,0.46488
635.586,30.21937,-3.40597,0.02278232,0.46468
636.186,30.2386,-3.40598,0.02117585,0.46447
636.786,30.25783,-3.40685,0.02080796,0.46426
637.386,30.2771,-3.40808,0.01728904,0.46406
637.986,30.29637,-3.40861,0.01622035,0.46385
638.586,30.3156,-3.40861,0.01211188,0.46364
639.186,30.33483,-3.40866,0.009367518,0.46344
639.786,30.35404,-3.40756,0.01110929,0.46323
640.386,30.3733,-3.4073,0.008613619,0.46303
640.986,30.39262,-3.40729,0.00670373,0.46282
641.586,30.41191,-3.40729,0.00977222,0.46262
642.186,30.43122,-3.40729,0.00580035,0.46241
642.786,30.4505,-3.40729,0.004152455,0.46221
643.386,30.46977,-3.40729,0.00371897,0.462
643.986,30.489,-3.4076,-5.53984e-05,0.4618
644.586,30.50828,-3.40862,0.00346127,0.46159
645.186,30.52761,-3.40862,0.006129305,0.46139
645.786,30.54693,-3.40937,0.00337319,0.46118
646.386,30.5663,-3.40995,0.00328976,0.46098
646.986,30.5857,-3.41056,0.001989657,0.46077
647.586,30.605,-3.41125,-0.002113528,0.46057
648.186,30.6244,-3.41124,-0.00187052,0.46036
648.786,30.6437,-3.41124,-0.00743209,0.46016
649.386,30.66293,-3.4112,-0.00491477,0.45995
649.986,30.68225,-3.41215,-0.006657139,0.45975
650.586,30.70165,-3.41255,-0.00591787,0.45955
651.186,30.72097,-3.41256,-0.00341087,0.45934
651.786,30.7404,-3.41256,-0.002802984,0.45914
652.386,30.75977,-3.41256,-0.0016719,0.45894
652.986,30.77908,-3.41256,-0.002767597,0.45873
653.586,30.7984,-3.41256,-0.0026817,0.45853
654.186,30.81777,-3.41256,-0.002231186,0.45833
654.786,30.83718,-3.41256,-0.001815886,0.45812
655.386,30.85655,-3.41256,-0.0018144,0.45792
655.986,30.876,-3.41251,-0.003675689,0.45772
656.586,30.89541,-3.41369,-0.002353338,0.45751
657.186,30.9149,-3.41386,-0.00521485,0.45731
657.786,30.93422,-3.41387,-0.004384371,0.45711
658.386,30.95369,-3.41392,-0.00562787,0.45691
658.986,30.9731,-3.41302,-0.006468031,0.4567
659.586,30.9925,-3.41288,-0.007006312,0.4565
660.186,31.0119,-3.41348,-0.009449052,0.4563
660.786,31.0313,-3.41418,-0.00950741,0.4561
661.386,31.05071,-3.4142,-0.0081879,0.45589
661.986,31.07018,-3.4142,-0.009142979,0.45569
662.586,31.0896,-3.4142,-0.01039486,0.45549
663.186,31.1091,-3.4142,-0.01067208,0.45529
663.786,31.12855,-3.4142,-0.01407858,0.45509
664.386,31.14797,-3.41415,-0.00968825,0.45489
664.986,31.1674,-3.41551,-0.01144887,0.45468
665.586,31.1869,-3.41552,-0.01364872,0.45448
666.186,31.20642,-3.41555,-0.01371016,0.45428
666.786,31.2259,-3.41517,-0.01141568,0.45408
667.386,31.2454,-3.41519,-0.01049328,0.45388
667.986,31.26489,-3.41519,-0.00727965,0.45368
668.586,31.28438,-3.41519,-0.00750847,0.45348
669.186,31.30385,-3.4151,-0.00601665,0.45328
669.786,31.32331,-3.41414,-0.006280679,0.45308
670.386,31.34282,-3.4142,-0.006657486,0.45288
670.986,31.36232,-3.4142,-0.007345013,0.45268
671.586,31.3818,-3.41421,-0.01032153,0.45248
672.186,31.40135,-3.41436,-0.01025501,0.45228
672.786,31.4208,-3.41549,-0.01031109,0.45208
673.386,31.44033,-3.41659,-0.0123829,0.45188
673.986,31.45979,-3.41683,-0.00989656,0.45168
674.586,31.4793,-3.41683,-0.00756793,0.45148
675.186,31.49884,-3.41683,-0.0102719,0.45128
675.786,31.5184,-3.41683,-0.008671798,0.45108
676.386,31.538,-3.4168,-0.006118104,0.45088
676.986,31.55755,-3.41809,-0.00452227,0.45068
677.586,31.5771,-3.41814,-0.0006948478,0.45048
678.186,31.59667,-3.41815,-0.000558062,0.45028
678.786,31.61614,-3.41821,-0.006929323,0.45009
679.386,31.63567,-3.41722,-0.004159357,0.44989
679.986,31.65522,-3.41726,0.0003666432,0.44969
680.586,31.67478,-3.41855,0.001038028,0.44949
681.186,31.6944,-3.41848,0.0002569284,0.44929
681.786,31.71397,-3.41847,0.004669073,0.44909
682.386,31.7336,-3.41847,0.009403035,0.4489
682.986,31.7531,-3.41847,0.01014731,0.4487
683.586,31.77267,-3.41847,0.006941836,0.4485
684.186,31.7922,-3.41847,0.008543584,0.4483
684.786,31.81172,-3.41847,0.01760917,0.4481
685.386,31.8313,-3.41848,0.01691645,0.44791
685.986,31.8509,-3.41986,0.007981678,0.44771
686.586,31.8705,-3.41979,0.002468604,0.44751
687.186,31.89013,-3.41979,0.001099459,0.44732
687.786,31.90977,-3.41978,0.00251642,0.44712
688.386,31.92939,-3.41946,0.005652703,0.44692
688.986,31.9489,-3.41946,0.004413837,0.44672
689.586,31.9685,-3.42074,0.00676455,0.44653
690.186,31.9881,-3.42077,0.00679687,0.44633
690.786,32.0077,-3.42078,0.002147338,0.44614
691.386,32.0274,-3.42078,-0.001335085,0.44594
691.986,32.04698,-3.42078,-0.0002020886,0.44574
692.586,32.06657,-3.42078,0.0003848141,0.44555
693.186,32.08616,-3.42078,0.00082563,0.44535
693.786,32.10576,-3.4209,-0.001801696,0.44516
694.386,32.12536,-3.42216,-0.002846455,0.44496
694.986,32.145,-3.4221,-0.00573779,0.44476
695.586,32.1646,-3.42209,0.0001759359,0.44457
696.186,32.18423,-3.42209,0.00133647,0.44437
696.786,32.20388,-3.42209,-0.00342836,0.44418
697.386,32.22353,-3.42209,-0.004453547,0.44398
697.986,32.2432,-3.42208,0.0005837618,0.44379
698.586,32.26282,-3.42194,-0.00150885,0.44359
699.186,32.28242,-3.42028,-0.009913526,0.4434
699.786,32.302,-3.42013,-0.00983814,0.4432
700.386,32.32159,-3.42013,-0.01132303,0.44301
700.986,32.34114,-3.42013,-0.01003363,0.44282
701.586,32.36078,-3.42014,-0.01405925,0.44262
702.186,32.38044,-3.42149,-0.01735222,0.44243
702.786,32.40005,-3.4214,-0.01581773,0.44223
703.386,32.4197,-3.42081,-0.01626492,0.44204
703.986,32.43928,-3.42144,-0.01959002,0.44185
704.586,32.4589,-3.42144,-0.02323423,0.44165
705.186,32.4786,-3.42144,-0.02225581,0.44146
705.786,32.49817,-3.42202,-0.02834373,0.44127
706.386,32.51783,-3.42276,-0.03206962,0.44107
706.986,32.53758,-3.42275,-0.03178782,0.44088
707.586,32.55717,-3.42275,-0.03160872,0.44069
708.186,32.57674,-3.42269,-0.03219925,0.44049
708.786,32.59636,-3.42345,-0.03486007,0.4403
709.386,32.616,-3.42336,-0.03667857,0.44011
709.986,32.63559,-3.42456,-0.03782806,0.43992
710.586,32.65528,-3.42472,-0.03757318,0.43972
711.186,32.67498,-3.42473,-0.03838879,0.43953
711.786,32.69462,-3.42473,-0.04292597,0.43934
712.386,32.71431,-3.42473,-0.048025,0.43915
712.986,32.73403,-3.42473,-0.05110287,0.43896
713.586,32.7537,-3.42473,-0.05487432,0.43877
714.186,32.7734,-3.42473,-0.05399079,0.43857
714.786,32.793,-3.42474,-0.05553733,0.43838
715.386,32.81265,-3.42489,-0.05682494,0.43819
715.986,32.83232,-3.42611,-0.0545292,0.438
716.586,32.85196,-3.42617,-0.06032523,0.43781
717.186,32.8716,-3.42741,-0.05482103,0.43762
717.786,32.89134,-3.42682,-0.06335978,0.43743
718.386,32.91106,-3.42606,-0.06489694,0.43724
718.986,32.93074,-3.42604,-0.05714011,0.43705
719.586,32.95055,-3.42604,-0.06031975,0.43686
720.186,32.9702,-3.42602,-0.06256268,0.43667
720.786,32.98995,-3.42709,-0.06521012,0.43648
721.386,33.00969,-3.42736,-0.0623965,0.43629
721.986,33.02943,-3.42736,-0.06566146,0.4361
722.586,33.04912,-3.42736,-0.06562234,0.43591
723.186,33.06889,-3.42736,-0.07266825,0.43572
723.786,33.08865,-3.42735,-0.07497878,0.43553
724.386,33.1084,-3.42864,-0.08579524,0.43534
724.986,33.1282,-3.42867,-0.08600758,0.43515
725.586,33.148,-3.42872,-0.09011539,0.43496
726.186,33.16778,-3.42737,-0.087932,0.43477
726.786,33.18755,-3.42736,-0.09219564,0.43458
727.386,33.20733,-3.42736,-0.09236791,0.43439
727.986,33.2271,-3.42736,-0.09198158,0.4342
728.586,33.24686,-3.42736,-0.09285168,0.43402
729.186,33.2667,-3.42736,-0.099035,0.43383
729.786,33.28638,-3.42742,-0.09982158,0.43364
730.386,33.30715,-3.42612,-0.10976,0.43345
730.986,33.32826,-3.42604,-0.11238,0.43326
731.186,33.33245,-3.42604,-0.11257,0.4332