File: 01_Data/Cotton_Felt/STA/N2/30K_min/Cotton_Felt_STA_N2_30KData_210719_R2.csv
##Temp./Â°C,Time/min,Mass loss(subtr.2)/mg,DSC(subtr.2)/(mW/mg),Sensit./(uV/mW)
50.645,10.00917,-0.05825,0.03928898,0.6235
51.245,11.0047,-0.06201423,0.05909622,0.62349
51.845,11.2171,-0.06158189,0.08490942,0.62349
52.445,11.35861,-0.06101387,0.10078,0.62348
53.045,11.4724,-0.06177621,0.11791,0.62347
53.645,11.56989,-0.06287754,0.1345,0.62346
54.245,11.65361,-0.06281028,0.15189,0.62346
54.845,11.72986,-0.06478622,0.16802,0.62345
55.445,11.79855,-0.06350726,0.18099,0.62344
56.045,11.86156,-0.06413403,0.19408,0.62343
56.645,11.92143,-0.0639498,0.21042,0.62341
57.245,11.97787,-0.06466755,0.22016,0.6234
57.845,12.03002,-0.06404751,0.2308,0.62339
58.445,12.08058,-0.06513414,0.24442,0.62338
59.045,12.12962,-0.06638293,0.25557,0.62336
59.645,12.1771,-0.06774911,0.26794,0.62335
60.245,12.2227,-0.0677395,0.27982,0.62334
60.845,12.2665,-0.06705019,0.28866,0.62332
61.445,12.30906,-0.06801628,0.29945,0.6233
62.045,12.35073,-0.0674844,0.30997,0.62329
62.645,12.39151,-0.0678692,0.31872,0.62327
63.245,12.43113,-0.0664794,0.32648,0.62326
63.845,12.46991,-0.06751554,0.33593,0.62324
64.445,12.50808,-0.07149449,0.34673,0.62322
65.045,12.54522,-0.08122349,0.35261,0.6232
65.645,12.58199,-0.06495753,0.36316,0.62318
66.245,12.61828,-0.06436611,0.37304,0.62316
66.845,12.65423,-0.06921078,0.38422,0.62314
67.445,12.68935,-0.07108149,0.38794,0.62312
68.045,12.7239,-0.07108754,0.40001,0.6231
68.645,12.7582,-0.07019299,0.40755,0.62308
69.245,12.79219,-0.07154755,0.41403,0.62305
69.845,12.82576,-0.07152116,0.42402,0.62303
70.445,12.85887,-0.07283052,0.43178,0.62301
71.045,12.89151,-0.07315435,0.44063,0.62298
71.645,12.92407,-0.07321269,0.44913,0.62296
72.245,12.95636,-0.07320757,0.45737,0.62293
72.845,12.9885,-0.07381635,0.4659,0.62291
73.445,13.02031,-0.07493805,0.47226,0.62288
74.045,13.05182,-0.07582364,0.48182,0.62285
74.645,13.083,-0.07586302,0.48743,0.62283
75.245,13.1138,-0.07673619,0.49555,0.6228
75.845,13.1438,-0.07737282,0.50352,0.62277
76.445,13.17387,-0.07800055,0.51295,0.62274
77.045,13.2045,-0.07807704,0.52099,0.62271
77.645,13.23531,-0.07941044,0.52603,0.62268
78.245,13.26578,-0.08527097,0.53391,0.62265
78.845,13.29561,-0.09117012,0.54072,0.62262
79.445,13.32533,-0.07942337,0.55106,0.62259
80.045,13.35469,-0.07250562,0.56043,0.62256
80.645,13.3838,-0.07806966,0.56597,0.62253
81.245,13.41284,-0.08096696,0.57431,0.62249
81.845,13.4416,-0.08331711,0.58385,0.62246
82.445,13.4703,-0.0834763,0.59417,0.62242
83.045,13.4989,-0.0847969,0.60054,0.62239
83.645,13.52716,-0.08619297,0.60705,0.62235
84.245,13.55536,-0.08618772,0.61831,0.62232
84.845,13.5834,-0.08633331,0.62721,0.62228
85.445,13.61134,-0.0863264,0.63597,0.62225
86.045,13.63933,-0.08765946,0.64326,0.62221
86.645,13.66681,-0.08811881,0.65499,0.62217
87.245,13.69428,-0.08894351,0.66077,0.62213
87.845,13.72156,-0.0904875,0.66847,0.62209
88.445,13.74877,-0.09068802,0.67786,0.62205
89.045,13.7758,-0.09169396,0.68556,0.62201
89.645,13.80277,-0.09164186,0.6932,0.62197
90.245,13.82947,-0.09302109,0.69908,0.62193
90.845,13.856,-0.09297228,0.70854,0.62189
91.445,13.8826,-0.09451299,0.71657,0.62185
92.045,13.9089,-0.09595794,0.72375,0.62181
92.645,13.9349,-0.09630629,0.7328,0.62176
93.245,13.9609,-0.09724796,0.74039,0.62172
93.845,13.9866,-0.09859048,0.74696,0.62168
94.445,14.01244,-0.09861156,0.75597,0.62163
95.045,14.0381,-0.09862132,0.76391,0.62159
95.645,14.06359,-0.10007,0.77194,0.62154
96.245,14.08901,-0.10125,0.78142,0.6215
96.845,14.11435,-0.10126,0.78554,0.62145
97.445,14.1395,-0.10193,0.79392,0.6214
98.045,14.16451,-0.10254,0.79988,0.62135
98.645,14.18946,-0.10258,0.80547,0.62131
99.245,14.2142,-0.10543,0.8162,0.62126
99.845,14.23901,-0.10737,0.81809,0.62121
100.445,14.26363,-0.10806,0.8258,0.62116
101.045,14.2881,-0.10893,0.83078,0.62111
101.645,14.3125,-0.11003,0.83418,0.62106
102.245,14.3368,-0.11067,0.83927,0.62101
102.845,14.36103,-0.11068,0.84414,0.62096
103.445,14.38517,-0.11059,0.85132,0.6209
104.045,14.40908,-0.11211,0.85828,0.62085
104.645,14.4329,-0.11276,0.86136,0.6208
105.245,14.4565,-0.1147,0.86506,0.62075
105.845,14.4802,-0.11478,0.86985,0.62069
106.445,14.50371,-0.11611,0.87315,0.62064
107.045,14.5273,-0.11656,0.8784,0.62058
107.645,14.55078,-0.11816,0.88186,0.62053
108.245,14.57405,-0.11889,0.88511,0.62047
108.845,14.59729,-0.12134,0.88919,0.62041
109.445,14.6203,-0.12151,0.89342,0.62036
110.045,14.64335,-0.12416,0.89933,0.6203
110.645,14.66634,-0.12406,0.89948,0.62024
111.245,14.6892,-0.12538,0.8992,0.62018
111.845,14.71194,-0.12551,0.90411,0.62012
112.445,14.73461,-0.12673,0.90612,0.62006
113.045,14.7573,-0.12662,0.90882,0.62
113.645,14.77989,-0.12801,0.91175,0.61994
114.245,14.80238,-0.12795,0.91269,0.61988
114.845,14.82479,-0.12928,0.91605,0.61982
115.445,14.8471,-0.12952,0.91711,0.61976
116.045,14.86935,-0.13064,0.91893,0.6197
116.645,14.89153,-0.13078,0.91921,0.61963
117.245,14.9136,-0.13321,0.91894,0.61957
117.845,14.93539,-0.1333,0.92279,0.61951
118.445,14.9573,-0.13409,0.92241,0.61944
119.045,14.97914,-0.1346,0.92039,0.61938
119.645,15.0009,-0.13595,0.92242,0.61931
120.245,15.02275,-0.13591,0.92272,0.61925
120.845,15.04444,-0.13591,0.91987,0.61918
121.445,15.06603,-0.13617,0.91859,0.61911
122.045,15.0875,-0.1386,0.92061,0.61905
122.645,15.10885,-0.13884,0.91886,0.61898
123.245,15.1302,-0.14131,0.91787,0.61891
123.845,15.1515,-0.14184,0.91749,0.61884
124.445,15.1728,-0.14256,0.91588,0.61877
125.045,15.19391,-0.14259,0.91554,0.6187
125.645,15.215,-0.14261,0.91374,0.61863
126.245,15.2359,-0.14324,0.91065,0.61856
126.845,15.25678,-0.14403,0.90867,0.61849
127.445,15.27765,-0.14402,0.91035,0.61842
128.045,15.29849,-0.1453,0.906,0.61835
128.645,15.3193,-0.14534,0.90385,0.61827
129.245,15.33995,-0.14682,0.90053,0.6182
129.845,15.3605,-0.14815,0.89729,0.61813
130.445,15.38106,-0.14948,0.89793,0.61805
131.045,15.4015,-0.14941,0.89588,0.61798
131.645,15.4219,-0.1494,0.89506,0.61791
132.245,15.44234,-0.1494,0.8918,0.61783
132.845,15.4626,-0.1494,0.88833,0.61775
133.445,15.4829,-0.1494,0.88576,0.61768
134.045,15.5031,-0.1494,0.88396,0.6176
134.645,15.5232,-0.14939,0.88323,0.61752
135.245,15.5433,-0.14932,0.8792,0.61745
135.845,15.56345,-0.15068,0.87678,0.61737
136.445,15.5834,-0.15084,0.87113,0.61729
137.045,15.6034,-0.15104,0.86542,0.61721
137.645,15.62333,-0.15219,0.8619,0.61713
138.245,15.6432,-0.15214,0.85966,0.61705
138.845,15.6631,-0.15206,0.85525,0.61697
139.445,15.68286,-0.15324,0.85334,0.61689
140.045,15.7026,-0.15313,0.85269,0.61681
140.645,15.72226,-0.15307,0.84832,0.61673
141.245,15.7419,-0.15427,0.84733,0.61664
141.845,15.7615,-0.15481,0.84392,0.61656
142.445,15.78113,-0.15492,0.84245,0.61648
143.045,15.80066,-0.15609,0.83938,0.61639
143.645,15.8199,-0.15609,0.83582,0.61631
144.245,15.8392,-0.15609,0.83241,0.61623
144.845,15.85845,-0.15607,0.83407,0.61614
145.445,15.87775,-0.15729,0.83245,0.61606
146.045,15.8971,-0.1587,0.82707,0.61597
146.645,15.91663,-0.15872,0.82721,0.61588
147.245,15.936,-0.15766,0.82637,0.6158
147.845,15.95522,-0.15735,0.82498,0.61571
148.445,15.97441,-0.15813,0.8212,0.61562
149.045,15.99347,-0.15806,0.82052,0.61553
149.645,16.01233,-0.15804,0.81821,0.61544
150.245,16.0315,-0.15849,0.81657,0.61536
150.845,16.05055,-0.15826,0.81796,0.61527
151.445,16.0695,-0.15742,0.81538,0.61518
152.045,16.08858,-0.15739,0.81531,0.61509
152.645,16.10759,-0.15867,0.81513,0.61499
153.245,16.1265,-0.15872,0.81302,0.6149
153.845,16.14536,-0.15873,0.81295,0.61481
154.445,16.1643,-0.15873,0.81401,0.61472
155.045,16.18313,-0.15873,0.81447,0.61463
155.645,16.20195,-0.15873,0.81233,0.61453
156.245,16.22069,-0.15873,0.81316,0.61444
156.845,16.23944,-0.15873,0.81455,0.61435
157.445,16.25812,-0.15873,0.81579,0.61425
158.045,16.27685,-0.15873,0.81739,0.61416
158.645,16.29557,-0.15873,0.81692,0.61406
159.245,16.31421,-0.15873,0.81649,0.61397
159.845,16.3328,-0.15869,0.81817,0.61387
160.445,16.35138,-0.15786,0.81783,0.61377
161.045,16.36992,-0.15871,0.81737,0.61368
161.645,16.38844,-0.15872,0.81648,0.61358
162.245,16.407,-0.15872,0.81854,0.61348
162.845,16.42547,-0.15871,0.81597,0.61338
163.445,16.44391,-0.15862,0.81883,0.61328
164.045,16.46237,-0.15981,0.82162,0.61319
164.645,16.48086,-0.15972,0.82409,0.61309
165.245,16.4993,-0.15971,0.82934,0.61299
165.845,16.5177,-0.15971,0.82864,0.61289
166.445,16.53613,-0.15968,0.82993,0.61278
167.045,16.55446,-0.16007,0.83258,0.61268
167.645,16.57264,-0.16004,0.8336,0.61258
168.245,16.59079,-0.16004,0.83649,0.61248
168.845,16.60896,-0.16004,0.83619,0.61238
169.445,16.62709,-0.16004,0.83837,0.61227
170.045,16.64527,-0.16004,0.84009,0.61217
170.645,16.66347,-0.16,0.84227,0.61207
171.245,16.6816,-0.1609,0.84363,0.61196
171.845,16.69983,-0.16134,0.84246,0.61186
172.445,16.71797,-0.16136,0.84471,0.61175
173.045,16.73611,-0.16074,0.85165,0.61165
173.645,16.75432,-0.16035,0.85762,0.61154
174.245,16.77257,-0.16073,0.85841,0.61143
174.845,16.79081,-0.16133,0.8599,0.61133
175.445,16.80901,-0.16135,0.86548,0.61122
176.045,16.8271,-0.16135,0.86791,0.61111
176.645,16.845,-0.16135,0.87081,0.611
177.245,16.86295,-0.16132,0.87477,0.6109
177.845,16.88081,-0.15997,0.87436,0.61079
178.445,16.89862,-0.16004,0.87548,0.61068
179.045,16.91646,-0.16003,0.87855,0.61057
179.645,16.93435,-0.15995,0.88343,0.61046
180.245,16.95218,-0.16122,0.88603,0.61035
180.845,16.9699,-0.16135,0.8883,0.61024
181.445,16.9878,-0.16135,0.88987,0.61012
182.045,17.00562,-0.16135,0.8936,0.61001
182.645,17.02342,-0.16135,0.89476,0.6099
183.245,17.04119,-0.16135,0.89461,0.60979
183.845,17.05901,-0.16135,0.89583,0.60968
184.445,17.07668,-0.16135,0.9005,0.60956
185.045,17.09439,-0.16136,0.90401,0.60945
185.645,17.11206,-0.16147,0.90326,0.60933
186.245,17.12979,-0.16267,0.90473,0.60922
186.845,17.14755,-0.16142,0.90724,0.6091
187.445,17.1653,-0.16137,0.91055,0.60899
188.045,17.18298,-0.16136,0.91064,0.60887
188.645,17.20068,-0.16136,0.91421,0.60876
189.245,17.21826,-0.16136,0.91474,0.60864
189.845,17.2358,-0.16136,0.91521,0.60852
190.445,17.25328,-0.16132,0.92125,0.60841
191.045,17.27078,-0.16215,0.92351,0.60829
191.645,17.2882,-0.16268,0.92514,0.60817
192.245,17.30565,-0.16267,0.92912,0.60805
192.845,17.32307,-0.16262,0.93104,0.60793
193.445,17.34045,-0.16337,0.93091,0.60781
194.045,17.3579,-0.16333,0.93703,0.60769
194.645,17.37528,-0.16333,0.93823,0.60757
195.245,17.39268,-0.16333,0.94044,0.60745
195.845,17.41003,-0.16333,0.94032,0.60733
196.445,17.42738,-0.16333,0.94243,0.60721
197.045,17.44471,-0.16333,0.94666,0.60709
197.645,17.46201,-0.16333,0.94824,0.60697
198.245,17.47925,-0.16333,0.95008,0.60684
198.845,17.4965,-0.16333,0.95149,0.60672
199.445,17.5137,-0.16332,0.94981,0.6066
200.045,17.5309,-0.16383,0.95179,0.60647
200.645,17.5481,-0.16467,0.95372,0.60635
201.245,17.56534,-0.16466,0.95636,0.60623
201.845,17.5825,-0.16465,0.95792,0.6061
202.445,17.59972,-0.16465,0.96041,0.60598
203.045,17.61686,-0.16465,0.96203,0.60585
203.645,17.634,-0.16465,0.96293,0.60572
204.245,17.6511,-0.16465,0.96756,0.6056
204.845,17.66827,-0.16465,0.96678,0.60547
205.445,17.68546,-0.16465,0.96833,0.60534
206.045,17.70264,-0.16465,0.97013,0.60522
206.645,17.71981,-0.16465,0.97017,0.60509
207.245,17.73694,-0.16463,0.97161,0.60496
207.845,17.75404,-0.16517,0.97267,0.60483
208.445,17.7711,-0.16529,0.97422,0.6047
209.045,17.78811,-0.1653,0.9758,0.60457
209.645,17.80516,-0.1653,0.97788,0.60444
210.245,17.8222,-0.1653,0.97683,0.60431
210.845,17.83922,-0.1653,0.97651,0.60418
211.445,17.85633,-0.16682,0.97813,0.60405
212.045,17.87336,-0.16797,0.97931,0.60392
212.645,17.89036,-0.16794,0.9802,0.60379
213.245,17.90731,-0.16794,0.98228,0.60366
213.845,17.92424,-0.16794,0.98131,0.60352
214.445,17.94114,-0.16794,0.98768,0.60339
215.045,17.958,-0.16794,0.98506,0.60326
215.645,17.97496,-0.16794,0.98614,0.60313
216.245,17.9919,-0.16794,0.98844,0.60299
216.845,18.0089,-0.16794,0.98893,0.60286
217.445,18.02582,-0.16794,0.98892,0.60272
218.045,18.04277,-0.16794,0.99186,0.60259
218.645,18.05965,-0.16794,0.98979,0.60245
219.245,18.07649,-0.16779,0.98997,0.60232
219.845,18.0933,-0.17002,0.99088,0.60218
220.445,18.1101,-0.17024,0.98954,0.60205
221.045,18.12697,-0.17024,0.99022,0.60191
221.645,18.14378,-0.17023,0.98894,0.60177
222.245,18.1606,-0.1707,0.98832,0.60163
222.845,18.1774,-0.17158,0.98598,0.6015
223.445,18.19432,-0.17155,0.98577,0.60136
224.045,18.21111,-0.17153,0.9866,0.60122
224.645,18.22789,-0.1721,0.9903,0.60108
225.245,18.2447,-0.17292,0.98581,0.60094
225.845,18.26146,-0.17289,0.98531,0.6008
226.445,18.27822,-0.17255,0.98552,0.60066
227.045,18.29502,-0.17302,0.98738,0.60052
227.645,18.31182,-0.17298,0.98878,0.60038
228.245,18.32856,-0.17326,0.98685,0.60024
228.845,18.34534,-0.17438,0.98702,0.6001
229.445,18.36208,-0.17432,0.98241,0.59996
230.045,18.37879,-0.17428,0.98335,0.59982
230.645,18.39538,-0.17567,0.98486,0.59967
231.245,18.4121,-0.17586,0.98437,0.59953
231.845,18.4288,-0.17736,0.98259,0.59939
232.445,18.4455,-0.17846,0.98546,0.59924
233.045,18.4622,-0.17956,0.98622,0.5991
233.645,18.47899,-0.17956,0.9811,0.59896
234.245,18.49567,-0.18057,0.98079,0.59881
234.845,18.51229,-0.18082,0.97968,0.59867
235.445,18.529,-0.18151,0.98056,0.59852
236.045,18.54562,-0.18248,0.98199,0.59838
236.645,18.5623,-0.18256,0.98049,0.59823
237.245,18.5789,-0.18372,0.98374,0.59809
237.845,18.59545,-0.18419,0.98215,0.59794
238.445,18.61205,-0.18571,0.97729,0.59779
239.045,18.62865,-0.18589,0.9785,0.59765
239.645,18.6452,-0.18739,0.97763,0.5975
240.245,18.66175,-0.18813,0.97741,0.59735
240.845,18.67824,-0.18906,0.97652,0.5972
241.445,18.69485,-0.19088,0.97723,0.59705
242.045,18.71145,-0.19194,0.97017,0.59691
242.645,18.72805,-0.19252,0.969,0.59676
243.245,18.74472,-0.1937,0.96599,0.59661
243.845,18.76144,-0.19586,0.96401,0.59646
244.445,18.77808,-0.19792,0.96318,0.59631
245.045,18.7946,-0.19956,0.9644,0.59616
245.645,18.81108,-0.20105,0.96387,0.59601
246.245,18.82765,-0.20159,0.96232,0.59585
246.845,18.84419,-0.20324,0.96407,0.5957
247.445,18.8608,-0.20167,0.96477,0.59555
248.045,18.87732,-0.19815,0.95953,0.5954
248.645,18.89387,-0.19756,0.95903,0.59525
249.245,18.9104,-0.2033,0.95581,0.5951
249.845,18.92693,-0.21487,0.95885,0.59494
250.445,18.94342,-0.22028,0.95984,0.59479
251.045,18.9599,-0.22061,0.95711,0.59464
251.645,18.97639,-0.2193,0.95812,0.59448
252.245,18.99286,-0.21929,0.94908,0.59433
252.845,19.0093,-0.22049,0.95027,0.59417
253.445,19.0257,-0.22135,0.95022,0.59402
254.045,19.04215,-0.22304,0.94539,0.59386
254.645,19.05866,-0.225,0.94616,0.59371
255.245,19.07515,-0.22707,0.94752,0.59355
255.845,19.0916,-0.23,0.95142,0.5934
256.445,19.10817,-0.23182,0.9449,0.59324
257.045,19.1247,-0.23406,0.94288,0.59308
257.645,19.14111,-0.23683,0.9407,0.59293
258.245,19.1575,-0.23838,0.94105,0.59277
258.845,19.1739,-0.23988,0.94151,0.59261
259.445,19.19034,-0.2418,0.94362,0.59245
260.045,19.2067,-0.24476,0.94307,0.59229
260.645,19.22312,-0.24762,0.94505,0.59214
261.245,19.23958,-0.25036,0.93556,0.59198
261.845,19.25599,-0.253,0.92419,0.59182
262.445,19.27246,-0.2553,0.92147,0.59166
263.045,19.28892,-0.25785,0.92577,0.5915
263.645,19.30528,-0.26104,0.92533,0.59134
264.245,19.3217,-0.26394,0.92608,0.59118
264.845,19.33811,-0.26728,0.9272,0.59102
265.445,19.3545,-0.27107,0.92655,0.59086
266.045,19.37086,-0.27435,0.93156,0.59069
266.645,19.38731,-0.27857,0.9319,0.59053
267.245,19.40371,-0.28262,0.93001,0.59037
267.845,19.42009,-0.28533,0.92829,0.59021
268.445,19.43646,-0.28904,0.93184,0.59005
269.045,19.45283,-0.29255,0.93178,0.58988
269.645,19.46924,-0.29596,0.93086,0.58972
270.245,19.48563,-0.29878,0.92856,0.58956
270.845,19.50197,-0.30144,0.93085,0.58939
271.445,19.51837,-0.30461,0.92764,0.58923
272.045,19.53477,-0.30957,0.92747,0.58907
272.645,19.5512,-0.31313,0.92861,0.5889
273.245,19.56754,-0.31781,0.92785,0.58874
273.845,19.58391,-0.32101,0.93007,0.58857
274.445,19.60032,-0.32504,0.93153,0.58841
275.045,19.6167,-0.32954,0.93086,0.58824
275.645,19.63308,-0.33351,0.93479,0.58807
276.245,19.64947,-0.33981,0.93425,0.58791
276.845,19.66585,-0.34308,0.93743,0.58774
277.445,19.68224,-0.34752,0.93594,0.58758
278.045,19.6986,-0.35218,0.93666,0.58741
278.645,19.71503,-0.35708,0.93882,0.58724
279.245,19.73141,-0.36311,0.94261,0.58707
279.845,19.74781,-0.36652,0.94059,0.58691
280.445,19.76416,-0.37139,0.9379,0.58674
281.045,19.7805,-0.37616,0.9427,0.58657
281.645,19.79683,-0.3817,0.94113,0.5864
282.245,19.81317,-0.38789,0.94499,0.58623
282.845,19.82953,-0.39347,0.94593,0.58606
283.445,19.84587,-0.39868,0.94281,0.58589
284.045,19.86223,-0.40306,0.94363,0.58572
284.645,19.8786,-0.40868,0.94358,0.58555
285.245,19.89496,-0.41545,0.94516,0.58538
285.845,19.91124,-0.42149,0.94624,0.58521
286.445,19.92758,-0.42812,0.94677,0.58504
287.045,19.94386,-0.43256,0.94593,0.58487
287.645,19.96015,-0.43807,0.94659,0.5847
288.245,19.9765,-0.44435,0.94603,0.58453
288.845,19.9928,-0.45053,0.9445,0.58435
289.445,20.00916,-0.45828,0.94577,0.58418
290.045,20.02553,-0.46386,0.9464,0.58401
290.645,20.0419,-0.47112,0.94785,0.58384
291.245,20.0583,-0.47815,0.94884,0.58366
291.845,20.07467,-0.48519,0.95046,0.58349
292.445,20.09106,-0.49424,0.95213,0.58332
293.045,20.1075,-0.50065,0.95516,0.58314
293.645,20.1238,-0.50824,0.95282,0.58297
294.245,20.14025,-0.51438,0.94954,0.58279
294.845,20.1566,-0.52149,0.94582,0.58262
295.445,20.1729,-0.53064,0.94775,0.58244
296.045,20.18931,-0.53832,0.94763,0.58227
296.645,20.20576,-0.54916,0.94616,0.58209
297.245,20.22221,-0.55719,0.94416,0.58192
297.845,20.23865,-0.56641,0.947,0.58174
298.445,20.25509,-0.57652,0.94237,0.58157
299.045,20.27147,-0.58504,0.94248,0.58139
299.645,20.28785,-0.59519,0.94458,0.58121
300.245,20.30422,-0.60252,0.93989,0.58104
300.845,20.32062,-0.61173,0.94007,0.58086
301.445,20.337,-0.6217,0.9445,0.58068
302.045,20.35337,-0.63157,0.94228,0.5805
302.645,20.36975,-0.64425,0.93934,0.58033
303.245,20.3861,-0.65342,0.93909,0.58015
303.845,20.40251,-0.6638,0.94029,0.57997
304.445,20.41884,-0.67342,0.94608,0.57979
305.045,20.43521,-0.68373,0.94435,0.57961
305.645,20.45157,-0.69664,0.94594,0.57943
306.245,20.46791,-0.70733,0.94545,0.57925
306.845,20.48421,-0.72154,0.9432,0.57907
307.445,20.50056,-0.73296,0.94941,0.57889
308.045,20.51688,-0.74549,0.95123,0.57871
308.645,20.53325,-0.75965,0.94628,0.57853
309.245,20.5496,-0.77122,0.95077,0.57835
309.845,20.5659,-0.78631,0.95049,0.57817
310.445,20.5823,-0.79795,0.94996,0.57799
311.045,20.59862,-0.81104,0.94966,0.57781
311.645,20.61496,-0.8256,0.95187,0.57763
312.245,20.63129,-0.83843,0.95254,0.57745
312.845,20.64765,-0.85542,0.95478,0.57727
313.445,20.66399,-0.86915,0.9532,0.57708
314.045,20.68034,-0.88476,0.95541,0.5769
314.645,20.69674,-0.90113,0.95519,0.57672
315.245,20.71309,-0.91608,0.95406,0.57654
315.845,20.72948,-0.93406,0.95506,0.57635
316.445,20.74586,-0.94734,0.95852,0.57617
317.045,20.76221,-0.96397,0.95988,0.57598
317.645,20.7786,-0.9801,0.96277,0.5758
318.245,20.79495,-0.99648,0.96397,0.57562
318.845,20.81136,-1.01657,0.96699,0.57543
319.445,20.8277,-1.03233,0.96629,0.57525
320.045,20.84411,-1.05313,0.96821,0.57506
320.645,20.86049,-1.07094,0.96935,0.57488
321.245,20.8768,-1.08915,0.96886,0.57469
321.845,20.89322,-1.10996,0.9705,0.57451
322.445,20.90958,-1.12686,0.97209,0.57432
323.045,20.92599,-1.14928,0.97391,0.57414
323.645,20.94235,-1.16742,0.97611,0.57395
324.245,20.95873,-1.18739,0.98059,0.57376
324.845,20.97503,-1.20862,0.98184,0.57358
325.445,20.9913,-1.22626,0.98105,0.57339
326.045,21.0076,-1.24709,0.9808,0.5732
326.645,21.02386,-1.25911,0.98571,0.57302
327.245,21.04017,-1.27534,0.99041,0.57283
327.845,21.05646,-1.29852,0.99349,0.57264
328.445,21.07287,-1.32976,0.99598,0.57245
329.045,21.0892,-1.36851,0.99719,0.57227
329.645,21.1056,-1.39071,1.0,0.57208
330.245,21.12203,-1.41075,1.00195,0.57189
330.845,21.13851,-1.42885,1.00349,0.5717
331.445,21.15496,-1.44961,1.00403,0.57151
332.045,21.17144,-1.4772,1.00898,0.57132
332.645,21.1879,-1.49847,1.01249,0.57113
333.245,21.20438,-1.52521,1.01543,0.57094
333.845,21.22085,-1.54783,1.01916,0.57075
334.445,21.23724,-1.57216,1.022,0.57056
335.045,21.2537,-1.60025,1.02436,0.57037
335.645,21.27009,-1.62356,1.02985,0.57018
336.245,21.2865,-1.65464,1.03493,0.56999
336.845,21.30292,-1.67871,1.03854,0.5698
337.445,21.31935,-1.70631,1.04019,0.56961
338.045,21.3358,-1.7352,1.04463,0.56942
338.645,21.35225,-1.76086,1.04479,0.56923
339.245,21.3687,-1.7933,1.05039,0.56904
339.845,21.38512,-1.81783,1.05728,0.56885
340.445,21.4015,-1.84796,1.06211,0.56865
341.045,21.41797,-1.87676,1.06786,0.56846
341.645,21.43441,-1.90488,1.06874,0.56827
342.245,21.4508,-1.93889,1.07488,0.56808
342.845,21.46722,-1.96496,1.08026,0.56789
343.445,21.48369,-1.99858,1.08409,0.56769
344.045,21.50007,-2.02769,1.08523,0.5675
344.645,21.51647,-2.0585,1.09145,0.56731
345.245,21.53291,-2.09405,1.09806,0.56711
345.845,21.54939,-2.1221,1.10217,0.56692
346.445,21.5658,-2.15755,1.10834,0.56673
347.045,21.5823,-2.18668,1.11152,0.56653
347.645,21.59883,-2.22012,1.11519,0.56634
348.245,21.61531,-2.25735,1.11963,0.56614
348.845,21.63177,-2.28822,1.12029,0.56595
349.445,21.6482,-2.32678,1.1234,0.56575
350.045,21.6647,-2.3564,1.12539,0.56556
350.645,21.68113,-2.3928,1.12523,0.56536
351.245,21.69751,-2.42799,1.12927,0.56517
351.845,21.71399,-2.46124,1.1268,0.56497
352.445,21.73049,-2.50226,1.12638,0.56478
353.045,21.74701,-2.53345,1.12676,0.56458
353.645,21.76352,-2.57234,1.12497,0.56438
354.245,21.7802,-2.60689,1.12001,0.56419
354.845,21.79672,-2.64257,1.11687,0.56399
355.445,21.81328,-2.68336,1.11215,0.5638
356.045,21.82984,-2.71531,1.1057,0.5636
356.645,21.84638,-2.7561,1.09694,0.5634
357.245,21.8629,-2.78921,1.08719,0.5632
357.845,21.87953,-2.82759,1.07406,0.56301
358.445,21.8961,-2.86662,1.0605,0.56281
359.045,21.91265,-2.89999,1.04848,0.56261
359.645,21.92921,-2.94156,1.03351,0.56241
360.245,21.94578,-2.97318,1.01453,0.56222
360.845,21.9624,-3.01163,0.99345,0.56202
361.445,21.97895,-3.04552,0.97165,0.56182
362.045,21.99561,-3.07865,0.94677,0.56162
362.645,22.01221,-3.11802,0.91955,0.56142
363.245,22.02884,-3.14876,0.89304,0.56122
363.845,22.04547,-3.18764,0.86046,0.56103
364.445,22.06215,-3.2186,0.82854,0.56083
365.045,22.07882,-3.25206,0.79099,0.56063
365.645,22.0955,-3.2864,0.75072,0.56043
366.245,22.11222,-3.31425,0.7144,0.56023
366.845,22.12893,-3.34744,0.67211,0.56003
367.445,22.14565,-3.37197,0.62594,0.55983
368.045,22.1624,-3.40103,0.58505,0.55963
368.645,22.17916,-3.42627,0.54052,0.55943
369.245,22.19592,-3.44948,0.49617,0.55923
369.845,22.21271,-3.4748,0.45908,0.55903
370.445,22.22951,-3.49362,0.41722,0.55883
371.045,22.24638,-3.51787,0.38172,0.55863
371.645,22.26315,-3.535,0.35095,0.55842
372.245,22.28002,-3.55377,0.31551,0.55822
372.845,22.29691,-3.5702,0.28762,0.55802
373.445,22.31382,-3.58307,0.26595,0.55782
374.045,22.33076,-3.59728,0.23996,0.55762
374.645,22.3477,-3.60814,0.22049,0.55742
375.245,22.36467,-3.6203,0.2023,0.55721
375.845,22.38159,-3.62957,0.18558,0.55701
376.445,22.3985,-3.63887,0.16789,0.55681
377.045,22.41545,-3.64787,0.15485,0.55661
377.645,22.43234,-3.65424,0.1439,0.55641
378.245,22.44925,-3.66125,0.13394,0.5562
378.845,22.46619,-3.66597,0.12539,0.556
379.445,22.48303,-3.67191,0.11485,0.5558
380.045,22.5,-3.67699,0.10611,0.55559
380.645,22.51695,-3.68124,0.10056,0.55539
381.245,22.5339,-3.6856,0.09697342,0.55519
381.845,22.55084,-3.69048,0.09600899,0.55498
382.445,22.56792,-3.69519,0.08912939,0.55478
383.045,22.5849,-3.69786,0.09015752,0.55458
383.645,22.6018,-3.70119,0.08565579,0.55437
384.245,22.6188,-3.70575,0.08180057,0.55417
384.845,22.63576,-3.70901,0.07710411,0.55396
385.445,22.6527,-3.71231,0.07412552,0.55376
386.045,22.66968,-3.71507,0.07401302,0.55355
386.645,22.68668,-3.71833,0.06743722,0.55335
387.245,22.70362,-3.72138,0.0660123,0.55314
387.845,22.72061,-3.72378,0.06483768,0.55294
388.445,22.73751,-3.72623,0.06543525,0.55273
389.045,22.75449,-3.72868,0.06537977,0.55253
389.645,22.77146,-3.73101,0.06648282,0.55232
390.245,22.78846,-3.73375,0.062836,0.55212
390.845,22.8054,-3.73651,0.06074502,0.55191
391.445,22.82248,-3.73889,0.05946638,0.55171
392.045,22.8395,-3.74144,0.05911126,0.5515
392.645,22.85652,-3.74455,0.05406649,0.55129
393.245,22.8735,-3.74734,0.05549213,0.55109
393.845,22.8906,-3.74932,0.0519632,0.55088
394.445,22.90755,-3.75091,0.0468684,0.55068
395.045,22.9246,-3.75279,0.04565211,0.55047
395.645,22.94164,-3.75506,0.04341816,0.55026
396.245,22.95871,-3.75659,0.04349261,0.55006
396.845,22.9757,-3.75871,0.04128248,0.54985
397.445,22.9928,-3.76092,0.03951136,0.54964
398.045,23.00988,-3.76434,0.04008394,0.54943
398.645,23.02688,-3.76654,0.03810901,0.54923
399.245,23.04395,-3.76851,0.03897363,0.54902
399.845,23.06101,-3.77047,0.03819798,0.54881
400.445,23.07809,-3.77298,0.03355358,0.5486
401.045,23.09518,-3.77575,0.03477783,0.5484
401.645,23.11232,-3.7767,0.03032473,0.54819
402.245,23.12945,-3.7774,0.02878958,0.54798
402.845,23.14659,-3.7791,0.02809682,0.54777
403.445,23.1637,-3.78094,0.02721016,0.54756
404.045,23.18086,-3.78319,0.02446671,0.54736
404.645,23.19804,-3.78414,0.02353033,0.54715
405.245,23.21517,-3.78576,0.02252103,0.54694
405.845,23.23228,-3.78777,0.02088016,0.54673
406.445,23.24939,-3.78968,0.01724082,0.54652
407.045,23.26651,-3.79163,0.01450943,0.54631
407.645,23.28359,-3.79337,0.01524263,0.5461
408.245,23.3007,-3.79517,0.01253338,0.54589
408.845,23.3178,-3.79714,0.01223282,0.54569
409.445,23.335,-3.79905,0.008751879,0.54548
410.045,23.35214,-3.80098,0.006971204,0.54527
410.645,23.36934,-3.80317,0.00754894,0.54506
411.245,23.38652,-3.80475,0.00683581,0.54485
411.845,23.40369,-3.80529,0.00720185,0.54464
412.445,23.4208,-3.80671,0.005690456,0.54443
413.045,23.4379,-3.8082,0.00254331,0.54422
413.645,23.45502,-3.81002,0.00124937,0.54401
414.245,23.47211,-3.81205,0.000954745,0.5438
414.845,23.4893,-3.8138,-0.001900217,0.54359
415.445,23.50657,-3.81556,-0.001283922,0.54338
416.045,23.52384,-3.81741,-0.004936943,0.54317
416.645,23.54113,-3.81958,-0.003966708,0.54296
417.245,23.55844,-3.8211,-0.004022089,0.54274
417.845,23.57571,-3.82234,-0.00635305,0.54253
418.445,23.59292,-3.82309,-0.004168489,0.54232
419.045,23.61019,-3.82464,-0.00425907,0.54211
419.645,23.62736,-3.82637,-0.007132227,0.5419
420.245,23.64463,-3.82813,-0.008435992,0.54169
420.845,23.66188,-3.82977,-0.01209092,0.54148
421.445,23.6792,-3.83167,-0.01363739,0.54127
422.045,23.69654,-3.83418,-0.01660274,0.54106
422.645,23.714,-3.83559,-0.01591952,0.54084
423.245,23.7314,-3.83723,-0.01902936,0.54063
423.845,23.7487,-3.8391,-0.02021183,0.54042
424.445,23.76608,-3.8408,-0.02054209,0.54021
425.045,23.78339,-3.84173,-0.02567511,0.54
425.645,23.80068,-3.84239,-0.02691741,0.53978
426.245,23.81795,-3.84407,-0.02746104,0.53957
426.845,23.83529,-3.84486,-0.02870966,0.53936
427.445,23.85258,-3.84611,-0.02561196,0.53915
428.045,23.8699,-3.84782,-0.02472844,0.53894
428.645,23.88727,-3.84953,-0.02710972,0.53872
429.245,23.9046,-3.85119,-0.02975541,0.53851
429.845,23.922,-3.85299,-0.03215156,0.5383
430.445,23.93939,-3.85483,-0.03291213,0.53809
431.045,23.95685,-3.85631,-0.03280288,0.53787
431.645,23.97421,-3.85795,-0.03260313,0.53766
432.245,23.99158,-3.8597,-0.03184968,0.53745
432.845,24.009,-3.86137,-0.03543926,0.53723
433.445,24.02639,-3.86291,-0.03350802,0.53702
434.045,24.04373,-3.86441,-0.03695019,0.53681
434.645,24.06115,-3.86577,-0.03666267,0.53659
435.245,24.07859,-3.86726,-0.03794903,0.53638
435.845,24.096,-3.86897,-0.03841752,0.53617
436.445,24.11344,-3.87093,-0.04068467,0.53595
437.045,24.13085,-3.87262,-0.04125655,0.53574
437.645,24.1482,-3.87315,-0.04077823,0.53553
438.245,24.1656,-3.8748,-0.0401994,0.53531
438.845,24.18303,-3.87729,-0.0428748,0.5351
439.445,24.2004,-3.87938,-0.0433445,0.53489
440.045,24.21791,-3.88135,-0.04500169,0.53467
440.645,24.2354,-3.8831,-0.04524889,0.53446
441.245,24.25294,-3.88384,-0.045667,0.53424
441.845,24.2704,-3.88613,-0.04735525,0.53403
442.445,24.28794,-3.88773,-0.05029086,0.53382
443.045,24.30544,-3.88937,-0.04699856,0.5336
443.645,24.32287,-3.89099,-0.04816797,0.53339
444.245,24.3403,-3.89164,-0.0485148,0.53317
444.845,24.3578,-3.89325,-0.05149616,0.53296
445.445,24.37529,-3.89485,-0.05353098,0.53274
446.045,24.39275,-3.89646,-0.05158881,0.53253
446.645,24.4103,-3.89839,-0.05191209,0.53231
447.245,24.42782,-3.90022,-0.05179185,0.5321
447.845,24.44537,-3.9017,-0.05264532,0.53188
448.445,24.4629,-3.90305,-0.05331829,0.53167
449.045,24.48046,-3.9049,-0.05192779,0.53145
449.645,24.498,-3.90591,-0.05525845,0.53124
450.245,24.5156,-3.90738,-0.0555196,0.53102
450.845,24.53314,-3.90884,-0.05737677,0.53081
451.445,24.55076,-3.91048,-0.0563752,0.53059
452.045,24.56829,-3.91203,-0.05747091,0.53038
452.645,24.58592,-3.9134,-0.05859039,0.53016
453.245,24.60351,-3.91461,-0.05769192,0.52995
453.845,24.6211,-3.91606,-0.05699769,0.52973
454.445,24.63874,-3.91773,-0.05628804,0.52952
455.045,24.65638,-3.91973,-0.0563144,0.5293
455.645,24.67399,-3.92132,-0.05715799,0.52909
456.245,24.69158,-3.92271,-0.05806878,0.52887
456.845,24.7092,-3.9237,-0.05833592,0.52865
457.445,24.72684,-3.92524,-0.05539523,0.52844
458.045,24.7445,-3.92655,-0.05867233,0.52822
458.645,24.76216,-3.92834,-0.05803304,0.52801
459.245,24.77983,-3.9286,-0.05866871,0.52779
459.845,24.7975,-3.92968,-0.05951571,0.52758
460.445,24.81513,-3.93126,-0.05827962,0.52736
461.045,24.83277,-3.93292,-0.05727742,0.52714
461.645,24.8505,-3.93458,-0.05819566,0.52693
462.245,24.86816,-3.93523,-0.05864559,0.52671
462.845,24.88585,-3.93667,-0.05686726,0.5265
463.445,24.9036,-3.93788,-0.05806298,0.52628
464.045,24.9213,-3.93956,-0.05611217,0.52606
464.645,24.93906,-3.94168,-0.05749178,0.52585
465.245,24.95684,-3.9436,-0.06402953,0.52563
465.845,24.9745,-3.94639,-0.06076885,0.52541
466.445,24.99225,-3.94796,-0.0611357,0.5252
467.045,25.01,-3.94786,-0.06182732,0.52498
467.645,25.02771,-3.94929,-0.06275474,0.52476
468.245,25.0455,-3.9506,-0.06164017,0.52455
468.845,25.06328,-3.95144,-0.06153414,0.52433
469.445,25.0811,-3.95301,-0.05895109,0.52411
470.045,25.09897,-3.95472,-0.05941302,0.5239
470.645,25.11672,-3.95522,-0.06047959,0.52368
471.245,25.1345,-3.95674,-0.05908926,0.52346
471.845,25.15235,-3.9582,-0.05937122,0.52325
472.445,25.17014,-3.95933,-0.06069766,0.52303
473.045,25.1879,-3.9599,-0.05791442,0.52281
473.645,25.20571,-3.96118,-0.05491568,0.5226
474.245,25.22356,-3.96275,-0.05305248,0.52238
474.845,25.2414,-3.964,-0.05352091,0.52216
475.445,25.25928,-3.96472,-0.05202124,0.52195
476.045,25.27719,-3.96613,-0.0514892,0.52173
476.645,25.2952,-3.96763,-0.05047632,0.52151
477.245,25.31304,-3.97046,-0.04985241,0.5213
477.845,25.33096,-3.97196,-0.05307901,0.52108
478.445,25.3489,-3.97327,-0.04960027,0.52086
479.045,25.36676,-3.97459,-0.05085098,0.52064
479.645,25.38469,-3.97501,-0.05022996,0.52043
480.245,25.40259,-3.97645,-0.0492416,0.52021
480.845,25.4205,-3.9778,-0.05018868,0.51999
481.445,25.4384,-3.97845,-0.05015509,0.51977
482.045,25.45635,-3.97945,-0.04813301,0.51956
482.645,25.4742,-3.98078,-0.04924298,0.51934
483.245,25.4922,-3.98192,-0.0468107,0.51912
483.845,25.51013,-3.98246,-0.04606435,0.51891
484.445,25.52806,-3.98338,-0.04474408,0.51869
485.045,25.54607,-3.98382,-0.04621743,0.51847
485.645,25.56404,-3.98485,-0.04700271,0.51825
486.245,25.58201,-3.98579,-0.04641464,0.51804
486.845,25.59999,-3.98772,-0.04583616,0.51782
487.445,25.61798,-3.98938,-0.04718435,0.5176
488.045,25.63591,-3.9906,-0.04401498,0.51738
488.645,25.6539,-3.99094,-0.04623078,0.51717
489.245,25.67194,-3.99272,-0.04716646,0.51695
489.845,25.69,-3.99262,-0.04630178,0.51673
490.445,25.70802,-3.99386,-0.04554267,0.51651
491.045,25.7261,-3.99389,-0.04371136,0.5163
491.645,25.7441,-3.99486,-0.04438349,0.51608
492.245,25.76214,-3.99535,-0.04437185,0.51586
492.845,25.78011,-3.99662,-0.04463585,0.51564
493.445,25.79816,-3.99695,-0.04378567,0.51542
494.045,25.81621,-3.99853,-0.04312207,0.51521
494.645,25.83425,-3.99986,-0.04257999,0.51499
495.245,25.8523,-4.00132,-0.04232761,0.51477
495.845,25.8704,-4.00281,-0.04002011,0.51455
496.445,25.88851,-4.00397,-0.04125795,0.51434
497.045,25.90654,-4.00545,-0.05007803,0.51412
497.645,25.92464,-4.00667,-0.04841616,0.5139
498.245,25.94275,-4.00857,-0.04773431,0.51368
498.845,25.96086,-4.00992,-0.04804186,0.51346
499.445,25.97895,-4.00991,-0.0459913,0.51325
500.045,25.9971,-4.01007,-0.04758702,0.51303
500.645,26.01521,-4.01149,-0.04642158,0.51281
501.245,26.0334,-4.01271,-0.04471178,0.51259
501.845,26.05151,-4.01327,-0.04438281,0.51238
502.445,26.0697,-4.01476,-0.04059201,0.51216
503.045,26.0879,-4.01615,-0.0408625,0.51194
503.645,26.10599,-4.01624,-0.03756673,0.51172
504.245,26.12415,-4.01613,-0.03782068,0.5115
504.845,26.14225,-4.01785,-0.03581968,0.51129
505.445,26.16035,-4.01819,-0.03492503,0.51107
506.045,26.17846,-4.01945,-0.03437923,0.51085
506.645,26.19667,-4.02112,-0.03685763,0.51063
507.245,26.2149,-4.02212,-0.0366048,0.51042
507.845,26.2332,-4.02298,-0.03802381,0.5102
508.445,26.2514,-4.0235,-0.03629429,0.50998
509.045,26.2697,-4.02426,-0.0364881,0.50976
509.645,26.28792,-4.02535,-0.03547793,0.50954
510.245,26.30616,-4.02651,-0.03704141,0.50933
510.845,26.3244,-4.02765,-0.03879394,0.50911
511.445,26.34265,-4.02889,-0.040148,0.50889
512.045,26.3609,-4.02898,-0.03991017,0.50867
512.645,26.3791,-4.02965,-0.03889169,0.50846
513.245,26.3973,-4.03058,-0.03875183,0.50824
513.845,26.41555,-4.03115,-0.03978283,0.50802
514.445,26.43382,-4.03182,-0.04258363,0.5078
515.045,26.4521,-4.03282,-0.05296375,0.50758
515.645,26.47045,-4.03343,-0.05138889,0.50737
516.245,26.4888,-4.03512,-0.05122644,0.50715
516.845,26.50709,-4.0356,-0.05172112,0.50693
517.445,26.5254,-4.03674,-0.0520415,0.50671
518.045,26.5436,-4.03758,-0.05273021,0.5065
518.645,26.56193,-4.0382,-0.05370409,0.50628
519.245,26.58019,-4.0397,-0.05186648,0.50606
519.845,26.59849,-4.03962,-0.05191766,0.50584
520.445,26.6168,-4.04086,-0.05168333,0.50562
521.045,26.6351,-4.03975,-0.05157389,0.50541
521.645,26.65349,-4.04062,-0.05019975,0.50519
522.245,26.67185,-4.04115,-0.05071458,0.50497
522.845,26.69023,-4.04117,-0.04777537,0.50475
523.445,26.70859,-4.04245,-0.0453879,0.50454
524.045,26.72696,-4.04243,-0.04563224,0.50432
524.645,26.7453,-4.04358,-0.04413167,0.5041
525.245,26.76367,-4.04493,-0.04474807,0.50388
525.845,26.78203,-4.04557,-0.04324756,0.50367
526.445,26.80035,-4.04689,-0.04149516,0.50345
527.045,26.81877,-4.04718,-0.04135008,0.50323
527.645,26.83714,-4.04822,-0.04122363,0.50301
528.245,26.8555,-4.0481,-0.04117857,0.5028
528.845,26.87388,-4.04948,-0.04278931,0.50258
529.445,26.8923,-4.04958,-0.04129248,0.50236
530.045,26.91065,-4.05041,-0.03991014,0.50214
530.645,26.9291,-4.05105,-0.04173637,0.50193
531.245,26.94752,-4.05196,-0.04084593,0.50171
531.845,26.96596,-4.05253,-0.0394395,0.50149
532.445,26.98436,-4.0539,-0.03858353,0.50127
533.045,27.00276,-4.05436,-0.03821976,0.50106
533.645,27.02119,-4.05582,-0.03985629,0.50084
534.245,27.0396,-4.05576,-0.03615776,0.50062
534.845,27.058,-4.05576,-0.03360012,0.50041
535.445,27.0766,-4.05575,-0.03633169,0.50019
536.045,27.095,-4.05672,-0.0367454,0.49997
536.645,27.1135,-4.05707,-0.03469089,0.49975
537.245,27.132,-4.05794,-0.03442254,0.49954
537.845,27.15046,-4.0598,-0.0336425,0.49932
538.445,27.16892,-4.0598,-0.03315835,0.4991
539.045,27.1874,-4.06125,-0.03250342,0.49889
539.645,27.20591,-4.06141,-0.03327149,0.49867
540.245,27.2244,-4.06251,-0.03315531,0.49845
540.845,27.24292,-4.06154,-0.03227052,0.49823
541.445,27.2614,-4.06242,-0.03252615,0.49802
542.045,27.27996,-4.06288,-0.03411867,0.4978
542.645,27.2985,-4.06289,-0.03536331,0.49758
543.245,27.317,-4.06289,-0.03543334,0.49737
543.845,27.3356,-4.06292,-0.0357214,0.49715
544.445,27.3542,-4.06335,-0.03504484,0.49693
545.045,27.3727,-4.06424,-0.03314799,0.49672
545.645,27.39123,-4.06437,-0.0337876,0.4965
546.245,27.40976,-4.06612,-0.03450385,0.49628
546.845,27.4283,-4.06874,-0.03624792,0.49607
547.445,27.44687,-4.06879,-0.03447484,0.49585
548.045,27.46538,-4.0698,-0.03641718,0.49563
548.645,27.48398,-4.07009,-0.03686649,0.49542
549.245,27.50256,-4.07012,-0.03674016,0.4952
549.845,27.5211,-4.0701,-0.03455508,0.49498
550.445,27.5397,-4.07083,-0.03615336,0.49477
551.045,27.55837,-4.07156,-0.03753472,0.49455
551.645,27.57702,-4.07155,-0.0384349,0.49434
552.245,27.5956,-4.07044,-0.03571078,0.49412
552.845,27.61425,-4.07152,-0.03946449,0.4939
553.445,27.63287,-4.07157,-0.0374703,0.49369
554.045,27.65148,-4.07169,-0.03808721,0.49347
554.645,27.67008,-4.07392,-0.03769744,0.49325
555.245,27.6887,-4.07418,-0.0347908,0.49304
555.845,27.7073,-4.07536,-0.03519704,0.49282
556.445,27.726,-4.07548,-0.03612134,0.49261
557.045,27.7446,-4.0755,-0.03707078,0.49239
557.645,27.76325,-4.07548,-0.0376333,0.49217
558.245,27.78193,-4.07597,-0.03770036,0.49196
558.845,27.80058,-4.07754,-0.04585489,0.49174
559.445,27.8193,-4.07748,-0.04654347,0.49153
560.045,27.83795,-4.07743,-0.04758719,0.49131
560.645,27.85649,-4.07886,-0.04564139,0.4911
561.245,27.87518,-4.07753,-0.04498013,0.49088
561.845,27.89388,-4.07773,-0.04590013,0.49066
562.445,27.91255,-4.07886,-0.0469462,0.49045
563.045,27.9313,-4.07889,-0.04525475,0.49023
563.645,27.95011,-4.08013,-0.04589305,0.49002
564.245,27.96882,-4.08011,-0.04845662,0.4898
564.845,27.98755,-4.08004,-0.0489757,0.48959
565.445,28.00625,-4.08141,-0.04773569,0.48937
566.045,28.025,-4.08143,-0.04857339,0.48916
566.645,28.0437,-4.08143,-0.04887212,0.48894
567.245,28.0624,-4.08146,-0.04686441,0.48873
567.845,28.0812,-4.08283,-0.04807916,0.48851
568.445,28.09996,-4.08275,-0.04436886,0.4883
569.045,28.1187,-4.08275,-0.04767371,0.48808
569.645,28.13747,-4.08271,-0.04592396,0.48787
570.245,28.15628,-4.08393,-0.04693213,0.48765
570.845,28.17506,-4.08404,-0.0460998,0.48744
571.445,28.19384,-4.08493,-0.04567287,0.48722
572.045,28.21257,-4.08542,-0.04364204,0.48701
572.645,28.2313,-4.08631,-0.04424532,0.48679
573.245,28.25008,-4.08753,-0.04578262,0.48658
573.845,28.2689,-4.08812,-0.04433872,0.48636
574.445,28.2877,-4.08812,-0.04339939,0.48615
575.045,28.30647,-4.08814,-0.04109857,0.48594
575.645,28.3252,-4.08871,-0.04265006,0.48572
576.245,28.344,-4.0897,-0.04171122,0.48551
576.845,28.3628,-4.09097,-0.04140442,0.48529
577.445,28.3816,-4.09224,-0.04108539,0.48508
578.045,28.40039,-4.09219,-0.04111012,0.48486
578.645,28.41925,-4.0935,-0.04202935,0.48465
579.245,28.4381,-4.09348,-0.04322144,0.48444
579.845,28.457,-4.09347,-0.04236772,0.48422
580.445,28.47567,-4.09306,-0.04068224,0.48401
581.045,28.49451,-4.0932,-0.04433399,0.48379
581.645,28.51332,-4.09347,-0.04309396,0.48358
582.245,28.5321,-4.09343,-0.0426436,0.48337
582.845,28.55095,-4.09461,-0.04095475,0.48315
583.445,28.56997,-4.09481,-0.04389329,0.48294
584.045,28.58878,-4.09481,-0.04310938,0.48273
584.645,28.6076,-4.09481,-0.04286426,0.48251
585.245,28.6265,-4.09482,-0.04324314,0.4823
585.845,28.6453,-4.09515,-0.04289196,0.48209
586.445,28.664,-4.09616,-0.04078488,0.48187
587.045,28.6829,-4.09605,-0.03961207,0.48166
587.645,28.7019,-4.09729,-0.04043647,0.48145
588.245,28.72077,-4.09744,-0.03942393,0.48123
588.845,28.73975,-4.09744,-0.03833299,0.48102
589.445,28.75869,-4.09741,-0.03661507,0.48081
590.045,28.7775,-4.09994,-0.03842221,0.4806
590.645,28.79638,-4.10005,-0.03790286,0.48038
591.245,28.81535,-4.10007,-0.03636167,0.48017
591.845,28.83432,-4.10007,-0.03825809,0.47996
592.445,28.85322,-4.10007,-0.03659001,0.47975
593.045,28.87217,-4.1001,-0.03661018,0.47953
593.645,28.89115,-4.09924,-0.03649991,0.47932
594.245,28.9101,-4.09874,-0.03715365,0.47911
594.845,28.929,-4.09973,-0.03664238,0.4789
595.445,28.94799,-4.10131,-0.03811034,0.47868
596.045,28.967,-4.10139,-0.03631824,0.47847
596.645,28.98596,-4.10179,-0.0371643,0.47826
597.245,29.005,-4.10268,-0.03771272,0.47805
597.845,29.024,-4.10155,-0.03897253,0.47784
598.445,29.0431,-4.10274,-0.03953397,0.47762
599.045,29.0621,-4.1027,-0.04039936,0.47741
599.645,29.08107,-4.1027,-0.0389376,0.4772
600.245,29.10002,-4.10311,-0.04043153,0.47699
600.845,29.119,-4.10402,-0.03960497,0.47678
601.445,29.138,-4.10402,-0.0398262,0.47657
602.045,29.1571,-4.10401,-0.03714812,0.47636
602.645,29.17615,-4.10487,-0.03984366,0.47614
603.245,29.1952,-4.10534,-0.03972818,0.47593
603.845,29.2142,-4.10638,-0.03916009,0.47572
604.445,29.2332,-4.10633,-0.03826092,0.47551
605.045,29.25214,-4.10633,-0.03785625,0.4753
605.645,29.27103,-4.10633,-0.03925881,0.47509
606.245,29.29007,-4.10633,-0.03621755,0.47488
606.845,29.3091,-4.10633,-0.03605912,0.47467
607.445,29.32805,-4.10689,-0.03874861,0.47446
608.045,29.34705,-4.10793,-0.04069712,0.47425
608.645,29.36607,-4.10795,-0.04094279,0.47404
609.245,29.38503,-4.10767,-0.03976319,0.47383
609.845,29.40405,-4.10705,-0.03908688,0.47361
610.445,29.42312,-4.10797,-0.04104823,0.4734
611.045,29.44228,-4.10797,-0.03356268,0.47319
611.645,29.46143,-4.10797,-0.03734485,0.47298
612.245,29.4805,-4.10797,-0.03762062,0.47277
612.845,29.49962,-4.10797,-0.03864862,0.47256
613.445,29.51877,-4.1086,-0.03628541,0.47235
614.045,29.53786,-4.10929,-0.0343297,0.47215
614.645,29.55698,-4.10928,-0.03365061,0.47194
615.245,29.5761,-4.10928,-0.03369643,0.47173
615.845,29.5952,-4.10928,-0.03401269,0.47152
616.445,29.61435,-4.10926,-0.03310724,0.47131
617.045,29.63348,-4.10984,-0.03377617,0.4711
617.645,29.6527,-4.11146,-0.03370851,0.47089
618.245,29.67197,-4.11159,-0.03505755,0.47068
618.845,29.6912,-4.11159,-0.03338226,0.47047
619.445,29.7104,-4.11162,-0.03161797,0.47026
620.045,29.72963,-4.11192,-0.02979812,0.47005
620.645,29.74861,-4.1132,-0.02893769,0.46984
621.245,29.7676,-4.11323,-0.02548021,0.46964
621.845,29.78681,-4.11324,-0.0254678,0.46943
622.445,29.806,-4.11324,-0.02782757,0.46922
623.045,29.8251,-4.11324,-0.02749161,0.46901
623.645,29.8444,-4.11324,-0.02709081,0.4688
624.245,29.86363,-4.11324,-0.02483503,0.46859
624.845,29.8828,-4.1132,-0.02540203,0.46839
625.445,29.90203,-4.11413,-0.02426592,0.46818
626.045,29.9212,-4.11454,-0.02062647,0.46797
626.645,29.9404,-4.11455,-0.01966601,0.46776
627.245,29.9594,-4.11456,-0.01861503,0.46755
627.845,29.97855,-4.11595,-0.01866879,0.46735
628.445,29.9977,-4.11591,-0.01826398,0.46714
629.045,30.0169,-4.11728,-0.01403026,0.46693
629.645,30.0361,-4.1173,-0.01517737,0.46672
630.245,30.05548,-4.1173,-0.01485897,0.46652
630.845,30.0747,-4.1173,-0.01364159,0.46631
631.445,30.09392,-4.1173,-0.01444744,0.4661
632.045,30.11314,-4.1173,-0.01485992,0.4659
632.645,30.1324,-4.1173,-0.0167591,0.46569
633.245,30.15162,-4.1173,-0.01378567,0.46548
633.845,30.17088,-4.11728,-0.01265316,0.46527
634.445,30.1902,-4.11803,-0.0134246,0.46507
635.045,30.2095,-4.11727,-0.01294524,0.46486
635.645,30.2287,-4.1173,-0.01079216,0.46466
636.245,30.24792,-4.11786,-0.0104751,0.46445
636.845,30.2671,-4.11942,-0.01252252,0.46424
637.445,30.2863,-4.11994,-0.012011,0.46404
638.045,30.3056,-4.11993,-0.01228284,0.46383
638.645,30.3249,-4.11993,-0.01269442,0.46362
639.245,30.34422,-4.11993,-0.01246662,0.46342
639.845,30.3636,-4.11992,-0.008243985,0.46321
640.445,30.38287,-4.12064,-0.009671753,0.46301
641.045,30.40219,-4.12122,-0.008823519,0.4628
641.645,30.4215,-4.12124,-0.01024342,0.4626
642.245,30.44075,-4.12124,-0.009134991,0.46239
642.845,30.46002,-4.12124,-0.01130407,0.46219
643.445,30.47918,-4.12124,-0.01022127,0.46198
644.045,30.4983,-4.12124,-0.0109128,0.46178
644.645,30.5176,-4.12124,-0.01094284,0.46157
645.245,30.5369,-4.12124,-0.006159609,0.46137
645.845,30.5563,-4.12123,-0.008406676,0.46116
646.445,30.57576,-4.12227,-0.008237386,0.46096
647.045,30.59522,-4.12255,-0.00387152,0.46075
647.645,30.61458,-4.12265,-0.003591835,0.46055
648.245,30.63392,-4.12133,-0.001534693,0.46034
648.845,30.65325,-4.12144,0.002040784,0.46014
649.445,30.67264,-4.12261,0.0033395,0.45993
650.045,30.692,-4.12256,0.0041812,0.45973
650.645,30.71133,-4.12256,0.003010138,0.45953
651.245,30.73065,-4.12256,0.003810412,0.45932
651.845,30.75,-4.12256,0.008204557,0.45912
652.445,30.76939,-4.12257,0.00770708,0.45892
653.045,30.78871,-4.12385,0.006371588,0.45871
653.645,30.80808,-4.12387,0.008884355,0.45851
654.245,30.8275,-4.12387,0.01141107,0.45831
654.845,30.8469,-4.12386,0.01011658,0.4581
655.445,30.8663,-4.12496,0.007252717,0.4579
656.045,30.88577,-4.12517,0.01007712,0.4577
656.645,30.90523,-4.12519,0.00906386,0.45749
657.245,30.92462,-4.12519,0.007904534,0.45729
657.845,30.944,-4.12519,0.006765728,0.45709
658.445,30.9635,-4.12522,0.00845305,0.45689
659.045,30.9828,-4.12684,0.00748449,0.45668
659.645,31.0023,-4.12673,0.01023543,0.45648
660.245,31.02182,-4.12672,0.005565532,0.45628
660.845,31.04128,-4.12673,0.009435686,0.45608
661.445,31.06082,-4.12811,0.009807781,0.45587
662.045,31.08032,-4.12804,0.01171953,0.45567
662.645,31.09977,-4.12804,0.01053244,0.45547
663.245,31.11924,-4.12804,0.01458416,0.45527
663.845,31.13878,-4.12804,0.01206617,0.45507
664.445,31.15826,-4.12804,0.01654376,0.45487
665.045,31.1778,-4.12804,0.02290785,0.45466
665.645,31.1973,-4.12804,0.02166218,0.45446
666.245,31.21677,-4.12804,0.02131736,0.45426
666.845,31.23623,-4.12804,0.02367973,0.45406
667.445,31.25579,-4.12804,0.02210695,0.45386
668.045,31.2753,-4.12804,0.02177587,0.45366
668.645,31.29474,-4.12804,0.02335722,0.45346
669.245,31.3142,-4.12804,0.02428226,0.45326
669.845,31.3337,-4.12809,0.02467957,0.45306
670.445,31.35319,-4.1296,0.0301512,0.45286
671.045,31.37268,-4.12977,0.03260416,0.45266
671.645,31.39228,-4.13092,0.03440532,0.45246
672.245,31.41185,-4.13104,0.03472098,0.45226
672.845,31.4314,-4.13141,0.03695617,0.45206
673.445,31.4509,-4.13091,0.03185094,0.45186
674.045,31.47043,-4.1309,0.03056261,0.45166
674.645,31.48997,-4.1309,0.0302997,0.45146
675.245,31.5095,-4.1309,0.02648487,0.45126
675.845,31.52905,-4.13121,0.02454349,0.45106
676.445,31.5487,-4.13222,0.02589745,0.45086
677.045,31.5682,-4.13221,0.0269462,0.45066
677.645,31.5877,-4.13221,0.03586946,0.45046
678.245,31.6073,-4.13221,0.04120871,0.45026
678.845,31.62681,-4.13222,0.04159877,0.45007
679.445,31.64637,-4.13267,0.03355729,0.44987
680.045,31.66599,-4.13321,0.03017054,0.44967
680.645,31.6855,-4.13317,0.02631705,0.44947
681.245,31.7051,-4.13263,0.03302744,0.44927
681.845,31.7247,-4.13189,0.03794081,0.44907
682.445,31.74427,-4.13189,0.03872738,0.44888
683.045,31.76383,-4.13197,0.04380077,0.44868
683.645,31.7834,-4.13293,0.0459317,0.44848
684.245,31.8029,-4.13287,0.04349346,0.44828
684.845,31.8225,-4.13287,0.04969775,0.44808
685.445,31.84204,-4.13287,0.0467228,0.44789
686.045,31.8616,-4.13287,0.04216919,0.44769
686.645,31.8813,-4.13287,0.0448599,0.44749
687.245,31.9009,-4.13287,0.04774214,0.4473
687.845,31.92046,-4.13288,0.04677022,0.4471
688.445,31.9401,-4.13292,0.04427669,0.4469
689.045,31.95968,-4.13486,0.04249381,0.44671
689.645,31.97922,-4.13484,0.04329146,0.44651
690.245,31.99885,-4.13482,0.03510714,0.44631
690.845,32.01842,-4.13616,0.03176309,0.44612
691.445,32.0381,-4.13619,0.02863284,0.44592
692.045,32.05769,-4.1348,0.02247539,0.44572
692.645,32.0773,-4.13473,0.02139357,0.44553
693.245,32.09687,-4.13469,0.02144456,0.44533
693.845,32.11645,-4.1361,0.02019944,0.44514
694.445,32.136,-4.13639,0.02022048,0.44494
695.045,32.15562,-4.13765,0.02765556,0.44475
695.645,32.17515,-4.13758,0.02682975,0.44455
696.245,32.19474,-4.1375,0.02432184,0.44435
696.845,32.2144,-4.13619,0.02398691,0.44416
697.445,32.23403,-4.1363,0.02171169,0.44396
698.045,32.2537,-4.13591,0.02387616,0.44377
698.645,32.2734,-4.13594,0.02159647,0.44357
699.245,32.293,-4.13594,0.01878835,0.44338
699.845,32.31268,-4.13597,0.01576095,0.44319
700.445,32.33233,-4.13734,0.01372566,0.44299
701.045,32.352,-4.13725,0.0068527,0.4428
701.645,32.37162,-4.1372,0.00279575,0.4426
702.245,32.3913,-4.13839,-0.0010423,0.44241
702.845,32.411,-4.13857,0.00137308,0.44222
703.445,32.43063,-4.13858,0.005542597,0.44202
704.045,32.45027,-4.13864,0.005705171,0.44183
704.645,32.46999,-4.13989,0.00862785,0.44163
705.245,32.48963,-4.13989,0.00981377,0.44144
705.845,32.50928,-4.13989,0.01304732,0.44125
706.445,32.529,-4.13989,0.01335954,0.44105
707.045,32.54864,-4.13989,0.01249721,0.44086
707.645,32.56836,-4.13988,0.01156834,0.44067
708.245,32.5882,-4.13899,0.01193809,0.44048
708.845,32.60796,-4.13858,0.01473603,0.44028
709.445,32.62773,-4.13858,0.01486012,0.44009
710.045,32.6475,-4.13857,0.01494473,0.4399
710.645,32.66713,-4.1385,0.01635387,0.43971
711.245,32.6868,-4.1399,0.01993073,0.43951
711.845,32.70649,-4.14061,0.02345953,0.43932
712.445,32.72618,-4.1412,0.02438429,0.43913
713.045,32.7459,-4.1412,0.02387392,0.43894
713.645,32.76567,-4.1412,0.02732532,0.43875
714.245,32.78542,-4.1412,0.02500395,0.43855
714.845,32.80523,-4.1412,0.0187199,0.43836
715.445,32.82495,-4.1412,0.02178287,0.43817
716.045,32.84466,-4.14121,0.02090321,0.43798
716.645,32.86438,-4.1413,0.01737634,0.43779
717.245,32.88411,-4.14002,0.02027793,0.4376
717.845,32.90388,-4.1413,0.02179345,0.43741
718.445,32.9236,-4.14122,0.01959642,0.43722
719.045,32.9433,-4.14121,0.01667667,0.43703
719.645,32.963,-4.14121,0.0146876,0.43684
720.245,32.9827,-4.14121,0.009564012,0.43665
720.845,33.00242,-4.14121,0.01264481,0.43646
721.445,33.0222,-4.14124,0.01001385,0.43627
722.045,33.04198,-4.14026,0.009237291,0.43608
722.645,33.06177,-4.14107,0.00844759,0.43589
723.245,33.0815,-4.14121,0.01517808,0.4357
723.845,33.1013,-4.14121,0.01317982,0.43551
724.445,33.12104,-4.14121,0.009376275,0.43532
725.045,33.1409,-4.14121,0.007500949,0.43513
725.645,33.16069,-4.14121,0.00303878,0.43494
726.245,33.18054,-4.14121,0.003808442,0.43475
726.845,33.2003,-4.14121,0.009377122,0.43456
727.445,33.22,-4.14121,0.00610474,0.43437
728.045,33.23979,-4.14121,0.00662272,0.43419
728.645,33.25953,-4.1429,0.009165966,0.434
729.245,33.27929,-4.14384,0.0105883,0.43381
729.845,33.29994,-4.14387,0.01559169,0.43362
730.445,33.32052,-4.14483,0.02349289,0.43343
730.845,33.33243,-4.14482,0.02282626,0.43331