File: 01_Data/Cotton_Felt/STA/N2/30K_min/Cotton_Felt_STA_N2_30KData_210719_R3.csv
##Temp./Â°C,Time/min,Mass loss(subtr.2)/mg,DSC(subtr.2)/(mW/mg),Sensit./(uV/mW)
50.668,10.01,-0.04442,0.01547543,0.6235
51.268,10.99364,-0.05078036,0.03845882,0.62349
51.868,11.20927,-0.04924052,0.05469278,0.62349
52.468,11.35707,-0.04986185,0.07209844,0.62348
53.068,11.472,-0.05049262,0.08804046,0.62347
53.668,11.56795,-0.04877056,0.10196,0.62346
54.268,11.6523,-0.05041534,0.11914,0.62345
54.868,11.72766,-0.03899272,0.13056,0.62345
55.468,11.79668,-0.06176545,0.14464,0.62344
56.068,11.86087,-0.05202584,0.15468,0.62342
56.668,11.92201,-0.05018782,0.16609,0.62341
57.268,11.97832,-0.05173864,0.17741,0.6234
57.868,12.03118,-0.05229432,0.18638,0.62339
58.468,12.08146,-0.05243363,0.20193,0.62338
59.068,12.1298,-0.05197547,0.20799,0.62336
59.668,12.1769,-0.05379337,0.21793,0.62335
60.268,12.22258,-0.05197029,0.22855,0.62333
60.868,12.2666,-0.05170578,0.23054,0.62332
61.468,12.3094,-0.05311626,0.24034,0.6233
62.068,12.35103,-0.05173173,0.2494,0.62329
62.668,12.39157,-0.05194946,0.25759,0.62327
63.268,12.43109,-0.05445913,0.26808,0.62325
63.868,12.46926,-0.05439349,0.27443,0.62324
64.468,12.50661,-0.05433025,0.2834,0.62322
65.068,12.54359,-0.05534058,0.29125,0.6232
65.668,12.5808,-0.05491544,0.2961,0.62318
66.268,12.61696,-0.05520801,0.30902,0.62316
66.868,12.6524,-0.05545344,0.31243,0.62314
67.468,12.68757,-0.05645725,0.31813,0.62312
68.068,12.72209,-0.05835396,0.32687,0.6231
68.668,12.75645,-0.05709798,0.33316,0.62308
69.268,12.7903,-0.05561728,0.34361,0.62305
69.868,12.8239,-0.05546848,0.34955,0.62303
70.468,12.85683,-0.05611058,0.35783,0.62301
71.068,12.88947,-0.0592891,0.36302,0.62298
71.668,12.92193,-0.06090417,0.37027,0.62296
72.268,12.9544,-0.06259254,0.37843,0.62293
72.868,12.98635,-0.06236135,0.38454,0.62291
73.468,13.0181,-0.06183566,0.39238,0.62288
74.068,13.04922,-0.06078344,0.40184,0.62285
74.668,13.08038,-0.05987684,0.41047,0.62283
75.268,13.1113,-0.0605758,0.41296,0.6228
75.868,13.1422,-0.06055784,0.42379,0.62277
76.468,13.17274,-0.06197409,0.4294,0.62274
77.068,13.20306,-0.06242893,0.43345,0.62271
77.668,13.2332,-0.06229761,0.44445,0.62268
78.268,13.2633,-0.06189163,0.44984,0.62265
78.868,13.2931,-0.06350507,0.45649,0.62262
79.468,13.3228,-0.06366472,0.46434,0.62259
80.068,13.35229,-0.06471745,0.47395,0.62256
80.668,13.3817,-0.06400168,0.47893,0.62252
81.268,13.4109,-0.06525785,0.48759,0.62249
81.868,13.43987,-0.06623773,0.49417,0.62246
82.468,13.4687,-0.06669106,0.49862,0.62242
83.068,13.49725,-0.06575092,0.5078,0.62239
83.668,13.52554,-0.06575961,0.51612,0.62235
84.268,13.55375,-0.06539792,0.51972,0.62232
84.868,13.58196,-0.06613577,0.52874,0.62228
85.468,13.6099,-0.06689605,0.53407,0.62224
86.068,13.63763,-0.06812706,0.53667,0.62221
86.668,13.66516,-0.06832606,0.54316,0.62217
87.268,13.69263,-0.06805028,0.55077,0.62213
87.868,13.72,-0.06833861,0.55584,0.62209
88.468,13.7472,-0.06972257,0.56358,0.62205
89.068,13.77423,-0.07111868,0.57457,0.62201
89.668,13.80081,-0.07037351,0.57801,0.62197
90.268,13.82746,-0.07056497,0.58644,0.62193
90.868,13.85399,-0.07117254,0.59143,0.62189
91.468,13.8807,-0.07117999,0.59897,0.62185
92.068,13.907,-0.07117349,0.60392,0.62181
92.668,13.9331,-0.07259309,0.60712,0.62176
93.268,13.9591,-0.07396408,0.61517,0.62172
93.868,13.985,-0.07414917,0.61947,0.62168
94.468,14.01087,-0.0754202,0.62352,0.62163
95.068,14.0365,-0.076297,0.62946,0.62159
95.668,14.06211,-0.07516829,0.63636,0.62154
96.268,14.0875,-0.07520982,0.64241,0.62149
96.868,14.1129,-0.07692913,0.64566,0.62145
97.468,14.13791,-0.07811188,0.64914,0.6214
98.068,14.1628,-0.07847183,0.6539,0.62135
98.668,14.18767,-0.07883031,0.66061,0.6213
99.268,14.21241,-0.07886198,0.66778,0.62126
99.868,14.23714,-0.07900475,0.6733,0.62121
100.468,14.2619,-0.08015969,0.67624,0.62116
101.068,14.28635,-0.08017832,0.6833,0.62111
101.668,14.3105,-0.08018128,0.68531,0.62106
102.268,14.3347,-0.08042399,0.68777,0.62101
102.868,14.3587,-0.08150344,0.69469,0.62095
103.468,14.38275,-0.08209106,0.69515,0.6209
104.068,14.40655,-0.08278779,0.701,0.62085
104.668,14.4304,-0.08426229,0.70355,0.6208
105.268,14.4541,-0.08424912,0.70761,0.62074
105.868,14.47763,-0.08439973,0.7093,0.62069
106.468,14.5015,-0.08553334,0.7071,0.62063
107.068,14.52489,-0.08562872,0.70935,0.62058
107.668,14.54831,-0.08747174,0.71163,0.62052
108.268,14.57156,-0.0875323,0.71656,0.62047
108.868,14.5946,-0.08753112,0.71296,0.62041
109.468,14.61779,-0.08754182,0.71832,0.62035
110.068,14.6408,-0.08825787,0.71475,0.6203
110.668,14.66385,-0.08882257,0.71725,0.62024
111.268,14.68665,-0.0887731,0.72129,0.62018
111.868,14.70916,-0.08952792,0.72034,0.62012
112.468,14.7317,-0.09141174,0.71945,0.62006
113.068,14.75411,-0.09212066,0.72226,0.62
113.668,14.7767,-0.0932551,0.71855,0.61994
114.268,14.79938,-0.0935351,0.71999,0.61988
114.868,14.82184,-0.09491966,0.71917,0.61982
115.468,14.8443,-0.09364211,0.72433,0.61976
116.068,14.8665,-0.09350044,0.72,0.61969
116.668,14.8887,-0.09453222,0.7232,0.61963
117.268,14.9107,-0.09457134,0.72092,0.61957
117.868,14.93268,-0.09628033,0.72031,0.6195
118.468,14.95469,-0.09618477,0.72023,0.61944
119.068,14.97655,-0.09568126,0.71545,0.61937
119.668,14.9984,-0.09621937,0.71417,0.61931
120.268,15.02006,-0.09618879,0.71023,0.61924
120.868,15.04159,-0.09714399,0.71137,0.61918
121.468,15.06305,-0.09411699,0.70794,0.61911
122.068,15.08448,-0.09111832,0.70717,0.61904
122.668,15.10586,-0.09429578,0.7041,0.61898
123.268,15.127,-0.10297,0.70353,0.61891
123.868,15.1482,-0.10612,0.70119,0.61884
124.468,15.1693,-0.10331,0.70251,0.61877
125.068,15.1904,-0.10241,0.69667,0.6187
125.668,15.21166,-0.10092,0.69288,0.61863
126.268,15.2327,-0.10158,0.69117,0.61856
126.868,15.25384,-0.10089,0.69101,0.61849
127.468,15.27467,-0.1009,0.68652,0.61842
128.068,15.29545,-0.10075,0.68853,0.61834
128.668,15.31623,-0.10312,0.6892,0.61827
129.268,15.33695,-0.10322,0.68576,0.6182
129.868,15.3576,-0.10322,0.68396,0.61813
130.468,15.3782,-0.10322,0.68047,0.61805
131.068,15.3987,-0.10321,0.67147,0.61798
131.668,15.4191,-0.10292,0.67374,0.6179
132.268,15.43944,-0.1032,0.66517,0.61783
132.868,15.4597,-0.10321,0.66957,0.61775
133.468,15.48,-0.10321,0.66227,0.61767
134.068,15.50027,-0.10321,0.65947,0.6176
134.668,15.5205,-0.10321,0.65875,0.61752
135.268,15.5407,-0.1036,0.65813,0.61744
135.868,15.5608,-0.10452,0.65614,0.61737
136.468,15.58085,-0.10454,0.65661,0.61729
137.068,15.60082,-0.1038,0.6551,0.61721
137.668,15.62074,-0.10322,0.65221,0.61713
138.268,15.64061,-0.10393,0.64994,0.61705
138.868,15.66045,-0.10453,0.64773,0.61697
139.468,15.68024,-0.10453,0.64831,0.61689
140.068,15.6999,-0.10354,0.65122,0.61681
140.668,15.71962,-0.10354,0.64802,0.61672
141.268,15.7393,-0.10381,0.64897,0.61664
141.868,15.7589,-0.10488,0.64999,0.61656
142.468,15.77854,-0.10486,0.64534,0.61648
143.068,15.7982,-0.10488,0.64242,0.61639
143.668,15.81771,-0.10563,0.6442,0.61631
144.268,15.8371,-0.10618,0.64612,0.61622
144.868,15.85648,-0.10618,0.64361,0.61614
145.468,15.8758,-0.10618,0.64053,0.61605
146.068,15.89512,-0.10618,0.64402,0.61597
146.668,15.9144,-0.10617,0.64672,0.61588
147.268,15.93365,-0.10611,0.64681,0.61579
147.868,15.9528,-0.10734,0.64401,0.61571
148.468,15.972,-0.10749,0.6417,0.61562
149.068,15.99107,-0.1075,0.64032,0.61553
149.668,16.0102,-0.10716,0.6468,0.61544
150.268,16.02929,-0.10716,0.64373,0.61535
150.868,16.0484,-0.1074,0.64108,0.61526
151.468,16.06748,-0.10706,0.64275,0.61517
152.068,16.08653,-0.10682,0.64247,0.61508
152.668,16.1055,-0.10719,0.64756,0.61499
153.268,16.1245,-0.10717,0.6407,0.6149
153.868,16.14338,-0.10723,0.64403,0.61481
154.468,16.16227,-0.10609,0.64466,0.61472
155.068,16.1811,-0.10618,0.64454,0.61462
155.668,16.1999,-0.10618,0.64557,0.61453
156.268,16.21871,-0.10614,0.64652,0.61444
156.868,16.23749,-0.10713,0.65037,0.61434
157.468,16.2562,-0.10717,0.65191,0.61425
158.068,16.27484,-0.10717,0.6464,0.61415
158.668,16.29337,-0.10717,0.64783,0.61406
159.268,16.31195,-0.10717,0.65237,0.61396
159.868,16.33049,-0.10717,0.65287,0.61387
160.468,16.34897,-0.10717,0.64974,0.61377
161.068,16.36767,-0.10717,0.65538,0.61367
161.668,16.38638,-0.10717,0.65528,0.61358
162.268,16.40504,-0.10717,0.65604,0.61348
162.868,16.4236,-0.10717,0.65791,0.61338
163.468,16.44216,-0.1077,0.65723,0.61328
164.068,16.4606,-0.10847,0.66103,0.61318
164.668,16.47907,-0.10848,0.66043,0.61308
165.268,16.49746,-0.10848,0.6634,0.61298
165.868,16.5159,-0.10848,0.66701,0.61288
166.468,16.53431,-0.10846,0.66979,0.61278
167.068,16.55264,-0.10827,0.67147,0.61268
167.668,16.57102,-0.10716,0.67273,0.61258
168.268,16.58936,-0.10716,0.66965,0.61247
168.868,16.60763,-0.10715,0.67358,0.61237
169.468,16.6259,-0.10812,0.67717,0.61227
170.068,16.64414,-0.10769,0.68117,0.61217
170.668,16.6624,-0.10778,0.67789,0.61206
171.268,16.68057,-0.10868,0.68304,0.61196
171.868,16.69872,-0.10871,0.6853,0.61185
172.468,16.71697,-0.10938,0.68504,0.61175
173.068,16.7351,-0.11002,0.68627,0.61164
173.668,16.7532,-0.11001,0.6918,0.61154
174.268,16.77131,-0.11,0.6947,0.61143
174.868,16.78945,-0.11032,0.69514,0.61132
175.468,16.80742,-0.1096,0.69752,0.61122
176.068,16.82542,-0.10901,0.69807,0.61111
176.668,16.8434,-0.10902,0.69686,0.611
177.268,16.8614,-0.10902,0.69913,0.61089
177.868,16.87933,-0.10902,0.70103,0.61078
178.468,16.89728,-0.10902,0.6988,0.61067
179.068,16.9152,-0.10895,0.70159,0.61056
179.668,16.9331,-0.10761,0.70068,0.61045
180.268,16.95094,-0.1077,0.70287,0.61034
180.868,16.96881,-0.10829,0.70318,0.61023
181.468,16.98661,-0.10871,0.70678,0.61012
182.068,17.00441,-0.1087,0.70762,0.61001
182.668,17.0222,-0.1087,0.71196,0.6099
183.268,17.03996,-0.1087,0.71351,0.60978
183.868,17.05767,-0.1087,0.71535,0.60967
184.468,17.07536,-0.1087,0.72147,0.60956
185.068,17.09303,-0.1087,0.72299,0.60944
185.668,17.11068,-0.10869,0.72295,0.60933
186.268,17.1283,-0.10953,0.72561,0.60922
186.868,17.146,-0.11003,0.72874,0.6091
187.468,17.16359,-0.11002,0.72903,0.60898
188.068,17.1812,-0.11002,0.72976,0.60887
188.668,17.19872,-0.11002,0.73255,0.60875
189.268,17.21631,-0.11002,0.73319,0.60864
189.868,17.2338,-0.11002,0.73801,0.60852
190.468,17.25131,-0.11002,0.73729,0.6084
191.068,17.2688,-0.11002,0.74049,0.60828
191.668,17.28633,-0.11002,0.74429,0.60817
192.268,17.30377,-0.11002,0.74544,0.60805
192.868,17.32118,-0.11002,0.7488,0.60793
193.468,17.33861,-0.11002,0.75214,0.60781
194.068,17.35605,-0.11002,0.74798,0.60769
194.668,17.3734,-0.10999,0.74929,0.60757
195.268,17.39078,-0.11074,0.75545,0.60745
195.868,17.4082,-0.11135,0.75563,0.60733
196.468,17.42555,-0.11133,0.7586,0.60721
197.068,17.4428,-0.11133,0.75967,0.60708
197.668,17.46011,-0.11133,0.75935,0.60696
198.268,17.4774,-0.11133,0.76165,0.60684
198.868,17.4946,-0.11133,0.76512,0.60672
199.468,17.5118,-0.11133,0.7666,0.60659
200.068,17.52908,-0.11133,0.76904,0.60647
200.668,17.5463,-0.11134,0.76491,0.60635
201.268,17.56351,-0.1115,0.76596,0.60622
201.868,17.58077,-0.11266,0.76116,0.6061
202.468,17.59796,-0.11263,0.75949,0.60597
203.068,17.61515,-0.11264,0.7646,0.60585
203.668,17.63229,-0.11264,0.76341,0.60572
204.268,17.64943,-0.11264,0.77064,0.60559
204.868,17.66655,-0.11264,0.76863,0.60547
205.468,17.6837,-0.1126,0.77745,0.60534
206.068,17.7009,-0.11337,0.78037,0.60521
206.668,17.71799,-0.11398,0.77784,0.60508
207.268,17.73507,-0.11396,0.78287,0.60496
207.868,17.752,-0.11396,0.78208,0.60483
208.468,17.7691,-0.11396,0.78895,0.6047
209.068,17.78612,-0.11396,0.78574,0.60457
209.668,17.80312,-0.11396,0.78639,0.60444
210.268,17.82014,-0.11396,0.78982,0.60431
210.868,17.83725,-0.11396,0.78782,0.60418
211.468,17.85427,-0.11393,0.78706,0.60405
212.068,17.87125,-0.1143,0.78435,0.60392
212.668,17.88822,-0.11454,0.78676,0.60378
213.268,17.9052,-0.11497,0.78447,0.60365
213.868,17.9222,-0.11495,0.7832,0.60352
214.468,17.93915,-0.11495,0.78643,0.60339
215.068,17.95609,-0.11495,0.78579,0.60325
215.668,17.97306,-0.11495,0.78316,0.60312
216.268,17.99005,-0.11495,0.77889,0.60299
216.868,18.00699,-0.11495,0.78556,0.60285
217.468,18.02393,-0.11495,0.78497,0.60272
218.068,18.0409,-0.11495,0.78313,0.60258
218.668,18.05774,-0.11494,0.78273,0.60245
219.268,18.07463,-0.11486,0.78379,0.60231
219.868,18.09147,-0.11605,0.78427,0.60218
220.468,18.1083,-0.11627,0.78564,0.60204
221.068,18.12519,-0.11627,0.78372,0.6019
221.668,18.142,-0.11627,0.78386,0.60177
222.268,18.1588,-0.11627,0.78503,0.60163
222.868,18.17568,-0.11622,0.78305,0.60149
223.468,18.19248,-0.11713,0.78662,0.60135
224.068,18.20926,-0.1176,0.78647,0.60121
224.668,18.22608,-0.11759,0.78678,0.60108
225.268,18.24292,-0.11759,0.78595,0.60094
225.868,18.2597,-0.11759,0.79366,0.6008
226.468,18.27657,-0.11754,0.78731,0.60066
227.068,18.29334,-0.11859,0.78248,0.60052
227.668,18.31008,-0.11989,0.78378,0.60038
228.268,18.32678,-0.1207,0.78564,0.60024
228.868,18.34346,-0.12065,0.79097,0.60009
229.468,18.3601,-0.12099,0.78989,0.59995
230.068,18.3768,-0.12228,0.78766,0.59981
230.668,18.39353,-0.12237,0.7868,0.59967
231.268,18.41025,-0.12351,0.78941,0.59953
231.868,18.42693,-0.12349,0.78876,0.59938
232.468,18.4436,-0.1235,0.78819,0.59924
233.068,18.46031,-0.1235,0.79244,0.5991
233.668,18.47695,-0.1235,0.79881,0.59895
234.268,18.49359,-0.12352,0.79612,0.59881
234.868,18.5101,-0.1235,0.79537,0.59866
235.468,18.52665,-0.12566,0.79104,0.59852
236.068,18.5432,-0.12665,0.78747,0.59837
236.668,18.55973,-0.1279,0.79282,0.59823
237.268,18.57639,-0.12801,0.79244,0.59808
237.868,18.59319,-0.1293,0.79291,0.59793
238.468,18.60991,-0.12921,0.79055,0.59779
239.068,18.6266,-0.12981,0.79062,0.59764
239.668,18.64341,-0.13034,0.79186,0.59749
240.268,18.66004,-0.12998,0.79075,0.59734
240.868,18.6766,-0.13086,0.79599,0.5972
241.468,18.69324,-0.13184,0.78681,0.59705
242.068,18.70982,-0.1324,0.78873,0.5969
242.668,18.72639,-0.13307,0.78573,0.59675
243.268,18.74296,-0.13392,0.78697,0.5966
243.868,18.75958,-0.13454,0.78781,0.59645
244.468,18.77619,-0.13555,0.7874,0.5963
245.068,18.79278,-0.1357,0.78479,0.59615
245.668,18.8094,-0.137,0.78639,0.596
246.268,18.826,-0.13772,0.78475,0.59585
246.868,18.84254,-0.13996,0.7908,0.5957
247.468,18.85905,-0.14132,0.78207,0.59555
248.068,18.87552,-0.14199,0.78096,0.59539
248.668,18.892,-0.14323,0.78339,0.59524
249.268,18.9085,-0.14501,0.78368,0.59509
249.868,18.92503,-0.14626,0.78216,0.59494
250.468,18.94146,-0.14709,0.78408,0.59478
251.068,18.95802,-0.14878,0.78085,0.59463
251.668,18.9745,-0.15018,0.78358,0.59448
252.268,18.99101,-0.1517,0.78801,0.59432
252.868,19.0075,-0.15335,0.77835,0.59417
253.468,19.024,-0.15508,0.77479,0.59401
254.068,19.0405,-0.15665,0.77865,0.59386
254.668,19.05692,-0.15733,0.7788,0.5937
255.268,19.07339,-0.16012,0.77212,0.59355
255.868,19.08986,-0.16514,0.76697,0.59339
256.468,19.10634,-0.16904,0.75761,0.59323
257.068,19.12274,-0.16993,0.77017,0.59308
257.668,19.13915,-0.16654,0.76856,0.59292
258.268,19.15564,-0.16336,0.77046,0.59276
258.868,19.17207,-0.16461,0.76523,0.5926
259.468,19.18846,-0.16728,0.76115,0.59245
260.068,19.2049,-0.16948,0.76583,0.59229
260.668,19.22131,-0.17149,0.76497,0.59213
261.268,19.23777,-0.17301,0.76354,0.59197
261.868,19.2542,-0.17526,0.76045,0.59181
262.468,19.27065,-0.17861,0.76357,0.59165
263.068,19.28696,-0.18122,0.76044,0.59149
263.668,19.30334,-0.18361,0.76549,0.59133
264.268,19.31974,-0.18633,0.76827,0.59117
264.868,19.33608,-0.18768,0.76514,0.59101
265.468,19.3524,-0.18848,0.77155,0.59085
266.068,19.36882,-0.1906,0.76644,0.59069
266.668,19.38526,-0.19322,0.76399,0.59053
267.268,19.4016,-0.19591,0.7684,0.59037
267.868,19.41798,-0.19838,0.76666,0.5902
268.468,19.43436,-0.20069,0.77166,0.59004
269.068,19.45076,-0.20239,0.76858,0.58988
269.668,19.4671,-0.20452,0.76847,0.58971
270.268,19.4835,-0.20715,0.767,0.58955
270.868,19.49995,-0.20906,0.77134,0.58939
271.468,19.51633,-0.21185,0.77145,0.58922
272.068,19.5327,-0.21554,0.77302,0.58906
272.668,19.549,-0.21806,0.77688,0.5889
273.268,19.5654,-0.22098,0.7778,0.58873
273.868,19.58178,-0.22471,0.77849,0.58857
274.468,19.5981,-0.22706,0.78138,0.5884
275.068,19.61447,-0.22994,0.78375,0.58823
275.668,19.63087,-0.23461,0.78358,0.58807
276.268,19.64723,-0.23669,0.78273,0.5879
276.868,19.66355,-0.23973,0.78004,0.58774
277.468,19.6799,-0.2437,0.78482,0.58757
278.068,19.69622,-0.24628,0.78355,0.5874
278.668,19.71256,-0.24992,0.78701,0.58723
279.268,19.72891,-0.25336,0.79183,0.58707
279.868,19.74533,-0.25591,0.79179,0.5869
280.468,19.7617,-0.25934,0.78797,0.58673
281.068,19.77807,-0.26265,0.79312,0.58656
281.668,19.79445,-0.26614,0.79116,0.58639
282.268,19.8109,-0.26987,0.79949,0.58622
282.868,19.8273,-0.27388,0.79056,0.58606
283.468,19.84367,-0.27682,0.79248,0.58589
284.068,19.8601,-0.28082,0.79879,0.58572
284.668,19.87651,-0.28454,0.79425,0.58555
285.268,19.8929,-0.28606,0.79801,0.58538
285.868,19.90924,-0.29008,0.79774,0.5852
286.468,19.9256,-0.29382,0.80179,0.58503
287.068,19.94195,-0.29768,0.802,0.58486
287.668,19.95842,-0.3025,0.80177,0.58469
288.268,19.9748,-0.30816,0.80121,0.58452
288.868,19.99125,-0.31225,0.80015,0.58435
289.468,20.00767,-0.31717,0.8021,0.58418
290.068,20.02409,-0.3217,0.8067,0.584
290.668,20.04038,-0.32624,0.80993,0.58383
291.268,20.05665,-0.33144,0.81432,0.58366
291.868,20.0729,-0.33596,0.81718,0.58348
292.468,20.0893,-0.34165,0.81134,0.58331
293.068,20.10572,-0.34668,0.80956,0.58314
293.668,20.1221,-0.35296,0.81049,0.58296
294.268,20.1386,-0.35841,0.812,0.58279
294.868,20.1551,-0.36322,0.81698,0.58261
295.468,20.17158,-0.36845,0.81558,0.58244
296.068,20.18788,-0.3731,0.81596,0.58226
296.668,20.2042,-0.37925,0.8148,0.58209
297.268,20.22062,-0.38451,0.81859,0.58191
297.868,20.23701,-0.38992,0.8158,0.58174
298.468,20.25338,-0.39672,0.81873,0.58156
299.068,20.26976,-0.40181,0.8213,0.58138
299.668,20.28615,-0.40883,0.82151,0.58121
300.268,20.3025,-0.41507,0.8289,0.58103
300.868,20.3188,-0.42215,0.83729,0.58085
301.468,20.33523,-0.42968,0.83666,0.58068
302.068,20.35165,-0.43542,0.84216,0.5805
302.668,20.36805,-0.44244,0.84308,0.58032
303.268,20.3844,-0.44817,0.84042,0.58014
303.868,20.40081,-0.45566,0.83764,0.57996
304.468,20.41721,-0.464,0.8413,0.57978
305.068,20.43357,-0.47128,0.84503,0.57961
305.668,20.44993,-0.48007,0.84656,0.57943
306.268,20.46627,-0.48621,0.85157,0.57925
306.868,20.48265,-0.49452,0.85561,0.57907
307.468,20.499,-0.50272,0.85645,0.57889
308.068,20.51536,-0.5105,0.85915,0.57871
308.668,20.5317,-0.51973,0.85969,0.57853
309.268,20.54805,-0.5271,0.87063,0.57835
309.868,20.56445,-0.53742,0.87107,0.57817
310.468,20.58077,-0.54673,0.86692,0.57798
311.068,20.5972,-0.55618,0.87015,0.5778
311.668,20.61354,-0.56683,0.87342,0.57762
312.268,20.62991,-0.57492,0.87202,0.57744
312.868,20.64625,-0.58567,0.87363,0.57726
313.468,20.66254,-0.59496,0.87892,0.57708
314.068,20.67888,-0.60498,0.88264,0.57689
314.668,20.69524,-0.61623,0.88687,0.57671
315.268,20.71164,-0.62605,0.89252,0.57653
315.868,20.72801,-0.63958,0.89647,0.57634
316.468,20.74446,-0.65012,0.89553,0.57616
317.068,20.76091,-0.6624,0.90075,0.57598
317.668,20.77731,-0.67429,0.90495,0.57579
318.268,20.79365,-0.68471,0.90922,0.57561
318.868,20.81002,-0.69707,0.91798,0.57543
319.468,20.82639,-0.70673,0.92644,0.57524
320.068,20.84281,-0.71869,0.92542,0.57506
320.668,20.8592,-0.73087,0.92361,0.57487
321.268,20.87559,-0.74316,0.92988,0.57469
321.868,20.89205,-0.75858,0.93687,0.5745
322.468,20.9085,-0.7702,0.93706,0.57432
323.068,20.9249,-0.78403,0.94021,0.57413
323.668,20.94128,-0.79578,0.9442,0.57394
324.268,20.9577,-0.80863,0.94843,0.57376
324.868,20.9741,-0.82314,0.95306,0.57357
325.468,20.9905,-0.83521,0.95738,0.57338
326.068,21.0069,-0.85129,0.96134,0.5732
326.668,21.02325,-0.8643,0.96003,0.57301
327.268,21.03965,-0.87939,0.95584,0.57282
327.868,21.05605,-0.89652,0.95674,0.57263
328.468,21.0725,-0.91013,0.96844,0.57245
329.068,21.08887,-0.92779,0.97545,0.57226
329.668,21.1053,-0.94124,0.97589,0.57207
330.268,21.12172,-0.95745,0.98557,0.57188
330.868,21.1382,-0.97339,0.98865,0.57169
331.468,21.1546,-0.988,0.99366,0.5715
332.068,21.17105,-1.00616,0.99956,0.57132
332.668,21.1875,-1.02043,1.00667,0.57113
333.268,21.20395,-1.03888,1.01179,0.57094
333.868,21.22035,-1.05448,1.01644,0.57075
334.468,21.23678,-1.0713,1.02238,0.57056
335.068,21.2532,-1.09141,1.02528,0.57037
335.668,21.26962,-1.10688,1.03598,0.57018
336.268,21.28606,-1.12677,1.04475,0.56999
336.868,21.30252,-1.14336,1.05138,0.5698
337.468,21.31896,-1.16165,1.05434,0.5696
338.068,21.3354,-1.18153,1.05758,0.56941
338.668,21.3519,-1.19756,1.06785,0.56922
339.268,21.36821,-1.21865,1.07377,0.56903
339.868,21.38462,-1.23566,1.07976,0.56884
340.468,21.40108,-1.25591,1.0882,0.56865
341.068,21.41757,-1.27619,1.09319,0.56846
341.668,21.43402,-1.29458,1.10676,0.56826
342.268,21.45051,-1.3182,1.11524,0.56807
342.868,21.46708,-1.33639,1.11848,0.56788
343.468,21.4835,-1.35889,1.12678,0.56768
344.068,21.50005,-1.3788,1.13723,0.56749
344.668,21.51653,-1.39862,1.1473,0.5673
345.268,21.53303,-1.42272,1.15659,0.56711
345.868,21.5496,-1.44191,1.15842,0.56691
346.468,21.56607,-1.46613,1.16663,0.56672
347.068,21.58261,-1.48566,1.177,0.56652
347.668,21.59913,-1.50718,1.18546,0.56633
348.268,21.61562,-1.53114,1.19093,0.56613
348.868,21.63213,-1.55198,1.19534,0.56594
349.468,21.6487,-1.57951,1.19867,0.56575
350.068,21.66516,-1.5999,1.20571,0.56555
350.668,21.6816,-1.62415,1.21232,0.56536
351.268,21.69815,-1.64779,1.21326,0.56516
351.868,21.7147,-1.66986,1.21828,0.56496
352.468,21.73115,-1.69694,1.22138,0.56477
353.068,21.74769,-1.71782,1.22076,0.56457
353.668,21.7642,-1.74389,1.22586,0.56438
354.268,21.78077,-1.76725,1.22794,0.56418
354.868,21.79731,-1.79134,1.22938,0.56398
355.468,21.81389,-1.81906,1.22833,0.56379
356.068,21.8304,-1.84063,1.22251,0.56359
356.668,21.84693,-1.86788,1.21161,0.56339
357.268,21.8636,-1.88972,1.21279,0.5632
357.868,21.88017,-1.91409,1.20478,0.563
358.468,21.89677,-1.93954,1.1913,0.5628
359.068,21.91341,-1.96171,1.17673,0.5626
359.668,21.93011,-1.989,1.16576,0.56241
360.268,21.9467,-2.01034,1.14958,0.56221
360.868,21.96334,-2.03618,1.12964,0.56201
361.468,21.98,-2.05921,1.10999,0.56181
362.068,21.99663,-2.08187,1.08144,0.56161
362.668,22.0133,-2.10901,1.05322,0.56142
363.268,22.02995,-2.12971,1.03046,0.56122
363.868,22.04659,-2.15467,0.99886,0.56102
364.468,22.06328,-2.17472,0.96227,0.56082
365.068,22.07998,-2.19719,0.92666,0.56062
365.668,22.0967,-2.22023,0.88491,0.56042
366.268,22.1134,-2.2395,0.83759,0.56022
366.868,22.1302,-2.26199,0.7948,0.56002
367.468,22.14699,-2.27849,0.74934,0.55982
368.068,22.1638,-2.29835,0.69318,0.55962
368.668,22.18059,-2.31542,0.6464,0.55942
369.268,22.1974,-2.3308,0.59551,0.55922
369.868,22.2142,-2.34875,0.54637,0.55902
370.468,22.231,-2.36251,0.49922,0.55882
371.068,22.24778,-2.37869,0.44934,0.55862
371.668,22.2646,-2.39006,0.40802,0.55842
372.268,22.28148,-2.40307,0.36436,0.55822
372.868,22.29834,-2.4145,0.31994,0.55801
373.468,22.31525,-2.42387,0.28371,0.55781
374.068,22.33217,-2.43371,0.23899,0.55761
374.668,22.34907,-2.44041,0.21055,0.55741
375.268,22.36596,-2.44889,0.1848,0.55721
375.868,22.3828,-2.45527,0.15527,0.557
376.468,22.3997,-2.46244,0.12817,0.5568
377.068,22.4166,-2.46874,0.10204,0.5566
377.668,22.43345,-2.47403,0.08323306,0.5564
378.268,22.45029,-2.47952,0.05528642,0.55619
378.868,22.46715,-2.48294,0.0334228,0.55599
379.468,22.4841,-2.48643,0.02377637,0.55579
380.068,22.50094,-2.4899,0.007584841,0.55559
380.668,22.51774,-2.4935,-0.00443133,0.55538
381.268,22.53471,-2.49656,-0.02009036,0.55518
381.868,22.55164,-2.49914,-0.02877981,0.55498
382.468,22.56852,-2.50252,-0.03151795,0.55477
383.068,22.58539,-2.50584,-0.04381913,0.55457
383.668,22.6024,-2.5084,-0.05390283,0.55436
384.268,22.61939,-2.50971,-0.06291185,0.55416
384.868,22.63635,-2.51074,-0.06983777,0.55396
385.468,22.65335,-2.5128,-0.0735408,0.55375
386.068,22.67033,-2.51497,-0.0769334,0.55355
386.668,22.68732,-2.5186,-0.07754161,0.55334
387.268,22.70426,-2.5211,-0.0900689,0.55314
387.868,22.7211,-2.52284,-0.09492841,0.55293
388.468,22.73801,-2.52385,-0.09800554,0.55273
389.068,22.7549,-2.52528,-0.10203,0.55252
389.668,22.77192,-2.52687,-0.10687,0.55232
390.268,22.78888,-2.52871,-0.1112,0.55211
390.868,22.806,-2.53051,-0.11704,0.5519
391.468,22.823,-2.53233,-0.11295,0.5517
392.068,22.84003,-2.53408,-0.11922,0.55149
392.668,22.857,-2.53522,-0.12379,0.55129
393.268,22.87407,-2.53692,-0.12584,0.55108
393.868,22.891,-2.53855,-0.13144,0.55087
394.468,22.90804,-2.54027,-0.13623,0.55067
395.068,22.92505,-2.54139,-0.13163,0.55046
395.668,22.9421,-2.54202,-0.13459,0.55025
396.268,22.9591,-2.54347,-0.13724,0.55005
396.868,22.97618,-2.54507,-0.14149,0.54984
397.468,22.99321,-2.54697,-0.14306,0.54963
398.068,23.01025,-2.54913,-0.1397,0.54943
398.668,23.0273,-2.55075,-0.14376,0.54922
399.268,23.04435,-2.55217,-0.14115,0.54901
399.868,23.0613,-2.5532,-0.14189,0.5488
400.468,23.07835,-2.55421,-0.14517,0.5486
401.068,23.09544,-2.55602,-0.14618,0.54839
401.668,23.11251,-2.55728,-0.14826,0.54818
402.268,23.12964,-2.55786,-0.15109,0.54797
402.868,23.14682,-2.55949,-0.15095,0.54776
403.468,23.16399,-2.56116,-0.14887,0.54756
404.068,23.18101,-2.56259,-0.14605,0.54735
404.668,23.1981,-2.56342,-0.1493,0.54714
405.268,23.21523,-2.56503,-0.14896,0.54693
405.868,23.2323,-2.56511,-0.14796,0.54672
406.468,23.24942,-2.5654,-0.15129,0.54651
407.068,23.26667,-2.56654,-0.15523,0.5463
407.668,23.2839,-2.56687,-0.15805,0.5461
408.268,23.30101,-2.56825,-0.16012,0.54589
408.868,23.31816,-2.5702,-0.16094,0.54568
409.468,23.33532,-2.57176,-0.16092,0.54547
410.068,23.35245,-2.57318,-0.15986,0.54526
410.668,23.36958,-2.57358,-0.16311,0.54505
411.268,23.38674,-2.57423,-0.15939,0.54484
411.868,23.40385,-2.57432,-0.1623,0.54463
412.468,23.42098,-2.57477,-0.16244,0.54442
413.068,23.43815,-2.5758,-0.16598,0.54421
413.668,23.45532,-2.57852,-0.16605,0.544
414.268,23.47249,-2.57958,-0.16199,0.54379
414.868,23.4897,-2.58058,-0.16292,0.54358
415.468,23.50692,-2.58234,-0.17146,0.54337
416.068,23.5241,-2.5837,-0.16908,0.54316
416.668,23.54138,-2.58425,-0.17174,0.54295
417.268,23.5586,-2.58547,-0.17411,0.54274
417.868,23.5758,-2.58551,-0.18044,0.54253
418.468,23.593,-2.58621,-0.18269,0.54231
419.068,23.6103,-2.58742,-0.18172,0.5421
419.668,23.62748,-2.58952,-0.18123,0.54189
420.268,23.64472,-2.5918,-0.18326,0.54168
420.868,23.662,-2.59213,-0.18431,0.54147
421.468,23.6793,-2.59331,-0.18645,0.54126
422.068,23.69657,-2.59462,-0.18734,0.54105
422.668,23.7139,-2.59567,-0.18867,0.54084
423.268,23.73122,-2.59466,-0.1896,0.54062
423.868,23.74847,-2.58985,-0.19223,0.54041
424.468,23.7658,-2.58518,-0.19407,0.5402
425.068,23.7831,-2.58791,-0.19445,0.53999
425.668,23.80034,-2.60147,-0.19451,0.53978
426.268,23.81762,-2.61028,-0.19398,0.53956
426.868,23.8349,-2.6136,-0.19042,0.53935
427.468,23.85216,-2.61034,-0.18984,0.53914
428.068,23.8694,-2.60846,-0.19392,0.53893
428.668,23.88676,-2.60845,-0.19613,0.53872
429.268,23.90413,-2.60837,-0.19629,0.5385
429.868,23.92154,-2.60955,-0.1965,0.53829
430.468,23.93895,-2.60971,-0.19588,0.53808
431.068,23.95638,-2.61126,-0.19712,0.53786
431.668,23.97364,-2.61163,-0.19458,0.53765
432.268,23.991,-2.61284,-0.19649,0.53744
432.868,24.00843,-2.61283,-0.19988,0.53723
433.468,24.02579,-2.61384,-0.20295,0.53701
434.068,24.04319,-2.61423,-0.2026,0.5368
434.668,24.06074,-2.61633,-0.20185,0.53659
435.268,24.0781,-2.61823,-0.20277,0.53637
435.868,24.09553,-2.61934,-0.20128,0.53616
436.468,24.1129,-2.62068,-0.20553,0.53595
437.068,24.13036,-2.62097,-0.20565,0.53573
437.668,24.14781,-2.62078,-0.20645,0.53552
438.268,24.16524,-2.62119,-0.20581,0.53531
438.868,24.18269,-2.62228,-0.20263,0.53509
439.468,24.20017,-2.62403,-0.20389,0.53488
440.068,24.21761,-2.62531,-0.20291,0.53466
440.668,24.23506,-2.62556,-0.20536,0.53445
441.268,24.25252,-2.6272,-0.20446,0.53424
441.868,24.27,-2.62742,-0.2017,0.53402
442.468,24.28753,-2.62859,-0.20255,0.53381
443.068,24.305,-2.63065,-0.20243,0.53359
443.668,24.32254,-2.63204,-0.20602,0.53338
444.268,24.34,-2.63269,-0.20664,0.53316
444.868,24.3575,-2.63352,-0.20554,0.53295
445.468,24.37496,-2.63447,-0.20502,0.53273
446.068,24.3925,-2.63581,-0.20275,0.53252
446.668,24.41,-2.63641,-0.20319,0.53231
447.268,24.42755,-2.63723,-0.20402,0.53209
447.868,24.44511,-2.63865,-0.2053,0.53188
448.468,24.4627,-2.6398,-0.20173,0.53166
449.068,24.4802,-2.64135,-0.2001,0.53145
449.668,24.4978,-2.64267,-0.1987,0.53123
450.268,24.51537,-2.64275,-0.19756,0.53102
450.868,24.53291,-2.64433,-0.19707,0.5308
451.468,24.55051,-2.64453,-0.1988,0.53059
452.068,24.5681,-2.64442,-0.19852,0.53037
452.668,24.58568,-2.64702,-0.1949,0.53016
453.268,24.60331,-2.64812,-0.19889,0.52994
453.868,24.62098,-2.64945,-0.19734,0.52972
454.468,24.6385,-2.65082,-0.19754,0.52951
455.068,24.65615,-2.65191,-0.19913,0.52929
455.668,24.67379,-2.65229,-0.19953,0.52908
456.268,24.69139,-2.65278,-0.19747,0.52886
456.868,24.70897,-2.65377,-0.1973,0.52865
457.468,24.72673,-2.65411,-0.19959,0.52843
458.068,24.74437,-2.65526,-0.19818,0.52822
458.668,24.76202,-2.65667,-0.19907,0.528
459.268,24.77975,-2.65691,-0.20194,0.52778
459.868,24.79745,-2.65788,-0.20257,0.52757
460.468,24.81511,-2.65726,-0.20334,0.52735
461.068,24.83282,-2.65839,-0.19964,0.52714
461.668,24.8505,-2.65873,-0.19933,0.52692
462.268,24.86816,-2.65978,-0.20022,0.5267
462.868,24.88589,-2.66122,-0.19994,0.52649
463.468,24.90364,-2.66237,-0.19904,0.52627
464.068,24.92137,-2.66331,-0.20085,0.52605
464.668,24.9391,-2.66479,-0.20173,0.52584
465.268,24.9569,-2.66477,-0.20068,0.52562
465.868,24.97465,-2.66585,-0.19829,0.52541
466.468,24.99236,-2.6661,-0.20063,0.52519
467.068,25.01012,-2.66681,-0.20134,0.52497
467.668,25.02788,-2.66743,-0.20098,0.52476
468.268,25.04563,-2.66882,-0.20182,0.52454
468.868,25.0634,-2.66926,-0.20084,0.52432
469.468,25.08117,-2.67205,-0.19667,0.52411
470.068,25.09893,-2.67191,-0.1946,0.52389
470.668,25.11671,-2.67311,-0.19492,0.52367
471.268,25.1345,-2.67318,-0.19621,0.52346
471.868,25.15234,-2.67443,-0.19558,0.52324
472.468,25.1702,-2.67469,-0.19737,0.52302
473.068,25.18794,-2.67613,-0.19817,0.52281
473.668,25.20577,-2.67681,-0.20024,0.52259
474.268,25.2236,-2.6778,-0.2025,0.52237
474.868,25.24137,-2.67926,-0.20251,0.52216
475.468,25.2592,-2.67917,-0.20003,0.52194
476.068,25.27713,-2.68048,-0.20027,0.52172
476.668,25.295,-2.68109,-0.2016,0.5215
477.268,25.31289,-2.6828,-0.20127,0.52129
477.868,25.3308,-2.68493,-0.19799,0.52107
478.468,25.34865,-2.6849,-0.19752,0.52085
479.068,25.36659,-2.68528,-0.20005,0.52064
479.668,25.3845,-2.68629,-0.20043,0.52042
480.268,25.40241,-2.68643,-0.20246,0.5202
480.868,25.42032,-2.68778,-0.19977,0.51998
481.468,25.4382,-2.6908,-0.20012,0.51977
482.068,25.4561,-2.69597,-0.19976,0.51955
482.668,25.474,-2.69925,-0.19929,0.51933
483.268,25.49192,-2.69976,-0.20031,0.51911
483.868,25.50986,-2.69088,-0.19806,0.5189
484.468,25.5278,-2.68449,-0.20157,0.51868
485.068,25.54575,-2.68056,-0.20186,0.51846
485.668,25.56371,-2.68624,-0.20246,0.51824
486.268,25.5817,-2.689,-0.20365,0.51803
486.868,25.5997,-2.69231,-0.20027,0.51781
487.468,25.61767,-2.69461,-0.20132,0.51759
488.068,25.6357,-2.69573,-0.20172,0.51737
488.668,25.65373,-2.69612,-0.19839,0.51716
489.268,25.6717,-2.69745,-0.19464,0.51694
489.868,25.68971,-2.6974,-0.20016,0.51672
490.468,25.70776,-2.69732,-0.20289,0.5165
491.068,25.72576,-2.69867,-0.20074,0.51629
491.668,25.74376,-2.6987,-0.19861,0.51607
492.268,25.76182,-2.69918,-0.1974,0.51585
492.868,25.77979,-2.70101,-0.20106,0.51563
493.468,25.79784,-2.70183,-0.20015,0.51542
494.068,25.81588,-2.70283,-0.19862,0.5152
494.668,25.83395,-2.70275,-0.2012,0.51498
495.268,25.852,-2.70364,-0.20335,0.51476
495.868,25.87011,-2.70432,-0.20325,0.51455
496.468,25.88818,-2.70606,-0.20663,0.51433
497.068,25.90631,-2.70667,-0.20664,0.51411
497.668,25.9244,-2.70738,-0.2064,0.51389
498.268,25.94257,-2.70733,-0.2029,0.51367
498.868,25.96068,-2.70855,-0.20185,0.51346
499.468,25.97886,-2.70887,-0.20393,0.51324
500.068,25.997,-2.7104,-0.20451,0.51302
500.668,26.01511,-2.71035,-0.20285,0.5128
501.268,26.03321,-2.71164,-0.20272,0.51259
501.868,26.0514,-2.71177,-0.20464,0.51237
502.468,26.06951,-2.71177,-0.20197,0.51215
503.068,26.08769,-2.71298,-0.2032,0.51193
503.668,26.10591,-2.71261,-0.2058,0.51171
504.268,26.12415,-2.71187,-0.20863,0.5115
504.868,26.1423,-2.7119,-0.2092,0.51128
505.468,26.1605,-2.71092,-0.21247,0.51106
506.068,26.17867,-2.70777,-0.21135,0.51084
506.668,26.1968,-2.70686,-0.20972,0.51063
507.268,26.215,-2.71165,-0.20678,0.51041
507.868,26.2332,-2.71772,-0.20891,0.51019
508.468,26.2513,-2.72142,-0.20683,0.50997
509.068,26.26955,-2.72186,-0.21048,0.50975
509.668,26.28776,-2.72186,-0.2055,0.50954
510.268,26.306,-2.72187,-0.20388,0.50932
510.868,26.3242,-2.72194,-0.20626,0.5091
511.468,26.34248,-2.72069,-0.20637,0.50888
512.068,26.3607,-2.72044,-0.20733,0.50866
512.668,26.37893,-2.72044,-0.20702,0.50845
513.268,26.3972,-2.7204,-0.20497,0.50823
513.868,26.41548,-2.7216,-0.20362,0.50801
514.468,26.4338,-2.72213,-0.20583,0.50779
515.068,26.4521,-2.72401,-0.20686,0.50758
515.668,26.47038,-2.72449,-0.2074,0.50736
516.268,26.4887,-2.72451,-0.20806,0.50714
516.868,26.507,-2.72518,-0.2039,0.50692
517.468,26.5253,-2.72581,-0.20583,0.5067
518.068,26.54363,-2.72581,-0.20507,0.50649
518.668,26.5619,-2.72588,-0.20523,0.50627
519.268,26.58023,-2.72713,-0.2062,0.50605
519.868,26.5985,-2.72691,-0.20436,0.50583
520.468,26.61683,-2.72642,-0.20534,0.50562
521.068,26.6351,-2.72713,-0.20847,0.5054
521.668,26.6533,-2.72713,-0.20575,0.50518
522.268,26.6715,-2.72711,-0.20558,0.50496
522.868,26.6898,-2.72939,-0.20893,0.50475
523.468,26.70812,-2.72974,-0.2079,0.50453
524.068,26.7265,-2.72975,-0.20501,0.50431
524.668,26.745,-2.72975,-0.20538,0.50409
525.268,26.76347,-2.72971,-0.20629,0.50388
525.868,26.7819,-2.73057,-0.20676,0.50366
526.468,26.8003,-2.73186,-0.20507,0.50344
527.068,26.8187,-2.73394,-0.20785,0.50322
527.668,26.83713,-2.73403,-0.20693,0.503
528.268,26.85551,-2.73438,-0.20574,0.50279
528.868,26.8739,-2.73672,-0.20813,0.50257
529.468,26.89234,-2.74086,-0.20747,0.50235
530.068,26.91075,-2.74604,-0.20999,0.50214
530.668,26.9292,-2.74159,-0.2094,0.50192
531.268,26.94769,-2.73192,-0.20731,0.5017
531.868,26.9661,-2.72443,-0.2083,0.50148
532.468,26.9846,-2.72592,-0.20891,0.50127
533.068,27.0031,-2.73085,-0.20694,0.50105
533.668,27.02157,-2.73428,-0.20405,0.50083
534.268,27.0401,-2.73624,-0.20261,0.50061
534.868,27.05852,-2.73804,-0.20379,0.5004
535.468,27.07698,-2.73808,-0.20783,0.50018
536.068,27.09549,-2.73809,-0.21112,0.49996
536.668,27.114,-2.73812,-0.20992,0.49975
537.268,27.13243,-2.74,-0.2077,0.49953
537.868,27.1509,-2.7404,-0.20821,0.49931
538.468,27.16944,-2.74039,-0.20908,0.49909
539.068,27.18794,-2.74075,-0.2091,0.49888
539.668,27.20642,-2.74076,-0.20866,0.49866
540.268,27.2249,-2.74122,-0.21034,0.49844
540.868,27.2435,-2.74228,-0.21189,0.49823
541.468,27.26195,-2.74227,-0.21523,0.49801
542.068,27.28045,-2.74227,-0.21455,0.49779
542.668,27.2991,-2.74229,-0.2138,0.49758
543.268,27.31761,-2.74223,-0.2112,0.49736
543.868,27.3362,-2.74353,-0.21432,0.49714
544.468,27.35472,-2.74379,-0.21529,0.49692
545.068,27.37329,-2.74406,-0.21946,0.49671
545.668,27.3918,-2.74511,-0.21683,0.49649
546.268,27.4103,-2.74511,-0.21843,0.49627
546.868,27.42884,-2.74567,-0.21675,0.49606
547.468,27.4474,-2.74646,-0.21696,0.49584
548.068,27.46598,-2.74646,-0.2178,0.49563
548.668,27.4846,-2.74685,-0.22039,0.49541
549.268,27.5033,-2.74776,-0.22041,0.49519
549.868,27.52192,-2.74775,-0.22499,0.49498
550.468,27.54052,-2.74775,-0.2204,0.49476
551.068,27.55906,-2.74775,-0.22169,0.49454
551.668,27.5776,-2.74774,-0.22458,0.49433
552.268,27.5962,-2.74873,-0.22734,0.49411
552.868,27.61481,-2.74904,-0.23223,0.49389
553.468,27.6335,-2.74909,-0.23555,0.49368
554.068,27.65215,-2.75046,-0.23621,0.49346
554.668,27.67077,-2.75038,-0.24069,0.49325
555.268,27.6894,-2.75038,-0.24249,0.49303
555.868,27.7081,-2.75038,-0.24084,0.49281
556.468,27.7267,-2.75037,-0.23709,0.4926
557.068,27.74535,-2.75024,-0.24096,0.49238
557.668,27.764,-2.74969,-0.24055,0.49217
558.268,27.7827,-2.74972,-0.24155,0.49195
558.868,27.8014,-2.74973,-0.24386,0.49173
559.468,27.8201,-2.75104,-0.24332,0.49152
560.068,27.8388,-2.75102,-0.24384,0.4913
560.668,27.85742,-2.75103,-0.24295,0.49109
561.268,27.8761,-2.75103,-0.24478,0.49087
561.868,27.8948,-2.75102,-0.25034,0.49066
562.468,27.91344,-2.75096,-0.24785,0.49044
563.068,27.93212,-2.75216,-0.24803,0.49023
563.668,27.95083,-2.75234,-0.24701,0.49001
564.268,27.9695,-2.7533,-0.24596,0.48979
564.868,27.9882,-2.75363,-0.24403,0.48958
565.468,28.00695,-2.75485,-0.24518,0.48936
566.068,28.0257,-2.75498,-0.24871,0.48915
566.668,28.04445,-2.75498,-0.25006,0.48893
567.268,28.0632,-2.75564,-0.25208,0.48872
567.868,28.0819,-2.75628,-0.25444,0.4885
568.468,28.1007,-2.7563,-0.25524,0.48829
569.068,28.1194,-2.7563,-0.25707,0.48807
569.668,28.1382,-2.75623,-0.25575,0.48786
570.268,28.15695,-2.75759,-0.25723,0.48764
570.868,28.1758,-2.75762,-0.25656,0.48743
571.468,28.1945,-2.75762,-0.25668,0.48721
572.068,28.2133,-2.75762,-0.2577,0.487
572.668,28.23207,-2.75762,-0.25651,0.48678
573.268,28.2509,-2.75762,-0.25559,0.48657
573.868,28.26967,-2.75762,-0.25745,0.48636
574.468,28.2885,-2.75759,-0.25625,0.48614
575.068,28.3073,-2.75882,-0.25176,0.48593
575.668,28.3261,-2.75893,-0.25007,0.48571
576.268,28.3449,-2.75894,-0.24945,0.4855
576.868,28.3637,-2.75894,-0.2547,0.48528
577.468,28.38253,-2.75894,-0.25009,0.48507
578.068,28.4014,-2.75894,-0.25452,0.48486
578.668,28.42023,-2.75894,-0.25558,0.48464
579.268,28.43908,-2.75985,-0.25737,0.48443
579.868,28.458,-2.76021,-0.26221,0.48421
580.468,28.4769,-2.76142,-0.26257,0.484
581.068,28.49573,-2.76155,-0.26311,0.48379
581.668,28.51453,-2.76156,-0.26393,0.48357
582.268,28.5334,-2.76157,-0.26924,0.48336
582.868,28.5522,-2.76165,-0.27165,0.48315
583.468,28.57108,-2.76291,-0.28004,0.48293
584.068,28.59,-2.76288,-0.28077,0.48272
584.668,28.6089,-2.76287,-0.27947,0.48251
585.268,28.62777,-2.76229,-0.27419,0.48229
585.868,28.64667,-2.76294,-0.27818,0.48208
586.468,28.66552,-2.76288,-0.27967,0.48187
587.068,28.6844,-2.7628,-0.2774,0.48165
587.668,28.70334,-2.76408,-0.28116,0.48144
588.268,28.72223,-2.7642,-0.28373,0.48123
588.868,28.7412,-2.7642,-0.28243,0.48101
589.468,28.76009,-2.7642,-0.28423,0.4808
590.068,28.779,-2.7642,-0.28554,0.48059
590.668,28.7979,-2.7642,-0.28546,0.48037
591.268,28.8169,-2.7642,-0.28581,0.48016
591.868,28.8358,-2.7642,-0.28612,0.47995
592.468,28.85476,-2.7642,-0.29128,0.47974
593.068,28.8737,-2.76419,-0.29108,0.47952
593.668,28.8927,-2.76415,-0.29346,0.47931
594.268,28.9117,-2.76531,-0.2932,0.4791
594.868,28.9307,-2.76552,-0.28974,0.47889
595.468,28.9497,-2.76552,-0.29537,0.47868
596.068,28.96867,-2.76604,-0.29559,0.47846
596.668,28.9876,-2.76807,-0.29937,0.47825
597.268,29.0066,-2.76813,-0.29966,0.47804
597.868,29.0256,-2.76814,-0.30342,0.47783
598.468,29.0445,-2.76814,-0.30788,0.47762
599.068,29.0635,-2.76814,-0.30788,0.4774
599.668,29.08253,-2.76809,-0.31066,0.47719
600.268,29.1015,-2.76924,-0.31047,0.47698
600.868,29.1205,-2.76946,-0.31694,0.47677
601.468,29.1395,-2.76946,-0.31876,0.47656
602.068,29.1585,-2.76946,-0.32035,0.47635
602.668,29.1775,-2.76946,-0.31943,0.47614
603.268,29.1965,-2.76946,-0.32037,0.47592
603.868,29.2156,-2.76946,-0.32169,0.47571
604.468,29.2347,-2.76946,-0.3232,0.4755
605.068,29.2537,-2.76946,-0.32383,0.47529
605.668,29.2728,-2.76946,-0.32492,0.47508
606.268,29.2919,-2.76946,-0.3252,0.47487
606.868,29.3109,-2.76946,-0.32988,0.47466
607.468,29.3299,-2.76946,-0.32587,0.47445
608.068,29.34899,-2.7708,-0.32695,0.47424
608.668,29.36805,-2.77219,-0.32994,0.47403
609.268,29.3871,-2.77212,-0.33286,0.47382
609.868,29.4061,-2.77349,-0.33194,0.47361
610.468,29.42525,-2.77361,-0.32915,0.4734
611.068,29.4443,-2.77229,-0.32859,0.47319
611.668,29.46345,-2.7722,-0.32642,0.47298
612.268,29.4826,-2.7722,-0.32527,0.47277
612.868,29.50168,-2.77269,-0.3262,0.47256
613.468,29.52075,-2.77351,-0.33011,0.47235
614.068,29.5399,-2.77352,-0.33079,0.47214
614.668,29.5589,-2.77352,-0.33171,0.47193
615.268,29.578,-2.77359,-0.32917,0.47172
615.868,29.5971,-2.77214,-0.33331,0.47151
616.468,29.6163,-2.77209,-0.33249,0.4713
617.068,29.63543,-2.77208,-0.33713,0.47109
617.668,29.6546,-2.77194,-0.33494,0.47088
618.268,29.67372,-2.77249,-0.33544,0.47067
618.868,29.69274,-2.77307,-0.33968,0.47046
619.468,29.71183,-2.77309,-0.3439,0.47025
620.068,29.73098,-2.77309,-0.34679,0.47004
620.668,29.75018,-2.77309,-0.35153,0.46984
621.268,29.7693,-2.77309,-0.35399,0.46963
621.868,29.7886,-2.77309,-0.35476,0.46942
622.468,29.8078,-2.77305,-0.3556,0.46921
623.068,29.82703,-2.77427,-0.35826,0.469
623.668,29.8462,-2.77439,-0.35971,0.46879
624.268,29.86538,-2.7744,-0.36362,0.46859
624.868,29.88448,-2.7744,-0.36558,0.46838
625.468,29.90367,-2.7744,-0.36397,0.46817
626.068,29.92281,-2.7744,-0.36565,0.46796
626.668,29.942,-2.7744,-0.36583,0.46775
627.268,29.9612,-2.7744,-0.36656,0.46755
627.868,29.9804,-2.7744,-0.37644,0.46734
628.468,29.9996,-2.7744,-0.37277,0.46713
629.068,30.0189,-2.77441,-0.37562,0.46692
629.668,30.03815,-2.77521,-0.37564,0.46672
630.268,30.05739,-2.77572,-0.3826,0.46651
630.868,30.07664,-2.77571,-0.38377,0.4663
631.468,30.09586,-2.77561,-0.38392,0.46609
632.068,30.1151,-2.77681,-0.38452,0.46589
632.668,30.1343,-2.77672,-0.39,0.46568
633.268,30.15356,-2.77671,-0.3853,0.46547
633.868,30.1727,-2.77671,-0.38132,0.46527
634.468,30.1919,-2.7767,-0.38203,0.46506
635.068,30.21118,-2.77707,-0.3826,0.46485
635.668,30.23043,-2.77707,-0.38113,0.46465
636.268,30.24969,-2.77835,-0.37923,0.46444
636.868,30.269,-2.77835,-0.38283,0.46423
637.468,30.2883,-2.77836,-0.38767,0.46403
638.068,30.30763,-2.77847,-0.38411,0.46382
638.668,30.32695,-2.77611,-0.38299,0.46362
639.268,30.34625,-2.77069,-0.39058,0.46341
639.868,30.36553,-2.7686,-0.39578,0.4632
640.468,30.38482,-2.77365,-0.39917,0.463
641.068,30.404,-2.78291,-0.40071,0.46279
641.668,30.42323,-2.7875,-0.40753,0.46259
642.268,30.4425,-2.78488,-0.40914,0.46238
642.868,30.4619,-2.78244,-0.41602,0.46218
643.468,30.4812,-2.78085,-0.41875,0.46197
644.068,30.50055,-2.77973,-0.42097,0.46177
644.668,30.51987,-2.77934,-0.42298,0.46156
645.268,30.53916,-2.77934,-0.42087,0.46136
645.868,30.55844,-2.77934,-0.42193,0.46115
646.468,30.5778,-2.77934,-0.42688,0.46095
647.068,30.5971,-2.77934,-0.43215,0.46074
647.668,30.61648,-2.77946,-0.43298,0.46054
648.268,30.63581,-2.78074,-0.4319,0.46034
648.868,30.6552,-2.78067,-0.44002,0.46013
649.468,30.6745,-2.78066,-0.44516,0.45993
650.068,30.6939,-2.78065,-0.44617,0.45972
650.668,30.71332,-2.78048,-0.44824,0.45952
651.268,30.73269,-2.77799,-0.45002,0.45932
651.868,30.75207,-2.7739,-0.45016,0.45911
652.468,30.7714,-2.77306,-0.45909,0.45891
653.068,30.7907,-2.78026,-0.46353,0.4587
653.668,30.81015,-2.78772,-0.46536,0.4585
654.268,30.82953,-2.78907,-0.46208,0.4583
654.868,30.849,-2.78538,-0.46311,0.45809
655.468,30.86843,-2.78297,-0.46141,0.45789
656.068,30.8879,-2.78182,-0.4678,0.45769
656.668,30.90724,-2.78186,-0.46476,0.45749
657.268,30.92665,-2.78185,-0.46129,0.45728
657.868,30.94605,-2.78283,-0.47221,0.45708
658.468,30.96542,-2.78316,-0.47644,0.45688
659.068,30.9848,-2.78317,-0.47933,0.45668
659.668,31.0042,-2.78297,-0.48134,0.45647
660.268,31.02376,-2.78181,-0.48509,0.45627
660.868,31.04321,-2.78182,-0.48777,0.45607
661.468,31.0627,-2.78274,-0.49256,0.45587
662.068,31.0822,-2.78317,-0.49338,0.45566
662.668,31.1017,-2.78318,-0.49747,0.45546
663.268,31.1211,-2.78318,-0.49668,0.45526
663.868,31.1406,-2.78318,-0.50658,0.45506
664.468,31.1601,-2.78318,-0.50666,0.45486
665.068,31.17962,-2.78318,-0.50833,0.45466
665.668,31.19909,-2.7829,-0.51517,0.45446
666.268,31.21858,-2.78217,-0.51617,0.45425
666.868,31.2381,-2.78219,-0.51975,0.45405
667.468,31.25755,-2.78218,-0.52732,0.45385
668.068,31.27709,-2.78328,-0.53196,0.45365
668.668,31.2966,-2.78352,-0.53536,0.45345
669.268,31.31612,-2.78409,-0.53601,0.45325
669.868,31.33568,-2.78483,-0.53857,0.45305
670.468,31.35517,-2.78482,-0.53408,0.45285
671.068,31.3747,-2.78482,-0.53046,0.45265
671.668,31.39416,-2.78482,-0.53756,0.45245
672.268,31.4136,-2.78478,-0.53759,0.45225
672.868,31.43314,-2.78575,-0.53787,0.45205
673.468,31.4527,-2.78788,-0.54151,0.45185
674.068,31.47219,-2.79242,-0.5439,0.45165
674.668,31.49176,-2.79385,-0.54741,0.45145
675.268,31.51134,-2.78938,-0.54975,0.45125
675.868,31.5309,-2.78199,-0.54649,0.45105
676.468,31.55041,-2.77898,-0.53826,0.45085
677.068,31.5699,-2.78141,-0.53129,0.45065
677.668,31.5894,-2.78323,-0.53258,0.45046
678.268,31.609,-2.78495,-0.53553,0.45026
678.868,31.62858,-2.78627,-0.53263,0.45006
679.468,31.6481,-2.78625,-0.539,0.44986
680.068,31.66765,-2.78625,-0.54755,0.44966
680.668,31.68719,-2.78625,-0.54847,0.44946
681.268,31.7067,-2.78626,-0.55808,0.44926
681.868,31.7263,-2.78656,-0.56097,0.44907
682.468,31.7459,-2.78871,-0.57374,0.44887
683.068,31.76545,-2.78884,-0.5793,0.44867
683.668,31.785,-2.78841,-0.57062,0.44847
684.268,31.8046,-2.78755,-0.57879,0.44827
684.868,31.82416,-2.78756,-0.58676,0.44808
685.468,31.8437,-2.78755,-0.59368,0.44788
686.068,31.8634,-2.78823,-0.59256,0.44768
686.668,31.88294,-2.78885,-0.60044,0.44749
687.268,31.9025,-2.78889,-0.60224,0.44729
687.868,31.92213,-2.78804,-0.60278,0.44709
688.468,31.94175,-2.78757,-0.6025,0.44689
689.068,31.9614,-2.78758,-0.60267,0.4467
689.668,31.98108,-2.78691,-0.60421,0.4465
690.268,32.00071,-2.78789,-0.61037,0.44631
690.868,32.02042,-2.78789,-0.61352,0.44611
691.468,32.04009,-2.78789,-0.61398,0.44591
692.068,32.0597,-2.78789,-0.61972,0.44572
692.668,32.07935,-2.78785,-0.62256,0.44552
693.268,32.099,-2.7889,-0.61489,0.44532
693.868,32.11861,-2.78888,-0.61389,0.44513
694.468,32.13824,-2.78888,-0.6119,0.44493
695.068,32.1579,-2.78888,-0.60948,0.44474
695.668,32.17757,-2.78887,-0.61319,0.44454
696.268,32.19717,-2.7888,-0.62094,0.44435
696.868,32.21686,-2.79041,-0.62016,0.44415
697.468,32.23648,-2.79052,-0.61934,0.44396
698.068,32.2562,-2.79053,-0.61941,0.44376
698.668,32.2759,-2.79053,-0.62034,0.44357
699.268,32.29562,-2.79053,-0.61961,0.44337
699.868,32.31528,-2.79053,-0.62248,0.44318
700.468,32.33494,-2.79059,-0.62679,0.44298
701.068,32.35461,-2.79193,-0.63098,0.44279
701.668,32.37426,-2.79185,-0.63372,0.4426
702.268,32.394,-2.79184,-0.63781,0.4424
702.868,32.41372,-2.79188,-0.63903,0.44221
703.468,32.4334,-2.7909,-0.63788,0.44201
704.068,32.45304,-2.79054,-0.6373,0.44182
704.668,32.4727,-2.79052,-0.63292,0.44163
705.268,32.49239,-2.79035,-0.6347,0.44143
705.868,32.51205,-2.7892,-0.63137,0.44124
706.468,32.53175,-2.78922,-0.63428,0.44105
707.068,32.5514,-2.78927,-0.63323,0.44085
707.668,32.5711,-2.78985,-0.63273,0.44066
708.268,32.5907,-2.78986,-0.64132,0.44047
708.868,32.61032,-2.78986,-0.64553,0.44028
709.468,32.63007,-2.78986,-0.64959,0.44008
710.068,32.64978,-2.78986,-0.64783,0.43989
710.668,32.6695,-2.78983,-0.65471,0.4397
711.268,32.68926,-2.7914,-0.6514,0.43951
711.868,32.70899,-2.79239,-0.65497,0.43931
712.468,32.72868,-2.79293,-0.65491,0.43912
713.068,32.74839,-2.79293,-0.65673,0.43893
713.668,32.76806,-2.79294,-0.6505,0.43874
714.268,32.78776,-2.79301,-0.6528,0.43855
714.868,32.80746,-2.79164,-0.6484,0.43836
715.468,32.8271,-2.79161,-0.65126,0.43817
716.068,32.84686,-2.79153,-0.65474,0.43797
716.668,32.86654,-2.79291,-0.65575,0.43778
717.268,32.88627,-2.79294,-0.65267,0.43759
717.868,32.90605,-2.79294,-0.64924,0.4374
718.468,32.92575,-2.79294,-0.65248,0.43721
719.068,32.94553,-2.79294,-0.65759,0.43702
719.668,32.96528,-2.79301,-0.65849,0.43683
720.268,32.98499,-2.79435,-0.66707,0.43664
720.868,33.00475,-2.79427,-0.67146,0.43645
721.468,33.02453,-2.79426,-0.66394,0.43626
722.068,33.04423,-2.79426,-0.66559,0.43607
722.668,33.064,-2.79499,-0.66884,0.43588
723.268,33.0837,-2.79554,-0.66281,0.43569
723.868,33.10341,-2.79557,-0.66088,0.4355
724.468,33.12314,-2.79557,-0.65608,0.43531
725.068,33.1429,-2.79557,-0.65161,0.43512
725.668,33.1627,-2.79557,-0.6423,0.43493
726.268,33.18242,-2.79557,-0.64342,0.43474
726.868,33.20219,-2.79556,-0.63975,0.43456
727.468,33.22197,-2.79549,-0.63757,0.43437
728.068,33.24177,-2.79422,-0.63298,0.43418
728.668,33.2615,-2.79427,-0.63299,0.43399
729.268,33.28131,-2.79437,-0.63517,0.4338
729.868,33.30193,-2.79476,-0.634,0.43361
730.468,33.32261,-2.79426,-0.62753,0.43343
730.768,33.33197,-2.79425,-0.62939,0.43333