File: 01_Data/Oak_HWF/Cone/Oak_Flooring_Cone_HF50Scan_220526_R2.csv
Names,Time,Stack TC,Smoke TC,Exh Press,Smoke Comp,Smoke Meas,CO Meter,CO2 Meter,O2 Meter,Sample Mass,Ext Coeff,Start Test,Flame Verif
Chan Gain,,500,500,1,1,1,1,1,1,1,1,1.0,1.0
Offset,,0,0,0.138731,0,0,0,0,0,0,0,0.0,0.0
Gain,,1,1,25.011,13.8491,15.2622,1,1,1,1.00087,1.03118,1.0,1.0
Units,sec,C,C,Pa,%,%,%,%,%,g,/m,,
Baseline,,39.4162,40.94,140.268,104.56,105.039,0.00110028,0.0456002,21.0019,-451.917,-0.0412755,,
14,3.25,36.4897,37.9247,141.089,105.591,106.463,0.000805613,0.0476824,21.0021,187.133,-0.0743933,0.0,0.0
28,6.75,36.3514,37.6454,139.469,105.663,105.761,0.000617592,0.0472085,21.002,187.013,-0.0084066,0.0,0.0
42,10.25,35.9928,37.7843,139.396,105.754,105.92,0.00069818,0.0466855,21.002,187.043,-0.0142443,0.0,0.0
56,13.75,36.0545,37.8155,140.866,105.766,105.503,0.00069435,0.0464941,21.0037,186.863,0.0225139,0.0,0.0
70,17.25,35.6055,36.9727,140.627,105.784,104.894,0.00096628,0.0468507,21.0042,186.883,0.076415,0.0,0.0
84,20.75,35.6842,36.7314,141.218,105.762,104.694,0.0015031,0.0481797,21.0029,186.733,0.0918234,0.0,0.0
98,24.25,35.5587,37.1182,139.408,105.709,104.32,0.00236334,0.0539959,20.9951,186.552,0.119599,0.0,0.0
112,27.75,36.2987,37.4865,134.652,105.63,94.3868,0.00597255,0.121774,20.8839,186.302,1.01803,0.0,1.0
126,31.25,37.7278,36.7535,121.939,105.512,89.6448,0.0119994,0.332779,20.6331,185.552,1.47418,0.0,1.0
140,34.75,41.9669,40.8127,116.005,105.406,79.8619,0.0195637,0.562585,20.4013,184.711,2.51027,0.0,0.0
154,38.25,47.6389,45.1396,110.17,105.269,80.6304,0.0250191,0.798099,20.0488,183.62,2.41192,0.0,0.0
168,41.75,54.4504,51.0472,105.298,105.146,83.0109,0.0241941,0.891662,19.9378,182.839,2.13812,0.0,0.0
182,45.25,58.5418,55.4046,113.017,105.016,88.0812,0.0210302,0.837093,20.0013,181.918,1.59067,0.0,0.0
196,48.75,61.7498,59.3462,119.843,104.945,91.2619,0.0173935,0.744365,20.1368,181.288,1.26367,0.0,0.0
210,52.25,63.6983,61.6619,117.637,104.924,96.8809,0.0137407,0.661195,20.2494,180.537,0.721425,0.0,0.0
224,55.75,64.4854,63.6384,121.151,105.133,101.731,0.0105894,0.588346,20.3391,179.887,0.297468,0.0,0.0
238,59.25,64.9727,65.102,121.378,105.279,102.315,0.00845811,0.527854,20.4266,179.386,0.258339,0.0,0.0
252,62.75,65.4365,65.7363,128.417,105.365,104.977,0.00710956,0.475717,20.4997,178.746,0.0333465,0.0,0.0
266,66.25,65.1449,66.081,125.273,105.431,104.99,0.00628252,0.43845,20.5441,178.345,0.0379134,0.0,0.0
280,69.75,65.2396,66.6283,125.269,105.446,106.282,0.00567607,0.409891,20.582,177.765,-0.0714528,0.0,0.0
294,73.25,65.4343,67.1049,128.3,105.432,106.409,0.00536535,0.388132,20.61,177.394,-0.0834222,0.0,0.0
308,76.75,64.6543,67.22,126.857,105.381,106.16,0.00532282,0.374614,20.6272,176.864,-0.0666068,0.0,0.0
322,80.25,64.7037,66.9565,127.136,105.333,105.778,0.00494658,0.367388,20.6368,176.504,-0.0381055,0.0,0.0
336,83.75,63.9685,67.5191,129.126,105.272,106.53,0.0048118,0.360024,20.6445,176.003,-0.107503,0.0,0.0
350,87.25,63.8558,67.3713,126.927,105.197,106.081,0.00494932,0.35524,20.6509,175.653,-0.0756888,0.0,0.0
364,90.75,63.6132,67.2758,128.211,105.094,106.481,0.0046896,0.348916,20.6577,175.142,-0.118575,0.0,0.0
378,94.25,63.3036,67.0829,128.409,104.972,106.704,0.00436162,0.344435,20.6636,174.712,-0.148102,0.0,0.0
392,97.75,63.3372,67.1486,126.247,104.815,105.96,0.00444887,0.337053,20.6724,174.372,-0.0982722,0.0,0.0
406,101.25,63.1165,66.9224,123.845,104.62,106.075,0.00460109,0.330556,20.6803,173.901,-0.124954,0.0,0.0
420,104.75,62.9399,67.4864,128.739,104.523,105.342,0.00483963,0.323249,20.6868,173.621,-0.0705894,0.0,0.0
434,108.25,62.7455,66.2992,133.018,104.52,105.916,0.00487367,0.314828,20.6955,173.121,-0.119989,0.0,0.0
448,111.75,61.7682,66.474,129.54,104.587,105.555,0.00474462,0.309006,20.7031,172.81,-0.0832948,0.0,0.0
462,115.25,61.8068,65.7161,130.116,104.633,105.476,0.00473029,0.302116,20.71,172.39,-0.072636,0.0,0.0
476,118.75,61.2785,65.9808,127.792,104.707,106.233,0.00471685,0.296365,20.7167,172.05,-0.130887,0.0,0.0
490,122.25,61.3678,65.7394,132.171,104.759,106.452,0.00473373,0.290533,20.7244,171.649,-0.144978,0.0,0.0
504,125.75,60.8084,65.7129,128.55,104.802,106.551,0.00451612,0.285993,20.7299,171.339,-0.149644,0.0,0.0
518,129.25,60.0185,65.532,130.36,104.86,105.865,0.00434664,0.2829,20.7333,170.999,-0.0862157,0.0,0.0
532,132.75,60.0813,65.1007,123.177,104.899,106.959,0.00439525,0.276288,20.7407,170.589,-0.175904,0.0,0.0
546,136.25,59.4162,64.8604,129.223,104.97,107.282,0.00442505,0.270405,20.748,170.318,-0.197115,0.0,0.0
560,139.75,58.532,64.793,128.578,105.002,106.583,0.00441517,0.269092,20.7498,169.948,-0.13517,0.0,0.0
574,143.25,58.9044,64.2176,129.634,105.045,106.49,0.00445784,0.267036,20.7518,169.688,-0.123587,0.0,0.0
588,146.75,59.1053,63.7709,129.969,105.065,107.637,0.0045815,0.265441,20.7537,169.297,-0.218723,0.0,0.0
602,150.25,58.8219,63.3941,127.948,105.075,106.918,0.00462143,0.263666,20.7556,169.027,-0.157326,0.0,0.0
616,153.75,58.3365,63.2878,130.555,105.048,107.377,0.00449036,0.261849,20.7584,168.637,-0.198424,0.0,0.0
630,157.25,58.0128,62.8532,130.732,105.03,106.909,0.00455423,0.260265,20.7614,168.397,-0.160434,0.0,0.0
644,160.75,58.2233,63.3795,130.307,104.977,106.848,0.00455584,0.259785,20.7622,168.006,-0.159858,0.0,0.0
658,164.25,57.6356,62.6271,124.9,104.937,106.576,0.00439731,0.260534,20.7608,167.706,-0.140149,0.0,0.0
672,167.75,57.1082,62.4219,132.802,104.854,106.384,0.00416401,0.259765,20.7605,167.386,-0.13103,0.0,0.0
686,171.25,57.2218,61.9154,129.571,104.75,107.029,0.00412183,0.259479,20.7604,166.965,-0.194685,0.0,0.0
700,174.75,57.0551,62.0714,131.5,104.649,106.755,0.00413745,0.259365,20.7614,166.735,-0.180273,0.0,0.0
714,178.25,57.0434,61.945,133.057,104.531,106.466,0.00399738,0.259786,20.7637,166.215,-0.165893,0.0,0.0
728,181.75,57.1528,61.8421,135.164,104.46,106.326,0.00404,0.259377,20.7642,166.055,-0.160157,0.0,0.0
742,185.25,56.6805,61.3696,127.653,104.371,106.615,0.0042996,0.258513,20.7643,165.684,-0.192495,0.0,0.0
756,188.75,56.9804,61.9029,130.19,104.321,106.666,0.0043712,0.258103,20.7655,165.434,-0.201088,0.0,0.0
770,192.25,57.3825,61.8772,129.374,104.209,105.723,0.00439005,0.256397,20.7664,165.054,-0.130427,0.0,0.0
784,195.75,56.7688,61.3297,131.376,104.143,106.231,0.00411511,0.256937,20.7666,164.763,-0.17956,0.0,0.0
798,199.25,56.4386,61.3597,134.575,104.059,105.427,0.00413527,0.254706,20.7664,164.393,-0.118156,0.0,0.0
812,202.75,56.4595,60.7544,134.156,103.978,106.305,0.00402525,0.251244,20.7681,164.013,-0.200192,0.0,0.0
826,206.25,56.28,60.8832,131.489,103.887,105.916,0.00405636,0.252405,20.7688,163.813,-0.17491,0.0,0.0
840,209.75,56.3704,60.6834,132.737,103.844,105.617,0.00407637,0.251783,20.769,163.422,-0.153131,0.0,0.0
854,213.25,56.5219,60.9758,132.202,103.778,105.512,0.00412468,0.250412,20.7712,163.202,-0.149853,0.0,0.0
868,216.75,56.0423,60.5284,130.326,103.72,106.041,0.00420798,0.249702,20.7732,162.862,-0.200112,0.0,0.0
882,220.25,56.2599,60.1742,129.11,103.698,106.06,0.00430584,0.247269,20.7738,162.501,-0.203771,0.0,0.0
896,223.75,56.2424,59.8871,130.549,103.686,105.944,0.00433701,0.246136,20.7755,162.181,-0.194906,0.0,0.0
910,227.25,56.0893,60.0716,128.358,103.692,105.889,0.00425124,0.245562,20.7759,161.961,-0.18966,0.0,0.0
924,230.75,55.8852,60.0242,131.143,103.712,105.501,0.00406735,0.244296,20.7774,161.551,-0.15476,0.0,0.0
938,234.25,55.854,59.9726,135.571,103.732,105.601,0.0040351,0.243675,20.7786,161.33,-0.161497,0.0,0.0
952,237.75,55.7614,59.3037,132.469,103.77,105.845,0.00425462,0.242379,20.7785,160.97,-0.179059,0.0,0.0
966,241.25,55.5264,59.5586,128.872,103.803,106.268,0.00428121,0.243213,20.7773,160.67,-0.212295,0.0,0.0
980,244.75,55.6568,59.1965,127.082,103.849,106.124,0.00428302,0.24319,20.7781,160.42,-0.196062,0.0,0.0
994,248.25,55.6597,59.4942,129.591,103.898,105.633,0.00462862,0.242099,20.7798,160.059,-0.14981,0.0,0.0
1008,251.75,55.5513,59.3522,131.165,103.988,105.875,0.00463522,0.241381,20.7802,159.859,-0.162692,0.0,0.0
1022,255.25,55.4851,59.3599,129.816,104.058,106.035,0.00440012,0.242462,20.7786,159.429,-0.170269,0.0,0.0
1036,258.75,55.551,59.3903,131.962,104.199,106.765,0.00424791,0.242395,20.7792,159.249,-0.220131,0.0,0.0
1050,262.25,55.5441,59.0576,130.129,104.322,106.815,0.00412682,0.241673,20.7817,158.868,-0.213646,0.0,0.0
1064,265.75,55.3873,59.2151,125.707,104.489,106.407,0.00423729,0.241362,20.7824,158.668,-0.164524,0.0,0.0
1078,269.25,55.652,59.3719,132.651,104.625,106.736,0.00445738,0.239627,20.7826,158.258,-0.180698,0.0,0.0
1092,272.75,55.1669,59.0086,132.563,104.748,107.26,0.00453235,0.239539,20.7827,158.008,-0.214331,0.0,0.0
1106,276.25,54.8302,58.9158,135.165,104.891,106.886,0.00426657,0.237928,20.783,157.647,-0.170371,0.0,0.0
1120,279.75,55.2344,58.8164,126.826,105.037,107.259,0.004064,0.236469,20.7839,157.377,-0.189363,0.0,0.0
1134,283.25,55.3076,58.8822,130.025,105.173,107.427,0.00400093,0.237316,20.7841,157.127,-0.191819,0.0,0.0
1148,286.75,54.9191,58.5578,131.786,105.28,107.752,0.00415836,0.237025,20.7833,156.746,-0.209957,0.0,0.0
1162,290.25,55.2061,58.7248,130.328,105.411,108.046,0.00442191,0.238528,20.7833,156.566,-0.223309,0.0,0.0
1176,293.75,55.1174,58.4829,132.115,105.507,107.554,0.00439402,0.237349,20.7843,156.146,-0.173845,0.0,0.0
1190,297.25,55.516,58.5991,132.665,105.607,107.504,0.00424299,0.235914,20.7862,155.976,-0.160995,0.0,0.0
1204,300.75,55.348,58.495,131.43,105.669,107.859,0.00426055,0.234697,20.7887,155.585,-0.185564,0.0,0.0
1218,304.25,54.6441,58.1814,132.921,105.734,107.981,0.00431607,0.232583,20.79,155.335,-0.190182,0.0,0.0
1232,307.75,54.5033,57.9273,130.564,105.75,107.845,0.00414649,0.23165,20.7908,155.055,-0.177444,0.0,0.0
1246,311.25,54.3566,57.676,133.127,105.756,107.927,0.00413679,0.232255,20.79,154.755,-0.183739,0.0,0.0
1260,314.75,54.6274,58.1086,133.009,105.749,107.805,0.00431593,0.2317,20.7896,154.434,-0.174157,0.0,0.0
1274,318.25,54.2258,57.9054,127.332,105.693,108.206,0.00436429,0.231903,20.7893,154.144,-0.212558,0.0,0.0
1288,321.75,54.3028,58.0413,127.863,105.654,108.001,0.00430023,0.231221,20.7903,153.924,-0.198733,0.0,0.0
1302,325.25,54.4778,58.1097,134.544,105.589,107.904,0.00425597,0.232052,20.7893,153.594,-0.196227,0.0,0.0
1316,328.75,54.4778,58.2837,129.833,105.533,107.673,0.00428501,0.229367,20.7904,153.374,-0.181546,0.0,0.0
1330,332.25,54.6352,57.7742,131.697,105.451,107.328,0.00425675,0.228903,20.791,152.973,-0.159573,0.0,0.0
1344,335.75,53.6966,57.5056,130.284,105.369,107.998,0.00439867,0.228848,20.7929,152.723,-0.222883,0.0,0.0
1358,339.25,54.1643,57.3469,131.535,105.261,107.975,0.00424426,0.228421,20.7952,152.393,-0.230267,0.0,0.0
1372,342.75,54.0792,57.936,133.802,105.204,107.913,0.00421755,0.227055,20.7959,152.192,-0.230053,0.0,0.0
1386,346.25,54.2645,57.3511,129.029,105.116,107.624,0.0042774,0.228019,20.796,151.822,-0.213263,0.0,0.0
1400,349.75,54.3251,57.472,134.649,105.039,107.019,0.0043421,0.228015,20.796,151.582,-0.168926,0.0,0.0
1414,353.25,53.9556,57.562,130.895,104.975,107.321,0.00480468,0.22721,20.796,151.262,-0.199937,0.0,0.0
1428,356.75,54.0487,57.5223,126.126,104.9,106.573,0.00460301,0.225426,20.7967,150.971,-0.143195,0.0,0.0
1442,360.25,54.0078,57.17,134.509,104.926,106.868,0.00440592,0.22429,20.7998,150.711,-0.165849,0.0,0.0
1456,363.75,53.9571,57.0604,132.964,105.052,107.029,0.0043773,0.224869,20.8007,150.341,-0.168667,0.0,0.0
1470,367.25,54.4293,57.5008,128.317,105.193,107.89,0.00447962,0.224819,20.8009,150.181,-0.228934,0.0,0.0
1484,370.75,53.727,56.6965,130.596,105.277,107.506,0.00430097,0.224208,20.801,149.79,-0.189543,0.0,0.0
1498,374.25,53.772,57.3774,132.021,105.361,107.505,0.00417185,0.223674,20.7995,149.58,-0.18228,0.0,0.0
1512,377.75,53.3781,57.3458,132.356,105.388,107.602,0.00441279,0.223545,20.8006,149.25,-0.188067,0.0,0.0
1526,381.25,54.1537,57.0604,137.222,105.438,107.472,0.00459195,0.22357,20.8009,149.04,-0.172857,0.0,0.0
1540,384.75,54.0462,56.7671,135.26,105.447,107.739,0.00447528,0.222594,20.8025,148.679,-0.194497,0.0,0.0
1554,388.25,53.9962,57.2883,130.222,105.453,107.671,0.00428871,0.221098,20.8054,148.469,-0.188239,0.0,0.0
1568,391.75,53.7824,56.7797,134.297,105.43,106.952,0.00413404,0.219657,20.8074,148.149,-0.129615,0.0,0.0
1582,395.25,53.6371,56.4666,134.224,105.394,107.867,0.00401804,0.218815,20.809,147.859,-0.20985,0.0,0.0
1596,398.75,53.9425,56.832,133.138,105.357,107.764,0.00409658,0.218246,20.8107,147.588,-0.204292,0.0,0.0
1610,402.25,53.4182,57.5468,131.158,105.305,107.575,0.00398063,0.219271,20.8095,147.258,-0.192945,0.0,0.0
1624,405.75,53.8278,56.8783,131.247,105.224,107.505,0.00399807,0.219676,20.8067,147.058,-0.194008,0.0,0.0
1638,409.25,53.6061,56.6822,131.741,105.122,107.467,0.00417697,0.219065,20.807,146.708,-0.199515,0.0,0.0
1652,412.75,53.4235,56.5619,129.709,105.028,107.675,0.00417595,0.218983,20.8073,146.518,-0.225135,0.0,0.0
1666,416.25,53.7969,56.7485,133.199,104.872,107.074,0.00399947,0.219003,20.8073,146.167,-0.187998,0.0,0.0
1680,419.75,53.5734,55.8138,132.266,104.735,106.777,0.0038982,0.218584,20.8073,145.947,-0.174638,0.0,0.0
1694,423.25,53.1507,56.1714,134.547,104.588,106.272,0.00390406,0.219095,20.8076,145.587,-0.144477,0.0,0.0
1708,426.75,53.5443,56.275,133.176,104.54,107.126,0.00399198,0.219846,20.8073,145.387,-0.221101,0.0,0.0
1722,430.25,53.3748,56.2978,132.019,104.561,106.941,0.00396723,0.219562,20.8068,145.076,-0.203647,0.0,0.0
1736,433.75,53.1694,56.6376,134.864,104.589,107.413,0.00383017,0.219607,20.8048,144.786,-0.241055,0.0,0.0
1750,437.25,53.3565,56.5483,127.878,104.618,106.986,0.00381857,0.220238,20.8052,144.556,-0.202493,0.0,0.0
1764,440.75,53.596,56.6353,130.554,104.672,106.575,0.00383746,0.220734,20.8047,144.165,-0.16298,0.0,0.0
1778,444.25,53.4631,56.5778,130.529,104.737,106.666,0.00389539,0.220277,20.8043,144.015,-0.165097,0.0,0.0
1792,447.75,53.5547,56.303,132.366,104.745,106.621,0.00386961,0.220292,20.8048,143.645,-0.160614,0.0,0.0
1806,451.25,53.5505,55.8278,132.237,104.804,107.613,0.00352973,0.222855,20.8037,143.455,-0.239242,0.0,0.0
1820,454.75,53.7197,56.4205,132.362,104.826,107.008,0.00360587,0.223727,20.8034,143.105,-0.186308,0.0,0.0
1834,458.25,53.9183,56.4993,135.533,104.879,107.579,0.00379915,0.224135,20.8034,142.874,-0.229929,0.0,0.0
1848,461.75,53.6481,56.4377,133.789,104.897,107.659,0.00343204,0.224405,20.8011,142.514,-0.235057,0.0,0.0
1862,465.25,53.7651,56.6844,134.174,104.913,106.871,0.00306995,0.226021,20.7992,142.314,-0.167214,0.0,0.0
1876,468.75,54.1468,56.9002,131.323,104.955,107.529,0.00325714,0.226879,20.7988,142.014,-0.219177,0.0,0.0
1890,472.25,53.7937,56.6451,132.896,104.966,107.482,0.0031361,0.229061,20.7964,141.723,-0.214199,0.0,0.0
1904,475.75,53.8279,56.4959,130.593,105.006,107.407,0.00315333,0.228935,20.7948,141.483,-0.204538,0.0,0.0
1918,479.25,53.825,56.6556,137.399,105.009,107.265,0.00337173,0.229105,20.7945,141.083,-0.192276,0.0,0.0
1932,482.75,53.8265,56.6717,131.097,105.044,107.571,0.00338748,0.230562,20.7925,140.883,-0.215023,0.0,0.0
1946,486.25,53.8907,56.5571,129.788,105.013,107.63,0.00328837,0.232926,20.7903,140.562,-0.222614,0.0,0.0
1960,489.75,54.0223,57.1389,128.668,105.036,107.433,0.00326719,0.23254,20.7898,140.312,-0.204075,0.0,0.0
1974,493.25,54.3229,56.8619,128.01,105.001,107.055,0.00305115,0.233833,20.7883,139.952,-0.175233,0.0,0.0
1988,496.75,54.3005,56.5929,128.188,104.995,107.798,0.00291204,0.235308,20.786,139.772,-0.238296,0.0,0.0
2002,500.25,54.4749,56.8986,128.445,104.968,107.149,0.00293183,0.234062,20.7875,139.391,-0.186022,0.0,0.0
2016,503.75,54.1291,57.3709,132.145,104.954,107.305,0.00311724,0.235299,20.7883,139.191,-0.200424,0.0,0.0
2030,507.25,54.226,57.2492,132.731,104.891,107.052,0.0033539,0.23382,20.79,138.811,-0.184468,0.0,0.0
2044,510.75,54.0379,56.7147,131.896,104.836,106.213,0.00357747,0.233207,20.79,138.491,-0.11809,0.0,0.0
2058,514.25,54.1145,57.0877,133.141,104.786,106.389,0.0035427,0.234849,20.79,138.26,-0.137335,0.0,0.0
2072,517.75,54.1634,57.2989,132.382,104.73,107.152,0.00347158,0.236504,20.789,137.9,-0.206862,0.0,0.0
2086,521.25,54.7019,57.1223,133.205,104.672,106.91,0.00344389,0.236096,20.7887,137.71,-0.19132,0.0,0.0
2100,524.75,54.5964,57.2486,134.794,104.588,106.649,0.00352821,0.236355,20.7891,137.33,-0.176532,0.0,0.0
2114,528.25,54.5217,57.1298,130.622,104.541,106.195,0.0035087,0.235599,20.7889,137.129,-0.141956,0.0,0.0
2128,531.75,54.2056,57.1477,135.504,104.455,106.544,0.00344493,0.235247,20.7887,136.759,-0.179085,0.0,0.0
2142,535.25,54.7749,57.4446,132.076,104.412,106.574,0.00345222,0.236634,20.787,136.499,-0.185389,0.0,0.0
2156,538.75,55.127,57.2827,135.071,104.389,106.15,0.00325628,0.238714,20.7859,136.199,-0.151357,0.0,0.0
2170,542.25,54.8413,57.6009,130.054,104.374,106.696,0.00316062,0.239568,20.7841,135.908,-0.198997,0.0,0.0
2184,545.75,55.0161,57.5276,129.181,104.392,106.983,0.00341076,0.237844,20.7847,135.588,-0.221752,0.0,0.0
2198,549.25,54.7506,57.6239,132.318,104.446,106.24,0.00348707,0.237327,20.7854,135.238,-0.154032,0.0,0.0
2212,552.75,54.9926,57.38,129.908,104.529,106.463,0.00343748,0.239707,20.7839,135.058,-0.165799,0.0,0.0
2226,556.25,55.4289,57.7228,132.906,104.622,107.308,0.00337879,0.239162,20.7835,134.647,-0.229337,0.0,0.0
2240,559.75,54.9325,57.7227,132.376,104.731,107.07,0.00357171,0.239472,20.7834,134.457,-0.199866,0.0,0.0
2254,563.25,55.082,57.7644,132.902,104.804,107.374,0.00362131,0.240269,20.784,134.097,-0.219134,0.0,0.0
2268,566.75,55.3086,57.4949,128.961,104.911,106.851,0.00347996,0.239862,20.7855,133.877,-0.165705,0.0,0.0
2282,570.25,55.18,57.7782,134.704,104.976,107.168,0.00351152,0.238649,20.7876,133.486,-0.186979,0.0,0.0
2296,573.75,55.0853,57.514,132.88,105.038,107.245,0.00339618,0.24113,20.7849,133.256,-0.188072,0.0,0.0
2310,577.25,54.7742,57.4202,132.717,105.049,107.398,0.00321332,0.241684,20.7833,132.956,-0.200004,0.0,0.0
2324,580.75,55.3003,58.5997,133.214,105.078,107.16,0.00310324,0.241704,20.7826,132.635,-0.177426,0.0,0.0
2338,584.25,55.6197,58.3152,126.767,105.073,107.69,0.00298154,0.243608,20.7794,132.375,-0.22253,0.0,0.0
2352,587.75,55.6938,58.556,129.042,105.052,107.474,0.00295303,0.243895,20.7781,132.025,-0.206178,0.0,0.0
2366,591.25,56.1955,57.9445,133.062,105.001,107.81,0.00305806,0.244526,20.7775,131.785,-0.238767,0.0,0.0
2380,594.75,55.5667,58.2797,128.883,104.924,107.595,0.00306311,0.245137,20.7767,131.414,-0.227362,0.0,0.0
2394,598.25,55.768,58.1619,133.011,104.898,106.996,0.00300774,0.247168,20.7753,131.194,-0.179164,0.0,0.0
2408,601.75,55.4561,58.3814,127.588,104.824,105.944,0.00310711,0.248896,20.7737,130.814,-0.0961506,0.0,0.0
2422,605.25,55.6184,58.0346,128.423,104.784,107.261,0.00310258,0.251124,20.7698,130.604,-0.211387,0.0,0.0
2436,608.75,55.8448,58.6382,132.215,104.728,106.913,0.00302764,0.251881,20.7684,130.223,-0.186737,0.0,0.0
2450,612.25,55.5361,58.262,129.935,104.667,106.865,0.00295055,0.253909,20.7672,129.973,-0.187972,0.0,0.0
2464,615.75,55.9827,58.5918,133.285,104.636,107.029,0.00295976,0.254529,20.7662,129.693,-0.204505,0.0,0.0
2478,619.25,56.3615,58.6957,129.154,104.592,106.68,0.00273624,0.254787,20.7654,129.343,-0.17885,0.0,0.0
2492,622.75,56.541,58.6627,130.177,104.735,106.976,0.00269253,0.256803,20.764,129.072,-0.19151,0.0,0.0
2506,626.25,56.0424,59.2616,130.723,104.963,107.27,0.00274827,0.258069,20.7625,128.742,-0.196637,0.0,0.0
2520,629.75,57.0169,58.9875,131.91,105.148,107.479,0.00274873,0.259869,20.7609,128.462,-0.198316,0.0,0.0
2534,633.25,57.3705,59.5846,131.557,105.311,107.834,0.00269648,0.262664,20.7572,128.071,-0.214188,0.0,0.0
2548,636.75,57.352,60.0616,127.657,105.436,107.548,0.00265455,0.26352,20.755,127.831,-0.179429,0.0,0.0
2562,640.25,57.2572,60.3724,127.111,105.485,108.175,0.0026789,0.267039,20.7525,127.451,-0.22776,0.0,0.0
2576,643.75,57.8608,60.1629,130.399,105.49,107.824,0.0027044,0.267865,20.7507,127.211,-0.197947,0.0,0.0
2590,647.25,57.4966,60.5936,126.898,105.4,107.272,0.00278753,0.270978,20.7474,126.82,-0.159176,0.0,0.0
2604,650.75,58.5569,60.6591,126.098,105.237,107.571,0.00263025,0.272855,20.7454,126.54,-0.19844,0.0,0.0
2618,654.25,58.0618,60.5242,127.108,104.982,106.895,0.00273316,0.275248,20.7422,126.24,-0.163326,0.0,0.0
2632,657.75,58.8688,60.5774,133.398,105.007,107.239,0.00262336,0.277243,20.7412,125.86,-0.190222,0.0,0.0
2646,661.25,58.1043,60.9201,129.119,105.136,107.771,0.00271547,0.279427,20.7415,125.589,-0.223951,0.0,0.0
2660,664.75,58.1748,61.6091,127.646,105.257,107.297,0.00286839,0.28071,20.7398,125.179,-0.173601,0.0,0.0
2674,668.25,58.2902,61.421,126.521,105.417,108.004,0.00291019,0.284248,20.7354,124.889,-0.219292,0.0,0.0
2688,671.75,58.97,61.7168,129.587,105.545,108.072,0.0028943,0.287498,20.7319,124.508,-0.213967,0.0,0.0
2702,675.25,58.9585,61.4946,128.528,105.693,107.366,0.00283958,0.289992,20.7292,124.198,-0.142041,0.0,0.0
2716,678.75,58.8795,61.7794,125.416,105.767,107.879,0.00293474,0.292489,20.7262,123.818,-0.178778,0.0,0.0
2730,682.25,59.1675,62.4584,128.19,105.838,108.161,0.00300407,0.294855,20.7222,123.538,-0.196415,0.0,0.0
2744,685.75,59.6293,62.0922,128.053,105.806,108.328,0.00288311,0.297149,20.7201,123.107,-0.213059,0.0,0.0
2758,689.25,59.2254,62.438,123.548,105.722,107.767,0.00275241,0.299632,20.7169,122.817,-0.173308,0.0,0.0
2772,692.75,59.7628,62.1679,124.975,105.577,107.904,0.00274934,0.303459,20.7119,122.467,-0.197242,0.0,0.0
2786,696.25,59.7164,62.6368,128.32,105.389,107.998,0.00273124,0.30775,20.7072,122.056,-0.221253,0.0,0.0
2800,699.75,59.8943,62.7481,125.799,105.13,107.355,0.00250394,0.310334,20.7025,121.746,-0.189444,0.0,0.0
2814,703.25,60.3058,63.2002,127.227,104.806,106.893,0.00272383,0.31314,20.7004,121.276,-0.178291,0.0,0.0
2828,706.75,60.3632,63.1074,126.01,104.516,106.663,0.00273283,0.315644,20.6979,120.975,-0.183936,0.0,0.0
2842,710.25,60.913,63.2416,129.097,104.231,106.4,0.00277121,0.317778,20.6953,120.565,-0.18624,0.0,0.0
2856,713.75,60.7919,63.7265,128.02,104.013,106.423,0.00285664,0.321961,20.6907,120.245,-0.207162,0.0,0.0
2870,717.25,61.1576,64.2109,125.723,103.817,105.881,0.00303037,0.326503,20.6839,119.794,-0.178037,0.0,0.0
2884,720.75,61.1748,64.3046,124.808,103.761,105.952,0.00310142,0.329032,20.6814,119.484,-0.189019,0.0,0.0
2898,724.25,61.6703,64.5758,122.722,103.777,106.206,0.00293247,0.330762,20.6799,119.064,-0.209307,0.0,0.0
2912,727.75,62.0173,64.2843,125.132,103.86,105.977,0.00293301,0.334901,20.676,118.673,-0.182548,0.0,0.0
2926,731.25,62.4617,65.2046,125.39,104.05,105.897,0.00276728,0.337147,20.6721,118.323,-0.159159,0.0,0.0
2940,734.75,62.1474,65.2493,125.521,104.26,106.299,0.00295656,0.340035,20.6686,117.843,-0.175226,0.0,0.0
2954,738.25,62.6468,65.6657,128.922,104.494,106.521,0.00312814,0.345368,20.6617,117.502,-0.173857,0.0,0.0
2968,741.75,62.9092,65.9352,124.389,104.712,106.617,0.00288745,0.348568,20.6578,117.102,-0.163102,0.0,0.0
2982,745.25,63.3897,66.061,128.407,104.901,107.038,0.00273564,0.350388,20.6551,116.752,-0.182413,0.0,0.0
2996,748.75,63.6916,66.4771,129.553,105.007,106.699,0.00274282,0.354214,20.6529,116.361,-0.144606,0.0,0.0
3010,752.25,63.5518,67.119,125.231,105.095,107.196,0.00303198,0.35426,20.6514,115.941,-0.179109,0.0,0.0
3024,755.75,64.0727,67.0665,128.196,105.089,107.195,0.00313708,0.355616,20.6487,115.481,-0.179467,0.0,0.0
3038,759.25,64.2759,67.0007,126.401,105.026,106.915,0.00311796,0.358037,20.646,115.19,-0.161238,0.0,0.0
3052,762.75,64.9109,67.6233,130.467,104.917,106.81,0.00303079,0.360498,20.6443,114.72,-0.161724,0.0,0.0
3066,766.25,64.6078,68.1546,122.136,104.812,106.548,0.00292867,0.360385,20.6433,114.34,-0.148643,0.0,0.0
3080,769.75,64.9494,67.7161,122.69,104.698,106.786,0.00264914,0.362059,20.6417,113.929,-0.178603,0.0,0.0
3094,773.25,64.6475,68.2971,126.087,104.577,106.654,0.00273404,0.362953,20.641,113.469,-0.177881,0.0,0.0
3108,776.75,65.1205,68.5537,124.683,104.542,106.166,0.0029558,0.366869,20.6364,113.088,-0.139499,0.0,0.0
3122,780.25,65.3445,68.5,124.325,104.857,106.514,0.00301783,0.36907,20.6327,112.608,-0.141854,0.0,0.0
3136,783.75,65.6331,69.1113,131.96,105.167,107.24,0.00297202,0.372524,20.6295,112.238,-0.176585,0.0,0.0
3150,787.25,66.0112,69.5228,123.476,105.33,107.64,0.00269483,0.374039,20.6274,111.737,-0.196173,0.0,0.0
3164,790.75,66.1534,69.358,124.599,105.445,107.601,0.00277856,0.377602,20.622,111.397,-0.183054,0.0,0.0
3178,794.25,66.2512,69.786,125.119,105.432,107.707,0.00291273,0.381623,20.6176,110.917,-0.193064,0.0,0.0
3192,797.75,66.9956,70.4431,125.173,105.314,106.67,0.00278333,0.385795,20.6146,110.526,-0.115693,0.0,0.0
3206,801.25,66.9263,70.7598,126.569,105.094,106.836,0.00263802,0.386423,20.6121,110.086,-0.148751,0.0,0.0
3220,804.75,67.3141,70.6806,127.304,104.942,106.098,0.00293785,0.388704,20.6085,109.625,-0.0990625,0.0,0.0
3234,808.25,67.0157,70.8652,129.996,105.088,106.559,0.00312583,0.389566,20.6076,109.195,-0.125726,0.0,0.0
3248,811.75,67.3451,70.8025,125.579,105.236,106.613,0.00315625,0.391048,20.6047,108.725,-0.117587,0.0,0.0
3262,815.25,67.9547,71.4674,123.753,105.415,106.837,0.00313183,0.397175,20.5962,108.374,-0.121225,0.0,0.0
3276,818.75,67.8351,71.4799,121.726,105.533,106.78,0.00307054,0.398511,20.5937,107.874,-0.106264,0.0,0.0
3290,822.25,67.9821,71.6856,129.615,105.678,106.918,0.00318876,0.402906,20.5916,107.494,-0.105478,0.0,0.0
3304,825.75,68.181,71.8945,125.857,105.736,107.248,0.003297,0.402401,20.5901,106.973,-0.128495,0.0,0.0
3318,829.25,68.5181,72.1901,124.117,105.781,107.203,0.0031447,0.406005,20.5868,106.593,-0.120815,0.0,0.0
3332,832.75,68.438,72.5561,120.673,105.768,106.432,0.0032438,0.407392,20.5844,106.082,-0.0566234,0.0,0.0
3346,836.25,68.9912,72.4663,121.729,105.736,106.784,0.00329293,0.407246,20.5831,105.642,-0.0892829,0.0,0.0
3360,839.75,68.9799,73.4556,125.399,105.678,106.692,0.00333162,0.407427,20.5829,105.222,-0.0864236,0.0,0.0
3374,843.25,69.2147,72.9318,121.504,105.586,105.733,0.00348546,0.407438,20.5832,104.751,-0.0125667,0.0,0.0
3388,846.75,69.3519,73.2552,125.157,105.512,106.198,0.00349802,0.409129,20.5823,104.341,-0.0585453,0.0,0.0
3402,850.25,69.9924,73.5858,126.33,105.395,105.871,0.00355281,0.408939,20.5823,103.84,-0.040695,0.0,0.0
3416,853.75,69.9134,73.7811,124.249,105.286,105.723,0.00358295,0.406426,20.5837,103.47,-0.0374304,0.0,0.0
3430,857.25,69.4268,73.6513,128.266,105.143,105.655,0.0035118,0.406533,20.5822,102.95,-0.0438914,0.0,0.0
3444,860.75,69.6612,73.8825,128.727,105.035,106.018,0.00334709,0.405232,20.5836,102.549,-0.0842177,0.0,0.0
3458,864.25,69.8132,73.8408,121.691,104.899,105.475,0.00307532,0.401585,20.5851,102.059,-0.0495667,0.0,0.0
3472,867.75,69.9154,74.1908,126.145,104.78,105.469,0.00322801,0.404258,20.5861,101.759,-0.059291,0.0,0.0
3486,871.25,70.292,74.0098,123.764,104.711,105.174,0.00340827,0.401607,20.5864,101.208,-0.0399227,0.0,0.0
3500,874.75,69.6614,74.0602,125.322,104.606,105.556,0.00349397,0.400914,20.5864,100.758,-0.08173,0.0,0.0
3514,878.25,70.1759,73.7897,122.875,104.529,105.13,0.00356587,0.400859,20.5859,100.417,-0.0518254,0.0,0.0
3528,881.75,70.1502,74.1952,122.737,104.457,104.711,0.00362671,0.399007,20.5868,99.977,-0.0220226,0.0,0.0
3542,885.25,69.9725,74.5222,126.324,104.382,105.367,0.00345064,0.396754,20.5893,99.5767,-0.0849769,0.0,0.0
3556,888.75,70.381,74.7001,126.06,104.309,104.835,0.00345962,0.396195,20.5882,99.0963,-0.0454974,0.0,0.0
3570,892.25,70.3627,74.5512,125.372,104.28,105.235,0.00348243,0.395933,20.5875,98.7259,-0.082409,0.0,0.0
3584,895.75,70.2417,74.3512,122.561,104.229,104.84,0.00335355,0.393526,20.5889,98.3056,-0.0529094,0.0,0.0
3598,899.25,70.2187,74.2211,125.308,104.195,104.543,0.00321572,0.391557,20.5904,97.9152,-0.0302063,0.0,0.0
3612,902.75,70.1455,74.7096,122.797,104.149,104.817,0.00325921,0.390705,20.5922,97.4648,-0.0577981,0.0,0.0
3626,906.25,70.2351,74.1671,120.979,104.162,104.6,0.00326468,0.389175,20.5938,97.0745,-0.0379436,0.0,0.0
3640,909.75,69.8504,74.2637,123.674,104.164,104.503,0.00342662,0.389319,20.5928,96.6742,-0.0293419,0.0,0.0
3654,913.25,69.7412,74.6665,123.911,104.171,104.433,0.00338294,0.390924,20.5901,96.3239,-0.0226679,0.0,0.0
3668,916.75,69.8089,74.5464,126.48,104.175,104.718,0.00315235,0.392833,20.5869,95.9035,-0.0470305,0.0,0.0
3682,920.25,69.4882,74.9519,119.343,104.151,103.918,0.00311828,0.39194,20.5859,95.4231,0.0202581,0.0,0.0
3696,923.75,69.784,74.7489,123.967,104.173,103.975,0.00324955,0.391131,20.5857,95.0928,0.0172225,0.0,0.0
3710,927.25,70.1232,74.4997,126.441,104.175,104.145,0.00331886,0.389262,20.5874,94.6524,0.00258756,0.0,0.0
3724,930.75,70.2742,74.1621,129.459,104.183,104.029,0.00332267,0.386346,20.59,94.3621,0.0134042,0.0,0.0
3738,934.25,70.1972,73.9957,127.289,104.166,103.699,0.00337597,0.379815,20.5963,93.9218,0.0406544,0.0,0.0
3752,937.75,69.1926,73.8719,129.201,104.207,104.23,0.00315061,0.371724,20.6061,93.5915,-0.00205656,0.0,0.0
3766,941.25,69.6357,74.1929,127.839,104.242,104.509,0.00298947,0.365064,20.6132,93.1611,-0.0231182,0.0,0.0
3780,944.75,68.6678,73.3197,123.21,104.261,104.493,0.00315584,0.353492,20.626,92.8408,-0.0200571,0.0,0.0
3794,948.25,69.0743,73.1832,126.679,104.283,104.335,0.00306226,0.337165,20.6438,92.5406,-0.00458612,0.0,0.0
3808,951.75,68.3996,72.9916,128.578,104.312,104.684,0.00315547,0.31346,20.6715,92.2603,-0.0322107,0.0,0.0
3822,955.25,67.5547,72.3296,129.358,104.362,105.659,0.0031097,0.286986,20.7003,92.0902,-0.111732,0.0,0.0
3836,958.75,67.0075,72.1015,129.825,104.396,105.456,0.00283112,0.260647,20.7332,91.85,-0.0914024,0.0,0.0
3850,962.25,65.3524,71.4258,135.924,104.447,105.961,0.00254275,0.23542,20.7587,91.6698,-0.130136,0.0,0.0
3864,965.75,65.0369,69.9764,130.506,104.444,106.444,0.00253666,0.217147,20.7814,91.4896,-0.171531,0.0,0.0
3878,969.25,64.1506,69.2632,128.797,104.488,106.767,0.00269117,0.203082,20.7973,91.4196,-0.195152,0.0,0.0
3892,972.75,62.9658,68.1348,131.03,104.494,106.648,0.00284555,0.191326,20.8121,91.1994,-0.184611,0.0,0.0
3906,976.25,62.123,66.7192,129.471,104.54,106.492,0.0027749,0.18201,20.8236,91.1493,-0.167266,0.0,0.0
3920,979.75,60.7822,66.5419,131.86,104.572,106.482,0.0029258,0.176412,20.8298,90.9191,-0.163731,0.0,0.0
3934,983.25,60.1262,65.5347,135.671,104.615,106.759,0.00288942,0.170606,20.836,90.8491,-0.183475,0.0,0.0
3948,986.75,59.4689,64.4129,131.462,104.666,107.165,0.00271088,0.166205,20.8423,90.759,-0.213473,0.0,0.0
3962,990.25,58.6539,63.2233,133.711,104.734,106.885,0.00277812,0.162188,20.8466,90.699,-0.183825,0.0,0.0
3976,993.75,58.079,62.7276,134.299,104.815,106.841,0.00308914,0.157737,20.8528,90.5688,-0.173225,0.0,0.0
3990,997.25,57.0101,62.0131,134.473,104.881,107.258,0.00331779,0.154069,20.8578,90.3987,-0.202761,0.0,0.0
4004,1000.75,56.4028,61.2719,134.52,104.97,107.832,0.00328007,0.151234,20.8601,90.3687,-0.243375,0.0,0.0
4018,1004.25,55.9878,60.6312,134.765,105.044,107.256,0.00328744,0.149411,20.8598,90.2586,-0.188508,0.0,0.0
4032,1007.75,55.5143,59.9174,135.789,105.146,107.826,0.00327274,0.146726,20.8626,90.2185,-0.227693,0.0,0.0
4046,1011.25,54.9947,59.1499,131.812,105.222,107.882,0.0032142,0.142667,20.8673,90.0184,-0.225799,0.0,0.0
4060,1014.75,54.1206,58.8354,136.077,105.338,108.086,0.00328925,0.14049,20.8699,90.0184,-0.232974,0.0,0.0
4074,1018.25,53.7888,58.2672,134.382,105.399,108.309,0.00307688,0.138858,20.8722,89.8582,-0.24633,0.0,0.0
4088,1021.75,53.4814,57.7129,137.145,105.499,107.786,0.00323057,0.137559,20.8741,89.8482,-0.193987,0.0,0.0
4102,1025.25,53.0827,57.073,132.052,105.57,108.209,0.00360574,0.136473,20.8768,89.7481,-0.22332,0.0,0.0
4116,1028.75,52.4072,56.4822,134.942,105.625,108.419,0.00354284,0.134959,20.8783,89.628,-0.236156,0.0,0.0
4130,1032.25,52.0505,55.6938,133.819,105.69,108.627,0.00351082,0.133361,20.8805,89.648,-0.247902,0.0,0.0
4144,1035.75,51.8642,55.6364,137.44,105.71,108.192,0.00376623,0.131614,20.8817,89.4779,-0.209943,0.0,0.0
4158,1039.25,51.6696,55.098,135.336,105.764,107.683,0.00382132,0.130419,20.8849,89.5179,-0.162688,0.0,0.0
4172,1042.75,51.2181,54.482,136.973,105.749,108.177,0.0038697,0.129839,20.8864,89.2977,-0.205331,0.0,0.0
4186,1046.25,51.0006,54.2874,135.805,105.758,108.388,0.00389887,0.129259,20.8863,89.3978,-0.222197,0.0,0.0
4200,1049.75,50.1894,53.5858,133.531,105.743,108.546,0.00396679,0.127952,20.8871,89.2077,-0.236667,0.0,0.0
4214,1053.25,50.351,53.2946,133.669,105.75,108.064,0.00402619,0.126647,20.8883,89.2677,-0.19579,0.0,0.0
4228,1056.75,50.1398,52.853,138.786,105.73,108.231,0.00390351,0.126284,20.8895,89.1076,-0.211511,0.0,0.0
4242,1060.25,49.8439,52.8062,137.138,105.718,107.444,0.00362617,0.125208,20.8908,89.0876,-0.146461,0.0,0.0
4256,1063.75,49.4614,52.4276,133.641,105.697,108.032,0.00360284,0.124703,20.8923,89.0675,-0.19762,0.0,0.0
4270,1067.25,49.3577,52.4439,135.895,105.662,108.113,0.00382565,0.123988,20.8931,88.8574,-0.20748,0.0,0.0
4284,1070.75,48.89,51.5982,138.841,105.633,108.09,0.00386753,0.123409,20.8947,88.9675,-0.207995,0.0,0.0
4298,1074.25,49.1427,51.5913,130.783,105.59,107.8,0.0038857,0.122392,20.8964,88.7873,-0.187334,0.0,0.0
4312,1077.75,49.2213,51.5099,133.551,105.578,107.948,0.00389672,0.121886,20.8977,88.7373,-0.200802,0.0,0.0
4326,1081.25,48.4872,51.2348,136.619,105.515,108.015,0.00366338,0.12129,20.898,88.5871,-0.211815,0.0,0.0
4340,1084.75,48.5306,50.9774,135.346,105.523,107.994,0.0038033,0.120454,20.898,88.7072,-0.20941,0.0,0.0
4354,1088.25,48.3377,50.7064,135.827,105.473,108.378,0.0041249,0.12021,20.8992,88.5171,-0.245778,0.0,0.0
4368,1091.75,47.9957,50.5769,136.335,105.472,107.191,0.00414665,0.119851,20.9001,88.5571,-0.146214,0.0,0.0
4382,1095.25,48.236,50.2832,137.541,105.404,107.847,0.00412986,0.119659,20.8996,88.467,-0.207263,0.0,0.0
4396,1098.75,48.0408,50.167,133.881,105.373,107.669,0.00412418,0.119243,20.8996,88.417,-0.194934,0.0,0.0
4410,1102.25,47.6161,49.6983,137.371,105.342,108.249,0.00388655,0.11842,20.901,88.427,-0.246208,0.0,0.0
4424,1105.75,47.3719,49.5227,138.599,105.292,108.026,0.00394467,0.118077,20.9013,88.2568,-0.231868,0.0,0.0
4438,1109.25,47.1641,49.8092,135.56,105.268,107.614,0.00408124,0.117868,20.902,88.3069,-0.199396,0.0,0.0
4452,1112.75,47.4979,49.3875,136.954,105.234,107.149,0.00404729,0.116654,20.9028,88.1167,-0.163139,0.0,0.0
4466,1116.25,46.5269,49.0785,135.375,105.203,107.443,0.00406246,0.116015,20.9037,88.2468,-0.190608,0.0,0.0
4480,1119.75,47.0758,49.061,134.951,105.174,107.726,0.00423559,0.116046,20.9011,88.0567,-0.21685,0.0,0.0
4494,1123.25,46.8493,48.9656,135.139,105.129,107.374,0.00439243,0.116149,20.9015,88.1567,-0.191126,0.0,0.0
4508,1126.75,46.5843,48.7648,139.247,105.061,106.794,0.00461893,0.116445,20.9019,87.9366,-0.147999,0.0,0.0
4522,1130.25,46.933,48.5088,138.799,105.039,107.262,0.0044588,0.11554,20.9035,88.0166,-0.189416,0.0,0.0
4536,1133.75,46.3749,47.9382,135.131,104.996,107.101,0.00427339,0.114939,20.9042,87.8965,-0.179568,0.0,0.0
4550,1137.25,46.3791,47.7686,138.129,104.952,107.174,0.00421088,0.114948,20.9044,87.8265,-0.189527,0.0,0.0
4564,1140.75,45.8598,47.7074,137.264,104.915,106.791,0.00430735,0.114219,20.9058,87.8265,-0.160365,0.0,0.0
4578,1144.25,46.1648,47.4817,136.391,104.86,106.952,0.00447957,0.114189,20.9065,87.6963,-0.178667,0.0,0.0
4592,1147.75,45.7101,47.8297,139.679,104.939,106.996,0.00450375,0.114109,20.9067,87.7364,-0.175591,0.0,0.0
4606,1151.25,46.1738,47.2752,137.098,105.025,107.264,0.00460387,0.113442,20.9077,87.5863,-0.190774,0.0,0.0
4620,1154.75,45.6291,47.2868,135.433,105.125,106.912,0.00456956,0.11272,20.9088,87.6563,-0.152521,0.0,0.0
4634,1158.25,45.3324,47.4319,135.123,105.194,107.769,0.00458949,0.1124,20.909,87.4962,-0.218741,0.0,0.0
4648,1161.75,45.8408,46.9797,137.429,105.278,107.68,0.00465662,0.111659,20.9091,87.5963,-0.204003,0.0,0.0
4662,1165.25,45.416,47.3444,138.151,105.328,107.668,0.00473054,0.111782,20.9103,87.4361,-0.198742,0.0,0.0
4676,1168.75,45.4575,46.6874,138.836,105.367,107.679,0.00455307,0.111254,20.9124,87.5162,-0.19634,0.0,0.0
4690,1172.25,45.4054,47.0233,134.457,105.386,107.409,0.00441491,0.112157,20.9115,87.4261,-0.171949,0.0,0.0
4704,1175.75,44.7962,46.8994,136.602,105.391,107.09,0.00448761,0.111599,20.9119,87.356,-0.14468,0.0,0.0
4718,1179.25,44.7104,46.7619,135.526,105.401,107.213,0.00458924,0.110874,20.9128,87.4061,-0.154193,0.0,0.0
4732,1182.75,44.8311,45.9337,138.256,105.388,107.48,0.00447834,0.11034,20.913,87.2159,-0.177842,0.0,0.0
4746,1186.25,45.0007,46.5106,134.372,105.387,107.785,0.00442255,0.111244,20.9125,87.276,-0.203551,0.0,0.0
4760,1189.75,44.4863,45.9106,140.627,105.33,107.946,0.00460221,0.110833,20.9129,87.0858,-0.221852,0.0,0.0
4774,1193.25,44.4567,46.1488,137.06,105.302,107.456,0.00467648,0.110428,20.9136,87.1759,-0.183131,0.0,0.0
4788,1196.75,44.8192,45.9442,137.316,105.223,107.557,0.00468699,0.109964,20.9139,87.0458,-0.198503,0.0,0.0
4802,1200.25,44.3229,46.2562,132.197,105.161,107.989,0.00479235,0.10999,20.9139,87.1158,-0.24001,0.0,0.0
4816,1203.75,44.5242,45.6479,135.585,105.073,106.975,0.00486425,0.109785,20.9134,86.9557,-0.162275,0.0,0.0
4830,1207.25,44.522,45.976,136.715,104.97,107.475,0.00492485,0.109339,20.9132,87.0057,-0.21332,0.0,0.0
4844,1210.75,44.2002,45.473,137.633,104.837,106.622,0.00475656,0.108658,20.915,86.9257,-0.152776,0.0,0.0
4858,1214.25,44.5033,45.4352,136.939,104.674,106.746,0.00490396,0.109344,20.9146,86.8156,-0.177328,0.0,0.0
4872,1217.75,43.834,45.7293,138.825,104.502,107.014,0.00492257,0.108947,20.9144,86.8956,-0.214874,0.0,0.0
4886,1221.25,44.1068,45.6491,135.223,104.488,106.587,0.00491406,0.108882,20.9156,86.7255,-0.179905,0.0,0.0
4900,1224.75,44.3435,45.2666,133.05,104.51,106.818,0.00496904,0.109304,20.9169,86.8356,-0.197626,0.0,0.0
4914,1228.25,44.0972,45.4074,141.968,104.541,106.862,0.00511663,0.108094,20.9174,86.6654,-0.198665,0.0,0.0
4928,1231.75,44.5128,45.5935,135.675,104.591,106.924,0.00518399,0.108005,20.9176,86.6855,-0.199554,0.0,0.0
4942,1235.25,43.658,44.9375,137.212,104.623,105.843,0.00518836,0.107536,20.9159,86.5854,-0.104858,0.0,0.0
4956,1238.75,43.2636,45.3235,136.606,104.688,106.681,0.00498115,0.108167,20.9154,86.6554,-0.170562,0.0,0.0
4970,1242.25,43.7316,45.4232,132.69,104.74,105.872,0.00492524,0.107432,20.9153,86.5053,-0.0971723,0.0,0.0
4984,1245.75,43.7263,45.0429,133.648,104.797,106.818,0.00511084,0.10763,20.9152,86.5654,-0.172749,0.0,0.0
4998,1249.25,43.6819,45.1578,139.266,104.837,106.744,0.00505922,0.107652,20.9167,86.5053,-0.163086,0.0,0.0
5012,1252.75,43.6002,44.6504,139.155,104.881,106.045,0.00526305,0.107001,20.9173,86.4453,-0.0998213,0.0,0.0
5026,1256.25,43.6263,45.0695,138.665,104.935,106.263,0.00541783,0.10675,20.917,86.4352,-0.113764,0.0,0.0
5040,1259.75,43.7442,44.8866,134.73,104.958,107.471,0.00534999,0.107253,20.9164,86.2751,-0.214023,0.0,0.0
5054,1263.25,43.3829,44.8949,135.02,104.993,106.422,0.00532715,0.106691,20.9175,86.4052,-0.122322,0.0,0.0
5068,1266.75,43.9533,44.8961,138.547,105.005,106.492,0.00527865,0.1065,20.9172,86.2551,-0.127168,0.0,0.0
5082,1270.25,43.1508,44.3951,137.402,105.045,106.764,0.00526244,0.106597,20.917,86.3352,-0.146744,0.0,0.0
5096,1273.75,43.1215,44.4984,143.845,105.027,106.038,0.00533969,0.106373,20.9184,86.155,-0.0866544,0.0,0.0
5110,1277.25,43.1049,44.7021,137.783,105.053,106.676,0.00555344,0.105552,20.9195,86.185,-0.138744,0.0,0.0
5124,1280.75,43.2137,44.5174,136.646,105.023,107.28,0.00551653,0.104913,20.9205,86.0449,-0.192256,0.0,0.0
5138,1284.25,43.2605,43.9266,135.396,105.014,106.773,0.00536322,0.10626,20.9196,86.185,-0.150304,0.0,0.0
5152,1287.75,43.413,44.5706,138.654,104.986,107.379,0.00522469,0.105908,20.9183,86.0949,-0.203896,0.0,0.0
5166,1291.25,42.804,44.7307,133.466,104.952,106.677,0.00515422,0.106126,20.9177,85.9748,-0.147485,0.0,0.0
5180,1294.75,43.093,44.1035,137.222,104.954,106.57,0.00542465,0.106045,20.9192,86.0549,-0.138254,0.0,0.0
5194,1298.25,42.6216,43.7443,136.585,104.902,106.542,0.00570148,0.105634,20.9197,85.8948,-0.140324,0.0,0.0
5208,1301.75,42.8471,43.8697,133.447,104.891,106.409,0.00590733,0.105559,20.9207,85.9548,-0.129955,0.0,0.0
5222,1305.25,42.5388,44.4734,136.796,104.821,106.488,0.00582005,0.105021,20.9234,85.8347,-0.142662,0.0,0.0
5236,1308.75,42.9155,44.2478,134.761,104.791,106.335,0.00569732,0.104803,20.9242,85.9048,-0.132226,0.0,0.0
5250,1312.25,42.4527,43.9391,134.125,104.71,106.458,0.00570843,0.105214,20.9244,85.7747,-0.149766,0.0,0.0
5264,1315.75,42.2579,44.1096,140.57,104.674,106.528,0.00555505,0.104665,20.9244,85.8147,-0.158841,0.0,0.0
5278,1319.25,43.1947,44.0546,136.67,104.593,106.332,0.00563715,0.105184,20.9235,85.7046,-0.149191,0.0,0.0
5292,1322.75,42.3244,44.0271,137.366,104.551,106.358,0.005813,0.105083,20.9238,85.7146,-0.155029,0.0,0.0
5306,1326.25,42.7347,44.1285,137.728,104.488,106.557,0.00566133,0.104193,20.9246,85.6846,-0.177338,0.0,0.0
5320,1329.75,42.3547,43.6998,139.392,104.384,105.62,0.00565132,0.103505,20.9258,85.5945,-0.10648,0.0,0.0
5334,1333.25,42.1984,44.0681,137.134,104.305,106.179,0.00578063,0.104742,20.9243,85.6946,-0.161111,0.0,0.0
5348,1336.75,42.7582,43.7303,137.375,104.22,105.458,0.00607066,0.10508,20.9239,85.4844,-0.106807,0.0,0.0
5362,1340.25,42.5816,44.2123,135.655,104.173,105.729,0.00599306,0.104351,20.9238,85.5645,-0.134101,0.0,0.0
5376,1343.75,42.6378,43.8677,135.352,104.094,106.292,0.00591346,0.104315,20.924,85.4544,-0.189014,0.0,0.0
5390,1347.25,42.3647,44.3741,138.057,104.064,105.877,0.0060146,0.104288,20.9252,85.5044,-0.156239,0.0,0.0
5404,1350.75,42.1386,43.8863,136.96,103.966,106.126,0.00599629,0.103682,20.927,85.3543,-0.186026,0.0,0.0
5418,1354.25,42.4637,44.0082,136.01,103.902,105.592,0.00598565,0.10339,20.9277,85.4544,-0.145932,0.0,0.0
5432,1357.75,42.4481,43.5993,137.877,103.864,104.403,0.00606406,0.102959,20.927,85.3143,-0.0468825,0.0,0.0
5446,1361.25,42.1943,43.6259,135.075,103.824,105.62,0.00602742,0.104209,20.9259,85.3743,-0.155101,0.0,0.0
5460,1364.75,42.4446,43.4661,136.698,103.801,105.681,0.00626046,0.104848,20.9251,85.3343,-0.162388,0.0,0.0
5474,1368.25,42.0838,43.5707,133.1,103.737,105.494,0.00655072,0.104196,20.9273,85.2242,-0.151947,0.0,0.0
5488,1371.75,42.2627,43.9342,137.056,103.721,104.69,0.0062656,0.10411,20.9252,85.2742,-0.0841563,0.0,0.0
5502,1375.25,42.3624,43.6194,138.753,103.688,105.216,0.00579463,0.103544,20.9242,85.1241,-0.132275,0.0,0.0
5516,1378.75,42.6442,43.4985,138.078,103.71,105.998,0.0056236,0.103038,20.9255,85.2142,-0.19738,0.0,0.0
5530,1382.25,41.7679,43.8231,134.393,103.663,105.324,0.00570201,0.103035,20.9245,85.1041,-0.14381,0.0,0.0
5544,1385.75,42.215,43.7673,142.225,103.666,106.204,0.00590024,0.103337,20.924,85.1141,-0.218766,0.0,0.0
5558,1389.25,41.7392,43.8481,141.132,103.657,105.6,0.00609588,0.102587,20.9253,85.024,-0.167978,0.0,0.0
5572,1392.75,42.329,43.4595,136.62,103.663,105.199,0.00612112,0.103397,20.9244,85.0841,-0.133087,0.0,0.0
5586,1396.25,42.6761,43.4977,137.139,103.672,105.25,0.00625005,0.103021,20.9268,84.964,-0.136676,0.0,0.0
5600,1399.75,42.0623,43.5702,136.757,103.668,105.234,0.00639361,0.103033,20.9281,84.984,-0.135643,0.0,0.0
5614,1403.25,42.2141,43.926,137.649,103.684,105.257,0.00634295,0.102947,20.9283,85.004,-0.136168,0.0,0.0
5628,1406.75,42.0278,43.4314,139.265,103.698,104.992,0.00614706,0.102396,20.9284,84.8539,-0.112147,0.0,0.0
5642,1410.25,41.8703,43.6154,137.954,103.734,104.382,0.00628924,0.10251,20.9284,84.8839,-0.056293,0.0,0.0
5656,1413.75,41.8756,43.1795,141.558,103.749,105.335,0.00656254,0.102395,20.9284,84.7538,-0.137253,0.0,0.0
5670,1417.25,42.2684,43.1872,136.845,103.788,104.664,0.00646404,0.102171,20.9275,84.8639,-0.0760808,0.0,0.0
5684,1420.75,41.9167,43.4083,133.913,103.814,105.104,0.00662551,0.102203,20.9267,84.7137,-0.111757,0.0,0.0
5698,1424.25,41.6887,43.5773,138.765,103.865,105.088,0.00645558,0.102151,20.9281,84.8238,-0.105822,0.0,0.0
5712,1427.75,41.9254,43.9554,135.53,103.9,105.887,0.00645018,0.101614,20.9286,84.7538,-0.171379,0.0,0.0
5726,1431.25,41.8422,43.2417,139.482,103.923,104.867,0.00672606,0.102224,20.9287,84.7538,-0.081798,0.0,0.0
5740,1434.75,41.8711,43.6851,137.98,103.955,105.192,0.00699861,0.101597,20.9293,84.6837,-0.106995,0.0,0.0
5754,1438.25,41.9875,43.6285,138.253,103.961,106.06,0.00708762,0.101947,20.9296,84.5636,-0.18083,0.0,0.0
5768,1441.75,42.2719,43.252,134.109,103.99,105.672,0.00670666,0.102108,20.9286,84.6137,-0.145145,0.0,0.0
5782,1445.25,41.7979,43.0573,139.562,104.036,105.783,0.00684207,0.102056,20.9277,84.4635,-0.15062,0.0,0.0
5796,1448.75,42.0824,43.279,139.396,104.114,105.357,0.00718105,0.101501,20.9274,84.5636,-0.107424,0.0,0.0
5810,1452.25,41.9104,43.5037,143.316,104.186,105.567,0.00701312,0.101894,20.9273,84.3935,-0.119085,0.0,0.0
5824,1455.75,41.8619,43.4866,135.928,104.247,105.555,0.00689572,0.101424,20.9273,84.5036,-0.112768,0.0,0.0
5838,1459.25,41.4039,43.335,138.93,104.301,105.628,0.00681289,0.10165,20.9273,84.3835,-0.114416,0.0,0.0
5852,1462.75,41.8292,43.3078,134.66,104.364,105.678,0.00675347,0.101675,20.9284,84.4435,-0.113147,0.0,0.0
5866,1466.25,41.862,43.8774,139.345,104.435,105.454,0.006531,0.100654,20.9324,84.3634,-0.0878374,0.0,0.0
5880,1469.75,41.592,43.3976,137.936,104.486,106.149,0.00671753,0.100286,20.9328,84.3234,-0.142782,0.0,0.0
5894,1473.25,41.6685,43.6856,135.886,104.584,105.432,0.00695172,0.101896,20.9317,84.3534,-0.0730838,0.0,0.0
5908,1476.75,41.5029,43.2639,139.541,104.644,105.544,0.00701193,0.10199,20.9315,84.2033,-0.0775168,0.0,0.0
5922,1480.25,41.9794,43.5921,135.827,104.726,106.006,0.00715682,0.101762,20.9314,84.3234,-0.109904,0.0,0.0
5936,1483.75,42.1688,43.0641,139.339,104.774,105.789,0.00709317,0.101098,20.9314,84.1332,-0.0872064,0.0,0.0
5950,1487.25,42.1872,43.9889,135.475,104.868,106.002,0.00716431,0.100983,20.9328,84.1933,-0.0973282,0.0,0.0
5964,1490.75,41.7375,43.2028,136.938,104.916,106.462,0.00716624,0.100634,20.933,84.0832,-0.13232,0.0,0.0
5978,1494.25,42.1798,43.0542,137.638,105.004,105.619,0.00711206,0.100135,20.9331,84.1232,-0.0528276,0.0,0.0
5992,1497.75,41.6661,43.0929,139.909,105.047,107.311,0.00723987,0.100699,20.9318,84.0131,-0.192887,0.0,0.0
6006,1501.25,41.9101,43.1964,137.816,105.134,106.339,0.00721827,0.100956,20.931,84.1132,-0.103045,0.0,0.0
6020,1504.75,39.9201,42.0122,137.619,105.238,107.147,0.00711708,0.101576,20.9308,84.0632,-0.162619,0.0,0.0
6034,1508.25,39.7295,41.616,141.162,105.33,106.29,0.00729854,0.101224,20.9308,83.9231,-0.0820668,0.0,0.0
6048,1511.75,40.1563,41.6336,133.743,105.403,107.117,0.00733879,0.100818,20.9312,84.0231,-0.14587,0.0,0.0
6062,1515.25,39.7958,41.7268,137.805,105.488,106.581,0.00731461,0.101311,20.9314,83.803,-0.0932385,0.0,0.0
6076,1518.75,39.7391,41.4287,135.175,105.574,107.196,0.00712881,0.100773,20.9314,83.903,-0.137876,0.0,0.0
6090,1522.25,39.5092,41.202,135.292,105.619,106.589,0.00699346,0.100314,20.9332,83.7829,-0.0827578,0.0,0.0
6104,1525.75,40.0405,41.5254,138.084,105.658,107.191,0.00720885,0.10001,20.9336,83.813,-0.130281,0.0,0.0
6118,1529.25,39.7883,41.9088,143.15,105.701,106.661,0.00739026,0.100398,20.9335,83.7029,-0.0817512,0.0,0.0
6132,1532.75,39.4262,41.358,136.316,105.722,106.964,0.0074089,0.100233,20.9317,83.823,-0.105617,0.0,0.0
6146,1536.25,39.8065,41.5587,143.229,105.722,106.616,0.0073229,0.101044,20.9319,83.6628,-0.0761835,0.0,0.0
6160,1539.75,39.8033,41.4824,138.892,105.717,107.302,0.0073172,0.100844,20.9328,83.7129,-0.134602,0.0,0.0
6174,1543.25,39.6578,40.8866,141.24,105.704,106.567,0.00757791,0.101083,20.933,83.7629,-0.0735524,0.0,0.0
6188,1546.75,39.5487,41.3521,135.17,105.67,107.667,0.00763175,0.101255,20.9331,83.5627,-0.169309,0.0,0.0
6202,1550.25,39.8682,40.7043,134.746,105.638,106.974,0.00752696,0.100366,20.9331,83.6428,-0.113607,0.0,0.0
6216,1553.75,39.5139,40.9368,136.928,105.579,106.365,0.00772804,0.100411,20.9319,83.4727,-0.0670923,0.0,0.0
6230,1557.25,39.5822,41.2764,135.771,105.524,107.081,0.00774307,0.100808,20.9319,83.5928,-0.132438,0.0,0.0
6244,1560.75,39.3926,41.4376,135.452,105.445,106.995,0.00781665,0.100715,20.932,83.4627,-0.132012,0.0,0.0
6258,1564.25,38.9631,40.8473,137.139,105.368,106.717,0.00785517,0.100301,20.9321,83.5527,-0.115071,0.0,0.0
6272,1567.75,39.2776,40.626,142.512,105.319,106.858,0.00761109,0.100238,20.9333,83.4627,-0.131233,0.0,0.0
6286,1571.25,39.541,41.3649,138.381,105.268,106.367,0.0075528,0.100283,20.9324,83.4226,-0.0939014,0.0,0.0
6300,1574.75,38.9301,40.9517,137.914,105.199,106.691,0.00776059,0.100068,20.9322,83.4426,-0.127349,0.0,0.0
6314,1578.25,39.3938,41.0882,136.159,105.116,106.152,0.00775959,0.100363,20.9328,83.3025,-0.0887068,0.0,0.0
6328,1581.75,39.478,41.1036,138.779,105.063,106.269,0.00776853,0.100187,20.9318,83.4026,-0.10325,0.0,0.0
6342,1585.25,39.3954,41.1702,137.768,105.002,106.067,0.00790092,0.100344,20.9322,83.2525,-0.0913054,0.0,0.0
6356,1588.75,39.8763,40.7674,141.933,104.956,105.523,0.00802533,0.0998776,20.9323,83.3326,-0.0486852,0.0,0.0
6370,1592.25,39.3071,40.918,136.571,104.906,105.623,0.00821147,0.100198,20.9323,83.1924,-0.0616373,0.0,0.0
6384,1595.75,39.3534,40.9018,137.123,104.898,106.066,0.00798073,0.0997086,20.933,83.2725,-0.100224,0.0,0.0
6398,1599.25,39.0183,41.1016,138.512,104.854,105.511,0.007816,0.0993688,20.9336,83.1023,-0.0565063,0.0,0.0
6412,1602.75,39.3951,41.239,137.883,104.948,105.259,0.00796093,0.0989084,20.9335,83.1824,-0.0267475,0.0,0.0
6426,1606.25,39.0724,41.2555,137.656,105.062,105.999,0.00824615,0.0997007,20.9317,83.2325,-0.0803352,0.0,0.0
6440,1609.75,39.4948,41.4311,135.574,105.125,106.122,0.00852427,0.100184,20.9309,83.0523,-0.0854025,0.0,0.0
6454,1613.25,39.52,41.0072,137.33,105.201,106.493,,0.100063,,83.1224,-0.110369,0.0,0.0
6468,1616.75,39.0068,41.0362,137.892,105.253,105.68,,,,82.9722,-0.036673,0.0,0.0
6482,1620.25,39.3624,41.0035,137.145,105.313,106.416,,,,83.0123,-0.0942468,0.0,0.0
6486,1621.25,39.366,40.9875,136.026,105.324,106.959,,,,82.9422,-0.139388,0.0,0.0