File: 01_Data/Oak_HWF/Cone/Oak_Flooring_Cone_HF50Scan_220914_R1.csv
Names,Time,Stack TC,Smoke TC,Exh Press,Smoke Comp,Smoke Meas,CO Meter,CO2 Meter,O2 Meter,Sample Mass,Ext Coeff,Start Test,Flame Verif
Chan Gain,,500,500,1,1,1,1,1,1,1,1,1.0,1.0
Offset,,0,0,0.139139,0,0,0,0,0,0,0,0.0,0.0
Gain,,1,1,25.011,13.0826,14.7555,1,1,1,1.00088,1.03743,1.0,1.0
Units,sec,C,C,Pa,%,%,%,%,%,g,/m,,
Baseline,,45.0001,46.0844,142.25,99.2069,101.929,-0.00059237,0.0482917,20.9963,-445.825,-0.246303,,
12,2.75,43.6638,44.9749,143.283,99.8872,102.777,-0.00036666,0.0513404,20.9925,217.862,-0.259543,0.0,0.0
24,5.75,44.1073,45.3018,141.748,99.8713,102.392,-0.000411958,0.0507202,20.9938,217.792,-0.226803,0.0,0.0
36,8.75,43.9953,45.4371,146.11,99.8405,103.009,-0.000667213,0.0499178,20.995,217.762,-0.284351,0.0,0.0
48,11.75,44.3179,45.5845,140.743,99.8197,102.575,-0.000778497,0.0494228,20.9955,217.712,-0.247772,0.0,0.0
60,14.75,44.4519,45.6039,140.127,99.797,102.478,-0.000590285,0.049039,20.9941,217.652,-0.241254,0.0,0.0
72,17.75,44.3398,45.6183,139.418,99.779,101.584,-0.000495739,0.0494301,20.9917,217.602,-0.163169,0.0,0.0
84,20.75,44.8062,45.462,145.977,99.7439,101.909,-0.000525904,0.0518943,20.9902,217.482,-0.195412,0.0,0.0
96,23.75,44.472,45.7053,141.643,99.7108,101.222,-0.000293121,0.0533018,20.9909,217.451,-0.136906,0.0,0.0
108,26.75,45.0161,45.8149,142.09,99.7351,99.9802,-3.02866e-05,0.0557735,20.9848,217.361,-0.0223377,0.0,0.0
120,29.75,45.7541,46.4139,134.168,99.7048,102.908,0.000629673,0.101657,20.9036,217.141,-0.287737,0.0,1.0
132,32.75,46.3586,45.9329,126.631,99.7088,100.871,0.00155648,0.204939,20.736,216.791,-0.105496,0.0,1.0
144,35.75,49.5895,47.7363,128.467,99.7115,98.9481,0.00218072,0.313084,20.5988,216.351,0.0699425,0.0,1.0
156,38.75,53.2015,50.8934,122.099,99.708,98.8121,0.00263476,0.405951,20.5003,215.86,0.0821304,0.0,0.0
168,41.75,56.7503,53.4162,119,99.7139,98.1466,0.00307529,0.476927,20.4356,215.32,0.144179,0.0,0.0
180,44.75,59.6541,55.7739,115.839,99.7255,97.1163,0.00372804,0.527206,20.3967,214.749,0.241271,0.0,0.0
192,47.75,63.1509,58.3953,120.835,99.7076,96.0284,0.00424667,0.562171,20.3584,214.279,0.342152,0.0,0.0
204,50.75,65.9465,61.6759,124.269,99.7016,96.3418,0.00430547,0.585388,20.3458,213.778,0.311953,0.0,0.0
216,53.75,67.7806,64.0726,124.453,99.7052,97.3126,0.00442133,0.589951,20.3558,213.268,0.221034,0.0,0.0
228,56.75,69.676,66.2773,124.971,99.7032,97.0942,0.00458131,0.578438,20.3807,212.767,0.241299,0.0,0.0
240,59.75,71.1534,67.8433,124.205,99.6968,98.2321,0.00447478,0.564299,20.4045,212.267,0.134683,0.0,0.0
252,62.75,72.0955,69.8336,125.269,99.7016,99.3403,0.00436533,0.550474,20.4253,211.787,0.0330309,0.0,0.0
264,65.75,73.7112,70.801,125.78,99.7167,99.0593,0.00418736,0.537568,20.4401,211.296,0.0601935,0.0,0.0
276,68.75,73.8079,72.3763,116.872,99.7219,99.5921,0.00400267,0.524688,20.4604,210.796,0.0118593,0.0,0.0
288,71.75,75.0389,73.2223,119.138,99.7383,99.7276,0.00381378,0.514042,20.474,210.305,0.000976304,0.0,0.0
300,74.75,75.2419,74.6385,121.989,99.7595,99.9771,0.00352393,0.503213,20.4902,209.835,-0.0198291,0.0,0.0
312,77.75,75.7155,75.0666,122.406,99.779,100.163,0.00325819,0.49136,20.5055,209.354,-0.034998,0.0,0.0
324,80.75,76.2681,76.124,125.629,99.7778,99.7924,0.0032809,0.480305,20.519,208.974,-0.00133337,0.0,0.0
336,83.75,76.4514,76.697,130.001,99.8026,99.8748,0.00321607,0.469784,20.5319,208.554,-0.00658682,0.0,0.0
348,86.75,76.6046,77.3001,127.239,99.8189,99.5515,0.00306146,0.461596,20.5403,208.123,0.024413,0.0,0.0
360,89.75,76.449,77.5445,127.446,99.8309,101.383,0.00311894,0.454152,20.55,207.573,-0.140386,0.0,0.0
372,92.75,76.5428,78.1261,127.151,99.8473,100.42,0.00330178,0.445709,20.5599,207.182,-0.0520631,0.0,0.0
384,95.75,76.378,77.9541,128.696,99.8593,100.263,0.00338144,0.43917,20.5677,206.712,-0.0367591,0.0,0.0
396,98.75,76.937,79.0653,124.878,99.8808,100.561,0.00302516,0.433919,20.5742,206.402,-0.0617302,0.0,0.0
408,101.75,76.5287,79.2422,127.03,99.8665,101.298,0.00276908,0.424554,20.5866,205.971,-0.129505,0.0,0.0
420,104.75,76.1586,79.3103,125.459,99.8629,100.498,0.00265194,0.416697,20.5937,205.591,-0.0577013,0.0,0.0
432,107.75,76.375,79.3516,126.078,99.8685,101.664,0.00263156,0.410679,20.5988,205.171,-0.162153,0.0,0.0
444,110.75,76.1493,79.2598,127.859,99.8473,100.691,0.0027453,0.404418,20.6076,204.79,-0.0765555,0.0,0.0
456,113.75,75.9462,79.0878,126.622,99.8229,100.93,0.00274827,0.399445,20.6117,204.39,-0.10036,0.0,0.0
468,116.75,75.6713,79.6242,123.363,99.8014,100.829,0.00267922,0.395395,20.6154,204.01,-0.0932676,0.0,0.0
480,119.75,76.0868,79.6704,137.328,99.7639,101.374,0.00270629,0.392002,20.618,203.629,-0.145735,0.0,0.0
492,122.75,75.8652,79.7459,123.943,99.7163,100.932,0.00274478,0.387091,20.6254,203.279,-0.110246,0.0,0.0
504,125.75,75.5288,79.1586,132.791,99.6561,101.553,0.00257471,0.379865,20.6358,202.989,-0.171607,0.0,0.0
516,128.75,74.9708,79.4946,128.017,99.6129,100.531,0.00238912,0.374673,20.6384,202.638,-0.083481,0.0,0.0
528,131.75,74.9231,79.6688,129.45,99.5335,100.817,0.0024639,0.373503,20.6386,202.268,-0.11659,0.0,0.0
540,134.75,74.34,79.1817,126.619,99.4824,101.367,0.00255916,0.369607,20.6429,201.908,-0.170799,0.0,0.0
552,137.75,74.2586,78.8417,128.5,99.4025,101.488,0.00274412,0.364844,20.6493,201.558,-0.188974,0.0,0.0
564,140.75,73.9591,78.6809,130.111,99.3267,101.212,0.00273289,0.361441,20.6544,201.197,-0.171097,0.0,0.0
576,143.75,73.5699,78.7303,125.781,99.268,100.97,0.00263644,0.358828,20.6574,200.807,-0.154707,0.0,0.0
588,146.75,73.2497,78.5048,126.835,99.2073,101.058,0.00249737,0.35483,20.6623,200.497,-0.168223,0.0,0.0
600,149.75,73.0326,78.3836,129.647,99.1642,100.954,0.00253889,0.350092,20.6674,200.186,-0.162767,0.0,0.0
612,152.75,73.1845,78.3148,131.002,99.1079,100.925,0.00252096,0.346466,20.6711,199.796,-0.165336,0.0,0.0
624,155.75,72.6124,78.0924,133.1,99.0388,100.641,0.00257497,0.344153,20.6747,199.446,-0.146023,0.0,0.0
636,158.75,72.5458,77.4761,124.298,98.9777,101.313,0.00246583,0.340889,20.6781,199.115,-0.212228,0.0,0.0
648,161.75,72.2635,77.5693,129.151,98.9314,100.553,0.00236785,0.338672,20.6798,198.795,-0.147913,0.0,0.0
660,164.75,72.279,77.5951,128.738,98.8907,101.106,0.00230013,0.335749,20.6818,198.445,-0.201568,0.0,0.0
672,167.75,72.2954,77.7115,125.994,98.8687,100.725,0.00223535,0.333446,20.6835,198.014,-0.169317,0.0,0.0
684,170.75,72.2315,77.7652,128.9,98.8488,100.419,0.00228672,0.331433,20.6855,197.714,-0.143407,0.0,0.0
696,173.75,71.4237,77.1094,131.271,98.83,101.568,0.00218943,0.330052,20.6863,197.384,-0.248725,0.0,0.0
708,176.75,72.2514,76.8944,129.304,98.8268,101.251,0.00193763,0.32792,20.6906,197.064,-0.22049,0.0,0.0
720,179.75,71.6276,76.966,125.698,98.8025,101.45,0.00189138,0.324449,20.6958,196.753,-0.240604,0.0,0.0
732,182.75,71.8422,76.6244,134.465,98.7945,101.737,0.00203903,0.323001,20.6968,196.403,-0.267115,0.0,0.0
744,185.75,71.3235,76.8862,130.598,98.8096,101.015,0.00211415,0.321567,20.6975,196.123,-0.200839,0.0,0.0
756,188.75,70.9371,76.4421,132.132,98.8096,100.404,0.00199457,0.321091,20.7003,195.792,-0.145622,0.0,0.0
768,191.75,71.2236,76.3028,128.389,98.8284,101.05,0.00189673,0.319097,20.702,195.492,-0.202275,0.0,0.0
780,194.75,71.1944,76.4619,124.619,98.84,102.449,0.00170701,0.317132,20.7045,195.172,-0.326382,0.0,0.0
792,197.75,70.5803,76.1068,131.485,98.8552,101.641,0.00160411,0.315356,20.7074,194.892,-0.252903,0.0,0.0
804,200.75,71.4651,75.2878,130.645,98.8631,101.214,0.001723,0.312412,20.7102,194.541,-0.213867,0.0,0.0
816,203.75,70.6587,75.7306,135.418,98.8791,101.565,0.00185282,0.309131,20.7128,194.261,-0.243882,0.0,0.0
828,206.75,70.3089,75.1991,127.907,98.8835,102.473,0.00185392,0.307983,20.7135,194.001,-0.324496,0.0,0.0
840,209.75,70.2959,75.2818,125.061,98.9015,101.142,0.00183901,0.30756,20.7146,193.711,-0.203899,0.0,0.0
852,212.75,69.9052,75.1083,136.84,98.9118,102.366,0.00187597,0.30574,20.7181,193.39,-0.312406,0.0,0.0
864,215.75,70.2618,75.0243,125.296,98.9386,101.648,0.00183866,0.303926,20.7219,193.09,-0.24587,0.0,0.0
876,218.75,70.191,74.7637,130.922,98.959,102.179,0.00189141,0.301749,20.7233,192.77,-0.291364,0.0,0.0
888,221.75,69.9193,74.59,129.175,98.9713,101.987,0.00206923,0.300199,20.7238,192.449,-0.273165,0.0,0.0
900,224.75,69.9811,74.447,126.632,98.9997,102.216,0.00216427,0.299053,20.7249,192.179,-0.290908,0.0,0.0
912,227.75,70.1794,74.0192,131.053,99.0308,101.733,0.00206863,0.297742,20.7252,191.889,-0.245007,0.0,0.0
924,230.75,69.6056,74.1695,133.645,99.0392,101.761,0.00206828,0.295889,20.7254,191.549,-0.246734,0.0,0.0
936,233.75,69.348,74.0082,130.695,99.0612,102.212,0.0022212,0.29475,20.7265,191.278,-0.284937,0.0,0.0
948,236.75,69.1812,74.3042,128.635,99.0771,102.313,0.00222229,0.294047,20.7268,190.958,-0.292447,0.0,0.0
960,239.75,69.5602,73.9535,129.464,99.1271,102.062,0.0019599,0.292485,20.729,190.648,-0.265567,0.0,0.0
972,242.75,69.2831,73.7772,131.404,99.1618,102.101,0.00170969,0.290131,20.7321,190.308,-0.265791,0.0,0.0
984,245.75,68.5634,73.7823,129.752,99.2061,101.866,0.0018007,0.288805,20.7327,189.977,-0.24079,0.0,0.0
996,248.75,69.414,73.6193,130.872,99.248,102.637,0.00182315,0.287864,20.7343,189.697,-0.305556,0.0,0.0
1008,251.75,69.1858,72.9644,130.354,99.2947,102.182,0.0017541,0.286798,20.735,189.387,-0.26082,0.0,0.0
1020,254.75,69.4376,73.0463,129.848,99.3307,102.749,0.00169881,0.285739,20.7363,189.087,-0.307878,0.0,0.0
1032,257.75,69.1164,73.1192,137.733,99.3634,102.34,0.0017402,0.284699,20.7376,188.786,-0.268594,0.0,0.0
1044,260.75,68.8585,73.1726,129.583,99.4125,102.29,0.00160053,0.283354,20.7389,188.496,-0.259651,0.0,0.0
1056,263.75,69.2458,73.3145,131.109,99.4456,102.225,0.00168288,0.282907,20.7403,188.236,-0.250848,0.0,0.0
1068,266.75,68.9264,72.8882,133.539,99.496,102.769,0.00189313,0.281946,20.7426,187.885,-0.294542,0.0,0.0
1080,269.75,68.3941,72.9538,134.136,99.5455,102.866,0.00196497,0.281148,20.7435,187.655,-0.298624,0.0,0.0
1092,272.75,69.1636,72.7317,132.52,99.5974,102.144,0.00190781,0.280697,20.743,187.395,-0.229796,0.0,0.0
1104,275.75,68.5647,72.4862,128.774,99.6465,102.405,0.00175428,0.280751,20.7439,187.085,-0.248509,0.0,0.0
1116,278.75,68.3927,72.7552,132.365,99.686,102.606,0.00171585,0.279357,20.7462,186.784,-0.262771,0.0,0.0
1128,281.75,68.3357,72.9119,130.654,99.7291,103.656,0.00167735,0.279164,20.747,186.504,-0.351417,0.0,0.0
1140,284.75,68.2816,72.8609,126.387,99.7527,102.699,0.00173544,0.278686,20.7472,186.204,-0.26491,0.0,0.0
1152,287.75,68.3141,71.8899,130.502,99.7798,103.356,0.00171994,0.277895,20.7473,185.904,-0.320464,0.0,0.0
1164,290.75,68.5929,72.2167,127.147,99.809,102.941,0.00170506,0.277549,20.7481,185.633,-0.281177,0.0,0.0
1176,293.75,68.4429,72.2262,129.644,99.8357,103.68,0.00175077,0.277154,20.7492,185.333,-0.34387,0.0,0.0
1188,296.75,69.2892,71.8671,128.986,99.8649,103.225,0.00181314,0.276042,20.7504,185.023,-0.301167,0.0,0.0
1200,299.75,68.5813,72.2215,133.58,99.8796,102.985,0.00167871,0.27408,20.7515,184.743,-0.278637,0.0,0.0
1212,302.75,68.5275,72.044,126.699,99.8912,103.173,0.00167456,0.273842,20.752,184.442,-0.29416,0.0,0.0
1224,305.75,68.7905,72.3844,130.431,99.8836,103.078,0.00202085,0.272551,20.7535,184.172,-0.286506,0.0,0.0
1236,308.75,68.6495,72.316,132.823,99.876,103.276,0.00218203,0.270928,20.7567,183.822,-0.304672,0.0,0.0
1248,311.75,68.4989,72.1716,128.834,99.8653,103.665,0.00200383,0.269929,20.758,183.532,-0.339833,0.0,0.0
1260,314.75,68.3891,72.0885,133.258,99.8593,102.54,0.00174901,0.269666,20.7573,183.211,-0.241093,0.0,0.0
1272,317.75,68.0541,72.1655,128.618,99.8177,103.277,0.00180562,0.268001,20.7583,182.921,-0.310025,0.0,0.0
1284,320.75,68.4799,72.0628,131.643,99.7874,102.826,0.00177753,0.267787,20.759,182.611,-0.272947,0.0,0.0
1296,323.75,68.4358,71.8685,129.234,99.7387,102.889,0.00178724,0.26718,20.7613,182.311,-0.283007,0.0,0.0
1308,326.75,68.1361,71.8213,128.238,99.6976,103.685,0.00188612,0.266422,20.7608,182.04,-0.356905,0.0,0.0
1320,329.75,68.0254,71.5176,132.672,99.6353,102.785,0.00196814,0.26578,20.7618,181.75,-0.283203,0.0,0.0
1332,332.75,68.1737,71.7646,130.586,99.5738,103.038,0.00201446,0.264864,20.7622,181.45,-0.311238,0.0,0.0
1344,335.75,68.4245,71.9678,131.44,99.5383,102.328,0.00197707,0.264216,20.7623,181.16,-0.25155,0.0,0.0
1356,338.75,68.3491,71.6773,130.098,99.4987,103.096,0.00201981,0.26359,20.7639,180.879,-0.32323,0.0,0.0
1368,341.75,68.4742,71.8198,129.526,99.4536,101.836,0.0018707,0.263255,20.7638,180.629,-0.215416,0.0,0.0
1380,344.75,68.6956,71.1919,132.678,99.3985,103.425,0.00184606,0.263301,20.7644,180.339,-0.36133,0.0,0.0
1392,347.75,68.2504,71.4948,132.444,99.3458,102.985,0.00186901,0.263237,20.7637,180.079,-0.327363,0.0,0.0
1404,350.75,68.0223,71.5605,130.966,99.3051,102.805,0.00188211,0.263844,20.7629,179.798,-0.315203,0.0,0.0
1416,353.75,68.643,71.5788,131.099,99.3582,102.166,0.00196751,0.26354,20.7639,179.528,-0.25364,0.0,0.0
1428,356.75,68.3817,71.5657,132.071,99.589,102.988,0.0019653,0.263054,20.7642,179.248,-0.305436,0.0,0.0
1440,359.75,68.4544,71.4611,130.182,99.7762,103.211,0.00183522,0.263984,20.7621,178.938,-0.308016,0.0,0.0
1452,362.75,68.127,71.8509,130.747,99.9271,103.129,0.00181904,0.263594,20.7635,178.667,-0.287033,0.0,0.0
1464,365.75,67.99,71.9395,129.365,100.045,103.051,0.00182631,0.262675,20.764,178.357,-0.269361,0.0,0.0
1476,368.75,68.1515,71.8619,126.903,100.113,103.184,0.00165493,0.263642,20.7633,178.057,-0.274948,0.0,0.0
1488,371.75,68.7,71.6902,125.995,100.145,103.815,0.0015528,0.26444,20.7627,177.797,-0.327595,0.0,0.0
1500,374.75,68.7376,71.9738,132.838,100.142,103.198,0.0014908,0.263605,20.7634,177.486,-0.27353,0.0,0.0
1512,377.75,68.2534,71.5612,130.21,100.087,104.417,0.00161408,0.262678,20.7648,177.206,-0.385405,0.0,0.0
1524,380.75,68.4586,71.5967,133.485,99.9787,103.357,0.00187486,0.261912,20.7664,176.896,-0.302428,0.0,0.0
1536,383.75,68.329,71.5366,129.512,99.8497,103.294,0.00196638,0.261964,20.7655,176.616,-0.308621,0.0,0.0
1548,386.75,68.3245,71.4981,127.564,99.6624,103.732,0.00188822,0.261722,20.7649,176.285,-0.364222,0.0,0.0
1560,389.75,68.3459,71.4267,131.163,99.7207,102.401,0.00164515,0.261353,20.7648,175.985,-0.24133,0.0,0.0
1572,392.75,68.4067,71.5891,130.402,99.7986,103.642,0.00159435,0.260249,20.766,175.675,-0.343856,0.0,0.0
1584,395.75,68.4813,71.4688,129.162,99.9064,103.168,0.0015615,0.260133,20.768,175.374,-0.29234,0.0,0.0
1596,398.75,68.1876,71.4987,128.883,100.013,103.401,0.00146838,0.259682,20.7699,175.074,-0.303148,0.0,0.0
1608,401.75,68.435,71.3681,127.442,100.129,103.881,0.00147752,0.259527,20.7691,174.814,-0.334807,0.0,0.0
1620,404.75,68.1831,71.7668,132.667,100.244,104.413,0.00151073,0.258906,20.7685,174.514,-0.370835,0.0,0.0
1632,407.75,67.899,71.0822,131.384,100.346,104.13,0.00156275,0.25828,20.7684,174.233,-0.336877,0.0,0.0
1644,410.75,68.5926,71.8041,132.907,100.431,104.746,0.00167191,0.258404,20.7683,173.973,-0.382842,0.0,0.0
1656,413.75,68.3968,71.3256,129.889,100.484,104.117,0.00169718,0.258122,20.7687,173.713,-0.323142,0.0,0.0
1668,416.75,68.4765,71.423,128.736,100.519,104.011,0.00170538,0.257029,20.7701,173.443,-0.310818,0.0,0.0
1680,419.75,68.1052,71.2292,127.432,100.518,104.261,0.00148145,0.256655,20.7704,173.193,-0.332691,0.0,0.0
1692,422.75,68.0356,71.5652,131.049,100.48,104.203,0.00151691,0.257286,20.7706,172.912,-0.331092,0.0,0.0
1704,425.75,68.4534,71.1847,129.168,100.424,103.75,0.00157403,0.256409,20.7706,172.662,-0.296509,0.0,0.0
1716,428.75,68.357,71.1696,133.429,100.343,104.969,0.00149279,0.256919,20.7706,172.372,-0.410153,0.0,0.0
1728,431.75,67.8778,71.0848,133.548,100.231,103.752,0.00159607,0.255599,20.7706,172.112,-0.314191,0.0,0.0
1740,434.75,68.199,71.5276,134.721,100.086,103.737,0.00164155,0.255598,20.7706,171.821,-0.326055,0.0,0.0
1752,437.75,68.152,71.0623,129.725,99.9192,104.29,0.00155951,0.256191,20.7707,171.531,-0.389587,0.0,0.0
1764,440.75,68.2968,71.2333,130.479,99.7391,103.235,0.00151549,0.257297,20.7716,171.271,-0.313468,0.0,0.0
1776,443.75,68.0917,71.1553,130.083,99.5646,102.963,0.00156016,0.25794,20.7708,171.031,-0.305393,0.0,0.0
1788,446.75,67.8668,70.8114,133.023,99.3882,102.428,0.00158478,0.2573,20.7706,170.72,-0.274171,0.0,0.0
1800,449.75,68.5919,71.1269,129.901,99.2233,102.666,0.00162411,0.258245,20.7699,170.46,-0.310382,0.0,0.0
1812,452.75,68.1636,71.5589,128.938,99.0648,103.074,0.00174688,0.259107,20.7697,170.2,-0.361021,0.0,0.0
1824,455.75,68.2452,70.8382,129.653,98.917,102.856,0.00169283,0.258767,20.769,169.9,-0.355378,0.0,0.0
1836,458.75,68.2164,71.305,132.701,98.7933,102.576,0.00167843,0.258838,20.7688,169.619,-0.341918,0.0,0.0
1848,461.75,68.7038,71.2918,133.136,98.713,102.8,0.00180282,0.258849,20.7693,169.299,-0.369186,0.0,0.0
1860,464.75,68.2007,71.2554,132.939,98.6571,102.206,0.00183825,0.258172,20.7717,169.019,-0.321568,0.0,0.0
1872,467.75,68.5542,71.0449,135.161,98.624,102.82,0.00163151,0.258792,20.7716,168.739,-0.379151,0.0,0.0
1884,470.75,68.5624,70.509,130.095,98.6216,102.14,0.00131552,0.258958,20.7699,168.438,-0.319032,0.0,0.0
1896,473.75,68.4044,71.2302,130.616,98.6456,102.081,0.00125609,0.259639,20.7693,168.168,-0.311524,0.0,0.0
1908,476.75,68.5271,71.2687,134.074,98.6811,102.592,0.00148819,0.260494,20.7685,167.878,-0.353696,0.0,0.0
1920,479.75,68.7083,71.2609,133.165,98.7466,102.032,0.00164254,0.26031,20.7682,167.618,-0.297834,0.0,0.0
1932,482.75,68.5528,71.567,127.739,98.8104,102.792,0.00159905,0.260166,20.7682,167.357,-0.359532,0.0,0.0
1944,485.75,68.7142,71.4437,130.111,98.8875,102.329,0.00152783,0.259737,20.768,167.087,-0.311283,0.0,0.0
1956,488.75,68.4154,71.399,131.72,98.9622,102.068,0.00138368,0.260267,20.7669,166.807,-0.281199,0.0,0.0
1968,491.75,68.7176,71.2672,129.067,99.048,103.766,0.00131714,0.260572,20.7672,166.527,-0.423464,0.0,0.0
1980,494.75,68.6865,71.4279,128.582,99.1203,102.92,0.00156576,0.26059,20.7669,166.266,-0.342318,0.0,0.0
1992,497.75,68.6068,71.6565,128.847,99.1929,102.911,0.00175213,0.262661,20.7644,166.016,-0.334892,0.0,0.0
2004,500.75,68.975,71.5052,132.235,99.27,103.149,0.00161886,0.26319,20.7636,165.716,-0.348787,0.0,0.0
2016,503.75,69.0117,71.6199,127.454,99.3107,103.393,0.00142488,0.262945,20.7651,165.366,-0.366561,0.0,0.0
2028,506.75,68.7233,71.5412,133.479,99.3534,102.694,0.00151007,0.261878,20.7655,165.145,-0.300966,0.0,0.0
2040,509.75,68.8615,71.837,128.666,99.4073,102.583,0.00171017,0.26234,20.7669,164.915,-0.286209,0.0,0.0
2052,512.75,69.043,71.657,133.041,99.4524,103.631,0.00152299,0.262786,20.7658,164.665,-0.374564,0.0,0.0
2064,515.75,68.9788,72.1442,130.975,99.4908,104.243,0.00127954,0.263192,20.7653,164.325,-0.4246,0.0,0.0
2076,518.75,69.485,71.9113,128.873,99.5107,103.195,0.00140201,0.263139,20.766,164.085,-0.330875,0.0,0.0
2088,521.75,69.658,71.8747,129.126,99.5451,103.315,0.00150514,0.262756,20.7659,163.854,-0.338252,0.0,0.0
2100,524.75,68.9342,71.9199,131.701,99.5622,102.928,0.00143748,0.262567,20.7665,163.524,-0.302547,0.0,0.0
2112,527.75,69.6457,72.169,128.66,99.5646,103.407,0.00130175,0.262411,20.7669,163.284,-0.344591,0.0,0.0
2124,530.75,69.1769,72.1136,130.538,99.555,103.063,0.00118452,0.26255,20.7671,163.034,-0.31514,0.0,0.0
2136,533.75,68.8263,71.6693,128.068,99.5722,102.894,0.00119958,0.263424,20.7658,162.713,-0.298609,0.0,0.0
2148,536.75,69.1281,72.059,124.253,99.5666,103.27,0.0011772,0.263574,20.7658,162.433,-0.332314,0.0,0.0
2160,539.75,69.2298,71.7273,129.557,99.5666,102.996,0.00116369,0.26398,20.7671,162.153,-0.308156,0.0,0.0
2172,542.75,69.3159,72.0107,129.185,99.5634,103.993,0.0012435,0.264003,20.7668,161.823,-0.396151,0.0,0.0
2184,545.75,69.0638,72.3278,133.364,99.5734,102.867,0.00134641,0.26535,20.7651,161.572,-0.296109,0.0,0.0
2196,548.75,68.9264,71.837,128.616,99.5463,103.902,0.00134185,0.265441,20.765,161.252,-0.389757,0.0,0.0
2208,551.75,69.0795,72.1874,128.468,99.5371,103.543,0.00126888,0.265827,20.7652,160.972,-0.359109,0.0,0.0
2220,554.75,69.5603,71.9688,131.84,99.5195,103.312,0.00129227,0.266172,20.7652,160.651,-0.34039,0.0,0.0
2232,557.75,69.157,72.474,129.347,99.4944,103.335,0.00115353,0.267415,20.7648,160.431,-0.344713,0.0,0.0
2244,560.75,69.6935,72.6117,135.469,99.4437,103.08,0.001061,0.268341,20.7646,160.131,-0.326838,0.0,0.0
2256,563.75,69.2868,72.7495,132.636,99.393,102.632,0.00109662,0.267746,20.7638,159.861,-0.291798,0.0,0.0
2268,566.75,69.495,72.4121,126.138,99.361,103.295,0.0011857,0.268127,20.7627,159.571,-0.353388,0.0,0.0
2280,569.75,69.4711,72.4074,132.113,99.3135,103.044,0.0010742,0.268388,20.7621,159.3,-0.335576,0.0,0.0
2292,572.75,69.5434,72.3116,127.993,99.2788,102.808,0.000873172,0.268128,20.7616,158.93,-0.317898,0.0,0.0
2304,575.75,69.5226,72.422,130.934,99.24,103.469,0.000864895,0.269744,20.7586,158.79,-0.379774,0.0,0.0
2316,578.75,69.7556,72.5927,131.159,99.1977,102.799,0.00104118,0.271512,20.7571,158.53,-0.324532,0.0,0.0
2328,581.75,69.7788,72.1133,130.827,99.1598,102.41,0.00116879,0.270315,20.7597,158.289,-0.293545,0.0,0.0
2340,584.75,69.7646,72.9376,135.49,99.0995,102.877,0.00107812,0.271095,20.7596,157.999,-0.340401,0.0,0.0
2352,587.75,69.6952,72.525,133.294,99.054,102.796,0.00116532,0.270975,20.7603,157.679,-0.337409,0.0,0.0
2364,590.75,69.8977,72.5048,129.4,99.0141,103.058,0.00139313,0.27002,20.7607,157.459,-0.364289,0.0,0.0
2376,593.75,69.9198,72.7449,134.86,98.9813,103.634,0.00129945,0.269737,20.7604,157.168,-0.418053,0.0,0.0
2388,596.75,69.9777,72.6289,128.924,98.9542,103.134,0.00123031,0.271015,20.7591,156.888,-0.376473,0.0,0.0
2400,599.75,69.8153,72.6229,127.801,98.9115,102.472,0.00121149,0.271253,20.7583,156.628,-0.321845,0.0,0.0
2412,602.75,69.7649,72.4634,131.852,98.8883,101.948,0.00124468,0.271086,20.7579,156.318,-0.277348,0.0,0.0
2424,605.75,69.6311,72.8308,131.488,98.8548,102.278,0.00118377,0.272231,20.7567,156.027,-0.309811,0.0,0.0
2436,608.75,69.7868,72.4278,128.386,98.8556,102.496,0.00113576,0.273612,20.7543,155.757,-0.329109,0.0,0.0
2448,611.75,69.51,72.4005,129.783,98.8408,102.677,0.00098225,0.274319,20.7534,155.477,-0.346486,0.0,0.0
2460,614.75,69.7128,72.7547,126.939,98.8244,102.469,0.000702958,0.274633,20.7532,155.137,-0.329616,0.0,0.0
2472,617.75,70.5016,72.6201,134.29,98.8336,102.773,0.000580097,0.274501,20.7538,154.836,-0.355645,0.0,0.0
2484,620.75,70.0786,72.9446,130.279,98.832,102.32,0.000751654,0.274781,20.7528,154.566,-0.315672,0.0,0.0
2496,623.75,69.9019,72.8492,133.354,98.8372,102.507,0.000928576,0.276549,20.7511,154.236,-0.331798,0.0,0.0
2508,626.75,70.4303,72.7992,128.996,98.8647,102.941,0.000941754,0.278687,20.7506,153.986,-0.367718,0.0,0.0
2520,629.75,69.9893,73.1573,129.175,98.8751,102.168,0.000946853,0.278673,20.7505,153.685,-0.298155,0.0,0.0
2532,632.75,70.1473,72.6581,128.72,98.9003,103.23,0.00110753,0.27895,20.7504,153.385,-0.38989,0.0,0.0
2544,635.75,70.1967,73.0493,128.694,98.941,102.233,0.00114052,0.278498,20.7513,153.045,-0.297827,0.0,0.0
2556,638.75,69.7723,73.3444,131.536,98.9809,102.444,0.00113029,0.279387,20.749,152.765,-0.312976,0.0,0.0
2568,641.75,69.7475,72.614,128.569,99.0308,102.886,0.00112515,0.280439,20.7472,152.504,-0.347546,0.0,0.0
2580,644.75,69.3458,72.9142,129.628,99.0783,103.148,0.0011099,0.281977,20.7461,152.264,-0.366292,0.0,0.0
2592,647.75,70.0959,73.1033,132.691,99.133,102.984,0.00126099,0.282584,20.745,152.004,-0.346836,0.0,0.0
2604,650.75,70.3682,73.0938,129.498,99.2065,103.898,0.00119699,0.283664,20.7447,151.714,-0.420476,0.0,0.0
2616,653.75,69.82,73.1328,127.378,99.2868,103.083,0.00104446,0.284419,20.7435,151.463,-0.341487,0.0,0.0
2628,656.75,70.5494,73.4884,128.466,99.3454,103.638,0.000918998,0.286029,20.7403,151.163,-0.384994,0.0,0.0
2640,659.75,70.82,73.302,126.643,99.4241,103.125,0.000968141,0.286932,20.7394,150.863,-0.332564,0.0,0.0
2652,662.75,70.7608,73.4594,127.38,99.5035,103.93,0.000989908,0.288173,20.7368,150.613,-0.396109,0.0,0.0
2664,665.75,70.9086,73.4744,127.691,99.573,103.126,0.00102272,0.289689,20.7356,150.302,-0.319102,0.0,0.0
2676,668.75,70.8505,73.8052,129.394,99.6165,103.212,0.000998168,0.290284,20.7358,149.962,-0.322673,0.0,0.0
2688,671.75,70.6557,74.0686,128.277,99.6752,103.317,0.000969303,0.291257,20.7346,149.692,-0.32656,0.0,0.0
2700,674.75,70.8414,73.6931,128.524,99.7223,104.081,0.00104051,0.291705,20.7339,149.402,-0.38932,0.0,0.0
2712,677.75,70.8807,73.6851,130.405,99.7646,103.813,0.00106731,0.294208,20.7314,149.091,-0.362002,0.0,0.0
2724,680.75,70.7598,73.7588,131.688,99.7986,103.661,0.00105968,0.297173,20.7281,148.791,-0.345596,0.0,0.0
2736,683.75,71.4155,74.0543,129.161,99.8114,103.063,0.00102312,0.300013,20.7243,148.481,-0.29174,0.0,0.0
2748,686.75,71.5467,74.8227,128.346,99.8281,103.775,0.000930012,0.30296,20.7209,148.17,-0.352897,0.0,0.0
2760,689.75,71.5709,74.5613,127.121,99.8581,103.189,0.000773144,0.304668,20.7192,147.85,-0.298609,0.0,0.0
2772,692.75,71.8297,74.6196,129.435,99.8513,103.707,0.000829742,0.306092,20.7169,147.5,-0.344783,0.0,0.0
2784,695.75,71.7713,74.3684,127.073,99.8689,103.311,0.00101499,0.308883,20.7136,147.19,-0.308381,0.0,0.0
2796,698.75,72.2095,75.28,129.692,99.8529,104.269,0.00110471,0.3112,20.7115,146.879,-0.393856,0.0,0.0
2808,701.75,72.5678,74.7975,131.159,99.8425,103.172,0.00111888,0.312616,20.7096,146.569,-0.298558,0.0,0.0
2820,704.75,72.4052,74.4318,126.113,99.8357,103.677,0.00103396,0.315135,20.7074,146.249,-0.343553,0.0,0.0
2832,707.75,72.8204,75.759,130.825,99.817,103.788,0.00107839,0.316919,20.7058,145.939,-0.354982,0.0,0.0
2844,710.75,72.8751,75.4221,130.991,99.795,103.187,0.00114506,0.318445,20.7035,145.598,-0.30416,0.0,0.0
2856,713.75,72.8454,75.4013,132.787,99.7702,103.292,0.0010987,0.321257,20.7013,145.288,-0.315667,0.0,0.0
2868,716.75,73.0316,75.5549,127.428,99.7359,103.815,0.000958336,0.322895,20.6987,144.948,-0.364782,0.0,0.0
2880,719.75,73.4477,75.769,132.655,99.7068,103.242,0.00096577,0.327623,20.692,144.637,-0.317094,0.0,0.0
2892,722.75,73.0141,75.9111,130.552,99.6836,103.351,0.00107895,0.332931,20.6869,144.347,-0.328808,0.0,0.0
2904,725.75,73.8275,76.066,127.266,99.6509,103.701,0.00104076,0.335308,20.6838,144.027,-0.362554,0.0,0.0
2916,728.75,73.8708,76.48,127.022,99.6129,101.963,0.00105957,0.33715,20.6821,143.697,-0.212191,0.0,0.0
2928,731.75,74.1432,76.8785,127.973,99.569,103.159,0.00109573,0.340925,20.6779,143.346,-0.322329,0.0,0.0
2940,734.75,74.2395,76.9086,126.297,99.5359,103.025,0.00109897,0.344167,20.6749,143.016,-0.313512,0.0,0.0
2952,737.75,74.7582,77.4605,124.574,99.5015,102.436,0.00122507,0.347894,20.6722,142.636,-0.264516,0.0,0.0
2964,740.75,75.1285,77.8377,127.724,99.4832,103.451,0.00136137,0.351494,20.6676,142.315,-0.355882,0.0,0.0
2976,743.75,75.0552,77.4968,127.82,99.4548,103.125,0.00133794,0.355329,20.6638,141.965,-0.32979,0.0,0.0
2988,746.75,75.2463,77.6966,131.048,99.4273,103.344,0.00129738,0.359221,20.6594,141.605,-0.351643,0.0,0.0
3000,749.75,75.6517,78.0149,125.208,99.3989,102.815,0.00139601,0.36342,20.6545,141.254,-0.307486,0.0,0.0
3012,752.75,75.5959,78.3237,125.955,99.3702,102.053,0.00140275,0.365981,20.6509,140.884,-0.24247,0.0,0.0
3024,755.75,75.7234,78.3702,124.204,99.3387,102.261,0.00139802,0.369291,20.6477,140.544,-0.263851,0.0,0.0
3036,758.75,76.3163,78.8537,125.584,99.3171,102.179,0.00130717,0.372332,20.6433,140.173,-0.25849,0.0,0.0
3048,761.75,76.5173,79.2264,126.029,99.2768,102.247,0.00128661,0.375969,20.6381,139.793,-0.26832,0.0,0.0
3060,764.75,77.0083,79.5084,123.752,99.2556,102.211,0.00133766,0.380213,20.6325,139.393,-0.266973,0.0,0.0
3072,767.75,76.9395,79.2986,121.554,99.2576,101.388,0.001469,0.384989,20.6272,138.992,-0.193284,0.0,0.0
3084,770.75,77.3311,80.0291,126.413,99.3686,102.025,0.00162147,0.388877,20.623,138.602,-0.240126,0.0,0.0
3096,773.75,77.2667,80.3468,123.521,99.5075,101.877,0.00171735,0.39209,20.6192,138.222,-0.214186,0.0,0.0
3108,776.75,77.4936,80.3987,121.895,99.6501,102.125,0.00180569,0.394627,20.6159,137.841,-0.223297,0.0,0.0
3120,779.75,78.3551,80.8144,120.567,99.7866,101.931,0.00178837,0.399544,20.61,137.471,-0.193525,0.0,0.0
3132,782.75,78.1288,80.5985,122.404,99.8924,102.053,0.00176867,0.403412,20.6061,137.071,-0.19469,0.0,0.0
3144,785.75,78.151,81.0906,127.303,99.9735,102.467,0.00179366,0.405641,20.604,136.68,-0.224217,0.0,0.0
3156,788.75,78.6328,81.804,128.625,100.047,101.745,0.00175241,0.407445,20.602,136.3,-0.153198,0.0,0.0
3168,791.75,79.3376,81.7756,128.551,100.08,102.39,0.00185578,0.412107,20.5955,135.89,-0.207601,0.0,0.0
3180,794.75,79.4121,81.991,124.397,100.09,102.276,0.00210121,0.417236,20.5902,135.509,-0.196638,0.0,0.0
3192,797.75,78.6988,82.3941,125.688,100.071,102.102,0.00227565,0.41975,20.5867,135.149,-0.182902,0.0,0.0
3204,800.75,79.3922,82.228,123.921,100.007,102.334,0.00228672,0.423263,20.5819,134.759,-0.20928,0.0,0.0
3216,803.75,79.8544,83.1728,131.189,99.8908,101.851,0.00221185,0.426285,20.5792,134.328,-0.176828,0.0,0.0
3228,806.75,79.9769,82.8196,123.632,99.7331,101.301,0.00215544,0.43045,20.5753,133.948,-0.141948,0.0,0.0
3240,809.75,81.1415,83.7735,124.34,99.6465,101.513,0.0021436,0.433354,20.5696,133.528,-0.16893,0.0,0.0
3252,812.75,80.8039,84.0789,123.542,99.7351,102.16,0.00205058,0.436796,20.5653,133.117,-0.218583,0.0,0.0
3264,815.75,81.4439,84.6201,126.974,99.8441,101.439,0.00231244,0.4411,20.561,132.717,-0.144196,0.0,0.0
3276,818.75,81.5834,84.4234,124.023,99.9699,101.241,0.00260602,0.443974,20.5573,132.296,-0.114948,0.0,0.0
3288,821.75,81.6738,84.6194,126.043,100.105,101.137,0.002687,0.447411,20.5534,131.886,-0.0933618,0.0,0.0
3300,824.75,81.9304,84.9449,124.677,100.234,101.292,0.00250419,0.45051,20.5492,131.446,-0.0956101,0.0,0.0
3312,827.75,81.931,85.1964,130.558,100.372,101.593,0.00228549,0.453548,20.5452,131.015,-0.109985,0.0,0.0
3324,830.75,82.5084,85.816,125.165,100.437,102.19,0.00221549,0.456773,20.5422,130.625,-0.157416,0.0,0.0
3336,833.75,82.43,85.6628,122.863,100.479,101.688,0.00220084,0.459978,20.5381,130.175,-0.108872,0.0,0.0
3348,836.75,83.0555,86.1559,131.135,100.477,101.516,0.00243246,0.461319,20.5359,129.734,-0.0936819,0.0,0.0
3360,839.75,83.2069,86.6211,123.087,100.429,101.063,0.00233103,0.465057,20.53,129.284,-0.0572455,0.0,0.0
3372,842.75,83.0385,86.6302,123.529,100.351,101.075,0.00212254,0.468969,20.5263,128.813,-0.0653981,0.0,0.0
3384,845.75,83.5694,86.5081,124.574,100.231,101.58,0.00223016,0.471701,20.5245,128.343,-0.121638,0.0,0.0
3396,848.75,83.3003,87.1794,127.624,100.088,101.016,0.00240586,0.47274,20.5229,127.933,-0.084012,0.0,0.0
3408,851.75,83.7417,87.1834,120.01,99.9136,100.102,0.00241178,0.476416,20.5185,127.492,-0.0171686,0.0,0.0
3420,854.75,84.4099,87.4421,122.158,99.7303,99.7321,0.00231057,0.47934,20.5145,127.072,-0.000162727,0.0,0.0
3432,857.75,84.1453,87.5428,121.621,99.5267,99.4709,0.00220276,0.48171,20.5106,126.612,0.00510057,0.0,0.0
3444,860.75,84.6385,88.074,125.148,99.3371,100.241,0.00227762,0.483031,20.5077,126.181,-0.0824722,0.0,0.0
3456,863.75,84.5787,88.0332,122.761,99.1622,99.7474,0.00234109,0.486461,20.5029,125.721,-0.0535498,0.0,0.0
3468,866.75,84.5632,88.0998,117.527,99.0017,99.2012,0.00237115,0.489584,20.5005,125.31,-0.0183208,0.0,0.0
3480,869.75,84.7228,88.4969,123.898,98.8544,99.4011,0.00242524,0.489909,20.4998,124.89,-0.0501954,0.0,0.0
3492,872.75,84.7605,88.2912,126.02,98.745,98.9986,0.00263927,0.488509,20.5007,124.45,-0.0233409,0.0,0.0
3504,875.75,85.7234,89.3065,124.997,98.6719,98.9292,0.00287889,0.487489,20.5011,124.029,-0.0237004,0.0,0.0
3516,878.75,85.0958,88.8566,120.865,98.6479,98.8657,0.00299094,0.491281,20.4971,123.579,-0.0200672,0.0,0.0
3528,881.75,85.5965,89.2383,121.29,98.6499,99.153,0.00312906,0.494116,20.4942,123.138,-0.0462894,0.0,0.0
3540,884.75,85.8577,89.209,121.68,98.6711,98.487,0.0030609,0.493874,20.495,122.728,0.0169944,0.0,0.0
3552,887.75,85.6691,89.5147,118.146,98.7406,99.3723,0.0028037,0.492992,20.4953,122.248,-0.0580376,0.0,0.0
3564,890.75,85.7142,89.6052,120.851,98.8404,99.3196,0.00256432,0.493053,20.4937,121.807,-0.0440174,0.0,0.0
3576,893.75,85.6711,89.892,123.498,98.9358,100.102,0.0025338,0.493329,20.4928,121.357,-0.106664,0.0,0.0
3588,896.75,85.7598,89.6259,125.013,99.0696,100.666,0.00271139,0.494047,20.4913,120.896,-0.145479,0.0,0.0
3600,899.75,86.5164,90.155,121.426,99.2009,99.0085,0.00278375,0.493521,20.4917,120.506,0.0176711,0.0,0.0
3612,902.75,86.6199,90.0018,124.433,99.3195,99.42,0.00277402,0.492142,20.4932,120.036,-0.00920898,0.0,0.0
3624,905.75,86.3729,90.4192,118.38,99.462,99.8226,0.00288776,0.489146,20.4981,119.615,-0.0329329,0.0,0.0
3636,908.75,86.8468,90.9765,121.36,99.5758,100.447,0.00283725,0.48673,20.5008,119.215,-0.0792483,0.0,0.0
3648,911.75,86.6381,90.7884,124.713,99.6908,100.589,0.00264436,0.484718,20.4994,118.725,-0.0815883,0.0,0.0
3660,914.75,86.5278,91.0212,124.922,99.7499,100.336,0.00247755,0.484674,20.4995,118.344,-0.0533125,0.0,0.0
3672,917.75,86.8599,91.0879,120.901,99.8086,99.9451,0.00253439,0.481625,20.5026,117.864,-0.0124397,0.0,0.0
3684,920.75,86.6829,90.9681,119.497,99.8401,99.4552,0.00268252,0.479888,20.5054,117.473,0.0351546,0.0,0.0
3696,923.75,86.4095,91.0511,123.284,99.8381,100.478,0.00280161,0.477788,20.5078,117.103,-0.0581227,0.0,0.0
3708,926.75,87.0401,91.4146,127.791,99.8373,100.231,0.00275494,0.474881,20.5122,116.713,-0.0357767,0.0,0.0
3720,929.75,86.7938,91.1142,121.414,99.8138,101.001,0.00267361,0.46794,20.5199,116.272,-0.10761,0.0,0.0
3732,932.75,86.4161,91.1999,122.794,99.7786,99.7938,0.00283397,0.462381,20.5251,115.882,-0.00138328,0.0,0.0
3744,935.75,86.8662,90.946,124.257,99.7475,100.397,0.00292241,0.457627,20.5301,115.542,-0.0590432,0.0,0.0
3756,938.75,86.6238,90.8885,123.836,99.7115,100.047,0.00264132,0.451927,20.5371,115.151,-0.0305929,0.0,0.0
3768,941.75,86.598,91.1516,127.909,99.6672,100.23,0.00236827,0.444686,20.5438,114.801,-0.0512525,0.0,0.0
3780,944.75,86.2017,91.1689,124.217,99.6289,98.6964,0.0024015,0.438833,20.5498,114.521,0.0855775,0.0,0.0
3792,947.75,86.2087,90.7243,127.444,99.583,100.427,0.00241487,0.432174,20.5579,114.08,-0.0767962,0.0,0.0
3804,950.75,85.9913,90.6682,124.261,99.5363,99.7591,0.00231854,0.426589,20.5646,113.72,-0.0203516,0.0,0.0
3816,953.75,85.572,90.3825,126.694,99.5111,100.303,0.00240123,0.41969,20.5731,113.36,-0.0721374,0.0,0.0
3828,956.75,85.275,90.332,125.169,99.4652,100.23,0.00232197,0.413476,20.5792,113.05,-0.0697167,0.0,0.0
3840,959.75,85.2622,89.8603,125.271,99.4476,100.058,0.00227257,0.404522,20.5909,112.689,-0.0556518,0.0,0.0
3852,962.75,84.5504,89.7852,125.202,99.4097,100.697,0.00194617,0.396253,20.5995,112.399,-0.117054,0.0,0.0
3864,965.75,84.8081,89.6674,128.917,99.3858,99.9388,0.00171397,0.390649,20.6046,112.039,-0.0504976,0.0,0.0
3876,968.75,84.5396,89.2408,126.49,99.3858,100.806,0.00181806,0.384207,20.611,111.718,-0.129131,0.0,0.0
3888,971.75,84.098,88.7877,125.781,99.375,100.956,0.00183285,0.374365,20.6216,111.468,-0.143685,0.0,0.0
3900,974.75,83.2338,88.7234,125.946,99.3726,101.405,0.00176811,0.365289,20.6319,111.168,-0.184203,0.0,0.0
3912,977.75,83.2645,88.2466,125.196,99.3706,101.252,0.00175789,0.360835,20.6375,110.918,-0.170717,0.0,0.0
3924,980.75,82.7828,88.1584,127.44,99.379,100.092,0.00164709,0.352975,20.6463,110.657,-0.065091,0.0,0.0
3936,983.75,82.5236,87.5767,123.834,99.391,101.86,0.00152961,0.344974,20.6544,110.277,-0.223326,0.0,0.0
3948,986.75,81.8344,87.1359,126.113,99.3838,101.671,0.00166385,0.338797,20.6625,109.967,-0.207031,0.0,0.0
3960,989.75,81.4195,87.1778,130.786,99.3806,101.481,0.00169898,0.330956,20.671,109.717,-0.19034,0.0,0.0
3972,992.75,80.7229,86.1387,130.601,99.4017,101.538,0.00139995,0.326383,20.6769,109.436,-0.193529,0.0,0.0
3984,995.75,80.5923,85.995,128.963,99.4049,101.821,0.00127962,0.32139,20.6832,109.236,-0.218505,0.0,0.0
3996,998.75,80.2611,85.5249,128.45,99.4353,101.818,0.00131469,0.316021,20.6892,108.996,-0.215486,0.0,0.0
4008,1001.75,80.1554,85.3387,127.985,99.4636,102.535,0.00139128,0.30928,20.6979,108.736,-0.276742,0.0,0.0
4020,1004.75,79.6166,84.8005,128.844,99.5043,101.971,0.00153193,0.300777,20.7083,108.486,-0.222801,0.0,0.0
4032,1007.75,78.8527,83.7926,127.133,99.5419,102.795,0.0013855,0.292092,20.7181,108.285,-0.292616,0.0,0.0
4044,1010.75,78.613,83.8101,127.961,99.595,103.367,0.0012366,0.284914,20.7267,108.045,-0.33829,0.0,0.0
4056,1013.75,77.8395,83.4561,123.766,99.6437,102.87,0.00118061,0.277081,20.7348,107.865,-0.289969,0.0,0.0
4068,1016.75,77.5805,82.7248,129.247,99.6796,103.385,0.00112342,0.267414,20.7464,107.745,-0.332145,0.0,0.0
4080,1019.75,77.0693,82.2805,132.551,99.7076,103.241,0.00107129,0.259483,20.7559,107.605,-0.316941,0.0,0.0
4092,1022.75,76.4176,81.9294,131.436,99.7543,103.363,0.00104405,0.250597,20.7658,107.405,-0.323429,0.0,0.0
4104,1025.75,75.8625,81.3798,130.685,99.7666,103.361,0.00103971,0.241697,20.7759,107.284,-0.322102,0.0,0.0
4116,1028.75,75.4641,80.7209,133.434,99.781,104.086,0.00114647,0.234017,20.7848,107.074,-0.384359,0.0,0.0
4128,1031.75,74.7156,80.1838,132.663,99.797,103.938,0.00132681,0.225575,20.7949,106.934,-0.36998,0.0,0.0
4140,1034.75,74.1665,79.4523,130.347,99.797,103.36,0.00133503,0.218395,20.8018,106.804,-0.319256,0.0,0.0
4152,1037.75,73.322,78.811,136.173,99.805,103.482,0.00117054,0.210564,20.8074,106.704,-0.329226,0.0,0.0
4164,1040.75,73.1519,78.3797,133.691,99.7942,104.123,0.00119285,0.203136,20.814,106.534,-0.386464,0.0,0.0
4176,1043.75,72.2164,77.861,131.659,99.7786,103.863,0.00122296,0.1966,20.8207,106.444,-0.365068,0.0,0.0
4188,1046.75,71.5758,76.9633,132.848,99.7599,103.639,0.00106462,0.19129,20.8264,106.324,-0.347151,0.0,0.0
4200,1049.75,71.1557,76.7282,135.228,99.7375,103.104,0.00102209,0.186621,20.8314,106.163,-0.302094,0.0,0.0
4212,1052.75,70.5364,76.0605,134.463,99.7088,103.346,0.00112817,0.180747,20.8369,106.093,-0.326036,0.0,0.0
4224,1055.75,70.1369,75.016,129.615,99.6736,103.192,0.00129397,0.175362,20.8434,105.973,-0.315672,0.0,0.0
4236,1058.75,69.7051,74.3527,131.965,99.6425,103.303,0.00143209,0.169157,20.8511,105.823,-0.328319,0.0,0.0
4248,1061.75,68.9587,74.0589,137.15,99.6081,103.619,0.00162405,0.163898,20.8564,105.693,-0.359261,0.0,0.0
4260,1064.75,68.3875,73.4334,134.004,99.573,103.616,0.00157768,0.158149,20.8639,105.633,-0.362194,0.0,0.0
4272,1067.75,68.0043,72.9937,133.481,99.555,103.599,0.00169398,0.152839,20.8706,105.543,-0.362373,0.0,0.0
4284,1070.75,67.1361,72.4878,131.63,99.5379,102.872,0.00181369,0.147406,20.8776,105.483,-0.299835,0.0,0.0
4296,1073.75,66.9371,71.1749,138.439,99.5303,102.368,0.00196278,0.141761,20.883,105.393,-0.255804,0.0,0.0
4308,1076.75,65.8871,70.6661,136.491,99.5247,103.527,0.00202485,0.137419,20.8875,105.353,-0.358815,0.0,0.0
4320,1079.75,65.6447,70.2696,134.692,99.5283,103.933,0.00220048,0.13599,20.8888,105.313,-0.394042,0.0,0.0
4332,1082.75,64.975,69.4306,136.164,99.5443,103.508,0.00237997,0.136279,20.8886,105.203,-0.355325,0.0,0.0
4344,1085.75,64.395,69.0504,137.371,99.555,104.003,0.00256957,0.135859,20.8899,105.113,-0.397784,0.0,0.0
4356,1088.75,63.9137,68.3355,135.711,99.5746,102.921,0.0024933,0.133749,20.8917,105.043,-0.300819,0.0,0.0
4368,1091.75,63.8582,68.0764,136.381,99.6113,103.293,0.00224434,0.13201,20.8938,105.053,-0.330252,0.0,0.0
4380,1094.75,63.471,67.3622,134.359,99.6281,102.514,0.00213039,0.130496,20.8945,104.992,-0.259866,0.0,0.0
4392,1097.75,62.7001,66.7752,137.898,99.6537,103.363,0.00205208,0.129063,20.8963,104.972,-0.332612,0.0,0.0
4404,1100.75,62.4132,66.0026,135.025,99.6908,103.575,0.00209965,0.127936,20.8978,104.902,-0.347876,0.0,0.0
4416,1103.75,62.2708,65.856,133.52,99.7112,103.737,0.00219264,0.126708,20.8973,104.892,-0.36017,0.0,0.0
4428,1106.75,61.748,65.5212,136.408,99.7427,103.616,0.00212852,0.127554,20.8975,104.862,-0.34666,0.0,0.0
4440,1109.75,61.5845,64.9762,138.736,99.775,103.105,0.00204369,0.128446,20.8961,104.782,-0.29879,0.0,0.0
4452,1112.75,61.4269,64.7879,136.244,99.7978,103.129,0.00200421,0.128134,20.8982,104.752,-0.298781,0.0,0.0
4464,1115.75,61.0171,64.7405,133.804,99.8114,103.438,0.00218395,0.127476,20.8989,104.702,-0.324801,0.0,0.0
4476,1118.75,60.0854,63.4455,138.617,99.8273,103.009,0.0024723,0.127788,20.8983,104.652,-0.285552,0.0,0.0
4488,1121.75,60.9382,64.1287,135.022,99.8273,104.369,0.00248029,0.126992,20.8981,104.612,-0.404867,0.0,0.0
4500,1124.75,60.1358,63.5578,138.219,99.8154,102.781,0.00244414,0.127989,20.8957,104.562,-0.266452,0.0,0.0
4512,1127.75,60.767,63.1857,134.248,99.8022,103.195,0.00250577,0.131091,20.8914,104.502,-0.30426,0.0,0.0
4524,1130.75,60.043,63.1319,136.828,99.7523,103.074,0.00247203,0.13397,20.8891,104.442,-0.298123,0.0,0.0
4536,1133.75,59.813,62.4753,134.665,99.7104,103.56,0.00255005,0.135156,20.889,104.342,-0.344706,0.0,0.0
4548,1136.75,59.4041,62.3817,139.229,99.6624,102.912,0.00268028,0.134757,20.89,104.282,-0.291958,0.0,0.0
4560,1139.75,59.672,61.8568,138.008,99.6089,103.515,0.00268297,0.134765,20.8903,104.232,-0.350008,0.0,0.0
4572,1142.75,59.4456,62.1754,135.589,99.5391,103.619,0.00259685,0.134082,20.8915,104.152,-0.365534,0.0,0.0
4584,1145.75,59.4388,61.4889,134.148,99.4692,102.022,0.00248879,0.129467,20.8986,104.112,-0.230595,0.0,0.0
4596,1148.75,59.0973,61.6855,137.198,99.4053,102.681,0.00255393,0.125785,20.9026,104.072,-0.295017,0.0,0.0
4608,1151.75,58.5995,61.0433,141.888,99.3614,103.013,0.00251813,0.124443,20.9033,104.042,-0.328443,0.0,0.0
4620,1154.75,58.8988,60.7464,136.438,99.3203,102.807,0.00250099,0.124348,20.9013,103.992,-0.313972,0.0,0.0
4632,1157.75,58.3006,60.9618,136.87,99.2919,103.164,0.00269977,0.123391,20.9029,103.962,-0.348124,0.0,0.0
4644,1160.75,58.4265,60.4679,134.827,99.2588,102.015,0.00280897,0.121809,20.9059,103.922,-0.249262,0.0,0.0
4656,1163.75,58.146,60.7259,139.091,99.2277,102.554,0.00277959,0.120181,20.9096,103.881,-0.300074,0.0,0.0
4668,1166.75,58.452,60.3894,132.052,99.1977,102.799,0.00280129,0.119144,20.9102,103.871,-0.324532,0.0,0.0
4680,1169.75,58.0236,59.7358,132.651,99.179,102.735,0.00288771,0.118873,20.9097,103.901,-0.320551,0.0,0.0
4692,1172.75,58.4907,60.125,138.769,99.2856,103.038,0.00276775,0.118661,20.91,103.861,-0.33762,0.0,0.0
4704,1175.75,57.731,59.8465,137.463,99.3786,102.342,0.00270449,0.117621,20.9113,103.821,-0.267404,0.0,0.0
4716,1178.75,58.3285,59.7386,133.829,99.5159,103.487,0.00277931,0.116688,20.9117,103.821,-0.356096,0.0,0.0
4728,1181.75,57.7443,59.0406,135.735,99.6405,103.521,0.00278544,0.116623,20.9104,103.781,-0.347641,0.0,0.0
4740,1184.75,57.9804,59.4295,136.469,99.7471,103.397,0.00279449,0.117643,20.9097,103.731,-0.327058,0.0,0.0
4752,1187.75,57.6963,59.3407,140.829,99.8353,103.502,0.0029781,0.118273,20.9096,103.691,-0.328281,0.0,0.0
4764,1190.75,57.6182,59.0991,135.347,99.9152,103.192,0.00313647,0.117809,20.9105,103.661,-0.293685,0.0,0.0
4776,1193.75,57.2447,58.8763,135.238,99.9587,103.826,0.00306254,0.117015,20.9126,103.611,-0.345425,0.0,0.0
4788,1196.75,57.1803,58.5679,135.265,100.005,103.436,0.00295553,0.115941,20.9137,103.551,-0.307005,0.0,0.0
4800,1199.75,57.1658,59.1559,138.566,100.017,103.305,0.00304767,0.115639,20.9137,103.511,-0.294376,0.0,0.0
4812,1202.75,57.4904,58.9118,133.832,100.013,103.595,0.00320609,0.115758,20.9135,103.481,-0.320177,0.0,0.0
4824,1205.75,57.0196,58.714,138.729,99.9922,103.695,0.00319833,0.115023,20.915,103.441,-0.330879,0.0,0.0
4836,1208.75,57.2122,58.5551,134.674,99.9603,103.517,0.0031814,0.114318,20.9155,103.361,-0.318164,0.0,0.0
4848,1211.75,57.0442,58.7236,138.714,99.9156,102.943,0.00318126,0.113735,20.9157,103.301,-0.271662,0.0,0.0
4860,1214.75,57.1132,58.5441,133.325,99.8557,103.371,0.00316625,0.113986,20.9157,103.231,-0.314816,0.0,0.0
4872,1217.75,57.0163,58.6169,135.569,99.7782,104.14,0.0032633,0.114039,20.9158,103.191,-0.389377,0.0,0.0
4884,1220.75,57.0726,58.4351,136.725,99.6904,103.321,0.00335381,0.113956,20.9158,103.161,-0.325531,0.0,0.0
4896,1223.75,56.8554,58.288,138.117,99.5858,102.99,0.00350006,0.114079,20.9171,103.111,-0.305887,0.0,0.0
4908,1226.75,57.0733,57.7541,138.5,99.5646,103.013,0.00335756,0.113181,20.9177,103.091,-0.309889,0.0,0.0
4920,1229.75,57.2046,58.4881,136.616,99.6046,103.765,0.00309648,0.113341,20.9178,103.061,-0.372354,0.0,0.0
4932,1232.75,56.8735,57.9713,133.329,99.6309,103.032,0.00320127,0.113692,20.9179,103.011,-0.305505,0.0,0.0
4944,1235.75,56.4956,57.9019,138.417,99.6812,103.542,0.00352172,0.113364,20.9174,102.951,-0.345783,0.0,0.0
4956,1238.75,55.2771,56.6088,135.006,99.7379,102.696,0.0037096,0.113134,20.9172,102.961,-0.265978,0.0,0.0
4968,1241.75,55.0417,55.9357,137.463,99.7794,103.39,0.00355186,0.112983,20.9171,102.971,-0.323513,0.0,0.0
4980,1244.75,54.837,55.6911,138.579,99.8441,103.615,0.00334875,0.112848,20.9171,102.951,-0.337333,0.0,0.0
4992,1247.75,55.16,56.1567,136.002,99.912,103.931,0.00334791,0.112891,20.9157,102.941,-0.358871,0.0,0.0
5004,1250.75,54.8026,56.2703,135.322,99.9842,104.181,0.00333959,0.113135,20.9167,102.911,-0.374187,0.0,0.0
5016,1253.75,54.8603,56.1389,137.737,100.051,103.791,0.00352984,0.113001,20.917,102.881,-0.333917,0.0,0.0
5028,1256.75,55.0169,56.0883,136.805,100.108,103.853,0.00388053,0.11254,20.917,102.831,-0.334248,0.0,0.0
5040,1259.75,54.8371,56.1872,138.612,100.182,104.008,0.00401179,0.11261,20.9171,102.791,-0.3411,0.0,0.0
5052,1262.75,54.8787,56.4298,137.766,100.249,103.683,0.00380013,0.11246,20.9171,102.76,-0.306479,0.0,0.0
5064,1265.75,54.8161,56.1886,138.358,100.333,103.688,0.00366275,0.11205,20.9171,102.73,-0.29927,0.0,0.0
5076,1268.75,54.8555,56.0984,137.294,100.37,104.281,0.00362732,0.112298,20.9173,102.71,-0.347843,0.0,0.0
5088,1271.75,54.9474,55.8267,139.735,100.401,103.876,0.00361714,0.112347,20.9176,102.67,-0.309696,0.0,0.0
5100,1274.75,54.5963,55.8454,139.736,100.426,104.152,0.00369072,0.11257,20.9177,102.65,-0.331567,0.0,0.0
5112,1277.75,55.1589,56.0023,139.663,100.443,104.623,0.00371669,0.112523,20.9177,102.62,-0.370999,0.0,0.0
5124,1280.75,54.5485,55.8424,136.483,100.41,103.922,0.00354908,0.111804,20.9194,102.57,-0.31285,0.0,0.0
5136,1283.75,54.6629,55.3815,137.695,100.381,104.139,0.00338005,0.111689,20.9198,102.5,-0.334403,0.0,0.0
5148,1286.75,54.6661,55.7155,137.041,100.324,104.363,0.00344815,0.11147,20.92,102.43,-0.359189,0.0,0.0
5160,1289.75,54.3024,55.3849,134.661,100.252,103.974,0.00366089,0.111116,20.9199,102.36,-0.331721,0.0,0.0
5172,1292.75,54.4727,55.5432,136.068,100.162,104,0.00402765,0.111063,20.9186,102.32,-0.342201,0.0,0.0
5184,1295.75,54.2843,55.6678,139.746,100.04,103.6,0.0041535,0.111454,20.9175,102.28,-0.318218,0.0,0.0
5196,1298.75,54.7282,55.9593,137.511,99.918,103.932,0.00409121,0.111853,20.9187,102.27,-0.358444,0.0,0.0
5208,1301.75,54.3473,55.8322,134.063,99.785,103.407,0.00402495,0.112078,20.9192,102.22,-0.324509,0.0,0.0
5220,1304.75,53.8667,55.2016,136.66,99.6269,103.928,0.00400986,0.111511,20.9193,102.21,-0.384636,0.0,0.0
5232,1307.75,54.4593,55.2972,137.123,99.4692,103.225,0.0038426,0.111263,20.9193,102.19,-0.337292,0.0,0.0
5244,1310.75,54.4242,55.9387,134.543,99.3055,103.628,0.00374851,0.110736,20.9194,102.14,-0.387703,0.0,0.0
5256,1313.75,54.3207,55.2854,140.881,99.1362,102.544,0.00382831,0.110328,20.9193,102.11,-0.307544,0.0,0.0
5268,1316.75,54.117,55.4308,138.357,98.9933,103.074,0.00407193,0.110737,20.9201,102.1,-0.367629,0.0,0.0
5280,1319.75,54.1396,55.2119,138.341,98.85,102.872,0.00409968,0.110565,20.9205,102.08,-0.362946,0.0,0.0
5292,1322.75,54.3917,55.58,136.4375,98.7625,102.069,0.00407438,0.111352,20.919,102.08,-0.299655,0.0,0.0
5304,1325.75,54.0822,55.2514,140.919,98.6871,101.489,0.00405583,0.111567,20.9185,102.08,-0.254793,0.0,0.0
5316,1328.75,54.1791,55.3617,138.956,98.6527,103.122,0.00392042,0.110668,20.9212,102.05,-0.403202,0.0,0.0
5328,1331.75,54.2916,55.1238,139.068,98.6288,102.757,0.00380627,0.110617,20.9213,102.04,-0.373167,0.0,0.0
5340,1334.75,54.0263,55.5831,138.787,98.6707,102.637,0.00393516,0.110507,20.9208,101.99,-0.358686,0.0,0.0
5352,1337.75,54.076,55.5016,133.512,98.737,102.346,0.00404058,0.110438,20.9204,101.94,-0.326707,0.0,0.0
5364,1340.75,53.8581,55.275,135.76,98.82,102.626,0.00401933,0.110476,20.9207,101.92,-0.343927,0.0,0.0
5376,1343.75,54.3499,55.1999,137.154,98.929,102.879,0.00408852,0.110688,20.9208,101.91,-0.356268,0.0,0.0
5388,1346.75,53.84,55.4657,136.045,99.0632,103.002,0.00391082,0.110697,20.9195,101.87,-0.354804,0.0,0.0
5400,1349.75,53.8427,55.0033,137.821,99.1786,103.386,,0.11084,,101.86,-0.378124,0.0,0.0
5412,1352.75,54.2084,55.2285,134.914,99.3151,103.455,,,,101.81,-0.371628,0.0,0.0
5424,1355.75,54.2205,55.1317,134.376,99.4592,103.212,,,,101.79,-0.337094,0.0,0.0
5433,1358,53.6511,55.0549,138.337,99.5339,103.432,,,,101.64,-0.34962,0.0,0.0