File: 01_Data/Oak_HWF/Cone/Oak_Flooring_Cone_HF25Scan_220913_R3.csv
Names,Time,Stack TC,Smoke TC,Exh Press,Smoke Comp,Smoke Meas,CO Meter,CO2 Meter,O2 Meter,Sample Mass,Ext Coeff,Start Test,Flame Verif
Chan Gain,,500,500,1,1,1,1,1,1,1,1,1.0,1.0
Offset,,0,0,0.139139,0,0,0,0,0,0,0,0.0,0.0
Gain,,1,1,25.011,13.0826,14.7555,1,1,1,1.00088,1.03743,1.0,1.0
Units,sec,C,C,Pa,%,%,%,%,%,g,/m,,
Baseline,,38.6677,39.4173,151.651,100.371,104.419,0.000466507,0.0497186,20.988,-447.414,-0.359737,,
12,2.75,37.439,38.2263,147.857,99.1378,103.513,0.000155031,0.0515845,20.9937,202.688,-0.393032,0.0,0.0
24,5.75,37.6313,38.2604,151.947,99.1654,103.444,-9.30198e-05,0.0509856,20.9947,202.678,-0.384445,0.0,0.0
36,8.75,37.4134,38.5713,153.107,99.242,103.357,-0.000102952,0.0505383,20.996,202.678,-0.369725,0.0,0.0
48,11.75,37.7669,38.671,152.324,99.3339,103.761,0.000114793,0.0501253,20.9964,202.638,-0.396763,0.0,0.0
60,14.75,37.6605,38.2045,148.436,99.4153,103.495,0.000204821,0.0499381,20.9963,202.648,-0.366013,0.0,0.0
72,17.75,37.5898,38.4149,153.017,99.5099,103.438,0.000135995,0.0498684,20.9958,202.578,-0.352326,0.0,0.0
84,20.75,37.858,38.5083,153.671,99.593,104.001,-1.86977e-05,0.049788,20.9957,202.588,-0.394082,0.0,0.0
96,23.75,37.5586,38.61,150.035,99.6644,103.354,0.000128392,0.0497086,20.9958,202.538,-0.330836,0.0,0.0
108,26.75,37.5763,38.1522,153.301,99.694,103.644,0.0002048,0.0495688,20.9964,202.548,-0.353636,0.0,0.0
120,29.75,37.6721,38.4683,151.759,99.7303,104.096,0.000142725,0.0496343,20.9966,202.538,-0.389891,0.0,0.0
132,32.75,37.4107,38.8041,151.081,99.7547,104.124,3.75064e-05,0.0496133,20.9967,202.518,-0.390148,0.0,0.0
144,35.75,37.464,38.2862,149.794,99.793,104.399,-1.9985e-05,0.049633,20.9967,202.488,-0.410588,0.0,0.0
156,38.75,37.4679,38.6044,149.564,99.8122,103.405,0.00010474,0.0499998,20.9967,202.418,-0.321796,0.0,0.0
168,41.75,37.9383,38.3729,149.928,99.8078,104.81,0.000269753,0.0501715,20.9967,202.458,-0.445048,0.0,0.0
180,44.75,38.0026,38.5844,153.325,99.8257,103.749,0.000370247,0.0500839,20.9967,202.408,-0.350785,0.0,0.0
192,47.75,37.6679,38.7481,152.868,99.8357,104.051,0.000424784,0.0499813,20.9968,202.378,-0.376341,0.0,0.0
204,50.75,37.754,38.6094,152.42,99.8521,104.375,0.000406076,0.0500458,20.9954,202.348,-0.403121,0.0,0.0
216,53.75,38.3984,38.7994,154.973,99.878,104.271,0.000443277,0.0498986,20.9948,202.308,-0.391721,0.0,0.0
228,56.75,38.1504,38.4724,154.298,99.8708,104.15,0.000449141,0.0499595,20.9946,202.288,-0.381799,0.0,0.0
240,59.75,37.5021,38.3151,152.82,99.8565,103.934,0.00046292,0.0498552,20.9955,202.238,-0.364242,0.0,0.0
252,62.75,37.7467,38.646,153.075,99.8517,104.334,0.000337659,0.049762,20.9959,202.208,-0.399624,0.0,0.0
264,65.75,38.5745,38.9283,149.386,99.8597,104.122,0.000300971,0.0498226,20.996,202.128,-0.380377,0.0,0.0
276,68.75,37.8222,38.1763,150.118,99.8401,104.329,0.000126859,0.0497712,20.9965,202.038,-0.400246,0.0,0.0
288,71.75,37.8273,38.792,150.8,99.8253,104,7.40372e-05,0.0497371,20.9953,201.978,-0.372835,0.0,0.0
300,74.75,38.5283,38.4189,147.033,99.8062,104.267,5.77092e-05,0.0497747,20.9966,201.988,-0.397878,0.0,0.0
312,77.75,38.1646,38.7221,152.53,99.7886,104.151,0.000113409,0.049779,20.9978,201.928,-0.389414,0.0,0.0
324,80.75,37.8672,38.601,151.044,99.7814,103.49,0.000144334,0.0498262,20.999,201.868,-0.332126,0.0,0.0
336,83.75,37.9882,38.5382,152.622,99.7694,103.708,0.000108156,0.0498878,20.9983,201.868,-0.352363,0.0,0.0
348,86.75,37.8288,38.9938,149.932,99.7714,103.658,0.000348216,0.0500753,20.9981,201.798,-0.347754,0.0,0.0
360,89.75,37.7384,38.7289,151.683,99.7754,103.484,0.00060673,0.0500993,20.998,201.798,-0.332079,0.0,0.0
372,92.75,38.1599,38.9558,154.538,99.7754,103.761,0.000578081,0.0499449,20.9972,201.698,-0.356479,0.0,0.0
384,95.75,37.7617,38.5076,149.938,99.7714,103.715,0.000411321,0.0500221,20.9967,201.728,-0.352773,0.0,0.0
396,98.75,37.793,38.3536,151.438,99.7878,102.849,0.00032618,0.0502234,20.9965,201.698,-0.274982,0.0,0.0
408,101.75,38.3909,38.6354,153.581,99.7722,103.866,0.000406869,0.0502968,20.9965,201.628,-0.365928,0.0,0.0
420,104.75,38.3,38.7496,149.851,99.7631,103.488,0.000538257,0.0504154,20.9957,201.608,-0.333563,0.0,0.0
432,107.75,38.0667,38.7671,150.976,99.7515,103.81,0.000579855,0.0505604,20.9946,201.547,-0.362968,0.0,0.0
444,110.75,38.477,38.9235,149.221,99.7323,103.54,0.000476028,0.0507758,20.9954,201.497,-0.34096,0.0,0.0
456,113.75,38.1656,38.7079,149.132,99.7032,103.193,0.000437406,0.0510278,20.9963,201.437,-0.313094,0.0,0.0
468,116.75,38.2486,39.4391,150.647,99.6608,104.003,0.000571954,0.0512327,20.9974,201.357,-0.388079,0.0,0.0
480,119.75,38.3351,38.7574,152.842,99.6137,103.373,0.000762538,0.0515001,20.9971,201.307,-0.337132,0.0,0.0
492,122.75,37.9191,38.6225,151.749,99.5638,103.275,0.000824422,0.0517001,20.9953,201.247,-0.333046,0.0,0.0
504,125.75,38.2697,39.1156,151.559,99.5067,102.958,0.000832752,0.0519021,20.9948,201.197,-0.310248,0.0,0.0
516,128.75,38.3505,38.9246,149.652,99.4453,102.801,0.000942592,0.0520005,20.9947,201.107,-0.302011,0.0,0.0
528,131.75,37.9543,39.1389,148.57,99.3658,102.61,0.00105555,0.0522643,20.9949,201.067,-0.292408,0.0,0.0
540,134.75,38.1189,39.2626,149.725,99.2784,102.969,0.00116226,0.0524655,20.9953,201.007,-0.332153,0.0,0.0
552,137.75,38.0695,39.3224,151.14,99.2093,102.285,0.00120699,0.0527816,20.9956,200.917,-0.277832,0.0,0.0
564,140.75,38.4233,39.4544,152.393,99.1498,102.007,0.00135421,0.0531345,20.9969,200.827,-0.258539,0.0,0.0
576,143.75,38.123,38.9736,148.175,99.0967,101.767,0.00151747,0.0532439,20.9973,200.717,-0.242016,0.0,0.0
588,146.75,38.1656,39.0922,152.99,99.0955,101.73,0.00159484,0.0533653,20.9974,200.637,-0.238784,0.0,0.0
600,149.75,38.7107,38.9916,151.24,99.1247,101.88,0.00151838,0.0535479,20.9974,200.507,-0.24951,0.0,0.0
612,152.75,38.2209,38.9272,152.348,99.1518,101.823,0.0014902,0.0537647,20.9974,200.437,-0.24191,0.0,0.0
624,155.75,38.4075,38.8677,153.117,99.1674,101.319,0.0016011,0.0539836,20.9974,200.386,-0.195294,0.0,0.0
636,158.75,38.5481,39.1585,150.653,99.2085,101.706,0.0017094,0.0542124,20.9974,200.286,-0.226238,0.0,0.0
648,161.75,38.1693,39.0153,153.825,99.2432,101.967,0.0018323,0.0544063,20.9977,200.186,-0.246351,0.0,0.0
660,164.75,38.2677,38.974,151.239,99.2828,101.796,0.00206781,0.0545299,20.9957,200.156,-0.227483,0.0,0.0
672,167.75,38.2248,39.1421,149.481,99.3414,101.533,0.00222194,0.0547822,20.9952,200.076,-0.198565,0.0,0.0
684,170.75,38.3749,39.1387,152.929,99.4041,101.303,0.00221569,0.0549321,20.9936,199.976,-0.172178,0.0,0.0
696,173.75,38.6651,39.3818,150.634,99.456,102.152,0.00221709,0.0557191,20.9915,199.876,-0.243402,0.0,0.0
708,176.75,38.4114,39.2346,146.726,99.49,103.881,0.00240586,0.061403,20.9655,199.786,-0.393051,0.0,0.0
720,179.75,39.2817,39.5018,139.76,99.5367,102.471,0.00262687,0.089712,20.8686,199.516,-0.264422,0.0,1.0
732,182.75,40.0804,39.7423,137.204,99.5738,99.6592,0.00290794,0.154452,20.7342,199.115,-0.00779683,0.0,1.0
744,185.75,42.8263,40.9611,130.896,99.6193,100.142,0.00324031,0.237523,20.6021,198.615,-0.047611,0.0,1.0
756,188.75,46.2267,43.1546,128.223,99.6493,100.577,0.00357052,0.312685,20.5244,198.104,-0.0843203,0.0,0.0
768,191.75,49.4665,45.5659,130.881,99.684,100.445,0.00392587,0.370325,20.4829,197.644,-0.0692024,0.0,0.0
780,194.75,52.1557,48.3105,133.35,99.7151,99.2147,0.00425425,0.41251,20.4607,197.104,0.0457864,0.0,0.0
792,197.75,54.5845,50.1484,128.342,99.7263,98.6302,0.00452887,0.440662,20.452,196.573,0.100577,0.0,0.0
804,200.75,57.0892,52.6712,129.28,99.7379,98.9175,0.00467226,0.460661,20.454,196.113,0.0751643,0.0,0.0
816,203.75,58.7442,54.862,136.678,99.7599,100.255,0.00486063,0.470135,20.4656,195.592,-0.0450884,0.0,0.0
828,206.75,59.8207,56.4677,137.866,99.7375,99.303,0.00474859,0.472992,20.4783,195.122,0.0397354,0.0,0.0
840,209.75,61.0016,58.0202,130.327,99.7315,101.273,0.00449954,0.473841,20.4876,194.671,-0.139545,0.0,0.0
852,212.75,61.985,59.094,127.902,99.7016,100.12,0.00421256,0.472381,20.5009,194.191,-0.0380957,0.0,0.0
864,215.75,63.0537,60.3554,137.215,99.6572,101.509,0.0039225,0.468341,20.5152,193.741,-0.167582,0.0,0.0
876,218.75,63.0074,61.228,139.631,99.5958,101.786,0.00366849,0.462362,20.5306,193.26,-0.197992,0.0,0.0
888,221.75,63.9104,62.0597,135.72,99.5367,102.418,0.00346846,0.453956,20.5483,192.8,-0.259663,0.0,0.0
900,224.75,64.3358,62.686,133.94,99.4496,102.86,0.00329561,0.444696,20.5645,192.369,-0.30683,0.0,0.0
912,227.75,64.6886,63.523,134.137,99.345,102.578,0.00327559,0.434907,20.5801,191.889,-0.291394,0.0,0.0
924,230.75,64.5946,63.7123,137.74,99.2444,102.327,0.00326046,0.425209,20.5929,191.529,-0.278335,0.0,0.0
936,233.75,64.4818,64.3825,136.672,99.129,101.998,0.00301851,0.415674,20.605,191.118,-0.25964,0.0,0.0
948,236.75,64.5309,65.023,134.792,98.9721,102.45,0.00290032,0.404774,20.6182,190.748,-0.314264,0.0,0.0
960,239.75,64.2985,64.8766,133.216,98.8635,102.514,0.00288942,0.396257,20.6284,190.428,-0.329933,0.0,0.0
972,242.75,64.0388,65.2038,135.479,98.7434,102.94,0.00267609,0.387918,20.6384,190.067,-0.378738,0.0,0.0
984,245.75,63.9176,65.4948,139.992,98.6412,102.042,0.00239539,0.379977,20.645,189.677,-0.308476,0.0,0.0
996,248.75,63.8872,65.7206,134.601,98.5649,102.438,0.00231822,0.373312,20.6521,189.307,-0.350706,0.0,0.0
1008,251.75,64.0336,65.6299,134.777,98.5222,102.629,0.00218819,0.367638,20.6579,188.966,-0.371676,0.0,0.0
1020,254.75,63.66,66.0493,136.821,98.5166,103.126,0.00219704,0.362202,20.6639,188.606,-0.416167,0.0,0.0
1032,257.75,63.5096,65.7849,139.733,98.5274,102.896,0.00228577,0.356862,20.6713,188.266,-0.394844,0.0,0.0
1044,260.75,63.1829,66.1459,134.348,98.5841,103.51,0.00227118,0.351104,20.6785,187.885,-0.44373,0.0,0.0
1056,263.75,63.5455,65.7007,136.84,98.6623,103.134,0.00225503,0.3461,20.6827,187.555,-0.403352,0.0,0.0
1068,266.75,63.1728,65.6974,139.699,98.7661,103.343,0.00248631,0.341756,20.687,187.245,-0.41224,0.0,0.0
1080,269.75,62.4829,65.3629,144.428,98.8887,103.447,0.00243013,0.337861,20.6911,186.865,-0.410109,0.0,0.0
1092,272.75,62.2306,65.8846,137.572,99.0185,103.701,0.00224023,0.333789,20.6961,186.564,-0.42049,0.0,0.0
1104,275.75,62.1832,65.4614,134.703,99.1542,103.213,0.00229328,0.329707,20.699,186.184,-0.365126,0.0,0.0
1116,278.75,62.2391,65.8965,141.719,99.2728,103.464,0.00229556,0.326042,20.704,185.844,-0.376298,0.0,0.0
1128,281.75,61.849,65.6879,141.213,99.4169,104.144,0.00230884,0.32111,20.7112,185.533,-0.422705,0.0,0.0
1140,284.75,62.0641,65.5013,139.753,99.5263,104.749,0.00242882,0.316993,20.7163,185.223,-0.465468,0.0,0.0
1152,287.75,61.3726,65.3447,138.477,99.6473,104.794,0.00257698,0.312355,20.7226,184.963,-0.458247,0.0,0.0
1164,290.75,61.5523,65.1076,136.501,99.7603,104.689,0.0025863,0.308436,20.726,184.613,-0.438896,0.0,0.0
1176,293.75,60.9138,65.1923,141.115,99.88,105.106,0.00233578,0.304997,20.7285,184.322,-0.464151,0.0,0.0
1188,296.75,60.9254,64.496,138.483,99.9882,104.794,0.00216396,0.301527,20.7323,183.942,-0.427201,0.0,0.0
1200,299.75,61.0063,64.6092,138.354,100.076,104.485,0.0021285,0.298266,20.7357,183.632,-0.392269,0.0,0.0
1212,302.75,60.4725,64.0749,142.386,100.148,104.445,0.00213547,0.295072,20.74,183.271,-0.382282,0.0,0.0
1224,305.75,60.1951,64.2527,140.782,100.219,105.195,0.0023114,0.292112,20.7434,183.011,-0.440995,0.0,0.0
1236,308.75,60.0937,64.2688,141.632,100.274,105.502,0.00256481,0.289673,20.7445,182.681,-0.462485,0.0,0.0
1248,311.75,59.973,64.2982,139.481,100.308,105.369,0.00263994,0.287237,20.7448,182.351,-0.447937,0.0,0.0
1260,314.75,59.6113,63.6216,138.55,100.336,104.836,0.00250346,0.285587,20.7458,182.14,-0.399281,0.0,0.0
1272,317.75,59.619,64.0419,140.21,100.343,104.908,0.00235036,0.283598,20.7482,181.87,-0.404881,0.0,0.0
1284,320.75,59.3641,63.2271,141.745,100.349,105.734,0.00248069,0.281896,20.7498,181.58,-0.475696,0.0,0.0
1296,323.75,59.3947,63.2946,139.477,100.338,105.223,0.00253975,0.28003,20.7507,181.28,-0.43254,0.0,0.0
1308,326.75,59.0641,63.1146,138.607,100.302,104.917,0.00246169,0.27788,20.7524,181.029,-0.409317,0.0,0.0
1320,329.75,58.9034,63.1032,142.676,100.256,105.328,0.0023765,0.275769,20.7541,180.699,-0.449072,0.0,0.0
1332,332.75,59.0561,62.9451,139.949,100.214,104.73,0.00231855,0.27461,20.7546,180.419,-0.401102,0.0,0.0
1344,335.75,58.6418,62.5975,141.741,100.146,104.752,0.0022826,0.273695,20.7548,180.129,-0.409257,0.0,0.0
1356,338.75,59.0826,62.4965,143.636,100.08,104.646,0.0021411,0.272343,20.7566,179.848,-0.406009,0.0,0.0
1368,341.75,58.6856,62.8164,138.86,100.014,104.687,0.00206927,0.270555,20.7591,179.598,-0.415603,0.0,0.0
1380,344.75,58.5837,62.158,144.797,99.9391,104.515,0.0022649,0.268412,20.762,179.298,-0.407394,0.0,0.0
1392,347.75,58.1828,61.6908,140.743,99.8617,104.763,0.00228416,0.266396,20.7662,179.038,-0.436028,0.0,0.0
1404,350.75,58.3715,61.8084,141.864,99.785,104.571,0.00211251,0.264539,20.768,178.727,-0.426338,0.0,0.0
1416,353.75,58.373,61.5409,141.238,99.7191,104.665,0.00217886,0.262359,20.7707,178.437,-0.440495,0.0,0.0
1428,356.75,57.6539,61.6245,136.499,99.6421,104.712,0.00234915,0.26002,20.7745,178.167,-0.451679,0.0,0.0
1440,359.75,57.8601,61.408,140.093,99.5602,104.188,0.00238448,0.257571,20.7776,177.847,-0.41349,0.0,0.0
1452,362.75,57.9565,61.4854,139.02,99.4987,104.552,0.00243846,0.255718,20.7798,177.636,-0.450836,0.0,0.0
1464,365.75,57.4764,61.3125,142.731,99.5734,104.307,0.00250871,0.253637,20.7818,177.346,-0.422624,0.0,0.0
1476,368.75,57.5296,60.7605,143.601,99.7104,103.567,0.00265085,0.25112,20.7851,177.036,-0.345339,0.0,0.0
1488,371.75,57.3728,60.8864,139.321,99.8026,104.517,0.0027582,0.248647,20.788,176.736,-0.420071,0.0,0.0
1500,374.75,56.9505,60.6965,143.489,99.8872,104.45,0.00277813,0.246324,20.7902,176.465,-0.406473,0.0,0.0
1512,377.75,56.9775,60.5732,138.53,99.9311,104.599,0.00278841,0.244599,20.7911,176.185,-0.41549,0.0,0.0
1524,380.75,56.7781,60.6303,141.748,99.9559,104.583,0.00285065,0.243572,20.7899,175.935,-0.411786,0.0,0.0
1536,383.75,56.7884,59.6983,141.745,99.9595,104.205,0.00255343,0.243,20.7907,175.685,-0.378524,0.0,0.0
1548,386.75,56.7944,59.7807,143.392,99.9347,104.39,0.00235566,0.241908,20.7925,175.414,-0.396927,0.0,0.0
1560,389.75,56.2506,59.4137,142.097,99.8705,104.787,0.00232614,0.240414,20.7949,175.264,-0.43734,0.0,0.0
1572,392.75,56.3542,59.4975,140.388,99.7794,103.951,0.00244018,0.23919,20.7955,175.014,-0.372765,0.0,0.0
1584,395.75,56.2127,59.5369,142.156,99.688,104.2,0.00273927,0.237942,20.7952,174.724,-0.402882,0.0,0.0
1596,398.75,56.2081,59.5617,141.942,99.5542,104.431,0.00273847,0.236427,20.7969,174.554,-0.435212,0.0,0.0
1608,401.75,55.8934,59.1303,144.408,99.4009,104.404,0.00249323,0.234932,20.799,174.223,-0.446922,0.0,0.0
1620,404.75,56.3969,59.4141,144.163,99.2301,103.955,0.00243548,0.233542,20.801,174.033,-0.423363,0.0,0.0
1632,407.75,56.0299,59.3217,141.874,99.1294,103.423,0.00252436,0.231826,20.8018,173.773,-0.385841,0.0,0.0
1644,410.75,55.7119,58.8643,145.115,99.1442,103.61,0.00265204,0.229863,20.8045,173.573,-0.400953,0.0,0.0
1656,413.75,55.8659,59.1614,142.898,99.1857,103.288,0.00258461,0.227772,20.8062,173.323,-0.36878,0.0,0.0
1668,416.75,55.4685,58.9902,141.967,99.2261,103.862,0.00236459,0.226112,20.8072,173.062,-0.415565,0.0,0.0
1680,419.75,55.2279,58.5713,141.773,99.264,103.603,0.00236253,0.22543,20.8097,172.872,-0.389373,0.0,0.0
1692,422.75,55.0037,58.3077,144.259,99.3203,104.19,0.00254286,0.224501,20.811,172.612,-0.435567,0.0,0.0
1704,425.75,54.9098,58.3242,140.428,99.351,103.872,0.00269216,0.222806,20.8131,172.342,-0.40494,0.0,0.0
1716,428.75,54.8923,58.1546,141.218,99.4093,104.336,0.00280708,0.221546,20.8141,172.122,-0.440226,0.0,0.0
1728,431.75,54.6268,57.6143,143.707,99.4748,104.164,0.00300856,0.220261,20.8157,171.861,-0.419218,0.0,0.0
1740,434.75,54.5901,58.0488,142.235,99.5187,104.549,0.00281376,0.218921,20.8171,171.651,-0.448697,0.0,0.0
1752,437.75,54.268,57.7167,141.854,99.5634,104.377,0.00250262,0.217223,20.8185,171.371,-0.429624,0.0,0.0
1764,440.75,54.6234,56.9561,140.607,99.6073,104.025,0.00255847,0.216316,20.8201,171.131,-0.394896,0.0,0.0
1776,443.75,54.9837,57.5365,144.725,99.6457,103.743,0.00270692,0.215673,20.8207,170.86,-0.366702,0.0,0.0
1788,446.75,54.22,57.064,145.294,99.6656,104.283,0.00279098,0.214647,20.8226,170.56,-0.412117,0.0,0.0
1800,449.75,53.9003,56.5958,146.175,99.6876,104.431,0.00285429,0.213649,20.8243,170.33,-0.423031,0.0,0.0
1812,452.75,54.0778,56.8564,145.321,99.6904,104.279,0.00299876,0.212172,20.8259,170.08,-0.409543,0.0,0.0
1824,455.75,54.0999,56.5949,144.109,99.7004,104.651,0.00295359,0.211705,20.8248,169.88,-0.440994,0.0,0.0
1836,458.75,53.7187,56.3461,143.07,99.7036,104.587,0.00279638,0.211795,20.8239,169.669,-0.435179,0.0,0.0
1848,461.75,53.6159,56.3658,144.806,99.698,104.396,0.00286502,0.212073,20.8235,169.449,-0.419023,0.0,0.0
1860,464.75,53.4863,56.0052,136.686,99.7,104.377,0.00318663,0.212267,20.8233,169.239,-0.417191,0.0,0.0
1872,467.75,53.7731,56.2434,144.974,99.688,105.193,0.00323182,0.212903,20.8219,169.049,-0.489148,0.0,0.0
1884,470.75,53.5313,56.0376,143.982,99.6844,103.955,0.00299543,0.212922,20.8218,168.819,-0.381712,0.0,0.0
1896,473.75,53.31,56.1841,141.831,99.6648,104.328,0.00283922,0.212428,20.8233,168.588,-0.416157,0.0,0.0
1908,476.75,53.8387,56.2039,141.899,99.6449,104.061,0.00281192,0.21139,20.8256,168.338,-0.394619,0.0,0.0
1920,479.75,53.9222,55.9905,141.515,99.6237,104.183,0.00283846,0.211261,20.8257,168.088,-0.407256,0.0,0.0
1932,482.75,53.3507,55.6323,139.648,99.587,104.508,0.00299573,0.21107,20.825,167.878,-0.438967,0.0,0.0
1944,485.75,53.1534,55.6641,141.356,99.5455,103.505,0.00308014,0.211313,20.824,167.658,-0.354938,0.0,0.0
1956,488.75,53.147,55.5516,142.348,99.5039,104.395,0.00303648,0.21115,20.8243,167.417,-0.436633,0.0,0.0
1968,491.75,53.1166,55.4599,144.921,99.4656,104.347,0.00302099,0.211504,20.8232,167.187,-0.435977,0.0,0.0
1980,494.75,53.0837,55.5601,147.931,99.4081,103.375,0.00303467,0.211654,20.8243,166.937,-0.356054,0.0,0.0
1992,497.75,53.2011,55.5099,142.764,99.375,104.156,0.00294459,0.211475,20.8236,166.727,-0.427606,0.0,0.0
2004,500.75,52.7512,55.3012,142.148,99.3758,104.102,0.00287203,0.212059,20.8223,166.487,-0.42285,0.0,0.0
2016,503.75,53.0835,55.2476,144.904,99.3235,104.25,0.002901,0.2123,20.8218,166.246,-0.440582,0.0,0.0
2028,506.75,52.9199,55.5041,143.474,99.2868,103.176,0.00283802,0.21186,20.8233,166.016,-0.349633,0.0,0.0
2040,509.75,52.9881,54.8502,145.595,99.2628,103.378,0.00269291,0.211506,20.8238,165.776,-0.369685,0.0,0.0
2052,512.75,53.1068,54.9507,143.404,99.2289,103.883,0.0026624,0.210939,20.8248,165.556,-0.417164,0.0,0.0
2064,515.75,52.9115,55.0476,142.866,99.2001,103.741,0.00268938,0.210206,20.8252,165.336,-0.407287,0.0,0.0
2076,518.75,53.077,55.0365,139.741,99.1782,103.717,0.00273341,0.209702,20.8249,165.055,-0.407247,0.0,0.0
2088,521.75,52.9978,54.7586,142.902,99.153,103.318,0.00280132,0.208964,20.8262,164.815,-0.374482,0.0,0.0
2100,524.75,53.1377,55.0552,146.879,99.1538,103.725,0.00271646,0.208257,20.8269,164.555,-0.410154,0.0,0.0
2112,527.75,53.1019,54.9222,141.904,99.1358,103.779,0.00259838,0.208567,20.8255,164.325,-0.416502,0.0,0.0
2124,530.75,52.9097,54.9965,143.521,99.1474,103.696,0.00278693,0.208984,20.8254,164.115,-0.408172,0.0,0.0
2136,533.75,52.9407,54.9839,139.846,99.2061,103.271,0.00297139,0.208755,20.8262,163.924,-0.365444,0.0,0.0
2148,536.75,53.0745,54.7962,146.249,99.258,103.867,0.00291195,0.208938,20.8249,163.664,-0.413031,0.0,0.0
2160,539.75,53.0277,54.9079,140.995,99.3267,104.102,0.00276072,0.208993,20.8244,163.494,-0.427348,0.0,0.0
2172,542.75,52.7161,54.9779,140.966,99.379,103.982,0.00271778,0.208965,20.8243,163.254,-0.412002,0.0,0.0
2184,545.75,52.8898,54.6536,147.174,99.4464,103.953,0.00275593,0.209025,20.8242,163.044,-0.403303,0.0,0.0
2196,548.75,52.8824,54.5475,149.085,99.5035,103.584,0.00279406,0.209038,20.8242,162.813,-0.365737,0.0,0.0
2208,551.75,53.1251,54.7975,142.016,99.5602,103.48,0.00275905,0.20936,20.8239,162.603,-0.351411,0.0,0.0
2220,554.75,52.8973,54.9302,147.464,99.6006,104.111,0.00269671,0.208929,20.8252,162.353,-0.403037,0.0,0.0
2232,557.75,53.22,54.7562,142.381,99.6369,104.679,0.00267119,0.208442,20.8257,162.133,-0.449217,0.0,0.0
2244,560.75,53.2217,54.6531,140.287,99.668,104.239,0.00275476,0.208556,20.8242,161.923,-0.408086,0.0,0.0
2256,563.75,53.3592,55.1866,141.323,99.702,103.774,0.00272341,0.208721,20.8243,161.682,-0.364326,0.0,0.0
2268,566.75,53.1944,54.6991,143.624,99.7171,104.515,0.0027297,0.209043,20.8244,161.442,-0.42763,0.0,0.0
2280,569.75,52.9271,54.6474,145.64,99.7395,103.791,0.00264135,0.209275,20.8228,161.222,-0.362362,0.0,0.0
2292,572.75,53.0942,54.9937,139.984,99.7559,104.273,0.00246514,0.209848,20.8223,161.022,-0.403057,0.0,0.0
2304,575.75,53.3006,54.9025,140.546,99.781,104.558,0.00237437,0.2098,20.8222,160.772,-0.425527,0.0,0.0
2316,578.75,53.2465,54.9681,143.447,99.8094,104.508,0.00230173,0.209651,20.8228,160.571,-0.418629,0.0,0.0
2328,581.75,53.0956,54.7977,143.508,99.8154,104.255,0.00233169,0.209793,20.8223,160.351,-0.396059,0.0,0.0
2340,584.75,52.9219,54.651,141.181,99.8217,104.5,0.0026476,0.210228,20.8215,160.121,-0.416834,0.0,0.0
2352,587.75,53.2364,54.7531,141.238,99.8385,104.746,0.00311916,0.210662,20.8213,159.871,-0.436652,0.0,0.0
2364,590.75,53.1273,54.7473,144.013,99.8557,104.672,0.00311514,0.210547,20.8213,159.601,-0.428708,0.0,0.0
2376,593.75,53.295,55.0566,141.084,99.8952,104.395,0.00290177,0.210461,20.8213,159.39,-0.400959,0.0,0.0
2388,596.75,53.0502,54.9857,145.009,99.9132,104.691,0.00276158,0.210708,20.8213,159.13,-0.425076,0.0,0.0
2400,599.75,53.3133,55.0569,140.311,99.9523,104.787,0.00269364,0.210713,20.8213,158.92,-0.429846,0.0,0.0
2412,602.75,53.5765,54.9552,144.614,99.9711,105.155,0.00266695,0.211005,20.8225,158.7,-0.460071,0.0,0.0
2424,605.75,53.1612,54.9527,139.864,99.9763,104.79,0.00248956,0.211474,20.8221,158.49,-0.427939,0.0,0.0
2436,608.75,53.0248,55.2902,149.484,99.9866,104.001,0.00252535,0.211648,20.8223,158.309,-0.358182,0.0,0.0
2448,611.75,52.9458,54.9602,136.953,99.9707,104.303,0.00258427,0.21181,20.8209,158.109,-0.386036,0.0,0.0
2460,614.75,53.0238,55.0639,142.142,99.9739,104.355,0.00266434,0.212595,20.8199,157.899,-0.390302,0.0,0.0
2472,617.75,52.8593,54.8395,140.731,99.9251,104.452,0.00254372,0.212875,20.8191,157.649,-0.403176,0.0,0.0
2484,620.75,53.3604,54.8455,139.114,99.8844,103.944,0.00215587,0.213109,20.8188,157.459,-0.362562,0.0,0.0
2496,623.75,53.4085,55.3598,139.139,99.8106,104.551,0.00206415,0.21343,20.8185,157.248,-0.422244,0.0,0.0
2508,626.75,53.5981,55.2503,148.811,99.7048,104.49,0.00214997,0.213253,20.8185,157.028,-0.426603,0.0,0.0
2520,629.75,53.5529,55.2873,140.961,99.591,103.94,0.00211734,0.213169,20.8187,156.788,-0.388983,0.0,0.0
2532,632.75,53.6485,55.3141,144.643,99.5403,104.15,0.00221152,0.213358,20.8188,156.578,-0.411931,0.0,0.0
2544,635.75,53.3525,54.6298,142.527,99.6018,104.747,0.00222936,0.213518,20.8186,156.348,-0.458336,0.0,0.0
2556,638.75,53.2142,55.055,143.949,99.6692,103.924,0.00234873,0.213889,20.8181,156.128,-0.380416,0.0,0.0
2568,641.75,53.3558,55.1487,139.752,99.7463,104.365,0.00236926,0.215191,20.8148,155.907,-0.411905,0.0,0.0
2580,644.75,53.4858,55.0257,142.119,99.8261,105.274,0.00227142,0.216353,20.8125,155.697,-0.483595,0.0,0.0
2592,647.75,53.4367,54.9156,142.886,99.9148,105.063,0.00234544,0.216713,20.8141,155.447,-0.457204,0.0,0.0
2604,650.75,53.475,55.1378,142.761,100.006,103.92,0.00245378,0.217038,20.8152,155.247,-0.349421,0.0,0.0
2616,653.75,53.4067,55.032,142.368,100.091,104.711,0.0024737,0.217472,20.8149,155.037,-0.41063,0.0,0.0
2628,656.75,53.8256,55.3982,138.778,100.169,105.388,0.00226771,0.218109,20.814,154.776,-0.462151,0.0,0.0
2640,659.75,53.9931,55.4311,140.858,100.238,105.289,0.00216356,0.218236,20.8129,154.586,-0.447356,0.0,0.0
2652,662.75,53.7834,55.5457,141.564,100.298,105.447,0.00223706,0.218891,20.8126,154.346,-0.455608,0.0,0.0
2664,665.75,53.8089,55.153,142.022,100.342,105.444,0.00231998,0.219575,20.8125,154.086,-0.451279,0.0,0.0
2676,668.75,53.7437,55.6882,141.074,100.364,105.057,0.00231185,0.219679,20.813,153.815,-0.415843,0.0,0.0
2688,671.75,54.0416,55.8004,146.114,100.371,105.628,0.00222364,0.219958,20.8123,153.595,-0.464593,0.0,0.0
2700,674.75,53.9461,55.9547,143.02,100.361,105.077,0.00221673,0.220627,20.8106,153.385,-0.417924,0.0,0.0
2712,677.75,53.984,55.7174,142.08,100.327,105.433,0.00225147,0.221137,20.8099,153.195,-0.451797,0.0,0.0
2724,680.75,54.0273,55.4112,142.86,100.269,105.472,0.00217235,0.221819,20.8084,152.985,-0.460428,0.0,0.0
2736,683.75,54.0422,55.686,143.724,100.21,105.373,0.00232866,0.222401,20.8072,152.805,-0.457169,0.0,0.0
2748,686.75,54.2034,55.899,142.341,100.1,104.607,0.0023695,0.222995,20.8069,152.574,-0.40075,0.0,0.0
2760,689.75,54.2889,55.8325,148.374,99.9858,104.56,0.00238116,0.223608,20.806,152.344,-0.407101,0.0,0.0
2772,692.75,54.4712,56.1908,142.452,99.8537,104.333,0.00239702,0.22388,20.8049,152.134,-0.399363,0.0,0.0
2784,695.75,54.2689,56.3694,142.102,99.6948,104.527,0.00234809,0.224496,20.8048,151.904,-0.430729,0.0,0.0
2796,698.75,54.4825,56.1153,147.029,99.5323,104.729,0.00235856,0.225332,20.8043,151.684,-0.463121,0.0,0.0
2808,701.75,54.4385,55.8848,144.079,99.3722,104.406,0.00236284,0.226331,20.8035,151.473,-0.449711,0.0,0.0
2820,704.75,54.8568,56.3772,140.419,99.2229,103.75,0.00217512,0.227137,20.8027,151.243,-0.40599,0.0,0.0
2832,707.75,54.6758,56.2681,140.532,99.0556,103.655,0.00204307,0.228085,20.8008,151.013,-0.413008,0.0,0.0
2844,710.75,54.5894,56.4385,138.9,98.9047,104.255,0.00200573,0.229082,20.7987,150.783,-0.47943,0.0,0.0
2856,713.75,54.8306,56.4347,137.071,98.7721,103.851,0.00199715,0.229823,20.798,150.553,-0.456347,0.0,0.0
2868,716.75,55.1548,56.3136,139.404,98.6675,103.921,0.00195037,0.230525,20.7983,150.332,-0.472064,0.0,0.0
2880,719.75,55.085,56.2558,143.226,98.5964,104.091,0.00192235,0.23132,20.7983,150.122,-0.493515,0.0,0.0
2892,722.75,54.7878,56.1319,144.605,98.5517,103.515,0.00190948,0.232979,20.7966,149.832,-0.447151,0.0,0.0
2904,725.75,55.0212,56.5425,141.727,98.5577,103.801,0.001898,0.234411,20.7952,149.642,-0.471662,0.0,0.0
2916,728.75,54.8637,56.672,139.299,98.5809,103.285,0.00186143,0.23599,20.794,149.412,-0.424169,0.0,0.0
2928,731.75,55.207,57.0342,138.501,98.6432,103.476,0.001924,0.23711,20.7916,149.171,-0.435308,0.0,0.0
2940,734.75,55.6356,57.0713,142.825,98.7286,103.642,0.00211867,0.238408,20.7892,148.921,-0.441951,0.0,0.0
2952,737.75,55.5583,57.0598,145.289,98.8456,103.871,0.00221524,0.23956,20.7884,148.651,-0.451317,0.0,0.0
2964,740.75,55.7592,57.1949,142.357,98.9781,104.134,0.00206957,0.24057,20.7879,148.401,-0.462133,0.0,0.0
2976,743.75,55.7415,56.7027,141.003,99.1175,103.407,0.00197046,0.241669,20.7875,148.16,-0.385554,0.0,0.0
2988,746.75,56.3095,57.7578,143.357,99.26,104.573,0.00192107,0.243149,20.7852,147.9,-0.47454,0.0,0.0
3000,749.75,56.0286,57.7815,139.485,99.3846,104.07,0.00198252,0.244875,20.7838,147.63,-0.419251,0.0,0.0
3012,752.75,55.9938,57.7244,140.113,99.5023,104.629,0.00200198,0.246313,20.7812,147.43,-0.457169,0.0,0.0
3024,755.75,56.33,57.899,142.032,99.5966,104.665,0.00203295,0.24826,20.7794,147.24,-0.451727,0.0,0.0
3036,758.75,56.576,57.2606,141.946,99.6756,104.85,0.00211664,0.250166,20.7772,146.999,-0.460545,0.0,0.0
3048,761.75,56.1255,58.1669,140.317,99.7435,105.162,0.00215259,0.25247,20.7732,146.739,-0.481395,0.0,0.0
3060,764.75,56.4605,58.0592,141.142,99.7674,105.495,0.00228043,0.254288,20.772,146.499,-0.507999,0.0,0.0
3072,767.75,56.6619,58.1485,138.104,99.7818,104.73,0.00230668,0.256521,20.7695,146.239,-0.440452,0.0,0.0
3084,770.75,56.7924,58.3043,137.467,99.7639,104.625,0.00208946,0.258869,20.7674,145.999,-0.432969,0.0,0.0
3096,773.75,57.2334,58.9918,138.839,99.7399,104.071,0.00182207,0.261064,20.7639,145.738,-0.386811,0.0,0.0
3108,776.75,56.9228,58.7309,139.278,99.6796,104.617,0.00168665,0.262814,20.7621,145.468,-0.439951,0.0,0.0
3120,779.75,57.0826,58.7844,136.404,99.5998,104.574,0.00186522,0.265053,20.7578,145.228,-0.443483,0.0,0.0
3132,782.75,57.5563,58.9107,140.252,99.4928,104.634,0.00215855,0.267441,20.7558,144.958,-0.458515,0.0,0.0
3144,785.75,58.2633,59.2999,138.817,99.3989,104.041,0.00217234,0.27014,20.754,144.687,-0.415374,0.0,0.0
3156,788.75,57.98,59.3161,142.863,99.3143,104.283,0.0021714,0.272984,20.7509,144.417,-0.444253,0.0,0.0
3168,791.75,58.1453,59.38,138.495,99.2328,104.447,0.00202025,0.27552,20.7481,144.107,-0.466012,0.0,0.0
3180,794.75,58.2785,59.4429,138.017,99.1626,104.556,0.00198194,0.277691,20.7457,143.837,-0.481987,0.0,0.0
3192,797.75,58.2245,59.639,141.325,99.1231,104.162,0.00205233,0.281265,20.7403,143.576,-0.451257,0.0,0.0
3204,800.75,58.4844,59.799,135.777,99.3099,103.88,0.00212905,0.285832,20.7335,143.296,-0.409418,0.0,0.0
3216,803.75,59.545,60.4793,134.18,99.5247,104.683,0.00206778,0.289791,20.7285,143.036,-0.459862,0.0,0.0
3228,806.75,59.2462,60.4573,139.536,99.6896,104.218,0.00203942,0.293678,20.7249,142.756,-0.40423,0.0,0.0
3240,809.75,59.5297,60.8299,147.32,99.8217,104.699,0.00204781,0.296854,20.7227,142.425,-0.43415,0.0,0.0
3252,812.75,59.4594,61.0419,135.765,99.894,105.579,0.00194103,0.30095,20.7166,142.095,-0.503724,0.0,0.0
3264,815.75,60.0413,61.0957,137.331,99.9611,105.172,0.00190943,0.305206,20.7118,141.755,-0.46246,0.0,0.0
3276,818.75,59.8936,61.6094,138.694,99.9307,105.085,0.00189364,0.310257,20.7054,141.455,-0.4577,0.0,0.0
3288,821.75,60.6961,61.9146,133.004,99.8952,104.748,0.00195583,0.314414,20.6981,141.134,-0.431682,0.0,0.0
3300,824.75,60.3964,61.9792,140.136,99.8229,104.504,0.00191934,0.319304,20.6942,140.784,-0.417078,0.0,0.0
3312,827.75,61.4872,62.3087,135.912,99.7247,105.036,0.00193521,0.324382,20.6875,140.494,-0.47219,0.0,0.0
3324,830.75,61.3889,62.9647,137.761,99.5766,103.786,0.00204498,0.329569,20.6814,140.173,-0.376763,0.0,0.0
3336,833.75,62.0883,63.2937,142.282,99.4999,103.963,0.00215843,0.334375,20.676,139.853,-0.399276,0.0,0.0
3348,836.75,62.1191,63.5605,134.833,99.5658,103.91,0.00223632,0.339786,20.6691,139.523,-0.3886,0.0,0.0
3360,839.75,62.3812,64.0905,137.018,99.6381,103.449,0.00233971,0.345632,20.6615,139.113,-0.341563,0.0,0.0
3372,842.75,62.8105,63.9781,134.75,99.6956,104.094,0.0026716,0.351648,20.6526,138.812,-0.392864,0.0,0.0
3384,845.75,63.6458,64.6941,138.58,99.7698,103.833,0.00277022,0.358133,20.6436,138.432,-0.363265,0.0,0.0
3396,848.75,63.6794,64.9264,132.415,99.8473,104.194,0.00266368,0.364597,20.6355,138.162,-0.3878,0.0,0.0
3408,851.75,64.8012,65.7776,134.537,99.9192,103.885,0.00245442,0.371571,20.6271,137.701,-0.354233,0.0,0.0
3420,854.75,64.5059,65.786,136.496,99.9918,104.153,0.00244814,0.378458,20.6208,137.331,-0.371058,0.0,0.0
3432,857.75,65.3525,66.3715,135.16,100.052,103.743,0.00258386,0.385017,20.6143,136.851,-0.329619,0.0,0.0
3444,860.75,65.4637,66.931,133.794,100.108,103.944,0.00257102,0.390847,20.6072,136.52,-0.342179,0.0,0.0
3456,863.75,66.1635,67.5368,132.197,100.168,103.977,0.0026846,0.397793,20.5968,136.14,-0.339614,0.0,0.0
3468,866.75,67.0418,68.1468,132.11,100.219,103.336,0.00278522,0.404539,20.5894,135.679,-0.278789,0.0,0.0
3480,869.75,67.1702,68.1997,133.963,100.258,103.405,0.00279286,0.410287,20.5837,135.269,-0.281262,0.0,0.0
3492,872.75,67.3095,69.1503,134.387,100.286,103.74,0.00273342,0.41798,20.5723,134.889,-0.308163,0.0,0.0
3504,875.75,68.2673,69.3669,132.191,100.315,103.086,0.00277283,0.42528,20.5638,134.498,-0.247984,0.0,0.0
3516,878.75,68.8612,69.6325,140.577,100.318,103.598,0.00299137,0.432965,20.556,134.008,-0.292814,0.0,0.0
3528,881.75,69.1636,70.6952,133.731,100.327,103.079,0.0031743,0.439616,20.5501,133.568,-0.246262,0.0,0.0
3540,884.75,69.4309,70.8987,132.268,100.326,102.307,0.00318821,0.448308,20.5365,133.087,-0.177898,0.0,0.0
3552,887.75,70.1213,71.4395,128.581,100.318,102.31,0.00321161,0.457381,20.5272,132.557,-0.178898,0.0,0.0
3564,890.75,70.9015,71.9904,134.874,100.302,103.262,0.00313793,0.465091,20.518,132.126,-0.26467,0.0,0.0
3576,893.75,71.4751,72.7997,129.367,100.29,102.369,0.00324685,0.474477,20.5055,131.576,-0.18668,0.0,0.0
3588,896.75,72.2951,73.2845,129.748,100.269,101.568,0.00338811,0.484297,20.4918,131.186,-0.117186,0.0,0.0
3600,899.75,72.5414,73.9992,128.65,100.251,102.484,0.00349031,0.495238,20.4776,130.635,-0.200473,0.0,0.0
3612,902.75,73.6458,74.8466,132.31,100.221,101.01,0.00355987,0.502875,20.4722,130.145,-0.0713643,0.0,0.0
3624,905.75,73.8508,75.2076,126.706,100.203,101.593,0.00353438,0.509204,20.4639,129.654,-0.125309,0.0,0.0
3636,908.75,74.0374,75.5,129.115,100.156,102.065,0.00343276,0.520132,20.4484,129.154,-0.171836,0.0,0.0
3648,911.75,75.2013,76.7603,125.494,100.132,100.796,0.0036306,0.528031,20.4413,128.573,-0.0601291,0.0,0.0
3660,914.75,75.2532,77.5463,130.609,100.1,102.286,0.00383447,0.534672,20.4321,128.113,-0.196572,0.0,0.0
3672,917.75,76.6826,77.708,125.134,100.047,101.298,0.00397825,0.541491,20.4246,127.582,-0.113039,0.0,0.0
3684,920.75,76.5771,78.1851,126.58,100.029,101.187,0.00418853,0.548572,20.4199,127.022,-0.104756,0.0,0.0
3696,923.75,77.9045,79.5175,126.652,99.9739,101.468,0.00423198,0.55194,20.4188,126.541,-0.135042,0.0,0.0
3708,926.75,78.3491,80.3234,129.552,99.9451,100.78,0.00406717,0.552969,20.4229,126.071,-0.0756579,0.0,0.0
3720,929.75,78.5309,80.5874,131.023,99.9208,100.868,0.00406579,0.549421,20.4328,125.501,-0.0858834,0.0,0.0
3732,932.75,78.3192,80.7402,127.166,99.8732,100.375,0.00422209,0.544226,20.4414,125,-0.0456172,0.0,0.0
3744,935.75,79.1271,81.2535,137.914,99.8553,100.455,0.00411687,0.537596,20.4543,124.56,-0.054478,0.0,0.0
3756,938.75,78.9532,81.212,132.417,99.8389,100.407,0.00404349,0.530363,20.4612,124.049,-0.0516436,0.0,0.0
3768,941.75,78.9041,82.0855,132.925,99.8329,101.677,0.00386852,0.525884,20.4646,123.529,-0.16656,0.0,0.0
3780,944.75,78.5015,81.4997,133.065,99.813,101.414,0.00372808,0.522847,20.4662,123.018,-0.144773,0.0,0.0
3792,947.75,78.7808,81.9931,130.888,99.7978,100.58,0.00374361,0.520178,20.4693,122.618,-0.0710516,0.0,0.0
3804,950.75,78.7546,82.4985,132.198,99.7758,101.088,0.00359736,0.517367,20.4705,122.108,-0.118896,0.0,0.0
3816,953.75,78.9352,82.3999,129.482,99.7762,102.044,0.00350532,0.514058,20.4727,121.627,-0.204517,0.0,0.0
3828,956.75,79.3188,83.0548,130.892,99.7643,101.503,0.00355364,0.510057,20.4768,121.167,-0.157211,0.0,0.0
3840,959.75,79.177,82.5035,132.414,99.7651,102.038,0.00352697,0.508359,20.478,120.726,-0.204975,0.0,0.0
3852,962.75,78.523,82.4757,131.801,99.7758,102.178,0.00351348,0.506296,20.4796,120.186,-0.216472,0.0,0.0
3864,965.75,78.6024,83.081,135.27,99.777,101.904,0.00343216,0.504211,20.481,119.715,-0.191987,0.0,0.0
3876,968.75,79.0991,83.1379,132.226,99.7686,102.328,0.00329175,0.503346,20.4805,119.195,-0.230513,0.0,0.0
3888,971.75,79.2639,82.674,132.501,99.7515,101.65,0.0033395,0.503425,20.4804,118.735,-0.171609,0.0,0.0
3900,974.75,79.097,83.0815,130.314,99.7555,102.375,0.0032451,0.503314,20.4824,118.324,-0.23588,0.0,0.0
3912,977.75,79.274,83.1012,136.412,99.7547,101.155,0.00325413,0.50177,20.4853,117.864,-0.126824,0.0,0.0
3924,980.75,78.858,82.6327,128.432,99.7607,102.184,0.00314542,0.499401,20.4882,117.403,-0.218418,0.0,0.0
3936,983.75,79.5518,83.0865,136.325,99.7551,101.572,0.00300523,0.49834,20.4866,116.973,-0.164264,0.0,0.0
3948,986.75,79.0967,83.1488,135.684,99.7646,102.302,0.00315288,0.498227,20.4872,116.553,-0.228515,0.0,0.0
3960,989.75,78.7382,83.1298,131.645,99.7551,102.181,0.00356406,0.497916,20.4878,116.112,-0.218688,0.0,0.0
3972,992.75,79.5436,83.2852,133.304,99.7627,102.104,0.00359958,0.497389,20.489,115.672,-0.211095,0.0,0.0
3984,995.75,79.1611,83.0998,132.314,99.7543,101.714,0.00356183,0.495015,20.4887,115.231,-0.177077,0.0,0.0
3996,998.75,78.9764,83.5704,134.52,99.7295,101.887,0.00377322,0.49532,20.4874,114.791,-0.194793,0.0,0.0
4008,1001.75,78.8705,83.168,127.51,99.7227,102.21,0.00400819,0.494506,20.4887,114.311,-0.224165,0.0,0.0
4020,1004.75,78.7562,83.0143,130.333,99.7108,101.923,0.00417264,0.492284,20.4924,113.89,-0.199682,0.0,0.0
4032,1007.75,78.7683,83.2362,129.396,99.69,101.503,0.00418093,0.489557,20.4934,113.49,-0.163988,0.0,0.0
4044,1010.75,78.5765,83.1871,133.168,99.6872,101.815,0.00421269,0.488004,20.4947,113.05,-0.192178,0.0,0.0
4056,1013.75,79.0459,83.3946,131.404,99.7044,102.169,0.00396952,0.485571,20.497,112.629,-0.222192,0.0,0.0
4068,1016.75,78.7634,82.8012,130.517,99.7275,101.616,0.00356026,0.48261,20.5023,112.199,-0.17069,0.0,0.0
4080,1019.75,78.6283,83.224,130.825,99.7463,101.066,0.0035399,0.477043,20.5125,111.798,-0.119646,0.0,0.0
4092,1022.75,78.6857,83.1201,135.851,99.7591,102.252,0.0036148,0.469673,20.525,111.398,-0.224658,0.0,0.0
4104,1025.75,78.4071,82.7347,133.991,99.7854,101.976,0.00370316,0.460241,20.5394,111.018,-0.197574,0.0,0.0
4116,1028.75,77.6453,82.5627,135.136,99.7926,101.985,0.00375985,0.451839,20.549,110.587,-0.197722,0.0,0.0
4128,1031.75,77.4949,82.8046,132.795,99.8042,102.662,0.00361446,0.444407,20.5591,110.187,-0.256939,0.0,0.0
4140,1034.75,77.118,82.0424,134.18,99.8229,103.079,0.00362745,0.437001,20.567,109.857,-0.292116,0.0,0.0
4152,1037.75,76.2488,81.626,139.399,99.8425,102.565,0.00376681,0.429309,20.5756,109.466,-0.244779,0.0,0.0
4164,1040.75,76.4148,81.6681,130.813,99.8677,103.226,0.00385695,0.422682,20.5805,109.126,-0.300991,0.0,0.0
4176,1043.75,75.7946,81.0435,136.921,99.8916,103.246,0.00379965,0.417245,20.585,108.766,-0.300594,0.0,0.0
4188,1046.75,75.1695,80.5268,132.755,99.9315,103.161,0.00365564,0.410231,20.5916,108.496,-0.289453,0.0,0.0
4200,1049.75,74.5881,79.7394,136.017,99.9359,103.414,0.00381942,0.40474,20.596,108.175,-0.311312,0.0,0.0
4212,1052.75,74.3932,79.264,135.729,99.9591,104.25,0.00411633,0.399892,20.6022,107.845,-0.382532,0.0,0.0
4224,1055.75,73.3616,79.3879,130.327,100.018,103.262,0.00417234,0.393691,20.6106,107.515,-0.290422,0.0,0.0
4236,1058.75,73.0256,78.7057,140.458,100.037,103.449,0.00403532,0.387462,20.6183,107.244,-0.305208,0.0,0.0
4248,1061.75,72.6777,78.2381,135.984,100.089,103.137,0.00406054,0.381589,20.6233,106.944,-0.272995,0.0,0.0
4260,1064.75,72.3643,77.7549,136.371,100.124,102.781,0.00406406,0.375597,20.632,106.644,-0.238322,0.0,0.0
4272,1067.75,71.8791,77.411,136.315,100.153,102.94,0.00404274,0.367908,20.6418,106.354,-0.249732,0.0,0.0
4284,1070.75,71.3125,76.5972,135.357,100.191,103.547,0.00381521,0.361606,20.6469,106.063,-0.299792,0.0,0.0
4296,1073.75,70.7128,76.4157,137.351,100.226,103.509,0.00367539,0.354939,20.6566,105.753,-0.293312,0.0,0.0
4308,1076.75,70.2247,75.7437,135.979,100.249,103.141,0.00375688,0.34931,20.6611,105.523,-0.258847,0.0,0.0
4320,1079.75,70.3794,75.4,138.517,100.277,103.364,0.00388051,0.343635,20.6697,105.223,-0.275956,0.0,0.0
4332,1082.75,69.7447,74.8779,137.342,100.291,103.987,0.00384565,0.335347,20.6804,104.972,-0.329317,0.0,0.0
4344,1085.75,68.8305,74.271,134.716,100.304,104.941,0.00375417,0.328972,20.6852,104.712,-0.411245,0.0,0.0
4356,1088.75,69.0323,73.671,134.762,100.297,104.299,0.0034693,0.322436,20.694,104.492,-0.356078,0.0,0.0
4368,1091.75,68.1418,72.8874,144.105,100.295,104.508,0.00321149,0.316443,20.7011,104.242,-0.374435,0.0,0.0
4380,1094.75,67.5309,72.3768,137.953,100.267,104.399,0.00312315,0.309347,20.7109,104.032,-0.367474,0.0,0.0
4392,1097.75,67.2512,72.11,141.524,100.251,104.612,0.00325669,0.30186,20.718,103.811,-0.38751,0.0,0.0
4404,1100.75,67.3275,72.0346,138.466,100.233,104.141,0.00353049,0.294367,20.7277,103.571,-0.34811,0.0,0.0
4416,1103.75,66.0793,71.506,144.106,100.195,104.555,0.0036898,0.287967,20.7327,103.381,-0.387685,0.0,0.0
4428,1106.75,65.8389,70.9549,143.632,100.16,104.809,0.00356652,0.280971,20.7455,103.101,-0.412916,0.0,0.0
4440,1109.75,65.0557,70.3561,141.26,100.111,104.858,0.00344772,0.271064,20.7562,102.931,-0.421603,0.0,0.0
4452,1112.75,64.8267,69.4112,140.361,100.057,104.814,0.00370491,0.263833,20.7612,102.771,-0.422676,0.0,0.0
4464,1115.75,64.1299,69.0081,138.256,100.021,104.181,0.00382332,0.25569,20.7713,102.57,-0.370805,0.0,0.0
4476,1118.75,63.0431,67.9334,145.296,99.987,104.637,0.0037838,0.247964,20.7802,102.41,-0.413651,0.0,0.0
4488,1121.75,62.6998,67.7973,142.349,99.9192,104.397,0.00394533,0.240558,20.7887,102.25,-0.398934,0.0,0.0
4500,1124.75,62.6342,67.2677,141.838,99.8796,104.183,0.00412629,0.232115,20.7992,102.11,-0.383869,0.0,0.0
4512,1127.75,61.5798,66.3085,142.802,99.8094,104.456,0.00424184,0.224977,20.8072,102.02,-0.41408,0.0,0.0
4524,1130.75,61.1458,65.8089,139.44,99.7702,104.966,0.00420476,0.217715,20.8155,101.97,-0.461948,0.0,0.0
4536,1133.75,60.5398,65.0026,139.846,99.7267,104.816,0.0042441,0.209773,20.8234,101.85,-0.452988,0.0,0.0
4548,1136.75,59.5728,64.4735,145.697,99.6756,105.287,0.00454445,0.20179,20.8338,101.74,-0.498416,0.0,0.0
4560,1139.75,58.6211,63.8136,143.58,99.6285,104.891,0.00465291,0.194578,20.8423,101.609,-0.468442,0.0,0.0
4572,1142.75,58.1406,63.1954,143.269,99.587,104.287,0.00437453,0.187699,20.8491,101.489,-0.419694,0.0,0.0
4584,1145.75,58.1734,62.4058,149.729,99.5574,104.362,0.00411852,0.180336,20.8566,101.389,-0.428914,0.0,0.0
4596,1148.75,57.0127,61.5061,143.817,99.5147,104.306,0.00398995,0.17392,20.8634,101.319,-0.427911,0.0,0.0
4608,1151.75,56.7914,60.8414,142.993,99.4976,104.572,0.00418996,0.167581,20.8692,101.189,-0.45267,0.0,0.0
4620,1154.75,56.0867,60.3161,144.146,99.4453,104.102,0.00423857,0.162225,20.8759,101.099,-0.416451,0.0,0.0
4632,1157.75,55.1769,59.5833,149.241,99.4289,104.507,0.00428983,0.156639,20.8814,101.079,-0.453269,0.0,0.0
4644,1160.75,54.8673,59.3487,147.181,99.5215,104.634,0.00441813,0.151459,20.8878,100.999,-0.455885,0.0,0.0
4656,1163.75,54.1133,58.1812,146.54,99.603,104.75,0.00456958,0.146459,20.8932,100.929,-0.458501,0.0,0.0
4668,1166.75,54.0741,58.341,145.762,99.67,104.806,0.00494817,0.142327,20.8965,100.889,-0.457263,0.0,0.0
4680,1169.75,53.1322,57.5152,145.03,99.7391,104.597,0.0051528,0.138448,20.9006,100.819,-0.43276,0.0,0.0
4692,1172.75,53.0004,56.7488,152.029,99.7926,104.82,0.00527801,0.134863,20.9051,100.739,-0.447291,0.0,0.0
4704,1175.75,52.1845,55.9763,150.199,99.8357,104.915,0.00566442,0.131918,20.9071,100.669,-0.451605,0.0,0.0
4716,1178.75,52.1063,55.8955,147.702,99.8533,104.665,0.00591006,0.128875,20.9103,100.609,-0.4283,0.0,0.0
4728,1181.75,51.5006,55.2828,145.744,99.874,104.434,0.00617148,0.126057,20.9134,100.549,-0.406261,0.0,0.0
4740,1184.75,51.1495,54.4754,146.468,99.882,104.443,0.00671594,0.122717,20.9169,100.438,-0.406358,0.0,0.0
4752,1187.75,50.7136,54.0484,149.652,99.8681,104.817,0.00705306,0.120329,20.9198,100.388,-0.440139,0.0,0.0
4764,1190.75,50.4467,53.3947,145.922,99.8517,104.499,0.00708418,0.117845,20.9226,100.348,-0.414027,0.0,0.0
4776,1193.75,49.4341,52.9986,146.228,99.809,104.242,0.00743073,0.115559,20.9248,100.298,-0.395462,0.0,0.0
4788,1196.75,50.0184,52.8481,145.499,99.7291,104.529,0.00778187,0.11357,20.9249,100.248,-0.427752,0.0,0.0
4800,1199.75,49.291,52.241,151.348,99.6241,104.289,0.00781613,0.111833,20.9249,100.228,-0.41642,0.0,0.0
4812,1202.75,48.8478,51.6454,145.772,99.488,103.619,0.00783803,0.110695,20.9251,100.228,-0.370247,0.0,0.0
4824,1205.75,48.4607,51.2989,148.277,99.3143,104.273,0.00788404,0.109493,20.9271,100.218,-0.44335,0.0,0.0
4836,1208.75,48.1037,50.6918,146.721,99.1698,103.48,0.00784682,0.108712,20.9282,100.178,-0.387171,0.0,0.0
4848,1211.75,47.7982,50.3874,145.224,99.0492,103.745,0.00774932,0.108166,20.9291,100.138,-0.421498,0.0,0.0
4860,1214.75,47.5418,49.8432,146.582,99.0911,103.688,0.00770758,0.107094,20.9304,100.098,-0.412629,0.0,0.0
4872,1217.75,47.2973,49.7075,151.726,99.1386,103.496,0.00754624,0.106168,20.9308,100.068,-0.391415,0.0,0.0
4884,1220.75,45.2188,47.6815,148.042,99.1949,104.093,0.00748257,0.105353,20.9309,99.9881,-0.43864,0.0,0.0
4896,1223.75,44.94,47.2948,147.565,99.2688,103.924,0.00743405,0.104912,20.931,99.9881,-0.417052,0.0,0.0
4908,1226.75,44.7215,47.1102,147.652,99.3514,103.726,0.00743105,0.104331,20.9307,99.948,-0.392152,0.0,0.0
4920,1229.75,44.5824,46.4134,149.845,99.4289,104.392,0.00756013,0.103881,20.9305,99.908,-0.443265,0.0,0.0
4932,1232.75,44.5241,46.6021,152.363,99.5127,104.323,0.0075044,0.103714,20.9318,99.8479,-0.429625,0.0,0.0
4944,1235.75,44.7383,46.0817,151.9,99.5874,104.389,0.00737243,0.103187,20.9325,99.8179,-0.428494,0.0,0.0
4956,1238.75,43.8739,45.8188,145.001,99.6341,104.106,0.00720816,0.103062,20.9321,99.7679,-0.39958,0.0,0.0
4968,1241.75,44.0686,46.0706,143.324,99.6908,104.09,0.00703382,0.102955,20.9313,99.7178,-0.392986,0.0,0.0
4980,1244.75,43.9984,45.4872,149.106,99.7123,104.389,0.00705715,0.103216,20.93,99.6878,-0.417121,0.0,0.0
4992,1247.75,43.7306,45.402,152.768,99.7151,104.369,0.00710728,0.103089,20.9297,99.6077,-0.415139,0.0,0.0
5004,1250.75,43.5922,44.9264,145.931,99.6936,103.875,0.00714015,0.103064,20.9308,99.6177,-0.373933,0.0,0.0
5016,1253.75,43.2916,45.1759,148.694,99.6736,104.337,0.00695208,0.103103,20.9315,99.5777,-0.416141,0.0,0.0
5028,1256.75,43.5206,44.9588,147.574,99.6445,104.259,0.00669381,0.102901,20.9323,99.5577,-0.411927,0.0,0.0
5040,1259.75,43.4557,44.2383,148.696,99.6002,104.043,0.0065126,0.102907,20.9328,99.4676,-0.397168,0.0,0.0
5052,1262.75,43.1471,44.5962,146.041,99.5682,103.915,0.00647708,0.102547,20.9329,99.4176,-0.388854,0.0,0.0
5064,1265.75,42.9064,43.9547,150.452,99.5155,103.969,0.00650112,0.102366,20.9329,99.3475,-0.398364,0.0,0.0
5076,1268.75,42.7839,44.0526,147.199,99.4584,103.955,0.00631917,0.102016,20.9345,99.2674,-0.402364,0.0,0.0
5088,1271.75,42.4839,43.5582,147.002,99.4025,104.118,0.00630915,0.101863,20.9342,99.2574,-0.421778,0.0,0.0
5100,1274.75,42.4565,43.1975,147.326,99.3614,104.06,0.00640204,0.101796,20.9327,99.2774,-0.420465,0.0,0.0
5112,1277.75,42.7713,43.9119,147.097,99.2995,103.997,0.00646662,0.101838,20.9322,99.2274,-0.42066,0.0,0.0
5124,1280.75,42.3249,43.475,150.831,99.2728,103.776,0.00647345,0.102031,20.9321,99.2374,-0.403704,0.0,0.0
5136,1283.75,42.3518,43.2061,148.252,99.2364,103.947,0.00649581,0.101985,20.9314,99.2074,-0.422028,0.0,0.0
5148,1286.75,42.6066,43.1968,145.196,99.2109,103.886,0.00659566,0.101965,20.9319,99.1673,-0.419009,0.0,0.0
5160,1289.75,42.3298,43.0982,147.92,99.2057,103.725,0.00658266,0.101733,20.932,99.1573,-0.405431,0.0,0.0
5172,1292.75,41.8225,42.9805,152.331,99.1981,103.706,0.00676584,0.101788,20.932,99.1173,-0.404468,0.0,0.0
5184,1295.75,42.1217,42.7634,147.99,99.2145,103.698,0.00675155,0.101426,20.9331,99.0772,-0.402215,0.0,0.0
5196,1298.75,41.9181,43.1215,147.045,99.2081,103.869,0.00642714,0.101547,20.9348,99.0272,-0.417766,0.0,0.0
5208,1301.75,41.8982,42.6788,149.432,99.2073,103.844,0.00615207,0.101324,20.9357,99.0072,-0.415709,0.0,0.0
5220,1304.75,41.625,42.7895,145.509,99.2201,103.997,0.00625621,0.101549,20.9348,98.9872,-0.427943,0.0,0.0
5232,1307.75,42.2792,42.335,150.119,99.24,103.626,0.00633139,0.101794,20.9345,98.9471,-0.393586,0.0,0.0
5244,1310.75,41.8803,42.4769,149.636,99.2572,104.308,0.00630066,0.101686,20.9344,98.9371,-0.451687,0.0,0.0
5256,1313.75,42.0677,42.2489,147.508,99.2935,103.721,0.00633657,0.101447,20.9344,98.8771,-0.396983,0.0,0.0
5268,1316.75,41.6918,42.1843,147.541,99.3227,103.898,0.00628446,0.101384,20.9344,98.8571,-0.409864,0.0,0.0
5280,1319.75,41.8271,42.0144,150.057,99.3646,103.661,0.00626287,0.101212,20.9333,98.817,-0.385255,0.0,0.0
5292,1322.75,41.5234,41.7818,151.015,99.3774,103.689,0.00622428,0.101181,20.9326,98.767,-0.386495,0.0,0.0
5304,1325.75,41.1266,41.938,145.998,99.3981,104.136,0.00614236,0.101372,20.931,98.757,-0.423755,0.0,0.0
5316,1328.75,41.5863,41.8416,150.334,99.4229,103.961,,0.101586,,98.7069,-0.406208,0.0,0.0
5328,1331.75,41.6084,41.9906,150.654,99.4369,104.549,,,,98.6569,-0.456224,0.0,0.0
5340,1334.75,41.3584,41.5881,149.956,99.452,104.051,,,,98.6369,-0.411381,0.0,0.0
5352,1337.75,41.2102,41.8131,151.105,99.4648,104.096,,,,98.5568,-0.41415,0.0,0.0
5354,1338.25,41.1793,42.1342,149.59,99.4808,104.059,,,,98.6269,-0.40942,0.0,0.0