File: 01_Data/Oak_HWF/Cone/Oak_Flooring_Cone_HF75Scan_220526_R3.csv
Names,Time,Stack TC,Smoke TC,Exh Press,Smoke Comp,Smoke Meas,CO Meter,CO2 Meter,O2 Meter,Sample Mass,Ext Coeff,Start Test,Flame Verif
Chan Gain,,500,500,1,1,1,1,1,1,1,1,1.0,1.0
Offset,,0,0,0.137018,0,0,0,0,0,0,0,0.0,0.0
Gain,,1,1,25.011,13.1636,15.082,1,1,1,1.00086,1.04368,1.0,1.0
Units,sec,C,C,Pa,%,%,%,%,%,g,/m,,
Baseline,,49.0144,50.9425,135.873,99.732,107.296,0.000526804,0.0493176,21.0038,-450.181,-0.669249,,
12,2.75,45.7074,47.7696,136.778,99.3319,106.447,0.000423933,0.052429,20.9941,209.771,-0.633314,0.0,0.0
24,5.75,45.7004,47.4335,134.37,99.3484,106.674,0.000570945,0.0523323,20.9956,209.691,-0.651331,0.0,0.0
36,8.75,46.3391,48.4046,141.385,99.3588,105.954,0.000772158,0.0519759,20.9966,209.551,-0.588379,0.0,0.0
48,11.75,46.5256,48.002,135.843,99.3443,104.244,0.00129502,0.0523018,20.9924,209.371,-0.440761,0.0,0.0
60,14.75,46.5355,48.4565,138.298,99.3576,100.994,0.0038844,0.0609161,20.9872,209.091,-0.149573,0.0,0.0
72,17.75,47.9912,49.1463,110.816,99.3805,75.8416,0.0137063,0.153192,20.7453,208.31,2.47471,0.0,1.0
84,20.75,52.4376,51.5416,103.393,99.3664,73.2927,0.0252986,0.357608,20.1915,207.299,2.7864,0.0,0.0
96,23.75,61.0217,58.0161,101.115,99.3829,69.2943,0.0332581,0.602291,19.7193,206.188,3.30149,0.0,0.0
108,26.75,68.9982,65.459,105.667,99.3624,74.1506,0.035456,0.777115,19.5438,205.047,2.67948,0.0,0.0
120,29.75,74.3242,70.7368,106.644,99.3588,85.2899,0.031565,0.847668,19.6093,204.156,1.39781,0.0,0.0
132,32.75,77.1357,74.8978,107.349,99.3576,90.3579,0.024697,0.845458,19.8203,203.386,0.869249,0.0,0.0
144,35.75,78.9878,78.086,114.117,99.3463,94.9794,0.0187245,0.810749,19.9841,202.645,0.411538,0.0,0.0
156,38.75,80.7908,79.9564,116.96,99.3544,98.6975,0.0148445,0.763968,20.1184,202.014,0.0607329,0.0,0.0
168,41.75,80.9771,81.2645,114.536,99.3275,100.177,0.0121367,0.714938,20.2446,201.414,-0.0779898,0.0,0.0
180,44.75,81.7344,81.9485,121.051,99.323,99.5927,0.0108187,0.674254,20.32,200.803,-0.024821,0.0,0.0
192,47.75,81.666,82.8949,119.137,99.3158,99.8375,0.010327,0.639192,20.37,200.243,-0.0479681,0.0,0.0
204,50.75,82.0595,83.2782,116.779,99.2985,100.778,0.0100175,0.612303,20.403,199.712,-0.135385,0.0,0.0
216,53.75,82.387,84.3831,117.987,99.2929,100.883,0.00979064,0.587108,20.4349,199.202,-0.145432,0.0,0.0
228,56.75,82.3747,84.9914,121.081,99.2933,100.663,0.00936045,0.563815,20.4626,198.732,-0.125407,0.0,0.0
240,59.75,82.0566,85.1191,119.268,99.2765,100.401,0.00875767,0.542348,20.4871,198.191,-0.103114,0.0,0.0
252,62.75,81.6802,84.9744,125.86,99.2765,101.277,0.00824189,0.522816,20.5094,197.751,-0.182635,0.0,0.0
264,65.75,81.6044,85.5498,124.564,99.2712,101.973,0.00802281,0.504677,20.527,197.24,-0.245812,0.0,0.0
276,68.75,81.6701,85.1506,121.657,99.2664,101.148,0.00793572,0.489369,20.5413,196.8,-0.171905,0.0,0.0
288,71.75,81.1809,85.5545,121.393,99.2507,102.057,0.00800632,0.474178,20.5586,196.39,-0.25526,0.0,0.0
300,74.75,80.5307,85.482,122.223,99.2572,100.951,0.00800059,0.45916,20.5743,195.949,-0.15491,0.0,0.0
312,77.75,80.4797,85.214,118.204,99.2596,101.67,0.00802574,0.447271,20.5827,195.549,-0.219696,0.0,0.0
324,80.75,80.4213,85.383,118.186,99.2479,102.703,0.00787426,0.437498,20.5906,195.138,-0.313265,0.0,0.0
336,83.75,79.8315,85.3709,126.041,99.2363,102.164,0.00770118,0.429332,20.5947,194.658,-0.266168,0.0,0.0
348,86.75,79.8966,85.037,118.56,99.227,102.573,0.00748517,0.422893,20.5969,194.268,-0.303655,0.0,0.0
360,89.75,79.1948,84.8527,118.786,99.213,101.96,0.00741368,0.417878,20.5959,193.897,-0.250069,0.0,0.0
372,92.75,79.0079,85.1557,123.456,99.2074,103.218,0.00732908,0.414547,20.5958,193.357,-0.362805,0.0,0.0
384,95.75,79.1224,84.9109,120.018,99.2017,102.05,0.00731828,0.410099,20.5996,192.957,-0.259121,0.0,0.0
396,98.75,79.2531,84.8553,121.604,99.1889,102.469,0.00747867,0.405483,20.6052,192.556,-0.297888,0.0,0.0
408,101.75,78.3222,85.2501,123.432,99.1861,102.781,0.00738455,0.401058,20.6098,192.136,-0.325945,0.0,0.0
420,104.75,78.4734,84.5066,128.862,99.1788,103.259,0.00689799,0.397639,20.612,191.726,-0.369071,0.0,0.0
432,107.75,78.3049,84.0814,122.177,99.1744,102.769,0.0063585,0.393876,20.616,191.305,-0.325914,0.0,0.0
444,110.75,78.4804,84.5355,122.073,99.1692,102.863,0.00625729,0.390219,20.6233,190.905,-0.334798,0.0,0.0
456,113.75,77.7781,84.3112,124.845,99.1652,102.974,0.00607472,0.385283,20.6301,190.524,-0.345077,0.0,0.0
468,116.75,77.8539,83.8239,121.343,99.2503,103.086,0.00584181,0.381071,20.6344,190.154,-0.347115,0.0,0.0
480,119.75,77.6419,84.0401,127.858,99.3279,103.772,0.00566487,0.377721,20.6384,189.744,-0.400711,0.0,0.0
492,122.75,77.5508,83.5603,120.525,99.3905,103.579,0.00550381,0.374616,20.6412,189.414,-0.377907,0.0,0.0
504,125.75,77.2048,83.7173,120.47,99.5034,102.963,0.0055471,0.371873,20.6432,189.033,-0.312879,0.0,0.0
516,128.75,76.6962,83.48,125.2,99.6018,103.84,0.00551069,0.368105,20.6467,188.693,-0.381541,0.0,0.0
528,131.75,76.6438,82.9054,121.781,99.6842,104.233,0.00506859,0.366171,20.6477,188.273,-0.408524,0.0,0.0
540,134.75,76.9844,82.8032,125.807,99.7493,104.054,0.00466849,0.365106,20.6471,187.912,-0.386769,0.0,0.0
552,137.75,76.3497,83.0352,121.745,99.8176,103.931,0.00451457,0.362579,20.651,187.562,-0.369684,0.0,0.0
564,140.75,76.6817,82.6456,121.463,99.8851,104.162,0.00444872,0.359628,20.6559,187.202,-0.383867,0.0,0.0
576,143.75,76.7326,82.0131,122.242,99.9401,104.076,0.00482572,0.355698,20.6615,186.851,-0.371256,0.0,0.0
588,146.75,76.4034,82.3175,123.425,100.002,104.875,0.00498554,0.352805,20.6648,186.491,-0.435608,0.0,0.0
600,149.75,75.7832,82.3396,119.913,100.051,104.162,0.00486109,0.350242,20.6675,186.151,-0.368669,0.0,0.0
612,152.75,75.4471,81.6575,125.452,100.075,104.65,0.00472211,0.348165,20.669,185.86,-0.409173,0.0,0.0
624,155.75,75.5613,81.9198,125.215,100.086,105.167,0.00438186,0.345856,20.6697,185.44,-0.4534,0.0,0.0
636,158.75,75.4273,81.4162,123.546,100.086,105.009,0.00425405,0.34318,20.6716,185.08,-0.439647,0.0,0.0
648,161.75,75.2485,81.516,123.875,100.056,104.495,0.00424699,0.342096,20.6721,184.749,-0.397435,0.0,0.0
660,164.75,75.0794,81.3103,120.659,100.024,104.861,0.00435287,0.341606,20.6703,184.399,-0.432345,0.0,0.0
672,167.75,75.4659,81.1572,119.862,99.967,104.688,0.00450704,0.341181,20.6697,184.009,-0.422442,0.0,0.0
684,170.75,75.3146,81.1891,123.119,99.9108,104.196,0.00425036,0.339971,20.6719,183.679,-0.384505,0.0,0.0
696,173.75,74.9267,81.3542,125.377,99.8023,104.596,0.00408227,0.338723,20.6745,183.328,-0.429525,0.0,0.0
708,176.75,74.8244,80.9132,127.884,99.7059,104.614,0.00422276,0.336881,20.6763,182.958,-0.439904,0.0,0.0
720,179.75,74.7299,81.1091,124.622,99.6468,104.116,0.00423308,0.335358,20.6779,182.608,-0.401641,0.0,0.0
732,182.75,75.1283,80.5043,123.974,99.5717,104.268,0.00408223,0.334265,20.6787,182.287,-0.421933,0.0,0.0
744,185.75,75.3341,80.7467,124.126,99.6151,105.251,0.00402804,0.333622,20.6786,181.987,-0.503822,0.0,0.0
756,188.75,74.7458,80.0882,128.224,99.6577,104.503,0.00437669,0.333353,20.6775,181.547,-0.434659,0.0,0.0
768,191.75,74.6481,80.385,123.257,99.7288,104.843,0.00450358,0.333302,20.676,181.196,-0.457879,0.0,0.0
780,194.75,74.3771,80.3282,123.646,99.7798,104.81,0.00440955,0.333438,20.676,180.896,-0.450302,0.0,0.0
792,197.75,74.8091,80.04,122.646,99.8268,104.853,0.00420792,0.33253,20.6781,180.496,-0.449729,0.0,0.0
804,200.75,74.6794,80.2873,121.011,99.8851,104.828,0.00393806,0.332601,20.6794,180.166,-0.442218,0.0,0.0
816,203.75,74.4836,80.1517,125.505,99.9433,105.073,0.00396923,0.330585,20.6841,179.845,-0.458201,0.0,0.0
828,206.75,74.1721,79.9048,129.317,100.018,104.572,0.00414022,0.330702,20.6825,179.465,-0.407622,0.0,0.0
840,209.75,73.7514,79.4475,124.954,100.055,105.316,0.00400667,0.33132,20.6792,179.015,-0.469126,0.0,0.0
852,212.75,74.1184,79.5036,124.354,100.084,104.828,0.00419225,0.332204,20.6781,178.824,-0.424011,0.0,0.0
864,215.75,74.2045,79.5192,122.54,100.095,104.935,0.00425219,0.332042,20.6776,178.404,-0.432379,0.0,0.0
876,218.75,74.3106,79.3086,122.034,100.118,104.961,0.00390854,0.332081,20.677,178.084,-0.43242,0.0,0.0
888,221.75,74.5412,79.5406,121.08,100.128,105.166,0.00378479,0.331788,20.6772,177.743,-0.449422,0.0,0.0
900,224.75,74.4582,79.371,120.456,100.163,104.624,0.00381679,0.331737,20.6795,177.403,-0.398987,0.0,0.0
912,227.75,74.2647,79.5882,124.324,100.165,104.779,0.00386293,0.330914,20.6817,177.083,-0.412285,0.0,0.0
924,230.75,74.5171,79.7042,122.831,100.169,104.84,0.00416574,0.329906,20.6832,176.693,-0.417231,0.0,0.0
936,233.75,74.1913,79.8653,127.959,100.155,104.703,0.00444269,0.329253,20.6823,176.352,-0.406564,0.0,0.0
948,236.75,74.5504,79.8328,121.923,100.156,105.051,0.00437711,0.328926,20.6817,176.032,-0.436833,0.0,0.0
960,239.75,74.3144,79.566,121.517,100.167,104.676,0.00425163,0.329352,20.6815,175.692,-0.403055,0.0,0.0
972,242.75,74.1689,79.7081,123.71,100.184,105.129,0.0041719,0.328486,20.6847,175.281,-0.441039,0.0,0.0
984,245.75,74.1213,79.417,123.822,100.186,105.236,0.00409868,0.327482,20.6853,174.971,-0.450227,0.0,0.0
996,248.75,74.1398,79.085,126.683,100.198,105.166,0.003856,0.327045,20.6853,174.621,-0.443034,0.0,0.0
1008,251.75,74.2001,79.685,126.633,100.186,105.081,0.00368285,0.326904,20.6846,174.28,-0.436723,0.0,0.0
1020,254.75,73.9184,79.2509,123.237,100.204,104.551,0.00376107,0.327506,20.6822,173.95,-0.388799,0.0,0.0
1032,257.75,73.953,78.866,122.394,100.192,104.892,0.00379333,0.328245,20.6811,173.59,-0.419676,0.0,0.0
1044,260.75,74.0189,79.1871,122.486,100.192,104.916,0.00383973,0.328874,20.6821,173.24,-0.421842,0.0,0.0
1056,263.75,74.2241,79.3835,118.866,100.179,105.024,0.0039653,0.328033,20.6827,172.899,-0.432373,0.0,0.0
1068,266.75,74.5627,79.1896,123.09,100.153,104.999,0.00403541,0.328216,20.6828,172.549,-0.43259,0.0,0.0
1080,269.75,74.3863,79.5133,126.021,100.145,104.78,0.00397952,0.328179,20.6826,172.179,-0.414204,0.0,0.0
1092,272.75,74.4739,79.5951,122.567,100.129,105.004,0.00376336,0.328545,20.6822,171.918,-0.435315,0.0,0.0
1104,275.75,74.7272,79.2206,127.707,100.112,104.9,0.00366364,0.328829,20.6821,171.568,-0.427747,0.0,0.0
1116,278.75,74.2515,79.5369,127.416,100.086,105.216,0.00371076,0.328812,20.682,171.158,-0.457687,0.0,0.0
1128,281.75,74.3186,79.5248,124.154,100.062,104.425,0.00368823,0.329157,20.6817,170.837,-0.390754,0.0,0.0
1140,284.75,74.3289,78.9207,125.331,100.085,104.784,0.00364193,0.328364,20.683,170.567,-0.420037,0.0,0.0
1152,287.75,74.2406,79.0084,123.539,100.093,105.334,0.00369455,0.328113,20.6834,170.237,-0.467272,0.0,0.0
1164,290.75,74.3274,79.1186,125.113,100.086,105.169,0.00374791,0.327719,20.6834,169.917,-0.453527,0.0,0.0
1176,293.75,74.3186,78.6333,122.687,100.084,105.106,0.00363864,0.327753,20.6828,169.516,-0.448254,0.0,0.0
1188,296.75,74.4455,78.8276,124.442,100.098,105.329,0.00355268,0.327753,20.685,169.286,-0.466277,0.0,0.0
1200,299.75,73.6932,79.017,121.599,100.099,104.79,0.00342535,0.326874,20.6866,168.846,-0.419278,0.0,0.0
1212,302.75,74.2166,79.1339,126.236,100.11,105.13,0.00352632,0.325958,20.6889,168.535,-0.447953,0.0,0.0
1224,305.75,73.9679,78.623,129.11,100.126,105.001,0.00370148,0.324604,20.6904,168.215,-0.435291,0.0,0.0
1236,308.75,73.841,78.7703,122.823,100.144,105.028,0.00371894,0.324837,20.6898,167.905,-0.435925,0.0,0.0
1248,311.75,74.4063,78.7767,129.55,100.179,105.816,0.00357845,0.324433,20.6902,167.515,-0.501165,0.0,0.0
1260,314.75,74.281,78.9872,123.342,100.197,105.545,0.00333159,0.323697,20.6909,167.264,-0.476064,0.0,0.0
1272,317.75,74.201,78.6609,123.847,100.234,105.364,0.00321543,0.32366,20.6906,166.824,-0.456948,0.0,0.0
1284,320.75,74.0596,78.9198,122.566,100.247,105.821,0.00339324,0.323088,20.689,166.564,-0.49544,0.0,0.0
1296,323.75,74.2411,78.7801,122.708,100.261,105.154,0.00355034,0.323437,20.6879,166.153,-0.436271,0.0,0.0
1308,326.75,74.071,79.0573,126.902,100.273,105.642,0.0033485,0.322537,20.6892,165.853,-0.477549,0.0,0.0
1320,329.75,74.3358,78.9071,125.259,100.313,105.619,0.00318268,0.322085,20.6882,165.503,-0.471851,0.0,0.0
1332,332.75,74.2046,79.2246,118.512,100.307,105.346,0.00316738,0.322916,20.6862,165.203,-0.448749,0.0,0.0
1344,335.75,74.2508,78.9454,122.703,100.321,105.161,0.00312699,0.323448,20.686,164.912,-0.431372,0.0,0.0
1356,338.75,74.2189,79.1583,125.642,100.334,105.701,0.00306696,0.324324,20.685,164.552,-0.477044,0.0,0.0
1368,341.75,74.4795,79.1916,121.862,100.347,104.974,0.00303725,0.324214,20.6866,164.242,-0.412743,0.0,0.0
1380,344.75,74.5805,78.5696,122.729,100.366,105.131,0.00308607,0.32322,20.688,163.881,-0.424621,0.0,0.0
1392,347.75,74.0559,78.6317,120.698,100.38,104.709,0.00311654,0.325137,20.6865,163.541,-0.386547,0.0,0.0
1404,350.75,74.4784,79.1127,130.697,100.384,105.65,0.00299042,0.324714,20.6874,163.191,-0.468151,0.0,0.0
1416,353.75,74.0443,78.5864,125.455,100.384,105.352,0.0030056,0.323548,20.6887,162.861,-0.442271,0.0,0.0
1428,356.75,74.0321,78.7604,127.812,100.391,105.62,0.00312718,0.324523,20.6864,162.56,-0.464898,0.0,0.0
1440,359.75,74.3452,78.7494,121.954,100.401,105.213,0.003221,0.324684,20.6848,162.2,-0.428605,0.0,0.0
1452,362.75,74.3473,79.1855,123.584,100.402,105.643,0.00321376,0.323976,20.685,161.83,-0.465866,0.0,0.0
1464,365.75,74.5891,78.9491,126.983,100.404,106.06,0.00315335,0.322925,20.6894,161.569,-0.501786,0.0,0.0
1476,368.75,74.2562,79.112,123.288,100.406,105.685,0.00327043,0.320855,20.6931,161.269,-0.469165,0.0,0.0
1488,371.75,74.1807,78.8459,124.574,100.413,105.925,0.00334098,0.319848,20.6928,160.939,-0.489256,0.0,0.0
1500,374.75,74.2905,78.9659,123.935,100.414,106.174,0.00321529,0.318976,20.694,160.619,-0.510679,0.0,0.0
1512,377.75,74.4236,78.4889,122.902,100.414,105.035,0.00328286,0.318261,20.6945,160.268,-0.41192,0.0,0.0
1524,380.75,74.0609,78.3581,124.375,100.405,105.448,0.00322017,0.318541,20.6929,159.948,-0.448605,0.0,0.0
1536,383.75,74.6223,79.107,124.791,100.394,106.254,0.00299205,0.317096,20.6954,159.638,-0.5193,0.0,0.0
1548,386.75,74.056,78.7154,121.456,100.4,106.215,0.00297357,0.315006,20.6997,159.288,-0.515416,0.0,0.0
1560,389.75,73.9077,78.8824,124.606,100.403,106.423,0.00300556,0.314551,20.7009,158.997,-0.533037,0.0,0.0
1572,392.75,73.8741,78.3312,119.442,100.404,105.946,0.00310986,0.314515,20.6995,158.637,-0.491814,0.0,0.0
1584,395.75,73.5558,78.5555,125.322,100.398,106.301,0.00321512,0.315092,20.6976,158.317,-0.523054,0.0,0.0
1596,398.75,73.6128,78.0876,123.228,100.407,105.886,0.00319834,0.315316,20.6975,158.016,-0.486386,0.0,0.0
1608,401.75,74.3051,78.6198,125.34,100.388,105.57,0.0031952,0.314626,20.6992,157.706,-0.460801,0.0,0.0
1620,404.75,73.7646,78.6822,123.19,100.402,105.439,0.00310314,0.313768,20.6997,157.356,-0.448063,0.0,0.0
1632,407.75,73.7444,78.7896,128.387,100.388,106.41,0.00303902,0.313372,20.6996,156.996,-0.533321,0.0,0.0
1644,410.75,74.2262,78.3092,122.733,100.395,105.558,0.00322602,0.313109,20.6986,156.695,-0.459104,0.0,0.0
1656,413.75,73.9669,78.4489,124.238,100.389,105.666,0.00322332,0.313528,20.6983,156.375,-0.46907,0.0,0.0
1668,416.75,73.9228,78.5514,124.19,100.382,105.943,0.00308423,0.313476,20.6982,156.025,-0.493551,0.0,0.0
1680,419.75,73.8175,78.4579,126.134,100.371,105.874,0.0030552,0.313122,20.6996,155.724,-0.488685,0.0,0.0
1692,422.75,73.7207,78.3597,124.98,100.364,106.213,0.00306791,0.312325,20.7016,155.364,-0.518555,0.0,0.0
1704,425.75,74.0383,78.0905,126.598,100.355,105.761,0.00304359,0.311998,20.7014,155.054,-0.480396,0.0,0.0
1716,428.75,74.0578,78.3066,123.946,100.343,105.799,0.003104,0.311721,20.7008,154.724,-0.484765,0.0,0.0
1728,431.75,73.8404,78.3899,123.742,100.321,105.814,0.00315284,0.311383,20.7025,154.443,-0.488015,0.0,0.0
1740,434.75,74.0052,78.0282,124.746,100.312,105.502,0.00323533,0.31102,20.703,154.113,-0.461822,0.0,0.0
1752,437.75,73.7061,77.9242,123.981,100.282,106.132,0.00325988,0.311013,20.7024,153.773,-0.519048,0.0,0.0
1764,440.75,73.8368,78.5505,122.359,100.251,105.497,0.00342887,0.310794,20.7029,153.482,-0.466961,0.0,0.0
1776,443.75,73.9479,78.1967,123.089,100.241,105.47,0.00339716,0.31011,20.7034,153.162,-0.465594,0.0,0.0
1788,446.75,74.4921,78.0251,125.331,100.199,105.852,0.00329949,0.310504,20.7038,152.832,-0.502512,0.0,0.0
1800,449.75,73.9183,77.9868,127.987,100.155,105.915,0.0031966,0.310564,20.7038,152.512,-0.511925,0.0,0.0
1812,452.75,73.7516,78.1222,119.916,100.123,105.291,0.00310386,0.31026,20.7039,152.151,-0.460719,0.0,0.0
1824,455.75,73.937,78.3134,119.881,100.047,105.281,0.00308365,0.310557,20.7037,151.881,-0.46682,0.0,0.0
1836,458.75,74.0435,77.9902,124.516,99.9799,105.638,0.00315599,0.310592,20.7031,151.561,-0.504008,0.0,0.0
1848,461.75,73.9705,78.0463,124.767,99.928,105.425,0.00330673,0.310578,20.7045,151.16,-0.490227,0.0,0.0
1860,464.75,74.0056,77.8584,123.037,99.9023,105.404,0.00333993,0.310607,20.705,150.88,-0.490744,0.0,0.0
1872,467.75,73.947,78.2296,123.526,99.8682,105.526,0.00317802,0.312352,20.701,150.48,-0.504502,0.0,0.0
1884,470.75,74.2175,78.6496,122.583,99.871,105.201,0.00305222,0.313378,20.6991,150.2,-0.47605,0.0,0.0
1896,473.75,74.1209,78.4826,126.595,99.8658,105.302,0.00286363,0.313634,20.6984,149.879,-0.485296,0.0,0.0
1908,476.75,74.1353,78.7492,124.919,99.8742,105.058,0.00290006,0.31409,20.6992,149.559,-0.463289,0.0,0.0
1920,479.75,74.557,78.7308,122.815,99.8931,104.839,0.00304826,0.314292,20.6994,149.229,-0.442447,0.0,0.0
1932,482.75,74.1062,78.9239,120.677,99.9068,105.032,0.00304952,0.313595,20.7011,148.848,-0.45798,0.0,0.0
1944,485.75,74.5755,78.6995,124.084,99.8947,105.807,0.00290647,0.313122,20.7016,148.628,-0.526437,0.0,0.0
1956,488.75,74.2041,78.903,122.526,99.9357,105.938,0.00277048,0.313107,20.7017,148.248,-0.534026,0.0,0.0
1968,491.75,73.9777,78.5506,125.58,99.963,105.701,0.00281216,0.314043,20.7001,147.948,-0.511016,0.0,0.0
1980,494.75,74.2017,78.537,121.956,99.9682,105.746,0.00289704,0.314934,20.698,147.597,-0.514443,0.0,0.0
1992,497.75,73.9227,78.4326,124.209,99.9843,105.622,0.00293115,0.315064,20.6989,147.287,-0.502167,0.0,0.0
2004,500.75,74.0965,78.6048,126.702,99.9895,105.752,0.0029267,0.315119,20.6993,146.927,-0.512933,0.0,0.0
2016,503.75,74.0165,78.4061,122.087,100.007,105.902,0.00275078,0.31562,20.6979,146.627,-0.524371,0.0,0.0
2028,506.75,74.47,78.6967,119.075,100.023,105.592,0.00278176,0.31725,20.6949,146.366,-0.496083,0.0,0.0
2040,509.75,74.5025,78.5737,125.171,100.062,105.549,0.00298843,0.318154,20.6938,145.966,-0.488768,0.0,0.0
2052,512.75,74.2057,78.6671,127.224,100.056,105.825,0.00317389,0.317934,20.6937,145.716,-0.513202,0.0,0.0
2064,515.75,73.9201,78.5957,128.023,100.077,105.569,0.00311935,0.319295,20.6912,145.376,-0.489122,0.0,0.0
2076,518.75,73.711,78.7019,121.99,100.093,105.876,0.00304153,0.319739,20.6904,144.985,-0.51424,0.0,0.0
2088,521.75,74.0912,78.5893,123.479,100.096,105.791,0.0030108,0.320766,20.6886,144.665,-0.50654,0.0,0.0
2100,524.75,74.9336,79.1206,120.334,100.102,105.45,0.00283431,0.32146,20.6882,144.285,-0.476539,0.0,0.0
2112,527.75,74.4595,78.5512,124.948,100.092,105.859,0.00282047,0.321558,20.6894,144.044,-0.512913,0.0,0.0
2124,530.75,74.6494,79.1106,123.238,100.094,106.015,0.00292498,0.321698,20.6907,143.634,-0.526174,0.0,0.0
2136,533.75,74.605,79.0633,123.827,100.11,105.383,0.00300926,0.323763,20.687,143.324,-0.469932,0.0,0.0
2148,536.75,74.9594,79.0041,121.282,100.12,105.419,0.002877,0.32523,20.6855,143.023,-0.472132,0.0,0.0
2160,539.75,74.5657,79.8246,127.566,100.112,105.839,0.00279596,0.324017,20.689,142.683,-0.509365,0.0,0.0
2172,542.75,74.6522,79.6266,120.204,100.135,105.391,0.00294383,0.323136,20.6925,142.273,-0.468298,0.0,0.0
2184,545.75,75.2649,79.2757,124.794,100.145,105.755,0.0032006,0.322447,20.693,141.933,-0.498988,0.0,0.0
2196,548.75,74.6734,79.3781,124.097,100.168,106.244,0.00306263,0.32293,20.6907,141.602,-0.539075,0.0,0.0
2208,551.75,74.973,79.4811,124.74,100.162,106.419,0.00273854,0.324549,20.687,141.192,-0.554764,0.0,0.0
2220,554.75,74.5552,78.7818,124.609,100.16,105.88,0.00265002,0.32596,20.6851,140.862,-0.508423,0.0,0.0
2232,557.75,74.7165,78.9078,117.251,100.151,106.004,0.00269801,0.326783,20.6837,140.561,-0.520004,0.0,0.0
2244,560.75,75.0785,79.3196,124.512,100.162,106.14,0.00288524,0.327175,20.6833,140.231,-0.530696,0.0,0.0
2256,563.75,74.9924,79.1617,121.606,100.156,106.099,0.00291295,0.327242,20.6832,139.871,-0.527792,0.0,0.0
2268,566.75,74.9159,79.1557,120.711,100.148,106.076,0.00288716,0.329622,20.6789,139.51,-0.52654,0.0,0.0
2280,569.75,75.1994,79.6575,124.211,100.132,105.962,0.00281004,0.331864,20.6748,139.19,-0.518152,0.0,0.0
2292,572.75,75.4132,79.7833,122.498,100.117,105.664,0.00277915,0.334238,20.6699,138.78,-0.493669,0.0,0.0
2304,575.75,75.4828,79.5963,122.65,100.08,105.961,0.00264654,0.336894,20.6658,138.43,-0.522736,0.0,0.0
2316,578.75,75.838,79.6185,121.978,100.046,106.11,0.0025176,0.338551,20.6633,138.059,-0.538735,0.0,0.0
2328,581.75,75.6672,79.9552,117.85,100.035,105.62,0.00255979,0.34019,20.6618,137.719,-0.49745,0.0,0.0
2340,584.75,75.6865,80.2941,119.519,99.9971,105.569,0.00266883,0.342176,20.6588,137.399,-0.496401,0.0,0.0
2352,587.75,76.5353,80.6735,121.402,99.9799,105.532,0.00272586,0.343797,20.6569,137.078,-0.494788,0.0,0.0
2364,590.75,76.1973,80.5262,122.071,99.9542,105.416,0.00284058,0.344951,20.6563,136.718,-0.487116,0.0,0.0
2376,593.75,76.2793,80.6991,123.948,99.9517,105.364,0.00292471,0.346143,20.6568,136.368,-0.482818,0.0,0.0
2388,596.75,76.8501,81.1291,125.56,99.9542,105.416,0.0030196,0.348884,20.6535,136.017,-0.487116,0.0,0.0
2400,599.75,76.5936,81.1366,122.25,99.9799,105.638,0.00282516,0.34989,20.6522,135.677,-0.504008,0.0,0.0
2412,602.75,77.0857,80.869,117.36,99.9963,105.141,0.00260819,0.352073,20.6495,135.317,-0.459279,0.0,0.0
2424,605.75,77.0095,81.196,121.163,100.021,105.343,0.00247738,0.35442,20.6478,134.916,-0.474575,0.0,0.0
2436,608.75,77.1342,81.2519,122.506,100.03,105.426,0.00244965,0.357004,20.6449,134.546,-0.480927,0.0,0.0
2448,611.75,77.315,81.5602,121.626,100.033,105.382,0.00254645,0.358467,20.6428,134.206,-0.476908,0.0,0.0
2460,614.75,77.3153,81.7012,124.783,100.047,105.553,0.0026332,0.361435,20.6389,133.806,-0.490484,0.0,0.0
2472,617.75,77.7213,82.1777,122.29,100.065,105.427,0.00267709,0.3619,20.6387,133.505,-0.477922,0.0,0.0
2484,620.75,77.7335,81.879,117.558,100.079,105.323,0.00260438,0.365121,20.6341,133.135,-0.467565,0.0,0.0
2496,623.75,77.8509,82.6768,120.479,100.101,105.477,0.00267654,0.370393,20.6259,132.725,-0.478894,0.0,0.0
2508,626.75,78.3591,82.3315,117.659,100.14,105.731,0.00288784,0.373047,20.6234,132.334,-0.497433,0.0,0.0
2520,629.75,78.0624,82.7403,123.832,100.153,105.451,0.00289267,0.375205,20.6227,131.994,-0.471882,0.0,0.0
2532,632.75,78.3389,82.7206,120.433,100.179,105.138,0.00271442,0.377596,20.6195,131.554,-0.442278,0.0,0.0
2544,635.75,78.5334,82.632,120.606,100.205,104.909,0.00250164,0.382244,20.612,131.173,-0.419992,0.0,0.0
2556,638.75,78.5759,82.852,126.124,100.238,105.728,0.00252761,0.386415,20.6077,130.793,-0.48812,0.0,0.0
2568,641.75,78.828,83.3182,121.2,100.26,105.529,0.00247848,0.388857,20.6055,130.403,-0.468905,0.0,0.0
2580,644.75,79.3684,83.646,120.256,100.289,105.135,0.00258928,0.392238,20.6014,130.022,-0.43202,0.0,0.0
2592,647.75,79.8249,83.7272,124.251,100.295,105.214,0.00282151,0.395158,20.5983,129.642,-0.438366,0.0,0.0
2604,650.75,79.6356,83.862,123.307,100.298,105.501,0.002923,0.398079,20.5962,129.212,-0.462988,0.0,0.0
2616,653.75,79.4488,84.4305,121.623,100.308,105.416,0.00293839,0.401478,20.5908,128.821,-0.454753,0.0,0.0
2628,656.75,80.1725,84.3755,118.773,100.32,104.706,0.00284084,0.405744,20.5846,128.401,-0.391807,0.0,0.0
2640,659.75,80.3555,84.5264,119.952,100.312,105.24,0.00271601,0.409924,20.5815,127.96,-0.438991,0.0,0.0
2652,662.75,80.2438,84.8663,122.425,100.288,105.36,0.00267787,0.413421,20.5779,127.64,-0.451749,0.0,0.0
2664,665.75,80.5474,84.9677,122.633,100.265,105.042,0.0027613,0.41651,20.5741,127.21,-0.426085,0.0,0.0
2676,668.75,80.8708,85.1138,118.465,100.243,104.936,0.00292026,0.419097,20.5721,126.799,-0.418908,0.0,0.0
2688,671.75,81.1739,85.4903,120.558,100.217,104.831,0.00315618,0.421483,20.5676,126.379,-0.412096,0.0,0.0
2700,674.75,81.6218,85.802,115.756,100.192,104.735,0.00328744,0.425268,20.5618,125.979,-0.406003,0.0,0.0
2712,677.75,81.5157,85.8528,120.677,100.172,104.28,0.00328921,0.428781,20.557,125.528,-0.367889,0.0,0.0
2724,680.75,81.827,86.2449,120.246,100.145,105.103,0.00320549,0.430828,20.5566,125.098,-0.44247,0.0,0.0
2736,683.75,81.8267,86.3488,119.57,100.119,104.53,0.00309268,0.432989,20.5566,124.638,-0.394692,0.0,0.0
2748,686.75,82.1924,86.8467,119.282,100.089,104.777,0.00311514,0.436327,20.5514,124.217,-0.41907,0.0,0.0
2760,689.75,82.6738,86.6549,126.472,100.084,103.885,0.00318634,0.438067,20.5483,123.807,-0.34127,0.0,0.0
2772,692.75,81.8808,87.1146,122.822,100.039,104.218,0.00314635,0.440559,20.546,123.367,-0.37467,0.0,0.0
2784,695.75,82.7809,87.4356,117.154,100.006,104.39,0.00320916,0.441359,20.5454,122.876,-0.392758,0.0,0.0
2796,698.75,82.893,87.2924,122.622,99.969,104.382,0.0033475,0.4435,20.5416,122.446,-0.395452,0.0,0.0
2808,701.75,83.4861,87.5512,119.137,99.9493,104.075,0.00324787,0.448126,20.5343,121.995,-0.370329,0.0,0.0
2820,704.75,83.552,87.9181,118.422,99.8806,103.677,0.00315175,0.450917,20.531,121.605,-0.341494,0.0,0.0
2832,707.75,83.8086,88.028,118.564,99.832,103.747,0.0031952,0.453376,20.529,121.185,-0.352167,0.0,0.0
2844,710.75,83.5134,88.5605,119.484,99.783,104.136,0.00338439,0.455213,20.5271,120.784,-0.390959,0.0,0.0
2856,713.75,84.2296,88.8912,124.838,99.7324,103.968,0.00358993,0.45652,20.527,120.274,-0.380823,0.0,0.0
2868,716.75,84.4695,89.231,121.44,99.6754,104.107,0.00363496,0.456144,20.5282,119.853,-0.398252,0.0,0.0
2880,719.75,84.3725,89.225,119.258,99.6091,103.809,0.00375038,0.457176,20.5285,119.473,-0.378077,0.0,0.0
2892,722.75,84.3384,89.2512,119.354,99.5468,103.525,0.00378806,0.456867,20.527,118.993,-0.358722,0.0,0.0
2904,725.75,84.9023,89.8096,117.539,99.4436,103.514,0.00377646,0.458419,20.5251,118.552,-0.367286,0.0,0.0
2916,728.75,85.0244,89.8586,118.617,99.3536,103.226,0.00367772,0.459379,20.5243,118.172,-0.350015,0.0,0.0
2928,731.75,85.1602,90.291,123.483,99.2656,102.987,0.00367826,0.459417,20.5241,117.712,-0.336914,0.0,0.0
2940,734.75,85.2231,90.26,119.844,99.217,103.118,0.00347744,0.459971,20.5246,117.301,-0.353093,0.0,0.0
2952,737.75,85.5651,90.2087,121.669,99.1583,102.839,0.00325849,0.459706,20.5238,116.881,-0.33371,0.0,0.0
2964,740.75,85.2237,90.5175,117.323,99.1029,102.734,0.00326097,0.461749,20.5205,116.421,-0.329401,0.0,0.0
2976,743.75,85.2843,90.6986,119.391,99.0507,102.922,0.00332769,0.462903,20.5182,116.01,-0.350987,0.0,0.0
2988,746.75,85.7123,90.9714,118.532,98.9836,103.345,0.0033268,0.462456,20.5191,115.56,-0.394779,0.0,0.0
3000,749.75,85.5567,90.8435,115.697,98.9061,103.033,0.0034233,0.462346,20.5209,115.159,-0.374225,0.0,0.0
3012,752.75,85.7049,90.8553,119.72,98.8398,102.809,0.00356455,0.461527,20.5215,114.749,-0.360506,0.0,0.0
3024,755.75,85.8962,91.0498,115.966,98.7791,102.304,0.00359886,0.462163,20.5204,114.349,-0.321013,0.0,0.0
3036,758.75,86.1199,91.278,118.029,98.7482,101.992,0.00355995,0.461912,20.5208,113.878,-0.295911,0.0,0.0
3048,761.75,86.2179,91.3923,120.576,98.6815,101.983,0.00358177,0.461256,20.5226,113.428,-0.301311,0.0,0.0
3060,764.75,86.4218,91.6376,118.606,98.6357,102.427,0.00358382,0.459594,20.5248,113.038,-0.345304,0.0,0.0
3072,767.75,86.549,91.6592,119.798,98.616,102.466,0.00370775,0.458262,20.5257,112.607,-0.350588,0.0,0.0
3084,770.75,85.8825,92.0481,120.84,98.5722,102.256,0.00378893,0.457631,20.526,112.217,-0.335882,0.0,0.0
3096,773.75,86.2016,91.4524,121.988,98.5329,101.642,0.00375269,0.456764,20.5269,111.766,-0.284401,0.0,0.0
3108,776.75,85.7968,91.8903,118.272,98.52,102.403,0.00371337,0.454982,20.528,111.356,-0.353869,0.0,0.0
3120,779.75,86.2643,91.2405,121.61,98.5116,102.499,0.00363463,0.455732,20.5276,110.996,-0.363291,0.0,0.0
3132,782.75,85.9269,91.715,119.479,98.4923,102.435,0.00370344,0.452896,20.5324,110.575,-0.359326,0.0,0.0
3144,785.75,86.1414,91.42,115.901,98.4838,101.944,0.00364052,0.450122,20.5352,110.125,-0.316112,0.0,0.0
3156,788.75,85.9984,91.5736,124.364,98.4806,101.864,0.00361502,0.449035,20.5354,109.765,-0.309257,0.0,0.0
3168,791.75,86.0695,91.257,119.654,98.4915,102.073,0.00371325,0.44769,20.5352,109.324,-0.32701,0.0,0.0
3180,794.75,85.8414,91.5956,122.052,98.4871,102.078,0.00333884,0.447129,20.5337,108.994,-0.327875,0.0,0.0
3192,797.75,85.8551,91.4771,118.002,98.4967,102.135,0.0029744,0.444941,20.5386,108.624,-0.332096,0.0,0.0
3204,800.75,86.0569,91.3606,120.12,98.5039,102.415,0.00305996,0.441735,20.5435,108.173,-0.356432,0.0,0.0
3216,803.75,85.3827,91.4215,123.005,98.5156,101.693,0.00324231,0.438302,20.5471,107.813,-0.290606,0.0,0.0
3228,806.75,85.1491,90.8923,116.023,98.5449,101.81,0.00322257,0.436502,20.5497,107.423,-0.2984,0.0,0.0
3240,809.75,85.1232,90.8459,119.853,98.5546,101.715,0.00314795,0.433678,20.5542,107.032,-0.288934,0.0,0.0
3252,812.75,85.1086,90.6579,124.686,98.567,102.121,0.00319636,0.431631,20.5558,106.732,-0.324326,0.0,0.0
3264,815.75,85.0898,90.7992,117.53,98.5907,102.276,0.00313378,0.428469,20.5599,106.322,-0.33602,0.0,0.0
3276,818.75,85.335,90.9477,122.783,98.6092,102.784,0.00304367,0.424556,20.5659,105.992,-0.379635,0.0,0.0
3288,821.75,85.227,90.5238,118.111,98.6465,102.644,0.00282769,0.420032,20.5734,105.621,-0.363696,0.0,0.0
3300,824.75,84.6702,90.9004,122.562,98.6747,102.173,0.0027184,0.413555,20.5793,105.241,-0.318952,0.0,0.0
3312,827.75,84.8463,90.454,119.386,98.7132,102.671,0.00284701,0.411168,20.5802,104.921,-0.35993,0.0,0.0
3324,830.75,84.6165,90.3591,119.26,98.7373,102.366,0.00304366,0.408779,20.5805,104.59,-0.330444,0.0,0.0
3336,833.75,84.1914,89.7794,120.933,98.7687,102.908,0.00311765,0.405483,20.5838,104.27,-0.375821,0.0,0.0
3348,836.75,83.9089,89.9048,122.068,98.8117,102.457,0.00318441,0.402374,20.5872,103.92,-0.331703,0.0,0.0
3360,839.75,84.1078,89.5694,115.814,98.8679,102.738,0.00321016,0.398986,20.593,103.619,-0.351506,0.0,0.0
3372,842.75,83.7577,89.8503,123.924,98.8924,102.671,0.00319342,0.39595,20.5962,103.249,-0.343329,0.0,0.0
3384,845.75,83.6655,89.3851,121.557,98.937,103.06,0.00316235,0.392757,20.5996,102.959,-0.373775,0.0,0.0
3396,848.75,83.406,89.2031,121.105,98.976,103.118,0.00313909,0.389684,20.6017,102.629,-0.375361,0.0,0.0
3408,851.75,83.6914,89.066,119.445,99.0338,103.058,0.00301514,0.38682,20.605,102.268,-0.364658,0.0,0.0
3420,854.75,83.0393,88.8288,125.834,99.0728,103.571,0.00301784,0.382748,20.611,101.968,-0.406531,0.0,0.0
3432,857.75,82.7651,89.0387,123.841,99.1258,103.141,0.00306669,0.378741,20.6154,101.718,-0.363554,0.0,0.0
3444,860.75,82.981,88.9377,120.923,99.1559,103.341,0.00311281,0.376329,20.6167,101.388,-0.378486,0.0,0.0
3456,863.75,82.5319,88.2534,119.337,99.1917,103.278,0.00306877,0.374265,20.6186,101.117,-0.369598,0.0,0.0
3468,866.75,82.4714,87.933,122.946,99.2258,103.236,0.00305602,0.371135,20.6233,100.807,-0.362733,0.0,0.0
3480,869.75,81.9739,87.7786,117.22,99.2865,103.237,0.00297213,0.367317,20.6287,100.487,-0.357178,0.0,0.0
3492,872.75,81.3529,87.7809,119.892,99.3343,102.597,0.00277466,0.365533,20.6313,100.156,-0.295901,0.0,0.0
3504,875.75,81.5907,87.1325,122.639,99.3725,103.145,0.00274831,0.36324,20.6329,99.90625,-0.341088,0.0,0.0
3516,878.75,80.8532,87.0754,123.134,99.405,103.712,0.00269605,0.360473,20.6343,99.636,-0.388325,0.0,0.0
3528,881.75,81.321,86.5574,119.716,99.4604,103.15,0.00270651,0.359118,20.6362,99.3358,-0.333436,0.0,0.0
3540,884.75,80.8892,87.1158,122.882,99.5042,103.347,0.00280383,0.356746,20.6387,99.0355,-0.346914,0.0,0.0
3552,887.75,80.5659,86.4005,117.029,99.5299,103.652,0.00291876,0.353866,20.6409,98.7653,-0.371501,0.0,0.0
3564,890.75,80.5195,85.8229,122.711,99.5705,103.614,0.00296651,0.352762,20.6415,98.475,-0.364395,0.0,0.0
3576,893.75,80.5508,85.8821,121.485,99.6067,103.559,0.0028909,0.351591,20.6418,98.1948,-0.35623,0.0,0.0
3588,896.75,80.2164,86.0199,122.998,99.6396,103.84,0.00284609,0.349947,20.6429,97.9245,-0.378031,0.0,0.0
3600,899.75,80.286,85.5791,121.778,99.6834,103.749,0.00282645,0.3475,20.647,97.6843,-0.36597,0.0,0.0
3612,902.75,79.7927,85.3114,119.409,99.685,103.434,0.00275876,0.345083,20.6487,97.4141,-0.337959,0.0,0.0
3624,905.75,80.0687,84.9994,119.174,99.6966,103.669,0.00278647,0.343398,20.6505,97.1439,-0.357724,0.0,0.0
3636,908.75,80.4837,84.9319,120.305,99.7147,103.36,0.00289594,0.340753,20.6537,96.8936,-0.328708,0.0,0.0
3648,911.75,79.4837,84.778,119.947,99.722,103.406,0.0029561,0.338591,20.6556,96.6534,-0.332161,0.0,0.0
3660,914.75,79.0728,84.6911,123.932,99.7236,103.645,0.00313327,0.335861,20.6579,96.3732,-0.353098,0.0,0.0
3672,917.75,79.1818,84.4216,121.972,99.7292,103.419,0.00326017,0.333089,20.6584,96.143,-0.332638,0.0,0.0
3684,920.75,79.1205,84.3178,126.903,99.7308,104.11,0.00310476,0.330093,20.6615,95.8628,-0.393405,0.0,0.0
3696,923.75,78.7261,84.1462,124.746,99.724,104.129,0.00300219,0.32612,20.6674,95.6226,-0.395731,0.0,0.0
3708,926.75,78.8333,83.8456,120.83,99.7437,103.036,0.00293803,0.32237,20.6711,95.3823,-0.297307,0.0,0.0
3720,929.75,78.2981,83.4527,123.7,99.7224,103.067,0.00313731,0.316894,20.6793,95.1622,-0.302042,0.0,0.0
3732,932.75,78.0305,83.1498,123.016,99.722,103.497,0.00329067,0.31161,20.6862,94.982,-0.340186,0.0,0.0
3744,935.75,77.8642,82.8793,124.99,99.7296,103.746,0.00325229,0.303577,20.6983,94.7818,-0.361484,0.0,0.0
3756,938.75,77.4825,82.8847,127.458,99.7308,103.645,0.00318498,0.293653,20.7131,94.5316,-0.352434,0.0,0.0
3768,941.75,76.9241,82.3997,127.079,99.728,104.163,0.00324579,0.282305,20.7269,94.4415,-0.398316,0.0,0.0
3780,944.75,76.261,81.8729,127.888,99.722,105,0.00324869,0.267892,20.7477,94.2313,-0.472161,0.0,0.0
3792,947.75,75.2584,80.9233,123.765,99.7272,104.49,0.00339665,0.253348,20.7675,94.2113,-0.427148,0.0,0.0
3804,950.75,75.0922,80.4169,127.395,99.7272,104.806,0.00333727,0.240145,20.7846,94.0011,-0.454771,0.0,0.0
3816,953.75,74.0993,80.0227,126.387,99.7264,105.522,0.00333014,0.22926,20.795,93.9511,-0.517151,0.0,0.0
3828,956.75,73.9802,78.8112,129.067,99.7324,105.875,0.00359035,0.219822,20.8046,93.9111,-0.547176,0.0,0.0
3840,959.75,72.7067,78.267,129.255,99.7352,106.091,0.00374082,0.21174,20.812,93.811,-0.565605,0.0,0.0
3852,962.75,72.3142,77.5287,126.739,99.7316,106.281,0.00378942,0.204356,20.8183,93.7009,-0.582325,0.0,0.0
3864,965.75,71.8058,76.9312,128.257,99.7312,106.227,0.00358624,0.1984,20.8224,93.6008,-0.577723,0.0,0.0
3876,968.75,70.494,76.3537,128.385,99.7256,106.748,0.00337861,0.193283,20.8249,93.5808,-0.622954,0.0,0.0
3888,971.75,70.2411,75.5805,127.403,99.7264,106.653,0.00331751,0.188788,20.8299,93.4807,-0.614744,0.0,0.0
3900,974.75,70.0963,75.3435,132.995,99.722,106.796,0.00350077,0.184316,20.8332,93.4407,-0.62743,0.0,0.0
3912,977.75,69.4905,74.3583,131.421,99.7087,107.095,0.00371181,0.1806,20.8359,93.3206,-0.654297,0.0,0.0
3924,980.75,68.7945,74.0371,128.425,99.6979,106.944,0.003692,0.176454,20.8409,93.2205,-0.642339,0.0,0.0
3936,983.75,68.1511,72.9645,129.4,99.6914,107.064,0.00373834,0.17365,20.8423,93.1404,-0.653207,0.0,0.0
3948,986.75,68.1888,72.6457,129.633,99.6786,106.98,0.0036772,0.171141,20.8439,93.0503,-0.647182,0.0,0.0
3960,989.75,67.5762,72.5298,131.393,99.675,107.21,0.00364983,0.168975,20.8459,92.9903,-0.667149,0.0,0.0
3972,992.75,66.8251,71.8839,131.482,99.6681,107.066,0.00357071,0.166988,20.8477,92.8902,-0.655465,0.0,0.0
3984,995.75,66.8594,71.5396,136.343,99.6533,106.881,0.00349496,0.164883,20.8497,92.8401,-0.641034,0.0,0.0
3996,998.75,66.3513,71.1672,130.727,99.642,107.189,0.00356957,0.16291,20.8515,92.7701,-0.668406,0.0,0.0
4008,1001.75,66.0582,70.7263,129.578,99.6296,106.748,0.00358558,0.161487,20.8522,92.72,-0.631851,0.0,0.0
4020,1004.75,65.952,69.8597,131.323,99.6207,107.211,0.00378019,0.15999,20.8538,92.69,-0.672249,0.0,0.0
4032,1007.75,65.5381,69.9353,132.957,99.5998,106.911,0.00394006,0.158278,20.8545,92.5799,-0.648508,0.0,0.0
4044,1010.75,64.883,69.3722,129.295,99.5838,107.086,0.0040542,0.157122,20.8555,92.4798,-0.664989,0.0,0.0
4056,1013.75,64.8982,68.8572,126.028,99.5745,106.937,0.00416731,0.156282,20.8555,92.3998,-0.65308,0.0,0.0
4068,1016.75,64.6746,68.8836,129.333,99.5777,106.717,0.0041862,0.155263,20.8555,92.3397,-0.63393,0.0,0.0
4080,1019.75,64.5015,69.1014,132.171,99.5436,107.1,0.00436666,0.153886,20.8578,92.3197,-0.669823,0.0,0.0
4092,1022.75,64.2293,68.3479,128.932,99.5384,106.97,0.00442112,0.152751,20.8595,92.1996,-0.659203,0.0,0.0
4104,1025.75,64.1321,67.8558,129.761,99.5271,107.118,0.00449736,0.151902,20.86,92.2096,-0.672872,0.0,0.0
4116,1028.75,63.6601,67.4989,129.458,99.5034,107.35,0.0043304,0.150652,20.8606,92.1596,-0.694898,0.0,0.0
4128,1031.75,63.683,67.4911,130.365,99.4861,106.891,0.00411389,0.149913,20.8613,92.0895,-0.657228,0.0,0.0
4140,1034.75,63.3577,67.4762,132.502,99.4532,107.004,0.00404469,0.1493,20.8613,92.0395,-0.669992,0.0,0.0
4152,1037.75,63.4754,66.818,129.641,99.4343,107.005,0.00414266,0.148377,20.8612,92.0094,-0.671809,0.0,0.0
4164,1040.75,63.0565,66.4612,130.407,99.4211,106.821,0.00423099,0.1479,20.862,91.9894,-0.657225,0.0,0.0
4176,1043.75,62.8788,66.0618,132.751,99.4154,106.977,0.0041391,0.146817,20.8649,91.9193,-0.671145,0.0,0.0
4188,1046.75,62.5654,65.8415,132.94,99.3805,106.936,0.00385447,0.14594,20.8662,91.9093,-0.670818,0.0,0.0
4200,1049.75,62.6685,66.0723,129.459,99.3548,106.608,0.00388243,0.145323,20.8666,91.8293,-0.645088,0.0,0.0
4212,1052.75,62.5858,65.2663,129.703,99.3082,106.971,0.00413519,0.145038,20.8661,91.7592,-0.680516,0.0,0.0
4224,1055.75,61.7226,65.2939,129.513,99.2728,106.727,0.00409639,0.144525,20.866,91.7092,-0.662835,0.0,0.0
4236,1058.75,61.9925,65.1311,131.196,99.2347,106.755,0.00405319,0.144012,20.8673,91.5991,-0.668764,0.0,0.0
4248,1061.75,61.9623,65.0568,131.912,99.2146,106.806,0.00407683,0.143136,20.8689,91.5991,-0.674957,0.0,0.0
4260,1064.75,61.5146,64.7936,128.337,99.1804,106.801,0.00425259,0.142735,20.8685,91.529,-0.677714,0.0,0.0
4272,1067.75,61.7532,64.6834,129.314,99.1483,106.631,0.00441968,0.142452,20.8676,91.489,-0.66611,0.0,0.0
4284,1070.75,61.2887,64.2238,131.476,99.0945,106.574,0.00444378,0.141486,20.8701,91.3789,-0.666221,0.0,0.0
4296,1073.75,61.0181,63.9595,129.023,99.0519,106.722,0.00449874,0.140723,20.8713,91.3188,-0.682839,0.0,0.0
4308,1076.75,61.27,64.2053,131.28,99.0097,106.777,0.00446165,0.140537,20.8717,91.2988,-0.691435,0.0,0.0
4320,1079.75,60.8886,63.7492,131.506,98.941,106.614,0.00455426,0.14058,20.8728,91.2388,-0.68377,0.0,0.0
4332,1082.75,60.8374,63.7747,131.998,98.8771,106.55,0.0046901,0.140259,20.8739,91.2388,-0.684186,0.0,0.0
4344,1085.75,60.1901,63.6345,132.715,98.8309,106.229,0.00466999,0.139762,20.8753,91.1387,-0.660898,0.0,0.0
4356,1088.75,60.4151,63.3279,133.469,98.8044,106.706,0.00465604,0.139395,20.8765,91.0986,-0.704318,0.0,0.0
4368,1091.75,60.5402,63.4866,130.104,98.7719,106.264,0.00470011,0.138809,20.8778,91.0686,-0.669345,0.0,0.0
4380,1094.75,60.243,63.0369,132.229,98.7466,106.223,0.00474573,0.138372,20.8771,90.9986,-0.668161,0.0,0.0
4392,1097.75,60.3748,62.883,131.657,98.7377,106.18,0.00477669,0.138782,20.8762,90.9485,-0.66533,0.0,0.0
4404,1100.75,60.1629,62.7876,129.494,98.7213,106.402,0.00488711,0.138272,20.8757,90.8785,-0.685966,0.0,0.0
4416,1103.75,59.6665,62.7027,131.397,98.7281,106.288,0.00490726,0.137553,20.876,90.8584,-0.675506,0.0,0.0
4428,1106.75,59.7835,62.3629,133.408,98.7606,106.207,0.00492439,0.137413,20.8765,90.8484,-0.665469,0.0,0.0
4440,1109.75,59.8168,62.4065,129.978,98.7405,106.39,0.00485351,0.137395,20.8766,90.7584,-0.683148,0.0,0.0
4452,1112.75,60.0509,62.1796,128.822,98.7494,106.525,0.00483842,0.137279,20.878,90.7283,-0.693926,0.0,0.0
4464,1115.75,59.8086,62.3086,130.199,98.755,106.487,0.00501763,0.136739,20.8788,90.7383,-0.69016,0.0,0.0
4476,1118.75,59.7232,62.1776,132.539,98.7795,106.458,0.00513613,0.13624,20.8789,90.6683,-0.685395,0.0,0.0
4488,1121.75,59.4451,62.1648,133.419,98.7827,106.358,0.00509313,0.136148,20.8784,90.6483,-0.676465,0.0,0.0
4500,1124.75,59.3926,62.0315,130.257,98.7679,106.309,0.00489492,0.135652,20.8812,90.5782,-0.673642,0.0,0.0
4512,1127.75,59.4649,61.7268,130.432,98.7699,106.324,0.00490851,0.135142,20.8829,90.5782,-0.674684,0.0,0.0
4524,1130.75,59.167,61.5206,132.899,98.7912,106.341,0.00507643,0.135124,20.8833,90.5081,-0.674217,0.0,0.0
4536,1133.75,59.5027,61.6365,130.161,98.7896,106.436,0.00515169,0.135097,20.8834,90.4581,-0.682525,0.0,0.0
4548,1136.75,58.9566,61.7022,127.462,98.7884,106.702,0.00516811,0.135312,20.8822,90.398,-0.705531,0.0,0.0
4560,1139.75,59.2762,61.6164,133.463,98.7884,106.401,0.00526427,0.134749,20.8834,90.318,-0.679628,0.0,0.0
4572,1142.75,59.0247,61.4121,130.458,98.8028,106.639,0.00530261,0.134521,20.8851,90.298,-0.698779,0.0,0.0
4584,1145.75,59.1911,61.6609,131.151,98.8064,106.646,0.00537352,0.134282,20.8854,90.2379,-0.698997,0.0,0.0
4596,1148.75,59.1023,61.5488,133.696,98.8032,106.573,0.00548868,0.134135,20.884,90.1979,-0.69305,0.0,0.0
4608,1151.75,58.9635,61.3733,133.595,98.8149,106.487,0.00555611,0.133602,20.8841,90.1778,-0.684534,0.0,0.0
4620,1154.75,58.9218,60.9176,128.359,98.8149,106.322,0.00554218,0.133456,20.884,90.1078,-0.670357,0.0,0.0
4632,1157.75,59.0263,61.0648,132.592,98.8241,106.244,0.00537013,0.13326,20.8844,90.0577,-0.66284,0.0,0.0
4644,1160.75,58.321,60.9968,132.49,98.8534,106.384,0.00532293,0.132894,20.8853,90.0577,-0.672173,0.0,0.0
4656,1163.75,58.1684,60.5719,131.778,98.8779,106.541,0.00546512,0.132682,20.8855,90.0377,-0.6834,0.0,0.0
4668,1166.75,58.6424,60.9908,131.752,98.896,106.755,0.00551944,0.132033,20.8859,89.9877,-0.700099,0.0,0.0
4680,1169.75,58.6398,60.8526,132.688,98.9265,106.806,0.00535486,0.131636,20.8863,89.9176,-0.701654,0.0,0.0
4692,1172.75,57.8626,60.99,132.924,98.9715,106.782,0.0053137,0.131104,20.8889,89.8776,-0.69536,0.0,0.0
4704,1175.75,57.5745,60.4356,134.305,99.0081,106.926,0.00535378,0.131097,20.889,89.8376,-0.704362,0.0,0.0
4716,1178.75,57.8416,60.09375,131.855,99.037,106.595,0.00561678,0.130971,20.8881,89.7875,-0.673269,0.0,0.0
4728,1181.75,57.5978,60.2688,129.609,99.0639,106.935,0.0057724,0.131732,20.8869,89.7775,-0.699948,0.0,0.0
4740,1184.75,58.0869,60.2443,133.663,99.0941,106.666,0.00564708,0.131965,20.8877,89.7375,-0.674123,0.0,0.0
4752,1187.75,57.7873,60.2341,125.651,99.1467,106.647,0.00576498,0.13178,20.8885,89.7275,-0.667602,0.0,0.0
4764,1190.75,57.9209,59.8899,132.213,99.1591,106.865,0.00563356,0.131151,20.8903,89.6774,-0.685162,0.0,0.0
4776,1193.75,57.9625,60.0907,134.033,99.1776,107.049,0.00555037,0.130983,20.8903,89.6974,-0.699215,0.0,0.0
4788,1196.75,57.7972,60.0095,130.894,99.2037,106.945,0.00554567,0.130604,20.8901,89.6474,-0.687866,0.0,0.0
4800,1199.75,57.6504,60.2315,132.699,99.2074,107.085,0.00573319,0.129972,20.8913,89.6074,-0.69958,0.0,0.0
4812,1202.75,57.5809,59.3705,132.834,99.2158,106.974,0.00602151,0.129394,20.8917,89.5773,-0.689314,0.0,0.0
4824,1205.75,57.3159,59.9903,132.489,99.2098,107.216,0.00621635,0.130454,20.8891,89.4973,-0.710487,0.0,0.0
4836,1208.75,57.6899,59.8671,133.07,99.2074,107.11,0.00613812,0.130511,20.8883,89.4372,-0.701666,0.0,0.0
4848,1211.75,57.3606,59.8253,136.401,99.2182,106.931,0.00611183,0.129929,20.8907,89.3972,-0.685348,0.0,0.0
4860,1214.75,57.1764,59.6459,129.877,99.2106,107.057,0.00616079,0.129463,20.8915,89.3571,-0.696844,0.0,0.0
4872,1217.75,56.7594,59.2411,128.99,99.2174,106.67,0.00622772,0.129558,20.8906,89.2971,-0.663091,0.0,0.0
4884,1220.75,56.9166,59.3436,131.011,99.229,107.085,0.00651861,0.129617,20.8907,89.2871,-0.69754,0.0,0.0
4896,1223.75,55.4848,57.5679,131.749,99.2307,107.121,0.0065854,0.129243,20.8929,89.237,-0.7005,0.0,0.0
4908,1226.75,55.2134,57.7807,133.411,99.2387,107.133,0.00648228,0.128675,20.8951,89.227,-0.700742,0.0,0.0
4920,1229.75,55.5624,57.836,130.216,99.2652,106.938,0.00652702,0.1285,20.8968,89.167,-0.681643,0.0,0.0
4932,1232.75,55.239,57.6398,131.002,99.2941,107.112,0.00665924,0.128642,20.896,89.157,-0.693859,0.0,0.0
4944,1235.75,54.9959,57.4796,129.786,99.3194,106.965,0.00658827,0.128532,20.8954,89.0869,-0.678927,0.0,0.0
4956,1238.75,54.6202,57.4717,130.284,99.323,107.284,0.00636152,0.128411,20.8952,89.0969,-0.705894,0.0,0.0
4968,1241.75,54.9588,57.5723,133.176,99.3568,107.048,0.00627336,0.128477,20.8945,89.0068,-0.682612,0.0,0.0
4980,1244.75,55.5851,57.7983,127.899,99.3664,106.929,0.00638378,0.12833,20.8942,88.9868,-0.671523,0.0,0.0
4992,1247.75,55.0079,57.347,131.44,99.3933,107.356,0.00668724,0.128247,20.8941,88.9468,-0.70558,0.0,0.0
5004,1250.75,55.4867,57.4167,134.26,99.4082,106.827,0.0068001,0.128177,20.8941,88.8867,-0.658922,0.0,0.0
5016,1253.75,54.759,56.6115,133.651,99.4283,107.119,0.00682515,0.128142,20.8944,88.8567,-0.682125,0.0,0.0
5028,1256.75,55.0116,57.1531,130.161,99.4524,106.873,0.00673535,0.127801,20.8959,88.8267,-0.658837,0.0,0.0
5040,1259.75,54.6177,57.1639,137.621,99.4773,107.286,0.00659765,0.127741,20.8962,88.8267,-0.691803,0.0,0.0
5052,1262.75,54.6466,56.7296,135.327,99.5074,107.076,0.0065619,0.127632,20.8954,88.8167,-0.671142,0.0,0.0
5064,1265.75,54.5135,57.1454,135.963,99.5155,107.302,0.00659393,0.127886,20.8943,88.7566,-0.689705,0.0,0.0
5076,1268.75,54.7214,57.0153,131.938,99.5082,107.392,0.00660016,0.127975,20.894,88.7066,-0.698065,0.0,0.0
5088,1271.75,54.7465,56.6937,136.249,99.5014,107.027,0.00679501,0.127896,20.8942,88.7066,-0.667525,0.0,0.0
5100,1274.75,54.6224,57.2026,128.956,99.5175,106.995,0.00671147,0.128036,20.8946,88.6665,-0.66325,0.0,0.0
5112,1277.75,55.1248,57.1954,132.983,99.5291,107.372,0.00650982,0.127805,20.8953,88.6065,-0.694377,0.0,0.0
5124,1280.75,55.0945,56.8731,133.324,99.5179,107.233,0.00670099,0.127325,20.8965,88.5464,-0.683591,0.0,0.0
5136,1283.75,54.6693,56.3258,133.474,99.5203,107.383,0.0069635,0.127159,20.8969,88.5464,-0.69617,0.0,0.0
5148,1286.75,54.7702,56.8501,129.826,99.5147,107.247,0.00727919,0.126904,20.8974,88.4764,-0.685104,0.0,0.0
5160,1289.75,54.7722,56.6766,138.796,99.5018,107.519,0.00736274,0.126822,20.8967,88.4163,-0.709478,0.0,0.0
5172,1292.75,54.5125,56.9247,129.059,99.4809,107.304,0.00732394,0.127176,20.897,88.4063,-0.69308,0.0,0.0
5184,1295.75,54.8112,56.6608,129.571,99.4657,107.101,0.00727177,0.127142,20.8978,88.3663,-0.677073,0.0,0.0
5196,1298.75,54.6119,56.866,131.87,99.4343,107.191,0.00709498,0.126867,20.898,88.3262,-0.687705,0.0,0.0
5208,1301.75,54.4492,56.6933,131.299,99.4279,107.132,0.00706958,0.126639,20.8981,88.2662,-0.683263,0.0,0.0
5220,1304.75,54.5741,56.5849,130.456,99.4263,107.53,0.00703403,0.126715,20.8981,88.2662,-0.717332,0.0,0.0
5232,1307.75,54.4513,56.6969,131.831,99.4018,107.179,0.00689448,0.126705,20.8981,88.1761,-0.68964,0.0,0.0
5244,1310.75,54.4573,56.5967,132.788,99.3596,106.82,0.00715542,0.126912,20.8983,88.2362,-0.662847,0.0,0.0
5256,1313.75,54.4212,56.8041,129.801,99.3407,107.12,0.00748589,0.127146,20.8984,88.1761,-0.690232,0.0,0.0
5268,1316.75,54.6624,57.331,132.443,99.317,107.362,0.00761705,0.127209,20.8985,88.1561,-0.713084,0.0,0.0
5280,1319.75,54.1831,56.4452,131.803,99.2776,107.16,0.00751792,0.127022,20.8985,88.1261,-0.699468,0.0,0.0
5292,1322.75,53.9582,56.1424,129.524,99.2676,107.073,0.00739437,0.127111,20.8985,88.1261,-0.692998,0.0,0.0
5304,1325.75,53.7649,56.3242,133.386,99.2596,107.009,0.00743326,0.126763,20.8985,88.086,-0.688267,0.0,0.0
5316,1328.75,53.9402,56.6114,134.334,99.2399,107.192,0.00748391,0.126713,20.8998,88.006,-0.705663,0.0,0.0
5328,1331.75,54.1016,56.0731,132.132,99.2407,107.599,,0.126478,,88.026,-0.740353,0.0,0.0
5340,1334.75,53.6237,55.9795,133.535,99.2395,107.301,,,,88.016,-0.715052,0.0,0.0
5352,1337.75,53.2612,55.9586,131.615,99.2371,107.067,,,,87.9159,-0.695264,0.0,0.0
5364,1340.75,53.7241,56.1904,129.085,99.2503,106.897,,,,87.8959,-0.679467,0.0,0.0