File: 01_Data/Oak_HWF/Cone/Oak_Flooring_Cone_HF50Scan_220526_R1.csv
Names,Time,Stack TC,Smoke TC,Exh Press,Smoke Comp,Smoke Meas,CO Meter,CO2 Meter,O2 Meter,Sample Mass,Ext Coeff,Start Test,Flame Verif
Chan Gain,,500,500,1,1,1,1,1,1,1,1,1.0,1.0
Offset,,0,0,0.138731,0,0,0,0,0,0,0,0.0,0.0
Gain,,1,1,25.011,13.8491,15.2622,1,1,1,1.00087,1.03118,1.0,1.0
Units,sec,C,C,Pa,%,%,%,%,%,g,/m,,
Baseline,,39.1827,40.6469,140.009,105.606,106.058,0.00120305,0.0489773,20.9854,-451.935,-0.0385633,,
22,5.25,36.601,37.7596,138.966,105.035,105.301,0.00129399,0.0515694,20.9823,208.742,-0.0228485,0.0,0.0
44,10.75,36.5432,37.9481,140.214,104.721,104.072,0.00124882,0.0498902,20.984,208.612,0.0562707,0.0,0.0
66,16.25,37.0258,38.4241,140.191,104.629,104.293,0.0015351,0.0513652,20.9815,208.512,0.0291406,0.0,0.0
88,21.75,37.4284,38.424,140.419,104.659,104.893,0.0018882,0.0539236,20.9825,208.321,-0.0202641,0.0,0.0
110,27.25,37.0649,38.5277,135.632,104.701,103.793,0.00219672,0.0554231,20.9824,208.191,0.0787638,0.0,0.0
132,32.75,37.4075,38.8895,137.479,104.71,102.8,0.0030466,0.0559174,20.9793,207.801,0.166523,0.0,0.0
154,38.25,38.4814,39.3651,129.684,104.746,88.921,0.00962008,0.172785,20.7674,207.351,1.48158,0.0,1.0
176,43.75,41.8686,40.5868,115.542,104.783,82.1409,0.0219917,0.553817,20.308,206.049,2.20218,0.0,0.0
198,49.25,50.0379,47.4551,117.006,104.793,83.4995,0.0249528,0.777423,20.0467,204.578,2.05462,0.0,0.0
220,54.75,57.6508,54.3737,116.664,104.797,87.5065,0.0230822,0.795122,20.0478,203.307,1.63104,0.0,0.0
242,60.25,62.2827,59.6965,116.907,104.791,89.7179,0.0193231,0.725019,20.1535,202.086,1.40471,0.0,0.0
264,65.75,65.1778,64.0999,122.841,104.801,96.3476,0.015171,0.645714,20.2628,201.045,0.760746,0.0,0.0
286,71.25,66.6218,65.8311,120.853,104.8,100.689,0.0111225,0.561274,20.3816,200.014,0.361924,0.0,0.0
308,76.75,67.0921,67.4241,122.78,104.81,103.238,0.00868679,0.484218,20.4808,199.173,0.136727,0.0,0.0
330,82.25,66.8101,68.3084,124.918,104.8,104.56,0.00799085,0.438065,20.539,198.313,0.0207282,0.0,0.0
352,87.75,66.9006,68.9187,125.05,104.792,104.403,0.00770371,0.415265,20.5634,197.452,0.0336656,0.0,0.0
374,93.25,66.5824,68.7667,127.625,104.769,104.773,0.0072379,0.397543,20.5873,196.771,-0.000366092,0.0,0.0
396,98.75,66.4786,69.3531,125.501,104.727,105.095,0.00712836,0.387072,20.5986,195.921,-0.0317227,0.0,0.0
418,104.25,66.0472,69.3758,122.587,104.717,105.098,0.00710232,0.379941,20.6063,195.29,-0.0328757,0.0,0.0
440,109.75,65.6917,69.461,126.196,104.686,105.551,0.006766,0.374257,20.6122,194.449,-0.0743857,0.0,0.0
462,115.25,65.396,69.6854,124.954,104.663,105.317,0.00630859,0.367937,20.6206,193.819,-0.0564119,0.0,0.0
484,120.75,65.2362,69.0913,125.315,104.705,105.786,0.00604206,0.361279,20.6296,193.078,-0.0929138,0.0,0.0
506,126.25,65.4451,68.9593,127.059,104.902,105.491,0.00594837,0.354818,20.6368,192.347,-0.0506705,0.0,0.0
528,131.75,65.0594,69.4022,121.097,105.139,106.024,0.00591089,0.352515,20.6378,191.727,-0.075822,0.0,0.0
550,137.25,64.2945,70.0919,126.89,105.314,106.385,0.00593002,0.351542,20.6384,190.936,-0.0915646,0.0,0.0
572,142.75,64.6235,69.1975,122.186,105.482,106.365,0.00575276,0.348556,20.643,190.356,-0.0753849,0.0,0.0
594,148.25,64.9005,68.2391,126.543,105.566,106.204,0.00598427,0.345653,20.6459,189.625,-0.0544969,0.0,0.0
616,153.75,63.788,68.5395,124.24,105.589,106.999,0.00553096,0.34028,20.6516,189.005,-0.119969,0.0,0.0
638,159.25,63.5509,69.2145,126.062,105.564,107.398,0.00492669,0.333253,20.6605,188.354,-0.155827,0.0,0.0
660,164.75,63.1667,68.7298,126.759,105.422,107.468,0.00462969,0.32395,20.6724,187.683,-0.17381,0.0,0.0
682,170.25,63.7287,68.3525,127.612,105.175,107.746,0.00465002,0.316169,20.682,187.173,-0.218423,0.0,0.0
704,175.75,62.8382,68.1069,125.316,105.126,107.197,0.00475321,0.312301,20.6873,186.492,-0.17646,0.0,0.0
726,181.25,62.9186,67.8346,127.778,105.347,107.122,0.00450121,0.303464,20.6964,185.972,-0.151092,0.0,0.0
748,186.75,62.8722,66.6688,126.837,105.575,107.847,0.00440919,0.295158,20.7041,185.341,-0.192619,0.0,0.0
770,192.25,61.8267,66.9122,128.378,105.811,108.182,0.00442142,0.287371,20.7133,184.871,-0.200408,0.0,0.0
792,197.75,61.7297,66.1556,128.952,105.927,108.609,0.00409921,0.28234,20.7185,184.29,-0.22623,0.0,0.0
814,203.25,60.7435,66.04,130.877,105.948,107.359,0.00414111,0.277706,20.7231,183.71,-0.119706,0.0,0.0
836,208.75,60.5512,65.9157,133.232,105.857,108.133,0.00460882,0.272393,20.7302,183.26,-0.192419,0.0,0.0
858,214.25,60.0155,65.9442,129.18,105.596,107.526,0.00471433,0.26753,20.7364,182.649,-0.163814,0.0,0.0
880,219.75,59.7903,64.9066,128.492,105.261,107.216,0.00414156,0.262128,20.7438,182.189,-0.166402,0.0,0.0
902,225.25,59.3155,64.5182,129.781,104.837,107.338,0.00430477,0.257128,20.7484,181.608,-0.213269,0.0,0.0
924,230.75,59.1279,63.6884,129.593,104.47,106.822,0.00469153,0.253543,20.7551,181.198,-0.20142,0.0,0.0
946,236.25,59.0645,62.8468,135.488,104.146,106.376,0.00447942,0.250039,20.7598,180.677,-0.191708,0.0,0.0
968,241.75,58.1272,63.0946,129.294,103.958,106.416,0.00469514,0.246729,20.7623,180.157,-0.211384,0.0,0.0
990,247.25,58.0712,62.9828,131.021,103.971,106.488,0.00457958,0.245213,20.7634,179.726,-0.216342,0.0,0.0
1012,252.75,58.1085,61.8014,128.444,104.122,106.502,0.00452623,0.245347,20.7651,179.196,-0.204415,0.0,0.0
1034,258.25,57.7196,61.8342,126.245,104.392,106.821,0.00421263,0.245273,20.7656,178.736,-0.208074,0.0,0.0
1056,263.75,57.3319,61.44,127.352,104.696,107.18,0.00443172,0.245354,20.7649,178.165,-0.212142,0.0,0.0
1078,269.25,57.5035,61.4935,129.762,104.991,106.93,0.00411915,0.243659,20.7671,177.805,-0.165521,0.0,0.0
1100,274.75,57.2986,60.8973,131.259,105.189,107.96,0.00419707,0.241731,20.7677,177.284,-0.235153,0.0,0.0
1122,280.25,57.2378,60.5523,131.488,105.273,107.768,0.00483104,0.24294,20.7666,176.744,-0.211868,0.0,0.0
1144,285.75,57.4267,61.0384,131.305,105.244,107.181,0.00459285,0.244479,20.7665,176.333,-0.164981,0.0,0.0
1166,291.25,57.091,60.1568,129.272,105.098,107.453,0.00449177,0.242269,20.7665,175.763,-0.200411,0.0,0.0
1188,296.75,56.6053,60.3409,127.361,104.922,107.219,0.00463734,0.242569,20.7692,175.333,-0.19585,0.0,0.0
1210,302.25,57.0247,60.2954,132.295,104.783,106.878,0.00450208,0.239835,20.7721,174.782,-0.179073,0.0,0.0
1232,307.75,56.3456,59.9447,133.187,104.669,107.083,0.00491692,0.240336,20.7718,174.372,-0.206184,0.0,0.0
1254,313.25,56.622,60.141,132.575,104.946,107.163,0.00510982,0.240617,20.7703,173.871,-0.189057,0.0,0.0
1276,318.75,56.5565,59.7323,128.12,105.297,107.328,0.00543421,0.240084,20.7704,173.331,-0.172821,0.0,0.0
1298,324.25,56.3058,60.0906,126.393,105.518,107.833,0.00509745,0.244253,20.763,172.901,-0.196303,0.0,0.0
1320,329.75,56.7424,59.7381,127.592,105.544,108.218,0.00529133,0.243669,20.7646,172.33,-0.226344,0.0,0.0
1342,335.25,57.1583,59.7849,129.676,105.45,108.128,0.00507135,0.242177,20.7662,171.9,-0.226909,0.0,0.0
1364,340.75,56.8947,59.6485,130.059,105.127,107.368,0.00466991,0.240886,20.769,171.329,-0.190797,0.0,0.0
1386,346.25,56.7698,59.7477,132.157,105.169,107.197,0.0049298,0.240966,20.7702,170.909,-0.172713,0.0,0.0
1408,351.75,56.7566,59.9778,129.69,105.42,108.004,0.00490394,0.240013,20.7698,170.398,-0.219077,0.0,0.0
1430,357.25,56.7518,60.3707,130.693,105.686,108.195,0.00480699,0.238664,20.7717,169.838,-0.212275,0.0,0.0
1452,362.75,56.4925,59.6978,128.555,105.86,108.72,0.00496353,0.238796,20.7703,169.458,-0.241125,0.0,0.0
1474,368.25,56.7675,59.7646,130.612,105.929,108.882,0.00492682,0.239838,20.7695,168.897,-0.248717,0.0,0.0
1496,373.75,56.6156,59.9445,128.327,105.872,108.322,0.00503365,0.240453,20.7688,168.387,-0.206921,0.0,0.0
1518,379.25,56.7019,59.4677,127.665,105.742,108.466,0.00491619,0.239428,20.7687,167.916,-0.230063,0.0,0.0
1540,384.75,57.0898,59.6414,132.213,105.541,108.002,0.0048766,0.24065,20.7667,167.546,-0.20848,0.0,0.0
1562,390.25,56.9796,59.8644,125.784,105.323,107.902,0.0045197,0.242082,20.7661,167.035,-0.218835,0.0,0.0
1584,395.75,57.0228,59.5213,132.339,105.074,107.533,0.00459077,0.243502,20.7655,166.485,-0.209188,0.0,0.0
1606,401.25,57.1528,59.9709,134.367,104.865,106.712,0.00466544,0.242008,20.7654,166.065,-0.15792,0.0,0.0
1628,406.75,56.8364,59.2924,126.791,104.652,107.158,0.00465546,0.242523,20.7654,165.504,-0.214053,0.0,0.0
1650,412.25,57.0475,59.9353,132.96,104.488,106.835,0.00460066,0.242677,20.7652,165.044,-0.200912,0.0,0.0
1672,417.75,57.2188,59.8896,129.664,104.349,107.244,0.00494165,0.241724,20.7676,164.453,-0.247551,0.0,0.0
1694,423.25,56.9984,59.6238,133.549,104.246,107.446,0.00474314,0.238975,20.7706,164.023,-0.273492,0.0,0.0
1716,428.75,56.2858,59.4415,130.702,104.208,107.036,0.00480039,0.242261,20.7657,163.552,-0.242185,0.0,0.0
1738,434.25,56.5887,59.7719,129.281,104.163,106.763,0.00466301,0.244149,20.7645,162.952,-0.222979,0.0,0.0
1760,439.75,57.0711,59.8851,129.939,104.174,106.875,0.00450225,0.243324,20.7655,162.531,-0.231565,0.0,0.0
1782,445.25,57.2406,59.3984,130.528,104.185,106.641,0.00481628,0.242143,20.7677,161.941,-0.210687,0.0,0.0
1804,450.75,56.8834,59.4428,130.523,104.192,106.86,0.00488623,0.239234,20.7717,161.601,-0.228764,0.0,0.0
1826,456.25,56.9171,59.7491,131.799,104.23,107.167,0.00486428,0.236497,20.7733,161.09,-0.251331,0.0,0.0
1848,461.75,56.8549,59.4954,129.917,104.284,107.137,0.00484916,0.235649,20.7742,160.6,-0.244121,0.0,0.0
1870,467.25,56.4954,59.4283,130.66,104.338,107.122,0.0049195,0.232564,20.7769,160.119,-0.238206,0.0,0.0
1892,472.75,56.4648,59.1472,131.922,104.425,106.58,0.00469073,0.230199,20.7788,159.569,-0.184765,0.0,0.0
1914,478.25,56.4148,59.0177,130.496,104.545,107.188,0.00435732,0.229625,20.7808,159.189,-0.225853,0.0,0.0
1936,483.75,56.4338,59.3536,131.845,104.666,107.448,0.00428464,0.229419,20.7818,158.638,-0.237273,0.0,0.0
1958,489.25,56.1733,59.0405,129.609,104.819,107.599,0.00460976,0.228102,20.7818,158.278,-0.236751,0.0,0.0
1980,494.75,56.2023,59.0149,135.3,104.948,107.107,0.00475564,0.225153,20.7856,157.747,-0.184192,0.0,0.0
2002,500.25,56.0479,58.7118,131.336,105.109,108.141,0.00467441,0.22439,20.7874,157.227,-0.257229,0.0,0.0
2024,505.75,55.711,58.5127,128.497,105.273,108.041,0.00482685,0.22412,20.7883,156.887,-0.23475,0.0,0.0
2046,511.25,55.7524,58.4537,128.929,105.435,108.034,0.00489786,0.222185,20.7897,156.326,-0.220265,0.0,0.0
2068,516.75,55.487,58.5487,132.292,105.578,107.944,0.00471436,0.221714,20.7896,155.936,-0.200416,0.0,0.0
2090,522.25,55.7738,58.5178,130.516,105.669,108.313,0.00428386,0.223043,20.7869,155.485,-0.223493,0.0,0.0
2112,527.75,55.4127,58.1264,131.428,105.783,108.204,0.00401989,0.223608,20.7866,155.055,-0.204659,0.0,0.0
2134,533.25,55.6115,58.2747,132.521,105.844,108.482,0.00419839,0.222975,20.7894,154.605,-0.222675,0.0,0.0
2156,538.75,55.4394,57.9553,131.989,105.846,108.938,0.00451028,0.224626,20.7869,154.104,-0.260436,0.0,0.0
2178,544.25,55.071,58.2117,131.138,105.822,108.321,0.0043309,0.223495,20.7887,153.734,-0.211103,0.0,0.0
2200,549.75,55.2553,58.1391,131.318,105.721,108.722,0.0043828,0.224156,20.7877,153.203,-0.25317,0.0,0.0
2222,555.25,55.3083,58.037,133.793,105.581,108.588,0.00436581,0.221356,20.7909,152.943,-0.254053,0.0,0.0
2244,560.75,55.474,58.0077,132.859,105.381,107.982,0.00406027,0.225689,20.786,152.333,-0.220466,0.0,0.0
2266,566.25,55.2793,57.8192,136.014,105.175,107.796,0.00409986,0.224571,20.7885,151.902,-0.222605,0.0,0.0
2288,571.75,55.2336,57.7735,130.062,104.989,107.357,0.00422949,0.225281,20.7866,151.482,-0.201758,0.0,0.0
2310,577.25,55.3665,57.7927,129.557,105.166,107.648,0.00404476,0.22485,20.7871,150.971,-0.210969,0.0,0.0
2332,582.75,55.4432,57.9061,132.303,105.392,108.262,0.00389574,0.225477,20.7878,150.621,-0.24298,0.0,0.0
2354,588.25,55.2718,57.9697,127.721,105.458,108.564,0.00408542,0.226014,20.7861,150.081,-0.26258,0.0,0.0
2376,593.75,55.311,57.8111,132.748,105.392,108.683,0.00387907,0.227375,20.7856,149.68,-0.278164,0.0,0.0
2398,599.25,55.4243,57.9257,130.838,105.122,107.553,0.00379894,0.22725,20.7842,149.24,-0.206799,0.0,0.0
2420,604.75,55.4126,57.9494,131.695,104.6875,108.102,0.00375949,0.227466,20.7838,148.82,-0.290331,0.0,0.0
2442,610.25,55.4381,57.9498,132.938,104.604,107.515,0.00379568,0.229199,20.7811,148.339,-0.248248,0.0,0.0
2464,615.75,55.1106,57.3322,130.417,104.712,107.533,0.0037388,0.228901,20.7818,147.849,-0.240501,0.0,0.0
2486,621.25,55.539,58.064,128.842,104.861,107.708,0.00378196,0.230547,20.7796,147.468,-0.242263,0.0,0.0
2508,626.75,55.5218,58.184,130.064,105.015,107.664,0.00369821,0.230562,20.7784,146.958,-0.225327,0.0,0.0
2530,632.25,55.6134,58.4967,133.664,105.141,108.219,0.00376295,0.230693,20.7783,146.628,-0.261044,0.0,0.0
2552,637.75,55.8773,58.2203,131.101,105.19,107.708,0.00390205,0.231353,20.777,146.187,-0.213907,0.0,0.0
2574,643.25,55.9072,58.2443,130.083,105.179,107.961,0.00370609,0.231875,20.7778,145.627,-0.236181,0.0,0.0
2596,648.75,55.7589,57.8895,131.765,105.126,107.895,0.00392237,0.234604,20.7748,145.317,-0.235144,0.0,0.0
2618,654.25,55.7373,58.3904,132.89,104.978,107.758,0.00395226,0.236807,20.7738,144.756,-0.236393,0.0,0.0
2640,659.75,55.7905,58.5512,128.693,104.814,107.898,0.003429,0.239648,20.7721,144.416,-0.262332,0.0,0.0
2662,665.25,56.4551,58.7326,130.186,104.65,107.271,0.00354806,0.239921,20.7734,143.875,-0.223709,0.0,0.0
2684,670.75,56.209,58.916,128.482,104.549,107.449,0.00335619,0.242741,20.7714,143.435,-0.247472,0.0,0.0
2706,676.25,56.1872,58.6951,127.871,104.465,107.666,0.00320369,0.24327,20.7694,142.974,-0.273004,0.0,0.0
2728,681.75,56.318,59.2047,132.014,104.409,107.084,0.00317631,0.251143,20.7605,142.504,-0.228793,0.0,0.0
2750,687.25,56.5432,59.4694,131.694,104.396,107.53,0.00314095,0.251273,20.7598,142.044,-0.267501,0.0,0.0
2772,692.75,56.3332,59.1565,130.241,104.374,106.993,0.00333044,0.253298,20.7555,141.493,-0.224157,0.0,0.0
2794,698.25,57.0382,59.4136,130.669,104.4,107.141,0.0031695,0.257526,20.7525,141.093,-0.234436,0.0,0.0
2816,703.75,56.4618,59.1699,127.266,104.414,107.084,0.00324387,0.260766,20.7485,140.542,-0.228351,0.0,0.0
2838,709.25,56.8415,59.9322,128.558,104.475,107.486,0.00315528,0.262912,20.746,140.112,-0.257048,0.0,0.0
2860,714.75,57.4181,59.9287,124.083,104.549,107.263,0.00264869,0.26309,20.7446,139.612,-0.231813,0.0,0.0
2882,720.25,57.6434,60.3643,130.561,104.573,107.278,0.00264563,0.271426,20.7354,139.061,-0.231022,0.0,0.0
2904,725.75,58.1974,60.0865,131.85,104.603,107.078,0.00275937,0.275103,20.7307,138.571,-0.21153,0.0,0.0
2926,731.25,58.0776,60.8702,128.45,104.614,106.867,0.00283582,0.277799,20.7275,138.02,-0.192738,0.0,0.0
2948,736.75,59.4355,61.0361,132.268,104.655,107.55,0.00299578,0.284221,20.7205,137.54,-0.246839,0.0,0.0
2970,742.25,58.524,61.1612,130.276,104.702,107.272,0.00284479,0.289158,20.7137,136.949,-0.219295,0.0,0.0
2992,747.75,58.9403,61.0054,127.462,104.719,106.696,0.00282457,0.292368,20.711,136.469,-0.169161,0.0,0.0
3014,753.25,59.4681,61.973,130.19,104.75,107.468,0.00258871,0.296357,20.7072,135.918,-0.231726,0.0,0.0
3036,758.75,59.335,62.4937,130.821,104.79,107.535,0.00280918,0.299535,20.7044,135.308,-0.233903,0.0,0.0
3058,764.25,60.2872,62.6305,128.55,104.861,107.361,0.00308078,0.305044,20.6987,134.777,-0.213115,0.0,0.0
3080,769.75,60.0702,62.9378,125.653,104.9,107.538,0.00271409,0.30887,20.6938,134.177,-0.224658,0.0,0.0
3102,775.25,60.7333,63.4454,126.178,104.978,107.355,0.00280484,0.312845,20.6891,133.656,-0.202547,0.0,0.0
3124,780.75,61.2975,63.7162,128.817,105.024,107.285,0.00305343,0.321179,20.6776,133.036,-0.192654,0.0,0.0
3146,786.25,61.7716,64.1265,125.505,105.091,107.44,0.00305086,0.327316,20.6704,132.475,-0.199972,0.0,0.0
3168,791.75,61.9835,64.6927,129.585,105.128,107.563,0.00299987,0.333033,20.6655,131.845,-0.207154,0.0,0.0
3190,797.25,62.6161,65.7406,124.789,105.175,107.363,0.00311648,0.340919,20.6568,131.174,-0.1863,0.0,0.0
3212,802.75,63.4388,66.336,128.401,105.214,107.865,0.00302129,0.349336,20.6479,130.604,-0.225084,0.0,0.0
3234,808.25,63.8257,66.2844,126.136,105.255,107.198,0.00290609,0.355783,20.6403,129.873,-0.165491,0.0,0.0
3256,813.75,64.2623,66.6706,125.999,105.228,107.634,0.00312638,0.366021,20.6283,129.263,-0.204452,0.0,0.0
3278,819.25,64.7391,67.4702,124.642,105.13,107.188,0.00308703,0.375116,20.6188,128.492,-0.175348,0.0,0.0
3300,824.75,65.8651,68.0457,125.946,105.001,107.132,0.00309416,0.384242,20.608,127.881,-0.181764,0.0,0.0
3322,830.25,66.0353,68.8665,123.724,104.869,106.314,0.00314916,0.390477,20.599,127.151,-0.12377,0.0,0.0
3344,835.75,66.8934,69.69,123.861,104.72,106.33,0.00326323,0.403359,20.5841,126.35,-0.138074,0.0,0.0
3366,841.25,67.4589,70.327,123.716,104.616,105.96,0.00338548,0.412568,20.5738,125.709,-0.115504,0.0,0.0
3388,846.75,68.3973,70.8478,128.699,104.908,106.299,0.00305234,0.419325,20.5636,124.869,-0.119188,0.0,0.0
3410,852.25,68.8644,72.0205,120.462,105.323,106.852,0.00320254,0.430692,20.552,124.168,-0.130357,0.0,0.0
3432,857.75,69.9387,72.2445,124.522,105.512,107.061,0.0032705,0.441669,20.5365,123.317,-0.131872,0.0,0.0
3454,863.25,70.5893,73.69,119.68,105.47,106.306,0.00314388,0.455324,20.5207,122.537,-0.0714045,0.0,0.0
3476,868.75,71.6591,74.8559,120.654,105.195,106.029,0.00352321,0.467303,20.5042,121.676,-0.0714246,0.0,0.0
3498,874.25,72.3109,75.0234,122.063,105.1,105.197,0.00392853,0.483448,20.4904,120.795,-0.00839419,0.0,0.0
3520,879.75,73.2334,76.3195,119.866,105.348,105.603,0.00388939,0.491125,20.4789,119.994,-0.0218875,0.0,0.0
3542,885.25,74.4106,77.2647,124.431,105.619,105.852,0.00415442,0.505837,20.4618,119.034,-0.0199745,0.0,0.0
3564,890.75,75.2206,78.5216,120.953,105.846,106.145,0.00438521,0.515743,20.4502,118.173,-0.0254828,0.0,0.0
3586,896.25,75.8001,79.4266,117.289,105.907,106.06,0.00469208,0.528005,20.4346,117.222,-0.0130925,0.0,0.0
3608,901.75,76.9717,80.0849,118.598,105.832,105.499,0.00487156,0.537163,20.4206,116.301,0.0285053,0.0,0.0
3630,907.25,77.1121,81.1564,117.335,105.608,104.846,0.00478434,0.551206,20.4023,115.37,0.0655065,0.0,0.0
3652,912.75,78.5697,82.2254,117.992,105.193,104.31,0.00475423,0.559099,20.3895,114.37,0.0762172,0.0,0.0
3674,918.25,79.3402,83.3173,119.52,104.79,104.528,0.00492256,0.573909,20.3753,113.429,0.0225978,0.0,0.0
3696,923.75,80.4913,84.3836,118.154,104.344,104.329,0.0047899,0.582416,20.3649,112.378,0.00133053,0.0,0.0
3718,929.25,80.6927,85.1425,114.083,104.067,103.047,0.00499541,0.584819,20.3608,111.467,0.089084,0.0,0.0
3740,934.75,82.0288,86.0405,120.988,103.923,102.845,0.00523677,0.59097,20.3531,110.516,0.0943464,0.0,0.0
3762,940.25,82.5414,86.9085,120.707,103.914,103.427,0.00536801,0.587855,20.3526,109.445,0.0424384,0.0,0.0
3784,945.75,83.0822,87.8533,118.044,104.04,103.334,0.00548739,0.589901,20.3491,108.575,0.0615832,0.0,0.0
3806,951.25,83.4305,88.8242,116.16,104.233,103.185,0.00560314,0.582826,20.357,107.534,0.0913794,0.0,0.0
3828,956.75,84.2837,89.0909,117.331,104.481,102.565,0.00592972,0.575471,20.3647,106.623,0.167433,0.0,0.0
3850,962.25,83.9829,89.4021,119.838,104.68,102.955,0.00543069,0.572695,20.3664,105.632,0.150331,0.0,0.0
3872,967.75,84.4208,89.654,118.089,104.871,102.737,0.0056846,0.571222,20.3649,104.711,0.185917,0.0,0.0
3894,973.25,84.0439,89.8023,118.407,104.993,102.717,0.00584566,0.565006,20.3709,103.79,0.198246,0.0,0.0
3916,978.75,84.7345,90.1134,116.376,105.067,103.033,0.00558013,0.555366,20.3818,102.91,0.17689,0.0,0.0
3938,984.25,83.9334,89.9399,119.38,105.132,103.907,0.00575982,0.539638,20.3986,101.989,0.105951,0.0,0.0
3960,989.75,84.5163,90.2972,121.279,105.163,102.606,0.00569733,0.531264,20.4062,101.158,0.222684,0.0,0.0
3982,995.25,83.9355,89.45,121.78,105.182,103.549,0.00518857,0.517399,20.424,100.367,0.141511,0.0,0.0
4004,1000.75,83.5547,89.0175,124.399,105.182,103.33,0.00479414,0.50755,20.4338,99.5767,0.160691,0.0,0.0
4026,1006.25,83.0404,89.0489,121.958,105.174,102.833,0.00474205,0.490317,20.4539,98.776,0.20361,0.0,0.0
4048,1011.75,81.6512,87.9344,117.246,105.173,102.631,0.00486127,0.475442,20.4695,98.0453,0.221304,0.0,0.0
4070,1017.25,81.7068,87.8652,119.611,105.17,102.866,0.00468827,0.466039,20.4823,97.2747,0.200379,0.0,0.0
4092,1022.75,81.2043,87.7218,124.364,105.168,103.161,0.00461884,0.45205,20.4975,96.6341,0.174308,0.0,0.0
4114,1028.25,80.4101,86.6981,123.351,105.161,103.545,0.00453961,0.435244,20.5181,95.9235,0.140101,0.0,0.0
4136,1033.75,79.6602,85.7292,124.121,105.164,104.736,0.00425876,0.405821,20.5496,95.353,0.0369083,0.0,0.0
4158,1039.25,78.0584,84.4831,124.598,105.156,105.245,0.00381125,0.368713,20.5983,94.7625,-0.00764194,0.0,0.0
4180,1044.75,76.4429,83.5655,129.964,105.135,105.59,0.0033155,0.323896,20.6488,94.3521,-0.039078,0.0,0.0
4202,1050.25,74.4188,81.3918,131.708,105.143,107.159,0.00294867,0.275209,20.7038,94.0519,-0.171782,0.0,0.0
4224,1055.75,72.6261,79.5369,129.058,105.062,107.373,0.00293208,0.235379,20.7486,93.6715,-0.196797,0.0,0.0
4246,1061.25,70.1812,77.267,131.765,105.028,107.56,0.00298529,0.211208,20.7766,93.5114,-0.215502,0.0,0.0
4268,1066.75,68.4246,75.2528,131.983,104.985,107.792,0.00310252,0.193513,20.7992,93.2212,-0.238704,0.0,0.0
4290,1072.25,66.7424,73.5234,131.007,104.928,107.969,0.00278149,0.1806,20.8152,93.041,-0.258422,0.0,0.0
4312,1077.75,65.1046,71.0917,130.699,104.863,107.821,0.00308817,0.171141,20.8268,92.7708,-0.251657,0.0,0.0
4334,1083.25,63.3583,69.4456,132.295,104.824,107.792,0.00355121,0.16168,20.8349,92.6807,-0.252625,0.0,0.0
4356,1088.75,62.0999,67.9962,136.284,104.745,108.237,0.00349203,0.154234,20.8459,92.5205,-0.296658,0.0,0.0
4378,1094.25,60.6318,66.2892,132.691,104.693,108.016,0.00365871,0.148483,20.8515,92.3004,-0.282645,0.0,0.0
4400,1099.75,59.2104,64.9024,131.736,104.634,107.638,0.00391882,0.143811,20.8582,92.2503,-0.255993,0.0,0.0
4422,1105.25,58.1684,63.5382,134.865,104.519,107.233,0.00391296,0.140282,20.8624,91.9801,-0.231859,0.0,0.0
4444,1110.75,57.2913,62.4426,136.379,104.46,107.442,0.00370437,0.136978,20.8676,92.0201,-0.254602,0.0,0.0
4466,1116.25,56.1704,61.2351,135.063,104.337,107.482,0.00403164,0.134436,20.8706,91.7899,-0.26863,0.0,0.0
4488,1121.75,55.4335,60.0478,133.053,104.214,107.564,0.00401955,0.132962,20.8709,91.6498,-0.286234,0.0,0.0
4510,1127.25,54.4219,58.7471,133.552,104.073,107.346,0.00382905,0.130809,20.8726,91.6298,-0.280109,0.0,0.0
4532,1132.75,54.2051,58.0189,134.952,103.943,107.154,0.00386111,0.129198,20.8758,91.3796,-0.275169,0.0,0.0
4554,1138.25,54.0817,57.679,135.864,103.886,107.002,0.00397475,0.126883,20.8787,91.4096,-0.26727,0.0,0.0
4576,1143.75,53.4573,56.9659,134.857,103.826,106.173,0.00399946,0.126263,20.8795,91.2094,-0.202218,0.0,0.0
4598,1149.25,52.0806,55.8894,134.092,103.836,106.598,0.00420985,0.124485,20.881,91.2194,-0.237412,0.0,0.0
4620,1154.75,51.6128,54.8848,132.619,103.895,106.407,0.00409981,0.123853,20.8818,91.0493,-0.216153,0.0,0.0
4642,1160.25,51.352,54.4028,140.32,104.004,106.948,0.0040219,0.123118,20.8833,90.8991,-0.252516,0.0,0.0
4664,1165.75,51.2962,53.6623,132.111,104.191,107.081,0.00391945,0.121842,20.8849,90.8691,-0.247469,0.0,0.0
4686,1171.25,50.4096,52.7655,133.989,104.4,107.377,0.00415574,0.12147,20.8868,90.699,-0.254387,0.0,0.0
4708,1176.75,50.2917,52.6136,136.086,104.712,107.227,0.00444204,0.120868,20.8854,90.709,-0.214646,0.0,0.0
4730,1182.25,49.5622,52.0173,138.401,104.972,107.317,0.00451612,0.118261,20.8891,90.5288,-0.199875,0.0,0.0
4752,1187.75,49.9752,51.4236,133.82,105.279,108.251,0.00438566,0.119316,20.8878,90.5688,-0.251773,0.0,0.0
4774,1193.25,49.046,51.4293,141.28,105.494,108.724,0.00420165,0.118792,20.8878,90.3887,-0.272803,0.0,0.0
4796,1198.75,49.2051,51.0251,134.311,105.682,108.356,0.00431514,0.118322,20.89,90.3086,-0.225949,0.0,0.0
4818,1204.25,48.6581,50.5706,134.214,105.789,108.488,0.00438591,0.11674,20.8918,90.2786,-0.227876,0.0,0.0
4840,1209.75,48.3314,50.2802,135.777,105.813,108.766,0.00462636,0.115906,20.8916,90.0784,-0.248969,0.0,0.0
4862,1215.25,47.9765,49.6098,134.733,105.789,108.826,0.00434154,0.116053,20.8904,90.0884,-0.256062,0.0,0.0
4884,1220.75,48.3374,49.8575,136.797,105.691,108.018,0.00455705,0.11684,20.8931,89.9283,-0.196995,0.0,0.0
4906,1226.25,47.9715,49.3466,138.099,105.558,107.803,0.00472034,0.116028,20.8943,89.9883,-0.19032,0.0,0.0
4928,1231.75,47.7549,49.2104,131.794,105.434,107.678,0.00478365,0.114208,20.8965,89.8482,-0.190533,0.0,0.0
4950,1237.25,47.1899,48.9876,136.539,105.351,107.485,0.00469058,0.11387,20.8968,89.7581,-0.181427,0.0,0.0
4972,1242.75,46.6896,48.7435,136.949,105.299,107.179,0.00479146,0.112862,20.8976,89.7281,-0.160063,0.0,0.0
4994,1248.25,46.816,48.7227,133.617,105.261,107.633,0.00495898,0.112864,20.8974,89.5179,-0.20154,0.0,0.0
5016,1253.75,47.1494,48.3502,140.33,105.262,108.111,0.00489741,0.114267,20.8962,89.578,-0.241617,0.0,0.0
5038,1259.25,46.9358,48.4338,132.051,105.267,107.3,0.00507338,0.11222,20.8982,89.3978,-0.173077,0.0,0.0
5060,1264.75,46.8276,48.1163,137.251,105.311,107.941,0.00487643,0.112828,20.8983,89.3778,-0.223134,0.0,0.0
5082,1270.25,46.6367,47.8974,137.792,105.357,107.671,0.00487089,0.112028,20.8983,89.2777,-0.196545,0.0,0.0
5104,1275.75,46.1657,47.901,134.673,105.398,107.592,0.00503866,0.111778,20.8983,89.1776,-0.186338,0.0,0.0
5126,1281.25,46.5384,47.505,136.013,105.472,107.598,0.00478621,0.110895,20.9,89.1876,-0.180501,0.0,0.0
5148,1286.75,45.9599,47.3016,137.067,105.507,107.689,0.0047473,0.111043,20.9,89.0175,-0.185201,0.0,0.0
5170,1292.25,46.5486,47.3189,137.808,105.565,107.849,0.00492398,0.11098,20.9001,89.0475,-0.193611,0.0,0.0
5192,1297.75,45.6516,47.0858,134.207,105.584,107.826,0.00512093,0.110331,20.9005,88.8874,-0.190065,0.0,0.0
5214,1303.25,45.8561,46.7875,138.58,105.652,108.018,0.00512371,0.110013,20.9006,88.9174,-0.200356,0.0,0.0
5236,1308.75,45.6215,46.8,138.864,105.685,107.872,0.00509051,0.109603,20.9012,88.7773,-0.185247,0.0,0.0
5258,1314.25,45.0287,46.7849,135.685,105.715,108.665,0.0050075,0.11013,20.9013,88.6972,-0.248908,0.0,0.0
5280,1319.75,45.9012,46.7448,140.294,105.775,107.942,0.00498993,0.109494,20.9024,88.6972,-0.1834,0.0,0.0
5302,1325.25,45.4956,46.7619,134.23,105.797,108.05,0.00511772,0.108843,20.9018,88.5171,-0.190612,0.0,0.0
5324,1330.75,45.2781,46.7425,136.381,105.818,108.233,0.00503767,0.108869,20.9028,88.5771,-0.204113,0.0,0.0
5346,1336.25,45.2476,46.4011,137.117,105.811,107.298,0.00509979,0.108916,20.9053,88.407,-0.126224,0.0,0.0
5368,1341.75,45.1018,46.5634,135.454,105.836,108.02,0.00521766,0.108439,20.9064,88.467,-0.184753,0.0,0.0
5390,1347.25,45.4902,46.465,139.45,105.855,108.361,0.00534984,0.108572,20.9066,88.3669,-0.211669,0.0,0.0
5412,1352.75,45.1774,46.0662,137.296,105.833,108.023,0.00514698,0.107844,20.9077,88.2168,-0.18524,0.0,0.0
5434,1358.25,44.9426,46.3032,136.224,105.852,108.361,0.00503017,0.10707,20.9089,88.2668,-0.211882,0.0,0.0
5456,1363.75,44.8683,45.9998,138.18,105.843,107.86,0.00525002,0.10698,20.9072,88.0967,-0.170784,0.0,0.0
5478,1369.25,44.7992,46.1183,140.166,105.859,108.243,0.00555624,0.107556,20.907,88.1367,-0.201465,0.0,0.0
5500,1374.75,45.2377,46.1829,134.841,105.859,108.553,0.00537396,0.107168,20.907,87.9766,-0.227309,0.0,0.0
5522,1380.25,44.5277,45.795,134.5,105.876,107.846,0.00534219,0.106913,20.9087,88.0366,-0.166798,0.0,0.0
5544,1385.75,44.998,46.1265,134.767,105.872,108.179,0.00501624,0.106928,20.9102,87.9466,-0.19497,0.0,0.0
5566,1391.25,44.5125,45.9243,136.913,105.862,108.234,0.00548241,0.107081,20.91,87.8265,-0.200437,0.0,0.0
5588,1396.75,44.7575,45.7417,138.17,105.865,107.534,0.00559003,0.107182,20.9083,87.8565,-0.141561,0.0,0.0
5610,1402.25,44.3586,46.019,135.51,105.821,107.312,0.00578377,0.106686,20.9096,87.6563,-0.126539,0.0,0.0
5632,1407.75,44.4585,45.9982,134.953,105.77,107.84,0.00569048,0.105384,20.9122,87.7364,-0.175322,0.0,0.0
5654,1413.25,44.8042,45.6753,139.862,105.66,107.796,0.00574191,0.106202,20.9125,87.5762,-0.180973,0.0,0.0
5676,1418.75,44.7813,45.7433,138.062,105.481,107.825,0.00565439,0.106372,20.9107,87.6363,-0.198828,0.0,0.0
5698,1424.25,44.9265,45.8333,137.892,105.256,107.263,0.00597161,0.10613,20.9123,87.5562,-0.170919,0.0,0.0
5720,1429.75,44.1932,45.437,133.031,105.001,107.924,0.00577385,0.105285,20.911,87.4161,-0.248375,0.0,0.0
5742,1435.25,44.6824,45.7575,137.047,104.693,106.966,0.0059143,0.106141,20.9109,87.4561,-0.194334,0.0,0.0
5764,1440.75,45.166,46.1722,136.92,104.353,106.613,0.00573293,0.105556,20.9113,87.306,-0.193836,0.0,0.0
5786,1446.25,44.5827,45.5715,140.885,104.101,106.7,0.00578388,0.105381,20.9105,87.346,-0.223047,0.0,0.0
5808,1451.75,43.9727,45.4446,135.068,103.936,105.859,0.00577295,0.105449,20.9128,87.1859,-0.165748,0.0,0.0
5830,1457.25,43.9,45.6905,135.416,103.898,106.152,0.00580577,0.105053,20.9146,87.2059,-0.194132,0.0,0.0
5852,1462.75,44.4898,46.1336,140.41,103.975,106.258,0.0058231,0.105175,20.9162,87.1859,-0.196522,0.0,0.0
5874,1468.25,44.3447,45.5154,138.538,104.116,106.093,0.00596835,0.105205,20.9144,87.0057,-0.170163,0.0,0.0
5896,1473.75,44.2225,45.5362,137.519,104.317,106.752,0.00570008,0.104937,20.9152,87.1158,-0.208722,0.0,0.0
5918,1479.25,43.7222,45.577,140.043,104.483,106.172,0.00598026,0.10562,20.9147,86.9657,-0.145022,0.0,0.0
5940,1484.75,44.447,45.1963,136.192,104.662,107.256,0.00575157,0.105434,20.9147,86.9957,-0.221469,0.0,0.0
5962,1490.25,43.2789,45.3176,139.294,104.792,106.54,0.00580336,0.105041,20.9147,86.8456,-0.149609,0.0,0.0
5984,1495.75,43.6273,44.6751,134.966,104.891,107.038,0.0058805,0.104926,20.9142,86.8156,-0.183291,0.0,0.0
6006,1501.25,43.7432,45.2228,135.082,104.996,107.012,0.00596893,0.10492,20.9139,86.8756,-0.171976,0.0,0.0
6028,1506.75,44.295,45.1247,134.908,105.046,106.968,0.00596432,0.104923,20.9143,86.7055,-0.163975,0.0,0.0
6050,1512.25,43.7901,45.0522,137.518,105.11,107.29,0.00578291,0.105139,20.9147,86.7956,-0.185699,0.0,0.0
6072,1517.75,43.8152,45.2144,134.09,105.13,106.831,0.00587667,0.104751,20.9164,86.6254,-0.145189,0.0,0.0
6094,1523.25,43.528,45.1062,138.193,105.171,107.202,0.00598099,0.104081,20.9177,86.6254,-0.173,0.0,0.0
6116,1528.75,43.6869,44.7376,133.624,105.176,107.629,0.00592612,0.103958,20.9185,86.5754,-0.208569,0.0,0.0
6138,1534.25,43.2926,44.7951,134.587,105.159,107.143,0.00622328,0.103437,20.9198,86.4453,-0.169025,0.0,0.0
6160,1539.75,43.3967,44.6876,134.194,105.182,106.61,0.00616492,0.104139,20.9182,86.5353,-0.122005,0.0,0.0
6182,1545.25,44.009,44.912,139.439,105.148,107.213,0.00597112,0.103455,20.9201,86.3752,-0.175981,0.0,0.0
6204,1550.75,43.2634,44.9671,140.502,105.146,107.594,0.00612661,0.103664,20.9196,86.4252,-0.208175,0.0,0.0
6226,1556.25,43.5409,44.1283,132.716,105.127,106.938,0.00597656,0.103238,20.9207,86.2751,-0.154506,0.0,0.0
6248,1561.75,43.4143,44.1807,136.261,105.138,107.404,0.00609406,0.103455,20.9199,86.2751,-0.192879,0.0,0.0
6270,1567.25,42.812,44.202,138.136,105.149,107.357,0.00615675,0.103393,20.9213,86.215,-0.188007,0.0,0.0
6292,1572.75,43.0639,44.6279,137.138,105.125,107.018,0.00638037,0.103259,20.9222,86.0849,-0.161462,0.0,0.0
6314,1578.25,43.7032,45.0132,133.429,105.159,106.405,0.00633326,0.103466,20.9209,86.175,-0.106563,0.0,0.0
6336,1583.75,43.1071,43.8558,139.279,105.126,107.465,0.00578474,0.103036,20.9218,86.0549,-0.199028,0.0,0.0
6358,1589.25,43.1096,44.1922,137.218,105.124,107.434,0.00610434,0.102871,20.92,86.0449,-0.196662,0.0,0.0
6380,1594.75,42.9591,44.1075,139.906,105.139,106.998,0.00660557,0.10314,20.918,85.9148,-0.158497,0.0,0.0
6402,1600.25,42.8635,44.1059,139.12,105.131,106.722,0.00683988,0.103038,20.9196,85.9048,-0.135807,0.0,0.0
6424,1605.75,42.8172,44.2802,132.963,105.134,106.608,0.00698774,0.102516,20.9212,85.9648,-0.125952,0.0,0.0
6446,1611.25,42.8898,44.3036,139.103,105.13,107.113,0.00690445,0.102969,20.9202,85.7046,-0.16902,0.0,0.0
6468,1616.75,42.4167,43.9324,139.388,105.088,107.238,0.00681794,0.102583,20.9211,85.7446,-0.183228,0.0,0.0
6490,1622.25,42.8387,44.0021,141.23,105.027,106.599,0.00699459,0.102014,20.9222,85.6646,-0.134369,0.0,0.0
6512,1627.75,42.7159,44.2984,138.372,104.962,106.731,0.00663881,0.101855,20.9215,85.6746,-0.151194,0.0,0.0
6534,1633.25,42.5646,43.7671,137.622,104.854,107.267,0.00680662,0.102648,20.9217,85.5645,-0.20588,0.0,0.0
6556,1638.75,42.5183,43.9102,133.961,104.71,106.322,0.00704964,0.10284,20.9215,85.5345,-0.13824,0.0,0.0
6578,1644.25,42.4981,42.7981,136.983,104.591,106.614,0.00667592,0.102965,20.9194,85.5645,-0.173313,0.0,0.0
6600,1649.75,41.7621,44.117,136.608,104.437,106.514,0.00700526,0.103076,20.9212,85.3943,-0.178167,0.0,0.0
6622,1655.25,42.7398,43.8199,140.753,104.306,106.043,0.00714384,0.102134,20.922,85.4544,-0.149328,0.0,0.0
6644,1660.75,42.2155,44.1565,138.608,104.125,105.882,0.00708533,0.101452,20.9227,85.3143,-0.151348,0.0,0.0
6666,1666.25,42.1339,43.8321,137.874,104.031,105.36,0.00726091,0.101802,20.9229,85.3943,-0.114827,0.0,0.0
6688,1671.75,42.2698,44.3121,137.654,103.92,105.488,0.00713366,0.102014,20.9237,85.2742,-0.135485,0.0,0.0
6710,1677.25,42.4218,43.4365,141.749,103.853,106.379,0.00721818,0.102155,20.9246,85.2242,-0.217381,0.0,0.0
6732,1682.75,42.1977,44.0389,141.13,103.833,105.145,0.00677965,0.101616,20.9242,85.2642,-0.113626,0.0,0.0
6754,1688.25,42.1522,43.8147,138.475,103.83,105.809,0.00706802,0.101556,20.9241,85.054,-0.170726,0.0,0.0
6776,1693.75,42.0666,43.3115,134.556,103.948,105.921,0.00710481,0.100907,20.9259,85.1341,-0.170127,0.0,0.0
6798,1699.25,42.1699,43.3968,135.711,104.117,105.731,0.00708809,0.101749,20.9236,84.974,-0.139148,0.0,0.0
6820,1704.75,42.2213,43.1467,130.886,104.369,105.724,0.00709398,0.101894,20.925,85.054,-0.116652,0.0,0.0
6842,1710.25,41.5394,43.5862,136.824,104.674,106.297,0.00719827,0.105017,20.9206,84.984,-0.139201,0.0,0.0
6864,1715.75,41.9656,43.6433,139.7,105.048,106.365,0.00718872,0.106967,20.9193,84.8739,-0.112686,0.0,0.0
6886,1721.25,41.7875,43.3222,135.721,105.367,106.243,0.00717348,0.1032,20.9244,84.9039,-0.0749048,0.0,0.0
6908,1726.75,41.9825,43.3499,135.806,105.597,107.366,0.00732262,0.101978,20.9247,84.7738,-0.150219,0.0,0.0
6930,1732.25,41.8542,43.2232,136.11,105.76,107.787,0.00746193,0.101384,20.9247,84.8138,-0.171734,0.0,0.0
6952,1737.75,41.9816,43.4325,137.684,105.794,107.829,0.00741406,0.100914,20.9255,84.6937,-0.172361,0.0,0.0
6974,1743.25,41.7187,43.2341,134.622,105.742,106.645,0.00761653,0.101104,20.9249,84.6937,-0.0769366,0.0,0.0
6996,1748.75,41.9196,43.1736,142.342,105.577,106.743,0.00751947,0.101167,20.9253,84.6637,-0.099377,0.0,0.0
7018,1754.25,41.7002,43.4768,137.005,105.395,107.798,0.00718583,0.100438,20.9254,84.5236,-0.203916,0.0,0.0
7040,1759.75,41.7719,43.52,139.094,105.138,106.647,0.00746331,0.100783,20.9254,84.5436,-0.128907,0.0,0.0
7062,1765.25,41.9258,43.611,140.941,104.907,106.738,0.00732498,0.100343,20.9254,84.3935,-0.156483,0.0,0.0
7084,1770.75,41.3293,43.4362,135.219,105.168,107.431,0.00744929,0.100657,20.9254,84.4735,-0.192572,0.0,0.0
7106,1776.25,40.9711,43.3577,138.129,105.37,107.159,0.00766638,0.100485,20.9262,84.2734,-0.152242,0.0,0.0
7128,1781.75,41.5622,43.2301,138.821,105.351,106.747,0.0074873,0.0996422,20.9276,84.3634,-0.119125,0.0,0.0
7150,1787.25,41.4692,43.1074,137.696,105.006,106.401,0.00777008,0.0999349,20.9278,84.3034,-0.119376,0.0,0.0
7172,1792.75,41.6536,42.9409,135.346,104.507,106.029,0.00799232,0.101309,20.9268,84.1833,-0.13078,0.0,0.0
7194,1798.25,41.2331,43.1597,134.347,104.644,106.09,0.00794493,0.100529,20.9285,84.2433,-0.124106,0.0,0.0
7216,1803.75,41.7001,42.8695,134.452,104.781,106.21,0.00805692,0.100216,20.9288,84.0832,-0.122477,0.0,0.0
7238,1809.25,41.4386,42.968,137.209,104.987,106.835,0.00808582,0.1002,20.9288,84.1132,-0.157804,0.0,0.0
7260,1814.75,41.587,42.5907,139.5,105.113,107.347,0.00798937,0.100352,20.9288,84.0031,-0.190234,0.0,0.0
7282,1820.25,41.5664,42.9403,140.991,105.11,106.904,0.00743693,0.0996993,20.9287,84.0331,-0.153048,0.0,0.0
7304,1825.75,41.5755,43.0033,139.834,105.004,105.512,0.00784582,0.0998139,20.9269,83.9731,-0.0436921,0.0,0.0
7326,1831.25,41.7837,43.1529,140.055,104.812,106.304,0.00830034,0.0993609,20.9275,83.813,-0.127863,0.0,0.0
7348,1836.75,41.4967,42.8664,133.6,104.66,105.952,0.00838476,0.0988053,20.9276,83.863,-0.110989,0.0,0.0
7370,1842.25,41.7019,42.8563,139.237,104.468,106.691,0.00816226,0.0993593,20.9277,83.7129,-0.190478,0.0,0.0
7392,1847.75,41.3515,43.0303,137.499,104.364,105.78,0.00828572,0.100056,20.9278,83.7729,-0.121909,0.0,0.0
7414,1853.25,41.3734,43.1238,136.387,104.276,106.095,0.00786328,0.0992683,20.9277,83.6328,-0.15642,0.0,0.0
7436,1858.75,41.5239,43.0875,136.09,104.212,106.137,0.00767509,0.0987834,20.927,83.7029,-0.165564,0.0,0.0
7458,1864.25,41.4064,43.0642,133.526,104.192,104.866,0.00802507,0.09861,20.9296,83.6728,-0.0583478,0.0,0.0
7480,1869.75,41.2579,42.7817,134.63,104.173,105.952,0.0082961,0.0990479,20.9308,83.5227,-0.153167,0.0,0.0
7502,1875.25,41.135,43.1306,137.067,104.158,105.275,0.00813898,0.0989996,20.9314,83.5527,-0.0965255,0.0,0.0
7524,1880.75,41.3994,43.0289,138.619,104.135,105.526,0.00824308,0.0987204,20.9331,83.4126,-0.120056,0.0,0.0
7546,1886.25,41.2773,42.8262,137.767,104.15,105.451,0.00864753,0.0984018,20.9313,83.4627,-0.112305,0.0,0.0
7568,1891.75,41.1069,42.8832,136.631,104.152,105.391,0.00872125,0.0984192,20.9308,83.3326,-0.106926,0.0,0.0
7590,1897.25,41.2469,43.0065,140.338,104.177,105.549,0.00865444,0.0983231,20.93,83.3426,-0.118375,0.0,0.0
7612,1902.75,41.3675,42.9508,136.011,104.193,106.485,0.00857374,0.0970353,20.9307,83.3326,-0.196745,0.0,0.0
7634,1908.25,41.157,43.2735,136.687,104.209,105.616,0.00838876,0.0980745,20.931,83.1524,-0.121299,0.0,0.0
7656,1913.75,41.4157,42.542,135.335,104.23,104.804,0.00827596,0.0978813,20.9329,83.2425,-0.0496241,0.0,0.0
7678,1919.25,41.1359,42.6343,139.137,104.239,105.559,0.00817534,0.0976798,20.9331,83.0823,-0.113824,0.0,0.0
7700,1924.75,41.1226,42.7076,139.434,104.266,105.112,0.00847108,0.0968802,20.9331,83.1424,-0.0731164,0.0,0.0
7722,1930.25,41.0452,42.7782,137.625,104.281,105.553,0.00853563,0.0972405,20.9321,83.0323,-0.109715,0.0,0.0
7744,1935.75,41.5137,43.0221,142.929,104.291,105.004,0.00866911,0.0974467,20.93,83.0223,-0.06169,0.0,0.0
7766,1941.25,41.0828,42.7187,133.908,104.296,106.417,0.00900988,0.097611,20.9309,83.0023,-0.182131,0.0,0.0
7788,1946.75,41.5801,42.8406,133.949,104.3,105.679,0.00886759,0.0979019,20.9307,82.8821,-0.118833,0.0,0.0
7810,1952.25,41.4284,43.1413,136.533,104.308,106.47,0.00899369,0.0979037,20.9291,82.9222,-0.185581,0.0,0.0
7832,1957.75,41.1935,43.0217,140.047,104.302,106.314,0.00889324,0.0962145,20.9322,82.7921,-0.172827,0.0,0.0
7854,1963.25,40.9461,43.2509,137.474,104.316,105.157,0.00919302,0.0968605,20.9321,82.8421,-0.0726784,0.0,0.0
7876,1968.75,41.1191,42.8683,136.574,104.316,105.974,0.00899928,0.0973308,20.932,82.7921,-0.142566,0.0,0.0
7898,1974.25,41.2791,42.9385,135.46,104.294,105.722,0.00896876,0.0964829,20.9313,82.682,-0.122976,0.0,0.0
7920,1979.75,41.3342,42.9652,137.173,104.338,105.045,0.00880726,0.0962823,20.934,82.722,-0.0611119,0.0,0.0
7942,1985.25,41.0893,42.7714,138.519,104.366,105.737,0.00931567,0.0969829,20.9352,82.5519,-0.118101,0.0,0.0
7964,1990.75,41.0446,42.785,136.067,104.415,106.436,0.00923211,0.0969976,20.9353,82.6019,-0.173387,0.0,0.0
7986,1996.25,41.1717,43.0089,141.534,104.444,105.525,0.00926768,0.0971833,20.9334,82.4818,-0.0931001,0.0,0.0
8008,2001.75,41.1432,43.067,137.764,104.544,106.306,0.00929917,0.0969855,20.9331,82.5419,-0.151213,0.0,0.0
8030,2007.25,41.2657,42.7281,138.596,104.651,106.368,0.00933318,0.0965628,20.9329,82.4718,-0.147235,0.0,0.0
8052,2012.75,41.2401,42.916,141.224,104.754,106.768,0.00917626,0.0964877,20.9329,82.3417,-0.17221,0.0,0.0
8074,2018.25,41.5194,42.6844,138.668,104.881,106.163,0.00935285,0.0968359,20.9329,82.4117,-0.10994,0.0,0.0
8096,2023.75,41.3713,43.0035,141.198,104.98,106.243,0.00901898,0.0971086,20.9342,82.2516,-0.108198,0.0,0.0
8118,2029.25,41.0089,42.7835,138.033,105.09,107.033,0.00900979,0.0959672,20.9358,82.3317,-0.165667,0.0,0.0
8140,2034.75,41.2302,42.9731,137.378,105.162,107.301,0.00926019,0.0964965,20.9355,82.1615,-0.18209,0.0,0.0
8162,2040.25,41.5017,42.5189,137.968,105.191,106.408,0.00913204,0.0965028,20.9338,82.1715,-0.104038,0.0,0.0
8184,2045.75,41.2105,42.7505,138.383,105.183,106.539,0.00925463,0.0966477,20.9348,82.1715,-0.115888,0.0,0.0
8206,2051.25,41.0614,42.8164,134.789,105.135,106.818,0.0093722,0.0970163,20.9323,82.0214,-0.143609,0.0,0.0
8228,2056.75,41.7029,42.7453,136.256,105.04,106.659,0.00944564,0.0965728,20.9315,82.0815,-0.138298,0.0,0.0
8250,2062.25,41.1761,42.8698,135.326,104.854,106.529,0.00956737,0.0963623,20.9314,81.9413,-0.143375,0.0,0.0
8272,2067.75,41.3421,43.0281,136.297,104.748,105.9,0.00924985,0.0962302,20.9331,82.0114,-0.0989824,0.0,0.0
8294,2073.25,41.4382,42.9748,138.44,104.639,105.997,0.00933182,0.0965704,20.9336,81.9013,-0.116599,0.0,0.0
8316,2078.75,41.1835,42.9802,133.74,104.584,105.915,0.0092066,0.0960403,20.9339,81.8513,-0.114464,0.0,0.0
8338,2084.25,41.2466,42.4073,136.858,104.991,106.616,0.00927445,0.0965011,20.9318,81.8713,-0.138959,0.0,0.0
8360,2089.75,41.1446,42.9247,135.897,105.258,106.827,0.00925465,0.0962016,20.9336,81.7211,-0.133859,0.0,0.0
8382,2095.25,41.4775,42.9141,136.535,105.449,107.087,0.00910106,0.0953604,20.9352,81.7912,-0.139437,0.0,0.0
8404,2100.75,41.2399,42.9752,132.361,105.46,107.041,0.00920297,0.0967934,20.934,81.6411,-0.134637,0.0,0.0
8426,2106.25,40.7673,43.436,139.294,105.325,106.899,0.0091859,0.0965288,20.9345,81.7412,-0.13416,0.0,0.0
8448,2111.75,41.1763,43.1415,135.558,105.031,106.628,0.00932352,0.0968745,20.9344,81.6611,-0.136528,0.0,0.0
8470,2117.25,41.3058,43.0619,140.706,105.02,107.024,0.00959259,0.0966216,20.9339,81.591,-0.171036,0.0,0.0
8492,2122.75,41.4593,42.7719,139.768,105.187,106.612,0.00963881,0.0966635,20.9318,81.6411,-0.121726,0.0,0.0
8514,2128.25,41.9182,43.3437,139.933,105.349,106.498,0.00945431,0.0959977,20.9342,81.4309,-0.0980547,0.0,0.0
8536,2133.75,41.6487,42.5656,137.551,105.518,107.215,0.00920683,0.0962518,20.9333,81.4609,-0.144341,0.0,0.0
8558,2139.25,41.6442,43.1044,138.427,105.628,107.791,0.00941217,0.0965371,20.9341,81.4109,-0.183369,0.0,0.0
8580,2144.75,41.0803,43.4515,137.812,105.74,107.58,0.00931558,0.0964136,20.9338,81.4609,-0.156023,0.0,0.0
8602,2150.25,41.4801,43.1434,135.503,105.791,106.942,0.00928214,0.0958787,20.9337,81.3808,-0.097913,0.0,0.0
8624,2155.75,41.2735,42.9893,137.111,105.81,108.238,0.00914688,0.0958832,20.934,81.2808,-0.205191,0.0,0.0
8646,2161.25,41.361,42.5036,133.747,105.825,107.737,0.00929394,0.0962813,20.9366,81.3108,-0.161945,0.0,0.0
8668,2166.75,41.4186,43.0238,138.112,105.791,107.029,0.00920214,0.096809,20.9358,81.1907,-0.105235,0.0,0.0
8690,2172.25,40.6524,42.9258,138.288,105.78,107.24,0.00910829,0.097126,20.9347,81.2707,-0.124067,0.0,0.0
8712,2177.75,41.197,42.4667,138.287,105.734,107.523,0.00924706,0.0968938,20.9368,81.0506,-0.151748,0.0,0.0
8734,2183.25,41.447,42.9851,138.586,105.747,107.094,0.00914805,0.096309,20.9359,81.1507,-0.114467,0.0,0.0
8756,2188.75,41.3574,42.7986,137.612,105.725,107.601,0.00907983,0.0965302,20.9362,81.0606,-0.159048,0.0,0.0
8778,2194.25,41.4757,43.048,136.4,105.734,107.653,0.00909268,0.0957709,20.9366,81.0105,-0.162748,0.0,0.0
8800,2199.75,41.025,42.686,137.488,105.737,106.415,0.00916404,0.0963356,20.9367,81.0105,-0.0578339,0.0,0.0
8822,2205.25,41.3029,42.898,138.657,105.73,107.468,0.00897522,0.0957783,20.9365,80.8504,-0.147488,0.0,0.0
8844,2210.75,40.8133,43.115,136.386,105.74,107.377,0.00920953,0.0958256,20.9352,80.9305,-0.138933,0.0,0.0
8866,2216.25,41.3544,42.6494,141.869,105.733,106.954,0.00937267,0.0960341,20.9351,80.7903,-0.10389,0.0,0.0
8888,2221.75,40.9888,42.6574,140.088,105.76,106.886,0.00922403,0.0951143,20.9363,80.8704,-0.0958226,0.0,0.0
8910,2227.25,40.9827,42.4692,137.626,105.788,107.607,0.00932501,0.095668,20.9372,80.8304,-0.154207,0.0,0.0
8932,2232.75,40.9186,42.8978,134.707,105.782,106.503,0.00889901,0.0954143,20.9387,80.6902,-0.0614457,0.0,0.0
8954,2238.25,40.6807,42.8797,137.387,105.808,107.736,0.00913101,0.0955948,20.9375,80.7303,-0.163314,0.0,0.0
8976,2243.75,40.966,42.7705,136.845,105.775,107.434,0.0092462,0.0957199,20.9374,80.5401,-0.140829,0.0,0.0
8998,2249.25,41.1471,42.296,134.077,105.769,107.405,0.00905466,0.0955782,20.9374,80.6102,-0.138903,0.0,0.0
9020,2254.75,40.9156,42.7366,133.334,105.709,107.087,0.00936583,0.0960616,20.9366,80.4801,-0.117131,0.0,0.0
9042,2260.25,40.7356,42.9733,136.627,105.646,107.194,0.00949025,0.0958742,20.9364,80.5301,-0.131568,0.0,0.0
9064,2265.75,41.2508,42.6309,134.661,105.557,108.22,0.00943565,0.0955371,20.9384,80.5001,-0.225377,0.0,0.0
9086,2271.25,41.232,42.7153,136.553,105.474,106.478,0.00939154,0.0957613,20.9386,80.36,-0.0856905,0.0,0.0
9108,2276.75,41.2207,42.6801,137.077,105.375,107.411,0.00947292,0.0959404,20.9376,80.43,-0.173124,0.0,0.0
9130,2282.25,40.8898,42.7214,138.077,105.242,106.655,0.00916205,0.0954017,20.9399,80.2699,-0.120602,0.0,0.0
9152,2287.75,41.0376,42.2568,137.577,105.166,106.659,0.00911971,0.0951497,20.9397,80.3299,-0.127458,0.0,0.0
9174,2293.25,40.7376,42.3963,138.174,105.041,106.125,0.00921739,0.0947401,20.9407,80.1898,-0.0928441,0.0,0.0
9196,2298.75,40.9945,42.3766,133.029,104.937,106.118,0.00942268,0.0946025,20.9401,80.2799,-0.101243,0.0,0.0
9218,2304.25,40.6314,42.7277,140.807,104.965,106.411,0.00955584,0.0951114,20.9376,80.2198,-0.123777,0.0,0.0
9240,2309.75,40.6144,42.3807,134.996,105.165,106.598,0.00919266,0.0953279,20.9381,80.0997,-0.122428,0.0,0.0
9262,2315.25,40.9087,42.4955,136.491,105.317,105.721,0.00929046,0.0949051,20.9382,80.1398,-0.0346242,0.0,0.0
9284,2320.75,40.6971,42.2289,139.886,105.383,106.229,0.00932695,0.0952203,20.9382,80.0297,-0.0723327,0.0,0.0
9306,2326.25,40.5037,41.9701,135.811,105.389,106.752,0.00974737,0.0953071,20.9373,80.0797,-0.116294,0.0,0.0
9328,2331.75,40.7121,42.559,137.203,105.294,107.197,0.00960867,0.0949157,20.9363,79.9096,-0.161995,0.0,0.0
9350,2337.25,40.7815,42.3879,144.27,105.082,106.816,0.00948684,0.0949838,20.937,79.9896,-0.148074,0.0,0.0
9372,2342.75,40.9209,42.2837,136.523,104.776,105.617,0.00934489,0.0949803,20.9379,79.9396,-0.0723137,0.0,0.0
9394,2348.25,40.7025,42.6018,138.14,104.473,106.186,0.00924016,0.0946547,20.9388,79.7995,-0.147091,0.0,0.0
9416,2353.75,40.7515,42.6104,137.185,104.555,105.76,0.00901012,0.0941165,20.9398,79.8595,-0.103654,0.0,0.0
9438,2359.25,40.8399,42.615,134.785,104.649,105.522,0.00912591,0.0939811,20.9391,79.6994,-0.0751614,0.0,0.0
9460,2364.75,40.7304,41.9591,134.762,104.756,105.524,0.009253,0.0948236,20.9374,79.7694,-0.0660501,0.0,0.0
9482,2370.25,40.7877,42.5017,137.109,104.839,105.526,0.00905407,0.0939086,20.9399,79.6093,-0.0590603,0.0,0.0
9504,2375.75,40.1814,42.5116,134.615,104.939,106.606,0.00955773,0.0944431,20.9404,79.6293,-0.142536,0.0,0.0
9526,2381.25,40.7847,42.4122,139.208,105.026,106.664,0.00981587,0.0952555,20.9394,79.6794,-0.139973,0.0,0.0
9548,2386.75,40.5487,42.5035,137.506,105.09,106.13,0.00967387,0.0953964,20.9393,79.5092,-0.0890205,0.0,0.0
9570,2392.25,40.7523,42.8098,138.979,105.108,106.47,0.00957478,0.0951903,20.939,79.5493,-0.116501,0.0,0.0
9592,2397.75,40.5528,42.2896,140.541,105.058,105.773,0.00931041,0.0946724,20.9387,79.3991,-0.0613659,0.0,0.0
9614,2403.25,40.8064,42.2262,137.131,104.993,105.913,0.00945144,0.0947896,20.9403,79.4592,-0.0789128,0.0,0.0
9636,2408.75,40.5028,42.289,135.578,104.865,106.337,0.00967876,0.0946576,20.9392,79.309,-0.126115,0.0,0.0
9658,2414.25,41.072,42.4123,134.957,104.698,105.679,0.00909956,0.0944373,20.9409,79.3491,-0.0843337,0.0,0.0
9680,2419.75,40.6492,42.3799,140.362,104.456,105.906,0.00876222,0.0943899,20.9398,79.3591,-0.124714,0.0,0.0
9702,2425.25,40.6289,42.0176,136.727,104.231,105.426,0.00939061,0.0943056,20.9405,79.1989,-0.103102,0.0,0.0
9724,2430.75,40.6283,42.6531,138.547,104.052,105.266,0.00914871,0.094157,20.9415,79.259,-0.104869,0.0,0.0
9746,2436.25,40.441,42.0076,135.868,103.87,105.832,0.00913699,0.0946206,20.9406,79.0888,-0.169293,0.0,0.0
9768,2441.75,40.6664,42.0207,137.948,103.8,104.435,0.00913583,0.0942746,20.9416,79.1889,-0.0551093,0.0,0.0
9790,2447.25,40.7681,42.312,135.939,103.805,105.552,0.00903461,0.0946712,20.9403,79.0989,-0.151006,0.0,0.0
9812,2452.75,40.5305,42.2152,137.351,103.933,105.546,0.00918438,0.0946573,20.9394,79.0989,-0.139296,0.0,0.0
9834,2458.25,40.6905,42.3257,138.618,104.1,105.077,0.00989759,0.0944269,20.9393,79.0989,-0.084455,0.0,0.0
9856,2463.75,40.8423,42.1396,138.409,104.295,106.349,0.009923,0.0942925,20.9404,78.9387,-0.176426,0.0,0.0
9878,2469.25,40.5147,42.2456,139.56,104.565,105.713,0.00940824,0.0937783,20.94,78.96875,-0.0988287,0.0,0.0
9900,2474.75,40.577,42.3377,138.066,104.813,105.963,0.00927015,0.0944172,20.9402,78.8386,-0.0986564,0.0,0.0
9922,2480.25,40.3428,41.8827,136.522,105.081,106.377,0.00935625,0.093941,20.9391,78.8987,-0.110876,0.0,0.0
9944,2485.75,40.7553,42.3978,140.279,105.297,107.278,0.00941993,0.0943196,20.9413,78.8086,-0.16858,0.0,0.0
9966,2491.25,38.9462,40.6193,134.537,105.502,107.146,0.00933846,0.0945385,20.9419,78.7185,-0.139901,0.0,0.0
9988,2496.75,38.5112,40.3234,135.405,105.681,106.739,0.00955203,0.0943397,20.9419,78.7586,-0.0901574,0.0,0.0
10010,2502.25,38.6166,40.6303,139.199,105.748,106.668,0.00942031,0.0948506,20.9419,78.6585,-0.0782907,0.0,0.0
10032,2507.75,38.5603,40.4651,137.983,105.782,106.454,0.00927025,0.0945143,20.9416,78.6685,-0.0572517,0.0,0.0
10054,2513.25,38.8099,40.4066,136.626,105.719,106.564,0.00925231,0.093991,20.9413,78.5384,-0.0719735,0.0,0.0
10076,2518.75,38.7901,40.6587,131.331,105.595,107.286,0.00968561,0.0942973,20.9413,78.5884,-0.143688,0.0,0.0
10098,2524.25,38.3161,40.8115,136.445,105.395,106.7,0.00972093,0.0946549,20.9405,78.5284,-0.111325,0.0,0.0
10120,2529.75,39.1093,40.9911,137.685,105.174,106.335,0.00954254,0.0948004,20.9413,78.4383,-0.0993492,0.0,0.0
10142,2535.25,39.3643,41.0335,134.795,105.016,106.778,0.00951361,0.0943425,20.9425,78.4783,-0.150556,0.0,0.0
10164,2540.75,38.605,39.9062,134.707,104.919,106.197,0.00961168,0.0964052,20.9406,78.2481,-0.109556,0.0,0.0
10186,2546.25,38.9104,41.0569,138.296,105.209,105.808,0.00927379,0.0966143,20.9395,78.3782,-0.0512946,0.0,0.0
10208,2551.75,38.5672,40.3883,142.088,105.353,106.174,0.00920716,0.0950204,20.9421,78.2381,-0.0702308,0.0,0.0
10230,2557.25,38.9068,40.6512,135.113,105.416,106.759,0.00923944,0.0942281,20.942,78.3382,-0.114489,0.0,0.0
10252,2562.75,38.46,40.2365,139.337,105.374,106.056,0.00924235,0.0939586,20.942,78.2181,-0.0582924,0.0,0.0
10274,2568.25,38.9706,40.5137,139.18,105.251,106.199,0.00952468,0.0939079,20.9433,78.108,-0.081044,0.0,0.0
10296,2573.75,39.2117,41.1279,139.391,105.064,106.108,0.0096431,0.0942463,20.9425,78.168,-0.0894468,0.0,0.0
10318,2579.25,39.1003,41.2998,137.497,104.756,105.893,0.00912069,0.0938219,20.9428,78.078,-0.0976122,0.0,0.0
10340,2584.75,39.316,41.1236,137.801,104.477,105.648,0.00920641,0.094124,20.942,78.118,-0.100782,0.0,0.0
10362,2590.25,39.2818,41.0806,137.294,104.568,105.14,0.00920806,0.0939251,20.9422,77.9879,-0.0493829,0.0,0.0
10384,2595.75,39.1109,40.6409,138.008,104.695,105.394,0.00939829,0.0934156,20.9437,78.048,-0.0601978,0.0,0.0
10406,2601.25,39.2721,41.1784,136.085,104.794,105.483,,0.0931483,,77.9779,-0.0592492,0.0,0.0
10428,2606.75,39.5276,40.8762,136.905,104.905,105.247,,,,77.8478,-0.0293867,0.0,0.0
10441,2610,39.4356,41.5447,137.732,104.974,106.004,,,,77.8278,-0.0883056,0.0,0.0