File: 01_Data/Oak_HWF/Cone/Oak_Flooring_Cone_HF75Scan_220526_R2.csv
Names,Time,Stack TC,Smoke TC,Exh Press,Smoke Comp,Smoke Meas,CO Meter,CO2 Meter,O2 Meter,Sample Mass,Ext Coeff,Start Test,Flame Verif
Chan Gain,,500,500,1,1,1,1,1,1,1,1,1.0,1.0
Offset,,0,0,0.137018,0,0,0,0,0,0,0,0.0,0.0
Gain,,1,1,25.011,13.1636,15.082,1,1,1,1.00086,1.04368,1.0,1.0
Units,sec,C,C,Pa,%,%,%,%,%,g,/m,,
Baseline,,47.6432,49.8646,136.37,99.3352,106.276,0.000679744,0.0434222,21.002,-449.786,-0.618292,,
11,2.5,44.4523,46.6788,133.624,98.5967,105.53,0.000493218,0.0457779,21.0045,206.789,-0.622166,0.0,0.0
22,5.25,44.0758,46.61,134.192,98.5931,104.946,0.000658684,0.0457359,21.0032,206.728,-0.571691,0.0,0.0
33,8,44.7808,47.0426,134.806,98.6092,105.272,0.000717732,0.0459953,21.0008,206.618,-0.598622,0.0,0.0
44,10.75,44.4459,46.677,133.723,98.6176,104.487,0.00127431,0.0467991,20.9962,206.528,-0.529256,0.0,0.0
55,13.5,44.8811,46.7796,127.244,98.6104,97.579,0.00389952,0.0572522,20.923,206.278,0.096258,0.0,1.0
66,16.25,47.1238,48.1935,118.923,98.622,82.2826,0.00997602,0.0984838,20.7245,205.678,1.65832,0.0,1.0
77,19,49.2901,48.9086,111.321,98.649,74.4889,0.0197939,0.191973,20.3589,204.797,2.57184,0.0,1.0
88,21.75,55.9214,53.6301,107.198,98.657,74.2698,0.0279737,0.326027,19.9249,203.776,2.59955,0.0,0.0
99,24.5,63.281,59.5596,108.892,98.6731,69.3436,0.0333751,0.463827,19.6699,202.895,3.22936,0.0,0.0
110,27.25,69.0484,66.1222,105.827,98.6723,75.2189,0.0340188,0.578559,19.5925,201.964,2.48472,0.0,0.0
121,30,73.436,71.0002,113.132,98.6851,85.1321,0.0294114,0.646255,19.7029,201.114,1.35249,0.0,0.0
132,32.75,76.1473,73.7874,112.172,98.7036,92.2956,0.022646,0.67354,19.8889,200.403,0.614533,0.0,0.0
143,35.5,77.0776,76.0511,114.981,98.6996,96.178,0.0172567,0.676554,20.0626,199.8125,0.236937,0.0,0.0
154,38.25,78.5986,78.0648,114.527,98.7096,97.2716,0.013773,0.667467,20.177,199.202,0.134357,0.0,0.0
165,41,79.1876,79.5219,122.384,98.6988,98.3389,0.0115597,0.652953,20.2672,198.591,0.0334387,0.0,0.0
176,43.75,79.9316,80.7455,117.092,98.6863,99.5991,0.010471,0.636715,20.3214,198.091,-0.084293,0.0,0.0
187,46.5,80.1557,81.3919,118.592,98.6731,99.2898,0.0101101,0.620162,20.3632,197.571,-0.0570479,0.0,0.0
198,49.25,80.967,81.9583,123.597,98.6775,99.5158,0.00984074,0.603465,20.396,197.11,-0.0774515,0.0,0.0
209,52,80.813,82.7165,109.915,98.6807,99.9047,0.00949476,0.588337,20.4211,196.61,-0.112863,0.0,0.0
220,54.75,80.8764,83.3255,115.531,98.6534,100.568,0.00925483,0.573475,20.4477,196.029,-0.175934,0.0,0.0
231,57.5,80.9253,83.6296,120.463,98.6357,100.435,0.00898915,0.559424,20.467,195.609,-0.165541,0.0,0.0
242,60.25,81.528,84.1797,118.688,98.6245,100.544,0.00872465,0.546527,20.4812,195.158,-0.176439,0.0,0.0
253,63,81.0809,84.3881,119.292,98.6076,100.541,0.00860288,0.535272,20.4947,194.738,-0.177754,0.0,0.0
264,65.75,80.7127,84.4511,117.148,98.6036,100.89,0.00852464,0.523605,20.5049,194.258,-0.209883,0.0,0.0
275,68.5,80.6315,84.3565,124.808,98.5807,101.023,0.00826297,0.512195,20.5175,193.787,-0.224072,0.0,0.0
286,71.25,80.636,85.1473,118.503,98.5566,100.796,0.00788652,0.503706,20.5217,193.397,-0.205723,0.0,0.0
297,74,80.3333,84.978,121.099,98.5425,101.46,0.00756099,0.496286,20.5268,193.027,-0.267115,0.0,0.0
308,76.75,80.3924,84.8963,117.906,98.5232,101.391,0.00743253,0.488089,20.5377,192.536,-0.262675,0.0,0.0
319,79.5,80.2614,85.0029,122.832,98.512,101.286,0.00751606,0.479593,20.5474,192.146,-0.254281,0.0,0.0
330,82.25,79.829,85.4461,120.324,98.4983,101.161,0.00747222,0.472066,20.5555,191.746,-0.244186,0.0,0.0
341,85,79.6982,85.0512,118.374,98.4911,101.409,0.00731772,0.463911,20.5671,191.305,-0.267282,0.0,0.0
352,87.75,79.4706,85.042,127.035,98.4762,101.887,0.0071015,0.456402,20.5784,190.955,-0.311736,0.0,0.0
363,90.5,79.0893,84.9878,120.849,98.4814,101.24,0.00683682,0.448856,20.5861,190.524,-0.252917,0.0,0.0
374,93.25,79.0161,84.7414,120.788,98.4593,102.386,0.00646781,0.442036,20.589,190.114,-0.358068,0.0,0.0
385,96,78.4759,84.7878,122.623,98.4573,102.456,0.00603138,0.43729,20.591,189.744,-0.364426,0.0,0.0
396,98.75,78.4812,84.6669,117.504,98.4601,102.166,0.00581126,0.432007,20.5949,189.373,-0.338258,0.0,0.0
407,101.5,78.4418,84.7639,123.084,98.4565,102.358,0.0058106,0.426555,20.5999,189.023,-0.355777,0.0,0.0
418,104.25,78.1658,84.614,121.675,98.4766,101.206,0.00591554,0.421196,20.6057,188.673,-0.250284,0.0,0.0
429,107,78.3148,83.9519,120.438,98.4473,101.952,0.00609213,0.415345,20.6128,188.323,-0.320295,0.0,0.0
440,109.75,77.8298,83.9655,124.39,98.4589,101.987,0.00614324,0.410037,20.6176,187.922,-0.322312,0.0,0.0
451,112.5,77.2091,83.8624,126.653,98.471,102.055,0.00603365,0.405185,20.623,187.562,-0.327304,0.0,0.0
462,115.25,77.1393,83.7192,120.998,98.473,101.594,0.00584502,0.400268,20.6268,187.212,-0.285694,0.0,0.0
473,118,77.0352,83.3556,121.933,98.4722,101.926,0.00574627,0.396075,20.6311,186.871,-0.315582,0.0,0.0
484,120.75,76.9012,83.4606,125.612,98.471,102.088,0.00578742,0.391814,20.6346,186.471,-0.330235,0.0,0.0
495,123.5,76.7782,83.4035,124.058,98.481,102.96,0.00583475,0.387412,20.6391,186.131,-0.407228,0.0,0.0
506,126.25,76.2384,82.9972,124.319,98.4959,103.064,0.00594973,0.383552,20.6418,185.78,-0.415091,0.0,0.0
517,129,76.3386,82.4242,125.083,98.5035,102.786,0.00594139,0.380634,20.6432,185.46,-0.389573,0.0,0.0
528,131.75,75.7126,82.3556,121.727,98.4995,102.879,0.00576781,0.376887,20.6501,185.08,-0.398305,0.0,0.0
539,134.5,75.9126,82.095,127.14,98.5184,103.281,0.00563574,0.37319,20.6538,184.729,-0.432197,0.0,0.0
550,137.25,75.6167,82.1012,120.788,98.5216,102.811,0.00541011,0.37054,20.654,184.409,-0.390187,0.0,0.0
561,140,75.4251,81.7352,125.478,98.5393,102.902,0.00531451,0.368417,20.6534,184.069,-0.396657,0.0,0.0
572,142.75,74.9647,81.8116,125.066,98.5465,102.606,0.00521437,0.36585,20.6559,183.729,-0.369534,0.0,0.0
583,145.5,75.2502,81.5178,122.961,98.5521,102.726,0.00502398,0.363623,20.657,183.388,-0.379725,0.0,0.0
594,148.25,74.8789,81.4662,123.098,98.5618,102.673,0.00486081,0.361923,20.6559,183.068,-0.37411,0.0,0.0
605,151,74.3208,81.1077,120.643,98.5734,103.008,0.00461898,0.360532,20.6564,182.708,-0.402858,0.0,0.0
616,153.75,74.8134,81.1706,119.753,98.5911,103.121,0.0044268,0.358899,20.659,182.447,-0.411274,0.0,0.0
627,156.5,74.5984,81.1667,125.89,98.6136,103.119,0.00432358,0.357332,20.6598,182.057,-0.409021,0.0,0.0
638,159.25,75.0105,81.765,122.126,98.6164,102.878,0.00408994,0.355234,20.6611,181.697,-0.387282,0.0,0.0
649,162,74.2366,81.0368,125.479,98.6293,103.236,0.00401178,0.353654,20.6614,181.437,-0.4179,0.0,0.0
660,164.75,74.4373,80.9075,120.736,98.6574,102.607,0.00411578,0.352337,20.6621,181.086,-0.359404,0.0,0.0
671,167.5,74.846,81.0624,122.607,98.6779,103.635,0.00423437,0.351226,20.6648,180.756,-0.448709,0.0,0.0
682,170.25,75.0175,81.2867,122.971,98.6839,103.24,0.00399537,0.349879,20.666,180.456,-0.413197,0.0,0.0
693,173,74.3673,80.9534,121.278,98.6863,103.525,0.00371714,0.348506,20.6682,180.126,-0.438204,0.0,0.0
704,175.75,74.584,80.8826,123.932,98.6827,103.103,0.00366599,0.347232,20.6689,179.835,-0.401179,0.0,0.0
715,178.5,74.6948,80.728,129.821,98.6895,103.482,0.00370359,0.345424,20.6729,179.435,-0.43416,0.0,0.0
726,181.25,74.7956,80.377,125.059,98.6871,103.494,0.00377749,0.34334,20.6767,179.145,-0.435401,0.0,0.0
737,184,74.3224,80.6651,125.783,98.6674,103.761,0.00385143,0.34134,20.678,178.824,-0.460853,0.0,0.0
748,186.75,74.3229,80.4148,127.893,98.6747,103.093,0.00377313,0.34031,20.6784,178.484,-0.401066,0.0,0.0
759,189.5,74.2116,79.9238,122.375,98.6719,103.595,0.00365273,0.339224,20.6779,178.194,-0.445771,0.0,0.0
770,192.25,73.7852,79.6178,124.836,98.6586,103.222,0.00369747,0.337919,20.6796,177.964,-0.413994,0.0,0.0
781,195,74.2,79.9209,125.422,98.6353,103.716,0.00378179,0.336381,20.6815,177.573,-0.459855,0.0,0.0
792,197.75,73.706,79.8744,125.219,98.6245,103.795,0.00390878,0.335605,20.6821,177.233,-0.467807,0.0,0.0
803,200.5,73.6067,79.3499,126.668,98.6285,103.663,0.00419099,0.334176,20.6861,176.933,-0.455774,0.0,0.0
814,203.25,73.5308,79.1245,122.673,98.6257,103.098,0.00414622,0.332608,20.6881,176.663,-0.405982,0.0,0.0
825,206,73.6101,79.6803,127.353,98.6421,104.077,0.00386798,0.331769,20.6873,176.322,-0.491018,0.0,0.0
836,208.75,73.6762,79.0425,129.779,98.6469,103.728,0.00378751,0.330769,20.6871,176.052,-0.459789,0.0,0.0
847,211.5,73.5435,79.3204,126.887,98.6381,103.769,0.00392137,0.330264,20.6856,175.722,-0.464224,0.0,0.0
858,214.25,73.3769,78.648,123.181,98.6538,103.875,0.00398209,0.330132,20.6829,175.411,-0.472186,0.0,0.0
869,217,73.6891,79.0334,124.95,98.655,103.84,0.00386785,0.32986,20.683,175.101,-0.46891,0.0,0.0
880,219.75,73.2806,78.8685,129.081,98.6907,103.517,0.00369981,0.328772,20.6853,174.781,-0.437142,0.0,0.0
891,222.5,73.2756,78.9588,119.833,98.6819,103.355,0.00368282,0.328222,20.686,174.411,-0.423622,0.0,0.0
902,225.25,73.8169,78.2931,124.495,98.7092,103.49,0.00375387,0.327954,20.6847,174.13,-0.433027,0.0,0.0
913,228,73.2469,78.4976,120.548,98.7245,103.386,0.00377802,0.327594,20.6843,173.83,-0.422363,0.0,0.0
924,230.75,73.326,78.2291,125.733,98.7397,103.499,0.00384389,0.327565,20.6832,173.58,-0.431009,0.0,0.0
935,233.5,73.179,78.8271,123.947,98.7518,103.853,0.00369341,0.327885,20.6822,173.23,-0.461147,0.0,0.0
946,236.25,73.1086,78.1614,124.016,98.743,104.296,0.00359334,0.327908,20.6825,172.879,-0.500876,0.0,0.0
957,239,73.2074,78.6092,126.356,98.7402,103.93,0.00373404,0.327876,20.6835,172.559,-0.46896,0.0,0.0
968,241.75,73.761,77.9468,125.227,98.753,103.435,0.00389989,0.327502,20.6861,172.269,-0.424078,0.0,0.0
979,244.5,73.1207,78.6281,125.484,98.7635,103.708,0.0039394,0.326722,20.6879,171.988,-0.447237,0.0,0.0
990,247.25,73.0814,78.4832,118.86,98.751,103.823,0.00392098,0.326465,20.6875,171.638,-0.458544,0.0,0.0
1001,250,73.305,78.7375,124.77,98.7345,104.085,0.00386343,0.326303,20.6854,171.318,-0.483134,0.0,0.0
1012,252.75,73.362,78.6419,119.595,98.7602,104.588,0.00377851,0.326756,20.683,171.008,-0.524934,0.0,0.0
1023,255.5,73.0643,78.1362,121.739,98.7598,104.35,0.00365453,0.327382,20.6821,170.657,-0.504037,0.0,0.0
1034,258.25,73.3909,78.6078,126.032,98.757,104.201,0.00368321,0.327552,20.6832,170.357,-0.491286,0.0,0.0
1045,261,73.4254,78.371,125.777,98.753,104.277,0.00386024,0.327653,20.6835,169.997,-0.498287,0.0,0.0
1056,263.75,73.3416,78.3679,122.61,98.7598,104.395,0.00384975,0.328366,20.681,169.717,-0.507994,0.0,0.0
1067,266.5,73.8127,78.2391,123.447,98.7827,104.442,0.00346809,0.329504,20.6799,169.396,-0.509987,0.0,0.0
1078,269.25,73.9371,78.7784,124.787,98.796,104.314,0.003416,0.330108,20.6796,169.116,-0.497536,0.0,0.0
1089,272,73.6831,78.218,122.923,98.7932,104.591,0.00364724,0.330339,20.6809,168.776,-0.522123,0.0,0.0
1100,274.75,73.5105,78.1789,121.753,98.794,103.648,0.00382287,0.330282,20.6821,168.475,-0.439123,0.0,0.0
1111,277.5,73.5064,78.4945,125.027,98.7972,104.09,0.00390659,0.329931,20.6829,168.095,-0.477811,0.0,0.0
1122,280.25,73.1664,78.7383,123.716,98.8104,104.21,0.00403196,0.330535,20.6808,167.775,-0.487103,0.0,0.0
1133,283,73.9175,78.0974,126.77,98.8534,103.938,0.00413015,0.332108,20.674,167.485,-0.459192,0.0,0.0
1144,285.75,73.7828,78.6182,124.863,98.8309,103.632,0.00401452,0.333218,20.6723,167.144,-0.434276,0.0,0.0
1155,288.5,73.7255,78.4158,124.33,98.8317,104.202,0.00388031,0.33369,20.6732,166.724,-0.484402,0.0,0.0
1166,291.25,73.9855,79.0526,124.109,98.8671,103.335,0.00392014,0.333955,20.6738,166.514,-0.404663,0.0,0.0
1177,294,73.8977,78.7243,124.969,98.8611,103.935,0.00387414,0.334154,20.674,166.183,-0.458242,0.0,0.0
1188,296.75,73.9084,78.4945,124.817,98.8968,104.1,0.00398466,0.334943,20.6735,165.923,-0.469434,0.0,0.0
1199,299.5,74.3317,78.7959,124.916,98.9036,103.735,0.00394729,0.335348,20.6734,165.583,-0.436647,0.0,0.0
1210,302.25,74.0674,78.3924,125.467,98.8972,104.211,0.00366444,0.335665,20.6733,165.283,-0.479188,0.0,0.0
1221,305,74.1791,78.9792,124.667,98.8984,103.54,0.00338577,0.335118,20.6745,164.892,-0.419931,0.0,0.0
1232,307.75,74.2453,79.0307,123.207,98.9157,103.736,0.00334681,0.335252,20.6756,164.642,-0.435571,0.0,0.0
1243,310.5,74.3614,78.8505,123.922,98.9314,103.939,0.00340684,0.334657,20.6759,164.302,-0.452099,0.0,0.0
1254,313.25,74.3646,78.8362,124.734,98.9113,104.241,0.00350467,0.334452,20.676,164.012,-0.480473,0.0,0.0
1265,316,74.2956,79.2467,124.125,98.9004,103.532,0.00369012,0.334037,20.6789,163.671,-0.419013,0.0,0.0
1276,318.75,74.3389,78.9234,122.43,98.9065,103.587,0.00390244,0.333257,20.68,163.381,-0.423297,0.0,0.0
1287,321.5,74.2419,79.0288,124.142,98.9097,104.191,0.00399989,0.332756,20.6799,163.131,-0.476215,0.0,0.0
1298,324.25,74.1238,78.9371,117.322,98.9109,104.108,0.00390492,0.332843,20.6773,162.76,-0.468861,0.0,0.0
1309,327,74.1931,79.1633,124.669,98.884,103.864,0.00377353,0.333129,20.6767,162.44,-0.449835,0.0,0.0
1320,329.75,74.272,78.9269,123.294,98.8679,103.932,0.00379321,0.332982,20.6764,162.12,-0.457325,0.0,0.0
1331,332.5,74.3343,78.8557,128.64,98.8836,104.575,0.00382238,0.333272,20.675,161.82,-0.5123,0.0,0.0
1342,335.25,74.2567,79.4278,125.841,98.902,103.926,0.00386275,0.333755,20.6733,161.489,-0.453597,0.0,0.0
1353,338,74.5067,79.2232,122.449,98.9137,104.298,0.00403596,0.334035,20.6724,161.149,-0.485262,0.0,0.0
1364,340.75,74.4014,78.9815,123.674,98.9249,104.263,0.00407013,0.333235,20.6764,160.839,-0.481149,0.0,0.0
1375,343.5,74.0766,78.8064,122.572,98.9414,103.673,0.00410702,0.332055,20.6795,160.529,-0.427706,0.0,0.0
1386,346.25,74.3559,79.1369,123.211,98.9591,103.948,0.00400323,0.33168,20.6808,160.238,-0.450264,0.0,0.0
1397,349,74.3267,79.0754,123.98,99.0113,104.251,0.00376702,0.330883,20.6811,159.928,-0.472068,0.0,0.0
1408,351.75,74.212,78.9651,125.228,99.0374,104.438,0.00351124,0.329971,20.6825,159.598,-0.486091,0.0,0.0
1419,354.5,74.3129,78.9532,123.103,99.0507,104.604,0.00343332,0.329642,20.6822,159.288,-0.499378,0.0,0.0
1430,357.25,74.4923,79.2248,119.676,99.0896,104.047,0.00330223,0.329854,20.681,158.987,-0.446904,0.0,0.0
1441,360,74.6448,78.9491,121.297,99.1125,104.684,0.00349865,0.32976,20.6815,158.707,-0.500709,0.0,0.0
1452,362.75,74.4406,79.3917,120.994,99.1383,104.827,0.00421382,0.329054,20.683,158.337,-0.510804,0.0,0.0
1463,365.5,74.5381,79.4627,124.029,99.1583,104.474,0.00418904,0.328063,20.6849,158.016,-0.478066,0.0,0.0
1474,368.25,74.1016,79.1452,124.757,99.2025,104.771,0.00360476,0.326602,20.6888,157.716,-0.500005,0.0,0.0
1485,371,74.348,78.9985,119.694,99.2624,104.833,0.00321177,0.325412,20.6913,157.416,-0.49987,0.0,0.0
1496,373.75,74.3409,79.1175,125.462,99.3166,104.988,0.00309076,0.323413,20.6954,157.126,-0.508406,0.0,0.0
1507,376.5,74.0352,78.7988,121.901,99.3636,104.956,0.0031672,0.32141,20.6993,156.835,-0.501264,0.0,0.0
1518,379.25,74.2393,78.9236,126.003,99.3861,104.789,0.00328579,0.319987,20.7006,156.505,-0.484647,0.0,0.0
1529,382,74.0573,78.7857,122.683,99.45,104.923,0.00328515,0.318872,20.7011,156.245,-0.490459,0.0,0.0
1540,384.75,74.3135,79.0212,127.072,99.5094,105.044,0.00313158,0.317882,20.7023,155.985,-0.495544,0.0,0.0
1551,387.5,73.7176,78.2745,122.793,99.5428,105.962,0.00300724,0.316424,20.7032,155.654,-0.572158,0.0,0.0
1562,390.25,73.9232,78.7191,124.482,99.5721,105.267,0.00318384,0.31551,20.7034,155.314,-0.509215,0.0,0.0
1573,393,73.9511,78.1648,123.737,99.6051,105.172,0.00338056,0.315018,20.7035,155.044,-0.497856,0.0,0.0
1584,395.75,73.6452,78.2622,122.354,99.6509,104.765,0.00348979,0.314413,20.7025,154.734,-0.458161,0.0,0.0
1595,398.5,74.0897,78.5717,121.657,99.6834,104.681,0.00355615,0.31418,20.7015,154.473,-0.447849,0.0,0.0
1606,401.25,73.6318,78.828,124.737,99.7147,105.421,0.00340388,0.313699,20.7005,154.193,-0.509471,0.0,0.0
1617,404,74.2741,78.6519,123.044,99.7095,105.456,0.00302283,0.313714,20.6992,153.843,-0.512949,0.0,0.0
1628,406.75,73.8558,78.7162,128.763,99.7296,105.701,0.00284396,0.313094,20.7002,153.543,-0.532377,0.0,0.0
1639,409.5,73.069,78.7935,125.749,99.7388,105.042,0.00291564,0.312819,20.6992,153.352,-0.474263,0.0,0.0
1650,412.25,73.476,78.2251,121.834,99.7645,105.571,0.0029748,0.31418,20.6948,153.032,-0.51792,0.0,0.0
1661,415,73.3854,78.0055,126.096,99.7822,105.337,0.0029345,0.315107,20.6929,152.632,-0.495959,0.0,0.0
1672,417.75,73.7702,78.5279,123.021,99.7601,105.451,0.00282819,0.315255,20.6936,152.392,-0.507942,0.0,0.0
1683,420.5,73.9823,78.4643,125.509,99.7573,105.081,0.00291209,0.315226,20.6959,152.071,-0.476016,0.0,0.0
1694,423.25,73.8003,78.6064,123.411,99.7593,105.191,0.00301896,0.314824,20.6971,151.811,-0.485412,0.0,0.0
1705,426,73.4578,78.6703,124.88,99.734,105.076,0.00301772,0.315037,20.6974,151.511,-0.477714,0.0,0.0
1716,428.75,73.8549,77.9366,127.038,99.693,105.411,0.00295136,0.314716,20.6989,151.15,-0.510585,0.0,0.0
1727,431.5,73.8899,77.8514,125.861,99.6537,105.252,0.00299521,0.314416,20.6996,150.9,-0.500359,0.0,0.0
1738,434.25,73.8454,78.4448,126.937,99.6183,105.252,0.00314047,0.314594,20.6984,150.65,-0.503607,0.0,0.0
1749,437,73.5138,78.0606,122.186,99.6051,105.349,0.003197,0.314647,20.6966,150.34,-0.513269,0.0,0.0
1760,439.75,73.4024,78.1178,123.929,99.5673,105.374,0.00312814,0.315428,20.6941,150.05,-0.5189,0.0,0.0
1771,442.5,73.5959,78.2789,126.467,99.5311,105.539,0.00306799,0.315665,20.6937,149.709,-0.53661,0.0,0.0
1782,445.25,73.641,78.4194,124.174,99.4902,105.313,0.00308801,0.315906,20.6936,149.409,-0.520755,0.0,0.0
1793,448,74.0172,78.2059,123.985,99.4588,105.049,0.00328138,0.316308,20.6936,149.129,-0.500602,0.0,0.0
1804,450.75,74.185,78.1771,121.098,99.4444,104.952,0.00347502,0.316596,20.695,148.859,-0.493466,0.0,0.0
1815,453.5,74.4862,78.2524,122.126,99.399,105.043,0.00345318,0.316441,20.6961,148.458,-0.505593,0.0,0.0
1826,456.25,73.9802,77.9754,125.626,99.3608,105.476,0.00322619,0.315606,20.6987,148.138,-0.546819,0.0,0.0
1837,459,73.5974,78.2189,123.561,99.3134,105.127,0.00302032,0.314965,20.6998,147.888,-0.520855,0.0,0.0
1848,461.75,73.6094,78.1855,125.205,99.2865,105.117,0.00302605,0.315363,20.6965,147.637,-0.522455,0.0,0.0
1859,464.5,74.0497,77.6841,126.026,99.2684,104.858,0.0031449,0.315556,20.6943,147.327,-0.501526,0.0,0.0
1870,467.25,73.9169,78.0191,125.393,99.2371,104.753,0.00397932,0.316214,20.6934,147.007,-0.495249,0.0,0.0
1881,470,74.0038,78.5972,119.379,99.368,104.905,0.00545371,0.317391,20.6887,146.496,-0.496399,0.0,0.0
1892,472.75,74.3346,78.4074,121.189,99.5785,105.277,0.00520732,0.318379,20.6884,146.186,-0.509424,0.0,0.0
1903,475.5,74.2749,78.7466,125.318,99.7248,105.631,0.00435657,0.317834,20.6915,145.956,-0.526798,0.0,0.0
1914,478.25,74.6654,78.8994,125.405,99.867,105.877,0.00358474,0.317286,20.6925,145.596,-0.534989,0.0,0.0
1925,481,74.249,78.8057,121.941,99.9586,105.493,0.00332111,0.316707,20.6943,145.365,-0.493384,0.0,0.0
1936,483.75,74.4923,78.7688,121.679,100.028,105.705,0.00326217,0.316313,20.695,145.005,-0.505417,0.0,0.0
1947,486.5,74.5275,79.0401,121.901,100.069,105.979,0.00297542,0.316304,20.6937,144.735,-0.525318,0.0,0.0
1958,489.25,74.4037,78.865,122.644,100.099,106.045,0.00291455,0.316426,20.6947,144.415,-0.528283,0.0,0.0
1969,492,74.6207,78.7418,121.257,100.114,106.241,0.0030913,0.315889,20.6963,144.154,-0.543872,0.0,0.0
1980,494.75,74.2499,78.421,124.687,100.118,106.497,0.00315781,0.315766,20.6972,143.834,-0.565492,0.0,0.0
1991,497.5,74.5709,78.45,120.087,100.088,105.852,0.00301557,0.316609,20.6949,143.554,-0.512644,0.0,0.0
2002,500.25,74.3016,78.9888,123.789,100.076,105.819,0.00286187,0.317278,20.6936,143.224,-0.510847,0.0,0.0
2013,503,74.7765,78.943,124.507,100.061,106.111,0.00271432,0.317761,20.6922,142.983,-0.537494,0.0,0.0
2024,505.75,74.5657,79.0137,127.203,100.039,105.966,0.00268484,0.318821,20.6912,142.613,-0.526961,0.0,0.0
2035,508.5,74.7936,79.0158,125.478,100.011,105.957,0.00277594,0.3196,20.6883,142.353,-0.5287,0.0,0.0
2046,511.25,74.7067,79.1195,123.972,99.9666,105.79,0.00285129,0.320879,20.6856,141.963,-0.518376,0.0,0.0
2057,514,74.5534,79.2376,124.241,99.9252,105.642,0.00287722,0.322242,20.6835,141.812,-0.509331,0.0,0.0
2068,516.75,74.581,78.8751,122.28,99.9068,105.379,0.00276346,0.324257,20.6811,141.462,-0.48818,0.0,0.0
2079,519.5,74.7637,79.2557,125.654,99.8232,105.223,0.00265708,0.325877,20.6789,141.162,-0.482275,0.0,0.0
2090,522.25,74.7451,79.111,123.317,99.7641,105.303,0.00259404,0.32741,20.6777,140.882,-0.494698,0.0,0.0
2101,525,74.7262,79.4924,122.107,99.7115,105.335,0.00260914,0.32977,20.6735,140.451,-0.50225,0.0,0.0
2112,527.75,74.8898,79.4888,123.629,99.6384,105.025,0.00284828,0.331692,20.6712,140.181,-0.482003,0.0,0.0
2123,530.5,74.8107,79.464,122.026,99.6006,105.016,0.00361827,0.333531,20.6689,139.751,-0.48471,0.0,0.0
2134,533.25,75.366,79.9429,120.062,99.6147,105.017,0.00429463,0.334898,20.6682,139.39,-0.483498,0.0,0.0
2145,536,75.6873,80.0075,120.68,99.644,104.893,0.00409585,0.335941,20.6662,139.08,-0.469964,0.0,0.0
2156,538.75,75.8456,80.1951,129.763,99.6673,105.076,0.00355334,0.33835,20.663,138.8,-0.483797,0.0,0.0
2167,541.5,76.4499,80.3725,120.537,99.7103,105.144,0.00316562,0.340347,20.6608,138.48,-0.485823,0.0,0.0
2178,544.25,76.5829,80.7226,124.081,99.7252,105.477,0.00301226,0.34141,20.6616,138.129,-0.513387,0.0,0.0
2189,547,76.1823,80.5537,120.495,99.7453,105.26,0.00299248,0.342247,20.6617,137.779,-0.492668,0.0,0.0
2200,549.75,76.097,80.8511,122.333,99.7541,105.221,0.00317166,0.34317,20.6591,137.449,-0.488494,0.0,0.0
2211,552.5,76.3551,80.294,123.846,99.8023,105.425,0.0031221,0.344427,20.658,137.168,-0.501794,0.0,0.0
2222,555.25,76.4471,81.1836,126.518,99.8316,105.549,0.00289541,0.346065,20.6559,136.928,-0.50989,0.0,0.0
2233,558,76.5716,81.2245,120.145,99.8497,105.358,0.00292433,0.347846,20.6525,136.538,-0.49165,0.0,0.0
2244,560.75,76.7706,81.1419,123.125,99.8995,105.687,0.00282603,0.349158,20.651,136.218,-0.515555,0.0,0.0
2255,563.5,76.8856,81.2246,120.829,99.912,105.866,0.00257497,0.350399,20.6518,135.887,-0.52991,0.0,0.0
2266,566.25,77.4406,81.4761,123.931,99.9758,105.758,0.00243438,0.351182,20.6508,135.567,-0.514781,0.0,0.0
2277,569,77.0786,81.6684,125.589,100.004,105.692,0.00237995,0.353051,20.6476,135.307,-0.506427,0.0,0.0
2288,571.75,77.2281,81.5393,120.609,100.032,105.671,0.00231278,0.354443,20.6441,134.886,-0.502062,0.0,0.0
2299,574.5,77.3275,81.5272,121.035,100.055,105.41,0.00239332,0.35679,20.64,134.506,-0.477328,0.0,0.0
2310,577.25,77.7839,81.6596,122.994,100.079,105.311,0.00251714,0.358475,20.6372,134.226,-0.466518,0.0,0.0
2321,580,77.5823,81.5562,122.415,100.121,105.502,0.00257017,0.360458,20.6361,133.936,-0.479251,0.0,0.0
2332,582.75,78.1746,81.7761,126.885,100.149,105.684,0.00263641,0.362033,20.6354,133.605,-0.492559,0.0,0.0
2343,585.5,77.8351,81.9014,125.897,100.181,105.621,0.00274913,0.363707,20.6353,133.205,-0.484158,0.0,0.0
2354,588.25,78.1366,82.3583,124.412,100.216,105.867,0.00278778,0.364596,20.6356,132.855,-0.50213,0.0,0.0
2365,591,77.9308,82.1026,120.352,100.265,105.745,0.00267042,0.364693,20.637,132.494,-0.487177,0.0,0.0
2376,593.75,78.0806,82.5194,124.071,100.302,105.871,0.00271313,0.365187,20.6358,132.194,-0.494678,0.0,0.0
2387,596.5,78.479,82.7404,123.069,100.327,105.661,0.00271542,0.367656,20.6286,131.794,-0.474198,0.0,0.0
2398,599.25,78.356,82.679,122.162,100.344,105.791,0.00253109,0.369999,20.6255,131.534,-0.483934,0.0,0.0
2409,602,78.7915,82.8476,118.067,100.371,105.199,0.00251936,0.371361,20.6245,131.183,-0.430152,0.0,0.0
2420,604.75,79.0586,83.3523,117.492,100.384,105.876,0.00274872,0.372767,20.6242,130.883,-0.487635,0.0,0.0
2431,607.5,79.1467,83.0532,121.801,100.402,105.788,0.00294978,0.373531,20.6254,130.473,-0.478419,0.0,0.0
2442,610.25,78.7408,82.9685,123.668,100.405,105.269,0.00302945,0.37449,20.6239,130.132,-0.433084,0.0,0.0
2453,613,78.8808,83.3578,122.108,100.421,106.203,0.00291309,0.375827,20.6224,129.822,-0.512516,0.0,0.0
2464,615.75,78.6965,83.6017,120.187,100.429,105.948,0.0028261,0.376617,20.621,129.472,-0.48978,0.0,0.0
2475,618.5,78.9566,83.3529,120.401,100.442,105.676,0.00301251,0.378109,20.617,129.182,-0.465035,0.0,0.0
2486,621.25,79.1504,83.5863,118.994,100.418,105.841,0.00296892,0.380281,20.6129,128.771,-0.481497,0.0,0.0
2497,624,79.2171,83.5621,120.956,100.396,105.878,0.00276342,0.382464,20.611,128.401,-0.486772,0.0,0.0
2508,626.75,79.2133,83.6596,120.4,100.379,105.956,0.00256607,0.383763,20.6098,128.001,-0.495034,0.0,0.0
2519,629.5,79.0539,84.1088,119.696,100.353,105.631,0.00242044,0.385052,20.6072,127.66,-0.469262,0.0,0.0
2530,632.25,79.6706,84.2108,116.064,100.343,105.294,0.00249333,0.387702,20.6009,127.36,-0.440851,0.0,0.0
2541,635,79.5115,84.4696,118.031,100.308,105.171,0.00262618,0.390201,20.5972,127.04,-0.433463,0.0,0.0
2552,637.75,79.7729,84.1385,122.936,100.283,104.926,0.00264609,0.391871,20.5962,126.619,-0.414319,0.0,0.0
2563,640.5,80.266,84.6964,119.998,100.266,105.4,0.00274728,0.393347,20.597,126.249,-0.457131,0.0,0.0
2574,643.25,79.9271,85.0731,119.427,100.245,105.179,0.00271165,0.394319,20.5964,125.909,-0.439902,0.0,0.0
2585,646,80.2171,84.8117,117.884,100.234,104.846,0.00264998,0.395331,20.5949,125.618,-0.411882,0.0,0.0
2596,648.75,80.5994,85.0343,117.214,100.22,104.891,0.0027849,0.397315,20.5928,125.238,-0.417064,0.0,0.0
2607,651.5,80.9851,85.7663,120.011,100.199,104.937,0.00275764,0.399386,20.5902,124.808,-0.422951,0.0,0.0
2618,654.25,80.4407,85.876,121.033,100.184,105.26,0.00266981,0.399896,20.5923,124.427,-0.452569,0.0,0.0
2629,657,80.904,85.2818,123.641,100.156,105.059,0.00268859,0.400277,20.593,124.107,-0.437515,0.0,0.0
2640,659.75,80.9935,85.8143,120.525,100.143,104.316,0.00282414,0.401875,20.5923,123.667,-0.373801,0.0,0.0
2651,662.5,81.1828,85.6443,118.857,100.111,104.885,0.00269424,0.400357,20.596,123.336,-0.426491,0.0,0.0
2662,665.25,80.8006,85.7504,119.366,100.066,104.575,0.00259874,0.400242,20.59,122.956,-0.403493,0.0,0.0
2673,668,80.952,85.9415,118.066,100.027,104.72,0.00268176,0.40438,20.5785,122.686,-0.419779,0.0,0.0
2684,670.75,81.3561,86.2005,117.101,100.006,104.477,0.00265761,0.408308,20.5736,122.336,-0.400384,0.0,0.0
2695,673.5,81.5149,86.5237,117.032,99.9614,104.757,0.00264115,0.409836,20.5739,121.935,-0.428992,0.0,0.0
2706,676.25,81.3913,86.5938,121.594,99.9072,104.236,0.00265599,0.410079,20.5791,121.635,-0.388313,0.0,0.0
2717,679,81.9659,86.7988,121.632,99.8573,104.877,0.00255043,0.409286,20.5839,121.205,-0.449019,0.0,0.0
2728,681.75,81.5878,86.7023,119.024,99.8043,104.136,0.00254766,0.408489,20.5865,120.904,-0.388965,0.0,0.0
2739,684.5,81.8688,86.5697,117.719,99.7316,104.632,0.00275042,0.408561,20.5854,120.574,-0.439114,0.0,0.0
2750,687.25,81.5185,86.3748,120.054,99.6348,104.594,0.00281931,0.409756,20.5842,120.194,-0.444744,0.0,0.0
2761,690,81.4178,86.5337,121.359,99.554,103.886,0.00272612,0.409456,20.5852,119.883,-0.389912,0.0,0.0
2772,692.75,81.9134,86.5645,122.903,99.4821,104.166,0.00271819,0.408754,20.5877,119.373,-0.421197,0.0,0.0
2783,695.5,81.2529,86.8147,119.063,99.4006,104.462,0.0027856,0.407611,20.5904,119.123,-0.454719,0.0,0.0
2794,698.25,81.8909,86.8677,122.755,99.311,103.847,0.00280743,0.407079,20.5913,118.743,-0.408923,0.0,0.0
2805,701,81.5315,86.5741,121.804,99.2266,103.897,0.00264517,0.408022,20.5888,118.422,-0.421045,0.0,0.0
2816,703.75,81.8332,86.7014,118.287,99.1447,104.175,0.00259054,0.408089,20.5885,117.982,-0.453072,0.0,0.0
2827,706.5,82.0287,86.6388,125.483,99.0672,103.758,0.00259469,0.407738,20.5889,117.682,-0.423555,0.0,0.0
2838,709.25,82.0489,87.0023,118.504,98.9876,103.682,0.00261012,0.408794,20.5851,117.291,-0.424205,0.0,0.0
2849,712,82.0967,87.2864,124.75,98.9089,104.113,0.0027194,0.408283,20.5873,116.931,-0.469492,0.0,0.0
2860,714.75,82.0821,86.8375,117.815,98.8337,103.639,0.00265649,0.407523,20.5882,116.521,-0.434626,0.0,0.0
2871,717.5,82.0525,87.0572,119.245,98.7863,103.539,0.00252371,0.408633,20.5847,116.26,-0.43019,0.0,0.0
2882,720.25,82.1938,86.6601,119.55,98.7426,104.055,0.00237228,0.410017,20.5812,115.94,-0.479758,0.0,0.0
2893,723,81.9555,87.1055,118.685,98.6875,104.02,0.00224851,0.409954,20.5813,115.57,-0.481744,0.0,0.0
2904,725.75,81.9217,87.4752,118.302,98.6313,103.288,0.00227064,0.410466,20.5811,115.189,-0.422366,0.0,0.0
2915,728.5,82.3583,87.105,120.546,98.5859,103.572,0.00245326,0.411554,20.5798,114.839,-0.451717,0.0,0.0
2926,731.25,82.287,87.2669,121.172,98.555,103.269,0.002531,0.411532,20.5813,114.529,-0.427739,0.0,0.0
2937,734,81.914,87.0977,120.862,98.5284,103.462,0.0024764,0.411142,20.583,114.279,-0.447324,0.0,0.0
2948,736.75,81.7634,87.2229,119.131,98.5156,103.336,0.002721,0.41125,20.5808,113.798,-0.437352,0.0,0.0
2959,739.5,81.8037,87.3175,119.645,98.4766,103.055,0.00283859,0.411677,20.5796,113.388,-0.416066,0.0,0.0
2970,742.25,82.5334,87.041,119.615,98.4863,103.331,0.00273014,0.413019,20.5783,113.068,-0.439671,0.0,0.0
2981,745,82.5824,87.3072,122.66,98.4903,103.062,0.00281672,0.413253,20.5781,112.687,-0.415369,0.0,0.0
2992,747.75,82.5936,87.5414,121.288,98.5188,103.596,0.00292473,0.413613,20.578,112.377,-0.460064,0.0,0.0
3003,750.5,82.7082,87.6913,118.559,98.5513,103.641,0.00297281,0.414242,20.578,112.117,-0.460986,0.0,0.0
3014,753.25,82.9379,88.1002,122.006,98.5943,103.37,0.00300936,0.413844,20.5792,111.756,-0.433015,0.0,0.0
3025,756,82.6074,87.4877,126.06,98.6473,103.782,0.00293909,0.413281,20.58,111.326,-0.464545,0.0,0.0
3036,758.75,82.5173,87.631,120.56,98.7169,102.998,0.00275851,0.412904,20.5795,111.036,-0.388688,0.0,0.0
3047,761.5,82.8002,87.594,118.383,98.8193,103.59,0.00267976,0.414665,20.5726,110.666,-0.431654,0.0,0.0
3058,764.25,82.7261,87.4789,117.335,98.8908,103.174,0.00265862,0.416456,20.5699,110.285,-0.388226,0.0,0.0
3069,767,82.7871,87.7028,120.292,98.9667,103.343,0.00268859,0.417035,20.5691,109.935,-0.396176,0.0,0.0
3080,769.75,82.8364,87.6905,121.821,99.035,103.574,0.00273077,0.416872,20.5704,109.515,-0.410266,0.0,0.0
3091,772.5,82.941,87.8685,117.867,99.0965,103.242,0.00275133,0.417161,20.5699,109.194,-0.375166,0.0,0.0
3102,775.25,83.0011,88.1854,117.637,99.1676,104.06,0.00277828,0.418528,20.5675,108.944,-0.440881,0.0,0.0
3113,778,83.3373,88.246,122.603,99.2045,103.742,0.00282653,0.419705,20.5651,108.564,-0.409446,0.0,0.0
3124,780.75,83.2494,88.4075,116.651,99.2499,103.339,0.00280436,0.420179,20.5646,108.203,-0.369648,0.0,0.0
3135,783.5,83.0324,88.409,116.648,99.2981,103.764,0.0027612,0.419682,20.5658,107.813,-0.402761,0.0,0.0
3146,786.25,83.2164,88.2205,117.825,99.3359,104.065,0.00275586,0.42056,20.565,107.493,-0.42576,0.0,0.0
3157,789,83.3038,88.0686,118.642,99.3664,103.947,0.00274696,0.421107,20.564,107.153,-0.412615,0.0,0.0
3168,791.75,83.3302,88.6248,121.604,99.3801,104.044,0.00274003,0.421349,20.5649,106.772,-0.419866,0.0,0.0
3179,794.5,83.5234,88.3985,119.69,99.4171,103.661,0.00271666,0.421118,20.5655,106.422,-0.382663,0.0,0.0
3190,797.25,83.3806,88.1353,120.863,99.4472,103.688,0.00290991,0.421483,20.5625,106.092,-0.382327,0.0,0.0
3201,800,83.4496,88.6666,119.38,99.4914,103.324,0.00318939,0.422766,20.5583,105.801,-0.346017,0.0,0.0
3212,802.75,83.5606,88.3432,120.126,99.5155,103.951,0.00307594,0.423431,20.5594,105.401,-0.399218,0.0,0.0
3223,805.5,83.4372,88.3416,118.712,99.5452,103.809,0.00311368,0.422627,20.5624,104.971,-0.38395,0.0,0.0
3234,808.25,83.3208,88.5978,117.906,99.593,103.954,0.00310781,0.421298,20.5657,104.68,-0.392331,0.0,0.0
3245,811,83.2128,88.7129,122.129,99.6155,104.133,0.00293733,0.419812,20.5685,104.38,-0.406018,0.0,0.0
3256,813.75,83.4974,88.5632,117.861,99.6509,103.556,0.00271989,0.420299,20.5657,104.05,-0.351966,0.0,0.0
3267,816.5,83.6786,88.2397,118.28,99.6545,103.806,0.00264942,0.42234,20.5604,103.629,-0.373703,0.0,0.0
3278,819.25,83.6943,88.5533,123.282,99.6653,103.406,0.00268076,0.421179,20.5635,103.329,-0.337322,0.0,0.0
3289,822,83.7084,88.5322,120.917,99.677,103.408,0.00268368,0.420957,20.5636,102.999,-0.336415,0.0,0.0
3300,824.75,83.3378,88.8806,118.173,99.7035,103.884,0.00275211,0.420752,20.5634,102.639,-0.376059,0.0,0.0
3311,827.5,83.6432,88.6445,118.514,99.7135,103.562,0.00306041,0.419555,20.5661,102.308,-0.346699,0.0,0.0
3322,830.25,83.3478,88.2492,122.936,99.7187,103.385,0.00315381,0.418595,20.5668,102.018,-0.330541,0.0,0.0
3333,833,83.3595,88.9918,126.486,99.7288,103.826,0.00303563,0.41727,20.5687,101.698,-0.368623,0.0,0.0
3344,835.75,83.0849,88.2282,119.795,99.7465,103.209,0.00301814,0.417054,20.5695,101.307,-0.312414,0.0,0.0
3355,838.5,83.7385,88.4376,120.929,99.7698,103.207,0.00299349,0.416062,20.5701,100.997,-0.310071,0.0,0.0
3366,841.25,83.2651,88.523,121.562,99.7597,103.063,0.00300325,0.414966,20.5716,100.677,-0.298245,0.0,0.0
3377,844,83.5964,88.9045,121.932,99.7553,103.11,0.00302611,0.414709,20.5721,100.337,-0.302779,0.0,0.0
3388,846.75,83.5048,88.6426,117.965,99.7569,103.469,0.00307583,0.414226,20.5696,100.026,-0.334453,0.0,0.0
3399,849.5,83.4655,88.6325,117.191,99.7525,103.048,0.00304672,0.413914,20.5682,99.676,-0.29756,0.0,0.0
3410,852.25,83.5736,88.6556,119.915,99.7549,102.751,0.00310331,0.413851,20.5698,99.3958,-0.270925,0.0,0.0
3421,855,83.5077,88.7629,124.406,99.7344,102.607,0.00299269,0.412083,20.5726,99.0355,-0.260001,0.0,0.0
3432,857.75,83.4551,88.4974,122.021,99.7123,103.221,0.00294009,0.411666,20.5724,98.6952,-0.316609,0.0,0.0
3443,860.5,83.4113,88.621,119.962,99.7099,103.387,0.00296622,0.411285,20.5723,98.3649,-0.331515,0.0,0.0
3454,863.25,83.1097,88.3602,124.29,99.6926,103.415,0.00310542,0.410245,20.5743,98.0546,-0.335628,0.0,0.0
3465,866,83.7532,88.2791,120.391,99.685,102.869,0.00316516,0.408321,20.578,97.8244,-0.287835,0.0,0.0
3476,868.75,83.1314,88.7841,120.337,99.6565,103.15,0.0031016,0.407637,20.5783,97.4942,-0.315448,0.0,0.0
3487,871.5,83.247,88.4579,120.308,99.6348,102.932,0.00330091,0.406875,20.578,97.1639,-0.298058,0.0,0.0
3498,874.25,83.0439,88.538,118.571,99.6288,102.579,0.00345193,0.40586,20.5779,96.8136,-0.2672,0.0,0.0
3509,877,82.9294,88.3794,120.197,99.5982,102.569,0.00337867,0.405219,20.5783,96.6334,-0.269061,0.0,0.0
3520,879.75,83.3459,88.2179,120.372,99.5765,102.373,0.00316832,0.402599,20.5824,96.3232,-0.253538,0.0,0.0
3531,882.5,82.9623,88.085,120.159,99.5428,102.983,0.00303182,0.400876,20.5833,95.9929,-0.311058,0.0,0.0
3542,885.25,82.7419,88.1154,117.496,99.5235,101.808,0.00291524,0.400812,20.5821,95.6326,-0.207769,0.0,0.0
3553,888,82.5479,87.6117,118.174,99.5127,101.997,0.00282532,0.399312,20.5826,95.3423,-0.225763,0.0,0.0
3564,890.75,82.272,87.9505,121.787,99.507,101.933,0.00305839,0.396863,20.5868,95.0821,-0.220495,0.0,0.0
3575,893.5,82.5743,87.8626,124.411,99.499,102.115,0.00327436,0.394411,20.5912,94.7618,-0.237589,0.0,0.0
3586,896.25,82.268,87.7205,120.426,99.4793,101.802,0.00337726,0.392557,20.5925,94.4816,-0.211256,0.0,0.0
3597,899,82.2822,87.5996,121.201,99.4645,102.048,0.00330577,0.390053,20.5941,94.2514,-0.234741,0.0,0.0
3608,901.75,81.8397,87.2464,121.503,99.4673,101.91,0.00323966,0.387028,20.6002,93.9511,-0.222087,0.0,0.0
3619,904.5,81.5619,87.0286,123.733,99.4524,101.508,0.00338272,0.383528,20.6047,93.6809,-0.187287,0.0,0.0
3630,907.25,81.3807,86.8575,124.34,99.4604,101.507,0.00351754,0.380154,20.6085,93.4407,-0.186465,0.0,0.0
3641,910,81.4187,86.5258,123.255,99.4424,101.571,0.00359984,0.377249,20.6117,93.1204,-0.193896,0.0,0.0
3652,912.75,81.7707,86.3322,127.223,99.4275,101.768,0.00369192,0.373096,20.6176,92.9002,-0.213004,0.0,0.0
3663,915.5,80.903,86.2842,120.75,99.4359,101.578,0.0037365,0.368907,20.624,92.63,-0.195153,0.0,0.0
3674,918.25,81.0362,86.0301,129.5,99.4323,101.955,0.00366663,0.362928,20.6344,92.4298,-0.229397,0.0,0.0
3685,921,80.7744,86.0293,124.34,99.4215,102.166,0.00349149,0.356413,20.6445,92.1295,-0.249263,0.0,0.0
3696,923.75,80.0177,85.8576,122.878,99.4211,102.298,0.00345173,0.34879,20.6569,91.9694,-0.261171,0.0,0.0
3707,926.5,80.1065,85.3112,124.076,99.4319,102.439,0.00355697,0.339056,20.6705,91.7492,-0.27281,0.0,0.0
3718,929.25,79.5527,85.278,123.745,99.4331,102.768,0.00331391,0.326875,20.6915,91.6591,-0.301981,0.0,0.0
3729,932,78.8848,84.2755,122.178,99.4355,103.509,0.00321504,0.31327,20.7189,91.529,-0.367537,0.0,0.0
3740,934.75,77.957,83.9181,130.568,99.4315,104.316,0.0032224,0.298305,20.7426,91.3088,-0.439035,0.0,0.0
3751,937.5,77.2503,82.8916,126.624,99.4359,104.81,0.00320247,0.283393,20.7647,91.1787,-0.481869,0.0,0.0
3762,940.25,76.492,82.1831,124.937,99.4444,104.771,0.00311557,0.270106,20.7797,91.1587,-0.477674,0.0,0.0
3773,943,75.2794,81.5412,125.349,99.4528,105.011,0.0030293,0.258255,20.7915,91.1587,-0.497907,0.0,0.0
3784,945.75,75.0917,80.5411,126.203,99.4436,105.159,0.0030077,0.247496,20.799,90.9285,-0.51163,0.0,0.0
3795,948.5,73.8476,80.1847,127.434,99.4263,105.491,0.00309851,0.238493,20.805,90.8284,-0.542105,0.0,0.0
3806,951.25,73.3091,79.1391,129.95,99.4319,105.605,0.00316476,0.229952,20.8102,90.8084,-0.551409,0.0,0.0
3817,954,73.1199,78.6304,129.313,99.4303,106.157,0.00322654,0.221648,20.815,90.7784,-0.599354,0.0,0.0
3828,956.75,72.7096,77.9739,127.718,99.4106,106.02,0.00351029,0.215458,20.8181,90.6382,-0.58933,0.0,0.0
3839,959.5,71.7788,77.5731,128.982,99.3873,106.001,0.00386308,0.209553,20.8224,90.5081,-0.589806,0.0,0.0
3850,962.25,71.2166,76.8559,126.157,99.3708,106.05,0.00385907,0.203811,20.8271,90.4081,-0.595577,0.0,0.0
3861,965,71.0527,75.9941,128.423,99.3668,106.331,0.00352254,0.198508,20.8318,90.328,-0.620152,0.0,0.0
3872,967.75,69.7747,75.3831,129.568,99.3496,106.335,0.00344921,0.193405,20.8336,90.308,-0.6221,0.0,0.0
3883,970.5,69.8713,74.7448,130.918,99.3307,106.512,0.00352578,0.189731,20.835,90.1979,-0.639045,0.0,0.0
3894,973.25,69.2455,74.6536,126.847,99.3355,106.552,0.00345723,0.185809,20.8386,90.1278,-0.642042,0.0,0.0
3905,976,68.8901,74.0243,127.887,99.3198,106.531,0.00321946,0.182255,20.8412,90.0277,-0.641706,0.0,0.0
3916,978.75,68.7403,73.8073,129.75,99.2989,106.55,0.00303483,0.179029,20.8434,90.0177,-0.645254,0.0,0.0
3927,981.5,68.3299,73.3108,126.353,99.2985,106.267,0.00308659,0.176244,20.8441,89.9877,-0.620936,0.0,0.0
3938,984.25,67.8838,72.4381,132.09,99.2841,106.804,0.00332886,0.174074,20.8463,89.8576,-0.668388,0.0,0.0
3949,987,67.5478,72.2993,127.499,99.264,106.676,0.0034372,0.171558,20.8498,89.6974,-0.659266,0.0,0.0
3960,989.75,67.2193,71.8215,130.979,99.2608,106.61,0.00329263,0.169393,20.8509,89.7675,-0.653912,0.0,0.0
3971,992.5,66.6701,71.5137,129.123,99.2624,106.636,0.00318154,0.167276,20.8513,89.7375,-0.655977,0.0,0.0
3982,995.25,66.6986,71.2017,131.976,99.2592,106.695,0.0031583,0.165663,20.8514,89.6374,-0.661331,0.0,0.0
3993,998,65.9815,70.575,128.842,99.2403,106.195,0.0033368,0.163789,20.8524,89.5673,-0.62012,0.0,0.0
4004,1000.75,65.8048,69.9052,129.4,99.2315,106.716,0.00346299,0.162095,20.8542,89.5073,-0.665744,0.0,0.0
4015,1003.5,65.6997,70.3774,130.966,99.2367,106.5,0.00339631,0.160278,20.8565,89.4172,-0.646724,0.0,0.0
4026,1006.25,65.205,69.5603,129.885,99.2274,106.662,0.00345972,0.158759,20.8573,89.4672,-0.661453,0.0,0.0
4037,1009,64.9217,69.2261,130.057,99.2379,106.129,0.00365783,0.157639,20.8584,89.3371,-0.614627,0.0,0.0
4048,1011.75,64.8727,69.0317,129.222,99.2274,106.376,0.00373601,0.156197,20.8596,89.247,-0.636887,0.0,0.0
4059,1014.5,64.5744,68.841,129.92,99.229,106.435,0.00371692,0.154411,20.8607,89.2971,-0.641809,0.0,0.0
4070,1017.25,64.4868,68.2453,127.666,99.2351,106.83,0.00368982,0.153367,20.8619,89.177,-0.675158,0.0,0.0
4081,1020,64.1181,67.9095,132.95,99.2491,106.525,0.00368204,0.152364,20.8619,89.1369,-0.647672,0.0,0.0
4092,1022.75,63.6732,68.0236,131.5,99.268,106.75,0.00362617,0.15151,20.8621,89.0569,-0.665253,0.0,0.0
4103,1025.5,63.6949,67.7455,129.111,99.2556,106.627,0.00362204,0.150418,20.8631,88.9868,-0.655856,0.0,0.0
4114,1028.25,63.4497,67.4844,128.966,99.2773,106.805,0.00367754,0.149405,20.8648,88.9168,-0.669097,0.0,0.0
4125,1031,63.3453,67.3083,127.45,99.2817,106.753,0.00374524,0.148423,20.8653,88.9368,-0.664231,0.0,0.0
4136,1033.75,63.2505,67.1254,129.499,99.2909,106.81,0.00387204,0.14771,20.8659,88.8467,-0.668272,0.0,0.0
4147,1036.5,63.3966,66.9098,131.164,99.2756,106.289,0.00389781,0.147026,20.8671,88.7766,-0.624951,0.0,0.0
4158,1039.25,62.8348,66.75,130.887,99.2813,106.536,0.00378468,0.146349,20.8682,88.7466,-0.645697,0.0,0.0
4169,1042,62.4519,65.8842,132.634,99.2885,106.7,0.00375729,0.145718,20.8679,88.7366,-0.659061,0.0,0.0
4180,1044.75,62.6726,65.7973,130.318,99.2873,106.468,0.00387044,0.145092,20.8683,88.6766,-0.639286,0.0,0.0
4191,1047.5,62.2648,65.7209,130.955,99.2724,106.952,0.00386212,0.144184,20.8698,88.6766,-0.682198,0.0,0.0
4202,1050.25,62.3352,65.8867,131.222,99.2463,106.614,0.0037329,0.143383,20.8707,88.6065,-0.655563,0.0,0.0
4213,1053,62.1636,65.5374,129.758,99.2443,106.816,0.00373995,0.143002,20.8714,88.4664,-0.673122,0.0,0.0
4224,1055.75,61.9614,65.1326,127.92,99.2254,106.794,0.00374512,0.142304,20.8728,88.3963,-0.67301,0.0,0.0
4235,1058.5,61.8581,64.4956,131.848,99.2254,106.984,0.00382814,0.141465,20.873,88.4864,-0.689212,0.0,0.0
4246,1061.25,61.8689,64.9314,132.305,99.2041,106.876,0.00398744,0.141407,20.8717,88.3763,-0.681994,0.0,0.0
4257,1064,61.5355,64.7,128.374,99.1836,106.495,0.00404084,0.140737,20.8728,88.3262,-0.651183,0.0,0.0
4268,1066.75,61.1445,64.5744,130.127,99.1788,107.093,0.00400308,0.140081,20.8724,88.2362,-0.702882,0.0,0.0
4279,1069.5,61.105,64.1656,128.261,99.2367,106.677,0.00402679,0.139428,20.8722,88.2662,-0.661865,0.0,0.0
4290,1072.25,61.4292,63.992,130.199,99.3118,106.754,0.0041513,0.139132,20.8729,88.1961,-0.661611,0.0,0.0
4301,1075,61.0725,64.0978,131.193,99.3929,106.866,0.00423857,0.138758,20.8738,88.1361,-0.66368,0.0,0.0
4312,1077.75,60.9203,63.4426,130.648,99.4628,106.978,0.00420506,0.138006,20.8736,88.1061,-0.66686,0.0,0.0
4323,1080.5,60.8216,63.6281,130.844,99.5444,107.075,0.00407228,0.138001,20.8736,87.9659,-0.667665,0.0,0.0
4334,1083.25,60.7673,63.6872,132.829,99.6348,107.316,0.00395936,0.137786,20.8748,88.016,-0.679914,0.0,0.0
4345,1086,60.6632,63.3169,131.934,99.7408,107.293,0.00419323,0.13721,20.8758,87.996,-0.66825,0.0,0.0
4356,1088.75,60.7293,63.5713,129.123,99.8123,107.523,0.0044689,0.137038,20.8768,87.9459,-0.681225,0.0,0.0
4367,1091.5,60.0025,62.9397,128.954,99.9112,107.361,0.00441204,0.136594,20.8777,87.9359,-0.658399,0.0,0.0
4378,1094.25,60.4062,63.2472,132.284,99.9859,107.653,0.00424914,0.136268,20.8779,87.8458,-0.676406,0.0,0.0
4389,1097,60.5348,63.277,128.488,100.033,107.778,0.0041872,0.135618,20.878,87.8158,-0.682667,0.0,0.0
4400,1099.75,60.1302,62.1456,130.498,100.059,108.098,0.00428331,0.135224,20.878,87.7458,-0.707523,0.0,0.0
4411,1102.5,60.2123,62.5618,129.446,100.076,107.617,0.00446948,0.135294,20.878,87.6757,-0.665156,0.0,0.0
4422,1105.25,60.0372,62.6418,129.337,100.076,107.756,0.00471169,0.135174,20.8794,87.6457,-0.676934,0.0,0.0
4433,1108,59.8991,62.7452,129.4,100.074,107.638,0.00475511,0.134994,20.8798,87.6557,-0.667101,0.0,0.0
4444,1110.75,60.0136,62.5754,130.748,100.071,107.424,0.00464557,0.134736,20.8796,87.6757,-0.649097,0.0,0.0
4455,1113.5,59.9899,62.1542,127.241,100.048,107.741,0.00471332,0.134198,20.8808,87.4955,-0.678255,0.0,0.0
4466,1116.25,59.5919,62.2838,132.175,100.035,107.802,0.00463694,0.133315,20.8831,87.5356,-0.68459,0.0,0.0
4477,1119,59.497,62.404,129.897,100.002,107.83,0.00452039,0.132847,20.8842,87.4255,-0.68999,0.0,0.0
4488,1121.75,59.0793,61.7586,130.593,99.9726,107.34,0.0046085,0.133338,20.8833,87.5055,-0.650963,0.0,0.0
4499,1124.5,58.8093,62.2122,129.652,99.9401,107.83,0.00484674,0.133527,20.883,87.4355,-0.695658,0.0,0.0
4510,1127.25,58.7064,61.9652,131.146,99.8569,107.611,0.00502376,0.133231,20.8834,87.3654,-0.684619,0.0,0.0
4521,1130,59.1168,61.7225,126.947,99.7794,107.431,0.00503852,0.132524,20.8856,87.3054,-0.676406,0.0,0.0
4532,1132.75,59.3585,61.6502,130.097,99.7151,107.458,0.00504699,0.132165,20.887,87.2253,-0.68462,0.0,0.0
4543,1135.5,59.3523,61.6351,130.726,99.6826,107.217,0.00508258,0.132226,20.8846,87.3454,-0.667076,0.0,0.0
4554,1138.25,59.1877,61.7447,129.513,99.6175,107.408,0.0050663,0.132348,20.8836,87.1953,-0.68939,0.0,0.0
4565,1141,59.1327,61.5293,129.433,99.5693,106.977,0.0050273,0.13197,20.884,87.1853,-0.656987,0.0,0.0
4576,1143.75,58.9072,61.4174,132.964,99.5601,107.342,0.00502807,0.131643,20.885,87.1352,-0.68902,0.0,0.0
4587,1146.5,59.1391,61.4753,134.462,99.5729,107.232,0.00492832,0.131291,20.8853,87.1152,-0.678411,0.0,0.0
4598,1149.25,58.93,61.181,128.986,99.5986,106.982,0.00485628,0.131149,20.8854,87.1152,-0.654726,0.0,0.0
4609,1152,58.7811,61.2489,127.521,99.6135,107.094,0.0049878,0.130896,20.887,87.0051,-0.662924,0.0,0.0
4620,1154.75,58.7311,61.3388,133.598,99.6179,107.464,0.00520285,0.130431,20.8875,86.9751,-0.69406,0.0,0.0
4631,1157.5,58.6507,60.8166,132.138,99.6304,107.066,0.00540382,0.130162,20.8882,86.9851,-0.659014,0.0,0.0
4642,1160.25,58.5858,60.8697,132.164,99.6408,107.339,0.00552518,0.130405,20.8881,86.915,-0.681362,0.0,0.0
4653,1163,58.8623,60.6433,130.729,99.6557,107.248,0.00552071,0.130385,20.8886,86.885,-0.672221,0.0,0.0
4664,1165.75,58.6203,60.6699,132.165,99.6464,107.205,0.00548864,0.130228,20.8891,86.7749,-0.669336,0.0,0.0
4675,1168.5,58.3324,60.2142,134.023,99.6597,107.419,0.00537532,0.129947,20.8893,86.7649,-0.686417,0.0,0.0
4686,1171.25,58.5917,60.9168,132.685,99.685,107.204,0.00530343,0.129663,20.8894,86.7449,-0.665755,0.0,0.0
4697,1174,57.9684,60.6375,135.098,99.7055,107.501,0.00542769,0.129472,20.8894,86.825,-0.68919,0.0,0.0
4708,1176.75,58.4144,60.4685,130.555,99.7304,107.495,0.00545596,0.129184,20.89,86.7649,-0.686433,0.0,0.0
4719,1179.5,57.994,60.8416,131.268,99.7493,107.353,0.00558159,0.128748,20.8911,86.7549,-0.67254,0.0,0.0
4730,1182.25,58.1272,60.8123,132.163,99.738,107.711,0.00576047,0.128635,20.8913,86.6448,-0.70406,0.0,0.0
4741,1185,57.786,60.3612,131.041,99.773,107.482,0.00574453,0.128581,20.8899,86.6448,-0.681348,0.0,0.0
4752,1187.75,57.9454,60.0752,131.582,99.7529,107.831,0.00569859,0.12857,20.8893,86.6248,-0.7129,0.0,0.0
4763,1190.5,58.1601,60.4356,132.596,99.7593,107.591,0.00569553,0.128682,20.8905,86.5247,-0.691889,0.0,0.0
4774,1193.25,57.8627,60.0811,130.639,99.7549,107.433,0.00570257,0.128392,20.8911,86.5247,-0.678891,0.0,0.0
4785,1196,58.0575,60.1961,130.935,99.7477,107.226,0.00559979,0.12837,20.8924,86.4446,-0.661848,0.0,0.0
4796,1198.75,57.2395,60.1914,132.033,99.7581,107.474,0.00568581,0.128444,20.8917,86.4546,-0.682047,0.0,0.0
4807,1201.5,57.8066,60.4512,132.396,99.7481,107.637,0.00578522,0.128386,20.8915,86.4546,-0.696876,0.0,0.0
4818,1204.25,57.6306,60.4492,131.885,99.7461,107.36,0.00572028,0.127868,20.8917,86.3846,-0.673423,0.0,0.0
4829,1207,55.9784,58.0894,128.047,99.7509,107.256,0.00555941,0.127722,20.8919,86.3345,-0.664106,0.0,0.0
4840,1209.75,55.5035,58.1592,130.197,99.7589,107.414,0.00543013,0.127529,20.892,86.2545,-0.676913,0.0,0.0
4851,1212.5,55.4835,58.0874,131.274,99.7734,107.386,0.0054559,0.12741,20.893,86.2845,-0.673193,0.0,0.0
4862,1215.25,55.7863,58.0878,130.158,99.7549,107.435,0.00549682,0.127371,20.8933,86.2345,-0.679008,0.0,0.0
4873,1218,55.6808,58.267,129.236,99.7565,107.629,0.00567795,0.127225,20.8934,86.2044,-0.695397,0.0,0.0
4884,1220.75,55.8803,57.8264,130.826,99.7617,107.512,0.00588326,0.127089,20.8935,86.1143,-0.685008,0.0,0.0
4895,1223.5,55.9541,58.0667,133.622,99.7541,107.458,0.00584397,0.126836,20.8937,86.0343,-0.681082,0.0,0.0
4906,1226.25,55.4643,57.8459,132.364,99.7549,107.201,0.00581958,0.127011,20.8944,86.0843,-0.659062,0.0,0.0
4917,1229,55.5776,58.167,132.911,99.7376,107.372,0.00590926,0.12701,20.8951,85.9842,-0.675218,0.0,0.0
4928,1231.75,55.9347,57.8145,129.049,99.7264,107.486,0.00602787,0.12721,20.8953,86.0042,-0.686018,0.0,0.0
4939,1234.5,55.816,58.122,129.835,99.7091,107.117,0.00628896,0.127346,20.8953,85.9842,-0.65607,0.0,0.0
4950,1237.25,55.6012,57.9973,133.411,99.7011,107.272,0.00631785,0.127333,20.8954,85.9442,-0.670094,0.0,0.0
4961,1240,56.0056,58.186,130.857,99.6979,107.211,0.00631584,0.127212,20.8963,85.9442,-0.665203,0.0,0.0
4972,1242.75,56.1425,58.4554,130.133,99.6689,107.467,0.00634098,0.127076,20.8973,85.9142,-0.689647,0.0,0.0
4983,1245.5,55.6851,57.6963,129.633,99.628,107.205,0.00618904,0.126923,20.8975,85.8341,-0.671074,0.0,0.0
4994,1248.25,55.4886,58.0825,132.68,99.601,107.065,0.00592905,0.12699,20.8976,85.8241,-0.661551,0.0,0.0
5005,1251,55.7022,57.9198,132.15,99.593,107.078,0.00585603,0.126865,20.8977,85.8741,-0.663431,0.0,0.0
5016,1253.75,55.7504,57.7601,134.825,99.581,107.118,0.0061042,0.126721,20.8977,85.774,-0.667961,0.0,0.0
5027,1256.5,55.6012,57.9812,131.42,99.5564,107.279,0.00616652,0.126507,20.8992,85.744,-0.683933,0.0,0.0
5038,1259.25,55.549,58.1283,130.424,99.5524,107.327,0.00596142,0.125996,20.9014,85.714,-0.688426,0.0,0.0
5049,1262,55.7588,57.86,131.007,99.6083,107.678,0.00599111,0.126011,20.9005,85.684,-0.7132,0.0,0.0
5060,1264.75,55.1501,58.0087,127.946,99.6954,107.65,0.00614626,0.126183,20.8986,85.754,-0.702765,0.0,0.0
5071,1267.5,55.3036,58.1442,132.812,99.7432,107.437,0.00618117,0.12609,20.898,85.5839,-0.680313,0.0,0.0
5082,1270.25,55.2684,57.5826,132.427,99.7915,107.514,0.00630218,0.125858,20.8994,85.5438,-0.682436,0.0,0.0
5093,1273,55.1984,57.5805,129.213,99.8577,107.885,0.00650367,0.125646,20.8993,85.5438,-0.707853,0.0,0.0
5104,1275.75,54.9946,57.4934,131.053,99.9108,107.846,0.00669921,0.126056,20.8981,85.5639,-0.699712,0.0,0.0
5115,1278.5,55.205,57.3215,127.273,99.9485,107.698,0.00673683,0.126265,20.8971,85.5238,-0.683701,0.0,0.0
5126,1281.25,54.6065,56.877,130.41,99.9634,107.446,0.00650337,0.126306,20.8974,85.4638,-0.660835,0.0,0.0
5137,1284,55.0166,57.3517,129.111,99.9999,107.975,0.0063126,0.12626,20.8985,85.4237,-0.702438,0.0,0.0
5148,1286.75,54.4689,56.7927,134.253,100.013,107.716,0.00628431,0.125951,20.8987,85.3937,-0.679342,0.0,0.0
5159,1289.5,54.2838,57.2425,127.153,100.035,107.846,0.0063013,0.12588,20.8983,85.4338,-0.688306,0.0,0.0
5170,1292.25,54.6013,57.0785,132.254,100.059,107.883,0.00643276,0.125681,20.8986,85.3637,-0.689266,0.0,0.0
5181,1295,54.6771,57.2161,131.28,100.035,108,0.00642546,0.125754,20.8988,85.2236,-0.701349,0.0,0.0
5192,1297.75,54.4618,57.0057,136.355,100.026,107.977,0.00638436,0.125805,20.8995,85.2736,-0.700245,0.0,0.0
5203,1300.5,54.62,56.9351,131.722,100.027,107.961,0.00654023,0.125711,20.8995,85.1835,-0.698767,0.0,0.0
5214,1303.25,54.8649,57.4746,129.097,100.024,107.466,0.00671335,0.125978,20.8981,85.2336,-0.657045,0.0,0.0
5225,1306,55.0305,56.7178,131.089,99.9955,107.937,0.0067361,0.126153,20.898,85.1835,-0.699642,0.0,0.0
5236,1308.75,54.6749,57.0474,133.983,99.9513,107.688,0.00676474,0.126056,20.8988,85.1335,-0.682583,0.0,0.0
5247,1311.5,54.0321,57.0988,131.003,99.9039,107.689,0.00680677,0.12602,20.8989,85.0634,-0.687004,0.0,0.0
5258,1314.25,54.5836,56.7732,135.447,99.8429,107.555,,0.125724,,85.1135,-0.681169,0.0,0.0
5269,1317,54.7602,57.0055,128.368,99.8059,107.254,,0.125737,,85.0734,-0.6589,0.0,0.0
5280,1319.75,54.6735,56.7095,133.335,99.7424,106.984,,,,84.9834,-0.641633,0.0,0.0
5291,1322.5,54.2208,56.9096,128.174,99.6613,107.547,,,,84.8933,-0.697206,0.0,0.0
5301,1325,54.4268,57.1551,136.417,99.5898,107.439,,,,84.9533,-0.694527,0.0,0.0