File: 01_Data/Oak_HWF/Cone/Oak_Flooring_Cone_HF25Scan_220914_R4.csv
Names,Time,Stack TC,Smoke TC,Exh Press,Smoke Comp,Smoke Meas,CO Meter,CO2 Meter,O2 Meter,Sample Mass,Ext Coeff,Start Test,Flame Verif
Chan Gain,,500,500,1,1,1,1,1,1,1,1,1.0,1.0
Offset,,0,0,0.139139,0,0,0,0,0,0,0,0.0,0.0
Gain,,1,1,25.011,13.0826,14.7555,1,1,1,1.00088,1.03743,1.0,1.0
Units,sec,C,C,Pa,%,%,%,%,%,g,/m,,
Baseline,,39.9733,40.5004,151.103,99.3924,103.804,0.000426454,0.0505686,20.9957,-447.348,-0.395154,,
15,3.5,36.8063,37.4678,149.699,99.2863,102.592,0.000126169,0.0524757,20.9947,235.187,-0.298049,0.0,0.0
30,7.25,36.6563,37.6037,151.394,99.488,102.864,0.00033628,0.0521133,20.9961,235.247,-0.303683,0.0,0.0
45,11,36.7552,37.4806,155.069,99.6521,102.934,0.000613701,0.0515144,20.9968,235.217,-0.294897,0.0,0.0
60,14.75,36.852,37.8038,153.91,99.8249,103.057,0.000633739,0.0510741,20.9976,235.207,-0.289986,0.0,0.0
75,18.5,36.7513,37.5725,151.318,99.9723,103.624,0.000379071,0.050802,20.9971,235.127,-0.326451,0.0,0.0
90,22.25,37.0672,37.6906,153.816,100.1,103.499,4.65798e-05,0.0504617,20.9968,235.157,-0.303868,0.0,0.0
105,26,37.2467,37.9521,152.378,100.209,103.795,0.000175022,0.0505388,20.9964,235.157,-0.319903,0.0,0.0
120,29.75,37.2453,37.8017,149.818,100.265,103.449,0.00025199,0.0505861,20.9963,235.157,-0.284529,0.0,0.0
135,33.5,37.108,37.4988,149.882,100.304,103.516,0.00029017,0.0505162,20.9963,235.087,-0.286843,0.0,0.0
150,37.25,37.1973,37.7492,150.187,100.311,103.526,0.0002944,0.0504157,20.9963,235.007,-0.287137,0.0,0.0
165,41,37.1626,37.5594,152.5,100.285,103.722,0.000204952,0.0503413,20.9963,235.007,-0.306659,0.0,0.0
180,44.75,36.7979,37.7528,148.858,100.263,104.284,0.000155675,0.0502994,20.996,235.027,-0.357896,0.0,0.0
195,48.5,37.2181,37.8414,152.328,100.187,103.428,0.000366889,0.0502717,20.9954,235.007,-0.2897,0.0,0.0
210,52.25,37.2751,37.9075,149.504,100.12,103.75,0.000350733,0.0503158,20.9953,234.987,-0.324156,0.0,0.0
225,56,37.5963,37.8866,153.283,100.038,103.539,0.000422379,0.0505721,20.9953,234.877,-0.313055,0.0,0.0
240,59.75,37.5535,37.9502,156.193,99.9387,103.178,0.000307211,0.0506471,20.9953,234.877,-0.290309,0.0,0.0
255,63.5,37.3789,38.0446,151.402,99.8389,103.101,0.000158497,0.0504396,20.9966,234.857,-0.292568,0.0,0.0
270,67.25,36.7323,37.8605,148.03,99.7143,103.505,0.000138519,0.050411,20.9974,234.867,-0.339552,0.0,0.0
285,71,37.0154,37.8318,150.589,99.6046,102.397,0.000190554,0.050432,20.9981,234.827,-0.251659,0.0,0.0
300,74.75,37.3661,38.3813,149.948,99.4992,102.624,0.000241329,0.0503904,20.9969,234.707,-0.281401,0.0,0.0
315,78.5,37.4084,38.0316,151.959,99.462,102.778,0.000450405,0.0502854,20.9977,234.697,-0.298484,0.0,0.0
330,82.25,37.4586,37.9116,152.003,99.6477,102.447,0.000488734,0.0505177,20.998,234.717,-0.25212,0.0,0.0
345,86,37.4679,37.857,154.557,99.7902,102.702,0.000207008,0.050483,20.9962,234.647,-0.261765,0.0,0.0
360,89.75,37.7514,38.1146,149.546,99.8681,103.233,-9.00121e-05,0.050761,20.9958,234.557,-0.30155,0.0,0.0
375,93.5,37.4947,38.2516,151.759,99.9136,103.238,0.000130557,0.0507822,20.996,234.486,-0.29788,0.0,0.0
390,97.25,37.5567,38.312,150.312,99.9196,102.928,0.000267463,0.0507547,20.9961,234.456,-0.269985,0.0,0.0
405,101,37.4362,37.7144,151.96,99.8784,102.92,0.000318951,0.0506819,20.995,234.477,-0.273014,0.0,0.0
420,104.75,37.909,37.9196,151.245,99.8154,103.361,4.52068e-05,0.0508984,20.9957,234.416,-0.31762,0.0,0.0
435,108.5,37.5064,38.2116,153.425,99.7132,102.702,0.000250485,0.0509465,20.9975,234.336,-0.268755,0.0,0.0
450,112.25,37.7196,38.3927,152.143,99.6125,102.918,9.12368e-05,0.0511308,20.9967,234.266,-0.297115,0.0,0.0
465,116,38.022,38.2621,155.587,99.45,102.725,-1.13891e-05,0.0513117,20.9969,234.246,-0.294834,0.0,0.0
480,119.75,37.7283,38.3332,152.337,99.3075,102.121,0.000310475,0.0515937,20.9969,234.216,-0.254233,0.0,0.0
495,123.5,37.7039,38.6521,152.608,99.131,102.278,0.000536264,0.0516704,20.9969,234.156,-0.284412,0.0,0.0
510,127.25,37.8603,38.2114,153.669,99.0935,102.064,0.000629807,0.0517176,20.9969,234.126,-0.268806,0.0,0.0
525,131,37.6469,38.4918,152.048,99.1286,101.743,0.000451512,0.0521743,20.9969,234.026,-0.236909,0.0,0.0
540,134.75,37.8374,38.2979,152.825,99.1905,102.006,0.000525394,0.0524479,20.9955,233.956,-0.254721,0.0,0.0
555,138.5,37.9606,38.1627,149.726,99.2568,101.593,0.000775322,0.0526798,20.9961,233.926,-0.211688,0.0,0.0
570,142.25,37.9073,38.4498,146.983,99.3095,102.061,0.000917638,0.0526623,20.9972,233.876,-0.248671,0.0,0.0
585,146,37.882,38.7373,150.796,99.375,101.956,0.000837667,0.0531152,20.9975,233.806,-0.233353,0.0,0.0
600,149.75,37.8501,38.4411,150.267,99.482,101.736,0.00086075,0.0535449,20.9976,233.666,-0.203884,0.0,0.0
615,153.5,37.8513,38.6171,149.426,99.571,101.877,0.00101442,0.0535566,20.9976,233.606,-0.208383,0.0,0.0
630,157.25,37.6918,38.6719,151.147,99.6497,101.604,0.000887542,0.0537867,20.9976,233.556,-0.176789,0.0,0.0
645,161,37.9014,38.731,148.529,99.688,101.831,0.000851246,0.0539592,20.9969,233.486,-0.193513,0.0,0.0
660,164.75,37.9886,38.7618,155.123,99.7016,102.123,0.00111615,0.05412,20.9964,233.416,-0.218395,0.0,0.0
675,168.5,37.7916,38.7352,153.606,99.6864,101.399,0.00102322,0.0543731,20.9974,233.335,-0.155025,0.0,0.0
690,172.25,38.1941,39.1251,152.635,99.6221,101.581,0.00110456,0.0549478,20.9979,233.175,-0.177249,0.0,0.0
705,176,37.8993,38.5238,152.679,99.5503,101.274,0.00133281,0.0551257,20.998,233.125,-0.156261,0.0,0.0
720,179.75,38.4834,38.6657,147.127,99.4417,101.22,0.00135118,0.0553182,20.9987,233.105,-0.161337,0.0,0.0
735,183.5,38.0102,39.2648,153.285,99.3175,100.468,0.00152018,0.055462,20.9977,233.005,-0.104845,0.0,0.0
750,187.25,38.335,38.7679,147.717,99.2017,100.654,0.00182946,0.0558818,20.9979,232.825,-0.132249,0.0,0.0
765,191,38.0314,38.92,153.415,99.0767,100.432,0.00193748,0.0561145,20.9972,232.725,-0.123626,0.0,0.0
780,194.75,38.6559,38.9779,152.87,98.959,100.064,0.00210377,0.0565035,20.9961,232.655,-0.101013,0.0,0.0
795,198.5,38.0722,38.8287,154.136,98.8512,99.9667,0.00214925,0.0568071,20.9958,232.555,-0.102123,0.0,0.0
810,202.25,38.2645,38.9359,153.258,98.719,99.8451,0.00231242,0.0568582,20.9958,232.465,-0.103222,0.0,0.0
825,206,38.1958,39.1755,150.73,98.61,99.3475,0.0023904,0.0574151,20.9956,232.335,-0.0678093,0.0,0.0
840,209.75,38.4672,38.9274,150.08,98.5218,100.053,0.00208854,0.0576221,20.9935,232.204,-0.140364,0.0,0.0
855,213.5,37.9251,39.0461,153.249,98.4755,99.3322,0.00221409,0.0582693,20.993,232.124,-0.078833,0.0,0.0
870,217.25,38.4749,38.5508,151.949,98.4683,98.5915,0.00260854,0.0586249,20.9926,232.004,-0.0113789,0.0,0.0
885,221,38.0805,38.9448,151.007,98.4894,98.7905,0.00259645,0.0592874,20.992,231.854,-0.0277763,0.0,0.0
900,224.75,38.0484,38.9629,150.844,98.5645,99.298,0.00266438,0.0597685,20.9911,231.704,-0.0674727,0.0,0.0
915,228.5,37.984,38.9091,151.775,98.6264,100.257,0.00273728,0.0604289,20.9899,231.574,-0.149201,0.0,0.0
930,232.25,38.2193,39.2732,148.951,98.7334,98.7878,0.00289623,0.0618251,20.9856,231.534,-0.00501551,0.0,0.0
945,236,38.5984,39.1391,144.214,98.8204,102.259,0.00295132,0.0852537,20.9233,231.244,-0.311289,0.0,1.0
960,239.75,39.3173,38.5256,134.215,98.9182,98.9193,0.00337703,0.180752,20.7362,230.843,-9.76361e-05,0.0,1.0
975,243.5,43.4276,41.3004,129.281,99.0061,98.1727,0.00426923,0.301242,20.5732,230.223,0.0769243,0.0,1.0
990,247.25,47.4791,44.1095,131.305,99.0552,98.9211,0.00455793,0.388545,20.4844,229.542,0.0123263,0.0,0.0
1005,251,51.1616,47.3477,128.802,99.1011,99.1805,0.00453509,0.446188,20.4487,228.942,-0.00728653,0.0,0.0
1020,254.75,54.0671,49.9214,131.471,99.1255,99.6128,0.00442104,0.4696,20.4586,228.341,-0.0446295,0.0,0.0
1035,258.5,56.4342,52.3198,132.012,99.1398,100.103,0.00416114,0.470803,20.4872,227.761,-0.0879994,0.0,0.0
1050,262.25,57.9935,54.4696,134.301,99.1334,100.114,0.0040152,0.462121,20.514,227.23,-0.0896093,0.0,0.0
1065,266,59.493,56.3557,135.237,99.1334,100.2,0.00390735,0.448255,20.5461,226.65,-0.0973829,0.0,0.0
1080,269.75,60.174,57.5384,139.655,99.1434,100.794,0.0038434,0.433001,20.5676,226.199,-0.15025,0.0,0.0
1095,273.5,60.8759,58.3924,140.039,99.1398,100.314,0.00383075,0.419538,20.5891,225.729,-0.107138,0.0,0.0
1110,277.25,61.2338,59.6263,138.475,99.1318,100.85,0.00376045,0.408557,20.5989,225.238,-0.156353,0.0,0.0
1125,281,61.581,60.3874,141.847,99.1231,101.59,0.00373002,0.398259,20.6123,224.738,-0.223758,0.0,0.0
1140,284.75,61.903,61.0872,139.146,99.0903,101.147,0.00354135,0.387982,20.626,224.227,-0.186986,0.0,0.0
1155,288.5,61.4922,61.6661,136.405,99.0895,101.343,0.00325901,0.376616,20.6411,223.797,-0.204666,0.0,0.0
1170,292.25,61.8628,62.0381,133.716,99.0751,101.677,0.00312054,0.365748,20.653,223.377,-0.235858,0.0,0.0
1185,296,61.8255,62.669,139.311,99.0404,102.565,0.00298293,0.356169,20.6647,222.916,-0.318182,0.0,0.0
1200,299.75,61.3138,62.4902,140.988,99.032,101.583,0.0029121,0.346642,20.6774,222.486,-0.231433,0.0,0.0
1215,303.5,60.9763,62.4634,137.74,99.0161,102.493,0.00251505,0.337263,20.6885,221.985,-0.314065,0.0,0.0
1230,307.25,61.1136,63.025,138.12,99.0105,102.182,0.00240467,0.330091,20.6966,221.675,-0.28695,0.0,0.0
1245,311,60.9181,62.9811,139.142,98.9773,102.506,0.00266084,0.322526,20.7063,221.245,-0.318744,0.0,0.0
1260,314.75,60.5825,63.1286,144.019,98.9558,102.838,0.00290118,0.314379,20.7166,220.865,-0.350183,0.0,0.0
1275,318.5,60.0468,63.0524,137.925,98.9222,102.823,0.00286164,0.307023,20.7244,220.464,-0.351913,0.0,0.0
1290,322.25,60.0217,62.5124,142.012,98.8823,103.001,0.00269291,0.299154,20.7347,220.004,-0.371394,0.0,0.0
1305,326,59.5392,62.7124,142.419,98.8436,102.599,0.00290391,0.292714,20.7396,219.703,-0.339362,0.0,0.0
1320,329.75,59.2303,62.4785,137.424,98.7869,101.908,0.00292015,0.287298,20.7448,219.333,-0.283027,0.0,0.0
1335,333.5,59.0608,61.9455,142.809,98.7206,103.144,0.00285588,0.283239,20.7496,218.963,-0.398891,0.0,0.0
1350,337.25,58.8445,62.0181,140.402,98.6599,102.763,0.00275467,0.279586,20.753,218.603,-0.370813,0.0,0.0
1365,341,58.6249,62.1048,139.491,98.5952,102.656,0.00273432,0.275346,20.7567,218.162,-0.367285,0.0,0.0
1380,344.75,57.9591,61.8109,139.627,98.5453,102.625,0.00276665,0.271463,20.7594,217.872,-0.369138,0.0,0.0
1395,348.5,58.0061,61.4715,144.72,98.5158,102.423,0.00279582,0.268116,20.7627,217.532,-0.35396,0.0,0.0
1410,352.25,57.9046,61.2425,139.009,98.5062,102.821,0.00274025,0.264643,20.7655,217.171,-0.390105,0.0,0.0
1425,356,57.5708,61.3526,137.024,98.5018,102.548,0.00284297,0.261778,20.7686,216.801,-0.366367,0.0,0.0
1440,359.75,57.5593,60.9769,142.518,98.5142,102.706,0.00303491,0.258761,20.7724,216.401,-0.379239,0.0,0.0
1455,363.5,57.2014,60.7672,140.637,98.5641,103.034,0.00275814,0.255392,20.7754,216.14,-0.40363,0.0,0.0
1470,367.25,56.9191,60.3339,142.579,98.6328,102.815,0.00275011,0.252022,20.7791,215.81,-0.377943,0.0,0.0
1485,371,56.7476,60.2882,140.794,98.7406,102.702,0.00260972,0.248729,20.7848,215.46,-0.357992,0.0,0.0
1500,374.75,56.2431,60.105,141.625,98.8516,102.691,0.00253978,0.245036,20.7902,215.149,-0.346811,0.0,0.0
1515,378.5,55.9424,60.146,142.29,98.9777,103.109,0.00254807,0.241767,20.7932,214.749,-0.372161,0.0,0.0
1530,382.25,55.8245,59.3915,144.545,99.1286,102.663,0.00280662,0.239765,20.7952,214.479,-0.318825,0.0,0.0
1545,386,55.7867,59.7199,139.721,99.2616,102.973,0.00300546,0.237426,20.7989,214.219,-0.334048,0.0,0.0
1560,389.75,55.8096,59.1072,141.393,99.391,103.334,0.00285856,0.23476,20.8021,213.878,-0.354057,0.0,0.0
1575,393.5,55.04,59.3777,145.684,99.5175,104.121,0.00278385,0.232469,20.8046,213.528,-0.411533,0.0,0.0
1590,397.25,55.1767,58.9423,143.472,99.6161,104.045,0.00280543,0.229796,20.807,213.148,-0.395866,0.0,0.0
1605,401,54.8948,58.7805,143.977,99.7004,104.196,0.00290005,0.228235,20.8078,212.928,-0.401398,0.0,0.0
1620,404.75,54.8317,58.2245,143.067,99.7419,104.119,0.00278466,0.227506,20.8066,212.617,-0.390841,0.0,0.0
1635,408.5,54.7201,58.1222,143.358,99.7423,103.774,0.00263145,0.229237,20.8019,212.327,-0.360567,0.0,0.0
1650,412.25,54.9921,58.4918,144.705,99.6988,103.394,0.00254544,0.232083,20.798,211.997,-0.331228,0.0,0.0
1665,416,54.8783,58.0533,145.604,99.6038,103.573,0.00259637,0.233545,20.7991,211.576,-0.355588,0.0,0.0
1680,419.75,55.0693,57.928,144.819,99.4924,104.433,0.00266177,0.233934,20.7993,211.326,-0.441028,0.0,0.0
1695,423.5,55.0815,58.0519,140.899,99.3642,104.328,0.00239345,0.233603,20.8006,211.016,-0.44365,0.0,0.0
1710,427.25,54.3775,57.6403,138.743,99.2604,103.462,0.00243213,0.233041,20.8001,210.706,-0.377314,0.0,0.0
1725,431,55.0639,58.3651,142.905,99.1598,103.473,0.00250456,0.231932,20.8027,210.375,-0.387453,0.0,0.0
1740,434.75,55.304,57.6539,139.146,99.1574,103.707,0.00262064,0.230596,20.8038,209.975,-0.408243,0.0,0.0
1755,438.5,54.9805,57.8067,139.433,99.476,103.946,0.00250647,0.229921,20.8036,209.755,-0.400048,0.0,0.0
1770,442.25,54.7625,57.0554,148.051,99.7471,103.777,0.00235063,0.22871,20.8052,209.434,-0.360446,0.0,0.0
1785,446,54.6217,57.4519,141.509,99.9052,104.885,0.00238519,0.227632,20.8072,209.124,-0.442697,0.0,0.0
1800,449.75,54.6236,57.3864,140.682,99.9719,104.289,0.00265508,0.225528,20.8095,208.824,-0.384709,0.0,0.0
1815,453.5,54.3946,57.4162,143.184,99.884,104.352,0.00279378,0.223586,20.8118,208.444,-0.398208,0.0,0.0
1830,457.25,54.6131,57.124,141.148,99.7339,103.899,0.00290734,0.221682,20.8143,208.223,-0.372343,0.0,0.0
1845,461,54.2872,57.2432,143.912,99.4987,103.482,0.00320252,0.220037,20.8151,207.923,-0.357191,0.0,0.0
1860,464.75,53.6869,56.4372,144.833,99.6461,103.959,0.00286058,0.218812,20.8166,207.593,-0.385605,0.0,0.0
1875,468.5,54.1084,56.522,139.884,99.8106,104.373,0.00281436,0.21695,20.8186,207.303,-0.406749,0.0,0.0
1890,472.25,54.1844,56.6322,140.297,99.9902,103.843,0.00288295,0.215587,20.8195,206.912,-0.344094,0.0,0.0
1905,476,53.9893,55.9929,149.215,100.176,104.719,0.00258606,0.214323,20.8205,206.712,-0.403644,0.0,0.0
1920,479.75,53.8513,56.1164,143.345,100.298,104.812,0.00275109,0.213884,20.8209,206.432,-0.400647,0.0,0.0
1935,483.5,53.9458,55.9957,142.802,100.346,104.697,0.00302323,0.211708,20.8241,206.122,-0.386286,0.0,0.0
1950,487.25,53.0827,56.0137,144.302,100.316,104.801,0.00304804,0.211116,20.8253,205.851,-0.398042,0.0,0.0
1965,491,53.0381,55.8824,142.784,100.2,104.155,0.00302439,0.209626,20.8255,205.461,-0.352303,0.0,0.0
1980,494.75,53.614,56.0092,141.632,100.007,104.63,0.00321169,0.209266,20.8255,205.251,-0.411251,0.0,0.0
1995,498.5,52.9433,55.567,145.666,99.7583,103.983,0.00305196,0.208894,20.8265,204.971,-0.377415,0.0,0.0
2010,502.25,53.7336,56.0212,146.007,99.47,104.09,0.00323557,0.207264,20.8293,204.7,-0.413124,0.0,0.0
2025,506,53.1054,55.9108,146.813,99.1622,104.071,0.00326937,0.206752,20.8299,204.38,-0.439715,0.0,0.0
2040,509.75,52.9133,55.6148,141.655,98.9111,103.135,0.00323435,0.205424,20.8296,204.03,-0.380558,0.0,0.0
2055,513.5,52.6676,55.3474,147.092,98.6803,103.068,0.00321422,0.204739,20.8304,203.88,-0.395892,0.0,0.0
2070,517.25,53.0076,55.2309,142.709,98.5541,102.608,0.0030157,0.203862,20.8316,203.569,-0.36681,0.0,0.0
2085,521,53.0571,54.9338,146.001,98.5038,102.287,0.00297863,0.202866,20.8318,203.279,-0.342935,0.0,0.0
2100,524.75,52.3842,54.7613,146.281,98.5326,102.343,0.00296213,0.201972,20.8325,202.969,-0.345247,0.0,0.0
2115,528.5,52.3987,55.0178,142.809,98.6264,102.389,0.00327519,0.201179,20.8345,202.638,-0.340749,0.0,0.0
2130,532.25,52.8024,54.7782,142.81,98.7817,103.397,0.00334368,0.199495,20.8378,202.478,-0.415523,0.0,0.0
2145,536,52.4477,54.8425,145.023,98.9562,103.583,0.00320918,0.198938,20.8379,202.128,-0.415818,0.0,0.0
2160,539.75,52.1373,54.896,145.63,99.1358,104.035,0.00329641,0.197923,20.838,201.898,-0.438982,0.0,0.0
2175,543.5,51.9408,54.751,144.121,99.3247,103.853,0.00327227,0.197617,20.838,201.568,-0.405698,0.0,0.0
2190,547.25,52.2381,54.1776,140.603,99.4461,104.636,0.00333385,0.197183,20.8396,201.217,-0.462944,0.0,0.0
2205,551,52.2411,54.5051,144.182,99.5475,104.222,0.00333895,0.197038,20.8395,201.037,-0.417568,0.0,0.0
2220,554.75,51.7973,54.385,143.789,99.6393,103.406,0.00342223,0.197017,20.8388,200.727,-0.33765,0.0,0.0
2235,558.5,51.4235,54.093,141.97,99.7024,104.254,0.00346633,0.196664,20.8408,200.467,-0.406287,0.0,0.0
2250,562.25,52.2047,54.4252,143.78,99.7127,104.291,0.00338381,0.196123,20.8412,200.216,-0.408484,0.0,0.0
2265,566,52.3604,53.8764,144.472,99.7036,103.576,0.00321227,0.195517,20.8408,199.826,-0.346788,0.0,0.0
2280,569.75,51.6108,54.2034,147.11,99.682,104.78,0.00315899,0.195288,20.839,199.666,-0.45394,0.0,0.0
2295,573.5,52.0647,54.2751,144.911,99.6309,103.91,0.00331089,0.195143,20.8396,199.376,-0.382654,0.0,0.0
2310,577.25,52.0078,53.8938,146.196,99.5754,103.818,0.00335095,0.194091,20.8407,199.105,-0.379715,0.0,0.0
2325,581,51.9538,53.5169,141.528,99.5091,103.941,0.00321624,0.194832,20.841,198.845,-0.396504,0.0,0.0
2340,584.75,51.4602,53.5433,146.655,99.4464,104.123,0.00303028,0.194756,20.8411,198.485,-0.418231,0.0,0.0
2355,588.5,51.545,53.4154,140.645,99.3902,104.047,0.00301686,0.194378,20.8411,198.245,-0.416731,0.0,0.0
2370,592.25,51.9363,53.4799,142.056,99.341,103.847,0.00321304,0.194415,20.8411,198.004,-0.403724,0.0,0.0
2385,596,51.4026,53.0532,141.49,99.2756,103.148,0.00326602,0.194421,20.8429,197.714,-0.348234,0.0,0.0
2400,599.75,51.7064,53.5704,143.734,99.2376,103.201,0.00328638,0.193901,20.8433,197.484,-0.356399,0.0,0.0
2415,603.5,51.4458,53.2385,139.672,99.1973,103.974,0.00332326,0.193986,20.8417,197.084,-0.428021,0.0,0.0
2430,607.25,51.7497,53.6288,143.563,99.1722,104.118,0.00344407,0.194248,20.8409,196.903,-0.442893,0.0,0.0
2445,611,51.7442,53.6427,145.449,99.1474,103.688,0.00344647,0.194428,20.8421,196.633,-0.407461,0.0,0.0
2460,614.75,51.5939,53.3371,142.745,99.1223,103.43,0.00343746,0.19428,20.8415,196.363,-0.387174,0.0,0.0
2475,618.5,51.4321,53.3267,143.326,99.1087,103.606,0.00337519,0.194991,20.8411,196.083,-0.40382,0.0,0.0
2490,622.25,51.1851,53.4271,144.04,99.0827,104.009,0.00333771,0.194936,20.8401,195.752,-0.441574,0.0,0.0
2505,626,51.4839,53.0955,140.66,99.0732,103.085,0.00333557,0.195286,20.8381,195.532,-0.361245,0.0,0.0
2520,629.75,51.2998,53.3442,144.089,99.0656,103.077,0.00338995,0.196283,20.8376,195.242,-0.361226,0.0,0.0
2535,633.5,51.5759,53.536,145.658,99.0448,103.752,0.00344607,0.196598,20.8375,195.032,-0.422573,0.0,0.0
2550,637.25,51.5407,52.9681,147.52,99.0432,103.48,0.00332593,0.196987,20.8366,194.711,-0.398832,0.0,0.0
2565,641,51.4004,53.5987,147.135,99.0528,103.721,0.00343351,0.197298,20.8362,194.371,-0.419074,0.0,0.0
2580,644.75,51.5928,53.5769,142.996,99.056,103.504,0.0032658,0.196683,20.8378,194.191,-0.399756,0.0,0.0
2595,648.5,51.4593,53.5768,147.978,99.046,103.435,0.00311588,0.196501,20.8394,193.931,-0.394575,0.0,0.0
2610,652.25,51.4332,53.0703,144.529,99.0368,102.968,0.00321884,0.197054,20.8383,193.651,-0.354202,0.0,0.0
2625,656,51.4506,53.4978,143.365,99.0416,103.724,0.00329843,0.19724,20.838,193.37,-0.420378,0.0,0.0
2640,659.75,51.6424,53.2058,144.285,99.0364,102.974,0.00311762,0.1973,20.838,192.99,-0.354795,0.0,0.0
2655,663.5,51.7539,52.9416,138.514,99.058,104.075,0.00303438,0.196959,20.838,192.78,-0.449638,0.0,0.0
2670,667.25,51.338,53.2042,147.674,99.0967,103.663,0.00294995,0.197327,20.838,192.53,-0.409982,0.0,0.0
2685,671,51.9274,53.1867,144.102,99.1191,103.097,0.00323052,0.197758,20.8392,192.259,-0.358102,0.0,0.0
2700,674.75,51.6543,53.3719,143.409,99.1486,103.134,0.00315318,0.197994,20.8396,191.989,-0.358609,0.0,0.0
2715,678.5,51.6387,53.1917,143.394,99.1945,103.221,0.00304755,0.198038,20.8405,191.649,-0.362101,0.0,0.0
2730,682.25,51.7544,53.5603,144.352,99.2344,103.302,0.00296893,0.197451,20.841,191.449,-0.365543,0.0,0.0
2745,686,51.5969,53.4177,146.156,99.3143,103.722,0.00302083,0.197109,20.8399,191.168,-0.395198,0.0,0.0
2760,689.75,51.3777,52.9597,147.635,99.4029,104.705,0.00307032,0.198149,20.839,190.888,-0.472882,0.0,0.0
2775,693.5,51.652,52.9985,141.844,99.4792,103.363,0.00313615,0.19839,20.839,190.618,-0.34852,0.0,0.0
2790,697.25,51.698,53.1656,144.484,99.5455,103.783,0.00304621,0.199088,20.8381,190.258,-0.379373,0.0,0.0
2805,701,51.5007,53.2097,140.838,99.597,104.253,0.00295701,0.198816,20.8379,190.097,-0.415795,0.0,0.0
2820,704.75,51.6691,53.3433,144.239,99.6549,104.147,0.00322999,0.199176,20.8363,189.827,-0.401226,0.0,0.0
2835,708.5,51.8865,53.6353,147.086,99.6884,104.124,0.00337126,0.199068,20.8372,189.517,-0.396197,0.0,0.0
2850,712.25,51.7038,53.6938,144.185,99.7052,104.796,0.0031361,0.199007,20.8383,189.257,-0.453196,0.0,0.0
2865,716,51.5199,53.3501,141.442,99.6884,104.178,0.00315934,0.199027,20.836,188.926,-0.400918,0.0,0.0
2880,719.75,51.4996,53.0349,146.139,99.6828,104.162,0.00338146,0.199136,20.8341,188.736,-0.400011,0.0,0.0
2895,723.5,51.6942,53.2921,145.982,99.6477,103.518,0.0031489,0.1997,20.8337,188.466,-0.346787,0.0,0.0
2910,727.25,51.4978,53.4326,145.952,99.6069,103.703,0.00299972,0.199988,20.8336,188.226,-0.366762,0.0,0.0
2925,731,51.7439,53.1922,143.528,99.5395,104.604,0.00321285,0.199566,20.834,187.925,-0.451658,0.0,0.0
2940,734.75,51.3506,53.1047,140.592,99.498,104.056,0.00323383,0.199452,20.8355,187.565,-0.407653,0.0,0.0
2955,738.5,51.5282,53.6486,142.887,99.4664,104.041,0.00297492,0.199629,20.8361,187.325,-0.40916,0.0,0.0
2970,742.25,51.6718,53.2323,144.128,99.4137,103.403,0.00289899,0.199499,20.8368,187.095,-0.358039,0.0,0.0
2985,746,51.1115,53.4542,144.617,99.3654,104.439,0.00316375,0.199227,20.8379,186.835,-0.453158,0.0,0.0
3000,749.75,51.6512,53.4512,148.387,99.3187,103.851,0.00322601,0.199856,20.8365,186.554,-0.406128,0.0,0.0
3015,753.5,51.596,53.4439,137.227,99.2592,103.811,0.00304308,0.201252,20.8342,186.194,-0.408067,0.0,0.0
3030,757.25,51.7268,53.1631,145.028,99.234,103.497,0.00300902,0.200901,20.8352,186.044,-0.38278,0.0,0.0
3045,761,51.4808,52.9054,142.682,99.1574,103.842,0.00311182,0.199955,20.8362,185.784,-0.42009,0.0,0.0
3060,764.75,51.2718,53.1412,141.63,99.0935,102.993,0.00312112,0.199734,20.8373,185.473,-0.351222,0.0,0.0
3075,768.5,51.8082,53.2129,142.519,99.022,102.954,0.00296177,0.199316,20.8375,185.183,-0.354405,0.0,0.0
3090,772.25,51.0756,53.1625,148.64,98.9334,103.896,0.00275054,0.199655,20.8359,184.873,-0.445365,0.0,0.0
3105,776,51.5169,53.2902,141.466,98.8819,103.222,0.00278252,0.200889,20.8346,184.673,-0.390944,0.0,0.0
3120,779.75,51.1064,52.8549,143.321,98.8037,103.16,0.00310971,0.201629,20.8347,184.402,-0.392669,0.0,0.0
3135,783.5,51.523,52.9925,146.981,98.7466,103.376,0.00311686,0.201122,20.8341,184.172,-0.416977,0.0,0.0
3150,787.25,51.2301,53.2794,140.951,98.6955,103.093,0.00285452,0.201474,20.8319,183.892,-0.39668,0.0,0.0
3165,791,51.764,53.1614,149.316,98.6304,103.016,0.00286002,0.201695,20.8325,183.522,-0.395922,0.0,0.0
3180,794.75,51.4849,53.3061,145.229,98.594,102.732,0.00303086,0.201316,20.8326,183.311,-0.3741,0.0,0.0
3195,798.5,51.2977,52.9171,145.862,98.5469,102.831,0.00318269,0.201779,20.8321,183.091,-0.387221,0.0,0.0
3210,802.25,51.5587,53.1524,141.171,98.5138,102.94,0.00336532,0.202036,20.8314,182.811,-0.39992,0.0,0.0
3225,806,51.3009,53.4367,142.949,98.4914,103.19,0.00350519,0.202462,20.8322,182.541,-0.424133,0.0,0.0
3240,809.75,51.8437,53.5566,142.303,98.4707,103.215,0.0033866,0.202918,20.8327,182.2,-0.428195,0.0,0.0
3255,813.5,52.0235,53.2245,142.957,98.4743,102.433,0.00326996,0.203563,20.8327,181.98,-0.358677,0.0,0.0
3270,817.25,51.8239,53.5414,147.442,98.4855,102.619,0.00327006,0.202968,20.832,181.69,-0.374191,0.0,0.0
3285,821,52.0483,53.2013,144.147,98.5078,102.606,0.00311881,0.204954,20.8307,181.47,-0.370967,0.0,0.0
3300,824.75,51.3486,53.3303,141.339,98.5206,102.583,0.00275811,0.205499,20.8304,181.18,-0.367711,0.0,0.0
3315,828.5,51.5932,53.112,138.14,98.5382,103.134,0.00273048,0.205383,20.8305,180.839,-0.414812,0.0,0.0
3330,832.25,51.7005,53.7922,144.266,98.5809,103.076,0.00303447,0.205907,20.83,180.609,-0.405781,0.0,0.0
3345,836,52.0996,53.3828,144.612,98.6436,103.222,0.00300063,0.206899,20.8296,180.379,-0.412868,0.0,0.0
3360,839.75,51.5539,52.9949,147.066,98.6899,103.416,0.00302091,0.206751,20.8296,180.119,-0.425651,0.0,0.0
3375,843.5,51.7813,54.0059,145.769,98.7745,102.976,0.00304577,0.207278,20.8295,179.828,-0.379092,0.0,0.0
3390,847.25,51.9119,53.6921,144.508,98.858,103.377,0.00309882,0.208251,20.8283,179.468,-0.406796,0.0,0.0
3405,851,51.7977,53.0933,144.202,98.9697,102.727,0.00281667,0.209856,20.8272,179.268,-0.33905,0.0,0.0
3420,854.75,52.009,53.8818,144.782,99.0712,103.989,0.00285463,0.211397,20.8235,179.018,-0.440865,0.0,0.0
3435,858.5,52.2233,54.1346,148.131,99.1989,103.206,0.00289433,0.212283,20.8241,178.727,-0.360388,0.0,0.0
3450,862.25,52.2837,53.5592,140.87,99.3287,104.363,0.00288186,0.212821,20.8231,178.467,-0.449929,0.0,0.0
3465,866,51.9743,53.5045,142.9,99.4828,104.152,0.0030389,0.213343,20.8222,178.077,-0.417426,0.0,0.0
3480,869.75,52.1122,53.6826,148.238,99.6034,103.809,0.00274546,0.214087,20.8205,177.847,-0.376372,0.0,0.0
3495,873.5,52.3572,54.2461,142.574,99.7547,103.606,0.00253986,0.215114,20.8193,177.606,-0.344737,0.0,0.0
3510,877.25,52.44,53.7033,143.005,99.8681,104.396,0.00273599,0.216615,20.8168,177.326,-0.40355,0.0,0.0
3525,881,52.5987,54.3105,146.859,99.9635,104.8,0.00289398,0.217583,20.8166,177.016,-0.429962,0.0,0.0
3540,884.75,52.5398,54.3623,143.929,100.053,104.687,0.00267709,0.218409,20.8157,176.686,-0.412004,0.0,0.0
3555,888.5,52.6805,54.2247,144.685,100.109,105.174,0.00297512,0.220811,20.8132,176.465,-0.449141,0.0,0.0
3570,892.25,52.6614,53.9692,140.593,100.184,105.103,0.00322946,0.222796,20.8122,176.145,-0.436201,0.0,0.0
3585,896,52.7854,54.8063,144.252,100.238,105.356,0.0030378,0.223945,20.81,175.945,-0.45319,0.0,0.0
3600,899.75,52.7724,54.7411,141.415,100.277,104.861,0.00306702,0.225386,20.8064,175.585,-0.406753,0.0,0.0
3615,903.5,52.9482,54.8851,145.384,100.279,104.844,0.00317399,0.226293,20.8055,175.224,-0.40509,0.0,0.0
3630,907.25,53.2056,54.8357,144.018,100.281,105.158,0.00288494,0.227087,20.8051,174.974,-0.432149,0.0,0.0
3645,911,53.4118,54.674,148.716,100.267,104.958,0.00245415,0.228587,20.8021,174.734,-0.416058,0.0,0.0
3660,914.75,53.4407,55.1198,138.66,100.237,105.02,0.00232749,0.231316,20.7996,174.424,-0.424275,0.0,0.0
3675,918.5,53.7844,55.1224,144.305,100.19,104.412,0.00225644,0.232693,20.797,174.143,-0.375611,0.0,0.0
3690,922.25,53.5554,55.2568,144.752,100.116,104.569,0.00239078,0.233862,20.7971,173.763,-0.396082,0.0,0.0
3705,926,53.6617,55.59,139.423,100.029,104.154,0.00271057,0.236138,20.7929,173.463,-0.367718,0.0,0.0
3720,929.75,53.7824,55.3056,140.074,99.9619,104.669,0.00294713,0.238572,20.7909,173.173,-0.41876,0.0,0.0
3735,933.5,54.2451,55.7378,137.578,99.8593,104.538,0.00295866,0.240844,20.7887,172.862,-0.416707,0.0,0.0
3750,937.25,54.6407,56.0821,141.142,99.7571,104.681,0.00271659,0.24315,20.7866,172.582,-0.438444,0.0,0.0
3765,941,54.6848,55.6319,144.968,99.6473,104.002,0.00264538,0.24397,20.7873,172.162,-0.38924,0.0,0.0
3780,944.75,54.6639,56.059,141.945,99.5439,103.522,0.00273209,0.245484,20.7864,171.911,-0.356628,0.0,0.0
3795,948.5,54.7554,56.3907,144.389,99.4684,104.284,0.00294793,0.247706,20.7823,171.631,-0.430261,0.0,0.0
3810,952.25,54.9996,56.7241,136.839,99.484,104.316,0.00309474,0.251814,20.7774,171.341,-0.431587,0.0,0.0
3825,956,55.4275,56.4099,144.06,99.6141,103.68,0.00294583,0.254295,20.7756,170.991,-0.36409,0.0,0.0
3840,959.75,55.5393,56.6126,146.204,99.7179,104.664,0.0027992,0.255304,20.7734,170.59,-0.440565,0.0,0.0
3855,963.5,55.6406,56.369,143.063,99.7938,105.106,0.00285472,0.258426,20.7705,170.31,-0.472011,0.0,0.0
3870,967.25,55.5248,56.9546,139.273,99.8597,104.616,0.00276263,0.261576,20.7669,169.95,-0.42341,0.0,0.0
3885,971,56.0903,57.154,142.067,99.8944,104.235,0.00270225,0.263629,20.7635,169.659,-0.387046,0.0,0.0
3900,974.75,55.9442,57.6419,141.856,99.9128,104.317,0.00277294,0.265648,20.7605,169.299,-0.392565,0.0,0.0
3915,978.5,56.0616,57.4877,138.069,99.8944,104.328,0.00259885,0.267965,20.7593,168.919,-0.39522,0.0,0.0
3930,982.25,56.1475,57.988,143.459,99.8549,104.72,0.0027851,0.270906,20.7554,168.568,-0.43289,0.0,0.0
3945,986,56.4578,58.183,139.417,99.8026,103.859,0.00290584,0.274359,20.7505,168.268,-0.362568,0.0,0.0
3960,989.75,56.9413,58.4141,139.423,99.708,103.733,0.00276768,0.277865,20.7466,167.898,-0.360186,0.0,0.0
3975,993.5,57.2848,58.5322,135.413,99.5958,104.395,0.00278251,0.281113,20.7431,167.508,-0.428278,0.0,0.0
3990,997.25,57.2611,58.933,137.584,99.5103,103.837,0.00298539,0.283829,20.742,167.057,-0.387283,0.0,0.0
4005,1001,57.6279,59.3633,139.784,99.3949,103.901,0.00303029,0.286167,20.7372,166.707,-0.403443,0.0,0.0
4020,1004.75,57.9943,59.092,140.391,99.2891,103.118,0.00301579,0.289772,20.7322,166.367,-0.344368,0.0,0.0
4035,1008.5,58.0728,59.6737,147.332,99.1989,103.576,0.0027623,0.293287,20.7271,165.996,-0.392967,0.0,0.0
4050,1012.25,58.4103,59.463,138.936,99.0871,103.63,0.00260616,0.296937,20.7249,165.616,-0.407936,0.0,0.0
4065,1016,58.126,59.7609,140.298,99.0588,102.795,0.00256831,0.300307,20.7204,165.195,-0.336929,0.0,0.0
4080,1019.75,58.6689,60.3552,136.869,99.0923,103.837,0.00235441,0.304401,20.7163,164.805,-0.425591,0.0,0.0
4095,1023.5,58.6778,60.5693,136.15,99.1354,102.638,0.00253646,0.307849,20.7122,164.395,-0.316006,0.0,0.0
4110,1027.25,59.5289,60.8706,134.949,99.1614,102.849,0.00255592,0.311486,20.708,164.004,-0.33229,0.0,0.0
4125,1031,59.5409,60.9673,141.471,99.1969,103.144,0.00248486,0.315762,20.7026,163.604,-0.35505,0.0,0.0
4140,1034.75,60.1554,61.5038,138.566,99.2269,103.425,0.00270004,0.318741,20.7001,163.134,-0.377101,0.0,0.0
4155,1038.5,60.2756,62.0828,136.934,99.2652,103.086,0.00292002,0.322807,20.6981,162.713,-0.343702,0.0,0.0
4170,1042.25,60.2743,61.9375,140.79,99.3083,102.555,0.00260443,0.32662,20.6931,162.363,-0.29272,0.0,0.0
4185,1046,60.6188,62.4834,137.034,99.3462,103.058,0.00255724,0.330403,20.6898,161.903,-0.33385,0.0,0.0
4200,1049.75,60.7871,62.9336,141.122,99.4017,103.022,0.00252605,0.334596,20.6833,161.482,-0.325586,0.0,0.0
4215,1053.5,61.4977,62.8714,135.11,99.4724,103.566,0.0024969,0.339774,20.6778,161.032,-0.367043,0.0,0.0
4230,1057.25,61.7363,63.4065,143.301,99.5155,103.494,0.00265069,0.343422,20.6742,160.541,-0.356765,0.0,0.0
4245,1061,61.8972,63.941,136.154,99.5742,102.993,0.002768,0.346105,20.6723,160.141,-0.307223,0.0,0.0
4260,1064.75,62.0964,63.9382,141.755,99.6193,103.466,0.00295177,0.349657,20.6681,159.661,-0.344823,0.0,0.0
4275,1068.5,62.6897,64.2414,138.883,99.6485,103.808,0.00283859,0.354625,20.6607,159.21,-0.372133,0.0,0.0
4290,1072.25,63.1721,64.8019,137.439,99.6744,103.62,0.00270235,0.35895,20.6556,158.71,-0.353326,0.0,0.0
4305,1076,63.1487,65.014,140.045,99.6816,103.603,0.00270214,0.363976,20.649,158.199,-0.351128,0.0,0.0
4320,1079.75,63.3569,65.1212,141.35,99.6764,103.066,0.00285647,0.368839,20.6423,157.809,-0.304331,0.0,0.0
4335,1083.5,63.8556,65.7319,144.217,99.66,102.952,0.00311834,0.374181,20.6363,157.269,-0.295761,0.0,0.0
4350,1087.25,64.1578,66.0648,142.768,99.6373,103.07,0.00299506,0.378382,20.6316,156.748,-0.308261,0.0,0.0
4365,1091,64.5917,66.5942,135.256,99.6042,103.158,0.00285431,0.381419,20.627,156.288,-0.318998,0.0,0.0
4380,1094.75,64.6767,67.2504,133.856,99.5515,103.738,0.00292818,0.387704,20.6164,155.807,-0.374915,0.0,0.0
4395,1098.5,65.2981,67.3974,135.032,99.5139,103.244,0.00291561,0.39596,20.6061,155.287,-0.334909,0.0,0.0
4410,1102.25,65.7186,67.554,133.587,99.4572,102.619,0.00318213,0.403454,20.598,154.786,-0.284837,0.0,0.0
4425,1106,65.8425,67.972,132.31,99.4145,102.839,0.00324633,0.407904,20.5944,154.296,-0.308173,0.0,0.0
4440,1109.75,66.3177,68.2853,136.569,99.3594,102.845,0.00325972,0.411264,20.5924,153.665,-0.313736,0.0,0.0
4455,1113.5,66.0972,68.5294,135.744,99.3343,102.367,0.00332612,0.416978,20.5854,153.135,-0.273706,0.0,0.0
4470,1117.25,66.8292,68.6926,134.409,99.3159,101.625,0.00321974,0.423822,20.5771,152.654,-0.209136,0.0,0.0
4485,1121,67.1246,69.4634,138.419,99.3051,102.67,0.00339722,0.425016,20.5767,152.104,-0.303277,0.0,0.0
4500,1124.75,67.3417,69.5591,132.301,99.282,101.777,0.00354454,0.429639,20.5709,151.553,-0.225865,0.0,0.0
4515,1128.5,67.5624,69.682,138.027,99.2808,101.794,0.00364923,0.433625,20.567,150.983,-0.227545,0.0,0.0
4530,1132.25,67.6554,70.0231,135.754,99.2544,101.944,0.00356191,0.440513,20.5519,150.422,-0.243357,0.0,0.0
4545,1136,68.2513,70.6548,131.341,99.2891,102.282,0.00337553,0.448352,20.5456,149.882,-0.270231,0.0,0.0
4560,1139.75,68.6363,70.8903,138.114,99.2939,102.52,0.00316814,0.451909,20.5421,149.342,-0.290961,0.0,0.0
4575,1143.5,68.9927,71.2342,139.601,99.3159,102.854,0.00304327,0.454594,20.5399,148.751,-0.318559,0.0,0.0
4590,1147.25,69.2606,71.6892,135.158,99.3478,101.574,0.00313702,0.456341,20.5379,148.13,-0.201693,0.0,0.0
4605,1151,69.3192,72.3318,136.67,99.3918,101.675,0.0032275,0.458579,20.536,147.56,-0.206703,0.0,0.0
4620,1154.75,69.7655,72.2804,132.755,99.4373,101.509,0.00330747,0.459992,20.534,147.029,-0.187612,0.0,0.0
4635,1158.5,70.2638,72.8547,133.925,99.4756,99.9185,0.00349654,0.460305,20.5334,146.489,-0.0404305,0.0,0.0
4650,1162.25,70.3696,72.95,129.867,99.5131,101.211,0.00370264,0.461038,20.5332,145.919,-0.153989,0.0,0.0
4665,1166,70.4948,73.1192,133.423,99.5415,100.44,0.00395864,0.460912,20.5314,145.368,-0.0817338,0.0,0.0
4680,1169.75,70.8667,73.5304,131.981,99.5746,101.473,0.00392986,0.460917,20.531,144.798,-0.171902,0.0,0.0
4695,1173.5,71.0999,73.7794,135.467,99.6077,100.617,0.00391367,0.459265,20.5345,144.267,-0.0916971,0.0,0.0
4710,1177.25,70.9714,73.9871,136.702,99.6469,101.551,0.00373319,0.455012,20.5408,143.737,-0.172243,0.0,0.0
4725,1181,71.3802,74.1035,131.346,99.6592,100.856,0.00366998,0.451165,20.5459,143.216,-0.108635,0.0,0.0
4740,1184.75,71.2363,74.2883,135.166,99.6768,101.492,0.00384429,0.447846,20.55,142.666,-0.164261,0.0,0.0
4755,1188.5,71.4295,74.0598,132.489,99.702,102.003,0.00382217,0.441209,20.5581,142.105,-0.207677,0.0,0.0
4770,1192.25,70.8596,74.4382,140.036,99.7048,101.101,0.00367115,0.434329,20.5679,141.655,-0.126515,0.0,0.0
4785,1196,70.224,74.352,137.875,99.7163,101.518,0.00346928,0.424752,20.5777,141.154,-0.162956,0.0,0.0
4800,1199.75,70.6215,74.1653,133.107,99.7203,101.765,0.00304763,0.416814,20.5859,140.714,-0.184685,0.0,0.0
4815,1203.5,70.515,74.1401,136.561,99.7048,103.093,0.00264286,0.40845,20.5983,140.234,-0.304128,0.0,0.0
4830,1207.25,70.2755,73.8566,132.154,99.7104,102.447,0.00253227,0.396958,20.6123,139.823,-0.246439,0.0,0.0
4845,1211,69.7293,73.7847,137.377,99.712,102.623,0.00271059,0.383487,20.6299,139.423,-0.261839,0.0,0.0
4860,1214.75,68.9077,73.6136,139.465,99.7159,103.691,0.00279359,0.371684,20.6436,139.032,-0.355703,0.0,0.0
4875,1218.5,69.2907,73.179,139.421,99.7108,103.18,0.00286181,0.359556,20.6561,138.602,-0.31121,0.0,0.0
4890,1222.25,68.6471,72.8878,136.751,99.7004,103.568,0.00256234,0.350758,20.6673,138.212,-0.346369,0.0,0.0
4905,1226,68.7755,72.8317,134.824,99.6956,104.218,0.00250212,0.340703,20.6765,137.831,-0.403762,0.0,0.0
4920,1229.75,67.8684,72.0816,139.233,99.6892,103.759,0.00238683,0.333822,20.6851,137.501,-0.36415,0.0,0.0
4935,1233.5,67.4247,71.5817,137.706,99.6644,104.411,0.00243423,0.326703,20.6921,137.161,-0.423379,0.0,0.0
4950,1237.25,67.0159,71.5856,137.469,99.6453,104.309,0.00252712,0.319215,20.701,136.841,-0.416215,0.0,0.0
4965,1241,66.855,70.4776,136.828,99.5994,104.353,0.00235322,0.312719,20.706,136.41,-0.424298,0.0,0.0
4980,1244.75,66.1641,70.2298,135.956,99.5642,104.167,0.00226298,0.305511,20.7156,136.08,-0.411237,0.0,0.0
4995,1248.5,65.6891,69.954,141.541,99.5107,103.677,0.00236835,0.298326,20.7229,135.86,-0.373265,0.0,0.0
5010,1252.25,65.2375,69.4906,139.339,99.4484,104.851,0.00224298,0.293092,20.7285,135.539,-0.481387,0.0,0.0
5025,1256,64.8254,69.0632,138.327,99.3746,104.069,0.00225447,0.287976,20.735,135.199,-0.420047,0.0,0.0
5040,1259.75,64.3306,68.1042,140.041,99.3159,104.241,0.00244336,0.283063,20.7388,134.869,-0.440452,0.0,0.0
5055,1263.5,64.247,68.451,140.574,99.2484,104.449,0.00259723,0.279988,20.7415,134.589,-0.464741,0.0,0.0
5070,1267.25,63.9187,67.5512,140.335,99.2101,104.096,0.00258426,0.277288,20.7453,134.338,-0.437446,0.0,0.0
5085,1271,63.2691,67.4464,136.364,99.1478,104.016,0.00239467,0.274273,20.7476,134.038,-0.436189,0.0,0.0
5100,1274.75,62.9405,67.1217,141.608,99.1151,103.857,0.00210518,0.2728,20.7481,133.738,-0.425316,0.0,0.0
5115,1278.5,62.7279,66.7661,133.627,99.1953,103.374,0.00229809,0.271693,20.751,133.357,-0.375476,0.0,0.0
5130,1282.25,62.2308,65.9907,139.885,99.4341,103.654,0.00238435,0.270037,20.7525,133.077,-0.378222,0.0,0.0
5145,1286,61.9783,66.1666,143.605,99.6309,104.408,0.00239616,0.269527,20.7528,132.887,-0.426167,0.0,0.0
5160,1289.75,61.434,66.0061,138.235,99.7718,104.315,0.00254605,0.269024,20.7526,132.587,-0.405254,0.0,0.0
5175,1293.5,61.6299,65.3041,137.331,99.874,104.123,0.0026162,0.268413,20.7538,132.286,-0.379146,0.0,0.0
5190,1297.25,61.9488,65.4296,139.304,99.9295,104.843,0.00285095,0.267927,20.7544,131.986,-0.436844,0.0,0.0
5205,1301,61.4474,64.851,138.386,99.9367,104.33,0.00321841,0.266485,20.7562,131.656,-0.391483,0.0,0.0
5220,1304.75,61.2344,64.9409,139.885,99.9044,103.991,0.00336234,0.266862,20.7551,131.416,-0.364804,0.0,0.0
5235,1308.5,61.2665,64.1266,142.593,99.8261,104.179,0.00340254,0.266905,20.7547,131.145,-0.388392,0.0,0.0
5250,1312.25,60.9832,64.0661,141.16,99.6612,104.629,0.00349517,0.26765,20.7538,130.855,-0.442686,0.0,0.0
5265,1316,60.8002,63.8657,138.328,99.4976,103.835,0.00365312,0.268026,20.7516,130.485,-0.388294,0.0,0.0
5280,1319.75,60.6192,63.8306,137.792,99.5626,103.83,0.00342255,0.270023,20.7484,130.165,-0.38191,0.0,0.0
5295,1323.5,60.9956,63.8161,143.273,99.6908,104.73,0.00315436,0.271807,20.7465,129.964,-0.448797,0.0,0.0
5310,1327.25,60.7128,63.7549,138.356,99.8237,104.54,0.0034013,0.272791,20.7451,129.654,-0.420063,0.0,0.0
5325,1331,60.8839,63.3932,138.65,99.9675,105.088,0.00362865,0.273221,20.743,129.394,-0.454629,0.0,0.0
5340,1334.75,60.6051,63.7364,142.694,100.103,105.542,0.00361659,0.274273,20.7417,129.054,-0.481463,0.0,0.0
5355,1338.5,60.6691,63.2767,139.59,100.213,104.858,0.003254,0.275828,20.7383,128.733,-0.412392,0.0,0.0
5370,1342.25,60.9049,63.119,137.74,100.298,104.927,0.00308315,0.277997,20.7365,128.503,-0.410575,0.0,0.0
5385,1346,61.113,62.61,140.26,100.338,104.438,0.00315723,0.278936,20.7361,128.203,-0.364477,0.0,0.0
5400,1349.75,60.9063,63.5431,139.062,100.338,105.418,0.00325987,0.279617,20.7345,127.903,-0.449427,0.0,0.0
5415,1353.5,60.6379,62.9369,140.711,100.291,104.906,0.0029431,0.279878,20.7345,127.542,-0.409394,0.0,0.0
5430,1357.25,60.8392,63.0785,138.683,100.177,104.923,0.00289583,0.280031,20.7357,127.222,-0.421245,0.0,0.0
5445,1361,60.9469,62.8404,141.084,100.041,104.609,0.00318974,0.280536,20.736,127.012,-0.406319,0.0,0.0
5460,1364.75,61.1312,63.0006,131.429,99.8509,104.044,0.0030589,0.280589,20.7342,126.702,-0.374327,0.0,0.0
5475,1368.5,60.9243,62.5506,140.323,99.6085,104.129,0.00321661,0.281395,20.7338,126.431,-0.403922,0.0,0.0
5490,1372.25,60.8247,63.1219,138.778,99.3594,104.199,0.00338099,0.281149,20.7337,126.141,-0.432808,0.0,0.0
5505,1376,60.7438,63.2593,142.293,99.1091,103.607,0.00316563,0.280436,20.7347,125.831,-0.403862,0.0,0.0
5520,1379.75,60.6216,62.943,136.699,98.8819,103.413,0.00322743,0.279685,20.7358,125.571,-0.407722,0.0,0.0
5535,1383.5,60.9762,63.1189,140.945,98.6851,102.639,0.00333016,0.278932,20.7374,125.29,-0.357521,0.0,0.0
5550,1387.25,60.493,62.7655,142.984,98.5629,103.28,0.00313818,0.278584,20.7364,125.02,-0.42543,0.0,0.0
5565,1391,60.502,62.7404,141.237,98.513,103.529,0.00336008,0.27835,20.7373,124.69,-0.451915,0.0,0.0
5580,1394.75,60.8848,62.9252,142.674,98.5238,103.02,0.00353871,0.277563,20.7395,124.39,-0.406081,0.0,0.0
5595,1398.5,60.5413,62.6506,137.005,98.6332,102.91,0.0032363,0.275722,20.7418,124.179,-0.386312,0.0,0.0
5610,1402.25,60.684,62.7677,139.533,98.7929,104.073,0.00312128,0.275291,20.7405,123.919,-0.473867,0.0,0.0
5625,1406,60.4674,62.5279,139.231,98.9909,104.129,0.00309739,0.274475,20.7412,123.589,-0.460525,0.0,0.0
5640,1409.75,60.2543,62.505,136.055,99.1957,104.084,0.00286245,0.272546,20.7426,123.239,-0.43774,0.0,0.0
5655,1413.5,60.4562,62.5254,139.933,99.3758,104.33,0.00270582,0.272785,20.7431,123.048,-0.442746,0.0,0.0
5670,1417.25,60.7903,62.4866,145.797,99.5407,104.024,0.00274678,0.27081,20.7462,122.868,-0.40095,0.0,0.0
5685,1421,60.0856,62.3989,142.495,99.662,104.405,0.00314911,0.26877,20.7491,122.668,-0.423127,0.0,0.0
5700,1424.75,60.0177,62.0417,145.844,99.7096,104.074,0.00324169,0.265928,20.7532,122.348,-0.389895,0.0,0.0
5715,1428.5,59.9778,61.7212,140.116,99.7235,104.461,0.00326692,0.264429,20.7536,122.057,-0.422381,0.0,0.0
5730,1432.25,59.8948,61.7497,137.722,99.6676,105.107,0.00350194,0.263174,20.7531,121.717,-0.483563,0.0,0.0
5745,1436,59.5509,61.7822,140.02,99.5818,104.297,0.0035741,0.262146,20.7537,121.577,-0.421033,0.0,0.0
5760,1439.75,59.6709,61.6777,143.896,99.4708,104.587,0.00346219,0.260138,20.7566,121.347,-0.456449,0.0,0.0
5775,1443.5,58.9432,61.7506,141.729,99.3418,104.368,0.00319544,0.257363,20.7606,121.087,-0.449115,0.0,0.0
5790,1447.25,59.3403,61.3864,142.964,99.2317,104.074,0.00334062,0.255217,20.7619,120.816,-0.433578,0.0,0.0
5805,1451,58.4889,61.0475,142.46,99.1534,104.059,0.00301788,0.252491,20.7654,120.566,-0.439418,0.0,0.0
5820,1454.75,59.068,60.9405,142.056,99.0767,103.254,0.00284833,0.249421,20.7707,120.386,-0.37585,0.0,0.0
5835,1458.5,58.5252,61.231,145.96,99.1626,104.315,0.00291219,0.245945,20.7762,120.186,-0.460956,0.0,0.0
5850,1462.25,58.4178,60.8994,141.371,99.4173,103.726,0.00312377,0.24261,20.7806,119.946,-0.38612,0.0,0.0
5865,1466,58.1063,60.6302,141.57,99.6309,104.499,0.00328521,0.238932,20.7843,119.695,-0.434092,0.0,0.0
5880,1469.75,57.9971,60.1614,142.412,99.7722,105.02,0.00331668,0.235102,20.7881,119.405,-0.466528,0.0,0.0
5895,1473.5,58.1098,59.6879,142.262,99.8689,103.974,0.00335835,0.231759,20.7918,119.295,-0.366544,0.0,0.0
5910,1477.25,57.712,59.929,141.071,99.8876,104.989,0.00347488,0.229156,20.7917,119.085,-0.453318,0.0,0.0
5925,1481,57.4166,59.6311,139.072,99.8573,104.885,0.00337317,0.225827,20.7964,118.915,-0.447023,0.0,0.0
5940,1484.75,56.8336,59.4762,141.053,99.8022,104.787,0.0033061,0.222206,20.7994,118.715,-0.443524,0.0,0.0
5955,1488.5,56.656,59.497,144.867,99.7032,104.852,0.0033895,0.218361,20.8055,118.454,-0.458186,0.0,0.0
5970,1492.25,56.4891,59.1757,145.352,99.579,103.924,0.00353611,0.214385,20.8098,118.354,-0.388697,0.0,0.0
5985,1496,55.8718,58.764,143.063,99.4237,104.299,0.00345523,0.210273,20.8149,118.174,-0.43565,0.0,0.0
6000,1499.75,55.6708,58.4816,141.857,99.4896,104.575,0.0035276,0.205126,20.822,117.984,-0.453635,0.0,0.0
6015,1503.5,55.6682,57.7088,142.133,99.5546,104.382,0.00340033,0.200532,20.8282,117.824,-0.430937,0.0,0.0
6030,1507.25,55.2131,57.8387,144.134,99.6225,104.456,0.0032219,0.196259,20.8341,117.584,-0.431171,0.0,0.0
6045,1511,55.1042,57.5049,143.994,99.7032,104.624,0.00328106,0.191569,20.839,117.503,-0.438428,0.0,0.0
6060,1514.75,54.7175,57.1282,144.417,99.7986,104.462,0.00340798,0.186997,20.8434,117.363,-0.415612,0.0,0.0
6075,1518.5,54.6577,56.6344,145.562,99.8545,105.218,0.00349104,0.18162,20.8491,117.223,-0.476143,0.0,0.0
6090,1522.25,53.943,56.6583,145.085,99.9371,104.678,0.00370615,0.177108,20.8547,117.063,-0.421797,0.0,0.0
6105,1526,53.4832,55.8621,148.186,99.9771,104.743,0.00402094,0.172083,20.8614,116.873,-0.423759,0.0,0.0
6120,1529.75,53.0208,55.8829,143.742,100.045,104.466,0.00409528,0.168245,20.8646,116.843,-0.39349,0.0,0.0
6135,1533.5,52.702,54.878,142.973,100.081,104.597,0.00424697,0.164157,20.8706,116.713,-0.40163,0.0,0.0
6150,1537.25,52.0915,54.7365,145.182,100.116,105.063,0.00440954,0.160061,20.8749,116.603,-0.438898,0.0,0.0
6165,1541,51.9159,54.4776,143.35,100.161,105.093,0.0047694,0.15694,20.8784,116.503,-0.437369,0.0,0.0
6180,1544.75,51.5586,53.7385,149.295,100.178,105.234,0.00499135,0.153696,20.881,116.282,-0.448082,0.0,0.0
6195,1548.5,51.4157,54.07,144.664,100.211,105.12,0.00507752,0.150303,20.8845,116.272,-0.435179,0.0,0.0
6210,1552.25,50.9483,52.9782,148.688,100.237,104.825,0.00536648,0.14723,20.8884,116.212,-0.407252,0.0,0.0
6225,1556,50.7257,53.0196,147.449,100.249,105.059,0.00551465,0.143956,20.8916,116.062,-0.426431,0.0,0.0
6240,1559.75,50.1094,52.3281,150.573,100.262,105.423,0.00552026,0.141134,20.8958,115.922,-0.456812,0.0,0.0
6255,1563.5,50.1,52.073,147.144,100.255,104.999,0.00579539,0.138336,20.8987,115.782,-0.420774,0.0,0.0
6270,1567.25,48.9204,51.5853,149.064,100.272,104.971,0.0060998,0.135776,20.9002,115.802,-0.416793,0.0,0.0
6285,1571,49.0323,51.3987,147.246,100.262,104.704,0.00661261,0.132967,20.9023,115.782,-0.394559,0.0,0.0
6300,1574.75,48.8887,50.7545,148.434,100.263,105.029,0.00697222,0.130209,20.9041,115.672,-0.42255,0.0,0.0
6315,1578.5,48.1277,50.5757,147.569,100.256,104.448,0.00689929,0.127328,20.906,115.572,-0.37273,0.0,0.0
6330,1582.25,48.1984,50.1917,149.172,100.255,105.32,0.00727573,0.124745,20.909,115.432,-0.448483,0.0,0.0
6345,1586,47.9521,49.7386,147.358,100.259,105.057,0.00741717,0.122745,20.9119,115.412,-0.425405,0.0,0.0
6360,1589.75,47.5461,49.4864,144.813,100.252,104.851,0.00722594,0.121042,20.915,115.372,-0.408139,0.0,0.0
6375,1593.5,47.2052,49.1535,145.999,100.246,104.37,0.00718758,0.11915,20.9177,115.282,-0.366885,0.0,0.0
6390,1597.25,46.494,49.1005,148.335,100.244,104.723,0.00708948,0.117892,20.9192,115.211,-0.397794,0.0,0.0
6405,1601,46.5053,48.428,148.974,100.231,104.783,0.00730102,0.116117,20.9213,115.061,-0.404193,0.0,0.0
6420,1604.75,46.0844,47.2678,148.19,100.224,104.558,0.0076477,0.11416,20.9222,115.101,-0.385198,0.0,0.0
6435,1608.5,45.7601,47.8827,152.59,100.219,104.836,0.00776105,0.112835,20.9223,115.021,-0.409894,0.0,0.0
6450,1612.25,45.6197,47.6057,146.951,100.202,104.388,0.00776274,0.11218,20.923,114.961,-0.372404,0.0,0.0
6465,1616,45.4713,47.3252,150.696,100.189,104.41,0.00767654,0.110777,20.9255,114.901,-0.375599,0.0,0.0
6480,1619.75,45.7315,47.3127,148.5,100.164,104.526,0.007577,0.109084,20.9279,114.781,-0.38789,0.0,0.0
6495,1623.5,45.0147,46.5231,145.905,100.151,104.227,0.00772181,0.107924,20.9303,114.761,-0.363097,0.0,0.0
6510,1627.25,44.9747,46.286,149.66,100.129,104.873,0.00776926,0.106653,20.9307,114.731,-0.421298,0.0,0.0
6525,1631,44.5463,45.9891,147.556,100.087,104.43,0.00758803,0.106595,20.9308,114.661,-0.386542,0.0,0.0
6540,1634.75,44.4973,45.5574,151.165,100.064,104.316,0.00743997,0.10588,20.9309,114.661,-0.378678,0.0,0.0
6555,1638.5,43.9986,45.5597,143.222,100.034,103.955,0.00752259,0.105172,20.9322,114.491,-0.349915,0.0,0.0
6570,1642.25,44.0665,44.8089,145.752,100.017,104.221,0.00776395,0.104726,20.9325,114.541,-0.374671,0.0,0.0
6585,1646,43.8755,44.5667,147.02,99.979,104.999,0.00789455,0.104323,20.9325,114.461,-0.445811,0.0,0.0
6600,1649.75,43.844,45.0254,150.308,99.9435,104.344,0.00772324,0.103673,20.9342,114.441,-0.392122,0.0,0.0
6615,1653.5,41.7275,43.2582,146.853,99.8856,104.229,0.00765916,0.102693,20.9354,114.391,-0.387374,0.0,0.0
6630,1657.25,42.138,43.0933,151.54,99.8241,103.996,0.00760244,0.101801,20.9374,114.231,-0.372589,0.0,0.0
6645,1661,41.5845,42.5238,147.398,99.7323,104.075,0.00767827,0.100995,20.9354,114.271,-0.387897,0.0,0.0
6660,1664.75,41.5959,42.422,149.599,99.6537,104.002,0.00758188,0.100534,20.9345,114.271,-0.388696,0.0,0.0
6675,1668.5,41.5833,42.3868,152.485,99.5878,103.754,0.00770338,0.100818,20.9341,114.251,-0.372978,0.0,0.0
6690,1672.25,41.8752,42.1485,149.335,99.5203,104.259,0.00758911,0.10154,20.9323,114.08,-0.423313,0.0,0.0
6705,1676,41.1737,42.367,151.404,99.464,103.446,0.00758005,0.101038,20.9318,114.01,-0.357199,0.0,0.0
6720,1679.75,41.1426,41.8935,146.957,99.4421,104.141,0.00769899,0.101164,20.9305,114.04,-0.420207,0.0,0.0
6735,1683.5,40.7074,41.6702,150.657,99.472,103.516,0.0074707,0.100941,20.9328,114,-0.362606,0.0,0.0
6750,1687.25,40.7298,41.7333,147.6,99.567,104.532,0.00735302,0.100686,20.9344,113.94,-0.44283,0.0,0.0
6765,1691,41.1008,41.3788,146.126,99.6453,104.08,0.00737332,0.100158,20.9348,113.88,-0.396275,0.0,0.0
6780,1694.75,40.9219,41.4479,150.543,99.6948,103.548,0.00712576,0.100149,20.9363,113.77,-0.345097,0.0,0.0
6795,1698.5,40.9364,41.8642,151.345,99.7575,104.252,0.00703639,0.0998602,20.9359,113.82,-0.401064,0.0,0.0
6810,1702.25,40.8657,41.1348,149.022,99.8014,104.605,0.00703178,0.0999089,20.9368,113.8,-0.427823,0.0,0.0
6825,1706,40.7416,41.4535,147.497,99.8413,103.905,0.00720511,0.0997522,20.9378,113.7,-0.363022,0.0,0.0
6840,1709.75,40.9093,41.1587,147.737,99.8573,104.777,0.00698476,0.0998332,20.9374,113.68,-0.43768,0.0,0.0
6855,1713.5,40.407,41.5725,150.927,99.8585,104.335,0.00696475,0.099561,20.9364,113.55,-0.399084,0.0,0.0
6870,1717.25,40.6007,41.4502,148.332,99.8477,104.11,0.00687294,0.100017,20.9362,113.59,-0.380407,0.0,0.0
6885,1721,40.706,40.3794,149.847,99.8118,104.417,0.00691432,0.100132,20.937,113.54,-0.410448,0.0,0.0
6900,1724.75,40.3279,41.1217,151.538,99.7223,104.218,0.00676599,0.0995759,20.9381,113.51,-0.401282,0.0,0.0
6915,1728.5,40.3236,41.5496,157.471,99.5986,103.444,0.00676797,0.0995914,20.9372,113.45,-0.344739,0.0,0.0
6930,1732.25,40.6205,40.8639,150.234,99.4317,104.023,0.00685514,0.0998889,20.9356,113.34,-0.410802,0.0,0.0
6945,1736,39.977,41.0372,150.4,99.2824,103.821,0.00678116,0.0998676,20.9357,113.37,-0.406773,0.0,0.0
6960,1739.75,40.2399,40.5227,146.729,99.1259,103.519,0.00673699,0.0997796,20.9357,113.36,-0.394607,0.0,0.0
6975,1743.5,40.6335,40.7635,149.853,99.0388,103.376,0.00706214,0.0999952,20.9361,113.34,-0.390044,0.0,0.0
6990,1747.25,40.3633,40.4283,150.543,99.0807,103.348,0.00704036,0.0998774,20.937,113.3,-0.383694,0.0,0.0
7005,1751,40.0453,40.4189,149.574,99.1119,103.41,0.00663129,0.0991641,20.937,113.18,-0.386305,0.0,0.0
7020,1754.75,40.2515,40.8307,149.721,99.1702,103.221,0.00655725,0.0990634,20.9366,113.2,-0.364296,0.0,0.0
7035,1758.5,40.7107,40.5912,153.491,99.2129,103.251,0.00632138,0.0992414,20.9365,113.17,-0.363075,0.0,0.0
7050,1762.25,40.2224,40.67,150.466,99.2652,102.783,,0.0993257,,113.12,-0.316909,0.0,0.0
7065,1766,39.7953,40.3384,151.019,99.3399,103.463,,,,113.08,-0.370111,0.0,0.0
7080,1769.75,39.7149,40.6755,150.312,99.387,103.288,,,,112.969,-0.350376,0.0,0.0
7086,1771.25,39.7166,40.5336,146.441,99.4468,103.891,,,,113.02,-0.397825,0.0,0.0