File: 01_Data/Oak_HWF/Cone/Oak_Flooring_Cone_HF50Scan_220914_R3.csv
Names,Time,Stack TC,Smoke TC,Exh Press,Smoke Comp,Smoke Meas,CO Meter,CO2 Meter,O2 Meter,Sample Mass,Ext Coeff,Start Test,Flame Verif
Chan Gain,,500,500,1,1,1,1,1,1,1,1,1.0,1.0
Offset,,0,0,0.139139,0,0,0,0,0,0,0,0.0,0.0
Gain,,1,1,25.011,13.0826,14.7555,1,1,1,1.00088,1.03743,1.0,1.0
Units,sec,C,C,Pa,%,%,%,%,%,g,/m,,
Baseline,,55.0473,56.5298,140.706,98.7674,104.964,-0.00102005,0.0477314,20.9914,-451.313,-0.553732,,
11,2.5,53.3114,54.4328,138.524,99.4995,105.657,-0.00119699,0.0565869,20.9808,207.112,-0.546442,0.0,0.0
22,5.25,52.6276,54.4911,144.501,99.5535,105.781,-0.00118554,0.0553413,20.9843,207.092,-0.552173,0.0,0.0
33,8,53.1227,54.7095,142.537,99.581,105.657,-0.000954765,0.0536276,20.9881,206.992,-0.538957,0.0,0.0
44,10.75,53.3246,54.323,136.969,99.6413,105.907,-0.000880367,0.0521218,20.9909,206.942,-0.55495,0.0,0.0
55,13.5,53.0708,54.7491,143.095,99.6992,105.926,-0.000872301,0.0508343,20.9929,206.982,-0.551367,0.0,0.0
66,16.25,53.2494,54.5555,143.708,99.7379,105.776,-0.000920886,0.0497437,20.9936,206.912,-0.534902,0.0,0.0
77,19,53.5932,54.9679,142.559,99.7646,105.893,-0.000910003,0.0493585,20.9938,206.772,-0.542529,0.0,0.0
88,21.75,53.2928,55.2453,137.556,99.7946,105.625,-0.000734869,0.0492382,20.9938,206.752,-0.516743,0.0,0.0
99,24.5,53.0963,54.7835,141.596,99.8353,105.262,-0.00056173,0.0497755,20.9934,206.722,-0.481667,0.0,0.0
110,27.25,53.8093,54.6738,138.782,99.8713,104.178,-0.000410287,0.0506659,20.9928,206.652,-0.384201,0.0,0.0
121,30,53.2706,54.9547,134.703,99.8796,105.751,0.000194609,0.0642542,20.9718,206.482,-0.519848,0.0,1.0
132,32.75,55.3223,55.5517,123.299,99.8832,101.384,0.00110599,0.146218,20.8094,206.081,-0.135741,0.0,1.0
143,35.5,57.2349,56.0266,120.168,99.892,100.146,0.00203463,0.276425,20.6155,205.601,-0.0231435,0.0,1.0
154,38.25,60.9041,58.6973,119.719,99.9311,99.7353,0.00264033,0.399537,20.4652,205.211,0.0178563,0.0,0.0
165,41,65.176,62.6437,117.717,99.9263,97.5238,0.00309518,0.493356,20.3773,204.72,0.221472,0.0,0.0
176,43.75,67.2006,64.524,116.822,99.9156,97.1262,0.00367645,0.554415,20.3233,204.13,0.257668,0.0,0.0
187,46.5,71.3395,68.5051,115.816,99.894,97.0037,0.00426348,0.597468,20.2904,203.629,0.267187,0.0,0.0
198,49.25,73.8435,70.4991,119.045,99.8653,96.5341,0.00481227,0.619539,20.2809,203.129,0.308737,0.0,0.0
209,52,76.1266,73.0718,117.955,99.8369,96.1283,0.00514463,0.624893,20.2905,202.688,0.344482,0.0,0.0
220,54.75,78.0296,75.3245,118.924,99.7842,96.2193,0.00519972,0.622387,20.3056,202.178,0.33107,0.0,0.0
231,57.5,79.58,77.3792,122.628,99.7,97.1316,0.00501086,0.615178,20.3262,201.608,0.237505,0.0,0.0
242,60.25,80.712,79.3866,122.577,99.6121,97.264,0.00476251,0.604334,20.3493,201.137,0.21709,0.0,0.0
253,63,82.1923,80.4352,120.345,99.5187,98.8477,0.00474239,0.592073,20.3682,200.737,0.0615664,0.0,0.0
264,65.75,83.1287,81.8001,122.963,99.4281,98.5744,0.00452155,0.577987,20.3907,200.316,0.0784743,0.0,0.0
275,68.5,83.7675,82.861,125.642,99.3123,98.2893,0.00431829,0.562076,20.4126,199.856,0.0942236,0.0,0.0
286,71.25,84.6909,83.7919,118.427,99.2265,98.3339,0.00410009,0.547666,20.429,199.316,0.0822282,0.0,0.0
297,74,84.727,84.5596,121.749,99.1666,99.796,0.00380196,0.534261,20.445,198.865,-0.0575829,0.0,0.0
308,76.75,85.5804,85.6127,123.847,99.2476,99.674,0.00360958,0.523615,20.459,198.525,-0.0390135,0.0,0.0
319,79.5,85.3388,86.3591,124.289,99.361,100.383,0.00346295,0.51131,20.479,198.124,-0.0931054,0.0,0.0
330,82.25,85.3981,86.5447,123.044,99.4588,100.025,0.00325288,0.497126,20.4973,197.734,-0.0516393,0.0,0.0
341,85,85.7002,87.5292,123.215,99.5171,100.711,0.00314872,0.487714,20.5061,197.254,-0.10853,0.0,0.0
352,87.75,85.7846,88.0655,126.353,99.6377,99.9942,0.00309248,0.478681,20.5193,196.933,-0.0325017,0.0,0.0
363,90.5,86.3165,88.1937,127.469,99.7255,101.002,0.00294936,0.467875,20.5314,196.563,-0.11578,0.0,0.0
374,93.25,85.2915,87.9704,129.208,99.791,101.466,0.00270218,0.456989,20.5436,196.243,-0.151501,0.0,0.0
385,96,85.4256,88.5182,123.327,99.8369,101.016,0.00256902,0.447916,20.5507,195.782,-0.106879,0.0,0.0
396,98.75,85.5501,88.7072,127.762,99.8429,101.528,0.00258005,0.440179,20.5596,195.402,-0.152341,0.0,0.0
407,101.5,84.8839,88.9439,123.112,99.8613,101.53,0.0026311,0.428485,20.5727,195.022,-0.150788,0.0,0.0
418,104.25,84.4529,88.6924,124.837,99.8796,101.756,0.00254167,0.419994,20.5808,194.742,-0.169353,0.0,0.0
429,107,84.6202,88.5925,125.787,99.8637,102.254,0.00248778,0.413602,20.5898,194.341,-0.215281,0.0,0.0
440,109.75,84.0369,88.915,126.529,99.8461,101.716,0.00239672,0.407877,20.5957,193.941,-0.168824,0.0,0.0
451,112.5,84.3909,88.8636,127.522,99.8245,102.206,0.00229811,0.402422,20.603,193.621,-0.214517,0.0,0.0
462,115.25,84.5971,88.9552,126.632,99.805,102.685,0.00222664,0.395945,20.6089,193.36,-0.258862,0.0,0.0
473,118,83.9216,88.6575,125.734,99.7886,102.492,0.00211604,0.390465,20.6128,192.96,-0.243258,0.0,0.0
484,120.75,83.6145,88.5459,126.33,99.7535,102.335,0.00221118,0.386623,20.6162,192.69,-0.232499,0.0,0.0
495,123.5,83.3259,88.3898,126.695,99.71,102.687,0.00247192,0.384439,20.6212,192.259,-0.26777,0.0,0.0
506,126.25,83.3017,88.4199,127.165,99.682,102.445,0.002555,0.379326,20.6286,191.859,-0.248786,0.0,0.0
517,129,83.288,88.2053,123.382,99.6676,102.45,0.00247908,0.374519,20.6338,191.689,-0.250538,0.0,0.0
528,131.75,82.8104,88.0203,126.345,99.6421,102.102,0.00240772,0.371872,20.6354,191.288,-0.221939,0.0,0.0
539,134.5,82.7427,88.0202,125.775,99.6185,102.844,0.00228761,0.369702,20.6374,190.898,-0.289956,0.0,0.0
550,137.25,82.9955,88.051,127.327,99.6113,101.992,0.00193991,0.369162,20.6379,190.558,-0.21495,0.0,0.0
561,140,82.6442,87.9305,129.234,99.6117,103.246,0.00173626,0.368735,20.6385,190.268,-0.326127,0.0,0.0
572,142.75,82.4479,87.7434,131.931,99.6281,102.95,0.00184809,0.36634,20.6401,190.027,-0.298479,0.0,0.0
583,145.5,82.2417,87.5376,127.01,99.6165,102.949,0.00194519,0.363607,20.644,189.717,-0.299416,0.0,0.0
594,148.25,81.9249,87.5089,128.041,99.6269,103.004,0.00212365,0.360338,20.6481,189.267,-0.303363,0.0,0.0
605,151,82.0483,86.998,124.566,99.6397,103.163,0.00210039,0.358925,20.6497,188.916,-0.316229,0.0,0.0
616,153.75,81.6634,87.2728,127.594,99.6493,103.009,0.00188402,0.357104,20.6515,188.686,-0.301799,0.0,0.0
627,156.5,81.3,87.0025,128.511,99.6864,102.249,0.00174836,0.356178,20.6524,188.356,-0.230967,0.0,0.0
638,159.25,81.5171,87.184,126.916,99.6928,103.231,0.00180122,0.354691,20.6548,188.066,-0.317377,0.0,0.0
649,162,81.5242,87.2337,133.105,99.7076,103.393,0.0018179,0.351764,20.657,187.715,-0.330268,0.0,0.0
660,164.75,81.1195,86.9868,130.666,99.7211,103.168,0.00184692,0.349842,20.6595,187.385,-0.30927,0.0,0.0
671,167.5,81.3982,86.5325,127.339,99.7615,103.323,0.00208259,0.348896,20.6618,187.145,-0.319244,0.0,0.0
682,170.25,80.9819,86.6601,129.643,99.7639,102.902,0.00214146,0.345279,20.6644,186.805,-0.281827,0.0,0.0
693,173,80.6315,86.2955,128.777,99.7826,103.828,0.00184218,0.343019,20.6659,186.454,-0.361627,0.0,0.0
704,175.75,80.7071,85.7692,126.481,99.8026,103.224,0.001587,0.343004,20.6664,186.144,-0.306725,0.0,0.0
715,178.5,80.2576,86.0428,125.774,99.815,103.013,0.00152106,0.341017,20.6693,185.844,-0.286998,0.0,0.0
726,181.25,80.3204,85.7355,128.996,99.8177,103.623,0.00163792,0.339394,20.6706,185.533,-0.340447,0.0,0.0
737,184,80.5494,85.7966,124.718,99.8333,103.326,0.00180612,0.337519,20.6699,185.303,-0.312969,0.0,0.0
748,186.75,79.9357,85.6187,125.903,99.8241,103.442,0.00170148,0.338342,20.6692,184.893,-0.323993,0.0,0.0
759,189.5,80.4124,85.5042,129.444,99.8014,103.987,0.00157225,0.337209,20.6709,184.603,-0.373837,0.0,0.0
770,192.25,79.9167,85.5954,129.086,99.797,103.203,0.0016775,0.33589,20.6746,184.352,-0.305368,0.0,0.0
781,195,80.1252,85.5348,129.335,99.7914,103.57,0.00162392,0.334421,20.6765,184.082,-0.338182,0.0,0.0
792,197.75,79.9003,85.2134,128.004,99.7663,103.469,0.00150849,0.332689,20.6786,183.742,-0.331609,0.0,0.0
803,200.5,79.824,85.268,128.37,99.7183,103.796,0.00142328,0.330324,20.6811,183.442,-0.364688,0.0,0.0
814,203.25,79.5135,84.5821,130.453,99.6644,103.434,0.00150988,0.32908,20.6832,183.161,-0.33789,0.0,0.0
825,206,79.9371,84.8081,128.175,99.6061,103.742,0.00152007,0.329441,20.6839,182.901,-0.370233,0.0,0.0
836,208.75,79.025,84.0431,127.803,99.5415,103.476,0.00130369,0.328231,20.6853,182.531,-0.352809,0.0,0.0
847,211.5,79.4054,84.2759,128.429,99.4584,103.509,0.00120255,0.326876,20.6862,182.281,-0.363255,0.0,0.0
858,214.25,79.4561,84.5499,132.022,99.3826,103.613,0.00128487,0.326704,20.6853,181.86,-0.379379,0.0,0.0
869,217,79.2409,84.4818,124.951,99.2987,103.247,0.00137739,0.325844,20.6859,181.62,-0.354808,0.0,0.0
880,219.75,79.1534,84.4914,124.271,99.2137,103.297,0.00143794,0.325159,20.6881,181.42,-0.36705,0.0,0.0
891,222.5,79.3943,84.773,131.616,99.0951,102.754,0.00132305,0.324063,20.69,181.12,-0.329924,0.0,0.0
902,225.25,78.9608,84.1377,130.19,99.1099,103.161,0.00126772,0.32292,20.6911,180.839,-0.364588,0.0,0.0
913,228,79.1078,84.1404,124.154,99.1518,103.325,0.00123079,0.322429,20.6914,180.449,-0.375147,0.0,0.0
924,230.75,79.3036,84.1112,127.527,99.2488,103.171,0.0011698,0.321316,20.6928,180.179,-0.352714,0.0,0.0
935,233.5,78.8205,83.8258,131.256,99.3343,103.311,0.00130406,0.319715,20.6936,179.979,-0.357226,0.0,0.0
946,236.25,79.0263,83.7932,128.544,99.4313,103.504,0.00121463,0.319697,20.6925,179.688,-0.365304,0.0,0.0
957,239,78.8553,83.8016,127.457,99.4952,103.947,0.00107132,0.319548,20.6936,179.238,-0.398374,0.0,0.0
968,241.75,78.8318,83.4328,127.085,99.5646,103.646,0.00114493,0.31846,20.6958,179.008,-0.36561,0.0,0.0
979,244.5,78.5605,83.6057,130.502,99.6457,103.74,0.00124763,0.31741,20.6959,178.817,-0.366425,0.0,0.0
990,247.25,78.5634,83.5322,128.602,99.7187,104.496,0.00140289,0.318003,20.697,178.517,-0.425837,0.0,0.0
1001,250,78.2616,83.5452,134.764,99.7742,104.209,0.00132876,0.316553,20.6985,178.257,-0.39572,0.0,0.0
1012,252.75,78.8526,83.411,128.665,99.797,103.669,0.00102398,0.315378,20.6989,177.847,-0.346373,0.0,0.0
1023,255.5,78.8762,83.0584,129.943,99.8293,103.907,0.000913937,0.315167,20.6991,177.596,-0.364311,0.0,0.0
1034,258.25,78.5679,83.2502,128.915,99.8421,104.043,0.000974547,0.314592,20.6991,177.406,-0.375088,0.0,0.0
1045,261,78.45,83.4926,129.763,99.8349,104.277,0.000984867,0.314152,20.6991,177.076,-0.396123,0.0,0.0
1056,263.75,78.4853,83.3119,128.51,99.8038,104.336,0.00107216,0.312659,20.6999,176.786,-0.404148,0.0,0.0
1067,266.5,78.4617,83.1781,131.943,99.7631,104.578,0.00131784,0.309307,20.7041,176.425,-0.428968,0.0,0.0
1078,269.25,78.3932,82.8555,128.934,99.6864,104.004,0.00135334,0.307963,20.7054,176.175,-0.385864,0.0,0.0
1089,272,77.8383,82.2031,131.358,99.6153,104.439,0.00129389,0.307761,20.7061,175.975,-0.430337,0.0,0.0
1100,274.75,78.6865,83.1027,128.578,99.5135,103.718,0.00130226,0.306378,20.7096,175.725,-0.376566,0.0,0.0
1111,277.5,77.8001,82.8162,130.81,99.3949,104.287,0.00125047,0.304196,20.7119,175.324,-0.43726,0.0,0.0
1122,280.25,77.8729,82.8493,131.16,99.2748,103.978,0.00112377,0.302504,20.7126,175.094,-0.421273,0.0,0.0
1133,283,78.17,82.4344,132.923,99.1658,103.395,0.00112815,0.300406,20.7145,174.854,-0.380089,0.0,0.0
1144,285.75,77.5253,81.9422,129.247,99.0751,104.037,0.00116662,0.300919,20.715,174.544,-0.444673,0.0,0.0
1155,288.5,77.7297,82.027,129.657,98.9654,103.511,0.00106132,0.300327,20.7163,174.324,-0.40868,0.0,0.0
1166,291.25,77.726,81.5721,129.507,98.9019,103.264,0.00110437,0.297862,20.7191,173.913,-0.392759,0.0,0.0
1177,294,76.9314,81.8124,129.273,98.8296,103.546,0.00134735,0.2954,20.7212,173.633,-0.424259,0.0,0.0
1188,296.75,77.3027,81.7332,129.332,98.7945,103.417,0.00140898,0.294916,20.7219,173.453,-0.41613,0.0,0.0
1199,299.5,77.2525,81.4669,129.486,98.7745,103.324,0.00134956,0.293678,20.7234,173.213,-0.409762,0.0,0.0
1210,302.25,77.3613,81.7138,129.461,98.7506,103.461,0.00130734,0.292305,20.7248,172.882,-0.424058,0.0,0.0
1221,305,77.2845,81.2858,128.8,98.711,103.256,0.00124256,0.290724,20.7248,172.542,-0.409622,0.0,0.0
1232,307.75,77.2855,81.506,129.374,98.7046,103.538,0.00130853,0.29148,20.7247,172.302,-0.435021,0.0,0.0
1243,310.5,76.7903,81.3558,131.282,98.6999,103.94,0.00131761,0.290977,20.7257,172.092,-0.470777,0.0,0.0
1254,313.25,76.5912,81.0967,127.622,98.6951,103.198,0.0012174,0.289976,20.7284,171.801,-0.406013,0.0,0.0
1265,316,76.9442,81.2226,127.048,98.6819,103.359,0.00130998,0.2891,20.7304,171.431,-0.421433,0.0,0.0
1276,318.75,76.718,81.1865,129.758,98.6731,103.846,0.00140123,0.287902,20.731,171.181,-0.465001,0.0,0.0
1287,321.5,77.0087,81.1708,125.867,98.6763,103.818,0.00134349,0.287248,20.7312,170.941,-0.462259,0.0,0.0
1298,324.25,76.2552,80.4246,130.009,98.6803,104.1,0.00143949,0.286914,20.7323,170.72,-0.486527,0.0,0.0
1309,327,76.4712,80.7623,130.157,98.6759,103.457,0.00144364,0.286378,20.7332,170.44,-0.430585,0.0,0.0
1320,329.75,76.4685,80.7052,128.05,98.6675,104.066,0.00128541,0.286486,20.7332,170.13,-0.484753,0.0,0.0
1331,332.5,76.8637,81.1261,127.58,98.6703,103.862,0.0013987,0.284798,20.7348,169.86,-0.466679,0.0,0.0
1342,335.25,76.6564,80.509,129.424,98.6783,103.367,0.00139211,0.283563,20.7354,169.679,-0.422477,0.0,0.0
1353,338,77.2736,80.831,128.705,98.6911,103.573,0.00115131,0.282465,20.7364,169.419,-0.439399,0.0,0.0
1364,340.75,76.3803,80.6467,128.541,98.6939,103.489,0.00107695,0.280785,20.7386,169.129,-0.431779,0.0,0.0
1375,343.5,76.5119,80.5515,133.22,98.6827,104.068,0.00116679,0.279253,20.7416,168.779,-0.483551,0.0,0.0
1386,346.25,76.7929,80.4055,131.483,98.6819,103.534,0.00123812,0.277214,20.7437,168.518,-0.436803,0.0,0.0
1397,349,75.804,79.5903,130.203,98.7078,103.882,0.00108736,0.276723,20.7448,168.348,-0.464954,0.0,0.0
1408,351.75,76.2756,80.2523,133.313,98.6939,103.718,0.00103003,0.276095,20.7452,168.078,-0.451872,0.0,0.0
1419,354.5,75.8225,79.4736,130.266,98.6979,104.05,0.00111917,0.274718,20.7459,167.808,-0.480577,0.0,0.0
1430,357.25,75.8844,80.4488,133.889,98.6987,103.276,0.00124266,0.274138,20.7468,167.498,-0.412549,0.0,0.0
1441,360,76.411,79.7402,130.974,98.7106,103.597,0.00114527,0.274295,20.7468,167.197,-0.439652,0.0,0.0
1452,362.75,75.1987,79.8103,133.109,98.7266,103.984,0.00112626,0.274118,20.7465,166.987,-0.472174,0.0,0.0
1463,365.5,76.5148,80.5206,129.499,98.7302,104.122,0.00125807,0.272469,20.7485,166.707,-0.483894,0.0,0.0
1474,368.25,75.297,79.3521,130.451,98.7414,103.895,0.00121916,0.270997,20.7491,166.407,-0.462967,0.0,0.0
1485,371,75.3668,80.0015,126.937,98.7322,103.983,0.00112074,0.271608,20.7482,166.156,-0.471501,0.0,0.0
1496,373.75,75.761,79.8549,131.272,98.7545,103.698,0.0010883,0.271804,20.7469,165.976,-0.4445,0.0,0.0
1507,376.5,75.4468,79.7047,130.524,98.7665,103.766,0.00110714,0.271811,20.7483,165.676,-0.449401,0.0,0.0
1518,379.25,75.5172,79.6689,133.503,98.7789,104.03,0.00107842,0.271193,20.7511,165.456,-0.471374,0.0,0.0
1529,382,75.7618,79.9677,131.793,98.7853,104.119,0.000988966,0.269275,20.7535,165.085,-0.478541,0.0,0.0
1540,384.75,75.8807,79.6596,126.513,98.7961,104.42,0.000940537,0.268942,20.7527,164.825,-0.503802,0.0,0.0
1551,387.5,75.6784,79.7047,131.411,98.8152,104.284,0.000966687,0.269327,20.7535,164.645,-0.490177,0.0,0.0
1562,390.25,75.7988,79.4218,130.008,98.8392,104.062,0.000980935,0.269369,20.7543,164.415,-0.468578,0.0,0.0
1573,393,75.5104,79.2634,131.597,98.854,104.349,0.000850706,0.26859,20.7537,164.135,-0.492308,0.0,0.0
1584,395.75,75.7418,79.0779,129.708,98.8767,104.329,0.000786042,0.268417,20.7544,163.814,-0.488485,0.0,0.0
1595,398.5,75.5262,79.0098,129.967,98.8959,104.44,0.000895976,0.268254,20.7532,163.554,-0.496418,0.0,0.0
1606,401.25,75.9094,79.0127,131.996,98.9366,104.405,0.00106028,0.26644,20.7531,163.394,-0.48961,0.0,0.0
1617,404,75.6378,79.0255,131.753,98.9777,103.969,0.00108655,0.265174,20.7531,163.124,-0.447716,0.0,0.0
1628,406.75,75.498,79.1289,131.477,99.0009,104.731,0.00103507,0.265659,20.7531,162.803,-0.512033,0.0,0.0
1639,409.5,75.9354,79.1683,128.462,99.0428,104.39,0.00102578,0.266136,20.7531,162.523,-0.478512,0.0,0.0
1650,412.25,75.1361,79.5107,129.233,99.0991,103.989,0.000881639,0.266411,20.753,162.353,-0.438337,0.0,0.0
1661,415,75.5928,79.3531,130.403,99.1562,104.228,0.000845542,0.264858,20.7541,162.073,-0.453996,0.0,0.0
1672,417.75,75.7721,78.8448,131.159,99.2081,104.708,0.000845678,0.264047,20.7544,161.873,-0.49101,0.0,0.0
1683,420.5,75.4724,79.1283,132.088,99.2596,104.548,0.00070686,0.263408,20.7553,161.522,-0.472344,0.0,0.0
1694,423.25,75.78,79.475,130.093,99.3227,104.96,0.000484739,0.262926,20.7576,161.262,-0.502356,0.0,0.0
1705,426,74.958,78.8827,129.728,99.3858,104.996,0.00047042,0.262412,20.759,161.092,-0.49974,0.0,0.0
1716,428.75,75.187,78.9097,126.049,99.4512,104.725,0.000702647,0.261646,20.7594,160.822,-0.470182,0.0,0.0
1727,431.5,75.7661,78.4132,130.547,99.5095,104.695,0.00091404,0.261584,20.7595,160.591,-0.462266,0.0,0.0
1738,434.25,75.6121,78.5877,131.494,99.5614,105.003,0.00106066,0.261301,20.7592,160.301,-0.484293,0.0,0.0
1749,437,75.2456,79.0197,131.476,99.6165,104.698,0.00107278,0.260556,20.7618,160.021,-0.4528,0.0,0.0
1760,439.75,75.2617,79.1049,129.213,99.6828,104.979,0.000959943,0.25909,20.7628,159.881,-0.471137,0.0,0.0
1771,442.5,75.4731,78.7625,132.886,99.7475,104.594,0.000978256,0.258625,20.7632,159.631,-0.431799,0.0,0.0
1782,445.25,75.2023,78.6983,126.171,99.7714,105.272,0.00108744,0.258236,20.7642,159.29,-0.488348,0.0,0.0
1793,448,75.7557,78.9063,129.706,99.817,105.447,0.00116714,0.258192,20.7649,159.06,-0.499328,0.0,0.0
1804,450.75,74.8437,78.4874,130.08,99.8373,105.135,0.00116417,0.257866,20.7652,158.87,-0.470539,0.0,0.0
1815,453.5,75.1542,78.288,131.075,99.8756,105.038,0.000998516,0.25676,20.7653,158.67,-0.458584,0.0,0.0
1826,456.25,75.4071,78.0355,131.416,99.8952,105.392,0.000729633,0.257085,20.7653,158.399,-0.487415,0.0,0.0
1837,459,74.5814,78.732,129.928,99.8964,104.809,0.000591787,0.257673,20.7653,158.079,-0.436892,0.0,0.0
1848,461.75,75.2308,78.335,129.555,99.8884,105.221,0.00054095,0.25709,20.7647,157.839,-0.473285,0.0,0.0
1859,464.5,75.1476,78.6568,128.452,99.8768,105.631,0.000507959,0.257307,20.7635,157.649,-0.509712,0.0,0.0
1870,467.25,74.7399,78.7696,132.802,99.8653,105.789,0.000449129,0.257919,20.7636,157.419,-0.524412,0.0,0.0
1881,470,74.857,78.4639,130.857,99.8341,105.236,0.000345713,0.258319,20.7636,157.148,-0.479557,0.0,0.0
1892,472.75,75.0056,78.1161,129.976,99.7826,105.215,0.000411494,0.257909,20.7636,156.818,-0.482423,0.0,0.0
1903,475.5,74.7102,78.2055,132.735,99.7279,104.775,0.000517805,0.257706,20.7632,156.568,-0.449281,0.0,0.0
1914,478.25,74.8486,78.0271,131.759,99.6764,104.861,0.000670229,0.258486,20.7629,156.398,-0.46141,0.0,0.0
1925,481,74.9228,78.1291,129.994,99.5934,104.77,0.00070464,0.258723,20.7613,156.178,-0.461136,0.0,0.0
1936,483.75,74.6103,78.8581,132.328,99.5119,104.628,0.000727396,0.259592,20.7607,155.897,-0.456214,0.0,0.0
1947,486.5,74.7413,78.4778,134.093,99.4153,104.757,0.000894018,0.259968,20.7601,155.597,-0.476326,0.0,0.0
1958,489.25,74.6607,78.0323,133.035,99.3379,104.534,0.00101629,0.260757,20.7592,155.467,-0.463957,0.0,0.0
1969,492,74.8328,78.5355,132.07,99.2632,104.853,0.00095668,0.260595,20.761,155.187,-0.49859,0.0,0.0
1980,494.75,74.6722,78.456,131.642,99.1905,104.717,0.000763431,0.26056,20.7616,154.956,-0.493404,0.0,0.0
1991,497.5,74.8922,78.3871,133.355,99.1462,104.577,0.00061449,0.2606,20.7614,154.646,-0.485332,0.0,0.0
2002,500.25,75.0041,78.5783,131.288,99.2269,104.979,0.000695803,0.261068,20.7602,154.376,-0.512779,0.0,0.0
2013,503,74.9512,77.7923,128.058,99.3566,104.764,0.000836743,0.262156,20.7598,154.216,-0.482248,0.0,0.0
2024,505.75,74.8269,78.581,131.765,99.4628,105.054,0.000827202,0.262904,20.7597,153.996,-0.497721,0.0,0.0
2035,508.5,75.2266,78.325,130.471,99.5598,104.812,0.000785503,0.263115,20.7597,153.715,-0.467877,0.0,0.0
2046,511.25,75.6745,78.1127,125.951,99.6716,105.46,0.000862064,0.262575,20.7597,153.375,-0.513675,0.0,0.0
2057,514,75.3278,78.5055,128.969,99.7643,105.155,0.000986545,0.263512,20.7591,153.145,-0.478916,0.0,0.0
2068,516.75,75.1915,78.1677,131.862,99.8361,105.417,0.00088679,0.263738,20.7588,152.975,-0.495016,0.0,0.0
2079,519.5,75.2552,78.3138,128.136,99.8804,104.883,0.00069694,0.264955,20.7567,152.724,-0.444756,0.0,0.0
2090,522.25,75.0718,78.1028,129.855,99.8868,105.401,0.00070271,0.266638,20.7549,152.444,-0.489034,0.0,0.0
2101,525,75.0092,78.682,133.523,99.874,105.405,0.000708443,0.267702,20.7543,152.174,-0.490548,0.0,0.0
2112,527.75,75.3365,78.0888,132.561,99.8337,105.434,0.000781854,0.268046,20.7526,151.894,-0.496711,0.0,0.0
2123,530.5,75.9522,78.6918,130.115,99.7746,105.133,0.000769563,0.269129,20.752,151.704,-0.47606,0.0,0.0
2134,533.25,75.694,78.6489,129.752,99.666,105.071,0.000574404,0.269021,20.7518,151.443,-0.480589,0.0,0.0
2145,536,75.4848,78.4871,129.498,99.5383,104.901,0.000427875,0.269507,20.7517,151.153,-0.477508,0.0,0.0
2156,538.75,75.4276,78.6655,129.322,99.4736,104.604,0.000289166,0.270237,20.7499,150.863,-0.457683,0.0,0.0
2167,541.5,75.5685,78.6222,130.131,99.5622,104.934,0.00023375,0.272066,20.7473,150.653,-0.478209,0.0,0.0
2178,544.25,75.9828,78.5133,135.422,99.6297,104.975,0.000292618,0.274209,20.7448,150.432,-0.475557,0.0,0.0
2189,547,75.8648,78.9519,133.665,99.6936,105.484,0.000374732,0.276331,20.7426,150.202,-0.513768,0.0,0.0
2200,549.75,76.3439,79.2125,126.826,99.7654,105.247,0.000507599,0.277167,20.7422,149.912,-0.486714,0.0,0.0
2211,552.5,76.0921,78.833,136.964,99.8617,105.398,0.0006931,0.278429,20.7424,149.662,-0.491054,0.0,0.0
2222,555.25,76.3569,78.7971,126.417,99.9407,105.265,0.000816211,0.279507,20.7411,149.442,-0.472337,0.0,0.0
2233,558,75.9943,79.1738,128.509,100.019,105.626,0.000852213,0.280393,20.7405,149.241,-0.496343,0.0,0.0
2244,560.75,75.8543,78.9723,131.538,100.073,105.383,0.000766922,0.280841,20.7397,149.021,-0.470544,0.0,0.0
2255,563.5,76.4596,78.9542,129.37,100.122,105.718,0.000541782,0.280987,20.7393,148.641,-0.49485,0.0,0.0
2266,566.25,76.2882,79.3687,131.643,100.179,105.563,0.000567155,0.280778,20.7392,148.391,-0.476394,0.0,0.0
2277,569,76.2676,79.1349,125.895,100.227,105.3,0.000705007,0.281042,20.738,148.17,-0.449306,0.0,0.0
2288,571.75,76.7313,79.5626,130.924,100.26,105.665,0.000838972,0.283065,20.7359,147.9,-0.477879,0.0,0.0
2299,574.5,76.3085,79.4715,125.899,100.284,105.237,0.000830444,0.28433,20.7341,147.62,-0.438709,0.0,0.0
2310,577.25,76.4367,79.5715,128.828,100.318,105.692,0.000592196,0.284989,20.7334,147.37,-0.474841,0.0,0.0
2321,580,76.9189,79.7367,128.902,100.308,105.267,0.00038434,0.285766,20.7328,147.13,-0.439108,0.0,0.0
2332,582.75,76.4845,79.5162,129.025,100.326,105.754,0.000323572,0.286608,20.7311,146.869,-0.479427,0.0,0.0
2343,585.5,76.6333,79.8709,130.34,100.33,105.648,0.000385911,0.288673,20.7285,146.639,-0.469993,0.0,0.0
2354,588.25,76.934,79.893,134.274,100.32,105.357,0.000522761,0.290757,20.728,146.319,-0.445768,0.0,0.0
2365,591,76.4475,80.0104,128.902,100.324,105.602,0.000483841,0.290896,20.7286,145.999,-0.466577,0.0,0.0
2376,593.75,77.3221,79.8423,127.567,100.328,105.269,0.000388805,0.293173,20.7262,145.828,-0.437453,0.0,0.0
2387,596.5,77.0735,80.1368,129.541,100.323,105.557,0.000482359,0.293403,20.7255,145.568,-0.462803,0.0,0.0
2398,599.25,77.0342,79.9946,129.259,100.321,105.435,0.000508946,0.294881,20.7253,145.318,-0.452457,0.0,0.0
2409,602,77.5421,80.3062,137.314,100.314,105.177,0.000449797,0.295769,20.7252,144.938,-0.430815,0.0,0.0
2420,604.75,77.1457,80.284,124.105,100.311,105.144,0.000294584,0.295213,20.7241,144.697,-0.428223,0.0,0.0
2431,607.5,77.6053,80.3898,125.638,100.312,105.402,0.00024758,0.297589,20.721,144.477,-0.45042,0.0,0.0
2442,610.25,77.1303,80.3847,130.189,100.329,105.74,0.000399998,0.29943,20.7181,144.187,-0.478049,0.0,0.0
2453,613,77.428,80.4232,128.754,100.32,105.618,0.000494848,0.301342,20.7157,143.897,-0.468299,0.0,0.0
2464,615.75,77.0149,80.5829,127.696,100.311,105.067,0.000492541,0.302504,20.7145,143.606,-0.421556,0.0,0.0
2475,618.5,77.8894,80.5324,132.491,100.319,105.423,0.000556717,0.302059,20.7156,143.406,-0.45163,0.0,0.0
2486,621.25,78.0724,80.7622,127.511,100.324,105.449,0.000520231,0.301867,20.7153,143.086,-0.453337,0.0,0.0
2497,624,78.243,81.224,127.949,100.33,105.215,0.00068437,0.30382,20.7125,142.726,-0.432563,0.0,0.0
2508,626.75,77.8509,80.7514,126.455,100.313,105.185,0.000860679,0.306108,20.7106,142.546,-0.431585,0.0,0.0
2519,629.5,78.075,80.8002,125.959,100.315,105.35,0.000915273,0.309092,20.7091,142.185,-0.445652,0.0,0.0
2530,632.25,77.9342,81.1375,129.247,100.308,105.424,0.000862499,0.310521,20.7085,141.995,-0.45272,0.0,0.0
2541,635,77.921,81.1435,132.423,100.309,105.055,0.000860717,0.309981,20.7087,141.725,-0.420646,0.0,0.0
2552,637.75,78.1075,81.2356,130.632,100.286,105.212,0.00097185,0.311395,20.7057,141.425,-0.436314,0.0,0.0
2563,640.5,78.2503,81.3693,129.217,100.278,104.67,0.000969752,0.314133,20.7032,141.114,-0.390095,0.0,0.0
2574,643.25,78.5269,81.5221,129.038,100.256,105.177,0.000768776,0.315357,20.7024,140.744,-0.436104,0.0,0.0
2585,646,78.4786,81.4018,127.75,100.255,105.659,0.000716222,0.314876,20.7032,140.544,-0.47777,0.0,0.0
2596,648.75,78.6146,81.6641,129.716,100.245,105.107,0.000933659,0.315557,20.702,140.304,-0.431003,0.0,0.0
2607,651.5,78.5633,81.8407,126.748,100.223,105.588,0.00105072,0.318857,20.6968,139.953,-0.474576,0.0,0.0
2618,654.25,78.6228,82.0516,130.46,100.227,104.719,0.0010001,0.322108,20.6929,139.663,-0.398928,0.0,0.0
2629,657,78.6229,81.834,128.964,100.193,105.206,0.000816689,0.323283,20.6922,139.353,-0.44425,0.0,0.0
2640,659.75,79.2563,82.3154,131.139,100.194,105.34,0.00077885,0.324017,20.6919,139.153,-0.455778,0.0,0.0
2651,662.5,79.1042,81.9664,127.825,100.147,105.194,0.00082149,0.324386,20.6909,138.832,-0.447447,0.0,0.0
2662,665.25,78.994,82.1945,130.231,100.109,104.837,0.000880749,0.326598,20.6875,138.572,-0.419911,0.0,0.0
2673,668,79.397,82.5558,125.146,100.041,104.503,0.00108536,0.329794,20.6829,138.202,-0.39707,0.0,0.0
2684,670.75,79.6176,82.2396,123.991,100.003,104.487,0.00111133,0.332582,20.6796,137.921,-0.399224,0.0,0.0
2695,673.5,79.5454,82.5026,128.326,99.9639,104.296,0.000901729,0.333988,20.6779,137.691,-0.386065,0.0,0.0
2706,676.25,79.639,82.9605,126.657,99.8956,104.4,0.000598905,0.33628,20.6729,137.381,-0.401354,0.0,0.0
2717,679,79.6046,83.104,129.802,99.8441,103.713,0.00045135,0.339202,20.67,137.001,-0.345951,0.0,0.0
2728,681.75,80.2681,83.2628,129.776,99.7798,104.424,0.000450077,0.340745,20.6679,136.67,-0.414027,0.0,0.0
2739,684.5,80.1705,83.2446,131.916,99.7112,103.692,0.000606201,0.342373,20.6654,136.45,-0.356259,0.0,0.0
2750,687.25,79.793,83.9343,126.216,99.6385,104.415,0.00071034,0.343353,20.6649,136.09,-0.426103,0.0,0.0
2761,690,80.5524,82.9826,127.105,99.5806,103.498,0.000695286,0.343873,20.6628,135.81,-0.351094,0.0,0.0
2772,692.75,80.6302,83.2233,129.142,99.5103,103.976,0.000812967,0.349127,20.6569,135.479,-0.399509,0.0,0.0
2783,695.5,80.8065,83.2657,128.504,99.45,103.96,0.00099455,0.353915,20.6533,135.139,-0.403644,0.0,0.0
2794,698.25,80.7135,83.9515,128.853,99.4213,103.571,0.000901211,0.355947,20.6523,134.909,-0.372115,0.0,0.0
2805,701,81.0437,83.8935,124.861,99.4892,103.797,0.000975497,0.358567,20.6496,134.559,-0.385784,0.0,0.0
2816,703.75,81.1087,84.148,126.373,99.6006,103.113,0.00113034,0.36064,20.6472,134.258,-0.315393,0.0,0.0
2827,706.5,81.2334,84.7146,123.044,99.6648,103.118,0.00122028,0.361464,20.6464,133.838,-0.309999,0.0,0.0
2838,709.25,81.5021,84.6614,127.564,99.7295,104.068,0.00133175,0.364299,20.642,133.598,-0.387523,0.0,0.0
2849,712,80.9989,84.1675,127.41,99.8086,103.788,0.00122153,0.367781,20.6374,133.267,-0.355786,0.0,0.0
2860,714.75,81.628,84.8503,124.981,99.8205,103.656,0.00112317,0.371524,20.6342,132.917,-0.343157,0.0,0.0
2871,717.5,81.749,84.9947,130.069,99.8213,103.078,0.00114284,0.374466,20.6323,132.597,-0.292182,0.0,0.0
2882,720.25,81.9816,85.4165,128.555,99.8002,103.595,0.00126477,0.375654,20.6299,132.266,-0.339636,0.0,0.0
2893,723,82.2447,85.6191,128.509,99.7523,103.191,0.00125553,0.37752,20.6271,131.946,-0.308454,0.0,0.0
2904,725.75,81.7679,85.0371,123.955,99.7088,103.541,0.00110551,0.380947,20.6228,131.666,-0.34319,0.0,0.0
2915,728.5,82.2265,85.8887,124.427,99.6257,103.098,0.00115189,0.384029,20.6206,131.266,-0.311744,0.0,0.0
2926,731.25,82.9222,85.8393,126.197,99.5427,102.833,0.00137546,0.385038,20.6191,130.885,-0.295971,0.0,0.0
2937,734,82.6973,86.1666,129.418,99.4409,102.768,0.00140058,0.38664,20.615,130.535,-0.299543,0.0,0.0
2948,736.75,83.3218,86.45,121.931,99.4105,102.417,0.00134175,0.391389,20.6082,130.225,-0.271125,0.0,0.0
2959,739.5,83.279,86.5775,126.263,99.351,102.709,0.00124802,0.396002,20.6028,129.904,-0.302502,0.0,0.0
2970,742.25,83.6193,86.5916,123.232,99.264,102.474,0.00116408,0.400563,20.5985,129.574,-0.289628,0.0,0.0
2981,745,83.781,86.8926,129.241,99.161,102.257,0.00126557,0.402476,20.5979,129.124,-0.279821,0.0,0.0
2992,747.75,84.1536,87.0887,126.091,99.0811,102.152,0.00137088,0.403279,20.5958,128.843,-0.277809,0.0,0.0
3003,750.5,84.3565,87.6849,125.542,99.1271,102.475,0.00159279,0.406554,20.5927,128.503,-0.302271,0.0,0.0
3014,753.25,84.0293,87.9156,127.175,99.147,102.063,0.00173018,0.407785,20.5919,128.153,-0.263815,0.0,0.0
3025,756,84.2764,87.8455,125.265,99.1642,101.226,0.00178533,0.410771,20.5878,127.732,-0.187251,0.0,0.0
3036,758.75,84.6921,88.2373,128.061,99.1837,101.402,0.00186064,0.419428,20.578,127.382,-0.201272,0.0,0.0
3047,761.5,85.0879,88.4318,126.423,99.2117,102.136,0.00191677,0.423344,20.5741,127.072,-0.264342,0.0,0.0
3058,764.25,85.2398,88.7449,124.913,99.236,101.667,0.001955,0.424792,20.5715,126.772,-0.220205,0.0,0.0
3069,767,85.3258,88.7237,125.76,99.2664,101.759,0.00214356,0.428606,20.567,126.381,-0.225722,0.0,0.0
3080,769.75,85.8984,89.1829,121.87,99.276,101.398,0.00224422,0.431761,20.5637,125.931,-0.192449,0.0,0.0
3091,772.5,86.1111,89.1695,124.474,99.2728,101.708,0.00212611,0.435201,20.5599,125.531,-0.220505,0.0,0.0
3102,775.25,86.2471,89.4302,123.19,99.2832,101.332,0.00195856,0.437623,20.5582,125.17,-0.185929,0.0,0.0
3113,778,86.677,90.3468,126.877,99.2832,101.331,0.00174398,0.439198,20.556,124.89,-0.185807,0.0,0.0
3124,780.75,86.5204,90.4866,125.522,99.2664,101.177,0.00171425,0.439041,20.5554,124.48,-0.173463,0.0,0.0
3135,783.5,86.9979,90.6469,127.071,99.246,101.254,0.00199133,0.43945,20.5542,124.009,-0.182294,0.0,0.0
3146,786.25,87.0826,90.9502,122.745,99.2317,101.249,0.00230017,0.442717,20.5497,123.709,-0.183166,0.0,0.0
3157,789,87.752,91.3273,123.565,99.2297,100.703,0.00247134,0.445949,20.5455,123.449,-0.134082,0.0,0.0
3168,791.75,87.2538,90.9232,122.58,99.2157,100.649,0.00242907,0.448649,20.5441,123.038,-0.13056,0.0,0.0
3179,794.5,87.7824,91.7684,129.448,99.1857,101.05,0.0023986,0.448673,20.5433,122.648,-0.169471,0.0,0.0
3190,797.25,88.0003,91.7735,124.385,99.1698,101.26,0.00247448,0.447934,20.5448,122.198,-0.189774,0.0,0.0
3201,800,87.6884,91.6875,124.188,99.1706,101.207,0.00257147,0.445678,20.5471,121.887,-0.184964,0.0,0.0
3212,802.75,87.1905,91.2736,124.067,99.165,100.457,0.00246154,0.446493,20.5451,121.577,-0.11777,0.0,0.0
3223,805.5,88.1626,91.8828,126.209,99.1378,101.048,0.00229047,0.448441,20.5429,121.167,-0.173706,0.0,0.0
3234,808.25,87.6367,91.1842,119.83,99.1326,100.939,0.00210103,0.448432,20.5433,120.736,-0.164363,0.0,0.0
3245,811,88.329,92.2721,124.196,99.1243,100.485,0.00199843,0.448318,20.5457,120.336,-0.124118,0.0,0.0
3256,813.75,88.008,92.1096,124.51,99.1227,99.7933,0.00220033,0.448594,20.5464,120.066,-0.061367,0.0,0.0
3267,816.5,88.5091,92.5503,126.239,99.1554,100.62,0.00238881,0.44768,20.5459,119.685,-0.133404,0.0,0.0
3278,819.25,88.5081,93.0391,126.303,99.1857,100.725,0.00256198,0.445401,20.5457,119.315,-0.140185,0.0,0.0
3289,822,88.5885,93.0447,125.72,99.2173,100.577,0.00269168,0.445413,20.5436,118.855,-0.123897,0.0,0.0
3300,824.75,88.8431,92.5938,123.339,99.2468,100.33,0.00260586,0.446816,20.5418,118.474,-0.098791,0.0,0.0
3311,827.5,88.6272,93.1273,122.065,99.2919,100.609,0.0023432,0.446827,20.5413,118.204,-0.119903,0.0,0.0
3322,830.25,88.8865,92.8909,125.406,99.3207,100.277,0.00226554,0.447143,20.5411,117.864,-0.0872415,0.0,0.0
3333,833,88.6757,93.1964,124.247,99.3446,100.653,0.00232041,0.447001,20.541,117.443,-0.119024,0.0,0.0
3344,835.75,88.6509,93.3827,121.306,99.3678,99.9879,0.00222337,0.446387,20.5428,117.053,-0.0566118,0.0,0.0
3355,838.5,88.5808,93.5649,123.485,99.4001,100.496,0.00210603,0.447007,20.543,116.753,-0.0997632,0.0,0.0
3366,841.25,88.8435,93.4931,127.456,99.4325,100.542,0.00215885,0.447818,20.5419,116.403,-0.101002,0.0,0.0
3377,844,89.2931,93.001,124.411,99.4552,99.9672,0.00221801,0.448121,20.5428,116.092,-0.0467223,0.0,0.0
3388,846.75,89.3881,93.1958,126.275,99.464,99.5759,0.00227012,0.446241,20.5436,115.682,-0.010226,0.0,0.0
3399,849.5,89.0275,93.2561,123.044,99.4768,100.447,0.00233869,0.446747,20.5424,115.272,-0.0883429,0.0,0.0
3410,852.25,88.8092,93.8079,123.788,99.5007,100.082,0.00245348,0.448664,20.5406,114.971,-0.0530053,0.0,0.0
3421,855,88.9282,93.8476,120.817,99.5123,100.414,0.00255015,0.449855,20.5376,114.651,-0.0820732,0.0,0.0
3432,857.75,89.5354,93.9119,122.935,99.5343,100.885,0.0026672,0.449003,20.5376,114.261,-0.122693,0.0,0.0
3443,860.5,89.3347,94.0412,124.317,99.5554,100.592,0.00278702,0.44668,20.5409,113.81,-0.0942365,0.0,0.0
3454,863.25,89.1973,94.5873,123.795,99.5894,101.164,0.00284076,0.447099,20.5413,113.46,-0.142726,0.0,0.0
3465,866,89.4779,94.2196,124.659,99.6265,100.005,0.00270656,0.445968,20.5413,113.19,-0.0345471,0.0,0.0
3476,868.75,90.0384,93.7314,123.192,99.6581,100.115,0.00259062,0.44671,20.5405,112.819,-0.0416184,0.0,0.0
3487,871.5,89.4991,94.5355,123.822,99.6732,100.703,0.00259226,0.44684,20.5403,112.469,-0.0934928,0.0,0.0
3498,874.25,89.7747,94.33,123.324,99.6984,101.051,0.00270112,0.445505,20.5416,112.059,-0.122598,0.0,0.0
3509,877,89.4472,94.5129,120.203,99.7271,100.638,0.00268626,0.44482,20.5422,111.748,-0.0827119,0.0,0.0
3520,879.75,89.8297,94.4378,120.756,99.7714,101.051,0.00257074,0.443443,20.5434,111.438,-0.116013,0.0,0.0
3531,882.5,89.5985,94.4501,129.787,99.7942,100.946,0.00255252,0.442026,20.545,111.128,-0.104443,0.0,0.0
3542,885.25,89.8665,94.4364,123.693,99.8182,100.426,0.00255452,0.440379,20.546,110.687,-0.0552092,0.0,0.0
3553,888,89.9142,94.4445,126.103,99.8329,100.297,0.00261527,0.439418,20.5463,110.277,-0.0422259,0.0,0.0
3564,890.75,90.1227,94.8451,122.189,99.8804,101.181,0.00268093,0.439199,20.5464,110.037,-0.117708,0.0,0.0
3575,893.5,89.6372,94.417,123.5,99.88,100.691,0.00277234,0.437145,20.5497,109.737,-0.0735721,0.0,0.0
3586,896.25,89.8592,94.1638,121.348,99.8872,100.97,0.0026422,0.432066,20.556,109.396,-0.0981149,0.0,0.0
3597,899,89.7505,94.6768,124.552,99.8764,100.617,0.00236632,0.426744,20.5611,109.006,-0.067223,0.0,0.0
3608,901.75,89.3099,94.3655,121.218,99.8569,100.582,0.00211287,0.42506,20.5612,108.656,-0.065828,0.0,0.0
3619,904.5,89.4161,94.413,128.154,99.8397,100.984,0.00209707,0.423185,20.563,108.435,-0.103743,0.0,0.0
3630,907.25,89.2614,93.877,124.152,99.7786,101.021,0.00216866,0.419089,20.567,108.125,-0.112599,0.0,0.0
3641,910,89.2147,94.1809,129.647,99.696,100.852,0.00217133,0.415271,20.5714,107.775,-0.104875,0.0,0.0
3652,912.75,89.2417,94.0656,125.369,99.5682,100.477,0.00200887,0.409981,20.5774,107.465,-0.0826747,0.0,0.0
3663,915.5,89.0835,94.4222,123.558,99.4776,99.8442,0.00202242,0.405678,20.5824,107.174,-0.0334789,0.0,0.0
3674,918.25,88.8514,93.7738,125.167,99.5546,101.311,0.00212461,0.401091,20.587,106.884,-0.159177,0.0,0.0
3685,921,88.8303,93.8216,123.447,99.6165,100.277,0.00206962,0.396254,20.5924,106.614,-0.060134,0.0,0.0
3696,923.75,88.4393,93.4821,122.804,99.7052,101.776,0.00210893,0.391544,20.5991,106.254,-0.187035,0.0,0.0
3707,926.5,88.1305,93.3979,129.216,99.7978,101.534,0.00219969,0.386198,20.6052,105.973,-0.156938,0.0,0.0
3718,929.25,88.1542,92.901,123.58,99.9164,101.81,0.002215,0.381414,20.6109,105.753,-0.170838,0.0,0.0
3729,932,87.7949,92.8968,128.203,100.025,101.834,0.0022076,0.375526,20.6193,105.513,-0.163126,0.0,0.0
3740,934.75,87.5238,92.7021,125.011,100.115,102.165,0.00221056,0.369569,20.6264,105.253,-0.184449,0.0,0.0
3751,937.5,86.8579,92.8917,124.422,100.201,101.94,0.00190617,0.363857,20.6319,104.912,-0.156577,0.0,0.0
3762,940.25,87.3016,92.0768,122.888,100.267,102.217,0.00164056,0.358771,20.6366,104.712,-0.175317,0.0,0.0
3773,943,87.2295,91.3638,125.576,100.349,103.241,0.00154236,0.352622,20.6442,104.482,-0.258571,0.0,0.0
3784,945.75,86.5105,91.9595,129.85,100.371,102.655,0.00154413,0.347736,20.6491,104.222,-0.204789,0.0,0.0
3795,948.5,86.471,91.3715,126.631,100.369,103.611,0.00155663,0.343021,20.6536,103.972,-0.289329,0.0,0.0
3806,951.25,86.0349,91.3685,126.453,100.345,103.384,0.00141377,0.338516,20.6586,103.671,-0.271543,0.0,0.0
3817,954,86.1576,91.274,123.005,100.304,103.317,0.00133919,0.331509,20.6677,103.521,-0.269365,0.0,0.0
3828,956.75,85.7831,90.5962,125.513,100.233,103.697,0.00121686,0.323908,20.6765,103.291,-0.309117,0.0,0.0
3839,959.5,85.3343,90.1522,130.625,100.142,104.017,0.000981475,0.316925,20.685,103.081,-0.345515,0.0,0.0
3850,962.25,84.6992,90.1002,127.79,99.9771,103.649,0.000972875,0.310295,20.6916,102.841,-0.328229,0.0,0.0
3861,965,84.4014,89.5416,125.846,99.8098,103.052,0.00107712,0.304741,20.6964,102.6,-0.290891,0.0,0.0
3872,967.75,83.9511,89.3926,127.503,99.6457,103.88,0.0010346,0.298697,20.703,102.42,-0.378741,0.0,0.0
3883,970.5,83.2969,89.3643,129.647,99.4684,103.671,0.000835028,0.29361,20.7077,102.27,-0.376583,0.0,0.0
3894,973.25,83.5127,88.5294,128.061,99.2812,103.769,0.000835093,0.288894,20.712,102.06,-0.402343,0.0,0.0
3905,976,83.292,87.6235,128.612,99.1147,103.357,0.00092945,0.282833,20.7188,101.83,-0.381411,0.0,0.0
3916,978.75,82.5909,87.7892,133.823,98.9761,103.572,0.000951606,0.277116,20.7266,101.65,-0.413071,0.0,0.0
3927,981.5,81.9516,87.4399,128.742,98.8955,103.612,0.000909793,0.269558,20.7354,101.539,-0.423971,0.0,0.0
3938,984.25,81.8795,87.1963,130.368,98.8847,103.369,0.000796572,0.26232,20.7427,101.369,-0.40362,0.0,0.0
3949,987,81.3519,86.6417,127.693,98.81,103.968,0.000794903,0.256661,20.7499,101.229,-0.463028,0.0,0.0
3960,989.75,80.9594,86.1073,130.446,98.7482,103.261,0.000925642,0.249683,20.7575,101.019,-0.406636,0.0,0.0
3971,992.5,79.9072,85.5563,131.356,98.7426,103.64,0.000868729,0.242772,20.765,100.889,-0.440505,0.0,0.0
3982,995.25,79.485,84.8706,132.456,98.7545,103.999,0.000748332,0.235167,20.7727,100.769,-0.47086,0.0,0.0
3993,998,79.1846,84.0714,130.788,98.7849,104.018,0.000688039,0.228548,20.7802,100.639,-0.469758,0.0,0.0
4004,1000.75,78.6357,83.7703,129.308,98.8464,104.035,0.000665501,0.221869,20.7885,100.468,-0.465593,0.0,0.0
4015,1003.5,78.3622,83.3917,127.963,98.923,104.205,0.000540893,0.215304,20.7966,100.328,-0.473336,0.0,0.0
4026,1006.25,77.8578,82.8983,129.689,99.024,104.561,0.000471515,0.209528,20.8029,100.248,-0.495103,0.0,0.0
4037,1009,77.2379,82.2063,131.491,99.141,105.097,0.000601374,0.202708,20.8116,100.208,-0.530955,0.0,0.0
4048,1011.75,77.0805,82.1169,131.157,99.2544,105.281,0.000787927,0.195849,20.8191,100.078,-0.536448,0.0,0.0
4059,1014.5,76.5156,81.093,134.277,99.3794,105.331,0.000831708,0.189641,20.8272,99.908,-0.529277,0.0,0.0
4070,1017.25,76.1052,80.6526,130.599,99.4964,105.398,0.000802693,0.18309,20.8329,99.7879,-0.524367,0.0,0.0
4081,1020,75.1538,80.4477,133.351,99.6077,105.661,0.000651671,0.177091,20.8379,99.8179,-0.536862,0.0,0.0
4092,1022.75,74.3781,79.2664,136.618,99.7259,105.878,0.000538271,0.171142,20.8442,99.7378,-0.544746,0.0,0.0
4103,1025.5,74.068,79.1027,135.622,99.7914,105.555,0.00064099,0.165899,20.8501,99.6177,-0.511018,0.0,0.0
4114,1028.25,73.8509,78.5727,133.481,99.8381,105.77,0.000790032,0.161237,20.8553,99.4676,-0.525259,0.0,0.0
4125,1031,73.2738,77.9574,136.575,99.906,105.982,0.000816923,0.157132,20.8611,99.3775,-0.537266,0.0,0.0
4136,1033.75,72.8498,77.3075,134.358,99.9407,105.941,0.000742492,0.152044,20.8668,99.4176,-0.530583,0.0,0.0
4147,1036.5,71.9859,76.705,132.301,99.9547,105.993,0.000838256,0.147123,20.8714,99.3375,-0.533758,0.0,0.0
4158,1039.25,71.5861,76.3329,137.761,99.9447,105.937,0.000945855,0.143159,20.8762,99.2074,-0.529872,0.0,0.0
4169,1042,71.1729,75.8811,133.178,99.8984,106.026,0.00104977,0.139877,20.8795,99.1073,-0.541784,0.0,0.0
4180,1044.75,70.9078,75.1346,134.216,99.8537,106.196,0.00120927,0.137193,20.8823,99.1373,-0.560379,0.0,0.0
4191,1047.5,70.527,75.1058,133.671,99.7942,105.856,0.00157142,0.135458,20.8841,99.1073,-0.536621,0.0,0.0
4202,1050.25,70.0457,74.3264,135.374,99.6848,105.543,0.0019426,0.134129,20.887,99.0672,-0.519658,0.0,0.0
4213,1053,69.7992,73.7987,136.84,99.585,105.84,0.00191291,0.132625,20.8888,98.9572,-0.554364,0.0,0.0
4224,1055.75,69.0845,73.0579,140.226,99.4756,105.458,0.00177226,0.131438,20.8894,98.8871,-0.531474,0.0,0.0
4235,1058.5,68.7898,72.9898,135.416,99.3925,105.263,0.00176951,0.131161,20.8896,98.9271,-0.522234,0.0,0.0
4246,1061.25,68.6846,72.5558,133.796,99.2879,105.425,0.00178148,0.129776,20.8911,98.8871,-0.545781,0.0,0.0
4257,1064,67.8428,71.8446,135.161,99.1973,105.538,0.00170618,0.128421,20.892,98.8671,-0.563882,0.0,0.0
4268,1066.75,67.6911,71.5958,137.779,99.252,105.686,0.00176065,0.128302,20.8946,98.6769,-0.571553,0.0,0.0
4279,1069.5,67.2709,71.2448,137.84,99.4089,105.728,0.00169316,0.128116,20.8955,98.6469,-0.560822,0.0,0.0
4290,1072.25,67.2465,70.6393,135.673,99.5363,105.358,0.00153557,0.127109,20.8974,98.7169,-0.517294,0.0,0.0
4301,1075,66.9903,70.5421,139.465,99.6405,105.894,0.00150968,0.126354,20.8978,98.6769,-0.5539,0.0,0.0
4312,1077.75,66.7275,70.083,134.079,99.7487,106.168,0.0014808,0.125799,20.8976,98.5268,-0.567599,0.0,0.0
4323,1080.5,66.994,69.8224,140.687,99.8126,105.899,0.00144371,0.126045,20.8969,98.5068,-0.538662,0.0,0.0
4334,1083.25,66.6873,69.6629,131.78,99.8637,105.886,0.00147872,0.126507,20.8976,98.5468,-0.532921,0.0,0.0
4345,1086,66.462,69.2145,138.199,99.9048,105.607,0.00161925,0.126102,20.8991,98.5268,-0.50511,0.0,0.0
4356,1088.75,66.0262,69.1246,137.23,99.89,106.515,0.00183496,0.125371,20.8994,98.5168,-0.584386,0.0,0.0
4367,1091.5,65.8148,69.0173,138.646,99.8393,106.17,0.00198721,0.124938,20.8992,98.3366,-0.559489,0.0,0.0
4378,1094.25,65.8767,68.7445,137.398,99.7822,106.273,0.00208928,0.124113,20.8991,98.2766,-0.573491,0.0,0.0
4389,1097,65.8213,68.0613,136.547,99.6996,105.496,0.00202497,0.123784,20.8987,98.3466,-0.51427,0.0,0.0
4400,1099.75,65.6197,67.9698,137.64,99.6089,106.018,0.00204988,0.124402,20.8984,98.3366,-0.567495,0.0,0.0
4411,1102.5,65.5916,68.1416,138.62,99.5055,105.795,0.00204384,0.123921,20.8995,98.2866,-0.557755,0.0,0.0
4422,1105.25,65.192,67.3605,136.466,99.5207,105.248,0.00205018,0.123167,20.9002,98.1464,-0.509222,0.0,0.0
4433,1108,65.2426,67.4793,133.815,99.5598,106.027,0.00210351,0.12325,20.9005,98.0764,-0.572755,0.0,0.0
4444,1110.75,65.0035,67.1264,131.116,99.6141,105.76,0.00209094,0.122642,20.9004,98.1564,-0.544845,0.0,0.0
4455,1113.5,64.7488,67.0039,141.555,99.6716,106.069,0.00208314,0.122773,20.9,98.0964,-0.566137,0.0,0.0
4466,1116.25,64.4866,66.4739,135.999,99.7239,105.723,0.00211343,0.122757,20.8998,97.9963,-0.531604,0.0,0.0
4477,1119,64.24,66.7777,135.606,99.7774,106.174,0.00213086,0.122107,20.902,97.9563,-0.565479,0.0,0.0
4488,1121.75,64.174,66.4183,134.517,99.8481,105.995,0.0021752,0.122025,20.9018,97.9362,-0.543701,0.0,0.0
4499,1124.5,62.6114,65.1793,132.046,99.9088,106.382,0.0023297,0.122256,20.9014,97.9563,-0.57132,0.0,0.0
4510,1127.25,62.0907,64.5067,135.712,99.9455,106.31,0.00235886,0.121916,20.9025,97.9262,-0.56181,0.0,0.0
4521,1130,62.6541,64.5233,137.37,99.9651,106.356,0.00235581,0.120844,20.9051,97.8161,-0.563922,0.0,0.0
4532,1132.75,62.2562,64.4095,137.612,100.003,106.121,0.002455,0.120022,20.9064,97.7361,-0.540448,0.0,0.0
4543,1135.5,61.9171,63.6063,139.846,100.017,105.879,0.00258872,0.120523,20.9051,97.7661,-0.518266,0.0,0.0
4554,1138.25,61.8075,64.1618,137.579,100.051,106.509,0.00256217,0.119999,20.9046,97.7661,-0.56924,0.0,0.0
4565,1141,62.3997,63.5716,138.052,100.074,106.631,0.00238634,0.120471,20.9033,97.716,-0.577552,0.0,0.0
4576,1143.75,61.756,63.613,135.474,100.041,105.846,0.00218112,0.12027,20.9039,97.606,-0.513298,0.0,0.0
4587,1146.5,61.7213,63.5754,137.275,100.054,106.287,0.00204061,0.119806,20.9044,97.5259,-0.549959,0.0,0.0
4598,1149.25,61.6755,63.5268,137.187,100.071,106.364,0.00211981,0.118844,20.906,97.606,-0.554952,0.0,0.0
4609,1152,61.3355,63.4799,133.797,100.061,106.18,0.00236636,0.118842,20.9051,97.5959,-0.540089,0.0,0.0
4620,1154.75,60.9373,62.977,136.98,100.052,106.492,0.00247287,0.119579,20.9046,97.4658,-0.56763,0.0,0.0
4631,1157.5,61.5096,63.0523,138.719,100.015,106.3,0.00241617,0.118672,20.9047,97.4158,-0.554603,0.0,0.0
4642,1160.25,60.7552,62.6629,142.273,100.007,106.381,0.0024116,0.117834,20.9063,97.4258,-0.562302,0.0,0.0
4653,1163,61.5888,62.9353,138.764,99.9918,105.999,0.0025528,0.118027,20.9068,97.4658,-0.530881,0.0,0.0
4664,1165.75,61.0941,62.7845,136.991,99.9675,106.514,0.00254645,0.118027,20.907,97.4158,-0.577256,0.0,0.0
4675,1168.5,60.3928,62.2076,136.554,99.9279,106.27,0.00241041,0.118113,20.9071,97.3257,-0.559978,0.0,0.0
4686,1171.25,61.2517,62.6091,135.415,99.89,106.029,0.00232113,0.11817,20.9071,97.2657,-0.54278,0.0,0.0
4697,1174,60.7103,62.5081,136.488,99.8421,106.092,0.00227566,0.117715,20.9071,97.3457,-0.552516,0.0,0.0
4708,1176.75,61.2687,62.2159,135.507,99.8146,105.836,0.00237063,0.117857,20.9071,97.3157,-0.533061,0.0,0.0
4719,1179.5,61.1095,62.5325,141.087,99.7762,105.809,0.00252091,0.117565,20.9071,97.2356,-0.534233,0.0,0.0
4730,1182.25,60.5521,62.4527,139.868,99.7247,105.534,0.00262912,0.11721,20.9075,97.0355,-0.515238,0.0,0.0
4741,1185,60.655,62.2211,137.769,99.6832,105.722,0.00252263,0.116668,20.9085,97.1055,-0.535282,0.0,0.0
4752,1187.75,60.9755,61.9898,137.658,99.6453,106.138,0.00241237,0.11676,20.9088,97.1355,-0.574451,0.0,0.0
4763,1190.5,60.6299,61.9092,132.134,99.6133,105.833,0.00226991,0.116326,20.9093,97.1055,-0.551155,0.0,0.0
4774,1193.25,60.2819,62.2172,140.535,99.5523,105.509,0.00211779,0.116404,20.9097,97.0955,-0.528815,0.0,0.0
4785,1196,60.6362,62.3347,143.638,99.5019,105.803,0.00215379,0.116501,20.9098,97.0054,-0.558742,0.0,0.0
4796,1198.75,60.3928,61.7408,134.654,99.4748,105.47,0.00238186,0.11636,20.9108,96.9354,-0.532596,0.0,0.0
4807,1201.5,60.2538,61.9618,140.91,99.5467,105.799,0.00258651,0.116067,20.9117,97.0255,-0.554305,0.0,0.0
4818,1204.25,60.1071,61.5431,133.471,99.6293,105.901,0.00259053,0.116198,20.9113,96.9654,-0.555579,0.0,0.0
4829,1207,60.3059,61.2776,136.502,99.71,106.124,0.00264392,0.115836,20.9102,96.8653,-0.56735,0.0,0.0
4840,1209.75,59.9954,60.969,139.803,99.7559,105.742,0.00259197,0.116005,20.9085,96.7752,-0.530318,0.0,0.0
4851,1212.5,59.8483,61.1001,139.104,99.8281,105.634,0.00244013,0.116526,20.9071,96.8853,-0.514422,0.0,0.0
4862,1215.25,59.3967,61.2383,137.91,99.8589,106.157,0.00241569,0.116402,20.9082,96.9154,-0.556626,0.0,0.0
4873,1218,60.076,61.1045,136.134,99.8681,105.993,0.00263969,0.115689,20.9086,96.8053,-0.541688,0.0,0.0
4884,1220.75,59.8436,60.8797,135.186,99.8465,106.169,0.00292189,0.115775,20.9076,96.6551,-0.558718,0.0,0.0
4895,1223.5,59.5173,60.844,139.073,99.8018,105.359,0.00296454,0.115458,20.9068,96.6351,-0.49313,0.0,0.0
4906,1226.25,59.5426,60.8067,137.952,99.7419,106.048,0.00295185,0.115626,20.9066,96.7752,-0.557868,0.0,0.0
4917,1229,59.7917,60.5674,137.624,99.6241,105.857,0.00294654,0.11639,20.9077,96.6952,-0.552222,0.0,0.0
4928,1231.75,59.3978,61.4372,139.192,99.5323,105.6,0.00292783,0.116121,20.9093,96.6751,-0.538561,0.0,0.0
4939,1234.5,59.6013,60.4516,137.824,99.4185,105.735,,0.115568,,96.535,-0.560565,0.0,0.0
4950,1237.25,59.2804,60.5418,140.405,99.2955,105.402,,,,96.535,-0.543103,0.0,0.0
4961,1240,59.3245,60.5844,138.0625,99.1726,105.777,,,,96.5951,-0.586748,0.0,0.0
4972,1242.75,59.08,60.675,138.758,99.1989,105.549,,,,96.465,-0.564667,0.0,0.0
4975,1243.5,58.8481,60.3378,142.145,99.2197,105.36,,,,96.4349,-0.546403,0.0,0.0