File: 01_Data/Eucalyptus_Flooring/Cone/Eucalyptus_Flooring_Cone_HF25Scan_220526_R3.csv
Names,Time,Stack TC,Smoke TC,Exh Press,Smoke Comp,Smoke Meas,CO Meter,CO2 Meter,O2 Meter,Sample Mass,Ext Coeff,Start Test,Flame Verif
Chan Gain,,500,500,1,1,1,1,1,1,1,1,1.0,1.0
Offset,,0,0,0.138731,0,0,0,0,0,0,0,0.0,0.0
Gain,,1,1,25.011,13.8491,15.2622,1,1,1,1.00087,1.03118,1.0,1.0
Units,sec,C,C,Pa,%,%,%,%,%,g,/m,,
Baseline,,25.856,26.7095,146.347,104.869,105.995,0.0010802,0.047864,20.9938,-450.995,-0.0966004,,
17,4,22.9052,23.881,146.466,104.968,105.823,0.00136446,0.0530987,20.9932,208.512,-0.0733811,0.0,0.0
34,8.25,23.1567,24.0746,144.188,104.994,105.621,0.00148394,0.0503504,20.9964,208.502,-0.0538249,0.0,0.0
51,12.5,22.9998,23.9208,147.948,104.987,105.904,0.00117951,0.0489525,20.9982,208.492,-0.0786273,0.0,0.0
68,16.75,23.0338,23.5262,145.72,104.985,105.788,0.00107899,0.0484639,20.9986,208.461,-0.0689741,0.0,0.0
85,21,23.2223,23.6813,146.411,104.98,106.011,0.00087239,0.0480124,20.999,208.421,-0.0884673,0.0,0.0
102,25.25,23.3591,24.0444,146.03,104.969,105.697,0.000962859,0.0479919,20.9993,208.471,-0.0624761,0.0,0.0
119,29.5,23.4623,23.6918,145.814,104.97,105.729,0.00101982,0.0476817,20.9992,208.471,-0.0651529,0.0,0.0
136,33.75,23.2776,24.0724,150.86,104.947,105.97,0.0010965,0.0477143,20.9986,208.391,-0.0877339,0.0,0.0
153,38,23.62,24.334,147.811,104.956,106.349,0.000993394,0.0476213,20.9977,208.401,-0.119238,0.0,0.0
170,42.25,23.3472,23.9718,144.432,104.948,105.998,0.00086955,0.0478538,20.9971,208.341,-0.0900463,0.0,0.0
187,46.5,23.1983,24.0569,147.061,104.922,105.666,0.000830979,0.0477093,20.9974,208.261,-0.0638486,0.0,0.0
204,50.75,23.9869,24.4882,146.595,104.931,105.894,0.000958378,0.0476787,20.9975,208.211,-0.0826724,0.0,0.0
221,55,24.1947,24.2022,144.639,104.922,105.901,0.00112185,0.0477952,20.9959,208.181,-0.0839614,0.0,0.0
238,59.25,23.6277,24.2704,142.5,104.915,106.273,0.000857846,0.0477903,20.9953,208.081,-0.116273,0.0,0.0
255,63.5,24.3943,24.5325,143.988,104.892,105.941,0.000883138,0.0478773,20.9952,208.001,-0.0900028,0.0,0.0
272,67.75,23.9796,25.073,146.089,104.871,105.524,0.00128798,0.0478742,20.9976,207.991,-0.0560891,0.0,0.0
289,72,24.0173,24.4046,142.889,104.851,106.845,0.00119391,0.0479845,20.9977,207.921,-0.170365,0.0,0.0
306,76.25,23.7503,25.2766,151.719,104.809,105.655,0.00114854,0.0481355,20.9973,207.811,-0.0727784,0.0,0.0
323,80.5,24.167,24.776,140.024,104.792,106.204,0.00130892,0.0481434,20.9956,207.781,-0.12109,0.0,0.0
340,84.75,24.5793,25.3065,146.35,104.787,106.453,0.00111982,0.0483188,20.9956,207.731,-0.142689,0.0,0.0
357,89,24.1829,25.1335,146.391,104.769,105.832,0.00097549,0.0483181,20.9977,207.601,-0.0913446,0.0,0.0
374,93.25,24.7005,25.0497,143.866,104.76,105.786,0.000893138,0.0483425,20.9991,207.601,-0.0881722,0.0,0.0
391,97.5,24.3642,25.4543,146.764,104.756,106.169,0.00108694,0.0485761,20.9994,207.541,-0.121139,0.0,0.0
408,101.75,24.5532,24.8219,142.812,104.726,106.198,0.00124367,0.048771,20.9994,207.411,-0.126227,0.0,0.0
425,106,24.4627,25.3053,145.796,104.72,105.784,0.00136135,0.0489364,20.9994,207.361,-0.0914775,0.0,0.0
442,110.25,24.6351,25.0283,141.743,104.715,106.114,0.00136034,0.0491646,20.9979,207.31,-0.120072,0.0,0.0
459,114.5,24.6979,25.0304,146.793,104.688,106.077,0.00137513,0.0492397,20.9988,207.25,-0.119235,0.0,0.0
476,118.75,24.6466,25.2463,146.189,104.653,106.114,0.00132409,0.0496233,20.9978,207.16,-0.1254,0.0,0.0
493,123,24.4365,25.6813,144.203,104.644,105.404,0.00172045,0.0499151,20.9972,207.1,-0.0654967,0.0,0.0
510,127.25,24.8704,25.7523,148.431,104.61,105.16,0.00190147,0.0501224,20.9971,206.98,-0.0474104,0.0,0.0
527,131.5,24.9869,25.7487,145.821,104.548,105.749,0.0017951,0.0503368,20.9971,206.88,-0.10336,0.0,0.0
544,135.75,25.1225,25.5809,142.974,104.506,105.236,0.00173796,0.0506202,20.9975,206.83,-0.0630097,0.0,0.0
561,140,24.8462,25.813,140.608,104.474,105.843,0.00190125,0.0510239,20.9982,206.74,-0.117693,0.0,0.0
578,144.25,25.1572,25.8872,146.673,104.447,105,0.0021769,0.0511047,20.9978,206.61,-0.0477763,0.0,0.0
595,148.5,25.1332,26.1878,139.707,104.445,105.336,0.00217,0.0512367,20.9978,206.58,-0.0768822,0.0,0.0
612,152.75,25.0611,26.0505,147.562,104.626,104.968,0.00222901,0.0514402,20.9978,206.52,-0.0295777,0.0,0.0
629,157,24.9868,25.9915,145.589,104.774,104.983,0.00207799,0.051707,20.9975,206.4,-0.0180051,0.0,0.0
646,161.25,25.1367,26.3399,144.825,104.909,105.204,0.00214405,0.0521429,20.9966,206.29,-0.0253795,0.0,0.0
663,165.5,25.3706,26.1505,146.621,105.031,104.792,0.0023446,0.0523434,20.9965,206.179,0.0206206,0.0,0.0
680,169.75,25.5928,26.2224,145.252,105.134,105.392,0.00256306,0.0525552,20.996,206.049,-0.0221739,0.0,0.0
697,174,25.0625,25.6848,147.629,105.234,104.813,0.0026868,0.0535714,20.993,205.949,0.0362306,0.0,0.0
714,178.25,25.5312,26.0834,139.509,105.304,104.723,0.00395272,0.0770933,20.9522,205.829,0.0500596,0.0,1.0
731,182.5,25.4698,25.5001,133.046,105.345,94.7151,0.0079275,0.208631,20.8197,205.369,0.962115,0.0,0.0
748,186.75,29.3798,28.2651,130.543,105.361,90.2368,0.0128554,0.388427,20.5587,204.668,1.40163,0.0,0.0
765,191,33.8149,31.5318,126.123,105.342,85.5805,0.0191634,0.540215,20.3648,203.857,1.87922,0.0,0.0
782,195.25,38.6098,35.4521,117.375,105.264,88.2284,0.0221594,0.636239,20.2499,202.957,1.59691,0.0,0.0
799,199.5,42.082,39.2834,118.803,105.119,91.8544,0.021959,0.65237,20.2361,202.036,1.2201,0.0,0.0
816,203.75,45.5777,43.3374,125.532,104.86,96.4827,0.021117,0.637534,20.2549,201.215,0.753143,0.0,0.0
833,208,48.6916,45.7174,123.17,104.925,99.8972,0.0186225,0.602876,20.3131,200.414,0.44417,0.0,0.0
850,212.25,50.8713,48.6557,133.813,105.078,103.602,0.0144649,0.551022,20.3903,199.644,0.127892,0.0,0.0
867,216.5,50.9119,50.2059,129.855,105.264,105.411,0.0108874,0.498386,20.46,199.033,-0.0126962,0.0,0.0
884,220.75,52.1755,51.0966,126.692,105.441,106.401,0.00809086,0.451111,20.5203,198.433,-0.0819542,0.0,0.0
901,225,52.3961,52.202,132.985,105.576,109.564,0.00638305,0.410904,20.5719,197.812,-0.335409,0.0,0.0
918,229.25,52.1207,52.371,132.392,105.664,109.304,0.0054577,0.376613,20.6126,197.322,-0.30636,0.0,0.0
935,233.5,51.8046,52.6254,135.973,105.699,109.489,0.00456742,0.347163,20.6538,196.861,-0.318649,0.0,0.0
952,237.75,51.0682,52.5721,137.44,105.674,110.328,0.00429832,0.322824,20.6851,196.401,-0.38982,0.0,0.0
969,242,50.4908,52.145,134.976,105.6,109.592,0.00426275,0.297783,20.714,195.921,-0.335689,0.0,0.0
986,246.25,50.1953,51.8646,139.86,105.478,109.335,0.00391296,0.276388,20.7411,195.58,-0.324914,0.0,0.0
1003,250.5,48.8631,51.3779,136.659,105.301,109.333,0.0038315,0.259142,20.7598,195.2,-0.339884,0.0,0.0
1020,254.75,48.2914,51.4774,139.201,105.085,109.684,0.00360716,0.248317,20.7731,194.77,-0.387464,0.0,0.0
1037,259,47.7079,50.314,136.881,104.871,108.456,0.00360177,0.235304,20.7894,194.459,-0.304064,0.0,0.0
1054,263.25,46.8481,49.7321,139.848,104.659,108.648,0.0040959,0.226088,20.7994,194.149,-0.338414,0.0,0.0
1071,267.5,45.9134,49.6608,140.769,104.423,108.299,0.00392986,0.215028,20.8137,193.739,-0.329651,0.0,0.0
1088,271.75,45.1396,49.0941,138.233,104.233,108.154,0.00387743,0.208094,20.8216,193.508,-0.334073,0.0,0.0
1105,276,44.268,48.6284,137.394,104.056,107.641,0.00396294,0.201663,20.8272,193.218,-0.306427,0.0,0.0
1122,280.25,43.4767,47.5497,134.681,103.887,107.548,0.00379862,0.196249,20.8336,192.918,-0.31334,0.0,0.0
1139,284.5,43.3194,46.8339,135.188,103.781,107.342,0.0038768,0.191113,20.8392,192.598,-0.305214,0.0,0.0
1156,288.75,42.195,46.7278,137.433,103.708,107.988,0.00374426,0.187461,20.8431,192.347,-0.365787,0.0,0.0
1173,293,42.0689,46.0501,137.738,103.665,106.679,0.0038117,0.185163,20.8466,192.057,-0.25921,0.0,0.0
1190,297.25,41.541,45.4678,135.803,103.626,107.834,0.00375459,0.18058,20.8505,191.737,-0.360019,0.0,0.0
1207,301.5,41.2041,44.8309,137.567,103.621,107.811,0.00386652,0.179396,20.8526,191.537,-0.358545,0.0,0.0
1224,305.75,40.4399,44.3106,139.761,103.625,107.015,0.00386164,0.17594,20.8575,191.267,-0.29118,0.0,0.0
1241,310,39.9671,43.7621,139.357,103.608,107.115,0.00371646,0.174085,20.8604,190.916,-0.301156,0.0,0.0
1258,314.25,39.7019,43.6406,137.298,103.611,108.038,0.00385529,0.173182,20.8627,190.746,-0.378406,0.0,0.0
1275,318.5,39.4551,43.2081,137.489,103.601,107.868,0.00381342,0.170795,20.8632,190.496,-0.365124,0.0,0.0
1292,322.75,38.969,42.6835,141.185,103.59,106.343,0.00391689,0.169806,20.8641,190.176,-0.23722,0.0,0.0
1309,327,38.5248,42.447,139.385,103.622,107.061,0.00388849,0.168608,20.864,189.965,-0.295337,0.0,0.0
1326,331.25,38.6442,41.879,139.361,103.59,107.532,0.00388576,0.169146,20.8639,189.725,-0.337803,0.0,0.0
1343,335.5,38.1611,41.194,138.681,103.582,107.831,0.00378342,0.167614,20.8656,189.455,-0.363584,0.0,0.0
1360,339.75,37.9083,41.3812,137.112,103.593,106.431,0.00378942,0.165268,20.8693,189.185,-0.244485,0.0,0.0
1377,344,37.8203,40.8923,139.637,103.597,107.185,0.00392775,0.164296,20.8693,188.985,-0.307974,0.0,0.0
1394,348.25,37.6688,40.6476,138.467,103.586,106.949,0.00423505,0.162031,20.8716,188.714,-0.289062,0.0,0.0
1411,352.5,36.417,40.6487,139.122,103.581,107.25,0.0045766,0.160267,20.8738,188.404,-0.314917,0.0,0.0
1428,356.75,37.2105,39.6923,142.22,103.604,107.3,0.0048204,0.158634,20.8757,188.244,-0.317089,0.0,0.0
1445,361,36.2987,39.7559,139.704,103.622,107.44,0.00463133,0.159326,20.8757,187.984,-0.327237,0.0,0.0
1462,365.25,36.3107,39.551,137.26,103.66,106.87,0.00432662,0.159197,20.8756,187.653,-0.27583,0.0,0.0
1479,369.5,36.128,39.3,138.293,103.723,106.735,0.00435959,0.163269,20.8694,187.473,-0.258936,0.0,0.0
1496,373.75,36.8542,38.6401,138.076,103.835,106.878,0.00440998,0.169472,20.8633,187.233,-0.261244,0.0,0.0
1513,378,36.788,39.2591,140.171,103.94,106.248,0.00458078,0.172671,20.8608,186.913,-0.198665,0.0,0.0
1530,382.25,36.4705,39.0786,140.731,104.11,106.815,0.00462172,0.172903,20.86,186.662,-0.232024,0.0,0.0
1547,386.5,36.3425,38.627,141.9,104.29,107.49,0.00434283,0.17452,20.8566,186.442,-0.273327,0.0,0.0
1564,390.75,36.342,38.8482,137.531,104.464,108.211,0.00453241,0.173297,20.8583,186.162,-0.318748,0.0,0.0
1581,395,36.2327,38.5743,139.583,104.691,108.09,0.00461037,0.170376,20.8616,185.902,-0.288949,0.0,0.0
1598,399.25,36.267,38.4618,139.485,104.904,108.492,0.00471676,0.167921,20.8651,185.672,-0.304215,0.0,0.0
1615,403.5,36.0879,38.352,140.617,105.121,108.355,0.00493096,0.165732,20.8678,185.401,-0.274114,0.0,0.0
1632,407.75,36.3839,38.1214,138.158,105.31,108.806,0.00503827,0.165717,20.8682,185.071,-0.295432,0.0,0.0
1649,412,35.9734,37.893,143.061,105.451,109.59,0.00502495,0.166378,20.8672,184.911,-0.348287,0.0,0.0
1666,416.25,36.3052,37.8462,138.197,105.548,108.529,0.0049397,0.166106,20.8665,184.631,-0.251949,0.0,0.0
1683,420.5,35.7628,37.7891,139.337,105.588,108.94,0.00517405,0.16554,20.8675,184.28,-0.282647,0.0,0.0
1700,424.75,35.6462,37.6743,139.811,105.607,108.956,0.00519872,0.167062,20.8666,184.08,-0.282371,0.0,0.0
1717,429,35.7957,37.369,140.632,105.6,108.988,0.00527607,0.165546,20.8677,183.85,-0.285617,0.0,0.0
1734,433.25,36.0318,37.8763,144.37,105.531,108.959,0.00493072,0.166533,20.8688,183.56,-0.289121,0.0,0.0
1751,437.5,35.701,37.582,139.427,105.395,108.636,0.00486414,0.167405,20.8674,183.28,-0.273994,0.0,0.0
1768,441.75,35.9179,37.4639,141.594,105.276,108.376,0.00527106,0.166205,20.866,183.039,-0.26249,0.0,0.0
1785,446,35.9524,38.0043,141.42,105.086,108.538,0.00563829,0.167009,20.8649,182.789,-0.292289,0.0,0.0
1802,450.25,35.8546,37.8148,140.072,104.917,108.712,0.00543921,0.168121,20.8647,182.479,-0.321398,0.0,0.0
1819,454.5,35.5814,37.5721,137.706,104.791,108.335,0.00517048,0.168351,20.8634,182.249,-0.300856,0.0,0.0
1836,458.75,35.9665,37.5321,139.825,104.821,107.964,0.0052824,0.17039,20.8641,181.978,-0.267253,0.0,0.0
1853,463,35.8339,37.6084,139.435,105.08,107.737,0.00501224,0.169341,20.864,181.608,-0.225898,0.0,0.0
1870,467.25,35.7574,37.415,142.803,105.225,108.289,0.0052137,0.168935,20.8636,181.438,-0.259652,0.0,0.0
1887,471.5,36.0782,37.3767,140.153,105.283,107.996,0.0055026,0.167102,20.8658,181.118,-0.230171,0.0,0.0
1904,475.75,35.5636,37.4689,140.125,105.264,107.889,0.00578192,0.165244,20.8684,180.807,-0.222792,0.0,0.0
1921,480,35.9581,37.3979,138.215,105.248,107.957,0.00572188,0.165317,20.8686,180.597,-0.229869,0.0,0.0
1938,484.25,35.4248,37.2822,141.678,105.216,108.673,0.00569237,0.164147,20.8684,180.357,-0.292378,0.0,0.0
1955,488.5,35.616,37.0186,137.951,105.186,108.555,0.00543172,0.164486,20.8683,180.057,-0.285219,0.0,0.0
1972,492.75,35.5299,37.3272,144.075,105.163,108.858,0.00562922,0.16405,20.869,179.756,-0.312371,0.0,0.0
1989,497,35.3966,36.6959,142.02,105.149,109.035,0.00588917,0.160269,20.8715,179.456,-0.328305,0.0,0.0
2006,501.25,34.8106,36.5522,140.887,105.15,107.754,0.00581143,0.160744,20.872,179.236,-0.221308,0.0,0.0
2023,505.5,35.5114,36.8046,141.678,105.178,108.934,0.00550639,0.162534,20.8712,178.856,-0.317407,0.0,0.0
2040,509.75,35.5301,36.8548,143.784,105.217,108.362,0.00526483,0.161523,20.8729,178.716,-0.266412,0.0,0.0
2057,514,34.8521,36.4494,142.598,105.256,108.215,0.00522141,0.161993,20.8731,178.445,-0.250736,0.0,0.0
2074,518.25,35.066,36.3311,139.853,105.284,108.288,0.0053045,0.161835,20.8725,178.145,-0.254487,0.0,0.0
2091,522.5,35.3367,36.2636,141.101,105.31,108.206,0.00515926,0.160935,20.8724,177.975,-0.245424,0.0,0.0
2108,526.75,34.9526,36.5182,137.144,105.325,108.744,0.0051587,0.160673,20.8727,177.685,-0.288937,0.0,0.0
2125,531,34.4757,36.6984,143.751,105.319,108.626,0.005252,0.1598,20.874,177.384,-0.279673,0.0,0.0
2142,535.25,35.0173,36.8172,139.269,105.319,108.744,0.0056865,0.159511,20.8755,177.194,-0.289484,0.0,0.0
2159,539.5,35.0516,35.9414,141.389,105.301,108.269,0.00563155,0.157501,20.8758,176.944,-0.251403,0.0,0.0
2176,543.75,34.5767,36.4644,139.301,105.272,109.021,0.00569803,0.157371,20.8775,176.624,-0.316498,0.0,0.0
2193,548,34.6765,36.4017,142.808,105.261,108.111,0.0060023,0.155903,20.8788,176.364,-0.241726,0.0,0.0
2210,552.25,34.5214,36.0726,140.915,105.246,108.234,0.00606415,0.155833,20.8791,176.143,-0.25328,0.0,0.0
2227,556.5,34.9414,35.9889,142.529,105.209,107.957,0.00614643,0.1565,20.8796,175.853,-0.233248,0.0,0.0
2244,560.75,34.9857,36.3577,144.244,105.185,107.869,0.006086,0.154996,20.881,175.583,-0.227868,0.0,0.0
2261,565,34.7425,36.0788,140.187,105.167,107.565,0.00615406,0.153469,20.8837,175.353,-0.203965,0.0,0.0
2278,569.25,34.6537,36.0457,138.568,105.138,107.5,0.00627889,0.150776,20.8869,175.102,-0.201028,0.0,0.0
2295,573.5,34.3111,35.8974,142.152,105.115,107.88,0.00668968,0.151655,20.885,174.772,-0.234877,0.0,0.0
2312,577.75,34.1785,35.6599,143.549,105.056,107.542,0.00649017,0.151748,20.8844,174.572,-0.211575,0.0,0.0
2329,582,33.8563,35.7572,143.545,105.022,107.516,0.00616471,0.152362,20.8833,174.292,-0.212293,0.0,0.0
2346,586.25,34.4397,35.5735,139.731,104.96,108.786,0.00622228,0.153517,20.8822,173.981,-0.323914,0.0,0.0
2363,590.5,34.1171,35.5533,141.174,104.917,107.148,0.00636066,0.152047,20.8836,173.791,-0.190276,0.0,0.0
2380,594.75,34.366,35.6231,141.024,104.86,107.293,0.00603926,0.152295,20.8835,173.561,-0.207417,0.0,0.0
2397,599,34.5699,35.7939,146.219,104.817,107.852,0.00601586,0.151916,20.8833,173.291,-0.258213,0.0,0.0
2414,603.25,34.2273,35.9414,139.455,104.79,107.523,0.00613513,0.151069,20.8848,173.031,-0.232885,0.0,0.0
2431,607.5,34.6407,35.8554,140.472,104.806,108.241,0.0066647,0.149373,20.8859,172.8,-0.291757,0.0,0.0
2448,611.75,34.5056,35.5447,138.074,104.816,107.45,0.00693663,0.149769,20.8848,172.54,-0.224506,0.0,0.0
2465,616,34.3806,35.7806,142.07,104.846,107.687,0.00724886,0.148519,20.8862,172.22,-0.241852,0.0,0.0
2482,620.25,34.2365,35.5721,140.082,104.854,107.776,0.00730834,0.146991,20.8896,172.06,-0.248631,0.0,0.0
2499,624.5,33.6475,35.2618,143.017,104.825,107.728,0.00695717,0.147351,20.8909,171.79,-0.247083,0.0,0.0
2516,628.75,34.0148,35.0017,143.269,104.843,107.832,0.00707139,0.148129,20.8911,171.469,-0.254271,0.0,0.0
2533,633,34.3011,35.3389,139.012,104.869,107.419,0.00723406,0.147506,20.8904,171.289,-0.217287,0.0,0.0
2550,637.25,34.0519,35.1019,146.247,104.87,107.263,0.0075229,0.145222,20.892,171.029,-0.204065,0.0,0.0
2567,641.5,33.9147,35.9448,140.076,104.892,107.525,0.00745017,0.146125,20.8914,170.759,-0.224253,0.0,0.0
2584,645.75,34.2527,35.5401,140.61,104.905,107.617,0.00738616,0.146301,20.8899,170.508,-0.230842,0.0,0.0
2601,650,34.0391,35.4274,137.799,104.936,108.062,0.00704824,0.14669,20.8877,170.288,-0.265567,0.0,0.0
2618,654.25,33.7069,34.9662,140.92,104.955,108.449,0.00699425,0.146594,20.8873,170.028,-0.296156,0.0,0.0
2635,658.5,33.9165,35.4675,136.963,104.985,108.191,0.00682058,0.146518,20.8873,169.718,-0.272099,0.0,0.0
2652,662.75,33.6149,35.2638,143.674,105.035,107.26,0.00670039,0.148098,20.8855,169.538,-0.189626,0.0,0.0
2669,667,33.7374,35.4026,143.787,105.077,108.055,0.00658182,0.146392,20.8873,169.297,-0.252784,0.0,0.0
2686,671.25,33.9169,35.2227,141.656,105.121,108.122,0.00651307,0.147922,20.8878,168.977,-0.254613,0.0,0.0
2703,675.5,33.7554,34.9681,138.257,105.183,107.805,0.00642545,0.148489,20.8872,168.807,-0.222733,0.0,0.0
2720,679.75,33.7441,35.5779,140.714,105.245,107.685,0.0063075,0.148566,20.8871,168.547,-0.207306,0.0,0.0
2737,684,33.6085,35.0258,137.421,105.304,108.44,0.00601291,0.149299,20.8863,168.246,-0.265454,0.0,0.0
2754,688.25,34.1068,35.0786,143.624,105.392,107.422,0.00577779,0.148517,20.8877,168.066,-0.172503,0.0,0.0
2771,692.5,33.844,35.2956,143.959,105.463,108.05,0.0058086,0.150477,20.8865,167.826,-0.219164,0.0,0.0
2788,696.75,34.3151,35.2055,139.546,105.522,108.371,0.00604761,0.150422,20.8869,167.526,-0.240953,0.0,0.0
2805,701,33.7811,34.9938,142.363,105.596,107.59,0.00606952,0.151188,20.8871,167.306,-0.169259,0.0,0.0
2822,705.25,34.2055,35.4026,140.539,105.638,108.477,0.00595713,0.1505,20.8882,167.065,-0.239851,0.0,0.0
2839,709.5,33.9723,35.3441,141.319,105.665,108.409,0.00616229,0.151517,20.8873,166.815,-0.231866,0.0,0.0
2856,713.75,34.0705,34.8769,142.715,105.67,109.184,0.00658376,0.154376,20.8821,166.535,-0.295867,0.0,0.0
2873,718,34.0778,35.2992,141.021,105.67,108.51,0.00673592,0.152246,20.8823,166.315,-0.239895,0.0,0.0
2890,722.25,34.0508,35.7846,145.272,105.627,108.451,0.00656727,0.153993,20.8796,166.065,-0.238695,0.0,0.0
2907,726.5,34.1199,35.7635,142.069,105.561,109.048,0.00624227,0.154447,20.8782,165.764,-0.293968,0.0,0.0
2924,730.75,34.4653,35.6155,139.334,105.468,107.712,0.00607927,0.154188,20.8778,165.564,-0.190452,0.0,0.0
2941,735,34.5902,35.3977,143.677,105.373,107.554,0.00610282,0.153701,20.8808,165.344,-0.185379,0.0,0.0
2958,739.25,34.0894,35.7781,142.482,105.201,108.383,0.00584278,0.155157,20.882,165.014,-0.26954,0.0,0.0
2975,743.5,34.0832,35.8907,141.435,105.079,108.294,0.0056728,0.154596,20.8822,164.833,-0.272545,0.0,0.0
2992,747.75,34.4284,35.3864,144.314,104.914,107.605,0.00571808,0.154972,20.8828,164.583,-0.229061,0.0,0.0
3009,752,34.4284,35.4705,141.071,104.742,107.205,0.00584692,0.155027,20.8814,164.263,-0.210207,0.0,0.0
3026,756.25,34.3072,35.4637,143.129,104.561,108.281,0.00558356,0.154589,20.8818,164.063,-0.316285,0.0,0.0
3043,760.5,34.7035,35.4898,142.22,104.391,106.805,0.00584056,0.154167,20.8816,163.843,-0.206769,0.0,0.0
3060,764.75,34.4871,35.3803,139.069,104.215,106.154,0.00594533,0.153441,20.8816,163.592,-0.166703,0.0,0.0
3077,769,34.5864,35.702,138.7,104.044,106.851,0.00600166,0.154192,20.8813,163.302,-0.24079,0.0,0.0
3094,773.25,34.4111,35.6515,141.122,103.909,106.688,0.00606222,0.153966,20.8796,163.092,-0.238669,0.0,0.0
3111,777.5,34.4294,35.6984,139.447,103.792,106.064,0.00582708,0.154551,20.8791,162.852,-0.195834,0.0,0.0
3128,781.75,34.7929,35.7761,140.324,103.689,105.873,0.00598894,0.154615,20.8794,162.552,-0.188602,0.0,0.0
3145,786,34.7065,35.5154,140.002,103.668,106.265,0.00566518,0.153625,20.8798,162.371,-0.22385,0.0,0.0
3162,790.25,34.6555,35.6478,141.299,103.648,105.829,0.00554155,0.153883,20.8805,162.111,-0.188361,0.0,0.0
3179,794.5,34.4404,35.7875,141.432,103.682,106.226,0.00574931,0.152835,20.8822,161.801,-0.219266,0.0,0.0
3196,798.75,34.42,35.9128,136.697,103.776,106.561,0.00586016,0.153067,20.8829,161.621,-0.239595,0.0,0.0
3213,803,34.7382,35.9587,138.447,103.879,106.373,0.00594671,0.152626,20.8824,161.4,-0.214623,0.0,0.0
3230,807.25,34.3139,35.7214,139.075,104.014,106.948,0.0059347,0.153268,20.8827,161.13,-0.251597,0.0,0.0
3247,811.5,34.9933,35.8471,142.946,104.174,107.249,0.00552138,0.153816,20.8828,160.91,-0.263166,0.0,0.0
3264,815.75,35.0787,35.9459,141.261,104.34,107.328,0.00540335,0.15501,20.883,160.67,-0.255431,0.0,0.0
3281,820,34.8156,35.9115,139.967,104.495,107.387,0.00526851,0.155241,20.8811,160.41,-0.246939,0.0,0.0
3298,824.25,34.6584,35.4597,140.67,104.638,108.842,0.00546644,0.155758,20.8808,160.129,-0.356282,0.0,0.0
3315,828.5,34.8331,35.9965,141.107,104.764,108.085,0.00536573,0.156036,20.8774,159.969,-0.282284,0.0,0.0
3332,832.75,34.8258,36.0974,141.52,104.86,108.686,0.00573425,0.155698,20.8757,159.719,-0.324184,0.0,0.0
3349,837,35.014,35.988,143.922,104.907,107.545,0.00621735,0.15512,20.8782,159.419,-0.224626,0.0,0.0
3366,841.25,34.7576,36.0113,141.231,104.932,107.522,0.00596508,0.155221,20.8783,159.239,-0.220557,0.0,0.0
3383,845.5,34.6754,36.0208,139.529,104.945,107.072,0.00581229,0.156721,20.8769,159.008,-0.181499,0.0,0.0
3400,849.75,34.5543,36.0741,143.671,104.95,107.867,0.00548906,0.156998,20.8771,158.718,-0.248018,0.0,0.0
3417,854,34.8565,35.9087,139.942,104.962,108.392,0.00550249,0.157299,20.8762,158.498,-0.29087,0.0,0.0
3434,858.25,34.6879,36.3817,139.021,104.96,107.957,0.00537754,0.157612,20.8771,158.268,-0.254675,0.0,0.0
3451,862.5,34.8631,36.2622,144.934,104.934,108.038,0.00568348,0.156435,20.878,157.978,-0.263724,0.0,0.0
3468,866.75,34.7356,36.234,142.146,104.92,108.728,0.0056502,0.159472,20.8764,157.777,-0.32246,0.0,0.0
3485,871,35.3739,35.7451,141.586,104.922,107.376,0.00584895,0.159298,20.8758,157.557,-0.209083,0.0,0.0
3502,875.25,34.9932,36.275,141.426,104.927,108.865,0.006022,0.159019,20.8763,157.357,-0.333262,0.0,0.0
3519,879.5,34.8731,36.1311,140.058,104.931,107.776,0.00582891,0.159365,20.8776,157.057,-0.241995,0.0,0.0
3536,883.75,34.9198,35.8863,145.874,104.928,107.523,0.0057844,0.159183,20.8775,156.776,-0.221,0.0,0.0
3553,888,35.0068,35.9537,136.89,104.941,108.298,0.00594075,0.160746,20.8763,156.596,-0.284875,0.0,0.0
3570,892.25,35.1894,36.0579,142.462,104.926,107.383,0.00589406,0.160598,20.877,156.296,-0.209385,0.0,0.0
3587,896.5,34.8523,36.3791,143.421,104.95,107.801,0.00558911,0.160304,20.8769,156.096,-0.242394,0.0,0.0
3604,900.75,34.9521,36.0327,139.481,104.933,107.866,0.00574299,0.161559,20.8735,155.886,-0.249281,0.0,0.0
3621,905,35.0078,36.4098,137.361,104.912,108.54,0.00576032,0.162542,20.8716,155.565,-0.307484,0.0,0.0
3638,909.25,35.2689,36.3897,140.433,104.9,107.763,0.00587151,0.16307,20.8713,155.395,-0.243524,0.0,0.0
3655,913.5,35.2301,36.5207,139.363,104.862,107.442,0.0059893,0.163614,20.8713,155.155,-0.219867,0.0,0.0
3672,917.75,35.4001,36.2956,137.652,104.811,107.539,0.00585001,0.164454,20.8694,154.945,-0.232435,0.0,0.0
3689,922,34.9837,36.8105,135.471,104.743,108.482,0.00564698,0.16685,20.866,154.655,-0.317219,0.0,0.0
3706,926.25,35.005,36.473,142.549,104.666,108.04,0.00571403,0.167131,20.8658,154.384,-0.287006,0.0,0.0
3723,930.5,35.2416,36.9285,140.108,104.584,107.302,0.00566042,0.168103,20.8661,154.144,-0.232079,0.0,0.0
3740,934.75,35.5501,36.6406,140.745,104.509,107.788,0.00554657,0.168015,20.8661,153.844,-0.279448,0.0,0.0
3757,939,35.191,36.9545,139.724,104.437,107.878,0.00529559,0.168526,20.8655,153.624,-0.293247,0.0,0.0
3774,943.25,35.6489,36.7378,141.149,104.346,107.305,0.00531109,0.169087,20.8653,153.374,-0.252916,0.0,0.0
3791,947.5,35.6737,36.5719,139.317,104.241,107.033,0.00554162,0.169155,20.8648,153.163,-0.239124,0.0,0.0
3808,951.75,35.1584,36.7239,136.142,104.137,106.969,0.00593427,0.169228,20.8659,152.963,-0.242717,0.0,0.0
3825,956,35.4496,37.1707,142.157,104.018,106.381,0.00571603,0.168375,20.8661,152.723,-0.203197,0.0,0.0
3842,960.25,35.6848,36.613,139.036,103.89,106.581,0.00558715,0.169171,20.864,152.513,-0.231278,0.0,0.0
3859,964.5,35.1241,36.475,141.087,103.799,106.998,0.00527563,0.169395,20.8633,152.263,-0.274539,0.0,0.0
3876,968.75,35.385,36.387,140.491,103.726,106.458,0.00531147,0.168883,20.8636,151.972,-0.235085,0.0,0.0
3893,973,35.0853,36.7979,140.433,103.644,106.878,0.00522591,0.169037,20.8647,151.702,-0.277978,0.0,0.0
3910,977.25,35.1507,36.8826,141.991,103.591,106.521,0.00544844,0.168779,20.8648,151.412,-0.252268,0.0,0.0
3927,981.5,35.301,36.8451,139.43,103.573,106.335,0.00549316,0.171685,20.8638,151.222,-0.238136,0.0,0.0
3944,985.75,35.2746,36.5832,137.663,103.559,106.677,0.00545204,0.172272,20.8617,150.971,-0.268389,0.0,0.0
3961,990,35.3318,37.0171,140.19,103.564,105.551,0.00553333,0.17265,20.8597,150.711,-0.171906,0.0,0.0
3978,994.25,35.8028,36.5147,141.333,103.627,106.093,0.00554914,0.172938,20.8595,150.461,-0.21271,0.0,0.0
3995,998.5,35.3445,36.9381,140.694,103.699,106.509,0.00552358,0.173862,20.8608,150.241,-0.241797,0.0,0.0
4012,1002.75,35.4035,36.7343,139.817,103.796,106.526,0.00546436,0.174096,20.8583,149.961,-0.234819,0.0,0.0
4029,1007,35.3049,36.7019,143.038,103.923,106.605,0.00528882,0.175803,20.8569,149.7,-0.230536,0.0,0.0
4046,1011.25,35.5468,37.2827,140.074,104.016,106.942,0.00495678,0.175568,20.8575,149.5,-0.250939,0.0,0.0
4063,1015.5,36.0068,37.4045,140.296,104.114,106.862,0.00475345,0.177483,20.8564,149.18,-0.235639,0.0,0.0
4080,1019.75,35.8737,36.9219,138.605,104.222,106.762,0.00485983,0.177908,20.8543,148.99,-0.217798,0.0,0.0
4097,1024,36.0292,37.4553,139.139,104.288,107.503,0.00462788,0.179116,20.8538,148.76,-0.274647,0.0,0.0
4114,1028.25,35.6768,37.0584,139.22,104.32,106.579,0.00434047,0.180022,20.8518,148.469,-0.193733,0.0,0.0
4131,1032.5,35.7378,37.3276,142.21,104.352,107.343,0.00450827,0.181969,20.8506,148.269,-0.255659,0.0,0.0
4148,1036.75,35.775,37.2943,142.436,104.361,107.746,0.00473719,0.18149,20.8525,147.949,-0.288703,0.0,0.0
4165,1041,36.225,37.8067,138.87,104.358,107.36,0.00460922,0.179587,20.8545,147.719,-0.256522,0.0,0.0
4182,1045.25,35.9787,37.2278,141.835,104.39,107.119,0.00436358,0.182499,20.8513,147.428,-0.233503,0.0,0.0
4199,1049.5,35.828,37.3684,141.229,104.371,106.871,0.00445926,0.183744,20.8505,147.228,-0.21409,0.0,0.0
4216,1053.75,35.7132,37.5988,139.982,104.393,107.084,0.00442482,0.182788,20.8491,146.968,-0.230218,0.0,0.0
4233,1058,36.4188,37.5925,137.1,104.351,107.045,0.00434226,0.185934,20.8459,146.648,-0.230579,0.0,0.0
4250,1062.25,36.0263,37.4404,138.589,104.328,107.224,0.00430662,0.184914,20.8466,146.447,-0.247657,0.0,0.0
4267,1066.5,36.1409,37.3134,144.6,104.291,107.554,0.00429647,0.184646,20.8469,146.207,-0.278625,0.0,0.0
4284,1070.75,36.5806,38.084,143.308,104.28,107.426,0.00444451,0.185974,20.8469,145.887,-0.268911,0.0,0.0
4301,1075,36.1511,37.8034,136.287,104.258,107.131,0.00446899,0.185816,20.8469,145.687,-0.24592,0.0,0.0
4318,1079.25,36.1386,37.746,138.737,104.244,106.643,0.00444711,0.184654,20.8473,145.427,-0.205822,0.0,0.0
4335,1083.5,36.5052,37.9441,138.457,104.192,107.527,0.00429271,0.186408,20.8467,145.206,-0.285008,0.0,0.0
4352,1087.75,36.6188,38.3949,139.557,104.16,106.95,0.00466574,0.187683,20.8441,144.906,-0.239086,0.0,0.0
4369,1092,36.7696,38.0673,135.683,104.147,107.456,0.00470532,0.187427,20.8437,144.676,-0.282864,0.0,0.0
4386,1096.25,36.3896,38.163,139.518,104.136,106.766,0.00466822,0.187801,20.8436,144.406,-0.225565,0.0,0.0
4403,1100.5,36.6463,37.9066,135.866,104.105,107.332,0.00493344,0.189439,20.8436,144.085,-0.276177,0.0,0.0
4420,1104.75,36.9189,38.5056,139.503,104.1,106.808,0.00499476,0.189134,20.8436,143.865,-0.232311,0.0,0.0
4437,1109,36.9118,38.5495,141.069,104.084,106.911,0.00509347,0.189574,20.8427,143.645,-0.242423,0.0,0.0
4454,1113.25,36.8209,38.1485,137.434,104.053,106.512,0.00485387,0.190745,20.8407,143.285,-0.211269,0.0,0.0
4471,1117.5,37.157,38.5981,138.837,104.018,107.443,0.0042847,0.191319,20.8399,143.095,-0.293006,0.0,0.0
4488,1121.75,37.557,38.8507,134.998,103.993,107.233,0.00426868,0.193215,20.8374,142.834,-0.27751,0.0,0.0
4505,1126,37.2613,38.9405,136.734,103.953,106.831,0.00433222,0.193486,20.8361,142.544,-0.246958,0.0,0.0
4522,1130.25,37.1977,38.8139,139.282,103.953,107.44,0.00419909,0.193444,20.8367,142.294,-0.298469,0.0,0.0
4539,1134.5,37.254,38.6318,137.337,103.943,107.241,0.00455277,0.195069,20.8356,142.034,-0.282558,0.0,0.0
4556,1138.75,38.0862,39.3782,143.991,103.929,107.034,0.00452199,0.196116,20.8342,141.743,-0.266309,0.0,0.0
4573,1143,37.9163,39.4552,136.361,103.94,107.832,0.0044627,0.198963,20.8309,141.453,-0.332533,0.0,0.0
4590,1147.25,37.9396,39.0172,136.466,103.952,107.138,0.00421271,0.199253,20.83,141.213,-0.273058,0.0,0.0
4607,1151.5,37.9453,39.3194,136.129,103.955,107.422,0.00412432,0.199789,20.8308,140.943,-0.296795,0.0,0.0
4624,1155.75,38.0949,39.6142,138.215,103.958,107.968,0.00445,0.199865,20.8295,140.592,-0.342352,0.0,0.0
4641,1160,38.1283,39.3405,138.902,103.989,106.596,0.00437537,0.201891,20.8285,140.392,-0.224012,0.0,0.0
4658,1164.25,37.8734,39.7164,135.14,104.011,107.269,0.0044423,0.201362,20.8289,140.092,-0.278995,0.0,0.0
4675,1168.5,38.0343,39.594,140.278,104.007,107.644,0.00437508,0.202562,20.8275,139.742,-0.310961,0.0,0.0
4692,1172.75,38.6639,40.0165,135.784,104.03,106.708,0.00446903,0.201138,20.8278,139.551,-0.22985,0.0,0.0
4709,1177,38.7713,39.8914,138.916,104.041,107.097,0.00427998,0.204734,20.8262,139.251,-0.261882,0.0,0.0
4726,1181.25,38.4232,40.2532,137.974,104.031,106.737,0.00421086,0.206387,20.8245,138.911,-0.23234,0.0,0.0
4743,1185.5,39.0034,40.1607,135.026,104.041,107.601,0.00429972,0.208318,20.8219,138.681,-0.304268,0.0,0.0
4760,1189.75,38.6968,40.0969,138.574,104.029,107.117,0.00433818,0.208675,20.8206,138.4,-0.264563,0.0,0.0
4777,1194,39.0544,40.5932,139.908,103.988,107.851,0.00425125,0.209031,20.8192,138.11,-0.329938,0.0,0.0
4794,1198.25,39.1956,40.7955,134.333,103.942,108.265,0.00438082,0.210863,20.8179,137.77,-0.36857,0.0,0.0
4811,1202.5,39.6003,40.6254,139.698,103.901,107.139,0.00424121,0.212221,20.8168,137.52,-0.277553,0.0,0.0
4828,1206.75,39.1041,41.0854,135.254,103.846,107.632,0.00437074,0.212267,20.8166,137.219,-0.323886,0.0,0.0
4845,1211,39.557,40.9575,137.528,103.786,107.619,0.00406948,0.214687,20.8147,136.869,-0.328055,0.0,0.0
4862,1215.25,39.5671,41.2053,136.898,103.743,107.299,0.00401692,0.215799,20.8144,136.629,-0.304841,0.0,0.0
4879,1219.5,39.5406,41.4807,137.096,103.716,107.542,0.00400435,0.217619,20.8117,136.349,-0.32771,0.0,0.0
4896,1223.75,39.9382,41.9404,135.628,103.656,106.489,0.00418629,0.219038,20.8103,135.958,-0.243896,0.0,0.0
4913,1228,40.4865,41.2566,139.157,103.641,107.355,0.0043006,0.22147,20.8089,135.728,-0.318399,0.0,0.0
4930,1232.25,40.3458,41.6557,135.471,103.627,107.893,0.00404977,0.223724,20.8045,135.438,-0.364904,0.0,0.0
4947,1236.5,40.7688,42.2067,137.641,103.628,107.923,0.00406505,0.225848,20.8019,135.088,-0.367367,0.0,0.0
4964,1240.75,40.4418,41.9054,140.028,103.649,107.886,0.00426401,0.229184,20.7995,134.807,-0.362326,0.0,0.0
4981,1245,40.7766,42.219,137.443,103.698,107.38,0.00414955,0.232371,20.7971,134.487,-0.315616,0.0,0.0
4998,1249.25,40.5844,42.4242,134.042,103.747,108.3,0.00389924,0.235747,20.7928,134.167,-0.388499,0.0,0.0
5015,1253.5,41.4332,42.4476,137.642,103.827,108.194,0.00389135,0.236815,20.791,133.756,-0.372665,0.0,0.0
5032,1257.75,41.1157,43.0516,138.176,103.923,108.114,0.00399475,0.240623,20.7863,133.476,-0.357611,0.0,0.0
5049,1262,41.4135,43.4967,135.01,104.028,106.808,0.00404898,0.244137,20.783,133.166,-0.238596,0.0,0.0
5066,1266.25,42.0715,43.5225,136.924,104.144,108.937,0.00404715,0.245682,20.7791,132.726,-0.407025,0.0,0.0
5083,1270.5,41.985,43.4703,137.08,104.264,107.807,0.00377663,0.250652,20.7735,132.445,-0.302255,0.0,0.0
5100,1274.75,42.0463,44.0268,135.442,104.374,109.147,0.0038689,0.251014,20.7729,132.105,-0.404427,0.0,0.0
5117,1279,42.2253,44.3427,135.674,104.47,109.187,0.00374061,0.25278,20.7703,131.655,-0.399475,0.0,0.0
5134,1283.25,42.8745,44.4929,138.85,104.584,108.602,0.0035199,0.255506,20.7662,131.404,-0.341005,0.0,0.0
5151,1287.5,43.0477,44.6524,137.427,104.698,109.944,0.00367104,0.257704,20.7647,131.044,-0.442257,0.0,0.0
5168,1291.75,42.7544,44.9854,134.639,104.787,109.323,0.00388507,0.259732,20.7631,130.654,-0.383367,0.0,0.0
5185,1296,43.5373,44.8613,132.526,104.873,110.172,0.00361169,0.264386,20.7591,130.303,-0.445871,0.0,0.0
5202,1300.25,43.597,45.0192,134.573,104.936,109.431,0.003752,0.267105,20.7541,129.953,-0.379359,0.0,0.0
5219,1304.5,44.1635,45.594,134.113,104.976,109.043,0.00388827,0.270814,20.7506,129.533,-0.343844,0.0,0.0
5236,1308.75,44.1385,45.9591,140.701,104.985,109.736,0.00408857,0.271292,20.7489,129.152,-0.400316,0.0,0.0
5253,1313,44.6786,46.4715,137.668,104.982,109.511,0.00411999,0.276562,20.7427,128.792,-0.382044,0.0,0.0
5270,1317.25,45.0516,46.5346,134.013,104.952,109.072,0.00419029,0.278739,20.7402,128.402,-0.348354,0.0,0.0
5287,1321.5,45.0247,46.5389,135.069,104.87,109.801,0.00401443,0.281811,20.7368,127.941,-0.415634,0.0,0.0
5304,1325.75,45.5712,47.5145,133.323,104.761,109.532,0.00380198,0.285008,20.7339,127.601,-0.402803,0.0,0.0
5321,1330,45.2968,47.1409,138.17,104.666,109.674,0.00396976,0.289944,20.7269,127.201,-0.422816,0.0,0.0
5338,1334.25,46.2833,47.8613,136.555,104.56,109.985,0.0037037,0.292847,20.7238,126.72,-0.457502,0.0,0.0
5355,1338.5,46.423,47.9889,133.494,104.454,108.925,0.00368482,0.296802,20.7194,126.38,-0.379115,0.0,0.0
5372,1342.75,46.5639,48.189,135.897,104.416,109.13,0.00378988,0.302046,20.7126,125.96,-0.399374,0.0,0.0
5389,1347,46.8567,48.6864,137.277,104.837,110.332,0.00360874,0.30449,20.7094,125.459,-0.462116,0.0,0.0
5406,1351.25,46.9256,49.1473,131.152,105.117,109.75,0.00370561,0.30926,20.7046,125.089,-0.390111,0.0,0.0
5423,1355.5,47.2919,49.55,134.174,105.282,110.499,0.00398218,0.313124,20.7005,124.649,-0.437533,0.0,0.0
5440,1359.75,48.0673,49.3194,132.421,105.332,109.462,0.00400713,0.320155,20.6921,124.188,-0.347866,0.0,0.0
5457,1364,48.538,50.1444,131.538,105.251,110.552,0.00385347,0.326149,20.684,123.738,-0.444417,0.0,0.0
5474,1368.25,48.4965,50.4336,130.433,105.061,109.995,0.00390319,0.332691,20.6764,123.267,-0.415121,0.0,0.0
5491,1372.5,49.1453,51.0905,132.79,104.805,109.503,0.00356293,0.338583,20.6682,122.757,-0.396587,0.0,0.0
5508,1376.75,49.69,51.8493,140.817,104.924,109.953,0.00358168,0.345459,20.659,122.206,-0.423471,0.0,0.0
5525,1381,50.1018,52.0188,134.419,105.078,110.947,0.00349866,0.354011,20.6523,121.786,-0.491581,0.0,0.0
5542,1385.25,50.6129,52.5869,133.109,105.269,109.997,0.00373719,0.365145,20.6374,121.276,-0.397353,0.0,0.0
5559,1389.5,51.3233,53.0328,128.689,105.409,110.438,0.00396277,0.376211,20.6255,120.665,-0.421614,0.0,0.0
5576,1393.75,51.7759,53.726,130.768,105.548,110.737,0.00367554,0.38793,20.6121,120.215,-0.43411,0.0,0.0
5593,1398,52.7615,54.444,131.437,105.618,110.881,0.00369587,0.401229,20.5954,119.624,-0.439848,0.0,0.0
5610,1402.25,52.9393,55.0875,127.507,105.643,110.815,0.00372256,0.408399,20.5856,119.054,-0.432353,0.0,0.0
5627,1406.5,53.8859,55.8835,130.844,105.663,109.618,0.00410012,0.41612,20.5774,118.483,-0.332449,0.0,0.0
5644,1410.75,54.6286,56.4052,134.133,105.641,108.84,0.00411063,0.424841,20.568,117.963,-0.269841,0.0,0.0
5661,1415,55.1938,56.7719,130.842,105.582,109.958,0.00413717,0.433949,20.5548,117.312,-0.367337,0.0,0.0
5678,1419.25,55.8384,57.6685,127.781,105.523,109.751,0.00400678,0.439513,20.5464,116.692,-0.355382,0.0,0.0
5695,1423.5,56.253,58.0867,129.82,105.431,109.874,0.00390133,0.454661,20.5294,116.061,-0.373409,0.0,0.0
5712,1427.75,56.8681,58.9254,126.579,105.338,110.986,0.0038597,0.466553,20.5164,115.41,-0.472461,0.0,0.0
5729,1432,57.2509,59.8368,127.814,105.221,110.412,0.00363606,0.474715,20.5053,114.75,-0.435595,0.0,0.0
5746,1436.25,58.6524,60.2831,124.727,105.179,109.451,0.00366373,0.483356,20.4958,114.149,-0.36009,0.0,0.0
5763,1440.5,59.0141,61.1013,130.11,105.118,109.194,0.00359468,0.489312,20.4874,113.439,-0.344164,0.0,0.0
5780,1444.75,59.3224,61.7464,125.524,105.053,110.565,0.0035717,0.491232,20.4834,112.648,-0.462574,0.0,0.0
5797,1449,59.8179,62.8832,124.928,105.032,109.461,0.00378065,0.489064,20.4825,112.078,-0.373594,0.0,0.0
5814,1453.25,60.4842,63.0731,128.167,105.014,108.848,0.00390521,0.487764,20.484,111.447,-0.324366,0.0,0.0
5831,1457.5,61.2043,64.0145,125.077,104.99,109.891,0.00413235,0.483804,20.4887,110.706,-0.412689,0.0,0.0
5848,1461.75,61.3514,64.4306,129.323,104.965,108.644,0.00423211,0.479062,20.4929,110.056,-0.311619,0.0,0.0
5865,1466,61.9666,64.6008,123.143,104.967,108.98,0.00443527,0.480157,20.4919,109.455,-0.339353,0.0,0.0
5882,1470.25,62.2351,64.9984,133.969,104.98,108.663,0.00484091,0.480043,20.4942,108.835,-0.311861,0.0,0.0
5899,1474.5,62.8128,65.2917,128.436,104.946,109.252,0.00453477,0.473141,20.497,108.224,-0.363722,0.0,0.0
5916,1478.75,62.7382,65.1494,126.96,104.924,109.097,0.00422583,0.47729,20.4922,107.524,-0.352808,0.0,0.0
5933,1483,62.785,66.0636,124.531,104.868,108.027,0.0039492,0.471408,20.4981,106.963,-0.268398,0.0,0.0
5950,1487.25,62.741,65.9931,127.884,104.839,108.552,0.00413121,0.466825,20.5041,106.222,-0.31476,0.0,0.0
5967,1491.5,62.9646,66.2076,130.37,104.824,108.886,0.00410817,0.451189,20.5208,105.762,-0.343934,0.0,0.0
5984,1495.75,62.3608,66.1441,131.252,104.811,109.4,0.00383724,0.431704,20.5413,105.222,-0.387644,0.0,0.0
6001,1500,62.9425,65.7623,129.345,104.8,109.27,0.00339181,0.41627,20.5602,104.631,-0.377841,0.0,0.0
6018,1504.25,61.978,66.0604,128.955,104.862,108.459,0.00304624,0.392671,20.5915,104.231,-0.305029,0.0,0.0
6035,1508.5,61.2035,65.5872,131.57,104.908,109.456,0.00311254,0.372638,20.6147,103.76,-0.383877,0.0,0.0
6052,1512.75,60.657,64.855,134.681,104.931,109.683,0.00310306,0.35231,20.6367,103.22,-0.400637,0.0,0.0
6069,1517,60.068,64.0171,132.832,104.992,110.592,0.00310068,0.338987,20.6533,102.81,-0.469988,0.0,0.0
6086,1521.25,58.3952,63.6132,131.986,105.074,111.669,0.0027331,0.32474,20.6685,102.509,-0.550615,0.0,0.0
6103,1525.5,58.3788,62.7976,130.537,105.152,111.223,0.00268728,0.311661,20.6851,102.119,-0.507745,0.0,0.0
6120,1529.75,57.5304,62.3738,136.751,105.226,110.499,0.00242018,0.300378,20.6983,101.709,-0.442364,0.0,0.0
6137,1534,57.0483,61.4291,135.984,105.302,110.065,0.00236596,0.291719,20.7095,101.318,-0.400147,0.0,0.0
6154,1538.25,55.525,60.7719,132.959,105.376,111.072,0.00246619,0.284299,20.7179,101.018,-0.476251,0.0,0.0
6171,1542.5,54.9697,60.1357,134.676,105.426,110.336,0.00271492,0.27884,20.7233,100.538,-0.411805,0.0,0.0
6188,1546.75,54.24,59.0102,130.566,105.499,110.616,0.00274947,0.273759,20.7291,100.367,-0.428379,0.0,0.0
6205,1551,53.5568,58.1169,134.483,105.556,110.455,0.00297037,0.269988,20.7369,100.007,-0.41041,0.0,0.0
6222,1555.25,53.0202,57.3643,135.141,105.575,111.133,0.00288752,0.262251,20.7446,99.6267,-0.464075,0.0,0.0
6239,1559.5,52.6822,56.7382,132.527,105.607,110.782,0.00284806,0.254312,20.7528,99.3765,-0.43273,0.0,0.0
6256,1563.75,51.7963,56.0022,138.159,105.58,110.073,0.00300048,0.249047,20.7589,99.0963,-0.37694,0.0,0.0
6273,1568,51.0114,55.3703,134.959,105.542,110.673,0.00298952,0.243069,20.7635,98.796,-0.429401,0.0,0.0
6290,1572.25,50.4053,55.2314,139.386,105.437,109.163,0.00302621,0.235272,20.7719,98.5658,-0.314126,0.0,0.0
6307,1576.5,49.6523,54.0497,136.746,105.328,109.334,0.00298144,0.229582,20.7793,98.3156,-0.337636,0.0,0.0
6324,1580.75,49.4171,53.3745,132.811,105.166,109.15,0.00311173,0.221999,20.7869,98.0554,-0.336353,0.0,0.0
6341,1585,48.8047,52.7516,134.92,105.029,107.9,0.00321826,0.215478,20.7938,97.7551,-0.243941,0.0,0.0
6358,1589.25,47.7977,51.8678,138.014,104.898,108.649,0.00352972,0.209994,20.7991,97.675,-0.317765,0.0,0.0
6375,1593.5,47.2187,51.2862,141.165,104.808,108.424,0.00394061,0.199897,20.8094,97.4849,-0.30678,0.0,0.0
6392,1597.75,46.4877,50.4804,135.941,104.759,109.451,0.00412754,0.202313,20.8086,97.0645,-0.396326,0.0,0.0
6409,1602,46.3168,49.8503,138.289,104.739,108.783,0.00454923,0.197658,20.8153,96.9544,-0.342601,0.0,0.0
6426,1606.25,45.7946,49.4454,138.53,104.725,108.7,0.00452597,0.19109,20.8229,96.7842,-0.336982,0.0,0.0
6443,1610.5,45.0759,48.7318,137.977,104.775,107.975,0.00435136,0.183741,20.8303,96.484,-0.272053,0.0,0.0
6460,1614.75,44.5217,48.273,143.64,104.827,108.131,0.0046618,0.176531,20.8398,96.3839,-0.280742,0.0,0.0
6477,1619,43.8693,47.3727,142.4,104.884,108.06,0.00487308,0.169786,20.8478,96.2238,-0.269855,0.0,0.0
6494,1623.25,43.1034,46.7148,138.725,104.905,109.36,0.00512049,0.164597,20.8554,95.9836,-0.376164,0.0,0.0
6511,1627.5,42.4625,46.2101,136.3,104.95,108.537,0.00516647,0.157289,20.8629,95.8835,-0.303973,0.0,0.0
6528,1631.75,42.0364,46.0853,136.33,104.962,108.723,0.00548612,0.151816,20.8703,95.8234,-0.318427,0.0,0.0
6545,1636,40.9727,44.6476,139.644,104.956,108.336,0.00549171,0.147025,20.8742,95.6733,-0.286754,0.0,0.0
6562,1640.25,40.6637,43.9655,140.836,104.93,107.292,0.00566086,0.141063,20.8803,95.4931,-0.201363,0.0,0.0
6579,1644.5,40.2432,43.1612,143.089,104.906,108.223,0.0059076,0.137069,20.8847,95.4331,-0.281522,0.0,0.0
6596,1648.75,39.9533,42.5378,138.931,104.857,107.508,0.0062178,0.132792,20.89,95.293,-0.225868,0.0,0.0
6613,1653,38.7437,42.023,140.317,104.793,108.61,0.00633307,0.126755,20.8957,95.1428,-0.323623,0.0,0.0
6630,1657.25,37.9387,41.7042,142.29,104.762,108.063,0.00608675,0.125431,20.8985,95.1228,-0.280592,0.0,0.0
6647,1661.5,37.9437,40.7064,140.261,104.76,107.335,0.00613203,0.122635,20.901,95.0427,-0.219595,0.0,0.0
6664,1665.75,37.5387,40.0808,142.649,104.757,107.758,0.00631482,0.120476,20.9035,94.8526,-0.255496,0.0,0.0
6681,1670,36.8683,39.5947,141.923,104.771,107.519,0.00636776,0.118405,20.9074,94.8426,-0.234174,0.0,0.0
6698,1674.25,35.984,39.3762,145.358,104.793,106.921,0.00643042,0.116558,20.9084,94.7825,-0.181902,0.0,0.0
6715,1678.5,36.3565,38.479,142.239,104.791,106.633,0.00640444,0.11526,20.9099,94.6624,-0.157624,0.0,0.0
6732,1682.75,35.8249,38.0566,142.452,104.798,107.182,0.00662772,0.113164,20.9112,94.5623,-0.203467,0.0,0.0
6749,1687,35.4088,37.6085,141.437,104.801,107.648,0.00642684,0.11295,20.9113,94.5323,-0.242431,0.0,0.0
6766,1691.25,35.1291,37.2811,144.996,104.816,107.369,0.00620777,0.112324,20.9129,94.4422,-0.217607,0.0,0.0
6783,1695.5,35.1646,36.8889,142.426,104.823,106.983,0.00630477,0.111185,20.9135,94.2621,-0.184551,0.0,0.0
6800,1699.75,34.7484,36.6415,147.291,104.84,108.029,0.00627063,0.110128,20.9143,94.2821,-0.271112,0.0,0.0
6817,1704,34.1281,36.1832,142.195,104.856,107.986,0.00638881,0.109249,20.9169,94.232,-0.266023,0.0,0.0
6834,1708.25,33.8972,35.7709,143.676,104.876,107.832,0.00666338,0.107228,20.9203,94.0619,-0.251425,0.0,0.0
6851,1712.5,34.2112,35.3451,139.586,104.892,107.333,0.00674876,0.106832,20.9227,94.0919,-0.208023,0.0,0.0
6868,1716.75,33.6208,35.3701,142.851,104.899,107.712,0.00688456,0.107125,20.9235,94.0219,-0.239334,0.0,0.0
6885,1721,33.8099,34.5742,143.851,104.903,106.963,0.00702127,0.105821,20.9244,93.8817,-0.175967,0.0,0.0
6902,1725.25,33.7449,34.374,143.903,104.924,107.198,0.00752251,0.104222,20.9257,93.8717,-0.193939,0.0,0.0
6919,1729.5,33.0129,34.2097,139.816,104.931,107.064,0.00749288,0.103769,20.9254,93.8117,-0.182069,0.0,0.0
6936,1733.75,32.7264,34.0138,145.754,104.946,107.295,0.00783436,0.102381,20.9272,93.7216,-0.200212,0.0,0.0
6953,1738,32.4713,33.9005,141.433,104.969,107.4,0.0079204,0.102163,20.9274,93.6215,-0.207119,0.0,0.0
6970,1742.25,32.2042,33.7151,147.746,104.978,106.968,0.00764217,0.101184,20.9267,93.6015,-0.169837,0.0,0.0
6987,1746.5,32.0537,33.6265,145.524,105.007,107.279,0.00765356,0.101435,20.9266,93.5414,-0.1936,0.0,0.0
7004,1750.75,31.8362,33.0782,145.671,105.039,106.594,0.00742628,0.10098,20.9278,93.3813,-0.132912,0.0,0.0
7021,1755,32.3923,33.0056,144.542,105.087,107.52,0.00718701,0.101105,20.9282,93.4113,-0.207002,0.0,0.0
7038,1759.25,32.0152,32.5715,145.359,105.14,107.308,0.00689332,0.100799,20.9279,93.3613,-0.184646,0.0,0.0
7055,1763.5,31.9993,32.2872,145.343,105.174,107.575,0.00692551,0.100138,20.9282,93.2111,-0.204209,0.0,0.0
7072,1767.75,31.5468,32.1138,144.784,105.222,107.651,0.00733042,0.100324,20.9283,93.2312,-0.206409,0.0,0.0
7089,1772,31.503,32.2087,144.112,105.278,107.497,0.00729661,0.0995093,20.9301,93.1711,-0.18869,0.0,0.0
7106,1776.25,31.348,32.1759,142.229,105.315,108.709,0.00740431,0.0990252,20.9305,93.031,-0.286939,0.0,0.0
7123,1780.5,30.9923,31.733,144.117,105.357,107.261,0.00738887,0.099008,20.9309,93.031,-0.162085,0.0,0.0
7140,1784.75,31.1473,31.7613,143.189,105.414,107.642,0.00716821,0.0992634,20.9314,92.991,-0.189224,0.0,0.0
7157,1789,31.5371,31.97,144.308,105.453,107.828,0.00712461,0.0989719,20.9315,92.9309,-0.201454,0.0,0.0
7174,1793.25,30.8686,31.4103,144.547,105.5,108.177,0.00736244,0.0994594,20.9311,92.8208,-0.226611,0.0,0.0
7191,1797.5,30.6131,30.9527,144.541,105.569,107.498,0.0074063,0.0986209,20.9315,92.8108,-0.16378,0.0,0.0
7208,1801.75,30.7343,31.3409,145.128,105.614,108.248,0.00735699,0.0986302,20.9318,92.7607,-0.222825,0.0,0.0
7225,1806,31.1759,31.0145,142.93,105.644,108.05,0.00736173,0.0990596,20.9326,92.6006,-0.203696,0.0,0.0
7242,1810.25,30.4924,31.36,144.92,105.671,108.559,0.00729594,0.0996583,20.9328,92.6306,-0.243826,0.0,0.0
7259,1814.5,30.5801,30.8775,147.084,105.665,107.839,0.00698588,0.0986019,20.9323,92.5706,-0.184285,0.0,0.0
7276,1818.75,30.5826,31.4126,141.656,105.603,106.998,0.00713554,0.0984456,20.932,92.4405,-0.118771,0.0,0.0
7293,1823,30.3143,31.0929,142.513,105.54,108.407,0.00738745,0.0985907,20.9324,92.4605,-0.242427,0.0,0.0
7310,1827.25,30.1788,30.5863,141.346,105.439,107.379,0.00714881,0.0982253,20.933,92.4205,-0.164944,0.0,0.0
7327,1831.5,30.1828,30.6976,140.605,105.258,107.366,0.00714561,0.0983988,20.9321,92.3704,-0.17934,0.0,0.0
7344,1835.75,30.0285,30.0904,148.558,105.082,106.982,0.0071693,0.0976886,20.9332,92.3104,-0.162107,0.0,0.0
7361,1840,30.0152,30.5873,142.607,104.891,106.749,0.00694414,0.0974186,20.9321,92.2503,-0.158852,0.0,0.0
7378,1844.25,29.9913,30.4835,144.358,104.66,106.302,0.00706057,0.0976006,20.932,92.2203,-0.140842,0.0,0.0
7395,1848.5,30.2314,30.1831,144.265,104.446,106.348,0.00674429,0.0978864,20.9328,92.1302,-0.163268,0.0,0.0
7412,1852.75,29.3442,30.2489,143.516,104.218,106.143,0.00682264,0.0967537,20.9345,92.1202,-0.165569,0.0,0.0
7429,1857,29.5242,30.2627,145.899,104.033,106.364,0.00721526,0.095851,20.9356,92.0802,-0.200448,0.0,0.0
7446,1861.25,29.5485,30.1074,145.355,103.879,106.267,0.00720195,0.0954302,20.936,91.9,-0.205586,0.0,0.0
7463,1865.5,29.5145,30.33,142.694,103.782,106.688,0.00729236,0.0951547,20.9349,91.9501,-0.249787,0.0,0.0
7480,1869.75,29.4002,30.4135,144.989,103.699,105.092,0.00718422,0.0948822,20.933,91.89,-0.120773,0.0,0.0
7497,1874,27.9574,28.3002,149.233,103.671,106.097,0.00679182,0.0944252,20.9338,91.7599,-0.209268,0.0,0.0
7514,1878.25,28.0896,28.372,143.016,103.657,105.506,0.00659128,0.0940581,20.934,91.7999,-0.159916,0.0,0.0
7531,1882.5,27.9903,28.0417,142.686,103.708,105.448,0.00701427,0.0940356,20.934,91.7399,-0.150501,0.0,0.0
7548,1886.75,28.0892,28.0635,145.018,103.763,105.904,0.00711325,0.0938498,20.9358,91.6898,-0.184741,0.0,0.0
7565,1891,27.8744,28.1479,142.654,103.839,105.479,0.00708256,0.0934722,20.9384,91.6498,-0.141758,0.0,0.0
7582,1895.25,27.7063,27.8408,142.652,103.928,106.308,0.00700094,0.0931575,20.9397,91.6198,-0.204809,0.0,0.0
7599,1899.5,27.7417,28.6828,142.684,104.03,106.108,0.00687813,0.0933451,20.9411,91.5597,-0.178894,0.0,0.0
7616,1903.75,27.2649,27.6594,142.787,104.129,106.01,0.00685328,0.0934908,20.9405,91.4196,-0.161993,0.0,0.0
7633,1908,27.3715,28.4397,144.179,104.259,107.051,0.00683561,0.0932658,20.9402,91.4696,-0.239043,0.0,0.0
7650,1912.25,27.679,27.945,143.295,104.362,106.882,0.0070177,0.093982,20.938,91.4096,-0.21588,0.0,0.0
7667,1916.5,27.4393,27.7869,143.794,104.45,106.605,0.00697624,0.0935802,20.9368,91.2795,-0.184779,0.0,0.0
7684,1920.75,27.6276,28.0069,142.19,104.563,107.11,0.00665913,0.0934819,20.9366,91.3095,-0.217675,0.0,0.0
7701,1925,27.6375,27.7493,144.39,104.649,106.715,0.00626065,0.0932939,20.9382,91.2494,-0.176838,0.0,0.0
7718,1929.25,27.4119,27.6402,146.663,104.71,106.83,0.00632615,0.0931989,20.9377,91.1493,-0.181329,0.0,0.0
7735,1933.5,27.7579,27.8561,147.801,104.811,107.36,0.0066891,0.0929434,20.9379,91.1794,-0.2173,0.0,0.0
7752,1937.75,27.4842,27.9164,143.78,104.879,106.85,0.00708974,0.0937613,20.9373,91.1293,-0.168393,0.0,0.0
7769,1942,27.0644,28.1359,139.911,104.934,106.657,0.0071607,0.0937531,20.9373,91.0493,-0.147356,0.0,0.0
7786,1946.25,27.0131,27.8278,137.505,104.978,107.444,0.00675327,0.0932058,20.9373,90.9992,-0.21,0.0,0.0
7803,1950.5,27.0052,27.3393,142.887,104.996,107.149,0.00656101,0.0930448,20.9375,91.0092,-0.183618,0.0,0.0
7820,1954.75,26.976,27.4326,144.529,105.002,107.309,0.00643228,0.0930281,20.938,90.9592,-0.196588,0.0,0.0
7837,1959,27.2701,27.459,149.293,104.958,107.011,0.00658612,0.0933508,20.9384,90.8591,-0.175175,0.0,0.0
7854,1963.25,27.0685,27.4313,144.788,104.909,106.976,0.00669481,0.0929774,20.9379,90.8691,-0.176523,0.0,0.0
7871,1967.5,27.2706,27.5653,146.369,104.816,106.716,0.00672185,0.0930332,20.9377,90.8191,-0.162539,0.0,0.0
7888,1971.75,27.111,27.7081,140.551,104.696,106.864,0.00671802,0.0933297,20.9377,90.6689,-0.185449,0.0,0.0
7905,1976,26.7698,27.4774,142.866,104.599,107.147,0.00656958,0.0932098,20.9377,90.759,-0.217753,0.0,0.0
7922,1980.25,26.9853,27.5628,143.273,104.521,106.969,,0.0933887,,90.719,-0.209448,0.0,0.0
7939,1984.5,27.0368,27.3785,146.24,104.428,106.277,,,,90.5588,-0.158705,0.0,0.0
7956,1988.75,26.9367,27.2346,147.667,104.381,106.537,,,,90.6489,-0.184938,0.0,0.0
7963,1990.5,26.9011,27.1173,143.614,104.352,106.6,,,,90.5388,-0.19284,0.0,0.0