File: 01_Data/Eucalyptus_Flooring/Cone/Eucalyptus_Flooring_Cone_HF25Scan_220526_R2.csv
Names,Time,Stack TC,Smoke TC,Exh Press,Smoke Comp,Smoke Meas,CO Meter,CO2 Meter,O2 Meter,Sample Mass,Ext Coeff,Start Test,Flame Verif
Chan Gain,,500,500,1,1,1,1,1,1,1,1,1.0,1.0
Offset,,0,0,0.138731,0,0,0,0,0,0,0,0.0,0.0
Gain,,1,1,25.011,13.8491,15.2622,1,1,1,1.00087,1.03118,1.0,1.0
Units,sec,C,C,Pa,%,%,%,%,%,g,/m,,
Baseline,,22.4162,22.9958,146.871,104.482,104.521,0.00110742,0.0470409,21.0024,-450.371,-0.00330719,,
17,4,20.3995,21.4094,145.773,104.927,105.116,0.00110452,0.0556045,20.9927,209.202,-0.0163127,0.0,0.0
34,8.25,20.61,21.3902,147.888,104.966,105.274,0.000955607,0.0509847,20.9987,209.192,-0.0265415,0.0,0.0
51,12.5,21.1803,21.413,148.569,104.997,105.29,0.00129343,0.050309,21.0017,209.202,-0.0252043,0.0,0.0
68,16.75,21.0481,21.527,150.762,105.012,105.526,0.0014183,0.0493636,21.0022,209.192,-0.0441553,0.0,0.0
85,21,20.8556,21.6995,147.264,105.011,105.042,0.00121077,0.0488927,21.0018,209.092,-0.0026541,0.0,0.0
102,25.25,20.8181,21.1542,148.238,105.028,105.189,0.00127196,0.0475802,21.0031,209.122,-0.0138598,0.0,0.0
119,29.5,20.7801,21.8932,144.615,105.03,105.358,0.00129087,0.0474525,21.0027,209.112,-0.0282055,0.0,0.0
136,33.75,21.248,21.8136,150.538,105.014,104.963,0.00111044,0.049074,21.0005,209.102,0.00434453,0.0,0.0
153,38,21.2222,21.1629,146.977,105.019,105.343,0.00128518,0.0497928,20.9999,209.082,-0.027875,0.0,0.0
170,42.25,21.3194,21.7314,148.485,105.009,105.208,0.00108655,0.0493671,21.0002,209.072,-0.0171791,0.0,0.0
187,46.5,21.1462,21.6556,147.133,104.983,105.183,0.00080441,0.0479731,21.002,209.002,-0.0172386,0.0,0.0
204,50.75,21.1104,22.2962,149.695,104.967,105.361,0.000657161,0.0471846,21.0041,208.952,-0.0338731,0.0,0.0
221,55,21.3149,22.3988,145.43,104.96,105.171,0.000734525,0.046939,21.0049,208.912,-0.0181234,0.0,0.0
238,59.25,21.4615,22.0544,148.199,104.928,105.118,0.000687653,0.046913,21.005,208.822,-0.0163608,0.0,0.0
255,63.5,21.6914,22.193,145.629,104.908,105.167,0.000645541,0.0466908,21.0043,208.692,-0.0222842,0.0,0.0
272,67.75,21.6415,21.9288,149.875,104.878,104.976,0.000461157,0.0468511,21.0036,208.682,-0.00846812,0.0,0.0
289,72,21.5218,22.6616,146.006,104.846,104.596,0.000840771,0.0470666,21.0029,208.632,0.0216061,0.0,0.0
306,76.25,22.6395,22.5727,147.13,104.782,105.064,0.000994365,0.0469534,21.0056,208.471,-0.0243285,0.0,0.0
323,80.5,21.8967,22.3222,148.765,104.764,104.764,0.00104094,0.0470163,21.0049,208.481,-4.04365e-05,0.0,0.0
340,84.75,21.7504,22.5605,144.467,104.727,105.086,0.00110998,0.0470215,21.0047,208.411,-0.0309209,0.0,0.0
357,89,22.5319,22.3724,145.257,104.679,105.038,0.00102731,0.0473439,21.0043,208.301,-0.0309566,0.0,0.0
374,93.25,22.349,22.7289,143.991,104.666,104.952,0.000856252,0.0478334,21.0027,208.291,-0.0246664,0.0,0.0
391,97.5,22.1138,22.518,145.141,104.625,104.858,0.000922694,0.0480088,21.0031,208.211,-0.0200933,0.0,0.0
408,101.75,21.8194,22.6051,147.493,104.59,104.643,0.00114232,0.0479467,21.0055,208.091,-0.0045845,0.0,0.0
425,106,22.3653,22.8879,148.916,104.583,104.711,0.00125026,0.0479158,21.0045,208.051,-0.0110864,0.0,0.0
442,110.25,22.3071,23.3462,145.137,104.692,104.935,0.00147415,0.0478073,21.0038,208.001,-0.0209925,0.0,0.0
459,114.5,22.5493,22.8835,144.113,104.865,104.59,0.00154864,0.0481362,21.0041,207.911,0.0236927,0.0,0.0
476,118.75,22.4077,23.521,146.3,105.01,105.055,0.00131682,0.0481655,21.0045,207.791,-0.00384983,0.0,0.0
493,123,22.7508,23.6999,146.496,105.13,104.737,0.00142681,0.0485615,21.0039,207.751,0.0338761,0.0,0.0
510,127.25,22.9527,23.3931,147.865,105.25,104.329,0.00158157,0.0487946,21.003,207.681,0.0794308,0.0,0.0
527,131.5,22.9488,23.1463,146.868,105.319,105.051,0.00182989,0.0490099,21.0029,207.521,0.0230119,0.0,0.0
544,135.75,22.5235,23.4288,141.251,105.408,104.797,0.00218908,0.0492171,21.0015,207.511,0.0526286,0.0,0.0
561,140,22.9103,24.0809,145.347,105.417,104.946,0.00196257,0.0495153,21.0009,207.421,0.0405342,0.0,0.0
578,144.25,22.5692,23.7947,149.217,105.428,105.175,0.00172983,0.0498028,21.0032,207.25,0.0217072,0.0,0.0
595,148.5,22.9375,24.0594,144.106,105.436,104.676,0.00192911,0.0499099,21.0035,207.21,0.065363,0.0,0.0
612,152.75,22.5266,23.6247,146.713,105.435,104.228,0.00212359,0.0503865,21.0035,207.08,0.104133,0.0,0.0
629,157,23.0911,23.3751,143.278,105.425,103.887,0.00250787,0.0506008,21.0032,207,0.13286,0.0,0.0
646,161.25,22.9728,23.7184,143.283,105.405,104.127,0.00253379,0.0509253,21.0025,206.86,0.110331,0.0,0.0
663,165.5,23.104,23.8616,140.346,105.398,104.077,0.00293251,0.0737519,20.9748,206.82,0.114048,0.0,1.0
680,169.75,22.3212,22.5732,134.997,105.381,97.2601,0.00615228,0.163221,20.8332,206.4,0.725362,0.0,1.0
697,174,25.006,24.5139,130.925,105.363,97.6522,0.00946297,0.29011,20.6891,205.809,0.687473,0.0,0.0
714,178.25,27.9169,26.179,135.026,105.359,94.0067,0.0132494,0.399808,20.5461,205.229,1.03122,0.0,0.0
731,182.5,31.8647,29.3976,128.587,105.373,89.7766,0.0164608,0.504319,20.4104,204.438,1.44892,0.0,0.0
748,186.75,35.6532,33.195,123.642,105.365,92.1059,0.0177193,0.576112,20.3254,203.597,1.2165,0.0,0.0
765,191,39.2715,36.2206,124.876,105.373,90.6541,0.0183563,0.622693,20.278,202.676,1.3609,0.0,0.0
782,195.25,43.1272,39.809,130.291,105.378,94.7459,0.0177846,0.636951,20.2715,201.896,0.96201,0.0,0.0
799,199.5,45.8386,42.8304,124.34,105.376,101.129,0.0144654,0.589141,20.3425,201.045,0.372174,0.0,0.0
816,203.75,47.414,45.2201,134.007,105.392,101.941,0.0113653,0.524775,20.4368,200.454,0.301228,0.0,0.0
833,208,47.6287,46.3431,131.446,105.406,105.568,0.00851938,0.45475,20.5205,199.884,-0.0139246,0.0,0.0
850,212.25,48.3279,47.6173,131.567,105.415,107.105,0.00634806,0.400944,20.5883,199.304,-0.143911,0.0,0.0
867,216.5,48.0498,47.7516,133.295,105.407,108.68,0.00532922,0.36081,20.6393,198.863,-0.276587,0.0,0.0
884,220.75,47.2401,47.5606,133.704,105.373,108.444,0.00444049,0.328326,20.6821,198.353,-0.259888,0.0,0.0
901,225,46.4611,47.7109,132.983,105.302,108.934,0.00423189,0.306008,20.7104,197.982,-0.306766,0.0,0.0
918,229.25,46.4568,47.4856,133.042,105.181,107.044,0.00392855,0.292343,20.7271,197.502,-0.158795,0.0,0.0
935,233.5,45.5583,47.9711,137.422,105.056,107.98,0.00385464,0.278209,20.7439,197.112,-0.248361,0.0,0.0
952,237.75,45.1975,47.1211,138.518,104.849,108.272,0.00382088,0.265882,20.7548,196.731,-0.290569,0.0,0.0
969,242,44.2302,46.3235,138.924,104.544,107.463,0.00353283,0.253283,20.7706,196.291,-0.249126,0.0,0.0
986,246.25,44.2835,46.9201,134.821,104.562,107.622,0.00354358,0.242165,20.7831,196.001,-0.260951,0.0,0.0
1003,250.5,42.8158,45.7706,137.594,104.613,107.236,0.00354446,0.229606,20.8003,195.69,-0.224018,0.0,0.0
1020,254.75,42.4606,45.4876,144.058,104.666,107.279,0.00378394,0.21719,20.8148,195.28,-0.223064,0.0,0.0
1037,259,41.327,44.9387,139.421,104.744,107.974,0.00370378,0.210121,20.8211,195.01,-0.274715,0.0,0.0
1054,263.25,40.8717,44.4759,139.126,104.826,107.246,0.00345604,0.202862,20.8311,194.73,-0.206404,0.0,0.0
1071,267.5,40.0293,43.9771,142.1,104.872,106.696,0.00350567,0.197531,20.8388,194.389,-0.155954,0.0,0.0
1088,271.75,39.5412,43.4134,137.583,104.944,107.594,0.00373629,0.190151,20.8473,194.149,-0.225647,0.0,0.0
1105,276,38.9953,42.5637,138.569,104.96,107.569,0.00374769,0.184668,20.8538,193.839,-0.222072,0.0,0.0
1122,280.25,38.3257,42.1869,135.71,104.95,107.478,0.0042325,0.178754,20.8588,193.548,-0.215306,0.0,0.0
1139,284.5,37.7961,41.6428,145.036,104.938,107.259,0.00434952,0.175173,20.8613,193.248,-0.197881,0.0,0.0
1156,288.75,37.6176,41.1518,140.559,104.903,106.544,0.00416248,0.170303,20.8672,193.008,-0.140336,0.0,0.0
1173,293,36.6484,40.7396,141.952,104.876,106.531,0.00416655,0.166704,20.8704,192.778,-0.141601,0.0,0.0
1190,297.25,36.3978,39.706,140.096,104.855,107.232,0.0041599,0.165278,20.8728,192.438,-0.202709,0.0,0.0
1207,301.5,35.3119,39.4767,140.784,104.861,107.044,0.00397805,0.16204,20.8757,192.277,-0.186351,0.0,0.0
1224,305.75,35.3727,38.7378,136.252,104.874,106.744,0.00397807,0.161564,20.8767,192.017,-0.159838,0.0,0.0
1241,310,35.3476,38.8533,140.2,104.9,107.503,0.00393859,0.157609,20.8819,191.697,-0.221719,0.0,0.0
1258,314.25,34.3767,37.538,142.381,104.917,106.938,0.00397129,0.154532,20.8847,191.497,-0.172525,0.0,0.0
1275,318.5,34.1625,37.3037,138.521,104.943,107.195,0.00413798,0.152337,20.8867,191.277,-0.19206,0.0,0.0
1292,322.75,34.0677,37.5908,144.12,104.955,107.515,0.00416633,0.149599,20.8892,190.936,-0.218001,0.0,0.0
1309,327,33.9158,36.7671,142.691,104.988,106.554,0.0044023,0.149608,20.8897,190.726,-0.133957,0.0,0.0
1326,331.25,33.5172,36.5298,141.374,105.002,106.866,0.00427443,0.149094,20.8904,190.536,-0.159095,0.0,0.0
1343,335.5,32.8023,35.9881,139.985,105.001,107.104,0.00425003,0.147308,20.8929,190.336,-0.179368,0.0,0.0
1360,339.75,33.1027,35.4676,143.287,104.996,106.9,0.00387876,0.147716,20.8914,190.105,-0.162634,0.0,0.0
1377,344,32.2366,35.2123,141.568,104.979,107.135,0.00389389,0.14752,20.8927,189.875,-0.183933,0.0,0.0
1394,348.25,32.2231,35.5368,141.436,104.934,106.531,0.00415909,0.146047,20.8939,189.625,-0.136569,0.0,0.0
1411,352.5,32.3486,35.0407,141.805,104.901,107.22,0.00427524,0.146461,20.8929,189.395,-0.19775,0.0,0.0
1428,356.75,31.8601,34.4933,142.555,104.883,106.675,0.00432325,0.146564,20.8935,189.245,-0.153227,0.0,0.0
1445,361,32.0196,34.8175,142.751,104.838,107.001,0.00415781,0.146656,20.8937,188.995,-0.184659,0.0,0.0
1462,365.25,31.74,34.2984,144.706,104.766,106.078,0.0040074,0.146451,20.8938,188.684,-0.112594,0.0,0.0
1479,369.5,31.7771,34.4209,143.344,104.736,107.01,0.00427677,0.146117,20.8943,188.534,-0.194312,0.0,0.0
1496,373.75,31.6264,33.9765,140.747,104.672,105.985,0.00445681,0.146657,20.893,188.304,-0.112716,0.0,0.0
1513,378,31.6222,33.5082,144.244,104.598,105.936,0.00441657,0.146191,20.8934,188.014,-0.114975,0.0,0.0
1530,382.25,31.1156,33.0426,140.221,104.586,106.155,0.00446716,0.145738,20.8948,187.854,-0.134704,0.0,0.0
1547,386.5,31.9255,33.8765,144.357,104.565,106.421,0.00450693,0.145678,20.8951,187.643,-0.159204,0.0,0.0
1564,390.75,31.3309,33.014,142.184,104.769,106.156,0.00434416,0.14587,20.8935,187.403,-0.11901,0.0,0.0
1581,395,30.6916,33.1769,146.936,104.983,106.313,0.0043337,0.147042,20.8929,187.163,-0.113929,0.0,0.0
1598,399.25,30.8995,33.174,142.584,105.145,106.571,0.00420969,0.147091,20.8926,186.943,-0.121884,0.0,0.0
1615,403.5,30.9305,33.0172,145.556,105.277,106.949,0.00443173,0.147837,20.8917,186.713,-0.142516,0.0,0.0
1632,407.75,31.2496,32.6547,140.574,105.365,107.448,0.00423917,0.14854,20.8911,186.422,-0.17706,0.0,0.0
1649,412,31.5035,32.5445,142.284,105.424,106.621,0.00427779,0.149711,20.8889,186.252,-0.102108,0.0,0.0
1666,416.25,31.3493,32.5919,134.596,105.454,107.178,0.00427216,0.150694,20.8884,186.002,-0.14667,0.0,0.0
1683,420.5,31.3423,32.9623,141.665,105.431,107.208,0.00436756,0.151685,20.8882,185.712,-0.151147,0.0,0.0
1700,424.75,31.018,32.933,146.005,105.435,106.902,0.00448808,0.151125,20.8893,185.542,-0.125003,0.0,0.0
1717,429,30.518,32.7873,142.819,105.371,106.941,0.00446479,0.151829,20.8887,185.301,-0.133748,0.0,0.0
1734,433.25,31.1897,32.6476,141.085,105.294,106.651,0.00411332,0.152998,20.888,185.011,-0.115816,0.0,0.0
1751,437.5,31.2376,32.8231,140.771,105.224,106.818,0.00421243,0.154834,20.8848,184.801,-0.136055,0.0,0.0
1768,441.75,31.3106,32.8059,141.895,105.13,106.538,0.00415924,0.155687,20.8837,184.551,-0.120386,0.0,0.0
1785,446,31.6489,33.0399,137.162,105.012,106.862,0.00408109,0.156155,20.8836,184.31,-0.157982,0.0,0.0
1802,450.25,31.2507,32.7821,138.991,104.898,106.7,0.00411923,0.157037,20.8825,184,-0.15405,0.0,0.0
1819,454.5,31.6377,33.0079,138.493,104.885,106.515,0.00443354,0.158209,20.883,183.81,-0.139488,0.0,0.0
1836,458.75,31.6507,32.6961,139.309,104.916,106.805,0.00446552,0.158879,20.8831,183.57,-0.161439,0.0,0.0
1853,463,31.9037,32.9594,145.036,104.959,106.662,0.00450367,0.159314,20.8812,183.23,-0.145641,0.0,0.0
1870,467.25,31.7939,33.4748,143.041,105.034,106.935,0.00439559,0.160383,20.88,183.059,-0.162277,0.0,0.0
1887,471.5,31.7738,33.0762,142.761,105.119,106.431,0.00394797,0.160061,20.8784,182.809,-0.112191,0.0,0.0
1904,475.75,32.0297,32.8778,137.773,105.186,106.596,0.00410891,0.16062,20.8766,182.469,-0.120417,0.0,0.0
1921,480,31.8027,33.2267,145.924,105.276,107.52,0.00428001,0.162016,20.8754,182.279,-0.190794,0.0,0.0
1938,484.25,31.9998,33.6099,141.22,105.359,107.029,0.00444731,0.16331,20.8732,182.038,-0.142207,0.0,0.0
1955,488.5,32.1232,33.1711,139.005,105.442,107.33,0.00430365,0.16296,20.8745,181.688,-0.16053,0.0,0.0
1972,492.75,31.3035,33.4766,141.503,105.548,106.914,0.00440241,0.163264,20.8757,181.488,-0.116349,0.0,0.0
1989,497,32.2305,33.2228,141.237,105.614,107.478,0.00427211,0.162823,20.8759,181.218,-0.158262,0.0,0.0
2006,501.25,31.6706,33.4343,138.965,105.667,107.343,0.00426379,0.164203,20.8744,180.928,-0.142401,0.0,0.0
2023,505.5,32.3388,33.316,138.779,105.717,107.24,0.00445216,0.164991,20.8718,180.667,-0.129303,0.0,0.0
2040,509.75,32.6306,33.8553,141.188,105.739,107.462,0.00462137,0.165977,20.8714,180.397,-0.146254,0.0,0.0
2057,514,32.2863,33.7562,138.962,105.734,107.885,0.00465606,0.165538,20.8721,180.117,-0.18218,0.0,0.0
2074,518.25,32.7482,34.258,139.572,105.695,107.376,0.0046701,0.166264,20.8722,179.777,-0.142799,0.0,0.0
2091,522.5,32.1052,33.8592,141.334,105.629,107.568,0.00486596,0.165769,20.8717,179.546,-0.164518,0.0,0.0
2108,526.75,32.5352,33.5121,139.514,105.524,107.199,0.00485944,0.165432,20.8722,179.286,-0.142387,0.0,0.0
2125,531,32.9091,34.6559,141.623,105.389,107.332,0.00500285,0.165537,20.8736,178.916,-0.165257,0.0,0.0
2142,535.25,32.6835,34.1018,140.885,105.223,107.721,0.00486343,0.165924,20.8738,178.736,-0.21228,0.0,0.0
2159,539.5,32.3856,33.8703,137.39,105.065,107.315,0.00494837,0.166564,20.8716,178.445,-0.191713,0.0,0.0
2176,543.75,33.0031,34.3731,138.478,104.882,106.634,0.00483865,0.167145,20.8721,178.125,-0.149787,0.0,0.0
2193,548,32.7592,33.7555,138.89,104.68,106.573,0.00481686,0.165173,20.8724,177.885,-0.162129,0.0,0.0
2210,552.25,33.0696,34.1091,139.908,104.484,105.682,0.00463814,0.166315,20.8705,177.595,-0.103145,0.0,0.0
2227,556.5,32.7931,34.318,137.55,104.261,106.954,0.0047954,0.167252,20.8702,177.284,-0.230631,0.0,0.0
2244,560.75,32.488,33.791,141.39,104.062,106.225,0.00495635,0.166713,20.871,176.954,-0.186059,0.0,0.0
2261,565,32.8033,34.2456,138.84,103.88,105.246,0.00469955,0.16727,20.8718,176.754,-0.11819,0.0,0.0
2278,569.25,33.0018,34.112,141.396,103.76,106.132,0.0047167,0.167444,20.8724,176.484,-0.204508,0.0,0.0
2295,573.5,33.1777,34.4484,141.056,103.661,106.323,0.00471458,0.167835,20.8725,176.123,-0.229355,0.0,0.0
2312,577.75,33.4424,34.4772,143.227,103.633,105.225,0.00467523,0.167322,20.8725,175.923,-0.137867,0.0,0.0
2329,582,33.4368,34.3665,139.489,103.648,105.41,0.00486999,0.166227,20.8723,175.643,-0.152538,0.0,0.0
2346,586.25,33.1636,34.5904,141.091,103.683,105.62,0.00493826,0.164216,20.8748,175.243,-0.167404,0.0,0.0
2363,590.5,32.9436,34.294,141.194,103.785,104.983,0.00480274,0.162933,20.8754,175.042,-0.103793,0.0,0.0
2380,594.75,32.735,33.895,136.09,103.891,106.083,0.0049476,0.163458,20.8742,174.792,-0.188848,0.0,0.0
2397,599,33.156,34.4161,142.436,104.03,105.901,0.00533422,0.163294,20.8749,174.452,-0.161247,0.0,0.0
2414,603.25,33.2344,34.4839,144.383,104.18,106.263,0.00488992,0.161928,20.8761,174.262,-0.17903,0.0,0.0
2431,607.5,32.8917,34.1717,139.305,104.367,106.607,0.00465874,0.162115,20.8758,173.991,-0.192153,0.0,0.0
2448,611.75,32.8918,34.5352,140.495,104.523,106.53,0.00468994,0.161156,20.8766,173.711,-0.172044,0.0,0.0
2465,616,33.1326,34.2848,143.513,104.662,106.342,0.00501804,0.160579,20.8777,173.441,-0.144071,0.0,0.0
2482,620.25,32.6885,34.1878,140.698,104.809,107.174,0.00480031,0.159836,20.8779,173.161,-0.201811,0.0,0.0
2499,624.5,33.0878,34.339,140.756,104.933,107.444,0.00475416,0.158632,20.8797,172.88,-0.21394,0.0,0.0
2516,628.75,32.4907,33.962,143.513,105.009,106.292,0.00487569,0.159516,20.8807,172.56,-0.109812,0.0,0.0
2533,633,32.9013,34.0055,143.877,105.04,106.863,0.00481105,0.159101,20.882,172.37,-0.155619,0.0,0.0
2550,637.25,33.0253,34.3817,144.834,104.996,106.652,0.00501229,0.159003,20.8811,172.08,-0.141491,0.0,0.0
2567,641.5,32.5744,33.8593,138.316,104.898,106.256,0.00491724,0.162394,20.8757,171.75,-0.116379,0.0,0.0
2584,645.75,32.4861,34.5249,142.636,104.823,106.075,0.00470423,0.168732,20.8691,171.549,-0.107355,0.0,0.0
2601,650,32.8698,34.141,139.252,104.732,106.189,0.00473407,0.17023,20.8665,171.269,-0.124965,0.0,0.0
2618,654.25,32.8848,34.4066,139.986,104.617,106.601,0.00446184,0.168728,20.8694,170.959,-0.169937,0.0,0.0
2635,658.5,32.4202,34.321,141.393,104.564,106.8,0.00459,0.167839,20.8713,170.719,-0.19137,0.0,0.0
2652,662.75,32.93,34.6408,138.199,104.588,106.637,0.00493639,0.167142,20.8711,170.448,-0.175469,0.0,0.0
2669,667,33.2955,34.2237,143.161,104.884,106.427,0.0048753,0.165433,20.8724,170.178,-0.132118,0.0,0.0
2686,671.25,33.1106,34.0991,139.686,105.114,106.588,0.00488407,0.16491,20.8744,169.888,-0.125925,0.0,0.0
2703,675.5,33.1676,34.3723,138.377,105.27,107.212,0.00490069,0.163231,20.8762,169.658,-0.165323,0.0,0.0
2720,679.75,33.1919,34.5797,141.017,105.349,107.222,0.00498709,0.163039,20.8765,169.387,-0.159438,0.0,0.0
2737,684,32.8058,34.6355,142.152,105.393,107.847,0.00494067,0.163733,20.8751,169.057,-0.208203,0.0,0.0
2754,688.25,33.0663,33.9573,138.74,105.404,108.055,0.005116,0.16275,20.8763,168.837,-0.224667,0.0,0.0
2771,692.5,32.8026,34.4192,139.066,105.405,107.094,0.00519614,0.162277,20.877,168.597,-0.143798,0.0,0.0
2788,696.75,33.0758,34.3466,143.179,105.372,107.547,0.00509302,0.162874,20.8782,168.266,-0.184864,0.0,0.0
2805,701,33.1821,34.3358,139.741,105.362,106.423,0.00504972,0.161754,20.8783,168.046,-0.0905985,0.0,0.0
2822,705.25,32.7591,34.1309,137.702,105.343,107.788,0.00524889,0.161181,20.8775,167.776,-0.207485,0.0,0.0
2839,709.5,32.9278,34.1869,138.839,105.313,106.901,0.00531157,0.160541,20.8774,167.446,-0.135334,0.0,0.0
2856,713.75,33.0608,34.246,141.73,105.308,107.236,0.00515055,0.160319,20.8779,167.256,-0.164138,0.0,0.0
2873,718,33.0483,34.1856,136.966,105.31,107.302,0.00540937,0.159634,20.8782,167.015,-0.169569,0.0,0.0
2890,722.25,33.2471,34.8375,141.722,105.302,107.097,0.005559,0.15911,20.8793,166.705,-0.152816,0.0,0.0
2907,726.5,32.9141,34.4463,143.836,105.326,107.587,0.00565578,0.160311,20.8804,166.415,-0.192109,0.0,0.0
2924,730.75,32.9774,34.1598,136.976,105.331,108.344,0.00541937,0.160717,20.881,166.185,-0.255124,0.0,0.0
2941,735,33.0621,34.1198,136.999,105.351,107.524,0.0053233,0.158326,20.8832,165.904,-0.184719,0.0,0.0
2958,739.25,32.9207,34.6015,140.801,105.355,107.129,0.00519627,0.158195,20.8829,165.584,-0.151029,0.0,0.0
2975,743.5,33.0309,34.3739,143.455,105.365,106.9,0.00512695,0.158386,20.8829,165.404,-0.130791,0.0,0.0
2992,747.75,32.9742,34.526,144.902,105.382,107.44,0.00512576,0.157584,20.8816,165.124,-0.174942,0.0,0.0
3009,752,32.4059,34.1703,144.464,105.368,107.503,0.00525279,0.157579,20.8813,164.813,-0.181467,0.0,0.0
3026,756.25,33.0059,34.0217,139.033,105.342,107.535,0.00530128,0.158258,20.8801,164.633,-0.186382,0.0,0.0
3043,760.5,32.9486,34.116,137.306,105.305,107.471,0.005298,0.159246,20.8809,164.393,-0.184168,0.0,0.0
3060,764.75,33.1824,34.225,143.858,105.224,107.134,0.00512359,0.159523,20.8812,164.043,-0.16272,0.0,0.0
3077,769,32.7867,34.3793,144.724,105.14,107.269,0.00510394,0.160388,20.8801,163.853,-0.181386,0.0,0.0
3094,773.25,32.8856,34.3235,139.405,105.021,108.377,0.00492005,0.159035,20.881,163.622,-0.284565,0.0,0.0
3111,777.5,32.8173,34.033,142.878,104.798,106.607,0.0051026,0.159288,20.8812,163.302,-0.154867,0.0,0.0
3128,781.75,33.0199,33.609,145.28,104.52,106.652,0.00521084,0.159966,20.8784,163.072,-0.182695,0.0,0.0
3145,786,32.5019,34.2527,139.641,104.484,107.142,0.00518178,0.161625,20.8769,162.862,-0.227268,0.0,0.0
3162,790.25,32.7216,34.4616,139.917,104.52,106.398,0.00480858,0.159736,20.88,162.602,-0.161141,0.0,0.0
3179,794.5,33.1792,34.3705,140.311,104.585,105.864,0.00461357,0.159149,20.8815,162.261,-0.109938,0.0,0.0
3196,798.75,33.2402,34.4119,138.771,104.687,107.029,0.00476266,0.160142,20.8794,162.121,-0.200124,0.0,0.0
3213,803,32.6968,34.1695,138.656,104.756,107.997,0.00470747,0.158513,20.8822,161.871,-0.275607,0.0,0.0
3230,807.25,32.3001,34.281,137.998,104.805,106.185,0.00461236,0.158798,20.8817,161.531,-0.118292,0.0,0.0
3247,811.5,32.8239,33.9705,140.763,104.881,107.502,0.00501331,0.159489,20.8817,161.37,-0.223281,0.0,0.0
3264,815.75,32.7486,33.8007,141.764,104.935,107.136,0.00497901,0.158348,20.8816,161.1,-0.18776,0.0,0.0
3281,820,32.7285,34.003,149.132,104.953,106.822,0.00505088,0.157897,20.8808,160.8,-0.159652,0.0,0.0
3298,824.25,32.7656,34.0626,142.106,104.955,107.002,0.00487851,0.157869,20.8817,160.63,-0.174718,0.0,0.0
3315,828.5,32.684,34.0245,140.671,104.936,106.577,0.00481884,0.156848,20.8825,160.37,-0.140374,0.0,0.0
3332,832.75,32.8349,34.2594,144.709,104.903,106.369,0.00510132,0.157291,20.8816,160.129,-0.125608,0.0,0.0
3349,837,32.6151,34.115,141.264,104.859,106.852,0.0050313,0.157261,20.882,159.839,-0.170342,0.0,0.0
3366,841.25,32.3976,33.8122,143.863,104.821,106.083,0.00497646,0.155319,20.8844,159.649,-0.108212,0.0,0.0
3383,845.5,32.4758,34.3679,142.754,104.802,106.076,0.0050753,0.154885,20.8851,159.439,-0.109297,0.0,0.0
3400,849.75,32.6166,34.0564,142.097,104.793,105.941,0.00507162,0.154472,20.8867,159.109,-0.0985354,0.0,0.0
3417,854,32.4466,33.6658,139.008,104.796,105.963,0.00508446,0.154699,20.8867,158.928,-0.100152,0.0,0.0
3434,858.25,32.6494,33.9359,142.119,104.826,106.307,0.00488697,0.153867,20.8849,158.688,-0.126897,0.0,0.0
3451,862.5,32.5067,33.8459,141.621,104.843,106.74,0.00498783,0.154101,20.8848,158.338,-0.162221,0.0,0.0
3468,866.75,32.2529,33.6691,144.942,104.873,106.971,0.00489267,0.153702,20.8858,158.218,-0.179225,0.0,0.0
3485,871,32.356,33.8021,142.244,104.911,106.572,0.00470667,0.153836,20.887,157.998,-0.142092,0.0,0.0
3502,875.25,31.7936,33.4674,139.821,104.936,106.758,0.00497615,0.152929,20.8866,157.697,-0.155703,0.0,0.0
3519,879.5,31.7753,33.8098,142.792,104.951,106.338,0.00485087,0.152954,20.8865,157.497,-0.118761,0.0,0.0
3536,883.75,31.9321,33.4856,137.962,104.977,107.078,0.00488422,0.153057,20.8874,157.327,-0.179316,0.0,0.0
3553,888,32.4051,33.5974,142.159,104.987,106.222,0.0049716,0.152911,20.8881,157.077,-0.105834,0.0,0.0
3570,892.25,32.5425,34.0862,146.106,104.996,107.093,0.00482346,0.152899,20.888,156.817,-0.178824,0.0,0.0
3587,896.5,32.5695,33.6082,141.491,105.002,106.353,0.00474494,0.152931,20.8874,156.646,-0.115624,0.0,0.0
3604,900.75,31.5487,33.3568,142.62,104.986,106.879,0.00464337,0.152546,20.8874,156.396,-0.161582,0.0,0.0
3621,905,31.7023,33.3522,142.1,104.952,106.94,0.00451039,0.15168,20.8883,156.076,-0.169735,0.0,0.0
3638,909.25,31.7601,33.1214,144.706,104.943,106.26,0.00458576,0.150813,20.8893,155.936,-0.112797,0.0,0.0
3655,913.5,31.6204,33.3668,142.907,104.903,106.396,0.00478462,0.15044,20.8899,155.706,-0.12779,0.0,0.0
3672,917.75,32.0482,32.9762,139.888,104.857,106.315,0.00520774,0.15165,20.8882,155.405,-0.124872,0.0,0.0
3689,922,32.2768,33.6104,139.458,104.84,106.124,0.00511062,0.151393,20.8866,155.275,-0.110182,0.0,0.0
3706,926.25,31.6577,32.9425,141.137,104.816,106.262,0.00504037,0.151106,20.8872,155.045,-0.124004,0.0,0.0
3723,930.5,31.9421,33.3363,143.277,104.775,106.541,0.00493931,0.151323,20.8879,154.835,-0.151148,0.0,0.0
3740,934.75,31.864,33.6309,137.53,104.761,106.954,0.00471068,0.150734,20.8884,154.615,-0.187472,0.0,0.0
3757,939,31.5809,33.0342,142.661,104.73,106.302,0.00490963,0.150781,20.8885,154.374,-0.13482,0.0,0.0
3774,943.25,32.002,33.0714,141.494,104.687,106.786,0.00503485,0.151424,20.8885,154.164,-0.179589,0.0,0.0
3791,947.5,31.3861,32.8186,143.189,104.666,106.566,0.00473796,0.151059,20.8885,153.864,-0.162738,0.0,0.0
3808,951.75,32.3214,33.2342,141.58,104.651,106.162,0.00475603,0.151201,20.8887,153.724,-0.129711,0.0,0.0
3825,956,31.2937,32.7008,142.591,104.604,106.394,0.0049549,0.15176,20.8905,153.504,-0.153508,0.0,0.0
3842,960.25,31.8083,33.0524,142.797,104.584,105.691,0.00513828,0.153059,20.8888,153.193,-0.0952706,0.0,0.0
3859,964.5,32.3306,33.6281,137.887,104.551,106.005,0.00521845,0.153869,20.8885,153.053,-0.124914,0.0,0.0
3876,968.75,31.8095,32.6039,141.739,104.537,105.81,0.00533485,0.153684,20.8885,152.803,-0.109488,0.0,0.0
3893,973,31.7646,33.0508,141.643,104.503,106.637,0.00519397,0.154865,20.8875,152.563,-0.182895,0.0,0.0
3910,977.25,31.8528,32.6787,138.826,104.51,105.896,0.00523809,0.154639,20.8872,152.373,-0.119156,0.0,0.0
3927,981.5,32.145,33.2007,142.307,104.638,107.203,0.00520542,0.154901,20.8851,152.152,-0.219032,0.0,0.0
3944,985.75,32.2286,33.5985,141.922,104.777,106.584,0.00505398,0.155243,20.8846,151.912,-0.154639,0.0,0.0
3961,990,32.1791,33.3837,140.327,104.903,106.737,0.00527742,0.155268,20.8837,151.622,-0.156765,0.0,0.0
3978,994.25,32.5778,33.6407,139.723,105.026,106.865,0.00541054,0.157439,20.8824,151.482,-0.156981,0.0,0.0
3995,998.5,32.1018,33.2945,142.201,105.138,106.848,0.00531474,0.157151,20.8827,151.222,-0.145954,0.0,0.0
4012,1002.75,32.6146,33.3648,139.086,105.212,106.658,0.00518732,0.158446,20.8818,150.921,-0.12353,0.0,0.0
4029,1007,32.3372,33.1839,134.015,105.295,107.036,0.00496855,0.159589,20.8798,150.771,-0.148278,0.0,0.0
4046,1011.25,32.4964,33.3805,139.403,105.346,106.983,0.0049012,0.159726,20.8806,150.531,-0.139476,0.0,0.0
4063,1015.5,32.315,33.3962,139.596,105.379,106.939,0.00505897,0.162773,20.8775,150.261,-0.132904,0.0,0.0
4080,1019.75,32.326,33.8879,138.59,105.409,106.84,0.00504217,0.163243,20.877,150.101,-0.121973,0.0,0.0
4097,1024,32.7171,34.0022,141.354,105.418,106.837,0.00520241,0.164662,20.877,149.87,-0.120896,0.0,0.0
4114,1028.25,32.8313,34.0787,144.594,105.393,106.706,0.00528566,0.165523,20.8771,149.59,-0.111948,0.0,0.0
4131,1032.5,32.7924,34.1044,141.307,105.359,107.048,0.00513781,0.164919,20.8778,149.34,-0.143896,0.0,0.0
4148,1036.75,33.2194,34.2877,141.858,105.31,106.791,0.00497031,0.165317,20.878,149.16,-0.126322,0.0,0.0
4165,1041,32.5832,33.5123,144.311,105.224,107.347,0.00503474,0.165697,20.878,148.92,-0.18071,0.0,0.0
4182,1045.25,32.5061,33.9566,146.705,105.115,107.457,0.0050134,0.167912,20.8744,148.599,-0.199307,0.0,0.0
4199,1049.5,32.9441,34.4016,137.769,104.957,106.823,0.00484933,0.168579,20.8717,148.449,-0.15944,0.0,0.0
4216,1053.75,33.2456,34.2882,140.374,104.865,107.381,0.0047712,0.16937,20.8713,148.199,-0.214471,0.0,0.0
4233,1058,33.3381,34.2486,137.111,104.924,106.96,0.00475523,0.170892,20.8681,147.889,-0.173794,0.0,0.0
4250,1062.25,33.1695,34.5245,137.664,105.018,107.07,0.00472464,0.17678,20.8614,147.709,-0.175002,0.0,0.0
4267,1066.5,34.0311,34.9005,139.262,105.121,107.071,0.00467808,0.177747,20.8599,147.458,-0.166279,0.0,0.0
4284,1070.75,33.7958,34.8724,136.277,105.208,107.691,0.00488494,0.178126,20.8604,147.128,-0.211009,0.0,0.0
4301,1075,33.7595,34.7326,137.054,105.316,108.09,0.00522797,0.177422,20.8623,146.958,-0.235102,0.0,0.0
4318,1079.25,33.3696,34.5623,140.108,105.425,107.066,0.00548097,0.175956,20.863,146.698,-0.139699,0.0,0.0
4335,1083.5,33.8363,35.0855,141.258,105.524,107.286,0.00537599,0.17741,20.8594,146.357,-0.149769,0.0,0.0
4352,1087.75,34.2157,35.6864,141.375,105.605,107.707,0.00514101,0.180325,20.8558,146.187,-0.178246,0.0,0.0
4369,1092,34.1715,34.9252,139.257,105.663,107.149,0.00539361,0.18136,20.8545,145.957,-0.126341,0.0,0.0
4386,1096.25,34.0332,35.2417,136.322,105.712,108.012,0.0053651,0.182236,20.8545,145.687,-0.194752,0.0,0.0
4403,1100.5,34.4702,35.8627,138.362,105.725,107.346,0.00502499,0.182674,20.8536,145.347,-0.137681,0.0,0.0
4420,1104.75,34.4019,36.0419,139.673,105.731,107.447,0.00507212,0.183096,20.8525,145.156,-0.145614,0.0,0.0
4437,1109,34.3728,35.2718,137.546,105.703,108.435,0.00513075,0.184295,20.851,144.906,-0.230859,0.0,0.0
4454,1113.25,34.361,35.653,143.665,105.628,108.235,0.00506934,0.185287,20.8501,144.566,-0.220543,0.0,0.0
4471,1117.5,35.0654,35.9174,145.872,105.558,108.451,0.00473589,0.186301,20.8492,144.386,-0.244519,0.0,0.0
4488,1121.75,34.6694,36.1155,140.489,105.458,107.905,0.00510049,0.18639,20.8495,144.145,-0.207498,0.0,0.0
4505,1126,34.9306,36.3374,139.241,105.324,107.953,0.00524714,0.186043,20.8499,143.805,-0.222945,0.0,0.0
4522,1130.25,35.4392,36.3554,132.022,105.204,107.415,0.00538398,0.18837,20.8465,143.625,-0.18811,0.0,0.0
4539,1134.5,35.1057,36.325,141.034,105.051,107.787,0.00534339,0.189613,20.8453,143.375,-0.232631,0.0,0.0
4556,1138.75,35.3116,36.2969,140.239,104.899,107.278,0.00528096,0.190639,20.8452,143.075,-0.202843,0.0,0.0
4573,1143,35.4908,36.5418,138.758,104.714,106.585,0.00488271,0.18987,20.8452,142.834,-0.160196,0.0,0.0
4590,1147.25,35.4414,36.4925,138.83,104.554,106.582,0.0048309,0.191616,20.8435,142.564,-0.173803,0.0,0.0
4607,1151.5,35.8527,36.8839,138.381,104.381,107.339,0.00465695,0.193249,20.8411,142.284,-0.25278,0.0,0.0
4624,1155.75,35.7198,36.5008,136.932,104.232,106.594,0.0046724,0.193798,20.8402,141.954,-0.202739,0.0,0.0
4641,1160,35.6395,36.7023,138.293,104.092,106.132,0.00443654,0.195454,20.8386,141.763,-0.175592,0.0,0.0
4658,1164.25,36.1584,37.3794,136.545,103.983,106.604,0.00428806,0.195335,20.8398,141.503,-0.225159,0.0,0.0
4675,1168.5,36.2517,37.4742,136.594,103.893,105.826,0.00443586,0.195402,20.8415,141.153,-0.166715,0.0,0.0
4692,1172.75,36.1887,37.3752,136.75,103.818,106.808,0.00452838,0.198897,20.8388,141.003,-0.25684,0.0,0.0
4709,1177,36.006,37.0265,139.553,103.79,106.609,0.00445859,0.198364,20.8384,140.652,-0.242413,0.0,0.0
4726,1181.25,36.4867,37.8286,140.885,103.727,105.873,0.00418349,0.200878,20.8363,140.242,-0.185245,0.0,0.0
4743,1185.5,36.1926,38.0871,138.638,103.708,106.658,0.00420069,0.202681,20.8334,140.042,-0.253671,0.0,0.0
4760,1189.75,36.6599,37.7651,136.435,103.682,106.675,0.00421767,0.203708,20.8321,139.842,-0.257495,0.0,0.0
4777,1194,37.077,38.3807,140.289,103.675,106.333,0.00395582,0.205245,20.8301,139.491,-0.228971,0.0,0.0
4794,1198.25,36.7222,38.4693,140.815,103.659,106.831,0.00387161,0.205298,20.8293,139.051,-0.272591,0.0,0.0
4811,1202.5,37.2269,38.6622,139.44,103.655,106.639,0.00415995,0.206704,20.8274,138.891,-0.256661,0.0,0.0
4828,1206.75,37.4289,38.5199,137.491,103.655,106.841,0.00416432,0.20917,20.8252,138.691,-0.273791,0.0,0.0
4845,1211,36.9088,38.4073,136.457,103.668,106.408,0.00392221,0.209029,20.825,138.34,-0.236013,0.0,0.0
4862,1215.25,37.3766,38.695,140.565,103.674,106.593,0.00386503,0.209582,20.825,138.15,-0.251089,0.0,0.0
4879,1219.5,37.6158,38.6647,135.676,103.69,105.987,0.00383363,0.211263,20.8234,137.79,-0.198156,0.0,0.0
4896,1223.75,37.6395,38.5822,144.222,103.688,106.239,0.00372817,0.21224,20.8209,137.4,-0.219859,0.0,0.0
4913,1228,38.0187,39.1988,138.41,103.72,106.688,0.00361456,0.214966,20.8188,137.209,-0.255206,0.0,0.0
4930,1232.25,38.163,39.4237,142.487,103.737,106.617,0.00351054,0.216655,20.8161,136.879,-0.247652,0.0,0.0
4947,1236.5,38.0246,39.695,135.437,103.763,107.619,0.00369906,0.219377,20.8141,136.509,-0.330081,0.0,0.0
4964,1240.75,38.0757,39.2901,142.184,103.784,106.815,0.00356448,0.219731,20.8138,136.279,-0.26038,0.0,0.0
4981,1245,38.5441,39.5952,136.638,103.821,107.402,0.00354666,0.220874,20.8137,135.998,-0.306774,0.0,0.0
4998,1249.25,38.7436,40.0963,137.696,103.864,106.781,0.00397038,0.221397,20.8125,135.688,-0.250501,0.0,0.0
5015,1253.5,38.7201,40.1415,136.897,103.898,107.75,0.00382621,0.222024,20.8111,135.388,-0.329295,0.0,0.0
5032,1257.75,38.7077,40.3979,140.672,103.988,107.401,0.00373454,0.222973,20.8096,135.078,-0.292126,0.0,0.0
5049,1262,38.8468,40.5429,136.994,104.048,106.296,0.00363087,0.223028,20.8114,134.727,-0.193377,0.0,0.0
5066,1266.25,39.1777,40.5553,136.148,104.136,107.293,0.00355075,0.226224,20.8081,134.337,-0.270086,0.0,0.0
5083,1270.5,39.3512,40.7689,137.049,104.257,107.594,0.00348397,0.228603,20.8042,134.087,-0.28496,0.0,0.0
5100,1274.75,39.3574,40.8409,135.419,104.383,107.883,0.00365238,0.228875,20.8028,133.786,-0.298286,0.0,0.0
5117,1279,38.8313,40.5916,136.744,104.5,107.257,0.00377032,0.230387,20.8016,133.356,-0.235548,0.0,0.0
5134,1283.25,39.4692,41.0793,137.232,104.641,107.469,0.00383374,0.23262,20.7981,133.136,-0.241226,0.0,0.0
5151,1287.5,39.8773,41.0825,138.163,104.799,108.322,0.00380724,0.235103,20.7957,132.796,-0.299071,0.0,0.0
5168,1291.75,39.5409,41.5224,135.76,104.942,107.999,0.00386993,0.238603,20.7921,132.475,-0.259719,0.0,0.0
5185,1296,40.3008,41.6055,137.699,105.127,108.509,0.00384321,0.239151,20.792,132.165,-0.286355,0.0,0.0
5202,1300.25,40.3144,41.7161,135.077,105.298,109.09,0.00385688,0.238972,20.7914,131.805,-0.320076,0.0,0.0
5219,1304.5,40.1811,42.3765,138.836,105.423,108.539,0.00391781,0.240998,20.7847,131.444,-0.263494,0.0,0.0
5236,1308.75,40.6109,41.9659,137.609,105.549,108.864,0.00395889,0.243835,20.7823,131.004,-0.279672,0.0,0.0
5253,1313,40.6757,42.2677,133.926,105.624,108.758,0.00406013,0.245925,20.78,130.794,-0.264474,0.0,0.0
5270,1317.25,40.8032,42.4875,135.961,105.663,109.347,0.00382518,0.247307,20.7788,130.464,-0.30998,0.0,0.0
5287,1321.5,40.5561,42.6492,134.985,105.649,108.352,0.00383729,0.249061,20.7762,130.003,-0.228532,0.0,0.0
5304,1325.75,41.2228,43.0763,134.315,105.609,108.503,0.00382096,0.252993,20.7763,129.693,-0.244488,0.0,0.0
5321,1330,41.3165,43.1491,138.136,105.57,109.078,0.00369594,0.254925,20.773,129.353,-0.295682,0.0,0.0
5338,1334.25,41.1587,43.2226,133.254,105.511,109.631,0.00371684,0.260631,20.7669,128.942,-0.346485,0.0,0.0
5355,1338.5,41.9982,43.7136,136.272,105.479,108.811,0.00363975,0.260521,20.7654,128.652,-0.281387,0.0,0.0
5372,1342.75,42.0339,43.6972,137.323,105.455,109.088,0.00322444,0.262715,20.7635,128.262,-0.30635,0.0,0.0
5389,1347,42.3971,44.0018,139.965,105.441,109,0.00353009,0.264757,20.7626,127.861,-0.300282,0.0,0.0
5406,1351.25,42.2463,43.9629,134.668,105.459,109.111,0.00343991,0.269471,20.7576,127.491,-0.307953,0.0,0.0
5423,1355.5,42.6405,44.5409,133.846,105.503,109.597,0.00325374,0.275025,20.7524,127.131,-0.344367,0.0,0.0
5440,1359.75,42.8719,44.4907,132.771,105.532,109.302,0.00333201,0.278027,20.7474,126.76,-0.317465,0.0,0.0
5457,1364,42.8131,44.9067,134.092,105.572,108.902,0.00347335,0.285654,20.738,126.23,-0.280889,0.0,0.0
5474,1368.25,43.5095,44.879,132.602,105.624,109.016,0.00350098,0.291426,20.7295,125.88,-0.285984,0.0,0.0
5491,1372.5,44.1166,45.4067,131.632,105.655,109.502,0.00359677,0.298127,20.721,125.479,-0.323451,0.0,0.0
5508,1376.75,44.1256,45.8379,133.74,105.693,108.709,0.00375553,0.303553,20.7155,124.969,-0.254469,0.0,0.0
5525,1381,44.6443,46.3381,130.159,105.701,109.396,0.00402749,0.305178,20.7148,124.628,-0.310802,0.0,0.0
5542,1385.25,44.4616,46.2819,135.137,105.681,109.499,0.00392623,0.304783,20.7144,124.178,-0.321048,0.0,0.0
5559,1389.5,45.0381,47.1129,135.341,105.651,110.184,0.00344436,0.307777,20.7112,123.668,-0.380039,0.0,0.0
5576,1393.75,45.4949,47.5468,134.528,105.614,109.508,0.00331364,0.312357,20.7049,123.317,-0.327499,0.0,0.0
5593,1398,45.6726,47.3842,133.624,105.56,109.464,0.0028094,0.315468,20.6997,122.877,-0.328476,0.0,0.0
5610,1402.25,46.6325,48.1604,129.114,105.491,110.747,0.00288901,0.319177,20.6954,122.417,-0.439836,0.0,0.0
5627,1406.5,46.6146,47.9925,131.925,105.409,108.716,0.00295421,0.318129,20.6943,121.956,-0.279354,0.0,0.0
5644,1410.75,46.5863,48.5,131.279,105.314,108.155,0.00272319,0.32245,20.6911,121.526,-0.240814,0.0,0.0
5661,1415,46.9009,48.4936,130.9,105.194,108.7,0.00284298,0.327433,20.6861,121.045,-0.296554,0.0,0.0
5678,1419.25,46.9745,49.2315,133.21,105.084,108.459,0.0029727,0.331427,20.6854,120.485,-0.285948,0.0,0.0
5695,1423.5,47.5326,49.6776,133.969,104.991,109.148,0.00292321,0.339767,20.6757,120.095,-0.351261,0.0,0.0
5712,1427.75,47.9007,50.0999,135.584,104.89,109.57,0.00288901,0.342864,20.6714,119.594,-0.394797,0.0,0.0
5729,1432,48.4696,50.1983,132.969,104.785,108.512,0.00306401,0.350596,20.6635,119.034,-0.316167,0.0,0.0
5746,1436.25,49.0606,50.8478,133.251,104.707,108.074,0.00311689,0.355326,20.6575,118.623,-0.286312,0.0,0.0
5763,1440.5,49.1927,51.2669,133.349,104.605,108.585,0.00313569,0.362995,20.6503,118.073,-0.337741,0.0,0.0
5780,1444.75,50.0951,51.8247,131.508,104.504,109.229,0.00294036,0.374566,20.6344,117.542,-0.400056,0.0,0.0
5797,1449,50.5211,52.4292,129.555,104.426,108.759,0.0029905,0.383223,20.6231,117.012,-0.367713,0.0,0.0
5814,1453.25,51.2786,53.0023,129.874,104.367,108.288,0.00330673,0.3952,20.6084,116.441,-0.33363,0.0,0.0
5831,1457.5,51.7686,53.5034,131.395,104.29,108.296,0.00383462,0.408343,20.5918,115.871,-0.340996,0.0,0.0
5848,1461.75,52.2168,53.9616,126.969,104.237,107.439,0.00390236,0.418194,20.5804,115.28,-0.273751,0.0,0.0
5865,1466,52.9309,55.0824,129.796,104.189,107.904,0.00391845,0.428718,20.5667,114.68,-0.316907,0.0,0.0
5882,1470.25,53.7962,56.1607,126.2,104.131,106.716,0.00393684,0.441089,20.5509,114.079,-0.221783,0.0,0.0
5899,1474.5,54.7554,56.7674,125.395,104.074,108.301,0.0041101,0.448487,20.5419,113.379,-0.360061,0.0,0.0
5916,1478.75,55.4191,57.246,132.531,104.027,106.588,0.00404994,0.451939,20.5364,112.838,-0.220032,0.0,0.0
5933,1483,56.3273,58.4083,131.584,104.004,107.867,0.00402457,0.452181,20.5344,112.228,-0.329871,0.0,0.0
5950,1487.25,56.7313,58.4949,132.524,103.949,107.182,0.00400063,0.451058,20.5358,111.517,-0.277053,0.0,0.0
5967,1491.5,56.9259,59.0503,124.916,103.934,107.579,0.00398534,0.441675,20.5452,111.037,-0.311766,0.0,0.0
5984,1495.75,57.1124,59.3529,127.756,103.899,105.255,0.00414392,0.436705,20.5502,110.416,-0.117258,0.0,0.0
6001,1500,57.0027,59.6898,127.069,103.849,106.091,0.00419093,0.432952,20.554,109.756,-0.193243,0.0,0.0
6018,1504.25,57.3613,59.9536,130.539,103.816,105.476,0.0042191,0.423526,20.5637,109.285,-0.143503,0.0,0.0
6035,1508.5,57.7951,60.6107,127.733,103.779,107.272,0.00410148,0.417013,20.5707,108.755,-0.299432,0.0,0.0
6052,1512.75,57.6955,60.3404,125.965,103.75,105.374,0.00377439,0.41165,20.5755,108.154,-0.140495,0.0,0.0
6069,1517,57.2749,60.3797,127.62,103.723,105.973,0.00361299,0.406721,20.5816,107.644,-0.194128,0.0,0.0
6086,1521.25,57.5174,60.5274,129.991,103.704,106.399,0.00385466,0.403727,20.5842,107.113,-0.232051,0.0,0.0
6103,1525.5,57.4406,60.8514,128.159,103.68,106.335,0.00375898,0.40239,20.5867,106.603,-0.228729,0.0,0.0
6120,1529.75,57.5384,60.6074,129.651,103.651,106.543,0.00360963,0.397168,20.5939,105.992,-0.248927,0.0,0.0
6137,1534,57.4571,60.6721,128.581,103.655,105.384,0.00334875,0.390177,20.6003,105.562,-0.149669,0.0,0.0
6154,1538.25,57.0702,60.2004,131.792,103.639,106.875,0.00307268,0.382566,20.6103,105.061,-0.278071,0.0,0.0
6171,1542.5,56.9163,60.2706,133.374,103.624,107.845,0.00310422,0.370218,20.6249,104.471,-0.36118,0.0,0.0
6188,1546.75,56.2173,59.8469,135.66,103.65,107.224,0.00291135,0.360509,20.6371,104.111,-0.30659,0.0,0.0
6205,1551,56.3475,59.5217,132.279,103.649,107.26,0.00278827,0.345028,20.6551,103.71,-0.309688,0.0,0.0
6222,1555.25,55.3229,58.5607,133.355,103.677,107.995,0.00271301,0.332454,20.6676,103.21,-0.369101,0.0,0.0
6239,1559.5,54.6581,58.6017,133.197,103.734,107.675,0.00252462,0.320065,20.6813,102.9,-0.337321,0.0,0.0
6256,1563.75,53.8693,57.9415,135.908,103.804,108.013,0.0023152,0.310668,20.6912,102.509,-0.359491,0.0,0.0
6273,1568,53.4116,57.3567,134.214,103.885,106.93,0.00226911,0.302293,20.7016,102.139,-0.261355,0.0,0.0
6290,1572.25,52.8908,56.9773,133.371,104.001,108.195,0.00267158,0.294682,20.7109,101.769,-0.357584,0.0,0.0
6307,1576.5,52.4959,56.2411,137.735,104.134,107.697,0.00262878,0.285821,20.7207,101.448,-0.304289,0.0,0.0
6324,1580.75,51.6754,56.0383,137.703,104.252,108.445,0.00260038,0.275096,20.7316,101.098,-0.356661,0.0,0.0
6341,1585,51.2254,55.0758,135.548,104.393,108.652,0.00264221,0.26498,20.745,100.678,-0.36173,0.0,0.0
6358,1589.25,50.6457,54.5095,135.844,104.542,108.437,0.00234104,0.257552,20.7537,100.477,-0.330841,0.0,0.0
6375,1593.5,49.9572,53.9851,134.533,104.685,108.035,0.00223296,0.250506,20.7606,100.197,-0.284972,0.0,0.0
6392,1597.75,49.6717,53.8541,131.61,104.789,109.434,0.00227067,0.244445,20.7686,99.7769,-0.392315,0.0,0.0
6409,1602,48.8997,52.6881,134.947,104.915,108.777,0.0027407,0.238776,20.7738,99.6267,-0.32704,0.0,0.0
6426,1606.25,48.4915,52.0591,135.298,104.966,110.108,0.00281774,0.232082,20.783,99.3665,-0.432614,0.0,0.0
6443,1610.5,47.8484,51.782,133.618,104.997,108.489,0.00292812,0.227656,20.7883,99.0462,-0.295931,0.0,0.0
6460,1614.75,47.2722,50.8403,136.813,105.031,108.465,0.0033697,0.220866,20.7964,98.8661,-0.290996,0.0,0.0
6477,1619,46.6997,50.293,136.449,105.001,108.674,0.00360632,0.21444,20.8027,98.6359,-0.311005,0.0,0.0
6494,1623.25,46.0686,49.77,134.642,104.947,108.017,0.00373231,0.209886,20.8069,98.3957,-0.260764,0.0,0.0
6511,1627.5,45.6184,49.2634,137.869,104.873,108.042,0.00374915,0.203472,20.8147,98.1454,-0.269245,0.0,0.0
6528,1631.75,44.4386,48.4729,138.077,104.797,108.194,0.00380892,0.197499,20.8235,97.9853,-0.288515,0.0,0.0
6545,1636,44.3997,47.8778,139.975,104.717,107.482,0.00381642,0.19107,20.8311,97.7951,-0.235752,0.0,0.0
6562,1640.25,44.2617,47.4759,137.071,104.611,108.115,0.00423601,0.184526,20.8391,97.5049,-0.298031,0.0,0.0
6579,1644.5,43.4952,46.7263,140.545,104.526,107.333,0.00443484,0.177598,20.8462,97.4348,-0.239754,0.0,0.0
6596,1648.75,42.6419,45.9988,138.554,104.484,106.945,0.00455551,0.174062,20.8499,97.2447,-0.210619,0.0,0.0
6613,1653,42.1154,45.3621,140.005,104.562,107.064,0.0047543,0.170233,20.8565,96.9744,-0.213856,0.0,0.0
6630,1657.25,41.8176,44.9774,140.171,104.843,107.75,0.00507962,0.163213,20.8639,96.9344,-0.247351,0.0,0.0
6647,1661.5,40.6356,44.0042,138.552,105.07,108.098,0.00516076,0.156693,20.871,96.7943,-0.257066,0.0,0.0
6664,1665.75,39.8496,43.4887,138.668,105.215,108.274,0.00527681,0.152087,20.8768,96.5641,-0.259237,0.0,0.0
6681,1670,39.7328,42.7315,138.215,105.317,108.318,0.00544738,0.148317,20.881,96.514,-0.254108,0.0,0.0
6698,1674.25,39.4466,42.6474,143.124,105.376,107.934,0.00575392,0.143391,20.8855,96.3839,-0.21692,0.0,0.0
6715,1678.5,38.741,41.6902,139.159,105.375,107.892,0.00581439,0.139878,20.8898,96.2238,-0.213513,0.0,0.0
6732,1682.75,38.465,41.1792,142.472,105.335,108.558,0.0062166,0.13674,20.8941,96.1037,-0.272556,0.0,0.0
6749,1687,37.6732,40.9062,141.701,105.238,107.741,0.0061852,0.132829,20.8987,96.0036,-0.212614,0.0,0.0
6766,1691.25,37.6131,40.065,142.012,105.065,107.461,0.00637258,0.1307,20.9018,95.8935,-0.203955,0.0,0.0
6783,1695.5,36.9366,39.5919,140.689,104.826,107.25,0.00653327,0.128142,20.9016,95.6733,-0.206757,0.0,0.0
6800,1699.75,36.5008,39.1465,141.732,104.881,106.235,0.00668359,0.126373,20.9038,95.7033,-0.116016,0.0,0.0
6817,1704,36.0035,38.7313,140.253,104.983,107.303,0.00659774,0.12421,20.9075,95.6032,-0.19779,0.0,0.0
6834,1708.25,35.5784,38.5676,141.113,105.078,107.893,0.00665224,0.120788,20.9111,95.393,-0.239059,0.0,0.0
6851,1712.5,35.673,37.6066,143.959,105.194,107.632,0.0065582,0.120471,20.9136,95.373,-0.207278,0.0,0.0
6868,1716.75,35.2288,37.0255,143.738,105.271,107.361,0.00685676,0.117977,20.9155,95.2629,-0.177817,0.0,0.0
6885,1721,34.9239,36.9564,145.715,105.357,107.338,0.00771999,0.115611,20.92,95.1428,-0.168488,0.0,0.0
6902,1725.25,34.5043,36.3278,142.935,105.435,107.222,0.00756574,0.113116,20.923,95.1428,-0.151999,0.0,0.0
6919,1729.5,33.719,36.0342,143.632,105.487,107.469,0.00791114,0.110934,20.9267,95.0327,-0.168381,0.0,0.0
6936,1733.75,33.9496,35.7184,148.643,105.526,107.498,0.00782507,0.109223,20.9278,94.9326,-0.167513,0.0,0.0
6953,1738,33.0701,35.4333,143.368,105.558,107.801,0.00793178,0.110861,20.9262,94.7525,-0.1902,0.0,0.0
6970,1742.25,33.3762,34.688,144.164,105.592,107.804,0.00801639,0.108333,20.9272,94.6824,-0.187465,0.0,0.0
6987,1746.5,33.2431,34.0773,139.398,105.602,107.826,0.00816784,0.107896,20.9287,94.6724,-0.188547,0.0,0.0
7004,1750.75,32.8929,34.0491,146.576,105.612,107.224,0.00847131,0.105975,20.9306,94.4923,-0.136976,0.0,0.0
7021,1755,32.5971,34.2015,140.941,105.625,106.941,0.00846136,0.105023,20.9322,94.5623,-0.111933,0.0,0.0
7038,1759.25,32.131,33.7358,143.819,105.639,107.745,0.00839919,0.103106,20.9341,94.4522,-0.178522,0.0,0.0
7055,1763.5,31.329,33.275,144.887,105.623,107.232,0.00837852,0.101999,20.9339,94.2921,-0.136739,0.0,0.0
7072,1767.75,31.8905,32.7559,143.987,105.622,107.38,0.00837499,0.100942,20.9341,94.2521,-0.149261,0.0,0.0
7089,1772,31.4057,32.7471,141.445,105.626,107.129,0.00812427,0.098975,20.9367,94.162,-0.127802,0.0,0.0
7106,1776.25,30.88,32.7036,146.65,105.611,107.3,0.00828173,0.0994871,20.9369,94.0219,-0.14349,0.0,0.0
7123,1780.5,31.0898,32.2268,144.471,105.608,107.991,0.0082677,0.100485,20.9342,94.0018,-0.201786,0.0,0.0
7140,1784.75,31.0194,32.238,144.174,105.608,106.878,0.00805117,0.0991858,20.9363,94.0118,-0.108133,0.0,0.0
7157,1789,30.8139,31.3925,142.386,105.579,107.029,0.00779512,0.0979797,20.9385,93.9218,-0.123358,0.0,0.0
7174,1793.25,30.2049,31.6576,147.129,105.561,107.607,0.00814314,0.0980212,20.939,93.8017,-0.173676,0.0,0.0
7191,1797.5,30.7229,31.0213,147.069,105.528,107.021,0.00832682,0.0978409,20.9388,93.7616,-0.12711,0.0,0.0
7208,1801.75,30.2051,30.9906,145.066,105.502,106.552,0.00815274,0.0969377,20.9387,93.7016,-0.0895878,0.0,0.0
7225,1806,29.4724,30.8027,145.045,105.435,107.089,0.0077854,0.0971238,20.9383,93.5214,-0.140793,0.0,0.0
7242,1810.25,29.7186,30.7577,148.395,105.396,107.465,0.00782941,0.0971156,20.9413,93.5815,-0.175823,0.0,0.0
7259,1814.5,29.7638,30.0444,144.209,105.335,106.94,0.00795184,0.0959858,20.9422,93.5214,-0.136757,0.0,0.0
7276,1818.75,29.8027,30.5659,139.666,105.256,106.807,0.00803327,0.0952549,20.9441,93.3413,-0.132272,0.0,0.0
7293,1823,27.916,28.5301,143.274,105.21,107.04,0.00799432,0.094898,20.944,93.3713,-0.156009,0.0,0.0
7310,1827.25,27.4607,28.8702,144.867,105.19,106.56,0.00805242,0.0948905,20.9431,93.3212,-0.117121,0.0,0.0
7327,1831.5,27.7252,28.5113,142.731,105.111,106.24,0.00814552,0.0947307,20.9421,93.1811,-0.0966802,0.0,0.0
7344,1835.75,27.1899,28.1908,143.112,105.035,107.007,0.00775009,0.0938148,20.9429,93.2011,-0.168231,0.0,0.0
7361,1840,27.3707,28.0681,139.705,104.957,106.124,0.00739713,0.0937526,20.945,93.1611,-0.100007,0.0,0.0
7378,1844.25,27.0207,27.9372,144.72,104.861,106.302,0.00765117,0.0940527,20.9454,93.091,-0.123475,0.0,0.0
7395,1848.5,27.3751,27.7028,148.246,104.807,106.56,0.0074051,0.094014,20.9455,92.9709,-0.150109,0.0,0.0
7412,1852.75,26.9615,27.8163,146.438,104.744,106.524,0.00753369,0.0946665,20.945,92.9209,-0.152461,0.0,0.0
7429,1857,27.1078,27.7481,144.419,104.904,105.873,0.00761915,0.0943539,20.9446,92.9109,-0.0831011,0.0,0.0
7446,1861.25,26.9498,27.5207,147.938,105.032,106.684,0.00744014,0.0948135,20.9428,92.6907,-0.141159,0.0,0.0
7463,1865.5,26.5146,26.8062,141.801,105.159,106.904,0.00734248,0.0936005,20.943,92.7507,-0.148906,0.0,0.0
7480,1869.75,27.0084,27.451,143.148,105.263,107.326,0.00750425,0.0937566,20.9431,92.6807,-0.175563,0.0,0.0
7497,1874,26.4853,27.348,141.962,105.272,106.231,0.00745777,0.0945597,20.9431,92.5606,-0.082001,0.0,0.0
7514,1878.25,26.7005,27.2957,145.893,105.296,106.208,0.0074089,0.0948737,20.9433,92.5706,-0.078028,0.0,0.0
7531,1882.5,26.5697,26.9082,142.744,105.304,106.687,0.00724602,0.0942046,20.9455,92.5406,-0.118025,0.0,0.0
7548,1886.75,26.6008,26.8517,143.596,105.294,107.045,0.00723909,0.0935346,20.9461,92.4705,-0.149211,0.0,0.0
7565,1891,26.6791,26.7607,143.787,105.302,106.042,0.00721421,0.0928976,20.9457,92.4405,-0.0633469,0.0,0.0
7582,1895.25,26.5808,26.6171,143.756,105.319,106.72,0.0074259,0.0952825,20.9429,92.3404,-0.119555,0.0,0.0
7599,1899.5,26.5275,26.8902,146.785,105.318,106.55,0.0075267,0.0943653,20.9456,92.3104,-0.105246,0.0,0.0
7616,1903.75,26.4447,26.8044,144.928,105.298,106.634,0.00732142,0.0933543,20.9463,92.1802,-0.114027,0.0,0.0
7633,1908,26.1667,26.5764,146.436,105.272,106.532,0.00733404,0.0926131,20.9454,92.1903,-0.107622,0.0,0.0
7650,1912.25,26.7515,26.8165,144.911,105.25,106.379,0.00761229,0.0949815,20.9422,92.1802,-0.0964568,0.0,0.0
7667,1916.5,25.7501,26.4366,147.803,105.21,106.444,0.00737253,0.0955158,20.9415,92.0101,-0.105451,0.0,0.0
7684,1920.75,26.1023,26.5015,149.297,105.179,106.163,0.00739371,0.0959246,20.9414,92.0301,-0.0841655,0.0,0.0
7701,1925,26.2788,26.5842,143.677,105.114,106.365,0.00753404,0.0954772,20.9418,91.9801,-0.107011,0.0,0.0
7718,1929.25,25.739,26.3378,140.479,105.057,106.253,,0.0952765,,91.85,-0.102369,0.0,0.0
7735,1933.5,25.6237,26.3678,144.184,105.018,106.234,,,,91.85,-0.104095,0.0,0.0
7752,1937.75,25.9624,26.5279,147.424,104.954,106.155,,,,91.7899,-0.102961,0.0,0.0
7754,1938.25,26.0347,26.3795,146.158,104.936,106.015,,,,91.6898,-0.0925342,0.0,0.0