File: 01_Data/Eucalyptus_Flooring/Cone/Eucalyptus_Flooring_Cone_HF25Scan_220526_R1.csv
Names,Time,Stack TC,Smoke TC,Exh Press,Smoke Comp,Smoke Meas,CO Meter,CO2 Meter,O2 Meter,Sample Mass,Ext Coeff,Start Test,Flame Verif
Chan Gain,,500,500,1,1,1,1,1,1,1,1,1.0,1.0
Offset,,0,0,0.138596,0,0,0,0,0,0,0,0.0,0.0
Gain,,1,1,25.011,13.8491,15.2622,1,1,1,1.00087,1.03118,1.0,1.0
Units,sec,C,C,Pa,%,%,%,%,%,g,/m,,
Baseline,,27.0951,27.9137,140.433,105.407,109.758,0.000809672,0.0547066,20.9835,-452.881,-0.36588,,
19,4.5,24.2367,25.1167,140.602,104.919,109.263,0.000497431,0.0564773,20.9808,209.112,-0.367019,0.0,0.0
38,9.25,24.3687,25.0649,142.508,104.916,108.748,0.00050458,0.0552749,20.9833,209.132,-0.32449,0.0,0.0
57,14,25.009,25.6167,137.652,104.915,108.738,0.00030349,0.0542304,20.9856,209.162,-0.323711,0.0,0.0
76,18.75,24.6008,25.236,136.532,104.918,109.507,0.000573323,0.0536177,20.9869,209.142,-0.387274,0.0,0.0
95,23.5,24.8718,25.7605,140.587,104.905,108.825,0.000736689,0.0533841,20.9881,209.142,-0.331826,0.0,0.0
114,28.25,24.8403,25.6258,137.046,104.916,108.661,0.000640099,0.053396,20.9876,209.142,-0.317204,0.0,0.0
133,33,24.841,25.1661,139.481,104.899,108.686,0.000599214,0.053567,20.9879,209.122,-0.32083,0.0,0.0
152,37.75,25.0169,25.6474,143.107,104.905,108.65,0.00084418,0.0538746,20.9879,209.062,-0.317298,0.0,0.0
171,42.5,25.6288,26.1207,142.934,104.879,109.212,0.00098836,0.0539455,20.9869,208.992,-0.3662,0.0,0.0
190,47.25,24.9755,25.445,140.871,104.882,108.307,0.000440823,0.0538596,20.9887,208.962,-0.290643,0.0,0.0
209,52,24.9895,25.9147,141.838,104.871,108.628,0.000237383,0.0537504,20.989,208.962,-0.318391,0.0,0.0
228,56.75,24.961,25.5186,141.743,104.848,108.716,0.00066436,0.0534885,20.9889,208.952,-0.327724,0.0,0.0
247,61.5,25.4156,25.8484,139.595,104.828,108.882,0.000800668,0.0533285,20.9889,208.892,-0.34326,0.0,0.0
266,66.25,25.683,26.1901,135.96,104.802,108.211,0.000779859,0.053182,20.9883,208.802,-0.289552,0.0,0.0
285,71,25.5255,26.7278,142.307,104.759,108.417,0.000705763,0.0531025,20.9868,208.702,-0.310466,0.0,0.0
304,75.75,25.3806,26.02,137.816,104.721,108.677,0.000888451,0.0531848,20.9884,208.702,-0.335375,0.0,0.0
323,80.5,25.7697,26.3239,139.6,104.693,108.777,0.000676897,0.0533411,20.9893,208.642,-0.346077,0.0,0.0
342,85.25,25.5341,26.5801,139.406,104.682,108.6,0.000391567,0.0537345,20.9893,208.552,-0.332296,0.0,0.0
361,90,25.484,26.6014,142.798,104.759,108.295,0.00029312,0.0547098,20.9875,208.481,-0.300318,0.0,0.0
380,94.75,26.0845,25.4664,137.761,104.881,108.941,0.000516946,0.0549393,20.9873,208.361,-0.343577,0.0,0.0
399,99.5,26.0951,26.8508,140.568,105.029,108.791,0.000691443,0.0555186,20.9872,208.311,-0.318332,0.0,0.0
418,104.25,25.8494,26.6494,135.882,105.172,108.938,0.00051958,0.0561165,20.9855,208.281,-0.31819,0.0,0.0
437,109,26.3122,27.0087,141.347,105.266,109.24,0.000895542,0.0565569,20.9863,208.161,-0.335263,0.0,0.0
456,113.75,26.0505,26.8094,142.324,105.379,110.453,0.00107948,0.0566889,20.987,208.081,-0.425374,0.0,0.0
475,118.5,26.1866,27.1016,141.591,105.436,109.608,0.00117698,0.0573133,20.9859,207.941,-0.350981,0.0,0.0
494,123.25,26.2073,27.095,141.185,105.489,109.815,0.00144911,0.057287,20.9851,207.871,-0.363574,0.0,0.0
513,128,26.6544,27.1368,141.452,105.532,109.18,0.00114219,0.0572105,20.9849,207.811,-0.307472,0.0,0.0
532,132.75,26.5823,26.0253,138.035,105.554,109.703,0.0014876,0.0578387,20.9844,207.721,-0.348709,0.0,0.0
551,137.5,26.6254,27.4385,138.62,105.568,109.055,0.00138739,0.0591591,20.9833,207.611,-0.293932,0.0,0.0
570,142.25,26.4733,27.4973,139.959,105.562,108.525,0.00143458,0.0593527,20.9822,207.501,-0.250443,0.0,0.0
589,147,26.7922,27.7037,138.552,105.529,109.03,0.00178088,0.0591674,20.982,207.34,-0.295219,0.0,0.0
608,151.75,27.0526,27.0086,139.559,105.494,109.449,0.00214078,0.0589808,20.9835,207.27,-0.332859,0.0,0.0
627,156.5,27.0305,27.8055,139.57,105.456,109.107,0.00211847,0.05901,20.9853,207.19,-0.307862,0.0,0.0
646,161.25,26.6735,27.7731,141.433,105.414,108.809,0.00218863,0.0592523,20.9855,207.06,-0.286666,0.0,0.0
665,166,26.4123,27.6229,140.294,105.358,108.242,0.00243676,0.0597266,20.9856,206.98,-0.244245,0.0,0.0
684,170.75,26.9066,27.6831,142.014,105.306,107.503,0.00241089,0.06007,20.9856,206.8,-0.186727,0.0,0.0
703,175.5,27.1453,27.7049,137.693,105.272,108.034,0.0028568,0.0608165,20.9839,206.69,-0.234311,0.0,0.0
722,180.25,27.3185,28.025,139.165,105.258,107.407,0.00305765,0.0623985,20.9809,206.53,-0.18279,0.0,0.0
741,185,27.5011,27.8619,137.709,105.227,107.762,0.00410126,0.0934417,20.9418,206.41,-0.215321,0.0,0.0
760,189.75,29.1477,28.704,129.182,105.237,96.5228,0.00886459,0.270029,20.7014,205.899,0.781887,0.0,1.0
779,194.5,31.7143,30.2366,124.43,105.288,92.0803,0.0134389,0.448692,20.5113,205.159,1.21249,0.0,0.0
798,199.25,36.7101,34.2106,120.731,105.342,91.4203,0.0209929,0.618166,20.287,204.098,1.28213,0.0,0.0
817,204,42.724,39.273,117.205,105.409,88.2312,0.0261308,0.756764,20.1196,202.997,1.60903,0.0,0.0
836,208.75,47.1964,44.3362,117.585,105.452,96.4473,0.0217594,0.735191,20.156,201.986,0.807397,0.0,0.0
855,213.5,50.7759,47.4156,123.071,105.501,102.166,0.0162471,0.649594,20.2585,200.985,0.290529,0.0,0.0
874,218.25,51.9652,49.9013,125.042,105.519,104.917,0.0119717,0.581793,20.3486,200.194,0.0517194,0.0,0.0
893,223,53.406,51.7563,122.946,105.53,108.062,0.00863902,0.511891,20.446,199.374,-0.214414,0.0,0.0
912,227.75,52.9624,53.1371,123.003,105.504,110.146,0.00674282,0.449682,20.5231,198.843,-0.389507,0.0,0.0
931,232.5,52.9955,53.8095,125.654,105.46,110.145,0.00581083,0.40019,20.5861,198.283,-0.393161,0.0,0.0
950,237.25,52.8321,53.7114,132.493,105.384,110.914,0.0049632,0.367294,20.6269,197.762,-0.462658,0.0,0.0
969,242,51.5351,53.9015,129.529,105.225,111.998,0.00385712,0.336473,20.6614,197.182,-0.564306,0.0,0.0
988,246.75,51.5808,53.5239,128.205,105.044,111.164,0.00347343,0.309916,20.6962,196.661,-0.512206,0.0,0.0
1007,251.5,50.5314,52.938,132.877,104.846,111.885,0.00348178,0.286784,20.7233,196.251,-0.587809,0.0,0.0
1026,256.25,49.6076,52.4721,129.695,104.661,111.983,0.0033706,0.268625,20.7437,195.82,-0.611625,0.0,0.0
1045,261,48.3219,51.7317,133.823,104.644,111.859,0.00318371,0.254548,20.761,195.47,-0.60311,0.0,0.0
1064,265.75,47.5575,51.0138,132.482,104.726,110.675,0.00300609,0.242823,20.7764,195.09,-0.499847,0.0,0.0
1083,270.5,46.82,50.2576,130.631,104.819,111.875,0.00306471,0.23474,20.7866,194.639,-0.589352,0.0,0.0
1102,275.25,45.9182,49.7963,131.62,104.913,110.694,0.00306932,0.228023,20.794,194.269,-0.485176,0.0,0.0
1121,280,45.0321,47.6441,134.893,105.06,111.39,0.0030129,0.221841,20.8021,193.979,-0.529225,0.0,0.0
1140,284.75,44.1963,48.3132,133.468,105.185,111.289,0.00288556,0.213509,20.8108,193.679,-0.510287,0.0,0.0
1159,289.5,43.1228,47.8917,136.581,105.266,111.821,0.00290781,0.210686,20.814,193.348,-0.546477,0.0,0.0
1178,294.25,42.8589,47.028,134.378,105.317,111.362,0.00317095,0.206601,20.8189,193.028,-0.504858,0.0,0.0
1197,299,42.5487,45.8141,131.129,105.279,110.86,0.00353886,0.201335,20.8252,192.618,-0.467252,0.0,0.0
1216,303.75,41.9885,45.884,127.886,105.187,111.062,0.00381756,0.19779,20.8295,192.307,-0.49161,0.0,0.0
1235,308.5,41.0377,45.0989,130.293,105.062,110.236,0.00353272,0.194559,20.8323,192.047,-0.434904,0.0,0.0
1254,313.25,40.2748,45.0303,129.032,104.871,110.336,0.00366654,0.191429,20.835,191.697,-0.459541,0.0,0.0
1273,318,40.0284,44.1455,137.085,104.676,109.247,0.0037507,0.185233,20.842,191.437,-0.386608,0.0,0.0
1292,322.75,39.517,43.6167,133.296,104.524,111.277,0.004299,0.182831,20.8437,191.106,-0.566289,0.0,0.0
1311,327.5,39.198,42.9617,135.11,104.397,110.046,0.00454417,0.179247,20.849,190.736,-0.476679,0.0,0.0
1330,332.25,38.7547,42.6495,134.111,104.324,109.678,0.00429351,0.176929,20.8525,190.516,-0.452723,0.0,0.0
1349,337,38.4334,42.2533,132.265,104.286,110.514,0.00414153,0.174823,20.8539,190.226,-0.524674,0.0,0.0
1368,341.75,38.3262,41.7507,134.373,104.251,110.762,0.00424949,0.172057,20.8553,189.965,-0.547938,0.0,0.0
1387,346.5,37.9,41.3062,135.95,104.231,110.193,0.00461398,0.170156,20.8573,189.625,-0.503138,0.0,0.0
1406,351.25,37.6018,41.1407,132.432,104.201,109.442,0.00451939,0.173672,20.8541,189.305,-0.443895,0.0,0.0
1425,356,37.4979,40.5331,136.266,104.252,109.922,0.00442358,0.175032,20.8534,189.065,-0.479059,0.0,0.0
1444,360.75,37.2719,40.3108,135.309,104.284,110.464,0.00423823,0.175132,20.8528,188.804,-0.520776,0.0,0.0
1463,365.5,37.1155,39.3493,135.421,104.296,109.851,0.00446325,0.171839,20.8545,188.564,-0.469344,0.0,0.0
1482,370.25,36.6299,39.6706,137.109,104.31,110.063,0.00448543,0.172634,20.8546,188.244,-0.485644,0.0,0.0
1501,375,36.5958,39.2487,136.716,104.318,110.162,0.0041072,0.171465,20.8569,187.914,-0.493097,0.0,0.0
1520,379.75,36.6734,39.1555,139.487,104.339,109.9,0.00400055,0.169972,20.8582,187.683,-0.469631,0.0,0.0
1539,384.5,37.4683,40.5263,132.613,104.368,110.237,0.00423867,0.171289,20.8573,187.443,-0.494891,0.0,0.0
1558,389.25,37.3153,39.9946,133.541,104.384,109.934,0.00416685,0.170724,20.8576,187.173,-0.468622,0.0,0.0
1577,394,37.504,40.0196,138.745,104.392,110.296,0.0046105,0.171434,20.8577,186.893,-0.497654,0.0,0.0
1596,398.75,37.16,39.8982,131.592,104.387,109.716,0.00485107,0.170574,20.8584,186.572,-0.4503,0.0,0.0
1615,403.5,36.9789,39.7159,140.554,104.375,109.937,0.00453369,0.172345,20.8559,186.292,-0.469621,0.0,0.0
1634,408.25,37.0875,39.8602,131.123,104.403,110.656,0.00475596,0.172527,20.8551,186.062,-0.526107,0.0,0.0
1653,413,37.1424,39.1219,135.092,104.421,109.359,0.00468201,0.172109,20.8559,185.812,-0.417984,0.0,0.0
1672,417.75,37.028,38.5853,136.662,104.423,109.866,0.00453197,0.171849,20.8557,185.521,-0.459622,0.0,0.0
1691,422.5,36.8053,38.8564,133.467,104.472,109.975,0.00435376,0.173287,20.8539,185.241,-0.464306,0.0,0.0
1710,427.25,36.2376,38.4826,133.651,104.501,110.03,0.00418247,0.17359,20.8542,184.891,-0.466412,0.0,0.0
1729,432,36.1056,38.3538,133.093,104.497,109.975,0.00462151,0.174146,20.8539,184.671,-0.462185,0.0,0.0
1748,436.75,36.772,38.1539,131.393,104.51,110.344,0.00447763,0.17431,20.8545,184.411,-0.491303,0.0,0.0
1767,441.5,36.0951,38.2277,133.699,104.515,110.096,0.00429716,0.172169,20.8568,184.09,-0.470565,0.0,0.0
1786,446.25,36.1704,38.012,134.025,104.53,110.389,0.00458082,0.170424,20.8591,183.85,-0.493286,0.0,0.0
1805,451,36.2034,37.94,131.804,104.538,110.257,0.00518179,0.167875,20.8606,183.51,-0.481783,0.0,0.0
1824,455.75,36.207,37.7276,135.611,104.554,110.297,0.00539151,0.167139,20.8621,183.27,-0.483754,0.0,0.0
1843,460.5,35.9427,37.9616,134.809,104.577,110.815,0.00510958,0.166709,20.8617,182.959,-0.524119,0.0,0.0
1862,465.25,35.7521,38.0219,134.828,104.608,109.736,0.00522448,0.166413,20.8615,182.679,-0.432854,0.0,0.0
1881,470,35.8753,37.4321,132.73,104.66,110.632,0.00518358,0.169626,20.8589,182.409,-0.501965,0.0,0.0
1900,474.75,35.5138,37.721,132.543,104.712,111.727,0.00531238,0.167912,20.8638,182.099,-0.586528,0.0,0.0
1919,479.5,35.8452,37.5823,134.618,104.794,110.036,0.00551886,0.167451,20.8649,181.738,-0.441519,0.0,0.0
1938,484.25,35.56,37.6876,135.579,104.893,110.44,0.00544356,0.16812,20.8631,181.538,-0.466085,0.0,0.0
1957,489,36.0962,37.5044,133.283,104.984,111.137,0.00536606,0.167662,20.8628,181.228,-0.51518,0.0,0.0
1976,493.75,35.9514,37.3553,136.988,105.078,111.429,0.00546821,0.168109,20.8631,180.938,-0.530873,0.0,0.0
1995,498.5,35.953,37.3703,135.957,105.149,110.406,0.00515127,0.16809,20.8622,180.667,-0.44135,0.0,0.0
2014,503.25,35.4795,37.5413,134.383,105.197,111.641,0.00494278,0.167801,20.8611,180.327,-0.537843,0.0,0.0
2033,508,35.9295,37.6365,135.76,105.261,111.07,0.00461596,0.168635,20.8594,180.097,-0.485935,0.0,0.0
2052,512.75,35.9324,37.3498,139.548,105.307,111.049,0.00455503,0.167145,20.8607,179.807,-0.48027,0.0,0.0
2071,517.5,35.5386,37.2356,137.237,105.342,111.978,0.00479626,0.166773,20.8607,179.546,-0.552557,0.0,0.0
2090,522.25,35.588,37.2294,133.171,105.363,111.615,0.00528211,0.16614,20.8622,179.266,-0.521423,0.0,0.0
2109,527,35.7451,37.1658,133.249,105.345,111.487,0.00531134,0.165411,20.8617,178.926,-0.51256,0.0,0.0
2128,531.75,35.5344,37.5015,132.368,105.313,110.8,0.00520334,0.166313,20.8617,178.626,-0.459479,0.0,0.0
2147,536.5,35.4474,37.7311,133.967,105.268,111.151,0.00477198,0.165044,20.8643,178.425,-0.491953,0.0,0.0
2166,541.25,35.8896,37.6333,136.476,105.208,111.709,0.00485841,0.163099,20.8672,178.165,-0.542332,0.0,0.0
2185,546,35.0229,37.4293,135.519,105.135,110.956,0.00510694,0.165607,20.8654,177.875,-0.487469,0.0,0.0
2204,550.75,35.5175,38.0308,134.929,105.07,112.125,0.00494885,0.166119,20.8642,177.615,-0.587839,0.0,0.0
2223,555.5,35.5669,36.9712,133.207,105.015,110.684,0.00507554,0.166398,20.8641,177.274,-0.475597,0.0,0.0
2242,560.25,35.534,37.138,135.237,104.975,110.15,0.00527811,0.167506,20.8641,177.004,-0.435255,0.0,0.0
2261,565,35.6592,37.0965,135.027,104.931,110.687,0.00525665,0.168018,20.8631,176.734,-0.483073,0.0,0.0
2280,569.75,35.7577,37.3554,134.741,104.906,111.314,0.00490861,0.167627,20.862,176.454,-0.536349,0.0,0.0
2299,574.5,35.1403,37.6526,134.435,104.909,111.021,0.00554125,0.165718,20.8624,176.133,-0.512181,0.0,0.0
2318,579.25,36.1028,36.8791,135.071,104.908,110.767,0.00564633,0.165317,20.8627,175.803,-0.491549,0.0,0.0
2337,584,35.408,37.2988,139.61,104.931,110.557,0.00592067,0.164681,20.8644,175.543,-0.472375,0.0,0.0
2356,588.75,35.5897,36.7043,133.65,104.971,110.784,0.00572846,0.166076,20.8631,175.253,-0.48749,0.0,0.0
2375,593.5,35.7307,36.6529,133.442,105.029,110.774,0.00521042,0.167652,20.8626,174.982,-0.48174,0.0,0.0
2394,598.25,35.7117,37.2013,135.299,105.06,110.978,0.00519116,0.168269,20.861,174.682,-0.495691,0.0,0.0
2413,603,35.618,37.0581,134.688,105.1,111.879,0.00562162,0.167031,20.8625,174.282,-0.565321,0.0,0.0
2432,607.75,35.5928,36.8409,131.232,105.134,111.129,0.00553462,0.166856,20.8615,173.981,-0.501616,0.0,0.0
2451,612.5,35.6758,37.0409,135.393,105.163,111.566,0.00556321,0.168853,20.8605,173.811,-0.534599,0.0,0.0
2470,617.25,34.8812,36.9665,133.641,105.192,111.524,0.00551737,0.167361,20.8608,173.461,-0.528765,0.0,0.0
2489,622,35.6067,37.0934,135.425,105.22,110.577,0.00583433,0.168234,20.8596,173.111,-0.449127,0.0,0.0
2508,626.75,35.002,37.1771,136.796,105.238,111.41,0.00565562,0.169694,20.8582,172.86,-0.515508,0.0,0.0
2527,631.5,35.5008,36.65,132.382,105.237,111.726,0.00547738,0.171717,20.8574,172.55,-0.541221,0.0,0.0
2546,636.25,35.513,36.6877,133.551,105.274,111.614,0.00555837,0.17129,20.8575,172.27,-0.528967,0.0,0.0
2565,641,35.3389,36.613,134.967,105.283,112.178,0.00584639,0.169402,20.8594,172.01,-0.573765,0.0,0.0
2584,645.75,35.5212,37.0096,137.705,105.313,110.553,0.0057142,0.167403,20.8617,171.619,-0.439156,0.0,0.0
2603,650.5,35.172,36.5317,139.655,105.293,111.209,0.00595403,0.168413,20.8594,171.319,-0.494509,0.0,0.0
2622,655.25,35.2919,36.6245,134.293,105.286,111.252,0.00592985,0.172243,20.8579,170.959,-0.498502,0.0,0.0
2641,660,35.6065,36.9508,136.805,105.252,111.02,0.00588126,0.171374,20.8606,170.739,-0.482563,0.0,0.0
2660,664.75,35.3708,36.8474,133.993,105.219,110.43,0.00567189,0.1703,20.8623,170.488,-0.437264,0.0,0.0
2679,669.5,35.7142,36.9803,136.282,105.131,111.738,0.00568936,0.167352,20.864,170.208,-0.551323,0.0,0.0
2698,674.25,35.6633,36.7268,141.648,105.057,110.812,0.00610778,0.164647,20.8675,169.848,-0.482458,0.0,0.0
2717,679,35.424,36.6604,136.187,104.938,110.498,0.00629883,0.163852,20.8675,169.538,-0.467028,0.0,0.0
2736,683.75,34.7436,36.6446,138.11,104.809,110.304,0.00637857,0.164424,20.8655,169.227,-0.462268,0.0,0.0
2755,688.5,35.3436,36.8548,135.417,104.699,110.131,0.00632527,0.164983,20.8651,168.977,-0.457499,0.0,0.0
2774,693.25,35.0059,36.6693,133.455,104.645,110.056,0.00607325,0.16719,20.8618,168.707,-0.455976,0.0,0.0
2793,698,35.1221,36.1936,133.834,104.608,110.312,0.00551876,0.167169,20.8621,168.427,-0.480297,0.0,0.0
2812,702.75,35.1948,36.3489,136.542,104.568,110.306,0.00518706,0.16596,20.8632,168.116,-0.483162,0.0,0.0
2831,707.5,35.1967,36.5445,133.955,104.553,110.932,0.00527623,0.167548,20.8634,167.786,-0.535666,0.0,0.0
2850,712.25,34.9574,36.6177,137.724,104.576,110.323,0.00524527,0.16557,20.8653,167.586,-0.483953,0.0,0.0
2869,717,34.8479,36.6136,135.347,104.6,110.056,0.00571869,0.162535,20.8692,167.266,-0.459922,0.0,0.0
2888,721.75,35.1646,36.2886,130.685,104.624,110.785,0.00554958,0.163312,20.8685,167.015,-0.517591,0.0,0.0
2907,726.5,35.0298,36.4168,134.218,104.665,109.84,0.00544496,0.161358,20.8707,166.705,-0.436557,0.0,0.0
2926,731.25,34.6546,36.2299,139.629,104.706,110.707,0.00561345,0.160462,20.8702,166.415,-0.504152,0.0,0.0
2945,736,34.6627,36.4121,133.938,104.761,110.006,0.00508093,0.160625,20.8698,166.115,-0.441875,0.0,0.0
2964,740.75,34.8868,36.0953,138.242,104.813,110.227,0.00493546,0.159108,20.8722,165.904,-0.455635,0.0,0.0
2983,745.5,34.6174,36.2515,135.298,104.867,110.332,0.00509731,0.160281,20.8713,165.694,-0.459527,0.0,0.0
3002,750.25,34.8146,35.7317,137.994,104.905,110.222,0.00526643,0.160447,20.8713,165.404,-0.447267,0.0,0.0
3021,755,34.5264,36.1229,137.615,104.959,111.386,0.00518263,0.157743,20.8719,165.144,-0.537586,0.0,0.0
3040,759.75,34.67,36.2333,135.337,104.954,110.368,0.00551096,0.157231,20.873,164.793,-0.454923,0.0,0.0
3059,764.5,34.3205,36.048,137.297,104.986,110.147,0.00550655,0.158062,20.8723,164.583,-0.434117,0.0,0.0
3078,769.25,34.415,35.881,135.074,104.996,110.617,0.00521985,0.157606,20.873,164.333,-0.47168,0.0,0.0
3097,774,34.307,35.7942,132.771,105.019,109.695,0.00545011,0.158527,20.873,164.083,-0.394022,0.0,0.0
3116,778.75,34.3501,36.1814,134.682,105.044,110.131,0.00522723,0.159099,20.8727,163.813,-0.427792,0.0,0.0
3135,783.5,34.3179,36.1732,134.634,105.053,110.286,0.00515184,0.158985,20.8709,163.522,-0.439757,0.0,0.0
3154,788.25,34.7864,36.1408,135.662,105.077,110.718,0.00532461,0.159214,20.8713,163.302,-0.473064,0.0,0.0
3173,793,35.0479,35.8085,138.423,105.103,109.756,0.00551189,0.161172,20.8707,163.022,-0.391849,0.0,0.0
3192,797.75,34.6935,35.7234,137.749,105.117,110.879,0.005462,0.161987,20.8697,162.762,-0.482689,0.0,0.0
3211,802.5,34.5211,36.0862,136.971,105.136,110.487,0.00509596,0.161795,20.8688,162.501,-0.449114,0.0,0.0
3230,807.25,34.8249,36.2723,135.972,105.129,111.49,0.00493334,0.163261,20.8685,162.161,-0.531349,0.0,0.0
3249,812,34.6775,36.1896,136.319,105.131,110.72,0.00487122,0.162384,20.8681,161.921,-0.468486,0.0,0.0
3268,816.75,34.7953,35.9032,133.445,105.171,111.176,0.00469219,0.163546,20.8667,161.711,-0.502245,0.0,0.0
3287,821.5,34.3248,36.1769,133.942,105.184,111.652,0.00472432,0.163331,20.8655,161.461,-0.539764,0.0,0.0
3306,826.25,34.8042,36.0233,135.361,105.192,110.383,0.00492777,0.162804,20.8654,161.17,-0.435734,0.0,0.0
3325,831,34.3407,35.8546,133.279,105.198,111.277,0.00487453,0.162664,20.8653,160.91,-0.508176,0.0,0.0
3344,835.75,34.9432,36.1018,135.943,105.244,111.085,0.00502396,0.164832,20.8643,160.6,-0.488603,0.0,0.0
3363,840.5,34.546,35.8012,137.491,105.252,110.444,0.00483773,0.166744,20.8641,160.39,-0.435499,0.0,0.0
3382,845.25,35.1197,36.5123,136.031,105.293,111.507,0.00458155,0.166165,20.8646,160.109,-0.518685,0.0,0.0
3401,850,34.7162,36.4112,137.505,105.329,110.79,0.00458666,0.164842,20.8662,159.829,-0.457228,0.0,0.0
3420,854.75,36.1862,37.702,141.957,105.35,110.906,0.00480418,0.164818,20.8653,159.549,-0.464877,0.0,0.0
3439,859.5,35.9747,38.0881,133.026,105.354,111.083,0.0047108,0.166663,20.863,159.229,-0.478938,0.0,0.0
3458,864.25,36.2454,37.6905,133.944,105.349,110.634,0.00478067,0.166926,20.8631,159.028,-0.442775,0.0,0.0
3477,869,35.9373,37.3331,134.486,105.319,110.529,0.00485694,0.166485,20.8644,158.778,-0.436815,0.0,0.0
3496,873.75,36.1684,37.3221,133.829,105.256,111.56,0.00476487,0.166349,20.8633,158.508,-0.526077,0.0,0.0
3515,878.5,35.7679,37.0899,129.727,105.174,110.968,0.0049235,0.167785,20.8625,158.198,-0.48511,0.0,0.0
3534,883.25,35.511,36.3675,137.249,105.052,111.302,0.00480833,0.1679,20.8624,157.887,-0.522765,0.0,0.0
3553,888,35.3999,36.5069,133.957,104.92,110.672,0.00508643,0.166294,20.8645,157.597,-0.48284,0.0,0.0
3572,892.75,35.2883,36.3955,132.636,104.817,110.902,0.00518493,0.167335,20.8642,157.437,-0.510411,0.0,0.0
3591,897.5,35.3013,36.5601,137.359,104.729,109.943,0.00517528,0.167143,20.8651,157.147,-0.43944,0.0,0.0
3610,902.25,35.358,36.7308,133.854,104.747,110.116,0.00508607,0.168607,20.8623,156.887,-0.45215,0.0,0.0
3629,907,35.3006,36.8236,135.127,105.085,111.127,0.00475513,0.168773,20.8615,156.616,-0.505683,0.0,0.0
3648,911.75,35.3559,36.6972,134.406,105.309,111.448,0.0047781,0.167781,20.8627,156.236,-0.512507,0.0,0.0
3667,916.5,35.3995,36.9778,135.576,105.445,111.387,0.00485916,0.168618,20.8616,156.036,-0.495872,0.0,0.0
3686,921.25,35.5035,36.9886,132.429,105.503,111.992,0.00497211,0.170884,20.8596,155.816,-0.539906,0.0,0.0
3705,926,35.5024,36.5417,131.438,105.516,112.373,0.00517296,0.173161,20.8553,155.535,-0.569503,0.0,0.0
3724,930.75,35.7645,37.2447,135.158,105.535,111.375,0.00525457,0.173374,20.8559,155.255,-0.487205,0.0,0.0
3743,935.5,35.647,37.2309,135.244,105.509,110.754,0.00527555,0.173249,20.8566,154.905,-0.438812,0.0,0.0
3762,940.25,35.8276,37.1442,138.898,105.509,111.627,0.00523251,0.173494,20.8552,154.625,-0.509894,0.0,0.0
3781,945,35.838,37.0331,133.253,105.515,111.508,0.00503081,0.175037,20.8548,154.314,-0.499646,0.0,0.0
3800,949.75,36.0193,37.2593,135.885,105.521,112.381,0.00503815,0.178392,20.8514,154.174,-0.569669,0.0,0.0
3819,954.5,35.4989,37.5166,132.631,105.499,111.377,0.00502704,0.179099,20.8487,153.854,-0.490511,0.0,0.0
3838,959.25,35.9633,37.1987,132.327,105.504,112.156,0.00486269,0.179255,20.8491,153.534,-0.553102,0.0,0.0
3857,964,35.8193,37.2019,134.522,105.482,111.53,0.00481742,0.181665,20.8465,153.223,-0.504285,0.0,0.0
3876,968.75,35.7779,37.2071,137.511,105.472,112.465,0.00510435,0.183634,20.8435,153.013,-0.580727,0.0,0.0
3895,973.5,36.2519,37.4285,135.564,105.464,111.495,0.00481601,0.182443,20.8456,152.703,-0.50301,0.0,0.0
3914,978.25,36.0408,37.2116,132.7,105.425,111.822,0.00478153,0.180026,20.8482,152.353,-0.532834,0.0,0.0
3933,983,36.1945,37.5332,134.319,105.404,111.775,0.0051699,0.184181,20.8439,152.162,-0.530878,0.0,0.0
3952,987.75,36.2306,37.5872,134.92,105.319,111.324,0.00512358,0.185532,20.8422,151.822,-0.501647,0.0,0.0
3971,992.5,36.1836,37.4097,134.35,105.193,110.994,0.00500893,0.184791,20.8436,151.602,-0.485489,0.0,0.0
3990,997.25,36.2031,37.7771,135.712,105.027,111.276,0.00484569,0.184909,20.8441,151.272,-0.522794,0.0,0.0
4009,1002,36.396,37.7553,134.914,104.767,111.266,0.00465991,0.185229,20.8423,150.981,-0.544373,0.0,0.0
4028,1006.75,36.4328,38.2017,132.788,104.629,111.141,0.00467369,0.184999,20.8405,150.721,-0.546161,0.0,0.0
4047,1011.5,36.6779,37.7837,132.98,104.72,110.15,0.00509228,0.18481,20.8403,150.371,-0.457279,0.0,0.0
4066,1016.25,36.6266,37.884,134.852,104.821,110.655,0.00526145,0.183866,20.8418,150.121,-0.489924,0.0,0.0
4085,1021,36.5221,38.0359,137.249,104.996,111.322,0.00569544,0.184013,20.8424,149.9,-0.529123,0.0,0.0
4104,1025.75,36.0784,37.6035,131.762,105.155,111.974,0.00551789,0.18327,20.8423,149.64,-0.568309,0.0,0.0
4123,1030.5,36.7925,38.4276,135.373,105.243,111.761,0.00525675,0.184151,20.8409,149.34,-0.543577,0.0,0.0
4142,1035.25,36.8939,38.8614,138.129,105.302,110.724,0.00499918,0.184096,20.8416,149.03,-0.454187,0.0,0.0
4161,1040,37.1652,38.6888,131.549,105.283,111.356,0.00532079,0.182285,20.843,148.669,-0.507306,0.0,0.0
4180,1044.75,36.7957,38.3467,134.09,105.258,110.943,0.00542421,0.18514,20.8414,148.449,-0.475828,0.0,0.0
4199,1049.5,36.3188,38.0774,135.448,105.196,111.4,0.00513469,0.185466,20.8412,148.169,-0.51831,0.0,0.0
4218,1054.25,36.7964,38.0372,131.856,105.082,112.126,0.0050446,0.186677,20.8403,147.889,-0.586896,0.0,0.0
4237,1059,36.2474,38.516,134.193,104.919,110.964,0.00504837,0.187497,20.8394,147.598,-0.506751,0.0,0.0
4256,1063.75,37.0199,37.875,132.536,104.757,110.712,0.00508419,0.187961,20.8395,147.278,-0.500078,0.0,0.0
4275,1068.5,36.384,38.1935,133.82,104.607,109.976,0.00515238,0.186462,20.8405,147.028,-0.452791,0.0,0.0
4294,1073.25,36.6684,38.548,138.371,104.477,110.389,0.00474216,0.188605,20.8383,146.748,-0.49786,0.0,0.0
4313,1078,36.8125,38.8162,135.921,104.371,111.451,0.00458471,0.189557,20.8364,146.467,-0.593687,0.0,0.0
4332,1082.75,36.6731,38.2693,129.891,104.3,111,0.00465137,0.192893,20.8339,146.217,-0.563176,0.0,0.0
4351,1087.5,36.8604,38.4846,132.325,104.238,110.904,0.00477006,0.192088,20.8348,145.897,-0.560707,0.0,0.0
4370,1092.25,37.3356,38.8648,130.259,104.208,110.73,0.00450623,0.192309,20.8356,145.537,-0.549093,0.0,0.0
4389,1097,36.6365,38.9864,134.302,104.209,109.797,0.00464571,0.190639,20.8359,145.276,-0.472522,0.0,0.0
4408,1101.75,37.0857,38.7891,136.611,104.206,109.525,0.00463527,0.194357,20.8314,144.996,-0.450343,0.0,0.0
4427,1106.5,37.4545,38.8532,134.126,104.211,109.921,0.00442725,0.194403,20.8294,144.676,-0.48254,0.0,0.0
4446,1111.25,37.4647,38.748,132.359,104.206,109.323,0.00433981,0.195317,20.8297,144.416,-0.433635,0.0,0.0
4465,1116,37.3567,39.0463,135.567,104.209,110.012,0.00414885,0.19838,20.8276,144.055,-0.490233,0.0,0.0
4484,1120.75,37.337,39.1613,132.493,104.23,110.741,0.00422047,0.200039,20.8273,143.835,-0.548097,0.0,0.0
4503,1125.5,37.5492,39.0317,131.759,104.254,109.907,0.00458703,0.198913,20.8271,143.535,-0.477613,0.0,0.0
4522,1130.25,37.4576,39.3282,132.049,104.283,110.914,0.00431667,0.201949,20.8229,143.225,-0.557655,0.0,0.0
4541,1135,37.2977,39.0278,132.552,104.285,109.893,0.00406625,0.203707,20.8216,142.934,-0.473786,0.0,0.0
4560,1139.75,37.8946,39.6431,131.338,104.32,110.991,0.00389253,0.20617,20.8207,142.554,-0.560695,0.0,0.0
4579,1144.5,38.1148,39.2477,135.319,104.325,110.793,0.00427467,0.206054,20.8195,142.234,-0.544146,0.0,0.0
4598,1149.25,38.1757,39.9988,135.727,104.349,110.462,0.0041555,0.207483,20.8183,141.984,-0.514942,0.0,0.0
4617,1154,38.1651,39.7395,133.715,104.374,110.887,0.00424775,0.208565,20.8174,141.673,-0.547574,0.0,0.0
4636,1158.75,38.222,39.7634,136.562,104.378,110.311,0.00435224,0.209938,20.816,141.343,-0.500087,0.0,0.0
4655,1163.5,38.5718,40.2415,133.241,104.384,110.998,0.00434533,0.212978,20.8123,141.013,-0.555732,0.0,0.0
4674,1168.25,38.4892,40.2457,128.387,104.396,109.711,0.00411553,0.214049,20.8121,140.632,-0.449186,0.0,0.0
4693,1173,38.546,40.2291,135.049,104.421,110.08,0.00420477,0.214473,20.8116,140.392,-0.477425,0.0,0.0
4712,1177.75,39.0293,40.6608,132.921,104.461,110.056,0.00420326,0.219551,20.807,140.062,-0.471957,0.0,0.0
4731,1182.5,39.1589,40.8426,134.279,104.502,111.158,0.00424293,0.22106,20.8052,139.702,-0.558493,0.0,0.0
4750,1187.25,39.3343,41.3362,134.637,104.557,111.336,0.00422621,0.222955,20.8039,139.361,-0.568244,0.0,0.0
4769,1192,39.9795,40.9355,136.321,104.63,110.435,0.00414173,0.227429,20.7987,138.961,-0.488363,0.0,0.0
4788,1196.75,39.9986,41.4882,133.38,104.699,111.541,0.00425189,0.22912,20.7962,138.641,-0.572602,0.0,0.0
4807,1201.5,40.1918,41.4465,129.43,104.786,111.132,0.00436174,0.230788,20.7943,138.31,-0.531859,0.0,0.0
4826,1206.25,40.5419,41.9052,127.825,104.862,111.806,0.00412649,0.233267,20.7927,137.98,-0.58002,0.0,0.0
4845,1211,40.9936,41.9427,130.055,104.938,110.715,0.00392188,0.237639,20.7877,137.6,-0.484737,0.0,0.0
4864,1215.75,40.8105,42.5423,134.472,104.98,112.24,0.00405152,0.239143,20.786,137.179,-0.604869,0.0,0.0
4883,1220.5,40.9034,42.886,130.762,105.04,111.798,0.00401203,0.24266,20.7835,136.779,-0.564009,0.0,0.0
4902,1225.25,41.5934,42.8196,132.304,105.132,111.929,0.00373561,0.244539,20.78,136.509,-0.566696,0.0,0.0
4921,1230,41.7225,42.6127,130.196,105.205,110.69,0.00365224,0.248836,20.7751,136.098,-0.459689,0.0,0.0
4940,1234.75,41.6511,43.6352,128.002,105.286,111.763,0.00393942,0.250171,20.772,135.718,-0.54006,0.0,0.0
4959,1239.5,41.8554,43.9241,132.527,105.33,112.31,0.00420768,0.253741,20.7688,135.308,-0.580396,0.0,0.0
4978,1244.25,42.6268,43.9056,126.977,105.355,111.309,0.00407767,0.258968,20.7641,134.857,-0.497241,0.0,0.0
4997,1249,42.5418,44.4335,133.88,105.358,111.934,0.00428492,0.261985,20.7609,134.487,-0.547639,0.0,0.0
5016,1253.75,43.0472,44.7682,128.366,105.341,112.635,0.00454801,0.264599,20.7569,134.137,-0.605599,0.0,0.0
5035,1258.5,43.2109,45.1507,129.687,105.28,112.625,0.00420326,0.268523,20.7531,133.706,-0.610075,0.0,0.0
5054,1263.25,43.1173,45.4147,133.223,105.193,111.968,0.00404452,0.270677,20.7499,133.286,-0.564585,0.0,0.0
5073,1268,43.9923,45.6016,127.409,105.067,113.264,0.00384396,0.274646,20.743,132.826,-0.679501,0.0,0.0
5092,1272.75,44.2108,45.8481,128.375,104.926,111.384,0.00388414,0.278827,20.7383,132.415,-0.540277,0.0,0.0
5111,1277.5,44.4245,46.2029,134.149,104.846,111.742,0.00407866,0.282156,20.7343,132.005,-0.576204,0.0,0.0
5130,1282.25,44.6998,46.4018,129.404,104.77,112.78,0.00422402,0.28408,20.7322,131.595,-0.666386,0.0,0.0
5149,1287,45.0189,46.9868,127.963,104.695,112.121,0.00395764,0.284909,20.7315,131.154,-0.619907,0.0,0.0
5168,1291.75,45.1414,47.2623,128.958,104.814,110.693,0.00390215,0.285335,20.7287,130.704,-0.493629,0.0,0.0
5187,1296.5,45.7536,47.6712,134.27,105.028,111.807,0.00361728,0.287535,20.7275,130.203,-0.565779,0.0,0.0
5206,1301.25,45.5654,47.2364,131.209,105.23,112.128,0.00358401,0.291184,20.7253,129.813,-0.574323,0.0,0.0
5225,1306,45.7943,47.8975,131.211,105.41,112.557,0.00366109,0.292284,20.7236,129.393,-0.593398,0.0,0.0
5244,1310.75,46.0231,48.1602,128.028,105.536,113.174,0.00363705,0.294951,20.7208,128.962,-0.632058,0.0,0.0
5263,1315.5,46.482,48.2513,127.865,105.555,112.562,0.0036163,0.300057,20.7147,128.472,-0.58138,0.0,0.0
5282,1320.25,46.7806,48.851,131.815,105.521,111.782,0.0036578,0.304132,20.7087,127.981,-0.521366,0.0,0.0
5301,1325,47.2264,49.3108,127.224,105.408,112.884,0.00354692,0.311256,20.7002,127.531,-0.619855,0.0,0.0
5320,1329.75,47.3904,49.2283,128.96,105.22,112.539,0.00375067,0.316819,20.6943,127.051,-0.608348,0.0,0.0
5339,1334.5,47.9092,49.8723,130.537,105.1,111.184,0.00391148,0.318586,20.692,126.58,-0.509034,0.0,0.0
5358,1339.25,48.1785,50.3341,127.938,105.228,111.664,0.00377294,0.32456,20.6849,126.07,-0.537003,0.0,0.0
5377,1344,48.3791,50.4097,127.139,105.366,113.211,0.00383679,0.327917,20.6801,125.529,-0.649608,0.0,0.0
5396,1348.75,48.9108,49.6887,129.392,105.491,113.848,0.00377966,0.331837,20.6776,124.979,-0.689677,0.0,0.0
5415,1353.5,49.3389,51.5919,125.645,105.626,113.158,0.00347884,0.339398,20.668,124.548,-0.623116,0.0,0.0
5434,1358.25,48.4409,51.8795,125.689,105.688,113.23,0.00353708,0.348015,20.6574,124.028,-0.623491,0.0,0.0
5453,1363,49.9343,52.284,122.092,105.771,112.93,0.00323189,0.356478,20.6452,123.457,-0.592448,0.0,0.0
5472,1367.75,51.1437,53.315,125.546,105.82,113.321,0.0035341,0.368905,20.6325,122.957,-0.619466,0.0,0.0
5491,1372.5,51.7142,53.5933,126.976,105.845,113.085,0.00335823,0.374854,20.6258,122.266,-0.598466,0.0,0.0
5510,1377.25,52.1862,53.7924,125.174,105.887,113.896,0.00336923,0.385728,20.6137,121.736,-0.659595,0.0,0.0
5529,1382,52.9495,54.583,124.671,105.881,113.406,0.00344322,0.393975,20.6042,121.085,-0.621066,0.0,0.0
5548,1386.75,53.4053,55.2216,124.64,105.9,113.677,0.00331243,0.402151,20.5937,120.505,-0.640964,0.0,0.0
5567,1391.5,54.212,56.1898,125.517,105.912,112.163,0.00385035,0.407231,20.5845,119.934,-0.518692,0.0,0.0
5586,1396.25,54.7903,57.8332,125.666,105.916,113.865,0.00384518,0.413916,20.5786,119.204,-0.654589,0.0,0.0
5605,1401,55.5882,57.5067,123.085,105.9,113.441,0.00355351,0.427569,20.5645,118.573,-0.622227,0.0,0.0
5624,1405.75,56.0165,57.8945,128.685,105.919,112.327,0.00332187,0.435044,20.5541,118.013,-0.531328,0.0,0.0
5643,1410.5,55.9275,58.7367,124.168,105.922,113.153,0.00343545,0.433882,20.5536,117.382,-0.597369,0.0,0.0
5662,1415.25,56.9167,59.3779,126.252,105.907,112.981,0.00344933,0.438913,20.5479,116.682,-0.584845,0.0,0.0
5681,1420,58.3782,59.5256,119.686,105.88,112.967,0.00349189,0.443751,20.5431,115.951,-0.586074,0.0,0.0
5700,1424.75,57.7406,59.7244,125.658,105.834,112.924,0.00356836,0.44202,20.5394,115.21,-0.586579,0.0,0.0
5719,1429.5,58.3446,60.6506,125.215,105.798,113.281,0.00360521,0.45292,20.53,114.67,-0.618184,0.0,0.0
5738,1434.25,58.9547,61.0801,123.765,105.704,112.227,0.0036104,0.456213,20.526,114.009,-0.541689,0.0,0.0
5757,1439,58.9556,61.5318,130.523,105.607,112.439,0.00373186,0.46407,20.5142,113.339,-0.567075,0.0,0.0
5776,1443.75,59.9337,61.2834,120.2,105.503,113.031,0.00339704,0.471015,20.5066,112.618,-0.623447,0.0,0.0
5795,1448.5,60.3404,62.9706,124.589,105.373,111.418,0.00312328,0.465535,20.512,111.847,-0.50457,0.0,0.0
5814,1453.25,60.5211,63.1865,122.525,105.278,110.825,0.00361106,0.467751,20.514,111.277,-0.464508,0.0,0.0
5833,1458,60.535,63.6786,124.463,105.177,110.719,0.00371124,0.455868,20.5211,110.536,-0.464484,0.0,0.0
5852,1462.75,60.4395,63.7848,119.995,105.071,111.278,0.0037191,0.452694,20.524,109.936,-0.519196,0.0,0.0
5871,1467.5,60.2921,63.4242,124.719,105.04,110.371,0.00389773,0.451892,20.5273,109.275,-0.4478,0.0,0.0
5890,1472.25,60.6947,64.2132,124.791,105.236,111.589,0.00355738,0.438185,20.5376,108.575,-0.530235,0.0,0.0
5909,1477,59.9272,63.4896,120.764,105.39,111.731,0.00336969,0.439268,20.5386,107.924,-0.52853,0.0,0.0
5928,1481.75,59.9441,63.6257,124.382,105.488,110.619,0.00346086,0.424432,20.5554,107.414,-0.429623,0.0,0.0
5947,1486.5,60.1084,63.1261,126.28,105.447,111.019,0.00331805,0.412674,20.5674,106.863,-0.465797,0.0,0.0
5966,1491.25,59.4856,63.424,124.738,105.327,112.291,0.00299429,0.402645,20.5762,106.283,-0.579147,0.0,0.0
5985,1496,59.115,62.9997,127.424,105.125,110.863,0.00274517,0.392321,20.5892,105.692,-0.480743,0.0,0.0
6004,1500.75,58.8025,62.6394,127.878,104.843,112.563,0.00280009,0.379116,20.6054,105.152,-0.642689,0.0,0.0
6023,1505.5,58.0891,62.0304,130.565,104.678,111.954,0.00284505,0.36602,20.6205,104.741,-0.607905,0.0,0.0
6042,1510.25,57.8206,61.2822,130.652,104.631,110.748,0.0026947,0.358167,20.6279,104.261,-0.51389,0.0,0.0
6061,1515,57.1243,61.1602,126.321,104.655,110.06,0.00255258,0.344873,20.6432,103.74,-0.455444,0.0,0.0
6080,1519.75,56.8494,60.7374,127.464,104.676,111.727,0.00277448,0.335519,20.6539,103.34,-0.589667,0.0,0.0
6099,1524.5,56.6077,60.2958,125.236,104.684,111.804,0.00296608,0.332434,20.66,102.81,-0.595232,0.0,0.0
6118,1529.25,55.7806,60.0705,126.5,104.685,111.911,0.0030131,0.323888,20.6695,102.459,-0.603746,0.0,0.0
6137,1534,55.4561,59.6274,126.902,104.699,110.61,0.00313954,0.315585,20.678,102.019,-0.496742,0.0,0.0
6156,1538.75,54.9192,59.4396,123.085,104.696,111.628,0.00298127,0.305753,20.6858,101.568,-0.579879,0.0,0.0
6175,1543.5,53.821,57.9019,129.36,104.683,111.264,0.00293035,0.299056,20.6942,101.178,-0.55145,0.0,0.0
6194,1548.25,53.6323,57.8348,128.757,104.693,110.93,0.00326535,0.290989,20.7026,100.778,-0.523456,0.0,0.0
6213,1553,53.4423,57.2291,128.531,104.647,111.202,0.00300085,0.287642,20.7082,100.347,-0.549553,0.0,0.0
6232,1557.75,52.2382,56.6898,128.408,104.651,110.947,0.00321254,0.278321,20.7181,100.057,-0.52844,0.0,0.0
6251,1562.5,52.3433,56.0901,131.712,104.691,111.314,0.00338925,0.271798,20.7275,99.7068,-0.554806,0.0,0.0
6270,1567.25,51.5767,55.7644,129.797,104.744,111.777,0.00299001,0.26574,20.7338,99.4266,-0.587863,0.0,0.0
6289,1572,50.6818,55.0274,128.283,104.761,112.16,0.00312817,0.257393,20.7436,99.1063,-0.617332,0.0,0.0
6308,1576.75,50.3456,54.1657,128.996,104.784,111.757,0.00345768,0.250986,20.7506,98.7059,-0.582699,0.0,0.0
6327,1581.5,49.5379,53.5199,127.418,104.826,111.3,0.00345466,0.243479,20.7569,98.4757,-0.54203,0.0,0.0
6346,1586.25,49.1999,53.3782,127.483,104.865,111.511,0.0033844,0.23834,20.7635,98.2155,-0.555844,0.0,0.0
6365,1591,48.8593,52.3622,130.636,104.857,111.01,0.00362436,0.230648,20.7723,97.9353,-0.515792,0.0,0.0
6384,1595.75,48.2694,51.9427,134.037,104.863,111.479,0.00371941,0.22859,20.7758,97.655,-0.553457,0.0,0.0
6403,1600.5,47.6967,51.1433,131.168,104.882,112.056,0.00355001,0.223736,20.7812,97.3447,-0.598484,0.0,0.0
6422,1605.25,46.8993,50.6121,135.779,104.849,111.913,0.00345782,0.218675,20.7852,97.0945,-0.589778,0.0,0.0
6441,1610,46.5841,50.1168,133.624,104.858,111.804,0.00356322,0.208576,20.7965,96.9044,-0.580161,0.0,0.0
6460,1614.75,45.8717,49.3499,133.286,104.847,111.383,0.00365617,0.20091,20.8065,96.6842,-0.547015,0.0,0.0
6479,1619.5,45.4722,48.5254,133.564,104.844,110.109,0.0034886,0.193852,20.8142,96.484,-0.443185,0.0,0.0
6498,1624.25,44.7667,48.0922,136.724,104.855,110.477,0.00402637,0.187087,20.822,96.2338,-0.472378,0.0,0.0
6517,1629,44.118,47.2789,135.65,104.895,112.562,0.00428038,0.180108,20.8292,95.9936,-0.638166,0.0,0.0
6536,1633.75,43.5393,46.8846,136.485,104.968,110.452,0.00437923,0.173078,20.8392,95.9435,-0.460665,0.0,0.0
6555,1638.5,43.1689,45.9902,134.451,105.063,111.358,0.00465296,0.164435,20.849,95.7934,-0.526398,0.0,0.0
6574,1643.25,42.3888,45.1182,133.564,105.144,111.903,0.00483938,0.154733,20.8606,95.6232,-0.563608,0.0,0.0
6593,1648,41.5452,44.6729,134.712,105.237,110.363,0.00503155,0.146954,20.8691,95.4931,-0.430241,0.0,0.0
6612,1652.75,40.718,44.0492,136.723,105.308,110.98,0.00505348,0.142215,20.8721,95.2529,-0.47447,0.0,0.0
6631,1657.5,40.3108,43.3436,134.051,105.368,111.907,0.00518575,0.137166,20.8775,95.2129,-0.544584,0.0,0.0
6650,1662.25,39.9452,43.1655,137.13,105.453,111.504,0.0049226,0.133554,20.8835,95.1528,-0.504671,0.0,0.0
6669,1667,39.7159,41.7737,140.585,105.489,111.113,0.00486214,0.130628,20.8868,95.0327,-0.469833,0.0,0.0
6688,1671.75,38.7464,41.6967,137.479,105.529,111.281,0.00519807,0.127536,20.8906,94.9226,-0.480067,0.0,0.0
6707,1676.5,38.2423,40.7336,137.079,105.543,110.9,0.00547758,0.125466,20.8961,94.7425,-0.44785,0.0,0.0
6726,1681.25,37.7339,39.8838,133.793,105.546,111.288,0.00577652,0.123541,20.8981,94.6324,-0.479187,0.0,0.0
6745,1686,37.4182,39.7632,135.669,105.557,111.198,0.00569398,0.12189,20.9001,94.6324,-0.470862,0.0,0.0
6764,1690.75,36.8835,39.4783,135.201,105.521,111.597,0.00540665,0.120802,20.9009,94.5523,-0.506426,0.0,0.0
6783,1695.5,36.7602,38.7876,139.255,105.449,110.741,0.00522235,0.119202,20.9023,94.4823,-0.442894,0.0,0.0
6802,1700.25,36.2644,37.891,138.969,105.361,111.472,0.00536053,0.117874,20.903,94.3321,-0.510045,0.0,0.0
6821,1705,35.8502,38.2286,137.198,105.208,110.503,0.00536668,0.117348,20.9031,94.182,-0.44412,0.0,0.0
6840,1709.75,35.5474,37.358,137.365,105.062,110.393,0.0054762,0.116828,20.9059,94.182,-0.4477,0.0,0.0
6859,1714.5,35.5516,36.795,137.665,105.14,109.952,0.00578801,0.115691,20.9076,94.1219,-0.404757,0.0,0.0
6878,1719.25,34.9688,36.4381,134.314,105.245,110.344,0.0057445,0.115107,20.9085,94.0419,-0.42795,0.0,0.0
6897,1724,34.6507,36.3712,133.029,105.337,110.406,0.0055507,0.114469,20.9092,93.9418,-0.425185,0.0,0.0
6916,1728.75,34.6602,35.9272,138.825,105.444,110.387,0.00545653,0.113234,20.9105,93.8217,-0.414407,0.0,0.0
6935,1733.5,34.2115,35.8232,133.659,105.553,110.519,0.00563167,0.113179,20.9107,93.7616,-0.415816,0.0,0.0
6954,1738.25,34.0941,35.3619,135.16,105.682,110.981,0.00577526,0.11232,20.9103,93.7416,-0.442623,0.0,0.0
6973,1743,33.9523,35.4967,135.951,105.802,111.402,0.00560738,0.112605,20.9099,93.6815,-0.466498,0.0,0.0
6992,1747.75,34.0296,34.8042,137.962,105.881,111.408,0.00548805,0.111614,20.9117,93.5915,-0.460307,0.0,0.0
7011,1752.5,33.7101,34.7753,136.473,105.944,112.126,0.00568782,0.111138,20.9139,93.4614,-0.513019,0.0,0.0
7030,1757.25,33.6706,34.42,138.224,105.97,111.042,0.00562445,0.110476,20.9144,93.3413,-0.422883,0.0,0.0
7049,1762,33.2378,34.326,134.115,105.969,111.667,0.00553814,0.110765,20.9131,93.3713,-0.473764,0.0,0.0
7068,1766.75,32.8773,34.3149,133.388,105.925,111.312,0.00579324,0.109894,20.9156,93.2912,-0.448723,0.0,0.0
7087,1771.5,33.0123,34.2242,138.934,105.851,110.907,0.00581861,0.109512,20.9171,93.2212,-0.422055,0.0,0.0
7106,1776.25,32.8111,33.15,137.416,105.748,110.18,0.0058396,0.109131,20.9173,93.1511,-0.371376,0.0,0.0
7125,1781,32.9825,33.5246,136.105,105.63,110.609,0.00548657,0.108775,20.9168,93.011,-0.416655,0.0,0.0
7144,1785.75,32.6128,33.2605,134.66,105.533,111.173,0.00525646,0.10858,20.9165,93.041,-0.470918,0.0,0.0
7163,1790.5,33.0599,33.3701,139.05,105.46,110.538,0.00566818,0.108185,20.9171,93.021,-0.425386,0.0,0.0
7182,1795.25,32.2216,33.4193,134.422,105.403,110.92,0.00594079,0.106424,20.9207,92.9109,-0.461518,0.0,0.0
7201,1800,32.2632,33.2937,135.89,105.365,109.997,0.00601521,0.106276,20.9209,92.8408,-0.389187,0.0,0.0
7220,1804.75,32.2995,33.0845,137.968,105.333,110.191,0.00570311,0.106472,20.9194,92.7307,-0.407827,0.0,0.0
7239,1809.5,31.6261,31.7166,138.584,105.367,109.776,0.0060862,0.105157,20.9225,92.7007,-0.370831,0.0,0.0
7258,1814.25,32.2138,32.9402,138.168,105.416,110.832,0.00628955,0.10495,20.9206,92.6707,-0.453174,0.0,0.0
7277,1819,31.9544,32.5845,136.494,105.459,110.347,0.00609656,0.105267,20.9195,92.5906,-0.409819,0.0,0.0
7296,1823.75,31.7683,32.2492,135.127,105.502,109.845,0.0061389,0.105991,20.9188,92.5105,-0.364904,0.0,0.0
7315,1828.5,31.3922,32.2954,140.468,105.554,110.578,0.00608237,0.105155,20.9185,92.4104,-0.420546,0.0,0.0
7334,1833.25,31.5125,32.2167,137.017,105.606,110.657,0.00607068,0.104639,20.9192,92.2603,-0.42264,0.0,0.0
7353,1838,30.8469,32.1502,138.854,105.614,110.557,0.00568688,0.103669,20.9214,92.2903,-0.413762,0.0,0.0
7372,1842.75,31.3248,31.821,142.763,105.628,110.216,0.00568353,0.10551,20.9203,92.2503,-0.384631,0.0,0.0
7391,1847.5,31.0405,31.5036,138.13,105.668,110.412,0.00599511,0.104356,20.9207,92.2103,-0.397308,0.0,0.0
7410,1852.25,31.3148,31.4385,137.507,105.66,110.497,0.00620711,0.100784,20.9249,92.0902,-0.404863,0.0,0.0
7429,1857,30.836,31.3536,140.983,105.7,110.7,0.0062539,0.102294,20.9243,91.94,-0.418074,0.0,0.0
7448,1861.75,30.596,31.2796,135.919,105.754,111.323,0.00632241,0.1033,20.9225,91.94,-0.464222,0.0,0.0
7467,1866.5,29.936,31.4983,138.042,105.812,110.26,0.0064452,0.103462,20.9218,91.9601,-0.372419,0.0,0.0
7486,1871.25,30.368,30.9114,135.779,105.868,110.989,0.00647437,0.103001,20.9231,91.9,-0.427366,0.0,0.0
7505,1876,30.163,30.9118,137.672,105.897,110.137,0.00610236,0.102252,20.9233,91.8199,-0.35514,0.0,0.0
7524,1880.75,30.109,30.713,133.967,105.912,111.098,0.00614685,0.102562,20.9231,91.7399,-0.432415,0.0,0.0
7543,1885.5,30.0686,30.7421,137.736,105.885,110.897,0.00624439,0.101124,20.9252,91.6398,-0.41833,0.0,0.0
7562,1890.25,30.0899,30.8946,138.598,105.869,110.777,0.00636333,0.101317,20.9253,91.7098,-0.40997,0.0,0.0
7581,1895,30.1221,30.6491,139.052,105.82,111.005,0.00637942,0.102477,20.9242,91.6198,-0.4327,0.0,0.0
7600,1899.75,29.9904,30.907,137.449,105.753,110.958,0.00616627,0.101669,20.9238,91.5997,-0.434578,0.0,0.0
7619,1904.5,29.5802,30.6571,142.834,105.671,111.304,0.00609134,0.101961,20.9241,91.5097,-0.469797,0.0,0.0
7638,1909.25,29.9628,30.0912,136.356,105.582,110.001,0.0060082,0.100927,20.9239,91.3595,-0.370862,0.0,0.0
7657,1914,30.0627,30.0989,137.711,105.466,110.42,0.0059795,0.102245,20.9237,91.3996,-0.415267,0.0,0.0
7676,1918.75,29.5088,29.8246,138.058,105.396,110.405,0.00603607,0.101318,20.925,91.3695,-0.419993,0.0,0.0
7695,1923.5,29.3898,30.1604,136.236,105.28,109.524,0.00581815,0.101544,20.9252,91.2795,-0.357485,0.0,0.0
7714,1928.25,29.6055,30.2567,140.404,105.218,109.866,0.00582985,0.102001,20.9251,91.1594,-0.390979,0.0,0.0
7733,1933,29.3479,29.8904,134.262,105.187,109.788,0.00620772,0.104699,20.921,91.0693,-0.38726,0.0,0.0
7752,1937.75,29.3699,30.2403,136.275,105.157,109.655,0.00633624,0.103983,20.9219,91.0893,-0.37886,0.0,0.0
7771,1942.5,29.4783,29.5433,141.213,105.156,109.408,0.00613023,0.10448,20.9222,91.0793,-0.358548,0.0,0.0
7790,1947.25,29.4998,29.7764,141.441,105.171,109.872,0.00601995,0.104473,20.9211,91.0092,-0.395511,0.0,0.0
7809,1952,29.3144,30.4476,137.058,105.202,109.246,0.00589253,0.106132,20.918,90.9091,-0.341211,0.0,0.0
7828,1956.75,29.3643,29.7875,134.925,105.215,110.106,0.00605731,0.103864,20.9221,90.8491,-0.410962,0.0,0.0
7847,1961.5,29.1403,30.1709,139.045,105.228,109.783,0.00634188,0.102793,20.9231,90.739,-0.383277,0.0,0.0
7866,1966.25,28.747,29.7734,138.98,105.287,109.289,0.00608914,0.102793,20.9233,90.719,-0.337495,0.0,0.0
7885,1971,29.4209,29.3498,138.798,105.297,109.512,0.0061064,0.103534,20.9221,90.6789,-0.354997,0.0,0.0
7904,1975.75,29.2686,29.8505,137.785,105.319,110.654,0.00614707,0.103046,20.9231,90.6389,-0.446951,0.0,0.0
7923,1980.5,28.9896,29.0879,139.405,105.346,110.005,0.00589869,0.10174,20.9254,90.5788,-0.391469,0.0,0.0
7942,1985.25,28.8453,29.8384,136.043,105.287,110.103,0.00577208,0.101858,20.9249,90.4187,-0.404518,0.0,0.0
7961,1990,29.1047,29.7168,135.54,105.288,109.146,0.00604588,0.104133,20.9223,90.4187,-0.325581,0.0,0.0
7980,1994.75,28.5654,29.9079,133.045,105.269,109.852,0.00589061,0.103851,20.9204,90.4587,-0.385433,0.0,0.0
7999,1999.5,28.8941,29.4051,139.605,105.273,110.074,0.00586323,0.10433,20.9196,90.4187,-0.403418,0.0,0.0
8018,2004.25,29.3325,29.5154,137.265,105.235,109.775,0.00603669,0.105389,20.9191,90.3687,-0.382081,0.0,0.0
8037,2009,29.1413,29.6235,141.084,105.223,109.354,0.00575535,0.105231,20.9196,90.2686,-0.348262,0.0,0.0
8056,2013.75,29.1313,29.5726,136.261,105.224,109.993,0.00569605,0.105646,20.9192,90.2185,-0.400933,0.0,0.0
8075,2018.5,28.9,29.547,141.055,105.252,110.309,0.00574633,0.10546,20.9194,90.2085,-0.424468,0.0,0.0
8094,2023.25,28.4167,29.8635,134.218,105.269,109.45,0.00564486,0.103134,20.9213,90.1685,-0.352272,0.0,0.0
8113,2028,28.8963,29.6597,137.813,105.299,109.483,0.00565327,0.101404,20.9251,90.1385,-0.352427,0.0,0.0
8132,2032.75,28.9713,29.6046,139.059,105.326,109.334,0.00588199,0.101168,20.9242,90.0284,-0.337856,0.0,0.0
8151,2037.5,28.6258,29.4937,141.784,105.356,109.56,0.00623699,0.10105,20.924,89.9183,-0.353911,0.0,0.0
8170,2042.25,29.1539,29.4698,139.769,105.372,110.599,0.00602006,0.101083,20.924,89.9883,-0.437921,0.0,0.0
8189,2047,29.0478,29.5527,137.721,105.394,111.002,0.0059328,0.100399,20.926,89.9383,-0.468961,0.0,0.0
8208,2051.75,27.3311,28.5976,138.457,105.408,110.094,0.00591663,0.0987613,20.9287,89.8883,-0.393412,0.0,0.0
8227,2056.5,26.8485,27.1555,133.937,105.444,110.053,0.0061859,0.0991419,20.9274,89.8482,-0.386998,0.0,0.0
8246,2061.25,27.6333,27.6016,135.183,105.46,109.766,0.00628101,0.0991844,20.927,89.7081,-0.362046,0.0,0.0
8265,2066,27.1506,27.8097,139.126,105.502,109.808,0.00620394,0.0981193,20.9288,89.6981,-0.361801,0.0,0.0
8284,2070.75,27.0028,26.785,137.875,105.553,109.585,0.00612724,0.0977604,20.9292,89.7081,-0.33902,0.0,0.0
8303,2075.5,27.1005,27.4725,139.692,105.576,109.85,0.00627169,0.0970524,20.9308,89.638,-0.358915,0.0,0.0
8322,2080.25,26.6447,27.4237,138.632,105.611,109.654,0.00615595,0.0976875,20.9307,89.598,-0.339784,0.0,0.0
8341,2085,26.4764,27.9009,139.687,105.617,109.978,0.00618933,0.0972407,20.9307,89.5179,-0.366018,0.0,0.0
8360,2089.75,27.048,27.5122,135.721,105.659,110.831,0.00616094,0.0972725,20.9307,89.4078,-0.432307,0.0,0.0
8379,2094.5,26.6613,27.9768,138.812,105.731,109.509,0.00607351,0.0970388,20.9314,89.4779,-0.317553,0.0,0.0
8398,2099.25,26.8928,27.7305,137.758,105.821,110.957,0.00620964,0.0985788,20.9308,89.4178,-0.428719,0.0,0.0
8417,2104,26.863,27.4634,140.11,105.897,110.793,0.00596237,0.0988744,20.9302,89.4078,-0.408844,0.0,0.0
8436,2108.75,26.8459,27.2679,137.387,105.964,110.788,0.00597776,0.0980652,20.9301,89.3378,-0.402687,0.0,0.0
8455,2113.5,26.8276,27.3902,139.18,105.971,110.706,0.00606946,0.096985,20.9317,89.1876,-0.395376,0.0,0.0
8474,2118.25,26.8607,27.3084,137.52,105.947,110.267,0.00597616,0.0968702,20.9312,89.2077,-0.361438,0.0,0.0
8493,2123,26.6656,27.5065,137.495,105.848,111.069,0.00589823,0.0972844,20.9305,89.1776,-0.435479,0.0,0.0
8512,2127.75,26.9921,27.1903,136.909,105.722,110.811,0.00581752,0.0968483,20.9319,89.1376,-0.425282,0.0,0.0
8531,2132.5,26.9892,27.7134,140.55,105.545,109.636,0.0057312,0.0963814,20.9321,89.0876,-0.343976,0.0,0.0
8550,2137.25,26.6891,27.5344,138.994,105.381,110.099,0.00590885,0.096768,20.9307,88.9975,-0.396191,0.0,0.0
8569,2142,26.7015,27.4456,136.523,105.167,109.376,0.00595785,0.0962446,20.9324,88.9875,-0.354981,0.0,0.0
8588,2146.75,26.5766,27.6141,140.252,105.002,109.809,0.00603213,0.0962566,20.9333,88.9574,-0.404922,0.0,0.0
8607,2151.5,26.6341,27.1756,138.84,104.836,109.489,0.00602959,0.0965972,20.9335,88.9074,-0.392808,0.0,0.0
8626,2156.25,26.5692,27.2937,136.517,104.655,109.46,0.0059108,0.0959505,20.9316,88.8674,-0.406078,0.0,0.0
8645,2161,26.5547,27.3034,140.374,104.506,108.721,,0.0967174,,88.8273,-0.357694,0.0,0.0
8664,2165.75,26.6143,27.7695,135.466,104.359,109.226,,,,88.7272,-0.412343,0.0,0.0
8681,2170,26.5079,27.5877,138.456,104.302,108.634,,,,88.7873,-0.368058,0.0,0.0