File: 01_Data/Eucalyptus_Flooring/Cone/Eucalyptus_Flooring_Cone_HF50Scan_220526_R3.csv
Names,Time,Stack TC,Smoke TC,Exh Press,Smoke Comp,Smoke Meas,CO Meter,CO2 Meter,O2 Meter,Sample Mass,Ext Coeff,Start Test,Flame Verif
Chan Gain,,500,500,1,1,1,1,1,1,1,1,1.0,1.0
Offset,,0,0,0.138731,0,0,0,0,0,0,0,0.0,0.0
Gain,,1,1,25.011,13.8491,15.2622,1,1,1,1.00087,1.03118,1.0,1.0
Units,sec,C,C,Pa,%,%,%,%,%,g,/m,,
Baseline,,37.7058,39.1646,140.363,103.791,103.514,0.00110142,0.0469215,21.0021,-452.043,0.0241992,,
16,3.75,34.2867,35.8481,145.251,104.16,103.691,0.00106362,0.0500912,20.9964,208.331,0.0408723,0.0,0.0
32,7.75,34.807,36.0175,141,104.177,103.898,0.000888452,0.0488644,20.9969,208.221,0.024281,0.0,0.0
48,11.75,34.3098,36.298,143.129,104.164,103.989,0.000957283,0.0478627,20.9995,208.191,0.0152398,0.0,0.0
64,15.75,34.8113,36.0068,139.321,104.135,103.548,0.00114397,0.0472269,21.0001,208.071,0.051075,0.0,0.0
80,19.75,35.0664,36.1294,141.356,104.12,103.313,0.00117145,0.0472466,21.001,207.981,0.07036,0.0,0.0
96,23.75,34.7581,36.2242,147.936,104.079,103.126,0.00127058,0.0476305,21.0038,207.801,0.0832021,0.0,0.0
112,27.75,35.7044,36.1372,137.674,104.043,103.469,0.00130765,0.0486255,21.0029,207.701,0.0500649,0.0,0.0
128,31.75,35.9229,37.0151,139.408,103.98,102.699,0.00264736,0.0542572,20.9936,207.501,0.11211,0.0,1.0
144,35.75,36.4439,37.1888,136.678,103.945,94.3546,0.00827361,0.139068,20.8754,207.09,0.875647,0.0,1.0
160,39.75,37.6267,37.1306,117.173,103.918,78.0869,0.0183265,0.402016,20.5275,206.3,2.58505,0.0,1.0
176,43.75,43.5716,41.4608,109.939,103.893,77.6295,0.0271149,0.709585,20.1811,205.239,2.63594,0.0,0.0
192,47.75,50.3666,47.7494,112.614,103.879,78.3589,0.0300643,0.890458,19.9377,204.148,2.55017,0.0,0.0
208,51.75,56.9345,53.6862,110.463,103.879,80.9411,0.0287086,0.892483,19.9254,203.037,2.25693,0.0,0.0
224,55.75,60.9959,57.8628,115.442,103.897,87.2033,0.0244187,0.792089,20.0465,202.156,1.5844,0.0,0.0
240,59.75,63.3362,61.4275,118.698,103.884,93.0808,0.0193298,0.700012,20.1844,201.275,0.993303,0.0,0.0
256,63.75,65.43,63.9627,125.168,103.883,96.5134,0.0148244,0.631886,20.2839,200.525,0.665612,0.0,0.0
272,67.75,66.772,65.8463,117.554,103.895,97.4622,0.0118124,0.580676,20.3499,199.784,0.578193,0.0,0.0
288,71.75,66.9764,67.0088,126.65,103.893,100.97,0.00960076,0.53585,20.414,199.093,0.258105,0.0,0.0
304,75.75,67.4601,68.071,125.575,103.9,102.244,0.00824299,0.497376,20.4669,198.433,0.145328,0.0,0.0
320,79.75,67.3855,68.7806,124.531,103.922,103.75,0.00746078,0.465457,20.5131,197.752,0.0149491,0.0,0.0
336,83.75,67.2373,69.3474,125.764,103.955,104.671,0.00741765,0.439636,20.5435,197.102,-0.0620689,0.0,0.0
352,87.75,67.0752,69.6273,122.954,103.926,103.913,0.00709726,0.41425,20.5775,196.581,0.00111921,0.0,0.0
368,91.75,66.7761,69.7967,126.617,103.925,104.07,0.00645235,0.396243,20.5973,196.081,-0.0125305,0.0,0.0
384,95.75,66.2174,70.2175,128.794,103.95,104.648,0.00604769,0.379177,20.6192,195.45,-0.0605382,0.0,0.0
400,99.75,66.1652,69.8308,126.329,103.952,104.324,0.00575209,0.366978,20.6345,194.96,-0.0323308,0.0,0.0
416,103.75,65.5105,69.5835,131.279,103.959,105.14,0.00556249,0.356424,20.6465,194.449,-0.102143,0.0,0.0
432,107.75,64.9713,69.0758,125.009,103.979,104.954,0.00582934,0.346917,20.657,193.919,-0.0844528,0.0,0.0
448,111.75,64.9178,69.3204,128.165,103.989,104.912,0.00592119,0.341711,20.6622,193.488,-0.0799164,0.0,0.0
464,115.75,64.2009,69.18,131.118,104.022,105.134,0.00578674,0.330947,20.6751,193.018,-0.0961451,0.0,0.0
480,119.75,63.6971,68.4245,126.227,104.045,105.477,0.00543727,0.321094,20.6852,192.598,-0.123646,0.0,0.0
496,123.75,63.1195,68.2694,130.564,104.06,105.021,0.00535612,0.320748,20.6866,192.137,-0.0830946,0.0,0.0
512,127.75,62.9942,67.8565,127.873,104.067,104.74,0.00543722,0.320188,20.6885,191.687,-0.0583239,0.0,0.0
528,131.75,62.6961,67.4649,129.227,104.07,104.403,0.00565739,0.313491,20.6942,191.226,-0.028821,0.0,0.0
544,135.75,62.0866,67.936,130.013,104.093,105.613,0.00556407,0.31023,20.698,190.816,-0.131074,0.0,0.0
560,139.75,62.5142,67.135,126.133,104.097,105.675,0.00562333,0.30735,20.7024,190.386,-0.136128,0.0,0.0
576,143.75,61.5744,66.8139,131.84,104.109,105.41,0.0054125,0.305014,20.7061,189.895,-0.11227,0.0,0.0
592,147.75,61.6611,66.5348,126.337,104.146,105.274,0.00492655,0.303992,20.7067,189.515,-0.0973969,0.0,0.0
608,151.75,61.2333,66.3561,132.711,104.166,105.741,0.00489104,0.302427,20.7085,189.015,-0.13576,0.0,0.0
624,155.75,60.9425,66.3274,125.434,104.185,105.432,0.00482985,0.29725,20.7144,188.644,-0.107617,0.0,0.0
640,159.75,60.4583,66.0001,127.269,104.203,105.856,0.00495726,0.290051,20.7226,188.174,-0.142406,0.0,0.0
656,163.75,60.0188,65.3735,130.663,104.237,106.112,0.00452081,0.286745,20.7262,187.733,-0.161299,0.0,0.0
672,167.75,59.8478,65.2088,129.424,104.238,106.064,0.00440213,0.28679,20.7269,187.353,-0.157098,0.0,0.0
688,171.75,59.4645,65.0307,127.123,104.24,105.924,0.00446176,0.285147,20.728,186.953,-0.144988,0.0,0.0
704,175.75,60.0119,64.7228,130.442,104.219,105.774,0.00451623,0.282419,20.7326,186.562,-0.133965,0.0,0.0
720,179.75,59.2798,65.2553,132.477,104.22,105.297,0.00462791,0.277391,20.7375,186.172,-0.093013,0.0,0.0
736,183.75,59.1649,64.4791,126.56,104.226,106.567,0.00459862,0.27524,20.7415,185.752,-0.200845,0.0,0.0
752,187.75,58.9454,64.1514,129.328,104.231,106.51,0.00491196,0.2709,20.7452,185.371,-0.19562,0.0,0.0
768,191.75,58.5641,63.7798,128.268,104.232,106.593,0.00496319,0.269867,20.7483,184.971,-0.202544,0.0,0.0
784,195.75,58.536,63.6016,131.164,104.248,106.118,0.00498499,0.267887,20.7498,184.681,-0.160785,0.0,0.0
800,199.75,58.0102,63.6803,130.249,104.288,106.73,0.00474387,0.266047,20.7511,184.29,-0.209317,0.0,0.0
816,203.75,58.0107,63.3279,133.797,104.344,105.805,0.00459817,0.264684,20.7514,183.93,-0.125706,0.0,0.0
832,207.75,57.9311,63.0072,132.573,104.384,106.726,0.00458031,0.264752,20.7517,183.52,-0.200721,0.0,0.0
848,211.75,58.2347,62.6038,131.735,104.435,106.03,0.00440898,0.263375,20.7529,183.179,-0.137083,0.0,0.0
864,215.75,58.1736,62.1204,128.916,104.439,106.07,0.00429211,0.264772,20.7516,182.789,-0.140094,0.0,0.0
880,219.75,57.8619,62.3776,130.478,104.431,106.486,0.00453237,0.263603,20.7512,182.399,-0.176266,0.0,0.0
896,223.75,57.7803,62.5522,132.172,104.444,106.371,0.00446924,0.263306,20.7509,182.008,-0.165318,0.0,0.0
912,227.75,57.624,61.9563,127.001,104.473,106.71,0.00435346,0.264288,20.7509,181.618,-0.191618,0.0,0.0
928,231.75,57.5435,61.552,131.088,104.51,106.043,0.00454637,0.261206,20.7552,181.198,-0.131759,0.0,0.0
944,235.75,57.519,61.8765,130.538,104.565,106.701,0.00501352,0.25947,20.7579,180.817,-0.182966,0.0,0.0
960,239.75,57.4423,61.7294,133.886,104.593,106.011,0.00504038,0.258706,20.7583,180.457,-0.12181,0.0,0.0
976,243.75,56.7537,61.9729,130.371,104.645,106.32,0.00472139,0.25772,20.7591,180.067,-0.143666,0.0,0.0
992,247.75,57.1315,61.5634,132.112,104.694,106.909,0.00438995,0.258809,20.7593,179.676,-0.189379,0.0,0.0
1008,251.75,57.4206,61.3852,130.931,104.738,106.675,0.00439289,0.257467,20.7606,179.296,-0.16578,0.0,0.0
1024,255.75,56.9791,61.1522,129.884,104.787,106.519,0.0042805,0.259303,20.7604,178.946,-0.148227,0.0,0.0
1040,259.75,57.6547,60.666,132.244,104.836,106.344,0.00442938,0.257752,20.7616,178.555,-0.129189,0.0,0.0
1056,263.75,57.0938,60.9898,132.433,104.885,106.346,0.00434673,0.256853,20.7622,178.195,-0.125158,0.0,0.0
1072,267.75,56.9996,60.6735,128.263,104.92,107.038,0.00448208,0.255507,20.7653,177.825,-0.180774,0.0,0.0
1088,271.75,57.1303,61.1868,130.268,104.948,106.699,0.00463137,0.253271,20.767,177.505,-0.149632,0.0,0.0
1104,275.75,57.3554,61.0595,131.472,104.957,106.486,0.00454755,0.253336,20.7669,177.114,-0.130804,0.0,0.0
1120,279.75,56.6455,60.5939,130.361,105.018,106.846,0.00450845,0.251772,20.7684,176.764,-0.156132,0.0,0.0
1136,283.75,56.4184,60.6737,128.362,105.028,106.602,0.00462056,0.249225,20.7701,176.344,-0.134573,0.0,0.0
1152,287.75,56.6347,60.3578,133.224,105.067,107.393,0.00466062,0.249165,20.7702,175.973,-0.198084,0.0,0.0
1168,291.75,56.7067,60.5343,128.691,105.089,106.975,0.0044434,0.2479,20.7708,175.583,-0.160891,0.0,0.0
1184,295.75,56.7704,60.0425,130.298,105.103,107.548,0.00420025,0.248996,20.7722,175.233,-0.208082,0.0,0.0
1200,299.75,56.0884,60.1679,130.221,105.141,107.181,0.00419376,0.249579,20.7725,174.862,-0.173776,0.0,0.0
1216,303.75,56.3253,60.3645,131.017,105.187,107.034,0.00440187,0.246811,20.7749,174.472,-0.157459,0.0,0.0
1232,307.75,56.5519,60.3976,130.71,105.234,107.471,0.00425474,0.245242,20.7771,174.062,-0.190197,0.0,0.0
1248,311.75,56.1736,60.1689,126.908,105.276,106.957,0.00418035,0.242422,20.7787,173.701,-0.143293,0.0,0.0
1264,315.75,56.2837,59.7394,133.295,105.296,107.29,0.00484215,0.240495,20.7807,173.341,-0.169671,0.0,0.0
1280,319.75,55.8963,59.9083,130.022,105.325,107.707,0.00517543,0.239017,20.7813,173.011,-0.202282,0.0,0.0
1296,323.75,56.1032,59.4385,131.814,105.357,106.681,0.00509564,0.237026,20.7835,172.65,-0.112898,0.0,0.0
1312,327.75,55.8098,59.5553,131.963,105.376,107.947,0.00491775,0.239643,20.7818,172.24,-0.217974,0.0,0.0
1328,331.75,55.9965,59.7108,130.971,105.4,107.274,0.00466372,0.2408,20.7799,171.91,-0.159445,0.0,0.0
1344,335.75,55.8622,59.3866,132.585,105.42,107.373,0.00453921,0.241683,20.7795,171.549,-0.166066,0.0,0.0
1360,339.75,55.9705,59.2442,129.223,105.434,107.242,0.00472205,0.241748,20.7794,171.229,-0.153797,0.0,0.0
1376,343.75,55.2761,58.9105,129.257,105.459,107.429,0.00472161,0.240588,20.7809,170.879,-0.167437,0.0,0.0
1392,347.75,55.8245,59.2013,136.38,105.49,107.922,0.00506055,0.241856,20.7801,170.518,-0.206187,0.0,0.0
1408,351.75,55.4406,59.0805,130.602,105.507,107.719,0.00523956,0.241022,20.7785,170.138,-0.187665,0.0,0.0
1424,355.75,55.3997,59.0602,131.693,105.518,107.891,0.00496513,0.241481,20.7782,169.788,-0.201145,0.0,0.0
1440,359.75,55.4118,58.8527,129.916,105.514,107.716,0.0049543,0.241531,20.7781,169.458,-0.186854,0.0,0.0
1456,363.75,55.4257,58.8238,133.689,105.516,107.55,0.00470238,0.2426,20.7781,169.077,-0.172698,0.0,0.0
1472,367.75,55.294,59.0137,129.229,105.505,107.78,0.00447551,0.243518,20.7785,168.717,-0.192972,0.0,0.0
1488,371.75,55.5948,58.916,129.259,105.504,107.502,0.00445684,0.242126,20.7792,168.377,-0.16975,0.0,0.0
1504,375.75,55.7991,59.061,131.492,105.483,107.956,0.00455069,0.242598,20.7794,167.986,-0.209618,0.0,0.0
1520,379.75,55.1743,58.8737,133.195,105.496,107.539,0.00452384,0.24261,20.7801,167.566,-0.173423,0.0,0.0
1536,383.75,55.2607,58.6652,133.456,105.474,107.578,0.00456585,0.242021,20.7799,167.216,-0.178636,0.0,0.0
1552,387.75,55.3835,58.7729,131.084,105.486,107.385,0.00461334,0.241278,20.7814,166.885,-0.161391,0.0,0.0
1568,391.75,55.5938,58.7336,128.995,105.505,107.208,0.00474514,0.240227,20.7813,166.505,-0.144843,0.0,0.0
1584,395.75,55.7011,58.7243,129.842,105.498,106.908,0.00456236,0.239488,20.7828,166.135,-0.120151,0.0,0.0
1600,399.75,55.4634,58.5179,128.982,105.472,108.15,0.00452822,0.238157,20.7838,165.754,-0.226816,0.0,0.0
1616,403.75,55.269,58.5658,134.765,105.482,107.529,0.00431934,0.237548,20.7859,165.474,-0.173835,0.0,0.0
1632,407.75,54.9775,58.8512,135.66,105.473,107.311,0.00440218,0.23702,20.7851,165.104,-0.156274,0.0,0.0
1648,411.75,55.286,58.7066,130.611,105.464,107.244,0.00457888,0.236345,20.7862,164.773,-0.151344,0.0,0.0
1664,415.75,55.5461,58.3735,131.881,105.434,107.241,0.00438259,0.234964,20.7892,164.433,-0.153719,0.0,0.0
1680,419.75,55.6198,58.5017,129.41,105.412,107.789,0.00462246,0.233218,20.7914,164.093,-0.20169,0.0,0.0
1696,423.75,55.5424,58.0218,126.901,105.392,107.258,0.00476224,0.23147,20.7926,163.662,-0.158723,0.0,0.0
1712,427.75,55.5148,58.1962,131.805,105.356,107.747,0.00480793,0.23112,20.7932,163.352,-0.202996,0.0,0.0
1728,431.75,54.7865,57.9868,128.088,105.337,107.805,0.00487543,0.232579,20.7923,162.982,-0.209552,0.0,0.0
1744,435.75,55.2686,58.5698,129.806,105.316,106.65,0.00491471,0.232302,20.792,162.622,-0.113813,0.0,0.0
1760,439.75,55.2534,58.239,128.762,105.292,107.237,0.00492637,0.231661,20.7915,162.261,-0.165557,0.0,0.0
1776,443.75,55.3125,58.0282,132.337,105.259,107.482,0.0046856,0.229878,20.7935,161.931,-0.18907,0.0,0.0
1792,447.75,55.017,58.1123,129.657,105.26,106.917,0.00459168,0.229945,20.7953,161.561,-0.141325,0.0,0.0
1808,451.75,54.7415,57.88,129.97,105.244,107.599,0.00455879,0.230415,20.794,161.2,-0.200135,0.0,0.0
1824,455.75,54.9621,58.0013,128.136,105.254,107.387,0.00440121,0.230518,20.7935,160.82,-0.181469,0.0,0.0
1840,459.75,54.5645,58.3935,133.115,105.266,107.77,0.00438261,0.230493,20.7936,160.45,-0.212641,0.0,0.0
1856,463.75,54.9836,57.5626,128.268,105.289,107.56,0.00438219,0.229997,20.794,160.129,-0.192996,0.0,0.0
1872,467.75,54.7265,57.8591,130.331,105.306,106.629,0.00436071,0.230381,20.7953,159.799,-0.112942,0.0,0.0
1888,471.75,54.8414,57.3675,128.642,105.311,107.455,0.00447501,0.230774,20.7947,159.439,-0.18229,0.0,0.0
1904,475.75,55.0791,57.7244,129.47,105.303,107.757,0.00427276,0.228587,20.7974,159.078,-0.208354,0.0,0.0
1920,479.75,54.6038,57.8548,132.933,105.33,107.26,0.00434185,0.228396,20.7973,158.768,-0.164214,0.0,0.0
1936,483.75,54.6762,57.8208,130.919,105.329,107.32,0.00432161,0.230492,20.7946,158.428,-0.169315,0.0,0.0
1952,487.75,54.9222,57.8863,131.862,105.307,107.663,0.00433643,0.230152,20.7946,158.118,-0.200165,0.0,0.0
1968,491.75,55.0589,58.1702,129.677,105.31,107.496,0.00430298,0.229399,20.7946,157.777,-0.185816,0.0,0.0
1984,495.75,54.6834,58.1391,132.328,105.316,107.945,0.00418261,0.229727,20.7929,157.467,-0.223083,0.0,0.0
2000,499.75,55.0263,57.9282,132.289,105.299,107.096,0.00424051,0.229839,20.7926,157.067,-0.153102,0.0,0.0
2016,503.75,54.8684,57.7103,134.42,105.264,107.538,0.00423296,0.229094,20.7926,156.736,-0.193372,0.0,0.0
2032,507.75,54.7596,57.8995,129.286,105.259,107.143,0.00413919,0.231181,20.7923,156.406,-0.16045,0.0,0.0
2048,511.75,54.6799,57.8686,133.301,105.243,107.668,0.0041885,0.230784,20.7943,156.056,-0.206077,0.0,0.0
2064,515.75,54.5754,57.4576,131.97,105.221,107.623,0.00414984,0.230996,20.7947,155.726,-0.204133,0.0,0.0
2080,519.75,54.4749,57.4605,130.092,105.196,107.063,0.00418239,0.231214,20.7947,155.385,-0.159133,0.0,0.0
2096,523.75,54.3832,57.3852,129.497,105.162,107.587,0.00431158,0.231485,20.7934,155.005,-0.206281,0.0,0.0
2112,527.75,54.5455,57.4676,128.011,105.121,107.455,0.00406556,0.231299,20.7926,154.645,-0.198641,0.0,0.0
2128,531.75,54.973,58.1317,128.249,105.09,107.67,0.00405593,0.233288,20.792,154.274,-0.219431,0.0,0.0
2144,535.75,54.91,57.1749,132.55,105.062,107.402,0.00406544,0.232549,20.7918,153.934,-0.199266,0.0,0.0
2160,539.75,54.4591,57.666,134.294,105.025,107.137,0.00393116,0.232532,20.7918,153.584,-0.180121,0.0,0.0
2176,543.75,54.43,57.9275,132.834,104.996,107.472,0.00398263,0.233256,20.7911,153.233,-0.210866,0.0,0.0
2192,547.75,54.6522,57.4221,130.563,104.958,107.298,0.00423281,0.232954,20.7898,152.903,-0.199431,0.0,0.0
2208,551.75,54.4038,58.0534,129.69,104.939,107.191,0.00434751,0.234062,20.7892,152.533,-0.191998,0.0,0.0
2224,555.75,54.8854,57.9175,129.144,104.92,107.511,0.00433314,0.234384,20.7883,152.202,-0.220636,0.0,0.0
2240,559.75,54.9483,57.7591,131.744,104.896,107.313,0.00436792,0.235734,20.7881,151.872,-0.206043,0.0,0.0
2256,563.75,55.2098,57.8859,133.582,104.874,106.868,0.00428664,0.234708,20.7892,151.522,-0.17037,0.0,0.0
2272,567.75,55.0383,57.688,127.252,104.888,107.164,0.00402113,0.235632,20.7878,151.232,-0.194166,0.0,0.0
2288,571.75,55.3036,57.6964,135.01,104.865,106.891,0.00422738,0.235605,20.7872,150.841,-0.173104,0.0,0.0
2304,575.75,54.9771,57.7331,132.372,104.833,106.653,0.00419861,0.23828,20.7832,150.541,-0.155636,0.0,0.0
2320,579.75,54.8583,57.5924,127.317,104.816,107.434,0.00422711,0.238124,20.7839,150.121,-0.223099,0.0,0.0
2336,583.75,55.0569,58.18,131.738,104.806,107.117,0.00409634,0.238593,20.7835,149.83,-0.197305,0.0,0.0
2352,587.75,54.9551,57.8588,129.167,104.783,107.183,0.00387717,0.238961,20.7823,149.47,-0.204822,0.0,0.0
2368,591.75,54.7635,58.0848,130.193,104.786,106.962,0.00392392,0.239973,20.7807,149.14,-0.185916,0.0,0.0
2384,595.75,54.971,57.7079,131.589,104.774,106.339,0.00376733,0.241684,20.7799,148.699,-0.134079,0.0,0.0
2400,599.75,55.1504,58.0626,128.948,104.754,107.35,0.00416465,0.241919,20.7797,148.389,-0.221476,0.0,0.0
2416,603.75,55.2667,57.9797,130.194,104.729,106.947,0.00438935,0.242704,20.7797,148.029,-0.189576,0.0,0.0
2432,607.75,55.2051,58.0168,130.674,104.738,107.011,0.00425793,0.243791,20.7797,147.649,-0.194247,0.0,0.0
2448,611.75,55.3778,58.2792,131.83,104.726,107.405,0.00386442,0.242077,20.7813,147.328,-0.228515,0.0,0.0
2464,615.75,55.2643,58.0848,130.295,104.697,106.775,0.00379886,0.244158,20.78,146.888,-0.17773,0.0,0.0
2480,619.75,55.3968,58.2584,127.772,104.684,107.14,0.00377548,0.242643,20.7812,146.558,-0.209783,0.0,0.0
2496,623.75,55.5627,58.3267,129.989,104.648,106.978,0.00368922,0.243451,20.7792,146.247,-0.199154,0.0,0.0
2512,627.75,55.4024,58.062,135.496,104.604,107.163,0.00352929,0.244612,20.7765,145.897,-0.218612,0.0,0.0
2528,631.75,55.4921,57.9435,132.019,104.568,107.137,0.00356882,0.245404,20.775,145.597,-0.219517,0.0,0.0
2544,635.75,55.5054,58.5804,131.454,104.529,107.146,0.00352652,0.247527,20.7729,145.206,-0.223631,0.0,0.0
2560,639.75,55.7537,58.5336,132.827,104.504,106.069,0.0034231,0.247945,20.7716,144.906,-0.134492,0.0,0.0
2576,643.75,56.0717,58.6992,129.694,104.464,106.704,0.00339466,0.248163,20.7721,144.596,-0.191948,0.0,0.0
2592,647.75,55.9242,58.5092,131.593,104.391,106.557,0.00346284,0.249613,20.7719,144.226,-0.185797,0.0,0.0
2608,651.75,56.05,59.0182,128.199,104.338,107.025,0.00352799,0.250503,20.7709,143.895,-0.230025,0.0,0.0
2624,655.75,55.8737,59.1044,130.084,104.317,106.962,0.0032899,0.251886,20.7701,143.535,-0.226464,0.0,0.0
2640,659.75,56.0928,58.8531,131.066,104.267,106.617,0.00310889,0.252992,20.769,143.185,-0.201632,0.0,0.0
2656,663.75,56.2785,58.9795,133.502,104.189,107.047,0.00337245,0.255627,20.7654,142.834,-0.244818,0.0,0.0
2672,667.75,56.4152,58.9258,128.781,104.111,106.259,0.0034481,0.255865,20.7645,142.504,-0.184733,0.0,0.0
2688,671.75,56.4159,59.2021,129.361,104.058,106.451,0.00300807,0.257437,20.7632,142.104,-0.205684,0.0,0.0
2704,675.75,56.4514,59.3097,128.995,104.01,105.971,0.00301918,0.258952,20.7614,141.713,-0.168937,0.0,0.0
2720,679.75,56.5608,59.4279,128.484,103.961,106.831,0.00317394,0.261775,20.7588,141.323,-0.246373,0.0,0.0
2736,683.75,56.8761,59.2018,131.526,103.918,106.59,0.00324529,0.263042,20.7562,141.063,-0.229676,0.0,0.0
2752,687.75,56.6268,60.0625,127.679,103.888,106.451,0.00307326,0.26434,20.7548,140.582,-0.220386,0.0,0.0
2768,691.75,56.9243,59.916,129.848,103.853,106.68,0.00314464,0.267583,20.752,140.202,-0.242969,0.0,0.0
2784,695.75,56.5331,59.6935,130.531,103.804,106.496,0.00299604,0.272322,20.7464,139.852,-0.23159,0.0,0.0
2800,699.75,57.0196,60.1909,132.111,103.782,106.602,0.00293328,0.275798,20.7412,139.501,-0.242557,0.0,0.0
2816,703.75,57.7482,60.0786,131.218,103.723,106.642,0.00290616,0.2782,20.7382,139.101,-0.251078,0.0,0.0
2832,707.75,57.6317,60.416,128.238,103.684,105.782,0.0030748,0.279437,20.7368,138.761,-0.181165,0.0,0.0
2848,711.75,57.9316,60.5579,128.422,103.644,106.573,0.00326336,0.283049,20.7347,138.39,-0.252124,0.0,0.0
2864,715.75,58.0804,60.5843,127.207,103.643,106.122,0.00334306,0.285115,20.7333,138.03,-0.21377,0.0,0.0
2880,719.75,57.9946,61.1421,128.75,103.606,105.97,0.00328418,0.288046,20.7292,137.61,-0.204104,0.0,0.0
2896,723.75,58.0826,61.3184,124.044,103.586,106.002,0.00334441,0.29055,20.7262,137.229,-0.208502,0.0,0.0
2912,727.75,58.3278,61.3777,125.972,103.568,106.285,0.00313335,0.294629,20.7208,136.839,-0.234299,0.0,0.0
2928,731.75,58.906,61.924,126.088,103.55,106.456,0.00308358,0.296839,20.7175,136.449,-0.250309,0.0,0.0
2944,735.75,59.0851,61.9881,127.746,103.546,106.005,0.00324239,0.30013,20.7145,136.038,-0.212251,0.0,0.0
2960,739.75,59.2515,61.9217,130.38,103.521,105.657,0.00313229,0.301536,20.713,135.648,-0.184691,0.0,0.0
2976,743.75,59.2151,62.2032,129.589,103.526,105.948,0.00311726,0.305028,20.7099,135.248,-0.20917,0.0,0.0
2992,747.75,59.4042,62.5127,131.217,103.5,105.85,0.00328504,0.306857,20.707,134.857,-0.203108,0.0,0.0
3008,751.75,59.7445,62.7437,126.523,103.515,105.954,0.00334692,0.309964,20.7046,134.407,-0.21061,0.0,0.0
3024,755.75,59.7885,63.2511,126.846,103.487,105.702,0.00311478,0.313964,20.6997,133.987,-0.191547,0.0,0.0
3040,759.75,60.0916,63.305,126.057,103.481,105.759,0.00315868,0.316523,20.6945,133.546,-0.196966,0.0,0.0
3056,763.75,60.4194,63.3368,130.288,103.46,105.465,0.00306589,0.321056,20.6888,133.076,-0.173641,0.0,0.0
3072,767.75,60.5995,63.3975,128.632,103.471,105.792,0.00278006,0.326769,20.6823,132.665,-0.200684,0.0,0.0
3088,771.75,61.0637,64.1361,125.358,103.47,105.205,0.00283072,0.330243,20.6779,132.245,-0.150399,0.0,0.0
3104,775.75,61.0214,64.4953,123.551,103.466,105.582,0.0029233,0.33307,20.6749,131.795,-0.183112,0.0,0.0
3120,779.75,61.5226,64.9722,130.158,103.474,105.374,0.00270793,0.336954,20.6702,131.374,-0.164552,0.0,0.0
3136,783.75,61.3856,65.0706,125.41,103.471,105.778,0.00262827,0.34202,20.6652,130.914,-0.199409,0.0,0.0
3152,787.75,61.7939,65.0549,128.865,103.485,105.335,0.0027909,0.347021,20.6595,130.474,-0.160309,0.0,0.0
3168,791.75,62.4884,65.1944,125.023,103.484,105.822,0.00305949,0.348327,20.6574,130.003,-0.202047,0.0,0.0
3184,795.75,62.9131,65.9714,130.411,103.479,105.103,0.0029199,0.35329,20.651,129.563,-0.140808,0.0,0.0
3200,799.75,62.8416,66.0852,127.276,103.489,105.554,0.00278381,0.359622,20.6445,129.102,-0.178722,0.0,0.0
3216,803.75,63.6304,66.4117,125.776,103.508,104.906,0.00302153,0.365893,20.6369,128.582,-0.121289,0.0,0.0
3232,807.75,63.554,66.6983,123.24,103.516,105.541,0.0028386,0.369404,20.6336,128.112,-0.175274,0.0,0.0
3248,811.75,63.3522,67.6043,124.983,103.517,105.367,0.00271426,0.374008,20.6293,127.641,-0.160185,0.0,0.0
3264,815.75,64.3877,67.1226,124.52,103.519,105.154,0.00290092,0.378841,20.6234,127.151,-0.141785,0.0,0.0
3280,819.75,64.9229,67.7542,123.161,103.532,105.403,0.00301233,0.38259,20.6195,126.61,-0.162007,0.0,0.0
3296,823.75,65.0651,68.2532,123.31,103.541,105.185,0.00292065,0.388452,20.6123,126.08,-0.142509,0.0,0.0
3312,827.75,65.0099,68.9131,122.844,103.572,105.234,0.00301176,0.393295,20.6049,125.599,-0.143982,0.0,0.0
3328,831.75,65.8052,68.7356,123.741,103.573,104.735,0.00301672,0.39966,20.598,125.039,-0.100966,0.0,0.0
3344,835.75,66.4936,69.4822,121.562,103.573,104.29,0.00293687,0.405801,20.5912,124.468,-0.0623534,0.0,0.0
3360,839.75,66.6817,70.4011,126.881,103.575,103.848,0.00317484,0.409025,20.5845,123.948,-0.0238241,0.0,0.0
3376,843.75,66.9114,70.0552,126.41,103.588,104.499,0.00335637,0.416656,20.576,123.437,-0.0791783,0.0,0.0
3392,847.75,67.6956,71.0794,124.93,103.608,104.085,0.00324177,0.422627,20.5682,122.887,-0.0415383,0.0,0.0
3408,851.75,67.8774,70.9191,123.667,103.601,104.828,0.00321461,0.424777,20.5641,122.337,-0.106494,0.0,0.0
3424,855.75,68.2842,71.6118,121.068,103.606,104.068,0.00343685,0.425153,20.564,121.836,-0.0402585,0.0,0.0
3440,859.75,68.7518,72.2169,123.546,103.601,104.269,0.00341545,0.432063,20.5586,121.326,-0.05814,0.0,0.0
3456,863.75,68.7696,72.735,123.254,103.598,104.429,0.00341608,0.436624,20.5521,120.705,-0.0722061,0.0,0.0
3472,867.75,69.0855,72.568,120.849,103.583,103.758,0.00340364,0.44306,20.546,120.135,-0.0152936,0.0,0.0
3488,871.75,70.0782,73.5542,122.438,103.585,104.146,0.0035191,0.448061,20.5387,119.534,-0.0489053,0.0,0.0
3504,875.75,69.8405,73.8065,125.23,103.578,104.1,0.00372224,0.449289,20.5349,118.994,-0.0454134,0.0,0.0
3520,879.75,70.2684,73.9055,124.199,103.591,103.711,0.00376055,0.453406,20.5294,118.413,-0.0104899,0.0,0.0
3536,883.75,70.7803,74.6651,125.574,103.583,104.216,0.0038904,0.460492,20.5206,117.813,-0.0550795,0.0,0.0
3552,887.75,70.9731,75.1614,122.435,103.561,104.177,0.00391132,0.465109,20.5141,117.202,-0.0536427,0.0,0.0
3568,891.75,71.6465,75.4208,123.18,103.555,103.692,0.0040452,0.466184,20.5108,116.612,-0.0119577,0.0,0.0
3584,895.75,71.7711,75.6759,125.905,103.55,103.214,0.00392131,0.474226,20.5047,115.931,0.0293781,0.0,0.0
3600,899.75,72.8015,76.6267,124.264,103.558,103.167,0.00390169,0.47644,20.5007,115.35,0.0342038,0.0,0.0
3616,903.75,72.8574,76.5007,124.897,103.547,103.35,0.0039943,0.480785,20.4957,114.72,0.0171719,0.0,0.0
3632,907.75,73.1702,76.7708,123.182,103.551,103.569,0.00396594,0.487196,20.4881,114.089,-0.00152,0.0,0.0
3648,911.75,73.6311,77.2301,123.354,103.553,103.011,0.00430889,0.489455,20.4839,113.479,0.0474555,0.0,0.0
3664,915.75,73.8693,78.2997,123.764,103.552,102.812,0.00452213,0.490188,20.4813,112.838,0.0649038,0.0,0.0
3680,919.75,74.5545,78.7882,118.445,103.551,103.016,0.00427765,0.496836,20.4756,112.218,0.0468623,0.0,0.0
3696,923.75,75.0045,78.8862,119.7,103.544,102.675,0.00424916,0.500396,20.4706,111.617,0.0762546,0.0,0.0
3712,927.75,75.0359,78.8897,123.278,103.527,102.44,0.00433681,0.506276,20.4629,110.967,0.0954071,0.0,0.0
3728,931.75,75.1757,79.4283,120.705,103.537,102.874,0.00467809,0.510324,20.458,110.396,0.0581222,0.0,0.0
3744,935.75,75.2529,79.966,122.332,103.536,102.286,0.00482136,0.512199,20.4543,109.706,0.109884,0.0,0.0
3760,939.75,76.0649,80.646,119.018,103.54,102.151,0.00487668,0.51728,20.4458,109.045,0.122165,0.0,0.0
3776,943.75,76.3872,80.7922,122.429,103.53,101.562,0.0052979,0.523855,20.4387,108.444,0.17364,0.0,0.0
3792,947.75,76.6387,81.0716,120.771,103.545,101.75,0.00564953,0.530951,20.4329,107.754,0.158188,0.0,0.0
3808,951.75,76.8463,81.6811,123.87,103.55,101.181,0.005508,0.53668,20.4253,107.103,0.209335,0.0,0.0
3824,955.75,77.0474,81.7047,115.522,103.564,101.014,0.00541293,0.544101,20.4133,106.393,0.225508,0.0,0.0
3840,959.75,77.7165,82.8329,120.294,103.544,100.167,0.0054845,0.551897,20.4027,105.702,0.299918,0.0,0.0
3856,963.75,78.6304,83.0357,120.126,103.535,100.226,0.00514662,0.554475,20.4006,105.051,0.293844,0.0,0.0
3872,967.75,78.958,83.755,122.651,103.541,100.388,0.0052913,0.550939,20.4006,104.341,0.279787,0.0,0.0
3888,971.75,79.5111,84.0163,119.33,103.55,100.262,0.00580906,0.549775,20.4034,103.64,0.291858,0.0,0.0
3904,975.75,79.9133,84.7473,120.127,103.545,99.7072,0.00577056,0.54805,20.4048,102.96,0.341643,0.0,0.0
3920,979.75,80.3997,84.9156,119.775,103.558,100.207,0.00561975,0.545305,20.4061,102.339,0.297562,0.0,0.0
3936,983.75,80.5535,85.715,120.554,103.559,101.022,0.0056498,0.538119,20.4121,101.689,0.224436,0.0,0.0
3952,987.75,80.7762,85.7427,118.987,103.552,100.768,0.00575388,0.534969,20.4135,101.028,0.246565,0.0,0.0
3968,991.75,81.235,86.1534,119.138,103.571,101.08,0.0056639,0.536837,20.41,100.417,0.220216,0.0,0.0
3984,995.75,80.4511,85.4526,118.864,103.626,100.739,0.00554246,0.533513,20.4119,99.7769,0.255574,0.0,0.0
4000,999.75,81.0686,86.3595,118.311,103.623,100.086,0.00574385,0.532952,20.4144,99.1563,0.314141,0.0,0.0
4016,1003.75,80.6422,86.0782,118.879,103.635,100.839,0.00585794,0.525271,20.4199,98.5758,0.247409,0.0,0.0
4032,1007.75,80.9588,86.5475,120.599,103.649,100.765,0.00619901,0.518984,20.4273,97.9853,0.25523,0.0,0.0
4048,1011.75,80.827,86.7532,120.311,103.658,101.715,0.0061658,0.509516,20.4368,97.4448,0.171226,0.0,0.0
4064,1015.75,80.048,86.0588,122.855,103.682,100.91,0.00631718,0.495281,20.4496,96.8543,0.245108,0.0,0.0
4080,1019.75,80.275,86.0086,124.142,103.667,101.896,0.00614281,0.474462,20.4758,96.3339,0.155864,0.0,0.0
4096,1023.75,80.0442,85.9875,120.749,103.672,102.014,0.00557036,0.458329,20.496,95.8134,0.145812,0.0,0.0
4112,1027.75,79.0986,84.9856,121.701,103.691,102.703,0.00474174,0.434309,20.5227,95.343,0.0866354,0.0,0.0
4128,1031.75,78.2013,84.9344,122.254,103.747,103.307,0.004041,0.410848,20.5509,94.8926,0.0384879,0.0,0.0
4144,1035.75,77.795,83.6976,127.788,103.754,103.731,0.00332921,0.385054,20.5812,94.4622,0.00199788,0.0,0.0
4160,1039.75,76.7779,83.374,127.862,103.774,104.339,0.00302087,0.356273,20.612,94.132,-0.0491563,0.0,0.0
4176,1043.75,75.3175,81.9721,124.006,103.807,104.922,0.0029623,0.328422,20.6512,93.8017,-0.0966187,0.0,0.0
4192,1047.75,74.0711,80.9576,128.652,103.838,104.978,0.00316211,0.298948,20.6834,93.4914,-0.0987845,0.0,0.0
4208,1051.75,72.7154,79.6258,127.863,103.857,105.675,0.00308194,0.271338,20.7202,93.2312,-0.156895,0.0,0.0
4224,1055.75,70.9174,78.3612,132.162,103.881,106.388,0.00286047,0.249397,20.7432,92.9809,-0.215704,0.0,0.0
4240,1059.75,69.7722,76.3357,131.72,103.939,106.487,0.00278431,0.228758,20.7684,92.7607,-0.219058,0.0,0.0
4256,1063.75,68.4894,74.9751,140.914,103.966,106.949,0.0030851,0.21031,20.7864,92.6106,-0.255868,0.0,0.0
4272,1067.75,66.9759,73.8099,132.42,103.995,106.356,0.00330425,0.196604,20.8068,92.4205,-0.203083,0.0,0.0
4288,1071.75,65.6501,73.0218,135.084,104.084,106.635,0.00357425,0.185346,20.8218,92.2903,-0.2191,0.0,0.0
4304,1075.75,64.185,71.473,130.533,104.112,106.969,0.00343928,0.173866,20.8344,92.1702,-0.244886,0.0,0.0
4320,1079.75,63.2345,69.6908,133.94,104.158,106.305,0.00356987,0.165894,20.8447,92.0101,-0.184619,0.0,0.0
4336,1083.75,62.3184,68.2643,135.13,104.235,106.823,0.00350722,0.159664,20.8512,91.9601,-0.221831,0.0,0.0
4352,1087.75,60.8587,67.2207,132.431,104.239,106.614,0.00361407,0.15724,20.8552,91.85,-0.203852,0.0,0.0
4368,1091.75,60.1668,66.2588,128.997,104.265,107.172,0.00401408,0.152177,20.8615,91.7299,-0.248759,0.0,0.0
4384,1095.75,59.2093,64.8952,136.493,104.311,106.91,0.00388512,0.148832,20.8644,91.6198,-0.222638,0.0,0.0
4400,1099.75,58.3047,63.8135,131.463,104.356,107.521,0.00381299,0.145088,20.8693,91.5297,-0.270273,0.0,0.0
4416,1103.75,57.4966,62.8592,130.462,104.406,107.182,0.00386185,0.141784,20.8736,91.3896,-0.237346,0.0,0.0
4432,1107.75,56.6329,62.2053,135.381,104.436,107.331,0.0038468,0.13903,20.8765,91.3495,-0.247277,0.0,0.0
4448,1111.75,55.4685,60.7942,135.661,104.483,106.996,0.00411113,0.136522,20.8802,91.2094,-0.21506,0.0,0.0
4464,1115.75,55.2864,60.4682,137.664,104.51,107.548,0.00414082,0.134223,20.8833,91.1493,-0.25926,0.0,0.0
4480,1119.75,54.2059,59.0356,133.821,104.56,106.709,0.00406752,0.132485,20.8858,90.9792,-0.184043,0.0,0.0
4496,1123.75,54.3063,59.2905,133.663,104.599,107.425,0.00405942,0.130955,20.8878,90.8491,-0.241121,0.0,0.0
4512,1127.75,53.7796,57.916,133.885,104.648,107.198,0.00414582,0.13002,20.8899,90.759,-0.217763,0.0,0.0
4528,1131.75,53.2123,56.934,137.11,104.672,106.578,0.00430905,0.128834,20.8897,90.6789,-0.163179,0.0,0.0
4544,1135.75,52.9523,56.3322,135.324,104.685,106.844,0.00418629,0.127799,20.8905,90.5688,-0.184663,0.0,0.0
4560,1139.75,51.7762,56.2429,133.185,104.727,107.4,0.00412079,0.126764,20.8914,90.5288,-0.227974,0.0,0.0
4576,1143.75,51.9838,55.1932,135.178,104.757,107.337,0.00428298,0.125391,20.8935,90.4087,-0.220122,0.0,0.0
4592,1147.75,51.3889,54.7754,134.959,104.781,106.866,0.00441956,0.124181,20.8953,90.3587,-0.178197,0.0,0.0
4608,1151.75,50.6332,54.3348,139.131,104.798,107.317,0.00422808,0.124106,20.8961,90.2986,-0.214819,0.0,0.0
4624,1155.75,50.2371,53.8154,137.509,104.795,106.77,0.00437142,0.123316,20.8963,90.3386,-0.168829,0.0,0.0
4640,1159.75,50.4217,53.9109,134.172,104.805,106.75,0.00444827,0.1226,20.8978,90.3086,-0.166296,0.0,0.0
4656,1163.75,49.6545,52.6617,134.86,104.801,107.111,0.00418028,0.121103,20.9021,90.1985,-0.197235,0.0,0.0
4672,1167.75,50.0885,52.8818,131.673,104.81,107.079,0.00431468,0.120571,20.9021,90.1185,-0.193715,0.0,0.0
4688,1171.75,49.2604,51.777,131.802,104.831,107.25,0.00419368,0.12032,20.9031,90.0684,-0.206356,0.0,0.0
4704,1175.75,49.1409,51.6593,137.103,104.84,107.231,0.0044114,0.11954,20.9033,89.9683,-0.204019,0.0,0.0
4720,1179.75,49.1712,51.4747,134.53,104.851,106.803,0.00468741,0.119702,20.9033,89.9483,-0.166779,0.0,0.0
4736,1183.75,49.117,51.4472,137.822,104.876,106.565,0.0045308,0.118997,20.9043,89.8682,-0.14452,0.0,0.0
4752,1187.75,48.5338,51.1169,138.711,104.887,106.819,0.00447524,0.117171,20.9066,89.7581,-0.165061,0.0,0.0
4768,1191.75,48.3435,50.8025,135.695,104.873,107.531,0.00434904,0.117114,20.9068,89.638,-0.226406,0.0,0.0
4784,1195.75,47.9585,50.276,134.148,104.866,107.403,0.00434587,0.117826,20.9059,89.588,-0.216169,0.0,0.0
4800,1199.75,47.8992,50.2613,136.523,104.87,106.781,0.00454452,0.116602,20.9064,89.4979,-0.16332,0.0,0.0
4816,1203.75,47.7828,49.7418,138.154,104.868,107.574,0.00459868,0.116214,20.907,89.4479,-0.230486,0.0,0.0
4832,1207.75,47.3246,49.6744,135.039,104.874,107.746,0.004777,0.115679,20.9083,89.3478,-0.244377,0.0,0.0
4848,1211.75,47.2938,49.0934,138.238,104.861,106.404,0.00476407,0.115093,20.908,89.3177,-0.132111,0.0,0.0
4864,1215.75,46.9624,49.3396,136.69,104.865,107.382,0.00474972,0.11575,20.9066,89.2777,-0.214512,0.0,0.0
4880,1219.75,46.9699,48.5012,137.109,104.873,107.386,0.0048483,0.114728,20.9064,89.1977,-0.214213,0.0,0.0
4896,1223.75,46.7309,48.8517,134.1,104.871,107.248,0.00503383,0.114856,20.9099,89.2277,-0.202738,0.0,0.0
4912,1227.75,46.6993,48.4076,136.048,104.854,106.239,0.00490094,0.113934,20.9115,89.1376,-0.118666,0.0,0.0
4928,1231.75,46.4172,48.2462,134.588,104.855,106.826,0.00479483,0.113695,20.9117,89.1276,-0.168462,0.0,0.0
4944,1235.75,46.6136,47.5899,137.628,104.848,106.565,0.00486847,0.113527,20.9125,89.0675,-0.14689,0.0,0.0
4960,1239.75,46.5853,48.181,135.369,104.865,106.5,0.00496969,0.113637,20.9132,89.0475,-0.139975,0.0,0.0
4976,1243.75,46.2298,48.0843,140.149,104.845,106.324,0.00486261,0.112809,20.9132,88.9675,-0.126719,0.0,0.0
4992,1247.75,45.7957,47.8619,134.24,104.85,106.675,0.00481407,0.112316,20.9128,88.9174,-0.156034,0.0,0.0
5008,1251.75,45.9618,48.1657,135.836,104.845,106.002,0.00495852,0.112111,20.9146,88.8473,-0.0993372,0.0,0.0
5024,1255.75,46.1478,47.5866,134.589,104.832,106.86,0.00516004,0.112691,20.9131,88.8173,-0.17327,0.0,0.0
5040,1259.75,45.1274,47.3492,135.407,104.843,106.862,0.00506058,0.111775,20.9146,88.6872,-0.172519,0.0,0.0
5056,1263.75,46.2506,47.5556,136.391,104.831,106.137,0.00504974,0.111253,20.9158,88.7072,-0.112019,0.0,0.0
5072,1267.75,45.5038,47.2897,138.401,104.84,107.088,0.00523216,0.110907,20.9161,88.5271,-0.191836,0.0,0.0
5088,1271.75,45.4472,46.9165,138.367,104.849,106.357,0.00532875,0.111226,20.9171,88.427,-0.129171,0.0,0.0
5104,1275.75,45.0175,46.9438,133.299,104.851,106.339,0.00515869,0.111442,20.9173,88.407,-0.12748,0.0,0.0
5120,1279.75,45.0611,46.8016,138.662,104.849,106.235,0.00510139,0.110697,20.9174,88.3769,-0.11882,0.0,0.0
5136,1283.75,45.0297,46.6111,140.498,104.851,107.239,0.00509274,0.110386,20.9192,88.3269,-0.203702,0.0,0.0
5152,1287.75,45.1573,46.3163,134.836,104.865,106.967,0.00516312,0.110128,20.9196,88.2468,-0.179563,0.0,0.0
5168,1291.75,45.0075,46.2871,139.138,104.874,106.529,0.00529167,0.110374,20.9178,88.2268,-0.141622,0.0,0.0
5184,1295.75,44.9358,46.6659,140.065,104.871,106.187,0.00519277,0.109707,20.9183,88.1868,-0.112802,0.0,0.0
5200,1299.75,45.2378,46.0234,135.386,104.878,107.591,0.00509274,0.109443,20.9184,88.2869,-0.231021,0.0,0.0
5216,1303.75,44.8196,45.7185,134.46,104.869,106.274,0.00505404,0.109728,20.9184,88.1868,-0.120324,0.0,0.0
5232,1307.75,44.4819,46.232,137,104.88,106.891,0.00507831,0.109166,20.9184,88.0867,-0.171752,0.0,0.0
5248,1311.75,44.7803,45.9307,135.366,104.862,106.605,0.00516995,0.10921,20.9184,88.0567,-0.149163,0.0,0.0
5264,1315.75,44.8559,45.6626,132.34,104.869,105.983,0.00535234,0.109581,20.9191,88.0166,-0.0955926,0.0,0.0
5280,1319.75,44.4487,46.1915,138.889,104.878,106.86,0.00543666,0.108308,20.9208,87.9566,-0.169408,0.0,0.0
5296,1323.75,43.7711,45.8214,136.984,104.876,106.351,0.00526794,0.108497,20.9212,87.8965,-0.126395,0.0,0.0
5312,1327.75,44.2562,45.5128,135.636,104.894,107.24,0.00518163,0.108935,20.9219,87.8865,-0.200059,0.0,0.0
5328,1331.75,44.2814,45.4992,136.419,104.869,106.601,0.00511625,0.108028,20.922,87.8265,-0.148227,0.0,0.0
5344,1335.75,43.6914,45.6554,136.709,104.869,106.281,0.00529932,0.108263,20.922,87.7664,-0.120959,0.0,0.0
5360,1339.75,44.1676,45.4555,136.784,104.865,106.744,0.00518708,0.107817,20.922,87.6563,-0.160717,0.0,0.0
5376,1343.75,43.6473,44.903,140.14,104.867,106.149,0.00548106,0.107725,20.922,87.5662,-0.109876,0.0,0.0
5392,1347.75,43.9749,45.385,134.852,104.87,105.802,0.00571026,0.107492,20.922,87.5662,-0.0800398,0.0,0.0
5408,1351.75,43.5822,44.972,136.129,104.866,106.977,0.00572745,0.107597,20.922,87.5062,-0.18028,0.0,0.0
5424,1355.75,43.3039,44.3217,136.156,104.871,106.372,0.00556592,0.107448,20.922,87.4461,-0.128579,0.0,0.0
5440,1359.75,43.7494,44.8695,140.975,104.873,105.882,0.00527011,0.107145,20.923,87.3961,-0.0866343,0.0,0.0
5456,1363.75,43.7557,44.9353,139.652,104.868,106.056,0.00516916,0.106199,20.9241,87.3661,-0.101825,0.0,0.0
5472,1367.75,43.4699,44.7302,144.278,104.878,106.047,0.00536317,0.106344,20.9228,87.316,-0.100308,0.0,0.0
5488,1371.75,43.3714,44.955,136.382,104.873,106.347,0.00547187,0.106743,20.923,87.346,-0.126258,0.0,0.0
5504,1375.75,43.616,44.5635,139.698,104.867,106.397,0.00563325,0.107066,20.9227,87.336,-0.131006,0.0,0.0
5520,1379.75,43.1496,44.7869,143.225,104.87,106.589,0.00546557,0.106237,20.9234,87.296,-0.147087,0.0,0.0
5536,1383.75,43.092,44.2348,139.991,104.864,106.753,0.00545415,0.106552,20.9239,87.2359,-0.161503,0.0,0.0
5552,1387.75,42.8889,44.5993,135.694,104.879,105.943,0.00561274,0.106972,20.9241,87.2059,-0.0912945,0.0,0.0
5568,1391.75,43.1678,44.6726,137.684,104.867,106.546,0.0055171,0.106614,20.9243,87.1459,-0.143665,0.0,0.0
5584,1395.75,42.7098,44.2476,136.413,104.864,106.515,0.00555212,0.106339,20.9256,87.1058,-0.141274,0.0,0.0
5600,1399.75,43.5745,44.2985,137.283,104.861,106.248,0.00540516,0.106038,20.9265,87.1158,-0.118873,0.0,0.0
5616,1403.75,43.1406,44.5754,141.023,104.86,105.793,0.00569206,0.105661,20.9272,87.0258,-0.0801617,0.0,0.0
5632,1407.75,42.577,44.2461,136.023,104.852,106.583,0.00574089,0.105883,20.9269,86.9457,-0.148068,0.0,0.0
5648,1411.75,43.0638,44.1189,134.985,104.842,106.131,0.00590481,0.105653,20.9267,86.8656,-0.110519,0.0,0.0
5664,1415.75,42.5605,44.3043,134.404,104.824,106.902,0.00596585,0.105646,20.9261,86.7555,-0.177548,0.0,0.0
5680,1419.75,42.8089,44.0521,137.583,104.834,106.175,0.00590976,0.105192,20.9259,86.7155,-0.11498,0.0,0.0
5696,1423.75,42.6312,44.4004,137.633,104.813,107.407,0.00601219,0.105655,20.9259,86.6654,-0.22108,0.0,0.0
5712,1427.75,42.5821,44.174,138.399,104.815,106.284,0.00598178,0.105845,20.9259,86.6454,-0.1259,0.0,0.0
5728,1431.75,42.4182,44.2307,138.164,104.809,106.22,0.00595099,0.105546,20.9241,86.5854,-0.121018,0.0,0.0
5744,1435.75,42.7981,43.5614,139.464,104.816,106.553,0.00572799,0.105058,20.9238,86.5554,-0.148598,0.0,0.0
5760,1439.75,42.7589,43.9901,135.633,104.818,106.547,0.00563082,0.105061,20.9254,86.5954,-0.148014,0.0,0.0
5776,1443.75,42.8026,44.0874,135.161,104.809,106.057,0.00564327,0.104575,20.9259,86.5854,-0.107085,0.0,0.0
5792,1447.75,42.5435,44.1325,136.423,104.805,106.326,0.00584928,0.105356,20.926,86.5353,-0.130345,0.0,0.0
5808,1451.75,42.6921,43.5613,139.666,104.801,106.702,0.00610357,0.104823,20.9264,86.5253,-0.162595,0.0,0.0
5824,1455.75,42.2224,44.1217,139.153,104.794,107.033,0.00619811,0.105139,20.927,86.4553,-0.19128,0.0,0.0
5840,1459.75,42.7579,44.4657,133.361,104.784,105.397,0.00601775,0.104742,20.9271,86.4352,-0.0527722,0.0,0.0
5856,1463.75,42.3924,43.4586,135.874,104.783,105.458,0.00621216,0.104504,20.9271,86.3852,-0.0580808,0.0,0.0
5872,1467.75,42.0813,43.6765,138.124,104.767,106.228,0.00615011,0.104924,20.9271,86.3552,-0.125265,0.0,0.0
5888,1471.75,42.0903,43.6842,140.332,104.753,106.079,0.00601348,0.104554,20.9271,86.2751,-0.113808,0.0,0.0
5904,1475.75,42.116,43.6547,137.107,104.73,105.628,0.00608419,0.10456,20.9255,86.2351,-0.0771726,0.0,0.0
5920,1479.75,41.613,43.8378,136.71,104.716,106.358,0.00612808,0.104172,20.9261,86.165,-0.140743,0.0,0.0
5936,1483.75,41.6039,43.565,139.348,104.737,106.452,0.00612964,0.104463,20.9255,86.0849,-0.146913,0.0,0.0
5952,1487.75,41.4849,43.4074,135.99,104.67,106.424,0.00625651,0.103538,20.9262,86.0449,-0.150383,0.0,0.0
5968,1491.75,41.9475,43.2748,138.199,104.668,105.467,0.00630307,0.103549,20.9258,85.9949,-0.0687323,0.0,0.0
5984,1495.75,41.8048,43.4244,138.089,104.668,105.776,0.00627784,0.103749,20.9256,85.9548,-0.0952548,0.0,0.0
6000,1499.75,41.7028,43.0766,138.941,104.638,105.703,0.0063641,0.104084,20.9284,85.9248,-0.0915924,0.0,0.0
6016,1503.75,42.001,43.0435,138.043,104.615,106.279,0.00606328,0.104115,20.9283,85.9048,-0.142696,0.0,0.0
6032,1507.75,41.4591,42.8405,135.616,104.611,105.39,0.00574668,0.103727,20.9284,85.8748,-0.0671841,0.0,0.0
6048,1511.75,41.9951,42.896,134.951,104.617,105.343,0.00602251,0.103617,20.9292,85.8848,-0.0625613,0.0,0.0
6064,1515.75,41.6787,43.4608,138.269,104.575,106.044,0.0061098,0.10362,20.9294,85.8547,-0.126204,0.0,0.0
6080,1519.75,41.78,42.8123,133.808,104.569,105.668,0.00619572,0.103379,20.9297,85.8247,-0.0945607,0.0,0.0
6096,1523.75,41.6174,43.1851,136.005,104.525,106.021,0.00627362,0.103592,20.9284,85.8047,-0.128531,0.0,0.0
6112,1527.75,41.1332,42.9177,139.723,104.498,106.004,0.00633888,0.103837,20.9282,85.7146,-0.129406,0.0,0.0
6128,1531.75,41.6834,43.3866,139.642,104.446,105.565,0.00659259,0.104412,20.9254,85.7146,-0.0963898,0.0,0.0
6144,1535.75,41.8173,43.1387,134.375,104.39,105.751,0.00656016,0.103886,20.9259,85.6746,-0.117169,0.0,0.0
6160,1539.75,41.5325,43.3133,137.846,104.333,105.298,0.00622392,0.102804,20.9284,85.6646,-0.0832709,0.0,0.0
6176,1543.75,41.4379,42.5062,141.238,104.296,105.672,0.00627264,0.102474,20.9285,85.5745,-0.118568,0.0,0.0
6192,1547.75,41.8167,43.1441,139.133,104.251,105.348,0.00611846,0.102834,20.9281,85.5645,-0.0946985,0.0,0.0
6208,1551.75,41.0554,42.7818,136.367,104.211,105.302,0.00619427,0.102829,20.9295,85.4944,-0.0941864,0.0,0.0
6224,1555.75,41.3927,42.9726,138.676,104.192,105.758,0.00624715,0.103093,20.9297,85.4744,-0.134959,0.0,0.0
6240,1559.75,41.2653,43.0555,137.257,104.163,105.367,0.00634999,0.103145,20.928,85.3443,-0.103932,0.0,0.0
6256,1563.75,41.283,43.1642,141.042,104.119,105.612,0.00642887,0.102851,20.9295,85.3243,-0.128758,0.0,0.0
6272,1567.75,41.467,43.0528,136.066,104.115,105.297,0.00654729,0.102912,20.9302,85.2742,-0.102078,0.0,0.0
6288,1571.75,41.4471,42.8405,138.615,104.091,105.329,0.00640432,0.102379,20.9304,85.2242,-0.106931,0.0,0.0
6304,1575.75,41.0724,42.6318,138.283,104.057,105.554,0.00644378,0.102703,20.9295,85.1942,-0.129209,0.0,0.0
6320,1579.75,41.0973,42.6939,136.561,104.05,105.622,0.0064834,0.10287,20.9284,85.1241,-0.13566,0.0,0.0
6336,1583.75,40.863,42.712,137.002,104.038,105.571,0.0066278,0.103189,20.9284,85.1141,-0.132295,0.0,0.0
6352,1587.75,40.9582,43.2454,136.187,104.046,105.322,0.00643291,0.102848,20.9301,85.1141,-0.110225,0.0,0.0
6368,1591.75,40.9001,42.6998,135.273,104.016,105.352,0.00637143,0.103038,20.9285,85.1341,-0.115434,0.0,0.0
6384,1595.75,41.0774,43.0946,139.606,104.004,105.439,0.00654405,0.102842,20.9293,85.1041,-0.123972,0.0,0.0
6400,1599.75,41.1075,42.9203,139.095,103.999,106.094,0.00679329,0.10293,20.9294,85.0841,-0.180419,0.0,0.0
6416,1603.75,40.9717,42.7087,138.689,103.985,104.787,0.00681216,0.102549,20.9294,85.044,-0.0695119,0.0,0.0
6432,1607.75,41.012,42.379,138.283,103.959,104.662,0.00698108,0.103021,20.9294,85.014,-0.0608964,0.0,0.0
6448,1611.75,41.224,42.7057,140.25,103.938,104.907,0.00695444,0.102338,20.9302,84.964,-0.0839614,0.0,0.0
6464,1615.75,41.281,42.7104,138.371,103.906,104.61,0.0067283,0.102085,20.9317,84.9139,-0.0610652,0.0,0.0
6480,1619.75,41.073,42.373,139.914,103.895,104.477,0.00707274,0.101961,20.9312,84.9039,-0.0505301,0.0,0.0
6496,1623.75,40.9698,42.5368,136.972,103.891,104.898,0.00702998,0.102,20.9311,84.8539,-0.0872418,0.0,0.0
6512,1627.75,40.9789,42.4803,137.782,103.887,104.97,0.00683305,0.102006,20.9311,84.7238,-0.0937996,0.0,0.0
6528,1631.75,40.9396,42.5037,137.882,103.863,104.917,0.00700162,0.102058,20.9311,84.6737,-0.0912803,0.0,0.0
6544,1635.75,40.9975,42.3244,138.827,103.826,105.211,0.00698186,0.101963,20.9303,84.6337,-0.11986,0.0,0.0
6560,1639.75,40.9753,42.5856,135.448,103.82,104.465,0.00695882,0.101817,20.9295,84.5936,-0.0559968,0.0,0.0
6576,1643.75,41.144,42.6036,141.171,103.808,104.6,0.00697405,0.101496,20.9289,84.5536,-0.0687524,0.0,0.0
6592,1647.75,40.5874,42.2879,138.143,103.775,104.801,0.0070803,0.101344,20.9288,84.5436,-0.089009,0.0,0.0
6608,1651.75,41.0576,42.65,136.908,103.734,104.655,0.00707498,0.101653,20.9288,84.4936,-0.0799582,0.0,0.0
6624,1655.75,41.0623,42.6234,137.294,103.728,105.433,0.00697552,0.101536,20.9306,84.4635,-0.147527,0.0,0.0
6640,1659.75,40.7341,42.7536,137.012,103.725,104.603,0.00692697,0.101429,20.9324,84.4035,-0.0762591,0.0,0.0
6656,1663.75,41.0789,42.7102,139.679,103.727,104.031,0.00703426,0.101089,20.9338,84.4836,-0.0264755,0.0,0.0
6672,1667.75,40.77,42.3794,137.55,103.727,105.176,0.00711225,0.101514,20.934,84.4535,-0.125477,0.0,0.0
6688,1671.75,41.2462,42.0419,139.17,103.713,105.06,0.00716327,0.101571,20.9323,84.4435,-0.116713,0.0,0.0
6704,1675.75,40.9996,42.4252,139.23,103.716,104.704,0.00721667,0.101257,20.9325,84.3735,-0.0857656,0.0,0.0
6720,1679.75,40.8237,42.339,140.318,103.728,104.14,0.0072002,0.101175,20.932,84.3434,-0.0358372,0.0,0.0
6736,1683.75,40.8073,42.6583,135.494,103.76,103.988,0.00696316,0.102192,20.9327,84.2934,-0.0198383,0.0,0.0
6752,1687.75,40.8872,42.483,135.535,103.794,104.743,0.00700369,0.101515,20.9334,84.2433,-0.082292,0.0,0.0
6768,1691.75,40.4271,42.4994,135.827,103.866,105.545,0.00725884,0.100706,20.9346,84.2333,-0.145069,0.0,0.0
6784,1695.75,40.9139,42.5887,137.94,103.959,105.472,0.00733889,0.101083,20.9334,84.1733,-0.130669,0.0,0.0
6800,1699.75,40.7521,42.5585,139.458,104.087,104.435,0.0075821,0.10064,20.9331,84.1332,-0.0302501,0.0,0.0
6816,1703.75,40.5302,42.7412,137.786,104.245,105.445,0.00736391,0.10145,20.9313,84.0331,-0.10353,0.0,0.0
6832,1707.75,40.1085,42.3276,139.347,104.422,105.176,0.00735473,0.101568,20.9314,83.9731,-0.0650867,0.0,0.0
6848,1711.75,40.6166,42.4783,140.691,104.589,105.137,0.00739168,0.101442,20.932,83.903,-0.0472348,0.0,0.0
6864,1715.75,40.9434,42.3929,140.779,104.74,105.508,0.00741132,0.10183,20.9334,83.873,-0.0660799,0.0,0.0
6880,1719.75,40.6133,42.7583,133.336,104.846,105.14,0.00755006,0.101029,20.9349,83.813,-0.0253947,0.0,0.0
6896,1723.75,40.7997,42.1136,139.341,104.911,106.201,0.00752185,0.100779,20.9359,83.803,-0.110569,0.0,0.0
6912,1727.75,40.5867,42.0993,138.769,104.913,106.209,0.00768963,0.100809,20.9341,83.7629,-0.111061,0.0,0.0
6928,1731.75,40.425,42.2587,140.343,104.865,105.772,0.00787048,0.100247,20.9333,83.7429,-0.0779676,0.0,0.0
6944,1735.75,40.4881,42.526,137.777,104.798,106.391,0.00806878,0.100984,20.9331,83.7329,-0.136472,0.0,0.0
6960,1739.75,40.3326,42.3769,141.238,104.723,105.462,0.00809723,0.100935,20.9331,83.7229,-0.0636222,0.0,0.0
6976,1743.75,40.8572,42.2189,136.345,104.644,104.782,0.00791803,0.100061,20.9349,83.7229,-0.0119345,0.0,0.0
6992,1747.75,39.2225,40.9259,136.864,104.573,105.082,0.00784608,0.0999379,20.9353,83.6728,-0.0438578,0.0,0.0
7008,1751.75,38.6309,40.12,136.408,104.513,105.328,0.00767415,0.0999304,20.9361,83.6528,-0.0703079,0.0,0.0
7024,1755.75,38.5804,41.0723,137.908,104.66,105.047,0.00782106,0.100059,20.9357,83.6228,-0.0333627,0.0,0.0
7040,1759.75,38.8924,40.0468,139.625,104.999,106.833,0.00795771,0.100514,20.9349,83.5728,-0.156702,0.0,0.0
7056,1763.75,38.7877,40.8154,137.91,105.25,106.046,0.00799522,0.100178,20.9348,83.5627,-0.0681673,0.0,0.0
7072,1767.75,39.0709,40.279,134.843,105.363,106.274,0.007713,0.100066,20.9348,83.5227,-0.0778088,0.0,0.0
7088,1771.75,38.6135,40.4431,135.995,105.365,105.863,0.00765782,0.100351,20.9348,83.4727,-0.0426335,0.0,0.0
7104,1775.75,38.7875,40.7434,141.285,105.228,105.943,0.00780882,0.0999123,20.9343,83.4226,-0.0611993,0.0,0.0
7120,1779.75,38.4328,40.7027,138.183,104.876,106.084,0.00804511,0.0995174,20.9341,83.3426,-0.103555,0.0,0.0
7136,1783.75,38.8438,40.4253,140.218,104.945,106.353,0.00801496,0.100104,20.9325,83.2625,-0.120577,0.0,0.0
7152,1787.75,38.9725,40.2777,135.6,105.178,106.508,0.00774667,0.10014,20.9338,83.2124,-0.113673,0.0,0.0
7168,1791.75,39.291,40.1481,142.207,105.412,106.09,0.00782208,0.0999502,20.936,83.1924,-0.0580076,0.0,0.0
7184,1795.75,39.1052,40.6655,137.399,105.608,107.218,0.00790243,0.0997996,20.9364,83.1524,-0.136831,0.0,0.0
7200,1799.75,38.5811,40.6555,134.132,105.681,107.025,0.0078324,0.0991673,20.9357,83.1124,-0.114284,0.0,0.0
7216,1803.75,38.7586,40.6894,134.594,105.611,106.925,0.00795762,0.09936,20.9352,83.0723,-0.11186,0.0,0.0
7232,1807.75,38.9599,40.7471,138.628,105.359,106.803,0.00796974,0.0996079,20.9335,83.0523,-0.123095,0.0,0.0
7248,1811.75,39.2663,40.2921,140.302,104.961,106.985,0.00778758,0.0992448,20.9348,83.0423,-0.17279,0.0,0.0
7264,1815.75,38.5525,40.5836,138.163,104.509,105.866,0.00812787,0.0994419,20.9334,83.0623,-0.116722,0.0,0.0
7280,1819.75,38.9057,41.0554,137.077,104.083,105.805,0.00827162,0.0991098,20.9332,83.0423,-0.148377,0.0,0.0
7296,1823.75,38.6744,40.7559,137.223,103.759,105.027,0.00797555,0.0994685,20.9338,83.0023,-0.109848,0.0,0.0
7312,1827.75,38.8848,41.2388,136.226,103.591,104.366,0.00776468,0.0989622,20.9351,82.9822,-0.0674259,0.0,0.0
7328,1831.75,39.0562,40.6925,135.022,103.655,105.07,0.00807846,0.0984689,20.9357,82.9522,-0.12261,0.0,0.0
7344,1835.75,38.943,40.5511,137.555,103.888,105.677,0.00802816,0.099085,20.9358,82.9222,-0.154485,0.0,0.0
7360,1839.75,38.8296,40.5842,138.333,104.22,105.59,0.00803776,0.0994509,20.9339,82.8922,-0.118185,0.0,0.0
7376,1843.75,38.6778,40.8595,137.296,104.532,105.396,0.00810334,0.0994171,20.9349,82.8521,-0.074427,0.0,0.0
7392,1847.75,39.193,40.6411,137.878,104.794,106.592,0.00822561,0.099107,20.9359,82.752,-0.153815,0.0,0.0
7408,1851.75,38.9292,41.143,138.524,104.952,106.264,0.00840156,0.0990444,20.936,82.672,-0.112386,0.0,0.0
7424,1855.75,38.4911,40.9937,137.534,104.957,106.036,,0.0989118,,82.6219,-0.0925402,0.0,0.0
7440,1859.75,38.9973,40.8934,138.487,104.827,106.238,,,,82.6019,-0.120994,0.0,0.0
7456,1863.75,38.8288,40.7548,139.72,104.639,106.587,,,,82.5819,-0.166815,0.0,0.0
7467,1866.5,39.2214,40.7785,135.304,104.527,105.696,,,,82.6319,-0.100532,0.0,0.0