File: 01_Data/Fiberglas_Insulation3A/MCC/Fiberglas_Insulation3A_MCC_30K_min_220221_R3.txt
Sample ID:	C:\MCC\MCC Cal\Test\Fiberglas_Insulation3A_MCC_30K_min_220221_R3.txt
Sample Weight (mg):	4.46
Heating Rate (C/s):	0.5
Combustor Temp (C):	900
N2 Flow Rate (cc/min):	80
O2 Flow Rate (cc/min):	20
Calibration File:	C:\MCC\MCC Cal\Coeff1 JN10440_30_210304.txt.txt
T Correction Coefficients:	0	1.024463	0
Time Shift (s):	14
*
Time (s)	Temperature (C)	N2 flow rate (cc/min)	O2 flow rate (cc/min)	Flow Rate (cc/min)	Oxygen (%)	HRR (W/g)	Heating rate (C/s)
-0.001	114.143	80.009	19.994	103.667	19.896	-0.139	-0.022
1.500	114.107	80.009	19.994	103.666	19.896	-0.163	-0.016
3.000	114.120	80.009	19.993	103.668	19.895	-0.110	-0.008
4.500	114.110	80.010	19.993	103.669	19.894	0.000	-0.011
6.000	114.122	80.010	19.993	103.665	19.894	0.008	-0.002
7.500	114.118	80.009	19.994	103.665	19.892	0.098	0.007
9.000	114.110	80.009	19.993	103.671	19.892	0.084	0.003
10.500	114.135	80.009	19.993	103.695	19.893	0.014	0.004
12.000	114.096	80.010	19.993	103.713	19.885	0.601	-0.030
13.500	114.127	80.009	19.993	103.731	19.885	0.593	0.001
15.000	114.185	80.007	19.992	103.738	19.886	0.589	0.051
16.500	114.214	80.007	19.993	103.740	19.883	0.772	0.038
18.000	114.240	80.008	19.993	103.748	19.881	0.890	0.011
19.500	114.296	80.009	19.994	103.758	19.879	1.071	0.033
21.000	114.324	80.009	19.992	103.777	19.879	1.041	0.041
22.500	114.425	80.010	19.993	103.776	19.880	1.008	0.053
24.000	114.549	80.010	19.993	103.786	19.877	1.215	0.082
25.500	114.630	80.011	19.994	103.790	19.877	1.236	0.067
27.000	114.747	80.010	19.993	103.796	19.873	1.501	0.062
28.500	114.855	80.009	19.993	103.803	19.874	1.452	0.068
30.000	115.006	80.010	19.992	103.809	19.872	1.565	0.097
31.500	115.143	80.010	19.993	103.816	19.869	1.795	0.098
32.999	115.300	80.008	19.992	103.823	19.869	1.777	0.124
34.501	115.497	80.008	19.993	103.840	19.868	1.864	0.102
35.999	115.691	80.009	19.993	103.856	19.863	2.240	0.130
37.499	115.885	80.007	19.993	103.845	19.869	1.789	0.141
38.999	116.136	80.008	19.992	103.844	19.865	2.106	0.159
40.499	116.318	80.006	19.992	103.864	19.865	2.098	0.122
41.999	116.608	80.007	19.993	103.869	19.862	2.279	0.208
43.499	116.876	80.008	19.993	103.871	19.864	2.185	0.185
44.999	117.153	80.007	19.993	103.880	19.861	2.401	0.203
46.499	117.446	80.006	19.994	103.898	19.860	2.433	0.211
47.999	117.780	80.008	19.993	103.907	19.860	2.419	0.222
49.499	118.090	80.008	19.993	103.908	19.858	2.572	0.202
50.999	118.492	80.007	19.993	103.911	19.857	2.663	0.256
52.499	118.842	80.009	19.993	103.908	19.858	2.565	0.222
53.999	119.209	80.007	19.993	103.907	19.859	2.539	0.239
55.499	119.602	80.008	19.993	103.905	19.854	2.868	0.261
56.999	119.989	80.008	19.993	103.908	19.854	2.864	0.265
58.499	120.407	80.007	19.993	103.913	19.855	2.785	0.266
60.000	120.876	80.007	19.994	103.911	19.854	2.850	0.292
61.499	121.276	80.004	19.993	103.915	19.855	2.809	0.273
62.999	121.722	80.008	19.993	103.932	19.851	3.128	0.292
64.499	122.240	80.007	19.994	103.933	19.851	3.080	0.323
66.000	122.722	80.006	19.992	103.934	19.852	3.047	0.336
67.499	123.172	80.004	19.994	103.938	19.855	2.815	0.303
68.999	123.719	80.006	19.994	103.943	19.852	3.033	0.351
70.499	124.202	80.007	19.993	103.937	19.854	2.917	0.307
71.999	124.749	80.007	19.995	103.932	19.853	2.935	0.388
73.500	125.272	80.006	19.993	103.934	19.854	2.892	0.355
74.999	125.829	80.005	19.995	103.940	19.854	2.868	0.386
76.499	126.389	80.008	19.994	103.944	19.856	2.717	0.390
77.999	126.933	80.007	19.993	103.940	19.853	2.949	0.371
79.499	127.531	80.008	19.996	103.940	19.852	3.023	0.415
80.999	128.088	80.006	19.995	103.940	19.856	2.732	0.370
82.500	128.684	80.007	19.995	103.941	19.856	2.738	0.414
83.999	129.315	80.007	19.994	103.939	19.851	3.084	0.423
85.499	129.945	80.008	19.995	103.936	19.854	2.886	0.401
87.000	130.550	80.008	19.994	103.938	19.854	2.876	0.404
88.499	131.168	80.008	19.994	103.939	19.854	2.895	0.409
89.999	131.820	80.009	19.994	103.935	19.852	3.025	0.439
91.499	132.436	80.008	19.994	103.938	19.850	3.185	0.412
92.999	133.101	80.008	19.994	103.938	19.853	2.947	0.450
94.499	133.752	80.009	19.994	103.929	19.853	2.919	0.440
96.000	134.405	80.010	19.992	103.940	19.851	3.090	0.436
97.499	135.063	80.007	19.993	103.939	19.849	3.259	0.445
98.999	135.753	80.010	19.993	103.938	19.849	3.273	0.490
100.499	136.413	80.008	19.992	103.935	19.848	3.324	0.435
101.999	137.100	80.010	19.993	103.940	19.850	3.161	0.450
103.499	137.818	80.010	19.993	103.944	19.850	3.185	0.455
104.999	138.470	80.011	19.992	103.944	19.851	3.116	0.444
106.499	139.206	80.009	19.993	103.942	19.847	3.366	0.488
107.999	139.904	80.011	19.993	103.940	19.851	3.072	0.447
109.500	140.616	80.011	19.992	103.932	19.849	3.224	0.503
110.999	141.376	80.010	19.992	103.940	19.848	3.326	0.478
112.499	142.006	80.009	19.993	103.945	19.850	3.159	0.421
114.000	142.759	80.009	19.994	103.941	19.853	2.978	0.488
115.499	143.509	80.008	19.993	103.935	19.854	2.852	0.501
117.000	144.221	80.008	19.993	103.938	19.851	3.127	0.479
118.499	144.958	80.007	19.993	103.938	19.851	3.096	0.503
119.999	145.684	80.008	19.993	103.934	19.855	2.828	0.481
121.499	146.407	80.007	19.992	103.937	19.852	2.999	0.506
122.999	147.151	80.007	19.992	103.941	19.854	2.850	0.491
124.499	147.920	80.006	19.993	103.946	19.854	2.913	0.513
126.001	148.694	80.005	19.993	103.938	19.856	2.769	0.518
127.499	149.466	80.008	19.992	103.930	19.854	2.903	0.517
129.000	150.226	80.006	19.994	103.921	19.850	3.145	0.496
130.500	150.939	80.008	19.992	103.923	19.849	3.243	0.486
132.000	151.722	80.006	19.992	103.921	19.851	3.099	0.523
133.500	152.522	80.009	19.993	103.930	19.853	2.958	0.519
135.000	153.239	80.009	19.991	103.928	19.855	2.814	0.473
136.500	153.996	80.007	19.993	103.912	19.854	2.908	0.512
138.000	154.725	80.005	19.993	103.920	19.856	2.718	0.491
139.500	155.503	80.007	19.993	103.931	19.857	2.692	0.524
141.000	156.245	80.007	19.993	103.921	19.858	2.578	0.502
142.500	156.989	80.006	19.994	103.906	19.858	2.602	0.492
144.000	157.755	80.007	19.994	103.906	19.858	2.556	0.486
145.500	158.488	80.007	19.993	103.913	19.863	2.216	0.503
147.000	159.292	80.008	19.993	103.909	19.863	2.244	0.524
148.500	160.013	80.007	19.994	103.905	19.862	2.305	0.485
150.000	160.821	80.007	19.993	103.909	19.860	2.444	0.548
151.500	161.612	80.006	19.994	103.913	19.860	2.472	0.523
153.000	162.377	80.007	19.994	103.909	19.861	2.395	0.516
154.500	163.132	80.008	19.994	103.902	19.859	2.552	0.491
156.000	163.920	80.009	19.993	103.902	19.860	2.450	0.530
157.500	164.734	80.008	19.993	103.903	19.859	2.540	0.547
159.000	165.505	80.010	19.993	103.905	19.860	2.479	0.533
160.500	166.248	80.008	19.993	103.898	19.864	2.171	0.502
162.000	167.031	80.009	19.992	103.899	19.859	2.546	0.508
163.500	167.782	80.009	19.993	103.901	19.863	2.253	0.497
165.000	168.514	80.008	19.994	103.903	19.859	2.534	0.481
166.500	169.273	80.009	19.993	103.896	19.862	2.334	0.504
168.000	170.053	80.007	19.992	103.898	19.863	2.200	0.505
169.500	170.808	80.007	19.994	103.888	19.863	2.204	0.514
171.000	171.551	80.007	19.993	103.891	19.861	2.359	0.516
172.500	172.267	80.006	19.993	103.895	19.860	2.408	0.479
174.000	173.059	80.007	19.994	103.896	19.858	2.566	0.521
175.500	173.801	80.010	19.994	103.893	19.860	2.416	0.507
177.000	174.570	80.007	19.994	103.883	19.862	2.312	0.504
178.500	175.354	80.010	19.995	103.888	19.864	2.186	0.508
180.000	176.082	80.007	19.994	103.885	19.862	2.268	0.496
181.500	176.809	80.007	19.993	103.877	19.862	2.288	0.491
183.000	177.556	80.007	19.993	103.885	19.860	2.442	0.499
184.500	178.342	80.009	19.993	103.896	19.864	2.125	0.506
186.000	179.062	80.009	19.993	103.896	19.864	2.158	0.493
187.500	179.828	80.010	19.992	103.889	19.863	2.204	0.515
189.000	180.570	80.010	19.991	103.881	19.865	2.113	0.479
190.500	181.298	80.010	19.993	103.871	19.862	2.318	0.497
192.000	182.116	80.009	19.992	103.873	19.862	2.286	0.542
193.500	182.783	80.011	19.992	103.877	19.862	2.290	0.460
195.000	183.553	80.009	19.992	103.871	19.862	2.296	0.498
196.500	184.294	80.009	19.993	103.872	19.860	2.428	0.503
198.000	185.027	80.006	19.994	103.871	19.859	2.487	0.487
199.500	185.791	80.008	19.994	103.872	19.860	2.455	0.545
201.000	186.558	80.010	19.993	103.870	19.859	2.540	0.524
202.500	187.275	80.008	19.993	103.867	19.859	2.534	0.484
204.000	188.023	80.007	19.992	103.867	19.861	2.351	0.488
205.500	188.761	80.005	19.993	103.866	19.853	2.956	0.483
207.000	189.485	80.009	19.992	103.866	19.857	2.693	0.482
208.500	190.224	80.006	19.993	103.867	19.857	2.681	0.498
210.000	190.972	80.009	19.992	103.868	19.860	2.439	0.507
211.500	191.703	80.007	19.992	103.865	19.857	2.693	0.494
213.000	192.445	80.007	19.993	103.870	19.858	2.622	0.493
214.500	193.214	80.009	19.993	103.870	19.857	2.677	0.505
216.000	193.893	80.008	19.992	103.868	19.858	2.622	0.462
217.500	194.659	80.007	19.993	103.866	19.858	2.591	0.516
219.000	195.379	80.007	19.992	103.871	19.857	2.634	0.490
220.500	196.081	80.009	19.992	103.869	19.854	2.905	0.487
222.000	196.836	80.010	19.993	103.863	19.857	2.695	0.471
223.500	197.563	80.009	19.993	103.867	19.854	2.858	0.494
225.000	198.290	80.008	19.993	103.867	19.856	2.764	0.474
226.500	199.065	80.007	19.993	103.867	19.854	2.890	0.517
228.000	199.764	80.009	19.992	103.867	19.855	2.799	0.450
229.500	200.497	80.008	19.992	103.868	19.851	3.108	0.509
231.000	201.230	80.008	19.992	103.862	19.850	3.184	0.496
232.500	201.940	80.009	19.992	103.861	19.851	3.122	0.466
234.000	202.669	80.006	19.992	103.870	19.853	2.986	0.448
235.500	203.425	80.009	19.993	103.869	19.852	3.057	0.504
237.000	204.156	80.010	19.993	103.867	19.851	3.133	0.459
238.500	204.882	80.010	19.993	103.869	19.849	3.237	0.477
240.000	205.613	80.010	19.993	103.867	19.850	3.157	0.493
241.500	206.336	80.010	19.993	103.865	19.847	3.409	0.476
243.000	207.084	80.008	19.993	103.869	19.851	3.112	0.491
244.500	207.806	80.007	19.993	103.872	19.846	3.426	0.519
246.000	208.567	80.009	19.994	103.867	19.849	3.238	0.484
247.500	209.292	80.007	19.993	103.865	19.845	3.515	0.472
249.000	210.018	80.005	19.993	103.862	19.848	3.334	0.484
250.500	210.836	80.007	19.994	103.860	19.848	3.280	0.546
252.000	211.522	80.005	19.992	103.865	19.846	3.465	0.445
253.500	212.258	80.008	19.992	103.870	19.844	3.587	0.498
255.000	212.989	80.007	19.993	103.869	19.844	3.577	0.474
256.500	213.724	80.008	19.992	103.870	19.843	3.693	0.478
258.000	214.446	80.008	19.993	103.867	19.843	3.685	0.470
259.500	215.200	80.009	19.994	103.868	19.843	3.657	0.507
261.000	215.965	80.008	19.993	103.853	19.843	3.671	0.491
262.500	216.652	80.007	19.994	103.857	19.841	3.836	0.465
264.000	217.420	80.009	19.992	103.862	19.842	3.760	0.499
265.500	218.199	80.008	19.994	103.862	19.839	3.993	0.507
267.000	218.886	80.010	19.993	103.860	19.840	3.911	0.474
268.500	219.636	80.008	19.993	103.854	19.839	3.946	0.518
270.000	220.383	80.009	19.993	103.845	19.841	3.846	0.490
271.500	221.120	80.009	19.994	103.853	19.839	3.968	0.507
273.000	221.850	80.010	19.993	103.851	19.837	4.102	0.496
274.500	222.643	80.007	19.994	103.851	19.839	3.966	0.534
276.000	223.338	80.008	19.994	103.844	19.835	4.262	0.448
277.500	224.064	80.006	19.993	103.839	19.834	4.347	0.500
279.000	224.811	80.009	19.993	103.849	19.832	4.452	0.502
280.500	225.605	80.008	19.994	103.850	19.831	4.534	0.542
282.000	226.317	80.007	19.994	103.850	19.831	4.572	0.486
283.500	227.077	80.009	19.994	103.846	19.831	4.562	0.514
285.000	227.792	80.008	19.993	103.850	19.830	4.613	0.500
286.500	228.598	80.008	19.994	103.843	19.827	4.805	0.521
288.000	229.359	80.004	19.994	103.842	19.827	4.856	0.530
289.500	230.093	80.009	19.993	103.856	19.826	4.886	0.532
291.000	230.856	80.008	19.993	103.848	19.823	5.141	0.499
292.500	231.579	80.007	19.993	103.852	19.826	4.935	0.503
294.000	232.326	80.005	19.993	103.858	19.821	5.285	0.488
295.500	233.073	80.007	19.994	103.858	19.821	5.243	0.480
297.000	233.862	80.006	19.992	103.854	19.820	5.386	0.523
298.500	234.619	80.006	19.993	103.844	19.815	5.696	0.491
300.000	235.307	80.007	19.993	103.853	19.817	5.576	0.456
301.500	236.025	80.009	19.992	103.848	19.815	5.708	0.499
303.000	236.806	80.008	19.993	103.846	19.813	5.861	0.508
304.500	237.533	80.008	19.994	103.855	19.814	5.761	0.510
306.000	238.317	80.009	19.993	103.845	19.809	6.156	0.519
307.500	239.046	80.007	19.993	103.857	19.810	6.089	0.478
309.000	239.771	80.009	19.993	103.862	19.807	6.288	0.474
310.500	240.525	80.005	19.994	103.848	19.808	6.229	0.526
312.000	241.252	80.007	19.993	103.855	19.803	6.563	0.493
313.500	242.033	80.005	19.992	103.863	19.806	6.358	0.521
315.000	242.770	80.008	19.993	103.857	19.804	6.502	0.502
316.500	243.535	80.009	19.992	103.852	19.804	6.500	0.519
318.000	244.286	80.007	19.992	103.861	19.804	6.523	0.472
319.500	245.004	80.010	19.993	103.863	19.800	6.788	0.492
321.000	245.811	80.008	19.993	103.859	19.799	6.903	0.531
322.500	246.575	80.009	19.992	103.863	19.798	6.933	0.514
324.000	247.336	80.010	19.993	103.854	19.797	6.994	0.518
325.500	248.063	80.009	19.993	103.863	19.796	7.113	0.502
327.000	248.866	80.011	19.993	103.865	19.795	7.183	0.518
328.500	249.601	80.010	19.992	103.855	19.795	7.189	0.517
330.000	250.423	80.010	19.993	103.841	19.792	7.369	0.542
331.500	251.181	80.009	19.992	103.853	19.792	7.349	0.503
333.000	251.919	80.009	19.992	103.844	19.790	7.532	0.469
334.500	252.683	80.008	19.993	103.842	19.783	8.052	0.507
336.000	253.398	80.009	19.995	103.850	19.783	8.035	0.485
337.500	254.180	80.008	19.993	103.850	19.782	8.120	0.502
339.000	254.949	80.008	19.993	103.848	19.782	8.082	0.522
340.500	255.706	80.010	19.994	103.858	19.782	8.082	0.501
342.000	256.495	80.010	19.993	103.860	19.784	7.962	0.532
343.500	257.248	80.009	19.994	103.862	19.780	8.274	0.516
345.000	257.974	80.011	19.994	103.857	19.778	8.401	0.520
346.500	258.778	80.010	19.992	103.854	19.775	8.630	0.528
348.000	259.492	80.010	19.993	103.861	19.775	8.620	0.505
349.500	260.224	80.009	19.993	103.861	19.774	8.720	0.482
351.000	260.990	80.010	19.993	103.861	19.771	8.925	0.537
352.500	261.772	80.010	19.993	103.858	19.767	9.176	0.529
354.000	262.500	80.009	19.993	103.850	19.767	9.231	0.496
355.500	263.258	80.010	19.992	103.855	19.764	9.414	0.487
357.000	263.996	80.008	19.993	103.858	19.763	9.519	0.480
358.500	264.795	80.008	19.993	103.857	19.762	9.575	0.513
360.000	265.510	80.007	19.993	103.848	19.759	9.783	0.481
361.500	266.245	80.007	19.993	103.850	19.755	10.070	0.477
363.000	266.972	80.005	19.994	103.866	19.758	9.870	0.498
364.500	267.770	80.006	19.994	103.867	19.755	10.064	0.527
366.000	268.499	80.007	19.994	103.856	19.753	10.223	0.482
367.500	269.242	80.006	19.994	103.849	19.748	10.584	0.492
369.000	269.989	80.006	19.994	103.865	19.745	10.791	0.504
370.500	270.785	80.009	19.994	103.868	19.744	10.895	0.552
372.000	271.556	80.006	19.994	103.864	19.740	11.138	0.501
373.500	272.279	80.008	19.993	103.863	19.737	11.372	0.465
375.000	273.016	80.007	19.993	103.868	19.738	11.337	0.474
376.500	273.800	80.006	19.992	103.864	19.737	11.373	0.514
378.000	274.529	80.004	19.992	103.866	19.733	11.678	0.504
379.500	275.250	80.010	19.993	103.876	19.729	11.989	0.487
381.000	276.010	80.008	19.992	103.882	19.728	12.031	0.506
382.500	276.731	80.008	19.994	103.875	19.726	12.168	0.479
384.000	277.494	80.007	19.993	103.871	19.721	12.572	0.493
385.500	278.267	80.007	19.992	103.874	19.718	12.793	0.497
387.000	279.014	80.008	19.993	103.882	19.717	12.809	0.507
388.500	279.727	80.009	19.992	103.885	19.711	13.292	0.463
390.000	280.514	80.008	19.993	103.881	19.709	13.409	0.503
391.500	281.274	80.009	19.993	103.886	19.705	13.725	0.484
393.000	281.998	80.007	19.994	103.890	19.701	13.991	0.480
394.500	282.717	80.008	19.993	103.881	19.701	14.005	0.486
396.000	283.503	80.007	19.992	103.884	19.695	14.437	0.517
397.500	284.275	80.008	19.992	103.883	19.693	14.603	0.501
399.000	284.976	80.008	19.993	103.883	19.688	14.947	0.486
400.500	285.714	80.007	19.993	103.892	19.684	15.251	0.500
402.000	286.475	80.008	19.994	103.891	19.682	15.370	0.510
403.500	287.222	80.009	19.993	103.877	19.678	15.677	0.483
405.000	287.968	80.009	19.993	103.876	19.676	15.850	0.511
406.500	288.744	80.010	19.994	103.885	19.671	16.214	0.511
408.000	289.509	80.009	19.993	103.897	19.665	16.608	0.510
409.500	290.232	80.009	19.993	103.893	19.663	16.775	0.479
411.000	291.016	80.009	19.992	103.895	19.655	17.342	0.483
412.500	291.805	80.009	19.993	103.898	19.653	17.505	0.503
414.000	292.540	80.009	19.993	103.894	19.652	17.568	0.481
415.500	293.275	80.008	19.992	103.903	19.643	18.230	0.494
417.000	294.028	80.009	19.993	103.899	19.639	18.489	0.509
418.500	294.795	80.010	19.992	103.904	19.637	18.689	0.515
420.000	295.571	80.008	19.994	103.905	19.632	19.036	0.523
421.500	296.335	80.007	19.992	103.905	19.624	19.621	0.516
423.000	297.081	80.009	19.993	103.907	19.620	19.879	0.497
424.500	297.849	80.011	19.994	103.912	19.619	19.994	0.521
426.000	298.569	80.010	19.992	103.915	19.614	20.332	0.498
427.500	299.325	80.009	19.993	103.907	19.609	20.713	0.519
429.000	300.096	80.009	19.993	103.907	19.603	21.117	0.476
430.500	300.815	80.010	19.993	103.909	19.600	21.350	0.485
432.000	301.589	80.009	19.992	103.916	19.592	21.959	0.506
433.500	302.339	80.010	19.993	103.909	19.588	22.238	0.508
435.000	303.100	80.008	19.994	103.909	19.583	22.567	0.517
436.500	303.839	80.009	19.994	103.916	19.577	23.012	0.496
438.000	304.611	80.009	19.994	103.918	19.574	23.251	0.501
439.500	305.391	80.009	19.994	103.919	19.566	23.860	0.515
441.000	306.147	80.007	19.993	103.927	19.561	24.220	0.490
442.500	306.890	80.006	19.994	103.929	19.555	24.658	0.523
444.000	307.605	80.006	19.993	103.941	19.549	25.038	0.473
445.500	308.399	80.006	19.993	103.945	19.541	25.662	0.509
447.000	309.151	80.007	19.994	103.938	19.535	26.088	0.506
448.500	309.891	80.007	19.993	103.938	19.532	26.285	0.502
450.000	310.678	80.007	19.993	103.945	19.525	26.823	0.523
451.500	311.438	80.007	19.994	103.945	19.519	27.273	0.501
453.000	312.175	80.007	19.994	103.943	19.512	27.775	0.494
454.500	312.934	80.007	19.992	103.946	19.502	28.491	0.518
456.000	313.651	80.006	19.993	103.945	19.496	28.937	0.478
457.500	314.451	80.008	19.993	103.943	19.489	29.455	0.507
459.000	315.211	80.008	19.994	103.944	19.481	29.990	0.512
460.500	315.969	80.007	19.994	103.944	19.475	30.466	0.485
462.000	316.718	80.008	19.994	103.946	19.467	31.063	0.475
463.500	317.427	80.008	19.994	103.945	19.462	31.401	0.468
465.000	318.217	80.008	19.994	103.955	19.454	32.015	0.534
466.500	318.979	80.007	19.994	103.950	19.448	32.426	0.512
468.000	319.712	80.006	19.994	103.954	19.440	32.981	0.490
469.500	320.461	80.008	19.994	103.965	19.434	33.412	0.504
471.000	321.225	80.008	19.995	103.953	19.424	34.194	0.493
472.500	321.948	80.006	19.993	103.960	19.417	34.666	0.497
474.000	322.740	80.005	19.993	103.970	19.407	35.379	0.535
475.500	323.480	80.008	19.992	103.976	19.397	36.117	0.518
477.000	324.248	80.006	19.993	103.980	19.388	36.762	0.526
478.500	324.997	80.009	19.993	103.981	19.382	37.238	0.514
480.000	325.757	80.009	19.993	103.981	19.371	38.016	0.520
481.500	326.517	80.008	19.992	103.985	19.362	38.686	0.516
483.000	327.248	80.008	19.993	103.984	19.354	39.262	0.500
484.500	327.985	80.009	19.993	103.985	19.344	39.979	0.476
486.000	328.740	80.010	19.993	103.988	19.334	40.687	0.505
487.500	329.544	80.008	19.993	103.991	19.322	41.615	0.508
489.000	330.248	80.007	19.993	103.989	19.314	42.211	0.471
490.500	331.021	80.008	19.994	103.990	19.306	42.757	0.525
492.000	331.732	80.009	19.993	103.996	19.296	43.479	0.489
493.500	332.524	80.010	19.993	103.996	19.280	44.625	0.506
495.000	333.282	80.009	19.992	104.006	19.273	45.131	0.500
496.500	334.021	80.009	19.993	104.019	19.261	46.012	0.502
498.000	334.841	80.009	19.993	104.013	19.252	46.715	0.534
499.500	335.557	80.007	19.995	104.016	19.242	47.457	0.481
501.000	336.332	80.009	19.993	104.023	19.231	48.259	0.515
502.500	337.044	80.009	19.994	104.024	19.217	49.236	0.479
504.000	337.847	80.009	19.993	104.027	19.205	50.147	0.529
505.500	338.591	80.008	19.992	104.026	19.194	50.930	0.502
507.000	339.306	80.010	19.993	104.032	19.182	51.809	0.495
508.500	340.069	80.011	19.992	104.045	19.167	52.887	0.498
510.000	340.836	80.010	19.992	104.050	19.156	53.693	0.516
511.500	341.593	80.009	19.991	104.046	19.143	54.642	0.516
513.000	342.342	80.010	19.993	104.046	19.131	55.526	0.485
514.500	343.096	80.010	19.992	104.050	19.117	56.511	0.492
516.000	343.851	80.008	19.992	104.062	19.104	57.476	0.511
517.500	344.594	80.009	19.992	104.063	19.087	58.719	0.513
519.000	345.334	80.008	19.993	104.059	19.077	59.475	0.480
520.500	346.110	80.009	19.993	104.062	19.063	60.503	0.518
522.000	346.871	80.009	19.993	104.063	19.050	61.415	0.497
523.500	347.610	80.008	19.994	104.061	19.041	62.083	0.502
525.000	348.331	80.008	19.993	104.062	19.028	63.026	0.496
526.500	349.120	80.007	19.992	104.069	19.014	64.023	0.520
528.000	349.903	80.006	19.993	104.071	19.010	64.361	0.510
529.500	350.620	80.007	19.994	104.074	18.993	65.589	0.506
531.000	351.362	80.007	19.994	104.071	18.981	66.457	0.482
532.500	352.131	80.006	19.993	104.072	18.969	67.333	0.514
534.000	352.882	80.007	19.994	104.067	18.956	68.275	0.487
535.500	353.617	80.009	19.994	104.074	18.951	68.657	0.507
537.000	354.438	80.007	19.994	104.073	18.942	69.250	0.535
538.500	355.175	80.009	19.992	104.067	18.936	69.706	0.500
540.000	355.938	80.007	19.992	104.066	18.920	70.894	0.493
541.500	356.683	80.008	19.994	104.078	18.917	71.107	0.476
543.000	357.483	80.006	19.994	104.081	18.912	71.474	0.526
544.500	358.225	80.006	19.994	104.072	18.906	71.892	0.511
546.000	358.941	80.007	19.993	104.062	18.906	71.849	0.487
547.500	359.697	80.008	19.994	104.062	18.905	71.934	0.513
549.000	360.473	80.005	19.993	104.072	18.901	72.230	0.532
550.500	361.248	80.008	19.994	104.070	18.901	72.212	0.506
552.000	361.967	80.005	19.993	104.059	18.906	71.845	0.483
553.500	362.726	80.006	19.994	104.053	18.914	71.275	0.504
555.000	363.517	80.004	19.995	104.034	18.920	70.798	0.534
556.500	364.228	80.007	19.993	104.026	18.928	70.193	0.472
558.000	365.057	80.004	19.994	104.026	18.935	69.699	0.521
559.500	365.798	80.006	19.996	104.023	18.944	69.009	0.497
561.000	366.570	80.005	19.994	104.010	18.961	67.793	0.505
562.500	367.328	80.004	19.995	103.991	18.980	66.383	0.514
564.000	368.102	80.008	19.995	103.978	18.997	65.150	0.526
565.500	368.900	80.006	19.994	103.976	19.019	63.540	0.531
567.000	369.629	80.007	19.993	103.959	19.040	62.007	0.480
568.500	370.416	80.009	19.993	103.946	19.066	60.118	0.517
570.000	371.177	80.008	19.993	103.932	19.094	58.086	0.516
571.500	371.934	80.008	19.994	103.899	19.124	55.937	0.508
573.000	372.726	80.008	19.994	103.896	19.151	53.921	0.547
574.500	373.516	80.007	19.993	103.895	19.184	51.573	0.553
576.000	374.236	80.006	19.993	103.876	19.214	49.347	0.486
577.500	375.033	80.007	19.992	103.868	19.246	47.059	0.522
579.000	375.797	80.008	19.993	103.868	19.278	44.695	0.519
580.500	376.576	80.007	19.994	103.856	19.314	42.082	0.527
582.000	377.354	80.006	19.993	103.837	19.346	39.744	0.521
583.500	378.105	80.007	19.993	103.830	19.376	37.578	0.511
585.000	378.898	80.008	19.994	103.827	19.409	35.208	0.529
586.500	379.629	80.008	19.993	103.823	19.435	33.320	0.502
588.000	380.380	80.009	19.992	103.818	19.468	30.895	0.505
589.500	381.180	80.009	19.993	103.811	19.489	29.352	0.518
591.000	381.927	80.009	19.994	103.795	19.512	27.704	0.489
592.500	382.724	80.010	19.993	103.787	19.538	25.827	0.520
594.000	383.466	80.009	19.993	103.789	19.559	24.311	0.489
595.500	384.223	80.011	19.992	103.786	19.574	23.228	0.507
597.000	385.010	80.009	19.993	103.786	19.592	21.928	0.520
598.500	385.743	80.010	19.994	103.786	19.605	20.973	0.490
600.000	386.503	80.009	19.992	103.786	19.614	20.299	0.506
601.500	387.252	80.009	19.992	103.785	19.625	19.531	0.492
603.000	388.043	80.008	19.994	103.786	19.637	18.646	0.519
604.500	388.773	80.007	19.994	103.785	19.637	18.632	0.495
606.000	389.569	80.008	19.993	103.775	19.643	18.203	0.544
607.500	390.287	80.008	19.993	103.784	19.648	17.858	0.489
609.000	391.046	80.006	19.994	103.786	19.651	17.650	0.498
610.500	391.806	80.009	19.993	103.784	19.655	17.336	0.500
612.000	392.569	80.007	19.992	103.783	19.654	17.369	0.519
613.500	393.341	80.007	19.992	103.786	19.655	17.302	0.503
615.000	394.092	80.008	19.993	103.786	19.656	17.280	0.503
616.500	394.864	80.008	19.994	103.779	19.658	17.109	0.493
618.000	395.638	80.007	19.992	103.782	19.657	17.176	0.522
619.500	396.359	80.007	19.993	103.788	19.658	17.142	0.469
621.000	397.117	80.008	19.993	103.789	19.653	17.475	0.497
622.500	397.916	80.008	19.995	103.789	19.656	17.264	0.521
624.000	398.628	80.008	19.994	103.788	19.653	17.462	0.500
625.500	399.367	80.008	19.994	103.785	19.649	17.787	0.474
627.000	400.126	80.007	19.994	103.778	19.651	17.589	0.509
628.500	400.882	80.006	19.994	103.780	19.649	17.788	0.531
630.000	401.609	80.008	19.993	103.781	19.644	18.137	0.480
631.500	402.358	80.008	19.994	103.783	19.643	18.185	0.501
633.000	403.124	80.007	19.993	103.785	19.640	18.425	0.507
634.500	403.875	80.006	19.993	103.767	19.636	18.709	0.511
636.000	404.644	80.005	19.993	103.774	19.636	18.709	0.512
637.500	405.377	80.006	19.993	103.792	19.638	18.595	0.484
639.000	406.111	80.006	19.994	103.777	19.630	19.120	0.482
640.500	406.854	80.006	19.994	103.778	19.630	19.150	0.508
642.000	407.622	80.003	19.994	103.786	19.625	19.512	0.520
643.500	408.364	80.007	19.995	103.774	19.623	19.619	0.485
645.000	409.121	80.006	19.994	103.772	19.621	19.780	0.516
646.500	409.854	80.009	19.994	103.784	19.615	20.212	0.494
648.000	410.581	80.008	19.993	103.789	19.617	20.111	0.480
649.500	411.332	80.008	19.993	103.784	19.612	20.447	0.508
651.000	412.101	80.007	19.994	103.775	19.610	20.555	0.522
652.500	412.849	80.008	19.993	103.782	19.608	20.720	0.501
654.000	413.588	80.006	19.995	103.786	19.603	21.119	0.490
655.500	414.287	80.009	19.995	103.772	19.597	21.563	0.479
657.000	415.015	80.005	19.994	103.775	19.596	21.595	0.478
658.500	415.747	80.007	19.993	103.780	19.592	21.872	0.500
660.000	416.558	80.006	19.993	103.768	19.589	22.120	0.538
661.500	417.297	80.008	19.993	103.775	19.586	22.299	0.517
663.000	418.007	80.006	19.994	103.779	19.584	22.487	0.472
664.500	418.786	80.008	19.993	103.769	19.577	23.002	0.516
666.000	419.545	80.007	19.993	103.773	19.573	23.251	0.489
667.500	420.284	80.007	19.994	103.777	19.566	23.763	0.500
669.000	421.028	80.010	19.993	103.763	19.566	23.808	0.498
670.500	421.786	80.010	19.993	103.755	19.560	24.189	0.497
672.000	422.514	80.009	19.993	103.758	19.556	24.530	0.488
673.500	423.230	80.010	19.993	103.779	19.551	24.883	0.479
675.000	424.000	80.011	19.993	103.773	19.548	25.119	0.505
676.500	424.782	80.011	19.993	103.765	19.547	25.178	0.501
678.000	425.522	80.010	19.992	103.768	19.543	25.477	0.489
679.500	426.288	80.012	19.993	103.771	19.538	25.792	0.491
681.000	426.992	80.010	19.994	103.772	19.535	26.041	0.488
682.500	427.814	80.011	19.994	103.772	19.529	26.460	0.532
684.000	428.536	80.009	19.993	103.765	19.529	26.487	0.471
685.500	429.283	80.005	19.994	103.763	19.523	26.930	0.505
687.000	430.054	80.007	19.993	103.772	19.519	27.223	0.503
688.500	430.820	80.006	19.993	103.773	19.516	27.405	0.507
690.000	431.604	80.007	19.993	103.762	19.510	27.877	0.533
691.500	432.355	80.007	19.994	103.775	19.505	28.192	0.498
693.000	433.108	80.008	19.992	103.781	19.503	28.349	0.497
694.500	433.876	80.006	19.994	103.769	19.499	28.676	0.534
696.000	434.682	80.008	19.994	103.776	19.494	29.014	0.540
697.500	435.443	80.009	19.994	103.771	19.490	29.299	0.498
699.000	436.236	80.008	19.993	103.773	19.487	29.517	0.541
700.500	437.014	80.009	19.994	103.758	19.484	29.757	0.508
702.000	437.833	80.011	19.992	103.759	19.482	29.876	0.533
703.500	438.569	80.008	19.992	103.773	19.475	30.393	0.513
705.000	439.353	80.007	19.993	103.769	19.471	30.701	0.512
706.500	440.171	80.010	19.993	103.762	19.467	30.948	0.539
708.000	440.964	80.006	19.994	103.758	19.465	31.096	0.537
709.500	441.738	80.008	19.992	103.757	19.461	31.435	0.525
711.000	442.553	80.009	19.993	103.760	19.462	31.309	0.545
712.500	443.336	80.007	19.994	103.757	19.454	31.939	0.528
714.000	444.106	80.008	19.994	103.758	19.451	32.141	0.512
715.500	444.940	80.008	19.994	103.757	19.449	32.242	0.534
717.000	445.717	80.005	19.994	103.751	19.443	32.673	0.552
718.500	446.495	80.008	19.994	103.751	19.439	33.034	0.517
720.000	447.292	80.009	19.994	103.752	19.439	32.974	0.553
721.500	448.085	80.006	19.992	103.742	19.438	33.082	0.523
723.000	448.908	80.005	19.994	103.749	19.437	33.137	0.551
724.500	449.683	80.005	19.994	103.745	19.435	33.266	0.512
726.000	450.495	80.007	19.995	103.739	19.432	33.517	0.528
727.500	451.298	80.010	19.994	103.759	19.430	33.681	0.535
729.000	452.083	80.007	19.994	103.757	19.427	33.834	0.514
730.500	452.860	80.008	19.994	103.749	19.429	33.686	0.509
732.000	453.645	80.010	19.994	103.748	19.430	33.643	0.524
733.500	454.484	80.009	19.994	103.747	19.430	33.637	0.556
735.000	455.250	80.008	19.994	103.747	19.429	33.701	0.542
736.500	456.036	80.007	19.994	103.746	19.431	33.612	0.520
738.000	456.823	80.009	19.994	103.748	19.433	33.412	0.506
739.500	457.586	80.008	19.994	103.748	19.431	33.555	0.522
741.000	458.380	80.009	19.994	103.747	19.437	33.131	0.497
742.500	459.208	80.007	19.993	103.743	19.437	33.135	0.543
744.000	459.979	80.006	19.994	103.734	19.443	32.703	0.532
745.500	460.773	80.006	19.994	103.748	19.444	32.632	0.524
747.000	461.566	80.008	19.994	103.755	19.450	32.175	0.507
748.500	462.375	80.008	19.994	103.737	19.453	31.965	0.537
750.000	463.163	80.008	19.994	103.741	19.460	31.460	0.522
751.500	463.960	80.008	19.994	103.745	19.468	30.859	0.527
753.000	464.625	80.009	19.994	103.742	19.472	30.633	0.447
754.500	465.407	80.007	19.994	103.747	19.480	30.003	0.547
756.000	466.216	80.010	19.993	103.747	19.480	30.027	0.502
757.500	467.069	80.009	19.993	103.747	19.489	29.354	0.501
759.000	467.721	80.010	19.992	103.749	19.498	28.700	0.458
760.500	468.583	80.009	19.993	103.749	19.505	28.211	0.507
762.000	469.244	80.009	19.993	103.747	19.510	27.862	0.390
763.500	470.165	80.008	19.992	103.746	19.522	26.969	0.573
765.000	470.542	80.009	19.994	103.746	19.531	26.323	0.454
766.500	471.798	80.007	19.994	103.749	19.541	25.589	0.501
768.000	472.550	80.006	19.993	103.749	19.549	25.010	0.699
769.500	473.732	80.006	19.994	103.750	19.557	24.447	1.075
771.000	474.290	80.009	19.993	103.751	19.570	23.464	0.245
772.500	474.798	80.006	19.993	103.750	19.577	23.007	0.545
774.000	475.440	80.008	19.992	103.754	19.587	22.234	0.446
775.500	476.441	80.007	19.993	103.760	19.595	21.705	0.593
777.000	477.126	80.007	19.993	103.755	19.608	20.702	0.487
778.500	477.795	80.007	19.993	103.754	19.614	20.267	0.461
780.000	478.587	80.008	19.994	103.755	19.625	19.516	0.520
781.500	479.373	80.007	19.993	103.752	19.633	18.891	0.529
783.000	480.095	80.007	19.994	103.751	19.639	18.490	0.463
784.500	480.884	80.008	19.994	103.754	19.650	17.660	0.498
786.000	481.670	80.007	19.994	103.752	19.662	16.847	0.505
787.500	482.387	80.007	19.995	103.756	19.665	16.600	0.510
789.000	483.165	80.007	19.993	103.754	19.677	15.731	0.498
790.500	483.905	80.007	19.994	103.764	19.685	15.111	0.476
792.000	484.682	80.007	19.993	103.755	19.689	14.856	0.486
793.500	485.436	80.008	19.993	103.749	19.699	14.092	0.511
795.000	486.227	80.007	19.992	103.752	19.709	13.375	0.539
796.500	487.010	80.007	19.995	103.763	19.712	13.189	0.510
798.000	487.706	80.007	19.994	103.759	19.723	12.396	0.457
799.500	488.526	80.008	19.994	103.762	19.728	12.035	0.566
801.000	489.293	80.007	19.995	103.758	19.731	11.808	0.522
802.500	490.095	80.007	19.994	103.752	19.738	11.290	0.512
804.000	490.898	80.006	19.992	103.753	19.747	10.661	0.526
805.500	491.625	80.008	19.994	103.751	19.751	10.375	0.476
807.000	492.391	80.008	19.992	103.753	19.756	10.020	0.516
808.500	493.156	80.009	19.993	103.751	19.759	9.773	0.524
810.000	493.950	80.008	19.993	103.754	19.765	9.312	0.537
811.500	494.708	80.008	19.993	103.753	19.771	8.903	0.529
813.000	495.481	80.009	19.993	103.747	19.773	8.781	0.517
814.500	496.213	80.009	19.993	103.746	19.778	8.378	0.518
816.000	497.026	80.008	19.992	103.749	19.778	8.414	0.539
817.500	497.779	80.009	19.993	103.755	19.783	8.013	0.496
819.000	498.517	80.009	19.993	103.755	19.785	7.899	0.480
820.500	499.307	80.007	19.994	103.760	19.790	7.553	0.510
822.000	499.990	80.008	19.993	103.758	19.793	7.325	0.453
823.500	500.781	80.008	19.992	103.751	19.799	6.863	0.529
825.000	501.561	80.008	19.994	103.750	19.802	6.642	0.486
826.500	502.294	80.008	19.994	103.752	19.806	6.338	0.491
828.000	503.028	80.008	19.994	103.758	19.810	6.055	0.503
829.500	503.742	80.008	19.993	103.754	19.807	6.307	0.466
831.000	504.503	80.009	19.993	103.760	19.811	5.995	0.508
832.500	505.248	80.007	19.993	103.766	19.815	5.735	0.501
834.000	505.975	80.008	19.993	103.757	19.817	5.562	0.492
835.500	506.687	80.009	19.993	103.750	19.816	5.627	0.478
837.000	507.470	80.010	19.994	103.750	19.819	5.431	0.504
838.500	508.284	80.009	19.992	103.750	19.821	5.286	0.521
840.000	508.971	80.009	19.994	103.757	19.825	5.017	0.448
841.500	509.714	80.009	19.993	103.760	19.823	5.104	0.500
843.000	510.506	80.008	19.994	103.752	19.823	5.109	0.518
844.500	511.219	80.009	19.993	103.749	19.827	4.872	0.480
846.000	512.004	80.007	19.994	103.751	19.827	4.803	0.510
847.500	512.747	80.008	19.994	103.756	19.828	4.768	0.498
849.000	513.485	80.007	19.993	103.757	19.826	4.920	0.496
850.500	514.269	80.008	19.994	103.748	19.828	4.735	0.494
852.000	515.059	80.007	19.994	103.761	19.830	4.597	0.538
853.500	515.804	80.008	19.994	103.759	19.832	4.446	0.473
855.000	516.611	80.008	19.994	103.758	19.835	4.232	0.517
856.500	517.327	80.008	19.994	103.757	19.834	4.334	0.478
858.000	518.134	80.007	19.994	103.758	19.835	4.237	0.530
859.500	518.875	80.008	19.993	103.773	19.839	3.939	0.486
861.000	519.626	80.007	19.995	103.767	19.841	3.794	0.508
862.500	520.447	80.008	19.994	103.757	19.838	4.049	0.539
864.000	521.217	80.009	19.995	103.759	19.843	3.697	0.527
865.500	521.975	80.007	19.994	103.761	19.841	3.809	0.508
867.000	522.756	80.008	19.994	103.754	19.841	3.811	0.541
868.500	523.530	80.007	19.993	103.751	19.844	3.631	0.509
870.000	524.268	80.009	19.994	103.749	19.845	3.556	0.494
871.500	525.100	80.007	19.992	103.755	19.842	3.719	0.541
873.000	525.866	80.008	19.994	103.768	19.848	3.295	0.503
874.500	526.636	80.006	19.993	103.762	19.845	3.501	0.531
876.000	527.412	80.007	19.993	103.750	19.843	3.684	0.510
877.500	528.197	80.008	19.993	103.754	19.845	3.519	0.543
879.000	528.984	80.006	19.995	103.754	19.847	3.405	0.529
880.500	529.712	80.006	19.994	103.750	19.843	3.656	0.477
882.000	530.541	80.007	19.994	103.750	19.846	3.464	0.556
883.500	531.361	80.008	19.993	103.751	19.848	3.314	0.537
885.000	532.121	80.007	19.993	103.753	19.847	3.379	0.497
886.500	532.903	80.008	19.993	103.759	19.848	3.283	0.524
888.000	533.678	80.008	19.993	103.761	19.848	3.344	0.521
889.500	534.432	80.008	19.993	103.760	19.852	3.044	0.497
891.000	535.244	80.009	19.993	103.758	19.855	2.796	0.551
892.500	536.009	80.008	19.993	103.752	19.852	3.016	0.506
894.000	536.783	80.008	19.992	103.751	19.852	3.010	0.530
895.500	537.616	80.008	19.992	103.752	19.852	3.012	0.559
897.000	538.355	80.009	19.992	103.752	19.855	2.816	0.520
898.500	539.160	80.009	19.992	103.752	19.852	3.020	0.522
900.000	539.896	80.009	19.992	103.751	19.855	2.831	0.488
901.500	540.687	80.009	19.992	103.755	19.852	3.010	0.524
903.000	541.520	80.007	19.992	103.755	19.855	2.833	0.551
904.500	542.275	80.008	19.992	103.755	19.854	2.900	0.495
906.000	543.070	80.008	19.994	103.754	19.853	2.916	0.520
907.500	543.835	80.008	19.994	103.754	19.853	2.934	0.489
909.000	544.584	80.007	19.993	103.753	19.853	2.931	0.506
910.500	545.391	80.008	19.993	103.753	19.854	2.873	0.538
912.000	546.168	80.008	19.994	103.756	19.853	2.924	0.503
913.500	546.912	80.009	19.994	103.753	19.856	2.743	0.509
915.000	547.704	80.009	19.994	103.749	19.855	2.820	0.541
916.500	548.476	80.009	19.994	103.751	19.857	2.643	0.509
918.000	549.227	80.009	19.992	103.754	19.856	2.741	0.497
919.500	549.993	80.010	19.993	103.751	19.853	2.977	0.507
921.000	550.784	80.010	19.994	103.754	19.854	2.877	0.522
922.500	551.518	80.009	19.994	103.761	19.855	2.782	0.485
924.000	552.292	80.009	19.993	103.758	19.855	2.837	0.515
925.500	553.038	80.010	19.994	103.755	19.859	2.505	0.515
927.000	553.817	80.008	19.992	103.749	19.856	2.755	0.534
928.500	554.625	80.008	19.993	103.749	19.858	2.611	0.541
930.000	555.398	80.007	19.994	103.748	19.855	2.820	0.513
931.500	556.121	80.007	19.993	103.752	19.857	2.655	0.478
933.000	556.855	80.006	19.993	103.753	19.854	2.845	0.468
934.500	557.616	80.006	19.994	103.749	19.858	2.602	0.495
936.000	558.389	80.007	19.993	103.748	19.855	2.786	0.531
937.500	559.159	80.006	19.994	103.747	19.854	2.867	0.523
939.000	559.883	80.007	19.994	103.747	19.856	2.724	0.502
940.500	560.687	80.006	19.995	103.749	19.854	2.849	0.539
942.000	561.494	80.006	19.994	103.749	19.855	2.794	0.525
943.500	562.234	80.006	19.994	103.748	19.854	2.879	0.498
945.000	562.974	80.005	19.995	103.749	19.855	2.828	0.498
946.500	563.739	80.005	19.993	103.751	19.855	2.772	0.526
948.000	564.507	80.007	19.993	103.750	19.854	2.847	0.528
949.500	565.263	80.006	19.993	103.755	19.857	2.670	0.499
951.000	566.014	80.007	19.993	103.759	19.854	2.869	0.508
952.500	566.763	80.007	19.993	103.759	19.856	2.749	0.533
954.000	567.563	80.008	19.993	103.768	19.857	2.637	0.532
955.500	568.292	80.007	19.992	103.765	19.855	2.808	0.485
957.000	569.056	80.006	19.993	103.753	19.856	2.763	0.510
958.500	569.874	80.008	19.993	103.753	19.859	2.535	0.547
960.000	570.628	80.008	19.993	103.754	19.858	2.571	0.519
961.500	571.418	80.008	19.993	103.755	19.859	2.482	0.526
963.000	572.197	80.006	19.993	103.764	19.859	2.517	0.513
964.500	572.937	80.006	19.992	103.767	19.859	2.515	0.489
966.000	573.736	80.007	19.994	103.760	19.862	2.329	0.532
967.500	574.594	80.008	19.994	103.765	19.861	2.394	0.563
969.000	575.349	80.007	19.993	103.769	19.860	2.445	0.534
970.500	576.140	80.006	19.993	103.774	19.858	2.555	0.535
972.000	576.893	80.007	19.993	103.769	19.860	2.447	0.497
973.500	577.715	80.009	19.993	103.758	19.859	2.509	0.550
975.000	578.486	80.008	19.994	103.758	19.858	2.562	0.543
976.500	579.344	80.008	19.993	103.760	19.858	2.617	0.566
978.000	580.131	80.008	19.994	103.755	19.860	2.448	0.516
979.500	580.927	80.010	19.994	103.756	19.857	2.667	0.521
981.000	581.665	80.010	19.994	103.751	19.856	2.738	0.505
982.500	582.495	80.010	19.994	103.758	19.858	2.555	0.553
984.000	583.285	80.008	19.993	103.758	19.861	2.401	0.521
985.500	584.069	80.009	19.992	103.750	19.858	2.578	0.516
987.000	584.864	80.009	19.994	103.747	19.858	2.592	0.551
988.500	585.656	80.008	19.994	103.750	19.861	2.384	0.530
990.000	586.428	80.009	19.993	103.751	19.860	2.427	0.537
991.500	587.210	80.009	19.993	103.765	19.860	2.454	0.503
993.000	587.991	80.009	19.992	103.767	19.856	2.753	0.550
994.500	588.771	80.010	19.994	103.751	19.860	2.460	0.509
996.000	589.627	80.009	19.994	103.750	19.858	2.563	0.578
997.500	590.399	80.010	19.993	103.754	19.860	2.474	0.531
999.000	591.206	80.010	19.993	103.753	19.861	2.386	0.516
1000.500	591.996	80.011	19.993	103.748	19.860	2.456	0.540
1002.000	592.800	80.011	19.993	103.751	19.858	2.566	0.519
1003.500	593.549	80.010	19.993	103.757	19.859	2.549	0.500
1005.000	594.375	80.010	19.994	103.758	19.859	2.523	0.561
1006.500	595.167	80.009	19.994	103.756	19.860	2.419	0.540
1008.000	595.936	80.009	19.994	103.756	19.860	2.454	0.521
1009.500	596.723	80.008	19.993	103.747	19.862	2.307	0.540
1011.000	597.501	80.007	19.992	103.747	19.859	2.511	0.506
1012.500	598.306	80.008	19.993	103.748	19.857	2.692	0.533
1014.000	599.093	80.008	19.993	103.749	19.861	2.395	0.523
1015.500	599.820	80.008	19.993	103.748	19.863	2.250	0.474
1017.000	600.637	80.007	19.993	103.750	19.858	2.569	0.560
1018.500	601.396	80.008	19.994	103.755	19.859	2.490	0.512
1020.000	602.176	80.006	19.993	103.752	19.857	2.664	0.518
1021.500	602.923	80.007	19.992	103.748	19.857	2.692	0.498
1023.000	603.724	80.008	19.994	103.752	19.857	2.659	0.518
1024.499	604.495	80.007	19.995	103.752	19.859	2.545	0.499
1025.999	605.242	80.007	19.993	103.749	19.857	2.629	0.497
1027.499	606.030	80.008	19.993	103.741	19.858	2.557	0.528
1028.999	606.797	80.007	19.994	103.702	19.860	2.466	0.493
1030.500	607.538	80.007	19.994	103.765	19.862	2.289	0.520
1031.999	608.286	80.006	19.995	103.827	19.864	2.162	0.496
1033.499	609.064	80.006	19.994	103.765	19.860	2.460	0.514
1034.999	609.814	80.006	19.994	103.752	19.861	2.382	0.498
1036.500	610.582	80.008	19.995	103.752	19.861	2.366	0.530
1038.000	611.336	80.007	19.994	103.753	19.861	2.403	0.511
1039.500	612.142	80.008	19.994	103.759	19.860	2.456	0.551
1040.999	612.874	80.006	19.994	103.754	19.862	2.291	0.498
1042.499	613.675	80.008	19.995	103.750	19.860	2.464	0.539
1043.999	614.452	80.007	19.993	103.751	19.861	2.344	0.534
1045.500	615.197	80.008	19.993	103.749	19.862	2.295	0.495
1047.000	615.930	80.007	19.993	103.749	19.864	2.134	0.477
1048.499	616.720	80.007	19.994	103.748	19.863	2.228	0.533
1049.999	617.499	80.007	19.994	103.748	19.862	2.295	0.487
1051.499	618.243	80.007	19.993	103.748	19.864	2.118	0.505
1052.999	618.966	80.009	19.994	103.749	19.860	2.450	0.484
1054.499	619.779	80.008	19.994	103.749	19.863	2.229	0.540
1056.001	620.479	80.010	19.993	103.752	19.860	2.415	0.470
1057.499	621.260	80.010	19.992	103.751	19.861	2.378	0.526
1058.999	622.028	80.012	19.992	103.748	19.860	2.409	0.497
1060.499	622.736	80.011	19.994	103.747	19.858	2.551	0.483
1061.999	623.470	80.010	19.993	103.744	19.862	2.268	0.506
1063.499	624.239	80.011	19.993	103.747	19.865	2.075	0.484
1065.002	624.989	80.009	19.994	103.747	19.864	2.134	0.492
1066.500	625.720	80.009	19.994	103.750	19.864	2.138	0.479
1068.000	626.462	80.009	19.993	103.752	19.860	2.441	0.491
1069.500	627.183	80.009	19.994	103.759	19.862	2.307	0.443
1071.000	627.925	80.009	19.993	103.756	19.862	2.266	0.467
1072.500	628.715	80.009	19.993	103.747	19.863	2.242	0.526
1074.000	629.416	80.008	19.994	103.750	19.860	2.451	0.467
1075.500	630.157	80.009	19.993	103.751	19.861	2.378	0.499
1077.000	630.928	80.010	19.993	103.750	19.859	2.531	0.517
1078.500	631.676	80.008	19.992	103.752	19.860	2.413	0.505
1080.000	632.432	80.010	19.993	103.762	19.858	2.596	0.504
1081.500	633.169	80.013	19.993	103.764	19.862	2.276	0.502
1083.000	633.917	80.011	19.993	103.761	19.861	2.377	0.517
1084.500	634.678	80.011	19.993	103.763	19.861	2.367	0.493
1086.000	635.441	80.012	19.991	103.768	19.859	2.519	0.515
1087.500	636.152	80.011	19.994	103.752	19.859	2.500	0.475
1089.001	636.923	80.010	19.994	103.755	19.860	2.441	0.517
1090.500	637.656	80.009	19.994	103.761	19.857	2.663	0.502
1092.000	638.381	80.007	19.993	103.761	19.859	2.502	0.476
1093.500	639.156	80.008	19.994	103.777	19.863	2.239	0.518
1095.000	639.900	80.007	19.993	103.784	19.857	2.628	0.516
1096.500	640.679	80.007	19.994	103.765	19.859	2.490	0.535
1098.000	641.404	80.007	19.993	103.761	19.860	2.406	0.485
1099.500	642.141	80.006	19.995	103.767	19.861	2.371	0.502
1101.000	642.955	80.007	19.995	103.766	19.862	2.327	0.541
1102.500	643.703	80.007	19.995	103.760	19.861	2.380	0.510
1104.000	644.467	80.007	19.994	103.766	19.862	2.274	0.508
1105.500	645.190	80.007	19.993	103.766	19.859	2.500	0.475
1107.000	645.950	80.007	19.993	103.779	19.861	2.355	0.498
1108.500	646.732	80.009	19.994	103.778	19.859	2.481	0.513
1110.000	647.504	80.008	19.994	103.775	19.859	2.542	0.501
1111.500	648.286	80.008	19.993	103.780	19.860	2.455	0.501
1113.000	649.049	80.008	19.993	103.773	19.857	2.638	0.506
1114.500	649.838	80.009	19.993	103.779	19.858	2.557	0.526
1116.000	650.581	80.007	19.993	103.775	19.860	2.452	0.511
1117.500	651.339	80.008	19.994	103.776	19.858	2.593	0.531
1119.000	652.134	80.008	19.993	103.785	19.859	2.524	0.532
1120.500	652.905	80.009	19.994	103.784	19.860	2.424	0.519
1122.000	653.663	80.007	19.994	103.782	19.855	2.797	0.502
1123.500	654.431	80.005	19.995	103.782	19.857	2.657	0.495
1125.000	655.205	80.006	19.994	103.784	19.853	2.940	0.513
1126.500	655.955	80.007	19.994	103.729	19.854	2.867	0.510
1128.000	656.734	80.007	19.994	103.738	19.852	2.987	0.505
1129.500	657.551	80.007	19.994	103.850	19.851	3.090	0.521
1131.000	658.318	80.007	19.994	103.839	19.855	2.789	0.500
1132.500	659.070	80.007	19.995	103.786	19.855	2.772	0.498
1134.000	659.839	80.008	19.994	103.785	19.856	2.738	0.518
1135.500	660.611	80.010	19.994	103.785	19.853	2.956	0.512
1137.000	661.374	80.009	19.994	103.780	19.853	2.921	0.541
1138.500	662.145	80.010	19.994	103.780	19.850	3.151	0.498
1140.000	662.880	80.010	19.994	103.786	19.849	3.229	0.506
1141.500	663.692	80.010	19.994	103.786	19.850	3.178	0.539
1143.000	664.443	80.010	19.992	103.789	19.851	3.074	0.505
1144.500	665.219	80.009	19.993	103.788	19.851	3.092	0.528
1146.000	666.002	80.009	19.994	103.788	19.850	3.171	0.520
1147.500	666.722	80.010	19.992	103.789	19.850	3.167	0.490
1149.000	667.560	80.008	19.992	103.790	19.852	3.026	0.558
1150.500	668.303	80.009	19.994	103.798	19.853	2.983	0.519
1152.000	669.093	80.009	19.994	103.792	19.849	3.269	0.521
1153.500	669.837	80.008	19.993	103.790	19.850	3.163	0.498
1155.000	670.596	80.009	19.994	103.789	19.849	3.246	0.496
1156.500	671.425	80.009	19.994	103.796	19.851	3.116	0.551
1158.000	672.161	80.009	19.994	103.797	19.852	3.022	0.503
1159.501	672.914	80.009	19.994	103.807	19.850	3.185	0.516
1161.000	673.683	80.010	19.993	103.822	19.851	3.081	0.523
1162.500	674.476	80.009	19.993	103.817	19.853	2.928	0.543
1164.000	675.263	80.010	19.993	103.806	19.850	3.189	0.537
1165.500	676.031	80.011	19.993	103.811	19.845	3.531	0.504
1167.000	676.783	80.010	19.993	103.808	19.850	3.195	0.517
1168.500	677.574	80.010	19.994	103.818	19.850	3.201	0.534
1170.000	678.347	80.011	19.991	103.815	19.847	3.401	0.522
1171.500	679.107	80.009	19.993	103.819	19.848	3.338	0.512
1173.000	679.849	80.009	19.992	103.821	19.850	3.205	0.490
1174.500	680.645	80.008	19.994	103.826	19.846	3.462	0.511
1176.000	681.389	80.008	19.992	103.822	19.845	3.523	0.497
1177.500	682.143	80.009	19.992	103.818	19.843	3.657	0.526
1179.000	682.954	80.008	19.992	103.824	19.843	3.669	0.515
1180.500	683.692	80.009	19.994	103.821	19.845	3.541	0.534
1182.000	684.422	80.009	19.993	103.827	19.844	3.617	0.467
1183.500	685.162	80.008	19.993	103.827	19.844	3.600	0.516
1185.000	685.903	80.007	19.993	103.827	19.843	3.676	0.513
1186.500	686.617	80.009	19.993	103.827	19.845	3.511	0.493
1188.000	687.375	80.008	19.991	103.828	19.842	3.749	0.497
1189.500	688.148	80.007	19.993	103.827	19.843	3.672	0.499
1191.000	688.877	80.009	19.995	103.828	19.844	3.621	0.480
1192.500	689.598	80.008	19.993	103.828	19.842	3.773	0.498
1194.000	690.334	80.009	19.993	103.828	19.842	3.775	0.482
1195.500	691.046	80.009	19.995	103.825	19.842	3.753	0.456
1197.000	691.793	80.008	19.993	103.826	19.845	3.542	0.491
1198.500	692.518	80.009	19.994	103.827	19.844	3.597	0.468
1200.000	693.303	80.008	19.993	103.827	19.842	3.774	0.528
1201.500	694.014	80.007	19.993	103.825	19.845	3.545	0.481
1203.000	694.729	80.008	19.993	103.825	19.844	3.619	0.488
1204.500	695.546	80.008	19.992	103.830	19.839	3.969	0.548
1206.000	696.270	80.007	19.993	103.833	19.840	3.876	0.464
1207.500	697.043	80.006	19.994	103.843	19.841	3.856	0.517
1209.000	697.755	80.007	19.994	103.858	19.840	3.896	0.475
1210.500	698.473	80.008	19.994	103.823	19.842	3.785	0.462
1212.000	699.288	80.007	19.993	103.781	19.841	3.829	0.508
1213.500	700.086	80.009	19.993	103.889	19.844	3.617	0.520
1215.000	700.858	80.008	19.994	103.923	19.844	3.603	0.518
1216.500	701.597	80.008	19.991	103.855	19.842	3.733	0.493
1218.000	702.363	80.009	19.993	103.850	19.841	3.803	0.513
1219.500	703.134	80.009	19.994	103.864	19.841	3.855	0.497
1221.000	703.919	80.008	19.994	103.856	19.842	3.780	0.510
1222.500	704.687	80.009	19.994	103.847	19.839	4.001	0.513
1224.000	705.467	80.009	19.995	103.854	19.839	3.989	0.525
1225.500	706.210	80.007	19.992	103.863	19.840	3.862	0.483
1227.000	707.015	80.009	19.995	103.862	19.841	3.850	0.520
1228.500	707.761	80.008	19.992	103.860	19.842	3.738	0.520
1230.000	708.543	80.008	19.994	103.864	19.842	3.755	0.537
1231.500	709.310	80.009	19.993	103.859	19.838	4.050	0.498
1233.000	710.053	80.008	19.993	103.846	19.839	3.942	0.509
1234.500	710.852	80.008	19.992	103.843	19.838	4.059	0.550
1236.000	711.606	80.009	19.994	103.851	19.839	3.991	0.499
1237.500	712.351	80.008	19.993	103.847	19.841	3.853	0.492
1239.000	713.159	80.009	19.993	103.837	19.838	4.026	0.530
1240.500	713.920	80.010	19.993	103.829	19.836	4.181	0.509
1242.000	714.676	80.009	19.993	103.825	19.840	3.883	0.501
1243.500	715.519	80.010	19.993	103.826	19.840	3.885	0.549
1245.000	716.298	80.012	19.993	103.825	19.840	3.872	0.541
1246.500	717.068	80.010	19.993	103.824	19.843	3.687	0.524
1248.000	717.824	80.011	19.992	103.823	19.843	3.646	0.496
1249.500	718.557	80.011	19.992	103.819	19.844	3.606	0.505
1251.000	719.354	80.010	19.993	103.813	19.840	3.891	0.498
1252.500	720.125	80.010	19.991	103.799	19.840	3.898	0.483
1254.000	720.881	80.009	19.995	103.795	19.843	3.680	0.488
1255.500	721.661	80.008	19.995	103.793	19.842	3.773	0.540
1257.000	722.472	80.009	19.990	103.788	19.843	3.665	0.550
1258.500	723.254	80.008	19.994	103.788	19.844	3.635	0.521
1260.000	723.999	80.008	19.993	103.787	19.847	3.411	0.511
1261.500	724.780	80.009	19.995	103.785	19.850	3.151	0.531
1263.000	725.552	80.009	19.993	103.765	19.847	3.381	0.486
1264.500	726.305	80.007	19.994	103.759	19.844	3.578	0.504
1266.000	727.070	80.008	19.993	103.770	19.848	3.277	0.511
1267.500	727.835	80.009	19.994	103.767	19.849	3.205	0.512
1269.000	728.557	80.008	19.994	103.768	19.853	2.942	0.474
1270.500	729.367	80.008	19.992	103.761	19.854	2.863	0.542
1272.000	730.141	80.008	19.992	103.753	19.849	3.208	0.535
1273.500	730.899	80.007	19.993	103.751	19.851	3.098	0.510
1275.000	731.676	80.007	19.994	103.756	19.851	3.100	0.520
1276.500	732.472	80.008	19.993	103.755	19.848	3.298	0.508
1278.000	733.226	80.007	19.993	103.753	19.853	2.919	0.505
1279.500	734.004	80.009	19.994	103.760	19.853	2.941	0.520
1281.000	734.803	80.007	19.994	103.758	19.852	3.049	0.537
1282.500	735.534	80.007	19.993	103.752	19.849	3.271	0.495
1284.000	736.287	80.007	19.993	103.752	19.855	2.822	0.511
1285.500	737.074	80.007	19.994	103.754	19.853	2.926	0.531
1287.000	737.819	80.006	19.995	103.754	19.852	2.990	0.496
1288.500	738.573	80.006	19.993	103.737	19.851	3.073	0.492
1290.000	739.358	80.007	19.992	103.745	19.852	3.004	0.533
1291.500	740.138	80.007	19.993	103.758	19.850	3.188	0.523
1293.000	740.934	80.006	19.993	103.749	19.852	2.988	0.533
1294.500	741.677	80.008	19.993	103.746	19.853	2.947	0.510
1296.000	742.482	80.008	19.993	103.750	19.851	3.075	0.519
1297.500	743.253	80.007	19.994	103.749	19.852	3.029	0.507
1298.000	743.514	80.008	19.995	103.727	19.854	2.890	0.551