File: 01_Data/Fiberglas_Insulation3A/MCC/Fiberglas_Insulation3A_MCC_30K_min_220218_R2.txt
Sample ID:	C:\MCC\MCC Cal\Test\Fiberglas_Insulation3A_MCC_30K_min_220218_R2.txt
Sample Weight (mg):	4.78
Heating Rate (C/s):	0.5
Combustor Temp (C):	900
N2 Flow Rate (cc/min):	80
O2 Flow Rate (cc/min):	20
Calibration File:	C:\MCC\MCC Cal\Coeff1 JN10440_30_210304.txt.txt
T Correction Coefficients:	0	1.024463	0
Time Shift (s):	14
*
Time (s)	Temperature (C)	N2 flow rate (cc/min)	O2 flow rate (cc/min)	Flow Rate (cc/min)	Oxygen (%)	HRR (W/g)	Heating rate (C/s)
0.000	113.134	80.004	19.997	103.689	19.966	-0.087	-0.030
2.000	113.131	80.004	19.995	103.697	19.963	0.101	0.010
4.000	113.161	80.003	19.997	103.686	19.960	0.349	0.034
6.000	113.131	80.004	19.993	103.690	19.958	0.441	-0.011
8.000	113.158	80.003	19.994	103.689	19.960	0.341	-0.019
10.000	113.170	80.005	19.995	103.696	19.959	0.395	0.014
12.000	113.186	80.005	19.993	103.700	19.951	0.932	0.018
14.000	113.167	80.006	19.993	103.729	19.949	1.076	-0.014
16.001	113.217	80.006	19.995	103.777	19.951	0.957	0.017
18.000	113.234	80.007	19.993	103.801	19.945	1.315	0.020
20.000	113.296	80.006	19.994	103.820	19.940	1.674	0.038
22.000	113.406	80.007	19.992	103.865	19.935	2.017	0.057
24.000	113.541	80.007	19.993	103.855	19.933	2.132	0.063
26.000	113.691	80.007	19.993	103.878	19.930	2.364	0.089
28.000	113.884	80.006	19.993	103.896	19.927	2.571	0.112
30.000	114.155	80.006	19.991	103.904	19.925	2.728	0.097
32.000	114.404	80.008	19.993	103.894	19.925	2.706	0.136
34.000	114.721	80.007	19.995	103.896	19.924	2.735	0.149
36.000	115.028	80.005	19.993	103.894	19.923	2.822	0.149
38.001	115.370	80.007	19.993	103.903	19.921	2.943	0.183
40.000	115.761	80.007	19.992	103.889	19.919	3.087	0.187
42.000	116.154	80.007	19.994	103.876	19.919	3.106	0.187
44.000	116.571	80.008	19.994	103.882	19.917	3.227	0.197
46.000	117.000	80.009	19.992	103.890	19.915	3.352	0.228
48.001	117.442	80.007	19.995	103.906	19.917	3.235	0.224
50.001	117.901	80.007	19.995	103.915	19.915	3.369	0.235
52.000	118.359	80.006	19.993	103.924	19.913	3.535	0.254
54.000	118.844	80.007	19.993	103.943	19.911	3.637	0.257
56.000	119.384	80.005	19.994	103.946	19.913	3.530	0.266
58.000	119.899	80.006	19.992	103.930	19.907	3.936	0.299
60.000	120.506	80.005	19.997	103.948	19.908	3.859	0.317
62.000	121.110	80.006	19.993	103.954	19.907	3.911	0.332
64.001	121.757	80.005	19.993	103.950	19.909	3.813	0.320
66.000	122.389	80.005	19.991	103.951	19.905	4.068	0.304
68.001	123.047	80.005	19.995	103.953	19.904	4.125	0.318
70.000	123.699	80.005	19.996	103.953	19.902	4.260	0.329
72.000	124.388	80.005	19.995	103.962	19.899	4.488	0.331
74.000	125.130	80.006	19.993	103.960	19.901	4.341	0.388
76.000	125.846	80.005	19.995	103.958	19.898	4.543	0.361
78.000	126.595	80.005	19.994	103.960	19.895	4.744	0.367
80.000	127.360	80.005	19.994	103.956	19.896	4.652	0.364
82.000	128.106	80.004	19.995	103.962	19.897	4.603	0.362
84.000	128.953	80.006	19.992	103.982	19.896	4.662	0.398
86.000	129.722	80.005	19.994	103.993	19.897	4.631	0.405
88.000	130.551	80.004	19.994	103.993	19.899	4.495	0.422
90.000	131.382	80.004	19.994	103.994	19.898	4.535	0.404
92.000	132.199	80.003	19.992	103.996	19.898	4.541	0.434
94.000	133.092	80.004	19.994	103.974	19.894	4.770	0.416
96.000	133.966	80.006	19.996	103.977	19.896	4.669	0.434
98.000	134.805	80.006	19.994	103.976	19.894	4.809	0.404
100.001	135.694	80.007	19.992	103.958	19.897	4.618	0.448
102.000	136.625	80.006	19.994	103.953	19.897	4.621	0.433
104.000	137.541	80.006	19.994	103.953	19.894	4.771	0.470
106.000	138.469	80.007	19.992	103.963	19.895	4.722	0.449
108.000	139.383	80.006	19.994	103.960	19.895	4.707	0.472
110.000	140.322	80.007	19.993	103.954	19.895	4.706	0.479
112.000	141.285	80.004	19.992	103.955	19.894	4.790	0.478
114.001	142.245	80.006	19.992	103.974	19.892	4.916	0.457
116.000	143.223	80.005	19.993	103.963	19.895	4.748	0.506
118.000	144.227	80.007	19.992	103.958	19.901	4.310	0.501
120.000	145.163	80.006	19.992	103.957	19.897	4.593	0.483
122.000	146.180	80.007	19.992	103.959	19.893	4.899	0.534
124.000	147.089	80.009	19.992	103.952	19.895	4.728	0.457
126.000	148.097	80.008	19.992	103.952	19.898	4.525	0.477
128.000	149.116	80.009	19.993	103.954	19.895	4.702	0.521
130.000	150.123	80.008	19.992	103.969	19.894	4.796	0.480
132.000	151.103	80.007	19.995	103.899	19.895	4.702	0.497
134.000	152.126	80.005	19.994	104.025	19.895	4.705	0.507
136.000	153.129	80.005	19.995	104.013	19.894	4.796	0.513
138.000	154.120	80.004	19.994	103.959	19.898	4.560	0.484
140.000	155.110	80.004	19.995	103.955	19.895	4.732	0.496
142.000	156.098	80.005	19.993	103.958	19.894	4.811	0.483
144.000	157.093	80.006	19.994	103.955	19.891	4.992	0.502
146.000	158.128	80.005	19.994	103.936	19.893	4.845	0.553
148.000	159.137	80.005	19.993	103.931	19.892	4.928	0.493
150.000	160.116	80.004	19.994	103.928	19.894	4.832	0.495
152.000	161.129	80.005	19.994	103.945	19.892	4.923	0.544
154.000	162.143	80.004	19.994	103.954	19.895	4.725	0.495
156.000	163.155	80.004	19.994	103.946	19.892	4.938	0.521
158.000	164.160	80.005	19.995	103.931	19.895	4.728	0.499
160.000	165.205	80.004	19.993	103.933	19.889	5.148	0.495
162.000	166.253	80.004	19.995	103.939	19.890	5.043	0.513
164.000	167.229	80.005	19.994	103.944	19.892	4.958	0.473
166.000	168.291	80.002	19.995	103.923	19.889	5.132	0.531
168.000	169.275	80.004	19.995	103.918	19.894	4.817	0.482
170.000	170.284	80.004	19.995	103.930	19.896	4.695	0.487
172.001	171.285	80.004	19.995	103.933	19.894	4.790	0.486
174.000	172.290	80.005	19.995	103.942	19.895	4.703	0.526
176.000	173.285	80.005	19.993	103.949	19.893	4.842	0.477
178.000	174.329	80.005	19.993	103.939	19.891	5.027	0.535
180.000	175.308	80.007	19.994	103.939	19.896	4.683	0.487
182.000	176.310	80.008	19.993	103.907	19.894	4.787	0.492
184.000	177.304	80.007	19.993	103.904	19.895	4.739	0.512
186.000	178.316	80.007	19.995	103.908	19.892	4.913	0.520
188.000	179.309	80.007	19.992	103.911	19.890	5.083	0.515
190.000	180.289	80.007	19.993	103.936	19.893	4.842	0.481
192.000	181.266	80.006	19.995	103.939	19.893	4.899	0.492
194.000	182.261	80.006	19.992	103.909	19.890	5.071	0.495
196.000	183.292	80.006	19.994	103.927	19.893	4.853	0.518
198.000	184.269	80.006	19.993	103.937	19.894	4.796	0.495
200.000	185.280	80.007	19.995	103.932	19.889	5.139	0.520
202.000	186.315	80.006	19.993	103.908	19.891	5.008	0.537
204.000	187.291	80.007	19.994	103.910	19.889	5.119	0.491
206.000	188.289	80.007	19.994	103.913	19.888	5.219	0.500
208.000	189.297	80.008	19.991	103.915	19.887	5.278	0.511
210.000	190.247	80.008	19.992	103.915	19.888	5.221	0.504
212.000	191.221	80.008	19.993	103.904	19.888	5.223	0.477
214.000	192.196	80.007	19.990	103.912	19.882	5.633	0.475
216.001	193.214	80.006	19.992	103.916	19.886	5.368	0.530
218.000	194.172	80.006	19.993	103.917	19.882	5.620	0.509
220.000	195.158	80.006	19.992	103.909	19.882	5.589	0.491
222.000	196.128	80.005	19.992	103.915	19.884	5.464	0.512
224.000	197.128	80.004	19.992	103.916	19.878	5.852	0.528
226.000	198.107	80.005	19.992	103.907	19.879	5.832	0.519
228.000	199.071	80.006	19.993	103.900	19.877	5.932	0.502
230.000	200.054	80.004	19.994	103.916	19.878	5.874	0.501
232.000	201.014	80.004	19.993	103.914	19.879	5.817	0.498
234.000	202.010	80.005	19.992	103.886	19.876	6.007	0.499
236.000	203.009	80.006	19.993	103.874	19.874	6.135	0.515
238.000	204.000	80.004	19.994	103.898	19.875	6.078	0.471
240.000	204.946	80.005	19.994	103.924	19.872	6.284	0.484
242.000	205.932	80.006	19.996	103.939	19.869	6.471	0.522
244.000	206.950	80.006	19.992	103.896	19.870	6.453	0.498
246.000	207.974	80.005	19.994	103.906	19.868	6.597	0.544
248.000	208.924	80.005	19.994	103.907	19.865	6.793	0.493
250.000	209.912	80.003	19.994	103.909	19.867	6.609	0.522
252.000	210.868	80.005	19.992	103.890	19.863	6.886	0.504
254.000	211.895	80.005	19.994	103.922	19.859	7.174	0.485
256.000	212.856	80.005	19.994	103.918	19.861	7.054	0.504
258.000	213.841	80.005	19.994	103.906	19.860	7.130	0.502
260.000	214.818	80.004	19.993	103.883	19.863	6.888	0.469
262.000	215.799	80.004	19.993	103.903	19.857	7.325	0.500
264.000	216.789	80.005	19.995	103.893	19.855	7.445	0.512
266.000	217.824	80.007	19.994	103.919	19.856	7.386	0.517
268.000	218.848	80.007	19.992	103.914	19.853	7.591	0.526
270.000	219.756	80.007	19.994	103.901	19.850	7.759	0.475
272.000	220.830	80.007	19.996	103.900	19.848	7.935	0.483
274.000	221.791	80.006	19.993	103.894	19.846	8.053	0.510
276.000	222.789	80.007	19.994	103.883	19.846	8.053	0.495
278.000	223.784	80.006	19.993	103.900	19.848	7.934	0.489
280.000	224.810	80.006	19.993	103.913	19.842	8.344	0.510
282.001	225.806	80.006	19.992	103.914	19.848	7.907	0.504
284.000	226.752	80.006	19.992	103.914	19.845	8.095	0.432
286.000	227.773	80.007	19.994	103.902	19.842	8.351	0.491
288.000	228.840	80.008	19.994	103.888	19.840	8.486	0.541
290.000	229.822	80.007	19.993	103.904	19.840	8.494	0.494
292.000	230.842	80.007	19.993	103.896	19.833	8.963	0.511
294.000	231.834	80.007	19.992	103.892	19.833	8.928	0.515
296.000	232.848	80.007	19.992	103.872	19.830	9.110	0.495
298.000	233.868	80.005	19.993	103.876	19.829	9.240	0.505
300.000	234.853	80.005	19.994	103.877	19.827	9.311	0.480
302.001	235.855	80.005	19.996	103.884	19.825	9.476	0.483
304.000	236.910	80.005	19.994	103.883	19.820	9.830	0.564
306.000	237.836	80.005	19.993	103.894	19.822	9.674	0.497
308.000	238.849	80.006	19.995	103.909	19.818	9.987	0.473
310.000	239.831	80.006	19.992	103.909	19.817	10.032	0.453
312.000	240.822	80.006	19.993	103.918	19.815	10.167	0.469
314.000	241.817	80.006	19.995	103.934	19.818	9.935	0.491
316.000	242.833	80.006	19.996	103.927	19.814	10.218	0.518
318.000	243.854	80.006	19.993	103.918	19.813	10.306	0.474
320.000	244.884	80.007	19.994	103.902	19.814	10.216	0.522
322.000	245.852	80.005	19.993	103.906	19.808	10.625	0.490
324.000	246.899	80.005	19.994	103.895	19.803	10.998	0.565
326.000	247.888	80.006	19.994	103.882	19.799	11.248	0.508
328.000	248.935	80.006	19.995	103.868	19.795	11.506	0.533
330.000	249.952	80.006	19.990	103.840	19.794	11.609	0.516
332.000	250.966	80.007	19.995	103.874	19.790	11.856	0.503
334.000	251.983	80.005	19.994	103.895	19.786	12.134	0.494
336.000	252.991	80.005	19.993	103.876	19.786	12.125	0.489
338.000	253.960	80.005	19.991	103.955	19.784	12.252	0.483
340.000	255.017	80.005	19.994	103.912	19.779	12.625	0.515
342.000	255.989	80.006	19.994	103.902	19.778	12.700	0.536
344.000	256.991	80.005	19.994	103.914	19.778	12.662	0.514
346.000	257.957	80.007	19.993	103.918	19.774	12.925	0.503
348.000	258.981	80.006	19.994	103.913	19.773	13.006	0.499
350.000	259.979	80.007	19.994	103.904	19.768	13.328	0.474
352.000	260.944	80.006	19.994	103.897	19.763	13.654	0.505
354.000	261.921	80.005	19.994	103.910	19.764	13.619	0.459
356.000	262.937	80.005	19.994	103.917	19.755	14.195	0.517
358.000	263.964	80.006	19.994	103.915	19.760	13.866	0.537
360.000	264.980	80.005	19.995	103.917	19.754	14.304	0.527
362.000	265.939	80.006	19.995	103.914	19.751	14.498	0.456
364.000	266.962	80.006	19.994	103.903	19.748	14.715	0.525
366.000	267.966	80.006	19.994	103.903	19.743	15.067	0.531
368.000	268.906	80.007	19.994	103.881	19.742	15.099	0.464
370.000	269.896	80.008	19.993	103.893	19.737	15.416	0.463
372.000	270.971	80.009	19.991	103.892	19.732	15.796	0.563
374.000	271.954	80.008	19.993	103.906	19.728	16.032	0.519
376.000	272.927	80.008	19.994	103.904	19.723	16.380	0.499
378.000	273.915	80.008	19.993	103.898	19.718	16.717	0.490
380.000	274.910	80.006	19.993	103.903	19.718	16.753	0.478
382.000	275.931	80.005	19.993	103.915	19.712	17.141	0.506
384.000	276.894	80.004	19.993	103.913	19.708	17.422	0.482
386.000	277.855	80.005	19.994	103.914	19.702	17.810	0.485
388.000	278.891	80.005	19.995	103.917	19.700	17.979	0.517
390.000	279.856	80.006	19.994	103.929	19.696	18.229	0.501
392.000	280.850	80.006	19.994	103.920	19.690	18.640	0.506
394.000	281.843	80.006	19.994	103.922	19.682	19.169	0.473
396.000	282.815	80.006	19.994	103.915	19.679	19.394	0.503
398.000	283.807	80.006	19.994	103.934	19.674	19.716	0.481
400.000	284.788	80.005	19.995	103.934	19.666	20.242	0.509
402.000	285.785	80.006	19.994	103.948	19.665	20.362	0.486
404.000	286.757	80.005	19.994	103.943	19.658	20.806	0.491
406.000	287.731	80.004	19.993	103.941	19.653	21.123	0.484
408.000	288.751	80.005	19.993	103.949	19.649	21.459	0.506
410.000	289.737	80.005	19.993	103.954	19.641	21.938	0.501
412.000	290.730	80.005	19.992	103.949	19.632	22.580	0.504
414.000	291.706	80.004	19.993	103.951	19.626	22.986	0.490
416.000	292.696	80.004	19.994	103.958	19.620	23.366	0.473
418.000	293.710	80.004	19.993	103.954	19.614	23.796	0.478
420.000	294.684	80.004	19.994	103.956	19.609	24.164	0.490
422.000	295.714	80.005	19.994	103.959	19.600	24.722	0.497
424.000	296.700	80.003	19.993	103.960	19.595	25.092	0.491
426.000	297.699	80.004	19.994	103.962	19.584	25.834	0.489
428.000	298.736	80.006	19.993	103.981	19.578	26.260	0.529
430.000	299.720	80.006	19.993	103.989	19.572	26.673	0.502
432.000	300.758	80.006	19.994	103.975	19.564	27.207	0.527
434.000	301.765	80.006	19.994	103.983	19.555	27.790	0.512
436.000	302.794	80.006	19.995	103.985	19.549	28.202	0.529
438.000	303.774	80.006	19.993	103.989	19.538	28.939	0.512
440.000	304.762	80.006	19.994	103.991	19.530	29.492	0.479
442.000	305.780	80.006	19.994	103.993	19.522	30.048	0.500
444.000	306.768	80.007	19.994	103.991	19.513	30.698	0.499
446.000	307.802	80.006	19.995	103.995	19.499	31.604	0.517
448.000	308.830	80.007	19.994	103.988	19.496	31.852	0.526
450.000	309.759	80.006	19.994	103.987	19.483	32.709	0.447
452.000	310.815	80.007	19.993	103.993	19.473	33.376	0.494
454.000	311.905	80.007	19.994	103.996	19.464	33.987	0.537
456.000	312.892	80.005	19.994	104.010	19.454	34.699	0.525
458.000	313.940	80.007	19.994	104.010	19.442	35.530	0.490
460.000	314.946	80.007	19.995	104.024	19.427	36.487	0.524
462.001	315.974	80.005	19.994	104.014	19.420	37.004	0.532
464.000	316.979	80.005	19.994	104.008	19.411	37.588	0.519
466.000	317.931	80.005	19.994	104.011	19.397	38.588	0.478
468.000	319.048	80.005	19.994	104.031	19.386	39.298	0.491
470.000	319.997	80.005	19.993	104.030	19.376	39.963	0.528
472.000	321.012	80.006	19.993	104.035	19.362	40.911	0.573
474.000	321.918	80.005	19.994	104.033	19.348	41.870	0.502
476.000	323.012	80.004	19.993	104.035	19.337	42.611	0.553
478.000	324.140	80.004	19.992	104.037	19.325	43.495	0.510
480.000	325.037	80.004	19.993	104.043	19.310	44.499	0.474
482.000	326.067	80.006	19.994	104.055	19.293	45.607	0.494
484.000	327.142	80.005	19.992	104.069	19.281	46.460	0.486
486.000	328.153	80.005	19.992	104.072	19.263	47.644	0.526
488.000	329.185	80.004	19.994	104.075	19.249	48.631	0.533
490.000	330.192	80.005	19.994	104.088	19.233	49.752	0.485
492.000	331.173	80.006	19.993	104.093	19.214	51.002	0.488
494.000	332.189	80.004	19.994	104.077	19.200	51.960	0.496
496.000	333.256	80.004	19.994	104.073	19.184	53.061	0.523
498.000	334.242	80.004	19.994	104.081	19.166	54.278	0.478
500.000	335.278	80.005	19.994	104.097	19.153	55.171	0.502
502.000	336.222	80.005	19.994	104.089	19.133	56.552	0.474
504.000	337.266	80.005	19.994	104.076	19.113	57.894	0.485
506.000	338.280	80.006	19.993	104.095	19.098	58.943	0.507
508.000	339.322	80.005	19.993	104.108	19.076	60.386	0.485
510.000	340.272	80.007	19.993	104.127	19.058	61.656	0.479
512.000	341.334	80.008	19.994	104.155	19.042	62.719	0.562
514.000	342.379	80.007	19.993	104.095	19.023	64.036	0.526
516.001	343.354	80.007	19.993	104.120	19.005	65.254	0.503
518.000	344.300	80.006	19.994	104.131	18.986	66.516	0.472
520.000	345.287	80.006	19.993	104.123	18.966	67.890	0.455
522.000	346.306	80.008	19.994	104.146	18.952	68.864	0.524
524.000	347.299	80.006	19.994	104.151	18.937	69.892	0.517
526.000	348.331	80.007	19.994	104.164	18.919	71.112	0.517
528.000	349.360	80.006	19.994	104.136	18.903	72.174	0.474
530.000	350.352	80.007	19.993	104.137	18.890	73.081	0.498
532.000	351.350	80.007	19.993	104.144	18.877	73.923	0.479
534.000	352.356	80.008	19.993	104.147	18.869	74.491	0.502
536.000	353.415	80.008	19.994	104.149	18.856	75.358	0.536
538.000	354.394	80.008	19.991	104.138	18.849	75.816	0.508
540.000	355.419	80.007	19.994	104.143	18.844	76.179	0.504
542.000	356.421	80.008	19.993	104.152	18.839	76.458	0.490
544.000	357.441	80.006	19.994	104.148	18.834	76.788	0.501
546.000	358.459	80.005	19.994	104.125	18.837	76.627	0.495
548.000	359.458	80.005	19.994	104.121	18.838	76.559	0.513
550.000	360.484	80.004	19.995	104.113	18.846	75.997	0.521
552.000	361.519	80.004	19.994	104.099	18.852	75.539	0.527
554.000	362.572	80.004	19.995	104.085	18.869	74.406	0.486
556.000	363.539	80.003	19.996	104.074	18.885	73.296	0.480
558.000	364.580	80.005	19.994	104.070	18.904	71.972	0.534
560.000	365.579	80.005	19.994	104.041	18.929	70.280	0.513
562.000	366.596	80.005	19.994	104.030	18.954	68.591	0.504
564.000	367.592	80.006	19.994	104.007	18.984	66.562	0.496
566.000	368.643	80.006	19.993	103.997	19.018	64.236	0.501
568.000	369.662	80.006	19.993	103.984	19.050	62.030	0.503
570.000	370.696	80.006	19.994	103.960	19.090	59.324	0.514
572.000	371.686	80.006	19.993	103.958	19.123	57.064	0.509
574.000	372.745	80.006	19.993	103.948	19.167	54.107	0.539
576.000	373.773	80.006	19.993	103.944	19.205	51.494	0.527
578.000	374.811	80.005	19.993	103.923	19.245	48.813	0.517
580.000	375.808	80.004	19.993	103.893	19.288	45.836	0.488
582.000	376.808	80.004	19.994	103.875	19.327	43.226	0.525
584.000	377.822	80.005	19.994	103.863	19.366	40.575	0.536
586.000	378.804	80.006	19.993	103.855	19.403	38.076	0.485
588.000	379.869	80.006	19.993	103.841	19.436	35.833	0.528
590.000	380.873	80.006	19.994	103.838	19.464	33.931	0.480
592.000	381.879	80.006	19.993	103.834	19.494	31.883	0.476
594.000	382.889	80.007	19.993	103.835	19.519	30.189	0.484
596.000	383.901	80.007	19.992	103.835	19.541	28.733	0.545
598.000	384.937	80.006	19.992	103.835	19.560	27.436	0.498
600.000	385.955	80.007	19.993	103.845	19.573	26.550	0.503
602.000	386.949	80.006	19.993	103.837	19.584	25.779	0.470
604.000	387.953	80.006	19.993	103.841	19.596	25.015	0.495
606.001	388.960	80.006	19.994	103.855	19.603	24.553	0.513
608.000	389.942	80.006	19.993	103.841	19.608	24.193	0.504
610.000	390.967	80.007	19.993	103.839	19.610	24.076	0.523
612.000	391.971	80.007	19.993	103.840	19.611	24.002	0.505
614.000	393.009	80.007	19.993	103.839	19.613	23.869	0.484
616.000	394.006	80.007	19.993	103.840	19.607	24.235	0.499
618.000	395.076	80.007	19.992	103.837	19.606	24.336	0.533
620.000	396.082	80.006	19.992	103.839	19.604	24.461	0.495
622.000	397.116	80.007	19.993	103.837	19.606	24.306	0.515
624.000	398.099	80.009	19.994	103.837	19.602	24.595	0.497
626.000	399.104	80.007	19.994	103.835	19.595	25.039	0.535
628.000	400.153	80.006	19.994	103.837	19.592	25.266	0.535
630.000	401.106	80.007	19.994	103.835	19.590	25.395	0.472
632.000	402.167	80.005	19.994	103.834	19.589	25.493	0.522
634.000	403.204	80.006	19.993	103.843	19.584	25.789	0.515
636.000	404.206	80.005	19.995	103.856	19.583	25.898	0.527
638.000	405.198	80.005	19.993	103.863	19.577	26.269	0.499
640.000	406.159	80.005	19.994	103.849	19.575	26.389	0.480
642.000	407.228	80.005	19.993	103.848	19.569	26.841	0.552
644.000	408.274	80.006	19.994	103.864	19.562	27.282	0.518
646.000	409.278	80.006	19.995	103.855	19.569	26.845	0.517
648.000	410.289	80.005	19.995	103.854	19.555	27.779	0.522
650.000	411.362	80.005	19.996	103.841	19.549	28.207	0.545
652.000	412.351	80.005	19.995	103.835	19.541	28.719	0.523
654.000	413.377	80.005	19.995	103.835	19.541	28.705	0.519
656.000	414.362	80.006	19.995	103.824	19.532	29.296	0.485
658.000	415.331	80.005	19.994	103.833	19.531	29.383	0.489
660.000	416.356	80.005	19.995	103.838	19.524	29.886	0.498
662.000	417.418	80.006	19.994	103.852	19.514	30.544	0.519
664.000	418.389	80.004	19.995	103.868	19.514	30.593	0.517
666.000	419.502	80.004	19.994	103.834	19.505	31.184	0.555
668.000	420.507	80.005	19.993	103.822	19.501	31.430	0.514
670.001	421.585	80.006	19.993	103.844	19.493	31.952	0.518
672.000	422.545	80.006	19.993	103.889	19.489	32.277	0.490
674.000	423.645	80.008	19.993	103.854	19.482	32.698	0.552
676.000	424.650	80.008	19.993	103.859	19.479	32.930	0.522
678.000	425.714	80.008	19.993	103.815	19.469	33.577	0.543
680.000	426.718	80.008	19.994	103.833	19.464	33.924	0.512
682.000	427.750	80.008	19.993	103.848	19.457	34.409	0.502
684.000	428.761	80.006	19.993	103.839	19.449	34.935	0.535
686.001	429.805	80.007	19.993	103.841	19.443	35.340	0.531
688.000	430.806	80.007	19.994	103.834	19.440	35.585	0.485
690.000	431.804	80.005	19.994	103.838	19.435	35.881	0.503
692.000	432.841	80.007	19.994	103.839	19.428	36.344	0.498
694.000	433.880	80.006	19.993	103.846	19.420	36.878	0.522
696.000	434.905	80.007	19.993	103.841	19.418	37.063	0.519
698.000	435.942	80.008	19.993	103.822	19.413	37.433	0.514
700.000	436.931	80.011	19.993	103.795	19.406	37.846	0.501
702.000	437.953	80.010	19.993	103.811	19.403	38.084	0.494
704.000	438.964	80.009	19.994	103.808	19.392	38.803	0.503
706.000	439.931	80.007	19.992	103.819	19.392	38.849	0.473
708.000	440.943	80.008	19.992	103.861	19.385	39.264	0.495
710.000	441.950	80.008	19.993	103.832	19.384	39.343	0.509
712.000	442.923	80.006	19.993	103.809	19.382	39.514	0.494
714.000	443.939	80.006	19.994	103.860	19.380	39.615	0.523
716.000	444.873	80.006	19.994	103.841	19.376	39.874	0.474
718.000	445.870	80.005	19.992	103.845	19.376	39.889	0.484
720.000	446.830	80.007	19.995	103.833	19.374	40.065	0.475
722.000	447.859	80.005	19.993	103.827	19.373	40.063	0.487
724.000	448.829	80.007	19.994	103.819	19.371	40.250	0.500
726.000	449.776	80.006	19.995	103.831	19.373	40.068	0.471
728.000	450.787	80.006	19.994	103.805	19.375	39.970	0.520
730.000	451.761	80.007	19.994	103.817	19.374	39.998	0.481
732.000	452.776	80.007	19.993	103.814	19.374	40.011	0.494
734.000	453.710	80.007	19.994	103.799	19.374	40.014	0.488
736.000	454.801	80.006	19.992	103.805	19.379	39.721	0.535
738.000	455.756	80.006	19.993	103.807	19.380	39.612	0.477
740.000	456.735	80.005	19.993	103.815	19.386	39.240	0.477
742.000	457.710	80.006	19.994	103.816	19.393	38.778	0.477
744.000	458.758	80.003	19.992	103.826	19.403	38.055	0.511
746.000	459.751	80.004	19.996	103.832	19.407	37.819	0.480
748.000	460.758	80.022	20.002	103.837	19.413	37.390	0.474
750.000	461.756	80.022	20.000	103.842	19.418	37.048	0.509
752.000	462.783	80.023	20.002	103.837	19.428	36.387	0.492
754.000	463.777	80.024	20.003	103.842	19.438	35.692	0.492
756.000	464.813	80.024	20.001	103.842	19.444	35.276	0.513
758.000	465.815	80.026	20.002	103.845	19.452	34.771	0.526
760.000	466.857	80.014	19.996	103.851	19.460	34.210	0.510
762.000	467.879	80.007	19.993	103.839	19.472	33.372	0.540
764.000	468.842	80.006	19.994	103.836	19.480	32.843	0.488
766.000	469.893	80.007	19.992	103.818	19.493	31.981	0.524
768.000	470.923	80.007	19.993	103.832	19.503	31.269	0.530
770.000	471.927	80.006	19.993	103.827	19.513	30.625	0.509
772.000	472.949	80.006	19.993	103.810	19.525	29.817	0.520
774.000	473.928	80.006	19.994	103.822	19.535	29.132	0.508
776.000	475.009	80.006	19.993	103.827	19.546	28.367	0.517
778.000	476.034	80.006	19.992	103.833	19.559	27.503	0.514
780.000	477.032	80.007	19.994	103.835	19.572	26.611	0.512
782.000	478.062	80.007	19.993	103.842	19.586	25.664	0.510
784.000	479.065	80.008	19.993	103.850	19.597	24.932	0.490
786.000	480.100	80.007	19.993	103.837	19.609	24.134	0.512
788.000	481.127	80.008	19.993	103.833	19.621	23.317	0.507
790.000	482.170	80.008	19.994	103.833	19.625	23.031	0.499
792.000	483.207	80.007	19.993	103.822	19.631	22.592	0.490
794.000	484.230	80.008	19.994	103.808	19.642	21.850	0.507
796.000	485.290	80.007	19.992	103.809	19.649	21.423	0.528
798.000	486.368	80.006	19.993	103.818	19.659	20.724	0.532
800.000	487.388	80.006	19.993	103.811	19.667	20.214	0.496
802.000	488.411	80.007	19.993	103.832	19.671	19.930	0.503
804.000	489.468	80.006	19.994	103.839	19.683	19.073	0.516
806.000	490.535	80.005	19.993	103.840	19.689	18.701	0.534
808.000	491.553	80.005	19.992	103.847	19.693	18.447	0.524
810.000	492.547	80.005	19.992	103.838	19.700	17.939	0.505
812.000	493.593	80.008	19.993	103.838	19.706	17.512	0.512
814.000	494.653	80.007	19.993	103.835	19.715	16.958	0.507
816.000	495.725	80.005	19.993	103.862	19.717	16.815	0.559
818.000	496.757	80.008	19.993	103.837	19.721	16.525	0.538
820.000	497.773	80.007	19.993	103.833	19.726	16.214	0.521
822.000	498.829	80.005	19.994	103.842	19.730	15.929	0.515
824.000	499.837	80.005	19.993	103.839	19.737	15.448	0.529
826.000	500.893	80.006	19.994	103.816	19.737	15.414	0.546
828.000	501.891	80.005	19.994	103.830	19.742	15.089	0.513
830.000	502.905	80.006	19.994	103.852	19.747	14.789	0.485
832.000	503.929	80.004	19.993	103.831	19.745	14.900	0.496
834.000	504.932	80.006	19.994	103.836	19.750	14.569	0.516
836.000	505.930	80.006	19.993	103.836	19.754	14.304	0.482
838.000	507.007	80.007	19.994	103.836	19.752	14.413	0.558
840.000	507.943	80.005	19.994	103.837	19.756	14.180	0.474
842.000	509.019	80.008	19.994	103.839	19.760	13.846	0.534
844.000	510.026	80.007	19.994	103.842	19.764	13.631	0.533
846.000	511.027	80.006	19.994	103.833	19.769	13.254	0.486
848.000	512.061	80.008	19.994	103.832	19.764	13.638	0.509
850.000	513.014	80.005	19.995	103.830	19.764	13.623	0.498
852.000	514.053	80.007	19.993	103.829	19.765	13.517	0.501
854.000	515.088	80.007	19.994	103.831	19.765	13.554	0.512
856.000	516.108	80.008	19.995	103.816	19.770	13.202	0.489
858.000	517.145	80.006	19.994	103.834	19.767	13.408	0.518
860.000	518.170	80.009	19.994	103.834	19.771	13.140	0.536
862.000	519.178	80.006	19.994	103.838	19.770	13.226	0.519
864.000	520.158	80.010	19.993	103.870	19.774	12.951	0.471
866.000	521.217	80.008	19.993	103.851	19.773	13.001	0.529
868.000	522.233	80.007	19.992	103.818	19.771	13.137	0.528
870.000	523.237	80.006	19.993	103.823	19.775	12.893	0.508
872.001	524.278	80.009	19.993	103.844	19.778	12.634	0.513
874.000	525.283	80.007	19.992	103.840	19.776	12.819	0.521
876.000	526.316	80.006	19.992	103.853	19.778	12.657	0.525
878.000	527.328	80.007	19.993	103.865	19.777	12.714	0.494
880.000	528.391	80.006	19.993	103.852	19.775	12.857	0.523
882.000	529.374	80.004	19.993	103.838	19.780	12.548	0.487
884.000	530.387	80.005	19.994	103.829	19.780	12.548	0.483
886.000	531.467	80.007	19.993	103.829	19.781	12.459	0.544
888.000	532.491	80.006	19.993	103.835	19.778	12.667	0.516
890.000	533.496	80.006	19.992	103.834	19.777	12.749	0.522
892.000	534.504	80.005	19.993	103.831	19.780	12.513	0.488
894.000	535.548	80.005	19.992	103.832	19.780	12.547	0.524
896.000	536.595	80.006	19.992	103.828	19.782	12.383	0.527
898.000	537.612	80.007	19.992	103.843	19.783	12.308	0.521
900.000	538.592	80.007	19.993	103.863	19.786	12.124	0.507
902.000	539.643	80.007	19.993	103.871	19.778	12.690	0.507
904.000	540.673	80.005	19.992	103.844	19.781	12.463	0.502
906.000	541.639	80.006	19.993	103.834	19.783	12.304	0.482
908.000	542.707	80.006	19.993	103.835	19.782	12.362	0.501
910.000	543.761	80.005	19.993	103.843	19.782	12.389	0.540
912.000	544.780	80.007	19.994	103.840	19.779	12.581	0.529
914.000	545.783	80.004	19.993	103.830	19.782	12.410	0.546
916.000	546.821	80.006	19.994	103.825	19.778	12.632	0.515
918.000	547.853	80.006	19.993	103.840	19.780	12.553	0.519
920.000	548.933	80.006	19.995	103.842	19.777	12.694	0.550
922.000	549.910	80.006	19.994	103.829	19.781	12.479	0.521
924.000	550.957	80.007	19.994	103.825	19.782	12.370	0.537
926.000	552.009	80.007	19.993	103.832	19.777	12.756	0.528
928.000	553.025	80.008	19.993	103.833	19.780	12.542	0.492
930.000	554.078	80.008	19.993	103.832	19.783	12.307	0.546
932.000	555.154	80.008	19.993	103.831	19.782	12.412	0.545
934.000	556.209	80.008	19.993	103.833	19.783	12.347	0.539
936.000	557.229	80.006	19.994	103.833	19.780	12.535	0.518
938.000	558.228	80.005	19.993	103.836	19.780	12.514	0.499
940.000	559.308	80.006	19.994	103.837	19.778	12.677	0.516
942.000	560.357	80.008	19.994	103.836	19.776	12.772	0.549
944.000	561.401	80.006	19.994	103.845	19.778	12.636	0.535
946.000	562.444	80.006	19.995	103.838	19.781	12.470	0.536
948.000	563.482	80.007	19.994	103.836	19.787	12.029	0.503
950.000	564.471	80.008	19.993	103.838	19.780	12.527	0.503
952.000	565.529	80.008	19.993	103.837	19.776	12.771	0.505
954.000	566.589	80.008	19.993	103.834	19.786	12.084	0.509
956.000	567.593	80.007	19.993	103.833	19.781	12.486	0.493
958.000	568.624	80.007	19.991	103.838	19.784	12.276	0.526
960.000	569.681	80.006	19.993	103.835	19.786	12.129	0.554
962.000	570.697	80.007	19.994	103.840	19.783	12.310	0.504
964.000	571.751	80.006	19.994	103.838	19.785	12.211	0.505
966.000	572.810	80.006	19.993	103.837	19.787	12.063	0.504
968.000	573.854	80.007	19.993	103.836	19.787	12.018	0.540
970.000	574.914	80.008	19.994	103.852	19.789	11.914	0.502
972.000	575.972	80.007	19.994	103.827	19.787	12.045	0.535
974.000	576.996	80.007	19.994	103.831	19.782	12.364	0.509
976.000	578.053	80.005	19.994	103.821	19.785	12.215	0.484
978.000	579.071	80.004	19.993	103.809	19.781	12.435	0.531
980.000	580.106	80.006	19.993	103.829	19.779	12.568	0.504
982.000	581.186	80.006	19.993	103.847	19.781	12.474	0.528
984.000	582.182	80.007	19.994	103.838	19.781	12.430	0.506
986.000	583.205	80.007	19.993	103.830	19.781	12.482	0.517
988.000	584.194	80.007	19.993	103.836	19.784	12.274	0.505
990.000	585.234	80.007	19.993	103.835	19.780	12.522	0.504
992.000	586.232	80.006	19.992	103.838	19.779	12.607	0.497
994.000	587.268	80.007	19.994	103.836	19.784	12.238	0.522
996.000	588.310	80.007	19.993	103.815	19.790	11.824	0.523
998.000	589.312	80.006	19.992	103.824	19.785	12.184	0.513
1000.000	590.367	80.006	19.994	103.817	19.777	12.741	0.500
1002.000	591.347	80.007	19.994	103.825	19.777	12.734	0.501
1004.000	592.413	80.006	19.993	103.830	19.778	12.646	0.538
1006.000	593.414	80.008	19.993	103.825	19.781	12.485	0.502
1008.000	594.494	80.008	19.994	103.817	19.780	12.518	0.537
1010.000	595.509	80.007	19.993	103.832	19.778	12.651	0.516
1012.000	596.517	80.007	19.993	103.837	19.778	12.679	0.512
1014.000	597.519	80.009	19.994	103.839	19.779	12.600	0.510
1016.000	598.520	80.007	19.994	103.839	19.773	13.007	0.505
1018.000	599.563	80.006	19.993	103.835	19.780	12.547	0.517
1020.000	600.566	80.006	19.995	103.834	19.775	12.843	0.509
1022.001	601.556	80.008	19.995	103.836	19.779	12.604	0.491
1024.000	602.587	80.006	19.993	103.827	19.776	12.763	0.500
1026.001	603.606	80.007	19.994	103.837	19.774	12.949	0.497
1028.001	604.616	80.006	19.993	103.832	19.774	12.944	0.512
1030.000	605.624	80.007	19.993	103.834	19.776	12.762	0.509
1032.000	606.659	80.008	19.993	103.833	19.776	12.775	0.520
1034.000	607.629	80.008	19.993	103.832	19.771	13.110	0.495
1036.000	608.675	80.008	19.994	103.832	19.772	13.041	0.536
1038.000	609.698	80.008	19.993	103.833	19.775	12.895	0.535
1040.000	610.688	80.007	19.995	103.827	19.775	12.868	0.497
1042.001	611.684	80.008	19.993	103.824	19.775	12.836	0.508
1044.000	612.691	80.008	19.994	103.816	19.776	12.790	0.513
1046.000	613.717	80.007	19.995	103.824	19.775	12.857	0.514
1048.000	614.753	80.005	19.993	103.834	19.778	12.630	0.532
1050.001	615.767	80.006	19.993	103.854	19.775	12.841	0.546
1052.001	616.766	80.007	19.994	103.853	19.775	12.883	0.509
1054.000	617.803	80.006	19.994	103.830	19.773	13.008	0.543
1056.000	618.763	80.007	19.995	103.825	19.776	12.782	0.505
1058.000	619.738	80.007	19.993	103.831	19.777	12.728	0.485
1060.001	620.764	80.007	19.994	103.834	19.769	13.244	0.480
1062.000	621.725	80.006	19.993	103.833	19.771	13.112	0.541
1064.000	622.783	80.007	19.992	103.835	19.772	13.041	0.528
1066.000	623.795	80.006	19.993	103.842	19.771	13.113	0.497
1068.000	624.784	80.007	19.992	103.837	19.770	13.173	0.495
1070.000	625.852	80.007	19.994	103.836	19.769	13.295	0.502
1072.001	626.835	80.008	19.994	103.843	19.771	13.142	0.526
1074.000	627.769	80.008	19.994	103.841	19.772	13.054	0.450
1076.000	628.882	80.007	19.993	103.840	19.773	12.985	0.529
1078.000	629.862	80.006	19.992	103.837	19.773	12.968	0.487
1080.000	630.912	80.007	19.994	103.838	19.772	13.036	0.529
1082.000	631.935	80.005	19.993	103.837	19.774	12.945	0.484
1084.001	632.949	80.005	19.994	103.838	19.771	13.101	0.506
1086.000	634.031	80.006	19.993	103.840	19.766	13.479	0.555
1088.000	635.068	80.007	19.993	103.839	19.768	13.358	0.548
1090.001	636.120	80.008	19.993	103.845	19.761	13.824	0.515
1092.000	637.222	80.007	19.993	103.843	19.760	13.900	0.552
1094.000	638.236	80.009	19.993	103.840	19.767	13.432	0.538
1096.001	639.257	80.008	19.992	103.862	19.765	13.548	0.499
1098.001	640.290	80.008	19.993	103.868	19.771	13.151	0.531
1100.001	641.332	80.010	19.993	103.864	19.766	13.476	0.513
1102.000	642.281	80.007	19.992	103.865	19.769	13.277	0.461
1104.000	643.319	80.008	19.992	103.860	19.763	13.697	0.504
1106.000	644.366	80.008	19.994	103.860	19.765	13.521	0.520
1108.000	645.381	80.006	19.992	103.855	19.765	13.574	0.522
1110.000	646.442	80.008	19.994	103.865	19.768	13.315	0.538
1112.000	647.463	80.006	19.993	103.859	19.769	13.255	0.501
1114.000	648.496	80.007	19.993	103.850	19.764	13.617	0.505
1116.000	649.501	80.007	19.993	103.847	19.760	13.881	0.505
1118.000	650.503	80.010	19.993	103.848	19.762	13.743	0.491
1120.000	651.590	80.009	19.993	103.843	19.761	13.792	0.517
1122.001	652.614	80.010	19.993	103.843	19.761	13.832	0.514
1124.000	653.654	80.011	19.993	103.858	19.762	13.742	0.523
1126.001	654.684	80.008	19.994	103.854	19.760	13.863	0.528
1128.000	655.683	80.009	19.994	103.874	19.761	13.821	0.509
1130.001	656.694	80.008	19.993	103.856	19.756	14.179	0.480
1132.000	657.734	80.006	19.993	103.860	19.759	13.950	0.535
1134.000	658.759	80.005	19.993	103.881	19.758	14.002	0.541
1136.000	659.801	80.007	19.995	103.905	19.760	13.913	0.525
1138.001	660.776	80.005	19.992	103.885	19.761	13.828	0.490
1140.000	661.790	80.005	19.994	103.877	19.755	14.222	0.510
1142.001	662.835	80.005	19.995	103.880	19.760	13.916	0.515
1144.000	663.831	80.006	19.994	103.895	19.756	14.179	0.498
1146.000	664.860	80.007	19.994	103.892	19.757	14.115	0.536
1148.000	665.875	80.005	19.993	103.894	19.750	14.552	0.503
1150.000	666.905	80.005	19.994	103.895	19.753	14.352	0.512
1152.000	667.940	80.005	19.993	103.911	19.753	14.381	0.534
1154.000	668.935	80.006	19.993	103.909	19.752	14.396	0.516
1156.000	669.939	80.006	19.994	103.870	19.750	14.560	0.497
1158.000	670.938	80.005	19.992	103.883	19.750	14.589	0.516
1160.001	671.925	80.006	19.993	103.893	19.745	14.923	0.508
1162.000	672.938	80.006	19.993	103.891	19.748	14.702	0.475
1164.000	673.975	80.007	19.993	103.890	19.747	14.772	0.511
1166.001	675.002	80.007	19.994	103.882	19.742	15.084	0.544
1168.000	675.990	80.008	19.993	103.901	19.745	14.875	0.527
1170.000	677.002	80.006	19.993	103.903	19.740	15.217	0.507
1172.000	678.028	80.007	19.994	103.902	19.742	15.140	0.494
1174.000	679.032	80.008	19.993	103.896	19.739	15.316	0.510
1176.000	680.064	80.007	19.993	103.905	19.745	14.879	0.502
1178.000	681.040	80.008	19.994	103.911	19.749	14.657	0.489
1180.000	682.058	80.008	19.994	103.911	19.743	15.049	0.537
1182.001	683.091	80.008	19.994	103.912	19.745	14.895	0.523
1184.001	684.083	80.008	19.993	103.921	19.743	15.025	0.523
1186.000	685.078	80.006	19.992	103.916	19.741	15.164	0.505
1188.000	686.106	80.009	19.994	103.917	19.743	15.047	0.486
1190.000	687.137	80.009	19.994	103.924	19.741	15.186	0.531
1192.000	688.135	80.007	19.993	103.910	19.739	15.327	0.486
1194.001	689.145	80.009	19.992	103.909	19.740	15.241	0.503
1196.000	690.140	80.009	19.992	103.921	19.739	15.343	0.528
1198.000	691.119	80.008	19.992	103.923	19.739	15.303	0.498
1200.000	692.112	80.007	19.993	103.921	19.741	15.204	0.448
1202.000	693.154	80.008	19.993	103.936	19.737	15.478	0.501
1204.001	694.159	80.008	19.993	103.951	19.737	15.474	0.505
1206.000	695.178	80.008	19.992	103.952	19.736	15.491	0.496
1208.000	696.176	80.009	19.993	103.951	19.735	15.583	0.486
1210.000	697.182	80.008	19.993	103.946	19.731	15.842	0.512
1212.000	698.265	80.007	19.993	103.939	19.737	15.464	0.515
1214.001	699.294	80.007	19.993	103.936	19.733	15.733	0.529
1216.000	700.312	80.007	19.994	103.953	19.732	15.823	0.517
1218.001	701.317	80.007	19.994	103.952	19.731	15.842	0.501
1220.000	702.331	80.008	19.995	103.950	19.729	15.977	0.505
1222.000	703.389	80.005	19.993	103.952	19.729	16.001	0.551
1224.001	704.399	80.006	19.993	103.944	19.730	15.935	0.526
1226.000	705.366	80.007	19.993	103.947	19.727	16.103	0.527
1228.000	706.395	80.006	19.992	103.950	19.726	16.193	0.491
1230.000	707.436	80.006	19.993	103.949	19.724	16.333	0.499
1232.001	708.487	80.006	19.993	103.937	19.726	16.201	0.527
1234.000	709.490	80.007	19.994	103.949	19.725	16.258	0.478
1236.000	710.506	80.006	19.994	103.935	19.729	15.970	0.528
1238.000	711.502	80.006	19.994	103.943	19.730	15.934	0.476
1240.001	712.542	80.006	19.994	103.916	19.726	16.165	0.528
1242.001	713.568	80.005	19.995	103.917	19.727	16.114	0.523
1244.000	714.614	80.006	19.993	103.914	19.728	16.022	0.527
1246.001	715.621	80.006	19.994	103.906	19.730	15.911	0.545
1248.000	716.644	80.006	19.994	103.891	19.729	16.006	0.489
1250.000	717.649	80.007	19.995	103.885	19.733	15.728	0.518
1252.000	718.676	80.008	19.993	103.879	19.736	15.525	0.518
1254.000	719.724	80.007	19.994	103.884	19.734	15.668	0.508
1256.000	720.707	80.006	19.994	103.892	19.733	15.707	0.512
1258.000	721.782	80.005	19.993	103.877	19.738	15.368	0.541
1260.000	722.804	80.008	19.994	103.858	19.735	15.569	0.546
1262.000	723.789	80.008	19.993	103.835	19.739	15.285	0.515
1264.000	724.822	80.008	19.993	103.836	19.744	14.956	0.516
1266.000	725.824	80.008	19.993	103.828	19.743	15.012	0.483
1268.000	726.851	80.009	19.993	103.835	19.741	15.196	0.531
1270.000	727.885	80.008	19.993	103.833	19.745	14.924	0.567
1272.001	728.854	80.007	19.993	103.833	19.747	14.770	0.511
1274.000	729.862	80.008	19.993	103.833	19.744	14.946	0.503
1276.000	730.887	80.006	19.994	103.835	19.742	15.099	0.547
1278.001	731.901	80.007	19.993	103.840	19.746	14.832	0.503
1280.000	732.943	80.007	19.994	103.843	19.748	14.676	0.527
1282.000	733.948	80.007	19.993	103.840	19.747	14.790	0.497
1284.000	734.946	80.008	19.993	103.836	19.745	14.890	0.490
1286.000	735.946	80.009	19.992	103.839	19.745	14.885	0.494
1288.000	736.976	80.009	19.993	103.840	19.741	15.176	0.506
1290.000	738.001	80.008	19.993	103.844	19.743	15.043	0.520
1292.000	739.004	80.009	19.992	103.841	19.744	14.972	0.517
1294.000	740.021	80.009	19.991	103.843	19.742	15.133	0.502
1296.000	740.993	80.008	19.992	103.831	19.742	15.111	0.492
1298.000	742.037	80.008	19.993	103.831	19.745	14.874	0.528
1300.000	743.023	80.007	19.993	103.855	19.745	14.923	0.483
1302.000	744.044	80.007	19.993	103.844	19.746	14.825	0.470
1304.000	745.096	80.006	19.994	103.855	19.743	15.005	0.496
1304.500	745.326	80.007	19.993	103.856	19.743	15.010	0.504