File: 01_Data/Nylon_Carpet_LowPile/MCC/Nylon_Carpet_LowPile_MCC_30K_min_211028_R2.txt
Sample ID:	C:\MCC\MCC Cal\Test\Nylon_Carpet_LowPile_MCC_30K_min_211028_R2.txt
Sample Weight (mg):	4.96
Heating Rate (C/s):	0.5
Combustor Temp (C):	900
N2 Flow Rate (cc/min):	80
O2 Flow Rate (cc/min):	20
Calibration File:	C:\MCC\MCC Cal\Coeff1 JN10440_30_210304.txt.txt
T Correction Coefficients:	0	1.024463	0
Time Shift (s):	14
*
Time (s)	Temperature (C)	N2 flow rate (cc/min)	O2 flow rate (cc/min)	Flow Rate (cc/min)	Oxygen (%)	HRR (W/g)	Heating rate (C/s)
0.000	107.533	79.985	19.997	102.931	20.143	0.041	-0.012
2.000	107.539	80.001	19.995	102.929	20.143	0.075	0.012
4.000	107.555	80.000	19.996	102.926	20.141	0.193	0.018
6.000	107.542	79.996	19.995	102.933	20.140	0.227	-0.009
8.000	107.497	80.003	19.996	102.933	20.139	0.295	0.010
10.000	107.497	79.993	19.998	102.931	20.141	0.209	-0.005
12.000	107.508	79.995	19.996	102.923	20.140	0.243	-0.006
14.000	107.498	79.994	19.997	102.941	20.142	0.116	-0.059
16.000	107.505	79.984	19.996	102.950	20.139	0.329	-0.042
18.000	107.489	80.002	19.995	102.981	20.135	0.554	-0.033
20.000	107.528	79.999	19.996	103.000	20.133	0.683	0.008
22.000	107.572	79.995	19.995	102.997	20.131	0.829	0.006
24.000	107.591	79.993	19.996	103.005	20.131	0.849	-0.003
26.000	107.664	79.985	19.998	103.018	20.127	1.119	0.044
28.000	107.815	79.998	19.994	103.023	20.125	1.240	0.041
30.000	107.838	80.000	19.995	103.007	20.132	0.785	-0.001
32.000	107.979	80.007	19.994	103.011	20.128	1.025	0.054
34.000	108.087	80.006	19.994	103.003	20.127	1.093	0.069
36.000	108.211	80.002	19.993	103.007	20.123	1.374	0.095
38.001	108.334	80.003	19.994	103.004	20.126	1.132	0.088
40.000	108.480	79.986	19.995	103.027	20.123	1.351	0.092
42.000	108.625	79.982	19.995	103.057	20.119	1.619	0.057
44.000	108.834	80.000	19.993	103.105	20.116	1.775	0.094
46.001	109.026	80.013	19.992	103.122	20.112	2.040	0.094
48.000	109.217	80.003	19.994	103.135	20.106	2.436	0.086
50.000	109.497	79.999	19.995	103.142	20.106	2.458	0.114
52.000	109.844	79.995	19.996	103.151	20.106	2.461	0.220
54.000	110.143	79.997	19.997	103.149	20.102	2.699	0.141
56.000	110.499	80.011	19.995	103.160	20.101	2.766	0.186
58.001	110.903	80.000	19.997	103.175	20.101	2.798	0.198
60.001	111.297	79.999	19.996	103.187	20.094	3.233	0.190
62.000	111.728	80.002	19.995	103.190	20.098	3.000	0.215
64.000	112.173	80.003	19.995	103.186	20.096	3.075	0.260
66.000	112.683	79.999	19.995	103.189	20.093	3.290	0.287
68.000	113.165	79.998	19.995	103.193	20.091	3.431	0.232
70.000	113.752	80.000	19.995	103.199	20.094	3.248	0.271
72.000	114.340	79.997	19.996	103.207	20.092	3.369	0.298
74.000	114.905	79.987	19.997	103.204	20.089	3.570	0.291
76.000	115.523	79.997	19.997	103.196	20.090	3.486	0.337
78.000	116.114	79.999	19.995	103.219	20.087	3.688	0.306
80.000	116.827	80.002	19.996	103.215	20.089	3.584	0.361
82.000	117.502	79.993	19.995	103.201	20.092	3.383	0.348
84.000	118.219	80.007	19.995	103.215	20.089	3.564	0.377
86.000	118.948	79.994	19.997	103.224	20.088	3.602	0.357
88.000	119.646	79.998	19.997	103.210	20.085	3.813	0.376
90.001	120.427	80.000	19.996	103.209	20.086	3.729	0.381
92.000	121.200	79.974	19.998	103.200	20.088	3.600	0.359
94.000	121.975	80.000	19.995	103.200	20.087	3.680	0.366
96.000	122.806	80.008	19.995	103.199	20.089	3.564	0.416
98.000	123.634	79.998	19.994	103.211	20.089	3.566	0.386
100.000	124.432	79.991	19.998	103.212	20.092	3.389	0.413
102.000	125.257	79.983	19.996	103.205	20.089	3.539	0.426
104.001	126.120	80.003	19.995	103.215	20.089	3.568	0.414
106.000	126.964	79.995	19.996	103.238	20.088	3.626	0.414
108.000	127.844	79.981	19.996	103.221	20.086	3.738	0.437
110.000	128.687	79.997	19.995	103.219	20.091	3.439	0.426
112.000	129.633	80.002	19.996	103.215	20.091	3.452	0.455
114.000	130.512	80.000	19.995	103.214	20.090	3.524	0.448
116.000	131.432	80.013	19.992	103.222	20.089	3.575	0.479
118.001	132.322	79.987	19.997	103.221	20.086	3.726	0.432
120.000	133.273	79.995	19.995	103.205	20.088	3.628	0.455
122.000	134.164	79.990	19.996	103.210	20.086	3.729	0.436
124.000	135.147	80.003	19.996	103.220	20.088	3.627	0.486
126.000	136.033	79.993	19.995	103.213	20.086	3.781	0.449
128.000	136.984	79.999	19.994	103.213	20.087	3.697	0.468
130.000	137.954	80.002	19.996	103.215	20.084	3.915	0.462
132.000	138.875	79.993	19.995	103.206	20.084	3.911	0.447
134.000	139.877	80.006	19.995	103.193	20.086	3.740	0.506
136.000	140.827	79.987	19.996	103.219	20.085	3.812	0.492
138.000	141.856	80.004	19.995	103.210	20.089	3.587	0.498
140.000	142.793	80.001	19.996	103.219	20.087	3.672	0.467
142.000	143.785	79.996	19.995	103.200	20.087	3.673	0.506
144.000	144.770	79.995	19.995	103.205	20.083	3.927	0.437
146.000	145.766	79.996	19.995	103.212	20.085	3.809	0.484
148.000	146.812	80.013	19.994	103.205	20.087	3.687	0.496
150.000	147.825	79.997	19.994	103.196	20.086	3.752	0.551
152.000	148.764	80.002	19.994	103.210	20.085	3.798	0.476
154.000	149.834	80.003	19.995	103.198	20.088	3.602	0.529
156.000	150.857	80.004	19.996	103.202	20.089	3.542	0.498
158.000	151.815	79.997	19.996	103.198	20.088	3.652	0.486
160.000	152.871	79.998	19.995	103.193	20.089	3.533	0.528
162.000	153.859	79.996	19.995	103.198	20.091	3.460	0.515
164.000	154.864	79.998	19.995	103.193	20.084	3.904	0.507
166.000	155.886	79.999	19.996	103.194	20.087	3.669	0.519
168.000	156.891	79.990	19.995	103.195	20.089	3.551	0.512
170.000	157.912	79.999	19.995	103.194	20.088	3.635	0.501
172.000	158.897	79.996	19.996	103.192	20.089	3.549	0.476
174.000	159.921	80.003	19.997	103.193	20.089	3.542	0.527
176.000	160.958	80.004	19.994	103.190	20.087	3.673	0.524
178.000	161.926	79.992	19.997	103.189	20.085	3.809	0.478
180.000	162.987	79.996	19.997	103.184	20.090	3.473	0.524
182.000	163.992	79.998	19.997	103.174	20.087	3.682	0.501
184.000	165.072	79.996	19.997	103.179	20.085	3.808	0.539
186.000	166.056	80.001	19.996	103.182	20.086	3.750	0.517
188.000	167.026	79.997	19.995	103.184	20.091	3.406	0.477
190.000	168.022	79.997	19.995	103.170	20.087	3.694	0.476
192.000	169.036	79.998	19.994	103.170	20.088	3.611	0.505
194.000	170.058	79.988	19.997	103.176	20.090	3.507	0.487
196.000	171.063	80.001	19.995	103.167	20.088	3.650	0.513
198.000	172.025	80.000	19.997	103.187	20.086	3.724	0.521
200.000	172.992	79.990	19.997	103.191	20.090	3.484	0.460
202.000	174.018	79.996	19.995	103.161	20.087	3.718	0.530
204.000	175.027	80.010	19.994	103.158	20.089	3.532	0.462
206.000	175.997	79.989	19.995	103.160	20.087	3.717	0.509
208.000	177.000	79.990	19.996	103.154	20.084	3.863	0.531
210.000	177.974	79.999	19.996	103.162	20.089	3.550	0.497
212.000	178.980	79.978	19.998	103.159	20.090	3.471	0.494
214.000	179.986	80.005	19.996	103.154	20.090	3.484	0.499
216.000	180.944	80.015	19.993	103.167	20.091	3.457	0.499
218.000	181.954	79.998	19.996	103.170	20.089	3.550	0.507
220.000	182.900	79.999	19.995	103.160	20.091	3.446	0.519
222.000	183.852	79.996	19.995	103.163	20.091	3.441	0.487
224.000	184.889	79.998	19.995	103.157	20.091	3.416	0.519
226.000	185.874	79.997	19.995	103.156	20.088	3.602	0.472
228.000	186.911	79.999	19.995	103.156	20.088	3.609	0.486
230.000	187.885	79.998	19.994	103.156	20.089	3.532	0.462
232.000	188.803	80.000	19.994	103.162	20.088	3.650	0.460
234.000	189.819	79.996	19.994	103.157	20.091	3.459	0.493
236.000	190.800	79.999	19.994	103.155	20.088	3.613	0.511
238.000	191.756	79.999	19.995	103.152	20.088	3.643	0.456
240.000	192.748	79.993	19.996	103.154	20.093	3.289	0.494
242.000	193.715	79.999	19.996	103.145	20.093	3.310	0.472
244.000	194.713	79.991	19.995	103.151	20.091	3.405	0.516
246.000	195.640	80.002	19.995	103.150	20.089	3.526	0.496
248.000	196.621	79.996	19.996	103.150	20.093	3.316	0.509
250.000	197.583	80.003	19.994	103.153	20.092	3.393	0.492
252.000	198.559	79.996	19.995	103.154	20.092	3.385	0.468
254.000	199.554	79.986	19.996	103.150	20.092	3.332	0.471
256.000	200.542	79.999	19.998	103.145	20.092	3.387	0.517
258.000	201.449	79.998	19.996	103.150	20.092	3.374	0.450
260.000	202.451	80.000	19.995	103.157	20.095	3.158	0.502
262.000	203.467	80.000	19.995	103.159	20.096	3.085	0.494
264.000	204.399	79.992	19.996	103.155	20.095	3.140	0.466
266.000	205.373	79.996	19.997	103.143	20.096	3.083	0.477
268.000	206.356	79.997	19.997	103.138	20.096	3.108	0.501
270.000	207.358	79.991	19.997	103.155	20.094	3.217	0.524
272.000	208.331	79.995	19.996	103.156	20.095	3.195	0.494
274.000	209.324	80.004	19.995	103.144	20.094	3.242	0.498
276.000	210.320	79.996	19.995	103.145	20.093	3.267	0.496
278.000	211.306	79.999	19.995	103.149	20.093	3.288	0.485
280.000	212.304	80.006	19.995	103.149	20.092	3.387	0.506
282.000	213.277	79.995	19.996	103.147	20.091	3.435	0.469
284.000	214.284	79.996	19.995	103.148	20.093	3.272	0.507
286.000	215.255	79.985	19.997	103.147	20.093	3.304	0.523
288.000	216.244	80.004	19.994	103.139	20.093	3.279	0.485
290.000	217.210	80.002	19.994	103.136	20.097	3.040	0.516
292.000	218.231	79.997	19.994	103.140	20.096	3.129	0.478
294.000	219.170	80.001	19.995	103.128	20.098	2.984	0.484
296.000	220.150	79.997	19.995	103.134	20.097	3.013	0.467
298.000	221.143	79.998	19.994	103.126	20.095	3.181	0.484
300.000	222.120	79.998	19.996	103.134	20.092	3.349	0.506
302.000	223.094	79.998	19.997	103.143	20.095	3.168	0.475
304.000	224.050	80.000	19.996	103.132	20.094	3.262	0.504
306.000	225.050	79.998	19.996	103.139	20.092	3.339	0.461
308.000	226.050	79.999	19.995	103.139	20.094	3.206	0.499
310.000	227.015	80.002	19.995	103.129	20.097	3.061	0.489
312.000	227.993	79.999	19.995	103.130	20.094	3.226	0.514
314.000	228.994	80.000	19.994	103.141	20.093	3.281	0.517
316.000	229.970	80.000	19.995	103.147	20.094	3.202	0.482
318.000	230.949	79.999	19.997	103.147	20.094	3.234	0.478
320.000	231.927	79.999	19.995	103.132	20.088	3.637	0.461
322.000	232.958	79.998	19.995	103.135	20.090	3.522	0.461
324.000	233.988	79.998	19.996	103.136	20.091	3.445	0.503
326.000	234.960	79.996	19.996	103.123	20.087	3.700	0.528
328.000	235.930	79.997	19.996	103.127	20.088	3.614	0.511
330.000	236.911	79.996	19.996	103.126	20.090	3.494	0.473
332.000	237.907	79.998	19.996	103.121	20.092	3.338	0.499
334.000	238.926	79.999	19.996	103.124	20.086	3.735	0.505
336.000	239.865	79.998	19.996	103.131	20.092	3.377	0.479
338.000	240.823	79.997	19.996	103.078	20.088	3.594	0.501
340.000	241.836	79.997	19.996	103.157	20.093	3.304	0.482
342.000	242.825	79.999	19.996	103.154	20.092	3.372	0.476
344.000	243.837	79.999	19.995	103.121	20.094	3.238	0.498
346.000	244.854	80.000	19.996	103.134	20.092	3.346	0.523
348.000	245.794	79.995	19.996	103.120	20.092	3.338	0.488
350.000	246.859	79.998	19.995	103.121	20.092	3.333	0.522
352.000	247.800	79.999	19.997	103.129	20.092	3.386	0.481
354.000	248.798	79.997	19.995	103.139	20.093	3.281	0.511
356.000	249.824	79.998	19.995	103.130	20.093	3.325	0.535
358.000	250.899	79.996	19.997	103.139	20.089	3.552	0.508
360.000	251.887	79.995	19.997	103.124	20.093	3.291	0.493
362.000	252.889	79.997	19.996	103.122	20.094	3.204	0.503
364.000	253.903	79.996	19.997	103.123	20.091	3.402	0.525
366.000	254.899	79.998	19.996	103.126	20.092	3.334	0.498
368.000	255.923	79.997	19.995	103.117	20.092	3.338	0.535
370.000	256.895	79.999	19.996	103.119	20.093	3.293	0.440
372.000	257.876	79.999	19.996	103.124	20.090	3.518	0.528
374.000	258.891	79.999	19.996	103.114	20.090	3.520	0.517
376.000	259.871	80.000	19.995	103.112	20.089	3.567	0.489
378.000	260.866	79.999	19.995	103.124	20.087	3.699	0.462
380.000	261.861	79.997	19.996	103.122	20.089	3.538	0.512
382.000	262.832	79.998	19.995	103.128	20.089	3.527	0.474
384.000	263.853	79.998	19.995	103.115	20.091	3.411	0.498
386.000	264.850	79.997	19.996	103.113	20.091	3.418	0.523
388.000	265.810	80.000	19.996	103.118	20.089	3.525	0.505
390.000	266.819	80.000	19.996	103.116	20.090	3.466	0.488
392.000	267.808	80.000	19.996	103.113	20.094	3.219	0.478
394.000	268.821	80.002	19.994	103.115	20.092	3.370	0.483
396.000	269.829	80.001	19.996	103.116	20.090	3.466	0.499
398.000	270.856	79.999	19.996	103.115	20.091	3.415	0.545
400.000	271.838	80.001	19.995	103.114	20.092	3.375	0.517
402.001	272.813	80.000	19.996	103.112	20.091	3.400	0.489
404.000	273.828	79.998	19.995	103.112	20.091	3.425	0.475
406.000	274.826	79.997	19.997	103.112	20.090	3.477	0.517
408.000	275.821	79.998	19.996	103.112	20.090	3.472	0.481
410.000	276.792	79.996	19.997	103.119	20.094	3.257	0.467
412.000	277.793	79.998	19.995	103.115	20.093	3.293	0.489
414.000	278.770	79.998	19.995	103.118	20.091	3.450	0.501
416.000	279.747	79.997	19.996	103.114	20.093	3.300	0.511
418.000	280.716	79.998	19.996	103.110	20.089	3.543	0.492
420.000	281.724	79.998	19.995	103.118	20.088	3.590	0.507
422.000	282.700	79.999	19.995	103.118	20.088	3.613	0.510
424.000	283.690	79.999	19.995	103.109	20.090	3.495	0.473
426.000	284.688	79.997	19.996	103.114	20.091	3.445	0.498
428.000	285.649	79.996	19.996	103.118	20.090	3.504	0.457
430.000	286.667	79.996	19.996	103.118	20.091	3.440	0.515
432.000	287.612	79.997	19.995	103.109	20.089	3.565	0.484
434.000	288.553	79.998	19.996	103.107	20.087	3.711	0.484
436.000	289.533	79.997	19.997	103.105	20.086	3.745	0.477
438.000	290.529	79.997	19.997	103.111	20.082	4.009	0.487
440.000	291.553	79.998	19.996	103.115	20.083	3.925	0.532
442.000	292.513	79.996	19.996	103.114	20.083	3.971	0.484
444.000	293.443	79.996	19.996	103.115	20.082	3.994	0.483
446.000	294.467	80.000	19.997	103.116	20.083	3.976	0.497
448.000	295.452	79.998	19.996	103.105	20.081	4.105	0.497
450.000	296.433	80.000	19.997	103.091	20.077	4.326	0.489
452.000	297.416	79.999	19.996	103.110	20.078	4.283	0.481
454.000	298.452	79.996	19.997	103.109	20.080	4.155	0.512
456.000	299.450	79.999	19.997	103.105	20.076	4.403	0.482
458.000	300.455	79.997	19.997	103.107	20.075	4.446	0.530
460.000	301.473	79.999	19.996	103.107	20.075	4.455	0.493
462.000	302.488	79.998	19.997	103.095	20.074	4.545	0.536
464.000	303.502	79.999	19.997	103.099	20.072	4.629	0.525
466.000	304.530	79.998	19.996	103.106	20.071	4.754	0.516
468.000	305.572	80.000	19.995	103.093	20.067	5.008	0.521
470.000	306.570	80.000	19.996	103.105	20.068	4.913	0.496
472.000	307.630	80.001	19.994	103.115	20.063	5.227	0.542
474.000	308.683	80.000	19.994	103.109	20.063	5.257	0.534
476.000	309.744	80.001	19.995	103.107	20.060	5.434	0.538
478.000	310.796	80.000	19.994	103.100	20.057	5.627	0.526
480.000	311.792	80.001	19.994	103.102	20.054	5.807	0.522
482.000	312.851	79.999	19.995	103.101	20.052	5.950	0.525
484.000	313.944	79.999	19.995	103.062	20.048	6.231	0.550
486.001	314.935	79.998	19.995	103.097	20.044	6.446	0.506
488.000	315.984	80.000	19.995	103.158	20.042	6.634	0.498
490.000	317.013	79.998	19.995	103.114	20.041	6.673	0.500
492.000	318.093	79.998	19.994	103.097	20.036	6.975	0.544
494.000	319.116	79.998	19.996	103.093	20.030	7.392	0.531
496.000	320.123	79.999	19.994	103.109	20.030	7.363	0.516
498.000	321.152	79.998	19.996	103.109	20.025	7.710	0.507
500.000	322.151	79.998	19.996	103.116	20.019	8.070	0.502
502.000	323.201	79.999	19.994	103.107	20.014	8.405	0.496
504.000	324.203	79.997	19.995	103.110	20.011	8.603	0.504
506.000	325.286	79.999	19.995	103.100	20.008	8.810	0.562
508.000	326.298	80.000	19.996	103.104	20.000	9.340	0.538
510.000	327.335	80.001	19.994	103.095	19.995	9.661	0.500
512.000	328.353	79.998	19.995	103.093	19.988	10.096	0.502
514.000	329.344	79.998	19.995	103.094	19.980	10.592	0.518
516.000	330.358	79.998	19.997	103.081	19.979	10.684	0.508
518.000	331.363	79.998	19.996	103.098	19.971	11.182	0.513
520.000	332.419	79.997	19.995	103.107	19.966	11.534	0.540
522.000	333.442	79.999	19.997	103.101	19.957	12.107	0.534
524.000	334.491	79.999	19.996	103.083	19.952	12.461	0.531
526.000	335.502	79.999	19.997	103.099	19.944	12.991	0.507
528.000	336.474	79.998	19.996	103.112	19.937	13.382	0.505
530.000	337.506	79.999	19.996	103.095	19.925	14.177	0.509
532.000	338.537	79.999	19.995	103.103	19.918	14.625	0.504
534.000	339.542	80.000	19.995	103.090	19.907	15.333	0.520
536.000	340.532	80.000	19.996	103.102	19.894	16.226	0.497
538.000	341.561	80.001	19.995	103.094	19.882	16.985	0.518
540.000	342.546	79.999	19.995	103.105	19.874	17.490	0.506
542.000	343.511	79.999	19.995	103.099	19.862	18.296	0.489
544.000	344.558	79.996	19.996	103.109	19.848	19.165	0.487
546.000	345.547	80.000	19.996	103.100	19.837	19.886	0.503
548.000	346.515	80.000	19.996	103.110	19.822	20.845	0.467
550.000	347.525	79.999	19.996	103.115	19.810	21.678	0.486
552.000	348.479	79.999	19.996	103.115	19.797	22.514	0.478
554.000	349.494	79.999	19.997	103.098	19.786	23.208	0.502
556.000	350.457	79.999	19.997	103.111	19.771	24.208	0.498
558.000	351.503	80.000	19.996	103.116	19.754	25.272	0.511
560.000	352.475	80.000	19.994	103.117	19.739	26.252	0.492
562.000	353.512	79.999	19.995	103.115	19.724	27.214	0.511
564.000	354.494	80.000	19.994	103.116	19.709	28.218	0.498
566.000	355.504	80.000	19.995	103.115	19.689	29.473	0.495
568.000	356.487	79.998	19.996	103.115	19.669	30.779	0.509
570.000	357.509	79.999	19.995	103.115	19.651	31.958	0.511
572.000	358.507	79.998	19.996	103.114	19.633	33.111	0.541
574.000	359.509	79.998	19.996	103.115	19.616	34.253	0.513
576.000	360.478	79.998	19.995	103.115	19.595	35.628	0.486
578.000	361.513	79.999	19.996	103.114	19.576	36.815	0.494
580.000	362.494	79.997	19.994	103.115	19.555	38.181	0.507
582.000	363.460	79.997	19.995	103.108	19.535	39.505	0.492
584.000	364.430	79.998	19.995	103.115	19.514	40.852	0.491
586.000	365.435	79.998	19.995	103.113	19.492	42.279	0.461
588.000	366.450	79.998	19.996	103.112	19.470	43.716	0.499
590.000	367.460	79.998	19.996	103.115	19.447	45.216	0.520
592.000	368.454	79.997	19.995	103.114	19.419	47.007	0.522
594.000	369.491	79.998	19.995	103.115	19.395	48.560	0.527
596.000	370.478	79.998	19.994	103.117	19.373	50.006	0.520
598.000	371.498	79.999	19.993	103.115	19.344	51.858	0.532
600.000	372.499	79.998	19.994	103.116	19.322	53.283	0.533
602.000	373.511	80.000	19.994	103.117	19.294	55.111	0.517
604.000	374.537	79.997	19.997	103.118	19.261	57.256	0.523
606.000	375.499	79.998	19.995	103.120	19.236	58.884	0.486
608.000	376.486	79.999	19.995	103.123	19.207	60.791	0.478
610.000	377.481	80.001	19.994	103.122	19.181	62.458	0.507
612.001	378.501	79.999	19.995	103.119	19.145	64.789	0.492
614.000	379.469	79.999	19.995	103.119	19.114	66.772	0.484
616.000	380.487	80.000	19.996	103.117	19.081	68.946	0.513
618.000	381.447	79.999	19.996	103.117	19.052	70.850	0.470
620.000	382.445	79.998	19.995	103.120	19.020	72.912	0.512
622.000	383.447	79.997	19.995	103.130	18.986	75.094	0.491
624.000	384.483	79.998	19.994	103.130	18.952	77.316	0.507
626.000	385.421	79.998	19.994	103.137	18.917	79.605	0.476
628.000	386.387	79.998	19.995	103.136	18.879	82.033	0.470
630.000	387.375	79.998	19.995	103.136	18.845	84.273	0.472
632.000	388.377	80.000	19.994	103.137	18.808	86.658	0.522
634.000	389.403	80.000	19.996	103.115	18.771	89.059	0.530
636.000	390.412	80.000	19.996	103.126	18.732	91.547	0.516
638.000	391.375	80.001	19.995	103.125	18.695	93.984	0.496
640.000	392.366	80.000	19.996	103.128	18.657	96.460	0.515
642.000	393.429	79.999	19.996	103.119	18.625	98.520	0.541
644.000	394.423	80.000	19.996	103.114	18.590	100.769	0.508
646.000	395.464	79.999	19.997	103.112	18.556	102.968	0.492
648.000	396.436	79.999	19.996	103.113	18.530	104.687	0.491
650.000	397.431	79.998	19.996	103.115	18.498	106.715	0.497
652.000	398.443	79.998	19.995	103.116	18.470	108.539	0.522
654.000	399.451	79.998	19.995	103.106	18.446	110.079	0.552
656.000	400.491	79.999	19.996	103.112	18.424	111.542	0.520
658.000	401.519	79.999	19.996	103.103	18.406	112.638	0.491
660.000	402.549	79.997	19.995	103.099	18.390	113.704	0.523
662.000	403.588	79.999	19.996	103.090	18.380	114.318	0.524
664.000	404.611	79.998	19.995	103.088	18.377	114.542	0.527
666.000	405.602	79.998	19.995	103.077	18.376	114.549	0.489
668.000	406.639	79.998	19.994	103.077	18.383	114.099	0.491
670.000	407.692	79.998	19.994	103.056	18.402	112.880	0.517
672.000	408.741	79.997	19.995	103.048	18.424	111.475	0.527
674.000	409.745	79.997	19.994	103.043	18.451	109.714	0.509
676.000	410.833	79.998	19.996	103.040	18.489	107.246	0.552
678.000	411.818	79.996	19.995	103.039	18.531	104.518	0.504
680.000	412.878	79.998	19.995	103.033	18.584	101.032	0.495
682.000	413.911	79.998	19.994	103.026	18.637	97.618	0.527
684.000	414.993	79.996	19.994	103.011	18.698	93.708	0.541
686.000	416.026	79.996	19.994	103.004	18.764	89.402	0.502
688.000	417.069	79.997	19.995	103.005	18.827	85.304	0.519
690.000	418.120	79.998	19.995	103.005	18.895	80.939	0.562
692.000	419.109	79.998	19.994	103.004	18.976	75.713	0.486
694.000	420.188	80.000	19.995	103.006	19.030	72.205	0.515
696.000	421.173	79.999	19.995	103.011	19.086	68.531	0.522
698.000	422.174	80.003	19.995	103.008	19.138	65.180	0.453
700.000	423.169	79.999	19.995	103.025	19.191	61.772	0.485
702.000	424.138	79.999	19.996	103.029	19.233	59.035	0.546
704.000	425.257	79.999	19.996	103.033	19.270	56.653	0.483
706.000	426.316	79.999	19.996	103.033	19.304	54.425	0.189
708.000	427.223	79.999	19.996	103.038	19.332	52.640	0.565
710.000	428.284	79.998	19.996	103.035	19.353	51.262	0.525
712.000	429.316	79.998	19.997	103.035	19.374	49.922	0.479
714.000	430.354	80.000	19.996	103.036	19.392	48.740	0.543
716.000	431.309	80.000	19.995	103.038	19.404	47.934	0.435
718.000	432.276	79.999	19.995	103.036	19.417	47.125	0.486
720.000	433.259	80.002	19.995	103.034	19.420	46.885	0.516
722.000	434.303	80.001	19.995	103.038	19.429	46.341	0.503
724.000	435.316	80.001	19.996	103.037	19.437	45.841	0.496
726.000	436.273	80.000	19.995	103.037	19.443	45.411	0.471
728.000	437.284	79.998	19.995	103.035	19.440	45.606	0.537
730.000	438.279	79.997	19.996	103.035	19.446	45.255	0.484
732.000	439.253	79.996	19.996	103.035	19.446	45.206	0.486
734.000	440.238	79.998	19.997	103.033	19.445	45.286	0.469
736.000	441.210	79.998	19.996	103.031	19.447	45.161	0.490
738.000	442.197	79.997	19.997	103.033	19.446	45.208	0.477
740.000	443.172	79.997	19.996	103.033	19.444	45.360	0.468
742.000	444.166	79.996	19.995	103.027	19.441	45.562	0.496
744.000	445.165	79.999	19.994	103.028	19.438	45.745	0.475
746.000	446.100	80.000	19.994	103.039	19.440	45.598	0.470
748.000	447.083	79.997	19.996	103.032	19.437	45.793	0.491
750.000	448.069	79.999	19.994	103.035	19.435	45.931	0.514
752.000	449.018	79.997	19.995	103.032	19.429	46.342	0.469
754.000	450.008	79.996	19.995	103.023	19.429	46.344	0.504
756.000	450.939	79.998	19.995	103.024	19.422	46.748	0.464
758.000	451.923	79.997	19.994	103.027	19.422	46.740	0.477
760.000	452.956	79.998	19.995	103.004	19.418	47.056	0.534
762.000	453.892	79.996	19.995	103.003	19.415	47.208	0.460
764.000	454.858	79.996	19.996	103.015	19.412	47.385	0.483
766.000	455.886	79.998	19.996	103.006	19.410	47.573	0.532
768.000	456.842	79.997	19.996	103.006	19.405	47.898	0.499
770.000	457.821	79.999	19.995	103.005	19.400	48.197	0.490
772.000	458.826	79.996	19.995	103.009	19.399	48.230	0.519
774.000	459.822	79.997	19.996	103.011	19.393	48.614	0.488
776.000	460.839	79.999	19.995	103.001	19.392	48.707	0.501
778.000	461.874	79.999	19.995	103.004	19.389	48.921	0.514
780.000	462.897	80.000	19.996	103.002	19.386	49.074	0.513
782.000	463.893	80.000	19.996	102.998	19.384	49.200	0.489
784.000	464.896	79.999	19.994	102.999	19.380	49.478	0.479
786.000	465.962	80.000	19.994	102.999	19.383	49.275	0.522
788.000	467.039	80.000	19.995	102.998	19.377	49.662	0.505
790.000	468.125	80.000	19.995	102.992	19.381	49.404	0.537
792.000	469.166	79.999	19.995	102.996	19.384	49.231	0.545
794.000	470.218	79.997	19.996	102.999	19.389	48.891	0.525
796.000	471.269	79.999	19.996	102.993	19.393	48.637	0.518
798.000	472.338	80.000	19.997	102.989	19.399	48.234	0.487
800.000	473.434	79.998	19.995	102.977	19.406	47.793	0.557
802.000	474.530	80.001	19.996	102.988	19.418	47.025	0.545
804.000	475.617	80.000	19.995	102.975	19.433	46.038	0.570
806.000	476.689	80.001	19.995	102.968	19.451	44.908	0.537
808.000	477.782	79.998	19.995	102.975	19.474	43.380	0.554
810.000	478.887	79.999	19.995	102.986	19.498	41.833	0.563
812.000	479.961	79.998	19.996	102.982	19.528	39.878	0.584
814.000	481.013	79.997	19.994	102.983	19.568	37.300	0.527
816.000	482.128	79.997	19.995	102.971	19.607	34.794	0.533
818.000	483.205	79.997	19.996	102.984	19.649	32.060	0.562
820.000	484.259	79.997	19.995	102.993	19.695	29.089	0.517
822.000	485.310	79.996	19.997	103.000	19.741	26.077	0.524
824.000	486.402	79.997	19.996	103.000	19.787	23.153	0.529
826.000	487.471	79.996	19.997	103.003	19.829	20.381	0.531
828.000	488.573	79.996	19.996	103.007	19.871	17.672	0.531
830.000	489.646	79.998	19.996	103.028	19.912	15.051	0.554
832.000	490.703	79.996	19.997	103.036	19.945	12.858	0.542
834.000	491.773	79.997	19.995	103.036	19.972	11.135	0.556
836.000	492.852	79.997	19.995	103.040	19.997	9.484	0.549
838.000	493.907	79.996	19.996	103.048	20.015	8.346	0.529
840.000	495.013	79.997	19.996	103.040	20.026	7.615	0.536
842.000	496.064	79.997	19.996	103.043	20.039	6.821	0.548
844.000	497.123	79.996	19.996	103.043	20.046	6.368	0.539
846.000	498.230	79.998	19.995	103.042	20.052	5.947	0.555
848.000	499.280	79.997	19.995	103.048	20.057	5.617	0.553
850.000	500.353	79.998	19.996	103.054	20.062	5.290	0.530
852.000	501.388	79.999	19.995	103.049	20.066	5.036	0.520
854.000	502.410	79.998	19.996	103.054	20.068	4.891	0.532
856.000	503.454	79.998	19.995	103.062	20.073	4.620	0.518
858.000	504.453	79.998	19.995	103.055	20.075	4.440	0.496
860.000	505.552	80.000	19.995	103.068	20.072	4.625	0.527
862.000	506.570	79.998	19.994	103.060	20.073	4.576	0.502
864.000	507.632	79.999	19.994	103.058	20.077	4.312	0.534
866.000	508.653	79.999	19.996	103.064	20.076	4.398	0.513
868.000	509.714	79.999	19.995	103.061	20.080	4.124	0.514
870.000	510.739	79.998	19.995	103.061	20.077	4.312	0.530
872.000	511.792	79.998	19.995	103.049	20.079	4.219	0.534
874.000	512.800	79.999	19.994	103.051	20.079	4.231	0.508
876.000	513.844	79.999	19.995	103.063	20.079	4.213	0.547
878.000	514.894	79.998	19.995	103.061	20.080	4.129	0.524
880.000	515.905	79.999	19.995	103.061	20.081	4.075	0.504
882.000	516.952	80.000	19.995	103.067	20.084	3.899	0.522
884.000	517.961	80.000	19.995	103.053	20.087	3.712	0.507
886.000	519.004	80.000	19.995	103.045	20.083	3.922	0.485
888.000	519.993	80.000	19.995	103.055	20.083	3.939	0.534
890.000	521.034	80.000	19.995	103.044	20.083	3.943	0.498
892.000	522.027	79.998	19.996	103.050	20.082	3.979	0.502
894.000	523.060	79.998	19.996	103.044	20.084	3.906	0.512
896.000	524.112	79.999	19.995	103.041	20.080	4.109	0.521
898.000	525.128	79.998	19.996	103.045	20.085	3.822	0.508
900.000	526.142	79.998	19.996	103.041	20.084	3.851	0.512
902.000	527.118	79.998	19.996	103.045	20.086	3.743	0.490
904.000	528.138	79.997	19.995	103.051	20.087	3.654	0.524
906.000	529.183	79.998	19.995	103.041	20.088	3.637	0.509
908.000	530.154	79.997	19.996	103.041	20.089	3.584	0.504
910.000	531.171	79.997	19.996	103.055	20.087	3.675	0.496
912.000	532.199	79.998	19.995	103.051	20.087	3.688	0.511
914.000	533.166	79.997	19.996	103.062	20.087	3.678	0.506
916.000	534.190	79.999	19.996	103.046	20.087	3.674	0.517
918.000	535.211	79.999	19.996	103.048	20.086	3.718	0.514
920.000	536.216	79.997	19.996	103.053	20.086	3.746	0.526
922.000	537.190	79.997	19.997	103.054	20.086	3.738	0.495
924.000	538.167	79.997	19.997	103.051	20.086	3.725	0.469
926.000	539.143	79.998	19.997	103.047	20.086	3.718	0.487
928.000	540.134	79.996	19.995	103.057	20.088	3.620	0.490
930.000	541.073	79.996	19.996	103.039	20.089	3.545	0.490
932.000	542.061	79.997	19.995	103.044	20.089	3.557	0.481
934.000	542.991	79.996	19.995	103.052	20.085	3.799	0.454
936.000	543.927	79.996	19.995	103.057	20.087	3.692	0.487
938.000	544.893	80.000	19.994	103.055	20.090	3.509	0.447
940.000	545.831	80.000	19.995	103.050	20.083	3.933	0.486
942.000	546.830	79.999	19.995	103.060	20.087	3.668	0.494
944.000	547.754	79.999	19.995	103.046	20.084	3.867	0.469
946.000	548.733	79.998	19.996	103.058	20.086	3.749	0.458
948.000	549.692	79.999	19.994	103.053	20.088	3.617	0.476
950.000	550.587	79.999	19.995	103.058	20.088	3.620	0.460
952.000	551.561	79.999	19.996	103.054	20.092	3.355	0.475
954.000	552.488	79.999	19.995	103.058	20.088	3.635	0.449
956.000	553.492	79.998	19.994	103.068	20.087	3.686	0.488
958.000	554.455	80.000	19.995	103.070	20.083	3.949	0.482
960.000	555.436	80.001	19.995	103.070	20.083	3.926	0.500
962.000	556.419	80.000	19.994	103.056	20.085	3.844	0.484
964.000	557.410	80.000	19.995	103.069	20.087	3.692	0.505
966.000	558.315	80.001	19.994	103.066	20.088	3.597	0.463
968.000	559.345	80.001	19.993	103.061	20.084	3.867	0.532
970.000	560.381	80.000	19.995	103.066	20.090	3.504	0.505
972.000	561.399	80.001	19.994	103.062	20.092	3.372	0.485
974.000	562.447	79.999	19.995	103.074	20.086	3.752	0.545
976.000	563.398	79.999	19.996	103.072	20.086	3.761	0.500
978.000	564.413	79.998	19.996	103.070	20.088	3.588	0.518
980.000	565.436	79.998	19.996	103.073	20.086	3.740	0.532
982.000	566.479	79.998	19.996	103.062	20.087	3.656	0.507
984.000	567.487	79.999	19.996	103.063	20.083	3.934	0.511
986.000	568.517	79.999	19.996	103.056	20.084	3.892	0.498
988.000	569.550	79.998	19.996	103.045	20.084	3.908	0.510
990.000	570.532	79.998	19.995	103.055	20.085	3.797	0.531
992.000	571.552	79.998	19.996	103.053	20.084	3.854	0.514
994.000	572.589	80.000	19.995	103.053	20.084	3.862	0.522
996.000	573.637	79.998	19.996	103.057	20.083	3.916	0.523
998.000	574.667	80.000	19.996	103.055	20.085	3.832	0.484
1000.000	575.723	79.998	19.996	103.065	20.086	3.774	0.507
1002.000	576.766	79.997	19.996	103.057	20.084	3.869	0.508
1004.000	577.843	79.998	19.995	103.067	20.082	4.024	0.540
1006.000	578.850	79.997	19.995	103.077	20.084	3.889	0.544
1008.000	579.875	79.996	19.996	103.077	20.085	3.798	0.523
1010.000	580.892	79.997	19.996	103.078	20.085	3.783	0.486
1012.000	581.973	79.996	19.996	103.074	20.083	3.943	0.539
1014.000	583.006	79.996	19.997	103.067	20.087	3.671	0.532
1016.000	584.017	79.997	19.997	103.070	20.086	3.756	0.492
1018.000	585.033	79.998	19.998	103.078	20.086	3.764	0.538
1020.000	586.101	79.999	19.996	103.071	20.085	3.845	0.517
1022.000	587.129	79.999	19.995	103.077	20.084	3.860	0.486
1024.000	588.181	80.000	19.996	103.077	20.084	3.885	0.528
1026.000	589.287	80.002	19.995	103.070	20.085	3.830	0.547
1028.000	590.323	79.999	19.996	103.074	20.084	3.875	0.515
1030.001	591.419	79.999	19.995	103.065	20.085	3.808	0.556
1032.001	592.474	80.000	19.995	103.062	20.087	3.660	0.519
1034.000	593.588	80.000	19.995	103.070	20.084	3.888	0.555
1036.001	594.699	79.999	19.996	103.070	20.083	3.974	0.553
1038.000	595.783	80.000	19.995	103.076	20.081	4.060	0.557
1040.001	596.896	80.000	19.995	103.073	20.085	3.796	0.550
1042.000	597.985	80.000	19.995	103.063	20.080	4.118	0.557
1044.000	599.057	80.001	19.996	103.067	20.084	3.887	0.516
1046.000	600.174	80.001	19.994	103.069	20.084	3.891	0.532
1048.000	601.216	80.003	19.995	103.070	20.081	4.052	0.519
1050.000	602.309	80.001	19.995	103.064	20.080	4.148	0.543
1052.000	603.379	80.000	19.994	103.071	20.078	4.250	0.504
1054.001	604.483	80.001	19.994	103.076	20.082	4.021	0.573
1056.000	605.560	79.999	19.994	103.076	20.082	4.037	0.563
1058.000	606.630	79.999	19.995	103.078	20.083	3.962	0.542
1060.000	607.711	79.998	19.995	103.076	20.083	3.949	0.515
1062.000	608.749	80.000	19.995	103.078	20.082	4.032	0.513
1064.000	609.819	79.999	19.995	103.075	20.082	4.026	0.541
1066.001	610.868	79.999	19.994	103.070	20.083	3.955	0.517
1068.000	611.958	79.999	19.996	103.073	20.080	4.132	0.518
1070.000	613.032	79.998	19.995	103.072	20.080	4.139	0.537
1072.000	614.101	80.000	19.995	103.076	20.078	4.298	0.525
1074.000	615.163	79.997	19.994	103.073	20.077	4.341	0.512
1076.000	616.188	79.997	19.996	103.074	20.083	3.942	0.508
1078.000	617.273	79.998	19.996	103.075	20.079	4.177	0.525
1080.000	618.277	79.999	19.994	103.070	20.078	4.285	0.508
1082.000	619.311	79.998	19.996	103.076	20.080	4.155	0.492
1084.001	620.338	79.999	19.995	103.080	20.080	4.128	0.498
1086.000	621.327	79.999	19.995	103.076	20.081	4.069	0.490
1088.000	622.412	79.998	19.996	103.076	20.078	4.273	0.532
1090.000	623.443	79.999	19.995	103.067	20.080	4.118	0.520
1092.000	624.483	79.998	19.994	103.073	20.082	3.993	0.533
1094.001	625.444	79.997	19.995	103.075	20.080	4.159	0.487
1096.001	626.499	79.999	19.996	103.075	20.082	4.030	0.512
1098.000	627.543	79.998	19.997	103.076	20.078	4.256	0.528
1100.000	628.590	80.000	19.996	103.077	20.081	4.066	0.524
1102.000	629.578	80.000	19.996	103.076	20.077	4.323	0.506
1104.000	630.626	80.000	19.995	103.077	20.080	4.125	0.508
1106.000	631.676	80.000	19.997	103.077	20.081	4.064	0.517
1108.000	632.673	80.000	19.996	103.082	20.082	4.009	0.490
1110.000	633.690	79.998	19.996	103.084	20.076	4.415	0.488
1112.000	634.713	79.999	19.997	103.078	20.079	4.202	0.502
1114.000	635.733	79.999	19.997	103.078	20.081	4.084	0.495
1116.000	636.762	80.000	19.995	103.083	20.081	4.065	0.490
1118.000	637.776	80.001	19.995	103.079	20.084	3.910	0.506
1120.000	638.805	80.001	19.994	103.080	20.082	4.038	0.532
1122.000	639.770	80.000	19.995	103.083	20.079	4.190	0.469
1124.000	640.766	80.002	19.994	103.080	20.080	4.121	0.486
1126.000	641.790	80.001	19.994	103.081	20.077	4.350	0.487
1128.000	642.806	80.002	19.995	103.101	20.077	4.355	0.492
1130.000	643.800	80.000	19.996	103.092	20.075	4.439	0.495
1132.000	644.835	80.001	19.995	103.088	20.077	4.312	0.475
1134.000	645.828	80.001	19.995	103.113	20.079	4.198	0.498
1136.000	646.837	80.000	19.996	103.109	20.074	4.509	0.504
1138.000	647.839	79.998	19.995	103.105	20.074	4.507	0.472
1140.000	648.816	79.998	19.994	103.097	20.079	4.176	0.505
1142.000	649.808	79.998	19.994	103.111	20.078	4.274	0.513
1144.000	650.834	80.000	19.995	103.110	20.073	4.572	0.492
1146.000	651.795	79.999	19.994	103.110	20.072	4.685	0.504
1148.000	652.804	80.000	19.996	103.105	20.075	4.491	0.491
1150.000	653.827	80.000	19.995	103.116	20.072	4.649	0.511
1152.000	654.831	79.999	19.994	103.106	20.073	4.597	0.518
1154.000	655.876	80.000	19.996	103.108	20.076	4.388	0.544
1156.000	656.865	79.998	19.996	103.116	20.075	4.486	0.525
1158.000	657.836	79.998	19.997	103.116	20.073	4.563	0.475
1160.001	658.871	79.999	19.995	103.120	20.072	4.651	0.480
1162.001	659.834	79.997	19.996	103.117	20.071	4.753	0.500
1164.000	660.876	80.000	19.993	103.115	20.070	4.796	0.505
1166.000	661.833	79.999	19.995	103.118	20.068	4.925	0.489
1168.000	662.866	80.000	19.997	103.138	20.069	4.838	0.503
1170.000	663.845	79.998	19.996	103.141	20.069	4.878	0.474
1172.000	664.822	79.995	19.998	103.118	20.065	5.140	0.534
1174.000	665.810	80.001	19.993	103.124	20.066	5.039	0.468
1176.000	666.804	80.000	19.996	103.136	20.069	4.845	0.475
1178.000	667.843	80.000	19.992	103.139	20.068	4.901	0.493
1180.000	668.803	79.999	19.996	103.153	20.072	4.663	0.485
1182.000	669.807	80.000	19.994	103.151	20.064	5.148	0.497
1184.000	670.860	80.002	19.999	103.148	20.067	4.992	0.539
1186.000	671.815	79.998	19.996	103.154	20.066	5.021	0.481
1188.001	672.836	80.000	19.995	103.153	20.067	4.983	0.502
1190.001	673.868	79.998	19.997	103.157	20.067	5.005	0.509
1192.000	674.841	80.000	19.992	103.159	20.066	5.079	0.497
1194.000	675.885	80.004	19.997	103.159	20.066	5.067	0.492
1196.001	676.874	79.997	19.994	103.162	20.066	5.050	0.517
1198.000	677.901	80.001	19.997	103.158	20.065	5.098	0.499
1200.001	678.883	80.001	19.996	103.153	20.066	5.039	0.495
1202.000	679.900	80.001	19.996	103.165	20.057	5.613	0.516
1204.000	680.918	80.000	19.997	103.176	20.061	5.357	0.538
1206.000	681.847	80.000	19.995	103.192	20.058	5.540	0.506
1208.000	682.865	79.998	19.997	103.192	20.059	5.497	0.498
1210.000	683.898	80.000	19.995	103.192	20.056	5.717	0.521
1212.000	684.889	80.004	19.994	103.178	20.055	5.755	0.508
1214.000	685.888	79.997	20.002	103.186	20.054	5.822	0.508
1216.000	686.880	80.000	19.993	103.192	20.057	5.660	0.519
1218.000	687.871	79.998	19.998	103.194	20.059	5.512	0.529
1220.000	688.863	79.998	19.999	103.190	20.055	5.736	0.517
1222.000	689.830	79.994	20.004	103.192	20.056	5.719	0.473
1224.000	690.867	79.999	19.994	103.203	20.053	5.877	0.521
1226.000	691.871	79.997	19.997	103.201	20.053	5.868	0.518
1228.000	692.873	79.997	19.995	103.205	20.052	5.983	0.499
1230.000	693.878	80.001	19.995	103.217	20.048	6.242	0.498
1232.000	694.883	79.998	19.999	103.217	20.048	6.250	0.500
1234.001	695.897	80.001	19.994	103.229	20.046	6.354	0.496
1236.000	696.918	80.000	19.994	103.236	20.047	6.280	0.520
1238.000	697.890	80.001	19.994	103.234	20.047	6.320	0.494
1240.000	698.911	79.997	19.996	103.233	20.046	6.364	0.531
1242.001	699.915	79.997	19.994	103.234	20.045	6.395	0.507
1244.000	700.903	79.998	19.994	103.235	20.044	6.489	0.516
1246.000	701.955	80.002	19.996	103.234	20.045	6.400	0.540
1248.000	702.987	79.993	19.994	103.240	20.044	6.474	0.540
1250.001	703.968	80.002	19.994	103.258	20.041	6.676	0.502
1252.000	705.018	79.996	19.994	103.251	20.040	6.733	0.506
1254.000	706.025	79.995	19.995	103.267	20.042	6.599	0.502
1256.000	707.018	79.999	19.996	103.256	20.044	6.465	0.482
1258.000	708.048	79.991	19.998	103.274	20.041	6.708	0.534
1260.000	709.102	80.000	19.996	103.262	20.043	6.570	0.521
1262.000	710.107	79.999	19.996	103.276	20.040	6.727	0.485
1264.000	711.096	80.000	19.994	103.284	20.041	6.679	0.503
1266.000	712.097	79.998	19.998	103.294	20.038	6.875	0.491
1268.000	713.117	79.996	19.991	103.295	20.042	6.611	0.526
1270.000	714.112	80.000	19.995	103.285	20.041	6.713	0.481
1272.000	715.057	79.992	20.001	103.301	20.038	6.871	0.497
1274.000	716.134	80.000	19.997	103.298	20.035	7.077	0.535
1276.000	717.131	79.999	19.996	103.287	20.037	6.919	0.464
1278.000	718.112	80.000	19.995	103.310	20.036	7.001	0.492
1280.000	719.120	79.997	19.998	103.308	20.036	7.019	0.515
1282.000	720.133	80.000	19.997	103.308	20.038	6.854	0.490
1284.000	721.121	80.003	19.997	103.308	20.036	7.027	0.493
1286.000	722.124	79.999	19.995	103.305	20.034	7.105	0.484
1288.000	723.127	80.001	19.996	103.309	20.032	7.261	0.523
1290.000	724.137	79.999	19.995	103.309	20.035	7.065	0.478
1292.000	725.141	80.002	19.996	103.308	20.035	7.066	0.497
1294.000	726.114	80.002	19.994	103.311	20.032	7.280	0.484
1296.000	727.145	79.998	19.997	103.312	20.033	7.179	0.539
1298.000	728.132	80.002	19.992	103.310	20.036	6.993	0.488
1300.000	729.130	79.998	19.996	103.315	20.035	7.066	0.469
1302.001	730.141	79.997	19.991	103.317	20.035	7.078	0.512
1304.000	731.146	80.001	19.995	103.319	20.038	6.896	0.490
1306.000	732.116	79.999	19.995	103.315	20.036	7.009	0.499
1308.000	733.125	80.000	19.995	103.311	20.033	7.228	0.508
1310.000	734.132	79.999	19.997	103.311	20.037	6.930	0.500
1312.000	735.143	79.997	19.996	103.310	20.032	7.277	0.494
1314.000	736.104	79.998	19.995	103.310	20.038	6.856	0.470
1316.000	737.110	79.999	19.995	103.311	20.038	6.892	0.523
1318.000	738.134	79.997	19.997	103.307	20.036	7.002	0.521
1320.000	739.118	80.000	19.994	103.303	20.040	6.724	0.509
1322.000	740.102	79.996	19.995	103.307	20.040	6.761	0.509
1324.000	741.067	79.999	19.994	103.304	20.040	6.731	0.517
1326.000	742.046	79.996	19.994	103.306	20.039	6.818	0.493
1328.000	743.085	80.001	19.991	103.299	20.039	6.817	0.510
1329.500	743.793	80.001	19.991	103.289	20.041	6.664	0.485