File: 01_Data/Nylon_Carpet_LowPile/MCC/Nylon_Carpet_LowPile_MCC_30K_min_211028_R3.txt
Sample ID:	C:\MCC\MCC Cal\Test\Nylon_Carpet_LowPile_MCC_30K_min_211028_R3.txt
Sample Weight (mg):	4.63
Heating Rate (C/s):	0.5
Combustor Temp (C):	900
N2 Flow Rate (cc/min):	80
O2 Flow Rate (cc/min):	20
Calibration File:	C:\MCC\MCC Cal\Coeff1 JN10440_30_210304.txt.txt
T Correction Coefficients:	0	1.024463	0
Time Shift (s):	14
*
Time (s)	Temperature (C)	N2 flow rate (cc/min)	O2 flow rate (cc/min)	Flow Rate (cc/min)	Oxygen (%)	HRR (W/g)	Heating rate (C/s)
0.000	107.823	80.001	19.994	102.950	20.100	0.052	0.001
2.000	107.796	80.000	19.994	102.928	20.102	-0.069	-0.005
4.000	107.767	79.998	19.995	102.947	20.100	0.099	-0.001
6.000	107.757	80.000	20.000	102.934	20.101	0.027	-0.024
8.000	107.786	80.002	19.996	102.947	20.100	0.101	0.001
10.000	107.796	80.002	19.994	102.949	20.096	0.320	-0.013
12.000	107.756	80.002	19.996	102.956	20.099	0.157	-0.023
14.000	107.765	80.002	19.995	102.955	20.097	0.247	0.006
16.000	107.810	80.003	19.996	102.958	20.095	0.452	-0.016
18.000	107.820	80.002	19.996	102.963	20.094	0.508	-0.023
20.000	107.866	80.001	19.994	102.987	20.091	0.669	0.044
22.000	107.824	80.001	19.993	102.994	20.091	0.665	-0.004
24.000	107.865	80.000	19.994	103.019	20.085	1.140	0.005
26.000	107.972	80.000	19.994	103.049	20.079	1.552	0.047
28.000	108.056	80.001	19.994	103.100	20.077	1.660	0.072
30.000	108.175	80.000	19.994	103.113	20.072	1.986	0.073
32.000	108.313	80.001	19.994	103.120	20.069	2.195	0.049
34.000	108.541	80.001	19.994	103.116	20.071	2.088	0.108
36.000	108.747	79.999	19.994	103.125	20.069	2.247	0.142
38.000	109.015	80.001	19.994	103.145	20.065	2.472	0.134
40.001	109.252	80.000	19.995	103.148	20.064	2.552	0.135
42.001	109.583	80.001	19.997	103.160	20.062	2.738	0.156
44.001	109.896	80.001	19.994	103.172	20.061	2.804	0.131
46.000	110.311	79.999	19.997	103.159	20.061	2.773	0.188
48.000	110.698	79.999	19.997	103.182	20.058	2.961	0.207
50.000	111.144	80.002	19.994	103.191	20.056	3.120	0.235
52.001	111.559	79.994	19.994	103.190	20.059	2.922	0.223
54.000	112.082	80.000	19.995	103.194	20.058	2.984	0.255
56.000	112.518	79.998	19.996	103.193	20.054	3.258	0.228
58.001	113.080	79.999	19.994	103.191	20.055	3.176	0.290
60.000	113.640	80.000	19.993	103.191	20.053	3.344	0.297
62.000	114.192	79.999	19.994	103.191	20.051	3.454	0.293
64.000	114.774	80.001	19.995	103.195	20.053	3.337	0.283
66.000	115.374	80.000	19.996	103.194	20.051	3.469	0.286
68.000	116.006	80.000	19.995	103.199	20.054	3.289	0.341
70.000	116.621	80.000	19.995	103.196	20.053	3.365	0.317
72.000	117.303	80.000	19.994	103.195	20.053	3.342	0.315
74.000	117.993	80.000	19.995	103.196	20.051	3.486	0.343
76.000	118.642	80.001	19.996	103.208	20.052	3.413	0.327
78.000	119.352	79.999	19.996	103.203	20.050	3.574	0.346
80.000	120.100	80.000	19.996	103.201	20.050	3.557	0.386
82.000	120.858	80.001	19.995	103.194	20.052	3.430	0.363
84.000	121.567	80.000	19.995	103.197	20.050	3.571	0.383
86.000	122.382	80.001	19.993	103.194	20.051	3.485	0.384
88.000	123.145	80.001	19.994	103.193	20.051	3.483	0.359
90.000	123.948	80.002	19.996	103.197	20.054	3.259	0.396
92.000	124.749	80.002	19.995	103.215	20.048	3.662	0.421
94.000	125.556	80.003	19.995	103.226	20.050	3.556	0.429
96.000	126.405	80.003	19.995	103.216	20.045	3.899	0.439
98.000	127.256	80.003	19.995	103.218	20.049	3.631	0.411
100.000	128.104	80.002	19.994	103.214	20.051	3.491	0.442
102.000	128.992	80.003	19.994	103.220	20.049	3.620	0.429
104.000	129.880	80.000	19.995	103.221	20.052	3.426	0.444
106.000	130.770	80.000	19.995	103.224	20.050	3.535	0.470
108.000	131.634	80.000	19.994	103.219	20.048	3.702	0.428
110.000	132.546	79.999	19.994	103.214	20.050	3.568	0.452
112.000	133.503	80.000	19.994	103.226	20.054	3.291	0.483
114.001	134.405	80.001	19.995	103.221	20.052	3.398	0.457
116.001	135.344	80.000	19.995	103.231	20.052	3.440	0.455
118.000	136.308	79.999	19.994	103.211	20.053	3.320	0.451
120.000	137.222	80.001	19.994	103.225	20.049	3.650	0.478
122.000	138.224	80.000	19.995	103.221	20.053	3.356	0.468
124.001	139.182	80.000	19.995	103.209	20.051	3.460	0.489
126.000	140.133	79.999	19.995	103.198	20.051	3.490	0.471
128.000	141.138	80.000	19.994	103.199	20.056	3.156	0.475
130.000	142.077	79.999	19.994	103.203	20.055	3.216	0.469
132.000	143.071	80.000	19.995	103.210	20.048	3.711	0.515
134.000	144.078	79.999	19.995	103.208	20.053	3.358	0.474
136.001	145.052	80.000	19.995	103.196	20.050	3.549	0.499
138.000	146.061	79.999	19.994	103.195	20.047	3.764	0.509
140.000	147.055	79.999	19.996	103.195	20.049	3.620	0.483
142.000	148.026	80.000	19.997	103.194	20.047	3.735	0.486
144.000	149.031	80.000	19.995	103.193	20.050	3.572	0.494
146.000	150.031	80.000	19.995	103.192	20.050	3.563	0.484
148.000	151.032	80.000	19.995	103.192	20.053	3.312	0.483
150.000	152.050	80.001	19.995	103.188	20.053	3.331	0.508
152.000	152.994	80.000	19.995	103.192	20.054	3.296	0.460
154.000	154.008	80.002	19.995	103.191	20.054	3.242	0.516
156.000	154.979	80.001	19.995	103.188	20.054	3.286	0.497
158.000	155.986	79.998	19.997	103.191	20.054	3.252	0.511
160.000	157.009	79.999	19.996	103.193	20.055	3.179	0.507
162.000	158.025	80.001	19.996	103.189	20.053	3.296	0.498
164.000	159.022	80.000	19.996	103.183	20.055	3.200	0.485
166.000	160.054	80.001	19.996	103.176	20.057	3.062	0.525
168.000	161.013	80.000	19.996	103.184	20.068	2.298	0.525
170.000	162.000	79.999	19.998	103.037	20.076	1.746	0.458
172.000	162.859	80.000	19.996	102.866	20.093	0.527	0.412
174.000	163.692	80.001	19.996	102.821	20.104	-0.237	0.412
176.000	164.308	80.001	19.996	102.803	20.112	-0.730	0.304
178.000	164.869	80.002	19.994	102.807	20.117	-1.135	0.272
180.000	165.402	80.001	19.994	102.807	20.120	-1.318	0.288
182.000	165.743	80.002	19.995	102.802	20.124	-1.595	0.181
184.000	166.040	80.001	19.993	102.801	20.124	-1.616	0.170
186.000	166.284	80.001	19.994	102.802	20.125	-1.689	0.122
188.000	166.499	80.001	19.995	102.799	20.127	-1.813	0.087
190.000	166.600	79.998	19.995	102.802	20.129	-1.908	0.043
192.000	166.644	79.999	19.995	102.802	20.129	-1.916	0.043
194.000	166.602	79.999	19.995	102.803	20.130	-2.010	0.013
196.000	166.573	79.998	19.995	102.787	20.133	-2.182	-0.040
198.000	166.446	79.999	19.995	102.802	20.132	-2.118	-0.071
200.000	166.288	80.000	19.995	102.800	20.132	-2.124	-0.071
202.000	166.149	80.000	19.994	102.805	20.129	-1.954	-0.093
204.000	165.911	79.999	19.994	102.800	20.133	-2.218	-0.157
206.000	165.664	80.000	19.995	102.801	20.130	-1.983	-0.134
208.000	165.424	80.000	19.995	102.799	20.129	-1.964	-0.126
210.000	165.117	80.000	19.995	102.791	20.130	-2.033	-0.149
212.000	164.750	79.999	19.994	102.789	20.133	-2.202	-0.155
214.000	164.398	80.001	19.995	102.794	20.133	-2.222	-0.178
216.000	163.978	79.999	19.995	102.790	20.132	-2.130	-0.199
218.000	163.588	79.999	19.995	102.790	20.134	-2.262	-0.198
220.000	163.174	79.999	19.995	102.795	20.133	-2.218	-0.223
222.000	162.725	80.000	19.995	102.798	20.134	-2.254	-0.215
224.000	162.293	79.999	19.993	102.791	20.132	-2.128	-0.229
226.000	161.826	79.999	19.996	102.799	20.131	-2.084	-0.212
228.000	161.370	80.000	19.994	102.799	20.133	-2.224	-0.208
230.000	160.889	80.001	19.996	102.800	20.133	-2.214	-0.258
232.000	160.379	80.000	19.995	102.800	20.131	-2.048	-0.255
234.000	159.915	80.001	19.995	102.800	20.132	-2.122	-0.228
236.000	159.365	80.001	19.996	102.799	20.132	-2.117	-0.241
238.000	158.844	80.000	19.997	102.798	20.132	-2.168	-0.245
240.000	158.315	80.002	19.996	102.800	20.134	-2.279	-0.287
242.000	157.843	80.002	19.995	102.800	20.134	-2.273	-0.248
244.000	157.258	80.000	19.995	102.798	20.131	-2.077	-0.280
246.000	156.760	80.000	19.995	102.798	20.131	-2.063	-0.272
248.000	156.210	79.998	19.995	102.802	20.133	-2.233	-0.266
250.000	155.704	80.000	19.994	102.804	20.134	-2.296	-0.249
252.000	155.178	80.000	19.996	102.806	20.136	-2.437	-0.252
254.000	154.639	80.000	19.995	102.805	20.134	-2.325	-0.267
256.000	154.113	80.000	19.995	102.807	20.133	-2.221	-0.297
258.000	153.567	80.000	19.996	102.814	20.130	-1.999	-0.285
260.000	153.007	80.000	19.996	102.825	20.106	-0.381	-0.278
262.000	152.513	80.002	19.996	103.076	20.074	1.875	-0.240
264.000	152.199	80.003	19.995	103.490	20.044	3.948	-0.167
266.000	152.055	80.000	19.995	103.584	20.021	5.558	-0.037
268.000	152.136	80.001	19.996	103.603	20.009	6.400	0.069
270.000	152.372	80.000	19.996	103.621	19.996	7.328	0.136
272.000	152.800	80.000	19.996	103.600	19.990	7.723	0.209
274.000	153.360	79.999	19.995	103.582	19.988	7.889	0.289
276.000	154.103	80.000	19.995	103.583	19.990	7.756	0.354
278.000	154.980	80.001	19.995	103.536	19.991	7.685	0.447
280.000	155.983	80.000	19.995	103.511	19.993	7.510	0.509
282.000	157.024	79.999	19.995	103.500	19.995	7.407	0.528
284.000	158.213	79.999	19.994	103.480	19.999	7.139	0.596
286.000	159.467	79.999	19.994	103.463	19.999	7.119	0.636
288.000	160.773	80.000	19.995	103.461	19.998	7.147	0.668
290.000	162.243	80.000	19.995	103.463	19.998	7.165	0.738
292.000	163.693	79.999	19.994	103.461	20.000	7.073	0.742
294.000	165.241	79.998	19.997	103.451	20.005	6.695	0.784
296.000	166.796	80.000	19.994	103.435	20.010	6.338	0.768
298.000	168.444	79.999	19.996	103.427	20.010	6.351	0.802
300.000	170.100	79.998	19.995	103.407	20.011	6.256	0.855
302.000	171.728	79.999	19.996	103.417	20.013	6.129	0.831
304.000	173.463	79.998	19.996	103.397	20.016	5.938	0.846
306.000	175.239	80.000	19.995	103.388	20.015	5.997	0.865
308.000	177.065	79.999	19.996	103.385	20.018	5.812	0.918
310.000	178.866	80.000	19.995	103.369	20.018	5.786	0.899
312.000	180.730	80.001	19.995	103.353	20.022	5.510	0.937
314.000	182.553	80.000	19.996	103.352	20.026	5.191	0.920
316.000	184.424	80.002	19.995	103.351	20.024	5.332	0.923
318.000	186.339	80.002	19.995	103.331	20.025	5.301	0.936
320.000	188.195	80.001	19.994	103.315	20.029	4.994	0.903
322.000	190.052	80.000	19.996	103.312	20.032	4.823	0.912
324.000	191.857	80.000	19.995	103.309	20.030	4.940	0.896
326.000	193.745	80.001	19.995	103.306	20.033	4.711	0.932
328.000	195.550	79.999	19.995	103.291	20.035	4.625	0.922
330.000	197.351	79.998	19.995	103.282	20.033	4.751	0.900
332.000	199.185	79.999	19.995	103.276	20.039	4.333	0.888
334.000	200.979	80.000	19.995	103.282	20.038	4.418	0.880
336.000	202.791	80.000	19.995	103.273	20.038	4.393	0.892
338.000	204.517	80.001	19.995	103.271	20.039	4.290	0.865
340.000	206.368	80.002	19.996	103.264	20.043	4.003	0.895
342.000	208.081	80.002	19.995	103.258	20.043	4.034	0.907
344.000	209.870	80.003	19.995	103.251	20.048	3.683	0.879
346.000	211.619	80.003	19.996	103.236	20.047	3.741	0.863
348.000	213.331	80.002	19.995	103.238	20.045	3.886	0.888
350.000	215.060	80.001	19.996	103.233	20.047	3.752	0.838
352.000	216.751	80.000	19.996	103.227	20.047	3.774	0.842
354.000	218.499	79.998	19.997	103.231	20.045	3.865	0.852
356.000	220.163	79.998	19.997	103.234	20.048	3.713	0.853
358.000	221.793	79.999	19.996	103.228	20.047	3.774	0.826
360.000	223.460	79.999	19.996	103.226	20.049	3.588	0.830
362.000	225.096	80.000	19.996	103.209	20.050	3.576	0.828
364.000	226.706	80.000	19.996	103.220	20.048	3.664	0.801
366.000	228.319	80.000	19.996	103.218	20.047	3.756	0.790
368.000	229.887	80.000	19.995	103.200	20.053	3.328	0.789
370.000	231.490	80.000	19.995	103.191	20.050	3.566	0.796
372.000	232.996	80.000	19.995	103.188	20.050	3.524	0.766
374.000	234.466	79.999	19.995	103.189	20.055	3.212	0.757
376.000	236.003	80.000	19.995	103.186	20.053	3.315	0.773
378.000	237.435	80.000	19.994	103.184	20.057	3.046	0.733
380.000	238.892	80.000	19.995	103.181	20.056	3.157	0.709
382.000	240.329	79.999	19.995	103.187	20.054	3.268	0.712
384.000	241.763	79.999	19.995	103.181	20.057	3.077	0.712
386.000	243.158	79.998	19.995	103.179	20.057	3.071	0.714
388.000	244.587	79.998	19.996	103.178	20.056	3.125	0.731
390.000	245.930	80.000	19.995	103.167	20.056	3.161	0.664
392.000	247.285	79.999	19.995	103.159	20.056	3.140	0.661
394.000	248.621	79.999	19.995	103.163	20.059	2.908	0.676
396.000	249.992	80.000	19.994	103.159	20.056	3.105	0.674
398.000	251.331	80.000	19.994	103.156	20.059	2.938	0.662
400.000	252.615	80.000	19.994	103.156	20.058	3.024	0.625
402.000	253.898	80.002	19.995	103.156	20.061	2.774	0.628
404.000	255.167	80.003	19.995	103.157	20.061	2.766	0.642
406.000	256.367	80.002	19.995	103.150	20.060	2.821	0.584
408.000	257.691	80.001	19.995	103.149	20.059	2.900	0.626
410.000	258.938	80.001	19.996	103.141	20.061	2.758	0.640
412.000	260.142	80.002	19.994	103.137	20.062	2.691	0.591
414.000	261.312	80.001	19.996	103.149	20.064	2.570	0.595
416.000	262.497	80.000	19.996	103.140	20.062	2.698	0.601
418.000	263.731	80.000	19.996	103.132	20.064	2.579	0.618
420.000	264.858	80.001	19.995	103.143	20.062	2.746	0.565
422.000	266.023	80.002	19.996	103.125	20.062	2.688	0.566
424.000	267.204	80.002	19.997	103.132	20.063	2.644	0.605
426.000	268.310	80.002	19.995	103.113	20.064	2.595	0.546
428.000	269.450	80.004	19.995	103.112	20.063	2.612	0.574
430.000	270.564	80.003	19.996	103.119	20.068	2.267	0.536
432.000	271.705	80.002	19.996	103.118	20.067	2.384	0.587
434.000	272.770	80.000	19.995	103.112	20.064	2.541	0.523
436.000	273.880	80.000	19.994	103.120	20.062	2.746	0.576
438.000	274.955	79.999	19.996	103.122	20.065	2.533	0.545
440.000	276.018	79.999	19.996	103.114	20.064	2.541	0.577
442.000	277.080	79.999	19.995	103.118	20.062	2.708	0.533
444.000	278.111	79.999	19.995	103.122	20.063	2.658	0.507
446.000	279.153	80.000	19.996	103.118	20.066	2.462	0.526
448.000	280.151	79.997	19.997	103.113	20.065	2.522	0.524
450.000	281.160	79.999	19.997	103.117	20.066	2.437	0.490
452.000	282.165	79.999	19.996	103.115	20.064	2.598	0.512
454.000	283.146	80.000	19.996	103.115	20.065	2.506	0.488
456.000	284.209	79.999	19.996	103.115	20.066	2.401	0.535
458.000	285.184	79.999	19.996	103.116	20.064	2.583	0.508
460.000	286.171	80.000	19.995	103.116	20.062	2.707	0.475
462.000	287.150	79.999	19.995	103.116	20.066	2.466	0.475
464.000	288.076	79.998	19.995	103.117	20.063	2.675	0.476
466.000	289.076	79.999	19.995	103.120	20.063	2.637	0.486
468.000	290.054	80.000	19.995	103.116	20.062	2.740	0.492
470.000	291.026	79.999	19.996	103.114	20.063	2.671	0.480
472.000	292.003	79.999	19.996	103.114	20.061	2.784	0.486
474.000	292.963	79.999	19.996	103.112	20.061	2.803	0.477
476.000	293.938	79.999	19.997	103.114	20.058	2.991	0.492
478.000	294.905	80.000	19.995	103.113	20.059	2.903	0.477
480.000	295.830	80.001	19.995	103.111	20.058	2.995	0.449
482.000	296.775	80.001	19.994	103.108	20.058	3.004	0.485
484.000	297.715	80.001	19.995	103.114	20.055	3.223	0.460
486.000	298.688	80.001	19.995	103.115	20.056	3.139	0.484
488.000	299.654	80.001	19.996	103.117	20.053	3.361	0.492
490.000	300.627	80.002	19.996	103.115	20.053	3.359	0.483
492.000	301.576	80.000	19.995	103.108	20.051	3.445	0.472
494.000	302.514	80.002	19.995	103.109	20.050	3.528	0.457
496.000	303.521	80.000	19.995	103.113	20.051	3.451	0.497
498.000	304.471	80.002	19.995	103.112	20.046	3.807	0.460
500.000	305.464	80.000	19.995	103.111	20.044	3.938	0.512
502.000	306.369	80.002	19.995	103.116	20.048	3.696	0.507
504.000	307.324	80.002	19.995	103.114	20.042	4.091	0.497
506.000	308.319	80.002	19.995	103.112	20.041	4.194	0.504
508.000	309.266	80.002	19.995	103.110	20.039	4.323	0.467
510.000	310.234	80.002	19.995	103.116	20.034	4.633	0.461
512.000	311.236	80.001	19.995	103.116	20.030	4.940	0.517
514.000	312.183	80.002	19.995	103.115	20.029	4.980	0.474
516.000	313.192	80.000	19.995	103.113	20.027	5.112	0.495
518.000	314.167	79.999	19.995	103.114	20.027	5.139	0.476
520.000	315.107	79.999	19.995	103.116	20.021	5.572	0.459
522.000	316.102	80.001	19.997	103.118	20.024	5.381	0.483
524.000	317.056	79.998	19.995	103.118	20.021	5.545	0.452
526.000	318.059	80.000	19.995	103.119	20.016	5.892	0.483
528.000	319.085	79.998	19.995	103.118	20.010	6.325	0.527
530.000	320.063	79.999	19.995	103.120	20.010	6.354	0.508
532.000	321.039	80.000	19.995	103.120	20.005	6.693	0.478
534.001	322.017	80.001	19.996	103.118	20.002	6.910	0.490
536.000	323.019	79.999	19.996	103.118	19.995	7.354	0.491
538.000	324.046	80.000	19.996	103.114	19.993	7.473	0.515
540.000	325.064	79.999	19.997	103.114	19.987	7.904	0.503
542.000	326.086	79.999	19.996	103.114	19.981	8.335	0.531
544.000	327.077	80.000	19.996	103.114	19.978	8.575	0.514
546.000	328.085	79.999	19.997	103.114	19.975	8.757	0.506
548.000	329.133	80.000	19.996	103.113	19.967	9.278	0.526
550.000	330.134	79.999	19.996	103.113	19.963	9.625	0.519
552.000	331.175	79.999	19.997	103.115	19.961	9.730	0.521
554.000	332.215	79.999	19.996	103.114	19.952	10.322	0.509
556.000	333.234	80.000	19.996	103.123	19.945	10.842	0.537
558.000	334.264	80.001	19.995	103.118	19.939	11.280	0.505
560.000	335.294	80.001	19.995	103.116	19.929	11.978	0.524
562.000	336.327	80.001	19.995	103.115	19.921	12.516	0.515
564.000	337.372	80.001	19.995	103.116	19.917	12.787	0.528
566.000	338.399	80.002	19.995	103.116	19.908	13.438	0.520
568.000	339.414	80.002	19.994	103.114	19.897	14.201	0.528
570.000	340.467	80.001	19.995	103.114	19.888	14.807	0.514
572.000	341.458	80.001	19.996	103.114	19.882	15.247	0.529
574.000	342.496	80.001	19.995	103.117	19.870	16.023	0.495
576.000	343.485	79.999	19.995	103.116	19.857	16.981	0.478
578.000	344.568	80.000	19.996	103.117	19.853	17.245	0.540
580.000	345.577	80.001	19.995	103.111	19.840	18.146	0.515
582.000	346.608	80.001	19.994	103.116	19.825	19.152	0.505
584.000	347.611	80.001	19.994	103.118	19.816	19.786	0.497
586.000	348.651	80.001	19.995	103.116	19.799	20.992	0.532
588.000	349.722	80.002	19.994	103.116	19.787	21.814	0.476
590.000	350.709	80.001	19.994	103.117	19.775	22.652	0.500
592.000	351.803	80.002	19.994	103.118	19.761	23.633	0.522
594.000	353.166	80.003	19.994	103.117	19.744	24.829	0.859
596.000	353.841	80.002	19.995	103.117	19.729	25.860	0.630
598.000	354.924	80.001	19.994	103.117	19.712	27.033	0.591
600.000	355.820	79.999	19.994	103.115	19.696	28.131	0.522
602.000	356.934	79.999	19.995	103.114	19.679	29.320	0.453
604.000	357.991	79.999	19.995	103.114	19.662	30.475	0.524
606.000	358.937	79.998	19.997	103.115	19.643	31.830	0.475
608.000	359.960	79.998	19.997	103.115	19.624	33.140	0.497
610.000	360.928	79.998	19.995	103.123	19.607	34.358	0.486
612.000	361.964	79.999	19.996	103.126	19.589	35.568	0.523
614.000	362.974	80.000	19.995	103.125	19.569	36.977	0.514
616.000	363.957	79.999	19.996	103.124	19.548	38.453	0.499
618.000	364.976	80.000	19.997	103.117	19.528	39.846	0.484
620.000	366.006	79.999	19.995	103.114	19.503	41.563	0.500
622.001	366.990	79.999	19.996	103.118	19.481	43.106	0.498
624.000	367.967	80.000	19.995	103.122	19.457	44.732	0.494
626.000	369.037	79.999	19.996	103.129	19.438	46.056	0.516
628.000	370.028	79.999	19.995	103.134	19.415	47.651	0.501
630.000	370.997	79.998	19.996	103.129	19.394	49.160	0.514
632.000	372.059	79.998	19.996	103.123	19.364	51.195	0.535
634.000	373.071	79.998	19.996	103.118	19.344	52.638	0.507
636.000	374.088	79.998	19.996	103.126	19.313	54.805	0.538
638.000	375.091	79.998	19.996	103.123	19.286	56.674	0.512
640.000	376.135	79.997	19.996	103.126	19.262	58.313	0.512
642.000	377.144	79.999	19.996	103.129	19.231	60.493	0.500
644.000	378.205	79.999	19.996	103.129	19.202	62.468	0.516
646.000	379.163	80.000	19.995	103.142	19.167	64.898	0.470
648.000	380.223	79.998	19.995	103.141	19.139	66.835	0.552
650.000	381.213	80.001	19.996	103.150	19.104	69.269	0.470
652.000	382.276	80.000	19.994	103.131	19.070	71.666	0.515
654.000	383.261	79.999	19.994	103.145	19.040	73.775	0.495
656.000	384.296	79.999	19.994	103.152	19.004	76.212	0.534
658.000	385.327	80.000	19.996	103.147	18.967	78.816	0.496
660.000	386.297	79.998	19.994	103.141	18.932	81.224	0.458
662.000	387.310	80.000	19.994	103.151	18.894	83.878	0.501
664.000	388.365	80.001	19.994	103.143	18.852	86.819	0.529
666.000	389.364	80.001	19.996	103.145	18.815	89.364	0.480
668.000	390.374	80.000	19.995	103.134	18.777	91.988	0.494
670.000	391.425	80.001	19.994	103.140	18.734	94.980	0.563
672.000	392.404	80.002	19.994	103.123	18.697	97.551	0.515
674.000	393.405	80.001	19.995	103.113	18.658	100.295	0.494
676.000	394.402	80.003	19.995	103.114	18.626	102.497	0.498
678.000	395.421	80.002	19.994	103.112	18.590	105.017	0.531
680.000	396.441	80.002	19.995	103.115	18.563	106.805	0.502
682.000	397.407	80.001	19.994	103.113	18.535	108.813	0.483
684.000	398.388	80.000	19.995	103.114	18.507	110.734	0.502
686.000	399.386	79.999	19.994	103.111	18.486	112.189	0.516
688.000	400.394	79.999	19.995	103.109	18.468	113.393	0.484
690.000	401.384	80.000	19.995	103.093	18.451	114.574	0.513
692.000	402.377	80.001	19.995	103.087	18.445	114.997	0.482
694.000	403.390	79.999	19.995	103.084	18.442	115.162	0.526
696.000	404.369	79.999	19.995	103.077	18.447	114.876	0.498
698.000	405.353	79.999	19.996	103.074	18.458	114.113	0.494
700.000	406.376	80.000	19.995	103.068	18.474	112.957	0.496
702.000	407.374	80.000	19.996	103.052	18.502	111.047	0.514
704.000	408.377	79.999	19.995	103.045	18.533	108.874	0.520
706.000	409.383	79.999	19.995	103.038	18.571	106.232	0.507
708.000	410.361	80.001	19.996	103.037	18.618	102.988	0.484
710.000	411.427	80.000	19.997	103.036	18.673	99.147	0.503
712.000	412.435	80.000	19.996	103.032	18.733	94.997	0.536
714.000	413.403	79.998	19.996	103.033	18.798	90.455	0.503
716.000	414.425	79.999	19.996	103.017	18.867	85.682	0.505
718.000	415.411	79.998	19.994	103.025	18.932	81.194	0.490
720.000	416.439	79.999	19.995	103.020	18.998	76.623	0.509
722.000	417.426	79.998	19.996	103.022	19.058	72.420	0.503
724.000	418.471	80.000	19.996	103.032	19.119	68.188	0.499
726.000	419.422	79.999	19.996	103.032	19.173	64.447	0.483
728.000	420.520	80.000	19.996	103.034	19.223	60.945	0.524
730.000	421.527	80.001	19.997	103.040	19.270	57.736	0.502
732.000	422.535	80.001	19.996	103.038	19.309	55.036	0.467
734.000	423.537	80.002	19.997	103.047	19.343	52.640	0.519
736.000	424.553	79.999	19.996	103.037	19.372	50.625	0.522
738.000	425.566	80.001	19.996	103.040	19.395	49.042	0.535
740.000	426.582	80.001	19.996	103.047	19.416	47.600	0.519
742.000	427.620	80.001	19.995	103.065	19.434	46.287	0.507
744.000	428.636	80.000	19.995	103.050	19.448	45.352	0.497
746.000	429.705	80.000	19.995	103.052	19.457	44.724	0.530
748.000	430.676	80.001	19.995	103.049	19.468	43.938	0.480
750.000	431.757	80.001	19.996	103.049	19.477	43.332	0.497
752.000	432.794	80.003	19.996	103.058	19.482	43.012	0.534
754.000	433.851	80.004	19.995	103.055	19.488	42.566	0.538
756.000	434.844	80.002	19.994	103.062	19.492	42.306	0.490
758.000	435.916	80.002	19.996	103.044	19.496	42.023	0.530
760.000	436.921	80.003	19.996	103.038	19.495	42.099	0.483
762.000	437.925	80.002	19.995	103.042	19.498	41.889	0.493
764.000	438.985	80.001	19.995	103.044	19.497	41.931	0.524
766.000	439.978	80.000	19.995	103.050	19.496	42.035	0.514
768.000	441.004	80.000	19.995	103.043	19.492	42.262	0.506
770.000	442.013	80.000	19.995	103.047	19.495	42.087	0.532
772.000	443.053	80.001	19.995	103.046	19.492	42.279	0.500
774.000	444.085	80.000	19.995	103.041	19.491	42.324	0.524
776.000	445.085	80.000	19.995	103.040	19.488	42.570	0.516
778.000	446.096	79.999	19.995	103.042	19.487	42.611	0.512
780.000	447.085	79.999	19.993	103.043	19.479	43.198	0.504
782.000	448.138	80.001	19.994	103.043	19.480	43.151	0.519
784.000	449.145	80.000	19.995	103.043	19.472	43.700	0.519
786.000	450.188	80.002	19.995	103.040	19.469	43.852	0.527
788.000	451.171	80.000	19.995	103.040	19.465	44.175	0.520
790.000	452.245	80.000	19.995	103.040	19.461	44.420	0.504
792.000	453.262	80.000	19.995	103.037	19.453	44.984	0.543
794.000	454.255	79.999	19.995	103.036	19.454	44.924	0.485
796.000	455.337	79.999	19.996	103.033	19.449	45.261	0.545
798.000	456.317	79.999	19.995	103.036	19.443	45.683	0.531
800.000	457.371	79.999	19.996	103.033	19.437	46.073	0.529
802.000	458.351	80.001	19.996	103.026	19.438	46.050	0.505
804.000	459.354	80.000	19.996	103.014	19.435	46.246	0.497
806.000	460.358	80.000	19.995	103.007	19.432	46.413	0.491
808.000	461.385	80.000	19.995	103.009	19.429	46.623	0.528
810.000	462.387	80.000	19.995	103.004	19.425	46.927	0.518
812.000	463.372	80.001	19.995	103.009	19.425	46.919	0.490
814.000	464.405	80.001	19.995	102.998	19.422	47.145	0.500
816.000	465.383	80.001	19.996	102.995	19.422	47.135	0.503
818.000	466.391	80.000	19.996	102.997	19.422	47.147	0.504
820.000	467.414	80.001	19.996	102.995	19.422	47.125	0.518
822.000	468.385	79.999	19.996	102.995	19.422	47.122	0.518
824.000	469.386	80.000	19.995	102.996	19.425	46.922	0.504
826.000	470.425	80.000	19.996	102.994	19.427	46.754	0.543
828.000	471.410	80.000	19.995	102.994	19.432	46.437	0.508
830.000	472.420	80.001	19.996	102.994	19.437	46.106	0.502
832.000	473.427	80.000	19.995	102.990	19.447	45.372	0.516
834.000	474.453	80.001	19.997	102.991	19.460	44.508	0.521
836.000	475.432	80.001	19.995	102.993	19.475	43.441	0.489
838.000	476.430	80.003	19.994	102.977	19.495	42.073	0.482
840.000	477.444	80.003	19.994	102.969	19.518	40.490	0.503
842.000	478.432	80.002	19.996	102.975	19.549	38.331	0.511
844.000	479.447	80.002	19.994	102.988	19.580	36.156	0.534
846.000	480.413	80.001	19.995	102.971	19.617	33.586	0.482
848.000	481.465	79.999	19.995	102.985	19.657	30.836	0.516
850.000	482.510	80.000	19.995	102.994	19.700	27.854	0.534
852.000	483.465	79.999	19.995	102.995	19.747	24.596	0.467
854.000	484.481	80.000	19.995	103.003	19.791	21.554	0.519
856.000	485.502	80.000	19.995	103.017	19.832	18.654	0.505
858.000	486.468	80.000	19.995	103.029	19.873	15.818	0.486
860.000	487.475	80.000	19.995	103.033	19.911	13.162	0.475
862.000	488.488	80.001	19.995	103.035	19.942	11.070	0.483
864.000	489.494	80.001	19.995	103.039	19.974	8.802	0.512
866.000	490.521	80.000	19.994	103.038	19.997	7.233	0.486
868.000	491.536	80.000	19.994	103.053	20.011	6.241	0.514
870.000	492.584	80.000	19.995	103.054	20.030	4.954	0.532
872.000	493.632	80.000	19.995	103.067	20.041	4.192	0.520
874.000	494.635	80.000	19.994	103.063	20.049	3.600	0.528
876.000	495.673	80.000	19.996	103.063	20.057	3.089	0.518
878.000	496.733	79.999	19.996	103.052	20.059	2.936	0.529
880.000	497.737	80.000	19.994	103.059	20.067	2.384	0.531
882.000	498.775	79.999	19.995	103.044	20.064	2.603	0.498
884.000	499.796	80.000	19.995	103.064	20.070	2.147	0.481
886.000	500.814	80.001	19.996	103.059	20.068	2.306	0.498
888.000	501.877	80.001	19.996	103.061	20.073	1.917	0.512
890.000	502.886	80.001	19.998	103.063	20.074	1.890	0.505
892.000	503.918	80.002	19.996	103.063	20.078	1.572	0.508
894.000	504.943	80.002	19.996	103.071	20.076	1.718	0.516
896.000	506.005	80.002	19.996	103.065	20.076	1.764	0.533
898.000	507.024	80.002	19.995	103.070	20.076	1.707	0.526
900.000	508.065	80.001	19.996	103.073	20.075	1.816	0.514
902.000	509.113	80.001	19.996	103.068	20.079	1.511	0.534
904.000	510.170	80.000	19.995	103.064	20.082	1.354	0.547
906.000	511.208	80.000	19.995	103.057	20.082	1.304	0.538
908.000	512.263	79.998	19.994	103.075	20.084	1.153	0.528
910.000	513.271	80.000	19.995	103.065	20.084	1.212	0.509
912.001	514.327	80.000	19.996	103.065	20.083	1.230	0.526
914.000	515.379	80.000	19.995	103.065	20.086	1.055	0.518
916.000	516.457	80.000	19.996	103.067	20.084	1.212	0.543
918.000	517.472	80.000	19.996	103.069	20.083	1.245	0.505
920.000	518.535	80.000	19.996	103.069	20.083	1.254	0.542
922.000	519.581	80.002	19.997	103.072	20.081	1.379	0.524
924.000	520.601	80.001	19.995	103.047	20.082	1.302	0.514
926.000	521.623	80.001	19.996	103.050	20.085	1.111	0.515
928.000	522.657	80.000	19.995	103.052	20.085	1.136	0.509
930.000	523.694	79.999	19.995	103.055	20.085	1.136	0.511
932.000	524.700	80.001	19.995	103.060	20.083	1.224	0.503
934.000	525.705	79.998	19.995	103.062	20.082	1.293	0.499
936.000	526.748	79.999	19.995	103.060	20.082	1.316	0.520
938.000	527.729	80.001	19.995	103.045	20.088	0.894	0.529
940.000	528.761	79.999	19.995	103.051	20.084	1.209	0.522
942.000	529.768	80.001	19.995	103.064	20.084	1.182	0.520
944.000	530.821	80.001	19.995	103.065	20.085	1.124	0.534
946.000	531.777	80.000	19.994	103.060	20.088	0.913	0.504
948.000	532.760	80.000	19.996	103.053	20.083	1.251	0.493
950.000	533.782	80.001	19.996	103.063	20.084	1.159	0.480
952.000	534.813	80.000	19.995	103.061	20.085	1.111	0.511
954.000	535.821	80.000	19.995	103.062	20.087	0.942	0.504
956.000	536.812	80.000	19.995	103.064	20.090	0.781	0.507
958.000	537.799	80.000	19.995	103.059	20.090	0.787	0.483
960.000	538.832	79.999	19.995	103.055	20.088	0.887	0.477
962.000	539.835	79.999	19.995	103.050	20.087	0.956	0.500
964.000	540.857	80.000	19.996	103.049	20.088	0.896	0.523
966.000	541.863	80.000	19.995	103.047	20.089	0.827	0.490
968.000	542.865	79.999	19.995	103.053	20.087	0.967	0.509
970.000	543.928	80.001	19.994	103.060	20.089	0.833	0.523
972.000	544.938	80.000	19.996	103.066	20.090	0.799	0.510
974.000	545.928	80.001	19.995	103.075	20.089	0.812	0.483
976.000	546.982	79.999	19.995	103.068	20.088	0.935	0.486
978.000	548.013	80.001	19.994	103.059	20.091	0.707	0.529
980.000	549.067	80.002	19.996	103.059	20.090	0.735	0.526
982.000	550.126	80.000	19.995	103.068	20.089	0.866	0.522
984.000	551.161	80.001	19.996	103.072	20.091	0.720	0.510
986.000	552.208	80.000	19.996	103.073	20.090	0.764	0.517
988.000	553.256	79.998	19.995	103.068	20.093	0.523	0.508
990.000	554.340	80.001	19.995	103.070	20.092	0.643	0.556
992.000	555.381	80.001	19.996	103.065	20.093	0.567	0.540
994.000	556.474	80.002	19.995	103.063	20.091	0.665	0.533
996.000	557.543	80.003	19.995	103.061	20.090	0.735	0.557
998.000	558.561	80.002	19.994	103.058	20.093	0.548	0.543
1000.000	559.575	80.002	19.994	103.054	20.091	0.726	0.505
1002.000	560.671	80.001	19.996	103.062	20.091	0.667	0.530
1004.000	561.694	80.000	19.995	103.070	20.091	0.693	0.487
1006.000	562.777	80.001	19.996	103.058	20.091	0.730	0.529
1008.000	563.810	80.000	19.996	103.064	20.094	0.458	0.490
1010.000	564.826	79.999	19.998	103.058	20.089	0.814	0.485
1012.000	565.861	79.999	19.995	103.062	20.091	0.678	0.507
1014.000	566.904	79.999	19.998	103.070	20.092	0.632	0.525
1016.000	567.914	80.000	19.996	103.062	20.090	0.741	0.525
1018.000	568.927	80.000	19.995	103.048	20.089	0.854	0.490
1020.000	569.973	80.000	19.995	103.056	20.089	0.812	0.502
1022.000	570.960	80.001	19.994	103.055	20.091	0.669	0.482
1024.000	572.023	80.000	19.994	103.050	20.092	0.601	0.491
1026.000	573.049	80.001	19.996	103.067	20.091	0.722	0.509
1028.000	574.101	80.000	19.995	103.063	20.088	0.925	0.529
1030.001	575.169	80.000	19.996	103.027	20.088	0.919	0.541
1032.000	576.191	80.000	19.996	103.049	20.088	0.883	0.511
1034.000	577.212	80.001	19.996	103.118	20.092	0.651	0.535
1036.000	578.261	79.999	19.995	103.065	20.091	0.730	0.531
1038.000	579.280	79.999	19.996	103.065	20.094	0.481	0.512
1040.000	580.268	80.000	19.996	103.063	20.094	0.511	0.503
1042.000	581.267	79.999	19.996	103.064	20.093	0.538	0.500
1044.000	582.299	79.998	19.996	103.072	20.091	0.691	0.501
1046.000	583.314	79.998	19.996	103.060	20.091	0.670	0.518
1048.001	584.271	79.999	19.996	103.068	20.090	0.793	0.513
1050.000	585.257	80.000	19.995	103.058	20.091	0.701	0.499
1052.000	586.270	80.001	19.995	103.057	20.096	0.324	0.484
1054.000	587.284	79.999	19.996	103.052	20.092	0.638	0.517
1056.000	588.233	80.002	19.994	103.057	20.092	0.603	0.487
1058.000	589.237	80.002	19.994	103.063	20.092	0.601	0.486
1060.001	590.174	80.001	19.995	103.058	20.093	0.532	0.501
1062.001	591.132	80.001	19.994	103.055	20.095	0.398	0.455
1064.000	592.113	80.001	19.995	103.054	20.093	0.546	0.497
1066.000	593.100	80.002	19.996	103.046	20.095	0.412	0.474
1068.000	594.062	80.000	19.995	103.060	20.092	0.592	0.480
1070.000	595.104	80.002	19.995	103.062	20.093	0.584	0.521
1072.001	596.044	80.000	19.996	103.061	20.093	0.582	0.450
1074.000	597.054	80.003	19.997	103.065	20.095	0.404	0.509
1076.000	598.033	80.002	19.997	103.060	20.096	0.362	0.504
1078.000	599.000	80.002	19.995	103.066	20.096	0.339	0.467
1080.001	599.993	80.001	19.994	103.071	20.091	0.712	0.478
1082.000	600.986	80.003	19.995	103.070	20.094	0.473	0.488
1084.000	601.961	80.003	19.995	103.055	20.093	0.527	0.518
1086.000	602.986	80.001	19.995	103.067	20.094	0.481	0.532
1088.000	604.032	80.003	19.995	103.072	20.092	0.634	0.520
1090.000	605.028	80.001	19.995	103.066	20.095	0.427	0.509
1092.000	606.055	80.000	19.995	103.074	20.095	0.439	0.508
1094.000	607.066	80.001	19.995	103.065	20.091	0.663	0.525
1096.000	608.078	80.001	19.995	103.075	20.091	0.718	0.539
1098.000	609.099	79.999	19.996	103.076	20.093	0.555	0.525
1100.000	610.158	80.000	19.996	103.075	20.095	0.423	0.535
1102.000	611.191	79.999	19.996	103.075	20.094	0.508	0.522
1104.000	612.262	80.001	19.997	103.076	20.094	0.490	0.536
1106.001	613.260	80.000	19.997	103.072	20.095	0.427	0.502
1108.000	614.281	79.999	19.996	103.075	20.091	0.690	0.491
1110.000	615.310	80.000	19.996	103.076	20.091	0.714	0.502
1112.000	616.360	79.998	19.995	103.075	20.092	0.600	0.547
1114.000	617.395	80.000	19.996	103.075	20.094	0.471	0.573
1116.000	618.408	79.998	19.994	103.075	20.095	0.395	0.503
1118.000	619.460	80.000	19.995	103.073	20.094	0.517	0.512
1120.000	620.500	79.999	19.995	103.078	20.091	0.722	0.496
1122.000	621.498	79.999	19.996	103.076	20.092	0.657	0.513
1124.000	622.547	80.001	19.995	103.075	20.091	0.728	0.538
1126.001	623.542	79.999	19.995	103.069	20.091	0.716	0.522
1128.000	624.532	80.000	19.995	103.073	20.089	0.826	0.490
1130.000	625.538	80.001	19.995	103.075	20.093	0.538	0.521
1132.000	626.517	80.001	19.995	103.077	20.091	0.711	0.506
1134.000	627.549	80.001	19.995	103.080	20.087	0.996	0.509
1136.000	628.496	80.000	19.995	103.080	20.087	0.969	0.484
1138.000	629.529	80.001	19.996	103.080	20.089	0.805	0.531
1140.000	630.502	80.002	19.996	103.081	20.090	0.762	0.493
1142.000	631.510	80.002	19.995	103.076	20.094	0.506	0.477
1144.000	632.548	80.002	19.995	103.080	20.091	0.678	0.551
1146.001	633.556	80.001	19.996	103.079	20.090	0.782	0.535
1148.000	634.544	80.000	19.995	103.079	20.091	0.726	0.481
1150.000	635.608	80.003	19.996	103.084	20.087	0.948	0.516
1152.000	636.632	80.000	19.995	103.086	20.089	0.866	0.514
1154.000	637.648	80.003	19.995	103.096	20.092	0.646	0.487
1156.000	638.681	80.001	19.996	103.105	20.086	1.014	0.493
1158.000	639.753	80.002	19.995	103.083	20.085	1.123	0.542
1160.001	640.740	80.003	19.996	103.096	20.084	1.152	0.512
1162.000	641.757	80.002	19.995	103.090	20.085	1.081	0.521
1164.000	642.758	80.002	19.997	103.088	20.087	0.960	0.470
1166.000	643.847	80.002	19.994	103.103	20.087	0.985	0.552
1168.001	644.833	80.002	19.995	103.110	20.086	1.016	0.525
1170.001	645.807	80.001	19.995	103.112	20.088	0.920	0.495
1172.000	646.849	79.999	19.996	103.109	20.089	0.830	0.504
1174.000	647.883	79.998	19.995	103.109	20.087	0.966	0.530
1176.000	648.922	79.999	19.996	103.108	20.086	1.037	0.524
1178.000	649.940	79.998	19.995	103.107	20.086	1.012	0.513
1180.000	650.973	79.999	19.996	103.115	20.087	0.945	0.497
1182.000	652.021	80.000	19.996	103.108	20.090	0.799	0.523
1184.000	653.047	79.999	19.995	103.112	20.089	0.849	0.496
1186.000	654.073	79.999	19.996	103.114	20.088	0.922	0.505
1188.000	655.107	79.999	19.996	103.113	20.085	1.117	0.529
1190.000	656.110	80.000	19.996	103.114	20.085	1.127	0.504
1192.000	657.101	79.998	19.996	103.111	20.084	1.173	0.520
1194.000	658.136	79.999	19.997	103.113	20.085	1.111	0.509
1196.000	659.157	79.999	19.996	103.112	20.084	1.188	0.516
1198.001	660.167	79.998	19.997	103.114	20.082	1.345	0.510
1200.000	661.196	79.999	19.997	103.116	20.083	1.274	0.527
1202.000	662.170	79.997	19.995	103.124	20.084	1.186	0.470
1204.000	663.195	79.999	19.996	103.133	20.081	1.391	0.505
1206.000	664.187	79.999	19.996	103.123	20.081	1.403	0.494
1208.000	665.228	80.000	19.995	103.128	20.082	1.340	0.554
1210.000	666.219	80.000	19.995	103.125	20.080	1.482	0.531
1212.000	667.216	80.000	19.995	103.123	20.081	1.382	0.501
1214.000	668.204	80.000	19.995	103.129	20.080	1.487	0.509
1216.001	669.212	80.001	19.996	103.143	20.081	1.415	0.513
1218.000	670.221	80.001	19.995	103.149	20.080	1.453	0.498
1220.000	671.219	80.002	19.996	103.151	20.080	1.493	0.492
1222.000	672.194	80.000	19.995	103.147	20.078	1.589	0.465
1224.000	673.200	79.999	19.995	103.152	20.079	1.507	0.468
1226.000	674.254	80.000	19.996	103.154	20.078	1.618	0.512
1228.000	675.234	79.999	19.995	103.157	20.073	1.921	0.464
1230.000	676.278	79.999	19.995	103.162	20.079	1.521	0.506
1232.000	677.345	79.999	19.996	103.161	20.075	1.789	0.531
1234.001	678.305	80.001	19.995	103.167	20.074	1.902	0.479
1236.000	679.296	80.001	19.996	103.168	20.075	1.843	0.497
1238.000	680.299	80.001	19.995	103.174	20.073	1.946	0.517
1240.000	681.287	80.001	19.995	103.192	20.072	2.050	0.478
1242.000	682.269	80.002	19.995	103.192	20.073	1.948	0.466
1244.000	683.272	80.001	19.994	103.185	20.072	2.046	0.485
1246.000	684.283	80.002	19.994	103.192	20.070	2.127	0.498
1248.000	685.221	80.001	19.995	103.188	20.073	1.975	0.485
1250.000	686.215	80.002	19.995	103.189	20.069	2.215	0.508
1252.000	687.238	80.001	19.995	103.195	20.067	2.394	0.505
1254.001	688.214	80.000	19.995	103.192	20.071	2.095	0.502
1256.000	689.195	79.999	19.996	103.191	20.071	2.087	0.497
1258.000	690.193	79.998	19.997	103.195	20.067	2.371	0.491
1260.000	691.209	80.000	19.997	103.192	20.069	2.254	0.501
1262.000	692.168	79.999	19.997	103.204	20.069	2.208	0.496
1264.000	693.159	79.998	19.996	103.217	20.068	2.285	0.486
1266.000	694.137	80.000	19.997	103.226	20.070	2.173	0.486
1268.000	695.194	80.000	19.995	103.227	20.066	2.465	0.494
1270.001	696.191	80.001	19.996	103.229	20.065	2.484	0.501
1272.000	697.198	79.998	19.996	103.227	20.064	2.567	0.522
1274.000	698.194	79.999	19.997	103.229	20.065	2.513	0.526
1276.001	699.161	80.000	19.996	103.230	20.064	2.605	0.460
1278.000	700.180	80.001	19.996	103.234	20.060	2.828	0.478
1280.000	701.211	80.000	19.996	103.230	20.059	2.938	0.519
1282.000	702.176	79.998	19.996	103.240	20.059	2.901	0.481
1284.000	703.160	79.998	19.996	103.235	20.058	2.978	0.505
1286.000	704.176	79.999	19.997	103.245	20.059	2.927	0.514
1288.001	705.175	79.998	19.997	103.247	20.056	3.148	0.497
1290.000	706.126	79.998	19.997	103.271	20.059	2.958	0.468
1292.001	707.136	79.998	19.997	103.267	20.057	3.055	0.488
1294.000	708.103	80.000	19.997	103.269	20.055	3.192	0.515
1296.000	709.155	80.001	19.995	103.281	20.056	3.148	0.537
1298.000	710.140	80.001	19.994	103.283	20.056	3.110	0.508
1300.001	711.149	80.001	19.994	103.283	20.055	3.187	0.503
1302.001	712.132	80.002	19.995	103.276	20.057	3.074	0.503
1304.000	713.167	80.001	19.995	103.278	20.056	3.154	0.531
1306.000	714.161	80.000	19.996	103.298	20.055	3.224	0.501
1308.000	715.191	80.000	19.995	103.309	20.052	3.421	0.534
1310.000	716.240	80.000	19.995	103.310	20.055	3.208	0.519
1312.000	717.274	80.000	19.995	103.311	20.054	3.254	0.522
1314.000	718.341	80.001	19.995	103.317	20.054	3.290	0.525
1316.001	719.358	80.002	19.995	103.324	20.051	3.486	0.518
1318.000	720.391	80.000	19.995	103.320	20.051	3.474	0.535
1320.000	721.441	80.001	19.995	103.315	20.052	3.420	0.523
1322.000	722.475	80.002	19.996	103.326	20.050	3.580	0.511
1324.000	723.566	80.003	19.995	103.328	20.047	3.747	0.510
1326.000	724.662	80.003	19.995	103.344	20.049	3.647	0.534
1328.000	725.693	80.004	19.995	103.345	20.049	3.641	0.539
1330.000	726.784	80.003	19.995	103.346	20.051	3.459	0.523
1332.000	727.821	80.002	19.995	103.346	20.052	3.392	0.557
1334.000	728.864	80.000	19.994	103.347	20.047	3.735	0.504
1336.000	729.946	79.999	19.995	103.350	20.048	3.672	0.531
1338.000	730.996	79.999	19.995	103.346	20.051	3.455	0.526
1340.001	732.024	80.001	19.995	103.346	20.048	3.702	0.542
1342.000	733.114	80.001	19.996	103.345	20.050	3.575	0.511
1344.000	734.181	80.000	19.996	103.350	20.050	3.567	0.526
1346.000	735.270	80.002	19.996	103.348	20.049	3.649	0.530
1348.000	736.276	80.000	19.996	103.343	20.048	3.689	0.530
1350.000	737.362	80.000	19.996	103.341	20.054	3.278	0.532
1352.001	738.389	79.999	19.997	103.328	20.050	3.515	0.501
1354.000	739.416	80.000	19.997	103.318	20.055	3.227	0.494
1356.000	740.467	80.001	19.995	103.314	20.056	3.136	0.511
1358.000	741.523	80.000	19.994	103.308	20.058	3.005	0.525
1360.000	742.582	80.000	19.996	103.283	20.058	3.015	0.551
1361.500	743.352	80.000	19.995	103.271	20.062	2.735	0.508