File: 01_Data/Bamboo_Rug_Fabric/STA/N2/10K_min/Bamboo_Rug_B_STA_N2_10KData_220124_R1.csv
##Temp./Â°C,Time/min,Mass loss(subtr.2)/mg,DSC(subtr.2)/(mW/mg),Sensit./(uV/mW)
49.238,10.00917,-0.01579,0.01862165,1.07447
49.938,10.76798,-0.01636915,0.05210432,1.07443
50.638,10.971,-0.01708961,0.08105794,1.07438
51.338,11.12332,-0.01628915,0.10153,1.07433
52.038,11.2523,-0.01644408,0.11773,1.07427
52.738,11.36696,-0.01733052,0.13592,1.07422
53.438,11.4732,-0.01784497,0.14623,1.07417
54.138,11.57267,-0.01627373,0.16015,1.07411
54.838,11.66715,-0.01751699,0.16863,1.07406
55.538,11.75787,-0.01641944,0.17722,1.074
56.238,11.84605,-0.01627556,0.18504,1.07394
56.938,11.9327,-0.01801802,0.19121,1.07388
57.638,12.01764,-0.01786117,0.19853,1.07382
58.338,12.10051,-0.01607727,0.20462,1.07376
59.038,12.18182,-0.01656136,0.20905,1.0737
59.738,12.26216,-0.0161338,0.21397,1.07363
60.438,12.34244,-0.01630446,0.21701,1.07357
61.138,12.42203,-0.01722615,0.22109,1.0735
61.838,12.50072,-0.01645275,0.22703,1.07343
62.538,12.57828,-0.01764421,0.23038,1.07336
63.238,12.65542,-0.01858339,0.23237,1.07329
63.938,12.7325,-0.01727001,0.23663,1.07322
64.638,12.80971,-0.01753935,0.24051,1.07315
65.338,12.8865,-0.01796371,0.24136,1.07308
66.038,12.96297,-0.02028365,0.24346,1.073
66.738,13.03854,-0.01885754,0.24673,1.07293
67.438,13.11404,-0.02002376,0.24529,1.07285
68.138,13.1897,-0.01896789,0.24695,1.07277
68.838,13.2653,-0.01800958,0.25055,1.07269
69.538,13.34036,-0.02024983,0.25065,1.07261
70.238,13.4151,-0.02028849,0.25028,1.07253
70.938,13.48886,-0.02029064,0.25211,1.07245
71.638,13.56359,-0.02034259,0.25204,1.07236
72.338,13.63831,-0.02069414,0.2531,1.07228
73.038,13.71305,-0.0202905,0.25148,1.07219
73.738,13.78636,-0.01996292,0.25512,1.07211
74.438,13.8597,-0.01958142,0.25643,1.07202
75.138,13.9333,-0.02027223,0.25656,1.07193
75.838,14.00717,-0.01898016,0.25905,1.07184
76.538,14.08048,-0.02029253,0.25778,1.07175
77.238,14.1536,-0.02160322,0.26127,1.07165
77.938,14.2267,-0.02177722,0.26228,1.07156
78.638,14.2995,-0.02292001,0.26327,1.07146
79.338,14.3719,-0.022923,0.26311,1.07137
80.038,14.44405,-0.02291515,0.26512,1.07127
80.738,14.51643,-0.02160772,0.26488,1.07117
81.438,14.5886,-0.02293026,0.26542,1.07107
82.138,14.6604,-0.02424029,0.26865,1.07097
82.838,14.7322,-0.02378587,0.26814,1.07087
83.538,14.80357,-0.02293869,0.26966,1.07077
84.238,14.875,-0.024225,0.2691,1.07066
84.938,14.946,-0.02423438,0.2703,1.07056
85.638,15.0171,-0.02472106,0.27147,1.07045
86.338,15.08799,-0.02554913,0.27079,1.07034
87.038,15.1589,-0.02424001,0.27101,1.07023
87.738,15.2295,-0.02556118,0.27014,1.07013
88.438,15.29987,-0.02686676,0.27337,1.07001
89.138,15.37011,-0.02555006,0.27383,1.0699
89.838,15.44011,-0.02555149,0.27201,1.06979
90.538,15.5099,-0.02555911,0.27304,1.06967
91.238,15.57973,-0.02689904,0.27221,1.06956
91.938,15.6494,-0.02685725,0.27191,1.06944
92.638,15.7195,-0.02688729,0.27259,1.06933
93.338,15.78919,-0.02687,0.27125,1.06921
94.038,15.85891,-0.02686983,0.27214,1.06909
94.738,15.92821,-0.02786022,0.27188,1.06897
95.438,15.99729,-0.02687158,0.27555,1.06884
96.138,16.06617,-0.02755237,0.27333,1.06872
96.838,16.1353,-0.02726734,0.27452,1.0686
97.538,16.20469,-0.02582506,0.27537,1.06847
98.238,16.27415,-0.02661004,0.27606,1.06834
98.938,16.34309,-0.02797017,0.27418,1.06822
99.638,16.4119,-0.02904417,0.27613,1.06809
100.338,16.4808,-0.02906932,0.27506,1.06796
101.038,16.54972,-0.02927981,0.27486,1.06783
101.738,16.61862,-0.02796936,0.27454,1.06769
102.438,16.6872,-0.02796297,0.27612,1.06756
103.138,16.75582,-0.0279717,0.2769,1.06743
103.838,16.82444,-0.02768727,0.27484,1.06729
104.538,16.89337,-0.02793402,0.2748,1.06715
105.238,16.96216,-0.02796,0.27858,1.06702
105.938,17.03097,-0.02796,0.27573,1.06688
106.638,17.09967,-0.02796,0.27513,1.06674
107.338,17.16839,-0.02795718,0.27829,1.0666
108.038,17.23697,-0.02832101,0.27688,1.06645
108.738,17.30496,-0.02891666,0.27879,1.06631
109.438,17.3735,-0.02929005,0.28015,1.06617
110.138,17.4421,-0.02982452,0.27966,1.06602
110.838,17.51122,-0.02896131,0.27993,1.06587
111.538,17.57941,-0.02895038,0.27914,1.06573
112.238,17.648,-0.02803522,0.27927,1.06558
112.938,17.71663,-0.02928188,0.28125,1.06543
113.638,17.78575,-0.02927999,0.28161,1.06528
114.338,17.85422,-0.02928973,0.27954,1.06512
115.038,17.9226,-0.02929131,0.28305,1.06497
115.738,17.99096,-0.03046771,0.28291,1.06482
116.438,18.0594,-0.02928,0.28331,1.06466
117.138,18.1279,-0.02927997,0.28614,1.0645
117.838,18.19634,-0.02892891,0.28577,1.06435
118.538,18.2647,-0.03030491,0.2846,1.06419
119.238,18.33296,-0.03027,0.28623,1.06403
119.938,18.4012,-0.0302705,0.28833,1.06387
120.638,18.4695,-0.0292839,0.2923,1.0637
121.338,18.53782,-0.03059889,0.29251,1.06354
122.038,18.60574,-0.02928129,0.29242,1.06338
122.738,18.67365,-0.0293324,0.29266,1.06321
123.438,18.74164,-0.03175553,0.29485,1.06304
124.138,18.80979,-0.03088043,0.2944,1.06288
124.838,18.8782,-0.0309231,0.29505,1.06271
125.538,18.94642,-0.03060098,0.29548,1.06254
126.238,19.0144,-0.0318976,0.29676,1.06237
126.938,19.08256,-0.03187965,0.29826,1.0622
127.638,19.15059,-0.03060009,0.29572,1.06202
128.338,19.21893,-0.0306019,0.29885,1.06185
129.038,19.2868,-0.03192286,0.29847,1.06167
129.738,19.3549,-0.03076149,0.30102,1.0615
130.438,19.42285,-0.02982274,0.29804,1.06132
131.138,19.49025,-0.03147991,0.29978,1.06114
131.838,19.55806,-0.03146104,0.29968,1.06096
132.538,19.6258,-0.03180941,0.30185,1.06078
133.238,19.6941,-0.03276292,0.30298,1.0606
133.938,19.76145,-0.03278997,0.3051,1.06042
134.638,19.82931,-0.03212081,0.30601,1.06023
135.338,19.89719,-0.03180012,0.30765,1.06005
136.038,19.9655,-0.0330886,0.3062,1.05986
136.738,20.03304,-0.0318063,0.30779,1.05967
137.438,20.10068,-0.03181406,0.30612,1.05949
138.138,20.16816,-0.03312074,0.30898,1.0593
138.838,20.23568,-0.03441189,0.31019,1.05911
139.538,20.30301,-0.03443033,0.31073,1.05891
140.238,20.37046,-0.03311578,0.31183,1.05872
140.938,20.43773,-0.03311669,0.31249,1.05853
141.638,20.505,-0.03377888,0.31333,1.05833
142.338,20.5721,-0.03377998,0.31374,1.05814
143.038,20.63951,-0.03512224,0.31591,1.05794
143.738,20.707,-0.03443986,0.31581,1.05774
144.438,20.7744,-0.03444,0.31874,1.05754
145.138,20.8418,-0.03444,0.31609,1.05734
145.838,20.9092,-0.03443982,0.31681,1.05714
146.538,20.9765,-0.03372151,0.31944,1.05694
147.238,21.04397,-0.0341052,0.31904,1.05674
147.938,21.11127,-0.03411028,0.32046,1.05653
148.638,21.17866,-0.0344429,0.32417,1.05633
149.338,21.24566,-0.0357593,0.32636,1.05612
150.038,21.3128,-0.03576077,0.32565,1.05591
150.738,21.38017,-0.03700658,0.32784,1.0557
151.438,21.44751,-0.03575999,0.32761,1.05549
152.138,21.51489,-0.03576,0.32877,1.05528
152.838,21.58235,-0.03576,0.3292,1.05507
153.538,21.64988,-0.03576,0.32961,1.05486
154.238,21.7173,-0.0355624,0.33002,1.05464
154.938,21.78461,-0.03575246,0.33333,1.05443
155.638,21.85201,-0.03445318,0.33355,1.05421
156.338,21.9191,-0.0334436,0.3339,1.054
157.038,21.98626,-0.0357351,0.33428,1.05378
157.738,22.0535,-0.03575,0.3348,1.05356
158.438,22.1209,-0.03575064,0.33595,1.05334
159.138,22.18826,-0.0370711,0.3389,1.05312
159.838,22.25522,-0.03595559,0.33872,1.05289
160.538,22.32245,-0.03702126,0.34031,1.05267
161.238,22.38938,-0.03772999,0.34151,1.05245
161.938,22.45683,-0.03773,0.34159,1.05222
162.638,22.5241,-0.03773,0.34309,1.05199
163.338,22.59092,-0.03773065,0.3431,1.05177
164.038,22.65821,-0.03905121,0.34309,1.05154
164.738,22.7252,-0.03901879,0.34432,1.05131
165.438,22.79275,-0.0391207,0.34456,1.05108
166.138,22.85974,-0.03905,0.34617,1.05084
166.838,22.92703,-0.03904775,0.34865,1.05061
167.538,22.99404,-0.03970044,0.34747,1.05038
168.238,23.0611,-0.03971,0.3508,1.05014
168.938,23.12815,-0.03971,0.35159,1.04991
169.638,23.19505,-0.03970997,0.35119,1.04967
170.338,23.262,-0.03987365,0.35611,1.04943
171.038,23.32909,-0.04036,0.35486,1.04919
171.738,23.39615,-0.0403618,0.35405,1.04895
172.438,23.4631,-0.04167297,0.35601,1.04871
173.138,23.52971,-0.04036568,0.358,1.04847
173.838,23.59657,-0.04036001,0.35776,1.04823
174.538,23.66356,-0.04030727,0.35818,1.04798
175.238,23.7306,-0.0412851,0.35886,1.04774
175.938,23.79785,-0.04158656,0.35877,1.04749
176.638,23.86505,-0.04299312,0.35916,1.04724
177.338,23.93229,-0.04299,0.36058,1.04699
178.038,23.99939,-0.04299,0.36246,1.04674
178.738,24.0664,-0.04299,0.36109,1.04649
179.438,24.13326,-0.04299,0.36301,1.04624
180.138,24.20014,-0.04299001,0.36158,1.04599
180.838,24.2671,-0.04349037,0.36387,1.04573
181.538,24.3341,-0.04560472,0.36283,1.04548
182.238,24.40113,-0.04431011,0.36279,1.04522
182.938,24.4683,-0.04431,0.36591,1.04497
183.638,24.53529,-0.04430318,0.36843,1.04471
184.338,24.60235,-0.04563049,0.36596,1.04445
185.038,24.66947,-0.0456299,0.36529,1.04419
185.738,24.7366,-0.04488184,0.36909,1.04393
186.438,24.80361,-0.04497063,0.36974,1.04367
187.138,24.87058,-0.04496867,0.37091,1.04341
187.838,24.93732,-0.04562294,0.37291,1.04314
188.538,25.0042,-0.04758062,0.37281,1.04288
189.238,25.07108,-0.04647539,0.37624,1.04261
189.938,25.13803,-0.04628008,0.37433,1.04234
190.638,25.20498,-0.0475786,0.37652,1.04208
191.338,25.27178,-0.0476,0.3769,1.04181
192.038,25.3387,-0.0476,0.37808,1.04154
192.738,25.40547,-0.04760135,0.38009,1.04127
193.438,25.4721,-0.04826479,0.38093,1.04099
194.138,25.53886,-0.04826,0.38087,1.04072
194.838,25.60539,-0.04826,0.38339,1.04045
195.538,25.67195,-0.04826,0.38116,1.04017
196.238,25.73865,-0.04825948,0.38495,1.0399
196.938,25.80546,-0.04886933,0.385,1.03962
197.638,25.87248,-0.05024026,0.38691,1.03934
198.338,25.93903,-0.05024,0.39055,1.03906
199.038,26.00539,-0.0502381,0.38862,1.03878
199.738,26.07178,-0.0509017,0.38974,1.0385
200.438,26.1384,-0.05089999,0.3926,1.03822
201.138,26.20487,-0.05121307,0.39197,1.03794
201.838,26.2714,-0.05318891,0.39334,1.03765
202.538,26.33788,-0.05319,0.39675,1.03737
203.238,26.40475,-0.05319,0.39715,1.03708
203.938,26.47152,-0.05319,0.39743,1.03679
204.638,26.5381,-0.05319,0.39893,1.03651
205.338,26.6047,-0.05318973,0.3999,1.03622
206.038,26.67117,-0.05460632,0.39923,1.03593
206.738,26.73795,-0.05507835,0.40193,1.03564
207.438,26.8048,-0.05615981,0.40053,1.03534
208.138,26.8716,-0.05530887,0.40031,1.03505
208.838,26.9383,-0.05706003,0.40284,1.03476
209.538,27.00505,-0.05757437,0.40414,1.03446
210.238,27.07191,-0.05605466,0.40434,1.03417
210.938,27.1388,-0.05867841,0.40333,1.03387
211.638,27.2057,-0.05869382,0.40742,1.03357
212.338,27.2724,-0.05999903,0.40432,1.03327
213.038,27.3393,-0.06000004,0.40624,1.03297
213.738,27.4062,-0.06132413,0.40824,1.03267
214.438,27.47304,-0.06165373,0.40739,1.03237
215.138,27.53995,-0.06393436,0.40833,1.03207
215.838,27.60685,-0.06394001,0.40857,1.03176
216.538,27.6738,-0.06475747,0.41184,1.03146
217.238,27.7408,-0.06525949,0.41216,1.03115
217.938,27.8076,-0.06529728,0.41358,1.03085
218.638,27.87472,-0.06526999,0.4143,1.03054
219.338,27.94185,-0.06527015,0.41429,1.03023
220.038,28.00902,-0.06720758,0.41739,1.02992
220.738,28.07593,-0.06755314,0.41653,1.02961
221.438,28.143,-0.06888048,0.41884,1.0293
222.138,28.21,-0.06887905,0.42185,1.02899
222.838,28.2769,-0.0705152,0.42294,1.02867
223.538,28.3438,-0.07053244,0.42525,1.02836
224.238,28.41065,-0.0718383,0.42568,1.02804
224.938,28.4775,-0.07316554,0.42729,1.02773
225.638,28.54433,-0.07447859,0.42865,1.02741
226.338,28.6113,-0.07579575,0.42882,1.02709
227.038,28.67835,-0.07579006,0.42849,1.02677
227.738,28.74547,-0.07707417,0.43009,1.02645
228.438,28.8126,-0.07713808,0.43167,1.02613
229.138,28.87987,-0.07941041,0.43158,1.02581
229.838,28.94701,-0.07938009,0.43454,1.02549
230.538,29.0141,-0.08114114,0.43893,1.02516
231.238,29.0811,-0.08241015,0.4409,1.02484
231.938,29.1481,-0.08326201,0.44168,1.02451
232.638,29.21517,-0.08431133,0.44527,1.02419
233.338,29.28208,-0.08570971,0.44636,1.02386
234.038,29.3491,-0.08565767,0.44925,1.02353
234.738,29.41583,-0.08710388,0.45117,1.0232
235.438,29.48299,-0.08833844,0.45359,1.02287
236.138,29.54989,-0.09000996,0.45574,1.02254
236.838,29.6169,-0.08961046,0.45869,1.02221
237.538,29.6836,-0.0906227,0.46204,1.02187
238.238,29.75055,-0.09174642,0.46609,1.02154
238.938,29.81757,-0.0935614,0.47027,1.0212
239.638,29.8846,-0.0948781,0.47456,1.02087
240.338,29.95148,-0.09623379,0.47782,1.02053
241.038,30.01815,-0.09747338,0.48511,1.02019
241.738,30.08505,-0.09883521,0.48907,1.01985
242.438,30.152,-0.09885365,0.49736,1.01951
243.138,30.2192,-0.1008,0.50696,1.01917
243.838,30.2862,-0.10396,0.51655,1.01883
244.538,30.3533,-0.10507,0.528,1.01849
245.238,30.42036,-0.10672,0.53733,1.01814
245.938,30.4875,-0.10802,0.55153,1.0178
246.638,30.5545,-0.10933,0.56665,1.01745
247.338,30.6217,-0.11062,0.57997,1.01711
248.038,30.68882,-0.11294,0.59897,1.01676
248.738,30.7559,-0.11327,0.61819,1.01641
249.438,30.82293,-0.1146,0.64238,1.01606
250.138,30.89,-0.11764,0.6646,1.01571
250.838,30.95705,-0.12124,0.68358,1.01536
251.538,31.024,-0.12353,0.69761,1.01501
252.238,31.09098,-0.12615,0.69842,1.01466
252.938,31.15809,-0.12746,0.6947,1.0143
253.638,31.2251,-0.12907,0.6829,1.01395
254.338,31.2922,-0.13182,0.66208,1.01359
255.038,31.35926,-0.13305,0.63501,1.01324
255.738,31.42616,-0.13574,0.60636,1.01288
256.438,31.49295,-0.13966,0.57919,1.01252
257.138,31.55975,-0.14221,0.55501,1.01216
257.838,31.62613,-0.1425,0.53277,1.0118
258.538,31.69272,-0.14555,0.5123,1.01144
259.238,31.7592,-0.14841,0.49916,1.01108
259.938,31.8262,-0.15219,0.4903,1.01071
260.638,31.89306,-0.15425,0.4823,1.01035
261.338,31.9599,-0.15699,0.47761,1.00999
262.038,32.02663,-0.16137,0.47322,1.00962
262.738,32.09328,-0.16476,0.46731,1.00925
263.438,32.1602,-0.16779,0.46938,1.00889
264.138,32.2268,-0.17072,0.46782,1.00852
264.838,32.29332,-0.17411,0.46967,1.00815
265.538,32.3596,-0.17785,0.4737,1.00778
266.238,32.42607,-0.18261,0.47344,1.00741
266.938,32.4927,-0.18644,0.47506,1.00704
267.638,32.55937,-0.1913,0.47351,1.00666
268.338,32.6261,-0.19427,0.47679,1.00629
269.038,32.6931,-0.19802,0.47948,1.00592
269.738,32.75993,-0.2026,0.47717,1.00554
270.438,32.8266,-0.20785,0.48007,1.00516
271.138,32.89327,-0.21082,0.48316,1.00479
271.838,32.96021,-0.2173,0.48561,1.00441
272.538,33.02713,-0.22289,0.4854,1.00403
273.238,33.09409,-0.22721,0.48483,1.00365
273.938,33.1608,-0.23134,0.48773,1.00327
274.638,33.2277,-0.23723,0.48873,1.00289
275.338,33.29473,-0.24282,0.4892,1.00251
276.038,33.3619,-0.2473,0.49134,1.00212
276.738,33.4291,-0.25293,0.48946,1.00174
277.438,33.49613,-0.25976,0.48894,1.00135
278.138,33.56322,-0.26467,0.49192,1.00097
278.838,33.63019,-0.27024,0.49168,1.00058
279.538,33.69744,-0.27688,0.49345,1.00019
280.238,33.76471,-0.28166,0.49324,0.99981
280.938,33.8322,-0.288,0.49345,0.99942
281.638,33.8994,-0.2954,0.49563,0.99903
282.338,33.96666,-0.30113,0.49384,0.99864
283.038,34.03368,-0.30751,0.49758,0.99824
283.738,34.10089,-0.31221,0.49784,0.99785
284.438,34.16786,-0.31876,0.49984,0.99746
285.138,34.235,-0.32597,0.50017,0.99706
285.838,34.30218,-0.33332,0.50014,0.99667
286.538,34.36936,-0.34001,0.50002,0.99627
287.238,34.43614,-0.34416,0.50179,0.99587
287.938,34.5027,-0.3529,0.50336,0.99548
288.638,34.5694,-0.36012,0.50287,0.99508
289.338,34.63622,-0.36743,0.50265,0.99468
290.038,34.70323,-0.37463,0.50364,0.99428
290.738,34.76999,-0.37995,0.50433,0.99388
291.438,34.83685,-0.38759,0.50415,0.99347
292.138,34.90372,-0.3956,0.5056,0.99307
292.838,34.97075,-0.40311,0.50535,0.99267
293.538,35.03779,-0.41062,0.50278,0.99226
294.238,35.10484,-0.41724,0.50577,0.99186
294.938,35.17167,-0.42428,0.50608,0.99145
295.638,35.23852,-0.43154,0.5099,0.99104
296.338,35.30526,-0.43837,0.50983,0.99064
297.038,35.3724,-0.44607,0.51236,0.99023
297.738,35.43939,-0.45292,0.51179,0.98982
298.438,35.50634,-0.46126,0.51272,0.98941
299.138,35.5731,-0.4712,0.5142,0.989
299.838,35.63998,-0.47918,0.5169,0.98858
300.538,35.70693,-0.48619,0.51544,0.98817
301.238,35.7741,-0.49412,0.51839,0.98776
301.938,35.84132,-0.50063,0.51844,0.98734
302.638,35.9084,-0.50915,0.52182,0.98693
303.338,35.97579,-0.51858,0.52036,0.98651
304.038,36.043,-0.52618,0.52257,0.98609
304.738,36.11029,-0.53397,0.52598,0.98568
305.438,36.17734,-0.54298,0.52822,0.98526
306.138,36.24432,-0.55239,0.53114,0.98484
306.838,36.31153,-0.56068,0.53243,0.98442
307.538,36.37873,-0.56963,0.53437,0.984
308.238,36.44624,-0.57916,0.53922,0.98358
308.938,36.51344,-0.58757,0.54218,0.98315
309.638,36.58059,-0.59934,0.54538,0.98273
310.338,36.6476,-0.60813,0.54835,0.98231
311.038,36.71485,-0.61652,0.54991,0.98188
311.738,36.78219,-0.62618,0.5574,0.98145
312.438,36.84955,-0.63568,0.55973,0.98103
313.138,36.91663,-0.64436,0.56577,0.9806
313.838,36.98384,-0.65541,0.56801,0.98017
314.538,37.0511,-0.66625,0.57186,0.97974
315.238,37.1183,-0.67726,0.57866,0.97931
315.938,37.18522,-0.68824,0.58395,0.97888
316.638,37.2522,-0.6999,0.58618,0.97845
317.338,37.31942,-0.71058,0.59446,0.97802
318.038,37.38648,-0.72157,0.60043,0.97758
318.738,37.45408,-0.73298,0.60553,0.97715
319.438,37.52153,-0.74596,0.61376,0.97672
320.138,37.5895,-0.75885,0.61866,0.97628
320.838,37.65687,-0.77197,0.62846,0.97584
321.538,37.72418,-0.78496,0.63435,0.97541
322.238,37.7909,-0.79781,0.64315,0.97497
322.938,37.85773,-0.81221,0.65194,0.97453
323.638,37.92491,-0.82547,0.66092,0.97409
324.338,37.99228,-0.83946,0.67073,0.97365
325.038,38.05992,-0.85594,0.68262,0.97321
325.738,38.12715,-0.8702,0.69326,0.97277
326.438,38.19445,-0.88738,0.70262,0.97233
327.138,38.26192,-0.90227,0.71399,0.97188
327.838,38.3294,-0.91999,0.72825,0.97144
328.538,38.39702,-0.9379,0.74156,0.97099
329.238,38.46439,-0.95647,0.75651,0.97055
329.938,38.53192,-0.97553,0.77134,0.9701
330.638,38.59936,-0.99601,0.79052,0.96966
331.338,38.66669,-1.01463,0.80403,0.96921
332.038,38.73411,-1.0371,0.82318,0.96876
332.738,38.80167,-1.05948,0.83987,0.96831
333.438,38.86949,-1.08241,0.86047,0.96786
334.138,38.93711,-1.10696,0.87657,0.96741
334.838,39.00483,-1.13024,0.89481,0.96696
335.538,39.0724,-1.15772,0.91458,0.9665
336.238,39.14008,-1.18527,0.93064,0.96605
336.938,39.20774,-1.21374,0.94967,0.9656
337.638,39.2755,-1.24614,0.96586,0.96514
338.338,39.34337,-1.27865,0.98099,0.96469
339.038,39.4111,-1.30783,0.99235,0.96423
339.738,39.47892,-1.341,1.00424,0.96377
340.438,39.54651,-1.37417,1.00546,0.96332
341.138,39.61427,-1.40591,1.00739,0.96286
341.838,39.682,-1.44148,1.00121,0.9624
342.538,39.74975,-1.48041,0.99033,0.96194
343.238,39.81736,-1.51668,0.97699,0.96148
343.938,39.8849,-1.55277,0.95623,0.96102
344.638,39.9523,-1.58988,0.92435,0.96055
345.338,40.01977,-1.62526,0.88978,0.96009
346.038,40.08728,-1.65947,0.84847,0.95963
346.738,40.15481,-1.69618,0.80567,0.95916
347.438,40.22215,-1.72854,0.75954,0.9587
348.138,40.2896,-1.75832,0.71394,0.95823
348.838,40.35706,-1.78857,0.66818,0.95777
349.538,40.4245,-1.81724,0.62896,0.9573
350.238,40.49139,-1.84268,0.58834,0.95683
350.938,40.55867,-1.8676,0.55202,0.95636
351.638,40.6261,-1.89006,0.51754,0.95589
352.338,40.69356,-1.91041,0.49023,0.95542
353.038,40.7609,-1.92965,0.4608,0.95495
353.738,40.82828,-1.94864,0.43841,0.95448
354.438,40.8958,-1.96534,0.41622,0.95401
355.138,40.96318,-1.98108,0.39416,0.95353
355.838,41.03073,-1.99555,0.37754,0.95306
356.538,41.09836,-2.00836,0.36005,0.95259
357.238,41.16602,-2.0208,0.3475,0.95211
357.938,41.23355,-2.03338,0.33729,0.95164
358.638,41.30102,-2.04467,0.32539,0.95116
359.338,41.36847,-2.05292,0.31938,0.95068
360.038,41.43606,-2.06359,0.31317,0.9502
360.738,41.50377,-2.07437,0.30609,0.94973
361.438,41.57132,-2.08275,0.30321,0.94925
362.138,41.63897,-2.09202,0.29858,0.94877
362.838,41.70666,-2.09917,0.2944,0.94829
363.538,41.7746,-2.10782,0.29082,0.9478
364.238,41.8424,-2.11621,0.29101,0.94732
364.938,41.9103,-2.1245,0.28916,0.94684
365.638,41.97807,-2.13271,0.28854,0.94635
366.338,42.04582,-2.14074,0.28627,0.94587
367.038,42.11365,-2.14895,0.28484,0.94539
367.738,42.18132,-2.15708,0.28537,0.9449
368.438,42.24908,-2.16486,0.28591,0.94441
369.138,42.31682,-2.17176,0.28147,0.94393
369.838,42.3847,-2.1794,0.28163,0.94344
370.538,42.45254,-2.18816,0.28107,0.94295
371.238,42.52032,-2.19521,0.2802,0.94246
371.938,42.58809,-2.20323,0.27943,0.94197
372.638,42.65612,-2.2105,0.28006,0.94148
373.338,42.7241,-2.21761,0.27716,0.94099
374.038,42.79221,-2.22504,0.27742,0.9405
374.738,42.86006,-2.23324,0.27817,0.94001
375.438,42.9279,-2.24073,0.27459,0.93951
376.138,42.9959,-2.24705,0.27689,0.93902
376.838,43.06413,-2.25486,0.27803,0.93852
377.538,43.1323,-2.2631,0.27428,0.93803
378.238,43.2001,-2.27063,0.27807,0.93753
378.938,43.26793,-2.27764,0.27488,0.93704
379.638,43.33587,-2.28684,0.27319,0.93654
380.338,43.40388,-2.29377,0.27359,0.93604
381.038,43.4718,-2.30125,0.27202,0.93554
381.738,43.5396,-2.30839,0.27221,0.93504
382.438,43.60759,-2.31588,0.26906,0.93454
383.138,43.6758,-2.3242,0.26922,0.93404
383.838,43.74393,-2.33499,0.26739,0.93354
384.538,43.8121,-2.33952,0.26578,0.93304
385.238,43.88016,-2.34675,0.2675,0.93254
385.938,43.94836,-2.35576,0.26774,0.93204
386.638,44.0164,-2.36286,0.26694,0.93153
387.338,44.0846,-2.37099,0.26709,0.93103
388.038,44.15269,-2.37914,0.26598,0.93052
388.738,44.22083,-2.38792,0.26611,0.93002
389.438,44.28875,-2.39427,0.26619,0.92951
390.138,44.35674,-2.40425,0.2652,0.929
390.838,44.4249,-2.41203,0.266,0.9285
391.538,44.49304,-2.41936,0.26562,0.92799
392.238,44.56122,-2.42699,0.26462,0.92748
392.938,44.62924,-2.43613,0.26164,0.92697
393.638,44.6974,-2.44445,0.26468,0.92646
394.338,44.7656,-2.45258,0.26283,0.92595
395.038,44.8339,-2.46131,0.2626,0.92544
395.738,44.90177,-2.46887,0.26436,0.92493
396.438,44.96993,-2.47717,0.26457,0.92441
397.138,45.03784,-2.48661,0.26241,0.9239
397.838,45.10627,-2.49529,0.26264,0.92339
398.538,45.17442,-2.50419,0.26208,0.92287
399.238,45.24297,-2.51312,0.26312,0.92236
399.938,45.31106,-2.52144,0.26198,0.92184
400.638,45.3793,-2.5308,0.26121,0.92132
401.338,45.44749,-2.54024,0.2618,0.92081
402.038,45.5158,-2.54914,0.26361,0.92029
402.738,45.58416,-2.5593,0.26348,0.91977
403.438,45.6524,-2.56657,0.26617,0.91925
404.138,45.72083,-2.57602,0.26476,0.91873
404.838,45.78902,-2.58484,0.26207,0.91821
405.538,45.85747,-2.59606,0.26338,0.91769
406.238,45.9259,-2.60513,0.26745,0.91717
406.938,45.99467,-2.61483,0.26693,0.91665
407.638,46.0632,-2.62513,0.26808,0.91613
408.338,46.13162,-2.63483,0.26671,0.9156
409.038,46.19998,-2.64423,0.2675,0.91508
409.738,46.26826,-2.65431,0.2709,0.91456
410.438,46.33655,-2.66418,0.26964,0.91403
411.138,46.40487,-2.67292,0.26844,0.91351
411.838,46.4733,-2.68348,0.26909,0.91298
412.538,46.54187,-2.69497,0.27029,0.91245
413.238,46.61052,-2.70459,0.27256,0.91193
413.938,46.67915,-2.71429,0.27022,0.9114
414.638,46.74752,-2.72481,0.27085,0.91087
415.338,46.8159,-2.73422,0.27273,0.91034
416.038,46.88427,-2.74009,0.27139,0.90981
416.738,46.9527,-2.75147,0.27366,0.90928
417.438,47.02127,-2.76492,0.27154,0.90875
418.138,47.0896,-2.77458,0.27129,0.90822
418.838,47.15809,-2.7822,0.2743,0.90769
419.538,47.22655,-2.79096,0.272,0.90716
420.238,47.29511,-2.80058,0.27202,0.90662
420.938,47.3637,-2.81022,0.27357,0.90609
421.638,47.4321,-2.81934,0.27431,0.90555
422.338,47.5007,-2.82405,0.27359,0.90502
423.038,47.56927,-2.83563,0.27498,0.90448
423.738,47.63778,-2.84688,0.27216,0.90395
424.438,47.70647,-2.85472,0.27388,0.90341
425.138,47.7751,-2.86304,0.27475,0.90287
425.838,47.84373,-2.87147,0.27246,0.90234
426.538,47.91239,-2.88205,0.27404,0.9018
427.238,47.98106,-2.88854,0.27391,0.90126
427.938,48.0498,-2.89658,0.27355,0.90072
428.638,48.1184,-2.90504,0.27677,0.90018
429.338,48.18704,-2.91292,0.2756,0.89964
430.038,48.2556,-2.92144,0.27397,0.8991
430.738,48.32415,-2.92877,0.2739,0.89856
431.438,48.39258,-2.93538,0.27142,0.89802
432.138,48.4611,-2.94329,0.26962,0.89747
432.838,48.52963,-2.95038,0.26781,0.89693
433.538,48.59823,-2.95759,0.26395,0.89639
434.238,48.6668,-2.96529,0.26647,0.89584
434.938,48.73533,-2.97171,0.2645,0.8953
435.638,48.80387,-2.97903,0.26088,0.89475
436.338,48.87253,-2.98789,0.26071,0.89421
437.038,48.9412,-2.9915,0.25524,0.89366
437.738,49.00969,-2.99832,0.25636,0.89311
438.438,49.0779,-3.00399,0.25308,0.89257
439.138,49.1461,-3.01245,0.24874,0.89202
439.838,49.21458,-3.01762,0.25047,0.89147
440.538,49.28307,-3.02459,0.24711,0.89092
441.238,49.3517,-3.03093,0.24171,0.89037
441.938,49.42017,-3.03622,0.23753,0.88982
442.638,49.48872,-3.04363,0.23139,0.88927
443.338,49.55728,-3.04836,0.23191,0.88872
444.038,49.6259,-3.05368,0.2267,0.88817
444.738,49.6945,-3.05888,0.22399,0.88761
445.438,49.763,-3.06315,0.22195,0.88706
446.138,49.83149,-3.06822,0.21724,0.88651
446.838,49.90002,-3.07273,0.21492,0.88595
447.538,49.96864,-3.07883,0.21,0.8854
448.238,50.0372,-3.08388,0.2086,0.88485
448.938,50.10587,-3.08876,0.20358,0.88429
449.638,50.17437,-3.09423,0.19628,0.88373
450.338,50.2432,-3.09701,0.19483,0.88318
451.038,50.31192,-3.10037,0.1906,0.88262
451.738,50.3808,-3.10426,0.18662,0.88206
452.438,50.44972,-3.10866,0.18557,0.88151
453.138,50.51833,-3.11226,0.17916,0.88095
453.838,50.58706,-3.11574,0.17557,0.88039
454.538,50.65592,-3.12122,0.17073,0.87983
455.238,50.7252,-3.12295,0.16699,0.87927
455.938,50.79415,-3.12634,0.16359,0.87871
456.638,50.86306,-3.12926,0.16278,0.87815
457.338,50.93176,-3.13353,0.16091,0.87759
458.038,51.00055,-3.13632,0.15684,0.87703
458.738,51.06907,-3.13899,0.15236,0.87646
459.438,51.13769,-3.14277,0.15445,0.8759
460.138,51.20649,-3.14588,0.15039,0.87534
460.838,51.27531,-3.14732,0.15039,0.87477
461.538,51.34424,-3.15001,0.14737,0.87421
462.238,51.4132,-3.15272,0.14607,0.87364
462.938,51.4822,-3.15521,0.14411,0.87308
463.638,51.5512,-3.15736,0.14305,0.87251
464.338,51.6203,-3.15969,0.1416,0.87195
465.038,51.68929,-3.16105,0.14207,0.87138
465.738,51.75847,-3.16336,0.13745,0.87081
466.438,51.82737,-3.16624,0.13485,0.87025
467.138,51.89648,-3.16882,0.13545,0.86968
467.838,51.96544,-3.17093,0.13715,0.86911
468.538,52.0345,-3.17284,0.13162,0.86854
469.238,52.10337,-3.17529,0.1324,0.86797
469.938,52.1723,-3.17651,0.13305,0.8674
470.638,52.24134,-3.17792,0.13181,0.86683
471.338,52.3104,-3.18033,0.13082,0.86626
472.038,52.37936,-3.18092,0.13068,0.86569
472.738,52.44826,-3.18322,0.13168,0.86512
473.438,52.51713,-3.18553,0.1303,0.86454
474.138,52.58599,-3.18527,0.12968,0.86397
474.838,52.65485,-3.18811,0.12842,0.8634
475.538,52.7239,-3.18881,0.13058,0.86282
476.238,52.79285,-3.19109,0.13165,0.86225
476.938,52.86175,-3.19259,0.12942,0.86167
477.638,52.93056,-3.19405,0.12891,0.8611
478.338,52.99941,-3.1956,0.13109,0.86052
479.038,53.06836,-3.19691,0.12741,0.85995
479.738,53.1371,-3.19827,0.12821,0.85937
480.438,53.20605,-3.19706,0.12849,0.8588
481.138,53.2749,-3.19822,0.12917,0.85822
481.838,53.34381,-3.20092,0.12953,0.85764
482.538,53.41254,-3.20271,0.12695,0.85706
483.238,53.4813,-3.20366,0.13087,0.85648
483.938,53.55,-3.20548,0.12756,0.8559
484.638,53.61894,-3.20741,0.1312,0.85533
485.338,53.68799,-3.209,0.13175,0.85475
486.038,53.7572,-3.20854,0.1331,0.85416
486.738,53.82636,-3.20914,0.13413,0.85358
487.438,53.8954,-3.20976,0.13678,0.853
488.138,53.96428,-3.21039,0.13703,0.85242
488.838,54.03324,-3.21172,0.13867,0.85184
489.538,54.1021,-3.21172,0.13845,0.85126
490.238,54.17116,-3.21434,0.14183,0.85067
490.938,54.24018,-3.21436,0.14115,0.85009
491.638,54.30919,-3.21567,0.14395,0.84951
492.338,54.3784,-3.21698,0.14241,0.84892
493.038,54.4476,-3.2183,0.1448,0.84834
493.738,54.5169,-3.21961,0.14461,0.84775
494.438,54.58622,-3.22056,0.14738,0.84717
495.138,54.65579,-3.22088,0.14807,0.84658
495.838,54.72521,-3.22225,0.14946,0.846
496.538,54.7947,-3.22355,0.1487,0.84541
497.238,54.8639,-3.22355,0.14924,0.84482
497.938,54.93329,-3.22488,0.14915,0.84424
498.638,55.00255,-3.22619,0.15018,0.84365
499.338,55.07196,-3.22735,0.14914,0.84306
500.038,55.1413,-3.22685,0.15103,0.84247
500.738,55.2106,-3.22831,0.14976,0.84188
501.438,55.28001,-3.2308,0.15018,0.84129
502.138,55.3493,-3.23014,0.15013,0.8407
502.838,55.41854,-3.23075,0.14954,0.84011
503.538,55.4877,-3.2308,0.14655,0.83952
504.238,55.55693,-3.23212,0.15001,0.83893
504.938,55.62621,-3.23254,0.14646,0.83834
505.638,55.69551,-3.23343,0.14801,0.83775
506.338,55.7649,-3.23475,0.15043,0.83716
507.038,55.8343,-3.23598,0.15015,0.83656
507.738,55.90376,-3.23738,0.14751,0.83597
508.438,55.9733,-3.23865,0.14418,0.83538
509.138,56.0427,-3.24017,0.14983,0.83478
509.838,56.1121,-3.24012,0.15028,0.83419
510.538,56.1815,-3.24145,0.14995,0.8336
511.238,56.25055,-3.24144,0.14928,0.833
511.938,56.32,-3.24276,0.15032,0.83241
512.638,56.38935,-3.24407,0.14931,0.83181
513.338,56.4591,-3.24407,0.14488,0.83121
514.038,56.5285,-3.24539,0.14682,0.83062
514.738,56.59802,-3.24671,0.14592,0.83002
515.438,56.66734,-3.24671,0.14648,0.82942
516.138,56.73684,-3.24687,0.14259,0.82883
516.838,56.80627,-3.24804,0.14608,0.82823
517.538,56.87555,-3.24802,0.14334,0.82763
518.238,56.9447,-3.24933,0.14512,0.82703
518.938,57.0143,-3.24934,0.14322,0.82643
519.638,57.084,-3.25065,0.14365,0.82584
520.338,57.1539,-3.25247,0.14477,0.82524
521.038,57.2233,-3.25298,0.13943,0.82464
521.738,57.29271,-3.25427,0.14125,0.82404
522.438,57.3622,-3.25427,0.1429,0.82343
523.138,57.4318,-3.25393,0.14771,0.82283
523.838,57.50144,-3.25428,0.14224,0.82223
524.538,57.57111,-3.2556,0.14457,0.82163
525.238,57.6409,-3.25789,0.14434,0.82103
525.938,57.71076,-3.25789,0.14362,0.82043
526.638,57.78055,-3.2579,0.14399,0.81982
527.338,57.8503,-3.25913,0.14037,0.81922
528.038,57.92021,-3.2592,0.1437,0.81862
528.738,57.99005,-3.26055,0.14382,0.81801
529.438,58.05973,-3.26053,0.14545,0.81741
530.138,58.12941,-3.26186,0.14569,0.81681
530.838,58.19919,-3.26185,0.14548,0.8162
531.538,58.269,-3.26185,0.14374,0.8156
532.238,58.33885,-3.26447,0.14743,0.81499
532.938,58.4087,-3.26516,0.14741,0.81439
533.638,58.4786,-3.26513,0.1464,0.81378
534.338,58.54846,-3.26645,0.14737,0.81317
535.038,58.6183,-3.26581,0.14617,0.81257
535.738,58.68815,-3.26711,0.14653,0.81196
536.438,58.758,-3.26711,0.14903,0.81135
537.138,58.82795,-3.26711,0.14661,0.81074
537.838,58.8978,-3.26838,0.14734,0.81014
538.538,58.96779,-3.26929,0.14749,0.80953
539.238,59.03754,-3.26841,0.14578,0.80892
539.938,59.1074,-3.26938,0.14783,0.80831
540.638,59.177,-3.27089,0.14613,0.8077
541.338,59.2469,-3.27106,0.14537,0.80709
542.038,59.31657,-3.27106,0.15138,0.80648
542.738,59.3863,-3.27237,0.14403,0.80587
543.438,59.4557,-3.27237,0.14627,0.80526
544.138,59.5254,-3.27376,0.14376,0.80465
544.838,59.5949,-3.27468,0.14503,0.80404
545.538,59.6646,-3.27467,0.14014,0.80343
546.238,59.7342,-3.27467,0.14486,0.80282
546.938,59.80375,-3.27591,0.14472,0.80221
547.638,59.8732,-3.27599,0.14527,0.80159
548.338,59.94276,-3.27694,0.14435,0.80098
549.038,60.0122,-3.27731,0.14574,0.80037
549.738,60.08189,-3.27731,0.14577,0.79976
550.438,60.1515,-3.27863,0.1445,0.79914
551.138,60.22136,-3.27862,0.14803,0.79853
551.838,60.29093,-3.2784,0.14769,0.79792
552.538,60.3604,-3.27862,0.14847,0.7973
553.238,60.4298,-3.27862,0.14713,0.79669
553.938,60.4996,-3.28092,0.14605,0.79607
554.638,60.56912,-3.28126,0.14716,0.79546
555.338,60.63884,-3.28027,0.1461,0.79484
556.038,60.7082,-3.27994,0.14887,0.79423
556.738,60.77776,-3.28124,0.14837,0.79361
557.438,60.8471,-3.28191,0.15138,0.79299
558.138,60.9165,-3.28257,0.15192,0.79238
558.838,60.98607,-3.28389,0.15192,0.79176
559.538,61.0558,-3.28389,0.15387,0.79114
560.238,61.12529,-3.28389,0.15577,0.79053
560.938,61.19515,-3.28389,0.15364,0.78991
561.638,61.26483,-3.28521,0.15496,0.78929
562.338,61.33469,-3.2852,0.15917,0.78867
563.038,61.4043,-3.28652,0.15643,0.78805
563.738,61.4742,-3.28652,0.15748,0.78744
564.438,61.54399,-3.28792,0.15809,0.78682
565.138,61.61374,-3.28819,0.15755,0.7862
565.838,61.68348,-3.28815,0.15758,0.78558
566.538,61.7533,-3.28915,0.15825,0.78496
567.238,61.8231,-3.28915,0.15782,0.78434
567.938,61.89252,-3.29046,0.15682,0.78372
568.638,61.9622,-3.29047,0.16077,0.7831
569.338,62.0321,-3.29085,0.15881,0.78248
570.038,62.1024,-3.29082,0.15955,0.78186
570.738,62.1723,-3.29212,0.15824,0.78124
571.438,62.242,-3.29344,0.16158,0.78062
572.138,62.312,-3.29476,0.1646,0.77999
572.838,62.38207,-3.29428,0.15959,0.77937
573.538,62.4522,-3.29475,0.16397,0.77875
574.238,62.52228,-3.29623,0.16214,0.77813
574.938,62.5925,-3.29879,0.16193,0.7775
575.638,62.66281,-3.29568,0.15849,0.77688
576.338,62.73305,-3.29453,0.15833,0.77626
577.038,62.80339,-3.29589,0.15881,0.77564
577.738,62.87384,-3.29812,0.15337,0.77501
578.438,62.94415,-3.29815,0.15035,0.77439
579.138,63.0143,-3.2984,0.15195,0.77376
579.838,63.08425,-3.29766,0.15043,0.77314
580.538,63.15436,-3.29848,0.14517,0.77252
581.238,63.22459,-3.2998,0.14793,0.77189
581.938,63.2946,-3.30088,0.14757,0.77127
582.638,63.36459,-3.30111,0.14981,0.77064
583.338,63.43461,-3.30292,0.14634,0.77002
584.038,63.50495,-3.30374,0.14543,0.76939
584.738,63.57507,-3.30514,0.14437,0.76876
585.438,63.64524,-3.30473,0.14487,0.76814
586.138,63.7151,-3.30506,0.14437,0.76751
586.838,63.7854,-3.30548,0.14337,0.76689
587.538,63.8557,-3.30739,0.1428,0.76626
588.238,63.926,-3.30869,0.14291,0.76563
588.938,63.9961,-3.30901,0.14334,0.76501
589.638,64.06602,-3.31031,0.14255,0.76438
590.338,64.13601,-3.31035,0.14135,0.76375
591.038,64.20618,-3.31164,0.14327,0.76312
591.738,64.27628,-3.31163,0.14171,0.7625
592.438,64.3464,-3.31295,0.1413,0.76187
593.138,64.41629,-3.31286,0.14354,0.76124
593.838,64.48615,-3.31427,0.14374,0.76061
594.538,64.556,-3.31426,0.145,0.75998
595.238,64.62606,-3.31559,0.14967,0.75935
595.938,64.69605,-3.31688,0.14412,0.75873
596.638,64.7662,-3.31681,0.14752,0.7581
597.338,64.83595,-3.31823,0.14743,0.75747
598.038,64.9057,-3.31691,0.14786,0.75684
598.738,64.97548,-3.31823,0.15045,0.75621
599.438,65.04539,-3.31858,0.15274,0.75558
600.138,65.1153,-3.32082,0.15257,0.75495
600.838,65.1852,-3.32086,0.15381,0.75432
601.538,65.2552,-3.32086,0.15462,0.75369
602.238,65.32562,-3.32086,0.15689,0.75306
602.938,65.39567,-3.32098,0.1569,0.75242
603.638,65.4658,-3.32217,0.15889,0.75179
604.338,65.53578,-3.32349,0.15935,0.75116
605.038,65.6059,-3.32227,0.16215,0.75053
605.738,65.67605,-3.32349,0.16424,0.7499
606.438,65.74601,-3.32452,0.16696,0.74927
607.138,65.81602,-3.32448,0.16861,0.74864
607.838,65.88606,-3.32434,0.17189,0.748
608.538,65.95615,-3.32447,0.1752,0.74737
609.238,66.02625,-3.32449,0.178,0.74674
609.938,66.0963,-3.32581,0.17629,0.74611
610.638,66.16646,-3.32712,0.17937,0.74547
611.338,66.23655,-3.32612,0.17884,0.74484
612.038,66.3067,-3.32711,0.18119,0.74421
612.738,66.37674,-3.32711,0.18515,0.74357
613.438,66.44694,-3.3271,0.18302,0.74294
614.138,66.51699,-3.32908,0.18689,0.74231
614.838,66.5871,-3.32908,0.18446,0.74167
615.538,66.65727,-3.33032,0.18577,0.74104
616.238,66.72749,-3.3304,0.1846,0.74041
616.938,66.79777,-3.3304,0.19073,0.73977
617.638,66.86799,-3.33041,0.18892,0.73914
618.338,66.9383,-3.32967,0.18908,0.7385
619.038,67.0086,-3.33072,0.18879,0.73787
619.738,67.07891,-3.33169,0.18868,0.73723
620.438,67.14917,-3.33204,0.18786,0.7366
621.138,67.21936,-3.33336,0.18977,0.73596
621.838,67.2895,-3.33336,0.18818,0.73533
622.538,67.3597,-3.33336,0.19021,0.73469
623.238,67.43002,-3.33434,0.19067,0.73406
623.938,67.50032,-3.33434,0.18976,0.73342
624.638,67.57059,-3.33434,0.1895,0.73279
625.338,67.64079,-3.33446,0.18807,0.73215
626.038,67.71101,-3.33566,0.18849,0.73151
626.738,67.78132,-3.33566,0.18651,0.73088
627.438,67.8515,-3.33566,0.19073,0.73024
628.138,67.92182,-3.33578,0.19094,0.72961
628.838,67.99201,-3.33698,0.19067,0.72897
629.538,68.0623,-3.33566,0.19109,0.72833
630.238,68.13249,-3.33567,0.18921,0.7277
630.938,68.20251,-3.33567,0.18967,0.72706
631.638,68.27263,-3.33698,0.1866,0.72642
632.338,68.34283,-3.33673,0.18851,0.72579
633.038,68.4131,-3.33698,0.18803,0.72515
633.738,68.48336,-3.33703,0.18987,0.72451
634.438,68.55362,-3.33849,0.18947,0.72387
635.138,68.62398,-3.3383,0.19186,0.72324
635.838,68.6943,-3.3383,0.19369,0.7226
636.538,68.7646,-3.3383,0.1908,0.72196
637.238,68.83497,-3.3383,0.19101,0.72132
637.938,68.90541,-3.33959,0.19226,0.72068
638.638,68.9759,-3.33961,0.19101,0.72005
639.338,69.04635,-3.33672,0.1927,0.71941
640.038,69.11676,-3.33695,0.19332,0.71877
640.738,69.1871,-3.34172,0.19592,0.71813
641.438,69.25738,-3.3418,0.19471,0.71749
642.138,69.32769,-3.34115,0.19385,0.71685
642.838,69.39816,-3.33981,0.19491,0.71621
643.538,69.46853,-3.33983,0.1951,0.71558
644.238,69.5388,-3.34115,0.19752,0.71494
644.938,69.6093,-3.33983,0.20003,0.7143
645.638,69.6796,-3.34048,0.19932,0.71366
646.338,69.75,-3.34051,0.2024,0.71302
647.038,69.82024,-3.3425,0.20243,0.71238
647.738,69.89068,-3.34215,0.20016,0.71174
648.438,69.9611,-3.34246,0.20614,0.7111
649.138,70.03129,-3.34246,0.20614,0.71046
649.838,70.10163,-3.34246,0.20469,0.70982
650.538,70.17193,-3.34246,0.2061,0.70918
651.238,70.2424,-3.34378,0.20474,0.70854
651.938,70.31262,-3.34377,0.20477,0.7079
652.638,70.38279,-3.34249,0.20618,0.70726
653.338,70.4529,-3.34473,0.20517,0.70662
654.038,70.52277,-3.34509,0.20227,0.70598
654.738,70.59286,-3.34378,0.20513,0.70534
655.438,70.66306,-3.34628,0.20695,0.7047
656.138,70.7333,-3.34513,0.20456,0.70406
656.838,70.80343,-3.3451,0.20743,0.70342
657.538,70.87365,-3.3451,0.2026,0.70278
658.238,70.94416,-3.3451,0.20546,0.70214
658.938,71.01454,-3.3451,0.20665,0.7015
659.638,71.0849,-3.3451,0.20567,0.70086
660.338,71.15515,-3.34378,0.21218,0.70022
661.038,71.22548,-3.34509,0.20699,0.69958
661.738,71.2957,-3.34641,0.20873,0.69894
662.438,71.36556,-3.34641,0.20859,0.69829
663.138,71.43585,-3.34509,0.20832,0.69765
663.838,71.50607,-3.34641,0.21299,0.69701
664.538,71.57672,-3.34641,0.21158,0.69637
665.238,71.6467,-3.34775,0.21113,0.69573
665.938,71.7169,-3.34904,0.21429,0.69509
666.638,71.78707,-3.34904,0.21309,0.69445
667.338,71.85755,-3.34904,0.21438,0.69381
668.038,71.928,-3.34904,0.21432,0.69316
668.738,71.9983,-3.34904,0.21747,0.69252
669.438,72.06859,-3.34904,0.21591,0.69188
670.138,72.1387,-3.34904,0.21409,0.69124
670.838,72.20913,-3.34838,0.21607,0.6906
671.538,72.27979,-3.34904,0.21628,0.68996
672.238,72.35069,-3.35014,0.21424,0.68932
672.938,72.4213,-3.35035,0.2133,0.68867
673.638,72.4918,-3.35101,0.21606,0.68803
674.338,72.5624,-3.35201,0.21507,0.68739
675.038,72.63284,-3.352,0.21542,0.68675
675.738,72.70335,-3.35209,0.2132,0.68611
676.438,72.77388,-3.35037,0.21332,0.68546
677.138,72.8445,-3.35036,0.21189,0.68482
677.838,72.9153,-3.35035,0.21155,0.68418
678.538,72.98613,-3.35168,0.21552,0.68354
679.238,73.057,-3.35168,0.2157,0.6829
679.938,73.1276,-3.35168,0.21266,0.68225
680.638,73.19811,-3.35201,0.21234,0.68161
681.338,73.26872,-3.35333,0.21035,0.68097
682.038,73.33932,-3.35333,0.21188,0.68033
682.738,73.40993,-3.35464,0.21196,0.67968
683.438,73.4805,-3.35464,0.20978,0.67904
684.138,73.551,-3.35464,0.21341,0.6784
684.838,73.62153,-3.35332,0.21262,0.67776
685.538,73.69205,-3.35431,0.20933,0.67712
686.238,73.76254,-3.35439,0.21108,0.67647
686.938,73.8327,-3.35497,0.2128,0.67583
687.638,73.90321,-3.35497,0.21256,0.67519
688.338,73.97369,-3.3553,0.21326,0.67455
689.038,74.04463,-3.35581,0.2128,0.6739
689.738,74.11524,-3.35661,0.21459,0.67326
690.438,74.18598,-3.35562,0.21746,0.67262
691.138,74.25666,-3.35527,0.21568,0.67198
691.838,74.3273,-3.35529,0.22083,0.67133
692.538,74.39797,-3.35526,0.22011,0.67069
693.238,74.46868,-3.35661,0.22148,0.67005
693.938,74.53928,-3.35661,0.2196,0.66941
694.638,74.60981,-3.35661,0.21701,0.66876
695.338,74.68041,-3.35661,0.22018,0.66812
696.038,74.75113,-3.35661,0.21929,0.66748
696.738,74.82176,-3.35665,0.22076,0.66684
697.438,74.89243,-3.35446,0.2217,0.6662
698.138,74.9631,-3.35701,0.21923,0.66555
698.838,75.03395,-3.35696,0.22371,0.66491
699.538,75.10459,-3.35826,0.22138,0.66427
700.238,75.175,-3.35695,0.21981,0.66363
700.938,75.24574,-3.35707,0.22,0.66298
701.638,75.31642,-3.35471,0.22406,0.66234
702.338,75.38735,-3.35596,0.22604,0.6617
703.038,75.4579,-3.35596,0.22292,0.66106
703.738,75.5286,-3.35596,0.21915,0.66041
704.438,75.59925,-3.35727,0.21567,0.65977
705.138,75.6698,-3.35727,0.21931,0.65913
705.838,75.74029,-3.35859,0.21877,0.65849
706.538,75.81097,-3.35859,0.22082,0.65784
707.238,75.88166,-3.3599,0.21856,0.6572
707.938,75.95233,-3.35954,0.21733,0.65656
708.638,76.0228,-3.35957,0.22009,0.65592
709.338,76.09305,-3.35957,0.21977,0.65528
710.038,76.16337,-3.35816,0.21608,0.65463
710.738,76.23356,-3.35826,0.21925,0.65399
711.438,76.30423,-3.35956,0.21836,0.65335
712.138,76.37484,-3.35958,0.21709,0.65271
712.838,76.44575,-3.3599,0.2185,0.65207
713.538,76.5166,-3.36122,0.22248,0.65142
714.238,76.58739,-3.36122,0.22196,0.65078
714.938,76.6581,-3.36122,0.21826,0.65014
715.638,76.72886,-3.36188,0.22137,0.6495
716.338,76.79971,-3.36188,0.2192,0.64886
717.038,76.87061,-3.36319,0.21971,0.64821
717.738,76.94161,-3.36319,0.22115,0.64757
718.438,77.0128,-3.36317,0.21823,0.64693
719.138,77.084,-3.36187,0.21735,0.64629
719.838,77.15509,-3.36323,0.21209,0.64565
720.538,77.226,-3.36321,0.21541,0.645
721.238,77.29701,-3.36581,0.2162,0.64436
721.938,77.36798,-3.36327,0.21343,0.64372
722.638,77.43906,-3.36319,0.21489,0.64308
723.338,77.51007,-3.36451,0.21405,0.64244
724.038,77.5811,-3.36451,0.21169,0.6418
724.738,77.65219,-3.36451,0.21336,0.64116
725.438,77.72325,-3.36438,0.2142,0.64051
726.138,77.79423,-3.36385,0.21276,0.63987
726.838,77.8651,-3.36372,0.21104,0.63923
727.538,77.93611,-3.3631,0.2117,0.63859
728.238,78.00707,-3.36385,0.21363,0.63795
728.938,78.07804,-3.36415,0.21384,0.63731
729.638,78.14899,-3.36287,0.2138,0.63667
730.338,78.21987,-3.36418,0.21498,0.63603
731.038,78.29069,-3.36465,0.21643,0.63539
731.738,78.36162,-3.3655,0.21477,0.63475
732.438,78.4327,-3.3655,0.21553,0.6341
733.138,78.5037,-3.3655,0.21589,0.63346
733.838,78.57472,-3.3655,0.21427,0.63282
734.538,78.6457,-3.3645,0.21373,0.63218
735.238,78.71676,-3.36582,0.21807,0.63154
735.938,78.78782,-3.36582,0.2181,0.6309
736.638,78.85882,-3.36485,0.2195,0.63026
737.338,78.92979,-3.36582,0.22255,0.62962
738.038,79.00073,-3.36784,0.22015,0.62898
738.738,79.07159,-3.36813,0.21617,0.62834
739.438,79.14183,-3.36821,0.21754,0.6277
740.138,79.21258,-3.36846,0.21914,0.62706
740.838,79.2835,-3.36847,0.21844,0.62642
741.538,79.35484,-3.36714,0.22118,0.62578
742.238,79.42564,-3.36714,0.21853,0.62514
742.938,79.4962,-3.36714,0.21993,0.6245
743.638,79.56703,-3.36782,0.21927,0.62386
744.338,79.6379,-3.36845,0.2248,0.62322
745.038,79.70885,-3.36977,0.22613,0.62258
745.738,79.7798,-3.36977,0.22118,0.62195
746.438,79.85069,-3.36815,0.22385,0.62131
747.138,79.9215,-3.36725,0.22308,0.62067
747.838,79.99213,-3.36903,0.22218,0.62003
748.538,80.06277,-3.37011,0.22434,0.61939
749.238,80.13395,-3.37149,0.22354,0.61875
749.938,80.20504,-3.36867,0.22916,0.61811
750.638,80.27624,-3.36868,0.22527,0.61747
751.338,80.34729,-3.37003,0.22526,0.61683
752.038,80.4186,-3.3706,0.22168,0.6162
752.738,80.48979,-3.37131,0.22188,0.61556
753.438,80.5609,-3.37131,0.22693,0.61492
754.138,80.6319,-3.37,0.22771,0.61428
754.838,80.7029,-3.37,0.22597,0.61364
755.538,80.77383,-3.36936,0.2243,0.613
756.238,80.8447,-3.36752,0.22688,0.61237
756.938,80.91547,-3.37088,0.2275,0.61173
757.638,80.98634,-3.37236,0.22901,0.61109
758.338,81.05721,-3.37175,0.22932,0.61045
759.038,81.1281,-3.37175,0.22838,0.60982
759.738,81.19866,-3.37175,0.22777,0.60918
760.438,81.2693,-3.37175,0.22798,0.60854
761.138,81.34005,-3.37021,0.22893,0.6079
761.838,81.41099,-3.37015,0.23079,0.60727
762.538,81.4816,-3.37022,0.23458,0.60663
763.238,81.55245,-3.3711,0.23131,0.60599
763.938,81.62312,-3.37366,0.23421,0.60536
764.638,81.69412,-3.37273,0.23423,0.60472
765.338,81.76499,-3.37142,0.2343,0.60408
766.038,81.8361,-3.37142,0.23345,0.60345
766.738,81.907,-3.37142,0.2326,0.60281
767.438,81.97794,-3.37114,0.23118,0.60218
768.138,82.04892,-3.37107,0.23128,0.60154
768.838,82.1198,-3.37208,0.22853,0.6009
769.538,82.19076,-3.37208,0.23096,0.60027
770.238,82.26177,-3.37324,0.23216,0.59963
770.938,82.33292,-3.37198,0.23399,0.599
771.638,82.40393,-3.37075,0.23221,0.59836
772.338,82.4748,-3.37066,0.23078,0.59773
773.038,82.54561,-3.3734,0.23486,0.59709
773.738,82.61635,-3.3734,0.23652,0.59646
774.438,82.68729,-3.37336,0.23854,0.59582
775.138,82.7581,-3.37471,0.23708,0.59519
775.838,82.82914,-3.37471,0.23872,0.59455
776.538,82.9001,-3.37469,0.23655,0.59392
777.238,82.97121,-3.37438,0.23573,0.59328
777.938,83.04231,-3.37438,0.23914,0.59265
778.638,83.11338,-3.37438,0.23777,0.59202
779.338,83.18456,-3.37438,0.23735,0.59138
780.038,83.25572,-3.3745,0.23864,0.59075
780.738,83.32684,-3.37504,0.23298,0.59011
781.438,83.39794,-3.37504,0.23648,0.58948
782.138,83.46913,-3.37471,0.23372,0.58885
782.838,83.54044,-3.3726,0.2356,0.58821
783.538,83.61162,-3.37502,0.23689,0.58758
784.238,83.68266,-3.37545,0.23636,0.58695
784.938,83.75384,-3.37834,0.2388,0.58632
785.638,83.82494,-3.3758,0.24114,0.58568
786.338,83.89625,-3.37559,0.24437,0.58505
787.038,83.96738,-3.37559,0.24225,0.58442
787.738,84.03866,-3.37657,0.24777,0.58379
788.438,84.10975,-3.37657,0.24342,0.58315
789.138,84.18064,-3.37657,0.24585,0.58252
789.838,84.25154,-3.37601,0.24267,0.58189
790.538,84.3224,-3.37526,0.24249,0.58126
791.238,84.39359,-3.37548,0.24256,0.58063
791.938,84.46477,-3.37658,0.24361,0.58
792.638,84.53605,-3.37658,0.24275,0.57937
793.338,84.6073,-3.37658,0.2428,0.57874
794.038,84.6785,-3.37658,0.24513,0.5781
794.738,84.74965,-3.37658,0.24506,0.57747
795.438,84.8206,-3.3757,0.24491,0.57684
796.138,84.89157,-3.3769,0.2443,0.57621
796.838,84.96246,-3.37828,0.24533,0.57558
797.138,84.99274,-3.37714,0.24347,0.57531