File: 01_Data/PET/Cone/PET_Cone_HF50Scan_220207_R3.csv
Names,Time,Stack TC,Smoke TC,Exh Press,Smoke Comp,Smoke Meas,CO Meter,CO2 Meter,O2 Meter,Sample Mass,Ext Coeff,Start Test,Flame Verif
Chan Gain,,500,500,1,1,1,1,1,1,1,1,1.0,1.0
Offset,,0,0,0.134889,0,0,0,0,0,0,0,0.0,0.0
Gain,,1,1,25.011,12.9892,12.3331,1,1,1,1.00088,1.02973,1.0,1.0
Units,sec,C,C,Pa,%,%,%,%,%,g,/m,,
Baseline,,28.8517,30.4125,155.51,98.0464,98.4532,-0.00153283,0.0556303,21.0123,-0.529799,-0.0373917,,
5,1,24.4299,25.6578,158.611,97.4523,98.0414,-0.00163287,0.0557302,21.0129,961.034,-0.0544423,0.0,0.0
10,2.25,24.6023,25.3513,157.071,97.4368,98.1404,-0.00161067,0.0556328,21.0138,961.054,-0.06499,0.0,0.0
15,3.5,24.5814,25.6037,156.183,97.4309,97.8965,-0.00158557,0.0555172,21.0143,961.044,-0.0430662,0.0,0.0
20,4.75,24.8493,25.6872,157.954,97.4336,98.2443,-0.00157246,0.0553021,21.0146,960.984,-0.0748405,0.0,0.0
25,6,24.7084,25.7245,161.788,97.4332,98.0486,-0.00156651,0.0550057,21.0148,960.984,-0.0568644,0.0,0.0
30,7.25,25.2158,25.8513,154.767,97.415,97.9334,-0.00155949,0.0547037,21.0154,961.024,-0.047939,0.0,0.0
35,8.5,25.1273,26.5788,155.417,97.4217,97.8581,-0.001565,0.0543008,21.0161,961.054,-0.0403683,0.0,0.0
40,9.75,25.3089,26.2837,158.321,97.4277,97.918,-0.00158976,0.0537763,21.0166,961.064,-0.0453397,0.0,0.0
45,11,25.4124,26.4368,159.583,97.4095,97.9435,-0.00159842,0.0534458,21.0169,961.064,-0.0493907,0.0,0.0
50,12.25,25.6663,26.6,154.35,97.3865,97.9913,-0.00160729,0.0530518,21.0181,961.064,-0.0559293,0.0,0.0
55,13.5,25.1828,26.5076,156.442,97.3754,97.9605,-0.00164663,0.0527084,21.0186,961.054,-0.0541141,0.0,0.0
60,14.75,25.6957,26.6536,157.768,97.3571,97.583,-0.00168444,0.0523953,21.0181,961.044,-0.0209295,0.0,0.0
65,16,25.2422,26.2363,158.568,97.3278,97.8555,-0.00170393,0.0521465,21.0178,961.044,-0.0488397,0.0,0.0
70,17.25,25.5804,27.0765,152.425,97.2937,97.9484,-0.00166073,0.0521374,21.0184,961.004,-0.0605818,0.0,0.0
75,18.5,25.6773,26.8899,156.388,97.2652,97.7151,-0.00160739,0.0522264,21.0191,960.984,-0.0416863,0.0,0.0
80,19.75,25.7549,27.0111,155.42,97.2366,98.1633,-0.00154224,0.0524571,21.0196,960.994,-0.0856795,0.0,0.0
85,21,26.3677,27.2707,152.965,97.1871,97.6372,-0.0015033,0.0526699,21.02,961.004,-0.0417366,0.0,0.0
90,22.25,26.5695,27.4226,157.169,97.1431,97.5924,-0.00148843,0.0527779,21.0202,960.954,-0.041682,0.0,0.0
95,23.5,26.0979,27.8749,153.43,97.1022,97.7682,-0.00148247,0.0527731,21.0207,960.964,-0.0617326,0.0,0.0
100,24.75,26.157,27.1051,154.293,97.0547,97.5924,-0.00148561,0.0526532,21.0216,960.984,-0.049905,0.0,0.0
105,26,25.9279,27.0152,156.723,96.9972,97.5811,-0.00150722,0.052494,21.0221,961.054,-0.0542111,0.0,0.0
110,27.25,26.1078,26.9944,157.393,96.9429,97.6458,-0.00153318,0.0522815,21.0224,961.004,-0.0652601,0.0,0.0
115,28.5,26.2987,27.7034,155.818,96.9001,97.5179,-0.0015538,0.0519906,21.0225,961.004,-0.0574046,0.0,0.0
120,29.75,25.9981,27.95,158.431,96.8275,97.4046,-0.00156474,0.0517307,21.0226,961.004,-0.0536694,0.0,0.0
125,31,26.4295,27.5961,154.801,96.7689,97.2807,-0.00157329,0.051314,21.0229,961.044,-0.0476537,0.0,0.0
130,32.25,26.8862,27.6713,156.79,96.7058,97.26,-0.00158077,0.0509384,21.0237,961.034,-0.051617,0.0,0.0
135,33.5,26.7315,28.0062,157.674,96.6531,97.0948,-0.00160048,0.0505919,21.0243,961.014,-0.0411839,0.0,0.0
140,34.75,26.3932,27.2706,155.388,96.5794,97.3779,-0.00164962,0.0503769,21.0246,961.014,-0.0743698,0.0,0.0
145,36,26.4586,27.946,157.592,96.514,97.0109,-0.0017098,0.0500487,21.0248,960.994,-0.0463851,0.0,0.0
150,37.25,26.6866,27.6255,155.44,96.4629,96.9973,-0.00173463,0.0497676,21.0249,961.004,-0.049911,0.0,0.0
155,38.5,25.8361,28.0037,155.656,96.4058,96.805,-0.00171244,0.049597,21.025,961.004,-0.0373284,0.0,0.0
160,39.75,26.6834,27.4445,154.868,96.3427,96.7433,-0.00167273,0.0494083,21.0247,961.014,-0.0374749,0.0,0.0
165,41,26.3248,27.7959,153.397,96.2845,96.9661,-0.00162043,0.0494081,21.0241,960.994,-0.0637196,0.0,0.0
170,42.25,26.9829,27.8071,154.367,96.2432,96.8076,-0.00156294,0.0494708,21.0232,960.994,-0.0528154,0.0,0.0
175,43.5,26.3677,27.7167,155.872,96.2088,96.5062,-0.00152391,0.0497131,21.0227,961.014,-0.027879,0.0,0.0
180,44.75,26.6556,28.328,155.306,96.1596,96.4301,-0.00153179,0.0499441,21.0224,961.024,-0.0253767,0.0,0.0
185,46,26.6781,28.1773,153.631,96.1279,96.5724,-0.00154919,0.0500805,21.0222,961.004,-0.0416728,0.0,0.0
190,47.25,27.0609,28.1485,149.999,96.1053,96.3963,-0.00154453,0.0502899,21.0221,961.014,-0.0273054,0.0,0.0
195,48.5,26.9109,28.1447,156.294,96.0779,96.3703,-0.00151649,0.0504471,21.022,961.044,-0.0274426,0.0,0.0
200,49.75,26.6428,27.9674,156.406,96.0482,96.0914,-0.00146387,0.0505436,21.0222,961.004,-0.00405932,0.0,0.0
205,51,26.8583,28.2157,154.561,96.0371,96.4219,-0.00141523,0.0506385,21.0224,961.014,-0.0361137,0.0,0.0
210,52.25,26.0982,27.7361,149.754,96.0336,96.1204,-0.00135233,0.0507406,21.0226,960.964,-0.00816249,0.0,0.0
215,53.5,26.9507,28.2177,154.238,96.0256,96.1095,-0.00127535,0.0508361,21.0227,960.984,-0.00788282,0.0,0.0
220,54.75,27.3257,28.0518,155.498,96.0336,96.076,-0.00118236,0.0507546,21.0227,960.994,-0.00398822,0.0,0.0
225,56,27.0145,28.2287,154.501,96.032,95.718,-0.00105426,0.0507069,21.0227,960.964,0.0295771,0.0,0.0
230,57.25,26.9105,28.2438,153.932,96.0458,95.8227,-0.000901285,0.0507674,21.0227,960.944,0.0210138,0.0,0.0
235,58.5,27.1205,28.6611,156.5,96.0558,95.7195,-0.00078571,0.0507731,21.0234,960.944,0.0316719,0.0,0.0
240,59.75,27.3492,29.1709,154.022,96.0736,95.5927,-0.000758638,0.0508437,21.024,960.954,0.0453264,0.0,0.0
245,61,26.9691,28.7251,157.677,96.118,95.665,-0.000766415,0.0508188,21.0244,960.924,0.0426743,0.0,0.0
250,62.25,27.2005,29.1111,154.988,96.1469,95.5103,-0.00078941,0.0508624,21.0247,960.884,0.0600108,0.0,0.0
255,63.5,26.9976,28.3804,156.897,96.179,95.3179,-0.00086315,0.0509284,21.0254,960.914,0.0812335,0.0,0.0
260,64.75,27.0882,28.4588,158.829,96.2167,95.2314,-0.000899654,0.0509862,21.026,960.924,0.0929773,0.0,0.0
265,66,27.5609,29.1671,156.225,96.2785,95.1053,-0.000870973,0.051049,21.0258,960.894,0.110747,0.0,0.0
270,67.25,27.1512,29.5312,153.018,96.3419,95.1459,-0.00080113,0.0511819,21.0257,960.944,0.112836,0.0,0.0
275,68.5,27.3356,29.0265,154.03,96.3911,95.1896,-0.000740594,0.0512962,21.0256,960.924,0.113299,0.0,0.0
280,69.75,27.6002,28.609,156.594,96.4581,95.1697,-0.000685136,0.0514765,21.0256,960.934,0.121468,0.0,0.0
285,71,27.569,29.0789,154.843,96.5386,94.8821,-0.000637098,0.0516572,21.0256,960.924,0.156333,0.0,0.0
290,72.25,27.463,29.1537,157.835,96.6079,95.138,-0.000586481,0.0519434,21.0248,960.924,0.13849,0.0,0.0
295,73.5,27.0896,29.1178,155.858,96.6781,94.7297,-0.00054489,0.0522148,21.0239,960.954,0.183904,0.0,0.0
300,74.75,27.5936,28.8508,152.67,96.7633,94.8125,-0.000502793,0.0526154,21.0227,960.884,0.183971,0.0,0.0
305,76,27.8573,29.0464,155.002,96.8541,94.7816,-0.000435682,0.0530447,21.0219,960.833,0.195381,0.0,0.0
310,77.25,27.5318,29.1517,156.139,96.9437,94.5084,-0.000342828,0.0537518,21.0215,960.874,0.229811,0.0,0.0
315,78.5,27.529,29.0837,157.338,97.0428,94.3307,-0.000238233,0.0545911,21.0199,960.934,0.256034,0.0,0.0
320,79.75,27.5128,29.1688,156.89,97.1288,94.8923,-7.28743e-05,0.0574109,21.0137,960.874,0.210424,0.0,0.0
325,81,27.6906,29.044,151.102,97.2291,96.333,0.000282561,0.0679764,20.9936,960.833,0.0836321,0.0,0.0
330,82.25,27.6361,29.1199,154.723,97.3207,88.6109,0.000881487,0.0864654,20.9523,960.753,0.846874,0.0,1.0
335,83.5,28.1866,29.8205,145.584,97.4011,81.5121,0.00177089,0.122009,20.904,960.653,1.60861,0.0,1.0
340,84.75,28.7324,30.0454,146.674,97.4864,78.6087,0.00293307,0.165083,20.8516,960.483,1.94411,0.0,1.0
345,86,28.72,31.3118,136.851,97.5704,72.4121,0.00407481,0.213038,20.7974,960.333,2.69357,0.0,0.0
350,87.25,29.9556,31.8846,139.792,97.6362,68.8903,0.00585513,0.268638,20.736,960.123,3.15001,0.0,0.0
355,88.5,30.6676,33.3444,141.794,97.7143,65.7521,0.00771014,0.326616,20.6615,960.063,3.57837,0.0,0.0
360,89.75,32.021,34.8304,135.46,97.7749,62.9331,0.00964445,0.378551,20.585,959.793,3.97979,0.0,0.0
365,91,32.6908,35.6332,136.338,97.8233,61.2988,0.0115426,0.447433,20.4871,959.602,4.22191,0.0,0.0
370,92.25,33.8478,38.1568,126.96,97.8744,61.9955,0.0135116,0.510781,20.4052,959.302,4.12456,0.0,0.0
375,93.5,35.2933,39.1647,127.536,97.9474,59.7534,0.0157285,0.568988,20.3287,959.052,4.46401,0.0,0.0
380,94.75,36.9065,41.2722,128.868,97.9823,55.4447,0.0184399,0.625936,20.2564,958.802,5.14324,0.0,0.0
385,96,38.6925,43.3872,131.951,97.9906,54.6193,0.0214089,0.685918,20.1797,958.482,5.27949,0.0,0.0
390,97.25,39.8217,45.1765,128.774,98.0255,51.236,0.0242326,0.753374,20.1019,958.181,5.86029,0.0,0.0
395,98.5,40.7922,47.3158,127.474,98.058,52.0332,0.0277672,0.822311,20.0269,957.761,5.72383,0.0,0.0
400,99.75,42.9299,49.8953,117.133,98.0714,49.7942,0.0309175,0.882825,19.9551,957.421,6.12237,0.0,0.0
405,101,44.487,52.1399,129.593,98.0718,49.3165,0.0337828,0.951133,19.8794,957.11,6.20947,0.0,0.0
410,102.25,46.5127,53.5185,126.024,98.0944,48.525,0.0360255,1.01328,19.8068,956.66,6.3577,0.0,0.0
415,103.5,48.6344,55.6945,129.208,98.1071,48.8705,0.03781,1.06969,19.7399,956.34,6.29478,0.0,0.0
420,104.75,49.6428,58.1927,117.524,98.1079,50.4795,0.0390587,1.12195,19.69,955.919,6.00225,0.0,0.0
425,106,51.4757,60.6128,123.685,98.0972,50.6448,0.0397207,1.16365,19.6563,955.629,5.97175,0.0,0.0
430,107.25,53.0032,63.0857,121.395,98.0853,53.6573,0.039854,1.19368,19.6361,955.159,5.44873,0.0,0.0
435,108.5,54.6857,65.0416,120.698,98.0703,54.9381,0.0396285,1.21333,19.6243,954.918,5.23426,0.0,0.0
440,109.75,56.406,67.168,123.222,98.0516,56.6111,0.0392326,1.22369,19.6224,954.528,4.96158,0.0,0.0
445,111,57.8475,68.9274,125.337,98.0294,55.4567,0.0388005,1.22488,19.6302,954.188,5.14563,0.0,0.0
450,112.25,59.2457,70.3494,132.74,98.0148,53.1232,0.0384868,1.21802,19.6479,953.827,5.53259,0.0,0.0
455,113.5,59.7979,72.0646,127.716,97.989,49.2608,0.0383629,1.20354,19.6732,953.457,6.21204,0.0,0.0
460,114.75,60.9271,72.7907,126.449,97.962,50.0896,0.0384845,1.18899,19.6957,953.107,6.05885,0.0,0.0
465,116,61.7263,74.1543,123.906,97.9256,48.3869,0.0386358,1.17612,19.7129,952.766,6.36788,0.0,0.0
470,117.25,61.9761,74.7877,133.596,97.8915,49.7433,0.0387484,1.16589,19.7246,952.456,6.115,0.0,0.0
475,118.5,62.7227,75.3284,132.115,97.8665,50.4344,0.0387626,1.15762,19.7331,952.096,5.98808,0.0,0.0
480,119.75,63.824,76.643,135.519,97.8257,51.3904,0.0385845,1.15068,19.7404,951.695,5.8147,0.0,0.0
485,121,63.8254,76.8982,121.334,97.8055,49.3986,0.0381545,1.14323,19.7479,951.365,6.16988,0.0,0.0
490,122.25,65.1173,77.1177,130.264,97.7662,51.0396,0.0374706,1.13353,19.7621,951.025,5.87107,0.0,0.0
495,123.5,65.127,79.1386,130.731,97.7333,51.2914,0.0366545,1.12186,19.7782,950.735,5.82358,0.0,0.0
500,124.75,65.8706,79.8804,127.193,97.6786,49.0158,0.0358803,1.11206,19.7884,950.394,6.22843,0.0,0.0
505,126,65.7399,79.5691,125.727,97.6564,49.3056,0.0353488,1.10452,19.7945,950.064,6.17312,0.0,0.0
510,127.25,66.7473,80.6469,124.692,97.6279,51.2312,0.0351862,1.10219,19.7923,949.744,5.82444,0.0,0.0
515,128.5,67.6809,81.2079,127.713,97.5918,54.7013,0.0354709,1.10458,19.7832,949.434,5.22909,0.0,0.0
520,129.75,67.7188,82.2422,124.308,97.5664,50.3821,0.0362155,1.11283,19.7665,948.973,5.96972,0.0,0.0
525,131,68.236,83.0194,125.676,97.5335,52.1092,0.0368691,1.12558,19.751,948.673,5.6622,0.0,0.0
530,132.25,69.3736,83.5251,119.057,97.5082,50.2706,0.0373797,1.14613,19.7282,948.283,5.98432,0.0,0.0
535,133.5,69.6296,85.0427,123.308,97.4792,50.4547,0.0385249,1.16982,19.7029,948.042,5.94863,0.0,0.0
540,134.75,70.2137,85.4675,130.492,97.4427,48.388,0.0395024,1.18702,19.6748,947.472,6.32303,0.0,0.0
545,136,70.7356,87.1464,124.928,97.421,53.6234,0.0404528,1.2137,19.6426,947.152,5.39304,0.0,0.0
550,137.25,72.2618,87.2973,114.262,97.4047,51.6745,0.0413534,1.2386,19.6116,946.721,5.72593,0.0,0.0
555,138.5,73.0646,88.5546,126.577,97.3666,50.498,0.0421575,1.2595,19.5875,946.361,5.93044,0.0,0.0
560,139.75,73.6138,88.9303,121.568,97.3706,49.6218,0.0428558,1.27649,19.5711,946.051,6.08892,0.0,0.0
565,141,74.2181,90.4143,117.534,97.3508,50.4645,0.0435505,1.28951,19.5602,945.61,5.93497,0.0,0.0
570,142.25,75.1173,91.6344,121.665,97.421,48.2265,0.0440839,1.30056,19.5511,945.2,6.3512,0.0,0.0
575,143.5,76.0272,92.4314,124.396,97.4733,52.0663,0.0443766,1.31306,19.5366,944.829,5.66406,0.0,0.0
580,144.75,76.4022,93.033,117.553,97.5498,53.626,0.0444274,1.32564,19.5191,944.469,5.40454,0.0,0.0
585,146,77.4172,94.0951,115.051,97.6069,54.6513,0.044411,1.33958,19.5019,944.049,5.23876,0.0,0.0
590,147.25,78.3813,94.9972,117.866,97.6703,50.9233,0.0444171,1.35547,19.4805,943.638,5.88281,0.0,0.0
595,148.5,78.8883,95.8694,119.68,97.7171,49.6763,0.0445354,1.37949,19.4484,943.248,6.11107,0.0,0.0
600,149.75,79.6654,97.3318,113.647,97.7567,52.8458,0.0449208,1.40518,19.4163,942.838,5.55606,0.0,0.0
605,151,80.7521,98.1207,123.77,97.7991,49.7426,0.045583,1.43474,19.3764,942.397,6.10661,0.0,0.0
610,152.25,81.3314,99.6338,119.976,97.8312,51.2364,0.0462617,1.46433,19.3351,942.007,5.84231,0.0,0.0
615,153.5,81.6697,100.404,109.344,97.8586,50.2624,0.0468358,1.49482,19.2996,941.587,6.01821,0.0,0.0
620,154.75,83.3824,102.362,116.252,97.8831,50.8303,0.0471923,1.52305,19.2739,941.136,5.91898,0.0,0.0
625,156,84.6817,103.066,121.224,97.8958,52.3565,0.0471148,1.54891,19.2566,940.746,5.65293,0.0,0.0
630,157.25,85.0492,104.355,117.551,97.9149,53.2079,0.0466019,1.56401,19.2509,940.336,5.50899,0.0,0.0
635,158.5,86.448,106.105,114.342,97.9371,53.5978,0.045778,1.56024,19.2683,939.885,5.44508,0.0,0.0
640,159.75,87.1371,107.014,129.203,97.9581,52.6087,0.0448605,1.54216,19.3002,939.455,5.61527,0.0,0.0
645,161,87.2628,106.951,122.387,97.9585,53.7461,0.0440351,1.5247,19.3191,939.074,5.4221,0.0,0.0
650,162.25,88.2205,108.149,114.281,97.9715,53.5436,0.0433236,1.51444,19.3271,938.654,5.4574,0.0,0.0
655,163.5,88.4111,109.13,109.143,97.9684,53.1537,0.0427556,1.51168,19.3265,938.354,5.52313,0.0,0.0
660,164.75,89.6156,109.841,115.213,97.9704,54.031,0.0423925,1.5126,19.3241,937.873,5.37544,0.0,0.0
665,166,89.921,111.341,112.378,97.9696,53.9652,0.0422232,1.51318,19.3226,937.473,5.38638,0.0,0.0
670,167.25,90.6469,111.644,117.992,97.968,55.7977,0.0421635,1.50906,19.329,937.193,5.08459,0.0,0.0
675,168.5,91.7618,112.306,123.307,97.9763,51.5537,0.0420737,1.50118,19.3398,936.692,5.79993,0.0,0.0
680,169.75,92.0886,113.234,120.001,97.9692,54.2192,0.0418835,1.49317,19.3496,936.282,5.34392,0.0,0.0
685,171,92.2816,113.91,117.742,97.9601,52.3068,0.0415992,1.48582,19.3585,935.912,5.66743,0.0,0.0
690,172.25,92.8732,114.507,120.961,97.9505,55.197,0.0412486,1.47897,19.3672,935.541,5.18075,0.0,0.0
695,173.5,93.3462,114.842,111.521,97.9513,53.6603,0.0409501,1.47235,19.3747,935.201,5.43587,0.0,0.0
700,174.75,93.7805,115.497,104.266,97.9422,58.0511,0.0403413,1.46362,19.3839,934.811,4.72461,0.0,0.0
705,176,94.2069,116.387,109.996,97.9359,56.1718,0.0395986,1.45122,19.3978,934.5,5.02127,0.0,0.0
710,177.25,94.8854,116.237,114.996,97.9248,56.6897,0.038915,1.43705,19.4155,934.13,4.93735,0.0,0.0
715,178.5,94.7679,116.986,124.221,97.9097,57.849,0.0382717,1.41807,19.4418,933.76,4.75311,0.0,0.0
720,179.75,95.205,116.951,121.736,97.8843,55.8056,0.0379466,1.4015,19.4615,933.379,5.0756,0.0,0.0
725,181,95.2949,116.977,125.251,97.8669,52.2575,0.0378712,1.38989,19.4731,933.019,5.66735,0.0,0.0
730,182.25,95.6481,117.226,113.823,97.8598,51.8036,0.037998,1.38308,19.4787,932.679,5.7455,0.0,0.0
735,183.5,96.0513,116.721,115.777,97.828,53.5308,0.038173,1.38023,19.4798,932.268,5.44632,0.0,0.0
740,184.75,96.2842,117.668,118.977,97.7987,54.5689,0.0383553,1.3785,19.4785,931.928,5.27013,0.0,0.0
745,186,95.892,117.876,120.465,97.7698,53.1597,0.0386006,1.37766,19.4766,931.588,5.50378,0.0,0.0
750,187.25,96.3434,118.264,122.725,97.7476,53.9859,0.038888,1.37929,19.4747,931.147,5.36243,0.0,0.0
755,188.5,96.8143,118.369,117.439,97.7448,53.1364,0.039163,1.38232,19.4737,930.847,5.50543,0.0,0.0
760,189.75,96.6306,118.675,119.433,97.7024,53.1044,0.0393586,1.38176,19.4762,930.427,5.50695,0.0,0.0
765,191,96.8821,118.424,124.135,97.6746,54.0084,0.0393923,1.37848,19.4793,930.067,5.35191,0.0,0.0
770,192.25,97.259,119.306,112.063,97.6449,50.5183,0.039304,1.37654,19.4811,929.706,5.95259,0.0,0.0
775,193.5,97.4558,119.339,113.217,97.6156,51.3964,0.0391853,1.37547,19.4822,929.356,5.79422,0.0,0.0
780,194.75,97.8332,119.61,117.781,97.5807,52.6275,0.0390881,1.37486,19.4828,928.946,5.57718,0.0,0.0
785,196,97.9433,119.21,119.635,97.5605,56.185,0.0388842,1.37343,19.4841,928.535,4.98446,0.0,0.0
790,197.25,97.5446,120.153,123.946,97.547,56.9566,0.0386573,1.36874,19.4888,928.165,4.86002,0.0,0.0
795,198.5,98.4492,120.162,121.573,97.5113,54.8617,0.0382511,1.3607,19.5044,927.875,5.19521,0.0,0.0
800,199.75,98.75,119.932,114.542,97.4626,55.0687,0.037721,1.3496,19.5217,927.494,5.15667,0.0,0.0
805,201,98.1879,120.078,117.499,97.4431,54.9392,0.0371654,1.33312,19.5406,927.124,5.17613,0.0,0.0
810,202.25,98.5645,120.019,116.393,97.4079,52.4596,0.0364244,1.31696,19.559,926.764,5.59002,0.0,0.0
815,203.5,98.8388,119.665,120.288,97.3563,53.7401,0.0354962,1.30363,19.5737,926.503,5.36742,0.0,0.0
820,204.75,98.5578,119.923,124.463,97.3131,55.7879,0.0347134,1.29091,19.5876,926.173,5.0256,0.0,0.0
825,206,98.8568,119.891,118.719,97.2862,55.2821,0.0341213,1.27541,19.6073,925.863,5.10537,0.0,0.0
830,207.25,98.6579,119.555,115.3,97.2489,51.5661,0.0336223,1.26068,19.6232,925.442,5.73044,0.0,0.0
835,208.5,98.9656,119.441,119.843,97.2263,54.2595,0.0331981,1.25023,19.6327,925.172,5.26846,0.0,0.0
840,209.75,98.902,119.044,115.591,97.1974,53.8545,0.032815,1.24407,19.6376,924.812,5.33345,0.0,0.0
845,211,98.5565,118.834,119.977,97.195,56.0815,0.0324188,1.24146,19.6402,924.472,4.96722,0.0,0.0
850,212.25,98.9249,118.82,126.483,97.2013,55.9806,0.0320759,1.23924,19.6415,924.181,4.98407,0.0,0.0
855,213.5,98.6534,119.246,124.544,97.1994,56.441,0.031725,1.23534,19.6465,923.811,4.90991,0.0,0.0
860,214.75,98.8232,119.101,118.858,97.2037,54.4608,0.031453,1.23083,19.6535,923.531,5.23291,0.0,0.0
865,216,98.8233,119.512,118.211,97.2077,57.8704,0.0312547,1.22576,19.6592,923.18,4.68477,0.0,0.0
870,217.25,98.6589,119.122,117.827,97.2017,57.8411,0.0311052,1.22118,19.6625,922.88,4.6888,0.0,0.0
875,218.5,98.9809,119.417,116.444,97.2045,56.768,0.0309804,1.21755,19.6644,922.5,4.8582,0.0,0.0
880,219.75,98.1895,118.597,116.62,97.2184,56.9615,0.0308841,1.21511,19.665,922.19,4.82876,0.0,0.0
885,221,98.707,119.639,115.094,97.2105,56.194,0.0308805,1.21469,19.6624,921.839,4.95055,0.0,0.0
890,222.25,99.3691,118.878,119.811,97.2081,58.668,0.0309951,1.2157,19.6587,921.509,4.56117,0.0,0.0
895,223.5,98.0254,118.606,115.542,97.2168,56.2945,0.0313457,1.21822,19.656,921.159,4.935,0.0,0.0
900,224.75,99.6856,118.646,116.651,97.2113,54.7781,0.0318386,1.22165,19.6521,920.908,5.18114,0.0,0.0
905,226,99.5843,118.745,123.141,97.2101,58.6533,0.0323697,1.22623,19.6469,920.568,4.56361,0.0,0.0
910,227.25,99.0162,118.53,115.758,97.2168,55.4684,0.032748,1.23235,19.6381,920.258,5.06854,0.0,0.0
915,228.5,99.4123,119.213,117.5,97.222,56.4575,0.032876,1.23924,19.6319,919.888,4.90936,0.0,0.0
920,229.75,99.3488,119.479,123.685,97.2255,55.873,0.0328515,1.24371,19.6283,919.527,5.0037,0.0,0.0
925,231,100.015,119.375,120.074,97.222,54.8647,0.0325726,1.24604,19.6261,919.197,5.16787,0.0,0.0
930,232.25,99.6561,120.118,112.6,97.2243,58.4425,0.0322723,1.24602,19.6287,918.857,4.59745,0.0,0.0
935,233.5,100.442,119.536,121.897,97.2537,55.7458,0.0320702,1.24352,19.6338,918.526,5.0269,0.0,0.0
940,234.75,99.9925,119.394,117.86,97.2374,56.6713,0.0320228,1.23936,19.6407,918.206,4.87666,0.0,0.0
945,236,100.283,119.433,124.731,97.2303,56.4605,0.0321487,1.23356,19.6469,917.916,4.90966,0.0,0.0
950,237.25,100.139,119.377,113.686,97.2263,58.6401,0.032434,1.22884,19.6505,917.546,4.56715,0.0,0.0
955,238.5,100.043,119.496,120.646,97.2338,54.6471,0.0328512,1.22952,19.6476,917.185,5.20486,0.0,0.0
960,239.75,99.9505,119.487,118.414,97.2406,57.6917,0.0332008,1.23576,19.636,916.875,4.71577,0.0,0.0
965,241,100.45,118.988,117.55,97.2386,56.019,0.033406,1.24466,19.623,916.515,4.98134,0.0,0.0
970,242.25,100.632,119.456,121.765,97.2358,57.3062,0.0334599,1.25284,19.6099,916.184,4.77587,0.0,0.0
975,243.5,100.941,119.872,118.302,97.2406,54.9656,0.0334429,1.26412,19.5992,915.794,5.15301,0.0,0.0
980,244.75,100.836,120.005,113.497,97.2537,56.8429,0.0334442,1.27494,19.5871,915.464,4.85086,0.0,0.0
985,246,101.057,120.519,112.357,97.2584,54.5403,0.0337337,1.28161,19.5779,915.093,5.22483,0.0,0.0
990,247.25,101.752,120.558,115.912,97.2485,55.9946,0.0342569,1.29103,19.5725,914.693,4.9862,0.0,0.0
995,248.5,101.291,120.528,114.323,97.2481,54.2493,0.0351831,1.30693,19.5569,914.413,5.27218,0.0,0.0
1000,249.75,102.047,120.801,122.058,97.2505,56.7086,0.0360674,1.3203,19.5332,913.982,4.87194,0.0,0.0
1005,251,101.68,121.345,114.184,97.2481,54.2,0.0365978,1.34151,19.5142,913.662,5.2804,0.0,0.0
1010,252.25,101.689,120.915,119.978,97.2517,55.6242,0.0366282,1.35642,19.5029,913.302,5.04644,0.0,0.0
1015,253.5,102.925,122.263,118.943,97.2576,60.2495,0.0363612,1.3613,19.4977,912.911,4.3255,0.0,0.0
1020,254.75,103.331,122.699,114.672,97.2644,58.2378,0.0359607,1.35959,19.5006,912.541,4.63288,0.0,0.0
1025,256,103.534,122.454,119.156,97.2473,59.0809,0.0355715,1.35375,19.5086,912.261,4.50147,0.0,0.0
1030,257.25,103.253,122.953,120.413,97.2596,55.6321,0.0352288,1.34679,19.5149,911.82,5.04589,0.0,0.0
1035,258.5,103.358,123.173,116.112,97.2612,56.2189,0.0348525,1.34192,19.5187,911.42,4.95127,0.0,0.0
1040,259.75,102.936,122.758,121.289,97.2561,58.528,0.0344841,1.34118,19.5191,911.13,4.58721,0.0,0.0
1045,261,103.937,122.648,113.872,97.2398,61.787,0.034337,1.3449,19.5122,910.8,4.09623,0.0,0.0
1050,262.25,103.912,123.108,119.596,97.2592,57.3446,0.0346926,1.35457,19.4936,910.359,4.772,0.0,0.0
1055,263.5,103.456,123.152,117.099,97.2517,54.6803,0.0353286,1.36887,19.4751,910.019,5.20104,0.0,0.0
1060,264.75,104.706,123.737,119.203,97.2568,55.9731,0.0362876,1.38762,19.4522,909.649,4.99044,0.0,0.0
1065,266,105.206,123.865,116.041,97.2596,53.4988,0.0382828,1.40522,19.4257,909.218,5.39908,0.0,0.0
1070,267.25,105.427,124.395,118.263,97.2596,52.2764,0.0406994,1.43076,19.3897,908.788,5.60788,0.0,0.0
1075,268.5,105.344,124.957,112.347,97.2584,50.1732,0.0434381,1.46328,19.3436,908.397,5.97869,0.0,0.0
1080,269.75,106.051,125.446,112.746,97.2489,50.6365,0.046224,1.50855,19.299,907.907,5.89477,0.0,0.0
1085,271,106.274,126.038,118.494,97.2533,50.0418,0.049092,1.56055,19.2398,907.397,6.00189,0.0,0.0
1090,272.25,106.945,126.752,106.378,97.2644,50.6459,0.0520864,1.62045,19.1784,906.966,5.89453,0.0,0.0
1095,273.5,107.327,128.203,111.145,97.2644,48.729,0.0554672,1.67814,19.109,906.416,6.24305,0.0,0.0
1100,274.75,108.321,129.332,108.806,97.2398,45.1309,0.0585689,1.74383,19.0297,905.895,6.93365,0.0,0.0
1105,276,109.194,130.205,106.707,97.2521,47.3402,0.0611814,1.80658,18.9553,905.375,6.50309,0.0,0.0
1110,277.25,110.258,131.04,110.431,97.2541,46.0127,0.0634786,1.86874,18.8817,904.884,6.76018,0.0,0.0
1115,278.5,111.507,132.113,111.843,97.2517,46.7692,0.0655482,1.92367,18.8219,904.404,6.61265,0.0,0.0
1120,279.75,111.768,133.913,110.344,97.2576,47.9774,0.0675976,1.97234,18.7739,903.753,6.38283,0.0,0.0
1125,281,112.787,134.272,110.884,97.2517,45.1388,0.0695996,2.01977,18.7274,903.243,6.93317,0.0,0.0
1130,282.25,113.666,135.517,104.311,97.2533,44.5305,0.0713207,2.06264,18.6847,902.602,7.05586,0.0,0.0
1135,283.5,114.381,137.102,106.194,97.2513,46.1832,0.0724219,2.09816,18.6549,902.102,6.72651,0.0,0.0
1140,284.75,115.097,138.017,106.517,97.2572,48.6594,0.0728985,2.12325,18.6373,901.511,6.2553,0.0,0.0
1145,286,116.812,138.636,108.419,97.2493,48.7467,0.072725,2.13379,18.6292,901.011,6.23837,0.0,0.0
1150,287.25,117.155,140.618,103.624,97.2457,47.0109,0.0717667,2.13147,18.6352,900.471,6.56555,0.0,0.0
1155,288.5,117.778,140.993,107.573,97.2497,48.5845,0.0705128,2.12282,18.6527,899.98,6.26851,0.0,0.0
1160,289.75,118.68,141.436,105.859,97.2545,49.8013,0.0689113,2.11327,18.6691,899.4,6.04551,0.0,0.0
1165,291,118.603,142.992,109.161,97.2549,50.4223,0.0669903,2.09838,18.6909,898.859,5.93361,0.0,0.0
1170,292.25,119.714,142.961,110.613,97.2473,50.6606,0.0648969,2.07593,18.7204,898.449,5.89033,0.0,0.0
1175,293.5,119.594,143.594,110.57,97.2549,52.0441,0.0623435,2.04849,18.748,897.898,5.64765,0.0,0.0
1180,294.75,119.499,143.361,113.187,97.2489,53.2346,0.0598282,2.01723,18.7864,897.328,5.44281,0.0,0.0
1185,296,120.608,144.175,107.539,97.2426,55.5553,0.0565339,1.98061,18.8267,896.957,5.05678,0.0,0.0
1190,297.25,121.074,144.223,111.364,97.2335,53.9046,0.0533835,1.93955,18.8856,896.507,5.32841,0.0,0.0
1195,298.5,120.203,144.523,114.567,97.2481,57.9032,0.0501344,1.88253,18.9667,896.107,4.68341,0.0,0.0
1200,299.75,120.614,144.833,113.856,97.2422,56.7341,0.0475743,1.82565,19.0485,895.736,4.86709,0.0,0.0
1205,301,120.18,144.958,120.657,97.2362,57.9013,0.0450291,1.7598,19.1153,895.346,4.6826,0.0,0.0
1210,302.25,119.609,143.947,113.855,97.2255,57.1835,0.0426092,1.70694,19.1735,894.856,4.79428,0.0,0.0
1215,303.5,119.778,143.674,121.185,97.2414,59.5047,0.0404875,1.65154,19.2351,894.565,4.43635,0.0,0.0
1220,304.75,119.678,143.168,117.009,97.2279,59.7508,0.0386837,1.58699,19.3146,894.185,4.39781,0.0,0.0
1225,306,119.357,142.102,114.336,97.2263,60.7538,0.0371299,1.52722,19.3858,893.855,4.24729,0.0,0.0
1230,307.25,118.578,141.788,120.494,97.2212,58.7207,0.0358371,1.47589,19.4383,893.555,4.55427,0.0,0.0
1235,308.5,118.3,140.858,121.581,97.2287,61.7994,0.0343965,1.42656,19.4898,893.174,4.09338,0.0,0.0
1240,309.75,117.424,139.861,120.072,97.2267,61.7813,0.0330396,1.37924,19.5378,892.874,4.09584,0.0,0.0
1245,311,116.501,139.47,126.29,97.22,63.7878,0.0316664,1.32947,19.5966,892.564,3.80652,0.0,0.0
1250,312.25,116.063,138.308,127.032,97.2124,61.6229,0.0304033,1.28295,19.6512,892.213,4.11771,0.0,0.0
1255,313.5,115.336,136.772,125.403,97.2255,61.9443,0.029248,1.23784,19.7001,892.003,4.07193,0.0,0.0
1260,314.75,114.224,135.866,120.243,97.2204,63.201,0.0282782,1.19545,19.7464,891.683,3.89003,0.0,0.0
1265,316,113.611,134.52,122.08,97.216,61.8502,0.0274233,1.15821,19.7847,891.393,4.08478,0.0,0.0
1270,317.25,112.892,133.213,125.026,97.2113,61.8491,0.0267897,1.12638,19.8139,891.132,4.0845,0.0,0.0
1275,318.5,112.004,131.713,130.222,97.2069,61.563,0.0261376,1.09707,19.8401,890.852,4.12597,0.0,0.0
1280,319.75,111.087,131.446,123.718,97.2204,62.3738,0.0255035,1.0744,19.8681,890.552,4.00905,0.0,0.0
1285,321,110.769,129.434,127.31,97.2053,61.5284,0.0250817,1.0523,19.8886,890.282,4.1309,0.0,0.0
1290,322.25,109.907,129.155,120.907,97.2025,62.6944,0.0244649,1.03295,19.9087,889.981,3.96107,0.0,0.0
1295,323.5,108.697,127.659,122.386,97.1974,63.4829,0.0237455,1.01854,19.9261,889.721,3.84769,0.0,0.0
1300,324.75,108.422,126.427,124.828,97.1922,65.4879,0.0230017,1.0024,19.9479,889.511,3.56635,0.0,0.0
1305,326,107.913,125.24,126.946,97.2279,62.5499,0.0224417,0.982585,19.9674,889.241,3.98427,0.0,0.0
1310,327.25,106.335,123.699,129.219,97.2782,66.0389,0.0218708,0.964363,19.9924,888.91,3.49866,0.0,0.0
1315,328.5,105.652,124.075,128.829,97.3401,64.2395,0.0214549,0.945598,20.0133,888.67,3.75394,0.0,0.0
1320,329.75,105.551,122.3,127.749,97.4051,65.2839,0.0210799,0.929629,20.0348,888.47,3.61429,0.0,0.0
1325,331,104.824,121.552,125.289,97.4328,63.574,0.0206703,0.908447,20.0544,888.23,3.8566,0.0,0.0
1330,332.25,103.491,120.655,130.474,97.484,65.5846,0.0201844,0.892989,20.0768,888.01,3.58009,0.0,0.0
1335,333.5,103.351,118.954,127.862,97.5371,68.0578,0.0195673,0.873461,20.0997,887.779,3.25066,0.0,0.0
1340,334.75,102.675,118.277,129.871,97.5744,68.5828,0.0190061,0.852384,20.122,887.549,3.18469,0.0,0.0
1345,336,102.027,117.033,130.4,97.6065,68.9197,0.0182152,0.831782,20.1438,887.369,3.14341,0.0,0.0
1350,337.25,100.604,116.419,126.946,97.656,69.1625,0.0174605,0.809003,20.1745,887.229,3.11623,0.0,0.0
1355,338.5,100.719,114.753,131.46,97.6861,70.5246,0.0166043,0.785249,20.2045,887.019,2.94285,0.0,0.0
1360,339.75,99.5568,113.729,128.969,97.7258,72.4042,0.0157234,0.760474,20.2289,886.799,2.70893,0.0,0.0
1365,341,98.6902,112.884,129.997,97.7408,72.0564,0.0149214,0.736393,20.2548,886.608,2.75381,0.0,0.0
1370,342.25,97.7765,112.173,130.78,97.7658,72.8946,0.0140342,0.713173,20.2786,886.408,2.65165,0.0,0.0
1375,343.5,97.2269,110.498,132.105,97.7975,74.8296,0.0132182,0.690941,20.3024,886.228,2.41794,0.0,0.0
1380,344.75,96.7341,109.435,133.807,97.8213,75.4287,0.0125039,0.667925,20.3293,886.088,2.3481,0.0,0.0
1385,346,95.7196,108.716,129.172,97.8443,75.8966,0.0120011,0.647697,20.3537,885.908,2.29437,0.0,0.0
1390,347.25,95.4146,106.808,134.348,97.8748,75.1404,0.0114087,0.624778,20.382,885.808,2.38763,0.0,0.0
1395,348.5,94.0967,106.407,137.947,97.8776,76.0833,0.0109558,0.607801,20.4057,885.698,2.27525,0.0,0.0
1400,349.75,93.1913,104.938,132.636,97.8895,78.2026,0.0104416,0.589053,20.4256,885.507,2.02817,0.0,0.0
1405,351,92.5521,104.104,130.213,97.9137,77.9313,0.00995384,0.570497,20.4415,885.347,2.0618,0.0,0.0
1410,352.25,91.2842,102.331,139.601,97.9244,79.713,0.00943551,0.554934,20.4591,885.227,1.8586,0.0,0.0
1415,353.5,91.2273,102.179,134.636,97.9331,79.0457,0.00893274,0.538252,20.477,885.167,1.93534,0.0,0.0
1420,354.75,90.46,100.928,134.107,97.9442,80.4127,0.00845674,0.522428,20.4947,885.027,1.78149,0.0,0.0
1425,356,89.6054,99.224,134.414,97.9573,79.7477,0.00805158,0.507671,20.51,884.917,1.85771,0.0,0.0
1430,357.25,89.3886,98.7283,141.223,97.964,81.6585,0.00767847,0.493223,20.5254,884.787,1.64445,0.0,0.0
1435,358.5,87.8273,98.3592,136.267,97.9601,82.6894,0.00734229,0.479112,20.542,884.707,1.53076,0.0,0.0
1440,359.75,87.5102,97.1454,135.14,97.966,82.8102,0.00705505,0.464303,20.5596,884.617,1.51812,0.0,0.0
1445,361,87.0855,96.1366,137.458,97.9834,84.6149,0.00677995,0.448564,20.5781,884.547,1.32499,0.0,0.0
1450,362.25,86.0482,94.9913,133.338,97.9815,84.9048,0.00661196,0.433135,20.5909,884.406,1.29392,0.0,0.0
1455,363.5,85.1586,94.4627,141.152,97.9624,86.128,0.00647104,0.418338,20.6047,884.346,1.16296,0.0,0.0
1460,364.75,84.2501,92.4912,137.486,97.9755,87.3937,0.00638554,0.406559,20.6197,884.256,1.03239,0.0,0.0
1465,366,84.2399,92.222,140.372,97.9712,88.3512,0.00622074,0.392818,20.6401,884.186,0.93356,0.0,0.0
1470,367.25,83.3471,91.3534,140.099,97.9676,91.1756,0.00604265,0.374064,20.6668,884.116,0.649,0.0,0.0
1475,368.5,83.189,90.2666,140.593,97.9672,90.7679,0.00588373,0.353264,20.6938,884.086,0.689437,0.0,0.0
1480,369.75,82.0569,89.3264,145.509,97.9763,92.6788,0.00584165,0.332441,20.7127,884.016,0.502093,0.0,0.0
1485,371,81.2116,88.3237,142.548,97.9593,93.8986,0.0059222,0.311412,20.7354,883.956,0.382408,0.0,0.0
1490,372.25,80.2384,87.3635,143.925,97.9525,93.9427,0.00618591,0.294684,20.7603,883.916,0.377552,0.0,0.0
1495,373.5,79.5836,86.3948,142.561,97.9497,94.3285,0.00659627,0.273253,20.786,883.896,0.340278,0.0,0.0
1500,374.75,78.8297,85.1727,146.051,97.9557,94.3868,0.00706255,0.251833,20.8083,883.836,0.335241,0.0,0.0
1505,376,78.6025,83.9585,139.005,97.939,94.747,0.00753733,0.232588,20.8283,883.856,0.299302,0.0,0.0
1510,377.25,77.5335,82.7785,150.805,97.9165,95.0278,0.00823242,0.215631,20.8433,883.826,0.27049,0.0,0.0
1515,378.5,76.4486,82.0494,145.399,97.9085,95.3289,0.00892024,0.201003,20.858,883.826,0.241184,0.0,0.0
1520,379.75,75.7694,80.9471,139.552,97.903,96.1181,0.00956357,0.187591,20.8695,883.836,0.166194,0.0,0.0
1525,381,75.391,79.7161,143.989,97.8931,95.1433,0.0101676,0.176222,20.8773,883.796,0.257355,0.0,0.0
1530,382.25,75.2817,78.6636,140.505,97.8677,95.0135,0.0105936,0.167031,20.8848,883.756,0.26735,0.0,0.0
1535,383.5,73.3903,78.1871,144.37,97.8621,95.0334,0.0109562,0.160761,20.8906,883.776,0.264942,0.0,0.0
1540,384.75,73.2288,77.1705,141.001,97.8665,94.6322,0.0111956,0.154395,20.8952,883.756,0.30356,0.0,0.0
1545,386,72.4294,76.5221,145.012,97.8364,93.3849,0.0113062,0.149204,20.8987,883.746,0.420628,0.0,0.0
1550,387.25,71.7659,75.2984,142.883,97.8217,93.8313,0.0113478,0.145006,20.901,883.726,0.376199,0.0,0.0
1555,388.5,71.4474,74.4902,143.964,97.8011,95.3059,0.011364,0.141628,20.9034,883.676,0.233442,0.0,0.0
1560,389.75,70.447,74.289,147.731,97.7932,96.0459,0.0114108,0.138971,20.9054,883.666,0.16285,0.0,0.0
1565,391,69.9974,73.5829,146.722,97.7607,95.0695,0.0115025,0.136619,20.907,883.636,0.252137,0.0,0.0
1570,392.25,68.4334,71.3577,144.897,97.7452,94.6868,0.0116305,0.134645,20.9085,883.646,0.28715,0.0,0.0
1575,393.5,68.2903,71.1399,144.676,97.7416,94.9619,0.0117923,0.133044,20.9093,883.656,0.260612,0.0,0.0
1580,394.75,67.9488,70.6343,147.972,97.7182,95.4267,0.0119554,0.131829,20.9098,883.646,0.214344,0.0,0.0
1585,396,67.2129,69.4291,146.459,97.6937,93.9863,0.0120478,0.13083,20.9101,883.636,0.349453,0.0,0.0
1590,397.25,66.9059,69.2632,143.008,97.6786,95.0172,0.0120705,0.129933,20.9103,883.626,0.249524,0.0,0.0
1595,398.5,66.8863,68.236,144.876,97.6612,94.7556,0.0120639,0.129116,20.9106,883.616,0.272812,0.0,0.0
1600,399.75,66.5769,67.843,145.868,97.6521,94.9062,0.0120764,0.128164,20.912,883.556,0.25763,0.0,0.0
1605,401,65.3144,67.3363,143.114,97.6164,95.1109,0.0120977,0.127017,20.9138,883.566,0.234863,0.0,0.0
1610,402.25,64.9765,65.9127,145.271,97.5966,94.7809,0.0121019,0.125767,20.9159,883.546,0.264431,0.0,0.0
1615,403.5,64.7464,66.2477,145.209,97.5859,94.1124,0.0120738,0.124617,20.9176,883.536,0.32737,0.0,0.0
1620,404.75,64.5671,65.6047,146.731,97.5581,95.2257,0.0120374,0.123454,20.9185,883.516,0.218574,0.0,0.0
1625,406,64.3065,65.3398,145.667,97.524,95.6891,0.0120154,0.122364,20.9195,883.486,0.171574,0.0,0.0
1630,407.25,63.7396,64.2593,146.069,97.499,95.5419,0.0120037,0.121378,20.9213,883.466,0.183163,0.0,0.0
1635,408.5,63.3101,64.2131,146.421,97.4832,95.9107,0.0119864,0.120463,20.9234,883.466,0.146891,0.0,0.0
1640,409.75,62.7184,63.5539,146.384,97.4523,94.7564,0.0119698,0.119615,20.9248,883.456,0.253398,0.0,0.0
1645,411,62.9413,62.8635,149.673,97.4142,94.8211,0.0119515,0.118645,20.9257,883.426,0.243702,0.0,0.0
1650,412.25,61.5491,63.1162,143.013,97.3991,95.9826,0.011962,0.117889,20.9262,883.426,0.132332,0.0,0.0
1655,413.5,61.9091,62.2425,147.968,97.3587,95.0142,0.0119887,0.117189,20.9265,883.396,0.22018,0.0,0.0
1660,414.75,61.5241,62.0955,150.217,97.3532,95.0187,0.0119944,0.116651,20.9267,883.416,0.219236,0.0,0.0
1665,416,61.1173,61.6286,146.556,97.354,95.2566,0.011979,0.116116,20.9278,883.366,0.196724,0.0,0.0
1670,417.25,60.861,60.8198,143.49,97.3607,95.3857,0.011959,0.115581,20.9284,883.356,0.185116,0.0,0.0
1675,418.5,60.5955,61.3875,145.207,97.3837,94.9683,0.0119302,0.115158,20.9288,883.346,0.226864,0.0,0.0
1680,419.75,60.6348,61.0316,145.056,97.3758,94.4131,0.0118589,0.114942,20.9293,883.346,0.279085,0.0,0.0
1685,421,59.963,60.3363,148.478,97.3805,95.5174,0.011766,0.114743,20.9297,883.336,0.17449,0.0,0.0
1690,422.25,59.8622,59.9518,144.99,97.3904,95.7184,0.0117068,0.114531,20.9299,883.305,0.156422,0.0,0.0
1695,423.5,59.4846,59.3802,143.911,97.3984,95.2758,0.0117085,0.114295,20.93,883.235,0.199023,0.0,0.0
1700,424.75,59.0498,59.0939,142.425,97.3984,94.7135,0.0117414,0.114196,20.9309,883.245,0.252491,0.0,0.0
1705,426,58.7901,59.168,145.777,97.419,95.9774,0.0117444,0.114117,20.9315,883.275,0.134666,0.0,0.0
1710,427.25,58.969,58.947,149.269,97.4277,95.7098,0.0116871,0.11392,20.9319,883.235,0.160695,0.0,0.0
1715,428.5,58.61,57.9613,149.39,97.419,95.0101,0.011529,0.113773,20.9322,883.245,0.226162,0.0,0.0
1720,429.75,57.4249,57.5779,145.437,97.4249,95.9495,0.0113613,0.113712,20.9329,883.255,0.137839,0.0,0.0
1725,431,57.048,57.0847,147.769,97.4368,95.3383,0.0112491,0.113648,20.9333,883.245,0.196666,0.0,0.0
1730,432.25,57.6054,57.6393,146.359,97.4546,95.4406,0.0112303,0.113313,20.9336,883.225,0.188626,0.0,0.0
1735,433.5,57.605,57.3019,146.208,97.4439,95.4117,0.0112898,0.113091,20.9337,883.205,0.190377,0.0,0.0
1740,434.75,56.9751,56.6263,146.347,97.4479,94.6378,0.0113897,0.113099,20.9325,883.185,0.264303,0.0,0.0
1745,436,57.48,56.8899,151.958,97.465,95.0394,0.0114259,0.113151,20.9314,883.175,0.227633,0.0,0.0
1750,437.25,56.8147,56.5424,145.475,97.4725,96.4693,0.0113992,0.113129,20.9308,883.185,0.0934483,0.0,0.0
1755,438.5,56.6393,56.5878,150.244,97.4804,96.2502,0.0113583,0.113078,20.9305,883.165,0.114716,0.0,0.0
1760,439.75,55.9014,55.3243,145.241,97.4986,95.9604,0.011311,0.113073,20.9309,883.165,0.143644,0.0,0.0
1765,441,56.4029,56.2056,147.167,97.5046,95.6936,0.0112675,0.113211,20.9318,883.115,0.169349,0.0,0.0
1770,442.25,55.877,55.151,147.953,97.524,95.8272,0.0112641,0.113394,20.9316,883.125,0.158545,0.0,0.0
1775,443.5,55.8746,55.4122,146.582,97.5204,95.6943,0.0112907,0.113683,20.9312,883.085,0.170747,0.0,0.0
1780,444.75,55.9444,54.7721,145.511,97.5355,95.3458,0.0113465,0.114036,20.9311,883.065,0.2051,0.0,0.0
1785,446,56.05,54.9337,146.588,97.5767,95.8072,0.0114003,0.114197,20.931,883.085,0.165307,0.0,0.0
1790,447.25,55.5048,54.2261,147.217,97.5759,95.9653,0.0114207,0.114261,20.9309,883.105,0.150342,0.0,0.0
1795,448.5,55.5213,54.4223,145.237,97.5712,95.9115,0.0113943,0.114262,20.9309,883.075,0.154969,0.0,0.0
1800,449.75,54.8827,54.2757,147.08,97.5966,96.0959,0.0112745,0.114205,20.9307,883.075,0.139966,0.0,0.0
1805,451,55.1089,53.8034,149.888,97.6108,95.3989,0.0111361,0.114129,20.9304,883.045,0.207046,0.0,0.0
1810,452.25,54.8069,53.5705,150.577,97.6203,95.7553,0.010973,0.114106,20.9302,883.015,0.17424,0.0,0.0
1815,453.5,54.3525,53.9281,150.133,97.6354,96.2472,0.0107855,0.114092,20.9307,882.985,0.12935,0.0,0.0
1820,454.75,54.2207,53.553,146.643,97.658,96.1019,0.0106156,0.114083,20.9314,882.965,0.145084,0.0,0.0
1825,456,53.9265,53.4578,149.13,97.6802,96.5867,0.0105181,0.113837,20.9317,882.985,0.101688,0.0,0.0
1830,457.25,54.2833,53.6628,143.578,97.6901,96.1001,0.0104826,0.113541,20.9322,882.955,0.148232,0.0,0.0
1835,458.5,54.2026,53.1162,144.048,97.7127,95.6954,0.0104924,0.113336,20.9326,882.985,0.18843,0.0,0.0
1840,459.75,54.1578,53.0213,145.205,97.7242,96.0402,0.0104928,0.113135,20.9329,882.955,0.157009,0.0,0.0
1845,461,53.6519,53.1359,146.766,97.7301,96.4192,0.0104603,0.112773,20.9339,882.935,0.121982,0.0,0.0
1850,462.25,53.5573,52.7891,145.624,97.7357,96.5796,0.0103953,0.112282,20.9358,882.925,0.107487,0.0,0.0
1855,463.5,53.3165,52.7577,147.85,97.7583,96.3334,0.0103478,0.111751,20.9373,882.925,0.132626,0.0,0.0
1860,464.75,53.0817,52.7897,146.382,97.7844,95.6612,0.0103156,0.111376,20.9389,882.915,0.198293,0.0,0.0
1865,466,52.8215,51.4382,147.681,97.7844,96.2427,0.0102883,0.110952,20.9398,882.895,0.143552,0.0,0.0
1870,467.25,53.3841,51.7616,147.03,97.8059,96.0647,0.0102577,0.110564,20.9404,882.895,0.162253,0.0,0.0
1875,468.5,52.8269,51.9684,147.987,97.8213,95.8987,0.0102134,0.110315,20.9407,882.855,0.1793,0.0,0.0
1880,469.75,52.8114,50.9168,147.154,97.8399,96.1712,0.010164,0.110208,20.9409,882.835,0.15539,0.0,0.0
1885,471,52.8797,51.5578,148.281,97.853,96.3993,0.0101333,0.110145,20.9408,882.825,0.135202,0.0,0.0
1890,472.25,51.9938,51.6219,148.327,97.8808,96.9138,0.0101678,0.109937,20.9406,882.795,0.0896813,0.0,0.0
1895,473.5,52.2576,51.7368,150.377,97.8919,96.152,0.0102759,0.109652,20.9405,882.795,0.161987,0.0,0.0
1900,474.75,52.0254,51.1384,146.076,97.9077,96.4478,0.0104211,0.109368,20.9404,882.805,0.135701,0.0,0.0
1905,476,52.1513,51.1021,144.712,97.9125,95.9186,0.0105174,0.109185,20.9404,882.765,0.185836,0.0,0.0
1910,477.25,52.2521,50.9933,144.379,97.945,96.4813,0.0105742,0.108897,20.9403,882.755,0.136002,0.0,0.0
1915,478.5,51.3351,51.1019,145.357,97.9585,95.6194,0.0105985,0.108578,20.9403,882.755,0.218299,0.0,0.0
1920,479.75,51.6528,50.6505,149.459,97.9648,96.3767,0.0105899,0.108386,20.9403,882.785,0.147631,0.0,0.0
1925,481,51.7654,50.5549,147.336,97.9799,96.4343,0.0105233,0.108265,20.9396,882.745,0.143624,0.0,0.0
1930,482.25,51.1649,50.8608,146.636,97.983,95.5633,0.0104797,0.108145,20.9396,882.725,0.225865,0.0,0.0
1935,483.5,51.3894,50.0383,148.168,97.9973,96.6172,0.0104695,0.107998,20.9395,882.705,0.128114,0.0,0.0
1940,484.75,51.2986,49.782,147.311,98.0017,96.5743,0.010463,0.107807,20.9395,882.675,0.132529,0.0,0.0
1945,486,51.1389,50.1983,147.367,98.0056,96.5732,0.0104548,0.10784,20.9395,882.695,0.132999,0.0,0.0
1950,487.25,51.1245,50.2547,149.245,98.029,96.7019,0.0104483,0.107845,20.9395,882.665,0.123123,0.0,0.0
1955,488.5,50.5034,49.8003,149.201,98.0266,96.4087,0.0104375,0.107737,20.9401,882.655,0.150333,0.0,0.0
1960,489.75,50.3784,49.5426,149.65,98.0306,96.4173,0.0104186,0.107443,20.9408,882.665,0.149886,0.0,0.0
1965,491,50.6551,49.6374,149.179,98.037,96.8351,0.010395,0.107092,20.942,882.645,0.111417,0.0,0.0
1970,492.25,49.7927,49.6361,144.609,98.0556,96.6033,0.0103782,0.10675,20.9431,882.615,0.134786,0.0,0.0
1975,493.5,49.412,48.8817,145.405,98.054,96.1738,0.0103697,0.106439,20.9445,882.585,0.174883,0.0,0.0
1980,494.75,50.2911,49.5303,150.542,98.0461,96.7049,0.0103536,0.105885,20.9453,882.615,0.124412,0.0,0.0
1985,496,49.7933,49.2702,150.835,98.0671,96.6612,0.010328,0.105379,20.9457,882.625,0.130426,0.0,0.0
1990,497.25,49.5042,48.2024,150.8,98.079,96.5276,0.0102846,0.104989,20.946,882.595,0.144016,0.0,0.0
1995,498.5,50.3411,48.7837,142.938,98.0786,96.6737,0.0102509,0.104718,20.9462,882.545,0.130325,0.0,0.0
2000,499.75,49.7831,48.6243,146.569,98.0829,96.2773,,0.104616,,882.525,0.167833,0.0,0.0
2005,501,49.6674,48.6022,145.706,98.079,97.07,,0.104472,,882.585,0.0934057,0.0,0.0
2010,502.25,49.5472,48.8807,147.788,98.0917,96.4109,,,,882.555,0.156109,0.0,0.0
2015,503.5,48.848,48.4061,147.772,98.0782,96.1629,,,,882.535,0.178136,0.0,0.0
2020,504.75,49.5394,48.7028,147.459,98.0972,96.9586,,,,882.495,0.105458,0.0,0.0
2025,506,49.3441,48.5281,148.05,98.0972,96.7068,,,,882.475,0.128946,0.0,0.0
2030,507.25,49.358,48.6322,149.484,98.0992,97.0975,,,,882.535,0.0927119,0.0,0.0
2035,508.5,48.8399,48.2973,148.834,98.0944,96.391,,,,882.515,0.158234,0.0,0.0
2040,509.75,48.739,48.1446,146.613,98.0829,96.9525,,,,882.545,0.104706,0.0,0.0
2041,510,49.416,47.8237,149.099,98.0889,96.5837,,,,882.525,0.139683,0.0,0.0