File: 01_Data/PET/Cone/PET_Cone_HF25Scan_220218_R5.csv
Names,Time,Stack TC,Smoke TC,Exh Press,Smoke Comp,Smoke Meas,CO Meter,CO2 Meter,O2 Meter,Sample Mass,Ext Coeff,Start Test,Flame Verif
Chan Gain,,500,500,1,1,1,1,1,1,1,1,1.0,1.0
Offset,,0,0,0.132436,0,0,0,0,0,0,0,0.0,0.0
Gain,,1,1,25.011,15.4219,15.1528,1,1,1,1.00089,1.02113,1.0,1.0
Units,sec,C,C,Pa,%,%,%,%,%,g,/m,,
Baseline,,24.3058,25.2007,164.206,114.189,113.212,-0.00711948,0.04862,20.9935,-479.077,0.0769372,,
17,4,21.9593,23.0539,163.905,114.07,113.116,-0.00722813,0.0557602,20.9869,490.705,0.075228,0.0,0.0
34,8.25,21.7045,22.7416,161.592,114.055,112.873,-0.00715104,0.0536604,20.9895,490.755,0.0933268,0.0,0.0
51,12.5,22.5101,23.0973,164.301,114.027,113.195,-0.00708289,0.0525658,20.9908,490.725,0.0656413,0.0,0.0
68,16.75,22.7066,23.0955,161.569,113.989,112.677,-0.00717799,0.051966,20.9923,490.725,0.103761,0.0,0.0
85,21,22.7401,23.0004,167.435,113.987,112.926,-0.00731978,0.0502945,20.9941,490.725,0.0837467,0.0,0.0
102,25.25,22.6766,23.6025,164.491,113.987,113.411,-0.00752452,0.0482598,20.9985,490.705,0.0453163,0.0,0.0
119,29.5,23.1688,23.3443,163.824,113.971,113.502,-0.00739777,0.0468409,20.9997,490.735,0.0369024,0.0,0.0
136,33.75,22.737,23.6084,168.651,113.961,112.745,-0.00734572,0.0460624,20.9999,490.695,0.0960654,0.0,0.0
153,38,22.3889,23.7415,164.047,113.973,113.326,-0.00722794,0.0458451,21,490.715,0.0510026,0.0,0.0
170,42.25,22.3836,23.8859,164.114,113.97,113.214,-0.00693481,0.0460505,21.0001,490.695,0.059556,0.0,0.0
187,46.5,23.2074,24.0059,164.015,113.959,112.997,-0.00691671,0.0462113,20.999,490.705,0.0758813,0.0,0.0
204,50.75,22.9897,23.8171,167.19,113.968,113.034,-0.00725474,0.0469717,20.9984,490.715,0.0736883,0.0,0.0
221,55,23.057,23.8677,164.786,113.964,113.509,-0.00748044,0.0478401,20.9983,490.675,0.035874,0.0,0.0
238,59.25,22.7757,24.279,172.88,113.957,112.53,-0.00733203,0.047844,20.9983,490.705,0.112833,0.0,0.0
255,63.5,22.7842,23.5769,159.846,113.97,112.907,-0.00714676,0.0474672,20.9983,490.695,0.0839191,0.0,0.0
272,67.75,23.1544,23.8456,165.926,113.967,113.039,-0.00700627,0.0466598,20.9997,490.655,0.0732848,0.0,0.0
289,72,23.4858,23.6279,168.954,113.953,112.498,-0.00720881,0.0460967,21.0001,490.725,0.115039,0.0,0.0
306,76.25,23.6107,23.9615,163.83,113.96,112.486,-0.00715618,0.0458376,21.0002,490.685,0.116625,0.0,0.0
323,80.5,23.2587,24.3791,163.075,113.956,113.283,-0.00709433,0.0456693,20.9995,490.655,0.0530706,0.0,0.0
340,84.75,22.7472,24.3231,160.029,113.95,113.296,-0.00692453,0.0456942,20.9993,490.705,0.0515663,0.0,0.0
357,89,23.5962,24.3823,160.257,113.954,112.437,-0.00712293,0.0457826,21,490.655,0.119975,0.0,0.0
374,93.25,23.0357,24.4298,165.117,113.958,113.577,-0.00731566,0.0460146,21.0025,490.645,0.0299578,0.0,0.0
391,97.5,22.9588,24.5388,164.194,113.947,113.198,-0.00749425,0.0462241,21.0029,490.735,0.0590606,0.0,0.0
408,101.75,23.3015,24.2284,163.138,113.957,113.596,-0.00760965,0.0464267,21.0029,490.685,0.0284242,0.0,0.0
425,106,23.3324,23.9145,162.122,113.979,112.79,-0.00765196,0.0468483,21.0014,490.685,0.093909,0.0,0.0
442,110.25,23.3867,24.2286,167.729,113.969,113.064,-0.00734949,0.047392,21.0007,490.705,0.0714164,0.0,0.0
459,114.5,23.3517,24.4025,161.682,113.957,113.223,-0.00721216,0.0482494,20.9993,490.635,0.057899,0.0,0.0
476,118.75,23.6141,24.2219,164.272,113.967,113.182,-0.00716604,0.0481242,20.9982,490.635,0.0618595,0.0,0.0
493,123,23.7756,24.7565,163.331,113.981,112.996,-0.00725403,0.0478687,20.9982,490.675,0.0777298,0.0,0.0
510,127.25,24.03,24.6436,164.41,113.979,112.855,-0.00716237,0.0476444,20.9985,490.615,0.088695,0.0,0.0
527,131.5,23.7726,24.6779,163.032,113.994,112.836,-0.00725449,0.0473784,20.9997,490.665,0.0914572,0.0,0.0
544,135.75,23.5748,24.3425,164.16,114.012,113.573,-0.00737172,0.0471488,20.9998,490.665,0.0345754,0.0,0.0
561,140,23.1863,25.1045,167.732,113.994,113.262,-0.0073082,0.047208,20.9996,490.615,0.057638,0.0,0.0
578,144.25,23.8762,24.6847,164.206,114.01,113.238,-0.00740096,0.0470517,21.0016,490.675,0.060834,0.0,0.0
595,148.5,23.4842,25.207,165.213,114.027,113.202,-0.00766197,0.0467276,21,490.605,0.0650922,0.0,0.0
612,152.75,24.0462,25.1537,165.265,114.044,113.2,-0.00762679,0.0463613,20.9997,490.635,0.0665698,0.0,0.0
629,157,23.9446,25.1096,165.997,114.058,113.463,-0.00751122,0.0462325,21.0011,490.645,0.046846,0.0,0.0
646,161.25,23.7803,25.2082,161.5,114.049,113.325,-0.00736611,0.0461949,21.0003,490.615,0.057029,0.0,0.0
663,165.5,23.843,24.6123,160.887,114.067,112.983,-0.00737905,0.0462576,21.0008,490.675,0.0854846,0.0,0.0
680,169.75,24.0254,25.0271,160.267,114.056,113.177,-0.00729052,0.0464421,21.0005,490.625,0.0692869,0.0,0.0
697,174,24.2852,25.107,160.1,114.064,112.801,-0.00725731,0.0462207,21.0002,490.625,0.0996817,0.0,0.0
714,178.25,23.9171,25.2,167.581,114.055,113.391,-0.00728103,0.0464668,20.9999,490.645,0.0522468,0.0,0.0
731,182.5,24.0622,25.1032,163.335,114.078,113.585,-0.00731532,0.0466126,21.0007,490.584,0.0388014,0.0,0.0
748,186.75,23.4587,25.3039,162.022,114.11,112.947,-0.00751129,0.0466886,21.0005,490.655,0.0918176,0.0,0.0
765,191,24.312,25.4313,162.341,114.132,113.273,-0.00760982,0.0464788,21.0004,490.574,0.0676625,0.0,0.0
782,195.25,24.0846,25.3309,160.464,114.163,112.498,-0.00734578,0.0462166,21.0007,490.625,0.131561,0.0,0.0
799,199.5,24.1609,25.1021,165.353,114.177,113.315,-0.00708532,0.0459075,21.0024,490.605,0.0678819,0.0,0.0
816,203.75,24.3728,25.4119,164.66,114.189,113.357,-0.00720306,0.0457116,21.0028,490.595,0.0655523,0.0,0.0
833,208,24.0213,25.1542,160.312,114.212,113.225,-0.00744945,0.0455277,21.0035,490.645,0.0776705,0.0,0.0
850,212.25,24.2521,25.074,165.282,114.22,112.994,-0.00767321,0.0453026,21.0036,490.584,0.0967182,0.0,0.0
867,216.5,24.0449,25.3397,162.934,114.256,112.968,-0.00765611,0.0455362,21.0036,490.635,0.101539,0.0,0.0
884,220.75,24.2906,25.2755,164.317,114.283,113.023,-0.00770068,0.0458225,21.0015,490.635,0.0992424,0.0,0.0
901,225,24.3431,25.1966,166.578,114.282,113.681,-0.00736325,0.0462128,20.9998,490.584,0.0472072,0.0,0.0
918,229.25,24.2192,25.5363,168.122,114.328,113.329,-0.00728192,0.0462096,21.0005,490.635,0.0785554,0.0,0.0
935,233.5,24.1562,25.2499,164.244,114.341,113.21,-0.00732688,0.0463131,21.0001,490.574,0.0890587,0.0,0.0
952,237.75,23.5212,25.336,161.281,114.335,113.021,-0.00724613,0.0464114,20.9983,490.595,0.103556,0.0,0.0
969,242,24.4707,25.2592,164.709,114.34,112.813,-0.00745441,0.0463808,20.9993,490.584,0.12047,0.0,0.0
986,246.25,24.0907,25.3504,162.593,114.366,113.261,-0.00753815,0.0466129,20.9982,490.554,0.0869884,0.0,0.0
1003,250.5,23.9418,26.3986,164.243,114.363,112.449,-0.00766162,0.0466453,20.9986,490.595,0.151145,0.0,0.0
1020,254.75,24.3915,25.5892,162.335,114.38,112.669,-0.0076465,0.0469251,20.9994,490.544,0.135065,0.0,0.0
1037,259,24.3978,25.4958,168.057,114.412,113.346,-0.00735485,0.047221,20.9993,490.605,0.0839107,0.0,0.0
1054,263.25,24.4948,25.9519,160.453,114.444,112.911,-0.00717201,0.0473201,20.9993,490.544,0.120796,0.0,0.0
1071,267.5,24.7751,25.1195,164.588,114.46,113.003,-0.00731124,0.0476629,20.9993,490.574,0.114825,0.0,0.0
1088,271.75,24.1158,25.3392,163.546,114.474,112.996,-0.00741489,0.0476921,20.9985,490.584,0.116406,0.0,0.0
1105,276,24.5114,25.7844,165.147,114.499,112.892,-0.00749397,0.0478397,20.9963,490.524,0.126609,0.0,0.0
1122,280.25,24.6875,25.592,167.246,114.479,113.084,-0.00751312,0.0479919,20.9977,490.584,0.109812,0.0,0.0
1139,284.5,24.5242,25.5044,161.534,114.5,113.233,-0.00745344,0.0476904,20.9979,490.504,0.0996828,0.0,0.0
1156,288.75,24.5093,25.8593,164.562,114.512,112.937,-0.00729435,0.0475769,20.9979,490.554,0.124045,0.0,0.0
1173,293,24.7571,25.8156,162.082,114.515,112.769,-0.00717691,0.0473692,20.9979,490.494,0.137662,0.0,0.0
1190,297.25,24.6011,25.6507,167.766,114.532,113.138,-0.00718382,0.0472473,20.9981,490.524,0.109688,0.0,0.0
1207,301.5,24.8314,25.6996,161.859,114.556,112.622,-0.00717218,0.0477338,20.9974,490.524,0.152516,0.0,0.0
1224,305.75,24.5127,25.7827,166.894,114.559,112.233,-0.00709778,0.0479324,20.997,490.484,0.183795,0.0,0.0
1241,310,24.2474,25.3543,166.912,114.544,112.573,-0.00688283,0.0477169,20.9982,490.524,0.155458,0.0,0.0
1258,314.25,24.7261,25.3588,163.517,114.565,112.406,-0.00712272,0.0475088,20.9991,490.444,0.170371,0.0,0.0
1275,318.5,24.6683,25.79,163.027,114.548,112.451,-0.00724442,0.047569,21.0001,490.514,0.165546,0.0,0.0
1292,322.75,24.7112,25.9233,162.346,114.54,112.288,-0.00715045,0.0478917,21.0001,490.494,0.177933,0.0,0.0
1309,327,24.9922,25.7048,166.211,114.568,112.492,-0.00716214,0.0479127,20.9991,490.454,0.16385,0.0,0.0
1326,331.25,25.0983,25.5829,166.29,114.575,112.53,-0.00717268,0.0479587,21.0006,490.494,0.161273,0.0,0.0
1343,335.5,24.7896,26.1166,167.538,114.596,112.273,-0.00703471,0.0479967,21.0009,490.414,0.183455,0.0,0.0
1360,339.75,24.177,26.3377,162.091,114.621,111.564,-0.00701774,0.0481458,21.0009,490.464,0.24214,0.0,0.0
1377,344,24.7194,26.2773,161.614,114.689,111.816,-0.00696012,0.047864,21.0001,490.394,0.227223,0.0,0.0
1394,348.25,24.8418,26.463,165.682,114.732,112.044,-0.00703615,0.0480186,20.9994,490.414,0.21236,0.0,0.0
1411,352.5,25.5197,26.4055,164.098,114.773,112.118,-0.00720304,0.0480535,20.9993,490.404,0.209607,0.0,0.0
1428,356.75,24.7717,26.0445,160.83,114.821,113.114,-0.00701001,0.0481495,20.9993,490.384,0.134163,0.0,0.0
1445,361,24.8646,26.6306,169.979,114.842,112.486,-0.00690475,0.0482674,20.9993,490.424,0.185609,0.0,0.0
1462,365.25,24.9827,26.4046,165.522,114.925,112.639,-0.00685033,0.0483577,20.9993,490.374,0.179959,0.0,0.0
1479,369.5,24.7983,26.163,161.759,114.974,112.218,-0.00680257,0.0482223,20.9995,490.424,0.2173,0.0,0.0
1496,373.75,24.5979,25.9281,167.485,115.026,112.658,-0.00681237,0.0481695,20.9996,490.354,0.186335,0.0,0.0
1513,378,24.7939,26.2492,159.998,115.068,112.618,-0.00703455,0.0481601,20.9996,490.364,0.192796,0.0,0.0
1530,382.25,25.0827,26.0321,163.712,115.139,113.062,-0.00678322,0.0483001,20.9996,490.384,0.163087,0.0,0.0
1547,386.5,24.7603,26.1718,161.538,115.197,112.487,-0.00706961,0.0482335,20.9996,490.294,0.21328,0.0,0.0
1564,390.75,24.7503,26.266,163.522,115.245,112.469,-0.00722111,0.0483283,21.0001,490.344,0.218448,0.0,0.0
1581,395,25.0968,26.09,164.601,115.284,112.779,-0.00698158,0.0484793,21.0008,490.284,0.196806,0.0,0.0
1598,399.25,25.0722,26.0202,161.051,115.35,111.912,-0.00709378,0.0487091,21.0009,490.274,0.271091,0.0,0.0
1615,403.5,25.0322,26.0692,161.112,115.364,112.322,-0.00698794,0.0485691,21.0009,490.284,0.239381,0.0,0.0
1632,407.75,25.0371,26.5719,165.074,115.427,111.298,-0.0066724,0.0485743,21.0009,490.234,0.326296,0.0,0.0
1649,412,24.8239,25.556,163.071,115.453,112.593,-0.00649122,0.0488128,21.0023,490.264,0.224701,0.0,0.0
1666,416.25,24.9267,26.3617,167.107,115.472,112.531,-0.00658134,0.048766,21.0003,490.234,0.231055,0.0,0.0
1683,420.5,25.3463,25.7357,164.732,115.503,112.498,-0.00662206,0.0488831,20.9994,490.194,0.236151,0.0,0.0
1700,424.75,25.3363,26.7456,162.489,115.542,111.17,-0.00638928,0.0485772,20.9992,490.194,0.345444,0.0,0.0
1717,429,25.3314,26.9789,160.167,115.576,111.873,-0.00650264,0.0484739,20.9987,490.144,0.291652,0.0,0.0
1734,433.25,25.0501,26.3331,165.365,115.583,112.504,-0.00665685,0.0484793,20.9995,490.184,0.241838,0.0,0.0
1751,437.5,25.4848,26.5244,167.26,115.616,112.627,-0.00639226,0.048274,21.0006,490.094,0.23464,0.0,0.0
1768,441.75,25.3957,26.4821,162.638,115.632,112.438,-0.00646699,0.0484119,20.9998,490.094,0.250861,0.0,0.0
1785,446,24.5801,26.7294,164.12,115.627,112.393,-0.00618795,0.0489745,20.9988,490.114,0.254107,0.0,0.0
1802,450.25,25.1757,27.0044,164.672,115.645,111.114,-0.00624952,0.049061,20.9986,490.024,0.358014,0.0,0.0
1819,454.5,25.3742,26.687,162.873,115.647,112.143,-0.00625157,0.0491195,20.997,490.044,0.275598,0.0,0.0
1836,458.75,25.2006,26.8046,162.586,115.646,110.997,-0.00627701,0.0491663,20.9976,489.984,0.367559,0.0,0.0
1853,463,25.3324,27.1217,163.965,115.653,111.731,-0.00639235,0.0498684,20.9967,489.944,0.309042,0.0,0.0
1870,467.25,25.8657,26.8884,160.925,115.681,112.045,-0.00637865,0.0519942,20.9946,489.964,0.286092,0.0,0.0
1887,471.5,25.6377,26.8627,160.145,115.67,112.182,-0.0064565,0.0531831,20.9933,489.854,0.274281,0.0,0.0
1904,475.75,25.6563,26.6535,161.164,115.674,111.289,-0.00601058,0.0577359,20.9868,489.894,0.34612,0.0,0.0
1921,480,25.3809,26.6951,161.82,115.673,111.589,-0.00578778,0.060269,20.9872,489.804,0.321961,0.0,0.0
1938,484.25,26.2432,26.9927,163.065,115.696,113.053,-0.00591548,0.0590962,20.9907,489.844,0.206991,0.0,0.0
1955,488.5,25.7392,26.7726,163.198,115.68,111.543,-0.00610446,0.0558787,20.9937,489.744,0.326221,0.0,0.0
1972,492.75,25.6719,26.6812,163.827,115.702,111.596,-0.0059039,0.0527326,20.9954,489.764,0.323664,0.0,0.0
1989,497,25.3982,27.2416,164.121,115.707,111.046,-0.00598885,0.0515605,20.9967,489.694,0.368306,0.0,0.0
2006,501.25,26.0201,26.8572,163.796,115.698,111.447,-0.00604603,0.0510799,20.9979,489.694,0.335295,0.0,0.0
2023,505.5,25.863,26.5238,163.975,115.726,110.908,-0.00598094,0.0511629,20.9975,489.694,0.380849,0.0,0.0
2040,509.75,25.3367,26.5209,160.241,115.729,112.207,-0.00625768,0.0532415,20.9949,489.604,0.276879,0.0,0.0
2057,514,25.1808,27.255,160.324,115.718,111.216,-0.00638541,0.0515491,20.9972,489.624,0.355428,0.0,0.0
2074,518.25,25.8752,27.1752,164.923,115.736,111.339,-0.00597572,0.050169,20.9987,489.524,0.346911,0.0,0.0
2091,522.5,25.7495,26.7904,163.155,115.742,111.557,-0.00563577,0.0494795,20.9989,489.534,0.329914,0.0,0.0
2108,526.75,25.684,27.2225,161.518,115.744,110.91,-0.00554478,0.0497011,20.999,489.474,0.382156,0.0,0.0
2125,531,26.1143,26.7161,164.899,115.759,112.193,-0.005568,0.050051,20.9982,489.443,0.280281,0.0,0.0
2142,535.25,25.8527,26.9945,164.78,115.789,111.983,-0.00564984,0.0502059,20.998,489.433,0.299389,0.0,0.0
2159,539.5,25.8493,27.1056,162.136,115.796,110.715,-0.00588753,0.0502147,20.998,489.343,0.401862,0.0,0.0
2176,543.75,25.4271,26.7125,166.065,115.792,111.445,-0.00582241,0.0505452,20.9961,489.373,0.342766,0.0,0.0
2193,548,25.4791,27.1218,163.849,115.806,111.008,-0.00594387,0.0505771,20.9957,489.293,0.379086,0.0,0.0
2210,552.25,26.0536,26.9284,161.769,115.812,110.231,-0.00583992,0.0504788,20.9962,489.283,0.442393,0.0,0.0
2227,556.5,25.4831,27.4408,163.996,115.81,110.77,-0.00547947,0.0504515,20.9966,489.223,0.39854,0.0,0.0
2244,560.75,25.6527,26.6376,160.196,115.808,111.139,-0.0055134,0.0504278,20.9966,489.173,0.368567,0.0,0.0
2261,565,25.4906,27.3639,163.225,115.819,111.667,-0.00571483,0.0507041,20.9966,489.183,0.327054,0.0,0.0
2278,569.25,25.8986,26.9574,163.126,115.798,111.478,-0.00586385,0.0517265,20.9954,489.083,0.340527,0.0,0.0
2295,573.5,26.0471,26.8751,162.54,115.806,111.126,-0.0056348,0.0523668,20.9946,489.083,0.369539,0.0,0.0
2312,577.75,25.6787,27.0678,159.339,115.81,111.437,-0.00581918,0.051939,20.9943,489.073,0.34478,0.0,0.0
2329,582,25.46,27.1931,162.76,115.796,112.055,-0.00596717,0.0541768,20.9929,488.983,0.294167,0.0,0.0
2346,586.25,25.7341,26.9031,159.595,115.776,110.745,-0.0060433,0.052203,20.9942,489.023,0.398013,0.0,0.0
2363,590.5,25.263,27.5888,167.482,115.791,111.04,-0.005897,0.0514904,20.9948,488.933,0.375236,0.0,0.0
2380,594.75,25.7553,27.2151,163.245,115.763,110.713,-0.00570667,0.0520778,20.9949,488.893,0.399574,0.0,0.0
2397,599,25.8796,27.1224,163.019,115.74,110.554,-0.00546585,0.0517942,20.9966,488.903,0.410593,0.0,0.0
2414,603.25,25.9728,27.1597,161.918,115.736,111.365,-0.00557349,0.0509862,20.9977,488.833,0.344827,0.0,0.0
2431,607.5,26.1274,27.4814,164.136,115.713,110.942,-0.00559552,0.0504297,20.9992,488.853,0.377101,0.0,0.0
2448,611.75,25.9011,27.2538,162.524,115.682,111.516,-0.00570918,0.050359,20.9998,488.713,0.328556,0.0,0.0
2465,616,25.9204,26.8103,164.214,115.656,111.113,-0.0055555,0.0502503,20.9983,488.723,0.358963,0.0,0.0
2482,620.25,26.0501,27.368,159.673,115.643,110.526,-0.0052869,0.0501357,20.9978,488.673,0.405374,0.0,0.0
2499,624.5,26.2671,27.2155,166.429,115.607,111.172,-0.00529331,0.0502489,20.9985,488.643,0.350438,0.0,0.0
2516,628.75,25.9703,27.1044,163.134,115.602,111.504,-0.00560158,0.0502374,20.9985,488.613,0.323289,0.0,0.0
2533,633,25.9646,27.2631,164.851,115.57,111.197,-0.00556575,0.0503124,20.9975,488.543,0.345508,0.0,0.0
2550,637.25,26.255,27.3165,164.65,115.532,110.882,-0.00556303,0.0502721,20.9972,488.573,0.367993,0.0,0.0
2567,641.5,26.2315,26.9524,162.806,115.529,111.681,-0.00562585,0.0503071,20.9965,488.473,0.303418,0.0,0.0
2584,645.75,26.2566,27.3768,162.454,115.519,110.697,-0.00566703,0.0504314,20.9981,488.483,0.381925,0.0,0.0
2601,650,25.8795,26.9546,161.357,115.484,111.788,-0.0054235,0.050499,20.9985,488.403,0.291315,0.0,0.0
2618,654.25,25.6537,27.1163,166.108,115.44,111.152,-0.00557226,0.0504052,20.9986,488.373,0.33905,0.0,0.0
2635,658.5,25.7403,27.0206,163.837,115.437,110.524,-0.00548721,0.0507865,20.9986,488.353,0.389542,0.0,0.0
2652,662.75,25.8857,27.8639,165.663,115.49,112.224,-0.0054114,0.0506321,20.9986,488.262,0.256952,0.0,0.0
2669,667,26.4551,27.2271,162.41,115.584,111.016,-0.00541116,0.0501308,20.9982,488.282,0.36118,0.0,0.0
2686,671.25,26.1352,27.2254,163.318,115.687,111.242,-0.00547942,0.0498365,20.9974,488.162,0.350936,0.0,0.0
2703,675.5,26.3563,27.5745,160.09,115.77,111.028,-0.00547362,0.0500332,20.9973,488.182,0.374678,0.0,0.0
2720,679.75,26.0473,27.2145,163.541,115.836,110.876,-0.00498545,0.0502647,20.9982,488.092,0.391946,0.0,0.0
2737,684,25.9695,27.5843,161.111,115.899,111.052,-0.00512823,0.0502246,20.9982,488.072,0.3826,0.0,0.0
2754,688.25,26.2174,27.3196,163.06,115.949,111.382,-0.00527715,0.0500366,20.9982,488.012,0.3599,0.0,0.0
2771,692.5,25.8562,27.9337,160.335,116.01,110.86,-0.00532027,0.0504359,20.9997,487.962,0.406782,0.0,0.0
2788,696.75,26.313,27.4212,163.09,116.053,110.719,-0.0053495,0.0506251,20.9988,487.972,0.421418,0.0,0.0
2805,701,26.3834,26.8388,162.456,116.124,111.599,-0.00550985,0.0508578,20.9979,487.882,0.356064,0.0,0.0
2822,705.25,26.427,27.5305,160.006,116.175,111.615,-0.00523073,0.0510294,20.9984,487.902,0.358684,0.0,0.0
2839,709.5,26.502,27.5045,161.879,116.198,109.723,-0.00534817,0.0511154,20.9994,487.802,0.513621,0.0,0.0
2856,713.75,26.3939,27.3407,162.121,116.249,111.162,-0.00534102,0.0509591,20.9997,487.812,0.400821,0.0,0.0
2873,718,26.7036,27.409,162.166,116.288,111.035,-0.00533752,0.0507839,20.9988,487.712,0.414083,0.0,0.0
2890,722.25,25.6707,27.5899,158.525,116.287,111.487,-0.00526434,0.0509563,20.9986,487.712,0.377639,0.0,0.0
2907,726.5,26.6719,27.3021,164.957,116.297,111.818,-0.00523107,0.0510648,20.9977,487.662,0.351801,0.0,0.0
2924,730.75,26.6814,27.3717,159.906,116.323,111.417,-0.00521559,0.0517295,20.9965,487.612,0.386005,0.0,0.0
2941,735,26.3147,28.1655,165.56,116.316,111.555,-0.00520659,0.0512487,20.9968,487.602,0.37439,0.0,0.0
2958,739.25,26.1781,27.8544,163.424,116.331,111.328,-0.00486455,0.0508865,20.9965,487.502,0.393762,0.0,0.0
2975,743.5,26.3912,27.6485,162.966,116.323,111.472,-0.00475008,0.0505819,20.998,487.502,0.381546,0.0,0.0
2992,747.75,26.2835,27.9686,162.954,116.319,111.406,-0.00503801,0.0507579,20.9973,487.412,0.386608,0.0,0.0
3009,752,26.3738,27.7456,165.142,116.302,111.169,-0.00501879,0.0507105,20.9965,487.412,0.404287,0.0,0.0
3026,756.25,26.7347,27.4447,162.391,116.301,111.521,-0.00480808,0.0507102,20.9978,487.332,0.375867,0.0,0.0
3043,760.5,25.5665,27.7148,163.76,116.285,111.287,-0.00474857,0.0507215,20.9982,487.322,0.393448,0.0,0.0
3060,764.75,26.0243,27.3841,163.295,116.246,111.274,-0.00511735,0.0507732,20.9971,487.232,0.391518,0.0,0.0
3077,769,26.5185,28.0016,162.329,116.243,111.065,-0.0048883,0.0509894,20.9981,487.181,0.408179,0.0,0.0
3094,773.25,26.5985,28.0212,165.552,116.215,111.543,-0.00479737,0.0509282,20.9976,487.171,0.367559,0.0,0.0
3111,777.5,26.5012,28.2945,162.037,116.177,110.635,-0.00508876,0.0510849,20.9967,487.091,0.437812,0.0,0.0
3128,781.75,26.3098,27.6439,163.83,116.124,111.702,-0.00518625,0.0510735,20.9964,487.051,0.347754,0.0,0.0
3145,786,26.3894,27.6526,160.603,116.095,111.198,-0.00502298,0.0515559,20.9963,487.001,0.38605,0.0,0.0
3162,790.25,26.193,27.9957,160.737,116.052,110.126,-0.00510305,0.05452,20.9934,487.011,0.469509,0.0,0.0
3179,794.5,26.3547,27.9147,165.766,116.005,110.762,-0.00513262,0.0605181,20.9872,486.901,0.41427,0.0,0.0
3196,798.75,26.5541,27.8394,161.195,115.935,110.642,-0.00501971,0.0597337,20.9883,486.911,0.418544,0.0,0.0
3213,803,26.6137,27.812,163.668,115.908,110.588,-0.00500669,0.0562861,20.9909,486.821,0.420854,0.0,0.0
3230,807.25,26.6771,27.7759,163.496,115.855,110.198,-0.00510905,0.0538125,20.9944,486.811,0.448373,0.0,0.0
3247,811.5,26.4727,28.1094,163.081,115.839,111.313,-0.00527397,0.0521405,20.996,486.731,0.356967,0.0,0.0
3264,815.75,26.7053,27.9321,165.704,115.774,110.857,-0.00516937,0.0512742,20.9962,486.741,0.388709,0.0,0.0
3281,820,26.4548,27.9032,161.786,115.696,110.74,-0.00522495,0.0509444,20.9976,486.671,0.392157,0.0,0.0
3298,824.25,26.8502,27.9352,163.727,115.644,109.217,-0.00506047,0.0505045,20.9992,486.641,0.512212,0.0,0.0
3315,828.5,26.874,27.6155,165.215,115.59,110.921,-0.00504197,0.0503057,20.9994,486.571,0.36938,0.0,0.0
3332,832.75,26.6345,27.6866,159.98,115.586,110.617,-0.00502754,0.0504463,20.9988,486.501,0.393583,0.0,0.0
3349,837,26.8886,27.9088,162.428,115.611,111.255,-0.00495356,0.0509744,20.9967,486.501,0.34399,0.0,0.0
3366,841.25,26.569,28.2011,161.823,115.655,110.536,-0.00470924,0.055598,20.9925,486.411,0.405534,0.0,0.0
3383,845.5,26.3619,28.0154,162.034,115.658,109.612,-0.00454002,0.0529891,20.9947,486.391,0.480976,0.0,0.0
3400,849.75,26.8085,27.8513,161.386,115.699,110.13,-0.00460918,0.0523125,20.9947,486.291,0.441847,0.0,0.0
3417,854,26.6516,28.4521,164.096,115.731,110.198,-0.00492303,0.0577972,20.9919,486.301,0.438797,0.0,0.0
3434,858.25,26.9664,27.7003,162.723,115.771,110.468,-0.00498988,0.053776,20.9926,486.181,0.419933,0.0,0.0
3451,862.5,26.3784,27.9259,163.425,115.809,110.038,-0.00524813,0.0521999,20.9951,486.191,0.457857,0.0,0.0
3468,866.75,26.3807,27.9855,162.605,115.854,109.615,-0.00491132,0.0515016,20.9972,486.101,0.495898,0.0,0.0
3485,871,27.1091,27.8701,165.063,115.903,110.661,-0.00472895,0.0511397,20.9976,486.101,0.4145,0.0,0.0
3502,875.25,27.3962,27.922,154.507,115.936,109.517,-0.00486054,0.0538595,20.9949,486.03,0.510167,0.0,0.0
3519,879.5,27.3243,28.1092,162.187,115.978,110.02,-0.00488433,0.0546247,20.9959,485.96,0.472385,0.0,0.0
3536,883.75,26.9616,28.0405,166.016,116.024,111.033,-0.00488907,0.0521709,20.9959,485.93,0.393873,0.0,0.0
3553,888,26.5702,28.1871,165.038,116.018,110.252,-0.00507595,0.0550338,20.995,485.84,0.456593,0.0,0.0
3570,892.25,26.503,28.1998,161.437,116.061,110.62,-0.00479954,0.0513062,20.9993,485.85,0.430083,0.0,0.0
3587,896.5,26.8732,28.0169,162.663,116.09,110.345,-0.00462884,0.0498863,21.0008,485.73,0.454566,0.0,0.0
3604,900.75,26.7814,27.9343,159.803,116.123,109.625,-0.00483565,0.0543752,20.9979,485.73,0.515857,0.0,0.0
3621,905,26.9826,27.5024,161.265,116.15,110.213,-0.00460084,0.0508597,21.0009,485.64,0.469955,0.0,0.0
3638,909.25,26.5615,27.6315,165.059,116.174,110.511,-0.0042062,0.0497214,21.0007,485.63,0.447561,0.0,0.0
3655,913.5,26.8028,28.3186,162.402,116.2,111.2,-0.00404134,0.0516946,20.9984,485.54,0.394031,0.0,0.0
3672,917.75,26.8392,27.8911,160.446,116.207,110.64,-0.00409794,0.0517835,20.9986,485.49,0.439687,0.0,0.0
3689,922,26.9665,28.2366,159.235,116.232,110.252,-0.00440568,0.0508689,20.9993,485.43,0.473111,0.0,0.0
3706,926.25,27.1028,27.5865,162.518,116.252,109.43,-0.00458102,0.0504432,20.9975,485.36,0.541684,0.0,0.0
3723,930.5,26.9272,27.7831,162.389,116.256,110.775,-0.00454786,0.0504672,20.999,485.33,0.432572,0.0,0.0
3740,934.75,26.9178,28.3536,163.117,116.3,110.399,-0.00452859,0.0505532,20.9978,485.25,0.466468,0.0,0.0
3757,939,26.8399,27.8993,160.61,116.3,110.638,-0.00441921,0.0504729,20.9972,485.22,0.447091,0.0,0.0
3774,943.25,26.7892,28.2056,159.457,116.309,110.008,-0.00441623,0.0504802,20.9971,485.15,0.498842,0.0,0.0
3791,947.5,26.84,28.3588,163.036,116.332,110.62,-0.00420582,0.0504233,20.999,485.12,0.451016,0.0,0.0
3808,951.75,27.2907,27.9687,160.612,116.351,111.05,-0.00409641,0.0502763,21.0001,485.07,0.417709,0.0,0.0
3825,956,26.8316,28.555,160.472,116.349,110.421,-0.00400823,0.050151,21,485.04,0.468436,0.0,0.0
3842,960.25,26.3867,27.9809,157.995,116.357,110.51,-0.00405915,0.0509136,20.998,484.929,0.461816,0.0,0.0
3859,964.5,26.5513,28.0941,159.411,116.377,110.853,-0.00409708,0.0519343,20.9953,484.929,0.435605,0.0,0.0
3876,968.75,26.8151,28.085,159.486,116.382,111.067,-0.00427932,0.0516219,20.9965,484.839,0.418721,0.0,0.0
3893,973,26.9677,28.1968,165.204,116.374,111.415,-0.0042077,0.0511069,20.9972,484.819,0.390068,0.0,0.0
3910,977.25,26.8734,28.63,162.58,116.39,110.451,-0.0042787,0.0511313,20.9979,484.749,0.469149,0.0,0.0
3927,981.5,26.8456,28.1234,164.252,116.417,110.886,-0.00462174,0.0510204,20.9992,484.719,0.436032,0.0,0.0
3944,985.75,26.9947,27.9441,162.742,116.405,111.706,-0.00467026,0.0507808,21.0002,484.639,0.369067,0.0,0.0
3961,990,26.6954,27.883,163.801,116.407,110.453,-0.00431906,0.05072,20.9983,484.619,0.470229,0.0,0.0
3978,994.25,27.1666,28.0284,160.751,116.41,111.376,-0.00443239,0.0507372,20.9956,484.529,0.395943,0.0,0.0
3995,998.5,26.8947,28.5729,164.52,116.402,111.849,-0.00456774,0.0502377,20.9966,484.519,0.357435,0.0,0.0
4012,1002.75,27.2102,28.3506,164.49,116.403,110.827,-0.00485345,0.0501818,20.9972,484.409,0.439727,0.0,0.0
4029,1007,26.3289,28.1009,160.667,116.41,110.549,-0.00463177,0.0509696,20.9955,484.419,0.462725,0.0,0.0
4046,1011.25,26.2934,28.1032,164.233,116.404,111.343,-0.00445137,0.0523816,20.9926,484.279,0.398113,0.0,0.0
4063,1015.5,26.9292,28.4177,159.738,116.419,111.678,-0.00456645,0.0572973,20.9914,484.299,0.372452,0.0,0.0
4080,1019.75,27.0219,28.313,162.353,116.417,110.329,-0.00457537,0.0531031,20.995,484.199,0.481118,0.0,0.0
4097,1024,27.3491,27.7951,164.096,116.434,110.191,-0.00466137,0.0519033,20.9952,484.179,0.49358,0.0,0.0
4114,1028.25,27.087,28.6686,166.168,116.439,111.145,-0.00474557,0.0561847,20.9927,484.099,0.416766,0.0,0.0
4131,1032.5,26.6754,28.6009,162.476,116.456,111.162,-0.00444313,0.0526877,20.9958,484.059,0.416763,0.0,0.0
4148,1036.75,27.0312,28.0359,164.478,116.456,110.315,-0.00429367,0.0510116,20.9978,483.989,0.485251,0.0,0.0
4165,1041,27.5983,28.0352,166.108,116.448,111.649,-0.00417288,0.050749,20.9982,483.979,0.37696,0.0,0.0
4182,1045.25,27.1822,28.7094,162.131,116.458,110.657,-0.00416859,0.050934,20.9964,483.879,0.457691,0.0,0.0
4199,1049.5,27.3481,28.8647,158.494,116.465,110.845,-0.00424434,0.0509046,20.998,483.828,0.443012,0.0,0.0
4216,1053.75,27.1066,27.9429,161.383,116.456,110.832,-0.00426848,0.0509666,20.9982,483.758,0.443297,0.0,0.0
4233,1058,26.6603,28.6415,163.95,116.446,111.452,-0.00423005,0.0511141,20.9983,483.738,0.392634,0.0,0.0
4250,1062.25,26.9151,28.9213,163.58,116.433,111.11,-0.00414621,0.0512253,20.9968,483.628,0.419201,0.0,0.0
4267,1066.5,26.7019,27.9995,162.421,116.431,111.437,-0.00395345,0.0510731,20.9961,483.628,0.392628,0.0,0.0
4284,1070.75,27.0183,28.2974,162.926,116.403,110.589,-0.00405529,0.0511909,20.996,483.518,0.458958,0.0,0.0
4301,1075,27.1219,28.3166,159.448,116.38,110.396,-0.00421526,0.051575,20.9952,483.488,0.472853,0.0,0.0
4318,1079.25,26.9586,28.6082,162.963,116.355,110.513,-0.00451427,0.0582043,20.9887,483.428,0.461372,0.0,0.0
4335,1083.5,27.1164,28.3774,163.569,116.328,112.105,-0.00475669,0.0612409,20.9855,483.298,0.331218,0.0,0.0
4352,1087.75,27.1051,28.5076,161.813,116.323,110.654,-0.00461832,0.0693699,20.9792,483.338,0.44752,0.0,0.0
4369,1092,27.2822,28.8349,163.108,116.301,111.551,-0.00429066,0.0657396,20.9807,483.188,0.373491,0.0,0.0
4386,1096.25,27.5283,29.2552,163.318,116.275,109.157,-0.00421226,0.0595622,20.9844,483.178,0.565858,0.0,0.0
4403,1100.5,27.6134,28.8045,161.66,116.266,109.479,-0.00418817,0.0678349,20.9758,483.068,0.538758,0.0,0.0
4420,1104.75,27.3439,29.0048,156.599,116.245,113.087,-0.00447039,0.106094,20.9348,482.988,0.246739,0.0,1.0
4437,1109,28.127,29.4418,148.724,116.224,96.9443,-0.00239198,0.241022,20.7691,482.647,1.62469,0.0,1.0
4454,1113.25,30.7541,32.7703,138.257,116.196,81.7836,0.00255132,0.451885,20.5353,482.087,3.14581,0.0,0.0
4471,1117.5,34.2381,36.6631,132.557,116.193,80.5138,0.00814753,0.653684,20.2833,481.396,3.28576,0.0,0.0
4488,1121.75,39.0826,42.3312,128.197,116.171,76.7672,0.0134117,0.852006,20.0509,480.476,3.71084,0.0,0.0
4505,1126,43.7944,48.3764,126.932,116.169,70.3806,0.0213005,1.06751,19.82,479.485,4.48872,0.0,0.0
4522,1130.25,50.6322,56.31,112.532,116.186,63.581,0.0380266,1.55461,19.3116,477.963,5.4001,0.0,0.0
4539,1134.5,59.6498,68.1242,106.324,116.207,64.8879,0.0487272,1.97292,18.8887,476.262,5.2195,0.0,0.0
4556,1138.75,67.2045,77.101,123.167,116.235,63.4608,0.0491917,1.94871,18.8803,474.73,5.42083,0.0,0.0
4573,1143,72.4431,84.2825,119.777,116.244,64.7311,0.0461562,1.83058,19.0016,473.339,5.24399,0.0,0.0
4590,1147.25,75.5071,88.0903,120.817,116.276,69.4849,0.0406672,1.64877,19.1952,472.018,4.61172,0.0,0.0
4607,1151.5,78.9171,92.0502,129.436,116.274,69.8613,0.0341451,1.48779,19.371,470.867,4.56315,0.0,0.0
4624,1155.75,80.8246,93.919,129.36,116.303,71.7914,0.0291397,1.35269,19.5081,469.746,4.32128,0.0,0.0
4641,1160,81.7061,95.3772,129.633,116.31,73.4021,0.023631,1.20281,19.6846,468.795,4.12309,0.0,0.0
4658,1164.25,81.8286,95.421,130.361,116.31,73.8363,0.0198409,1.09357,19.8114,467.914,4.07025,0.0,0.0
4675,1168.5,81.8895,94.8573,138.642,116.328,76.9429,0.0165531,0.982555,19.9364,467.104,3.70248,0.0,0.0
4692,1172.75,81.3789,94.2783,133.699,116.341,80.978,0.0137061,0.881676,20.0568,466.353,3.24565,0.0,0.0
4709,1177,80.6522,92.9171,136.601,116.34,79.1112,0.0121972,0.825299,20.1119,465.652,3.45449,0.0,0.0
4726,1181.25,79.756,91.4442,135.232,116.333,83.507,0.0107109,0.767759,20.1789,464.932,2.96957,0.0,0.0
4743,1185.5,78.9754,90.68,134.818,116.333,82.8536,0.00984786,0.738017,20.2075,464.311,3.03989,0.0,0.0
4760,1189.75,78.242,89.1242,139.815,116.343,81.5477,0.00884235,0.734387,20.2123,463.641,3.18296,0.0,0.0
4777,1194,77.43,88.5762,140.088,116.333,84.6728,0.00841018,0.728583,20.2183,463.01,2.84539,0.0,0.0
4794,1198.25,76.7941,87.6597,138.248,116.34,84.6548,0.00816393,0.725936,20.2204,462.359,2.8478,0.0,0.0
4811,1202.5,76.4182,86.8364,140.931,116.355,83.3803,0.00922704,0.732277,20.2128,461.689,2.98487,0.0,0.0
4828,1206.75,75.7051,86.266,139.229,116.321,81.4539,0.00983045,0.744058,20.1995,460.978,3.19164,0.0,0.0
4845,1211,75.923,86.1888,137.887,116.344,85.2763,0.0101183,0.755783,20.1877,460.338,2.78261,0.0,0.0
4862,1215.25,75.9371,85.9857,138.847,116.338,83.2291,0.0108785,0.765133,20.1747,459.607,2.99983,0.0,0.0
4879,1219.5,75.2237,85.6103,135.833,116.335,84.3075,0.0112544,0.772532,20.1667,458.906,2.88426,0.0,0.0
4896,1223.75,76.4066,86.1357,138.109,116.326,85.1468,0.0104813,0.778773,20.1666,458.166,2.7948,0.0,0.0
4913,1228,75.3371,85.2495,138.898,116.339,87.0183,0.00957665,0.757843,20.1845,457.535,2.60108,0.0,0.0
4930,1232.25,75.6689,85.5702,136.575,116.32,85.0229,0.00968074,0.755774,20.1893,456.855,2.80742,0.0,0.0
4947,1236.5,75.9604,85.0573,139.512,116.296,84.394,0.00957075,0.741669,20.2148,456.184,2.87207,0.0,0.0
4964,1240.75,74.8361,84.0916,142.447,116.278,81.7336,0.00999063,0.711556,20.2478,455.543,3.1576,0.0,0.0
4981,1245,74.7546,83.866,140.343,116.243,83.5459,0.00942748,0.663828,20.3005,454.973,2.95848,0.0,0.0
4998,1249.25,73.4414,82.0672,143.272,116.2,86.3709,0.0085082,0.633182,20.3325,454.332,2.65731,0.0,0.0
5015,1253.5,73.4379,81.6132,142.491,116.163,85.9043,0.00720671,0.616598,20.3613,453.852,2.70293,0.0,0.0
5032,1257.75,72.2178,80.3968,147.485,116.116,84.6751,0.00566618,0.572834,20.409,453.311,2.82842,0.0,0.0
5049,1262,71.1984,79.047,141.669,116.055,84.7191,0.00437659,0.532737,20.452,452.821,2.81902,0.0,0.0
5066,1266.25,70.3569,77.824,146.042,116,88.1577,0.00363919,0.511098,20.4755,452.361,2.45846,0.0,0.0
5083,1270.5,69.1509,76.0858,148.117,115.928,87.7938,0.00328363,0.490917,20.4983,451.91,2.48992,0.0,0.0
5100,1274.75,67.9133,74.9145,147.42,115.866,87.8923,0.00257411,0.474292,20.5149,451.55,2.47507,0.0,0.0
5117,1279,67.3938,73.9644,149.326,115.8,87.3605,0.0019545,0.475538,20.5148,451.039,2.52438,0.0,0.0
5134,1283.25,66.1732,72.7827,148.219,115.728,89.8543,0.00173452,0.476632,20.5145,450.609,2.26668,0.0,0.0
5151,1287.5,65.7768,71.9981,137.649,115.658,88.0185,0.00163392,0.471184,20.5181,450.179,2.44612,0.0,0.0
5168,1291.75,65.1833,71.2057,151.12,115.573,89.1982,0.00169663,0.47363,20.5171,449.738,2.32031,0.0,0.0
5185,1296,64.5691,70.4249,147.432,115.534,89.6176,0.00221136,0.484385,20.506,449.268,2.2753,0.0,0.0
5202,1300.25,64.4171,69.921,141.83,115.464,86.3427,0.00238978,0.489429,20.4988,448.787,2.60328,0.0,0.0
5219,1304.5,63.6521,69.2624,145.116,115.381,84.6821,0.00268857,0.49641,20.4893,448.327,2.7708,0.0,0.0
5236,1308.75,63.3273,68.6666,143.974,115.304,85.5246,0.00270342,0.497948,20.4867,447.877,2.67616,0.0,0.0
5253,1313,62.8009,68.1686,146.5,115.212,84.7921,0.00273482,0.502704,20.4831,447.396,2.74604,0.0,0.0
5270,1317.25,62.9226,68.2067,144.876,115.112,88.4069,0.00272143,0.500863,20.4868,446.876,2.36433,0.0,0.0
5287,1321.5,62.5165,67.6647,147.233,115.007,87.409,0.00246737,0.494084,20.4961,446.475,2.45785,0.0,0.0
5304,1325.75,62.3111,67.2467,150.404,114.892,88.0629,0.00212808,0.471704,20.5223,446.035,2.3821,0.0,0.0
5321,1330,61.8039,66.4526,151.41,114.767,91.7683,0.00116445,0.438905,20.561,445.665,2.0032,0.0,0.0
5338,1334.25,61.0405,66.0732,149.518,114.639,88.9281,-2.89791e-05,0.407206,20.595,445.304,2.27477,0.0,0.0
5355,1338.5,60.2809,65.0006,150.22,114.539,90.1951,-0.000194008,0.390995,20.6154,444.994,2.14021,0.0,0.0
5372,1342.75,59.6997,64.178,149.891,114.409,90.9938,-9.72361e-05,0.38323,20.6243,444.614,2.05109,0.0,0.0
5389,1347,59.3768,63.6515,146.991,114.281,89.6009,0.000152485,0.390941,20.6207,444.243,2.17922,0.0,0.0
5406,1351.25,58.8242,63.157,150.096,114.211,94.1387,-0.000469398,0.38274,20.6287,443.913,1.73121,0.0,0.0
5423,1355.5,58.0809,62.6059,150.904,114.149,96.2807,-0.00104119,0.366726,20.6468,443.603,1.52485,0.0,0.0
5440,1359.75,57.4569,61.5377,153.602,114.069,96.936,-0.00153469,0.33885,20.6768,443.313,1.45781,0.0,0.0
5457,1364,56.364,60.2894,152.824,114.042,95.3808,-0.00175572,0.310899,20.7087,443.042,1.60053,0.0,0.0
5474,1368.25,55.9864,59.6404,152.063,114.002,96.4467,-0.00252878,0.292782,20.7296,442.812,1.49785,0.0,0.0
5491,1372.5,55.0314,58.8634,152.273,113.96,97.3447,-0.00268567,0.281357,20.7406,442.582,1.41154,0.0,0.0
5508,1376.75,55.0416,57.96,154.603,113.955,98.3496,-0.00236851,0.274544,20.7478,442.352,1.31914,0.0,0.0
5525,1381,53.9887,56.8542,150.432,113.973,98.0037,-0.00237733,0.269464,20.7526,442.122,1.35218,0.0,0.0
5542,1385.25,53.5436,56.7101,151.824,113.987,99.107,-0.00230082,0.267364,20.7563,441.891,1.25294,0.0,0.0
5559,1389.5,52.8097,55.7357,150.559,114.005,99.7947,-0.00259982,0.263029,20.7599,441.671,1.19248,0.0,0.0
5576,1393.75,52.3588,55.3151,155.85,114.056,99.7535,-0.00283735,0.25745,20.7661,441.431,1.20017,0.0,0.0
5593,1398,51.7028,54.4775,152.219,114.108,98.5068,-0.00290209,0.251339,20.7734,441.231,1.31689,0.0,0.0
5610,1402.25,51.2097,53.8185,157.288,114.138,101.76,-0.00271177,0.246874,20.7788,441.061,1.02818,0.0,0.0
5627,1406.5,51.0361,53.533,153.207,114.238,101.671,-0.00296448,0.242628,20.7843,440.86,1.0439,0.0,0.0
5644,1410.75,49.8179,52.2792,152.531,114.295,99.108,-0.0030607,0.239608,20.789,440.65,1.27705,0.0,0.0
5661,1415,49.8645,52.2038,154.697,114.362,100.389,-0.00304245,0.233472,20.7974,440.48,1.16725,0.0,0.0
5678,1419.25,49.2027,51.6065,155.918,114.462,102.71,-0.00331408,0.223374,20.809,440.27,0.970371,0.0,0.0
5695,1423.5,48.7119,50.536,156.612,114.567,103.822,-0.00328606,0.21913,20.8139,440.13,0.882154,0.0,0.0
5712,1427.75,48.2883,50.2046,154.738,114.675,101.268,-0.0032285,0.216357,20.8154,439.96,1.1136,0.0,0.0
5729,1432,48.1335,50.0499,153.412,114.783,103.326,-0.00342566,0.213699,20.8186,439.789,0.941861,0.0,0.0
5746,1436.25,47.4943,49.2578,152.07,114.869,103.183,-0.00341837,0.210702,20.8207,439.589,0.960974,0.0,0.0
5763,1440.5,47.2316,49.1714,155.74,114.952,104.394,-0.0033995,0.209171,20.8227,439.439,0.862946,0.0,0.0
5780,1444.75,46.8824,48.6244,156.196,115.01,105.199,-0.00357868,0.207662,20.8262,439.279,0.798683,0.0,0.0
5797,1449,45.9302,47.7543,156.55,115.107,104.975,-0.00360323,0.202728,20.8303,439.109,0.82531,0.0,0.0
5814,1453.25,45.98,47.733,156.78,115.188,106.617,-0.00349933,0.199827,20.8341,438.969,0.692614,0.0,0.0
5831,1457.5,45.4664,46.9773,154.883,115.269,106.523,-0.00344625,0.194733,20.8386,438.809,0.70672,0.0,0.0
5848,1461.75,45.0103,46.5217,154.255,115.342,107.035,-0.00359403,0.190867,20.8428,438.669,0.669446,0.0,0.0
5865,1466,45.7285,47.0411,157.538,115.413,106.852,-0.00366843,0.187749,20.8441,438.528,0.690338,0.0,0.0
5882,1470.25,44.8868,46.1988,159.019,115.487,107.38,-0.00332592,0.182858,20.8495,438.398,0.651949,0.0,0.0
5899,1474.5,44.5671,45.8824,154.976,115.538,106.179,-0.00364373,0.178742,20.8536,438.278,0.756592,0.0,0.0
5916,1478.75,44.2074,45.7586,157.017,115.586,107.052,-0.00394198,0.176628,20.8569,438.128,0.68704,0.0,0.0
5933,1483,43.5559,44.8232,160.696,115.612,109.017,-0.00391826,0.172915,20.8601,437.998,0.526095,0.0,0.0
5950,1487.25,43.6385,44.7292,154.298,115.637,107.545,-0.00367094,0.171131,20.8619,437.868,0.649751,0.0,0.0
5967,1491.5,43.2799,44.454,157.11,115.677,108.95,-0.00360308,0.167878,20.8656,437.738,0.536674,0.0,0.0
5984,1495.75,42.8195,43.9599,154.881,115.686,107.917,-0.00358533,0.163923,20.8701,437.618,0.622665,0.0,0.0
6001,1500,42.6598,43.7068,153.701,115.69,107.645,-0.00373133,0.158734,20.8779,437.497,0.645592,0.0,0.0
6018,1504.25,42.4894,43.4356,158.944,115.729,108.732,-0.0035033,0.15565,20.8817,437.397,0.558643,0.0,0.0
6035,1508.5,42.1773,43.1772,156.603,115.746,109.527,-0.00366536,0.152413,20.8865,437.297,0.49467,0.0,0.0
6052,1512.75,41.6375,42.6988,156.032,115.732,108.919,-0.00368558,0.14686,20.8925,437.197,0.543484,0.0,0.0
6069,1517,41.3534,42.2545,154.779,115.746,108.964,-0.00380423,0.142781,20.8951,437.097,0.54085,0.0,0.0
6086,1521.25,41.2219,41.8138,155.028,115.726,110.043,-0.00399294,0.145851,20.8935,437.007,0.450961,0.0,0.0
6103,1525.5,40.7566,41.713,159.013,115.707,109.216,-0.00394364,0.146631,20.8896,436.907,0.517097,0.0,0.0
6120,1529.75,40.7787,41.5479,162.118,115.677,110.011,-0.00387935,0.147325,20.889,436.777,0.449807,0.0,0.0
6137,1534,40.4607,41.6584,156.103,115.646,110.326,-0.00391131,0.144004,20.892,436.707,0.421908,0.0,0.0
6154,1538.25,40.4998,41.3434,161.536,115.609,110.5,-0.00367964,0.142246,20.8928,436.607,0.404848,0.0,0.0
6171,1542.5,40.053,40.8613,160.179,115.558,109.471,-0.00343989,0.137913,20.8959,436.507,0.484666,0.0,0.0
6188,1546.75,39.7225,40.4536,160.193,115.537,110.215,-0.00307931,0.133433,20.9022,436.406,0.422425,0.0,0.0
6205,1551,39.1069,39.8545,157.42,115.514,110.481,-0.00290053,0.129876,20.9082,436.346,0.399053,0.0,0.0
6222,1555.25,38.9631,39.7703,160.299,115.449,110.025,-0.00287904,0.126738,20.9117,436.256,0.431021,0.0,0.0
6239,1559.5,39.0486,39.637,158.579,115.439,111.002,-0.00301484,0.124263,20.9152,436.166,0.351095,0.0,0.0
6256,1563.75,39.099,40.3174,158.684,115.411,109.975,-0.00278777,0.12219,20.9175,436.086,0.43213,0.0,0.0
6273,1568,38.8597,39.6271,160.588,115.381,109.656,-0.0027073,0.120388,20.9185,436.006,0.455818,0.0,0.0
6290,1572.25,38.739,39.1981,156.041,115.401,109.872,-0.00272006,0.120341,20.9184,435.926,0.439766,0.0,0.0
6307,1576.5,38.3888,39.079,159.985,115.574,110.78,-0.0025426,0.117302,20.9207,435.876,0.379464,0.0,0.0
6324,1580.75,38.1388,38.7516,163.205,115.707,111.506,-0.00283602,0.116765,20.9217,435.796,0.331232,0.0,0.0
6341,1585,38.0999,38.6442,163.54,115.865,112.682,-0.00295876,0.114675,20.9247,435.726,0.249533,0.0,0.0
6358,1589.25,38.0611,38.5935,158.905,115.985,111.993,-0.00292441,0.112625,20.9263,435.676,0.313781,0.0,0.0
6375,1593.5,37.5926,38.1685,160.861,116.099,111.282,-0.00301035,0.110828,20.9285,435.596,0.379563,0.0,0.0
6392,1597.75,37.2791,37.8685,160.896,116.197,111.691,-0.0032534,0.109355,20.9311,435.526,0.354269,0.0,0.0
6409,1602,36.996,37.5647,158.091,116.273,111.844,-0.00334008,0.107348,20.9336,435.466,0.347915,0.0,0.0
6426,1606.25,37.2837,37.8866,158.591,116.295,111.671,-0.00324969,0.105004,20.9355,435.406,0.363444,0.0,0.0
6443,1610.5,36.6431,37.2687,160.722,116.289,112.53,-0.00315898,0.104107,20.9345,435.336,0.294283,0.0,0.0
6460,1614.75,36.4852,36.8541,158.983,116.294,110.979,-0.00295633,0.103511,20.9359,435.276,0.418997,0.0,0.0
6477,1619,36.6842,37.1232,161.254,116.271,112.855,-0.00278012,0.101742,20.9388,435.205,0.267065,0.0,0.0
6494,1623.25,36.116,36.5597,158.356,116.201,112.293,-0.0025689,0.0998636,20.9417,435.175,0.306404,0.0,0.0
6511,1627.5,35.965,36.4745,161.415,116.11,112.195,-0.00245383,0.0983375,20.9426,435.105,0.307186,0.0,0.0
6528,1631.75,35.9266,36.5511,159.594,116.023,113.053,-0.00275935,0.0987169,20.9433,435.065,0.232243,0.0,0.0
6545,1636,35.846,36.1793,158.283,115.884,113.276,-0.00297653,0.0977475,20.9448,434.995,0.203913,0.0,0.0
6562,1640.25,36.1028,36.2462,159.06,115.734,110.973,-0.00281115,0.097176,20.9418,434.935,0.376314,0.0,0.0
6579,1644.5,35.151,35.7699,158.562,115.614,112.184,-0.00286522,0.0966856,20.9405,434.885,0.269832,0.0,0.0
6596,1648.75,35.5906,36.1212,155.823,115.606,112.11,-0.00305446,0.0964033,20.9406,434.845,0.275049,0.0,0.0
6613,1653,35.3552,35.8858,160.346,115.648,112.388,-0.00279435,0.0952658,20.9429,434.785,0.25619,0.0,0.0
6630,1657.25,35.2547,35.6225,161.927,115.702,112.787,-0.00295876,0.0947178,20.9436,434.725,0.22863,0.0,0.0
6647,1661.5,34.5363,34.964,163.001,115.749,112.46,-0.00312562,0.0944941,20.9445,434.675,0.258166,0.0,0.0
6664,1665.75,34.0567,34.6104,161.67,115.776,112.531,-0.00294732,0.093472,20.9467,434.645,0.254682,0.0,0.0
6681,1670,35.119,35.6348,157.381,115.856,112.328,-0.00297579,0.0928267,20.9475,434.605,0.276969,0.0,0.0
6698,1674.25,34.869,35.6346,159.766,115.929,112.781,-0.00312192,0.0917851,20.9493,434.545,0.24658,0.0,0.0
6715,1678.5,34.2844,34.8022,159.592,115.978,112.317,-0.00282601,0.0908964,20.9498,434.515,0.287309,0.0,0.0
6732,1682.75,34.6377,35.1717,159.203,116.072,112.693,-0.00305314,0.0902861,20.9506,434.485,0.264681,0.0,0.0
6749,1687,34.2964,34.7572,160.28,116.161,113.705,-0.00315359,0.0897084,20.9515,434.425,0.19148,0.0,0.0
6766,1691.25,34.4193,34.7993,160.761,116.218,113.601,-0.00320358,0.0890821,20.9516,434.375,0.203998,0.0,0.0
6783,1695.5,33.4549,33.8652,163.285,116.301,113.581,-0.00316499,0.0886396,20.9498,434.305,0.212021,0.0,0.0
6800,1699.75,34.0936,34.6696,161.101,116.36,113.243,-0.00304529,0.0877574,20.9517,434.265,0.243211,0.0,0.0
6817,1704,34.001,34.9453,162.36,116.404,113.625,-0.00289101,0.0874544,20.9536,434.225,0.216419,0.0,0.0
6834,1708.25,34.3401,34.8593,161.662,116.425,113.624,-0.00261863,0.0873392,20.9543,434.185,0.218158,0.0,0.0
6851,1712.5,33.9421,34.4241,162.076,116.454,113.351,-0.00265517,0.0862573,20.955,434.145,0.241937,0.0,0.0
6868,1716.75,34.0593,34.5323,160.838,116.486,113.085,-0.00283542,0.084899,20.9559,434.115,0.265361,0.0,0.0
6885,1721,33.9958,34.572,161.707,116.471,113.231,-0.00291814,0.08548,20.9542,434.074,0.252636,0.0,0.0
6902,1725.25,33.814,34.2107,158.466,116.475,112.739,-0.00276069,0.0846646,20.9564,434.044,0.292041,0.0,0.0
6919,1729.5,33.6855,34.2335,156.856,116.475,113.683,-0.00253551,0.0835404,20.9566,433.994,0.217331,0.0,0.0
6936,1733.75,33.2096,33.7982,157.817,116.444,113.703,-0.00267447,0.0844659,20.9547,433.944,0.213375,0.0,0.0
6953,1738,33.595,34.1206,162.037,116.433,112.654,-0.00274924,0.0864978,20.9527,433.894,0.295546,0.0,0.0
6970,1742.25,33.7655,34.2835,161.504,116.399,113.792,-0.00288256,0.0867874,20.9522,433.854,0.202907,0.0,0.0
6987,1746.5,33.509,34.129,159.342,116.338,114.115,-0.0031957,0.0852598,20.9531,433.824,0.172826,0.0,0.0
7004,1750.75,33.3199,34.0567,162.46,116.29,112.923,-0.0030704,0.0841505,20.9552,433.784,0.263232,0.0,0.0
7021,1755,32.9887,33.6628,160.328,116.225,113.12,-0.00306545,0.0831784,20.9568,433.724,0.242543,0.0,0.0
7038,1759.25,33.2819,33.7163,161.589,116.146,113.613,-0.00282223,0.0811003,20.9586,433.724,0.197499,0.0,0.0
7055,1763.5,33.0023,33.4997,161.934,116.04,112.66,-0.00270161,0.0801919,20.9606,433.674,0.264784,0.0,0.0
7072,1767.75,33.1921,33.613,163.12,115.948,112.958,-0.00293857,0.0797842,20.9612,433.664,0.234015,0.0,0.0
7089,1772,33.0395,33.7645,162.882,115.867,112.733,-0.0029897,0.0786337,20.9628,433.634,0.245562,0.0,0.0
7106,1776.25,33.3716,34.0006,166.564,115.72,113.279,-0.00268015,0.0783858,20.9626,433.584,0.191025,0.0,0.0
7123,1780.5,32.8932,33.491,165.498,115.638,113.043,-0.00252552,0.0773033,20.962,433.564,0.203242,0.0,0.0
7140,1784.75,32.8679,33.5915,163.412,115.524,113.287,-0.00252158,0.0765922,20.962,433.504,0.175127,0.0,0.0
7157,1789,32.6306,33.3603,157.627,115.395,111.934,-0.0023776,0.0758805,20.9635,433.474,0.272748,0.0,0.0
7174,1793.25,32.6406,33.1816,160.626,115.286,112.552,-0.00224909,0.0770205,20.9614,433.464,0.214967,0.0,0.0
7191,1797.5,32.5879,33.4211,161.632,115.185,113.524,-0.0021327,0.0791643,20.9607,433.434,0.130077,0.0,0.0
7208,1801.75,32.0369,32.6307,164.374,115.104,112.374,-0.00268187,0.0778292,20.9611,433.374,0.21502,0.0,0.0
7225,1806,32.0908,32.7293,162.346,114.994,112.642,-0.00264224,0.0759438,20.9626,433.354,0.185093,0.0,0.0
7242,1810.25,32.0474,32.695,162.283,114.918,112.264,-0.00241973,0.0749582,20.9637,433.334,0.209356,0.0,0.0
7259,1814.5,32.5595,33.2683,160.954,114.834,112.491,-0.00207026,0.0728658,20.965,433.274,0.184653,0.0,0.0
7276,1818.75,32.3675,32.9087,159.945,114.775,112.25,-0.00201162,0.0724287,20.9652,433.294,0.199304,0.0,0.0
7293,1823,31.8867,32.2195,162.929,114.715,111.933,-0.00194942,0.0720769,20.9656,433.264,0.21984,0.0,0.0
7310,1827.25,31.3826,32.3302,162.771,114.674,111.389,-0.0022569,0.0717775,20.9669,433.204,0.260303,0.0,0.0
7327,1831.5,30.8929,32.2563,164.819,114.613,111.469,-0.00253481,0.0713596,20.9674,433.184,0.249167,0.0,0.0
7344,1835.75,31.3584,31.7529,160.135,114.558,112.523,-0.00224645,0.0713017,20.9681,433.144,0.160611,0.0,0.0
7361,1840,31.2845,31.8424,159.767,114.524,111.572,-0.00218654,0.0710915,20.9682,433.134,0.233966,0.0,0.0
7378,1844.25,31.3969,31.7614,164.017,114.456,112.129,-0.00195267,0.0708579,20.97,433.114,0.184004,0.0,0.0
7395,1848.5,31.6466,31.5311,160.427,114.401,112.16,-0.00171917,0.0703099,20.97,433.074,0.177144,0.0,0.0
7412,1852.75,31.273,31.276,161.048,114.36,111.062,-0.00192641,0.0704656,20.9706,433.074,0.262079,0.0,0.0
7429,1857,31.5299,31.3769,162.942,114.299,112.067,-0.00187864,0.0700468,20.9708,433.044,0.176607,0.0,0.0
7446,1861.25,30.6272,32.1664,162.242,114.268,111.483,-0.00179041,0.0692784,20.9697,432.993,0.221014,0.0,0.0
7463,1865.5,30.9297,31.7069,161.225,114.223,112.362,-0.00166933,0.0684885,20.9699,432.993,0.147118,0.0,0.0
7480,1869.75,30.6774,31.2537,161.146,114.189,110.955,-0.00159378,0.0678131,20.9714,432.973,0.257306,0.0,0.0
7497,1874,31.3055,31.4825,161.665,114.135,111.786,-0.00186708,0.0676871,20.9705,432.913,0.186263,0.0,0.0
7514,1878.25,30.5311,31.6701,161.312,114.112,111.197,-0.00184944,0.0673234,20.9701,432.923,0.231821,0.0,0.0
7531,1882.5,30.5556,31.4606,159.281,114.088,111.437,-0.00151762,0.06692,20.9705,432.913,0.210626,0.0,0.0
7548,1886.75,30.4933,30.9856,161.774,114.051,111.345,-0.00159943,0.0667674,20.9717,432.843,0.215031,0.0,0.0
7565,1891,30.7332,31.479,157.978,114.031,111.582,-0.00146036,0.0670413,20.9717,432.863,0.19449,0.0,0.0
7582,1895.25,30.2341,30.8362,164.408,114.047,112.037,-0.00172398,0.0666255,20.972,432.843,0.15922,0.0,0.0
7599,1899.5,29.2994,30.472,164.108,114.027,111.763,-0.00170743,0.0657895,20.9736,432.763,0.179691,0.0,0.0
7616,1903.75,30.0771,30.6505,161.696,114.025,111.166,-0.00152535,0.0653873,20.9731,432.803,0.227443,0.0,0.0
7633,1908,30.0078,31.3409,162.443,114.044,111.477,-0.00169846,0.0659636,20.9722,432.763,0.203918,0.0,0.0
7650,1912.25,30.2942,30.9998,162.507,114.031,110.51,-0.00196741,0.0657861,20.9721,432.713,0.280916,0.0,0.0
7667,1916.5,30.8357,31.3519,162.046,114.044,111.143,-0.00213427,0.0660415,20.9749,432.743,0.230823,0.0,0.0
7684,1920.75,30.6079,30.7505,161.828,114.054,111.412,-0.00182552,0.0660291,20.9746,432.673,0.209935,0.0,0.0
7701,1925,29.945,30.5517,164.785,114.063,111.045,-0.00177583,0.0653913,20.976,432.643,0.240206,0.0,0.0
7718,1929.25,30.5263,31.2107,162.714,114.063,111.481,-0.00179843,0.0650356,20.9762,432.703,0.205137,0.0,0.0
7735,1933.5,29.927,30.5022,159.728,114.107,111.583,,,,432.603,0.200365,0.0,0.0
7752,1937.75,30.2902,30.544,164.142,114.121,111.759,,,,432.623,0.187341,0.0,0.0
7766,1941.25,29.8741,30.7961,162.527,114.14,111.703,,,,432.613,0.193378,0.0,0.0