File: 01_Data/PET/Cone/PET_Cone_HF25Scan_220204_R1.csv
Names,Time,Stack TC,Smoke TC,Exh Press,Smoke Comp,Smoke Meas,CO Meter,CO2 Meter,O2 Meter,Sample Mass,Ext Coeff,Start Test,Flame Verif
Chan Gain,,500,500,1,1,1,1,1,1,1,1,1.0,1.0
Offset,,0,0,0.14021,0,0,0,0,0,0,0,0.0,0.0
Gain,,1,1,25.011,13.3046,13.3037,1,1,1,1.00093,1.10262,1.0,1.0
Units,sec,C,C,Pa,%,%,%,%,%,g,/m,,
Baseline,,16.9133,18.0078,144.885,100.597,106.882,0.00115958,0.103895,20.9985,-871.305,-0.586147,,
9,2,14.4752,15.4515,147.313,97.9175,103.745,0.000984482,0.130237,20.9601,89.8534,-0.559129,0.0,0.0
18,4.25,14.7229,15.6715,146.066,98.2939,104.305,0.00105586,0.125401,20.9674,89.7833,-0.574153,0.0,0.0
27,6.5,15.1581,15.6954,142.296,98.8875,105.169,0.00111045,0.122547,20.9712,89.8634,-0.595665,0.0,0.0
36,8.75,15.6705,16.0891,145.974,98.8859,105.214,0.00115352,0.121317,20.9725,103.446,-0.59993,0.0,0.0
45,11,15.4495,15.9807,144.44,98.8997,105.152,0.00124778,0.120371,20.9733,90.3939,-0.592868,0.0,0.0
54,13.25,15.7672,16.5341,148.663,98.911,104.953,0.00131134,0.1195,20.9754,124.075,-0.573477,0.0,0.0
63,15.5,15.9218,16.4636,145.584,98.8936,105.098,0.00128427,0.118059,20.9805,89.6432,-0.588569,0.0,0.0
72,17.75,16.0826,16.4676,145.455,98.9054,105.178,0.0012203,0.115704,20.9879,89.9334,-0.594739,0.0,0.0
81,20,16.0204,16.8543,145.332,98.9094,105.176,0.00109022,0.113128,20.995,89.7032,-0.594192,0.0,0.0
90,22.25,15.9741,16.7394,148.75,98.9041,105.095,0.000984404,0.110638,21.0026,89.8033,-0.587239,0.0,0.0
99,24.5,16.1214,17.0281,140.174,98.9135,105.28,0.000965366,0.10816,21.0093,89.8534,-0.603311,0.0,0.0
108,26.75,16.1226,17.2575,141.071,98.9204,105.082,0.00099041,0.106425,21.014,89.8133,-0.584454,0.0,0.0
117,29,16.3602,16.9399,144.666,98.9427,105.339,0.00100962,0.105487,21.0184,89.8233,-0.60586,0.0,0.0
126,31.25,16.3099,17.329,146.194,98.9484,105.067,0.00102331,0.10492,21.0209,89.8233,-0.58037,0.0,0.0
135,33.5,16.6679,17.2535,142.29,98.9663,105.141,0.00109223,0.10421,21.0222,89.8233,-0.585349,0.0,0.0
144,35.75,16.4269,17.1538,144.097,98.9756,105.167,0.00119741,0.104033,21.0236,89.7933,-0.586864,0.0,0.0
153,38,16.3411,17.2203,142.041,99,105.224,0.00116386,0.102691,21.0266,89.7733,-0.589746,0.0,0.0
162,40.25,16.6859,17.9007,143.36,99.0182,105.042,0.00103563,0.0999556,21.0338,89.7633,-0.571229,0.0,0.0
171,42.5,16.3046,17.4816,146.109,99.0333,105.047,0.000838201,0.0961666,21.0435,89.7933,-0.57021,0.0,0.0
180,44.75,16.01,17.5065,142.791,99.0592,105.209,0.000790958,0.0925658,21.0523,89.8133,-0.582539,0.0,0.0
189,47,16.6404,18.1957,143.391,99.0873,105.309,0.00079062,0.0894459,21.0584,89.7833,-0.589055,0.0,0.0
198,49.25,16.8816,17.7908,152.097,99.1323,105.352,0.00081124,0.0872265,21.0631,89.7533,-0.588573,0.0,0.0
207,51.5,16.9244,18.2287,140.979,99.1559,105.189,0.000832747,0.0856511,21.0661,89.7333,-0.571317,0.0,0.0
216,53.75,16.3908,18.1225,142.816,99.1547,105.316,0.000850746,0.0848232,21.0672,89.7433,-0.583076,0.0,0.0
225,56,16.9626,17.8899,142.437,99.1835,105.29,0.000868892,0.0841868,21.0694,89.7533,-0.577915,0.0,0.0
234,58.25,17.1073,18.1226,145.172,99.1766,105.497,0.000703982,0.0834215,21.0705,89.7933,-0.597589,0.0,0.0
243,60.5,16.5323,18.1224,144.529,99.2005,105.437,0.00054715,0.0826325,21.0714,89.7733,-0.589706,0.0,0.0
252,62.75,17.0489,18.0461,146.894,99.1965,105.371,0.0006652,0.0820803,21.0719,89.7933,-0.58403,0.0,0.0
261,65,17.3297,18.0927,146.469,99.2111,105.337,0.000817161,0.0818799,21.072,89.8133,-0.579511,0.0,0.0
270,67.25,17.3607,18.2771,149.321,99.2152,105.419,0.000862079,0.0822883,21.0721,89.7333,-0.586642,0.0,0.0
279,69.5,17.1896,18.7046,142.919,99.229,105.426,0.000812936,0.0828058,21.0717,89.8033,-0.585967,0.0,0.0
288,71.75,16.9552,18.3715,141.02,99.2208,105.077,0.000582142,0.0832056,21.0701,89.7933,-0.554635,0.0,0.0
297,74,17.4515,18.5804,143.923,99.2338,105.293,0.000399404,0.0835522,21.068,89.7733,-0.573229,0.0,0.0
306,76.25,16.8688,18.3324,140.777,99.2306,105.404,0.00046258,0.0843687,21.0659,89.7933,-0.583797,0.0,0.0
315,78.5,17.4135,18.5881,142.18,99.2216,105.268,0.000500732,0.0856055,21.0654,89.7733,-0.572105,0.0,0.0
324,80.75,17.5982,18.4095,142.899,99.2184,105.373,0.000613106,0.0861843,21.0641,89.7433,-0.582078,0.0,0.0
333,83,17.4714,19.1047,146.439,99.203,105.209,0.000760742,0.0858302,21.0641,89.7032,-0.568552,0.0,0.0
342,85.25,17.8144,18.846,144.707,99.1798,105.308,0.000873119,0.0850012,21.0655,89.7733,-0.579911,0.0,0.0
351,87.5,17.7876,19.0318,140.374,99.127,105.011,0.000817898,0.0843373,21.0661,89.7933,-0.557764,0.0,0.0
360,89.75,17.5847,19.377,143.901,99.0921,104.964,0.000672394,0.084158,21.0663,89.7833,-0.556796,0.0,0.0
369,92,18.0941,19.4941,140.396,99.0389,105.046,0.0006656,0.0841948,21.0657,89.7733,-0.56958,0.0,0.0
378,94.25,17.8942,19.4038,142.619,98.9963,105.13,0.000721899,0.0842291,21.0647,89.8033,-0.581479,0.0,0.0
387,96.5,17.6761,19.3392,141.555,98.9634,104.99,0.00068365,0.0842875,21.0629,89.7733,-0.571761,0.0,0.0
396,98.75,18.1411,19.2482,143.095,98.9208,104.949,0.00067136,0.0844393,21.0614,89.7733,-0.572188,0.0,0.0
405,101,18.4417,18.9308,146.271,98.8822,105.013,0.000762651,0.0849574,21.0603,89.7533,-0.581795,0.0,0.0
414,103.25,17.72,19.1887,142.853,98.8696,105.04,0.000826817,0.0852228,21.0606,89.7433,-0.585531,0.0,0.0
423,105.5,18.1333,19.8158,141.043,98.8684,104.773,0.000793318,0.0849614,21.0629,89.7733,-0.56102,0.0,0.0
432,107.75,17.4408,19.5653,145.573,98.866,104.836,0.000749675,0.0846807,21.0643,89.7833,-0.567103,0.0,0.0
441,110,17.5046,19.154,146.283,98.8786,105.152,0.000797227,0.0846531,21.0646,89.7833,-0.59497,0.0,0.0
450,112.25,18.1229,19.6687,144.368,98.9114,104.879,0.000827569,0.0849769,21.0645,89.7633,-0.566588,0.0,0.0
459,114.5,17.8819,18.9692,142.778,98.9687,105.026,0.000796298,0.0850727,21.0654,89.7633,-0.574535,0.0,0.0
468,116.75,17.7079,19.5711,145.69,99.0276,105.162,0.000792176,0.0844978,21.0679,89.7633,-0.581338,0.0,0.0
477,119,17.4539,19.6018,140.967,99.1128,105.059,0.000832012,0.0834199,21.0701,89.7933,-0.563525,0.0,0.0
486,121.25,18.6115,19.2568,143.665,99.2221,105.195,0.000780563,0.082231,21.0716,89.7733,-0.565423,0.0,0.0
495,123.5,17.4559,19.5792,142.811,99.3601,105.461,0.000731955,0.0812793,21.0734,89.7433,-0.576321,0.0,0.0
504,125.75,18.1777,19.3121,144.818,99.5046,105.385,0.000704666,0.0802964,21.0749,89.7833,-0.555295,0.0,0.0
513,128,18.0888,19.1536,147.13,99.6614,105.648,0.000573349,0.0795876,21.077,89.7533,-0.564189,0.0,0.0
522,130.25,18.6156,20.1002,141.812,99.7718,105.835,0.000437463,0.0790261,21.078,89.7633,-0.570633,0.0,0.0
531,132.5,18.0982,19.5257,145.584,99.9505,105.891,0.00046863,0.0786747,21.0783,89.7032,-0.558449,0.0,0.0
540,134.75,17.8884,19.1505,150.078,100.041,106.021,0.000633694,0.0785767,21.0781,89.7333,-0.561511,0.0,0.0
549,137,18.0238,19.6137,142.15,100.184,106.188,0.000947031,0.0787346,21.0779,89.6932,-0.562877,0.0,0.0
558,139.25,18.374,19.5994,144.116,100.302,106.295,0.00109795,0.0789251,21.0776,89.7633,-0.56135,0.0,0.0
567,141.5,17.7775,19.1006,141.786,100.382,106.57,0.00103349,0.0791026,21.0762,89.7533,-0.578617,0.0,0.0
576,143.75,18.0234,19.7392,140.414,100.429,106.389,0.00102313,0.0797542,21.0751,89.7633,-0.557557,0.0,0.0
585,146,18.0906,19.5,144.741,100.467,106.391,0.0010246,0.0814314,21.0731,89.7533,-0.554179,0.0,0.0
594,148.25,18.3048,20.0538,145.933,100.497,106.551,0.00100869,0.0833365,21.0707,89.7533,-0.565706,0.0,0.0
603,150.5,18.2225,19.9411,143.351,100.484,106.621,0.000972844,0.0848476,21.0688,89.7533,-0.573369,0.0,0.0
612,152.75,17.7,19.87,147.989,100.461,106.405,0.000920999,0.0854496,21.0676,89.7433,-0.555981,0.0,0.0
621,155,18.4883,19.5026,144.856,100.401,106.369,0.000899584,0.0851764,21.0686,89.7232,-0.558522,0.0,0.0
630,157.25,18.486,19.8493,142.321,100.328,106.047,0.000960184,0.0844063,21.0699,89.7333,-0.536209,0.0,0.0
639,159.5,18.865,19.5724,145.458,100.266,106.274,0.00106548,0.0833654,21.0719,89.7433,-0.562835,0.0,0.0
648,161.75,18.2903,19.7297,143.153,100.196,106.156,0.00114323,0.0828194,21.0731,89.7633,-0.558856,0.0,0.0
657,164,18.4246,20.1779,140.046,100.181,105.991,0.00124044,0.083247,21.0734,89.7533,-0.5452,0.0,0.0
666,166.25,18.3624,19.6242,142.937,100.354,106.288,0.00125927,0.0837925,21.0709,89.7433,-0.555712,0.0,0.0
675,168.5,18.325,19.5685,142.341,100.613,106.509,0.00119264,0.0845835,21.0673,89.7232,-0.550854,0.0,0.0
684,170.75,18.3603,20.0923,142.803,100.747,106.422,0.00107947,0.0857343,21.0635,89.7132,-0.530089,0.0,0.0
693,173,18.122,19.5962,142.453,100.892,106.834,0.000988958,0.0866334,21.0606,89.6632,-0.553413,0.0,0.0
702,175.25,18.4863,19.5884,141.151,100.936,106.904,0.000985569,0.087047,21.0595,89.7333,-0.555603,0.0,0.0
711,177.5,18.2613,19.253,143.133,100.903,106.73,0.00113951,0.087906,21.0581,89.7232,-0.542986,0.0,0.0
720,179.75,17.6916,19.4425,144.82,100.764,106.52,0.00130371,0.0897936,21.0549,89.7333,-0.537302,0.0,0.0
729,182,18.4402,19.6382,142.87,100.583,106.199,0.00130383,0.0926689,21.05,89.7333,-0.525535,0.0,0.0
738,184.25,18.4867,20.0033,142.224,100.367,105.827,0.00130352,0.0951098,21.0451,89.7132,-0.512321,0.0,0.0
747,186.5,18.3718,19.4391,141.964,100.282,106.011,0.00134706,0.0962422,21.0417,89.7232,-0.537411,0.0,0.0
756,188.75,18.3833,19.7437,141.648,100.437,106.463,0.00149594,0.096209,21.0402,89.7232,-0.563566,0.0,0.0
765,191,18.224,20.0064,144.144,100.543,106.338,0.00163318,0.0951393,21.0425,89.7132,-0.542,0.0,0.0
774,193.25,18.2446,19.3532,144.159,100.606,106.191,0.00159056,0.0935812,21.0453,89.7232,-0.52253,0.0,0.0
783,195.5,18.3883,20.196,142.217,100.849,106.883,0.00138813,0.0921617,21.0474,89.7232,-0.562022,0.0,0.0
792,197.75,18.1094,19.5154,141.702,100.92,106.907,0.00114141,0.0917734,21.0468,89.7132,-0.55738,0.0,0.0
801,200,18.5464,19.8245,144.021,100.801,106.067,0.00102525,0.092676,21.043,89.7132,-0.492565,0.0,0.0
810,202.25,18.3933,19.1541,142.035,101.041,106.884,0.00103719,0.0935749,21.0413,89.7132,-0.543733,0.0,0.0
819,204.5,18.3843,19.6126,142.472,100.992,106.894,0.000958271,0.093702,21.0407,89.7132,-0.549353,0.0,0.0
828,206.75,18.8681,19.9684,141.797,100.732,106.296,0.000839784,0.0939618,21.0404,89.6832,-0.520009,0.0,0.0
837,209,18.6987,20.0707,143.744,100.619,106.373,0.000835998,0.0946549,21.0399,89.6932,-0.53787,0.0,0.0
846,211.25,18.9636,19.847,146.237,100.38,105.974,0.000956849,0.0954776,21.0387,89.7132,-0.524491,0.0,0.0
855,213.5,18.4164,20.1348,145.859,99.8827,105.543,0.00111738,0.0965628,21.038,89.7032,-0.533143,0.0,0.0
864,215.75,18.5686,19.8211,144.517,99.5562,105.014,0.00119165,0.097725,21.0341,89.7132,-0.516166,0.0,0.0
873,218,18.612,19.9599,141.554,99.2614,104.87,0.00106832,0.099205,21.0299,89.7032,-0.531601,0.0,0.0
882,220.25,18.0514,19.9792,148.083,99.2042,104.762,0.000865405,0.100014,21.0264,89.7032,-0.527252,0.0,0.0
891,222.5,18.5471,19.9345,146.887,98.8518,104.305,0.00066816,0.100498,21.0238,89.6832,-0.519338,0.0,0.0
900,224.75,18.521,20.3136,145.716,98.8449,103.945,0.000524435,0.101069,21.0221,89.6732,-0.486638,0.0,0.0
909,227,18.2529,19.9382,144.256,98.7543,103.545,0.000553289,0.10119,21.0226,89.7032,-0.458219,0.0,0.0
918,229.25,18.3707,19.9904,145.768,98.8619,103.729,0.000619738,0.101157,21.024,89.6932,-0.46485,0.0,0.0
927,231.5,18.2824,19.9568,143.529,98.9675,103.977,0.00067297,0.101396,21.0249,89.6832,-0.477594,0.0,0.0
936,233.75,18.7424,20.1538,146.596,99.3329,104.557,0.000744462,0.101477,21.0253,89.6832,-0.495727,0.0,0.0
945,236,18.7505,20.6425,139.056,99.6009,104.859,0.000901752,0.100795,21.0267,89.6732,-0.497608,0.0,0.0
954,238.25,18.9152,19.8667,149.453,99.8766,104.907,0.00107063,0.0998252,21.0289,89.6732,-0.475254,0.0,0.0
963,240.5,19.0664,20.0985,142.637,100.174,105.283,0.00114436,0.0985649,21.0311,89.6732,-0.481151,0.0,0.0
972,242.75,18.4973,19.311,144.824,100.37,105.737,0.00118211,0.0977328,21.0328,89.6732,-0.503768,0.0,0.0
981,245,17.9917,19.979,141.387,100.41,105.5,0.00125294,0.0973822,21.034,89.6832,-0.478296,0.0,0.0
990,247.25,17.5006,19.5294,143.628,100.412,105.579,0.00132199,0.0970716,21.0344,89.6732,-0.485356,0.0,0.0
999,249.5,18.8269,19.9318,143.871,100.352,105.492,0.00130949,0.09687,21.0346,89.6632,-0.483146,0.0,0.0
1008,251.75,18.5202,19.2974,142.92,100.216,105.401,0.00127701,0.0968305,21.0347,89.6532,-0.487923,0.0,0.0
1017,254,18.6883,20.4094,139.822,100.136,105.127,0.00128412,0.0964644,21.0347,89.6532,-0.470468,0.0,0.0
1026,256.25,18.9289,20.1916,140.712,100.575,105.696,0.0013472,0.0963132,21.0345,89.6031,-0.480315,0.0,0.0
1035,258.5,19.0088,20.235,144.157,100.869,105.805,0.00138153,0.096516,21.0322,89.5231,-0.462076,0.0,0.0
1044,260.75,19.0216,20.3767,139.154,100.939,105.693,0.00130611,0.0970163,21.031,89.493,-0.445172,0.0,0.0
1053,263,18.8267,19.9848,140.074,100.799,105.643,0.0012248,0.0974865,21.0292,89.493,-0.453995,0.0,0.0
1062,265.25,18.9698,20.5053,139.705,100.445,105.097,0.00114952,0.098043,21.0283,89.493,-0.437826,0.0,0.0
1071,267.5,19.0148,19.5748,142.449,100.408,105.432,0.00114695,0.0986373,21.0267,89.493,-0.472161,0.0,0.0
1080,269.75,18.5814,20.1069,144.147,100.63,105.314,0.00130851,0.0989627,21.0261,89.503,-0.440023,0.0,0.0
1089,272,18.8673,19.8493,145.145,100.872,105.862,0.00125897,0.0984433,21.0281,89.503,-0.467037,0.0,0.0
1098,274.25,18.3846,20.0965,141.825,101.037,106.083,0.00100774,0.096647,21.0332,89.5331,-0.471401,0.0,0.0
1107,276.5,18.9373,19.8827,144.859,101.061,105.626,0.000960984,0.0940248,21.0381,89.5831,-0.42726,0.0,0.0
1116,278.75,18.4891,19.9233,141.137,100.878,105.669,0.000998767,0.0927199,21.0412,89.5231,-0.448741,0.0,0.0
1125,281,18.3246,20.1807,143.09,100.568,105.292,0.00101419,0.0920782,21.0425,89.5431,-0.443981,0.0,0.0
1134,283.25,18.9134,20.1667,146.018,100.177,104.498,0.0010919,0.0924527,21.0417,89.5831,-0.408471,0.0,0.0
1143,285.5,18.2745,20.2353,139.488,99.6894,104.082,0.00113171,0.0936002,21.0403,89.6031,-0.417073,0.0,0.0
1152,287.75,19.0423,20.4609,142.297,99.2886,103.518,0.00104131,0.0943132,21.0402,89.5931,-0.403448,0.0,0.0
1161,290,19.0201,20.0065,141.551,99.013,103.129,0.000937493,0.0947262,21.0418,89.6232,-0.393932,0.0,0.0
1170,292.25,18.9703,20.7377,141.364,98.9431,103.106,0.000952666,0.0942634,21.0441,89.6832,-0.398586,0.0,0.0
1179,294.5,18.7327,20.6278,142.488,99.0629,103.166,0.00106081,0.0930914,21.0465,89.7132,-0.392519,0.0,0.0
1188,296.75,18.9955,20.402,140.374,99.3605,102.998,0.00115196,0.0922937,21.0487,89.7433,-0.347772,0.0,0.0
1197,299,18.8274,20.7117,139.632,99.7243,103.689,0.00104256,0.0921341,21.0493,89.7333,-0.377058,0.0,0.0
1206,301.25,18.967,20.3659,146.183,100.096,103.945,0.000988204,0.0922878,21.0483,89.7232,-0.364959,0.0,0.0
1215,303.5,19.4693,20.434,144.267,100.298,104.427,0.0010869,0.092411,21.0474,89.7633,-0.39022,0.0,0.0
1224,305.75,19.1738,20.2798,139.859,100.392,104.326,0.00124131,0.0930266,21.0478,89.7633,-0.371772,0.0,0.0
1233,308,18.5321,20.5957,143.576,100.397,104.848,0.0012781,0.0939464,21.0482,89.7633,-0.419624,0.0,0.0
1242,310.25,18.9373,20.1253,141.058,100.304,104.16,0.00117148,0.0943203,21.0484,89.8333,-0.364895,0.0,0.0
1251,312.5,18.7816,20.3246,143.806,100.169,104.174,0.00111021,0.0945709,21.0493,89.7433,-0.379182,0.0,0.0
1260,314.75,19.169,20.1263,138.811,100.175,103.845,0.00125389,0.0951511,21.0491,89.6932,-0.347977,0.0,0.0
1269,317,19.2342,20.8679,138.647,100.653,104.575,0.00143407,0.0968295,21.0481,89.6832,-0.369659,0.0,0.0
1278,319.25,19.5752,20.6125,143.286,100.89,103.932,0.00154696,0.0986779,21.0477,89.6432,-0.287351,0.0,0.0
1287,321.5,19.2341,20.5975,144.123,100.891,104.79,0.00157393,0.100551,21.0456,89.6932,-0.366703,0.0,0.0
1296,323.75,19.1374,21.0517,140.39,100.648,103.904,0.00157968,0.103262,21.0424,89.5531,-0.307931,0.0,0.0
1305,326,19.9136,21.1629,141.407,100.306,103.221,0.00159326,0.106578,21.0386,89.513,-0.277103,0.0,0.0
1314,328.25,18.6617,21.1557,140.751,100.392,103.21,0.00157063,0.110541,21.0322,89.453,-0.26778,0.0,0.0
1323,330.5,19.6154,21.5,140.256,100.706,102.878,0.00165842,0.117262,21.0231,89.3929,-0.206378,0.0,0.0
1332,332.75,19.9937,21.3414,144.511,100.932,103.76,0.00192192,0.124499,21.0127,89.423,-0.267271,0.0,0.0
1341,335,20.0211,22.0169,140.99,100.975,103.316,0.00210599,0.133672,20.9983,89.3429,-0.221618,0.0,0.0
1350,337.25,19.6089,21.6448,139.345,101.039,102.722,0.00223707,0.143074,20.9805,89.3029,-0.159786,0.0,0.0
1359,339.5,19.9701,21.7904,139.51,100.905,102.475,0.00241646,0.154416,20.965,89.2528,-0.149312,0.0,0.0
1368,341.75,20.4469,22.1983,142.786,100.63,100.04,0.00266421,0.16778,20.9476,89.1127,0.0569221,0.0,0.0
1377,344,21.4254,22.4218,139.017,100.276,99.1875,0.00298502,0.185933,20.9265,89.0326,0.105577,0.0,1.0
1386,346.25,20.3543,22.4808,137.32,99.9432,96.2217,0.00330858,0.207477,20.9019,88.8825,0.367027,0.0,1.0
1395,348.5,20.9862,23.7776,138.618,99.5777,94.9091,0.00381313,0.232078,20.8707,88.6823,0.464444,0.0,1.0
1404,350.75,22.2788,24.6399,138.161,99.2639,93.6046,0.00443694,0.261008,20.8297,88.432,0.567771,0.0,0.0
1413,353,22.2811,25.1382,132.142,99.0649,89.0611,0.0051622,0.29582,20.7955,88.0817,1.02962,0.0,0.0
1422,355.25,23.6049,25.9343,132.858,98.9874,84.1186,0.00637882,0.333663,20.7572,87.9216,1.57428,0.0,0.0
1431,357.5,24.2595,26.8612,129.847,98.976,79.0282,0.00814474,0.375824,20.6925,87.6613,2.17693,0.0,0.0
1440,359.75,25.621,28.5996,129.723,99.0787,77.917,0.0100917,0.429707,20.6194,87.4511,2.32393,0.0,0.0
1449,362,27.0419,30.6367,126.362,99.2586,81.3785,0.0118007,0.48487,20.5549,87.2009,1.92105,0.0,0.0
1458,364.25,28.5695,32.4488,120.879,99.4819,78.6258,0.0129734,0.536418,20.4947,86.9707,2.27561,0.0,0.0
1467,366.5,30.2384,34.4694,125.435,99.7044,78.5662,0.0138547,0.581845,20.443,86.6204,2.30456,0.0,0.0
1476,368.75,31.438,36.5048,123.742,99.9188,78.0981,0.0146526,0.618989,20.4038,86.3601,2.38314,0.0,0.0
1485,371,33.1307,38.0926,126.02,100.09,78.8049,0.0153841,0.647184,20.3698,86.1299,2.31256,0.0,0.0
1494,373.25,34.0059,39.7717,123.643,100.241,74.4072,0.016103,0.673265,20.3422,85.7796,2.88255,0.0,0.0
1503,375.5,35.9798,42.0814,118.727,100.325,73.3073,0.0169805,0.700023,20.3169,85.5794,3.03469,0.0,0.0
1512,377.75,38.0205,44.5808,121.62,100.374,72.2075,0.01788,0.726544,20.2925,85.0889,3.18564,0.0,0.0
1521,380,38.9613,45.6624,128.466,100.367,76.114,0.018782,0.743553,20.2743,85.4893,2.67537,0.0,0.0
1530,382.25,40.2841,47.5379,119.651,100.334,75.4449,0.0194046,0.753916,20.2637,86.0198,2.75752,0.0,0.0
1539,384.5,40.7927,48.4643,128.321,100.32,75.0799,0.0198274,0.764866,20.2468,86.7805,2.80305,0.0,0.0
1548,386.75,42.1282,50.0001,128.848,100.282,76.077,0.0203962,0.779083,20.2288,87.0808,2.6718,0.0,0.0
1557,389,43.606,51.8637,121.608,100.23,72.1823,0.0213724,0.792098,20.2128,87.3811,3.17511,0.0,0.0
1566,391.25,45.2589,53.5827,117.065,100.166,72.6792,0.0221669,0.816637,20.1734,87.2409,3.10256,0.0,0.0
1575,393.5,46.1001,55.137,119.403,100.108,70.5871,0.0228508,0.851111,20.13,87.1308,3.37941,0.0,0.0
1584,395.75,47.4802,57.3997,123.024,100.067,67.4703,0.0238995,0.890499,20.0875,86.7104,3.81228,0.0,0.0
1593,398,48.9654,58.7059,113.047,100.128,69.9566,0.0254063,0.935803,20.0362,86.7004,3.46815,0.0,0.0
1602,400.25,50.3704,60.5945,115.418,100.384,69.8316,0.0275255,0.995198,19.9634,85.7896,3.51018,0.0,0.0
1611,402.5,52.4869,63.1061,115.533,100.575,66.2531,0.0309885,1.08077,19.8629,85.0289,4.03737,0.0,0.0
1620,404.75,54.7261,66.3599,116.537,100.724,65.5881,0.0345113,1.18289,19.7411,83.7177,4.14919,0.0,0.0
1629,407,56.5672,68.9067,110.446,100.817,65.1338,0.0370342,1.26239,19.6588,83.1972,4.22542,0.0,0.0
1638,409.25,59.3026,72.1353,109.456,100.882,64.6011,0.0383178,1.31408,19.6122,82.2663,4.31103,0.0,0.0
1647,411.5,60.6074,74.1198,113.38,100.874,64.7672,0.0387641,1.33263,19.6,81.8159,4.28543,0.0,0.0
1656,413.75,62.2307,76.422,113.317,100.836,65.0875,0.0387217,1.32719,19.613,81.3555,4.23412,0.0,0.0
1665,416,63.8098,78.0604,120.512,100.744,65.6977,0.0386435,1.30177,19.645,80.9351,4.13499,0.0,0.0
1674,418.25,64.2167,78.848,113.549,100.609,64.0851,0.0388571,1.2744,19.6724,79.9442,4.36237,0.0,0.0
1683,420.5,65.3725,80.198,116.492,100.423,62.9451,0.0387448,1.248,19.7064,79.1935,4.51816,0.0,0.0
1692,422.75,65.8291,81.1388,110.151,100.281,63.5253,0.0379095,1.22689,19.7259,79.2435,4.41569,0.0,0.0
1701,425,66.7857,82.2128,105.084,100.347,66.8528,0.0364772,1.2126,19.7426,78.1725,3.92825,0.0,0.0
1710,427.25,67.7222,83.2846,115.124,100.435,69.0379,0.0348733,1.18341,19.7801,77.9123,3.62567,0.0,0.0
1719,429.5,67.8597,83.2652,108.402,100.521,68.0947,0.0333016,1.14876,19.8189,77.7922,3.767,0.0,0.0
1728,431.75,67.8756,83.1255,116.525,100.628,67.204,0.0317593,1.11079,19.8704,76.8213,3.90458,0.0,0.0
1737,434,68.1523,83.6417,117.953,100.735,68.8276,0.030049,1.06745,19.9196,76.3508,3.68399,0.0,0.0
1746,436.25,67.8555,82.9762,113.671,100.835,73.5854,0.0287227,1.03536,19.9534,76.0906,3.04707,0.0,0.0
1755,438.5,67.4645,82.7993,113.739,100.919,68.8828,0.0280474,1.0135,19.9703,76.3408,3.69388,0.0,0.0
1764,440.75,68.091,82.886,116.388,100.976,70.6367,0.0277632,1.00831,19.9768,74.9095,3.45621,0.0,0.0
1773,443,68.2404,82.7243,121.808,101.025,69.5214,0.0273602,1.00442,19.9814,73.6283,3.61481,0.0,0.0
1782,445.25,67.9633,82.7128,114.74,101.063,74.4591,0.0263985,0.9974,19.9913,73.0578,2.95473,0.0,0.0
1791,447.5,67.7709,82.7375,114.074,101.055,77.7696,0.0247006,0.971745,20.0268,71.7265,2.53325,0.0,0.0
1800,449.75,67.9124,82.2244,119.228,101.045,77.9832,0.0230255,0.926521,20.0811,70.8057,2.50575,0.0,0.0
1809,452,67.7255,82.2209,119.896,101.006,75.5598,0.021861,0.879078,20.1362,70.9358,2.8074,0.0,0.0
1818,454.25,67.474,81.331,116.486,100.935,76.3604,0.0209882,0.844599,20.1751,70.3953,2.69865,0.0,0.0
1827,456.5,66.9626,80.5789,122.195,100.851,77.0323,0.0204827,0.819485,20.206,72.8176,2.60589,0.0,0.0
1836,458.75,65.2975,79.0082,117.859,100.741,77.4411,0.0200766,0.793199,20.2354,72.267,2.54414,0.0,0.0
1845,461,65.5212,78.7009,121.252,100.617,76.5898,0.019465,0.766492,20.2696,72.167,2.63908,0.0,0.0
1854,463.25,65.3628,78.3476,121.082,100.479,78.3295,0.0187577,0.742359,20.2958,72.8576,2.40861,0.0,0.0
1863,465.5,64.934,77.7769,122.321,100.356,78.2491,0.018095,0.727083,20.3107,73.8485,2.40669,0.0,0.0
1872,467.75,63.8686,75.9309,122.413,100.202,76.4343,0.0177896,0.71308,20.3265,74.4991,2.61877,0.0,0.0
1881,470,63.2452,75.7336,121.392,100.05,77.9255,0.0176841,0.702675,20.3386,75.1597,2.41718,0.0,0.0
1890,472.25,63.3823,75.3146,124.197,99.8944,75.0677,0.017921,0.697089,20.3442,75.9204,2.76355,0.0,0.0
1899,474.5,63.1071,74.7744,122.996,99.7543,75.0283,0.0184507,0.702557,20.3305,75.5201,2.75505,0.0,0.0
1908,476.75,62.2649,73.8001,122.255,99.6021,77.9361,0.018963,0.71075,20.3196,76.1707,2.37251,0.0,0.0
1917,479,61.9057,73.2817,123.211,99.4701,72.3569,0.0192298,0.71722,20.3127,75.5301,3.07812,0.0,0.0
1926,481.25,61.4353,72.7332,125.658,99.337,73.8729,0.0192911,0.722166,20.3073,75.9605,2.86461,0.0,0.0
1935,483.5,61.6592,72.5869,124.843,99.2229,74.507,0.0192378,0.724635,20.303,76.5911,2.77082,0.0,0.0
1944,485.75,61.3859,71.7003,124.514,99.1478,75.4558,0.0190099,0.730841,20.2952,77.2617,2.6411,0.0,0.0
1953,488,60.897,71.5391,120.421,99.086,74.8574,0.0187264,0.7377,20.2889,77.7221,2.71209,0.0,0.0
1962,490.25,60.5266,70.8346,123.86,99.028,75.386,0.0187246,0.73877,20.2873,77.602,2.63836,0.0,0.0
1971,492.5,60.9853,71.0365,123.283,99.0061,73.5131,0.0194771,0.738604,20.2877,79.3636,2.87955,0.0,0.0
1980,494.75,60.7133,70.6594,118.687,98.9874,72.1551,0.0199984,0.744663,20.2747,78.4027,3.05807,0.0,0.0
1989,497,61.0358,71.7611,121.131,98.9983,77.8812,0.0195381,0.755715,20.2669,78.2526,2.32051,0.0,0.0
1998,499.25,61.7349,71.7201,124.172,99.0259,78.0887,0.0185509,0.752876,20.2755,78.643,2.29748,0.0,0.0
2007,501.5,61.6545,71.5399,120.267,99.0621,76.2228,0.0176242,0.741611,20.2888,79.9442,2.53493,0.0,0.0
2016,503.75,61.3077,71.5721,120.522,99.1165,77.4192,0.0169093,0.726394,20.3079,79.9342,2.3896,0.0,0.0
2025,506,60.9476,70.5527,122.633,99.1766,78.5495,0.0164762,0.713766,20.3227,80.6048,2.25527,0.0,0.0
2034,508.25,61.1941,70.7048,122.744,99.233,76.4875,0.0164044,0.702324,20.3334,81.6357,2.51807,0.0,0.0
2043,510.5,60.5721,70.0415,118.37,99.3029,77.0871,0.0167408,0.700237,20.3343,83.0771,2.44935,0.0,0.0
2052,512.75,61.2146,70.5247,126.842,99.3784,77.472,0.0172302,0.703595,20.3318,80.9951,2.40853,0.0,0.0
2061,515,60.656,69.8307,123.409,99.4397,77.9198,0.0174972,0.70334,20.3321,82.0761,2.35875,0.0,0.0
2070,517.25,60.5162,69.7473,122.517,99.5176,80.6112,0.0177663,0.700584,20.3319,81.6858,2.03789,0.0,0.0
2079,519.5,60.6564,69.9701,122.791,99.5806,76.0681,0.01859,0.70923,20.3197,83.6176,2.60507,0.0,0.0
2088,521.75,59.7238,68.6695,122.452,99.6638,75.0681,0.0199088,0.727695,20.2964,83.9979,2.74114,0.0,0.0
2097,524,60.7777,69.3666,118.062,99.7345,76.5569,0.0205865,0.746686,20.2763,82.7067,2.55805,0.0,0.0
2106,526.25,61.3288,70.4217,120.409,99.7803,75.9256,0.0204759,0.752482,20.2743,85.7095,2.64259,0.0,0.0
2115,528.5,61.5203,70.1875,127.257,99.8559,79.8183,0.0202313,0.745488,20.2841,99.4623,2.16631,0.0,0.0
2124,530.75,61.6551,70.6857,118.756,99.9082,78.895,0.0201218,0.738151,20.2907,100.773,2.28391,0.0,0.0
2133,533,60.8652,69.6163,124.227,99.9496,77.4923,0.0202245,0.733938,20.2943,100.904,2.46143,0.0,0.0
2142,535.25,60.8295,69.7958,122.857,100.015,74.9187,0.0206926,0.730326,20.2962,102.925,2.79439,0.0,0.0
2151,537.5,61.7708,70.0414,125.559,100.065,76.8009,0.0209646,0.730917,20.2995,100.683,2.55927,0.0,0.0
2160,539.75,61.8027,70.1012,118.169,100.127,76.8736,0.0208129,0.725915,20.3092,102.405,2.55617,0.0,0.0
2169,542,61.1177,69.5872,119.456,100.158,75.8659,0.0201948,0.714814,20.3239,105.948,2.68673,0.0,0.0
2178,544.25,61.411,69.6145,122.956,100.207,73.883,0.0198886,0.708304,20.3313,104.767,2.94767,0.0,0.0
2187,546.5,60.4034,69.3217,121.886,100.244,75.872,0.0205315,0.704161,20.3343,111.423,2.6943,0.0,0.0
2196,548.75,60.9495,69.3769,124.178,100.282,74.453,0.0219667,0.711788,20.3224,114.937,2.88054,0.0,0.0
2205,551,61.1415,69.3763,122.255,100.307,69.1426,0.0245339,0.741788,20.2685,120.852,3.59864,0.0,0.0
2214,553.25,60.4909,69.2976,120.544,100.327,64.6491,0.028676,0.797118,20.2033,116.098,4.2505,0.0,0.0
2223,555.5,61.5898,70.1976,115.626,100.343,57.374,0.0348754,0.879645,20.1093,118.96,5.40674,0.0,0.0
2232,557.75,62.5287,71.3026,116.502,100.363,60.8985,0.040739,0.960568,20.0033,116.018,4.832,0.0,0.0
2241,560,63.2163,72.0991,116.697,100.371,56.4366,0.0446431,1.02824,19.933,108.641,5.56878,0.0,0.0
2250,562.25,64.11,73.6002,113.435,100.376,58.4044,0.0474485,1.0748,19.8886,103.826,5.23775,0.0,0.0
2259,564.5,64.9886,74.0056,121.69,100.384,55.081,0.0494646,1.09914,19.8658,93.8671,5.80519,0.0,0.0
2268,566.75,65.2345,74.4417,119.184,100.387,56.4479,0.0513585,1.11292,19.8483,91.655,5.5684,0.0,0.0
2277,569,65.8393,75.6105,115.513,100.404,58.3042,0.0511729,1.12906,19.8403,90.7842,5.2571,0.0,0.0
2286,571.25,66.8175,76.393,117.418,100.381,63.1875,0.0475895,1.11401,19.8809,89.2828,4.47692,0.0,0.0
2295,573.5,66.3275,76.6248,116.197,100.376,63.397,0.0430607,1.05495,19.957,88.5722,4.44436,0.0,0.0
2304,575.75,66.8702,76.692,120.224,100.387,65.0352,0.0390651,0.985595,20.0208,88.2719,4.1987,0.0,0.0
2313,578,65.9729,75.8862,123.489,100.368,68.0996,0.0358524,0.929691,20.0806,86.6804,3.75152,0.0,0.0
2322,580.25,66.3191,75.8172,122.732,100.365,64.5504,0.0341254,0.890056,20.1076,106.369,4.26899,0.0,0.0
2331,582.5,66.1712,75.6986,119.283,100.356,63.5358,0.0342383,0.889429,20.1104,113.726,4.42132,0.0,0.0
2340,584.75,66.1738,75.6896,119.141,100.334,63.0263,0.035638,0.903124,20.0921,118.04,4.49709,0.0,0.0
2349,587,66.3684,76.0408,119.499,100.314,61.8887,0.0374087,0.920767,20.0679,145.365,4.6713,0.0,0.0
2358,589.25,66.577,75.607,117.916,100.315,58.2684,0.0396201,0.94622,20.0378,156.045,5.25442,0.0,0.0
2367,591.5,67.0555,76.4022,113.779,100.304,61.1352,0.0417025,0.966666,20.0074,165.484,4.78885,0.0,0.0
2376,593.75,66.9319,76.45,114.678,100.291,61.4961,0.0444403,1.00678,19.954,211.506,4.73066,0.0,0.0
2385,596,67.2319,76.5225,114.708,100.285,55.5669,0.0484246,1.07147,19.8812,258.92,5.71068,0.0,0.0
2394,598.25,69.1235,78.4108,110.803,100.28,57.2206,0.0537094,1.14619,19.7968,283.163,5.42658,0.0,0.0
2403,600.5,69.8245,79.6898,110.52,100.273,57.3143,0.0595786,1.23947,19.6707,318.856,5.41007,0.0,0.0
2412,602.75,71.1108,82.1343,103.796,100.268,52.2029,0.0671227,1.38237,19.5049,377.2,6.31307,0.0,0.0
2421,605,73.1149,84.7291,99.3972,100.264,54.137,0.0731054,1.52008,19.3588,344.97,5.96076,0.0,0.0
2430,607.25,74.9146,87.1446,106.447,100.256,49.7271,0.0813789,1.5919,19.2928,402.113,6.78184,0.0,0.0
2439,609.5,76.9183,88.8443,108.273,100.251,46.7483,0.089472,1.62239,19.2687,393.165,7.37879,0.0,0.0
2448,611.75,77.2748,90.1412,100.934,100.238,49.961,0.0927563,1.62376,19.2747,365.629,6.73469,0.0,0.0
2457,614,78.6972,91.7774,110.978,100.24,54.0611,0.0913919,1.59017,19.3404,361.405,5.9721,0.0,0.0
2466,616.25,79.9918,93.2179,113.412,100.233,49.2115,0.0902989,1.50368,19.4429,395.097,6.88041,0.0,0.0
2475,618.5,79.2445,92.1793,113.905,100.223,47.5591,0.0899232,1.41948,19.5175,414.475,7.20982,0.0,0.0
2484,620.75,79.2804,92.4328,108.749,100.195,50.1368,0.0883397,1.38457,19.5492,401.953,6.69661,0.0,0.0
2493,623,79.8202,93.2206,114.746,100.198,48.0321,0.0845639,1.36908,19.5716,409.65,7.11171,0.0,0.0
2502,625.25,79.8654,93.1541,112.995,100.188,52.3088,0.0793956,1.33232,19.6177,426.956,6.2857,0.0,0.0
2511,627.5,79.0579,91.8581,112.245,100.197,50.9219,0.0733603,1.30641,19.642,423.583,6.54646,0.0,0.0
2520,629.75,79.4968,92.3695,112.619,100.173,54.4334,0.0652004,1.28319,19.6627,409.13,5.89925,0.0,0.0
2529,632,79.6615,92.5617,116.359,100.179,61.0304,0.0574019,1.23432,19.7184,378.581,4.79333,0.0,0.0
2538,634.25,78.8886,91.545,118.738,100.157,61.7076,0.0478814,1.14167,19.8661,349.825,4.68448,0.0,0.0
2547,636.5,78.5241,90.6262,115.589,100.151,67.6855,0.0402384,1.03312,19.9943,342.167,3.78964,0.0,0.0
2556,638.75,76.9596,89.1298,120.629,100.14,68.9226,0.0335895,0.940682,20.0921,337.813,3.61333,0.0,0.0
2565,641,76.6469,88.4337,118.25,100.145,68.3578,0.0283771,0.867802,20.1696,330.597,3.69338,0.0,0.0
2574,643.25,74.9193,86.4131,120.63,100.131,74.1692,0.0247924,0.813414,20.2314,312.58,2.90286,0.0,0.0
2583,645.5,74.3697,85.4013,122.282,100.128,76.8098,0.0214507,0.759667,20.2911,300.729,2.56423,0.0,0.0
2592,647.75,73.5255,83.9965,121.151,100.131,78.2686,0.0186831,0.714105,20.3438,295.154,2.38258,0.0,0.0
2601,650,72.4246,82.5452,123.011,100.13,80.1776,0.0164619,0.674299,20.3838,285.195,2.14934,0.0,0.0
2610,652.25,71.532,80.8332,122.413,100.128,80.6225,0.0147354,0.638384,20.4134,277.487,2.0957,0.0,0.0
2619,654.5,70.0773,79.6287,121.635,100.125,84.1786,0.013256,0.605725,20.4541,272.693,1.67794,0.0,0.0
2628,656.75,69.0276,78.3794,125.282,100.126,84.7958,0.0121032,0.574154,20.4909,270.571,1.60734,0.0,0.0
2637,659,67.6155,76.7842,125.568,100.129,84.028,0.011101,0.550038,20.5157,261.893,1.69558,0.0,0.0
2646,661.25,66.9849,75.6099,124.601,100.139,85.19,0.0103035,0.528322,20.5411,260.231,1.56373,0.0,0.0
2655,663.5,66.4327,74.4336,125.732,100.136,86.421,0.00973237,0.507963,20.5618,258.84,1.42465,0.0,0.0
2664,665.75,65.2254,72.8812,122.97,100.147,86.1225,0.00916781,0.49102,20.5776,254.766,1.45921,0.0,0.0
2673,668,64.3053,71.5076,130.755,100.15,86.6857,0.00860416,0.477636,20.5918,251.383,1.39649,0.0,0.0
2682,670.25,63.0254,69.9382,125.246,100.158,87.9199,0.00809721,0.46483,20.6064,252.604,1.26049,0.0,0.0
2691,672.5,62.4802,70.0135,128.288,100.161,86.9142,0.00764634,0.451995,20.6194,250.663,1.37207,0.0,0.0
2700,674.75,62.5061,68.5241,125.827,100.165,88.2309,0.0073351,0.441465,20.6289,248.821,1.22701,0.0,0.0
2709,677,61.3584,67.4295,128.234,100.185,89.8407,0.0071811,0.433124,20.6381,248.22,1.05409,0.0,0.0
2718,679.25,60.5738,66.0619,126.177,100.187,88.703,0.00708369,0.426036,20.6461,247.82,1.17754,0.0,0.0
2727,681.5,59.8496,65.3816,127.41,100.194,89.8078,0.00698287,0.418638,20.6538,248.12,1.05849,0.0,0.0
2736,683.75,59.3096,64.7646,130.988,100.212,90.3226,0.00674678,0.410132,20.662,246.268,1.00497,0.0,0.0
2745,686,58.8845,63.6749,123.807,100.218,90.0753,0.00635736,0.403001,20.6691,246.849,1.03207,0.0,0.0
2754,688.25,58.558,63.1804,128.834,100.238,92.1516,0.00611471,0.395968,20.6767,248.661,0.813578,0.0,0.0
2763,690.5,57.0222,61.8117,128.26,100.238,92.7216,0.00608318,0.390182,20.683,249.161,0.753856,0.0,0.0
2772,692.75,57.127,61.0907,129.801,100.251,92.9847,0.00599191,0.383175,20.69,250.202,0.727784,0.0,0.0
2781,695,56.19,60.3783,129.455,100.259,93.3748,0.00584862,0.375648,20.6991,250.572,0.688029,0.0,0.0
2790,697.25,56.0073,59.6075,129.892,100.265,93.886,0.00574386,0.368506,20.7061,251.403,0.635774,0.0,0.0
2799,699.5,55.2416,59.0954,131.43,100.285,93.9818,0.00554569,0.363274,20.7126,252.074,0.627907,0.0,0.0
2808,701.75,54.792,58.5553,129.886,100.295,94.1767,0.00544797,0.358519,20.7187,251.814,0.608773,0.0,0.0
2817,704,54.2487,57.932,132.11,100.301,95.5498,0.00541062,0.35365,20.7249,252.815,0.469399,0.0,0.0
2826,706.25,54.0701,57.3681,129.179,100.321,95.227,0.00527947,0.349276,20.7299,252.444,0.504006,0.0,0.0
2835,708.5,53.7873,56.441,131.659,100.337,95.1779,0.00509446,0.345475,20.7355,253.625,0.510602,0.0,0.0
2844,710.75,52.7082,55.6711,127.763,100.351,95.1608,0.00489719,0.342363,20.739,254.636,0.513665,0.0,0.0
2853,713,52.6583,55.3283,127.141,100.376,94.1048,0.00471872,0.340245,20.7412,254.346,0.624023,0.0,0.0
2862,715.25,52.1759,54.9409,130.746,100.368,95.875,0.00465792,0.337336,20.7446,256.578,0.442955,0.0,0.0
2871,717.5,52.2384,54.0703,128.238,100.382,95.0276,0.0046771,0.33471,20.7474,257.038,0.530144,0.0,0.0
2880,719.75,51.4792,53.6465,130.269,100.369,95.5579,0.0046896,0.332041,20.7488,258.13,0.475114,0.0,0.0
2889,722,50.5246,52.8554,130.911,100.379,97.9735,0.00474649,0.330323,20.7504,259.531,0.234625,0.0,0.0
2898,724.25,50.8766,53.1644,130.557,100.367,95.6078,0.0047638,0.32974,20.751,261.122,0.469865,0.0,0.0
2907,726.5,50.193,52.284,127.606,100.356,96.9801,0.00485281,0.328281,20.7515,257.849,0.330971,0.0,0.0
2916,728.75,50.0258,51.8999,126.436,100.334,97.7007,0.0049846,0.326222,20.7533,258.38,0.257252,0.0,0.0
2925,731,49.5146,51.1825,131.964,100.33,98.0905,0.00494645,0.323945,20.7562,260.091,0.218391,0.0,0.0
2934,733.25,48.6553,50.813,128.178,100.291,96.8096,0.00472461,0.322326,20.7588,262.453,0.341729,0.0,0.0
2943,735.5,48.3032,49.9216,132.91,100.261,97.5635,0.00445996,0.321406,20.7605,263.575,0.263759,0.0,0.0
2952,737.75,48.9622,50.8613,133.68,100.234,97.1051,0.00422089,0.319573,20.7627,264.395,0.306722,0.0,0.0
2961,740,48.5593,50.1398,127.949,100.177,97.2017,0.00407204,0.317387,20.7644,265.016,0.291656,0.0,0.0
2970,742.25,48.7429,50.2773,130.082,100.136,97.7157,0.00403957,0.314974,20.7651,265.747,0.236646,0.0,0.0
2979,744.5,47.9242,49.6606,133.659,100.078,97.6772,0.00417169,0.312271,20.7665,267.118,0.234894,0.0,0.0
2988,746.75,47.6628,49.4852,131.816,100.016,97.6573,0.00438087,0.309316,20.7685,267.438,0.230819,0.0,0.0
2997,749,47.5155,49.1517,131.765,99.9683,98.665,0.00443176,0.306065,20.7714,268.99,0.126933,0.0,0.0
3006,751.25,47.4476,48.7526,130.224,99.9176,97.6569,0.00434807,0.302896,20.7773,270.441,0.221352,0.0,0.0
3015,753.5,47.0799,48.5925,132.242,99.8555,98.3556,0.00427363,0.299326,20.7824,271.712,0.146381,0.0,0.0
3024,755.75,46.3935,47.5012,134.021,99.8246,97.8854,0.00418219,0.295234,20.7886,272.523,0.189735,0.0,0.0
3033,758,46.6515,47.7707,131.715,99.7588,97.9147,0.00405053,0.292356,20.7918,263.084,0.180472,0.0,0.0
3042,760.25,46.0156,46.6806,132.483,99.674,98.5915,0.00401544,0.290651,20.7943,262.413,0.105616,0.0,0.0
3051,762.5,46.2192,47.2589,133.33,99.6358,98.6378,0.00406444,0.288064,20.7998,262.353,0.097373,0.0,0.0
3060,764.75,44.9431,46.5654,133.744,99.5704,97.5952,0.00411332,0.28406,20.8065,263.034,0.193804,0.0,0.0
3069,767,45.4014,46.2713,133.878,99.5059,99.5001,0.00408777,0.280113,20.8145,264.465,0.00056265,0.0,0.0
3078,769.25,45.1562,46.013,131.126,99.4381,97.6171,0.00394581,0.277676,20.8205,264.856,0.178763,0.0,0.0
3087,771.5,45.3627,46.0993,132.799,99.3707,98.4449,0.00379714,0.275659,20.823,266.277,0.0905287,0.0,0.0
3096,773.75,44.3286,45.85,132.656,99.3167,98.8619,0.00374372,0.273985,20.8225,266.557,0.0443924,0.0,0.0
3105,776,44.3701,45.65,136.93,99.2371,99.8691,0.00382936,0.273074,20.8223,267.919,-0.0614081,0.0,0.0
3114,778.25,44.4892,44.9995,136.056,99.2005,99.7851,0.00385246,0.272461,20.8217,266.777,-0.0568276,0.0,0.0
3123,780.5,43.8316,45.2885,131.534,99.1478,98.5907,0.00387631,0.271358,20.8224,266.277,0.0544986,0.0,0.0
3132,782.75,44.1674,44.8365,133.771,99.1031,99.0957,0.00382026,0.269205,20.8249,267.498,0.000719448,0.0,0.0
3141,785,43.3128,44.1425,131.331,99.0613,99.2459,0.0036314,0.266894,20.8281,267.698,-0.0180134,0.0,0.0
3150,787.25,43.6539,44.3945,133.478,99.0422,99.0584,0.00355959,0.26519,20.8308,268.129,-0.00158032,0.0,0.0
3159,789.5,43.2771,43.5087,133.687,99.0178,99.1404,0.00368931,0.263342,20.8325,268.639,-0.0119635,0.0,0.0
3168,791.75,43.2309,43.9554,134.66,98.9951,99.6065,0.00385207,0.262457,20.8316,270.181,-0.0595494,0.0,0.0
3177,794,43.361,43.358,132.376,98.9979,99.2934,0.00389497,0.260901,20.8312,271.312,-0.0288277,0.0,0.0
3186,796.25,42.3485,43.3349,134.579,98.991,99.7944,0.00387732,0.259783,20.831,273.324,-0.0781816,0.0,0.0
3195,798.5,42.1161,42.9348,135.866,98.9833,99.984,0.00380467,0.257772,20.832,273.714,-0.0972934,0.0,0.0
3204,800.75,41.7778,42.6696,131.951,98.9955,100.206,0.00377584,0.255406,20.8336,274.345,-0.117563,0.0,0.0
3213,803,41.3507,42.1221,130.521,99.0215,99.6897,0.00376647,0.25312,20.8368,276.426,-0.0650494,0.0,0.0
3222,805.25,41.9456,42.17,132.257,99.0491,100.859,0.00373272,0.249896,20.8428,277.768,-0.175137,0.0,0.0
3231,807.5,40.8471,41.3884,135.774,99.0877,100.729,0.00377246,0.245341,20.8494,278.989,-0.158866,0.0,0.0
3240,809.75,41.7789,41.7819,129.89,99.1421,100.806,0.00384019,0.242805,20.8522,279.89,-0.161,0.0,0.0
3249,812,41.0456,41.6287,133.249,99.2119,100.844,0.00384848,0.241664,20.8534,281.541,-0.157771,0.0,0.0
3258,814.25,41.2093,41.4354,137.144,99.283,101.868,0.00388254,0.239684,20.855,281.982,-0.248635,0.0,0.0
3267,816.5,40.8358,41.1794,133.684,99.3573,101.449,0.00394561,0.237545,20.8557,283.183,-0.201536,0.0,0.0
3276,818.75,40.5131,40.7958,132.978,99.4584,101.48,0.0040235,0.23595,20.8573,263.264,-0.194602,0.0,0.0
3285,821,40.3291,40.78,133.251,99.5489,101.565,0.00406718,0.233415,20.8593,262.033,-0.193923,0.0,0.0
3294,823.25,40.0855,40.5753,134.415,99.6313,101.868,0.00399384,0.230296,20.8627,262.273,-0.214719,0.0,0.0
3303,825.5,40.0779,40.3295,131.294,99.7527,102.254,0.00403665,0.226457,20.8666,262.734,-0.239492,0.0,0.0
3312,827.75,39.9599,39.9599,134.241,99.8697,102.141,0.00408942,0.222639,20.8722,263.024,-0.217517,0.0,0.0
3321,830,39.7883,39.8136,134.33,99.9821,102.066,0.00402813,0.218385,20.8767,263.094,-0.199516,0.0,0.0
3330,832.25,38.8825,39.1969,134.698,100.089,102.319,0.00393437,0.214041,20.8833,263.494,-0.21313,0.0,0.0
3339,834.5,39.0919,39.3318,134.461,100.207,102.553,0.00393988,0.209901,20.8897,264.906,-0.2238,0.0,0.0
3348,836.75,38.7261,38.7783,136.292,100.328,103.096,0.00422574,0.205574,20.897,265.977,-0.263266,0.0,0.0
3357,839,38.4524,38.4002,133.913,100.434,103.568,0.00464382,0.201049,20.9064,265.166,-0.297213,0.0,0.0
3366,841.25,38.4212,38.3855,131.133,100.551,103.098,0.0048334,0.19531,20.9183,264.245,-0.241874,0.0,0.0
3375,843.5,37.8116,37.831,135.519,100.656,103.714,0.00485782,0.189472,20.928,263.905,-0.289527,0.0,0.0
3384,845.75,37.6178,38.313,133.513,100.745,103.949,0.00484724,0.18368,20.9371,264.375,-0.302807,0.0,0.0
3393,848,37.6892,37.6982,138.617,100.833,103.968,0.00492921,0.179507,20.9434,265.196,-0.296126,0.0,0.0
3402,850.25,37.8645,37.5452,133.946,100.909,103.936,0.00501088,0.175499,20.9482,265.616,-0.285822,0.0,0.0
3411,852.5,37.2187,37.0739,137.406,100.971,103.634,0.00500114,0.17153,20.9539,260.061,-0.251721,0.0,0.0
3420,854.75,36.6726,36.6189,135.904,101.017,104.353,0.00498401,0.166924,20.9611,259.401,-0.314201,0.0,0.0
3429,857,37.0189,36.2678,138.117,101.043,103.614,0.00505565,0.162615,20.9663,259.871,-0.243019,0.0,0.0
3438,859.25,36.5594,35.8484,133.57,101.056,104.142,0.00512978,0.159304,20.9716,259.731,-0.290997,0.0,0.0
3447,861.5,35.7885,36.035,139.827,101.064,103.862,0.00524009,0.155335,20.9766,260.031,-0.264167,0.0,0.0
3456,863.75,36.1515,35.6569,133.377,101.042,103.941,0.00530662,0.151807,20.9791,260.582,-0.273598,0.0,0.0
3465,866,35.9172,35.6362,133.986,101.003,104.091,0.00534814,0.149026,20.9801,261.082,-0.291221,0.0,0.0
3474,868.25,35.411,34.8414,136.043,100.974,102.651,0.00547045,0.146138,20.9817,261.262,-0.159313,0.0,0.0
3483,870.5,35.3719,35.1043,134.898,100.922,103.709,0.00566183,0.143912,20.9811,261.823,-0.263397,0.0,0.0
3492,872.75,34.6058,34.4831,138.058,100.845,104.174,0.00588227,0.142092,20.9804,262.654,-0.314127,0.0,0.0
3501,875,34.7681,34.5975,136.079,100.783,103.984,0.00595559,0.140371,20.9792,263.424,-0.30239,0.0,0.0
3510,877.25,34.6544,33.7579,137.582,100.706,102.995,0.00597321,0.13851,20.9772,260.932,-0.217365,0.0,0.0
3519,879.5,34.3313,33.5348,138.876,100.618,103.364,0.00608598,0.136693,20.9765,261.603,-0.260387,0.0,0.0
3528,881.75,33.6821,33.05,141.983,100.543,103.805,0.00641904,0.134415,20.977,260.962,-0.308818,0.0,0.0
3537,884,33.7067,33.3188,136.959,100.463,102.746,0.00677192,0.130779,20.9785,259.621,-0.217274,0.0,0.0
3546,886.25,33.2047,32.7298,137.807,100.4,103.66,0.0070515,0.126648,20.9806,259.15,-0.309139,0.0,0.0
3555,888.5,32.8432,32.1627,137.113,100.331,102.886,0.00704335,0.123558,20.9817,258.79,-0.243163,0.0,0.0
3564,890.75,33.128,32.4777,139.566,100.294,103.344,0.00687764,0.12138,20.9821,258.72,-0.28972,0.0,0.0
3573,893,32.4864,32.0261,137.438,100.365,103.06,0.00672055,0.119621,20.9823,258.69,-0.256313,0.0,0.0
3582,895.25,32.0447,31.4897,138.078,100.514,103.852,0.00662641,0.118,20.9836,259.661,-0.316016,0.0,0.0
3591,897.5,31.7056,30.7217,138.359,100.634,103.858,0.00657906,0.116359,20.9856,259.06,-0.30495,0.0,0.0
3600,899.75,32.2008,31.0577,137.114,100.736,102.929,0.00635245,0.114884,20.9865,259.14,-0.208302,0.0,0.0
3609,902,32.2126,30.4735,135.24,100.813,104.298,0.00607993,0.113948,20.9869,260.051,-0.328693,0.0,0.0
3618,904.25,31.7135,30.8114,138.17,100.86,103.777,0.00589201,0.113262,20.9873,260.291,-0.275788,0.0,0.0
3627,906.5,31.7037,30.9954,140.758,100.886,104.31,0.0056848,0.112516,20.9871,260.412,-0.322813,0.0,0.0
3636,908.75,31.739,30.795,139.662,100.885,104.262,0.00552866,0.111815,20.9878,260.882,-0.318526,0.0,0.0
3645,911,31.0167,30.039,143.51,100.856,105.012,0.00542273,0.111199,20.9882,260.992,-0.390528,0.0,0.0
3654,913.25,29.8061,29.3388,140.188,100.806,104.597,0.00536752,0.110615,20.9888,260.702,-0.357064,0.0,0.0
3663,915.5,30.3487,28.4012,137.704,100.726,104.322,0.00535028,0.109844,20.9902,260.662,-0.339293,0.0,0.0
3672,917.75,29.8329,29.035,139.236,100.626,104.813,0.005354,0.109057,20.9916,260.472,-0.394291,0.0,0.0
3681,920,29.7608,29.1086,140.778,100.489,104.624,0.00530848,0.108729,20.9921,260.722,-0.390016,0.0,0.0
3690,922.25,30.3207,28.5684,141.471,100.355,104.563,0.00509165,0.108571,20.9923,260.742,-0.397288,0.0,0.0
3699,924.5,29.5891,28.8361,138.846,100.173,103.978,0.00491236,0.108561,20.9913,261.963,-0.360528,0.0,0.0
3708,926.75,29.0524,28.7021,140.844,100.048,104.271,0.00488851,0.108867,20.9904,261.873,-0.399802,0.0,0.0
3717,929,29.1142,28.4977,135.895,100.057,104.222,0.00500104,0.109577,20.9872,261.963,-0.394418,0.0,0.0
3726,931.25,29.1068,28.1068,138.121,100.102,104.579,0.00492502,0.1105,20.9843,262.534,-0.4232,0.0,0.0
3735,933.5,28.8741,28.0815,138.261,100.141,104.553,0.00473495,0.111088,20.9831,262.524,-0.416995,0.0,0.0
3744,935.75,29.4152,28.3039,138.544,100.151,104.528,0.00455847,0.1114,20.9827,262.033,-0.413723,0.0,0.0
3753,938,29.0574,27.8602,140.54,100.2,104.816,0.0044057,0.11123,20.9835,262.343,-0.435578,0.0,0.0
3762,940.25,28.6163,27.5183,139.378,100.238,105.009,0.00426591,0.110911,20.9843,262.554,-0.44975,0.0,0.0
3771,942.5,28.8404,27.837,138.956,100.276,104.84,0.00414415,0.110257,20.9859,262.594,-0.4305,0.0,0.0
3780,944.75,28.1403,27.1909,140.682,100.291,105.176,0.00408368,0.109426,20.9883,262.824,-0.460016,0.0,0.0
3789,947,28.6095,27.8377,138.721,100.322,105.394,0.00412478,0.109013,20.9905,262.574,-0.477107,0.0,0.0
3798,949.25,27.8751,27.2518,139.919,100.348,105.498,0.00418911,0.108571,20.9909,262.964,-0.484135,0.0,0.0
3807,951.5,27.9325,27.1134,139.395,100.348,104.917,0.0041732,0.108233,20.9911,262.664,-0.430686,0.0,0.0
3816,953.75,27.7912,27.3591,140.725,100.349,105.266,0.00406473,0.108082,20.9911,262.754,-0.462703,0.0,0.0
3825,956,27.8726,26.9933,137.408,100.356,105.64,0.00388242,0.107971,20.9911,263.174,-0.496297,0.0,0.0
3834,958.25,27.9029,27.1984,139.828,100.388,104.974,0.00372817,0.107765,20.9916,262.964,-0.432013,0.0,0.0
3843,960.5,27.3471,26.704,137.716,100.374,105.279,0.00369985,0.107669,20.9919,263.104,-0.461434,0.0,0.0
3852,962.75,28.0419,27.1629,143.98,100.373,105.268,0.00374059,0.107712,20.9915,263.254,-0.460544,0.0,0.0
3861,965,27.1569,27.0876,142.257,100.365,105.078,0.00357299,0.107792,20.9912,263.044,-0.443888,0.0,0.0
3870,967.25,27.4125,26.6324,139.068,100.329,105.032,0.00332612,0.107982,20.9903,263.384,-0.443033,0.0,0.0
3879,969.5,26.9938,26.7919,138.719,100.286,105.467,0.00333806,0.108171,20.9894,263.484,-0.487181,0.0,0.0
3888,971.75,27.306,26.5921,136.568,100.238,105.123,0.0034349,0.108185,20.989,263.905,-0.460253,0.0,0.0
3897,974,26.4953,26.2814,142.377,100.175,105.113,0.00345295,0.108225,20.9885,264.295,-0.465433,0.0,0.0
3906,976.25,27.3927,26.6832,141.006,100.099,105.139,0.00334383,0.108306,20.9883,264.095,-0.475116,0.0,0.0
3915,978.5,26.9667,25.8998,138.207,100.024,105.084,0.00320734,0.108133,20.9884,264.846,-0.477336,0.0,0.0
3924,980.75,27.431,26.4277,135.065,99.9411,105.252,0.00314867,0.107937,20.9901,264.806,-0.500806,0.0,0.0
3933,983,27.5106,26.4049,144.23,99.8437,105.005,0.00319657,0.107636,20.9909,264.385,-0.487493,0.0,0.0
3942,985.25,26.8727,26.2187,142.234,99.7511,104.696,0.00319179,0.107501,20.9912,264.355,-0.467964,0.0,0.0
3951,987.5,27.0414,26.38,138.981,99.6727,104.703,0.00316712,0.107509,20.9913,264.505,-0.476165,0.0,0.0
3960,989.75,27.1977,26.2229,139.975,99.5696,104.738,0.00312851,0.10721,20.9911,264.055,-0.489441,0.0,0.0
3969,992,26.5293,26.2355,139.245,99.4673,104.471,0.00305823,0.10689,20.9907,264.295,-0.474759,0.0,0.0
3978,994.25,26.8335,26.2835,143.165,99.3942,104.628,0.00299179,0.106551,20.9906,264.896,-0.496366,0.0,0.0
3987,996.5,26.6183,26.0335,140.417,99.3045,104.373,0.00304719,0.106229,20.9915,264.375,-0.481466,0.0,0.0
3996,998.75,26.3268,26.2665,140.92,99.2493,104.636,0.00318375,0.10593,20.9932,264.005,-0.511232,0.0,0.0
4005,1001,26.4664,26.0836,137.924,99.1644,104.439,0.00327326,0.105855,20.9944,264.245,-0.501213,0.0,0.0
4014,1003.25,26.3109,25.916,142.303,99.1307,104.396,0.00325496,0.105882,20.9941,264.475,-0.500513,0.0,0.0
4023,1005.5,26.3183,25.5148,137.37,99.067,104.683,0.0032943,0.105968,20.9933,264.475,-0.53333,0.0,0.0
4032,1007.75,25.3176,25.5936,139.847,99.0304,104.485,0.00341794,0.106046,20.993,264.045,-0.518575,0.0,0.0
4041,1010,25.723,25.7803,144.122,98.9951,104.237,0.0034164,0.10591,20.9929,264.205,-0.499073,0.0,0.0
4050,1012.25,26.5376,25.6797,142.654,98.9744,104.373,0.00329099,0.105536,20.9955,264.015,-0.51367,0.0,0.0
4059,1014.5,26.1545,25.7262,141.84,98.9752,104.396,0.0033619,0.104937,20.9973,263.815,-0.515698,0.0,0.0
4068,1016.75,25.9435,25.5544,137.288,98.9545,104.275,0.00340036,0.104465,20.998,264.025,-0.506506,0.0,0.0
4077,1019,25.8804,25.3857,137.508,98.9768,104.516,0.00327381,0.104206,20.9987,263.805,-0.526667,0.0,0.0
4086,1021.25,26.0451,25.2124,138.778,98.989,104.377,,0.104118,,264.485,-0.512656,0.0,0.0
4095,1023.5,25.9598,24.8269,143.885,99.0142,104.037,,0.104468,,264.125,-0.478619,0.0,0.0
4104,1025.75,25.6545,25.4569,143.193,99.0377,104.606,,,,264.145,-0.529055,0.0,0.0
4113,1028,25.8327,24.7133,140.032,99.0946,104.224,,,,264.085,-0.488153,0.0,0.0
4122,1030.25,25.3742,25.154,139.428,99.1482,104.124,,,,263.755,-0.473613,0.0,0.0
4128,1031.75,25.7404,25.146,138.558,99.1912,104.69,,,,263.404,-0.521882,0.0,0.0