File: 01_Data/PET/Cone/PET_Cone_HF75Scan_220207_R3.csv
Names,Time,Stack TC,Smoke TC,Exh Press,Smoke Comp,Smoke Meas,CO Meter,CO2 Meter,O2 Meter,Sample Mass,Ext Coeff,Start Test,Flame Verif
Chan Gain,,500,500,1,1,1,1,1,1,1,1,1.0,1.0
Offset,,0,0,0.134889,0,0,0,0,0,0,0,0.0,0.0
Gain,,1,1,25.011,12.9892,12.3331,1,1,1,1.00088,1.02973,1.0,1.0
Units,sec,C,C,Pa,%,%,%,%,%,g,/m,,
Baseline,,38.0328,40.5954,150.648,96.2511,95.5988,-0.00214129,0.0439519,21.0308,-0.224906,0.0614599,,
4,0.75,32.9508,34.1421,151.931,96.8937,96.199,-0.00208865,0.0492809,21.0238,961.204,0.0649951,0.0,0.0
8,1.75,32.5043,33.7813,150.129,96.9159,96.2197,-0.00207434,0.0498252,21.0234,961.244,0.0651213,0.0,0.0
12,2.75,32.3334,34.6943,153.041,96.9247,96.2288,-0.00208133,0.0500646,21.023,961.194,0.065086,0.0,0.0
16,3.75,32.9522,34.1582,151.132,96.9417,96.3722,-0.00208748,0.0500177,21.0227,961.214,0.0532234,0.0,0.0
20,4.75,32.9806,34.1218,151.155,96.954,95.8471,-0.00207929,0.0499118,21.0226,961.274,0.103715,0.0,0.0
24,5.75,33.0747,34.4136,150.525,96.9639,96.2435,-0.0020601,0.0496609,21.0224,961.244,0.0673649,0.0,0.0
28,6.75,32.8685,34.7627,153.803,96.9782,96.0771,-0.00205148,0.0492721,21.0226,961.204,0.0843202,0.0,0.0
32,7.75,33.3415,34.7666,148.491,96.9837,95.7734,-0.00205224,0.0489069,21.0233,961.214,0.113439,0.0,0.0
36,8.75,33.6468,35.0925,153.74,96.996,96.1994,-0.00206383,0.0482642,21.0239,961.234,0.0744888,0.0,0.0
40,9.75,33.344,34.808,151.282,97.0095,96.4666,-0.00207991,0.0478812,21.025,961.194,0.0506872,0.0,0.0
44,10.75,33.8988,35.41,148.021,97.0261,96.5829,-0.00209543,0.0473302,21.0256,961.164,0.0413539,0.0,0.0
48,11.75,33.7162,35.1636,152.195,97.0257,95.9574,-0.00211592,0.0467965,21.0265,961.174,0.10001,0.0,0.0
52,12.75,33.5339,35.2617,151.887,97.0471,96.5032,-0.00215905,0.0462743,21.0281,961.224,0.050775,0.0,0.0
56,13.75,34.2125,36.1968,150.846,97.0662,95.9751,-0.00219707,0.0459317,21.0292,961.174,0.102108,0.0,0.0
60,14.75,33.8811,36.2566,150.28,97.0662,96.6624,-0.00221758,0.0455839,21.0299,961.164,0.0376563,0.0,0.0
64,15.75,33.7088,35.9795,148.97,97.067,96.6921,-0.00222788,0.0452009,21.031,961.224,0.0349515,0.0,0.0
68,16.75,34.5753,35.6673,154.609,97.0781,96.3906,-0.00222356,0.0448498,21.0319,961.214,0.0641922,0.0,0.0
72,17.75,34.4154,35.7091,153.874,97.0923,96.4275,-0.0022052,0.0445902,21.0324,961.184,0.0620633,0.0,0.0
76,18.75,34.8094,36.5617,152.395,97.0935,96.4907,-0.00216987,0.0443411,21.0328,961.174,0.0562534,0.0,0.0
80,19.75,34.1515,36.085,149.603,97.1082,96.2103,-0.00212784,0.0440683,21.0331,961.214,0.0839042,0.0,0.0
84,20.75,34.6284,36.3093,151.118,97.1141,96.7783,-0.00206471,0.0438526,21.0332,961.144,0.031292,0.0,0.0
88,21.75,34.3406,36.2814,148.007,97.1145,95.9089,-0.00201885,0.0437284,21.0336,961.104,0.112842,0.0,0.0
92,22.75,34.8477,36.6209,147.195,97.1276,95.8351,-0.00198877,0.0437255,21.0339,961.164,0.121011,0.0,0.0
96,23.75,34.4379,36.8444,151.238,97.1316,96.429,-0.00196459,0.0437312,21.0341,961.194,0.0655724,0.0,0.0
100,24.75,35.0016,36.5205,149.906,97.1439,96.3899,-0.00195095,0.0437376,21.0342,961.164,0.0703837,0.0,0.0
104,25.75,35.382,36.4447,155.054,97.1558,95.8611,-0.00194935,0.0437527,21.0343,961.194,0.12118,0.0,0.0
108,26.75,34.882,36.7565,148.894,97.149,95.5261,-0.00197018,0.0437898,21.0343,961.184,0.152172,0.0,0.0
112,27.75,35.2593,36.8359,150.246,97.1514,95.5152,-0.00199921,0.043879,21.0343,961.144,0.153426,0.0,0.0
116,28.75,35.4861,37.1149,151.437,97.1514,95.6247,-0.00201288,0.0440421,21.0344,961.164,0.143074,0.0,0.0
120,29.75,35.0123,36.8446,152.896,97.155,95.7417,-0.00200493,0.0442965,21.0344,961.184,0.132355,0.0,0.0
124,30.75,35.4482,37.6115,150.095,97.1506,95.6812,-0.00197298,0.044611,21.0336,961.184,0.137669,0.0,0.0
128,31.75,35.3488,37.345,146.481,97.1617,95.0869,-0.00189879,0.0450139,21.0331,961.144,0.194979,0.0,0.0
132,32.75,35.619,37.3878,148.089,97.1665,95.0127,-0.0017962,0.0453946,21.0327,961.154,0.202469,0.0,0.0
136,33.75,35.2742,37.6527,152.928,97.1791,94.9615,-0.00163621,0.0458115,21.0325,961.134,0.208515,0.0,0.0
140,34.75,35.3359,37.4751,156.281,97.1823,94.074,-0.00149154,0.0463811,21.0317,961.074,0.293626,0.0,0.0
144,35.75,35.1589,37.4522,152.07,97.1875,94.0571,-0.00123409,0.0472085,21.032,961.094,0.295731,0.0,0.0
148,36.75,35.3108,37.568,151.608,97.218,92.6668,-0.00075751,0.0524155,21.0267,961.154,0.433083,0.0,0.0
152,37.75,35.7398,37.7891,141.865,97.2089,94.0435,-3.06836e-05,0.0622399,21.0058,961.064,0.299021,0.0,0.0
156,38.75,35.728,37.8713,141.978,97.2148,81.9073,0.000884525,0.0906376,20.9582,960.984,1.54762,0.0,0.0
160,39.75,35.3534,38.3429,143.627,97.2469,75.4867,0.00209643,0.131674,20.9098,960.914,2.28796,0.0,1.0
164,40.75,36.1987,38.7463,138.752,97.239,68.6555,0.00329131,0.183385,20.8558,960.763,3.14403,0.0,1.0
168,41.75,37.2688,39.6624,134.652,97.2584,69.9728,0.00507051,0.244806,20.7944,960.553,2.97416,0.0,1.0
172,42.75,37.7639,40.162,129.346,97.2679,64.46,0.00699889,0.306039,20.7218,960.423,3.71629,0.0,1.0
176,43.75,38.8198,42.0589,133.469,97.2778,62.7227,0.00882741,0.370336,20.6401,960.323,3.964,0.0,1.0
180,44.75,39.2005,43.2141,137.906,97.2854,63.9692,0.010891,0.432436,20.552,960.113,3.78694,0.0,1.0
184,45.75,40.313,44.187,129.429,97.3032,61.1182,0.0130752,0.494578,20.474,959.883,4.20043,0.0,0.0
188,46.75,41.8905,45.5858,130.345,97.3191,56.739,0.0152847,0.557297,20.4042,959.743,4.87345,0.0,0.0
192,47.75,42.8782,47.3897,130.477,97.327,53.5195,0.0180134,0.617356,20.3282,959.512,5.40184,0.0,0.0
196,48.75,44.2157,48.8733,122.712,97.3385,49.4776,0.0210353,0.676361,20.2427,959.212,6.11221,0.0,0.0
200,49.75,45.3393,50.5003,118.076,97.3544,46.9457,0.023427,0.753689,20.1783,958.952,6.58816,0.0,0.0
204,50.75,46.8782,52.4712,115.022,97.3607,42.9686,0.0264628,0.835678,20.0617,958.712,7.38835,0.0,0.0
208,51.75,47.76,53.7344,118.13,97.3797,42.9697,0.0298388,0.922693,19.9535,958.331,7.38988,0.0,0.0
212,52.75,50.4985,56.9067,116.993,97.3817,47.2973,0.0331475,0.989844,19.8462,958.061,6.52331,0.0,0.0
216,53.75,51.6321,59.1336,119.804,97.3861,44.2234,0.0358149,1.07714,19.7596,957.691,7.1307,0.0,0.0
220,54.75,53.8528,62.046,115.177,97.4114,45.0006,0.0380972,1.15506,19.6817,957.34,6.97568,0.0,0.0
224,55.75,55.3124,63.8472,121.125,97.421,42.6058,0.0400122,1.22489,19.5977,957.06,7.47054,0.0,0.0
228,56.75,57.7452,66.5765,118.286,97.4213,45.2532,0.0415679,1.2853,19.5329,956.72,6.92605,0.0,0.0
232,57.75,59.3561,69.0557,119.257,97.4396,45.7681,0.0427236,1.33172,19.486,956.33,6.82555,0.0,0.0
236,58.75,60.695,70.9253,121.099,97.4535,46.5016,0.0434969,1.36933,19.449,956.019,6.68321,0.0,0.0
240,59.75,62.554,72.7546,104.744,97.4638,45.1094,0.0439547,1.4007,19.4192,955.739,6.95872,0.0,0.0
244,60.75,63.6705,75.0145,117.342,97.4772,46.1685,0.0442011,1.42339,19.3968,955.339,6.75035,0.0,0.0
248,61.75,65.2964,77.5228,115.749,97.4745,48.1821,0.0442664,1.43999,19.3821,955.008,6.36448,0.0,0.0
252,62.75,66.7873,79.145,118.424,97.4669,45.6984,0.0441113,1.45024,19.3724,954.708,6.84183,0.0,0.0
256,63.75,68.3674,81.6494,111.98,97.4796,45.1467,0.0438336,1.45667,19.3667,954.308,6.95274,0.0,0.0
260,64.75,69.3116,83.3676,117.102,97.4816,45.3638,0.0434867,1.45956,19.3651,954.078,6.90957,0.0,0.0
264,65.75,70.9436,85.1805,120.465,97.486,47.1106,0.0431378,1.46071,19.3651,953.817,6.5687,0.0,0.0
268,66.75,71.8353,86.4277,114.352,97.4919,49.8182,0.0428254,1.46209,19.3672,953.427,6.06447,0.0,0.0
272,67.75,73.045,88.0707,111.85,97.5014,46.9341,0.0425759,1.46263,19.3691,953.127,6.60404,0.0,0.0
276,68.75,74.4663,89.5206,113.177,97.5026,48.0911,0.0423404,1.46126,19.3713,952.786,6.38418,0.0,0.0
280,69.75,75.011,90.7807,114.024,97.5018,49.3895,0.0420874,1.45795,19.3759,952.506,6.14345,0.0,0.0
284,70.75,76.0106,92.2401,116.662,97.5026,48.4697,0.0417953,1.45359,19.3829,952.166,6.31334,0.0,0.0
288,71.75,77.0966,93.5836,107.123,97.5089,46.1761,0.0414867,1.44638,19.3915,951.846,6.75181,0.0,0.0
292,72.75,78.6515,95.1667,107.955,97.5133,47.9021,0.0412351,1.43709,19.4051,951.575,6.42073,0.0,0.0
296,73.75,79.664,95.9991,120.974,97.5153,47.4188,0.0409895,1.42458,19.4185,951.275,6.5125,0.0,0.0
300,74.75,80.0592,97.5213,113.04,97.5173,47.5476,0.0408328,1.41335,19.4293,950.905,6.4882,0.0,0.0
304,75.75,80.8705,97.9271,119.339,97.5268,51.9839,0.0407394,1.4043,19.4392,950.635,5.68333,0.0,0.0
308,76.75,81.5808,99.1135,118.668,97.5256,50.7829,0.0406918,1.39702,19.4486,950.364,5.89436,0.0,0.0
312,77.75,82.049,100.071,117.634,97.5367,52.2587,0.0406988,1.38903,19.4576,950.004,5.63663,0.0,0.0
316,78.75,82.9372,101.428,113.496,97.5383,50.8126,0.0407788,1.38269,19.4635,949.764,5.89024,0.0,0.0
320,79.75,84.0032,102.362,112.672,97.5331,48.1697,0.0409075,1.37875,19.4673,949.434,6.37224,0.0,0.0
324,80.75,84.7801,103.076,114.706,97.5446,52.6478,0.0410207,1.3771,19.4694,949.133,5.57035,0.0,0.0
328,81.75,84.0607,103.225,115.349,97.5399,51.2613,0.0410757,1.37827,19.4686,948.833,5.81099,0.0,0.0
332,82.75,85.8092,105.097,115.764,97.5561,50.3335,0.0410637,1.38227,19.4666,948.503,5.97747,0.0,0.0
336,83.75,86.536,106.384,111.101,97.5581,51.9297,0.0409763,1.38563,19.4653,948.192,5.69565,0.0,0.0
340,84.75,87.2593,107.304,117.309,97.5597,49.1705,0.0407933,1.38845,19.4646,947.872,6.18896,0.0,0.0
344,85.75,87.3057,107.725,113.797,97.5684,52.4762,0.0405612,1.38646,19.4655,947.502,5.60204,0.0,0.0
348,86.75,88.7477,108.507,120.298,97.5724,49.2951,0.0403183,1.38276,19.469,947.302,6.16728,0.0,0.0
352,87.75,89.2262,110.206,114.526,97.5795,52.4152,0.0401189,1.37955,19.472,947.041,5.61357,0.0,0.0
356,88.75,89.3265,109.91,115.901,97.5819,50.3233,0.0400102,1.37747,19.4739,946.741,5.98168,0.0,0.0
360,89.75,90.9744,111.28,110.718,97.5835,49.5446,0.0399774,1.37627,19.4752,946.351,6.1227,0.0,0.0
364,90.75,90.9539,111.378,113.503,97.5843,47.9149,0.039977,1.37549,19.476,946.071,6.42489,0.0,0.0
368,91.75,91.348,112.58,117.637,97.5831,50.7934,0.0399699,1.37487,19.477,945.82,5.8978,0.0,0.0
372,92.75,91.6354,112.615,121.936,97.5791,49.265,0.0399393,1.37302,19.4788,945.43,6.17342,0.0,0.0
376,93.75,91.9581,113.184,119.778,97.5716,50.5236,0.0398832,1.37014,19.4824,945.15,5.94486,0.0,0.0
380,94.75,92.7392,114.192,120.362,97.5815,49.1521,0.0397936,1.36462,19.488,944.9,6.19437,0.0,0.0
384,95.75,93.1623,114.5,114.897,97.5839,50.8973,0.0396572,1.35833,19.4917,944.579,5.87942,0.0,0.0
388,96.75,93.6531,115.07,115.016,97.5823,49.6632,0.0395636,1.35478,19.4941,944.329,6.101,0.0,0.0
392,97.75,93.9367,115.385,111.568,97.5835,51.3079,0.0396074,1.35419,19.4925,943.989,5.80681,0.0,0.0
396,98.75,94.0815,115.556,117.828,97.5767,50.8958,0.0398207,1.3577,19.4859,943.698,5.87903,0.0,0.0
400,99.75,94.0445,115.428,115.851,97.5791,51.6606,0.040216,1.36366,19.4773,943.408,5.74453,0.0,0.0
404,100.75,94.9841,116.559,119.488,97.564,50.2003,0.0407609,1.37196,19.4666,942.988,6.00215,0.0,0.0
408,101.75,94.9523,116.622,120.156,97.5692,46.9781,0.0413147,1.38262,19.4542,942.748,6.60184,0.0,0.0
412,102.75,95.1206,116.839,111.063,97.5597,44.7285,0.0421022,1.39563,19.4397,942.407,7.0442,0.0,0.0
416,103.75,95.9721,117.641,111.891,97.5609,43.6604,0.0428513,1.40809,19.4271,942.097,7.26264,0.0,0.0
420,104.75,96.409,118.146,115.659,97.5573,43.7872,0.0437375,1.42173,19.4152,941.787,7.23611,0.0,0.0
424,105.75,96.8803,118.484,117.666,97.5557,44.4673,0.0446581,1.43475,19.4031,941.507,7.09674,0.0,0.0
428,106.75,97.1338,119.257,114.4,97.5434,42.5933,0.0456711,1.44795,19.3885,941.176,7.48452,0.0,0.0
432,107.75,97.652,119.584,112.222,97.5514,43.4511,0.0467219,1.46527,19.3639,940.746,7.30516,0.0,0.0
436,108.75,97.2811,119.298,110.278,97.5549,42.8974,0.0475795,1.48843,19.3306,940.406,7.42132,0.0,0.0
440,109.75,97.7607,120.487,113.821,97.5466,45.8219,0.048281,1.51501,19.3046,940.115,6.82485,0.0,0.0
444,110.75,98.8767,121.293,106.517,97.5315,42.1274,0.0489606,1.53844,19.2798,939.715,7.58278,0.0,0.0
448,111.75,98.8079,121.469,112.961,97.5331,42.185,0.0493385,1.55456,19.2622,939.325,7.57059,0.0,0.0
452,112.75,100.128,122.216,116.838,97.5331,45.482,0.0494765,1.56294,19.2483,938.964,6.89085,0.0,0.0
456,113.75,100.762,123.044,119.196,97.5379,44.6002,0.0494839,1.57218,19.2362,938.744,7.06814,0.0,0.0
460,114.75,101.149,123.618,113.91,97.5335,49.5819,0.0493917,1.58245,19.2238,938.324,6.11128,0.0,0.0
464,115.75,101.568,124.211,120.55,97.5399,44.6705,0.0493312,1.59226,19.2146,937.983,7.05408,0.0,0.0
468,116.75,101.91,124.726,113.811,97.5478,46.9758,0.0491918,1.60034,19.2086,937.653,6.6003,0.0,0.0
472,117.75,102.848,125.565,113.491,97.5403,48.0451,0.0491723,1.60631,19.204,937.253,6.3963,0.0,0.0
476,118.75,102.293,125.327,109.859,97.5335,45.9833,0.0492843,1.6159,19.1964,936.933,6.79186,0.0,0.0
480,119.75,103.1875,126.33,108.306,97.5426,43.0265,0.0494104,1.62595,19.1883,936.572,7.39304,0.0,0.0
484,120.75,103.255,126.906,114.938,97.5379,45.2596,0.0493407,1.63526,19.1825,936.262,6.93557,0.0,0.0
488,121.75,103.835,127.604,111.089,97.5347,46.5404,0.048897,1.63834,19.1786,935.782,6.68321,0.0,0.0
492,122.75,105.173,129.31,106.289,97.5347,49.7001,0.0481603,1.63333,19.1824,935.531,6.08989,0.0,0.0
496,123.75,105.386,128.958,120.978,97.528,49.4072,0.0469959,1.61286,19.2074,935.231,6.14264,0.0,0.0
500,124.75,105.475,129.432,117.879,97.5113,50.8845,0.0456442,1.58596,19.2408,934.991,5.87498,0.0,0.0
504,125.75,105.893,129.795,115.903,97.5268,51.9579,0.044386,1.54719,19.2845,934.601,5.68784,0.0,0.0
508,126.75,105.776,129.544,116.457,97.5315,52.3927,0.0433033,1.50827,19.3138,934.39,5.61302,0.0,0.0
512,127.75,105.987,129.347,114.155,97.5121,48.9597,0.0426211,1.48249,19.3348,934.05,6.22336,0.0,0.0
516,128.75,105.304,129.243,117.77,97.5165,49.1686,0.0423388,1.47262,19.3488,933.78,6.18531,0.0,0.0
520,129.75,105.91,129.685,106.409,97.5244,47.2818,0.0422689,1.46806,19.3579,933.439,6.53948,0.0,0.0
524,130.75,106.7,130.22,112.911,97.5197,48.149,0.0425843,1.48017,19.3455,933.109,6.37488,0.0,0.0
528,131.75,107.033,130.909,102.382,97.5177,49.5503,0.0429399,1.49476,19.3325,932.819,6.11557,0.0,0.0
532,132.75,106.746,130.918,113.552,97.5157,49.1434,0.0431949,1.50218,19.3239,932.489,6.18987,0.0,0.0
536,133.75,107.28,131.149,113.149,97.5054,46.3285,0.0433216,1.50398,19.3234,932.218,6.72171,0.0,0.0
540,134.75,108.034,131.78,105.849,97.503,47.3594,0.0433664,1.50246,19.3269,931.888,6.5227,0.0,0.0
544,135.75,107.999,132.09,119.591,97.5086,44.5125,0.0433918,1.49832,19.3326,931.588,7.0832,0.0,0.0
548,136.75,107.963,131.742,110.718,97.5201,45.1489,0.0434693,1.49153,19.3384,931.218,6.95603,0.0,0.0
552,137.75,107.638,131.604,120.918,97.4959,45.2539,0.0436642,1.48334,19.3474,930.887,6.93281,0.0,0.0
556,138.75,108.14,131.636,111.7,97.4975,47.0041,0.0440691,1.47648,19.3546,930.607,6.59021,0.0,0.0
560,139.75,108.188,131.939,121.73,97.4911,48.1257,0.0445963,1.47268,19.3606,930.307,6.37661,0.0,0.0
564,140.75,107.961,131.414,113.638,97.4927,46.345,0.0450869,1.46862,19.3661,929.846,6.71731,0.0,0.0
568,141.75,108.248,131.349,110.95,97.4761,45.351,0.0454526,1.46231,19.3752,929.576,6.91161,0.0,0.0
572,142.75,108.907,131.411,117.739,97.4828,48.9571,0.0456816,1.45401,19.385,929.296,6.22113,0.0,0.0
576,143.75,108.361,131.195,112.869,97.4792,44.1448,0.0458182,1.44333,19.3945,928.926,7.15541,0.0,0.0
580,144.75,108.344,131.249,117.528,97.4764,46.8185,0.0458727,1.42956,19.409,928.615,6.62399,0.0,0.0
584,145.75,108.173,131.436,118.955,97.4772,43.2806,0.0458315,1.41546,19.4266,928.295,7.33381,0.0,0.0
588,146.75,108.037,131.353,114.062,97.4741,44.6837,0.0456466,1.40177,19.4428,928.045,7.04532,0.0,0.0
592,147.75,107.769,131.043,115.792,97.4626,49.0568,0.045435,1.38633,19.4638,927.714,6.20087,0.0,0.0
596,148.75,108.037,130.751,121.036,97.4523,45.89,0.0448726,1.37025,19.484,927.384,6.80269,0.0,0.0
600,149.75,108.097,130.673,115.673,97.4594,47.8596,0.0441468,1.35506,19.4983,927.104,6.42376,0.0,0.0
604,150.75,106.651,130.01,116.684,97.4566,48.5483,0.0435275,1.34239,19.5099,926.824,6.29443,0.0,0.0
608,151.75,107.981,130.575,115.58,97.4499,48.1757,0.0427723,1.33162,19.5223,926.433,6.3634,0.0,0.0
612,152.75,107.48,129.26,122.533,97.4673,46.2912,0.0419931,1.32315,19.533,926.173,6.72545,0.0,0.0
616,153.75,107.472,129.994,120.984,97.4527,49.5597,0.0411858,1.31629,19.5413,925.953,6.10784,0.0,0.0
620,154.75,107.325,129.534,120.752,97.438,48.4983,0.0403453,1.30904,19.5514,925.653,6.30202,0.0,0.0
624,155.75,107.375,129.271,115.951,97.4463,49.1438,0.0393813,1.29934,19.5632,925.332,6.18337,0.0,0.0
628,156.75,106.901,128.276,115.97,97.4348,48.8272,0.0384087,1.28702,19.5793,925.052,6.24067,0.0,0.0
632,157.75,107.337,128.778,120.601,97.4324,50.8597,0.0374951,1.27423,19.5912,924.832,5.87208,0.0,0.0
636,158.75,106.852,128.217,120.914,97.4281,50.4844,0.0364471,1.25979,19.607,924.532,5.93856,0.0,0.0
640,159.75,106.882,128.681,120.965,97.4249,49.16,0.0354032,1.24665,19.6227,924.261,6.17841,0.0,0.0
644,160.75,106.717,128.094,121.925,97.4178,53.9381,0.0345319,1.23465,19.6362,924.011,5.3399,0.0,0.0
648,161.75,106.419,127.657,120.578,97.4194,52.4596,0.0338414,1.22472,19.6485,923.801,5.59109,0.0,0.0
652,162.75,106.039,127.537,113.892,97.4063,49.2138,0.0332551,1.21427,19.6616,923.451,6.1668,0.0,0.0
656,163.75,106.659,127.479,119.541,97.4221,52.2688,0.0327974,1.20262,19.6787,923.231,5.62426,0.0,0.0
660,164.75,105.604,126.159,119.324,97.4039,50.5608,0.0323592,1.18998,19.693,922.97,5.92266,0.0,0.0
664,165.75,105.823,126.742,119.394,97.394,48.9609,0.0319132,1.17735,19.7075,922.72,6.2122,0.0,0.0
668,166.75,106.071,127.286,123.593,97.394,51.3971,0.0315086,1.16488,19.7215,922.41,5.77356,0.0,0.0
672,167.75,106.075,126.645,124.633,97.3825,51.16,0.0310781,1.15475,19.7338,922.18,5.81426,0.0,0.0
676,168.75,104.706,125.859,122.674,97.3805,51.3399,0.0307956,1.14388,19.7429,921.949,5.78237,0.0,0.0
680,169.75,105.455,125.449,118.81,97.3781,50.7328,0.0304311,1.13452,19.7529,921.649,5.8896,0.0,0.0
684,170.75,104.152,124.69,127.246,97.3793,51.8386,0.030145,1.1269,19.7595,921.359,5.69494,0.0,0.0
688,171.75,104.909,124.648,121.178,97.3869,51.0204,0.0299572,1.1234,19.7638,921.139,5.83935,0.0,0.0
692,172.75,104.747,124.436,119.725,97.3762,50.09,0.0298923,1.12092,19.7666,920.868,6.0046,0.0,0.0
696,173.75,104.282,123.887,120.353,97.3694,50.0392,0.0299345,1.11997,19.7672,920.598,6.01314,0.0,0.0
700,174.75,104.164,123.276,123.806,97.3555,50.5059,0.030183,1.11939,19.769,920.358,5.928,0.0,0.0
704,175.75,104.404,123.475,120.55,97.3591,48.9932,0.0304733,1.12313,19.7638,920.138,6.203,0.0,0.0
708,176.75,104.684,123.888,125.378,97.3579,51.2086,0.0308615,1.12952,19.7539,919.818,5.80341,0.0,0.0
712,177.75,103.766,122.875,121.489,97.3583,48.6583,0.0313584,1.14043,19.7398,919.557,6.26489,0.0,0.0
716,178.75,103.888,122.993,125.573,97.3583,47.3741,0.0319001,1.15562,19.7253,919.247,6.50649,0.0,0.0
720,179.75,103.874,123.216,120.364,97.35,48.2405,0.03254,1.17582,19.7078,919.007,6.34201,0.0,0.0
724,180.75,103.548,122.098,108.76,97.3516,46.7527,0.0333473,1.19751,19.6829,918.667,6.62513,0.0,0.0
728,181.75,103.613,122.557,113.871,97.3484,44.6514,0.0342695,1.22036,19.6537,918.376,7.04022,0.0,0.0
732,182.75,103.86,123.246,115.252,97.3484,45.0311,0.035218,1.24393,19.6208,918.116,6.96372,0.0,0.0
736,183.75,104.003,122.917,117.284,97.3421,46.3375,0.036174,1.26706,19.5921,917.776,6.70481,0.0,0.0
740,184.75,104.211,123.105,111.168,97.344,45.59,0.0370226,1.28637,19.57,917.456,6.85189,0.0,0.0
744,185.75,104.524,123.321,117.344,97.3365,45.6337,0.0379543,1.30171,19.5537,917.145,6.84255,0.0,0.0
748,186.75,104.407,123.673,117.186,97.327,44.7274,0.0389234,1.31723,19.5367,916.905,7.02286,0.0,0.0
752,187.75,104.789,123.644,118.053,97.3282,43.5011,0.0398543,1.33696,19.5158,916.575,7.27407,0.0,0.0
756,188.75,104.72,123.894,116.083,97.3361,44.2682,0.0406446,1.35777,19.4934,916.174,7.11692,0.0,0.0
760,189.75,105.624,124.242,115.5,97.3238,45.4944,0.0412052,1.37883,19.4688,915.894,6.86898,0.0,0.0
764,190.75,105.817,124.877,113.995,97.3131,45.6009,0.0415688,1.39475,19.4521,915.544,6.84686,0.0,0.0
768,191.75,106.344,125.292,117.82,97.3187,46.3251,0.0417768,1.40535,19.4401,915.163,6.70506,0.0,0.0
772,192.75,106.356,125.464,115.596,97.3369,46.2171,0.0419482,1.41182,19.4315,914.893,6.72784,0.0,0.0
776,193.75,106.865,126.012,116.954,97.3064,44.6702,0.0421052,1.41689,19.4257,914.553,7.03251,0.0,0.0
780,194.75,106.836,126.145,112.759,97.3147,46.6247,0.0422309,1.42275,19.4202,914.223,6.64646,0.0,0.0
784,195.75,107.134,126.118,115.812,97.3151,45.6653,0.0422802,1.42939,19.4162,913.862,6.8343,0.0,0.0
788,196.75,106.929,126.566,115.385,97.304,44.1508,0.0423217,1.43552,19.41,913.542,7.13793,0.0,0.0
792,197.75,107.659,126.99,115.081,97.3032,45.9611,0.0423999,1.4385,19.4071,913.252,6.77487,0.0,0.0
796,198.75,107.524,126.954,120.828,97.2985,46.3006,0.0425429,1.44028,19.4027,912.901,6.70795,0.0,0.0
800,199.75,107.656,127.267,118.363,97.2989,45.3266,0.0428731,1.44774,19.3954,912.561,6.90005,0.0,0.0
804,200.75,107.723,127.089,109.757,97.2866,46.3059,0.0434823,1.46096,19.3845,912.221,6.70582,0.0,0.0
808,201.75,108.876,128.143,111.41,97.2901,46.2167,0.044229,1.47227,19.3706,911.921,6.72357,0.0,0.0
812,202.75,108.539,127.962,116.491,97.2826,45.7726,0.0448208,1.48105,19.3621,911.58,6.81009,0.0,0.0
816,203.75,108.931,128.362,110.635,97.2878,44.246,0.0456393,1.4933,19.3453,911.17,7.11696,0.0,0.0
820,204.75,108.957,129.076,112.681,97.2846,44.8956,0.0464359,1.50648,19.3287,910.86,6.98501,0.0,0.0
824,205.75,108.915,128.795,110.073,97.2771,48.1791,0.0471209,1.51724,19.3114,910.449,6.34673,0.0,0.0
828,206.75,109.937,129.517,108.532,97.2866,44.6314,0.047869,1.52991,19.2964,910.109,7.03851,0.0,0.0
832,207.75,109.571,129.541,112.968,97.287,43.721,0.0486636,1.54301,19.2815,909.719,7.22472,0.0,0.0
836,208.75,110.717,130.119,117.546,97.2707,44.6423,0.0494536,1.55768,19.2659,909.458,7.03483,0.0,0.0
840,209.75,110.917,130.465,114.412,97.262,43.2531,0.0501272,1.57204,19.2525,909.058,7.31957,0.0,0.0
844,210.75,110.776,131.027,106.602,97.2806,45.1248,0.0505245,1.58432,19.2437,908.688,6.93865,0.0,0.0
848,211.75,110.837,130.769,116.062,97.2668,44.2727,0.0504951,1.58912,19.2385,908.347,7.10956,0.0,0.0
852,212.75,111.394,131.092,115.2,97.2842,43.9411,0.0502877,1.5892,19.2366,908.017,7.17909,0.0,0.0
856,213.75,111.458,132.438,109.866,97.3167,46.9728,0.0494408,1.58376,19.2434,907.607,6.57945,0.0,0.0
860,214.75,110.956,131.85,111.492,97.3409,46.059,0.0483552,1.57441,19.2523,907.286,6.75915,0.0,0.0
864,215.75,111.586,131.767,108.427,97.3726,45.5313,0.047073,1.56371,19.2638,906.966,6.86618,0.0,0.0
868,216.75,111.974,132.287,109.175,97.3892,45.8787,0.0458061,1.55089,19.2807,906.656,6.79907,0.0,0.0
872,217.75,112.588,133.177,114.751,97.4253,48.4836,0.0446457,1.53207,19.3061,906.336,6.30358,0.0,0.0
876,218.75,112.126,132.152,113.526,97.4535,49.1118,0.0436397,1.50879,19.3293,906.055,6.18991,0.0,0.0
880,219.75,112.562,132.378,114.587,97.4776,50.8288,0.0429047,1.48589,19.3525,905.815,5.88175,0.0,0.0
884,220.75,112.764,132.965,113.481,97.4923,51.3847,0.04224,1.46687,19.3719,905.425,5.78485,0.0,0.0
888,221.75,112.784,132.973,114.89,97.5125,51.1962,0.041787,1.45323,19.3875,905.125,5.81994,0.0,0.0
892,222.75,111.994,132.211,108.89,97.5387,50.0889,0.041519,1.44204,19.3992,904.784,6.01987,0.0,0.0
896,223.75,112.938,132.973,115.005,97.5494,52.017,0.0414262,1.43424,19.4068,904.524,5.67967,0.0,0.0
900,224.75,113.4,132.549,113.886,97.5771,50.845,0.041531,1.43051,19.4092,904.174,5.88809,0.0,0.0
904,225.75,113.44,133.552,115.411,97.5771,51.4551,0.0418703,1.43064,19.4072,903.864,5.78035,0.0,0.0
908,226.75,112.872,133.361,116.059,97.5974,49.0098,0.0422902,1.43316,19.4049,903.573,6.22202,0.0,0.0
912,227.75,113.609,134.308,113.399,97.6164,49.0184,0.0429698,1.43859,19.3985,903.223,6.22218,0.0,0.0
916,228.75,113.838,133.593,114.597,97.641,49.7584,0.0435967,1.44743,19.3871,902.883,6.08912,0.0,0.0
920,229.75,114.091,134.29,114.13,97.6473,48.9432,0.0442595,1.45612,19.3783,902.562,6.23893,0.0,0.0
924,230.75,114.253,134.565,108.906,97.6711,49.4373,0.0448027,1.46206,19.3722,902.172,6.15038,0.0,0.0
928,231.75,114.378,134.834,105.675,97.6727,47.9642,0.045408,1.46782,19.3657,901.892,6.42378,0.0,0.0
932,232.75,114.682,134.795,118.803,97.6909,48.2077,0.0461063,1.47598,19.3569,901.591,6.37972,0.0,0.0
936,233.75,114.637,135.011,114.027,97.7,48.0195,0.0468658,1.48754,19.3457,901.301,6.41589,0.0,0.0
940,234.75,114.89,135.245,110.557,97.7095,46.1388,0.0481221,1.50176,19.3326,901.021,6.77766,0.0,0.0
944,235.75,115.693,135.495,115.029,97.7365,49.0644,0.0497048,1.51991,19.3136,900.591,6.22483,0.0,0.0
948,236.75,115.568,135.597,113.374,97.7401,45.6303,0.0514909,1.54677,19.2809,900.15,6.88059,0.0,0.0
952,237.75,115.991,136.095,108.574,97.7389,44.6811,0.0533889,1.57392,19.2451,899.82,7.07036,0.0,0.0
956,238.75,116.493,136.772,116.765,97.7555,47.3168,0.0554163,1.59786,19.2175,899.52,6.55418,0.0,0.0
960,239.75,116.527,137.15,111.438,97.7591,44.1719,0.0573906,1.61908,19.193,899.039,7.17577,0.0,0.0
964,240.75,116.674,137.565,111.811,97.7698,42.1533,0.0592475,1.64257,19.1732,898.659,7.59925,0.0,0.0
968,241.75,116.867,137.319,109.883,97.792,41.5105,0.0618858,1.66935,19.1511,898.309,7.74011,0.0,0.0
972,242.75,117.271,137.828,111.643,97.788,39.4604,0.065306,1.69705,19.1236,897.888,8.19725,0.0,0.0
976,243.75,117.607,138.938,107.4,97.8102,39.5556,0.0686633,1.71628,19.0995,897.388,8.17753,0.0,0.0
980,244.75,117.888,139.221,110.827,97.8082,38.4987,0.0720369,1.74955,19.0681,896.997,8.42197,0.0,0.0
984,245.75,118.528,139.877,106.709,97.815,40.48,0.0749856,1.78443,19.0241,896.527,7.96931,0.0,0.0
988,246.75,118.513,139.971,113.742,97.8177,41.5564,0.0774258,1.82871,18.9696,896.077,7.73251,0.0,0.0
992,247.75,118.792,140.025,105.608,97.8237,43.9694,0.0788826,1.86904,18.9326,895.656,7.22324,0.0,0.0
996,248.75,119.856,141.961,97.9854,97.8328,41.3129,0.0805139,1.89943,18.8984,895.226,7.78698,0.0,0.0
1000,249.75,120.592,142.33,109.996,97.8463,40.8989,0.0816353,1.91802,18.876,894.826,7.8792,0.0,0.0
1004,250.75,120.908,143.376,111.812,97.857,43.7974,0.082292,1.92232,18.8685,894.425,7.26172,0.0,0.0
1008,251.75,120.892,143.312,106.33,97.8637,40.1156,0.0826012,1.92492,18.8652,893.945,8.05548,0.0,0.0
1012,252.75,121.622,144.04,107.246,97.8677,40.4145,0.0823425,1.92708,18.8655,893.494,7.9888,0.0,0.0
1016,253.75,121.912,144.28,109.554,97.8748,40.4438,0.0814159,1.92641,18.8665,893.124,7.9829,0.0,0.0
1020,254.75,122.05,144.789,106.107,97.8748,41.072,0.0798193,1.91517,18.8724,892.764,7.84368,0.0,0.0
1024,255.75,123.125,145.881,110.152,97.8899,43.9144,0.0770935,1.89044,18.8964,892.303,7.24064,0.0,0.0
1028,256.75,123.543,145.975,111.095,97.8935,43.1131,0.073659,1.86234,18.9474,892.003,7.40731,0.0,0.0
1032,257.75,123.209,145.446,112.266,97.8942,46.6661,0.0697691,1.80481,19.0231,891.693,6.69208,0.0,0.0
1036,258.75,123.083,145.561,117.459,97.9014,45.7436,0.0657082,1.74185,19.1105,891.363,6.87308,0.0,0.0
1040,259.75,123.192,145.372,117.666,97.9157,46.8912,0.0613273,1.67524,19.201,891.012,6.65059,0.0,0.0
1044,260.75,122.838,145.023,115.779,97.9077,49.7396,0.0588352,1.6065,19.2554,890.722,6.11719,0.0,0.0
1048,261.75,121.783,143.856,117.838,97.9153,50.5398,0.0548617,1.54432,19.3203,890.412,5.97373,0.0,0.0
1052,262.75,121.927,143.621,112.867,97.9248,51.221,0.0512251,1.48774,19.3766,890.151,5.85366,0.0,0.0
1056,263.75,122.038,143.301,115.698,97.9339,51.5451,0.0480022,1.44965,19.4306,889.861,5.79753,0.0,0.0
1060,264.75,121.187,142.66,115.155,97.9371,50.5717,0.0445002,1.40485,19.4814,889.581,5.97002,0.0,0.0
1064,265.75,119.896,141.709,115.303,97.9375,53.1574,0.0428895,1.35962,19.5165,889.351,5.51964,0.0,0.0
1068,266.75,120.616,141.547,118.732,97.9386,54.051,0.0403465,1.31965,19.562,889.07,5.36918,0.0,0.0
1072,267.75,120.001,141.206,119.859,97.9339,53.8391,0.0381151,1.27123,19.6068,888.83,5.40422,0.0,0.0
1076,268.75,119.837,140.168,114.871,97.9398,53.3603,0.036234,1.24752,19.6442,888.57,5.48545,0.0,0.0
1080,269.75,119.135,139.504,121.197,97.9446,53.7269,0.0343687,1.20933,19.6849,888.32,5.42405,0.0,0.0
1084,270.75,118.714,138.463,120.913,97.9446,54.1985,0.0327349,1.17589,19.7259,888.04,5.34511,0.0,0.0
1088,271.75,118.101,138.142,121.739,97.9442,56.2355,0.0311003,1.14511,19.7625,887.769,5.01182,0.0,0.0
1092,272.75,117.364,137.108,120.541,97.9636,56.4075,0.0296817,1.11267,19.8017,887.589,4.98602,0.0,0.0
1096,273.75,116.896,136.439,120.009,97.9553,54.751,0.0282745,1.08399,19.8372,887.369,5.25448,0.0,0.0
1100,274.75,116.673,135.731,123.906,97.9561,56.8316,0.0271647,1.0577,19.8665,887.219,4.91766,0.0,0.0
1104,275.75,116.006,135.092,120.068,97.9616,56.2787,0.0262039,1.03448,19.8893,886.959,5.00647,0.0,0.0
1108,276.75,115.362,133.939,125.694,97.9676,56.4575,0.0254655,1.01383,19.9047,886.739,4.97837,0.0,0.0
1112,277.75,115.157,133.692,121.545,97.9696,57.5968,0.0244971,0.993835,19.9286,886.508,4.79809,0.0,0.0
1116,278.75,114.928,132.939,122.803,97.9612,57.8881,0.0235783,0.973283,19.9547,886.248,4.75176,0.0,0.0
1120,279.75,114.232,131.897,123.244,97.968,59.2683,0.0226879,0.956239,19.9823,886.058,4.53955,0.0,0.0
1124,280.75,113.033,130.947,121.857,97.9755,58.5257,0.0218794,0.93815,20.0044,885.948,4.65413,0.0,0.0
1128,281.75,113.144,130.493,122.809,97.9715,58.0202,0.0210558,0.921595,20.024,885.738,4.73212,0.0,0.0
1132,282.75,112.337,129.222,121.142,97.9715,60.5724,0.0202978,0.904844,20.0427,885.477,4.34327,0.0,0.0
1136,283.75,112.101,128.816,117.804,97.9827,62.1924,0.0194598,0.887499,20.0604,885.327,4.1059,0.0,0.0
1140,284.75,111.128,128.173,122.342,97.9696,60.8039,0.0186556,0.871538,20.0766,885.197,4.30864,0.0,0.0
1144,285.75,110.526,127.204,125.719,97.9755,61.3399,0.0179626,0.856657,20.094,885.007,4.22992,0.0,0.0
1148,286.75,110.139,126.734,127.25,97.9862,60.7004,0.0172898,0.8407,20.1134,884.817,4.32556,0.0,0.0
1152,287.75,109.899,125.919,123.27,97.9902,62.7287,0.0166671,0.825683,20.1326,884.667,4.02904,0.0,0.0
1156,288.75,109.278,125.253,126.266,97.9823,62.3783,0.0161397,0.810922,20.1483,884.446,4.0789,0.0,0.0
1160,289.75,108.799,124.022,126.593,97.9918,62.9308,0.0156876,0.798641,20.1611,884.236,4.00012,0.0,0.0
1164,290.75,108.419,123.592,127.657,97.9858,63.1852,0.0150675,0.787005,20.1725,884.046,3.96313,0.0,0.0
1168,291.75,107.905,123.716,131.685,97.9846,63.4739,0.014428,0.778759,20.1824,883.906,3.92185,0.0,0.0
1172,292.75,106.924,122.006,126.814,97.9906,63.5955,0.0137497,0.763928,20.1961,883.746,3.90511,0.0,0.0
1176,293.75,106.208,121.595,127.534,97.9827,65.952,0.0131157,0.747803,20.2196,883.576,3.57573,0.0,0.0
1180,294.75,106.343,120.769,125.137,97.9914,66.5226,0.0123991,0.731307,20.2414,883.406,3.49872,0.0,0.0
1184,295.75,105.64,120.195,127.784,98.0017,68.5889,0.0117277,0.713888,20.2631,883.315,3.22337,0.0,0.0
1188,296.75,105.602,119.602,129.814,97.9937,68.3002,0.0112046,0.697105,20.2805,883.135,3.26074,0.0,0.0
1192,297.75,104.168,118.25,129.785,97.9842,67.8685,0.0107881,0.681509,20.2968,882.975,3.31713,0.0,0.0
1196,298.75,104.902,118.105,124.944,97.9926,67.2463,0.010511,0.669378,20.3103,882.885,3.40109,0.0,0.0
1200,299.75,103.441,116.911,128.045,97.9993,68.0559,0.010329,0.658917,20.3203,882.725,3.29361,0.0,0.0
1204,300.75,103.239,116.38,127.114,98.0041,67.0126,0.0101879,0.649699,20.3323,882.555,3.4336,0.0,0.0
1208,301.75,102.347,114.679,128.732,98.0056,67.1372,0.0100378,0.640093,20.345,882.425,3.41697,0.0,0.0
1212,302.75,102.485,114.997,127.304,98.0029,69.9976,0.00987988,0.630072,20.3567,882.275,3.03983,0.0,0.0
1216,303.75,101.464,114.295,128.102,97.9965,69.2731,0.0095996,0.61985,20.3676,882.164,3.13323,0.0,0.0
1220,304.75,101.371,113.942,129.999,97.9969,72.3647,0.00926728,0.609646,20.3778,882.004,2.73889,0.0,0.0
1224,305.75,101.639,113.224,129.307,97.9926,70.5554,0.00891056,0.600051,20.3879,881.914,2.96719,0.0,0.0
1228,306.75,101.038,112.752,126.721,97.9997,70.6578,0.00854993,0.59073,20.3975,881.814,2.95475,0.0,0.0
1232,307.75,100.245,112.055,128.316,98.0009,72.3293,0.00816339,0.58004,20.4096,881.714,2.74367,0.0,0.0
1236,308.75,99.5894,111.506,131.75,98.0013,73.9737,0.00775674,0.569424,20.4241,881.624,2.54065,0.0,0.0
1240,309.75,99.3151,110.475,131.11,97.9973,75.4773,0.00741691,0.556502,20.4381,881.444,2.35852,0.0,0.0
1244,310.75,99.0361,109.835,129.912,97.9953,75.7912,0.0069785,0.543386,20.4529,881.324,2.32085,0.0,0.0
1248,311.75,98.6622,109.126,134.539,97.987,77.2015,0.00656967,0.53025,20.4643,881.234,2.15355,0.0,0.0
1252,312.75,97.7502,108.473,125.337,97.9985,76.3885,0.00621318,0.517659,20.4773,881.134,2.25024,0.0,0.0
1256,313.75,97.1825,107.421,128.416,97.9882,77.3938,0.00584867,0.506174,20.4912,881.044,2.13119,0.0,0.0
1260,314.75,96.708,107.458,133.946,97.9922,77.7152,0.00549127,0.496893,20.5037,880.943,2.09412,0.0,0.0
1264,315.75,96.3294,106.111,128.648,98.0037,78.7521,0.00516486,0.485786,20.5159,880.873,1.97545,0.0,0.0
1268,316.75,95.8623,105.864,128.194,97.9945,79.5869,0.00486548,0.475013,20.5284,880.813,1.87937,0.0,0.0
1272,317.75,95.4479,105.403,130.235,97.9933,80.3623,0.00461647,0.464821,20.539,880.713,1.79169,0.0,0.0
1276,318.75,94.8593,104.67,132.089,97.9926,80.1767,0.00438675,0.453685,20.5507,880.633,1.81249,0.0,0.0
1280,319.75,94.5485,104.321,128.774,97.9973,82.3774,0.00420889,0.443693,20.5637,880.573,1.56835,0.0,0.0
1284,320.75,94.2609,103.415,131.514,97.9973,82.5656,0.00405453,0.432957,20.5778,880.483,1.54773,0.0,0.0
1288,321.75,93.7476,102.821,138.263,97.9981,83.8607,0.00384972,0.42045,20.5936,880.393,1.40722,0.0,0.0
1292,322.75,93.2485,102.535,135.078,98.0033,84.2905,0.00361927,0.408405,20.6086,880.353,1.36152,0.0,0.0
1296,323.75,92.7853,101.486,133.144,98.0025,84.773,0.00342871,0.397381,20.6212,880.263,1.30988,0.0,0.0
1300,324.75,92.0595,100.512,134.845,98.012,85.2969,0.0032744,0.386682,20.6321,880.193,1.25511,0.0,0.0
1304,325.75,92.2817,100.68,135.482,98.01,85.7851,0.00321822,0.376084,20.6424,880.133,1.20338,0.0,0.0
1308,326.75,91.3697,99.5678,132.459,98.0136,85.9767,0.0032169,0.366212,20.6517,880.073,1.18356,0.0,0.0
1312,327.75,90.4557,98.6774,131.481,98.0179,85.7317,0.00322309,0.356725,20.6606,879.983,1.20974,0.0,0.0
1316,328.75,90.6596,98.5791,132.469,98.0223,87.0599,0.00320148,0.347572,20.671,879.932,1.07127,0.0,0.0
1320,329.75,90.219,98.1268,135.214,98.0263,88.4916,0.00315305,0.338816,20.6807,879.872,0.924297,0.0,0.0
1324,330.75,89.8042,97.2033,133.317,98.0243,88.1672,0.00308453,0.328536,20.6927,879.852,0.957291,0.0,0.0
1328,331.75,89.6516,96.9055,135.406,98.0366,89.4156,0.0029788,0.31834,20.7037,879.872,0.831418,0.0,0.0
1332,332.75,88.7843,96.3395,137.535,98.0397,90.8379,0.00289593,0.306988,20.7169,879.772,0.689159,0.0,0.0
1336,333.75,88.7373,95.797,130.377,98.0393,91.2433,0.00287306,0.295499,20.7307,879.772,0.648903,0.0,0.0
1340,334.75,88.1957,95.306,136.706,98.0488,92.3506,0.00292786,0.283814,20.7429,879.712,0.540821,0.0,0.0
1344,335.75,87.6195,94.4897,133.519,98.0437,92.9043,0.00306977,0.270621,20.756,879.692,0.486357,0.0,0.0
1348,336.75,86.9508,93.3306,138.54,98.0389,93.328,0.0032487,0.257168,20.77,879.652,0.444808,0.0,0.0
1352,337.75,87.2964,93.1852,138.286,98.0473,93.727,0.00358788,0.245057,20.7818,879.622,0.407045,0.0,0.0
1356,338.75,86.5379,92.6032,134.643,98.0496,94.0417,0.00395471,0.232439,20.7931,879.612,0.37699,0.0,0.0
1360,339.75,85.9299,92.2027,138.379,98.0492,93.7199,0.00439282,0.220745,20.8054,879.592,0.407915,0.0,0.0
1364,340.75,85.2845,91.0485,137.152,98.0508,93.6156,0.00477802,0.211324,20.8178,879.582,0.418115,0.0,0.0
1368,341.75,84.8961,90.3729,137.93,98.0544,94.5599,0.00514415,0.201762,20.8284,879.552,0.327786,0.0,0.0
1372,342.75,84.394,90.1258,136.264,98.054,92.745,0.00543093,0.193666,20.8367,879.512,0.502799,0.0,0.0
1376,343.75,83.4604,88.9893,134.836,98.071,94.3601,0.00564454,0.186419,20.8443,879.492,0.34843,0.0,0.0
1380,344.75,83.6552,88.5036,135.835,98.056,93.0499,0.00579288,0.180083,20.8504,879.472,0.473339,0.0,0.0
1384,345.75,83.2534,87.7766,137.299,98.056,92.9848,0.00589663,0.174783,20.8545,879.442,0.479662,0.0,0.0
1388,346.75,82.129,87.2446,139.751,98.0548,93.2953,0.00601966,0.170327,20.8587,879.452,0.449439,0.0,0.0
1392,347.75,81.9604,86.8305,141.34,98.054,94.3642,0.00614187,0.166682,20.8617,879.412,0.346464,0.0,0.0
1396,348.75,81.3999,85.9829,139.261,98.0492,93.0183,0.00625658,0.164182,20.8644,879.442,0.475787,0.0,0.0
1400,349.75,81.3915,85.801,141.758,98.0556,93.1865,0.00636756,0.161043,20.8668,879.392,0.460049,0.0,0.0
1404,350.75,81.0681,85.5669,137.271,98.056,92.9833,0.00646664,0.158486,20.8689,879.382,0.479808,0.0,0.0
1408,351.75,80.2461,85.0144,138.412,98.0552,93.0755,0.00654294,0.156258,20.8703,879.382,0.470781,0.0,0.0
1412,352.75,80.1709,84.1859,136.977,98.0607,92.733,0.00660676,0.154184,20.8719,879.342,0.504593,0.0,0.0
1416,353.75,79.8896,83.1499,140.627,98.0568,94.2001,0.00664635,0.152332,20.873,879.322,0.362441,0.0,0.0
1420,354.75,79.1119,83.2392,144.415,98.0595,93.8271,0.0066815,0.150917,20.8751,879.332,0.398533,0.0,0.0
1424,355.75,78.533,82.2302,141.143,98.0595,93.9269,0.00671604,0.1497,20.8768,879.312,0.388936,0.0,0.0
1428,356.75,78.6272,81.9192,136.022,98.058,93.6928,0.00675937,0.148697,20.8779,879.282,0.411331,0.0,0.0
1432,357.75,78.4254,81.5251,139.573,98.0667,93.8851,0.00682229,0.147973,20.8786,879.282,0.393611,0.0,0.0
1436,358.75,78.0185,81.4907,139.739,98.0576,93.4579,0.00687285,0.147552,20.8783,879.282,0.433966,0.0,0.0
1440,359.75,77.2381,80.8377,143.082,98.0592,93.6931,0.00697307,0.147258,20.878,879.282,0.411405,0.0,0.0
1444,360.75,77.0756,80.5063,140.645,98.0655,93.8049,0.00706411,0.146937,20.8777,879.232,0.401219,0.0,0.0
1448,361.75,76.3815,80.1479,141.284,98.0607,92.8504,0.00712071,0.146585,20.8775,879.242,0.493162,0.0,0.0
1452,362.75,76.717,79.6913,141.813,98.0655,93.9502,0.00713847,0.14624,20.8776,879.202,0.38724,0.0,0.0
1456,363.75,76.1999,79.1082,139.501,98.0659,93.0793,0.00711871,0.145859,20.8783,879.182,0.471403,0.0,0.0
1460,364.75,76.1252,78.9029,137.248,98.0659,93.6924,0.00708397,0.14548,20.8789,879.192,0.412099,0.0,0.0
1464,365.75,76.3379,78.3852,142.174,98.0572,93.6062,0.0070694,0.145129,20.88,879.192,0.419608,0.0,0.0
1468,366.75,75.1921,77.71,139.088,98.0671,94.8674,0.00710784,0.144795,20.8806,879.172,0.299628,0.0,0.0
1472,367.75,75.3685,77.8058,141.076,98.0726,94.4677,0.00717059,0.144396,20.881,879.182,0.338278,0.0,0.0
1476,368.75,75.0337,76.7436,138.402,98.0742,93.4617,0.00725321,0.144094,20.8813,879.142,0.435136,0.0,0.0
1480,369.75,73.7503,76.5072,139.143,98.073,94.6593,0.00731201,0.143899,20.882,879.152,0.320015,0.0,0.0
1484,370.75,74.2255,76.1626,139.559,98.0762,93.9792,0.00733608,0.143669,20.8827,879.112,0.38544,0.0,0.0
1488,371.75,73.5327,75.6106,136.345,98.0806,94.3205,0.00732801,0.143381,20.8832,879.122,0.35309,0.0,0.0
1492,372.75,73.2809,75.2297,137.244,98.0794,92.7748,0.00730664,0.143082,20.8836,879.082,0.502241,0.0,0.0
1496,373.75,72.726,75.4036,141.033,98.0766,93.9773,0.00724996,0.142964,20.8838,879.022,0.385657,0.0,0.0
1500,374.75,72.5166,75.1458,140.308,98.0742,94.4598,0.00722101,0.14286,20.8839,879.032,0.33918,0.0,0.0
1504,375.75,72.5504,74.6209,141.969,98.0766,93.1466,0.00716893,0.142671,20.884,879.012,0.465851,0.0,0.0
1508,376.75,72.5005,74.3658,143.41,98.0706,94.8535,0.00709798,0.142457,20.8841,879.002,0.301283,0.0,0.0
1512,377.75,72.3764,73.7108,137.594,98.0806,94.89,0.00702617,0.142341,20.8848,878.992,0.298719,0.0,0.0
1516,378.75,72.3485,74.092,142.396,98.0825,94.5027,0.00696067,0.142352,20.8854,879.002,0.335844,0.0,0.0
1520,379.75,71.9714,73.5683,140.046,98.0742,94.9766,0.00691897,0.142353,20.8858,878.972,0.289899,0.0,0.0
1524,380.75,71.5383,73.0663,139.449,98.0691,93.6638,0.006906,0.142246,20.886,878.972,0.415148,0.0,0.0
1528,381.75,71.2578,72.8782,141.204,98.0695,94.9329,0.00693007,0.142106,20.8867,878.952,0.293613,0.0,0.0
1532,382.75,71.3593,72.4753,136.247,98.0687,94.5065,0.00699478,0.141886,20.8873,878.932,0.334207,0.0,0.0
1536,383.75,70.8806,72.6301,136.57,98.0742,93.8836,0.00707034,0.141722,20.8876,878.902,0.394451,0.0,0.0
1540,384.75,70.7293,72.2486,141.594,98.0706,95.2547,0.00713036,0.141608,20.8878,878.952,0.263156,0.0,0.0
1544,385.75,70.6965,71.3696,141.333,98.0663,93.6754,0.00716369,0.141662,20.888,878.912,0.413768,0.0,0.0
1548,386.75,69.6161,71.5168,143.033,98.052,94.5102,0.00717465,0.141698,20.8881,878.872,0.332313,0.0,0.0
1552,387.75,70.2084,71.8759,136.799,98.0691,95.1459,0.00717664,0.141567,20.8881,878.892,0.273331,0.0,0.0
1556,388.75,70.2777,71.8014,140.628,98.0683,94.3458,0.00718122,0.141404,20.8882,878.882,0.349544,0.0,0.0
1560,389.75,69.758,71.2569,140.511,98.0647,94.7805,0.00717259,0.141216,20.8882,878.822,0.307692,0.0,0.0
1564,390.75,69.1441,71.0066,138.018,98.0699,95.1411,0.00715787,0.141071,20.888,878.802,0.273867,0.0,0.0
1568,391.75,69.3532,71.0031,142.293,98.0699,93.8862,0.00715036,0.141046,20.8878,878.792,0.393795,0.0,0.0
1572,392.75,69.3571,70.8223,140.687,98.0703,94.7308,0.00716642,0.141117,20.8876,878.781,0.312939,0.0,0.0
1576,393.75,69.2113,70.4301,140.54,98.0607,95.0052,0.00718932,0.14122,20.8876,878.761,0.285936,0.0,0.0
1580,394.75,68.602,69.8252,137.994,98.058,94.6777,0.0072266,0.141251,20.8875,878.732,0.316867,0.0,0.0
1584,395.75,68.8678,69.7655,139.492,98.073,94.1263,0.00725758,0.14122,20.8882,878.732,0.371015,0.0,0.0
1588,396.75,68.6002,69.3776,140.603,98.0659,95.0778,0.00727754,0.141099,20.8888,878.751,0.279508,0.0,0.0
1592,397.75,68.8533,69.8551,140.104,98.0572,94.9886,0.00727875,0.140911,20.8891,878.761,0.287183,0.0,0.0
1596,398.75,67.8915,69.1633,141.816,98.0544,94.9378,0.00725779,0.140695,20.8893,878.732,0.291761,0.0,0.0
1600,399.75,68.0515,69.4641,141.01,98.0528,94.9374,0.00723024,0.140524,20.8894,878.732,0.29165,0.0,0.0
1604,400.75,68.282,69.2736,141.817,98.0389,94.0868,0.00718062,0.140435,20.8895,878.701,0.371667,0.0,0.0
1608,401.75,67.6118,68.5653,142.282,98.0631,94.6913,0.0071265,0.140277,20.8896,878.701,0.31605,0.0,0.0
1612,402.75,68.1526,69.0298,141.456,98.0457,95.581,0.00708477,0.140018,20.8904,878.681,0.229965,0.0,0.0
1616,403.75,67.5329,68.5422,137.701,98.0437,94.3717,0.0070548,0.139741,20.891,878.671,0.344794,0.0,0.0
1620,404.75,67.1386,68.4781,140.871,98.0425,94.2765,0.00703676,0.139485,20.8918,878.691,0.353803,0.0,0.0
1624,405.75,67.4421,68.0333,141.404,98.0354,95.3597,0.00704305,0.139417,20.8928,878.651,0.249954,0.0,0.0
1628,406.75,66.972,67.7071,142.309,98.0259,95.3684,0.00705929,0.139279,20.8935,878.641,0.248258,0.0,0.0
1632,407.75,67.1574,68.4133,138.918,98.0274,93.9144,0.00706521,0.139141,20.894,878.611,0.387173,0.0,0.0
1636,408.75,66.7458,67.7889,141.868,98.0263,93.9201,0.00704277,0.138999,20.8943,878.611,0.38652,0.0,0.0
1640,409.75,66.6882,67.8459,141.921,98.0187,95.0492,0.00699561,0.138869,20.8945,878.601,0.27788,0.0,0.0
1644,410.75,66.8299,67.9801,140.259,98.0251,94.7575,0.0069559,0.138682,20.8946,878.591,0.306227,0.0,0.0
1648,411.75,66.2343,67.0839,139.634,98.0274,93.6307,0.00692835,0.138478,20.8949,878.561,0.414509,0.0,0.0
1652,412.75,66.6194,67.0772,143.728,98.0227,94.7372,0.0069321,0.138504,20.8952,878.541,0.307946,0.0,0.0
1656,413.75,66.1494,66.7702,142.099,98.0116,94.4463,0.00694762,0.1386,20.8954,878.541,0.334705,0.0,0.0
1660,414.75,66.1521,66.3473,142.275,98.0044,94.7726,0.00696705,0.138712,20.8955,878.481,0.302893,0.0,0.0
1664,415.75,65.8695,66.6825,142.87,97.9965,94.6841,0.00699027,0.138756,20.8958,878.491,0.310596,0.0,0.0
1668,416.75,65.5513,67.1685,138.665,98.0041,94.5565,0.00701318,0.138712,20.8966,878.521,0.32347,0.0,0.0
1672,417.75,65.5268,66.5643,144.311,98.0033,95.2208,0.00703282,0.138504,20.8971,878.471,0.26016,0.0,0.0
1676,418.75,65.6773,65.9665,141.475,97.9973,94.2325,0.00705411,0.13829,20.8974,878.451,0.353859,0.0,0.0
1680,419.75,65.4358,66.2635,143.056,97.9961,94.4831,0.0070872,0.137928,20.8979,878.451,0.329753,0.0,0.0
1684,420.75,64.679,65.457,137.822,97.993,94.4022,0.00712023,0.137448,20.8988,878.441,0.3372,0.0,0.0
1688,421.75,64.8541,65.6467,143.845,97.9866,95.0168,0.00717412,0.137024,20.8993,878.411,0.277997,0.0,0.0
1692,422.75,65.3116,65.8577,138.447,97.9834,94.4688,0.00719497,0.136729,20.8997,878.401,0.329951,0.0,0.0
1696,423.75,65.4333,65.5478,143.59,97.9735,94.6732,0.00717937,0.136536,20.9,878.391,0.309518,0.0,0.0
1700,424.75,64.9599,65.4634,143.771,97.9838,95.2679,0.00715687,0.136387,20.9006,878.371,0.253907,0.0,0.0
1704,425.75,64.7994,65.206,141.954,97.9723,94.8527,0.00714191,0.136205,20.9013,878.351,0.292296,0.0,0.0
1708,426.75,64.621,65.6602,142.629,97.9668,94.9939,0.00713753,0.136013,20.9017,878.331,0.278352,0.0,0.0
1712,427.75,64.6104,65.1257,140.605,97.9616,94.826,0.00713486,0.135861,20.9025,878.311,0.293854,0.0,0.0
1716,428.75,63.7585,64.5072,144.427,97.9616,95.5344,0.00713818,0.135685,20.9034,878.321,0.22663,0.0,0.0
1720,429.75,65.0862,65.0392,142.409,97.9382,94.1941,0.00715211,0.135351,20.9041,878.281,0.352094,0.0,0.0
1724,430.75,64.4249,64.4749,141.612,97.9382,95.5648,0.00717123,0.135043,20.9045,878.301,0.221592,0.0,0.0
1728,431.75,64.1585,65.0526,141.091,97.9446,95.4026,0.00718286,0.134917,20.9047,878.271,0.237523,0.0,0.0
1732,432.75,64.2373,64.3812,142.347,97.9343,95.3048,0.00718069,0.13504,20.9049,878.261,0.245843,0.0,0.0
1736,433.75,63.8356,64.3025,139.311,97.9355,95.0142,0.00713764,0.13508,20.905,878.241,0.273532,0.0,0.0
1740,434.75,63.4033,63.7543,140.399,97.9228,95.4549,0.00707516,0.134853,20.9057,878.241,0.23056,0.0,0.0
1744,435.75,63.7828,64.1293,145.617,97.9121,95.5283,0.00696902,0.134518,20.9064,878.231,0.22263,0.0,0.0
1748,436.75,63.7656,63.8302,144.855,97.9113,95.4245,0.00686196,0.134308,20.9068,878.241,0.232384,0.0,0.0
1752,437.75,63.0474,64.394,140.999,97.8974,94.9833,0.00679524,0.134182,20.9071,878.191,0.272957,0.0,0.0
1756,438.75,62.8374,63.3646,143.875,97.8962,95.3195,0.0067876,0.134046,20.9073,878.201,0.24094,0.0,0.0
1760,439.75,63.5336,63.7964,142.11,97.8962,95.0056,0.00681209,0.133853,20.9076,878.201,0.270735,0.0,0.0
1764,440.75,63.1751,63.7567,141.92,97.8958,95.1019,0.00682132,0.133676,20.9084,878.191,0.261543,0.0,0.0
1768,441.75,63.149,63.9596,141.313,97.8701,94.9066,0.00682398,0.133483,20.9089,878.171,0.277737,0.0,0.0
1772,442.75,62.9793,63.7459,139.449,97.8653,95.3115,0.00675227,0.133177,20.9099,878.171,0.238836,0.0,0.0
1776,443.75,62.8164,63.5595,138.878,97.8689,94.2584,0.00669077,0.132925,20.9107,878.131,0.339524,0.0,0.0
1780,444.75,63.005,63.8362,141.694,97.8435,95.167,0.00666641,0.132659,20.9113,878.121,0.250531,0.0,0.0
1784,445.75,62.2736,63.2812,142.408,97.8443,94.6055,0.00669375,0.132413,20.9116,878.121,0.304062,0.0,0.0
1788,446.75,63.132,63.0821,144.226,97.8332,95.4884,0.00674348,0.132143,20.9118,878.111,0.219123,0.0,0.0
1792,447.75,62.4141,63.0325,143.474,97.8233,95.2777,0.00681135,0.131812,20.9122,878.121,0.238168,0.0,0.0
1796,448.75,62.2895,63.2017,143.029,97.8082,95.0646,0.00688029,0.131493,20.913,878.101,0.256996,0.0,0.0
1800,449.75,62.4034,63.0101,143.832,97.8035,95.371,0.00694865,0.131232,20.9136,878.091,0.227493,0.0,0.0
1804,450.75,62.454,62.6142,142.452,97.7769,95.0583,0.00699023,0.130908,20.9139,878.061,0.254711,0.0,0.0
1808,451.75,62.2879,62.9297,141.45,97.7761,95.3296,0.00699466,0.130534,20.9143,878.041,0.228889,0.0,0.0
1812,452.75,62.022,63.4276,143.977,97.7726,94.7801,0.00697017,0.130189,20.9147,878.051,0.280777,0.0,0.0
1816,453.75,61.8756,62.8436,140.717,97.7591,95.1301,0.00694022,0.129917,20.9151,878.001,0.246235,0.0,0.0
1820,454.75,61.9322,63.0897,144.411,97.7504,95.8776,0.00689227,0.129534,20.9153,877.991,0.174732,0.0,0.0
1824,455.75,61.6381,62.9837,141.39,97.7317,95.2269,0.00683149,0.129122,20.9154,878.051,0.234528,0.0,0.0
1828,456.75,62.1226,61.9816,143.409,97.7357,95.184,0.00675849,0.128528,20.9155,877.991,0.238965,0.0,0.0
1832,457.75,62.3258,62.3111,140.81,97.7107,94.9243,0.0066765,0.127857,20.916,877.971,0.261335,0.0,0.0
1836,458.75,61.6817,62.0623,143.692,97.7052,94.5942,0.00662063,0.127256,20.9167,877.991,0.292286,0.0,0.0
1840,459.75,61.1955,62.2358,140.157,97.6937,94.7161,0.00658084,0.126892,20.9171,877.981,0.279586,0.0,0.0
1844,460.75,61.1049,62.1143,142.221,97.6802,94.8542,0.00653751,0.126249,20.9183,877.981,0.265177,0.0,0.0
1848,461.75,61.3511,61.8477,141.752,97.6643,95.6157,0.00648845,0.125521,20.9198,877.941,0.191493,0.0,0.0
1852,462.75,61.1223,61.4015,143.141,97.6544,94.3382,0.00645185,0.124789,20.9208,877.911,0.312066,0.0,0.0
1856,463.75,60.9355,62.2667,140.811,97.639,95.1012,0.00642776,0.124233,20.9214,877.891,0.237883,0.0,0.0
1860,464.75,61.2352,61.7789,143.869,97.6299,95.7146,0.0064282,0.123868,20.9217,877.921,0.178956,0.0,0.0
1864,465.75,60.9035,61.1577,143.609,97.6207,94.9992,0.00644189,0.123628,20.9217,877.951,0.245889,0.0,0.0
1868,466.75,60.426,61.9574,139.339,97.5997,94.5731,0.0064556,0.123287,20.9217,877.921,0.284546,0.0,0.0
1872,467.75,60.8954,62.1811,140.365,97.5878,94.9931,0.00646821,0.122885,20.9218,877.891,0.243417,0.0,0.0
1876,468.75,60.95,61.4967,142.189,97.5866,95.4467,0.0064912,0.122541,20.9222,877.871,0.200284,0.0,0.0
1880,469.75,60.8424,62.1076,142.717,97.5696,95.2796,0.00653291,0.122239,20.9229,877.841,0.214534,0.0,0.0
1884,470.75,60.841,61.6214,141.54,97.5529,94.3537,0.00660973,0.121822,20.9233,877.851,0.301197,0.0,0.0
1888,471.75,60.498,61.6987,146.101,97.5529,95.4779,0.00669922,0.121368,20.9236,877.851,0.194207,0.0,0.0
1892,472.75,60.5572,61.8152,143.072,97.5193,94.7086,0.00676749,0.120867,20.9238,877.821,0.264163,0.0,0.0
1896,473.75,60.6306,61.3243,144.48,97.4844,94.9171,0.0068092,0.120458,20.9239,877.791,0.241067,0.0,0.0
1900,474.75,60.4789,60.4951,141.943,97.4753,95.1395,0.00680048,0.120143,20.925,877.791,0.219079,0.0,0.0
1904,475.75,60.277,60.8605,141.914,97.4705,94.4839,0.00675969,0.119987,20.9266,877.781,0.281102,0.0,0.0
1908,476.75,59.9177,60.5543,141.38,97.4451,94.6179,,0.119834,,877.801,0.26595,0.0,0.0
1912,477.75,59.8278,60.8936,148.284,97.4293,95.292,,0.119608,,877.801,0.200356,0.0,0.0
1916,478.75,59.7679,60.8484,143.193,97.4095,95.2276,,0.119334,,877.801,0.204621,0.0,0.0
1920,479.75,59.5367,60.4894,144.44,97.4027,94.756,,,,877.771,0.24884,0.0,0.0
1924,480.75,59.9971,60.25,145.447,97.373,95.412,,,,877.731,0.183762,0.0,0.0
1928,481.75,59.7658,60.5523,145.258,97.3548,94.3412,,,,877.751,0.284017,0.0,0.0
1932,482.75,59.9009,60.8358,144.324,97.3504,94.9393,,,,877.741,0.226532,0.0,0.0
1936,483.75,59.7161,60.5011,141.465,97.3207,95.2314,,,,877.691,0.196027,0.0,0.0
1940,484.75,59.437,60.45,143.421,97.3048,94.8625,,,,877.68,0.229608,0.0,0.0
1944,485.75,59.4037,60.7666,142.394,97.2822,94.7214,,,,877.671,0.24096,0.0,0.0
1948,486.75,59.5798,59.8592,144.519,97.266,95.3274,,,,877.68,0.181849,0.0,0.0