File: 01_Data/PET/Cone/PET_Cone_HF50Scan_220207_R1.csv
Names,Time,Stack TC,Smoke TC,Exh Press,Smoke Comp,Smoke Meas,CO Meter,CO2 Meter,O2 Meter,Sample Mass,Ext Coeff,Start Test,Flame Verif
Chan Gain,,500,500,1,1,1,1,1,1,1,1,1.0,1.0
Offset,,0,0,0.134889,0,0,0,0,0,0,0,0.0,0.0
Gain,,1,1,25.011,12.9892,12.3331,1,1,1,1.00088,1.02973,1.0,1.0
Units,sec,C,C,Pa,%,%,%,%,%,g,/m,,
Baseline,,28.4744,30.5367,139.847,96.0875,96.4825,0.000144,0.070296,20.9629,-867.486,-0.0370483,,
5,1,25.4776,27.6119,141.36,96.644,96.9759,0.000247992,0.0799357,20.9522,95.2536,-0.0309648,0.0,0.0
10,2.25,25.5237,26.5567,139.597,96.6757,97.07,0.000209873,0.0803581,20.9516,95.2836,-0.0367619,0.0,0.0
15,3.5,25.1341,26.8947,140.226,96.6991,96.9243,0.000176134,0.0808425,20.9508,95.4038,-0.021012,0.0,0.0
20,4.75,26.0533,27.2214,140.046,96.7193,97.0143,0.000128231,0.0813364,20.9498,95.3737,-0.0275042,0.0,0.0
25,6,25.3576,27.2284,139.93,96.7415,97.1373,6.70672e-05,0.0818383,20.9492,95.3237,-0.0368824,0.0,0.0
30,7.25,25.281,26.8499,146.485,96.7728,97.1155,-1.06082e-05,0.0821004,20.95,95.3237,-0.0319287,0.0,0.0
35,8.5,25.9405,27.693,138.312,96.7982,97.3297,-9.31037e-05,0.0818322,20.9517,95.3237,-0.0494578,0.0,0.0
40,9.75,26.5287,27.6647,139.605,96.8105,97.2593,-0.000144061,0.0812064,20.9532,95.3137,-0.0417777,0.0,0.0
45,11,25.4875,27.1265,139.347,96.8307,97.3617,-0.000154509,0.0804384,20.9545,95.3237,-0.049394,0.0,0.0
50,12.25,26.306,28.1045,138.737,96.8541,97.3579,-0.00012692,0.07956,20.9558,95.3037,-0.046863,0.0,0.0
55,13.5,26.3793,28.3144,141.965,96.8636,97.3812,-7.60997e-05,0.0785769,20.9572,95.3137,-0.0481408,0.0,0.0
60,14.75,26.2817,27.8723,146.983,96.8846,97.4098,-1.58714e-05,0.0776368,20.9597,95.2836,-0.0488353,0.0,0.0
65,16,26.18,27.9182,138.919,96.9009,97.2992,4.37932e-05,0.0767697,20.9629,95.2836,-0.0370527,0.0,0.0
70,17.25,26.7811,28.1107,143.409,96.9227,97.5032,4.49798e-05,0.0759872,20.9648,95.2836,-0.0539392,0.0,0.0
75,18.5,26.5849,28.1439,142.232,96.9346,97.2593,-9.93573e-06,0.0750552,20.9663,95.2836,-0.0302085,0.0,0.0
80,19.75,26.3007,27.9319,138.364,96.9473,97.3997,-5.48677e-05,0.0743431,20.9678,95.3037,-0.0420558,0.0,0.0
85,21,26.4453,28.5008,145.841,96.9841,97.5495,-5.5819e-05,0.0737588,20.9686,95.3037,-0.0525029,0.0,0.0
90,22.25,26.1012,28.3034,140.037,97.0059,97.5864,-2.21712e-05,0.0731778,20.9691,95.2836,-0.0538872,0.0,0.0
95,23.5,26.1589,28.4164,141.079,97.0158,97.507,2.0243e-05,0.0725872,20.9694,95.2937,-0.0456108,0.0,0.0
100,24.75,26.4446,28.4699,138.731,97.0257,97.3858,7.98333e-05,0.0720257,20.9705,95.2736,-0.0334541,0.0,0.0
105,26,26.4918,28.9715,143.19,97.0578,97.5374,0.000126165,0.0716163,20.9703,95.2836,-0.0445237,0.0,0.0
110,27.25,26.9612,28.5631,142.255,97.0761,97.1385,0.000144446,0.0713024,20.9701,95.2736,-0.00580358,0.0,0.0
115,28.5,26.875,28.5189,140.448,97.086,97.5438,0.000125465,0.0710991,20.97,95.2937,-0.0424966,0.0,0.0
120,29.75,26.615,28.6039,138.787,97.1007,97.767,9.11082e-05,0.0709537,20.9699,95.2836,-0.061776,0.0,0.0
125,31,26.8465,28.6698,139.859,97.1332,97.56,5.37453e-05,0.0706962,20.9699,95.3137,-0.039608,0.0,0.0
130,32.25,26.7283,28.5398,138.259,97.153,97.4829,1.48057e-05,0.0704023,20.9699,95.3137,-0.0306175,0.0,0.0
135,33.5,26.9507,29.1602,141.533,97.155,97.5679,-1.26241e-05,0.0702287,20.9699,95.2836,-0.0383124,0.0,0.0
140,34.75,26.8611,28.6963,141.367,97.1772,97.467,-9.99053e-06,0.0700974,20.9699,95.2836,-0.0269053,0.0,0.0
145,36,27.455,29.2954,141.654,97.1986,97.6236,4.65336e-07,0.0699167,20.9696,95.2736,-0.0394149,0.0,0.0
150,37.25,27.1769,28.5693,138.897,97.2117,97.6771,4.6264e-05,0.0697796,20.9685,95.2836,-0.0431425,0.0,0.0
155,38.5,27.5174,29.2555,140.329,97.2323,97.9202,6.66506e-05,0.0696961,20.9677,95.2836,-0.0636843,0.0,0.0
160,39.75,26.4894,28.1002,136.403,97.2485,97.7881,6.85444e-05,0.0696915,20.9673,95.2736,-0.0499792,0.0,0.0
165,41,27.3916,29.0878,139.754,97.2727,97.7102,6.07514e-05,0.0696592,20.967,95.2736,-0.0405343,0.0,0.0
170,42.25,26.763,29.03,139.097,97.2739,97.8103,3.96741e-05,0.0695657,20.9669,95.2636,-0.0496749,0.0,0.0
175,43.5,26.8806,28.461,143.093,97.2933,97.7478,2.01208e-05,0.0695705,20.9668,95.2636,-0.042099,0.0,0.0
180,44.75,27.4075,29.6434,137.457,97.3016,97.1404,1.25829e-05,0.0695287,20.9659,95.2736,0.014984,0.0,0.0
185,46,26.6917,28.9406,137.767,97.3203,97.5389,2.95256e-05,0.0694845,20.9653,95.2736,-0.0202733,0.0,0.0
190,47.25,26.4363,28.5567,139.988,97.3262,97.5965,7.90487e-05,0.0694874,20.9651,95.2636,-0.0250533,0.0,0.0
195,48.5,27.385,29.1574,136.313,97.3369,97.4847,0.000142143,0.0695874,20.9657,95.2536,-0.0137076,0.0,0.0
200,49.75,27.317,28.7741,139.711,97.3789,97.3797,0.000173564,0.0696616,20.9661,95.2536,-7.42985e-05,0.0,0.0
205,51,26.6046,28.5579,139.398,97.3734,97.6684,0.000188122,0.0695825,20.9663,95.2636,-0.0273265,0.0,0.0
210,52.25,27.2066,28.9147,145.307,97.373,97.4569,0.000210522,0.0695221,20.9665,95.2436,-0.00778043,0.0,0.0
215,53.5,27.0905,28.722,141.695,97.3817,97.2126,0.000236196,0.069498,20.9665,95.2536,0.0156967,0.0,0.0
220,54.75,27.2436,28.9217,139.616,97.4007,97.0433,0.000252964,0.0695371,20.9666,95.2536,0.0332137,0.0,0.0
225,56,27.0536,29.1244,144.225,97.3999,97.2525,0.000258994,0.069682,20.9666,95.2336,0.013682,0.0,0.0
230,57.25,27.6332,29.0356,134.665,97.419,97.56,0.000259824,0.0698035,20.9666,95.2336,-0.0130687,0.0,0.0
235,58.5,27.4097,28.9415,139.901,97.4321,97.2981,0.000256981,0.0698631,20.9666,95.2136,0.0124305,0.0,0.0
240,59.75,27.2367,28.7613,138.485,97.438,97.0583,0.000245243,0.0699083,20.9669,95.2136,0.0352669,0.0,0.0
245,61,27.2203,29.4019,135.893,97.4384,97.0274,0.000231093,0.0698893,20.9675,95.2036,0.0381763,0.0,0.0
250,62.25,27.4321,29.3356,142.903,97.4431,96.6311,0.000238231,0.0698686,20.9678,95.2136,0.0755887,0.0,0.0
255,63.5,27.677,29.2869,139.355,97.4634,96.8927,0.000280796,0.0699664,20.968,95.2236,0.0530436,0.0,0.0
260,64.75,27.3748,29.6483,141.77,97.4725,96.566,0.000328146,0.0701013,20.9681,95.2136,0.0843949,0.0,0.0
265,66,27.5114,29.6733,139.977,97.4725,96.5156,0.000349101,0.0701968,20.9682,95.2136,0.0891141,0.0,0.0
270,67.25,27.5079,29.5962,139.731,97.48,96.4832,0.000375673,0.0702236,20.9682,95.2036,0.0928419,0.0,0.0
275,68.5,27.4546,29.6197,140.295,97.499,96.0869,0.000416986,0.0702642,20.9682,95.2036,0.131784,0.0,0.0
280,69.75,27.4398,29.4859,136.854,97.5058,96.0063,0.000470685,0.0703521,20.9676,95.1936,0.139985,0.0,0.0
285,71,27.6725,29.4009,135.26,97.4943,95.948,0.000515633,0.0704256,20.9669,95.2036,0.14441,0.0,0.0
290,72.25,27.7841,29.8508,142.851,97.5054,95.8569,0.000555887,0.0705772,20.9665,95.1636,0.154016,0.0,0.0
295,73.5,28.1831,29.6131,138.173,97.5121,95.423,0.000609843,0.0707692,20.9663,95.1836,0.195626,0.0,0.0
300,74.75,27.6135,30.158,142.801,97.5446,95.4681,0.000677719,0.0709851,20.9661,95.1736,0.194363,0.0,0.0
305,76,28.1087,29.6293,136.42,97.5256,95.3462,0.00074904,0.0712108,20.9651,95.1535,0.204146,0.0,0.0
310,77.25,27.4692,29.5742,140.079,97.5395,95.9856,0.000822142,0.0716077,20.964,95.1435,0.145053,0.0,0.0
315,78.5,27.9972,29.7446,140.387,97.5617,95.1373,0.000907573,0.0721332,20.9627,95.1235,0.227298,0.0,0.0
320,79.75,27.9326,30.1083,143.541,97.5494,95.4647,0.00101378,0.0728461,20.9611,95.1235,0.195124,0.0,0.0
325,81,28.0614,30.2117,139.523,97.5537,95.1437,0.00111638,0.0735927,20.9602,95.1235,0.225955,0.0,0.0
330,82.25,27.8175,29.5606,137.43,97.5656,95.0007,0.00116356,0.0745121,20.9603,95.0835,0.240645,0.0,0.0
335,83.5,27.8988,29.8192,136.522,97.5847,95.2607,0.00118013,0.0757521,20.9605,95.0935,0.217713,0.0,0.0
340,84.75,28.4883,30.3119,140.928,97.5894,94.3473,0.00124222,0.0772123,20.9578,95.1035,0.305185,0.0,0.0
345,86,27.8252,29.4761,137.967,97.5981,94.1711,0.00140576,0.0802039,20.9533,95.0935,0.322874,0.0,0.0
350,87.25,28.7162,30.06,136.917,97.6104,95.954,0.00192603,0.0865537,20.9436,95.0134,0.154598,0.0,0.0
355,88.5,28.3339,30.4864,129.294,97.6191,88.7193,0.00275312,0.0992493,20.9189,94.9333,0.863492,0.0,1.0
360,89.75,28.3812,30.6147,131.89,97.631,79.4127,0.00388208,0.123922,20.8675,94.9133,1.8656,0.0,1.0
365,91,29.1184,30.9752,129.065,97.6203,71.257,0.00524718,0.160659,20.8002,94.6931,2.84344,0.0,1.0
370,92.25,29.3821,32.5653,128.385,97.641,68.5196,0.00680282,0.203888,20.7147,94.583,3.19919,0.0,1.0
375,93.5,30.2269,33.0549,125.959,97.6402,68.3461,0.00832582,0.253794,20.6343,94.3528,3.22201,0.0,1.0
380,94.75,31.8096,33.9676,121.988,97.6489,64.3366,0.00995897,0.303342,20.5605,94.1827,3.76891,0.0,0.0
385,96,32.225,35.8456,124.415,97.6584,63.7449,0.0115412,0.353108,20.4888,93.9325,3.85324,0.0,0.0
390,97.25,33.8354,37.0342,118.846,97.6631,61.3609,0.0132276,0.402657,20.4237,93.7323,4.19797,0.0,0.0
395,98.5,35.0384,39.126,120.795,97.6548,59.0112,0.0148338,0.455028,20.3632,93.5421,4.54989,0.0,0.0
400,99.75,35.8552,40.7631,122.583,97.6707,60.5419,0.0160409,0.50296,20.3071,93.3019,4.32004,0.0,0.0
405,101,37.315,42.3877,117.068,97.6766,58.1335,0.0177032,0.550726,20.2532,93.0217,4.68726,0.0,0.0
410,102.25,38.7464,43.9644,117.014,97.6834,56.4948,0.0193333,0.594601,20.2002,92.8015,4.94617,0.0,0.0
415,103.5,39.8144,45.9626,117.696,97.677,51.722,0.0210451,0.637029,20.1489,92.5212,5.74287,0.0,0.0
420,104.75,40.8229,46.7072,121.588,97.6988,52.2199,0.0227476,0.680112,20.1049,92.271,5.65834,0.0,0.0
425,106,42.5053,48.7932,115.567,97.7004,52.1781,0.0250534,0.722262,20.0655,91.8807,5.66571,0.0,0.0
430,107.25,43.4477,50.9659,110.588,97.706,51.4999,0.0273426,0.766982,20.0221,91.5904,5.78441,0.0,0.0
435,108.5,45.0781,52.4107,109.098,97.704,50.9161,0.0299249,0.813644,19.9507,91.1901,5.8872,0.0,0.0
440,109.75,45.7703,53.7597,107.535,97.7182,51.8736,0.0323391,0.869238,19.8753,90.8798,5.72023,0.0,0.0
445,111,48.0846,56.9817,115.188,97.7246,51.8785,0.0348402,0.92922,19.7972,90.4194,5.71996,0.0,0.0
450,112.25,49.9802,59.2015,109.099,97.7167,48.5732,0.0368578,0.989388,19.729,90.1091,6.31388,0.0,0.0
455,113.5,50.8432,60.6298,112.921,97.7238,52.7321,0.0384338,1.04269,19.6732,89.7588,5.57247,0.0,0.0
460,114.75,52.7388,63.7978,104.647,97.7333,49.4479,0.0398274,1.0957,19.6192,89.3985,6.15421,0.0,0.0
465,116,54.8595,65.7606,102.876,97.7266,51.5443,0.0409571,1.14162,19.5681,89.0182,5.77853,0.0,0.0
470,117.25,56.3313,67.5564,107.401,97.7385,50.9334,0.0418463,1.18342,19.524,88.6778,5.88731,0.0,0.0
475,118.5,57.7358,69.0238,103.009,97.7337,50.8608,0.0425787,1.22224,19.4848,88.2174,5.89976,0.0,0.0
480,119.75,59.2044,71.7247,107.641,97.7246,51.2933,0.0431062,1.25658,19.4524,87.8371,5.82244,0.0,0.0
485,121,60.5226,73.7467,103.221,97.7361,53.984,0.0435396,1.28704,19.4313,87.4868,5.36168,0.0,0.0
490,122.25,61.7854,75.4381,105.765,97.7401,54.1782,0.0437568,1.31001,19.4188,87.0965,5.32961,0.0,0.0
495,123.5,63.0759,77.1725,113.795,97.7416,50.5966,0.0437152,1.32623,19.4127,86.7462,5.94754,0.0,0.0
500,124.75,64.3357,79.2731,102.057,97.7456,53.3592,0.0434109,1.33837,19.4107,86.3558,5.46771,0.0,0.0
505,126,65.6157,80.4353,103.245,97.7523,51.8894,0.0429769,1.34725,19.4095,86.0155,5.72063,0.0,0.0
510,127.25,66.1811,81.8078,108.927,97.7476,53.3242,0.0425497,1.35331,19.4089,85.6652,5.47382,0.0,0.0
515,128.5,67.4787,83.3644,114.06,97.7448,54.7179,0.0421739,1.36032,19.4093,85.2749,5.24051,0.0,0.0
520,129.75,68.7777,84.7543,112.597,97.7432,53.0302,0.0417278,1.36232,19.412,84.9246,5.52335,0.0,0.0
525,131,69.6298,86.1425,106.091,97.7456,52.6843,0.041325,1.3636,19.4178,84.6043,5.58268,0.0,0.0
530,132.25,70.6006,87.3574,111.732,97.7428,56.5603,0.0409236,1.3574,19.4368,84.244,4.9412,0.0,0.0
535,133.5,71.2723,87.9001,108.187,97.7408,54.4966,0.0405771,1.34958,19.4585,83.8736,5.27675,0.0,0.0
540,134.75,72.181,89.177,112.137,97.7408,55.9652,0.040311,1.33773,19.4783,83.5433,5.03655,0.0,0.0
545,136,72.7743,89.9352,107.401,97.7341,53.8466,0.0401186,1.32525,19.4995,83.193,5.38451,0.0,0.0
550,137.25,73.0877,90.4591,110.912,97.7393,52.0543,0.04007,1.31317,19.5151,82.9028,5.69076,0.0,0.0
555,138.5,73.9325,91.4626,114.34,97.7432,51.9948,0.0401575,1.30339,19.5254,82.5425,5.70146,0.0,0.0
560,139.75,74.3524,91.8677,108.291,97.7397,53.4115,0.0403482,1.29644,19.5317,82.1421,5.45831,0.0,0.0
565,141,74.4995,92.2494,113.614,97.7321,53.955,0.0404367,1.29166,19.5364,81.7518,5.36617,0.0,0.0
570,142.25,75.4914,93.2883,111.202,97.7254,53.4973,0.0403399,1.2871,19.5392,81.4515,5.44249,0.0,0.0
575,143.5,76.185,93.9506,107.758,97.7194,53.39,0.0397914,1.28274,19.5425,81.1612,5.46007,0.0,0.0
580,144.75,75.5998,93.9592,108.209,97.7028,53.5621,0.03915,1.27807,19.5509,80.7809,5.42948,0.0,0.0
585,146,76.2306,94.9054,106.306,97.6909,51.7076,0.0384434,1.26997,19.5637,80.5007,5.74665,0.0,0.0
590,147.25,77.0115,95.5301,104.26,97.6961,52.2952,0.0378169,1.26054,19.5799,80.1604,5.64507,0.0,0.0
595,148.5,76.8594,95.5631,109.596,97.6893,54.4687,0.0373919,1.24918,19.5952,79.8501,5.27661,0.0,0.0
600,149.75,77.9372,96.7128,107.178,97.6659,54.436,0.0370522,1.23665,19.6111,79.5298,5.27988,0.0,0.0
605,151,77.1271,96.157,113.668,97.6584,51.9376,0.0367333,1.22578,19.6235,79.1895,5.70356,0.0,0.0
610,152.25,78.2998,96.8447,111.15,97.6735,51.1992,0.0365399,1.21665,19.6318,78.8692,5.8343,0.0,0.0
615,153.5,78.3916,97.0707,109.321,97.66,53.1303,0.0365314,1.21078,19.6389,78.579,5.49862,0.0,0.0
620,154.75,78.7367,97.2832,113.878,97.6219,50.2127,0.0366703,1.20921,19.6376,78.2987,6.00527,0.0,0.0
625,156,78.8299,97.9776,113.43,97.6279,50.472,0.0369621,1.21425,19.6246,77.8483,5.95929,0.0,0.0
630,157.25,79.211,97.7825,114.638,97.6084,52.9373,0.0374391,1.22455,19.5986,77.508,5.52673,0.0,0.0
635,158.5,79.0805,98.2317,104.479,97.6108,50.7588,0.0380706,1.24221,19.5611,77.2078,5.90653,0.0,0.0
640,159.75,80.2181,98.844,99.5051,97.5859,52.1243,0.0389241,1.26646,19.5157,76.7374,5.66444,0.0,0.0
645,161,80.8265,99.7882,107.935,97.589,52.9139,0.0398411,1.2951,19.471,76.4071,5.52892,0.0,0.0
650,162.25,81.6019,100.807,107.718,97.5807,54.5862,0.0406165,1.32385,19.4369,76.0468,5.24711,0.0,0.0
655,163.5,82.7303,101.96,107.087,97.566,52.5417,0.0413674,1.35252,19.4053,75.6364,5.59056,0.0,0.0
660,164.75,82.9709,103.048,103.56,97.543,52.6444,0.0419695,1.37738,19.3857,75.2961,5.57078,0.0,0.0
665,166,84.4417,104.17,111,97.5351,52.4627,0.0423517,1.39562,19.3753,74.8857,5.60129,0.0,0.0
670,167.25,85.0398,104.861,102.989,97.5323,52.4694,0.0427254,1.40692,19.3651,74.5354,5.59987,0.0,0.0
675,168.5,85.5498,104.321,108.056,97.5089,52.603,0.0429159,1.41558,19.359,74.1151,5.57473,0.0,0.0
680,169.75,85.8941,106.247,105.614,97.4994,52.2549,0.0428891,1.42175,19.3555,73.7648,5.63383,0.0,0.0
685,171,86.2337,106.762,110.047,97.4764,54.4559,0.0426694,1.42757,19.3532,73.4245,5.25903,0.0,0.0
690,172.25,87.436,107.087,105.215,97.4856,52.3287,0.0422832,1.43053,19.3541,73.0441,5.6198,0.0,0.0
695,173.5,87.685,108.248,113.837,97.4538,54.567,0.041859,1.43094,19.3589,72.6738,5.23853,0.0,0.0
700,174.75,87.3252,108.283,110.686,97.4384,53.6121,0.0415034,1.43014,19.3626,72.2634,5.39656,0.0,0.0
705,176,88.4087,108.997,102.522,97.4475,52.8443,0.0412115,1.4284,19.3691,71.9031,5.52771,0.0,0.0
710,177.25,88.1245,108.341,104,97.4408,50.5093,0.0409187,1.42687,19.3738,71.5928,5.9353,0.0,0.0
715,178.5,88.6449,109.896,108.104,97.4297,53.8282,0.0406601,1.42409,19.3793,71.1625,5.35943,0.0,0.0
720,179.75,89.0326,110.076,109.36,97.4087,53.4849,0.040447,1.41836,19.3897,70.8922,5.41527,0.0,0.0
725,181,89.6658,110.811,110.382,97.4039,54.3547,0.040295,1.41089,19.4003,70.4919,5.26911,0.0,0.0
730,182.25,89.49,110.23,105.688,97.398,51.7788,0.040162,1.40372,19.4087,70.1816,5.7071,0.0,0.0
735,183.5,89.8663,110.212,107.126,97.3849,53.8805,0.0401823,1.39998,19.4118,69.8113,5.3465,0.0,0.0
740,184.75,89.2888,108.765,113.015,97.3647,53.2158,0.0403975,1.40083,19.4076,69.431,5.45675,0.0,0.0
745,186,90.3044,111.156,114.621,97.3718,54.2403,0.0407772,1.40436,19.3973,69.1207,5.28517,0.0,0.0
750,187.25,90.7095,111.644,108.153,97.375,51.5533,0.0412776,1.41027,19.3856,68.7203,5.74439,0.0,0.0
755,188.5,90.448,110.816,104.699,97.4229,51.3757,0.0419322,1.42018,19.3642,68.33,5.78001,0.0,0.0
760,189.75,91.6168,112.763,103.917,97.4796,49.8367,0.0425102,1.43368,19.3394,67.9797,6.05999,0.0,0.0
765,191,92.1688,112.988,100.457,97.5304,51.9922,0.0431107,1.45038,19.3171,67.4692,5.68222,0.0,0.0
770,192.25,92.6332,113.799,104.213,97.5553,52.4604,0.0436689,1.46493,19.3025,67.179,5.60355,0.0,0.0
775,193.5,93.3088,113.998,100.719,97.6065,50.6226,0.0441074,1.4768,19.2906,66.7086,5.93041,0.0,0.0
780,194.75,93.1469,115.001,102.51,97.6548,54.9373,0.0443067,1.48835,19.2816,66.3583,5.19604,0.0,0.0
785,196,94.0224,115.593,108.647,97.6869,50.5857,0.0442005,1.49666,19.2762,66.018,5.94444,0.0,0.0
790,197.25,94.3904,116.323,103.642,97.7178,54.8733,0.0438347,1.49977,19.275,65.6576,5.2124,0.0,0.0
795,198.5,95.1406,115.593,107.567,97.7646,55.6502,0.0433487,1.49667,19.2835,65.2873,5.08974,0.0,0.0
800,199.75,95.0973,116.727,104.601,97.7896,53.4488,0.0427888,1.48889,19.3033,64.937,5.45662,0.0,0.0
805,201,94.2237,117.171,110.772,97.8185,55.3273,0.0421774,1.47835,19.3258,64.5467,5.14729,0.0,0.0
810,202.25,95.3383,116.782,107.65,97.8332,56.1429,0.0414762,1.46146,19.3552,64.2564,5.01646,0.0,0.0
815,203.5,95.3498,116.925,105.533,97.8653,56.2264,0.0406714,1.44428,19.3819,63.8761,5.00599,0.0,0.0
820,204.75,96.4321,115.876,105.052,97.9018,58.6318,0.039806,1.4268,19.4067,63.5258,4.63096,0.0,0.0
825,206,95.6843,116.86,108.931,97.9137,53.722,0.0388755,1.40745,19.4325,63.2455,5.42202,0.0,0.0
830,207.25,95.6199,116.925,110.08,97.9236,54.1488,0.0381073,1.38634,19.4629,62.9353,5.35145,0.0,0.0
835,208.5,95.8916,116.93,107.161,97.966,53.6132,0.0373974,1.36519,19.4958,62.595,5.44515,0.0,0.0
840,209.75,94.9349,116.461,111.688,97.9624,55.2531,0.0367013,1.33909,19.5301,62.2947,5.17268,0.0,0.0
845,211,95.8269,116.141,109.831,97.9973,56.261,0.0360633,1.31354,19.5605,61.9844,5.0126,0.0,0.0
850,212.25,95.1917,115.675,106.167,98.0001,53.7585,0.0355158,1.28954,19.5815,61.6842,5.42385,0.0,0.0
855,213.5,94.8659,115.199,107.199,98.0179,56.0872,0.0348762,1.26767,19.6053,61.3839,5.04246,0.0,0.0
860,214.75,94.7351,114.203,108.32,98.0215,55.6795,0.0342572,1.25135,19.6304,61.1537,5.10868,0.0,0.0
865,216,94.6798,114.4,110.05,98.0298,57.861,0.0336604,1.22848,19.6567,60.8234,4.76231,0.0,0.0
870,217.25,93.6214,113.628,109.34,98.0374,56.0446,0.0332219,1.20818,19.6807,60.5131,5.05111,0.0,0.0
875,218.5,93.533,113.371,110.191,98.0687,53.3464,0.0331122,1.18998,19.6949,60.1828,5.49968,0.0,0.0
880,219.75,93.2281,112.66,113.265,98.052,53.7081,0.0332034,1.17587,19.7042,59.9126,5.43711,0.0,0.0
885,221,92.6543,112.015,111.351,98.0425,56.4387,0.0333003,1.16586,19.7106,59.5923,4.98829,0.0,0.0
890,222.25,92.8401,111.771,116.315,98.0488,56.864,0.0333081,1.15706,19.7164,59.272,4.92106,0.0,0.0
895,223.5,91.4952,111.114,107.507,98.0445,55.7033,0.0331614,1.15073,19.7209,59.0619,5.10695,0.0,0.0
900,224.75,92.4989,111.721,113.715,98.0366,57.4666,0.0330073,1.14354,19.7274,58.7316,4.82472,0.0,0.0
905,226,92.5377,111.085,111.313,98.0286,55.4334,0.0327983,1.13585,19.7352,58.4713,5.14936,0.0,0.0
910,227.25,91.3204,109.395,106.615,98.0159,56.3307,0.032586,1.12972,19.7406,58.131,5.00315,0.0,0.0
915,228.5,92.0245,110.416,109.47,98.0044,55.6257,0.0323141,1.1257,19.7429,57.8108,5.11584,0.0,0.0
920,229.75,91.9957,110.4,107.811,97.9878,56.5953,0.0320421,1.12379,19.7411,57.6006,4.95823,0.0,0.0
925,231,92.0466,110.26,114.912,97.9803,56.2528,0.0318184,1.12292,19.7384,57.2703,5.01236,0.0,0.0
930,232.25,91.9089,110.117,110.742,97.9505,57.9442,0.0317086,1.12325,19.7358,56.98,4.74202,0.0,0.0
935,233.5,91.5634,109.945,106.977,97.9283,55.9795,0.0317211,1.12367,19.7343,56.6898,5.05156,0.0,0.0
940,234.75,91.6356,109.603,110.819,97.8974,55.8252,0.0317696,1.12267,19.7342,56.4095,5.07364,0.0,0.0
945,236,92.5468,108.75,109.934,97.8732,56.8934,0.0318024,1.1204,19.7353,56.0692,4.90021,0.0,0.0
950,237.25,91.9905,109.612,116.554,97.8487,56.5968,0.0317925,1.11754,19.7359,55.779,4.94515,0.0,0.0
955,238.5,91.5138,109.676,111.295,97.8086,53.6878,0.0317506,1.11697,19.7346,55.4887,5.41808,0.0,0.0
960,239.75,91.4441,108.962,107.623,97.7718,55.3288,0.0317464,1.1183,19.7323,55.2085,5.14272,0.0,0.0
965,241,91.8436,109.386,113.075,97.7282,55.7631,0.0318031,1.11969,19.7295,54.9082,5.06806,0.0,0.0
970,242.25,91.4686,108.931,107.693,97.7024,57.788,0.0319033,1.12146,19.7255,54.638,4.74349,0.0,0.0
975,243.5,92.064,109.408,107.135,97.635,56.086,0.0319724,1.12471,19.7196,54.2576,5.00729,0.0,0.0
980,244.75,91.966,109.143,107.29,97.5724,53.9049,0.0320282,1.12857,19.7132,53.9774,5.35977,0.0,0.0
985,246,91.0571,108.636,111.185,97.5407,55.8406,0.0321443,1.13179,19.7122,53.6971,5.03816,0.0,0.0
990,247.25,90.7023,109.499,110.972,97.4725,54.952,0.0323605,1.13491,19.7107,53.3268,5.17675,0.0,0.0
995,248.5,92.5053,108.422,102.339,97.4118,54.3619,0.0326329,1.14063,19.7019,52.9865,5.26866,0.0,0.0
1000,249.75,92.5352,109.088,107.093,97.35,52.9862,0.0328326,1.147,19.6909,52.7263,5.49444,0.0,0.0
1005,251,92.3874,109.18,107.412,97.3603,56.0062,0.0330445,1.15637,19.6763,52.416,4.9947,0.0,0.0
1010,252.25,92.5135,109.082,109.679,97.3643,54.9099,0.0331849,1.16557,19.6665,52.1358,5.17364,0.0,0.0
1015,253.5,92.4031,109.806,115.188,97.3805,52.1333,0.033247,1.17083,19.6606,51.7955,5.64385,0.0,0.0
1020,254.75,93.5467,109.811,108.047,97.3968,53.8037,0.0332581,1.1746,19.6572,51.4652,5.36048,0.0,0.0
1025,256,92.8383,109.977,102.796,97.413,53.352,0.0332693,1.17733,19.6551,51.1849,5.43814,0.0,0.0
1030,257.25,92.8197,110.116,108.877,97.4269,53.1883,0.0332791,1.18268,19.6473,50.8346,5.46718,0.0,0.0
1035,258.5,92.7648,109.857,107.873,97.4348,54.2501,0.0332518,1.1911,19.6368,50.5043,5.28938,0.0,0.0
1040,259.75,93.5242,110.009,107.454,97.4626,56.4812,0.0331321,1.1975,19.6307,50.2341,4.9279,0.0,0.0
1045,261,93.5654,110.532,106.085,97.4812,57.5851,0.0329382,1.20064,19.6284,49.9138,4.75479,0.0,0.0
1050,262.25,93.5378,110.701,109.151,97.4975,53.9392,0.0327485,1.20046,19.6328,49.5835,5.3471,0.0,0.0
1055,263.5,93.7799,110.861,110.805,97.5208,53.3742,0.0326818,1.19803,19.6369,49.2532,5.44437,0.0,0.0
1060,264.75,93.6679,110.486,107.003,97.5446,54.4458,0.032835,1.19607,19.6393,48.983,5.26703,0.0,0.0
1065,266,93.7828,110.814,106.682,97.5652,53.1533,0.0332156,1.1978,19.6343,48.5726,5.48595,0.0,0.0
1070,267.25,94.4986,110.828,102.158,97.5882,54.6946,0.0336561,1.20565,19.6269,48.2824,5.22988,0.0,0.0
1075,268.5,94.1322,110.938,105.735,97.6116,51.6742,0.0340135,1.2173,19.6107,47.9021,5.74517,0.0,0.0
1080,269.75,95.3789,110.254,106.524,97.6374,53.5161,0.0343222,1.22792,19.5958,47.5618,5.43118,0.0,0.0
1085,271,95.0387,111.596,106.752,97.6548,54.3972,0.0345709,1.23554,19.5864,47.2415,5.28528,0.0,0.0
1090,272.25,94.9463,111.74,102.875,97.6778,54.3246,0.0348438,1.24175,19.5809,46.9212,5.29948,0.0,0.0
1095,273.5,94.7002,112.14,106.905,97.7139,54.4153,0.0351061,1.24802,19.5719,46.5709,5.28775,0.0,0.0
1100,274.75,95.5268,112.386,106.765,97.7408,55.5542,0.0354168,1.25492,19.5646,46.2606,5.10313,0.0,0.0
1105,276,94.9464,112.258,108.262,97.7623,56.1749,0.0355389,1.26149,19.5604,45.9103,5.00476,0.0,0.0
1110,277.25,95.9166,112.776,109.325,97.7777,56.733,0.0354448,1.26571,19.5591,45.6201,4.91688,0.0,0.0
1115,278.5,95.7442,112.271,112.246,97.8217,55.5489,0.0353667,1.26548,19.5613,45.2397,5.11146,0.0,0.0
1120,279.75,96.2516,113.203,104.601,97.8364,56.4586,0.0357466,1.26342,19.5626,44.9595,4.96609,0.0,0.0
1125,281,95.4105,112.48,109.18,97.8538,53.3494,0.0368335,1.2662,19.5575,44.5691,5.47936,0.0,0.0
1130,282.25,95.9948,113.055,103.495,97.878,51.0482,0.0388286,1.27543,19.539,44.1988,5.87986,0.0,0.0
1135,283.5,96.2651,113.556,104.957,97.9097,49.8871,0.041446,1.29186,19.5108,43.7884,6.09062,0.0,0.0
1140,284.75,96.2318,113.609,105.518,97.9311,50.1303,0.0452091,1.31888,19.4643,43.338,6.04867,0.0,0.0
1145,286,96.5598,114.156,100.703,97.9493,47.5468,0.0488639,1.35094,19.4074,42.8576,6.52828,0.0,0.0
1150,287.25,97.7226,114.617,99.5677,97.9727,48.1245,0.0523482,1.39109,19.3517,42.4773,6.42134,0.0,0.0
1155,288.5,98.1705,115.853,102.828,97.9902,48.9488,0.055305,1.43322,19.2964,42.0169,6.26955,0.0,0.0
1160,289.75,97.7055,115.853,101.535,98.0005,49.2763,0.0574285,1.47302,19.2475,41.5965,6.21027,0.0,0.0
1165,291,99.0179,117.467,103.202,98.012,50.6489,0.05886,1.50818,19.2135,41.1261,5.96316,0.0,0.0
1170,292.25,99.8212,117.801,105.51,98.0358,51.5492,0.0604943,1.53654,19.1911,40.6957,5.8062,0.0,0.0
1175,293.5,100.306,118.265,103.986,98.0409,47.8114,0.0626086,1.55857,19.1695,40.1953,6.48659,0.0,0.0
1180,294.75,100.607,119.287,101.192,98.0425,46.5498,0.0648852,1.59089,19.1393,39.7449,6.72829,0.0,0.0
1185,296,101.235,120.224,101.122,98.052,46.8656,0.0681635,1.6295,19.0898,39.2144,6.6681,0.0,0.0
1190,297.25,102.245,121.024,97.6045,98.0524,45.0853,0.0726564,1.67048,19.0395,38.734,7.01794,0.0,0.0
1195,298.5,102.9,121.784,103.223,98.05,46.5313,0.0782498,1.71436,18.976,38.2436,6.73256,0.0,0.0
1200,299.75,103.944,122.951,93.4844,98.0342,42.821,0.0838019,1.76469,18.8948,37.6631,7.48169,0.0,0.0
1205,301,104.514,124,89.852,98.0354,43.6171,0.089088,1.8266,18.8085,37.0425,7.31542,0.0,0.0
1210,302.25,105.252,125.71,94.3637,98.0259,42.2674,0.0937694,1.89414,18.7248,36.432,7.59847,0.0,0.0
1215,303.5,106.882,127.541,94.1156,98.0152,45.8644,0.0975521,1.96684,18.6339,35.9115,6.85975,0.0,0.0
1220,304.75,108.081,128.794,92.5379,97.9953,44.1346,0.1003,2.03746,18.5592,35.301,7.20519,0.0,0.0
1225,306,109.337,131.671,101.087,97.9715,47.4399,0.102566,2.09472,18.5125,34.6804,6.55065,0.0,0.0
1230,307.25,110.396,132.826,94.4667,97.9497,45.4933,0.104409,2.1352,18.4826,34.1099,6.9271,0.0,0.0
1235,308.5,110.861,133.899,97.1298,97.9311,46.1335,0.106039,2.1689,18.4615,33.4694,6.79916,0.0,0.0
1240,309.75,112.253,134.609,89.9283,97.9014,43.3901,0.106985,2.19951,18.4376,32.8789,7.35019,0.0,0.0
1245,311,112.728,135.773,90.8534,97.8792,44.1331,0.10664,2.22694,18.4152,32.3184,7.19479,0.0,0.0
1250,312.25,113.906,137.179,98.7212,97.8427,46.5976,0.104828,2.25002,18.402,31.6978,6.70059,0.0,0.0
1255,313.5,114.369,138.467,98.1861,97.8312,49.1822,0.101914,2.25954,18.4009,31.1073,6.21192,0.0,0.0
1260,314.75,115.333,139.467,99.4104,97.7896,46.7207,0.0986369,2.2562,18.4203,30.6369,6.67186,0.0,0.0
1265,316,115.729,139.583,103.812,97.7349,44.9916,0.0945606,2.24162,18.4549,30.1365,7.00744,0.0,0.0
1270,317.25,115.087,139.025,96.5474,97.6873,44.7387,0.0902041,2.22122,18.4915,29.596,7.05396,0.0,0.0
1275,318.5,116.081,140.058,99.0769,97.6489,48.1317,0.0855979,2.19447,18.5344,29.0855,6.39009,0.0,0.0
1280,319.75,116.375,140.472,94.8193,97.5954,49.0203,0.0803978,2.15303,18.5995,28.6752,6.21989,0.0,0.0
1285,321,115.815,139.289,105.645,97.5383,47.9175,0.0756057,2.11178,18.6731,28.2448,6.42013,0.0,0.0
1290,322.25,116.516,140.05,104.057,97.4994,49.1359,0.0715032,2.06121,18.7431,27.8444,6.18974,0.0,0.0
1295,323.5,116.034,139.797,106.59,97.4384,47.7248,0.0673917,2.00864,18.8086,27.3941,6.44728,0.0,0.0
1300,324.75,115.313,138.695,103.299,97.3833,53.0799,0.0641032,1.95647,18.8752,27.0037,5.48157,0.0,0.0
1305,326,115.091,138.793,100.482,97.3306,54.29,0.0616045,1.90668,18.9354,26.5333,5.27307,0.0,0.0
1310,327.25,115.16,138.373,100.368,97.266,52.3012,0.0597812,1.85843,18.989,26.1229,5.60418,0.0,0.0
1315,328.5,114.793,138.305,103.991,97.214,49.5981,0.0586064,1.81711,19.03,25.6725,6.0787,0.0,0.0
1320,329.75,114.877,137.583,106.161,97.1566,49.3335,0.0579604,1.78193,19.0605,25.3322,6.12167,0.0,0.0
1325,331,114.753,137.246,104.071,97.0781,48.2367,0.0576346,1.75358,19.0825,24.8818,6.31745,0.0,0.0
1330,332.25,114.156,136.597,98.5747,97.0198,48.4697,0.057307,1.73226,19.0972,24.3914,6.2685,0.0,0.0
1335,333.5,114.148,136.235,102.294,96.933,50.1543,0.056429,1.71456,19.1109,24.0111,5.9518,0.0,0.0
1340,334.75,113.921,136.039,107.75,96.8708,50.3504,0.0549123,1.69478,19.1409,23.6708,5.91075,0.0,0.0
1345,336,113.898,135.55,104.611,96.803,52.1224,0.0528801,1.66485,19.1732,23.2904,5.59201,0.0,0.0
1350,337.25,113.414,135.078,106.019,96.7439,53.8014,0.0509303,1.62864,19.2075,22.9602,5.30011,0.0,0.0
1355,338.5,112.58,134.259,107.804,96.6682,54.879,0.0485798,1.5909,19.246,22.5698,5.11391,0.0,0.0
1360,339.75,112.653,133.208,107.839,96.6083,58.6819,0.0454443,1.55946,19.2954,22.2996,4.50312,0.0,0.0
1365,341,111.959,132.774,106.694,96.5346,58.4049,0.0426789,1.5236,19.3523,21.9893,4.53897,0.0,0.0
1370,342.25,111.727,131.413,111.107,96.4676,59.5276,0.0401887,1.47698,19.4151,21.669,4.3607,0.0,0.0
1375,343.5,110.976,131.409,110.343,96.4181,63.3155,0.0379293,1.42717,19.4762,21.3688,3.79884,0.0,0.0
1380,344.75,110.094,130.01,111.327,96.3515,63.6918,0.0353921,1.37861,19.5349,21.0985,3.73906,0.0,0.0
1385,346,109.213,128.821,113.894,96.3075,63.5405,0.0329477,1.32874,19.5996,20.8583,3.75642,0.0,0.0
1390,347.25,108.68,127.962,110.239,96.246,64.0513,0.0306323,1.27936,19.6651,20.5781,3.67834,0.0,0.0
1395,348.5,108.106,127.204,111.163,96.1917,65.9749,0.0282354,1.22987,19.7272,20.3579,3.40596,0.0,0.0
1400,349.75,107.639,126.127,106.106,96.1461,68.5475,0.0262976,1.18376,19.7822,20.1777,3.05616,0.0,0.0
1405,351,106.986,125.203,111.821,96.1057,67.8734,0.024359,1.13601,19.8278,19.9375,3.14163,0.0,0.0
1410,352.25,105.3,123.525,114.449,96.0375,67.2915,0.0228437,1.09745,19.871,19.7473,3.21299,0.0,0.0
1415,353.5,105.262,122.849,115.735,96.0232,71.8385,0.0215459,1.05568,19.9226,19.5472,2.62103,0.0,0.0
1420,354.75,104.558,121.764,114.243,96.0038,70.5174,0.0204584,1.01297,19.9714,19.367,2.78685,0.0,0.0
1425,356,103.142,119.595,111.461,95.9586,68.6969,0.0194981,0.976116,20.0116,19.1568,3.01886,0.0,0.0
1430,357.25,103.24,119.365,113.704,95.9321,70.776,0.0187959,0.942584,20.0362,19.0267,2.74704,0.0,0.0
1435,358.5,102.133,118.333,117.286,95.9103,73.1859,0.0178729,0.911891,20.067,18.8165,2.44254,0.0,0.0
1440,359.75,101.558,117.322,117.454,95.8968,74.4246,0.0170484,0.887533,20.0898,18.6764,2.28967,0.0,0.0
1445,361,100.692,116.206,112.814,95.8718,74.6233,0.0161722,0.859373,20.116,18.5263,2.26324,0.0,0.0
1450,362.25,99.8986,115.285,114.675,95.8675,75.6523,0.0155251,0.832087,20.1438,18.3261,2.13912,0.0,0.0
1455,363.5,99.3653,114.03,118.641,95.8778,76.5462,0.0147804,0.802541,20.1743,18.176,2.03399,0.0,0.0
1460,364.75,97.8744,112.259,115.777,95.8881,76.8763,0.0140613,0.780743,20.2043,18.0258,1.99609,0.0,0.0
1465,366,97.773,111.566,114.407,95.8849,75.9139,0.0134177,0.755993,20.2327,17.8657,2.10958,0.0,0.0
1470,367.25,96.7493,110.629,116.413,95.9012,78.4924,0.0127781,0.733043,20.2589,17.7356,1.8094,0.0,0.0
1475,368.5,96.3208,109.39,117.12,95.9174,78.6181,0.0122121,0.712105,20.2831,17.5754,1.79647,0.0,0.0
1480,369.75,94.9614,108.467,121.503,95.9527,79.5941,0.0116751,0.692283,20.3066,17.4453,1.68836,0.0,0.0
1485,371,94.8074,107.301,115.542,95.9741,79.0916,0.0111953,0.672573,20.3256,17.3152,1.74757,0.0,0.0
1490,372.25,94.6442,105.077,116.033,96.0066,80.2904,0.0106311,0.654092,20.3431,17.2051,1.61476,0.0,0.0
1495,373.5,93.7638,105.576,118.674,96.0466,80.8549,0.0101095,0.638137,20.3596,17.065,1.55523,0.0,0.0
1500,374.75,92.7284,104.404,117.845,96.0756,81.2987,0.0096347,0.621299,20.3787,16.9349,1.50851,0.0,0.0
1505,376,92.0148,103.323,119.588,96.1164,80.2373,0.00926739,0.604276,20.398,16.8548,1.63105,0.0,0.0
1510,377.25,91.2822,102.342,122.963,96.1703,83.7598,0.00899066,0.587673,20.4169,16.7347,1.24803,0.0,0.0
1515,378.5,90.7031,101.65,120.04,96.2167,84.4584,0.0087666,0.572365,20.434,16.6446,1.17736,0.0,0.0
1520,379.75,89.4697,99.2726,119.636,96.2579,84.1234,0.00857644,0.555958,20.4518,16.5245,1.21713,0.0,0.0
1525,381,89.2678,99.2371,120.083,96.319,83.8682,0.00836006,0.540274,20.4671,16.4044,1.2503,0.0,0.0
1530,382.25,88.6435,99.1595,120.748,96.3725,85.5194,0.00817495,0.523558,20.4857,16.3443,1.07921,0.0,0.0
1535,383.5,88.6936,96.6706,119.942,96.4248,87.2315,0.00803175,0.508274,20.5015,16.2343,0.905059,0.0,0.0
1540,384.75,86.6576,96.0517,124.064,96.4858,89.1514,0.00783461,0.49173,20.5172,16.1742,0.71413,0.0,0.0
1545,386,86.666,94.9814,119.407,96.5453,89.9666,0.00766983,0.478829,20.532,16.1041,0.637472,0.0,0.0
1550,387.25,85.9222,94.6667,122.236,96.6206,89.1947,0.00763522,0.461178,20.5519,16.0541,0.722353,0.0,0.0
1555,388.5,84.1402,93.4911,122.979,96.6789,91.0401,0.00781556,0.440997,20.5811,15.984,0.542827,0.0,0.0
1560,389.75,83.8388,91.5956,122.362,96.7423,90.8327,0.00821674,0.419876,20.6129,15.954,0.569349,0.0,0.0
1565,391,83.2201,90.8484,122.277,96.8176,91.3686,0.0087724,0.396614,20.642,15.914,0.523238,0.0,0.0
1570,392.25,82.5454,90.6245,125.421,96.8815,92.3359,0.00938216,0.374972,20.6644,15.894,0.434066,0.0,0.0
1575,393.5,81.8157,89.3102,128.126,96.9362,92.7202,0.0101337,0.35476,20.6852,15.8639,0.401651,0.0,0.0
1580,394.75,80.7561,88.099,124.95,96.9905,91.7514,0.0108212,0.335888,20.7042,15.8439,0.501586,0.0,0.0
1585,396,80.5967,87.2206,123.67,97.0531,93.9957,0.0115185,0.317523,20.7234,15.7839,0.289127,0.0,0.0
1590,397.25,79.2379,85.6483,126.511,97.1094,93.1974,0.0121475,0.300197,20.7409,15.7638,0.371405,0.0,0.0
1595,398.5,78.6986,84.8496,129.743,97.1653,94.2242,0.0125935,0.284308,20.7567,15.7438,0.277634,0.0,0.0
1600,399.75,78.216,84.0507,125.712,97.2017,93.3273,0.0130178,0.268543,20.7698,15.7338,0.367416,0.0,0.0
1605,401,77.4734,81.9745,129.365,97.2628,95.1098,0.0134105,0.255271,20.7819,15.7038,0.202192,0.0,0.0
1610,402.25,76.3374,81.7623,127.172,97.3219,94.683,0.0137827,0.243176,20.7927,15.6838,0.248302,0.0,0.0
1615,403.5,76.4858,81.1491,125.914,97.3567,94.5396,0.0141061,0.231471,20.8029,15.6638,0.265228,0.0,0.0
1620,404.75,75.1557,80.056,125.863,97.3991,94.4391,0.0143613,0.220754,20.8128,15.6237,0.27877,0.0,0.0
1625,406,74.5199,79.2791,125.493,97.4507,95.2031,0.014528,0.211705,20.8199,15.6537,0.210764,0.0,0.0
1630,407.25,73.8111,78.4967,124.37,97.4665,94.6446,0.0146848,0.203677,20.8252,15.6537,0.265383,0.0,0.0
1635,408.5,73.5389,77.4089,128.03,97.4959,95.2577,0.0148212,0.196317,20.8303,15.6137,0.209775,0.0,0.0
1640,409.75,72.6908,76.4375,124.034,97.5109,94.7466,0.0149332,0.190013,20.8355,15.6137,0.259768,0.0,0.0
1645,411,72.3687,76.2062,128.042,97.5367,95.566,0.0150299,0.183311,20.8401,15.5937,0.184374,0.0,0.0
1650,412.25,71.7919,75.4256,129.386,97.5704,94.9487,0.0151203,0.177578,20.8442,15.5537,0.246026,0.0,0.0
1655,413.5,70.7901,74.3446,124.26,97.593,94.5102,0.0152174,0.172353,20.8471,15.5236,0.289927,0.0,0.0
1660,414.75,69.7427,72.7913,128.384,97.6243,94.7462,0.0153155,0.167914,20.8502,15.5336,0.270299,0.0,0.0
1665,416,70.0146,72.5662,133.611,97.6556,95.4463,0.0154147,0.163932,20.8526,15.5236,0.206701,0.0,0.0
1670,417.25,69.4728,71.7327,129.882,97.6493,95.4659,0.0154814,0.160166,20.8544,15.5136,0.204262,0.0,0.0
1675,418.5,67.8185,70.5316,129.974,97.6513,95.6458,0.0154992,0.157095,20.8556,15.5036,0.18744,0.0,0.0
1680,419.75,68.6479,71.1102,130.392,97.6667,95.3462,0.0154461,0.154419,20.857,15.4836,0.217206,0.0,0.0
1685,421,67.6508,69.8568,128.712,97.6921,95.741,0.0153249,0.152238,20.858,15.4736,0.182227,0.0,0.0
1690,422.25,66.8508,68.6226,128.103,97.6774,95.1651,0.0151722,0.150121,20.8596,15.4736,0.235364,0.0,0.0
1695,423.5,66.9004,69.3543,131.144,97.6651,95.4184,0.0150933,0.148765,20.8605,15.4736,0.210216,0.0,0.0
1700,424.75,66.3377,68.6423,126.137,97.6671,95.3371,0.0151177,0.147139,20.8615,15.4235,0.2181,0.0,0.0
1705,426,64.6544,67.2907,130.162,97.656,95.5457,0.0151833,0.145708,20.8626,15.4035,0.197339,0.0,0.0
1710,427.25,65.5712,66.8712,127.871,97.6497,95.2762,0.0152316,0.144379,20.8633,15.3935,0.222265,0.0,0.0
1715,428.5,64.6863,66.0216,128.652,97.6493,95.7655,0.0152392,0.14327,20.8639,15.3735,0.17596,0.0,0.0
1720,429.75,64.6704,66.6499,129.903,97.6398,95.9977,0.0152341,0.14196,20.8652,15.3835,0.153202,0.0,0.0
1725,431,64.2598,65.8741,129.637,97.6065,96.1855,0.0152441,0.140707,20.8665,15.3635,0.132467,0.0,0.0
1730,432.25,63.6747,65.7837,125.761,97.5851,95.1267,0.0152714,0.139787,20.8674,15.3635,0.230464,0.0,0.0
1735,433.5,63.7467,65.1734,128.773,97.5652,95.6213,0.0153094,0.138841,20.8678,15.3435,0.181789,0.0,0.0
1740,434.75,63.4773,64.6178,125.167,97.5458,94.5076,0.0153647,0.138003,20.8681,15.3435,0.285812,0.0,0.0
1745,436,62.8054,64.4628,132.347,97.5169,95.9495,0.0153834,0.137285,20.8692,15.3435,0.146361,0.0,0.0
1750,437.25,63.1405,63.9494,127.155,97.4907,94.8046,0.0153307,0.136585,20.8701,15.3134,0.25237,0.0,0.0
1755,438.5,62.5582,63.9603,129.016,97.4868,95.8234,0.015239,0.135912,20.8714,15.2834,0.155449,0.0,0.0
1760,439.75,61.9222,63.0368,123.905,97.4582,94.8076,0.0151439,0.13526,20.8721,15.2934,0.249072,0.0,0.0
1765,441,62.1183,62.5075,128.104,97.4305,95.5889,0.0151134,0.134678,20.8726,15.2934,0.172361,0.0,0.0
1770,442.25,61.655,61.6095,126.32,97.4087,96.0395,0.0151494,0.134176,20.8728,15.2734,0.127868,0.0,0.0
1775,443.5,61.2649,62.1257,129.353,97.4015,95.1813,0.0151581,0.133749,20.873,15.2534,0.208278,0.0,0.0
1780,444.75,61.2235,61.6906,129.118,97.371,96.0376,0.0151125,0.133451,20.8731,15.2634,0.124552,0.0,0.0
1785,446,60.9674,61.533,130.365,97.3544,94.8384,0.0150121,0.133219,20.8731,15.2234,0.236501,0.0,0.0
1790,447.25,60.3828,60.4857,133.433,97.3421,95.9107,0.014905,0.132915,20.8732,15.2134,0.133805,0.0,0.0
1795,448.5,60.3417,61.0763,129.998,97.3223,96.1847,0.0147455,0.132608,20.8732,15.2033,0.106197,0.0,0.0
1800,449.75,60.0367,60.3188,128.293,97.3127,95.4433,0.0146014,0.132258,20.8732,15.1833,0.175215,0.0,0.0
1805,451,59.7884,60.1029,128.477,97.3219,95.7775,0.0144727,0.131841,20.8742,15.2033,0.144485,0.0,0.0
1810,452.25,60.3508,59.591,127.107,97.3841,95.5935,0.0144487,0.131557,20.8747,15.1733,0.167633,0.0,0.0
1815,453.5,59.6401,59.5416,126.922,97.4836,95.8328,0.0144924,0.131335,20.8744,15.1733,0.154267,0.0,0.0
1820,454.75,58.6189,58.4837,130.589,97.5327,95.6134,0.0145136,0.131234,20.8742,15.1533,0.179526,0.0,0.0
1825,456,59.2907,58.4438,129.149,97.5922,95.945,0.0144952,0.1312,20.8741,15.1433,0.153759,0.0,0.0
1830,457.25,58.6997,58.7306,126.624,97.6691,96.3375,0.0144549,0.131031,20.874,15.1533,0.123993,0.0,0.0
1835,458.5,57.5674,57.5909,131.343,97.7016,96.3033,0.014431,0.130698,20.8739,15.1133,0.13021,0.0,0.0
1840,459.75,58.3499,58.4647,130.858,97.7682,96.7538,0.0144375,0.130371,20.8739,15.1133,0.0942071,0.0,0.0
1845,461,57.7432,58.2609,131.999,97.8098,95.7455,0.014452,0.13011,20.8739,15.1033,0.192679,0.0,0.0
1850,462.25,57.3663,56.9603,130.034,97.8439,96.1964,0.0144205,0.129962,20.8739,15.0832,0.153389,0.0,0.0
1855,463.5,57.5772,57.308,129.998,97.895,96.2156,0.0143253,0.129981,20.8739,15.0732,0.156306,0.0,0.0
1860,464.75,56.9756,56.0105,133.305,97.9145,96.5694,0.0142038,0.129952,20.8739,15.0532,0.124945,0.0,0.0
1865,466,56.7944,57.0769,129.468,97.9601,96.5227,0.0141013,0.12987,20.8739,15.0532,0.133515,0.0,0.0
1870,467.25,57.362,57.0942,129.841,97.9739,95.1715,0.01407,0.129741,20.8739,15.0232,0.262134,0.0,0.0
1875,468.5,56.8849,56.7142,127.979,97.9878,96.3613,0.0140801,0.129603,20.8739,15.0132,0.151196,0.0,0.0
1880,469.75,56.7745,56.1608,125.214,97.9997,96.4339,0.0141284,0.129563,20.8739,15.0032,0.145487,0.0,0.0
1885,471,56.9037,56.2252,135.274,98.0136,96.4192,0.0141663,0.129523,20.8739,15.0032,0.148139,0.0,0.0
1890,472.25,56.4657,56.1139,129.672,98.0211,96.9413,0.0141745,0.129418,20.8739,14.9731,0.100061,0.0,0.0
1895,473.5,56.1496,56.4013,133.918,98.014,97.0037,0.0141304,0.12921,20.8745,14.9531,0.0935837,0.0,0.0
1900,474.75,56.0576,55.6277,126.433,97.9997,96.3616,0.0140723,0.129013,20.8752,14.9431,0.152258,0.0,0.0
1905,476,56.0772,55.2395,128.755,97.9882,96.3586,0.0140606,0.128859,20.8751,14.9531,0.15148,0.0,0.0
1910,477.25,55.6939,55.5349,131.696,97.9747,96.8931,0.0140728,0.128754,20.8745,14.9231,0.100276,0.0,0.0
1915,478.5,56.0245,55.0792,128.523,97.9327,96.5412,0.0140838,0.128676,20.8743,14.9031,0.129267,0.0,0.0
1920,479.75,55.9252,55.3834,128.664,97.9018,96.3884,0.0141237,0.128471,20.8742,14.9131,0.140724,0.0,0.0
1925,481,55.3729,54.5261,129.799,97.8788,96.4008,0.0141637,0.128319,20.8744,14.8831,0.137439,0.0,0.0
1930,482.25,55.328,54.9289,132.54,97.8332,96.3018,0.0141759,0.128137,20.8752,14.8931,0.14251,0.0,0.0
1935,483.5,54.7337,54.1592,130.273,97.7844,96.3372,0.0141525,0.127919,20.8757,14.8931,0.134689,0.0,0.0
1940,484.75,54.955,53.8441,129.64,97.7369,96.4392,0.0141168,0.127734,20.876,14.863,0.120736,0.0,0.0
1945,486,54.7542,54.5642,129.516,97.6885,95.5073,0.0140827,0.127537,20.8762,14.843,0.203975,0.0,0.0
1950,487.25,54.6975,54.2276,129.924,97.6096,95.3936,0.0140706,0.127433,20.876,14.823,0.207434,0.0,0.0
1955,488.5,54.947,53.9143,132.51,97.549,96.5596,0.0141021,0.127432,20.8758,14.843,0.0920809,0.0,0.0
1960,489.75,53.742,53.0317,128.88,97.4828,96.3643,0.0141969,0.127363,20.8757,14.843,0.104241,0.0,0.0
1965,491,54.6484,53.3502,131.319,97.4051,96.3914,0.014319,0.127247,20.8757,14.813,0.094499,0.0,0.0
1970,492.25,53.6873,53.2893,128.878,97.3242,95.8802,0.0143927,0.1273,20.8756,14.813,0.13502,0.0,0.0
1975,493.5,54.0645,52.5541,131.896,97.3413,95.992,0.0143874,0.127362,20.8756,14.773,0.126078,0.0,0.0
1980,494.75,54.0459,52.4966,130.143,97.3555,96.5596,0.0143034,0.127237,20.8756,14.763,0.0741513,0.0,0.0
1985,496,53.9221,52.8359,130.288,97.3861,96.1573,0.0142036,0.127021,20.8756,14.763,0.114699,0.0,0.0
1990,497.25,53.0831,52.6217,130.667,97.3964,96.5856,0.0140858,0.126837,20.8757,14.7429,0.0755097,0.0,0.0
1995,498.5,53.5953,53.302,128.708,97.4277,95.6541,0.0140048,0.126724,20.876,14.7229,0.165953,0.0,0.0
2000,499.75,53.3251,52.8784,130.478,97.4733,95.9642,0.0139518,0.126619,20.8765,14.7129,0.14094,0.0,0.0
2005,501,52.5562,52.0609,133.812,97.505,95.8802,0.0139152,0.12648,20.8768,14.7229,0.151782,0.0,0.0
2010,502.25,52.6859,52.1992,127.841,97.5264,96.1087,0.0138917,0.126273,20.877,14.7329,0.132267,0.0,0.0
2015,503.5,52.8832,52.2919,132.68,97.5644,95.6157,0.0138965,0.12606,20.8777,14.7129,0.182249,0.0,0.0
2020,504.75,52.6293,52.6278,131.771,97.5906,96.3643,0.0139314,0.125903,20.8785,14.7229,0.114226,0.0,0.0
2025,506,52.9751,52.3484,126.802,97.6318,96.1358,0.0139677,0.125734,20.8789,14.7029,0.139481,0.0,0.0
2030,507.25,52.6633,52.184,129.762,97.6679,96.382,0.0139967,0.125594,20.8792,14.7029,0.11972,0.0,0.0
2035,508.5,52.3259,51.8304,131.752,97.7083,96.7967,0.0140256,0.125484,20.879,14.6729,0.0846701,0.0,0.0
2040,509.75,52.3112,51.8953,133.385,97.7393,96.7809,0.0140642,0.125471,20.8789,14.6729,0.0890032,0.0,0.0
2045,511,51.9732,51.9452,131.221,97.7607,95.9619,0.0141021,0.125539,20.8788,14.6629,0.167745,0.0,0.0
2050,512.25,52.4111,52.122,131.199,97.7955,96.0564,0.0140733,0.125551,20.8788,14.6429,0.162079,0.0,0.0
2055,513.5,52.4697,51.5818,134.375,97.8407,96.2924,0.0139907,0.12554,20.8788,14.6128,0.144089,0.0,0.0
2060,514.75,52.0119,51.7109,134.911,97.8673,96.9473,0.0138823,0.125495,20.8787,14.6028,0.0853144,0.0,0.0
2065,516,52.1495,51.5476,129.126,97.8911,96.7937,0.0138048,0.125417,20.8787,14.5928,0.101829,0.0,0.0
2070,517.25,52.0995,51.3426,130.11,97.9053,96.7218,0.0137612,0.125365,20.8787,14.5728,0.109857,0.0,0.0
2075,518.5,51.9798,51.3469,133.099,97.9414,96.9345,0.0137915,0.125368,20.8787,14.5528,0.0933471,0.0,0.0
2080,519.75,51.7595,51.1191,128.422,97.9604,96.8314,0.0138524,0.12531,20.8787,14.5628,0.104716,0.0,0.0
2085,521,51.4341,50.4068,130.331,97.9739,96.7832,,0.12525,,14.5728,0.110454,0.0,0.0
2090,522.25,51.2412,51.436,131.006,97.9937,97.1814,,0.12518,,14.5328,0.0751925,0.0,0.0
2095,523.5,51.6777,51.328,129.247,98.0001,96.4433,,0.125017,,14.5328,0.144641,0.0,0.0
2100,524.75,51.0496,50.8519,131.013,98.0199,97.2371,,,,14.5127,0.0724285,0.0,0.0
2105,526,51.3111,51.6328,127.765,98.0243,97.0203,,,,14.5328,0.0929911,0.0,0.0
2110,527.25,51.1186,50.3184,134.078,98.0322,96.3063,,,,14.5027,0.16044,0.0,0.0
2115,528.5,51.4056,50.8299,131.114,98.0457,97.1942,,,,14.4927,0.0787883,0.0,0.0
2120,529.75,51.3748,50.3312,130.359,98.0278,96.9755,,,,14.4727,0.0974918,0.0,0.0
2125,531,51.1154,50.2503,132.013,98.0243,96.691,,,,14.4527,0.123704,0.0,0.0
2128,531.75,50.7262,50.2065,133.67,98.0239,97.1885,,,,14.4427,0.0773045,0.0,0.0