File: 01_Data/PET/Cone/PET_Cone_HF75Scan_220207_R2.csv
Names,Time,Stack TC,Smoke TC,Exh Press,Smoke Comp,Smoke Meas,CO Meter,CO2 Meter,O2 Meter,Sample Mass,Ext Coeff,Start Test,Flame Verif
Chan Gain,,500,500,1,1,1,1,1,1,1,1,1.0,1.0
Offset,,0,0,0.134889,0,0,0,0,0,0,0,0.0,0.0
Gain,,1,1,25.011,12.9892,12.3331,1,1,1,1.00088,1.02973,1.0,1.0
Units,sec,C,C,Pa,%,%,%,%,%,g,/m,,
Baseline,,39.9776,41.7431,150.703,97.5125,97.2379,-0.00189561,0.0444185,21.0247,-0.0436634,0.0254812,,
4,0.75,35.0704,35.4877,150.247,96.0296,95.7519,-0.00157468,0.052602,21.0152,959.312,0.0261581,0.0,0.0
8,1.75,34.7708,35.8416,156.135,95.9777,95.8035,-0.00158613,0.0533227,21.0146,959.242,0.0164082,0.0,0.0
12,2.75,34.4319,35.6776,151.474,95.9404,95.671,-0.00163913,0.0537385,21.0142,959.222,0.0254001,0.0,0.0
16,3.75,34.7801,36.1315,151.012,95.9138,95.7436,-0.00168425,0.0538413,21.0139,959.222,0.0160438,0.0,0.0
20,4.75,35.6072,36.0317,151.428,95.8801,95.601,-0.001807,0.053543,21.0144,959.242,0.0263385,0.0,0.0
24,5.75,35.52,36.3734,151.694,95.848,95.785,-0.00193633,0.0531374,21.0155,959.272,0.00593975,0.0,0.0
28,6.75,35.8434,36.6757,152.626,95.8151,95.6337,-0.00203892,0.0526495,21.0164,959.202,0.0171187,0.0,0.0
32,7.75,35.4826,36.6273,155.039,95.8191,95.3067,-0.00209071,0.0521525,21.0176,959.212,0.0484372,0.0,0.0
36,8.75,35.5054,36.7694,152.802,95.7771,95.4523,-0.0020759,0.0514926,21.0186,959.252,0.0306814,0.0,0.0
40,9.75,35.1671,36.7764,152.801,95.7557,95.5223,-0.00201074,0.0507557,21.0199,959.232,0.0220397,0.0,0.0
44,10.75,35.6395,36.4704,151.554,95.7366,95.6853,-0.00192429,0.0500151,21.0211,959.202,0.00484746,0.0,0.0
48,11.75,35.6175,37.1782,151.803,95.726,95.6458,-0.00183622,0.0493238,21.0225,959.172,0.00756986,0.0,0.0
52,12.75,35.8085,36.914,149.744,95.7109,95.2829,-0.00175352,0.0487503,21.0234,959.192,0.0404771,0.0,0.0
56,13.75,35.6045,37.1863,151.338,95.7113,95.4365,-0.00167209,0.0482693,21.024,959.232,0.0259692,0.0,0.0
60,14.75,36.1195,37.2934,149.954,95.7014,95.1542,-0.00160672,0.0477599,21.0244,959.252,0.0517911,0.0,0.0
64,15.75,35.8542,37.1429,149.549,95.6958,95.5769,-0.00156541,0.0472379,21.0247,959.182,0.0112336,0.0,0.0
68,16.75,35.8739,37.5777,152.159,95.7006,95.3401,-0.00155383,0.046762,21.0248,959.212,0.0340837,0.0,0.0
72,17.75,35.8858,37.5895,147.836,95.6954,95.5667,-0.00156235,0.0464101,21.025,959.252,0.0121552,0.0,0.0
76,18.75,36.3505,37.551,151.948,95.6982,95.3688,-0.00161371,0.0461819,21.0243,959.262,0.0311493,0.0,0.0
80,19.75,35.6306,37.5577,148.763,95.7018,95.5558,-0.00166701,0.0460431,21.0239,959.252,0.0137863,0.0,0.0
84,20.75,36.3745,38.0525,145.789,95.7105,95.4621,-0.00171077,0.0458552,21.0245,959.182,0.0234725,0.0,0.0
88,21.75,35.8651,37.4911,151.702,95.7236,95.3831,-0.00173791,0.0456515,21.0248,959.162,0.0321891,0.0,0.0
92,22.75,37.1855,38.494,153.606,95.7327,95.3827,-0.00173354,0.0455011,21.0251,959.262,0.0330849,0.0,0.0
96,23.75,36.1733,38.2946,151.809,95.7501,95.1203,-0.00170627,0.0454107,21.0252,959.252,0.0596076,0.0,0.0
100,24.75,36.8438,38.0856,150.24,95.7715,95.0884,-0.00167858,0.0453948,21.0253,959.222,0.0646658,0.0,0.0
104,25.75,36.8555,38.3417,154.896,95.7874,95.036,-0.00164345,0.0454498,21.0254,959.212,0.0711316,0.0,0.0
108,26.75,36.4197,37.9811,149.423,95.7949,95.0955,-0.00158806,0.0455311,21.0254,959.262,0.0661913,0.0,0.0
112,27.75,36.5889,38.6243,149.029,95.8167,94.8279,-0.00151307,0.0455669,21.0247,959.252,0.0937019,0.0,0.0
116,28.75,37.3034,38.4834,149.119,95.8409,94.6322,-0.00143335,0.0455905,21.0241,959.182,0.114643,0.0,0.0
120,29.75,37.2518,38.8376,152.373,95.8821,94.8317,-0.00135227,0.0457028,21.0238,959.112,0.0995069,0.0,0.0
124,30.75,37.505,38.4508,149.823,95.9019,94.6269,-0.00126761,0.0458994,21.0236,959.132,0.120896,0.0,0.0
128,31.75,36.8024,39.0444,147.806,95.9273,94.2893,-0.00114332,0.0461902,21.0228,959.202,0.15557,0.0,0.0
132,32.75,37.257,39.0873,151.652,95.9618,93.8952,-0.00101977,0.0466113,21.0217,959.152,0.196647,0.0,0.0
136,33.75,37.4038,39.0621,153.285,95.9836,93.7929,-0.000880224,0.0474429,21.0203,959.082,0.208554,0.0,0.0
140,34.75,37.0579,39.1848,153.624,96.0197,93.2084,-0.000681599,0.0500844,21.0156,959.122,0.268415,0.0,0.0
144,35.75,37.0375,39.1463,154.097,96.074,94.9969,-0.00036519,0.0588814,21.0016,959.132,0.101839,0.0,0.0
148,36.75,37.5652,39.4498,144.235,96.1128,87.8642,0.000225456,0.076292,20.9799,959.092,0.810511,0.0,1.0
152,37.75,37.3827,39.7981,142.415,96.1493,78.8775,0.00104915,0.104204,20.9507,958.942,1.78854,0.0,1.0
156,38.75,38.1504,40.1384,142.696,96.1989,73.3948,0.00231998,0.13624,20.9066,958.872,2.44393,0.0,1.0
160,39.75,38.1557,41.3432,134.409,96.2528,70.4899,0.00355904,0.184912,20.8676,958.742,2.81377,0.0,1.0
164,40.75,38.9404,41.7332,136.078,96.2742,67.7977,0.00489463,0.235853,20.811,958.622,3.16752,0.0,1.0
168,41.75,39.1048,41.1303,134.488,96.3221,66.7454,0.00650272,0.286385,20.7424,958.431,3.31332,0.0,0.0
172,42.75,40.5681,43.2741,134.608,96.3618,65.0675,0.00816922,0.329256,20.6759,958.281,3.54701,0.0,0.0
176,43.75,40.9497,44.449,127.936,96.4014,60.2491,0.00988101,0.386052,20.6026,958.131,4.24568,0.0,0.0
180,44.75,41.689,45.3963,132.285,96.4304,59.8901,0.0112678,0.442087,20.5326,957.981,4.30238,0.0,0.0
184,45.75,43.1746,47.0028,131.31,96.4795,54.4533,0.0130885,0.495518,20.4689,957.781,5.1666,0.0,0.0
188,46.75,43.2019,47.4876,131.213,96.5199,55.0009,0.0148833,0.55085,20.4067,957.531,5.08,0.0,0.0
192,47.75,45.8204,49.9132,122.251,96.5623,52.6968,0.0169176,0.609665,20.3399,957.34,5.47054,0.0,0.0
196,48.75,46.4737,50.6694,130.286,96.5984,53.0061,0.0190546,0.662517,20.2647,957.15,5.42104,0.0,0.0
200,49.75,48.539,52.9432,126.717,96.6345,47.4196,0.0212122,0.719998,20.1805,956.91,6.4304,0.0,0.0
204,50.75,48.9114,54.8855,119.159,96.6868,46.4704,0.0233603,0.781687,20.0935,956.65,6.61794,0.0,0.0
208,51.75,50.6544,56.698,117.407,96.694,45.8893,0.0252211,0.847193,20.0227,956.26,6.73227,0.0,0.0
212,52.75,51.7881,58.7509,115.219,96.7411,46.4124,0.0271664,0.911085,19.9504,956.019,6.63428,0.0,0.0
216,53.75,53.4782,60.5508,113.967,96.7776,48.0719,0.0290703,0.971865,19.8865,955.709,6.32037,0.0,0.0
220,54.75,54.536,62.4895,121.544,96.8149,44.6107,0.0310417,1.02778,19.8242,955.399,6.9988,0.0,0.0
224,55.75,56.6706,64.747,125.898,96.847,45.0477,0.0328663,1.08219,19.7581,955.219,6.91375,0.0,0.0
228,56.75,58.1125,66.7188,119.661,96.8886,42.5986,0.0344951,1.1336,19.6957,954.778,7.42256,0.0,0.0
232,57.75,59.3885,69.0923,114.741,96.933,47.554,0.035993,1.18214,19.6381,954.528,6.4327,0.0,0.0
236,58.75,60.8378,70.2569,117.969,96.9603,45.2287,0.0371792,1.22359,19.5956,954.088,6.88809,0.0,0.0
240,59.75,62.908,72.6486,119.77,96.9877,44.8218,0.0382973,1.25829,19.5589,953.847,6.97226,0.0,0.0
244,60.75,64.1585,75.4152,117.957,97.0138,45.6849,0.0391502,1.28606,19.5283,953.447,6.80243,0.0,0.0
248,61.75,65.6973,76.9042,119.843,97.0622,43.4733,0.0397631,1.3101,19.5042,953.227,7.25514,0.0,0.0
252,62.75,66.6125,78.5933,106.568,97.0808,47.3646,0.0401386,1.33005,19.4844,952.887,6.4825,0.0,0.0
256,63.75,68.0043,80.3017,127.542,97.1102,45.8941,0.0403289,1.34601,19.4683,952.596,6.77011,0.0,0.0
260,64.75,69.4147,82.4757,109.321,97.1359,46.2276,0.0403847,1.35926,19.4574,952.216,6.70711,0.0,0.0
264,65.75,70.3182,84.1567,117.563,97.1601,47.3944,0.0403781,1.36908,19.4485,951.946,6.48421,0.0,0.0
268,66.75,72.5777,85.8746,114.132,97.1847,47.962,0.040315,1.37822,19.4427,951.635,6.37896,0.0,0.0
272,67.75,72.8027,87.393,128.277,97.2025,46.1602,0.040175,1.38359,19.4388,951.395,6.72648,0.0,0.0
276,68.75,74.3703,89.2542,117.534,97.22,45.3017,0.0400349,1.38597,19.4376,950.985,6.89767,0.0,0.0
280,69.75,75.5248,90.1479,120.09,97.2422,45.9374,0.0399606,1.38613,19.4377,950.685,6.77386,0.0,0.0
284,70.75,75.9756,91.4257,119.074,97.2497,45.8697,0.0399423,1.38512,19.438,950.444,6.7879,0.0,0.0
288,71.75,77.1375,92.8227,111.789,97.2656,44.8572,0.0400534,1.38461,19.4382,950.014,6.99097,0.0,0.0
292,72.75,78.1249,93.8088,120.576,97.2731,43.8873,0.0401791,1.38498,19.4383,949.674,7.18913,0.0,0.0
296,73.75,79.1387,94.8824,123.629,97.2814,47.2675,0.0404437,1.38735,19.4352,949.383,6.51968,0.0,0.0
300,74.75,79.7623,96.5257,118.699,97.2854,46.9789,0.0408129,1.39308,19.4299,949.053,6.57539,0.0,0.0
304,75.75,80.4521,97.4347,117.029,97.3064,47.6823,0.0411975,1.39666,19.4232,948.733,6.44308,0.0,0.0
308,76.75,81.5274,98.8399,108.205,97.3119,45.686,0.0415466,1.40195,19.4169,948.423,6.82991,0.0,0.0
312,77.75,81.7655,100.007,119.081,97.3314,47.327,0.041816,1.40691,19.4109,948.112,6.51296,0.0,0.0
316,78.75,82.7418,100.677,119.14,97.3345,46.7444,0.0419767,1.41144,19.4059,947.782,6.62514,0.0,0.0
320,79.75,84.3465,101.39,115.55,97.3345,47.0831,0.0420508,1.41533,19.4026,947.422,6.55992,0.0,0.0
324,80.75,84.7722,102.385,122.185,97.3476,46.3176,0.0420787,1.41848,19.4004,947.051,6.70921,0.0,0.0
328,81.75,85.3816,103.24,123.512,97.3492,44.4203,0.0421303,1.42096,19.399,946.821,7.08716,0.0,0.0
332,82.75,85.8366,104.32,117.192,97.3508,48.0907,0.0422239,1.42047,19.3981,946.421,6.37017,0.0,0.0
336,83.75,86.6345,105.318,116.503,97.3528,45.2332,0.0423396,1.41958,19.3975,946.121,6.92367,0.0,0.0
340,84.75,86.3299,105.669,111.965,97.3536,44.3216,0.0424446,1.42016,19.3971,945.83,7.10764,0.0,0.0
344,85.75,87.5551,107.101,115.026,97.3587,44.2765,0.0425345,1.42231,19.395,945.56,7.11733,0.0,0.0
348,86.75,88.36,107.926,121.052,97.367,44.0074,0.0426014,1.42484,19.3922,945.18,7.17317,0.0,0.0
352,87.75,88.516,108.314,116.868,97.3476,41.8692,0.0426643,1.42763,19.3928,944.839,7.62126,0.0,0.0
356,88.75,89.8255,109.519,113.459,97.3361,43.1948,0.042703,1.42975,19.3918,944.529,7.33865,0.0,0.0
360,89.75,90.0864,109.441,114.918,97.3282,48.1524,0.0427067,1.43561,19.3896,944.229,6.35649,0.0,0.0
364,90.75,90.5804,109.966,122.446,97.3286,44.0296,0.0427146,1.43944,19.3878,943.909,7.16504,0.0,0.0
368,91.75,91.0417,111.583,120.643,97.3179,46.05,0.0427683,1.44098,19.3866,943.608,6.75879,0.0,0.0
372,92.75,92.0882,111.731,118.579,97.3111,42.8432,0.0428764,1.43884,19.3859,943.298,7.41014,0.0,0.0
376,93.75,92.5378,112.73,118.115,97.2993,45.1286,0.0429847,1.43697,19.3856,942.968,6.93962,0.0,0.0
380,94.75,92.8825,113.273,122.028,97.2897,44.7692,0.0430725,1.4362,19.3859,942.617,7.01097,0.0,0.0
384,95.75,93.614,114.06,115.619,97.2778,43.9938,0.043178,1.43588,19.3862,942.337,7.16767,0.0,0.0
388,96.75,94.2526,114.179,120.448,97.2604,43.7258,0.0432599,1.43523,19.3866,941.977,7.22124,0.0,0.0
392,97.75,94.1025,114.944,120.511,97.2477,45.176,0.0432808,1.43372,19.3902,941.717,6.92535,0.0,0.0
396,98.75,94.5865,115.043,113.688,97.2525,42.4281,0.0432428,1.43147,19.3933,941.356,7.49265,0.0,0.0
400,99.75,95.2337,115.977,110.081,97.2243,44.7285,0.0430532,1.42845,19.3986,940.996,7.0131,0.0,0.0
404,100.75,95.3246,116.257,119.179,97.2089,43.2987,0.0426871,1.4228,19.4043,940.706,7.30513,0.0,0.0
408,101.75,95.8097,116.675,117.403,97.191,42.9569,0.0421853,1.41698,19.4108,940.416,7.37505,0.0,0.0
412,102.75,96.2892,116.769,117.348,97.1855,44.52,0.0416643,1.41155,19.4178,940.095,7.0517,0.0,0.0
416,103.75,96.1038,117.45,113.511,97.157,44.1022,0.0410756,1.40688,19.4236,939.765,7.13421,0.0,0.0
420,104.75,96.1904,117.585,116.5,97.1451,45.3853,0.0405734,1.40221,19.4295,939.425,6.87407,0.0,0.0
424,105.75,97.1962,117.878,120.133,97.128,43.9494,0.0402001,1.39752,19.4347,939.054,7.16287,0.0,0.0
428,106.75,97.1971,117.784,117.731,97.1046,44.0842,0.0399373,1.39316,19.4387,938.794,7.13304,0.0,0.0
432,107.75,97.6636,118.617,121.926,97.0943,43.249,0.0397276,1.38785,19.4436,938.494,7.30485,0.0,0.0
436,108.75,97.2289,118.996,112.443,97.0856,44.5467,0.0395554,1.38123,19.4484,938.214,7.03699,0.0,0.0
440,109.75,98.2316,119.298,118.002,97.0737,45.1704,0.0394247,1.37467,19.4538,937.903,6.9103,0.0,0.0
444,110.75,97.7032,119.245,121.166,97.067,44.9822,0.0392949,1.36791,19.463,937.583,6.94738,0.0,0.0
448,111.75,97.3639,119.377,119.002,97.0479,44.8866,0.0392147,1.36196,19.4722,937.323,6.96483,0.0,0.0
452,112.75,98.1609,119.549,117.261,97.0456,45.4715,0.0391961,1.35693,19.4783,937.073,6.84767,0.0,0.0
456,113.75,97.9571,119.312,117.301,97.0368,45.5671,0.0392253,1.35381,19.4822,936.732,6.82789,0.0,0.0
460,114.75,98.5612,119.72,119.21,97.0456,46.9676,0.0393242,1.35235,19.4844,936.352,6.55526,0.0,0.0
464,115.75,98.9253,120.145,117.983,97.1003,45.1749,0.0394295,1.35169,19.4854,936.052,6.91187,0.0,0.0
468,116.75,99.0808,120.131,118.06,97.1716,45.0921,0.0395112,1.35171,19.4857,935.721,6.93508,0.0,0.0
472,117.75,99.4251,120.08,124.66,97.2231,44.3687,0.0395565,1.35208,19.4847,935.461,7.08595,0.0,0.0
476,118.75,99.2503,121.035,115.259,97.2893,46.0925,0.0395786,1.3524,19.4838,935.131,6.74781,0.0,0.0
480,119.75,99.2422,120.668,109.58,97.3468,45.6442,0.0395891,1.35305,19.4826,934.781,6.84142,0.0,0.0
484,120.75,99.2565,120.628,117.179,97.4039,45.0898,0.0395922,1.35521,19.4819,934.46,6.9571,0.0,0.0
488,121.75,100.34,121.667,116.922,97.4467,46.7963,0.0394507,1.3583,19.4814,934.21,6.62552,0.0,0.0
492,122.75,99.7643,121.283,116.459,97.4955,47.2739,0.0391509,1.35545,19.481,933.78,6.53831,0.0,0.0
496,123.75,100.366,121.865,115.725,97.5423,53.2478,0.0385552,1.34269,19.4933,933.69,5.46778,0.0,0.0
500,124.75,101.012,122.322,121.18,97.5851,50.6929,0.0376375,1.32067,19.5244,933.359,5.91588,0.0,0.0
504,125.75,100.769,121.526,120.549,97.6326,51.0501,0.036563,1.29166,19.5586,933.079,5.85686,0.0,0.0
508,126.75,100.314,121.426,126.22,97.6695,53.7849,0.0354842,1.26422,19.5891,932.889,5.3889,0.0,0.0
512,127.75,100.587,121.466,115.753,97.6889,51.5977,0.0346721,1.24225,19.6091,932.669,5.76568,0.0,0.0
516,128.75,101.097,121.678,119.517,97.7198,50.7257,0.0341092,1.22732,19.6222,932.429,5.92251,0.0,0.0
520,129.75,100.472,121.771,120.563,97.7397,50.3087,0.0338408,1.22244,19.6263,932.098,5.99891,0.0,0.0
524,130.75,100.786,122.069,118.162,97.7567,49.6161,0.0339997,1.22789,19.6177,931.828,6.12569,0.0,0.0
528,131.75,101.204,121.775,111.624,97.7634,50.8747,0.0344195,1.24065,19.6093,931.418,5.90004,0.0,0.0
532,132.75,101.58,122.837,112.842,97.769,48.0952,0.0348075,1.25969,19.5868,931.238,6.40805,0.0,0.0
536,133.75,101.988,123.285,118.365,97.7817,50.8446,0.0353699,1.27922,19.561,930.957,5.90707,0.0,0.0
540,134.75,102.372,124.046,111.851,97.7777,49.554,0.0358189,1.29903,19.5336,930.667,6.13894,0.0,0.0
544,135.75,102.262,124.164,114.794,97.767,51.8574,0.0361426,1.31572,19.5156,930.317,5.72755,0.0,0.0
548,136.75,102.449,124.344,115.468,97.7607,50.3504,0.0363712,1.3263,19.5038,929.996,5.99335,0.0,0.0
552,137.75,103.082,124.724,112.088,97.7512,49.6135,0.0365528,1.33191,19.4964,929.796,6.12566,0.0,0.0
556,138.75,103.395,124.907,109.752,97.7218,51.5639,0.0367298,1.33466,19.493,929.446,5.77466,0.0,0.0
560,139.75,103.684,125.426,125.65,97.7032,50.3305,0.036941,1.33606,19.4924,929.246,5.99162,0.0,0.0
564,140.75,104.084,125.519,121.631,97.6655,51.8413,0.0371391,1.33534,19.4936,928.865,5.72099,0.0,0.0
568,141.75,104.471,126.101,119.594,97.6378,51.8251,0.0373033,1.33355,19.4955,928.605,5.72124,0.0,0.0
572,142.75,104.079,126.332,109.961,97.6005,48.1012,0.0374163,1.33227,19.4974,928.275,6.39134,0.0,0.0
576,143.75,104.042,126.422,112.379,97.5577,50.6707,0.0374404,1.33168,19.4989,928.005,5.9173,0.0,0.0
580,144.75,104.878,126.417,115.87,97.5086,49.5277,0.0373647,1.32882,19.5007,927.714,6.11885,0.0,0.0
584,145.75,105.317,126.698,116.054,97.4531,50.6692,0.0371848,1.32435,19.5084,927.384,5.90788,0.0,0.0
588,146.75,105.313,126.74,112.046,97.3904,49.9281,0.0368859,1.3153,19.5209,927.094,6.03516,0.0,0.0
592,147.75,105.085,126.52,113.91,97.3413,52.0291,0.0365496,1.30463,19.5343,926.864,5.65829,0.0,0.0
596,148.75,104.872,126.005,118.203,97.2628,53.1262,0.0362235,1.2931,19.5457,926.623,5.46251,0.0,0.0
600,149.75,104.962,126.685,120.846,97.1994,51.976,0.0357877,1.28129,19.5591,926.393,5.65433,0.0,0.0
604,150.75,105.206,126.92,114.627,97.1209,50.562,0.035363,1.2708,19.5727,926.063,5.89618,0.0,0.0
608,151.75,105.576,126.301,128.367,97.128,51.5616,0.0348372,1.26058,19.5842,925.743,5.72,0.0,0.0
612,152.75,104.764,126.474,120.325,97.1371,53.2233,0.0343004,1.25234,19.5937,925.553,5.43434,0.0,0.0
616,153.75,105.102,126.404,115.767,97.1566,56.3393,0.0337721,1.24507,19.6035,925.222,4.92221,0.0,0.0
620,154.75,105.308,126.56,117.994,97.1744,54.9629,0.0333093,1.23777,19.6108,925.012,5.14729,0.0,0.0
624,155.75,105.415,126.86,121.391,97.1982,51.7502,0.0330057,1.22849,19.6204,924.752,5.69355,0.0,0.0
628,156.75,104.523,126.184,113.768,97.2291,52.8955,0.0326466,1.2182,19.6317,924.472,5.49869,0.0,0.0
632,157.75,105.804,126.502,122.68,97.2517,54.1782,0.0323035,1.20829,19.6436,924.181,5.28436,0.0,0.0
636,158.75,106.053,125.977,120.352,97.285,52.8447,0.0319359,1.19724,19.6556,923.941,5.51256,0.0,0.0
640,159.75,104.674,125.932,119.849,97.3219,53.4044,0.0314741,1.1841,19.671,923.761,5.42082,0.0,0.0
644,160.75,105.291,126.033,117.112,97.3472,52.8733,0.0309214,1.17007,19.6922,923.491,5.51345,0.0,0.0
648,161.75,104.74,125.885,115.976,97.388,54.3039,0.0303694,1.15393,19.7137,923.201,5.27609,0.0,0.0
652,162.75,105.184,125.352,121.956,97.4138,54.5199,0.0298321,1.14014,19.7306,922.95,5.24261,0.0,0.0
656,163.75,104.5,125.061,114.447,97.4447,53.3374,0.0291904,1.12971,19.7418,922.76,5.44356,0.0,0.0
660,164.75,104.81,124.977,119.156,97.4796,53.7913,0.0286277,1.12135,19.751,922.5,5.37025,0.0,0.0
664,165.75,104.576,124.891,116.084,97.5193,55.4439,0.0282227,1.11449,19.7575,922.26,5.10058,0.0,0.0
668,166.75,104.628,124.969,124.25,97.5478,53.2854,0.0279832,1.10925,19.7618,921.989,5.46191,0.0,0.0
672,167.75,104.16,124.477,119.987,97.5847,54.7834,0.0279094,1.10624,19.7646,921.729,5.2149,0.0,0.0
676,168.75,104.045,123.563,121.146,97.6009,54.3039,0.027913,1.10584,19.7658,921.449,5.29581,0.0,0.0
680,169.75,104.071,123.153,118.765,97.6394,54.8203,0.0279436,1.10762,19.7648,921.249,5.21388,0.0,0.0
684,170.75,104.017,123.614,116.649,97.6616,55.0698,0.0279654,1.10981,19.7617,921.029,5.17491,0.0,0.0
688,171.75,103.645,123.655,118.525,97.6739,55.5034,0.0279708,1.11179,19.7589,920.738,5.10521,0.0,0.0
692,172.75,104.246,123.618,115.363,97.7167,53.8786,0.0279338,1.11375,19.7564,920.478,5.37754,0.0,0.0
696,173.75,104.497,123.535,124.417,97.7389,53.1036,0.0278756,1.11583,19.7546,920.218,5.51045,0.0,0.0
700,174.75,104.052,123.354,119.569,97.765,55.4394,0.027803,1.11751,19.7528,919.998,5.12405,0.0,0.0
704,175.75,104.05,122.982,117.882,97.7769,55.8335,0.0277713,1.11836,19.7508,919.838,5.06117,0.0,0.0
708,176.75,104.371,123.634,115.194,97.7983,55.2057,0.0278066,1.11934,19.7491,919.567,5.16529,0.0,0.0
712,177.75,104.318,123.1,112.555,97.8122,52.661,0.0279094,1.12286,19.7474,919.257,5.59283,0.0,0.0
716,178.75,104.189,122.682,119.582,97.8197,54.5474,0.0280074,1.12807,19.7418,918.977,5.27562,0.0,0.0
720,179.75,104.368,122.917,121.099,97.8269,53.547,0.0281097,1.13448,19.738,918.737,5.44348,0.0,0.0
724,180.75,104.383,123.437,119.762,97.8487,54.6389,0.028166,1.13787,19.7364,918.496,5.26316,0.0,0.0
728,181.75,104.693,123.167,121.131,97.8447,54.2264,0.0281398,1.13988,19.7346,918.266,5.33125,0.0,0.0
732,182.75,104.468,123.054,122.024,97.8558,54.0374,0.0280528,1.13826,19.7318,917.936,5.3638,0.0,0.0
736,183.75,104.518,122.924,120.7,97.8526,53.1198,0.0279167,1.13859,19.7299,917.716,5.51821,0.0,0.0
740,184.75,103.909,122.152,118.271,97.8423,53.4017,0.027727,1.14035,19.7286,917.405,5.46945,0.0,0.0
744,185.75,104.315,123.115,121.126,97.8372,54.1989,0.0274905,1.1417,19.727,917.205,5.33513,0.0,0.0
748,186.75,104.369,123.118,115.984,97.836,54.1127,0.0273217,1.14275,19.7251,916.995,5.3494,0.0,0.0
752,187.75,104.283,122.667,118.044,97.8292,52.9418,0.0272785,1.14355,19.7223,916.725,5.54637,0.0,0.0
756,188.75,105.081,123.014,114.734,97.8217,54.2279,0.0273492,1.14858,19.7164,916.435,5.32887,0.0,0.0
760,189.75,104.202,122.69,119.021,97.8031,53.2809,0.0274617,1.15391,19.71,916.144,5.48628,0.0,0.0
764,190.75,104.768,123.141,114.568,97.7916,52.5782,0.0275947,1.16016,19.7028,915.844,5.60514,0.0,0.0
768,191.75,104.518,122.503,116.883,97.7741,53.2914,0.0277655,1.16654,19.6961,915.634,5.48182,0.0,0.0
772,192.75,104.69,123.543,112.255,97.7575,53.2004,0.0279295,1.17129,19.6911,915.424,5.49574,0.0,0.0
776,193.75,105.383,123.482,117.674,97.7254,54.3336,0.028077,1.17426,19.687,915.113,5.30238,0.0,0.0
780,194.75,105.466,123.966,117.822,97.6992,54.3122,0.0281668,1.17688,19.6843,914.823,5.30353,0.0,0.0
784,195.75,104.901,123.578,112.03,97.6707,54.3506,0.028208,1.18017,19.6813,914.573,5.2945,0.0,0.0
788,196.75,105.461,123.913,118.714,97.6203,55.3837,0.0282233,1.18304,19.679,914.293,5.11975,0.0,0.0
792,197.75,105.865,123.944,121.69,97.5954,55.7684,0.0282549,1.18432,19.6772,914.052,5.05493,0.0,0.0
796,198.75,105.97,124.494,115.919,97.5526,53.404,0.0283329,1.18457,19.6752,913.802,5.44227,0.0,0.0
800,199.75,106.401,124.709,118.544,97.5145,53.4006,0.0284471,1.18517,19.6734,913.512,5.43932,0.0,0.0
804,200.75,106.09,124.322,113.13,97.4562,54.5395,0.0286024,1.1893,19.6705,913.192,5.2433,0.0,0.0
808,201.75,106.295,124.491,114.062,97.4178,53.2892,0.02882,1.19394,19.6659,912.931,5.44922,0.0,0.0
812,202.75,105.983,125.096,113.839,97.3726,55.0841,0.0290732,1.19716,19.6623,912.701,5.1458,0.0,0.0
816,203.75,106.508,125.201,120.752,97.3326,55.8689,0.0292972,1.1981,19.6607,912.411,5.01431,0.0,0.0
820,204.75,106.76,125.093,121.442,97.2675,54.7732,0.029467,1.19858,19.6597,912.201,5.18717,0.0,0.0
824,205.75,106.505,125.384,116.594,97.2176,53.6339,0.0295513,1.19717,19.6614,911.951,5.37239,0.0,0.0
828,206.75,107.017,125.222,123.692,97.1673,55.5885,0.0295882,1.19467,19.6626,911.6,5.0444,0.0,0.0
832,207.75,106.415,125.76,114.892,97.111,56.602,0.0296039,1.19276,19.6633,911.35,4.87595,0.0,0.0
836,208.75,106.7,125.285,118.737,97.059,55.1007,0.029607,1.19247,19.6647,911.14,5.11395,0.0,0.0
840,209.75,107.178,125.931,116.622,96.9992,55.1349,0.0296014,1.19293,19.6655,910.93,5.10276,0.0,0.0
844,210.75,107.794,125.918,119.745,96.9397,56.5497,0.0295875,1.19245,19.6661,910.669,4.86836,0.0,0.0
848,211.75,107.87,125.956,117.096,96.8652,57.3307,0.0295631,1.1913,19.6665,910.369,4.73752,0.0,0.0
852,212.75,107.464,125.655,118.767,96.8069,56.0187,0.0295192,1.1904,19.667,910.049,4.94121,0.0,0.0
856,213.75,107.087,125.798,117.686,96.7475,55.6299,0.0294595,1.19028,19.6674,909.809,4.99857,0.0,0.0
860,214.75,107.622,125.409,116.757,96.686,56.9472,0.0293878,1.19117,19.6668,909.589,4.78143,0.0,0.0
864,215.75,107.381,125.792,120.85,96.6242,54.5101,0.0292789,1.19299,19.6664,909.368,5.17072,0.0,0.0
868,216.75,107.524,126.196,122.077,96.5548,54.0799,0.0291624,1.19306,19.6661,909.008,5.2358,0.0,0.0
872,217.75,107.701,126.757,116.019,96.4882,55.4025,0.0290452,1.19046,19.6679,908.788,5.01132,0.0,0.0
876,218.75,107.521,126.815,119.878,96.4212,56.4161,0.0290035,1.18795,19.6695,908.478,4.84129,0.0,0.0
880,219.75,108.337,125.905,116.735,96.3519,54.127,0.0290678,1.18686,19.6706,908.247,5.20894,0.0,0.0
884,220.75,107.942,126.328,122.616,96.2928,55.7025,0.0292162,1.18672,19.6713,908.067,4.94423,0.0,0.0
888,221.75,107.807,126.286,116.173,96.2207,55.6731,0.0294942,1.18926,19.6686,907.797,4.94222,0.0,0.0
892,222.75,108.151,126.742,112.275,96.1691,55.8978,0.0297907,1.19424,19.6629,907.457,4.901,0.0,0.0
896,223.75,107.629,126.256,116.818,96.1097,54.8037,0.0301338,1.19974,19.6541,907.146,5.07397,0.0,0.0
900,224.75,108.454,127.12,119.578,96.0506,54.5214,0.0304487,1.20521,19.647,906.886,5.11506,0.0,0.0
904,225.75,108.832,127.018,114.598,96.0098,56.3909,0.0306553,1.21057,19.6415,906.656,4.8067,0.0,0.0
908,226.75,109.361,126.791,110.436,95.9713,55.6058,0.0308511,1.21517,19.6389,906.466,4.92972,0.0,0.0
912,227.75,109.028,127.498,116.551,95.9249,56.5825,0.0310728,1.21858,19.6364,906.176,4.76808,0.0,0.0
916,228.75,109.066,127.819,119.042,95.8849,55.1263,0.0312462,1.2194,19.6347,905.855,4.99982,0.0,0.0
920,229.75,109.511,128.001,118.027,95.8528,58.1437,0.0313535,1.21855,19.6377,905.595,4.51543,0.0,0.0
924,230.75,109.609,127.625,123.111,95.8191,55.4556,0.0313698,1.21496,19.6429,905.345,4.93981,0.0,0.0
928,231.75,109.003,127.755,122.5,95.8009,54.9479,0.0313051,1.21084,19.6463,905.055,5.02118,0.0,0.0
932,232.75,109.094,128.087,111.684,95.7807,57.1267,0.031212,1.20792,19.6486,904.804,4.66802,0.0,0.0
936,233.75,110.074,127.479,111.927,95.7533,56.0766,0.0311048,1.20648,19.6498,904.584,4.83302,0.0,0.0
940,234.75,109.548,127.947,116.231,95.7513,56.8775,0.0312932,1.20678,19.6492,904.284,4.70473,0.0,0.0
944,235.75,109.758,128.123,116.299,95.7355,55.6859,0.0315799,1.20946,19.6464,903.984,4.89449,0.0,0.0
948,236.75,110.305,128.431,115.78,95.745,52.9407,0.0323392,1.21642,19.6364,903.643,5.35204,0.0,0.0
952,237.75,110.227,128.515,109.143,95.7323,50.7543,0.0334455,1.23289,19.6218,903.383,5.73181,0.0,0.0
956,238.75,110.513,128.954,113.147,95.7402,51.5244,0.0347467,1.24759,19.6009,903.093,5.59653,0.0,0.0
960,239.75,110.9,129.135,120.152,95.747,51.1638,0.0361044,1.26853,19.5743,902.823,5.6606,0.0,0.0
964,240.75,110.643,129.104,118.294,95.7652,51.9692,0.0375285,1.28684,19.551,902.502,5.52123,0.0,0.0
968,241.75,111.296,129.67,118.937,95.7842,55.1857,0.038774,1.30347,19.5329,902.152,4.98059,0.0,0.0
972,242.75,111.253,129.879,118.001,95.8247,54.975,0.0399104,1.3181,19.5149,901.812,5.01896,0.0,0.0
976,243.75,111.843,130.05,115.999,95.8457,51.9707,0.0410685,1.33833,19.4904,901.552,5.52856,0.0,0.0
980,244.75,112.166,130.802,111.773,95.8948,52.5056,0.0422999,1.3627,19.4572,901.261,5.44071,0.0,0.0
984,245.75,112.783,131.582,110.81,95.9198,48.1422,0.0437135,1.39344,19.4271,900.941,6.22673,0.0,0.0
988,246.75,113.284,132.02,111.905,95.9527,48.7124,0.0453145,1.42655,19.3887,900.561,6.12347,0.0,0.0
992,247.75,113.37,132.809,110.671,96.0086,45.6679,0.0469104,1.47318,19.3567,900.16,6.71169,0.0,0.0
996,248.75,114.358,133.331,106.988,96.0522,46.6875,0.0489835,1.52271,19.3191,899.8,6.51634,0.0,0.0
1000,249.75,115.105,134.244,107.166,96.1053,49.4321,0.0512362,1.56683,19.2721,899.38,6.00536,0.0,0.0
1004,250.75,115.671,135.383,100.508,96.1719,46.2984,0.0535159,1.62778,19.2057,898.999,6.6032,0.0,0.0
1008,251.75,116.561,136.982,101.664,96.2246,47.8822,0.0557812,1.67723,19.1257,898.619,6.30432,0.0,0.0
1012,252.75,117.334,138.311,110.992,96.2837,43.6047,0.0578069,1.73813,19.0502,898.169,7.15514,0.0,0.0
1016,253.75,118.257,139.404,109.075,96.3558,44.0604,0.0594425,1.79445,18.9848,897.688,7.06798,0.0,0.0
1020,254.75,119.176,140.428,117.192,96.4125,45.1753,0.0611525,1.83931,18.9301,897.298,6.84759,0.0,0.0
1024,255.75,119.747,141.24,103.945,96.4819,47.1663,0.0626967,1.87435,18.8882,896.947,6.4645,0.0,0.0
1028,256.75,120.312,142.309,101.858,96.5445,43.3875,0.0640688,1.90682,18.8546,896.527,7.22468,0.0,0.0
1032,257.75,121.232,143.342,108.48,96.6095,42.5098,0.0651825,1.94148,18.8227,896.077,7.41536,0.0,0.0
1036,258.75,121.657,144.269,104.222,96.6856,44.7549,0.0659095,1.97511,18.7824,895.576,6.95759,0.0,0.0
1040,259.75,122.669,145.251,99.8272,96.7265,45.2709,0.0659979,2.00499,18.756,895.136,6.85786,0.0,0.0
1044,260.75,123.144,145.962,109.107,96.7776,45.2961,0.0656245,2.0232,18.7386,894.816,6.8576,0.0,0.0
1048,261.75,124.561,147.479,108.712,96.8264,49.1468,0.0643591,2.02334,18.7362,894.445,6.12516,0.0,0.0
1052,262.75,125.059,148.185,106.13,96.8771,50.7637,0.0630106,2.01222,18.7481,894.055,5.83751,0.0,0.0
1056,263.75,125.299,148.962,109.144,96.9417,50.3512,0.0616603,1.98755,18.7707,893.665,5.91723,0.0,0.0
1060,264.75,125.458,149.468,104.2,96.9798,46.858,0.0607214,1.96052,18.7993,893.304,6.57022,0.0,0.0
1064,265.75,126.185,150.093,108.132,97.0281,44.3081,0.060245,1.93387,18.831,892.854,7.08016,0.0,0.0
1068,266.75,126.155,150.078,108.888,97.0701,43.3871,0.0601086,1.91117,18.8583,892.504,7.2738,0.0,0.0
1072,267.75,126.639,150.124,107.994,97.1268,43.0303,0.060343,1.89227,18.8778,892.143,7.35366,0.0,0.0
1076,268.75,126.472,150.501,109.074,97.1637,42.4044,0.0608849,1.87447,18.8975,891.783,7.48945,0.0,0.0
1080,269.75,126.654,149.906,107.462,97.1982,43.4793,0.0612841,1.85692,18.9184,891.353,7.26653,0.0,0.0
1084,270.75,126.913,150.346,112.903,97.2164,44.3262,0.0612564,1.84259,18.9351,890.952,7.09399,0.0,0.0
1088,271.75,127.333,150.773,108.754,97.2477,46.8867,0.0610416,1.82243,18.9587,890.602,6.58963,0.0,0.0
1092,272.75,127.028,150.951,109.857,97.2727,44.3066,0.0596077,1.79445,18.9886,890.232,7.1032,0.0,0.0
1096,273.75,126.681,150.396,116.029,97.2695,45.3604,0.0577766,1.75417,19.0291,889.981,6.89057,0.0,0.0
1100,274.75,126.923,149.994,112.171,97.2778,47.175,0.0560204,1.71152,19.0655,889.691,6.53706,0.0,0.0
1104,275.75,126.668,149.487,114.929,97.3008,46.9634,0.0537422,1.66558,19.1235,889.361,6.57979,0.0,0.0
1108,276.75,126.011,148.769,112.524,97.3262,46.7655,0.0516222,1.62373,19.1847,889.01,6.6203,0.0,0.0
1112,277.75,125.662,148.365,116.939,97.3211,45.0661,0.0497265,1.58618,19.2323,888.67,6.95416,0.0,0.0
1116,278.75,125.067,147.917,116.614,97.331,46.7553,0.0477073,1.55305,19.2749,888.28,6.6227,0.0,0.0
1120,279.75,124.66,147.336,115.178,97.325,49.3835,0.0456855,1.51928,19.3182,887.99,6.12816,0.0,0.0
1124,280.75,124.642,147.402,117.879,97.323,52.1183,0.0438987,1.48308,19.3628,887.739,5.64112,0.0,0.0
1128,281.75,124.214,146.695,126.907,97.3147,52.6644,0.0421396,1.44672,19.4037,887.519,5.54619,0.0,0.0
1132,282.75,123.554,145.584,117.076,97.3024,48.2567,0.0403994,1.40796,19.4489,887.229,6.33456,0.0,0.0
1136,283.75,123.006,144.927,119.849,97.2941,51.2797,0.0387865,1.36863,19.4898,886.929,5.78495,0.0,0.0
1140,284.75,122.344,144.203,120.386,97.2838,52.9297,0.0371126,1.33629,19.5323,886.638,5.49793,0.0,0.0
1144,285.75,122.322,143.214,118.525,97.2648,54.841,0.0354101,1.29599,19.5788,886.348,5.17575,0.0,0.0
1148,286.75,121.613,142.434,118.472,97.2414,56.0593,0.0336761,1.26062,19.6238,886.118,4.9751,0.0,0.0
1152,287.75,120.804,141.795,116.47,97.2152,57.2295,0.0322612,1.22502,19.6637,885.938,4.78607,0.0,0.0
1156,288.75,120.901,140.844,116.943,97.1883,58.0251,0.0305137,1.19049,19.6988,885.688,4.65885,0.0,0.0
1160,289.75,119.716,140.187,127.916,97.1704,57.5705,0.0288425,1.15937,19.7314,885.477,4.72824,0.0,0.0
1164,290.75,119.509,139.204,122.629,97.1494,62.8228,0.0271865,1.1276,19.7649,885.217,3.93766,0.0,0.0
1168,291.75,118.657,138.077,120.062,97.1185,61.4321,0.0256321,1.10432,19.7999,884.957,4.13699,0.0,0.0
1172,292.75,118.829,137.733,119.056,97.0892,61.6323,0.0241248,1.07369,19.8362,884.747,4.10487,0.0,0.0
1176,293.75,117.939,136.293,127.556,97.0761,62.7652,0.0226641,1.04425,19.8654,884.647,3.93912,0.0,0.0
1180,294.75,117.625,136.712,120.736,97.0578,63.6256,0.0216072,1.01808,19.8935,884.446,3.81444,0.0,0.0
1184,295.75,117.043,135.459,122.748,97.0349,63.9538,0.0202335,0.9897,19.9219,884.256,3.76583,0.0,0.0
1188,296.75,116.441,135.253,123.698,97.0202,65.9042,0.0188932,0.959967,19.9534,884.056,3.49311,0.0,0.0
1192,297.75,114.815,133.156,125.731,97.0051,64.7653,0.0177954,0.93571,19.9835,883.826,3.64917,0.0,0.0
1196,298.75,115.617,132.771,125.516,97.0257,64.3219,0.0168378,0.90821,20.0178,883.656,3.71314,0.0,0.0
1200,299.75,114.119,132.202,122.247,97.1217,66.9336,0.0159983,0.880638,20.0541,883.526,3.36256,0.0,0.0
1204,300.75,113.932,131.523,122.688,97.2156,66.1925,0.0152385,0.855013,20.086,883.366,3.47186,0.0,0.0
1208,301.75,113.597,130.068,127.439,97.3139,66.9719,0.0145595,0.830837,20.1126,883.215,3.37524,0.0,0.0
1212,302.75,113.064,129.254,127.698,97.3936,66.4089,0.0138991,0.808214,20.1399,883.045,3.4589,0.0,0.0
1216,303.75,111.918,128.502,126.084,97.4677,68.0405,0.0132395,0.784836,20.1647,882.915,3.24653,0.0,0.0
1220,304.75,111.099,127.46,125.5,97.5308,68.7823,0.0126307,0.763854,20.1865,882.725,3.15442,0.0,0.0
1224,305.75,111.201,125.923,127.842,97.5882,69.951,0.0119159,0.744742,20.2127,882.615,3.00756,0.0,0.0
1228,306.75,110.253,125.874,127.979,97.6477,69.3875,0.011514,0.726232,20.2268,882.475,3.08611,0.0,0.0
1232,307.75,109.408,124.737,123.911,97.6742,68.2445,0.0109699,0.709781,20.246,882.335,3.23861,0.0,0.0
1236,308.75,108.831,124.351,128.661,97.7091,69.5795,0.0105169,0.689641,20.2638,882.204,3.06684,0.0,0.0
1240,309.75,107.971,122.756,129.605,97.7357,71.2374,0.00992227,0.678635,20.2812,882.044,2.85659,0.0,0.0
1244,310.75,106.968,121.899,130.372,97.7662,71.7971,0.00936249,0.662777,20.2969,881.884,2.78872,0.0,0.0
1248,311.75,107.145,121.307,129.574,97.7623,71.557,0.00880951,0.647862,20.3129,881.794,2.81862,0.0,0.0
1252,312.75,106.912,120.42,127.61,97.7646,74.3222,0.00830011,0.634772,20.3303,881.674,2.47635,0.0,0.0
1256,313.75,106.11,119.821,129.287,97.7603,72.4388,0.00786593,0.619658,20.3486,881.564,2.7078,0.0,0.0
1260,314.75,104.494,118.959,133.514,97.7416,73.4859,0.00753159,0.604764,20.3654,881.444,2.57644,0.0,0.0
1264,315.75,104.53,117.494,128.465,97.7163,74.3433,0.00728756,0.589902,20.3809,881.334,2.46932,0.0,0.0
1268,316.75,104.696,117.068,129.775,97.6739,74.4374,0.00708384,0.575294,20.3956,881.264,2.45398,0.0,0.0
1272,317.75,103.449,116.092,125.857,97.6326,75.9034,0.00691576,0.562353,20.4079,881.144,2.274,0.0,0.0
1276,318.75,102.851,115.684,130.699,97.5966,75.7374,0.00675736,0.549048,20.4211,881.023,2.29043,0.0,0.0
1280,319.75,102.44,114.501,128.463,97.5292,75.3625,0.00658409,0.536247,20.4358,880.913,2.32902,0.0,0.0
1284,320.75,101.569,113.494,134.861,97.4618,75.9722,0.00642179,0.525599,20.4517,880.783,2.24998,0.0,0.0
1288,321.75,101.58,113.247,131.651,97.396,76.4664,0.00628069,0.512666,20.4676,880.693,2.18532,0.0,0.0
1292,322.75,100.243,111.166,129.167,97.2957,77.0329,0.00617583,0.500895,20.4814,880.613,2.10935,0.0,0.0
1296,323.75,100.622,111.422,128.844,97.2002,78.4025,0.00604304,0.490249,20.4943,880.543,1.94129,0.0,0.0
1300,324.75,99.2744,110.263,130.164,97.1304,77.7239,0.00589882,0.480074,20.5052,880.463,2.01332,0.0,0.0
1304,325.75,99.4236,110.234,130.762,97.1534,79.4157,0.00574667,0.469768,20.5156,880.393,1.82095,0.0,0.0
1308,326.75,98.8333,109.094,137.344,97.1839,79.6314,0.00558826,0.460929,20.5274,880.303,1.79929,0.0,0.0
1312,327.75,98.0983,108.451,135.313,97.2192,79.736,0.0054189,0.450624,20.5404,880.253,1.79071,0.0,0.0
1316,328.75,97.404,107.089,134.592,97.2561,80.6261,0.00525182,0.439292,20.5537,880.173,1.69386,0.0,0.0
1320,329.75,97.3083,106.843,134.958,97.2969,81.6017,0.0050736,0.429022,20.5647,880.083,1.58901,0.0,0.0
1324,330.75,96.3102,106.449,133.73,97.3571,84.187,0.00487128,0.417712,20.5775,879.973,1.31287,0.0,0.0
1328,331.75,96.0273,105.418,134.283,97.3841,84.5081,0.0046173,0.405792,20.5898,879.913,1.28098,0.0,0.0
1332,332.75,94.7212,104.366,133.352,97.4237,87.029,0.00437244,0.393143,20.6045,879.892,1.01915,0.0,0.0
1336,333.75,95.296,103.809,136.25,97.4737,87.7656,0.00416205,0.37899,20.6212,879.832,0.94765,0.0,0.0
1340,334.75,94.0846,103.111,133.107,97.5375,90.0242,0.0039562,0.362581,20.6421,879.772,0.724047,0.0,0.0
1344,335.75,93.9831,102.458,134.775,97.5751,91.4522,0.00378501,0.345644,20.661,879.732,0.58538,0.0,0.0
1348,336.75,92.4292,101.052,129.228,97.6199,92.3284,0.00364027,0.328405,20.6768,879.712,0.503395,0.0,0.0
1352,337.75,92.7974,101.067,134.849,97.6651,91.8455,0.00350036,0.311061,20.6943,879.642,0.554941,0.0,0.0
1356,338.75,92.2692,100.149,137.612,97.7048,93.2964,0.00339093,0.297013,20.7122,879.642,0.417028,0.0,0.0
1360,339.75,91.155,99.1763,137.496,97.7397,92.01,0.00332893,0.280473,20.7285,879.642,0.54567,0.0,0.0
1364,340.75,90.6376,98.1199,137.737,97.7698,93.6559,0.00331703,0.263617,20.7437,879.612,0.388303,0.0,0.0
1368,341.75,90.4197,97.2728,141.623,97.8031,92.5712,0.00339658,0.249278,20.7584,879.602,0.496605,0.0,0.0
1372,342.75,89.4835,96.6536,134.536,97.8233,92.8071,0.00356953,0.236407,20.7712,879.592,0.475475,0.0,0.0
1376,343.75,88.7454,96.0628,135.994,97.8419,92.5313,0.0037235,0.226152,20.7814,879.562,0.504086,0.0,0.0
1380,344.75,88.3629,95.1364,140.493,97.8693,93.0123,0.00386303,0.2167,20.79,879.552,0.459778,0.0,0.0
1384,345.75,87.9164,94.331,139.601,97.8665,91.797,0.00395231,0.207979,20.7987,879.542,0.578323,0.0,0.0
1388,346.75,87.7421,93.1384,138.09,97.8717,93.0815,0.00401542,0.200592,20.807,879.542,0.453274,0.0,0.0
1392,347.75,86.442,92.9416,137.093,97.876,92.7221,0.00406135,0.194295,20.8142,879.512,0.488624,0.0,0.0
1396,348.75,86.1148,92.0469,137.536,97.8602,93.2084,0.0040897,0.188683,20.82,879.502,0.439913,0.0,0.0
1400,349.75,85.5293,90.876,138.989,97.8518,93.6239,0.00410783,0.183853,20.8245,879.492,0.398967,0.0,0.0
1404,350.75,85.4474,90.9452,137.878,97.838,93.2708,0.00411851,0.179787,20.827,879.452,0.431811,0.0,0.0
1408,351.75,84.9692,90.043,137.326,97.8185,93.6483,0.00413719,0.176556,20.8293,879.442,0.393533,0.0,0.0
1412,352.75,83.8314,89.1933,140.685,97.7975,93.0665,0.00417512,0.17362,20.8325,879.422,0.447892,0.0,0.0
1416,353.75,83.2297,88.4982,140.224,97.7626,93.5001,0.00423987,0.171635,20.8345,879.412,0.402684,0.0,0.0
1420,354.75,82.8628,87.5988,138.735,97.7313,93.2215,0.00432546,0.169142,20.8367,879.372,0.426737,0.0,0.0
1424,355.75,82.6616,86.9975,136.654,97.6913,93.87,0.00442079,0.167022,20.8389,879.382,0.360418,0.0,0.0
1428,356.75,82.0111,86.5166,139.12,97.6501,92.8504,0.00450428,0.165323,20.8404,879.342,0.455254,0.0,0.0
1432,357.75,81.6159,85.6888,141.603,97.6073,93.8388,0.00457488,0.163901,20.8425,879.302,0.355651,0.0,0.0
1436,358.75,81.5298,85.7099,138.252,97.5371,92.9855,0.00460032,0.162673,20.8433,879.282,0.431663,0.0,0.0
1440,359.75,80.9529,85.1134,143.365,97.4737,94.0417,0.00460145,0.161546,20.8441,879.242,0.323773,0.0,0.0
1444,360.75,80.0616,83.9648,137.281,97.4249,93.5546,0.00458243,0.160157,20.8452,879.212,0.366154,0.0,0.0
1448,361.75,80.1886,83.6905,140.024,97.367,94.0319,0.00454572,0.159382,20.8468,879.212,0.314827,0.0,0.0
1452,362.75,79.5673,83.6869,137.288,97.2989,93.884,0.00451359,0.158148,20.8479,879.212,0.322719,0.0,0.0
1456,363.75,79.3651,83.5785,138.911,97.216,93.5121,0.00449627,0.156923,20.8487,879.192,0.350873,0.0,0.0
1460,364.75,79.2405,82.7022,141.936,97.1355,93.1948,0.00448796,0.155773,20.8494,879.182,0.374094,0.0,0.0
1464,365.75,78.9096,81.8383,138.86,97.0582,92.762,0.00451428,0.15466,20.8503,879.142,0.408952,0.0,0.0
1468,366.75,78.116,81.3055,137.677,96.9762,93.1583,0.0045588,0.153859,20.8514,879.122,0.362801,0.0,0.0
1472,367.75,77.9947,80.7234,140.859,96.8989,93.0104,0.00460779,0.152905,20.853,879.112,0.369953,0.0,0.0
1476,368.75,77.1095,80.8048,139.347,96.8283,92.0627,0.00466138,0.151979,20.854,879.152,0.455883,0.0,0.0
1480,369.75,77.6037,79.9537,139.807,96.7344,93.1719,0.00471161,0.151135,20.855,879.152,0.338939,0.0,0.0
1484,370.75,76.923,79.2919,142.698,96.646,93.1579,0.00475464,0.150453,20.8564,879.132,0.33203,0.0,0.0
1488,371.75,76.5058,79.567,140.467,96.5639,93.109,0.0047784,0.149778,20.8572,879.112,0.329103,0.0,0.0
1492,372.75,76.4123,79.1199,139.762,96.4843,93.1067,0.00478446,0.149059,20.8583,879.092,0.321867,0.0,0.0
1496,373.75,75.5536,78.1114,138.862,96.4228,93.1944,0.00474527,0.148405,20.8601,879.052,0.307609,0.0,0.0
1500,374.75,75.5914,78.1521,143.35,96.3455,93.905,0.0046764,0.147883,20.8614,879.072,0.231752,0.0,0.0
1504,375.75,75.3273,77.665,136.899,96.2658,92.5817,0.00460171,0.147266,20.8629,879.062,0.352476,0.0,0.0
1508,376.75,75.031,77.0988,142.415,96.1981,92.6393,0.00456178,0.14648,20.864,879.042,0.340497,0.0,0.0
1512,377.75,75.2358,76.5058,140.777,96.1212,93.94,0.00456509,0.145808,20.8648,879.062,0.207327,0.0,0.0
1516,378.75,74.3681,76.6045,141.192,96.0645,93.7639,0.00457318,0.145258,20.8653,879.062,0.218951,0.0,0.0
1520,379.75,74.3009,76.6341,137.98,96.007,92.6261,0.00458696,0.144715,20.8656,879.002,0.323824,0.0,0.0
1524,380.75,74.259,76.1331,139.589,95.9626,93.2671,0.00456831,0.144266,20.8663,878.992,0.257355,0.0,0.0
1528,381.75,74.3046,75.9631,139.949,95.9174,93.5877,0.00451134,0.143533,20.8671,878.982,0.222097,0.0,0.0
1532,382.75,74.0215,75.3706,137.879,95.8631,92.5678,0.00443351,0.142869,20.8681,878.972,0.315967,0.0,0.0
1536,383.75,72.9641,75.5581,139.664,95.8409,93.3457,0.00436162,0.142344,20.8704,878.942,0.238278,0.0,0.0
1540,384.75,72.8776,74.6739,140.775,95.8151,93.31,0.00432249,0.141827,20.8719,878.962,0.23931,0.0,0.0
1544,385.75,72.6961,74.6243,142.217,95.785,93.0544,0.00436295,0.141322,20.8729,878.942,0.261242,0.0,0.0
1548,386.75,72.5891,74.491,136.393,95.7771,92.4421,0.00443371,0.140859,20.8735,878.922,0.320133,0.0,0.0
1552,387.75,72.5318,73.9176,138.743,95.7775,93.581,0.00454457,0.140437,20.8746,878.892,0.209564,0.0,0.0
1556,388.75,72.6411,73.4799,138.241,95.7727,92.5034,0.0046423,0.14007,20.8752,878.892,0.313729,0.0,0.0
1560,389.75,71.7388,73.6847,141.178,95.7846,92.5478,0.00470188,0.139829,20.8757,878.892,0.310515,0.0,0.0
1564,390.75,71.6241,73.1286,141.998,95.7822,93.1703,0.00474552,0.139628,20.8759,878.872,0.249736,0.0,0.0
1568,391.75,71.3678,73.2638,141.243,95.808,93.5584,0.00480143,0.139362,20.8768,878.862,0.214623,0.0,0.0
1572,392.75,71.605,72.1344,141.414,95.8433,92.6829,0.00485949,0.139065,20.8775,878.852,0.302868,0.0,0.0
1576,393.75,71.1132,72.0883,144.324,95.8532,92.7236,0.00492482,0.138806,20.8779,878.812,0.29984,0.0,0.0
1580,394.75,71.0148,72.1644,138.551,95.8873,92.9095,0.00499454,0.138526,20.8791,878.822,0.284959,0.0,0.0
1584,395.75,70.5411,71.594,139.624,95.9265,93.4086,0.00504807,0.138251,20.8798,878.802,0.240264,0.0,0.0
1588,396.75,70.4442,71.4854,139.49,95.9654,93.2136,0.0050783,0.13797,20.8808,878.802,0.262794,0.0,0.0
1592,397.75,70.4988,71.6089,142.537,96.0014,93.0582,0.00511309,0.137687,20.8824,878.761,0.281265,0.0,0.0
1596,398.75,69.5563,70.03,141.756,96.0375,93.4763,0.00516097,0.137384,20.8836,878.781,0.24416,0.0,0.0
1600,399.75,70.1988,70.5918,142.557,96.0922,92.8933,0.00519703,0.137186,20.8846,878.761,0.305817,0.0,0.0
1604,400.75,70.2894,71.0769,139.717,96.137,93.3762,0.0052257,0.136931,20.8859,878.751,0.263193,0.0,0.0
1608,401.75,69.7871,70.5879,136.38,96.1866,93.456,0.00525075,0.136717,20.8867,878.721,0.260132,0.0,0.0
1612,402.75,69.5921,70.3899,144.993,96.2413,93.884,0.00530155,0.1365,20.8872,878.721,0.224,0.0,0.0
1616,403.75,69.4145,70.0349,144.244,96.29,94.5358,0.00537453,0.136298,20.8876,878.701,0.166073,0.0,0.0
1620,404.75,69.5615,69.5028,143.896,96.3503,93.4654,0.00548861,0.136168,20.8886,878.671,0.274584,0.0,0.0
1624,405.75,69.0509,69.9059,141.578,96.3875,93.2787,0.0055846,0.136089,20.8892,878.671,0.296136,0.0,0.0
1628,406.75,68.1703,69.3702,138.545,96.4466,93.2614,0.00570583,0.135935,20.8897,878.661,0.303346,0.0,0.0
1632,407.75,68.6125,69.5908,140.893,96.487,93.4786,0.0057959,0.135813,20.89,878.681,0.286122,0.0,0.0
1636,408.75,68.4915,68.8846,141.556,96.5509,94.0202,0.00585727,0.135738,20.8902,878.641,0.239911,0.0,0.0
1640,409.75,67.7734,68.4555,140.703,96.6052,94.0981,0.00589803,0.135623,20.8911,878.631,0.237508,0.0,0.0
1644,410.75,68.2632,68.5991,142.303,96.6634,93.8147,0.00596136,0.135475,20.8914,878.611,0.270201,0.0,0.0
1648,411.75,67.7876,68.1132,138.824,96.7134,94.2596,0.0060337,0.135378,20.8915,878.591,0.232135,0.0,0.0
1652,412.75,67.2055,67.8583,138.34,96.7641,93.3333,0.00608928,0.135244,20.8923,878.571,0.326073,0.0,0.0
1656,413.75,67.6719,68.3379,140.736,96.8137,93.424,0.00611132,0.135027,20.8929,878.581,0.321924,0.0,0.0
1660,414.75,67.234,67.4101,140.101,96.8636,94.8219,0.00611052,0.134786,20.8933,878.561,0.192431,0.0,0.0
1664,415.75,67.4857,67.8597,138.548,96.9084,94.9295,0.00609193,0.134578,20.8935,878.541,0.186359,0.0,0.0
1668,416.75,67.0033,67.6708,139.681,96.9512,94.2645,0.00606878,0.134405,20.8939,878.521,0.253852,0.0,0.0
1672,417.75,67.1443,67.8984,140.946,96.9948,94.9032,0.00605052,0.134164,20.895,878.491,0.196916,0.0,0.0
1676,418.75,66.2611,66.8964,142.118,97.0321,94.9766,0.00604359,0.133827,20.8963,878.491,0.193404,0.0,0.0
1680,419.75,66.7404,67.0163,139.653,97.0638,93.6186,0.00604314,0.133554,20.8971,878.501,0.326437,0.0,0.0
1684,420.75,66.6126,67.0248,140.158,97.0975,93.9321,0.00608403,0.13335,20.8976,878.501,0.299372,0.0,0.0
1688,421.75,65.8229,66.6871,140.643,97.1252,93.9483,0.00613146,0.133164,20.8986,878.501,0.300397,0.0,0.0
1692,422.75,65.7651,65.7666,139.844,97.1371,94.3954,0.00616438,0.133043,20.8995,878.461,0.258615,0.0,0.0
1696,423.75,66.3698,66.2466,141.919,97.1577,94.0804,0.00617044,0.132921,20.9,878.461,0.290727,0.0,0.0
1700,424.75,66.0259,65.8645,144.186,97.195,94.4696,0.00614917,0.132769,20.9004,878.431,0.256901,0.0,0.0
1704,425.75,65.5772,66.261,141.308,97.2097,94.7093,0.00608697,0.132541,20.9006,878.421,0.23537,0.0,0.0
1708,426.75,65.4413,65.9124,138.673,97.2338,94.2099,0.00601641,0.132294,20.9008,878.411,0.285377,0.0,0.0
1712,427.75,65.5614,65.6494,141.448,97.2394,94.7519,0.00590482,0.132077,20.9009,878.391,0.234078,0.0,0.0
1716,428.75,65.5034,65.9348,140.455,97.2414,94.141,0.00576446,0.131843,20.9017,878.371,0.292682,0.0,0.0
1720,429.75,65.4364,65.52,137.193,97.2442,94.278,0.0056178,0.13146,20.9023,878.371,0.279805,0.0,0.0
1724,430.75,64.796,65.1864,140.789,97.2616,95.0996,0.00549895,0.131168,20.9027,878.361,0.203047,0.0,0.0
1728,431.75,64.8655,64.8875,141.718,97.2628,94.9423,0.0054097,0.130938,20.9029,878.351,0.218112,0.0,0.0
1732,432.75,64.9699,65.0066,141.421,97.2719,94.6988,0.00538766,0.130724,20.9031,878.371,0.242157,0.0,0.0
1736,433.75,64.6155,64.5553,144.748,97.2763,94.7312,0.00540278,0.130432,20.9035,878.341,0.239475,0.0,0.0
1740,434.75,64.5408,64.3969,141.607,97.2778,95.0263,0.00549256,0.130128,20.9038,878.311,0.211529,0.0,0.0
1744,435.75,64.4181,65.2019,141.208,97.2715,94.3763,0.00557126,0.129868,20.904,878.321,0.272939,0.0,0.0
1748,436.75,64.6794,64.7998,140.303,97.2747,93.9028,0.00560843,0.129667,20.9046,878.311,0.318665,0.0,0.0
1752,437.75,64.2519,64.8449,143.154,97.2715,94.1546,0.00560231,0.129467,20.9054,878.291,0.29418,0.0,0.0
1756,438.75,64.1687,64.637,142.5,97.2668,94.8463,0.00557713,0.12929,20.9059,878.291,0.227616,0.0,0.0
1760,439.75,63.6977,64.4655,141.352,97.2604,95.2133,0.00554955,0.129072,20.9062,878.261,0.192146,0.0,0.0
1764,440.75,63.4817,64.2744,139.758,97.2576,94.3601,0.00553483,0.128878,20.9064,878.241,0.2732,0.0,0.0
1768,441.75,63.903,64.2876,144.673,97.2311,94.3589,0.00555066,0.128699,20.9065,878.221,0.270841,0.0,0.0
1772,442.75,63.5105,64.0742,143.499,97.2053,94.6521,0.00558124,0.128455,20.9072,878.171,0.240422,0.0,0.0
1776,443.75,63.1906,63.6149,141.03,97.2081,95.3225,0.00563465,0.128065,20.9077,878.201,0.176936,0.0,0.0
1780,444.75,63.2331,63.5327,145.405,97.1819,95.1764,0.00566513,0.127698,20.9079,878.201,0.188354,0.0,0.0
1784,445.75,63.697,62.9423,144.547,97.1728,94.3552,0.00566457,0.127505,20.908,878.181,0.265786,0.0,0.0
1788,446.75,63.3205,63.2735,143.777,97.1478,94.2494,0.00565507,0.127312,20.9081,878.181,0.273595,0.0,0.0
1792,447.75,62.9623,62.7465,144.871,97.1209,94.1026,0.00566146,0.127171,20.9084,878.181,0.285166,0.0,0.0
1796,448.75,62.9388,63.0386,137.048,97.0991,94.6028,0.00569101,0.127039,20.9092,878.151,0.235253,0.0,0.0
1800,449.75,62.8233,62.9805,144.486,97.0753,95.1817,0.00572897,0.126885,20.9097,878.151,0.177937,0.0,0.0
1804,450.75,63.0697,63.2239,139.672,97.0582,94.8926,0.00576278,0.126676,20.91,878.131,0.203825,0.0,0.0
1808,451.75,62.5444,62.6957,144.064,97.0436,95.0135,0.00578802,0.126283,20.9102,878.121,0.190967,0.0,0.0
1812,452.75,62.5014,63.0697,142.052,97.0194,94.4662,0.00580326,0.125966,20.9112,878.131,0.240892,0.0,0.0
1816,453.75,62.3036,63.1627,141.303,97.0138,94.7029,0.00581002,0.125741,20.9118,878.121,0.217766,0.0,0.0
1820,454.75,62.2133,62.6187,143.725,97.0023,93.9389,0.00579645,0.125466,20.9122,878.121,0.289865,0.0,0.0
1824,455.75,62.6169,62.0838,140.901,96.9885,94.371,0.0057827,0.125206,20.9125,878.111,0.247122,0.0,0.0
1828,456.75,62.5439,62.325,144.894,96.9885,94.6122,0.00573486,0.125084,20.9129,878.111,0.224059,0.0,0.0
1832,457.75,61.7321,61.5265,141.863,96.979,94.9943,0.00569206,0.12506,20.9132,878.111,0.186775,0.0,0.0
1836,458.75,62.8886,62.4261,141.114,97.0483,94.6254,0.00564801,0.124804,20.9134,878.101,0.228376,0.0,0.0
1840,459.75,62.0267,62.3425,145.125,97.1534,94.2754,0.0055826,0.124501,20.9142,878.061,0.271622,0.0,0.0
1844,460.75,61.8975,62.156,141.455,97.2113,95.0022,,0.124203,,878.081,0.207634,0.0,0.0
1848,461.75,60.876,61.4445,143.01,97.2794,95.1847,,0.123903,,878.061,0.196627,0.0,0.0
1852,462.75,61.3501,61.4721,140.547,97.3492,95.1813,,0.123579,,878.041,0.203425,0.0,0.0
1856,463.75,61.2948,62.072,143.168,97.4043,94.1628,,,,878.061,0.30571,0.0,0.0
1860,464.75,61.4602,62.6603,143.41,97.4562,95.2619,,,,878.021,0.205709,0.0,0.0
1864,465.75,61.0305,61.3933,148.488,97.5002,95.3857,,,,878.031,0.198053,0.0,0.0
1868,466.75,61.5776,61.3602,141.921,97.543,96.062,,,,877.991,0.138196,0.0,0.0
1872,467.75,61.1121,61.1341,143.69,97.5799,94.7786,,,,878.011,0.263105,0.0,0.0
1876,468.75,61.3751,61.3883,146.501,97.6148,94.3303,,,,877.981,0.309156,0.0,0.0
1880,469.75,60.8049,60.3582,145.783,97.6525,95.4135,,,,878.001,0.209507,0.0,0.0
1884,470.75,61.0432,61.0432,141.41,97.6822,95.1651,,,,877.971,0.235804,0.0,0.0