File: 01_Data/PET/Cone/PET_Cone_HF50Scan_220207_R2.csv
Names,Time,Stack TC,Smoke TC,Exh Press,Smoke Comp,Smoke Meas,CO Meter,CO2 Meter,O2 Meter,Sample Mass,Ext Coeff,Start Test,Flame Verif
Chan Gain,,500,500,1,1,1,1,1,1,1,1,1.0,1.0
Offset,,0,0,0.134889,0,0,0,0,0,0,0,0.0,0.0
Gain,,1,1,25.011,12.9892,12.3331,1,1,1,1.00088,1.02973,1.0,1.0
Units,sec,C,C,Pa,%,%,%,%,%,g,/m,,
Baseline,,26.8673,28.796,156.242,96.8045,97.4984,-0.00128472,0.0909407,20.9341,-0.212895,-0.0644992,,
5,1,25.105,26.1147,155.625,97.1895,97.8498,-0.00137424,0.0950569,20.9296,961.734,-0.0611667,0.0,0.0
10,2.25,23.2319,24.7902,155.079,97.2025,97.8856,-0.00135197,0.0951565,20.9297,961.684,-0.0632511,0.0,0.0
15,3.5,24.4589,26.3556,158.358,97.1918,97.8912,-0.00130005,0.0952958,20.9297,961.594,-0.0647672,0.0,0.0
20,4.75,24.7271,26.34,152.811,97.2117,97.8175,-0.00125765,0.0953876,20.9297,961.624,-0.0561156,0.0,0.0
25,6,24.0174,25.261,159.183,97.2109,97.9006,-0.00126328,0.0954168,20.9298,961.684,-0.0638665,0.0,0.0
30,7.25,24.56,25.3659,157.117,97.2287,97.805,-0.00129757,0.0953993,20.9298,961.664,-0.0533851,0.0,0.0
35,8.5,24.8023,26.2522,152.788,97.2251,97.9737,-0.00132496,0.0953889,20.9298,961.634,-0.0692756,0.0,0.0
40,9.75,24.1192,25.443,155.797,97.2394,98.0693,-0.00132366,0.0954224,20.9298,961.624,-0.0767592,0.0,0.0
45,11,24.4071,25.6162,157.809,97.2517,97.9594,-0.00127183,0.0954228,20.9298,961.604,-0.06549,0.0,0.0
50,12.25,24.9606,26.546,158.69,97.2549,97.895,-0.00119524,0.0953613,20.9295,961.614,-0.0592583,0.0,0.0
55,13.5,24.9955,26.8114,153.812,97.2576,97.9511,-0.00109394,0.0952175,20.9282,961.614,-0.0641739,0.0,0.0
60,14.75,25.1013,27.2122,164.771,97.2652,97.9112,-0.00103312,0.0950468,20.9279,961.624,-0.0597949,0.0,0.0
65,16,25.1719,26.6589,157.885,97.266,97.7557,-0.00104357,0.0948116,20.928,961.624,-0.0453689,0.0,0.0
70,17.25,25.4798,26.3003,154.627,97.2632,98.1728,-0.00111643,0.0945124,20.9281,961.634,-0.0840789,0.0,0.0
75,18.5,25.4811,26.7553,156.362,97.2703,98.07,-0.00118343,0.0942162,20.9282,961.624,-0.0739573,0.0,0.0
80,19.75,25.5215,27.0367,153.187,97.2893,97.8852,-0.00122596,0.094001,20.9282,961.624,-0.0551535,0.0,0.0
85,21,25.7024,27.1827,154.265,97.2905,98.0809,-0.00128979,0.0937735,20.9282,961.614,-0.0730856,0.0,0.0
90,22.25,25.3894,26.9094,154.654,97.2893,98.0719,-0.00135742,0.0935448,20.9282,961.604,-0.0723643,0.0,0.0
95,23.5,25.5602,26.9413,154.339,97.2933,98.0832,-0.00143812,0.093351,20.9282,961.584,-0.0730356,0.0,0.0
100,24.75,25.3468,26.8757,159.434,97.2949,97.9992,-0.00150264,0.0931841,20.9286,961.594,-0.0651549,0.0,0.0
105,26,25.7075,26.8895,153.295,97.2973,97.9138,-0.00153941,0.093063,20.9288,961.594,-0.0570567,0.0,0.0
110,27.25,25.6848,27.5583,156.128,97.2878,97.9063,-0.00152651,0.0928896,20.9289,961.594,-0.0572453,0.0,0.0
115,28.5,25.8217,27.3426,161.416,97.2977,98.0327,-0.00146279,0.0927223,20.929,961.594,-0.067985,0.0,0.0
120,29.75,25.8754,27.241,157.815,97.3028,97.9612,-0.0013675,0.0926134,20.929,961.604,-0.0609152,0.0,0.0
125,31,25.4032,27.7442,157.25,97.3151,97.8272,-0.00125946,0.0924739,20.9291,961.614,-0.0474118,0.0,1.0
130,32.25,25.9252,27.3616,155.159,97.3024,98.1046,-0.0011757,0.0921682,20.9293,961.604,-0.0741641,0.0,0.0
135,33.5,25.9494,27.4172,155.018,97.3008,98.1716,-0.0011385,0.091936,20.9302,961.614,-0.0804784,0.0,0.0
140,34.75,26.3442,27.652,157.694,97.3131,98.0056,-0.00113068,0.0916759,20.9315,961.614,-0.0640525,0.0,0.0
145,36,24.8088,27.1559,156.751,97.3207,97.9755,-0.00112607,0.0914168,20.9342,961.584,-0.0605775,0.0,0.0
150,37.25,25.9568,27.8417,148.026,97.3076,97.9341,-0.00108109,0.0912159,20.9358,961.604,-0.0579746,0.0,0.0
155,38.5,25.9587,27.8709,156.032,97.3064,98.0753,-0.00104642,0.0909561,20.9368,961.604,-0.0710938,0.0,0.0
160,39.75,25.9424,27.6919,155.376,97.3226,97.8886,-0.00103368,0.090735,20.9371,961.594,-0.0523746,0.0,0.0
165,41,26.1535,27.8937,153.282,97.3143,98.0425,-0.00103706,0.0905077,20.937,961.604,-0.0673417,0.0,0.0
170,42.25,26.1614,27.5131,155.123,97.3127,97.9627,-0.00104839,0.090351,20.9375,961.594,-0.0601336,0.0,0.0
175,43.5,26.4888,28.087,157.487,97.3226,97.8916,-0.0010874,0.0902979,20.9377,961.594,-0.0526524,0.0,0.0
180,44.75,26.1139,27.943,153.846,97.3175,98.0726,-0.00114962,0.0901866,20.9373,961.574,-0.0698203,0.0,0.0
185,46,25.588,27.555,154.002,97.3238,97.968,-0.00121202,0.0900516,20.9367,961.584,-0.05959,0.0,0.0
190,47.25,26.0627,27.6885,157.635,97.3234,97.7648,-0.00125133,0.0900125,20.9363,961.594,-0.040868,0.0,0.0
195,48.5,25.9966,27.3093,153.898,97.3322,97.8581,-0.00128633,0.090024,20.9361,961.574,-0.0486783,0.0,0.0
200,49.75,26.4145,27.522,156.946,97.3282,97.5939,-0.00131704,0.0900879,20.936,961.544,-0.0246246,0.0,0.0
205,51,26.2034,28.1603,157.26,97.3226,97.6835,-0.0013215,0.0901169,20.9359,961.544,-0.033427,0.0,0.0
210,52.25,26.2796,28.0527,151.472,97.329,97.7113,-0.0012795,0.0901777,20.9358,961.534,-0.0354132,0.0,0.0
215,53.5,26.1852,28.4416,155.45,97.3298,97.4757,-0.00121997,0.0902383,20.9358,961.544,-0.0135329,0.0,0.0
220,54.75,26.2543,28.4443,159.749,97.3357,97.5047,-0.001177,0.0902239,20.9358,961.524,-0.0156668,0.0,0.0
225,56,26.6831,28.4314,156.645,97.3444,97.6989,-0.00114822,0.0902031,20.9355,961.544,-0.0328305,0.0,0.0
230,57.25,26.3675,28.1916,156.549,97.3421,97.2582,-0.00112595,0.090226,20.9353,961.554,0.00778826,0.0,0.0
235,58.5,26.8486,28.52,153.968,97.3393,97.4742,-0.00111629,0.0903316,20.9354,961.554,-0.0125107,0.0,0.0
240,59.75,26.2293,28.1652,154.64,97.3448,97.1716,-0.00111015,0.0903939,20.9358,961.534,0.016089,0.0,0.0
245,61,26.3534,28.3973,155.142,97.3437,96.8923,-0.00109819,0.0904307,20.9361,961.514,0.0419766,0.0,0.0
250,62.25,26.1886,28.3095,154.709,97.3548,97.0135,-0.00106806,0.0905276,20.9362,961.534,0.0317159,0.0,0.0
255,63.5,26.8163,28.4276,161.288,97.35,96.8852,-0.00104428,0.0905992,20.9363,961.504,0.0432327,0.0,0.0
260,64.75,26.4418,28.4027,148.556,97.3417,96.5638,-0.00105137,0.0906414,20.9364,961.484,0.0724755,0.0,0.0
265,66,26.4579,28.2576,150.748,97.3488,96.5589,-0.00101616,0.0905987,20.9364,961.504,0.0735959,0.0,0.0
270,67.25,26.5365,28.2174,157.632,97.3544,96.4678,-0.000934627,0.0906411,20.9368,961.514,0.0826356,0.0,0.0
275,68.5,26.0602,28.5391,160.359,97.35,96.6778,-0.000853156,0.0905474,20.937,961.494,0.0625873,0.0,0.0
280,69.75,26.6908,28.8499,154.328,97.3559,96.1772,-0.000725062,0.0905629,20.9371,961.494,0.11003,0.0,0.0
285,71,25.9027,27.6186,162.466,97.3615,95.9491,-0.000583292,0.0906377,20.9372,961.464,0.131991,0.0,0.0
290,72.25,26.5748,28.6844,157.657,97.3817,95.977,-0.00044389,0.0906962,20.9372,961.484,0.131245,0.0,0.0
295,73.5,26.3308,28.644,152.501,97.3583,96.0041,-0.00032378,0.0906714,20.9373,961.474,0.126526,0.0,0.0
300,74.75,26.7342,28.5261,154.314,97.3662,95.6477,-0.000227077,0.0906128,20.9373,961.484,0.16086,0.0,0.0
305,76,26.6893,28.2826,152.333,97.3718,95.5268,-0.00014762,0.0906122,20.9373,961.474,0.172791,0.0,0.0
310,77.25,26.1436,28.0464,154.385,97.375,95.68,-8.87268e-05,0.0907216,20.9373,961.484,0.158612,0.0,0.0
315,78.5,26.5798,28.6592,152.639,97.3682,95.7598,-4.62156e-05,0.0910871,20.9373,961.474,0.150458,0.0,0.0
320,79.75,26.9901,28.6236,157.253,97.3702,95.2351,3.72824e-05,0.0915284,20.9365,961.454,0.200267,0.0,0.0
325,81,26.9743,28.8019,157.287,97.3809,95.3439,0.000105005,0.0918726,20.9359,961.434,0.190949,0.0,0.0
330,82.25,26.7856,28.2509,160.417,97.3984,95.0646,0.000197884,0.093333,20.9352,961.434,0.219063,0.0,0.0
335,83.5,27.2136,29.2754,157.227,97.375,96.5325,0.000384217,0.0956647,20.9287,961.334,0.0784884,0.0,0.0
340,84.75,26.6602,28.5756,152.898,97.3888,92.5885,0.000720401,0.105952,20.9155,961.274,0.456577,0.0,1.0
345,86,27.0497,29.2366,143.951,97.3817,81.0544,0.00140117,0.1297,20.877,961.174,1.65766,0.0,1.0
350,87.25,27.7513,30.1711,145.13,97.3908,75.3979,0.002583,0.160732,20.8232,961.014,2.31195,0.0,1.0
355,88.5,28.2381,30.8956,140.856,97.3853,71.0417,0.00398235,0.201409,20.7631,960.894,2.849,0.0,1.0
360,89.75,28.518,31.5458,146.179,97.4079,69.103,0.00570901,0.251467,20.6677,960.784,3.10102,0.0,1.0
365,91,30.052,33.0978,138.742,97.4007,67.019,0.00736557,0.307073,20.6056,960.533,3.37696,0.0,0.0
370,92.25,30.606,33.9301,134.075,97.3833,64.6463,0.00903207,0.365143,20.533,960.363,3.70092,0.0,0.0
375,93.5,31.8312,35.7747,137.062,97.3869,63.6252,0.0106472,0.418457,20.467,960.143,3.84507,0.0,0.0
380,94.75,33.2949,37.4925,141.151,97.3988,60.8171,0.0122373,0.468958,20.4029,959.953,4.2539,0.0,0.0
385,96,34.385,38.9792,132.033,97.4035,60.6293,0.0138334,0.518497,20.3396,959.713,4.28228,0.0,0.0
390,97.25,34.6582,39.3843,132.298,97.3892,62.4942,0.0157417,0.567132,20.2818,959.462,4.0073,0.0,0.0
395,98.5,36.8333,41.9395,126.483,97.4075,58.7639,0.0176247,0.610922,20.2252,959.212,4.56491,0.0,0.0
400,99.75,37.9433,43.7283,125.006,97.394,59.409,0.0198738,0.655776,20.1735,958.932,4.46504,0.0,0.0
405,101,39.4676,45.9232,131.988,97.4043,55.8504,0.022089,0.702792,20.1187,958.602,5.02395,0.0,0.0
410,102.25,41.0105,47.1373,128.234,97.3948,55.9742,0.0245148,0.7492,20.0574,958.361,5.00306,0.0,0.0
415,103.5,42.0261,49.0884,121.41,97.417,52.5737,0.0268966,0.800776,20.0063,958.031,5.57125,0.0,0.0
420,104.75,42.8726,50.9302,126.549,97.4198,56.5015,0.0289283,0.853588,19.9511,957.621,4.92068,0.0,0.0
425,106,45.0263,52.6858,122.418,97.4055,51.4442,0.0312445,0.905283,19.9069,957.3,5.76636,0.0,0.0
430,107.25,46.5792,54.812,126.154,97.4059,53.5154,0.0333848,0.945033,19.8596,956.98,5.40986,0.0,0.0
435,108.5,47.6036,55.9271,125.002,97.4071,49.7268,0.0352943,0.992591,19.804,956.59,6.0732,0.0,0.0
440,109.75,49.5862,58.9121,123.42,97.417,50.699,0.0368236,1.03724,19.749,956.26,5.89923,0.0,0.0
445,111,51.0991,61.1253,118.249,97.411,48.3899,0.0379654,1.07828,19.6995,955.849,6.31974,0.0,0.0
450,112.25,52.9212,63.4295,128.808,97.4138,50.962,0.0386331,1.1149,19.6688,955.539,5.85219,0.0,0.0
455,113.5,54.1787,64.8769,122.563,97.4178,50.1739,0.0392574,1.14429,19.6414,955.128,5.99334,0.0,0.0
460,114.75,54.8299,66.9268,124.219,97.4225,51.8766,0.0397165,1.16357,19.6183,954.798,5.69233,0.0,0.0
465,116,56.9767,68.3911,120.555,97.4142,54.0626,0.0400427,1.18367,19.6014,954.368,5.31873,0.0,0.0
470,117.25,57.9494,70.4326,128.444,97.4166,52.4721,0.0403076,1.19901,19.59,954.048,5.58869,0.0,0.0
475,118.5,59.13,71.6049,122.94,97.4154,55.5102,0.0405094,1.20909,19.5831,953.727,5.08017,0.0,0.0
480,119.75,60.5221,72.8812,126.287,97.4142,55.7462,0.0406114,1.21575,19.5796,953.317,5.04174,0.0,0.0
485,121,61.0831,74.3077,129.283,97.4265,54.0039,0.0403216,1.21984,19.5776,952.977,5.32969,0.0,0.0
490,122.25,62.5349,75.5502,124.873,97.421,50.9357,0.0397834,1.22285,19.5754,952.586,5.85752,0.0,0.0
495,123.5,63.3746,76.9561,125.725,97.4213,54.5572,0.0392477,1.22586,19.5737,952.276,5.23714,0.0,0.0
500,124.75,63.7811,78.1557,122.547,97.4186,52.3678,0.0387991,1.2301,19.5712,951.956,5.60684,0.0,0.0
505,126,65.4558,79.5815,123.462,97.4206,51.4434,0.0385162,1.23261,19.5697,951.535,5.76789,0.0,0.0
510,127.25,65.9981,80.8704,128.53,97.4178,56.6619,0.0384518,1.23288,19.5688,951.265,4.8949,0.0,0.0
515,128.5,66.9837,81.6977,123.223,97.4154,52.0686,0.0385151,1.23305,19.5683,950.885,5.6583,0.0,0.0
520,129.75,67.355,82.7135,119.343,97.4313,54.6046,0.0389871,1.23462,19.5723,950.524,5.23021,0.0,0.0
525,131,68.7949,83.7508,117.325,97.4198,53.9012,0.0393503,1.23606,19.5727,950.164,5.34626,0.0,0.0
530,132.25,68.4966,85.1101,121.667,97.4225,54.5696,0.0394055,1.24013,19.5694,949.734,5.23519,0.0,0.0
535,133.5,69.8011,85.7114,123.386,97.4384,58.2788,0.039063,1.24532,19.5674,949.414,4.64266,0.0,0.0
540,134.75,70.4108,86.9542,119.84,97.4134,57.0669,0.0384484,1.24786,19.5662,949.163,4.83017,0.0,0.0
545,136,71.3332,87.6623,123.751,97.4257,55.5151,0.0378143,1.2467,19.5675,948.733,5.08033,0.0,0.0
550,137.25,72.1081,88.7905,119.781,97.4233,58.928,0.0369486,1.2432,19.574,948.443,4.54119,0.0,0.0
555,138.5,72.5936,88.9937,117.589,97.4178,56.7165,0.0362401,1.23554,19.5874,948.112,4.8862,0.0,0.0
560,139.75,72.4238,89.5373,124.558,97.4166,57.4225,0.0356488,1.22602,19.6014,947.782,4.77434,0.0,0.0
565,141,74.0585,90.8983,121.374,97.4166,56.8546,0.0352329,1.21433,19.6141,947.462,4.86412,0.0,0.0
570,142.25,73.8228,91.2137,121.92,97.4241,59.6123,0.0348545,1.20222,19.6281,947.202,4.43699,0.0,0.0
575,143.5,73.8346,90.713,124.365,97.4281,57.89,0.034578,1.18913,19.6445,946.841,4.70217,0.0,0.0
580,144.75,74.9067,91.7206,126.257,97.419,56.8422,0.0343755,1.17286,19.6621,946.551,4.86632,0.0,0.0
585,146,76.0349,92.1875,121.033,97.4178,56.6536,0.0342096,1.1627,19.6766,946.161,4.89622,0.0,0.0
590,147.25,75.0337,91.6051,122.007,97.4146,56.9701,0.0340341,1.1527,19.6852,945.9,4.8456,0.0,0.0
595,148.5,76.0471,93.4043,123.161,97.4071,57.7278,0.0337985,1.14575,19.6902,945.54,4.72557,0.0,0.0
600,149.75,76.0719,92.9977,122.832,97.419,59.0967,0.0335004,1.14167,19.6928,945.22,4.51498,0.0,0.0
605,151,76.4055,93.1413,125.134,97.4146,59.9044,0.0331893,1.13971,19.6935,944.94,4.39196,0.0,0.0
610,152.25,76.608,93.8425,122.645,97.4154,59.2397,0.0328308,1.13868,19.6941,944.589,4.49281,0.0,0.0
615,153.5,76.9948,93.9349,128.391,97.4083,54.3054,0.0324047,1.13682,19.6955,944.259,5.27771,0.0,0.0
620,154.75,77.0509,94.1933,127.664,97.4043,56.6472,0.0320242,1.13369,19.6979,944.029,4.89599,0.0,0.0
625,156,77.4682,94.409,124.338,97.415,58.7895,0.0317284,1.13052,19.6997,943.729,4.56168,0.0,0.0
630,157.25,77.3024,94.4855,122.956,97.4099,58.0319,0.0316237,1.12853,19.7007,943.338,4.67836,0.0,0.0
635,158.5,78.1099,94.8357,125.569,97.4079,53.4612,0.0318278,1.12849,19.6997,942.968,5.4192,0.0,0.0
640,159.75,77.7357,95.4087,129.548,97.413,56.3604,0.0322578,1.13395,19.6863,942.738,4.94265,0.0,0.0
645,161,78.6402,95.3875,119.162,97.3991,56.1304,0.0328011,1.1483,19.6592,942.357,4.97829,0.0,0.0
650,162.25,79.1571,96.522,120.489,97.4007,56.5621,0.0334913,1.16901,19.6259,942.057,4.90923,0.0,0.0
655,163.5,79.8906,97.8498,120.694,97.4043,53.4905,0.0342927,1.19963,19.5801,941.627,5.41391,0.0,0.0
660,164.75,80.3002,98.1306,110.786,97.4091,53.7521,0.0352518,1.24603,19.5137,941.286,5.37028,0.0,0.0
665,166,81.5021,99.7051,120.063,97.3991,54.2516,0.0363032,1.29649,19.4428,940.756,5.28582,0.0,0.0
670,167.25,83.079,101.755,121.587,97.4035,51.3535,0.037327,1.34834,19.38,940.406,5.78212,0.0,0.0
675,168.5,83.3053,102.802,109.093,97.3932,52.7141,0.0382558,1.39336,19.3271,939.965,5.54496,0.0,0.0
680,169.75,84.9057,104.3,113.166,97.3964,54.0532,0.0389373,1.43287,19.2876,939.545,5.31865,0.0,0.0
685,171,86.0225,105.263,119.137,97.4031,53.8218,0.0393588,1.46523,19.2566,939.134,5.35804,0.0,0.0
690,172.25,86.6787,106.181,112.989,97.3908,57.3382,0.0395716,1.49232,19.2311,938.714,4.78522,0.0,0.0
695,173.5,87.5045,106.904,118.041,97.3988,53.6087,0.0397374,1.51489,19.2117,938.254,5.39346,0.0,0.0
700,174.75,88.1755,108.619,110.626,97.3928,53.5214,0.0399469,1.53657,19.1945,937.913,5.40763,0.0,0.0
705,176,89.3489,109.893,109.155,97.3849,52.9847,0.0402892,1.55719,19.1783,937.433,5.49793,0.0,0.0
710,177.25,90.0834,110.319,122.345,97.3849,54.777,0.0407689,1.57357,19.1638,937.083,5.19744,0.0,0.0
715,178.5,91.1258,111.729,113.15,97.3988,53.71,0.0410743,1.58729,19.1544,936.602,5.37641,0.0,0.0
720,179.75,91.4034,112.574,111.05,97.3821,53.6531,0.0410177,1.5959,19.1501,936.212,5.38443,0.0,0.0
725,181,92.7549,114.144,108.132,97.3813,56.0266,0.0407138,1.59897,19.1519,935.802,4.99337,0.0,0.0
730,182.25,92.6881,113.978,116.735,97.3813,54.0709,0.0403529,1.59609,19.1617,935.421,5.3143,0.0,0.0
735,183.5,94.0231,115.248,119.678,97.3801,52.9647,0.0401017,1.58865,19.1721,935.021,5.50089,0.0,0.0
740,184.75,94.1507,115.489,116.389,97.3797,55.564,0.0399774,1.58184,19.1801,934.591,5.06811,0.0,0.0
745,186,94.5321,116.037,107.922,97.3734,56.0774,0.0398978,1.57631,19.1865,934.24,4.98445,0.0,0.0
750,187.25,95.422,117.357,125.055,97.3678,54.0544,0.0397951,1.56974,19.1946,933.84,5.31581,0.0,0.0
755,188.5,95.4875,117.48,123.143,97.3714,56.0702,0.0396343,1.56252,19.2017,933.47,4.98541,0.0,0.0
760,189.75,95.6202,117.953,117.576,97.3706,56.4583,0.0394121,1.55331,19.2095,933.079,4.92304,0.0,0.0
765,191,96.2284,118.617,128.82,97.3603,55.4296,0.0390837,1.54215,19.2236,932.719,5.08817,0.0,0.0
770,192.25,96.6103,118.864,122.296,97.375,56.622,0.038837,1.52995,19.2393,932.248,4.89729,0.0,0.0
775,193.5,97.0609,119.627,116.773,97.3674,58.5701,0.0386998,1.5184,19.2529,931.958,4.59104,0.0,0.0
780,194.75,97.0448,119.924,114.829,97.3548,57.5513,0.0386817,1.50785,19.2628,931.608,4.74837,0.0,0.0
785,196,97.2952,120.126,120.223,97.3583,58.3804,0.038724,1.49733,19.2745,931.228,4.6195,0.0,0.0
790,197.25,98.2092,120.883,118.12,97.3643,56.2035,0.0388965,1.48672,19.2862,930.847,4.96331,0.0,0.0
795,198.5,98.0692,120.674,113.908,97.3579,55.3092,0.0390152,1.47824,19.294,930.507,5.1076,0.0,0.0
800,199.75,98.6716,121.19,112.762,97.354,54.2956,0.0388544,1.47203,19.3004,930.097,5.2743,0.0,0.0
805,201,98.5556,120.669,114.262,97.3488,54.8485,0.0384403,1.46679,19.3066,929.756,5.18231,0.0,0.0
810,202.25,98.8183,121.492,116.143,97.352,55.4421,0.0380014,1.46012,19.3154,929.466,5.08538,0.0,0.0
815,203.5,99.1411,121.581,115.644,97.3575,55.9678,0.0376331,1.45305,19.3254,929.066,5.00063,0.0,0.0
820,204.75,98.9495,121.891,118.629,97.3488,54.9972,0.0373598,1.44665,19.3329,928.635,5.15786,0.0,0.0
825,206,99.9844,122.271,114.701,97.3488,55.9475,0.0372445,1.43975,19.3408,928.325,5.00311,0.0,0.0
830,207.25,99.6479,122.473,116.745,97.3444,54.4778,0.0372215,1.4333,19.349,927.975,5.24316,0.0,0.0
835,208.5,99.9474,122.227,116.689,97.3484,53.6471,0.0371928,1.42822,19.3539,927.544,5.38232,0.0,0.0
840,209.75,100.024,122.747,114,97.344,55.2072,0.03713,1.4241,19.357,927.214,5.12299,0.0,0.0
845,211,99.5731,122.045,120.146,97.3567,55.1537,0.0370249,1.42058,19.36,926.874,5.13291,0.0,0.0
850,212.25,101.061,122.759,117.792,97.3516,54.2407,0.0368738,1.41778,19.3636,926.483,5.28323,0.0,0.0
855,213.5,100.938,122.694,122.846,97.3528,55.3073,0.0366785,1.41386,19.3664,926.143,5.10743,0.0,0.0
860,214.75,100.9,123.031,113.13,97.3496,56.2769,0.0364341,1.40883,19.3745,925.793,4.95017,0.0,0.0
865,216,100.474,123.142,116.747,97.3536,57.0386,0.036127,1.40203,19.3846,925.482,4.82908,0.0,0.0
870,217.25,100.799,122.822,125.811,97.3548,57.6623,0.0357894,1.39426,19.3942,925.062,4.73097,0.0,0.0
875,218.5,100.842,122.958,123.849,97.3444,58.3751,0.0352375,1.3843,19.4066,924.722,4.61903,0.0,0.0
880,219.75,101.165,123.268,119.617,97.3559,57.8817,0.0346613,1.37609,19.4139,924.372,4.69677,0.0,0.0
885,221,100.843,122.6,121.111,97.3528,56.8418,0.034093,1.37041,19.4183,923.981,4.86024,0.0,0.0
890,222.25,101.037,123.01,119.179,97.3571,58.6032,0.0337068,1.36638,19.4218,923.671,4.58498,0.0,0.0
895,223.5,101.02,122.695,123.153,97.3425,57.9822,0.0335449,1.36359,19.4266,923.381,4.67985,0.0,0.0
900,224.75,100.38,122.227,121.475,97.3548,56.4884,0.0335658,1.36193,19.4295,923.01,4.91676,0.0,0.0
905,226,101.85,122.63,118.911,97.3551,58.3868,0.0337584,1.36081,19.4314,922.6,4.61821,0.0,0.0
910,227.25,101.481,122.961,108.485,97.3524,57.3661,0.0339309,1.35882,19.4346,922.31,4.77726,0.0,0.0
915,228.5,101.875,123.383,121.17,97.3464,56.8079,0.0340157,1.35475,19.44,921.909,4.86503,0.0,0.0
920,229.75,101.951,123.096,118.727,97.3599,55.9599,0.0340448,1.35042,19.4449,921.609,5.00213,0.0,0.0
925,231,101.124,122.762,124.498,97.3932,57.5298,0.0340878,1.3464,19.449,921.269,4.75531,0.0,0.0
930,232.25,102.424,123.344,116.762,97.3615,58.2483,0.0342258,1.34302,19.4522,920.918,4.64025,0.0,0.0
935,233.5,101.491,122.566,114.847,97.3678,54.2328,0.0343771,1.34056,19.4542,920.558,5.28605,0.0,0.0
940,234.75,101.749,123.783,117.943,97.3742,58.8979,0.0345399,1.33851,19.4547,920.158,4.54125,0.0,0.0
945,236,102.335,123.122,115.663,97.3777,58.3066,0.0346869,1.33898,19.4519,919.807,4.63272,0.0,0.0
950,237.25,101.132,122.098,124.268,97.3762,59.6887,0.0348365,1.34073,19.4486,919.517,4.42097,0.0,0.0
955,238.5,102.194,123.099,116.939,97.3876,56.2482,0.0349311,1.34231,19.4463,919.137,4.95829,0.0,0.0
960,239.75,102.536,123.594,120.731,97.3845,59.5374,0.0349213,1.34342,19.4443,918.797,4.44467,0.0,0.0
965,241,102.022,122.694,120.279,97.388,54.9987,0.0348068,1.3448,19.4428,918.466,5.16125,0.0,0.0
970,242.25,101.965,123.089,122.653,97.388,58.5584,0.034628,1.34641,19.4403,918.126,4.59475,0.0,0.0
975,243.5,102.387,123.837,118.274,97.3956,58.9807,0.0344124,1.34828,19.4385,917.796,4.53055,0.0,0.0
980,244.75,102.878,123.74,120.111,97.4051,60.8611,0.0342336,1.34859,19.4375,917.435,4.24795,0.0,0.0
985,246,103.184,124.067,118.752,97.4118,58.2284,0.0340086,1.34623,19.4421,917.085,4.64802,0.0,0.0
990,247.25,102.664,123.428,113.48,97.4075,58.0439,0.0339624,1.34337,19.4481,916.785,4.67627,0.0,0.0
995,248.5,102.58,123.005,118.591,97.4154,57.459,0.0341976,1.33975,19.4529,916.354,4.76848,0.0,0.0
1000,249.75,102.826,123.525,119.802,97.4344,58.6943,0.0346217,1.33642,19.4557,916.024,4.57812,0.0,0.0
1005,251,103.39,123.789,119.733,97.419,55.7943,0.03508,1.33637,19.4523,915.704,5.03438,0.0,0.0
1010,252.25,102.579,123.896,116.185,97.4225,57.7613,0.0355053,1.34253,19.4451,915.314,4.72176,0.0,0.0
1015,253.5,103.33,123.774,117.034,97.4229,59.0041,0.0359124,1.35322,19.4297,914.923,4.52951,0.0,0.0
1020,254.75,103.858,124.648,114.675,97.4245,57.7586,0.0362673,1.36544,19.4131,914.593,4.72236,0.0,0.0
1025,256,103.705,124.628,114.807,97.4229,57.5577,0.0366605,1.37928,19.3957,914.183,4.7537,0.0,0.0
1030,257.25,103.822,124.311,107.033,97.4301,58.6683,0.036939,1.3941,19.3786,913.852,4.58171,0.0,0.0
1035,258.5,103.829,125.003,115.087,97.4277,61.3256,0.0370515,1.40614,19.3685,913.442,4.18138,0.0,0.0
1040,259.75,104.68,124.986,123.223,97.4277,62.0426,0.0368853,1.41211,19.3625,913.132,4.07638,0.0,0.0
1045,261,104.893,125.544,113.627,97.419,59.1919,0.0365681,1.41257,19.3637,912.761,4.50044,0.0,0.0
1050,262.25,105.168,125.544,119.553,97.415,58.1087,0.0362452,1.40994,19.3687,912.401,4.6669,0.0,0.0
1055,263.5,105.316,126.28,112.839,97.4146,60.1133,0.0359636,1.40662,19.3748,912.041,4.36051,0.0,0.0
1060,264.75,105.148,125.792,116.503,97.3948,59.2864,0.0356926,1.40365,19.3788,911.76,4.48379,0.0,0.0
1065,266,105.309,126.116,108.007,97.3908,58.8328,0.0354482,1.39938,19.3821,911.33,4.55279,0.0,0.0
1070,267.25,105.38,125.866,112.572,97.392,60.4366,0.0353055,1.39567,19.384,910.97,4.30997,0.0,0.0
1075,268.5,105.5,126.212,116.427,97.3936,61.1106,0.0354027,1.39521,19.3875,910.609,4.20992,0.0,0.0
1080,269.75,105.796,126.758,119.806,97.373,60.4441,0.0357493,1.39743,19.3852,910.279,4.30708,0.0,0.0
1085,271,105.693,126.366,112.723,97.3678,61.7001,0.036312,1.40158,19.3783,909.889,4.12083,0.0,0.0
1090,272.25,106.319,126.697,114.833,97.3662,60.1072,0.0372931,1.40901,19.3666,909.518,4.35693,0.0,0.0
1095,273.5,106.162,125.681,109.766,97.3492,54.8907,0.0386904,1.42725,19.3456,909.098,5.17541,0.0,0.0
1100,274.75,107.04,127.595,115.056,97.3219,52.5944,0.0402844,1.44947,19.3062,908.698,5.55887,0.0,0.0
1105,276,106.826,127.495,110.84,97.3143,52.1856,0.04199,1.48024,19.263,908.187,5.62864,0.0,0.0
1110,277.25,108.578,129.308,116.922,97.3068,53.1725,0.0437471,1.51092,19.2249,907.767,5.45873,0.0,0.0
1115,278.5,108.906,129.979,114.961,97.2854,51.2428,0.0453678,1.53648,19.1956,907.387,5.79064,0.0,0.0
1120,279.75,108.833,129.69,110.973,97.2672,51.3207,0.0464238,1.56014,19.1743,906.906,5.77522,0.0,0.0
1125,281,109.384,130.267,114.684,97.2549,52.253,0.0484093,1.58408,19.152,906.396,5.61147,0.0,0.0
1130,282.25,109.123,130.46,116.032,97.2319,51.8672,0.0504872,1.60416,19.1256,906.015,5.67627,0.0,0.0
1135,283.5,110.143,131.121,117.661,97.2128,50.186,0.0524894,1.63084,19.0955,905.535,5.97215,0.0,0.0
1140,284.75,110.375,131.766,111.743,97.1926,52.7197,0.0543214,1.65777,19.0614,905.015,5.52537,0.0,0.0
1145,286,111.011,132.636,113.564,97.1744,52.62,0.055723,1.68671,19.0284,904.544,5.54078,0.0,0.0
1150,287.25,110.713,132.296,111.759,97.1502,52.565,0.0567597,1.7206,18.9926,904.054,5.54797,0.0,0.0
1155,288.5,111.937,133.263,110.589,97.1403,49.9978,0.0577128,1.75578,18.9532,903.533,5.99934,0.0,0.0
1160,289.75,113.339,134.897,114.837,97.1197,52.4559,0.0587933,1.7944,18.9151,903.003,5.56391,0.0,0.0
1165,291,114.025,136.243,100.918,97.0987,50.7061,0.0602704,1.83573,18.8679,902.502,5.8684,0.0,0.0
1170,292.25,114.933,137.418,109.463,97.0816,52.1736,0.0619447,1.87915,18.8277,901.962,5.6091,0.0,0.0
1175,293.5,115.852,137.99,103.624,97.0642,52.1333,0.0643633,1.92177,18.7705,901.371,5.61446,0.0,0.0
1180,294.75,116.075,139.563,103.931,97.0368,49.321,0.067073,1.981,18.7102,900.831,6.11281,0.0,0.0
1185,296,117.468,141.216,98.6663,97.0075,48.5292,0.0698453,2.02222,18.646,900.3,6.25628,0.0,0.0
1190,297.25,118.394,142.097,105.848,96.9861,48.1532,0.0725442,2.06382,18.6029,899.7,6.32455,0.0,0.0
1195,298.5,119.014,143.026,105.722,96.9635,46.9503,0.0752552,2.09403,18.5758,899.149,6.55095,0.0,0.0
1200,299.75,119.3,143.445,101.366,96.9409,43.1417,0.078058,2.12189,18.5465,898.569,7.313,0.0,0.0
1205,301,120.127,144.501,107.962,96.9191,42.6584,0.0805771,2.15136,18.5177,897.978,7.41272,0.0,0.0
1210,302.25,120.536,145.116,110.148,96.8878,42.8346,0.0832168,2.17727,18.4962,897.358,7.37258,0.0,0.0
1215,303.5,121.713,146.375,112.511,96.8624,46.9679,0.0850307,2.19287,18.4836,896.837,6.53813,0.0,0.0
1220,304.75,121.692,146.864,105.854,96.8343,44.0431,0.0858165,2.19175,18.4953,896.377,7.11627,0.0,0.0
1225,306,122.154,146.794,112.651,96.8089,46.1602,0.0855502,2.17443,18.5266,895.766,6.68982,0.0,0.0
1230,307.25,122.288,146.939,111.019,96.7792,45.0055,0.0843788,2.14239,18.5697,895.276,6.91588,0.0,0.0
1235,308.5,121.738,146.221,112.78,96.7542,46.8197,0.0820008,2.1078,18.6105,894.786,6.55659,0.0,0.0
1240,309.75,121.625,146.323,104.538,96.7193,50.4506,0.0783702,2.0719,18.6517,894.285,5.87868,0.0,0.0
1245,311,121.888,145.821,111.5,96.6781,48.671,0.0745636,2.03598,18.7038,893.745,6.19919,0.0,0.0
1250,312.25,121.831,145.671,111.933,96.6385,48.4407,0.0708752,1.99629,18.7528,893.374,6.23833,0.0,0.0
1255,313.5,121.136,145.209,119.279,96.6151,49.0493,0.067499,1.94428,18.8113,892.894,6.12337,0.0,0.0
1260,314.75,121.384,144.884,116.925,96.5782,51.1393,0.0642213,1.89432,18.8628,892.474,5.74301,0.0,0.0
1265,316,120.314,143.773,114.703,96.556,52.7066,0.0609267,1.85009,18.907,892.023,5.46827,0.0,0.0
1270,317.25,120.765,144.128,115.888,96.5021,52.4657,0.0576933,1.80956,18.9571,891.643,5.5046,0.0,0.0
1275,318.5,119.893,142.997,116.851,96.472,53.7529,0.0550906,1.7707,18.9983,891.242,5.28284,0.0,0.0
1280,319.75,119.973,142.578,117.444,96.4256,55.5787,0.0517195,1.72605,19.0573,890.852,4.97678,0.0,0.0
1285,321,119.333,141.821,119.083,96.3808,57.0044,0.0481776,1.69121,19.1215,890.502,4.7438,0.0,0.0
1290,322.25,118.737,141.61,113.945,96.3392,60.5615,0.0444756,1.6358,19.1848,890.161,4.19313,0.0,0.0
1295,323.5,118.293,140.314,121.22,96.3055,58.1813,0.0407317,1.57897,19.2499,889.841,4.55214,0.0,0.0
1300,324.75,117.725,138.978,117.971,96.2524,58.8377,0.0374943,1.52419,19.3208,889.481,4.44582,0.0,0.0
1305,326,117.082,138.563,121.474,96.2211,60.411,0.0349148,1.47122,19.3878,889.181,4.20453,0.0,0.0
1310,327.25,116.187,137.243,118.263,96.1715,61.7211,0.0327492,1.41172,19.4504,888.89,4.00608,0.0,0.0
1315,328.5,115.795,135.761,127.272,96.135,64.6136,0.0310552,1.36068,19.5013,888.61,3.58897,0.0,0.0
1320,329.75,114.533,134.882,126.002,96.0811,62.5894,0.0295553,1.30945,19.5488,888.36,3.8714,0.0,0.0
1325,331,113.644,133.701,126.131,96.0415,62.3384,0.0281121,1.26342,19.6041,888.06,3.90397,0.0,0.0
1330,332.25,112.863,132.655,120.617,96.0034,66.4921,0.0267644,1.21812,19.6613,887.819,3.31773,0.0,0.0
1335,333.5,112.223,131.664,122.222,95.9689,66.6573,0.0254855,1.17506,19.7112,887.569,3.29207,0.0,0.0
1340,334.75,111.406,130.395,130.449,95.9198,67.3472,0.0244059,1.13697,19.7522,887.369,3.19443,0.0,0.0
1345,336,110.869,129.691,121.75,95.8607,66.993,0.023497,1.09944,19.7818,887.089,3.2365,0.0,0.0
1350,337.25,109.657,127.892,124.77,95.8278,67.6901,0.022677,1.06566,19.8117,886.859,3.1399,0.0,0.0
1355,338.5,108.753,126.714,125.357,95.7838,66.2805,0.0218451,1.03596,19.8422,886.628,3.32583,0.0,0.0
1360,339.75,108.29,125.863,127.368,95.7454,66.0848,0.0210693,1.00587,19.8747,886.388,3.34891,0.0,0.0
1365,341,107.743,124.797,124.46,95.699,65.5741,0.0203564,0.977592,19.9107,886.188,3.41462,0.0,0.0
1370,342.25,106.914,123.396,133.482,95.6681,67.7996,0.0197301,0.950703,19.946,885.968,3.11023,0.0,0.0
1375,343.5,105.642,121.805,128.881,95.634,68.4601,0.0190694,0.922013,19.9799,885.768,3.01943,0.0,0.0
1380,344.75,105.442,120.886,129.637,95.5769,67.8944,0.0184155,0.896621,20.0116,885.547,3.08899,0.0,0.0
1385,346,104.702,119.624,128.49,95.5515,70.3973,0.0177419,0.872338,20.0426,885.377,2.75959,0.0,0.0
1390,347.25,103.409,118.098,128.036,95.5071,69.619,0.0170735,0.848001,20.0708,885.197,2.85582,0.0,0.0
1395,348.5,102.616,117.091,134.103,95.4802,70.6507,0.0164009,0.823435,20.0972,885.037,2.7204,0.0,0.0
1400,349.75,101.382,115.811,129.364,95.4398,70.4583,0.0158173,0.801268,20.1218,884.847,2.7412,0.0,0.0
1405,351,100.841,114.666,129.83,95.4144,72.6296,0.0152392,0.779107,20.1488,884.667,2.46464,0.0,0.0
1410,352.25,100.182,113.578,129.111,95.387,73.1392,0.0147098,0.757627,20.1746,884.547,2.39889,0.0,0.0
1415,353.5,99.5059,112.489,131.09,95.3668,73.898,0.014067,0.736549,20.1996,884.376,2.30375,0.0,0.0
1420,354.75,98.1305,111.308,133.374,95.3359,75.3817,0.0133909,0.715387,20.2208,884.236,2.12126,0.0,0.0
1425,356,97.6552,110.274,132.636,95.3315,75.0046,0.0127544,0.696338,20.241,884.066,2.16615,0.0,0.0
1430,357.25,96.381,108.688,135.402,95.3105,76.364,0.0120038,0.679905,20.2598,883.916,2.00191,0.0,0.0
1435,358.5,96.2081,108.425,134.644,95.2895,76.9406,0.011438,0.662842,20.2753,883.786,1.93197,0.0,0.0
1440,359.75,95.2525,106.662,131.151,95.2875,76.1702,0.0108397,0.64694,20.2929,883.636,2.02269,0.0,0.0
1445,361,94.4058,105.727,132.314,95.2784,77.2305,0.0103463,0.633493,20.3106,883.486,1.89696,0.0,0.0
1450,362.25,93.8999,105.099,135.607,95.2717,78.3731,0.00989739,0.616134,20.3338,883.346,1.76365,0.0,0.0
1455,363.5,93.1276,103.879,134.652,95.2622,79.089,0.00946447,0.596811,20.3558,883.235,1.68062,0.0,0.0
1460,364.75,92.1995,102.796,133.952,95.2725,79.8244,0.00896547,0.57736,20.379,883.145,1.59799,0.0,0.0
1465,366,91.5558,101.481,139.512,95.2784,82.2475,0.00849673,0.557829,20.4013,883.035,1.32844,0.0,0.0
1470,367.25,90.7064,100.416,138.1,95.2895,83.3387,0.00806254,0.539049,20.4256,882.965,1.21045,0.0,0.0
1475,368.5,89.7606,99.7248,132.671,95.2871,84.7523,0.00765209,0.521175,20.4474,882.865,1.05829,0.0,0.0
1480,369.75,88.8287,98.386,137.564,95.2962,84.8859,0.00731459,0.50231,20.4686,882.765,1.04493,0.0,0.0
1485,371,88.5615,97.1718,137.884,95.3212,87.0388,0.00696392,0.484171,20.487,882.705,0.821062,0.0,0.0
1490,372.25,87.7905,96.1461,137.66,95.3296,88.9779,0.00658473,0.465931,20.5074,882.635,0.622824,0.0,0.0
1495,373.5,86.4815,94.8285,140.027,95.3557,88.4754,0.00627112,0.445816,20.5339,882.555,0.676455,0.0,0.0
1500,374.75,85.2082,93.2321,140.926,95.3902,90.7935,0.00608893,0.422178,20.5646,882.545,0.446107,0.0,0.0
1505,376,85.1361,92.8577,140.643,95.4076,91.8624,0.00607563,0.398365,20.5948,882.515,0.342037,0.0,0.0
1510,377.25,84.447,91.7489,140.329,95.4382,92.2392,0.00620079,0.376099,20.6217,882.465,0.307957,0.0,0.0
1515,378.5,82.3905,89.2058,140.565,95.4612,92.063,0.00647926,0.353372,20.6469,882.425,0.327398,0.0,0.0
1520,379.75,82.4627,88.9086,143.364,95.5032,91.6663,0.00683286,0.327071,20.6707,882.395,0.37038,0.0,0.0
1525,381,81.5948,88.0833,142.566,95.5301,92.2565,0.00722277,0.310884,20.6894,882.365,0.314961,0.0,0.0
1530,382.25,80.1754,85.9265,143.782,95.5496,92.5617,0.00759136,0.290833,20.7073,882.355,0.286962,0.0,0.0
1535,383.5,79.7588,85.1781,142.327,95.5654,93.389,0.00795608,0.273515,20.7235,882.345,0.208088,0.0,0.0
1540,384.75,78.8081,84.2762,139.898,95.5995,92.9791,0.00825319,0.258266,20.7382,882.325,0.25104,0.0,0.0
1545,386,78.2763,83.3269,140.856,95.6229,93.5392,0.00849013,0.244009,20.7521,882.285,0.199006,0.0,0.0
1550,387.25,77.5348,82.3295,142.71,95.6685,92.8196,0.00874101,0.231932,20.7635,882.275,0.273071,0.0,0.0
1555,388.5,76.4435,80.9703,142.602,95.7077,92.1718,0.00901965,0.221407,20.7749,882.245,0.340033,0.0,0.0
1560,389.75,76.0991,80.2736,142.436,95.7648,93.054,0.00933612,0.212278,20.784,882.265,0.259372,0.0,0.0
1565,391,75.4457,79.149,141.949,95.8104,93.441,0.00958837,0.203905,20.7916,882.255,0.226191,0.0,0.0
1570,392.25,75.0172,78.6382,143.156,95.8615,93.3201,0.00979689,0.197196,20.7975,882.225,0.242697,0.0,0.0
1575,393.5,73.7047,77.2051,145.67,95.919,93.8813,0.00989535,0.191595,20.8012,882.215,0.193957,0.0,0.0
1580,394.75,73.607,76.7832,146.092,95.9816,93.4459,0.00993343,0.186883,20.8046,882.184,0.241848,0.0,0.0
1585,396,72.8913,76.0939,146.908,96.0367,93.9871,0.00995171,0.183083,20.8074,882.174,0.194866,0.0,0.0
1590,397.25,72.4666,74.5606,142.762,96.0954,93.7744,0.00995651,0.179833,20.8095,882.164,0.220842,0.0,0.0
1595,398.5,70.8115,73.9085,145.102,96.164,93.3408,0.00995304,0.177024,20.8112,882.134,0.269148,0.0,0.0
1600,399.75,70.6022,73.4118,141.38,96.2096,93.7718,0.00996543,0.174712,20.8127,882.124,0.231821,0.0,0.0
1605,401,70.0599,72.525,142.893,96.2476,93.8173,0.010002,0.1726,20.8147,882.104,0.231007,0.0,0.0
1610,402.25,69.5903,71.2064,143.326,96.3047,94.779,0.0100325,0.170486,20.817,882.114,0.144248,0.0,0.0
1615,403.5,68.5438,71.103,143.185,96.3622,94.5193,0.0100527,0.168543,20.8186,882.084,0.174421,0.0,0.0
1620,404.75,68.2776,70.1198,144.112,96.4137,94.6777,0.0100868,0.166463,20.8201,882.094,0.16412,0.0,0.0
1625,406,67.8015,69.7009,144.282,96.4632,94.7748,0.010139,0.164598,20.822,882.074,0.159501,0.0,0.0
1630,407.25,67.4271,68.5361,147.704,96.508,94.6593,0.0101808,0.162954,20.8234,882.064,0.174714,0.0,0.0
1635,408.5,66.7542,68.2357,144.632,96.5564,94.8911,0.0102066,0.161121,20.8255,882.054,0.157143,0.0,0.0
1640,409.75,66.1363,66.9857,146.165,96.5949,95.167,0.0102209,0.159347,20.8274,882.064,0.134515,0.0,0.0
1645,411,66.0863,67.2864,145.059,96.6178,95.0319,0.0102271,0.15777,20.8286,882.054,0.149499,0.0,0.0
1650,412.25,65.7558,66.8401,148.27,96.6258,94.6698,0.0102283,0.15643,20.8302,882.034,0.184721,0.0,0.0
1655,413.5,64.9827,65.3613,143.616,96.5857,95.184,0.0102317,0.155392,20.8311,882.014,0.132055,0.0,0.0
1660,414.75,64.9916,65.5037,149.509,96.5608,95.0428,0.0102589,0.154521,20.8316,882.014,0.143125,0.0,0.0
1665,416,64.5562,65.2548,144.595,96.5826,95.2679,0.0103071,0.153541,20.8332,881.984,0.123798,0.0,0.0
1670,417.25,62.7541,64.2293,145.32,96.6234,95.3895,0.0103269,0.152591,20.8345,881.994,0.116096,0.0,0.0
1675,418.5,63.7375,63.9092,144.692,96.6634,94.1553,0.0103115,0.151854,20.8353,881.984,0.237465,0.0,0.0
1680,419.75,63.2585,63.8677,142.652,96.7023,95.6247,0.0102502,0.151119,20.8358,881.964,0.101219,0.0,0.0
1685,421,61.9167,62.7184,146.892,96.7368,94.7891,0.010211,0.150505,20.836,881.944,0.183714,0.0,0.0
1690,422.25,62.6256,63.0044,143.692,96.7887,95.779,0.0102149,0.149901,20.8372,881.924,0.0947239,0.0,0.0
1695,423.5,62.4197,62.0511,147.25,96.8014,95.3052,0.010228,0.149542,20.8378,881.914,0.140706,0.0,0.0
1700,424.75,61.356,61.3032,145.792,96.8331,95.3078,0.0101972,0.149127,20.8382,881.884,0.143415,0.0,0.0
1705,426,61.5676,61.7424,153.324,96.8505,95.0308,0.0101015,0.148604,20.8385,881.894,0.171334,0.0,0.0
1710,427.25,60.8062,61.2499,142.315,96.885,95.0537,0.0100268,0.148153,20.8394,881.874,0.172367,0.0,0.0
1715,428.5,61.232,60.6105,146.888,96.887,95.9134,0.00997534,0.147795,20.8402,881.874,0.0912303,0.0,0.0
1720,429.75,61.1785,60.5937,141.578,96.8989,95.2589,0.00999922,0.147523,20.8407,881.864,0.15419,0.0,0.0
1725,431,60.4951,60.3923,146.672,96.9366,95.3454,0.0100522,0.147233,20.8409,881.844,0.149495,0.0,0.0
1730,432.25,60.2796,60.0327,152.257,96.9504,95.3827,0.0101129,0.147068,20.8411,881.834,0.147258,0.0,0.0
1735,433.5,59.8062,59.5534,144.651,96.952,95.0391,0.0101932,0.146913,20.8412,881.824,0.180006,0.0,0.0
1740,434.75,59.8972,59.6209,143.831,96.9746,95.648,0.0102623,0.146704,20.8421,881.804,0.124418,0.0,0.0
1745,436,59.2789,59.051,147.885,96.9905,95.7869,0.0103082,0.146388,20.8431,881.804,0.112788,0.0,0.0
1750,437.25,59.2151,58.5255,142.884,96.9742,95.4,0.0103264,0.146097,20.8437,881.784,0.147834,0.0,0.0
1755,438.5,58.798,58.5627,151.106,96.9643,95.0661,0.0103264,0.145909,20.8441,881.774,0.178577,0.0,0.0
1760,439.75,58.1311,58.359,148.372,96.9492,95.3985,0.0103269,0.145777,20.8443,881.754,0.14565,0.0,0.0
1765,441,58.2815,57.6475,145.554,96.9496,94.7248,0.0103304,0.14556,20.8444,881.764,0.209704,0.0,0.0
1770,442.25,58.5972,57.3852,146.579,96.9266,95.6921,0.0103166,0.14533,20.8445,881.754,0.115791,0.0,0.0
1775,443.5,58.3739,57.0985,142.984,96.8961,95.4625,0.0102887,0.145066,20.8445,881.734,0.134644,0.0,0.0
1780,444.75,58.3217,57.192,147.633,96.8902,95.24,0.010277,0.14481,20.8452,881.714,0.155162,0.0,0.0
1785,446,57.7324,56.9585,144.159,96.8688,95.0714,0.0102764,0.14458,20.8459,881.724,0.169172,0.0,0.0
1790,447.25,57.647,56.7892,146.778,96.8434,95.3477,0.0102786,0.144404,20.8463,881.714,0.140596,0.0,0.0
1795,448.5,57.0593,56.0173,150.122,96.8097,95.263,0.0102829,0.144178,20.8466,881.704,0.145479,0.0,0.0
1800,449.75,56.3917,55.1849,146.014,96.7847,95.3917,0.01028,0.144049,20.8467,881.684,0.130952,0.0,0.0
1805,451,56.9763,55.7266,148.176,96.7665,95.9789,0.0102538,0.144096,20.8472,881.684,0.0738234,0.0,0.0
1810,452.25,56.5453,55.9727,145.889,96.7463,95.8799,0.0102201,0.144042,20.8477,881.674,0.0812559,0.0,0.0
1815,453.5,56.4089,55.7965,146.949,96.7292,94.8836,0.0101891,0.143961,20.848,881.644,0.174013,0.0,0.0
1820,454.75,56.3799,55.3405,145.932,96.711,95.7372,0.0101621,0.143861,20.8482,881.614,0.0914105,0.0,0.0
1825,456,56.2785,55.1772,146.588,96.6908,95.5705,0.0101485,0.143669,20.8491,881.624,0.105267,0.0,0.0
1830,457.25,55.4009,54.6277,146.448,96.6599,95.6047,0.0101596,0.143494,20.8498,881.614,0.0991416,0.0,0.0
1835,458.5,55.829,54.4682,150.038,96.6769,95.164,0.0101971,0.143391,20.8502,881.604,0.142472,0.0,0.0
1840,459.75,55.0929,54.6157,147.925,96.7043,95.8193,0.0102515,0.143304,20.8504,881.594,0.0830432,0.0,0.0
1845,461,54.9425,54.4195,146.956,96.8069,95.668,0.0103182,0.143248,20.8506,881.594,0.106902,0.0,0.0
1850,462.25,55.7963,54.2085,145.439,96.8842,95.0496,0.0103479,0.14307,20.8507,881.574,0.172687,0.0,0.0
1855,463.5,55.0475,53.6213,148.09,96.9687,95.5901,0.0103545,0.142947,20.8507,881.564,0.129339,0.0,0.0
1860,464.75,54.9426,53.4765,148.542,97.0654,96.4061,0.0103255,0.143066,20.8507,881.544,0.061566,0.0,0.0
1865,466,54.7657,53.9746,143.483,97.1209,95.8133,0.0102339,0.143069,20.8507,881.564,0.122442,0.0,0.0
1870,467.25,54.3938,53.287,144.7,97.1819,95.715,0.0101506,0.142915,20.8508,881.544,0.137384,0.0,0.0
1875,468.5,54.3266,53.3746,144.658,97.2449,96.1129,0.0100759,0.142824,20.8508,881.534,0.105773,0.0,0.0
1880,469.75,54.6004,53.1532,146.506,97.3,96.0011,0.0100131,0.14272,20.8508,881.524,0.121401,0.0,0.0
1885,471,53.4464,52.8479,148.411,97.3314,96.2611,0.00996766,0.142546,20.8508,881.514,0.0998712,0.0,0.0
1890,472.25,53.7992,53.0372,147.027,97.3619,95.8584,0.00994372,0.142325,20.8508,881.514,0.140572,0.0,0.0
1895,473.5,53.9916,52.9023,144.814,97.4043,96.3402,0.00998511,0.142142,20.8507,881.494,0.0992236,0.0,0.0
1900,474.75,53.8315,52.5475,147.178,97.4158,95.7135,0.0100316,0.142053,20.8505,881.494,0.159237,0.0,0.0
1905,476,53.9441,52.2531,154.226,97.4265,96.5536,0.0100727,0.14205,20.8503,881.474,0.0812954,0.0,0.0
1910,477.25,53.2549,52.0811,146.862,97.4237,95.432,0.0101154,0.141868,20.8507,881.434,0.18658,0.0,0.0
1915,478.5,52.8201,52.0767,146.791,97.4229,96.3342,0.0101371,0.141726,20.8514,881.414,0.101516,0.0,0.0
1920,479.75,53.3547,52.1529,148.03,97.4174,95.9563,0.0101134,0.141636,20.8518,881.404,0.136503,0.0,0.0
1925,481,53.1239,51.77,152.153,97.3817,96.0959,0.0100467,0.141396,20.8521,881.404,0.120059,0.0,0.0
1930,482.25,53.002,52.0921,148.77,97.3615,95.9382,0.00994793,0.141192,20.8522,881.414,0.133018,0.0,0.0
1935,483.5,53.2117,51.2853,144.71,97.3337,96.3511,0.00990308,0.141001,20.8523,881.394,0.0916546,0.0,0.0
1940,484.75,52.2769,51.5171,144.634,97.2818,94.8802,0.00995389,0.140868,20.8524,881.374,0.225789,0.0,0.0
1945,486,52.7169,51.8364,150.67,97.2053,96.4625,0.0100332,0.140876,20.8524,881.354,0.0692896,0.0,0.0
1950,487.25,52.6728,51.1591,149.043,97.1383,96.2559,0.0101158,0.140812,20.8524,881.354,0.0824318,0.0,0.0
1955,488.5,52.4351,50.759,144.829,97.0769,95.6586,0.010211,0.140712,20.8524,881.344,0.132943,0.0,0.0
1960,489.75,52.5499,51.2428,150.755,96.9841,95.9751,0.010262,0.140699,20.8525,881.334,0.0944681,0.0,0.0
1965,491,51.8752,51.0843,153.115,96.887,95.5592,0.0102554,0.140776,20.8525,881.344,0.124646,0.0,0.0
1970,492.25,52.2285,51.2724,149.436,96.7938,95.9352,0.0101935,0.140867,20.8525,881.344,0.0804854,0.0,0.0
1975,493.5,51.8362,50.8946,147.153,96.8085,95.4011,0.0101048,0.141022,20.8525,881.314,0.132281,0.0,0.0
1980,494.75,52.171,50.6215,148.717,96.8228,95.5569,0.0100268,0.14114,20.8525,881.314,0.118871,0.0,0.0
1985,496,51.0916,50.4908,148.159,96.8489,95.9781,0.00998201,0.141174,20.8525,881.314,0.0815867,0.0,0.0
1990,497.25,51.0671,50.6272,147.5,96.8819,95.98,0.00993851,0.141316,20.852,881.304,0.0844781,0.0,0.0
1995,498.5,50.8966,50.3607,144.174,96.9191,96.5649,0.00990985,0.14131,20.8517,881.284,0.0330742,0.0,0.0
2000,499.75,51.0142,50.2436,147.336,96.9564,95.9183,0.00988827,0.141305,20.8517,881.284,0.097234,0.0,0.0
2005,501,51.4572,50.0133,147.498,96.9901,95.7579,0.00987463,0.141201,20.8524,881.284,0.115485,0.0,0.0
2010,502.25,51.0054,49.8832,150.719,97.0357,96.4429,0.00986891,0.140959,20.8529,881.254,0.0553438,0.0,0.0
2015,503.5,50.9736,50.1024,146.888,97.0753,96.3616,0.00989632,0.1407,20.8536,881.234,0.0666509,0.0,0.0
2020,504.75,50.8879,49.8852,151.065,97.0971,95.8321,0.00994379,0.140425,20.8545,881.174,0.118454,0.0,0.0
2025,506,50.8118,49.9081,146.138,97.153,95.5174,,0.140071,,881.204,0.153359,0.0,0.0
2030,507.25,50.7253,49.6871,148.442,97.1938,96.0609,,0.13991,,881.174,0.105905,0.0,0.0
2035,508.5,50.5737,49.4483,149.608,97.2295,95.8855,,0.140252,,881.164,0.125727,0.0,0.0
2040,509.75,50.2938,49.3529,149.582,97.2648,96.3345,,,,881.174,0.0868044,0.0,0.0
2045,511,49.6403,48.4526,152.892,97.308,96.4324,,,,881.194,0.0816443,0.0,0.0
2050,512.25,49.779,49.3476,145.744,97.3452,96.5615,,,,881.194,0.0730181,0.0,0.0
2055,513.5,50.1364,49.2663,149.275,97.3754,96.3402,,,,881.154,0.0965405,0.0,0.0
2060,514.75,49.9614,48.812,143.914,97.4031,96.009,,,,881.154,0.130221,0.0,0.0
2065,516,49.6467,48.7586,148.684,97.4447,96.738,,,,881.114,0.0657488,0.0,0.0
2067,516.5,49.9953,48.7882,152.33,97.4471,96.6876,,,,881.114,0.0706797,0.0,0.0