File: 01_Data/PET/Cone/PET_Cone_HF25Scan_220204_R3.csv
Names,Time,Stack TC,Smoke TC,Exh Press,Smoke Comp,Smoke Meas,CO Meter,CO2 Meter,O2 Meter,Sample Mass,Ext Coeff,Start Test,Flame Verif
Chan Gain,,500,500,1,1,1,1,1,1,1,1,1.0,1.0
Offset,,0,0,0.134889,0,0,0,0,0,0,0,0.0,0.0
Gain,,1,1,25.011,12.9892,12.3331,1,1,1,1.00088,1.02973,1.0,1.0
Units,sec,C,C,Pa,%,%,%,%,%,g,/m,,
Baseline,,21.1442,21.6846,142.33,98.1438,97.3325,0.000419363,0.0719827,20.9612,-866.794,0.0749989,,
11,2.5,18.5703,19.4674,138.189,97.4717,96.6319,0.000404034,0.0799176,20.9543,95.5639,0.0781628,0.0,0.0
22,5.25,19.1577,19.6904,144.296,97.5621,97.1016,0.000435415,0.0786764,20.9555,95.5339,0.0427333,0.0,0.0
33,8,18.8467,19.4568,139.31,97.6929,97.4257,0.000596602,0.0778004,20.9561,95.5639,0.0247418,0.0,0.0
44,10.75,19.4484,19.4924,141.352,97.8277,97.222,0.000552361,0.0768715,20.9581,95.5439,0.0560929,0.0,0.0
55,13.5,19.0948,19.7034,142.396,97.9644,97.4445,0.00054132,0.0755655,20.9617,95.5439,0.0480688,0.0,0.0
66,16.25,19.5259,20.0145,145.075,98.1325,97.6003,0.000565284,0.0738348,20.9634,95.5239,0.0491205,0.0,0.0
77,19,19.8043,20.4853,147.331,98.2831,97.7817,0.000572515,0.0724821,20.965,95.5539,0.0462006,0.0,0.0
88,21.75,19.2732,20.0789,143.541,98.4353,98.0252,0.000400702,0.0715638,20.9652,95.5539,0.037712,0.0,0.0
99,24.5,19.6318,20.5707,138.273,98.5788,98.0342,0.000257096,0.0708788,20.9669,95.5339,0.0500383,0.0,0.0
110,27.25,19.5935,20.0274,141.781,98.7196,98.3402,0.000204755,0.0702022,20.97,95.5339,0.0347724,0.0,0.0
121,30,19.8457,20.5797,144.283,98.8389,98.513,9.62748e-05,0.0694963,20.9723,95.5439,0.0298293,0.0,0.0
132,32.75,19.296,20.5111,143.966,98.9384,98.5552,7.94578e-05,0.0690358,20.9731,95.5339,0.0350534,0.0,0.0
143,35.5,19.183,19.7186,145.772,99.0236,98.3587,2.56886e-05,0.0687014,20.9734,95.5439,0.0608558,0.0,0.0
154,38.25,19.771,20.6279,144.14,99.0727,98.6899,-1.79951e-05,0.068459,20.9741,95.5539,0.034973,0.0,0.0
165,41,19.6345,19.4934,145.821,99.0997,98.6602,-4.28624e-05,0.068301,20.9753,95.5239,0.0401523,0.0,0.0
176,43.75,19.7743,20.5555,141.232,99.1005,99.0907,-6.39404e-05,0.0682725,20.9763,95.5439,0.000889381,0.0,0.0
187,46.5,19.4315,20.8361,142.826,99.07,98.8085,-8.27726e-05,0.0681196,20.9775,95.5239,0.0238752,0.0,0.0
198,49.25,19.8195,20.1366,142.462,99.0208,98.6511,3.83819e-05,0.0677984,20.9749,95.4938,0.0337855,0.0,0.0
209,52,19.5994,20.5808,142.162,98.9435,98.388,0.000257676,0.0676917,20.9723,95.5239,0.0508531,0.0,0.0
220,54.75,20.1152,20.0621,141.063,98.8547,98.8039,4.8979e-05,0.067786,20.9715,95.5339,0.00464191,0.0,0.0
231,57.5,19.3145,20.5674,143.184,98.7414,98.5593,4.76965e-05,0.0677969,20.9713,95.5339,0.0166705,0.0,0.0
242,60.25,19.9044,20.6567,143.536,98.6347,98.2168,8.31415e-05,0.0679125,20.9712,95.5239,0.0383543,0.0,0.0
253,63,20.1776,20.5507,142.352,98.5313,98.067,3.29069e-05,0.0678328,20.9712,95.4938,0.0426625,0.0,0.0
264,65.75,19.5842,20.8795,145.728,98.4389,98.1186,-8.21484e-05,0.0677984,20.9712,95.5038,0.029443,0.0,0.0
275,68.5,19.8599,20.4179,142.468,98.3434,98.0263,-4.81779e-05,0.0676608,20.9724,95.5339,0.029165,0.0,0.0
286,71.25,19.9948,20.3801,143.598,98.3628,98.2021,4.05005e-05,0.0676419,20.9731,95.5239,0.0147668,0.0,0.0
297,74,19.95,20.8675,141.245,98.5503,98.1822,7.6813e-05,0.0674828,20.9715,95.5139,0.0338037,0.0,0.0
308,76.75,19.1138,20.5937,141.881,98.7041,98.0854,0.000128804,0.0676459,20.9724,95.5038,0.0567927,0.0,0.0
319,79.5,19.6194,19.9757,140.952,98.8016,98.6334,0.000179329,0.0675738,20.972,95.4938,0.0153871,0.0,0.0
330,82.25,19.9071,20.8382,143.549,98.8615,98.4453,0.000119934,0.0676661,20.9711,95.5038,0.0381088,0.0,0.0
341,85,20.2359,20.7939,143.278,98.8321,98.5156,-2.50452e-05,0.0679356,20.9708,95.5038,0.0289728,0.0,0.0
352,87.75,20.1077,20.9538,144.033,98.7687,98.5198,-0.000114162,0.0681325,20.9707,95.4938,0.0227948,0.0,0.0
363,90.5,19.9996,20.9989,142.86,98.6534,98.4599,4.56995e-05,0.0682401,20.9707,95.4838,0.0177269,0.0,0.0
374,93.25,19.8558,20.3245,141.274,98.473,98.1223,0.000224743,0.068268,20.9707,95.4838,0.0322234,0.0,0.0
385,96,19.8904,20.9368,144.288,98.2677,98.1822,0.000136773,0.0683292,20.9705,95.4838,0.00786249,0.0,0.0
396,98.75,20.0942,21.1359,141.423,97.9985,97.8735,-3.41535e-05,0.0684564,20.9702,95.4838,0.0115261,0.0,0.0
407,101.5,20.0436,21.1276,144.238,97.9937,97.6217,-9.8934e-05,0.0685387,20.9701,95.4638,0.0343551,0.0,0.0
418,104.25,19.6936,20.5565,141.294,98.0492,97.8355,-0.000118559,0.0686653,20.97,95.4738,0.0197095,0.0,0.0
429,107,19.7555,21.1806,144.453,98.1004,97.9496,-2.60657e-05,0.068698,20.97,95.4938,0.0138971,0.0,0.0
440,109.75,19.5696,20.9648,142.464,98.1693,98.0008,1.57431e-05,0.0688094,20.9686,95.4938,0.0155257,0.0,0.0
451,112.5,19.9052,20.448,141.914,98.2391,97.5156,-4.15412e-05,0.0689785,20.968,95.4838,0.0667707,0.0,0.0
462,115.25,20.012,21.3068,141.709,98.299,97.9514,-0.000126591,0.0690346,20.9678,95.4738,0.0319906,0.0,0.0
473,118,20.1999,20.6185,142.693,98.3529,98.1479,-3.91164e-05,0.0689454,20.9677,95.4938,0.0188435,0.0,0.0
484,120.75,20.29,20.8813,142.461,98.4179,98.1731,3.34774e-05,0.0690582,20.967,95.4938,0.0224919,0.0,0.0
495,123.5,19.819,20.5835,143.271,98.446,98.1566,8.72719e-05,0.0691073,20.9668,95.4738,0.0265983,0.0,0.0
506,126.25,20.0853,21.048,141.253,98.4548,97.9759,0.000165149,0.0690128,20.9662,95.4938,0.0440385,0.0,0.0
517,129,19.906,20.7719,142.451,98.4492,98.3572,6.17788e-05,0.0691592,20.9659,95.4838,0.00844774,0.0,0.0
528,131.75,19.8869,20.9771,144.764,98.4167,98.0655,7.57828e-05,0.0690946,20.9663,95.4838,0.0322921,0.0,0.0
539,134.5,20.2174,20.8664,141.841,98.3656,98.3455,0.000123553,0.0690734,20.9667,95.4538,0.00184219,0.0,0.0
550,137.25,20.1725,20.8365,143.266,98.2867,97.959,0.000214377,0.0688632,20.9681,95.4638,0.0301674,0.0,0.0
561,140,19.8422,21.1477,140.774,98.1836,98.2066,0.000228816,0.0686738,20.9687,95.4738,-0.00211667,0.0,0.0
572,142.75,19.8965,20.6882,142.839,98.0774,98.0102,5.52226e-05,0.0684831,20.9685,95.4638,0.0061937,0.0,0.0
583,145.5,19.7316,20.8537,142.681,97.9597,97.5209,-1.76419e-05,0.0685642,20.9684,95.4338,0.04055,0.0,0.0
594,148.25,20.3959,20.9053,142.698,97.8304,97.7331,-7.35578e-05,0.0686675,20.9672,95.4638,0.00898669,0.0,0.0
605,151,20.1649,20.8243,144.982,97.6758,97.3014,-8.71381e-05,0.0686017,20.9658,95.4338,0.0346887,0.0,0.0
616,153.75,20.2541,21.3411,140.388,97.5454,97.1618,-0.00014621,0.0688492,20.9654,95.4538,0.0355918,0.0,0.0
627,156.5,19.8409,21.2254,143.329,97.4332,97.2691,-3.95806e-05,0.069015,20.964,95.4538,0.0152323,0.0,0.0
638,159.25,20.0743,21.2539,139.533,97.3127,97.3308,0.000301826,0.0691925,20.9643,95.4538,-0.00167671,0.0,0.0
649,162,19.809,20.8964,144.264,97.2267,97.2126,0.000343473,0.0691362,20.9655,95.4338,0.00130928,0.0,0.0
660,164.75,19.5472,20.5833,140.767,97.1554,96.8893,0.000263958,0.0691095,20.9664,95.4338,0.0247698,0.0,0.0
671,167.5,20.1838,20.9722,142.216,97.1482,97.1904,0.000305533,0.069043,20.9672,95.4338,-0.00392143,0.0,0.0
682,170.25,20.361,20.4307,143.885,97.1665,96.6206,0.000336644,0.0689667,20.9672,95.4438,0.0508895,0.0,0.0
693,173,20.5296,21.0935,143.161,97.2239,96.9322,0.000270948,0.0690657,20.9672,95.4538,0.0271437,0.0,0.0
704,175.75,20.1809,20.9495,148.11,97.3167,97.2062,0.000171876,0.0691135,20.9672,95.4638,0.0102602,0.0,0.0
715,178.5,20.2242,21.2097,143.061,97.4309,97.1867,0.000247787,0.0689906,20.9672,95.4438,0.0226691,0.0,0.0
726,181.25,19.9739,21.7385,141.94,97.5803,97.6033,0.000314421,0.0689911,20.9672,95.4438,-0.00212906,0.0,0.0
737,184,20.1464,21.1092,144.555,97.7436,97.7817,0.000223243,0.0687332,20.968,95.4538,-0.003518,0.0,0.0
748,186.75,19.9798,20.8321,144.407,97.9184,97.6327,0.00019147,0.0686918,20.969,95.4538,0.0264008,0.0,0.0
759,189.5,20.0494,21.5789,140.937,98.0857,98.3241,0.000205978,0.0686928,20.9703,95.4338,-0.021923,0.0,0.0
770,192.25,20.4739,21.3485,143.417,98.2669,97.7572,0.000264452,0.0686291,20.9698,95.4138,0.0469677,0.0,0.0
781,195,20.5063,21.0991,141.188,98.4302,97.994,0.000250517,0.0685197,20.9696,95.4338,0.0401179,0.0,0.0
792,197.75,19.9676,20.9986,139.64,98.6006,98.4099,0.000283613,0.0686446,20.9696,95.4338,0.0174916,0.0,0.0
803,200.5,20.1445,21.1496,143.377,98.7338,98.5984,0.000448975,0.0685442,20.969,95.4238,0.0123939,0.0,0.0
814,203.25,20.0688,21.5087,140.801,98.8496,98.9786,0.000561569,0.0683817,20.9688,95.4338,-0.0117807,0.0,0.0
825,206,19.5514,21.6421,141.653,98.9582,98.8401,0.000558971,0.0684194,20.9702,95.4038,0.0107873,0.0,0.0
836,208.75,20.0603,21.6187,144.09,99.0454,98.912,0.000436258,0.0683923,20.9707,95.3937,0.0121778,0.0,0.0
847,211.5,20.1782,21.3956,145.162,99.1029,99.1653,0.000141272,0.0685662,20.9709,95.3937,-0.00568506,0.0,0.0
858,214.25,20.1874,20.8954,141.114,99.1235,98.6541,-2.62347e-05,0.0689074,20.9688,95.4038,0.0428705,0.0,0.0
869,217,19.7519,20.6359,144.118,99.1116,98.6206,6.57943e-06,0.0691572,20.9674,95.3837,0.044855,0.0,0.0
880,219.75,20.042,21.6307,143.451,99.0727,98.6462,0.000107449,0.0693241,20.9669,95.3937,0.0389697,0.0,0.0
891,222.5,20.5247,21.2235,142.986,99.0184,98.3568,0.000235483,0.0694381,20.9668,95.3837,0.0605585,0.0,0.0
902,225.25,20.1585,21.1122,142.648,98.9392,98.032,0.000287721,0.0695672,20.9667,95.3937,0.0832022,0.0,0.0
913,228,20.6031,21.4277,143.6,98.8504,98.2676,0.000223908,0.0696657,20.9667,95.3937,0.0534097,0.0,0.0
924,230.75,20.4291,21.1128,144.05,98.7485,98.0196,0.000233411,0.0698254,20.9669,95.3937,0.0669235,0.0,0.0
935,233.5,20.8457,21.4474,142.984,98.6617,97.9323,0.000324447,0.0694949,20.9673,95.3937,0.0670293,0.0,0.0
946,236.25,20.1169,21.5917,141.212,98.5507,97.8129,0.000312091,0.0694979,20.9666,95.3737,0.0678726,0.0,0.0
957,239,20.296,21.0751,147.36,98.4595,97.9966,0.000175238,0.0694646,20.9675,95.3537,0.0425672,0.0,0.0
968,241.75,20.2475,21.3057,143.911,98.379,97.4418,6.87886e-05,0.0694262,20.9675,95.3637,0.0864631,0.0,0.0
979,244.5,20.0441,21.5324,143.925,98.3291,97.6127,4.66836e-05,0.0694246,20.9663,95.3537,0.0660502,0.0,0.0
990,247.25,20.0947,21.0831,143.316,98.5031,97.7817,8.92025e-05,0.0695075,20.9673,95.3537,0.0663976,0.0,0.0
1001,250,20.1274,21.4554,139.811,98.6633,98.0715,0.000129982,0.0696165,20.9662,95.3537,0.0543388,0.0,0.0
1012,252.75,20.8623,21.5655,145.955,98.777,98.5913,2.29214e-05,0.0697565,20.9662,95.3537,0.0170015,0.0,0.0
1023,255.5,20.9109,21.6277,142.274,98.8472,97.942,3.97505e-05,0.069841,20.9663,95.3437,0.0830944,0.0,0.0
1034,258.25,19.6159,21.684,143.851,98.8789,97.7158,0.000285853,0.0698752,20.965,95.3537,0.106878,0.0,0.0
1045,261,19.9138,21.7767,144.127,98.8876,97.7636,0.000472992,0.0699047,20.9634,95.3337,0.103257,0.0,0.0
1056,263.75,20.4133,21.3516,143.546,98.8595,97.7384,0.000538151,0.0700228,20.9623,95.3237,0.103016,0.0,0.0
1067,266.5,19.6153,21.6952,145.363,98.7961,97.8833,0.000542171,0.0703232,20.962,95.3137,0.083837,0.0,0.0
1078,269.25,20.3813,21.5045,138.611,98.7077,97.3654,0.00049336,0.0702408,20.9619,95.3137,0.12367,0.0,0.0
1089,272,20.0798,21.7866,139.419,98.5737,97.318,0.000443574,0.0700831,20.9628,95.3037,0.115801,0.0,0.0
1100,274.75,19.9895,21.125,143.858,98.4187,97.6199,0.000371114,0.0698355,20.9637,95.2937,0.0736141,0.0,0.0
1111,277.5,19.9058,21.0293,143.529,98.213,96.592,0.000474966,0.0697106,20.964,95.2736,0.150327,0.0,0.0
1122,280.25,20.1005,21.7174,139.98,98.0421,96.6149,0.000637946,0.0695126,20.9659,95.2636,0.132453,0.0,0.0
1133,283,20.2256,21.426,142.091,98.0508,97.149,0.00064778,0.0695711,20.9674,95.2636,0.0834614,0.0,0.0
1144,285.75,20.1459,21.895,140.417,98.096,96.8257,0.000595906,0.0694601,20.9678,95.2736,0.117735,0.0,0.0
1155,288.5,19.5986,21.2207,146.389,98.1432,97.2807,0.000598004,0.0694738,20.9679,95.2636,0.0797266,0.0,0.0
1166,291.25,20.4144,21.9707,143.599,98.1757,96.8024,0.000531627,0.069612,20.968,95.2436,0.127246,0.0,0.0
1177,294,20.587,21.4448,146.533,98.211,96.3127,0.000358148,0.06973,20.968,95.2436,0.176299,0.0,0.0
1188,296.75,20.2973,21.5963,143.86,98.2641,97.0128,0.000339905,0.0697705,20.968,95.2336,0.115764,0.0,0.0
1199,299.5,20.4814,20.927,141.018,98.3113,96.9127,0.000442857,0.0698776,20.968,95.2336,0.129426,0.0,0.0
1210,302.25,19.8666,21.475,142.864,98.3584,96.4994,0.000415375,0.0699514,20.968,95.2136,0.172359,0.0,0.0
1221,305,20.8718,21.8143,141.229,98.4032,96.6319,0.000387307,0.0700056,20.9681,95.2236,0.164079,0.0,0.0
1232,307.75,20.3748,21.6223,140.053,98.431,96.7975,0.000349607,0.0701254,20.9672,95.2136,0.151159,0.0,0.0
1243,310.5,20.6698,21.5729,143.256,98.4607,96.8336,0.000354045,0.0705375,20.9665,95.1836,0.150515,0.0,0.0
1254,313.25,20.1697,21.2564,141.989,98.452,96.9224,0.000478589,0.0706725,20.9663,95.1836,0.141433,0.0,0.0
1265,316,19.7043,21.4172,140.051,98.4238,96.8208,0.000701489,0.0707034,20.9661,95.1736,0.148327,0.0,0.0
1276,318.75,20.1004,21.9536,139.562,98.3842,96.5506,0.000914484,0.0707457,20.9656,95.1535,0.169935,0.0,0.0
1287,321.5,20.799,21.7777,138.966,98.3041,96.312,0.000945572,0.0708129,20.9654,95.1535,0.184932,0.0,0.0
1298,324.25,19.9885,21.756,143.848,98.2363,96.4249,0.000786883,0.0706638,20.9653,95.1335,0.168118,0.0,0.0
1309,327,20.542,21.2953,143.661,98.1436,96.0929,0.000659018,0.0707074,20.9661,95.1435,0.190736,0.0,0.0
1320,329.75,20.5802,21.4365,142.101,98.054,96.0594,0.000628985,0.0707482,20.9672,95.1035,0.185636,0.0,0.0
1331,332.5,20.7284,21.68,139.771,97.9331,96.1479,0.000726332,0.070656,20.9675,95.0935,0.166179,0.0,0.0
1342,335.25,20.5782,21.5981,141.631,97.834,95.9179,0.000902017,0.0707491,20.9676,95.1235,0.178664,0.0,0.0
1353,338,20.3097,21.6115,140.549,97.7155,95.5927,0.000938138,0.0706367,20.9676,95.1035,0.198391,0.0,0.0
1364,340.75,20.6423,21.5819,142.754,97.595,95.636,0.00097134,0.0709244,20.9676,95.0735,0.183155,0.0,0.0
1375,343.5,20.5999,21.7166,141.351,97.4828,95.7067,0.000861685,0.0708413,20.9676,95.0735,0.166086,0.0,0.0
1386,346.25,19.8926,21.6492,141.658,97.3789,95.2005,0.000723748,0.0708566,20.9667,95.0535,0.204361,0.0,0.0
1397,349,20.0943,21.2736,142.087,97.3008,95.5321,0.000786262,0.0710513,20.9669,95.0334,0.165708,0.0,0.0
1408,351.75,19.8401,21.659,146.311,97.2231,95.0838,0.00104199,0.0711847,20.9658,95.0434,0.200977,0.0,0.0
1419,354.5,20.1126,21.3827,139.832,97.1649,94.7236,0.00111657,0.0714361,20.9653,95.0535,0.229843,0.0,0.0
1430,357.25,20.2987,21.4508,147.412,97.1252,95.2178,0.00111575,0.0716497,20.9654,95.0535,0.179156,0.0,0.0
1441,360,20.4515,21.0807,139.102,97.1181,94.6679,0.00104061,0.0725616,20.9642,95.0334,0.230808,0.0,0.0
1452,362.75,20.4848,21.2336,142.986,97.1546,94.6819,0.00104822,0.0738357,20.9625,94.9934,0.23287,0.0,0.0
1463,365.5,20.1967,21.7381,141.459,97.2053,94.7929,0.00109258,0.0750607,20.9619,94.9834,0.227,0.0,0.0
1474,368.25,20.3652,22.0488,143.695,97.2858,95.1467,0.00110005,0.0756968,20.9608,94.9534,0.200824,0.0,0.0
1485,371,20.4537,21.8674,139.317,97.4091,94.7267,0.00118737,0.0768749,20.9578,94.9133,0.252227,0.0,0.0
1496,373.75,20.6696,21.7803,141.456,97.5529,95.5904,0.00128483,0.0788519,20.9552,94.8733,0.183567,0.0,0.0
1507,376.5,20.0133,21.6744,140.224,97.7028,95.2619,0.00131026,0.0816504,20.9504,94.8533,0.228533,0.0,0.0
1518,379.25,20.1703,21.4945,140.073,97.8744,96.0895,0.00142401,0.0875598,20.9435,94.8533,0.166249,0.0,0.0
1529,382,20.6001,21.8087,133.442,98.0389,91.1729,0.00216595,0.103499,20.9068,94.7632,0.655837,0.0,1.0
1540,384.75,21.4672,23.3893,130.702,98.2264,84.7346,0.00364393,0.142088,20.8306,94.553,1.33459,0.0,1.0
1551,387.5,22.0847,24.1429,130.696,98.3878,82.1437,0.00605689,0.202299,20.7251,94.3829,1.62993,0.0,0.0
1562,390.25,23.7829,26.1039,128.533,98.5523,77.425,0.00816154,0.27711,20.613,94.0325,2.17939,0.0,0.0
1573,393,26.6079,29.6522,124.838,98.693,75.0098,0.0101156,0.357834,20.5056,93.7323,2.47853,0.0,0.0
1584,395.75,28.879,32.7309,126.184,98.8115,71.3368,0.0122095,0.433185,20.4091,93.2919,2.94288,0.0,0.0
1595,398.5,31.1435,35.5602,124.141,98.9086,70.6123,0.014227,0.511661,20.3096,92.8515,3.04396,0.0,0.0
1606,401.25,35.0248,40.0731,122.61,99.0093,70.3815,0.0159442,0.586167,20.2299,92.3711,3.08272,0.0,0.0
1617,404,36.5375,42.4272,118.197,99.0676,68.7029,0.0174221,0.65367,20.1433,91.8506,3.30608,0.0,0.0
1628,406.75,38.8231,45.5652,117.06,99.1132,68.6848,0.018736,0.715124,20.0865,91.3002,3.31261,0.0,0.0
1639,409.5,43.2997,50.8437,112.459,99.133,65.3938,0.0202582,0.774675,20.018,90.7397,3.75793,0.0,0.0
1650,412.25,44.5174,53.059,113.707,99.1152,64.7257,0.0225506,0.836186,19.938,90.0791,3.84906,0.0,0.0
1661,415,47.2823,56.7733,109.055,99.0827,62.2225,0.0265063,0.924348,19.8065,89.3785,4.20237,0.0,0.0
1672,417.75,50.2667,60.9626,105.207,99.028,58.6849,0.0314718,1.04806,19.6358,88.5377,4.7261,0.0,0.0
1683,420.5,54.69,66.8278,107.274,98.9487,59.228,0.0360395,1.192,19.4701,87.677,4.63566,0.0,0.0
1694,423.25,58.4816,71.8933,107.91,98.8694,60.5111,0.0381113,1.28712,19.4026,86.8763,4.43483,0.0,0.0
1705,426,60.927,75.3632,113.549,98.7715,61.5687,0.0379987,1.31304,19.4396,86.1256,4.26937,0.0,0.0
1716,428.75,63.3944,78.3468,111.822,98.6815,63.8556,0.0373102,1.31474,19.4657,85.3349,3.93171,0.0,0.0
1727,431.5,65.0662,80.3454,114.777,98.5776,62.5093,0.0367981,1.31282,19.4847,84.5943,4.11468,0.0,0.0
1738,434.25,66.5935,82.6795,108.55,98.4841,57.1655,0.0368656,1.30572,19.507,83.8236,4.91331,0.0,0.0
1749,437,68.0757,84.5178,115.164,98.4076,60.1746,0.0367522,1.28485,19.5591,83.133,4.44291,0.0,0.0
1760,439.75,68.6238,85.2879,115.631,98.3465,62.5303,0.0363318,1.25214,19.6083,82.4424,4.09043,0.0,0.0
1771,442.5,69.4542,86.1575,112.823,98.4904,63.0847,0.034908,1.22383,19.6422,81.7518,4.02391,0.0,0.0
1782,445.25,69.7312,86.8085,114.014,98.6565,64.9726,0.032557,1.19717,19.6752,81.1112,3.77277,0.0,0.0
1793,448,70.4645,87.747,111.069,98.7869,63.2296,0.030143,1.16469,19.7237,80.5207,4.03033,0.0,0.0
1804,450.75,70.5585,87.6652,115.477,98.8603,65.4819,0.0278284,1.12862,19.773,79.9702,3.72089,0.0,0.0
1815,453.5,70.3973,87.2384,116.536,98.8963,63.9959,0.0264421,1.09047,19.8157,79.3697,3.93152,0.0,0.0
1826,456.25,70.3185,87.168,116.248,98.9086,65.7179,0.0258664,1.06856,19.8351,78.7892,3.69281,0.0,0.0
1837,459,71.0769,87.8551,118.744,98.8737,65.1913,0.0258456,1.04858,19.8573,78.1986,3.76229,0.0,0.0
1848,461.75,71.1908,87.6196,112.138,98.7937,63.8371,0.0258135,1.02961,19.8739,77.6382,3.94458,0.0,0.0
1859,464.5,70.8219,87.1802,117.441,98.6656,65.696,0.0256496,1.01391,19.8852,77.1277,3.67359,0.0,0.0
1870,467.25,70.7714,87.06,114.251,98.5237,68.8753,0.0245134,0.992573,19.9205,76.5872,3.23372,0.0,0.0
1881,470,70.7752,86.5833,115.82,98.322,66.5105,0.0233759,0.961591,19.9652,76.0368,3.53078,0.0,0.0
1892,472.75,70.6464,86.4174,120.433,98.0853,66.3506,0.0228455,0.938978,19.9865,75.5563,3.53076,0.0,0.0
1903,475.5,69.7944,85.4981,122.257,98.0917,65.1657,0.0227548,0.922714,19.9979,75.0059,3.69411,0.0,0.0
1914,478.25,70.488,85.5141,120.767,98.14,65.8575,0.0227977,0.912009,20.0047,74.5154,3.60317,0.0,0.0
1925,481,69.8735,85.112,119.889,98.1919,66.104,0.0226988,0.90394,20.0088,74.025,3.5742,0.0,0.0
1936,483.75,69.6549,84.7975,120.139,98.2328,66.806,0.0224882,0.89794,20.0124,73.4645,3.48255,0.0,0.0
1947,486.5,69.7818,84.4195,117.01,98.2835,65.8146,0.0226979,0.889453,20.0226,72.9841,3.62226,0.0,0.0
1958,489.25,68.9073,83.3784,116.705,98.3235,65.5835,0.0231935,0.883732,20.0314,72.4336,3.65771,0.0,0.0
1969,492,69.8965,84.2142,118.282,98.3636,63.5913,0.0230864,0.883421,20.0306,71.9031,3.94002,0.0,0.0
1980,494.75,69.3817,83.6196,122.613,98.3862,63.7882,0.0225527,0.881353,20.0328,71.4427,3.91417,0.0,0.0
1991,497.5,69.4943,83.2657,112.717,98.4187,65.4631,0.0217247,0.874871,20.0423,70.9123,3.68305,0.0,0.0
2002,500.25,67.8864,81.874,115.694,98.448,69.6032,0.0203334,0.862274,20.0673,70.4018,3.13181,0.0,0.0
2013,503,69.0659,82.3746,119.053,98.4445,69.4011,0.0191929,0.842285,20.0996,69.9614,3.15775,0.0,0.0
2024,505.75,68.9512,82.1688,121.346,98.4429,67.1293,0.0183898,0.8205,20.1266,69.521,3.45824,0.0,0.0
2035,508.5,68.0248,81.2436,121.581,98.4088,70.5453,0.0178287,0.79924,20.153,69.1107,3.00677,0.0,0.0
2046,511.25,67.6455,80.6339,124.154,98.3537,71.2882,0.0172771,0.77393,20.1827,68.6803,2.90708,0.0,0.0
2057,514,67.171,79.643,121.303,98.2966,69.8768,0.0165883,0.75052,20.2114,68.2699,3.08247,0.0,0.0
2068,516.75,66.9256,79.1762,117.971,98.2161,70.5565,0.0159633,0.729171,20.2322,67.8796,2.98763,0.0,0.0
2079,519.5,65.5876,77.5438,124.825,98.1345,72.5386,0.0157223,0.707171,20.2605,67.5193,2.72988,0.0,0.0
2090,522.25,65.6308,77.4246,120.639,98.0227,73.4415,0.0156535,0.685664,20.2872,67.179,2.60784,0.0,0.0
2101,525,65.4102,76.6514,122.725,97.9165,73.9518,0.0152149,0.668778,20.2997,66.7786,2.53549,0.0,0.0
2112,527.75,64.3192,75.0287,126.392,97.8142,73.5984,0.0143631,0.653583,20.3152,66.4583,2.56932,0.0,0.0
2123,530.5,64.1702,74.219,123.158,97.685,72.5766,0.013754,0.639847,20.3272,66.1281,2.68367,0.0,0.0
2134,533.25,63.4067,73.7983,126.127,97.5736,73.0651,0.0135012,0.629849,20.3349,65.7477,2.61277,0.0,0.0
2145,536,62.8823,73.0166,123.155,97.4646,74.5552,0.0134173,0.622552,20.3408,65.3874,2.42032,0.0,0.0
2156,538.75,62.5057,72.2666,123.868,97.3528,74.2435,0.013317,0.615397,20.3466,65.0271,2.44778,0.0,0.0
2167,541.5,62.7234,72.2641,123.738,97.2564,73.4599,0.0133142,0.608954,20.3532,64.7068,2.53469,0.0,0.0
2178,544.25,61.9232,71.2248,126.451,97.1978,74.6703,0.0134901,0.603283,20.3588,64.3765,2.38161,0.0,0.0
2189,547,62.449,71.7601,119.628,97.1328,75.2003,0.0134914,0.596041,20.3667,64.0262,2.31169,0.0,0.0
2200,549.75,61.1952,70.0446,123.963,97.0935,73.7279,0.0132825,0.588693,20.3751,63.736,2.48665,0.0,0.0
2211,552.5,60.6898,69.5447,122.89,97.0824,74.9628,0.0130371,0.582611,20.379,63.4157,2.33558,0.0,0.0
2222,555.25,61.1479,69.9246,126.264,97.0987,71.8641,0.012939,0.579236,20.3802,63.0554,2.71841,0.0,0.0
2233,558,60.0941,68.4287,123.889,97.1415,70.6578,0.0130148,0.577691,20.3823,62.7251,2.8753,0.0,0.0
2244,560.75,60.3548,68.5386,124.112,97.1922,73.8058,0.0130018,0.578059,20.3789,62.3848,2.48629,0.0,0.0
2255,563.5,60.4916,68.4306,120.247,97.2735,73.953,0.0130913,0.581617,20.3703,62.0745,2.47585,0.0,0.0
2266,566.25,59.9355,68.1858,126.912,97.3698,70.6815,0.01346,0.587196,20.36,61.7042,2.89347,0.0,0.0
2277,569,60.5758,68.2814,120.318,97.4975,70.9262,0.0138563,0.591206,20.3543,61.3238,2.8741,0.0,0.0
2288,571.75,60.0187,68.2037,124.579,97.6382,70.4297,0.0139918,0.596566,20.3455,60.9435,2.95057,0.0,0.0
2299,574.5,60.3614,68.0584,125.684,97.7793,71.3481,0.0139122,0.602358,20.3372,60.6332,2.8466,0.0,0.0
2310,577.25,60.3139,67.8072,124.06,97.9276,71.8803,0.013957,0.605865,20.3329,60.2029,2.79316,0.0,0.0
2321,580,60.0691,67.9865,123.096,98.0889,72.8344,0.0141528,0.612324,20.3272,59.8926,2.68892,0.0,0.0
2332,582.75,60.6285,68.2987,125.938,98.2395,71.359,0.0144375,0.616389,20.3232,59.4622,2.88763,0.0,0.0
2343,585.5,60.7867,68.1618,120.523,98.3854,74.7945,0.0145626,0.618867,20.3242,59.1619,2.4763,0.0,0.0
2354,588.25,60.5047,68.1849,124.187,98.5126,73.1859,0.014329,0.61731,20.3291,58.7516,2.68436,0.0,0.0
2365,591,60.4697,68.2508,125.608,98.6518,74.5819,0.0136717,0.615107,20.3335,58.3913,2.52644,0.0,0.0
2376,593.75,60.409,67.6461,123.323,98.7663,72.9127,0.0132734,0.609551,20.3435,58.071,2.74138,0.0,0.0
2387,596.5,60.634,67.8787,124.731,98.871,74.8856,0.0131901,0.601951,20.3546,57.7407,2.50978,0.0,0.0
2398,599.25,60.8473,68.1635,120.458,98.9542,76.8477,0.0129694,0.594064,20.364,57.3804,2.28376,0.0,0.0
2409,602,60.4598,67.5186,125.343,99.005,75.6508,0.0126955,0.587329,20.3713,57.0701,2.43018,0.0,0.0
2420,604.75,60.3594,67.1422,127.323,99.041,76.8093,0.0124447,0.581085,20.3776,56.7598,2.2962,0.0,0.0
2431,607.5,60.3478,67.1543,123.864,99.0914,75.6365,0.012258,0.572998,20.3894,56.4496,2.43977,0.0,0.0
2442,610.25,60.0553,67.0632,120.436,99.1009,78.4898,0.0122615,0.56514,20.4003,56.1393,2.10616,0.0,0.0
2453,613,59.8633,66.9479,121.303,99.1112,78.5271,0.0121838,0.557665,20.4072,55.799,2.10281,0.0,0.0
2464,615.75,59.4382,66.4971,120.269,99.1049,78.1206,0.0120011,0.551236,20.4127,55.5087,2.14911,0.0,0.0
2475,618.5,59.8193,66.1702,121.613,99.093,77.9956,0.0120478,0.548267,20.4132,55.2285,2.16249,0.0,0.0
2486,621.25,59.312,65.9722,125.187,99.0731,80.3205,0.0119552,0.546507,20.4128,54.8982,1.89537,0.0,0.0
2497,624,58.8782,65.6056,123.434,99.0422,75.4991,0.0117296,0.546468,20.4069,54.5679,2.45171,0.0,0.0
2508,626.75,59.0982,65.8838,126.981,99.0081,76.4013,0.012186,0.551508,20.3971,54.2777,2.34131,0.0,0.0
2519,629.5,59.3093,66.2015,127.177,98.9701,74.5793,0.0129746,0.562206,20.3789,53.8973,2.55586,0.0,0.0
2530,632.25,59.1194,65.635,125.98,98.9162,72.0037,0.0137729,0.57694,20.3514,53.527,2.86839,0.0,0.0
2541,635,59.8741,66.3423,120.896,98.8559,68.689,0.0151595,0.604361,20.309,53.1066,3.28859,0.0,0.0
2552,637.75,60.5211,67.0911,119.272,98.8091,66.2677,0.0168704,0.63977,20.2443,52.6462,3.60846,0.0,0.0
2563,640.5,61.1765,67.8009,116.39,98.7461,67.2697,0.0185049,0.688451,20.1747,52.0857,3.46715,0.0,0.0
2574,643.25,62.4915,69.7489,111.674,98.6799,67.4119,0.0196927,0.732011,20.1281,51.6253,3.44201,0.0,0.0
2585,646,63.328,70.8013,114.656,98.6264,66.1548,0.0201824,0.765524,20.0966,51.1049,3.60714,0.0,0.0
2596,648.75,64.5525,72.4319,118.632,98.5638,66.7695,0.0206362,0.785116,20.0846,50.5944,3.51787,0.0,0.0
2607,651.5,64.3937,72.0122,117.755,98.5031,66.1153,0.0214147,0.79566,20.0854,50.124,3.60124,0.0,0.0
2618,654.25,65.6707,73.7339,115.1,98.4615,66.4394,0.0219715,0.805588,20.0829,49.6336,3.55326,0.0,0.0
2629,657,65.6478,73.6713,116.334,98.4052,69.24,0.0219229,0.813351,20.0822,49.1331,3.17514,0.0,0.0
2640,659.75,66.3643,75.0237,116.105,98.366,72.1117,0.0212498,0.816906,20.0835,48.6427,2.80446,0.0,0.0
2651,662.5,66.6865,75.6197,120.2,98.3358,71.8727,0.0202624,0.814075,20.0939,48.2023,2.83168,0.0,0.0
2662,665.25,67.1454,75.6488,115.313,98.4187,70.0627,0.0192099,0.79896,20.1304,47.7519,3.06968,0.0,0.0
2673,668,66.9931,76.001,121.28,98.5368,75.6576,0.0180987,0.774131,20.1709,47.3416,2.38656,0.0,0.0
2684,670.75,67.4738,75.9345,119.129,98.628,74.6997,0.0169436,0.749162,20.199,46.9812,2.51001,0.0,0.0
2695,673.5,67.177,76.1409,117.497,98.7199,73.4046,0.0158816,0.723494,20.2358,46.5709,2.6764,0.0,0.0
2706,676.25,67.0544,75.9362,122.178,98.7905,74.7889,0.0154796,0.698366,20.2658,46.2206,2.5141,0.0,0.0
2717,679,66.6751,74.9455,128.268,98.8432,74.2029,0.0152207,0.672908,20.3011,45.8903,2.58997,0.0,0.0
2728,681.75,65.6467,73.8241,124.907,98.8741,76.3494,0.0144685,0.64283,20.3421,45.56,2.33522,0.0,0.0
2739,684.5,65.3087,73.0157,124.863,98.9059,76.4002,0.0132538,0.617263,20.3689,45.2297,2.3321,0.0,0.0
2750,687.25,64.2612,71.8945,125.89,98.9126,77.5519,0.0120145,0.59452,20.3957,44.9294,2.19757,0.0,0.0
2761,690,63.5656,71.1341,126.968,98.913,79.6103,0.0113117,0.574536,20.4175,44.6292,1.96098,0.0,0.0
2772,692.75,62.8899,70.1524,122.657,98.9067,78.6494,0.0110374,0.556222,20.4353,44.3489,2.07009,0.0,0.0
2783,695.5,61.8261,69.4077,124.23,98.8837,79.0487,0.0106332,0.53636,20.4576,44.0787,2.02224,0.0,0.0
2794,698.25,61.3017,68.3735,129.129,98.8757,80.1157,0.00969796,0.51716,20.4803,43.8085,1.90041,0.0,0.0
2805,701,61.5748,67.6794,126.813,98.8531,80.0062,0.00906286,0.497482,20.507,43.5682,1.9107,0.0,0.0
2816,703.75,59.7825,66.2578,126.139,98.8405,81.3559,0.00906355,0.480517,20.5235,43.3481,1.75843,0.0,0.0
2827,706.5,60.0706,65.5802,124.241,98.808,81.4357,0.00913077,0.466809,20.5372,43.1179,1.74661,0.0,0.0
2838,709.25,59.2762,65.1703,130.101,98.7687,80.7605,0.00902082,0.454093,20.5485,42.8476,1.81823,0.0,0.0
2849,712,58.4414,63.9701,131.777,98.7386,79.9053,0.00870926,0.44446,20.5558,42.6074,1.91162,0.0,0.0
2860,714.75,58.2678,63.6073,129.594,98.6827,81.9999,0.00848862,0.43662,20.5619,42.3972,1.67279,0.0,0.0
2871,717.5,57.4031,62.3051,125.369,98.6391,81.4263,0.00841622,0.431326,20.5645,42.147,1.7322,0.0,0.0
2882,720.25,56.7203,62.0633,125.655,98.5856,81.7914,0.00828857,0.429931,20.5628,41.9268,1.68689,0.0,0.0
2893,723,56.4249,61.2671,128.826,98.5554,81.0006,0.00817655,0.428927,20.5625,41.6866,1.77188,0.0,0.0
2904,725.75,56.5238,61.032,126.394,98.5035,82.3992,0.00823687,0.426271,20.565,41.4664,1.61249,0.0,0.0
2915,728.5,56.0674,60.0487,131.705,98.4583,82.246,0.00815523,0.422184,20.5711,41.2462,1.62515,0.0,0.0
2926,731.25,55.4347,60.216,129.859,98.4016,83.8611,0.00780679,0.416686,20.5791,41.026,1.4443,0.0,0.0
2937,734,54.5829,58.8945,125.426,98.3652,82.1896,0.00755142,0.412468,20.5831,40.8459,1.6228,0.0,0.0
2948,736.75,54.5419,59.1982,125.872,98.3668,81.9788,0.00746175,0.40833,20.5861,40.6056,1.64614,0.0,0.0
2959,739.5,54.7639,58.7876,126.413,98.3513,83.3036,0.00754258,0.404275,20.5899,40.3955,1.49991,0.0,0.0
2970,742.25,53.583,57.4403,131.573,98.3378,82.9292,0.00742786,0.400736,20.5921,40.1352,1.53938,0.0,0.0
2981,745,53.3527,57.2215,125.295,98.3279,82.6996,0.0072268,0.397258,20.5951,39.9351,1.56351,0.0,0.0
2992,747.75,53.175,56.8839,127.012,98.297,82.5878,0.00707729,0.393664,20.599,39.7249,1.57288,0.0,0.0
3003,750.5,52.9161,56.3513,131.135,98.2946,84.0673,0.00691958,0.389291,20.6043,39.5147,1.41228,0.0,0.0
3014,753.25,52.7244,56.2443,132.214,98.2922,84.3839,0.00696818,0.384912,20.6096,39.3445,1.37811,0.0,0.0
3025,756,52.2587,55.9606,133.332,98.3188,84.6929,0.00694541,0.380184,20.6143,39.1043,1.34754,0.0,0.0
3036,758.75,52.5846,56.0857,133.955,98.337,84.0575,0.00658686,0.37711,20.6174,38.9342,1.41723,0.0,0.0
3047,761.5,51.6841,55.0527,128.041,98.343,82.8765,0.00620138,0.375598,20.6171,38.724,1.54559,0.0,0.0
3058,764.25,52.171,55.5459,128.521,98.3707,83.4083,0.00615569,0.375364,20.6188,38.5538,1.49036,0.0,0.0
3069,767,51.1476,54.477,128.658,98.4056,84.0191,0.00650882,0.374246,20.6224,38.3437,1.42765,0.0,0.0
3080,769.75,51.5287,54.678,127.555,98.4417,84.108,0.00679609,0.371159,20.627,38.1735,1.42142,0.0,0.0
3091,772.5,51.0329,54.0815,128.816,98.4829,85.1227,0.00668212,0.366661,20.634,37.9833,1.31688,0.0,0.0
3102,775.25,51.3482,54.2117,130.949,98.5439,84.6059,0.00638975,0.363178,20.6377,37.7632,1.37748,0.0,0.0
3113,778,50.6463,53.4787,125.853,98.6002,85.9609,0.00630635,0.360057,20.641,37.593,1.23912,0.0,0.0
3124,780.75,50.5811,53.1361,129.973,98.6549,85.507,0.00642587,0.356648,20.6448,37.4229,1.29196,0.0,0.0
3135,783.5,50.2945,53.16,133.631,98.7144,87.0399,0.00648873,0.352918,20.651,37.2427,1.13689,0.0,0.0
3146,786.25,49.9138,52.9064,129.532,98.7624,86.236,0.00638011,0.347957,20.6577,37.0425,1.2251,0.0,0.0
3157,789,49.5022,52.5224,127.911,98.821,87.2198,0.00640065,0.342911,20.6623,36.8624,1.12799,0.0,0.0
3168,791.75,50.1294,52.629,130.351,98.8658,87.2338,0.00639756,0.336096,20.6741,36.6622,1.13065,0.0,0.0
3179,794.5,49.6639,52.3016,131.101,98.8944,87.9165,0.00635692,0.329396,20.6818,36.462,1.06283,0.0,0.0
3190,797.25,48.7328,50.7896,132.305,98.9067,87.9564,0.00624087,0.324486,20.6871,36.3419,1.05986,0.0,0.0
3201,800,48.6493,51.0776,132.44,98.9015,87.9357,0.00610676,0.319861,20.6913,36.1918,1.06151,0.0,0.0
3212,802.75,47.9191,50.1518,132.538,98.8837,88.1965,0.00605634,0.315575,20.6967,36.0416,1.03313,0.0,0.0
3223,805.5,48.3191,50.5671,131.94,98.8468,87.629,0.00613103,0.311187,20.7014,35.8615,1.08808,0.0,0.0
3234,808.25,48.2172,50.4631,130.972,98.7481,87.9922,0.00610137,0.307073,20.7049,35.7214,1.04169,0.0,0.0
3245,811,47.894,49.7605,133.558,98.6125,88.4815,0.00589249,0.304555,20.7065,35.5512,0.979197,0.0,0.0
3256,813.75,47.8566,50.1045,128.048,98.433,87.7027,0.00576845,0.301951,20.7094,35.4011,1.04258,0.0,0.0
3267,816.5,47.5644,49.7356,131.147,98.345,89.3546,0.00572764,0.298679,20.7131,35.291,0.86595,0.0,0.0
3278,819.25,46.9034,48.8746,135.716,98.4413,88.8774,0.00566788,0.296003,20.7147,35.1308,0.923167,0.0,0.0
3289,822,46.3544,48.5395,131.512,98.5495,88.3238,0.00552243,0.293542,20.7171,34.9507,0.989534,0.0,0.0
3300,824.75,46.6772,48.6266,127.939,98.6974,89.043,0.0053039,0.290714,20.721,34.8006,0.929818,0.0,0.0
3311,827.5,45.9991,48.1845,131.278,98.8254,89.7348,0.00524338,0.28749,20.7237,34.6804,0.871623,0.0,0.0
3322,830.25,45.8138,47.8454,131.537,98.9701,89.5406,0.00547364,0.284925,20.7255,34.5203,0.904408,0.0,0.0
3333,833,46.5537,48.3567,128.207,99.0573,89.4194,0.0056841,0.282098,20.7299,34.4202,0.924597,0.0,0.0
3344,835.75,45.5893,47.7164,132.604,99.1009,90.818,0.00573832,0.279144,20.7329,34.2901,0.788385,0.0,0.0
3355,838.5,45.6486,47.635,131.726,99.0775,91.5813,0.00571615,0.276284,20.7361,34.14,0.710654,0.0,0.0
3366,841.25,45.66,47.4995,135.303,99.0125,90.2233,0.00558831,0.273465,20.7416,34.0199,0.839665,0.0,0.0
3377,844,44.7047,46.4139,138.169,98.8777,91.1357,0.00534888,0.2702,20.7455,33.8898,0.736481,0.0,0.0
3388,846.75,45.0523,46.3448,134.197,98.6942,89.646,0.00518784,0.266932,20.7496,33.7696,0.868568,0.0,0.0
3399,849.5,44.2691,45.8366,130.614,98.452,90.1763,0.00522362,0.263969,20.7526,33.6295,0.793097,0.0,0.0
3410,852.25,44.4317,45.9426,136.706,98.1686,91.0517,0.00520816,0.261814,20.7535,33.5094,0.679787,0.0,0.0
3421,855,44.2663,45.7242,133.035,97.897,91.1917,0.00505542,0.260656,20.755,33.3693,0.640889,0.0,0.0
3432,857.75,44.5518,46.0196,137.667,97.5748,91.334,0.00497852,0.259598,20.7565,33.2492,0.597024,0.0,0.0
3443,860.5,44.0117,45.5186,135.827,97.323,89.7182,0.00486689,0.258339,20.758,33.1291,0.73492,0.0,0.0
3454,863.25,43.8392,45.296,134.092,97.149,90.4661,0.00460457,0.25699,20.7593,33.019,0.643772,0.0,0.0
3465,866,43.8732,44.971,133.749,97.0741,90.8737,0.00436818,0.255812,20.7609,32.8889,0.596196,0.0,0.0
3476,868.75,42.6996,44.2611,132.305,97.0884,91.4725,0.00435624,0.254546,20.7629,32.7688,0.538198,0.0,0.0
3487,871.5,43.0833,44.5939,132.703,97.214,91.617,0.00438622,0.253221,20.7641,32.6587,0.53562,0.0,0.0
3498,874.25,43.0591,44.263,129.854,97.398,91.2663,0.00434022,0.252534,20.7644,32.5586,0.587345,0.0,0.0
3509,877,43.2282,44.8119,133.232,97.6235,91.6389,0.00413342,0.252171,20.7645,32.4085,0.571436,0.0,0.0
3520,879.75,42.6687,44.0492,132.959,97.8895,92.0375,0.004022,0.251488,20.7646,32.2783,0.55681,0.0,0.0
3531,882.5,42.5583,44.2184,132.901,98.1444,92.7861,0.00413681,0.250698,20.7654,32.2083,0.507127,0.0,0.0
3542,885.25,42.5703,44.2245,136.316,98.3148,93.6536,0.00400881,0.249486,20.7664,32.0882,0.438737,0.0,0.0
3553,888,42.5366,43.7634,136.328,98.4135,93.3378,0.00398242,0.247935,20.7692,31.9581,0.478309,0.0,0.0
3564,890.75,42.4734,44.0934,132.394,98.406,92.3446,0.00415766,0.246,20.7719,31.848,0.574255,0.0,0.0
3575,893.5,42.0551,43.8584,135.729,98.3576,92.707,0.00428431,0.244747,20.7733,31.7479,0.534431,0.0,0.0
3586,896.25,42.1781,43.4483,134.602,98.2669,92.937,0.00421375,0.243941,20.7737,31.6378,0.503712,0.0,0.0
3597,899,41.5705,43.1651,137.011,98.1551,93.6205,0.00413099,0.244058,20.7732,31.4776,0.427243,0.0,0.0
3608,901.75,41.7043,43.4859,135.156,98.0706,92.7119,0.00420702,0.244636,20.7721,31.3675,0.507559,0.0,0.0
3619,904.5,41.6684,43.5226,135.407,98.3644,93.2422,0.00421916,0.244817,20.7722,31.2474,0.483052,0.0,0.0
3630,907.25,41.6589,43.056,133.42,98.7231,93.4681,0.00421978,0.244739,20.7722,31.1473,0.494086,0.0,0.0
3641,910,41.3273,42.4601,136.032,98.8848,93.1338,0.0042701,0.244671,20.7722,31.0072,0.541228,0.0,0.0
3652,912.75,41.5211,42.8366,136.3125,98.8381,93.1941,0.0042922,0.244062,20.7738,30.9272,0.531115,0.0,0.0
3663,915.5,41.6636,42.5554,129.832,98.5864,93.7379,0.00425235,0.242868,20.7762,30.8371,0.455522,0.0,0.0
3674,918.25,41.5386,42.7099,136.886,98.3695,94.1388,0.00418952,0.240654,20.7795,30.717,0.397089,0.0,0.0
3685,921,40.8699,42.3347,137.85,98.5618,93.013,0.00420046,0.238374,20.7825,30.5869,0.523394,0.0,0.0
3696,923.75,41.2276,42.3606,134.283,98.7957,94.3755,0.00416141,0.236208,20.785,30.5068,0.413448,0.0,0.0
3707,926.5,40.9653,42.2352,138.424,98.9879,94.6672,0.00400777,0.234412,20.7878,30.4167,0.403133,0.0,0.0
3718,929.25,40.4285,42.2443,132.893,99.0866,94.5874,0.00386534,0.23291,20.7892,30.3366,0.419752,0.0,0.0
3729,932,40.5698,41.7538,135.194,99.0589,94.6525,0.00383366,0.232637,20.7897,30.2065,0.411007,0.0,0.0
3740,934.75,39.494,40.9329,134.973,98.8575,93.5064,0.00382004,0.23371,20.7879,30.0864,0.502662,0.0,0.0
3751,937.5,40.237,41.9404,132.875,98.5075,91.8496,0.00380341,0.234582,20.786,29.9663,0.632107,0.0,0.0
3762,940.25,40.3431,41.6744,129.826,98.0667,92.2975,0.0039385,0.235218,20.7855,29.8562,0.547657,0.0,0.0
3773,943,39.5628,41.0137,136.845,97.6639,92.9524,0.00407013,0.235106,20.7861,29.7561,0.44662,0.0,0.0
3784,945.75,40.104,41.6247,137.742,97.2961,93.036,0.00419011,0.234581,20.7871,29.656,0.404417,0.0,0.0
3795,948.5,40.3936,41.5407,132.107,97.1149,92.797,0.00421738,0.232993,20.789,29.5359,0.410817,0.0,0.0
3806,951.25,39.7848,41.2002,132.898,97.126,92.6532,0.00421052,0.230352,20.7915,29.4559,0.425856,0.0,0.0
3817,954,39.7866,41.0846,134.447,97.323,93.2776,0.00439694,0.227145,20.7951,29.3658,0.38349,0.0,0.0
3828,956.75,39.645,41.01,135.138,97.6239,93.8753,0.00454207,0.224385,20.7977,29.2557,0.353678,0.0,0.0
3839,959.5,39.7529,41.2279,133.657,97.9763,94.2633,0.00443062,0.222519,20.7994,29.1356,0.348964,0.0,0.0
3850,962.25,39.5662,40.6978,135.842,98.2795,93.7086,0.00409385,0.220685,20.8013,29.0355,0.430197,0.0,0.0
3861,965,39.4588,40.7867,135.942,98.4147,95.1256,0.0039956,0.218621,20.8029,28.9754,0.307041,0.0,0.0
3872,967.75,38.6883,40.4623,132.866,98.3977,94.5667,0.00410248,0.217526,20.8049,28.8653,0.358706,0.0,0.0
3883,970.5,38.7035,40.0456,135.772,98.253,94.6969,0.00408333,0.217294,20.8056,28.7853,0.332984,0.0,0.0
3894,973.25,38.5255,39.9942,136.18,98.1123,94.3345,0.00400437,0.217073,20.8068,28.6952,0.354677,0.0,0.0
3905,976,38.697,40.1047,135.871,98.0806,92.6126,0.00410816,0.216248,20.8073,28.5751,0.518158,0.0,0.0
3916,978.75,38.7142,39.8808,135.759,98.6268,95.4312,0.00432506,0.215314,20.8088,28.485,0.297511,0.0,0.0
3927,981.5,38.9742,40.0915,138.128,98.8607,94.193,0.00424713,0.214698,20.8096,28.3949,0.436878,0.0,0.0
3938,984.25,38.3416,40.2041,135.45,98.7148,94.5535,0.00406751,0.214768,20.8087,28.2948,0.389029,0.0,0.0
3949,987,38.7588,39.8494,137.03,98.3156,93.3032,0.00415013,0.21465,20.808,28.2248,0.472669,0.0,0.0
3960,989.75,38.4104,40.0896,135.174,98.536,94.9156,0.00444372,0.214041,20.8082,28.1147,0.338132,0.0,0.0
3971,992.5,38.6273,39.6852,132.699,98.846,95.33,0.00466193,0.212002,20.8109,28.0346,0.327153,0.0,0.0
3982,995.25,38.0591,39.2725,131.819,99.0573,94.9397,0.00467196,0.210079,20.8133,27.9545,0.383498,0.0,0.0
3993,998,38.1104,39.6262,133.065,99.0605,94.7131,0.00470863,0.208435,20.8159,27.8545,0.40537,0.0,0.0
4004,1000.75,38.4144,39.5025,135.123,98.8393,94.8945,0.00489204,0.206565,20.8179,27.7944,0.367893,0.0,0.0
4015,1003.5,38.3083,39.5051,132.324,98.4072,94.1994,0.00499698,0.204749,20.8199,27.6443,0.394735,0.0,0.0
4026,1006.25,37.7671,38.9436,135.181,97.8637,93.7725,0.0050173,0.202661,20.8232,27.6142,0.385733,0.0,0.0
4037,1009,37.3897,38.231,139.195,97.4047,93.0574,0.00504778,0.201137,20.8244,27.5242,0.412413,0.0,0.0
4048,1011.75,37.827,39.0452,136.67,97.1423,93.8403,0.00534177,0.199828,20.8249,27.4341,0.312373,0.0,0.0
4059,1014.5,37.2599,38.5726,135.362,97.2053,93.4255,0.00551831,0.199203,20.825,27.334,0.358244,0.0,0.0
4070,1017.25,37.3906,38.5884,135.169,97.4907,93.6623,0.00550778,0.198644,20.8251,27.2739,0.361866,0.0,0.0
4081,1020,37.6597,38.7736,136.387,97.8705,94.3503,0.00554877,0.197823,20.8261,27.1939,0.330874,0.0,0.0
4092,1022.75,37.5643,38.7202,135.282,98.2213,94.6262,0.00562352,0.196872,20.8264,27.1138,0.33682,0.0,0.0
4103,1025.5,37.2926,38.6573,131.788,98.4119,94.3736,0.00570653,0.195891,20.828,27.0437,0.378477,0.0,0.0
4114,1028.25,37.1107,38.513,136.099,98.4191,94.0375,0.00569146,0.19524,20.8286,26.9537,0.411358,0.0,0.0
4125,1031,36.5354,38.1754,133.621,98.257,93.861,0.00569782,0.19433,20.8299,26.8736,0.413439,0.0,0.0
4136,1033.75,37.1133,38.5512,137.038,98.0742,94.6435,0.00575324,0.193,20.8308,26.7535,0.321633,0.0,0.0
4147,1036.5,36.6489,38.0785,137.04,98.008,93.6777,0.00579204,0.192143,20.8311,26.7135,0.408182,0.0,0.0
4158,1039.25,36.7916,37.8288,135.452,98.6078,94.7891,0.00596142,0.191609,20.8325,26.6034,0.356749,0.0,0.0
4169,1042,36.3003,37.7506,136.549,98.8321,94.5095,0.00599553,0.191223,20.833,26.5133,0.403966,0.0,0.0
4180,1044.75,36.6198,37.8424,135.314,98.7073,93.4391,0.00596844,0.19095,20.8332,26.4432,0.495435,0.0,0.0
4191,1047.5,36.4645,38.0751,134.875,98.3184,93.5874,0.0059429,0.190828,20.8332,26.3732,0.445456,0.0,0.0
4202,1050.25,36.2956,37.6676,133.665,98.5765,93.281,0.00573885,0.190247,20.8329,26.3031,0.498752,0.0,0.0
4213,1053,36.584,37.6142,137.877,98.8781,94.6871,0.00556276,0.189881,20.8325,26.233,0.391205,0.0,0.0
4224,1055.75,36.3934,37.5906,133.658,99.064,94.8208,0.00554063,0.189952,20.8324,26.163,0.395435,0.0,0.0
4235,1058.5,36.7411,37.7874,133.998,99.0612,94.9536,0.00565669,0.189699,20.8339,26.0829,0.382535,0.0,0.0
4246,1061.25,35.966,37.4727,134.603,98.85,95.6157,0.00571563,0.189292,20.836,26.0228,0.300488,0.0,0.0
4257,1064,35.9527,37.4235,136.279,98.4635,93.8034,0.00566863,0.188271,20.8381,25.8827,0.437948,0.0,0.0
4268,1066.75,35.9059,37.3276,130.611,97.9957,93.2099,0.00569585,0.18765,20.8391,25.8027,0.452272,0.0,0.0
4279,1069.5,35.7112,37.1987,135.326,97.5545,93.4206,0.00591652,0.187046,20.8394,25.7226,0.391111,0.0,0.0
4290,1072.25,36.0678,37.6805,139.448,97.2557,92.8497,0.00599496,0.186099,20.8404,25.6625,0.418769,0.0,0.0
4301,1075,35.9256,37.1579,136.699,97.1462,92.1613,0.00602461,0.184557,20.8416,25.5825,0.475822,0.0,0.0
4312,1077.75,35.9295,36.7989,137.244,97.2227,92.2994,0.00599761,0.18266,20.8431,25.5024,0.469403,0.0,0.0
4323,1080.5,36.065,37.1001,137.618,97.4709,92.0529,0.00610159,0.180815,20.8449,25.4123,0.516587,0.0,0.0
4334,1083.25,35.7333,36.664,133.222,97.7694,93.6886,0.006207,0.179297,20.8464,25.3723,0.385109,0.0,0.0
4345,1086,35.5172,36.6588,136.648,98.0484,93.6389,0.00624139,0.177616,20.8469,25.2922,0.415646,0.0,0.0
4356,1088.75,35.0466,36.6845,137.993,98.2669,93.1974,0.00635408,0.176065,20.8499,25.2221,0.478433,0.0,0.0
4367,1091.5,35.1325,36.3327,139.75,98.3905,93.7797,0.00646988,0.174657,20.8516,25.1521,0.433537,0.0,0.0
4378,1094.25,35.0679,35.7885,135.084,98.4337,93.686,0.00661993,0.173205,20.8539,25.062,0.446534,0.0,0.0
4389,1097,34.9495,36.2185,133.93,98.3636,93.4624,0.00674444,0.171364,20.8559,25.012,0.461675,0.0,0.0
4400,1099.75,34.9821,36.0733,136.634,98.2332,93.4357,0.00670127,0.169955,20.8581,24.9719,0.452273,0.0,0.0
4411,1102.5,34.5992,35.4995,136.422,98.1111,93.0491,0.00675696,0.168319,20.8584,24.8718,0.478487,0.0,0.0
4422,1105.25,35.1432,35.9236,133.967,97.9914,92.739,0.00695094,0.166474,20.8597,24.8218,0.497614,0.0,0.0
4433,1108,34.6834,35.5416,131.677,97.9256,92.8561,0.00719085,0.164574,20.8618,24.7417,0.480153,0.0,0.0
4444,1110.75,34.2359,35.0645,137.992,98.2122,93.3653,0.00727773,0.162488,20.8638,24.6717,0.457148,0.0,0.0
4455,1113.5,34.0592,35.5568,136.857,98.511,94.5178,0.00716361,0.160781,20.8664,24.6316,0.373782,0.0,0.0
4466,1116.25,34.1363,35.0731,136.425,98.7041,94.6017,0.00715746,0.158703,20.8689,24.5616,0.383448,0.0,0.0
4477,1119,33.7661,34.721,136.757,98.7854,94.4564,0.00756328,0.157111,20.8708,24.5115,0.404764,0.0,0.0
4488,1121.75,33.7935,34.717,138.719,98.7739,94.9815,0.00796049,0.155623,20.8733,24.4314,0.353642,0.0,0.0
4499,1124.5,33.7704,34.6325,141.362,98.6835,94.4892,0.00796292,0.153682,20.8756,24.3914,0.392313,0.0,0.0
4510,1127.25,33.1823,33.9714,143.097,98.515,93.698,0.00787161,0.151309,20.8771,24.3514,0.452828,0.0,0.0
4521,1130,33.3616,33.8603,140.566,98.5646,95.4775,0.00773202,0.14959,20.8782,24.3013,0.287429,0.0,0.0
4532,1132.75,33.3712,34.012,137.005,98.4643,95.0183,0.00786707,0.14794,20.8796,24.2313,0.321779,0.0,0.0
4543,1135.5,33.2735,33.7766,135.35,98.2922,93.8271,0.0083205,0.146638,20.8817,24.1912,0.419942,0.0,0.0
4554,1138.25,33.0392,33.7371,136.335,98.3628,94.199,0.00876143,0.144657,20.8847,24.1312,0.390695,0.0,0.0
4565,1141,32.7307,33.5473,139.521,98.4441,95.0808,0.00899667,0.141637,20.888,24.1012,0.313987,0.0,0.0
4576,1143.75,32.5286,33.4575,139.702,98.5356,94.2584,0.00916284,0.13891,20.8909,24.0411,0.400852,0.0,0.0
4587,1146.5,32.6064,33.2612,134.494,98.6292,94.9344,0.00920662,0.136398,20.893,24.0011,0.344876,0.0,0.0
4598,1149.25,31.8538,32.5209,139.269,98.7287,95.2656,0.00914689,0.134823,20.8941,23.931,0.322524,0.0,0.0
4609,1152,32.0512,32.9223,133.891,98.8183,95.251,0.00914976,0.133496,20.8944,23.901,0.33211,0.0,0.0
4620,1154.75,32.1534,32.4907,133.553,98.8904,93.9637,0.00898662,0.132351,20.8958,23.881,0.461601,0.0,0.0
4631,1157.5,32.1099,32.5987,140.847,98.9637,95.3951,0.00887642,0.131299,20.8962,23.8109,0.331738,0.0,0.0
4642,1160.25,32.0096,32.6439,135.654,99.0133,95.8268,0.00905081,0.129866,20.8962,23.7709,0.295475,0.0,0.0
4653,1163,31.8709,32.6327,138.605,99.0609,95.1629,0.00924288,0.128809,20.8975,23.7308,0.362613,0.0,0.0
4664,1165.75,31.5656,32.1296,138.825,99.0906,95.4734,0.00925533,0.127508,20.8982,23.6708,0.335899,0.0,0.0
4675,1168.5,31.2025,31.7652,141.391,99.1064,96.1369,0.00917899,0.126703,20.8991,23.6408,0.274783,0.0,0.0
4686,1171.25,30.7387,31.6539,137.519,99.1171,95.2954,0.0092478,0.127476,20.8975,23.6307,0.355178,0.0,0.0
4697,1174,30.4509,30.9297,142.529,99.1037,95.3514,0.00945666,0.129153,20.8926,23.6007,0.348636,0.0,0.0
4708,1176.75,30.3024,30.9344,136.664,99.0957,95.4994,0.009498,0.129948,20.8909,23.5407,0.333911,0.0,0.0
4719,1179.5,30.1244,30.9951,135.777,99.0771,95.1723,0.00941211,0.129979,20.8914,23.5106,0.363202,0.0,0.0
4730,1182.25,30.5371,30.3284,139.924,99.0371,95.0462,0.0093316,0.129881,20.892,23.4706,0.371526,0.0,0.0
4741,1185,30.9948,30.7201,134.782,98.9927,95.3575,0.00951835,0.129909,20.8909,23.4606,0.337943,0.0,0.0
4752,1187.75,29.845,30.5794,140.162,98.9542,95.2069,0.00973131,0.131703,20.8878,23.4106,0.348706,0.0,0.0
4763,1190.5,30.1463,30.5322,141.479,98.9189,95.0895,0.00985754,0.133989,20.8846,23.3805,0.356633,0.0,0.0
4774,1193.25,30.2815,30.5413,140.486,98.8646,95.3484,0.0098734,0.135461,20.8834,23.3405,0.327109,0.0,0.0
4785,1196,29.4904,30.3977,135.701,98.8115,95.1283,0.00963992,0.135942,20.8831,23.3005,0.343137,0.0,0.0
4796,1198.75,29.9003,30.1707,139.367,98.7639,96.2318,0.00932456,0.134587,20.8844,23.3005,0.234606,0.0,0.0
4807,1201.5,30.0105,30.2704,136.496,98.7235,95.5024,0.00933963,0.132155,20.8913,23.2504,0.299635,0.0,0.0
4818,1204.25,30.0401,29.8012,138.431,98.695,95.6902,0.00951745,0.128729,20.8964,23.2104,0.279277,0.0,0.0
4829,1207,29.7461,29.8723,139.348,98.651,95.3481,0.00967657,0.124645,20.9026,23.1904,0.307602,0.0,0.0
4840,1209.75,29.0121,30.097,140.682,98.6026,94.8091,0.00970831,0.120255,20.9085,23.1703,0.354376,0.0,0.0
4851,1212.5,29.032,29.8887,137.988,98.5705,95.6175,0.00979807,0.116526,20.9131,23.1303,0.274739,0.0,0.0
4862,1215.25,29.0636,30.09,140.973,98.5424,96.1591,0.00987508,0.113574,20.9148,23.0803,0.221139,0.0,0.0
4873,1218,28.0322,28.8274,138.15,98.5221,95.4591,0.00979764,0.111232,20.9175,23.0602,0.285286,0.0,0.0
4884,1220.75,28.9032,29.5256,140.266,98.5011,95.8302,0.00972497,0.108954,20.9194,23.0402,0.248312,0.0,0.0
4895,1223.5,28.7954,29.487,143.212,98.4797,94.7142,0.00986119,0.106377,20.9218,23.0402,0.352153,0.0,0.0
4906,1226.25,28.0818,28.8099,137.759,98.4718,95.3736,0.0101153,0.10413,20.9238,23.0102,0.288758,0.0,0.0
4917,1229,28.2468,28.9733,139.635,98.4647,95.782,0.0100553,0.102694,20.9251,22.9602,0.249509,0.0,0.0
4928,1231.75,28.4544,28.6078,139.523,98.4635,94.8106,0.00990695,0.101281,20.9271,22.9101,0.341478,0.0,0.0
4939,1234.5,28.1747,28.9041,140.662,98.4766,95.5295,0.00983844,0.0997189,20.9283,22.9101,0.274448,0.0,0.0
4950,1237.25,28.2605,28.4425,140.314,98.4884,95.2382,0.00972436,0.0981395,20.9303,22.8801,0.303126,0.0,0.0
4961,1240,27.9296,28.0801,140.097,98.5035,95.9025,0.0097184,0.0968678,20.931,22.8801,0.241721,0.0,0.0
4972,1242.75,28.5995,28.1542,141.357,98.5134,96.1396,0.00985686,0.0960026,20.9312,22.8401,0.220325,0.0,0.0
4983,1245.5,27.7525,28.061,144.959,98.5404,95.2988,0.00982882,0.0950552,20.9323,22.81,0.302142,0.0,0.0
4994,1248.25,27.41,27.86,139.354,98.5606,95.6951,0.00997666,0.0938635,20.9332,22.81,0.266508,0.0,0.0
5005,1251,27.0257,27.3464,143.334,98.6034,95.269,0.0103033,0.092489,20.9347,22.77,0.310736,0.0,0.0
5016,1253.75,27.9985,27.5726,141.562,98.6359,95.5234,0.0105071,0.0907804,20.9374,22.75,0.289622,0.0,0.0
5027,1256.5,27.758,27.5171,136.219,98.6427,95.4779,0.0104893,0.0892758,20.9385,22.76,0.294547,0.0,0.0
5038,1259.25,27.5709,27.7606,142.647,98.689,95.8294,0.0103732,0.0882943,20.9388,22.73,0.265598,0.0,0.0
5049,1262,27.4239,28.4188,140.372,98.7338,96.3172,0.0100576,0.0875654,20.9395,22.7199,0.223836,0.0,0.0
5060,1264.75,27.439,27.5053,141.475,98.7754,96.4132,0.00974107,0.0869123,20.9407,22.7199,0.218645,0.0,0.0
5071,1267.5,27.462,27.2286,137.855,98.8242,95.8934,0.00951008,0.0861649,20.9426,22.6999,0.271932,0.0,0.0
5082,1270.25,26.9486,27.6534,142.125,98.8492,96.0831,0.00959782,0.0855674,20.9425,22.6599,0.256363,0.0,0.0
5093,1273,26.8234,27.1819,139.314,98.8912,96.5521,0.00960202,0.0849846,20.9417,22.6499,0.216222,0.0,0.0
5104,1275.75,27.1681,27.5777,141.899,98.9221,95.971,0.00938557,0.0846896,20.9414,22.6499,0.273576,0.0,0.0
5115,1278.5,26.7351,27.2924,137.324,98.9677,96.4023,,0.084514,,22.6399,0.237232,0.0,0.0
5126,1281.25,27.2651,27.3931,140.68,99.0276,96.866,,,,22.6299,0.199351,0.0,0.0
5137,1284,26.3941,26.9591,141.228,99.064,96.3586,,,,22.6098,0.250111,0.0,0.0
5148,1286.75,26.2537,26.311,141.55,99.0716,96.7711,,,,22.5998,0.212211,0.0,0.0
5152,1287.75,26.9049,26.917,141.364,99.0787,95.6687,,,,22.6098,0.316352,0.0,0.0