File: 01_Data/PET/Cone/PET_Cone_HF75Scan_220207_R1.csv
Names,Time,Stack TC,Smoke TC,Exh Press,Smoke Comp,Smoke Meas,CO Meter,CO2 Meter,O2 Meter,Sample Mass,Ext Coeff,Start Test,Flame Verif
Chan Gain,,500,500,1,1,1,1,1,1,1,1,1.0,1.0
Offset,,0,0,0.134889,0,0,0,0,0,0,0,0.0,0.0
Gain,,1,1,25.011,12.9892,12.3331,1,1,1,1.00088,1.02973,1.0,1.0
Units,sec,C,C,Pa,%,%,%,%,%,g,/m,,
Baseline,,35.866,38.6333,151.481,97.5528,97.6538,-0.00170076,0.045954,21.0288,-0.189041,-0.0093428,,
5,1,30.0103,31.4334,150.167,96.3261,96.5175,-0.00113297,0.0519708,21.0201,960.413,-0.0179263,0.0,0.0
10,2.25,31.1202,31.551,148.959,96.3879,96.5935,-0.00118015,0.0521014,21.0201,960.383,-0.0192422,0.0,0.0
15,3.5,30.8305,32.4316,154.763,96.4684,96.3669,-0.00130836,0.0519248,21.021,960.383,0.00950947,0.0,0.0
20,4.75,30.9928,32.5816,153.608,96.5291,96.49,-0.00145504,0.0514865,21.0216,960.423,0.0036571,0.0,0.0
25,6,31.5787,33.3659,154.198,96.6167,96.4949,-0.00157432,0.0508759,21.0228,960.403,0.0113927,0.0,0.0
30,7.25,30.9056,32.8438,152.49,96.6745,96.761,-0.00164552,0.0501341,21.0236,960.423,-0.00807304,0.0,0.0
35,8.5,31.3284,33.7736,152.42,96.755,96.7738,-0.00168615,0.0495653,21.0249,960.433,-0.0017521,0.0,0.0
40,9.75,31.8909,33.387,148.546,96.8335,97.0297,-0.00174441,0.0490285,21.026,960.443,-0.0182845,0.0,0.0
45,11,31.5511,33.6604,151.864,96.8941,97.0579,-0.0017868,0.048633,21.0267,960.453,-0.0152564,0.0,0.0
50,12.25,31.9349,33.6841,149.123,96.9754,96.8987,-0.00182999,0.0483408,21.0264,960.463,0.0071438,0.0,0.0
55,13.5,32.3926,33.9014,151.763,97.0666,97.0278,-0.00186374,0.048182,21.026,960.443,0.00360543,0.0,0.0
60,14.75,32.509,34.118,152.067,97.1399,97.5408,-0.00180951,0.0482148,21.0257,960.433,-0.0372041,0.0,0.0
65,16,32.778,34.3925,148.852,97.2077,97.4001,-0.00168162,0.0481818,21.0256,960.413,-0.0178573,0.0,0.0
70,17.25,32.793,34.7143,151.767,97.2691,97.1803,-0.00151853,0.0483082,21.0255,960.453,0.00825732,0.0,0.0
75,18.5,32.4653,34.0714,155.301,97.3472,97.3376,-0.00136927,0.0484714,21.0254,960.423,0.000894764,0.0,0.0
80,19.75,32.7667,34.7299,147.708,97.4099,97.3511,-0.00123716,0.0485096,21.0254,960.353,0.00544689,0.0,0.0
85,21,32.9552,34.7176,153.688,97.4749,97.4358,-0.00117022,0.0484442,21.0254,960.343,0.00361943,0.0,0.0
90,22.25,32.7925,34.8889,148.925,97.5363,97.8069,-0.00118354,0.0483371,21.0254,960.373,-0.0250274,0.0,0.0
95,23.5,33.0668,35.1627,152.841,97.5946,97.6978,-0.00123906,0.048254,21.0254,960.393,-0.0095459,0.0,0.0
100,24.75,33.4069,35.1402,148.54,97.6612,97.1791,-0.0013009,0.048328,21.0254,960.403,0.0446954,0.0,0.0
105,26,32.7169,34.6168,151.921,97.7167,97.4599,-0.00134533,0.0486033,21.0254,960.413,0.0237667,0.0,0.0
110,27.25,33.1305,35.3114,154.042,97.7619,97.2085,-0.00127728,0.0489095,21.0245,960.403,0.051275,0.0,0.0
115,28.5,33.1978,35.2126,149.677,97.8094,97.1599,-0.00114081,0.0494421,21.0235,960.393,0.0601809,0.0,0.0
120,29.75,33.537,35.0377,151.876,97.8495,96.8355,-0.000967649,0.0508374,21.0205,960.383,0.0940898,0.0,0.0
125,31,33.3358,35.5746,154.137,97.8756,96.5671,-0.000818244,0.0526917,21.0175,960.363,0.121571,0.0,0.0
130,32.25,33.6643,35.2387,150.677,97.9149,96.7839,-0.000711403,0.0547261,21.015,960.353,0.104937,0.0,0.0
135,33.5,33.7848,35.1611,156.901,97.9442,95.9868,-0.000576993,0.0565555,21.0143,960.323,0.182349,0.0,0.0
140,34.75,33.547,35.9184,149.049,97.9616,95.7786,-0.000427538,0.0582161,21.0132,960.313,0.203565,0.0,0.0
145,36,34.2875,36.3826,146.006,97.9838,95.1994,-6.81802e-05,0.0618783,21.0073,960.273,0.260405,0.0,0.0
150,37.25,33.2805,36.0714,148.906,97.9969,96.7726,0.000551147,0.0745523,20.983,960.193,0.113557,0.0,0.0
155,38.5,34.4135,36.5098,148.106,98.008,83.3706,0.00146154,0.0997687,20.9308,960.063,1.46107,0.0,1.0
160,39.75,34.6049,37.0711,142.764,98.0112,75.6719,0.00280775,0.143898,20.8695,960.043,2.33654,0.0,1.0
165,41,35.0134,38.0234,137.112,98.0088,68.777,0.00484417,0.200409,20.7978,959.913,3.19928,0.0,0.0
170,42.25,36.2215,38.954,136.745,98.0155,62.7814,0.00752463,0.270881,20.7134,959.673,4.02379,0.0,1.0
175,43.5,37.52,40.023,138.141,97.9973,60.8114,0.010316,0.347106,20.5966,959.432,4.31008,0.0,1.0
180,44.75,38.5183,41.7421,128.941,97.9838,56.0638,0.0131664,0.434723,20.485,959.152,5.04308,0.0,1.0
185,46,39.9821,43.9042,130.777,97.9708,51.6851,0.0156009,0.518573,20.3881,958.922,5.77643,0.0,1.0
190,47.25,41.0779,45.6978,125.612,97.9656,50.8446,0.0189177,0.604346,20.2854,958.592,5.92405,0.0,1.0
195,48.5,42.9738,48.1786,127.02,97.9517,47.8291,0.0225078,0.690174,20.1822,958.201,6.47503,0.0,0.0
200,49.75,44.053,49.9721,121.71,97.9137,42.5617,0.0264499,0.784764,20.0563,957.781,7.52545,0.0,0.0
205,51,46.3532,52.5007,124.428,97.8839,43.5045,0.0304619,0.889097,19.9268,957.401,7.3248,0.0,0.0
210,52.25,48.888,55.3691,124.582,97.8578,42.643,0.0344313,0.985618,19.8025,956.96,7.50305,0.0,0.0
215,53.5,50.2686,57.9455,112.169,97.8265,42.3205,0.03786,1.08201,19.7004,956.59,7.56875,0.0,0.0
220,54.75,52.5738,60.5271,111.059,97.7856,40.7088,0.040705,1.17063,19.6129,956.109,7.91568,0.0,0.0
225,56,54.9481,64.0503,119.269,97.7555,47.7561,0.0427805,1.25205,19.534,955.749,6.47072,0.0,0.0
230,57.25,57.0975,66.8354,113.834,97.7171,47.2002,0.0443754,1.32647,19.4633,955.279,6.57292,0.0,0.0
235,58.5,59.0531,70.4296,114.688,97.6699,46.1802,0.0454308,1.38154,19.4059,954.868,6.7659,0.0,0.0
240,59.75,61.4337,72.8721,118.519,97.6362,43.5343,0.0459376,1.42741,19.3696,954.438,7.29573,0.0,0.0
245,61,63.2926,75.5549,106.794,97.6005,48.0357,0.0461965,1.46342,19.3357,953.978,6.40364,0.0,0.0
250,62.25,65.2045,78.4254,118.014,97.5601,47.2815,0.0461801,1.48651,19.3089,953.567,6.54286,0.0,0.0
255,63.5,67.2875,79.874,113.504,97.5062,47.2182,0.0461265,1.50959,19.2911,953.117,6.54995,0.0,0.0
260,64.75,69.3039,83.4379,117.177,97.4959,45.2686,0.0460637,1.52427,19.2806,952.736,6.92988,0.0,0.0
265,66,71.1123,85.8565,114.489,97.4594,44.3913,0.0459152,1.53356,19.275,952.306,7.10328,0.0,0.0
270,67.25,72.7412,87.712,116.426,97.4221,47.8633,0.0456266,1.53789,19.2768,951.886,6.41959,0.0,0.0
275,68.5,73.9458,90.1167,114.281,97.4007,47.2314,0.0450958,1.5351,19.2877,951.445,6.53766,0.0,0.0
280,69.75,75.4979,92.4512,113.386,97.369,47.6714,0.0443575,1.5288,19.3008,951.145,6.45097,0.0,0.0
285,71,76.8328,93.369,111.459,97.354,47.4911,0.043518,1.52163,19.3118,950.675,6.48379,0.0,0.0
290,72.25,77.7843,96.0357,110.718,97.3111,47.35,0.0427691,1.51446,19.3208,950.244,6.5067,0.0,0.0
295,73.5,79.4687,97.3207,122.679,97.3088,46.6115,0.0421507,1.50679,19.3281,949.834,6.64846,0.0,0.0
300,74.75,80.3029,98.7679,108.025,97.3425,46.7225,0.0416707,1.49904,19.337,949.434,6.6301,0.0,0.0
305,76,81.3519,100.304,116.098,97.4186,48.4091,0.0413792,1.49062,19.3507,948.973,6.31685,0.0,0.0
310,77.25,82.2454,101.83,121.049,97.484,48.6485,0.0412087,1.48154,19.3607,948.543,6.27836,0.0,0.0
315,78.5,83.3617,102.39,120.048,97.5526,47.0428,0.0411965,1.4729,19.3678,948.182,6.58786,0.0,0.0
320,79.75,84.4412,103.924,121.722,97.6386,48.601,0.0413735,1.46478,19.3801,947.902,6.30148,0.0,0.0
325,81,85.308,105.109,116.888,97.6953,47.4365,0.0416206,1.45598,19.3925,947.482,6.52579,0.0,0.0
330,82.25,85.8581,106.188,118.301,97.7341,46.5682,0.0420004,1.4471,19.3998,947.102,6.69625,0.0,0.0
335,83.5,86.4363,106.708,107.926,97.784,48.006,0.042403,1.44291,19.4041,946.671,6.42621,0.0,0.0
340,84.75,87.5867,107.949,115.775,97.8292,44.5821,0.0428319,1.44211,19.4047,946.271,7.09874,0.0,0.0
345,86,87.9394,108.722,118.633,97.8566,46.2442,0.0433369,1.44187,19.4051,945.84,6.77064,0.0,0.0
350,87.25,88.6462,109.162,115.564,97.8831,45.9472,0.0438865,1.44101,19.4053,945.44,6.83128,0.0,0.0
355,88.5,89.1803,110.309,118.087,97.9129,44.943,0.0444438,1.43981,19.4054,945.04,7.03363,0.0,0.0
360,89.75,89.6593,111.298,115.648,97.9382,47.9428,0.0449731,1.43982,19.4043,944.629,6.45234,0.0,0.0
365,91,89.9061,110.585,117.739,97.945,49.4712,0.0452908,1.44141,19.401,944.189,6.16949,0.0,0.0
370,92.25,90.8218,112.47,112.164,97.9478,48.12,0.0453039,1.44568,19.3917,943.759,6.41988,0.0,0.0
375,93.5,90.9344,112.792,114.542,97.966,48.2935,0.0451027,1.45145,19.3838,943.488,6.38905,0.0,0.0
380,94.75,92.3671,114.102,114.329,97.9529,48.4765,0.0448914,1.45674,19.3784,942.998,6.3537,0.0,0.0
385,96,93.1049,114.725,112.912,97.9513,47.9364,0.0447921,1.46188,19.37,942.658,6.45476,0.0,0.0
390,97.25,93.0099,115.969,112.982,97.9486,44.3672,0.0450249,1.46887,19.3595,942.247,7.1534,0.0,0.0
395,98.5,93.8019,116.183,117.374,97.9248,47.6857,0.0456464,1.47841,19.3452,941.757,6.49967,0.0,0.0
400,99.75,94.5483,116.317,115.219,97.9081,49.1005,0.0465754,1.48965,19.3317,941.436,6.23403,0.0,0.0
405,101,95.4471,117.809,111.598,97.8661,46.3925,0.0474932,1.49838,19.3239,940.866,6.7426,0.0,0.0
410,102.25,96.004,119.104,120.506,97.8312,43.8572,0.0482274,1.50234,19.3216,940.506,7.247,0.0,0.0
415,103.5,96.1496,119.115,113.139,97.7928,44.258,0.0486589,1.50077,19.3259,940.015,7.16127,0.0,0.0
420,104.75,96.4538,119.844,112.017,97.7547,47.5781,0.0487591,1.4945,19.3378,939.595,6.50438,0.0,0.0
425,106,97.2802,119.818,120.927,97.6881,45.575,0.0485684,1.48436,19.3579,939.275,6.88674,0.0,0.0
430,107.25,97.4013,119.848,114.781,97.6342,48.0387,0.0482302,1.46821,19.3811,938.914,6.4062,0.0,0.0
435,108.5,97.5203,120.467,120.307,97.5704,48.2811,0.0479392,1.45052,19.3962,938.494,6.35483,0.0,0.0
440,109.75,97.9033,120.618,110.905,97.4998,46.1926,0.0477477,1.43911,19.4051,938.124,6.74773,0.0,0.0
445,111,97.7724,120.691,114.481,97.4122,43.4718,0.0478486,1.43389,19.4066,937.693,7.28796,0.0,0.0
450,112.25,98.3262,120.68,121.906,97.3397,45.779,0.048071,1.4352,19.4015,937.283,6.81413,0.0,0.0
455,113.5,98.3501,121.203,118.087,97.2426,45.2795,0.0482809,1.43977,19.3978,936.792,6.9042,0.0,0.0
460,114.75,98.5923,121.356,112.21,97.239,44.4884,0.0483543,1.4419,19.3965,936.362,7.06309,0.0,0.0
465,116,98.6642,121.332,115.074,97.2568,42.5572,0.0481908,1.44124,19.3988,935.962,7.46561,0.0,0.0
470,117.25,99.1404,121.646,108.607,97.2707,47.4704,0.047552,1.44021,19.4014,935.631,6.48,0.0,0.0
475,118.5,99.5423,121.304,124.058,97.2858,44.0823,0.0464477,1.43763,19.4079,935.171,7.15027,0.0,0.0
480,119.75,99.5269,122.144,115.82,97.3024,46.7229,0.0444401,1.41739,19.4396,934.891,6.62631,0.0,0.0
485,121,99.5715,121.715,120.513,97.3274,52.929,0.041969,1.3759,19.5092,934.56,5.5021,0.0,0.0
490,122.25,99.3803,121.452,125.878,97.3579,55.6133,0.0401615,1.32153,19.5776,934.24,5.05807,0.0,0.0
495,123.5,99.1914,121.13,123.227,97.367,54.8933,0.0375503,1.25938,19.6436,933.93,5.17663,0.0,0.0
500,124.75,99.1247,120.065,122.335,97.3857,54.5117,0.0357243,1.20488,19.6994,933.62,5.24137,0.0,0.0
505,126,97.2911,119.847,123.89,97.4166,54.2309,0.0345059,1.16936,19.7359,933.369,5.29089,0.0,0.0
510,127.25,97.6941,118.716,118.704,97.4388,50.8935,0.0337521,1.14434,19.7575,932.999,5.86665,0.0,0.0
515,128.5,97.581,118.624,122.039,97.4586,54.8726,0.0333164,1.12945,19.7702,932.709,5.18852,0.0,0.0
520,129.75,97.3892,118.237,128.323,97.4741,48.5269,0.0330623,1.12431,19.7681,932.439,6.30004,0.0,0.0
525,131,97.0544,118.103,120.365,97.4903,52.6422,0.0329122,1.12783,19.7586,932.108,5.56629,0.0,0.0
530,132.25,97.0818,117.948,127.146,97.5121,53.9652,0.0328419,1.13608,19.7446,931.718,5.34411,0.0,0.0
535,133.5,97.046,118.248,121.834,97.5268,50.8085,0.032873,1.14654,19.7291,931.398,5.88992,0.0,0.0
540,134.75,97.2868,117.32,124.586,97.5399,52.5327,0.0330089,1.15548,19.72,931.057,5.58969,0.0,0.0
545,136,97.1942,118.053,119.188,97.5553,52.0242,0.0332198,1.15962,19.7146,930.717,5.67898,0.0,0.0
550,137.25,96.6611,117.906,120.962,97.5609,54.4209,0.0336272,1.16179,19.7114,930.417,5.27265,0.0,0.0
555,138.5,97.4855,117.802,114.169,97.5704,50.3388,0.0340448,1.16607,19.7031,930.036,5.97785,0.0,0.0
560,139.75,97.3859,117.334,122.37,97.5767,48.5969,0.0344069,1.17843,19.6881,929.626,6.29653,0.0,0.0
565,141,97.3128,118.209,122.387,97.5827,49.5864,0.0347371,1.19274,19.669,929.306,6.11501,0.0,0.0
570,142.25,98.1391,118.028,116.629,97.5807,51.5737,0.0350645,1.20504,19.6548,928.956,5.75989,0.0,0.0
575,143.5,98.0321,118.177,120.401,97.5799,52.5485,0.0354135,1.21442,19.6464,928.645,5.59068,0.0,0.0
580,144.75,98.0356,117.796,113.098,97.5791,47.8174,0.0358336,1.22045,19.6415,928.235,6.44281,0.0,0.0
585,146,98.3257,118.277,116.472,97.5787,51.6196,0.0362429,1.22245,19.6414,927.905,5.75167,0.0,0.0
590,147.25,98.0476,118.303,122.211,97.5605,48.9992,0.0367629,1.2229,19.6441,927.574,6.22055,0.0,0.0
595,148.5,98.0933,118.271,118.175,97.5446,46.9627,0.0372257,1.22251,19.6457,927.204,6.60253,0.0,0.0
600,149.75,98.5973,118.287,116.657,97.5347,45.2893,0.0376407,1.22354,19.6455,926.874,6.92934,0.0,0.0
605,151,98.1518,118.404,119.5,97.5129,47.3184,0.0378592,1.22837,19.6404,926.493,6.53145,0.0,0.0
610,152.25,98.4524,118.232,115.254,97.4872,50.338,0.0377294,1.23368,19.633,926.143,5.97027,0.0,0.0
615,153.5,98.5177,118.274,120.121,97.4673,48.0515,0.0372644,1.23973,19.6286,925.803,6.38834,0.0,0.0
620,154.75,98.4204,118.443,119.108,97.4515,52.1977,0.0366003,1.24234,19.6268,925.402,5.63928,0.0,0.0
625,156,98.7061,118.457,123.411,97.4289,48.7279,0.0357622,1.2395,19.6326,925.072,6.25852,0.0,0.0
630,157.25,99.1229,118.708,122.931,97.4142,50.8521,0.0349479,1.22961,19.6441,924.712,5.87173,0.0,0.0
635,158.5,99.0024,118.734,120.348,97.4003,50.2627,0.0341128,1.21184,19.6653,924.392,5.97574,0.0,0.0
640,159.75,99.1184,118.525,127.456,97.3809,47.7045,0.0334487,1.19123,19.7004,924.051,6.44579,0.0,0.0
645,161,98.708,118.088,117.14,97.354,49.0226,0.0330555,1.16991,19.7231,923.771,6.19711,0.0,0.0
650,162.25,98.9455,117.324,123.876,97.3211,49.7802,0.03269,1.15255,19.7426,923.421,6.05552,0.0,0.0
655,163.5,97.7367,116.899,118.191,97.2933,50.0256,0.0324035,1.14279,19.755,923.22,6.00853,0.0,0.0
660,164.75,98.58,117.324,116.551,97.2719,50.9692,0.0320811,1.13179,19.7654,922.79,5.83775,0.0,0.0
665,166,98.1235,116.234,123.174,97.2279,49.4392,0.0317824,1.12236,19.7761,922.44,6.10896,0.0,0.0
670,167.25,98.2207,117.198,124.301,97.1891,48.0131,0.0315488,1.11463,19.783,922.17,6.36973,0.0,0.0
675,168.5,98.5378,116.427,119.25,97.1807,47.4885,0.0313928,1.10959,19.7871,921.779,6.46821,0.0,0.0
680,169.75,98.0585,116.474,125.883,97.1244,47.301,0.0313614,1.10781,19.7891,921.449,6.49869,0.0,0.0
685,171,97.6359,116.412,124.857,97.0856,49.3433,0.0314076,1.10779,19.7884,921.099,6.11328,0.0,0.0
690,172.25,97.7513,115.83,117.989,97.0563,48.2243,0.031673,1.11059,19.7847,920.758,6.31775,0.0,0.0
695,173.5,98.2107,116.113,119.78,97.015,49.3444,0.031985,1.11396,19.7781,920.478,6.10651,0.0,0.0
700,174.75,97.2126,115.589,117.174,96.958,47.199,0.0323261,1.11753,19.7721,920.108,6.5027,0.0,0.0
705,176,98.0731,115.457,122.471,96.9322,50.0734,0.0326281,1.12354,19.7636,919.838,5.96631,0.0,0.0
710,177.25,98.153,115.447,117.633,96.891,47.1494,0.0328905,1.12963,19.7564,919.447,6.50597,0.0,0.0
715,178.5,98.2042,115.304,122.533,96.8656,49.3369,0.0331778,1.13403,19.7518,919.157,6.09396,0.0,0.0
720,179.75,97.9048,116.013,121.635,96.8145,48.3071,0.0334844,1.13693,19.7498,918.747,6.27972,0.0,0.0
725,181,98.2346,115.482,119.545,96.778,49.035,0.0337094,1.1384,19.7489,918.396,6.14122,0.0,0.0
730,182.25,98.0256,115.693,125.009,96.7356,50.4645,0.0338153,1.13893,19.7475,918.036,5.8777,0.0,0.0
735,183.5,98.1477,115.822,121.765,96.686,48.2273,0.0338094,1.14011,19.7462,917.776,6.28266,0.0,0.0
740,184.75,98.366,115.5,123.539,96.646,49.4761,0.0337313,1.14228,19.7437,917.365,6.048,0.0,0.0
745,186,98.2306,115.35,119.997,96.6143,49.0207,0.0336452,1.14674,19.7372,917.125,6.12856,0.0,0.0
750,187.25,98.3744,115.647,111.362,96.5798,48.3086,0.0336518,1.15107,19.7319,916.755,6.25751,0.0,0.0
755,188.5,98.4442,115.401,121.133,96.535,49.2687,0.0337789,1.15454,19.7288,916.435,6.07556,0.0,0.0
760,189.75,98.9433,115.321,117.466,96.4977,50.3862,0.0339865,1.15558,19.7301,916.074,5.86949,0.0,0.0
765,191,99.0269,115.376,123.229,96.4724,52.1698,0.0341652,1.15227,19.7353,915.744,5.55289,0.0,0.0
770,192.25,98.4446,115.893,119.182,96.4371,51.2744,0.0342794,1.14704,19.7418,915.384,5.70596,0.0,0.0
775,193.5,98.2034,116.175,117.995,96.3947,48.8062,0.0343014,1.14143,19.75,915.083,6.14762,0.0,0.0
780,194.75,98.5516,115.747,125.286,96.3566,49.3429,0.0341614,1.1371,19.7548,914.763,6.04527,0.0,0.0
785,196,98.8712,115.588,123.544,96.3316,51.3975,0.0338525,1.13241,19.7617,914.453,5.67443,0.0,0.0
790,197.25,98.3494,115.696,123.787,96.2952,53.1115,0.0335169,1.12682,19.7694,914.042,5.37469,0.0,0.0
795,198.5,98.2686,116.021,122.848,96.2563,51.2492,0.0332576,1.12125,19.7768,913.782,5.69346,0.0,0.0
800,199.75,98.7247,115.421,126.744,96.2211,53.308,0.0329185,1.11351,19.784,913.442,5.33439,0.0,0.0
805,201,97.8844,115.288,127.259,96.2004,51.8179,0.0326164,1.10627,19.7933,913.102,5.58853,0.0,0.0
810,202.25,98.5856,115.836,120.381,96.1576,49.4065,0.0323044,1.09719,19.8045,912.831,6.01496,0.0,0.0
815,203.5,99.1453,115.321,120.61,96.1295,50.9816,0.0320253,1.08511,19.823,912.521,5.72884,0.0,0.0
820,204.75,98.4832,115.335,123.399,96.1021,53.8722,0.0318023,1.07246,19.8414,912.201,5.22812,0.0,0.0
825,206,98.5761,115.015,125.476,96.0787,54.9893,0.0316653,1.06075,19.8532,911.921,5.04053,0.0,0.0
830,207.25,98.7101,114.536,122.644,96.0573,52.6471,0.0316162,1.05315,19.8609,911.58,5.43169,0.0,0.0
835,208.5,98.2812,114.414,127.733,96.0312,49.8209,0.0316356,1.04786,19.8643,911.31,5.92763,0.0,0.0
840,209.75,98.2738,114.419,117.886,95.9971,52.6866,0.0317298,1.04362,19.8665,910.97,5.41925,0.0,0.0
845,211,98.2573,114.422,119.898,95.9808,49.402,0.0318724,1.04169,19.867,910.649,5.99916,0.0,0.0
850,212.25,97.6858,114.349,123.107,95.9685,52.6365,0.0320666,1.0408,19.8669,910.359,5.42515,0.0,0.0
855,213.5,98.1172,113.995,123.327,95.9372,51.8774,0.0324801,1.04194,19.8654,910.009,5.55342,0.0,0.0
860,214.75,97.9502,114.044,124.628,95.9301,50.2631,0.0329868,1.04626,19.862,909.719,5.83829,0.0,0.0
865,216,97.9443,113.553,119.312,95.913,49.6944,0.0339574,1.05347,19.8524,909.368,5.93947,0.0,0.0
870,217.25,98.0455,113.99,129.003,95.8976,50.0587,0.0349094,1.06082,19.8417,909.018,5.87203,0.0,0.0
875,218.5,98.086,113.954,120.561,95.8932,50.6907,0.0356181,1.06846,19.8353,908.688,5.75831,0.0,0.0
880,219.75,97.9948,114.272,127.001,95.8659,52.7111,0.035991,1.07089,19.8307,908.357,5.4027,0.0,0.0
885,221,97.8264,114.721,118.192,95.873,50.545,0.0360611,1.07091,19.8269,908.037,5.78239,0.0,0.0
890,222.25,98.3785,114.184,116.629,95.8504,52.4277,0.0360121,1.07179,19.8247,907.727,5.44994,0.0,0.0
895,223.5,97.9647,114.014,121.011,95.848,51.4084,0.0360216,1.07427,19.821,907.367,5.62705,0.0,0.0
900,224.75,98.3474,113.931,119.579,95.8488,49.2823,0.0361753,1.07968,19.8125,907.026,6.00864,0.0,0.0
905,226,98.9947,114.046,119.463,95.835,52.0607,0.0364173,1.08947,19.7999,906.706,5.51193,0.0,0.0
910,227.25,98.9107,114.712,118.17,95.8298,52.4702,0.0370181,1.10059,19.7858,906.306,5.44067,0.0,0.0
915,228.5,98.4019,114.063,120.496,95.8298,51.148,0.0378525,1.1123,19.77,905.975,5.67121,0.0,0.0
920,229.75,98.6331,114.615,120.691,95.8338,47.8799,0.0388115,1.1243,19.7559,905.565,6.26799,0.0,0.0
925,231,98.4852,115.091,118.992,95.8445,47.4862,0.0398686,1.1402,19.7357,905.275,6.34357,0.0,0.0
930,232.25,98.4961,114.505,119.314,95.8278,52.4999,0.0408497,1.15647,19.7147,904.844,5.43537,0.0,0.0
935,233.5,99.5763,114.963,116.954,95.8369,47.3906,0.0418336,1.17522,19.6918,904.554,6.36107,0.0,0.0
940,234.75,99.2678,115.806,117.918,95.8373,49.8261,0.0429304,1.19564,19.6677,904.154,5.90842,0.0,0.0
945,236,99.5791,115.453,112.853,95.8409,48.4637,0.0444316,1.21535,19.6446,903.793,6.15919,0.0,0.0
950,237.25,100.626,116.285,117.292,95.8405,48.3523,0.0457355,1.23753,19.6217,903.403,6.17995,0.0,0.0
955,238.5,100.408,116.419,115.565,95.8544,47.266,0.0469247,1.26518,19.5936,902.983,6.38649,0.0,0.0
960,239.75,101.226,116.958,109.87,95.879,48.7998,0.0478157,1.29081,19.5613,902.532,6.10035,0.0,0.0
965,241,101.362,118.076,116.734,95.8572,50.1818,0.0484487,1.31902,19.5253,902.182,5.84604,0.0,0.0
970,242.25,102.145,118.702,113.785,95.9,49.2074,0.0489966,1.34445,19.4952,901.732,6.0272,0.0,0.0
975,243.5,103.232,119.042,117.639,95.892,47.8923,0.0494041,1.36617,19.4724,901.351,6.27113,0.0,0.0
980,244.75,103.638,119.819,117.708,95.9119,47.9006,0.0497987,1.39109,19.44,900.881,6.27144,0.0,0.0
985,246,103.74,121.13,104.895,95.9285,48.4817,0.0498942,1.42664,19.397,900.41,6.16408,0.0,0.0
990,247.25,104.946,121.379,112.102,95.9444,48.8867,0.0497628,1.45525,19.3626,899.98,6.09043,0.0,0.0
995,248.5,105.384,122.881,112.449,95.9678,47.7508,0.0493779,1.48358,19.3452,899.61,6.30499,0.0,0.0
1000,249.75,106.088,123.527,116.622,95.9876,49.2898,0.0486431,1.49913,19.3335,899.179,6.02033,0.0,0.0
1005,251,106.48,124.078,116.955,96.005,50.0264,0.0477481,1.50385,19.3346,898.789,5.88798,0.0,0.0
1010,252.25,106.685,124.242,115.032,96.009,53.4047,0.0466122,1.50129,19.3416,898.359,5.29808,0.0,0.0
1015,253.5,107.312,125.038,113.506,96.0447,51.1107,0.0455982,1.49477,19.3541,897.958,5.69802,0.0,0.0
1020,254.75,107.355,126.091,112.833,96.0653,50.428,0.0448748,1.48379,19.3684,897.558,5.82143,0.0,0.0
1025,256,108.303,126.176,114.933,96.0894,49.936,0.0444161,1.47116,19.3836,897.208,5.91225,0.0,0.0
1030,257.25,108.458,126.612,118.661,96.1124,51.8458,0.0441726,1.45906,19.3972,896.767,5.57541,0.0,0.0
1035,258.5,108.669,126.763,113.822,96.1279,50.4656,0.04407,1.44833,19.4115,896.387,5.82058,0.0,0.0
1040,259.75,109.324,126.79,116.238,96.1497,51.5718,0.0440233,1.43477,19.4257,895.967,5.62677,0.0,0.0
1045,261,109.245,127.587,115.697,96.1723,51.2236,0.0439634,1.4226,19.4389,895.626,5.69008,0.0,0.0
1050,262.25,109.306,127.688,114.767,96.1985,50.1909,0.0438766,1.41424,19.4471,895.206,5.87652,0.0,0.0
1055,263.5,109.354,128.229,112.324,96.2179,49.0241,0.0437252,1.41011,19.4511,894.806,6.0908,0.0,0.0
1060,264.75,109.135,128.162,113.977,96.2302,49.0798,0.0434005,1.40788,19.4535,894.445,6.0817,0.0,0.0
1065,266,109.972,128.704,114.765,96.2591,49.8894,0.0430089,1.40825,19.4538,894.125,5.93663,0.0,0.0
1070,267.25,109.551,128.363,121.701,96.2908,52.5966,0.0426687,1.40969,19.4538,893.695,5.46228,0.0,0.0
1075,268.5,110.339,129.067,118.382,96.2916,50.224,0.0424749,1.40815,19.4555,893.274,5.8793,0.0,0.0
1080,269.75,110.334,129.109,119.192,96.3364,49.1167,0.0424054,1.4001,19.4676,892.874,6.08488,0.0,0.0
1085,271,110.1,128.803,117.389,96.3594,51.7777,0.0423256,1.38597,19.4872,892.544,5.61047,0.0,0.0
1090,272.25,110.533,128.993,115.383,96.3812,51.6565,0.0421805,1.36349,19.516,892.113,5.63368,0.0,0.0
1095,273.5,110.709,128.87,113.013,96.3915,54.669,0.042018,1.34192,19.5423,891.803,5.12266,0.0,0.0
1100,274.75,110.347,128.551,125.271,96.4149,54.6754,0.0419148,1.3254,19.5605,891.373,5.12379,0.0,0.0
1105,276,110.512,129.106,122.286,96.4498,51.0573,0.0418315,1.31311,19.572,891.022,5.74549,0.0,0.0
1110,277.25,110.211,128.791,117.556,96.4688,51.0441,0.0417453,1.30508,19.579,890.642,5.7496,0.0,0.0
1115,278.5,109.82,128.872,114.078,96.487,50.373,0.0417735,1.30034,19.5824,890.272,5.87085,0.0,0.0
1120,279.75,110.142,128.352,121.935,96.5045,49.8864,0.0419279,1.29907,19.5822,889.871,5.96017,0.0,0.0
1125,281,110.096,128.127,120.299,96.5302,50.2364,0.042124,1.29912,19.5822,889.441,5.89943,0.0,0.0
1130,282.25,110.286,127.806,119.877,96.5441,46.8404,0.0420862,1.29677,19.5821,889.101,6.53297,0.0,0.0
1135,283.5,109.9,127.948,122.085,96.5604,49.1125,0.0416964,1.28614,19.5885,888.75,6.10661,0.0,0.0
1140,284.75,110.135,127.71,118.073,96.6032,50.9489,0.0406926,1.26335,19.6141,888.41,5.77904,0.0,0.0
1145,286,109.555,127.077,124.496,96.6345,54.0833,0.0395787,1.24317,19.6545,888.12,5.24269,0.0,0.0
1150,287.25,109.149,126.372,123.547,96.642,52.209,0.0384838,1.19971,19.7128,887.799,5.56199,0.0,0.0
1155,288.5,108.9,125.507,122.804,96.6801,53.4736,0.0373793,1.15871,19.768,887.479,5.34936,0.0,0.0
1160,289.75,107.677,125.389,127.378,96.7114,57.1997,0.0362621,1.11919,19.815,887.129,4.74383,0.0,0.0
1165,291,107.389,124.995,123.142,96.7399,57.0623,0.0348914,1.08108,19.8565,886.859,4.76821,0.0,0.0
1170,292.25,107.253,123.455,125.466,96.7685,57.5659,0.0330858,1.04562,19.8952,886.558,4.69151,0.0,0.0
1175,293.5,106.782,122.718,123.522,96.7879,57.6646,0.0312012,1.01297,19.9333,886.338,4.67787,0.0,0.0
1180,294.75,105.945,122.062,129.166,96.8279,58.8562,0.0291124,0.98352,19.9677,886.078,4.49685,0.0,0.0
1185,296,104.644,121.513,126.209,96.8505,58.8279,0.0270339,0.955216,19.9974,885.798,4.50329,0.0,0.0
1190,297.25,104.638,120.31,124.744,96.866,56.7552,0.0249254,0.929329,20.0233,885.567,4.82872,0.0,0.0
1195,298.5,104.2,119.576,124.83,96.9167,58.7116,0.0229719,0.906867,20.0476,885.327,4.52733,0.0,0.0
1200,299.75,102.871,119.494,126.293,96.9445,60.225,0.021048,0.887636,20.0715,885.067,4.30003,0.0,0.0
1205,301,102.579,117.628,124.86,96.979,59.3654,0.0193257,0.866122,20.0965,884.877,4.43311,0.0,0.0
1210,302.25,102.761,117.012,127.758,97.0055,58.6906,0.017734,0.845073,20.1215,884.657,4.53885,0.0,0.0
1215,303.5,101.69,115.743,122.367,97.0269,61.1212,0.0161912,0.825093,20.1407,884.477,4.1743,0.0,0.0
1220,304.75,101.682,115.993,130.251,97.0642,62.4091,0.0147516,0.805735,20.1615,884.276,3.9894,0.0,0.0
1225,306,100.965,114.708,125.671,97.09,61.7753,0.013704,0.786224,20.1796,884.076,4.084,0.0,0.0
1230,307.25,99.6545,113.559,129.876,97.1209,62.1408,0.012794,0.767956,20.1999,883.806,4.0336,0.0,0.0
1235,308.5,99.8822,113.113,130.766,97.1506,62.5119,0.0120049,0.750578,20.2205,883.616,3.98258,0.0,0.0
1240,309.75,99.5759,112.753,125.829,97.2006,62.143,0.0114084,0.732956,20.2402,883.476,4.04068,0.0,0.0
1245,311,97.9415,111.576,132.596,97.2168,67.1089,0.010744,0.715641,20.2599,883.285,3.34777,0.0,0.0
1250,312.25,98.3605,110.1,125.315,97.2485,66.0103,0.010104,0.696902,20.2817,883.115,3.49981,0.0,0.0
1255,313.5,98.0732,110.275,129.495,97.2889,68.6291,0.00950192,0.68063,20.2989,882.925,3.15214,0.0,0.0
1260,314.75,96.6889,109.287,131.336,97.3155,69.9431,0.00891906,0.666146,20.3156,882.735,2.9833,0.0,0.0
1265,316,96.6196,108.995,129.522,97.3357,69.4602,0.0084383,0.652888,20.3306,882.495,3.04776,0.0,0.0
1270,317.25,96.49,107.724,126.72,97.3559,69.966,0.00804915,0.640925,20.3425,882.365,2.98409,0.0,0.0
1275,318.5,95.2333,107.544,130.9,97.3849,72.1505,0.00771274,0.630727,20.351,882.194,2.70907,0.0,0.0
1280,319.75,95.6373,106.788,129.112,97.4071,71.6119,0.00726699,0.620654,20.3614,882.064,2.77881,0.0,0.0
1285,321,94.8581,106.354,131.752,97.4265,74.4118,0.00678842,0.611805,20.3739,881.894,2.43418,0.0,0.0
1290,322.25,94.0315,105.188,126.375,97.4606,72.6895,0.00638894,0.600014,20.3897,881.704,2.64886,0.0,0.0
1295,323.5,93.8405,105.372,131.915,97.4844,75.7249,0.00607797,0.58785,20.4018,881.554,2.28153,0.0,0.0
1300,324.75,93.4837,104.575,131.611,97.5018,75.7246,0.00583757,0.577102,20.4119,881.444,2.28319,0.0,0.0
1305,326,93.4698,103.908,128.481,97.5244,75.7298,0.005654,0.567456,20.4218,881.314,2.28465,0.0,0.0
1310,327.25,92.6499,103.407,130.412,97.551,75.8778,0.00550816,0.557984,20.4322,881.144,2.26949,0.0,0.0
1315,328.5,92.5089,103.097,128.589,97.5767,75.3064,0.00534901,0.548374,20.4408,880.983,2.34014,0.0,0.0
1320,329.75,92.0528,102.603,129.682,97.5894,75.5488,0.00515117,0.539063,20.4518,880.863,2.31229,0.0,0.0
1325,331,92.3092,101.302,131.986,97.6005,77.0103,0.00494109,0.529956,20.4621,880.743,2.14025,0.0,0.0
1330,332.25,91.514,101.239,129.077,97.6207,74.9033,0.00475813,0.518734,20.4757,880.633,2.39269,0.0,0.0
1335,333.5,90.9623,100.48,134.006,97.6429,77.1973,0.00463916,0.505678,20.4922,880.533,2.12226,0.0,0.0
1340,334.75,90.6575,99.8238,132.933,97.6505,80.3152,0.00457074,0.491792,20.5123,880.393,1.76531,0.0,0.0
1345,336,89.8662,99.5256,136.338,97.6707,80.9472,0.00451425,0.477985,20.5298,880.273,1.69639,0.0,0.0
1350,337.25,89.9974,98.3271,131.886,97.6838,80.5798,0.00445863,0.465687,20.5427,880.173,1.73868,0.0,0.0
1355,338.5,89.1443,98.2561,131.503,97.6941,81.3397,0.00440342,0.453808,20.5542,880.073,1.65485,0.0,0.0
1360,339.75,88.3877,97.0973,132.389,97.6992,78.9584,0.00435973,0.442587,20.5678,879.983,1.92372,0.0,0.0
1365,341,89.167,97.221,135.049,97.7135,79.7687,0.00434431,0.431376,20.5819,879.852,1.83281,0.0,0.0
1370,342.25,88.4973,96.3634,133.06,97.7238,82.4783,0.00435112,0.419412,20.5958,879.752,1.53205,0.0,0.0
1375,343.5,87.6001,95.9616,130.085,97.727,81.1576,0.00434823,0.407814,20.6094,879.672,1.67815,0.0,0.0
1380,344.75,87.0036,94.8932,133.114,97.7309,81.6371,0.00431078,0.396686,20.6207,879.582,1.6253,0.0,0.0
1385,346,86.7479,94.5233,135.51,97.7365,86.07,0.00426178,0.385537,20.6318,879.472,1.14818,0.0,0.0
1390,347.25,86.1305,93.9381,133.927,97.771,85.3451,0.00421691,0.373342,20.644,879.402,1.22777,0.0,0.0
1395,348.5,85.8065,92.5912,136.395,97.7452,87.4204,0.00416941,0.359676,20.6639,879.352,1.00837,0.0,0.0
1400,349.75,84.7625,92.3283,132.785,97.7515,90.2809,0.00411697,0.342982,20.686,879.282,0.71813,0.0,0.0
1405,351,84.4505,92.1272,137.783,97.7654,90.7356,0.00408371,0.325281,20.7027,879.242,0.674035,0.0,0.0
1410,352.25,83.9824,90.7573,135.442,97.767,91.64,0.00406986,0.308009,20.7198,879.192,0.584592,0.0,0.0
1415,353.5,83.4036,90.395,137.319,97.7626,92.0969,0.0040926,0.290137,20.7372,879.142,0.539263,0.0,0.0
1420,354.75,82.5327,89.6106,137.447,97.7615,92.8997,0.00412577,0.27525,20.7589,879.142,0.460756,0.0,0.0
1425,356,81.9221,88.5034,138.392,97.7733,94.4624,0.00415028,0.254558,20.7832,879.092,0.311174,0.0,0.0
1430,357.25,81.1199,87.9438,137.837,97.7829,93.6502,0.004139,0.236407,20.8039,879.072,0.390056,0.0,0.0
1435,358.5,80.6362,87.0141,136.149,97.7904,95.0439,0.00410636,0.220769,20.8194,879.062,0.257316,0.0,0.0
1440,359.75,80.0307,86.2241,138.46,97.8007,94.52,0.0040876,0.207593,20.8321,879.012,0.308197,0.0,0.0
1445,361,79.6403,85.2339,142.223,97.7971,94.9235,0.00411063,0.196275,20.8424,878.952,0.269391,0.0,0.0
1450,362.25,79.0868,84.74,141.856,97.7932,95.1697,0.00417209,0.186849,20.8507,878.932,0.245632,0.0,0.0
1455,363.5,78.5805,83.524,141.711,97.8003,94.8275,0.00420504,0.179092,20.8567,878.942,0.278821,0.0,0.0
1460,364.75,77.6371,82.8588,139.829,97.8035,94.0887,0.00421164,0.172438,20.8623,878.892,0.349767,0.0,0.0
1465,366,78.0418,82.524,139.732,97.8209,94.6875,0.00416506,0.167696,20.8665,878.902,0.294072,0.0,0.0
1470,367.25,77.0458,81.4965,138.463,97.8336,95.3492,0.00412603,0.16261,20.8694,878.882,0.232343,0.0,0.0
1475,368.5,76.6906,80.9782,141.201,97.8253,95.5705,0.0040678,0.158404,20.873,878.882,0.210633,0.0,0.0
1480,369.75,75.5372,79.3873,142.511,97.8261,95.3597,0.00398788,0.154843,20.8758,878.872,0.230649,0.0,0.0
1485,371,75.5444,79.7478,142.529,97.8411,95.4986,0.00391582,0.15159,20.8774,878.842,0.218894,0.0,0.0
1490,372.25,74.9915,79.0847,145.351,97.8364,95.4418,0.00387469,0.149417,20.8795,878.822,0.223833,0.0,0.0
1495,373.5,74.2997,77.9484,143.851,97.8451,95.4854,0.0038364,0.147089,20.8819,878.771,0.220506,0.0,0.0
1500,374.75,73.7464,78.1238,138.25,97.8475,95.1392,0.00378384,0.14484,20.8838,878.781,0.253541,0.0,0.0
1505,376,74.4297,76.9696,136.219,97.859,95.7338,0.00376349,0.142888,20.8855,878.771,0.198318,0.0,0.0
1510,377.25,73.2685,76.4961,141.243,97.8554,95.8629,0.00377504,0.14099,20.8867,878.751,0.185816,0.0,0.0
1515,378.5,72.7761,76.7207,139.713,97.8614,95.4444,0.00379661,0.13923,20.8887,878.732,0.225888,0.0,0.0
1520,379.75,72.3738,76.7188,140.231,97.878,95.4301,0.00383291,0.137528,20.8906,878.721,0.228778,0.0,0.0
1525,381,72.5766,75.4375,138.311,97.8689,96.1625,0.00387776,0.135989,20.8916,878.701,0.158875,0.0,0.0
1530,382.25,71.6964,75.4914,138.724,97.8824,96.0865,0.00389252,0.134506,20.8935,878.711,0.167263,0.0,0.0
1535,383.5,72.096,74.7281,142.939,97.8796,95.7948,0.0038548,0.133336,20.8953,878.701,0.194469,0.0,0.0
1540,384.75,70.6554,73.7407,140.508,97.8974,96.0639,0.00375196,0.132261,20.8964,878.681,0.170776,0.0,0.0
1545,386,70.4636,73.6091,142.555,97.9093,96.519,0.00365057,0.131299,20.897,878.681,0.129188,0.0,0.0
1550,387.25,70.4656,73.0289,142.219,97.8907,96.0191,0.00356381,0.13039,20.8982,878.711,0.174367,0.0,0.0
1555,388.5,69.6486,72.0961,142.992,97.9034,96.4779,0.00352518,0.129716,20.899,878.641,0.132479,0.0,0.0
1560,389.75,69.0624,71.318,141.097,97.9081,96.3259,0.00353846,0.129249,20.8997,878.621,0.147166,0.0,0.0
1565,391,68.9907,71.9443,143.211,97.9137,96.26,0.00356335,0.128631,20.9009,878.581,0.153856,0.0,0.0
1570,392.25,69.2363,70.6545,139.009,97.9022,95.4169,0.00357586,0.128173,20.9014,878.601,0.232256,0.0,0.0
1575,393.5,68.4054,70.6758,144.114,97.9176,95.738,0.00359267,0.127621,20.9018,878.551,0.203342,0.0,0.0
1580,394.75,68.4175,70.638,138.492,97.9093,96.1911,0.0036316,0.126909,20.9029,878.521,0.159919,0.0,0.0
1585,396,68.3135,70.141,139.202,97.9065,95.9119,0.00367526,0.126315,20.9043,878.531,0.185926,0.0,0.0
1590,397.25,67.9611,69.6567,139.311,97.9125,96.3756,0.0037215,0.125892,20.9053,878.511,0.14291,0.0,0.0
1595,398.5,67.7221,69.843,140.544,97.9184,96.8664,0.00373712,0.125462,20.9061,878.501,0.097577,0.0,0.0
1600,399.75,67.2093,69.2072,143.104,97.9097,95.9649,0.00375159,0.124921,20.9076,878.521,0.181222,0.0,0.0
1605,401,66.1965,68.3264,142.236,97.9125,96.1738,0.00377287,0.124351,20.909,878.511,0.161837,0.0,0.0
1610,402.25,67.2751,68.6276,142.486,97.9204,96.8524,0.00381702,0.123934,20.9107,878.511,0.0990575,0.0,0.0
1615,403.5,66.9029,68.3068,140.003,97.9228,96.7237,0.00386622,0.123487,20.9117,878.481,0.11129,0.0,0.0
1620,404.75,65.5543,67.0243,141.841,97.9379,96.6183,0.00390638,0.122895,20.9132,878.461,0.122526,0.0,0.0
1625,406,65.9594,67.9386,141.575,97.9109,96.1328,0.00391339,0.122076,20.9144,878.431,0.165546,0.0,0.0
1630,407.25,65.7737,67.4053,139.887,97.9176,96.3153,0.0038946,0.121079,20.9158,878.391,0.149031,0.0,0.0
1635,408.5,65.0354,66.7212,140.508,97.9279,96.3315,0.00387253,0.120032,20.9176,878.401,0.148465,0.0,0.0
1640,409.75,64.9573,67.5237,141.807,97.9188,96.6131,0.00387219,0.119142,20.9187,878.411,0.121265,0.0,0.0
1645,411,64.9645,66.5009,142.687,97.9168,95.6401,0.00388022,0.118428,20.9193,878.391,0.212506,0.0,0.0
1650,412.25,63.728,65.6359,137.099,97.9331,96.5449,0.00388775,0.11774,20.9201,878.391,0.128952,0.0,0.0
1655,413.5,65.1963,66.1062,143.106,97.9188,96.3865,0.00390163,0.117176,20.9218,878.381,0.142473,0.0,0.0
1660,414.75,64.6476,65.8804,143.773,97.9319,96.1287,0.00392003,0.116713,20.9231,878.371,0.167872,0.0,0.0
1665,416,64.5105,65.1446,140.746,97.9335,96.6311,0.00396263,0.11646,20.9238,878.341,0.120928,0.0,0.0
1670,417.25,64.0009,65.5655,145.232,97.9264,96.8603,0.00401257,0.116142,20.9243,878.311,0.098869,0.0,0.0
1675,418.5,63.8382,65.2664,139.728,97.9375,96.2378,0.00402408,0.115854,20.9245,878.301,0.158134,0.0,0.0
1680,419.75,64.1403,64.6203,142.84,97.9331,95.7316,0.00397295,0.11567,20.9247,878.301,0.205371,0.0,0.0
1685,421,63.763,64.6085,139.85,97.9303,96.1369,0.0039044,0.115492,20.9248,878.291,0.166948,0.0,0.0
1690,422.25,62.7628,64.1738,145.576,97.9379,96.0338,0.00382118,0.115456,20.9249,878.311,0.177338,0.0,0.0
1695,423.5,63.0582,64.1006,142.481,97.9422,96.0651,0.00378108,0.115337,20.9253,878.291,0.174802,0.0,0.0
1700,424.75,62.6177,63.9627,139.5,97.9375,96.2363,0.00378174,0.115153,20.9259,878.291,0.158275,0.0,0.0
1705,426,63.133,64.2503,140.408,97.9375,96.1558,0.00382331,0.115044,20.9262,878.281,0.165838,0.0,0.0
1710,427.25,63.0494,63.8173,142.443,97.9525,96.7,0.00387902,0.115132,20.9264,878.281,0.116247,0.0,0.0
1715,428.5,62.8319,63.3209,143.856,97.9462,95.7734,0.00391577,0.115183,20.9267,878.261,0.202636,0.0,0.0
1720,429.75,62.2447,63.6529,137.051,97.9505,96.1479,0.00393275,0.115243,20.9276,878.241,0.167787,0.0,0.0
1725,431,62.1366,62.8606,144.54,97.9486,96.4117,0.00396708,0.115167,20.9282,878.281,0.142851,0.0,0.0
1730,432.25,62.0546,63.1868,141.217,97.9525,96.1719,0.00402185,0.114964,20.9284,878.211,0.165707,0.0,0.0
1735,433.5,62.3507,63.1364,142.763,97.9565,96.4678,0.00411231,0.11484,20.9286,878.221,0.138331,0.0,0.0
1740,434.75,61.7061,62.5801,143.165,97.9601,96.286,0.00418442,0.114766,20.9288,878.191,0.155697,0.0,0.0
1745,436,61.3052,62.028,141.5,97.9585,96.4772,0.00419969,0.114619,20.9289,878.151,0.137632,0.0,0.0
1750,437.25,61.2269,62.2949,143.876,97.9648,96.2608,0.00414913,0.114391,20.9297,878.151,0.158503,0.0,0.0
1755,438.5,61.482,61.6069,142.762,97.9533,96.2849,0.00406745,0.114233,20.9304,878.151,0.155182,0.0,0.0
1760,439.75,60.745,61.7896,136.741,97.9656,96.6334,0.00401561,0.114139,20.9307,878.111,0.123677,0.0,0.0
1765,441,61.0949,61.543,141.457,97.9525,96.7982,0.00402414,0.114166,20.931,878.091,0.107076,0.0,0.0
1770,442.25,60.8622,61.4514,141.597,97.9549,96.3142,0.00407715,0.114278,20.9311,878.081,0.152575,0.0,0.0
1775,443.5,60.471,61.5304,145.485,97.9462,96.7629,0.0041549,0.114377,20.9312,878.071,0.109792,0.0,0.0
1780,444.75,59.8598,60.4711,141.234,97.9569,97.0564,0.00420912,0.114463,20.9312,878.081,0.0834155,0.0,0.0
1785,446,60.5467,60.989,141.767,97.9632,96.4659,0.00423366,0.114607,20.9313,878.091,0.139128,0.0,0.0
1790,447.25,60.0928,61.2111,150.15,97.9529,96.8901,0.00423232,0.114702,20.9316,878.071,0.0985463,0.0,0.0
1795,448.5,59.7587,60.1731,146.17,97.9581,96.9221,0.00422609,0.114707,20.9317,878.061,0.0960397,0.0,0.0
1800,449.75,60.0609,60.7178,143.419,97.9569,96.8411,0.00423027,0.114635,20.9323,878.051,0.103474,0.0,0.0
1805,451,59.4458,60.6907,145.559,97.9565,96.4644,0.00424108,0.11456,20.9331,878.021,0.138648,0.0,0.0
1810,452.25,58.8964,60.056,141.55,97.9545,96.6055,0.00423748,0.114575,20.9336,878.021,0.125258,0.0,0.0
1815,453.5,59.5893,60.0523,140.12,97.949,96.1565,0.00426037,0.114629,20.9339,878.001,0.166828,0.0,0.0
1820,454.75,59.9859,60.393,142.939,97.9569,96.0839,0.00432238,0.114597,20.934,877.971,0.174385,0.0,0.0
1825,456,59.2913,59.8029,144.622,97.9426,96.4369,0.0044166,0.114487,20.9342,877.951,0.139941,0.0,0.0
1830,457.25,59.4937,60.0596,145.831,97.947,96.4817,0.00449503,0.114344,20.9342,877.911,0.136149,0.0,0.0
1835,458.5,59.15,59.9115,143.955,97.9533,96.7561,0.00451732,0.114237,20.9342,877.911,0.111082,0.0,0.0
1840,459.75,58.7974,60.0088,142.061,97.941,96.5995,0.00447957,0.114182,20.9349,877.931,0.124579,0.0,0.0
1845,461,59.2716,59.9743,143.086,97.9454,96.7723,0.00439817,0.114129,20.9356,877.921,0.108841,0.0,0.0
1850,462.25,58.8518,59.8604,145.344,97.9315,96.8182,0.00428534,0.11401,20.936,877.921,0.103276,0.0,0.0
1855,463.5,58.8827,59.4414,141.364,97.9367,96.3876,0.00419379,0.113793,20.9363,877.911,0.144013,0.0,0.0
1860,464.75,58.7293,59.313,140.846,97.939,96.8306,0.00415117,0.11358,20.9364,877.911,0.102812,0.0,0.0
1865,466,58.8284,59.049,145.699,97.9351,96.3086,0.00417155,0.113515,20.9365,877.911,0.151275,0.0,0.0
1870,467.25,58.452,59.0461,141.954,97.9073,96.0699,0.00420931,0.1134,20.9362,877.891,0.171124,0.0,0.0
1875,468.5,57.9033,58.7901,145.33,97.9137,96.5272,0.00423306,0.113122,20.9368,877.881,0.128815,0.0,0.0
1880,469.75,58.496,59.0592,149.846,97.9125,96.5724,0.0042093,0.112862,20.9372,877.841,0.124479,0.0,0.0
1885,471,57.8583,59.0613,144.078,97.8986,96.1878,0.00417368,0.112756,20.9374,877.811,0.159251,0.0,0.0
1890,472.25,57.9829,58.6918,145.134,97.8867,96.8464,0.00416457,0.112694,20.9375,877.751,0.0965117,0.0,0.0
1895,473.5,58.4205,58.2999,142.483,97.8935,96.3191,0.00420654,0.112658,20.9376,877.761,0.146448,0.0,0.0
1900,474.75,57.6754,58.6551,141.079,97.878,96.2115,0.00426911,0.112553,20.9376,877.791,0.155122,0.0,0.0
1905,476,57.3411,57.7588,143.051,97.8661,96.6307,0.00430891,0.1125,20.9381,877.771,0.114746,0.0,0.0
1910,477.25,57.5285,58.0051,142.464,97.8637,96.6093,0.00430337,0.112333,20.9389,877.741,0.116532,0.0,0.0
1915,478.5,57.4595,58.4554,143.757,97.8705,96.5916,0.00424471,0.112071,20.9393,877.761,0.118808,0.0,0.0
1920,479.75,57.2845,58.0613,142.252,97.859,96.7832,0.0041769,0.111958,20.9396,877.771,0.0998488,0.0,0.0
1925,481,57.5882,57.75,144.35,97.8364,96.7587,0.00413297,0.112021,20.939,877.771,0.100048,0.0,0.0
1930,482.25,56.9585,58.1414,143.181,97.859,96.6082,0.00412322,0.112149,20.9384,877.731,0.116198,0.0,0.0
1935,483.5,57.2912,57.9576,145.937,97.8657,96.633,0.00415253,0.11222,20.9381,877.701,0.114498,0.0,0.0
1940,484.75,57.2697,57.9406,144.609,97.836,96.6221,0.00419887,0.112206,20.9379,877.641,0.112774,0.0,0.0
1945,486,56.9541,57.4662,142.995,97.8352,96.4121,0.00421629,0.11214,20.9388,877.701,0.132356,0.0,0.0
1950,487.25,57.0082,57.8881,149.195,97.8273,96.9168,0.00419583,0.112029,20.9393,877.68,0.08446,0.0,0.0
1955,488.5,57.0287,57.1906,146.914,97.8336,96.2664,0.00418009,0.112008,20.9396,877.731,0.145866,0.0,0.0
1960,489.75,57.0169,57.2376,139.543,97.8098,96.776,0.00416583,0.112049,20.9397,877.68,0.095979,0.0,0.0
1965,491,56.53,56.8715,145.036,97.7983,96.7011,0.00411534,0.112096,20.9399,877.641,0.101911,0.0,0.0
1970,492.25,56.4097,57.0485,143.482,97.7955,96.3526,,0.112073,,877.651,0.134268,0.0,0.0
1975,493.5,56.786,57.5086,143.439,97.7761,96.5769,,0.111999,,877.641,0.111468,0.0,0.0
1980,494.75,56.2097,56.6455,143.071,97.7599,96.7523,,0.111903,,877.641,0.0935783,0.0,0.0
1985,496,56.1861,56.9633,145.141,97.7551,96.3884,,,,877.6,0.127181,0.0,0.0
1990,497.25,55.7221,56.9616,141.675,97.7412,95.8483,,,,877.59,0.176655,0.0,0.0
1995,498.5,56.0125,56.7235,140.743,97.7198,96.7591,,,,877.6,0.0892463,0.0,0.0
2000,499.75,56.4521,57.2365,141.794,97.7171,96.7681,,,,877.57,0.088147,0.0,0.0
2005,501,56.3655,56.3051,142.482,97.7135,96.2852,,,,877.55,0.133005,0.0,0.0
2010,502.25,55.5798,56.4661,142.151,97.7004,96.3936,,,,877.55,0.121632,0.0,0.0
2012,502.75,55.7388,56.2924,141.185,97.6941,96.2167,,,,877.53,0.137637,0.0,0.0