File: 01_Data/PET/Cone/PET_Cone_HF25Scan_220204_R2.csv
Names,Time,Stack TC,Smoke TC,Exh Press,Smoke Comp,Smoke Meas,CO Meter,CO2 Meter,O2 Meter,Sample Mass,Ext Coeff,Start Test,Flame Verif
Chan Gain,,500,500,1,1,1,1,1,1,1,1,1.0,1.0
Offset,,0,0,0.134889,0,0,0,0,0,0,0,0.0,0.0
Gain,,1,1,25.011,12.9892,12.3331,1,1,1,1.00088,1.02973,1.0,1.0
Units,sec,C,C,Pa,%,%,%,%,%,g,/m,,
Baseline,,19.2986,20.5036,143.578,98.2089,98.842,0.000520421,0.0710202,20.9657,-866.781,-0.0580324,,
8,1.75,17.2665,18.463,146.44,97.0059,96.9149,0.000345019,0.0748105,20.9674,94.1326,0.00847893,0.0,0.0
16,3.75,17.7246,18.103,143.866,97.1054,97.507,0.000541408,0.0750179,20.9653,94.0926,-0.0372738,0.0,0.0
24,5.75,17.5573,19.0355,141.771,97.2549,97.5585,0.000538324,0.0758384,20.9613,94.1126,-0.0281582,0.0,0.0
32,7.75,17.7298,17.6523,143.647,97.4372,97.6067,0.000319648,0.0772933,20.959,94.1226,-0.0156981,0.0,0.0
40,9.75,17.5987,18.5985,143.53,97.6338,98.0836,0.000172303,0.0780104,20.9586,94.1026,-0.0415127,0.0,0.0
48,11.75,17.5337,18.9071,145.261,97.8407,98.061,0.000149409,0.0781447,20.9612,94.1026,-0.0203095,0.0,0.0
56,13.75,18.1701,18.9811,143.127,98.0223,98.6775,0.000127191,0.0775557,20.9628,94.1026,-0.0601748,0.0,0.0
64,15.75,17.8704,18.6482,143.683,98.1761,98.4667,3.59299e-05,0.0767525,20.9659,94.0926,-0.0266985,0.0,0.0
72,17.75,17.958,18.7403,138.303,98.2891,98.5025,-6.79615e-05,0.0756651,20.9694,94.0926,-0.0195902,0.0,0.0
80,19.75,18.7172,18.9435,144.302,98.3307,98.2085,-7.83348e-05,0.0746053,20.9712,94.1026,0.0112303,0.0,0.0
88,21.75,17.805,18.6634,142.617,98.3315,98.8156,-1.35972e-05,0.0737488,20.9727,94.0926,-0.0443625,0.0,0.0
96,23.75,17.9021,18.7497,147.294,98.3105,98.685,5.02663e-05,0.0727618,20.9739,94.1026,-0.0343468,0.0,0.0
104,25.75,17.7965,18.7885,141.949,98.2799,98.5318,9.61646e-05,0.0718723,20.9748,94.1326,-0.0231201,0.0,0.0
112,27.75,18.2287,18.932,141.515,98.2098,98.3689,7.10057e-05,0.0713607,20.9757,94.1226,-0.0146179,0.0,0.0
120,29.75,18.3709,18.8037,145.727,98.1333,98.1366,5.59845e-05,0.0708609,20.9752,94.1426,-0.000308504,0.0,0.0
128,31.75,18.058,19.2334,145.148,98.0544,98.2808,0.000113955,0.0706587,20.975,94.1426,-0.0208302,0.0,0.0
136,33.75,17.6216,18.9721,147.062,98.1186,98.7701,0.000222827,0.070561,20.9747,94.1126,-0.0597737,0.0,0.0
144,35.75,18.06,18.8362,146.043,98.4595,98.9338,0.000236896,0.0705541,20.9736,94.1026,-0.0434054,0.0,0.0
152,37.75,17.9729,19.0771,144.55,98.7156,99.195,0.000151206,0.0706236,20.9728,94.0926,-0.0437603,0.0,0.0
160,39.75,18.4607,19.2944,144.957,98.8163,99.3211,2.33175e-05,0.0705815,20.9724,94.1226,-0.0460263,0.0,0.0
168,41.75,17.8352,19.0076,143.448,98.8282,99.0798,-9.64469e-05,0.0710053,20.9703,94.1426,-0.0229723,0.0,0.0
176,43.75,18.1954,19.0778,144.726,98.7188,98.7091,-0.000114652,0.0725339,20.9655,94.0926,0.000883998,0.0,0.0
184,45.75,18.194,19.2265,146.596,98.4877,98.7799,-1.0885e-05,0.0741989,20.9627,94.0926,-0.0267584,0.0,0.0
192,47.75,18.4421,19.3092,145.372,98.2688,98.3056,0.000199262,0.0752305,20.9619,94.1026,-0.00337958,0.0,0.0
200,49.75,18.1003,19.1389,143,98.3913,98.4682,0.000299612,0.0755807,20.9641,94.1026,-0.00705516,0.0,0.0
208,51.75,18.5756,19.7856,141.971,98.5582,98.8446,0.000282668,0.0751649,20.9671,94.1026,-0.0262071,0.0,0.0
216,53.75,17.9974,19.1651,143.515,98.7366,98.8051,0.000201773,0.0742079,20.9696,94.0826,-0.00626206,0.0,0.0
224,55.75,18.436,19.6173,145.421,98.8924,99.07,0.000122927,0.0733115,20.9719,94.0926,-0.0162126,0.0,0.0
232,57.75,18.476,19.5722,146.078,98.9954,99.0384,5.56895e-05,0.0723812,20.9737,94.0926,-0.00392035,0.0,0.0
240,59.75,18.514,19.2884,142.402,99.0129,98.8596,6.28934e-05,0.0717548,20.9745,94.1226,0.0139906,0.0,0.0
248,61.75,18.4652,19.4643,143.832,98.9356,98.8664,6.38356e-05,0.0715364,20.9735,94.1026,0.00631744,0.0,0.0
256,63.75,18.6238,19.6531,141.613,98.7687,98.4407,5.7167e-05,0.0716876,20.9725,94.1226,0.030044,0.0,0.0
264,65.75,18.8031,19.6578,144.406,98.4976,98.7396,0.000142523,0.0717724,20.9709,94.1126,-0.0221664,0.0,0.0
272,67.75,18.7472,19.8371,139.923,98.1769,98.2063,0.000182783,0.0716994,20.9701,94.1226,-0.00270206,0.0,0.0
280,69.75,18.3165,19.7938,144.709,97.8221,97.697,0.000156487,0.0714174,20.9711,94.1326,0.0115573,0.0,0.0
288,71.75,18.9698,19.7317,141.81,97.4895,97.3696,0.000102935,0.0709738,20.9729,94.1026,0.0111217,0.0,0.0
296,73.75,19.0309,20.3011,142.465,97.2144,97.0485,-2.54149e-08,0.0702599,20.9741,94.1026,0.0154279,0.0,0.0
304,75.75,18.9787,19.7103,140.016,97.0503,96.9691,-6.53737e-05,0.0697207,20.9755,94.1026,0.00756125,0.0,0.0
312,77.75,18.7475,19.804,143.715,96.9897,97.2089,-2.89273e-05,0.0692999,20.9761,94.0826,-0.0203904,0.0,0.0
320,79.75,18.4968,19.9163,142.08,97.0658,97.1283,2.86935e-05,0.069111,20.9765,94.0826,-0.00581705,0.0,0.0
328,81.75,18.14,19.6156,142.209,97.2525,96.8472,8.20541e-05,0.0690881,20.9751,94.1126,0.0377249,0.0,0.0
336,83.75,18.6861,19.8564,141.171,97.4994,97.4132,0.000198809,0.0692749,20.9739,94.1026,0.00798944,0.0,0.0
344,85.75,18.6612,19.9573,140.236,97.7813,97.5329,0.000339703,0.0697439,20.9734,94.1226,0.022972,0.0,0.0
352,87.75,19.372,20.1216,143.597,98.0247,98.0105,0.000369804,0.0700839,20.9737,94.1126,0.00130174,0.0,0.0
360,89.75,18.5168,20.0102,143.506,98.2189,98.3184,0.000244358,0.0701983,20.9738,94.1126,-0.00914708,0.0,0.0
368,91.75,19.0414,20.0734,143.876,98.3247,98.012,0.000110371,0.0699277,20.9748,94.1226,0.0287711,0.0,0.0
376,93.75,18.882,20.2342,144.151,98.3481,98.3067,0.000106289,0.0696297,20.9756,94.1126,0.00380133,0.0,0.0
384,95.75,18.7552,20.3335,145.931,98.276,97.6695,0.000120857,0.0693294,20.976,94.1126,0.055912,0.0,0.0
392,97.75,19.2218,20.3841,140.108,98.2046,97.9353,3.20978e-05,0.0689503,20.9761,94.1326,0.0248095,0.0,0.0
400,99.75,18.9249,20.1193,143.514,98.1174,98.2928,7.27543e-05,0.068587,20.9762,94.1426,-0.0161328,0.0,0.0
408,101.75,18.7092,19.5062,142.492,98.0294,97.7185,0.000241,0.0681207,20.9766,94.1226,0.0286981,0.0,0.0
416,103.75,19.0346,20.3321,145.878,97.9704,97.6447,0.000436827,0.0679219,20.9783,94.0926,0.0300751,0.0,0.0
424,105.75,19.2153,20.5474,145.592,98.3136,98.1189,0.000463218,0.0676209,20.9791,94.0826,0.0179075,0.0,0.0
432,107.75,18.5657,20.1458,140.197,98.599,98.1761,0.000483301,0.0674247,20.9791,94.0826,0.038825,0.0,0.0
440,109.75,19.5067,20.1137,142.314,98.7628,98.3568,0.000494573,0.0672477,20.9789,94.1026,0.0372048,0.0,0.0
448,111.75,19.3977,20.4536,141.244,98.8115,98.7215,0.000382415,0.0670481,20.9789,94.0726,0.0082315,0.0,0.0
456,113.75,19.3747,20.5687,145.189,98.7354,99.0806,0.000131178,0.0669183,20.9788,94.0626,-0.0315218,0.0,0.0
464,115.75,19.013,20.8108,141.852,98.5586,98.2435,-4.48051e-05,0.0668678,20.9788,94.0626,0.0289245,0.0,0.0
472,117.75,19.1859,20.3679,144.549,98.2502,97.8144,-4.90287e-05,0.0667519,20.9789,94.0526,0.0401523,0.0,0.0
480,119.75,18.8852,20.1874,145.05,98.3184,97.9804,4.3722e-05,0.0666609,20.9793,94.0826,0.0311032,0.0,0.0
488,121.75,19.1005,20.457,143.451,98.4603,98.3993,9.34906e-05,0.0665834,20.9795,94.0726,0.0055954,0.0,0.0
496,123.75,19.4897,20.6229,141.68,98.6193,98.0565,6.24526e-05,0.0665852,20.9784,94.0526,0.0516958,0.0,0.0
504,125.75,19.1609,20.12,144.993,98.7707,98.5081,-1.01296e-05,0.0672193,20.9772,94.0726,0.0240449,0.0,0.0
512,127.75,18.9508,19.7764,141.89,98.8837,98.0565,-7.60531e-05,0.068349,20.975,94.0726,0.0758802,0.0,0.0
520,129.75,18.9706,20.7367,143.345,98.9649,98.3685,-5.05328e-05,0.069564,20.9741,94.0726,0.0546042,0.0,0.0
528,131.75,18.9796,20.4242,142.893,99.0046,99.0715,0.000102323,0.0703711,20.9737,94.0526,-0.00610851,0.0,0.0
536,133.75,20.0538,20.5194,142.219,99.0101,98.7844,0.000204999,0.0705939,20.9745,94.0325,0.0206184,0.0,0.0
544,135.75,19.5038,20.229,145.395,98.9471,98.9361,0.000139462,0.0702447,20.9762,94.0426,0.00100674,0.0,0.0
552,137.75,19.5118,20.9391,144.604,98.8634,98.7851,-3.25276e-05,0.0697996,20.9779,94.0325,0.00715994,0.0,0.0
560,139.75,19.6463,20.6611,141.96,98.7421,98.5552,-6.97674e-05,0.0693279,20.9788,94.0426,0.0171219,0.0,0.0
568,141.75,19.1147,20.453,143.376,98.6034,98.248,9.87448e-05,0.0687873,20.9792,94.0225,0.0326139,0.0,0.0
576,143.75,19.5061,20.5499,143.122,98.4381,98.2288,0.000249272,0.0682936,20.9793,94.0325,0.0192238,0.0,0.0
584,145.75,19.7061,20.9468,142.029,98.2546,98.1671,0.000319117,0.0679511,20.9794,94.0325,0.00804431,0.0,0.0
592,147.75,19.5352,20.6441,141.587,98.0603,97.359,0.000310081,0.0676276,20.9794,94.0526,0.0648326,0.0,0.0
600,149.75,19.4113,20.4976,143.326,97.8717,97.4738,0.000239948,0.067461,20.9797,94.0125,0.0367919,0.0,0.0
608,151.75,19.4531,20.3999,146.287,97.685,97.7768,0.000166793,0.067275,20.9799,94.0426,-0.00849013,0.0,0.0
616,153.75,18.8748,20.6198,146.237,97.5216,97.2089,0.000118242,0.0669829,20.9799,94.0426,0.0290169,0.0,0.0
624,155.75,19.524,20.6815,149.106,97.377,96.965,8.2572e-05,0.0668738,20.98,94.0426,0.0382975,0.0,0.0
632,157.75,19.5651,20.6361,143.609,97.2461,96.9559,5.60004e-05,0.0668012,20.98,94.0526,0.0269966,0.0,0.0
640,159.75,19.0955,20.725,143.962,97.1566,96.9115,4.27294e-05,0.0667212,20.98,94.0526,0.0228098,0.0,0.0
648,161.75,19.0986,21.1147,148.043,97.082,96.7508,-1.2713e-05,0.0667214,20.9797,94.0626,0.0308703,0.0,0.0
656,163.75,19.3704,20.2308,143.407,97.0273,97.2025,-8.58129e-05,0.066686,20.9789,94.0426,-0.0162892,0.0,0.0
664,165.75,19.6602,21.1768,139.579,96.9948,96.4497,-7.13286e-05,0.0667129,20.9773,94.0426,0.0509077,0.0,0.0
672,167.75,19.2357,20.6755,142.723,96.9952,96.5461,2.57107e-05,0.067071,20.9765,94.0325,0.0419252,0.0,0.0
680,169.75,19.2844,20.6756,139.389,97.0158,96.4557,8.91066e-05,0.0676772,20.9751,94.0025,0.0522996,0.0,0.0
688,171.75,19.7835,20.8967,142.417,97.0479,96.7226,0.000118657,0.068546,20.9741,94.0025,0.0303337,0.0,0.0
696,173.75,19.5638,20.8713,142.219,97.0939,96.6872,0.000149393,0.0691679,20.9733,94.0025,0.0379168,0.0,0.0
704,175.75,19.7124,20.6953,143.477,97.1562,96.6951,0.000209822,0.0696446,20.9734,94.0125,0.0429669,0.0,0.0
712,177.75,19.749,20.7455,143.674,97.2287,96.7188,0.000226534,0.0696268,20.9743,94.0225,0.0474936,0.0,0.0
720,179.75,19.8226,20.8555,141.907,97.308,96.7094,0.000160909,0.0693274,20.9747,94.0125,0.0557344,0.0,0.0
728,181.75,19.3474,20.3868,143.483,97.4122,96.7215,0.000168748,0.0688763,20.9755,93.9825,0.064282,0.0,0.0
736,183.75,19.4903,20.3688,144.957,97.4717,96.7222,0.000205814,0.0685661,20.9765,93.9825,0.0697234,0.0,0.0
744,185.75,19.3192,20.1599,140.98,97.5482,97.0899,0.000262467,0.0682547,20.977,93.9925,0.042535,0.0,0.0
752,187.75,19.252,20.4249,143.419,97.6501,97.1727,0.000445001,0.068109,20.9761,93.9825,0.0442625,0.0,0.0
760,189.75,19.7104,20.6796,144.133,97.7016,97.0722,0.000675521,0.068007,20.9755,94.0025,0.0583741,0.0,0.0
768,191.75,19.4566,20.4261,144.219,97.792,97.4336,0.00079354,0.0679267,20.976,94.0125,0.0331676,0.0,0.0
776,193.75,19.677,20.71,143.635,97.8455,97.6929,0.000735689,0.0678842,20.9767,93.9825,0.0141003,0.0,0.0
784,195.75,19.6461,20.7155,144.622,97.9145,97.4772,0.000589694,0.0677092,20.9768,93.9825,0.0404278,0.0,0.0
792,197.75,19.2167,20.6778,142.454,97.9846,97.6503,0.000477409,0.0676619,20.9758,93.9925,0.0308682,0.0,0.0
800,199.75,19.8146,20.8338,138.922,97.9914,97.3534,0.000415214,0.0675263,20.9766,93.9825,0.059001,0.0,0.0
808,201.75,19.4545,20.0221,142.618,98.0005,96.8246,0.000424731,0.0674209,20.977,93.9625,0.10904,0.0,0.0
816,203.75,19.4191,20.5357,145.322,98.119,97.478,0.000449726,0.0672933,20.9723,93.9425,0.0592075,0.0,0.0
824,205.75,19.6893,20.7374,142.47,98.1539,97.3105,0.000402087,0.0672303,20.9606,95.2536,0.0779514,0.0,0.0
832,207.75,19.4951,20.7284,142.658,98.1789,97.1716,0.000260474,0.0673029,20.9513,95.7841,0.0931499,0.0,0.0
840,209.75,19.2672,20.7918,146.552,98.2145,97.6677,9.99834e-05,0.0675762,20.9468,96.1244,0.0504366,0.0,0.0
848,211.75,19.6088,21.0875,146.746,98.2359,97.7606,-2.50226e-05,0.0677355,20.9435,96.2845,0.0438113,0.0,0.0
856,213.75,19.6696,20.8375,141.459,98.257,97.5901,-2.29701e-05,0.0681218,20.9418,96.6248,0.0615104,0.0,0.0
864,215.75,19.8762,20.7211,139.38,98.2803,97.3846,0.000107194,0.0683832,20.9409,96.7149,0.0827007,0.0,0.0
872,217.75,19.6619,20.7934,141.89,98.2899,97.5935,0.000372631,0.0687187,20.958,96.6048,0.0642211,0.0,0.0
880,219.75,19.9761,20.7784,140.655,98.3093,97.6997,0.000516689,0.0689091,20.9676,96.5748,0.0561871,0.0,0.0
888,221.75,19.698,21.2675,146.408,98.3085,97.5201,0.000465202,0.0689505,20.9711,96.4747,0.0727286,0.0,0.0
896,223.75,19.3864,21.0155,139.819,98.3255,97.475,0.000398336,0.0689992,20.9727,96.6148,0.0784788,0.0,0.0
904,225.75,19.4413,21.234,143.156,98.3259,97.6116,0.000307848,0.0694062,20.9734,96.5848,0.0658631,0.0,0.0
912,227.75,19.3906,21.0061,142.659,98.3307,97.4174,0.000240149,0.0700172,20.9727,96.4847,0.0842904,0.0,0.0
920,229.75,19.9652,20.5371,142.83,98.3303,97.694,0.00024657,0.0706254,20.972,96.4947,0.0586394,0.0,0.0
928,231.75,19.6556,20.4703,140.797,98.3382,97.0816,0.000298696,0.0712438,20.9718,96.6048,0.116165,0.0,0.0
936,233.75,19.4301,20.8302,143.467,98.3263,97.3327,0.000349802,0.0713564,20.9716,96.4947,0.0917452,0.0,0.0
944,235.75,20.0964,21.279,144.617,98.3216,97.3481,0.000312023,0.0713154,20.9718,96.6248,0.0898764,0.0,0.0
952,237.75,19.9244,21.045,140.691,98.3287,97.3124,0.00021341,0.0710791,20.9729,96.5548,0.0938501,0.0,0.0
960,239.75,19.7562,20.7012,144.574,98.3283,97.0357,0.000133067,0.0706794,20.9731,96.7149,0.119528,0.0,0.0
968,241.75,19.8874,20.6413,141.31,98.3232,97.2104,9.88768e-05,0.0705576,20.9714,96.7249,0.102812,0.0,0.0
976,243.75,19.5976,20.7671,138.789,98.3216,97.2439,0.000173111,0.0708013,20.9707,96.7449,0.0995549,0.0,0.0
984,245.75,19.6029,20.7739,139.5,98.3144,96.4595,0.000310885,0.0708921,20.9709,96.6949,0.172053,0.0,0.0
992,247.75,19.5454,21.0652,141.26,98.3196,97.1468,0.000431102,0.0707926,20.9718,96.6849,0.108397,0.0,0.0
1000,249.75,19.9963,21.5352,144.006,98.3224,96.9559,0.000503418,0.0706018,20.9727,96.845,0.126412,0.0,0.0
1008,251.75,19.1987,21.0478,142.301,98.3216,96.869,0.000590511,0.0703617,20.9731,96.7149,0.134443,0.0,0.0
1016,253.75,19.6791,20.6166,141.259,98.3315,96.9465,0.000609119,0.0701565,20.9733,96.7249,0.128127,0.0,0.0
1024,255.75,20.0896,20.9252,140.043,98.3232,96.9669,0.000512291,0.0701853,20.9725,96.7249,0.125468,0.0,0.0
1032,257.75,18.9982,20.4239,140.772,98.3228,97.0534,0.00037544,0.0704744,20.9709,96.5247,0.117371,0.0,0.0
1040,259.75,19.8346,21.0918,142.49,98.3346,97.0941,0.000267757,0.0712836,20.9684,96.6048,0.114681,0.0,0.0
1048,261.75,18.8135,20.3505,141.873,98.3259,96.5472,0.000295705,0.0726682,20.9663,96.6248,0.164901,0.0,0.0
1056,263.75,19.8015,21.0678,144.679,98.3343,97.0338,0.000406003,0.0739811,20.9635,96.5247,0.120249,0.0,0.0
1064,265.75,19.6662,20.802,140.362,98.3283,96.7674,0.000578665,0.0757664,20.9618,96.6749,0.144543,0.0,0.0
1072,267.75,19.7214,21.3788,140.039,98.3267,96.6816,0.000666499,0.0774797,20.9591,96.5247,0.15241,0.0,0.0
1080,269.75,20.4138,21.2339,141.808,98.3311,96.312,0.000673527,0.0789144,20.9577,96.6849,0.187409,0.0,0.0
1088,271.75,19.8977,21.6775,142.489,98.3307,96.6962,0.000673711,0.0802655,20.955,96.4146,0.151404,0.0,0.0
1096,273.75,19.9623,21.5284,145.273,98.3232,96.438,0.000751074,0.0815075,20.9533,96.6348,0.174862,0.0,0.0
1104,275.75,19.9387,21.817,142.242,98.3208,95.9002,0.000865038,0.0827031,20.9522,96.4547,0.225161,0.0,0.0
1112,277.75,20.2373,21.3986,142.649,98.3176,95.19,0.0009544,0.0840432,20.9498,96.6549,0.292014,0.0,0.0
1120,279.75,20.4957,21.8006,141.077,98.3049,96.318,0.000899149,0.086129,20.9454,96.9751,0.18444,0.0,0.0
1128,281.75,20.2321,21.7327,139.886,98.316,94.9416,0.000777043,0.0885857,20.9413,96.6248,0.315471,0.0,0.0
1136,283.75,20.1755,21.7929,141.41,98.3184,95.6503,0.000740018,0.0913901,20.9357,96.5347,0.248513,0.0,0.0
1144,285.75,20.7712,21.9804,144.663,98.2906,95.4828,0.000791232,0.0947366,20.9316,96.6048,0.261794,0.0,0.0
1152,287.75,20.8596,22.0339,141.061,98.3018,95.5171,0.000967173,0.0984915,20.9284,96.7049,0.259574,0.0,0.0
1160,289.75,20.9053,22.2354,141.155,98.2803,94.6503,0.00111191,0.103737,20.9213,96.3146,0.339951,0.0,0.0
1168,291.75,20.4646,22.2324,140.824,98.2982,94.1403,0.00118745,0.110158,20.9088,96.0043,0.390391,0.0,0.0
1176,293.75,20.2653,22.0506,140.007,98.2724,93.2181,0.00129992,0.117888,20.8924,95.5339,0.476937,0.0,0.0
1184,295.75,20.3888,23.1667,138.84,98.2502,91.8342,0.00154303,0.127789,20.8768,93.9024,0.610003,0.0,1.0
1192,297.75,21.7623,23.4575,136.095,98.2213,89.8609,0.0019424,0.141076,20.8588,93.6622,0.803554,0.0,1.0
1200,299.75,22.1962,24.1704,141.094,98.2296,88.5191,0.00235424,0.156286,20.828,93.5721,0.940212,0.0,1.0
1208,301.75,21.9134,24.0188,137.023,98.2126,88.2357,0.0027636,0.174886,20.7997,93.5321,0.967611,0.0,0.0
1216,303.75,22.5177,24.8786,133.18,98.19,87.0046,0.00325573,0.193523,20.7715,93.412,1.09245,0.0,0.0
1224,305.75,23.7902,25.3972,137.2,98.167,84.3394,0.00380602,0.215119,20.7374,93.2218,1.37135,0.0,0.0
1232,307.75,24.2533,26.6045,134.116,98.1491,84.5081,0.00449126,0.237322,20.7108,92.8615,1.35167,0.0,0.0
1240,309.75,25.6828,27.7297,133.338,98.1194,84.5754,0.00512959,0.258959,20.6869,92.4011,1.34173,0.0,0.0
1248,311.75,25.6307,28.2528,134.63,98.079,82.1264,0.0059393,0.278226,20.6595,91.8206,1.60344,0.0,0.0
1256,313.75,26.8121,29.5816,132.364,98.0552,78.3596,0.00675659,0.302602,20.6237,91.5804,2.02534,0.0,0.0
1264,315.75,26.58,30.5177,127.623,98.0274,75.8111,0.00762338,0.326584,20.5929,91.5203,2.32143,0.0,0.0
1272,317.75,28.3003,31.6722,128.266,97.9842,75.8932,0.00854874,0.348336,20.5693,91.4803,2.30768,0.0,0.0
1280,319.75,28.405,32.5635,130.298,97.9604,75.6128,0.00954114,0.370707,20.542,91.4303,2.33892,0.0,0.0
1288,321.75,29.9917,34.1712,124.845,97.9109,71.3902,0.0104046,0.394706,20.511,91.2701,2.85341,0.0,0.0
1296,323.75,30.4772,34.7682,126.039,97.8752,71.5536,0.0111937,0.41931,20.4794,90.9999,2.82948,0.0,0.0
1304,325.75,32.3593,36.7716,127.858,97.8352,68.6724,0.0118358,0.443341,20.4459,90.7697,3.19701,0.0,0.0
1312,327.75,32.3872,38.1816,124.392,97.7884,71.6379,0.0125385,0.470984,20.4085,90.5195,2.81082,0.0,0.0
1320,329.75,34.235,40.0431,119.949,97.7504,70.7658,0.0132961,0.495451,20.3779,90.2192,2.91794,0.0,0.0
1328,331.75,35.7937,41.1953,123.557,97.706,71.5837,0.014088,0.521525,20.3547,89.969,2.81004,0.0,0.0
1336,333.75,37.449,42.5888,124.1,97.6616,68.8659,0.0150915,0.545291,20.3256,89.5987,3.15556,0.0,0.0
1344,335.75,37.8926,44.7226,119.355,97.6164,71.665,0.0160949,0.575459,20.2803,89.3384,2.7915,0.0,0.0
1352,337.75,39.0659,46.1873,114.087,97.5755,66.3566,0.01715,0.607253,20.2405,88.9981,3.48288,0.0,0.0
1360,339.75,40.7926,48.1381,121.36,97.5129,64.6335,0.018307,0.634895,20.205,88.6278,3.71473,0.0,0.0
1368,341.75,41.8309,49.7811,120.971,97.4729,65.6275,0.0195309,0.668776,20.16,88.2675,3.57316,0.0,0.0
1376,343.75,43.6062,51.632,113.781,97.4162,67.1383,0.0214521,0.71301,20.0911,87.8571,3.36232,0.0,0.0
1384,345.75,45.2227,53.8073,115.748,97.3813,64.2959,0.0237019,0.758136,20.0132,87.3667,3.74983,0.0,0.0
1392,347.75,46.5217,55.9315,114.265,97.3282,63.8111,0.0262728,0.820323,19.9225,86.8763,3.81326,0.0,0.0
1400,349.75,48.9574,58.7291,116.451,97.2782,62.0828,0.0285309,0.879636,19.8343,86.3858,4.05665,0.0,0.0
1408,351.75,50.9949,61.1076,108.803,97.2307,58.9608,0.0302676,0.937954,19.7757,85.8253,4.5183,0.0,0.0
1416,353.75,53.3638,64.3158,108.812,97.1839,59.8099,0.0311929,0.985547,19.7464,85.2949,4.3848,0.0,0.0
1424,355.75,53.8761,65.5857,110.139,97.1502,61.2476,0.031256,1.02043,19.7378,84.8345,4.1671,0.0,0.0
1432,357.75,56.157,67.7814,105.992,97.1141,60.6067,0.0306084,1.03858,19.7473,84.3641,4.25877,0.0,0.0
1440,359.75,56.4675,68.9473,113.523,97.086,64.9523,0.0295275,1.04199,19.7759,84.0037,3.63065,0.0,0.0
1448,361.75,57.9402,70.5396,117.789,97.0571,65.7382,0.0283372,1.03854,19.8064,83.5734,3.51932,0.0,0.0
1456,363.75,58.3143,71.4831,117.599,97.0337,64.8526,0.0274538,1.02829,19.838,83.123,3.63966,0.0,0.0
1464,365.75,59.8982,72.3496,124.337,97.0071,64.9493,0.0268552,1.01508,19.8706,82.7126,3.62373,0.0,0.0
1472,367.75,59.92,72.8596,115.629,97.0095,62.3832,0.027131,1.00253,19.8862,82.3123,3.98807,0.0,0.0
1480,369.75,60.5527,74.4966,115.545,97.0075,59.7595,0.0279018,0.996052,19.887,81.8419,4.37601,0.0,0.0
1488,371.75,61.3405,74.5744,111.595,97.0162,60.496,0.028644,0.995786,19.8795,81.3714,4.26616,0.0,0.0
1496,373.75,61.9941,75.9541,120.004,97.0428,61.3775,0.0290825,0.999939,19.871,80.921,4.13797,0.0,0.0
1504,375.75,62.3461,76.1529,111.943,97.0761,60.9289,0.0291478,1.00302,19.8702,80.5007,4.20734,0.0,0.0
1512,377.75,62.7551,77.3224,117.971,97.1145,60.5073,0.0289655,1.00108,19.8764,80.0303,4.27363,0.0,0.0
1520,379.75,63.6875,77.2195,117.492,97.1744,66.8041,0.0285104,0.995508,19.8927,79.6299,3.38495,0.0,0.0
1528,381.75,63.5507,77.9908,116.638,97.2608,61.5175,0.0281233,0.984944,19.9114,79.2696,4.13766,0.0,0.0
1536,383.75,63.9037,78.0119,117.251,97.3337,63.224,0.0276844,0.977227,19.9209,78.8392,3.89728,0.0,0.0
1544,385.75,64.2704,78.5102,113.742,97.4186,60.6805,0.0272635,0.97132,19.9279,78.3788,4.27605,0.0,0.0
1552,387.75,64.5993,78.918,114.943,97.524,64.4491,0.0270559,0.966337,19.9327,77.9885,3.74156,0.0,0.0
1560,389.75,64.9551,79.2955,116.841,97.6378,60.3522,0.0272498,0.96099,19.938,77.5881,4.34534,0.0,0.0
1568,391.75,65.0026,78.878,112.582,97.746,61.0832,0.0277411,0.956813,19.9403,77.0977,4.24661,0.0,0.0
1576,393.75,65.1982,79.1732,114.728,97.8546,61.3843,0.0285134,0.959444,19.9302,76.6773,4.21223,0.0,0.0
1584,395.75,65.5214,79.4669,117.544,97.9799,59.5867,0.0294781,0.969165,19.9017,76.2469,4.49225,0.0,0.0
1592,397.75,65.5687,79.922,112.817,98.1008,56.2614,0.0308362,0.984385,19.8691,75.7365,5.02207,0.0,0.0
1600,399.75,66.338,80.5325,118.829,98.2225,58.3307,0.0322319,1.00275,19.8405,75.2861,4.70701,0.0,0.0
1608,401.75,66.8848,81.4255,116.275,98.3402,61.5664,0.0329623,1.01775,19.8304,74.7756,4.23017,0.0,0.0
1616,403.75,67.2117,81.5749,115.035,98.4579,59.7564,0.0330948,1.02598,19.8314,74.3853,4.51051,0.0,0.0
1624,405.75,67.5352,82.6279,114.568,98.5642,58.3127,0.032792,1.02788,19.8429,73.8749,4.74118,0.0,0.0
1632,407.75,67.9996,82.3367,113.033,98.6526,61.0263,0.0321763,1.02649,19.8541,73.4745,4.33841,0.0,0.0
1640,409.75,68.1562,82.8118,117.76,98.7414,59.3722,0.0315312,1.02255,19.8678,72.9841,4.59475,0.0,0.0
1648,411.75,68.2468,82.6396,116.88,98.8155,60.6767,0.031097,1.01458,19.8853,72.5837,4.40522,0.0,0.0
1656,413.75,67.8985,82.6244,114.98,98.8821,59.7606,0.0308594,1.00439,19.9006,72.1634,4.54872,0.0,0.0
1664,415.75,68.3121,82.1062,120.804,98.9304,56.6751,0.0305525,0.994112,19.9213,71.7029,5.03198,0.0,0.0
1672,417.75,68.2229,82.13,117.241,98.9764,57.3375,0.0302667,0.982979,19.9342,71.2225,4.93121,0.0,0.0
1680,419.75,68.1798,81.5322,120.726,98.9982,60.9767,0.0300575,0.973991,19.9414,70.8522,4.37736,0.0,0.0
1688,421.75,67.8273,81.1223,116.738,99.0006,59.2675,0.0295813,0.96759,19.9449,70.4519,4.63437,0.0,0.0
1696,423.75,67.568,81.877,120.768,99.0018,59.9089,0.0288918,0.962698,19.9468,70.0215,4.53726,0.0,0.0
1704,425.75,68.1211,81.5424,114.456,98.9641,60.6033,0.0280587,0.958806,19.9513,69.5711,4.42973,0.0,0.0
1712,427.75,67.7985,81.39,118.855,98.9415,60.4181,0.0272424,0.950583,19.965,69.1407,4.45531,0.0,0.0
1720,429.75,67.3295,80.5541,114.545,98.8745,61.4983,0.0266714,0.940312,19.9857,68.7604,4.28912,0.0,0.0
1728,431.75,67.6541,80.7657,122.799,98.8016,60.3707,0.0262358,0.927825,20.0028,68.36,4.44961,0.0,0.0
1736,433.75,67.8041,80.2467,126.304,98.7314,62.4965,0.025661,0.915705,20.0151,67.9697,4.13061,0.0,0.0
1744,435.75,67.0161,80.5885,120.204,98.6506,63.4589,0.0247789,0.904499,20.0296,67.6294,3.98517,0.0,0.0
1752,437.75,67.2191,80.1753,120.249,98.5685,64.7201,0.0237945,0.89138,20.0521,67.2791,3.79989,0.0,0.0
1760,439.75,66.7466,80.0813,117.589,98.4714,63.7965,0.0228054,0.87535,20.0724,66.9187,3.92082,0.0,0.0
1768,441.75,66.0019,78.3538,119.714,98.3937,66.8304,0.021871,0.859738,20.0901,66.5784,3.49403,0.0,0.0
1776,443.75,66.9194,78.4279,124.46,98.3295,66.0178,0.021151,0.844818,20.1078,66.2482,3.59863,0.0,0.0
1784,445.75,66.1612,78.3168,119.388,98.2352,65.2124,0.0205105,0.828931,20.1277,65.8678,3.70084,0.0,0.0
1792,447.75,66.0749,77.8184,122.337,98.2193,65.1638,0.0198109,0.81113,20.1453,65.5776,3.70611,0.0,0.0
1800,449.75,65.4271,77.2767,117.518,98.3917,66.5764,0.019116,0.795429,20.167,65.2673,3.52825,0.0,0.0
1808,451.75,65.1287,77.2381,121.004,98.5289,66.7503,0.0186585,0.779741,20.1856,64.957,3.51727,0.0,0.0
1816,453.75,65.1997,76.7606,119.611,98.6335,65.7073,0.0182729,0.766156,20.197,64.6668,3.6691,0.0,0.0
1824,455.75,64.775,76.4389,125.839,98.7231,67.7315,0.0177532,0.753485,20.2089,64.3665,3.40325,0.0,0.0
1832,457.75,64.7868,76.0093,121.245,98.7659,67.5324,0.0172285,0.740461,20.2227,64.0662,3.43375,0.0,0.0
1840,459.75,64.1811,75.4556,119.265,98.7881,67.6046,0.0167667,0.728244,20.2369,63.776,3.42612,0.0,0.0
1848,461.75,64.0849,75.1469,121.802,98.7798,68.7755,0.0162507,0.716472,20.2483,63.4957,3.27025,0.0,0.0
1856,463.75,63.8792,74.4092,119.658,98.756,69.1199,0.0158571,0.705648,20.259,63.2255,3.22296,0.0,0.0
1864,465.75,63.5066,73.9111,119.502,98.6823,66.9633,0.0157037,0.69587,20.2692,62.9152,3.50254,0.0,0.0
1872,467.75,63.3581,73.8405,128.056,98.588,66.8237,0.0156597,0.6866,20.2772,62.675,3.51276,0.0,0.0
1880,469.75,63.2511,73.0371,128.749,98.4774,69.0669,0.0156086,0.677403,20.285,62.3848,3.20438,0.0,0.0
1888,471.75,62.885,72.8153,124.789,98.3493,70.1734,0.0154828,0.670551,20.2936,62.1145,3.04905,0.0,0.0
1896,473.75,62.5297,72.1306,127.765,98.1888,68.6544,0.015294,0.664874,20.2981,61.8443,3.23198,0.0,0.0
1904,475.75,62.4628,72.1268,127.559,98.0041,71.7124,0.0149812,0.659447,20.3025,61.534,2.82133,0.0,0.0
1912,477.75,62.2894,71.6032,123.606,97.9763,70.2396,0.0146871,0.653814,20.3081,61.3038,3.00621,0.0,0.0
1920,479.75,61.9097,71.2346,119.376,97.989,69.6412,0.0146361,0.647175,20.3184,61.0136,3.08467,0.0,0.0
1928,481.75,61.8098,70.5628,124.586,98.0211,68.873,0.0147408,0.640591,20.3245,60.7333,3.18781,0.0,0.0
1936,483.75,61.6894,70.7243,125.479,98.0599,70.6032,0.0148199,0.635245,20.3279,60.4731,2.96728,0.0,0.0
1944,485.75,61.5408,70.1447,120.085,98.1008,70.2363,0.014789,0.631355,20.3293,60.2229,3.01811,0.0,0.0
1952,487.75,61.2228,69.7761,126.15,98.1349,71.3541,0.0147438,0.629305,20.3304,59.9726,2.87862,0.0,0.0
1960,489.75,61.2193,69.7828,122.398,98.1729,71.0925,0.0147551,0.626707,20.332,59.7024,2.9153,0.0,0.0
1968,491.75,60.8752,69.652,127.726,98.2034,73.8449,0.0147098,0.624455,20.3329,59.4222,2.57499,0.0,0.0
1976,493.75,60.6861,69.2727,124.777,98.232,72.3816,0.0146975,0.623304,20.3327,59.1719,2.75841,0.0,0.0
1984,495.75,60.5786,69.1331,122.919,98.2665,70.8938,0.014819,0.622399,20.3332,58.9017,2.94919,0.0,0.0
1992,497.75,60.4932,68.9379,120.945,98.2906,71.2205,0.0150687,0.622239,20.3313,58.6315,2.90988,0.0,0.0
2000,499.75,60.3293,68.8712,124.392,98.3156,73.7396,0.0152496,0.622831,20.328,58.3612,2.59821,0.0,0.0
2008,501.75,60.5222,68.6075,120.367,98.3374,70.3247,0.0154132,0.623335,20.3251,58.141,3.02851,0.0,0.0
2016,503.75,60.3026,68.3193,123.157,98.3263,70.464,0.0156707,0.626069,20.3159,57.8308,3.00962,0.0,0.0
2024,505.75,60.3372,68.7485,123.554,98.3275,71.4757,0.0158545,0.630379,20.3066,57.5505,2.88096,0.0,0.0
2032,507.75,60.1973,68.2686,121.165,98.3029,71.0553,0.0158731,0.635156,20.2994,57.2603,2.93199,0.0,0.0
2040,509.75,60.4012,68.475,128.268,98.2593,69.6137,0.0159473,0.639216,20.2937,56.99,3.11312,0.0,0.0
2048,511.75,60.7757,68.7167,123.673,98.2106,68.0996,0.0162671,0.644323,20.2849,56.6497,3.30727,0.0,0.0
2056,513.75,60.7836,68.8287,125.098,98.1582,70.7255,0.0167692,0.650838,20.2702,56.3395,2.9607,0.0,0.0
2064,515.75,61.0096,68.8387,124.689,98.0901,70.2028,0.0171944,0.661592,20.2558,56.0492,3.02144,0.0,0.0
2072,517.75,61.004,69.3788,126.627,98.008,68.2351,0.0177183,0.67233,20.2385,55.779,3.27067,0.0,0.0
2080,519.75,61.3862,69.3495,122.877,97.9216,66.9704,0.0182245,0.684858,20.2249,55.3886,3.43168,0.0,0.0
2088,521.75,61.998,69.5657,118.821,97.8328,69.7665,0.0186461,0.696297,20.211,55.0784,3.05402,0.0,0.0
2096,523.75,62.0087,69.7333,122.466,97.7186,66.2655,0.0190268,0.708356,20.195,54.7481,3.50852,0.0,0.0
2104,525.75,62.3771,70.3065,116.832,97.6267,65.7958,0.0196182,0.721204,20.1765,54.3477,3.56427,0.0,0.0
2112,527.75,62.5234,70.8661,122.1,97.5264,67.6317,0.0203378,0.73496,20.1591,54.0675,3.30639,0.0,0.0
2120,529.75,62.989,71.3545,119.004,97.4364,67.3717,0.021173,0.750522,20.1395,53.6471,3.33286,0.0,0.0
2128,531.75,62.8101,71.0327,120.492,97.3306,65.4499,0.0220467,0.768507,20.1096,53.2768,3.58444,0.0,0.0
2136,533.75,63.7386,72.5781,118.492,97.2636,65.547,0.0226323,0.786339,20.0886,52.8464,3.56483,0.0,0.0
2144,535.75,63.7131,72.5359,125.443,97.1815,64.2993,0.0228329,0.799231,20.0841,52.5161,3.73081,0.0,0.0
2152,537.75,64.9019,72.7561,120.705,97.1066,67.9099,0.0228078,0.80481,20.0878,52.1558,3.23036,0.0,0.0
2160,539.75,64.4133,73.1985,122.963,97.0646,64.5488,0.0227843,0.807352,20.0907,51.7755,3.68494,0.0,0.0
2168,541.75,64.6116,73.4925,117.282,97.021,63.9926,0.0230702,0.80762,20.0938,51.4251,3.75907,0.0,0.0
2176,543.75,64.9824,73.6679,119.642,97.0043,65.2158,0.023433,0.812031,20.0875,51.0448,3.58648,0.0,0.0
2184,545.75,65.2549,74.1497,120.321,96.9837,62.3188,0.0234433,0.819847,20.0744,50.6745,3.99499,0.0,0.0
2192,547.75,65.4551,74.3234,116.833,96.9869,60.3474,0.0234248,0.826043,20.0667,50.2841,4.28566,0.0,0.0
2200,549.75,65.8872,74.0791,115.926,97.002,62.2864,0.0243859,0.836186,20.0461,49.8137,4.00139,0.0,0.0
2208,551.75,66.1424,74.4206,110.735,97.0408,55.0058,0.026872,0.862615,19.9776,49.3633,5.12781,0.0,0.0
2216,553.75,66.9416,75.5873,109.861,97.0852,54.9068,0.0306429,0.910401,19.8685,48.8129,5.14821,0.0,0.0
2224,555.75,67.8533,77.6073,104.435,97.1482,54.9927,0.0343187,0.975762,19.7599,48.2323,5.13997,0.0,0.0
2232,557.75,69.3519,79.0543,107.668,97.2374,53.9678,0.03797,1.0423,19.6801,47.6418,5.31819,0.0,0.0
2240,559.75,70.4325,81.2971,111.239,97.331,52.9136,0.0411085,1.10281,19.6169,47.0613,5.50507,0.0,0.0
2248,561.75,71.8419,83.1493,110.069,97.4328,53.1349,0.0427077,1.14935,19.5857,46.4908,5.47682,0.0,0.0
2256,563.75,73.18,84.3157,114.415,97.5292,53.4936,0.0427162,1.17765,19.588,45.9303,5.42497,0.0,0.0
2264,565.75,73.4209,85.018,115.674,97.6505,55.4974,0.0412707,1.18295,19.628,45.4099,5.10402,0.0,0.0
2272,567.75,73.8342,85.6698,115.778,97.7583,59.8005,0.0380984,1.16836,19.6867,44.9495,4.43944,0.0,0.0
2280,569.75,73.6674,85.8524,117.237,97.8788,62.332,0.0343697,1.13902,19.7647,44.439,4.07607,0.0,0.0
2288,571.75,73.9766,85.6348,117,97.9886,59.6548,0.0312129,1.10208,19.8248,44.0987,4.48273,0.0,0.0
2296,573.75,73.8876,85.6867,117.961,98.1158,62.7114,0.028313,1.06736,19.8768,43.6683,4.0431,0.0,0.0
2304,575.75,73.5541,85.2116,120.847,98.2268,62.7242,0.0260941,1.02924,19.94,43.288,4.05147,0.0,0.0
2312,577.75,73.4467,84.8441,121.445,98.3323,65.2485,0.0242872,0.989032,20.0022,42.9477,3.70476,0.0,0.0
2320,579.75,73.1092,84.1948,123.308,98.4381,69.1222,0.0223256,0.947693,20.0502,42.6174,3.19354,0.0,0.0
2328,581.75,72.1375,83.5112,119.002,98.5479,68.3427,0.020463,0.90818,20.0929,42.2771,3.30605,0.0,0.0
2336,583.75,72.6118,82.6473,121.642,98.6423,71.1734,0.018638,0.870929,20.1359,41.9468,2.9481,0.0,0.0
2344,585.75,70.616,81.9944,125.802,98.7176,71.5321,0.0170089,0.833555,20.1758,41.6566,2.90959,0.0,0.0
2352,587.75,70.891,80.4426,122.663,98.7869,70.8878,0.0155349,0.801267,20.2123,41.3863,2.99767,0.0,0.0
2360,589.75,70.4966,79.812,125.256,98.8587,72.1321,0.0143962,0.768959,20.2503,41.1561,2.84705,0.0,0.0
2368,591.75,69.1093,78.7281,124.876,98.909,73.6387,0.0136824,0.740584,20.2802,40.8659,2.66493,0.0,0.0
2376,593.75,68.8081,76.8268,122.332,98.9491,71.9962,0.0132225,0.716019,20.3046,40.6056,2.87234,0.0,0.0
2384,595.75,68.1257,77.6537,124.334,98.9907,73.7042,0.0128026,0.696093,20.3229,40.3654,2.66435,0.0,0.0
2392,597.75,67.2534,76.434,125.923,99.0054,75.1145,0.0123325,0.677087,20.339,40.0852,2.49449,0.0,0.0
2400,599.75,67.0331,76.1788,125.052,99.0129,73.7512,0.0119131,0.659349,20.3503,39.845,2.66061,0.0,0.0
2408,601.75,65.6787,74.734,125.444,99.0085,76.1672,0.0114689,0.646005,20.3625,39.5948,2.36906,0.0,0.0
2416,603.75,65.6755,74.7899,128.055,99.0073,74.1859,0.0110353,0.631955,20.3735,39.3545,2.60702,0.0,0.0
2424,605.75,64.9174,73.4514,124.362,98.9863,77.1198,0.0105584,0.619771,20.3839,39.1344,2.25477,0.0,0.0
2432,607.75,64.9655,72.9662,128.462,98.938,76.7506,0.0101112,0.607367,20.3944,38.9242,2.2937,0.0,0.0
2440,609.75,64.3681,72.3607,124.715,98.8944,78.3257,0.00964836,0.59675,20.4097,38.684,2.10622,0.0,0.0
2448,611.75,63.5459,71.3415,127.961,98.8551,79.1699,0.00940782,0.582386,20.4262,38.4838,2.0058,0.0,0.0
2456,613.75,63.8249,71.2198,124.818,98.7873,77.8658,0.00930562,0.569813,20.4379,38.2636,2.14964,0.0,0.0
2464,615.75,63.2941,69.82,124.948,98.7295,78.3566,0.00921163,0.559059,20.4469,38.0734,2.08759,0.0,0.0
2472,617.75,62.7622,69.2037,125.042,98.6609,77.9862,0.00907937,0.548302,20.4583,37.8732,2.12411,0.0,0.0
2480,619.75,61.6297,68.8753,125.782,98.5979,77.6302,0.00885745,0.538255,20.4721,37.6731,2.15967,0.0,0.0
2488,621.75,61.4288,68.3066,122.646,98.5356,78.2015,0.00845894,0.527652,20.4816,37.4729,2.08773,0.0,0.0
2496,623.75,61.4615,67.3562,127.577,98.4647,78.6494,0.00811226,0.518826,20.4889,37.3027,2.02964,0.0,0.0
2504,625.75,60.8202,66.8011,133.211,98.4072,79.6272,0.00784591,0.510566,20.4944,37.0725,1.91275,0.0,0.0
2512,627.75,60.4823,66.8995,124.985,98.3596,80.2975,0.00753057,0.503665,20.5031,36.9024,1.83266,0.0,0.0
2520,629.75,59.7179,65.3784,128.232,98.3077,79.5839,0.00727073,0.494728,20.5122,36.7122,1.90853,0.0,0.0
2528,631.75,59.4491,65.0273,127.536,98.2704,81.074,0.00714539,0.485752,20.5217,36.5521,1.73754,0.0,0.0
2536,633.75,58.6606,63.7108,132.706,98.2332,79.1485,0.00709798,0.477823,20.5297,36.3719,1.95124,0.0,0.0
2544,635.75,58.2347,63.9986,127.628,98.3156,82.7745,0.00696386,0.469188,20.5387,36.1918,1.5542,0.0,0.0
2552,637.75,57.7213,62.7467,131.396,98.4393,82.4956,0.00676009,0.459953,20.5519,36.0517,1.59604,0.0,0.0
2560,639.75,57.719,62.8465,129.061,98.5325,84.7681,0.00666518,0.449029,20.5676,35.8715,1.35912,0.0,0.0
2568,641.75,56.9315,61.6646,130.173,98.6133,85.3259,0.00670515,0.437925,20.5809,35.7514,1.30729,0.0,0.0
2576,643.75,56.9271,62.1047,129.326,98.6918,85.7121,0.00680336,0.426761,20.5937,35.5912,1.27369,0.0,0.0
2584,645.75,56.0283,60.8199,131.663,98.7501,86.7878,0.00693299,0.415217,20.6079,35.4611,1.16637,0.0,0.0
2592,647.75,56.0664,60.3948,132.102,98.7889,86.7437,0.00712637,0.403989,20.6228,35.3711,1.1745,0.0,0.0
2600,649.75,54.8943,59.7809,132.88,98.8095,87.8409,0.00729715,0.391406,20.6376,35.2409,1.06286,0.0,0.0
2608,651.75,55.9821,58.7815,130.963,98.825,87.0798,0.00732541,0.379144,20.6517,35.1208,1.14287,0.0,0.0
2616,653.75,54.379,58.543,129.977,98.8056,88.3896,0.00725615,0.367356,20.6628,34.9707,1.00624,0.0,0.0
2624,655.75,54.2628,57.7164,134.394,98.7976,89.6716,0.00717125,0.357466,20.6747,34.8806,0.875454,0.0,0.0
2632,657.75,53.5524,57.1397,130.455,98.7521,89.078,0.00703637,0.346359,20.6887,34.7905,0.931273,0.0,0.0
2640,659.75,53.0798,56.8064,132.957,98.7037,89.888,0.0067305,0.336458,20.7026,34.6804,0.845086,0.0,0.0
2648,661.75,51.9611,55.9594,128.553,98.6423,89.804,0.00640464,0.325164,20.7147,34.5603,0.8479,0.0,0.0
2656,663.75,52.5922,55.1458,131.24,98.5598,90.5711,0.00616718,0.315097,20.7256,34.4803,0.763523,0.0,0.0
2664,665.75,51.9349,54.8077,132.576,98.4655,89.2873,0.00609913,0.305823,20.7341,34.4302,0.883824,0.0,0.0
2672,667.75,50.6632,53.6104,134.093,98.3652,90.3408,0.00610301,0.296849,20.7448,34.3401,0.768669,0.0,0.0
2680,669.75,50.628,53.4898,135.074,98.2613,91.2019,0.00601204,0.288378,20.7527,34.2401,0.673432,0.0,0.0
2688,671.75,49.9762,53.0751,138.105,98.1333,92.0717,0.0058914,0.28045,20.7605,34.14,0.575917,0.0,0.0
2696,673.75,49.9536,52.9065,135.214,98.0044,91.3205,0.00584376,0.27267,20.7695,34.0999,0.638054,0.0,0.0
2704,675.75,49.2932,51.7558,130.838,98.0235,90.7017,0.00580918,0.265108,20.7754,34.0399,0.70122,0.0,0.0
2712,677.75,49.798,50.6653,133.424,98.0393,92.3871,0.00581532,0.258692,20.7803,33.9498,0.536375,0.0,0.0
2720,679.75,48.7977,50.6777,135.134,98.0484,92.8587,0.00578633,0.251666,20.7867,33.8898,0.491225,0.0,0.0
2728,681.75,47.9389,49.3707,132.835,98.0746,93.0714,0.00565855,0.244578,20.793,33.8197,0.472972,0.0,0.0
2736,683.75,47.6058,49.6972,135.861,98.0948,92.6743,0.00548496,0.237945,20.7994,33.7797,0.513453,0.0,0.0
2744,685.75,47.4375,48.7071,132.249,98.1269,92.8105,0.00539465,0.232758,20.8047,33.7196,0.503139,0.0,0.0
2752,687.75,46.6558,48.0755,136.682,98.1412,93.7579,0.00535385,0.227551,20.8097,33.6395,0.412722,0.0,0.0
2760,689.75,46.3114,47.7921,133.208,98.1777,94.9133,0.00526215,0.222402,20.8149,33.5795,0.305437,0.0,0.0
2768,691.75,46.1965,47.3799,136.969,98.1951,93.1259,0.00518093,0.217827,20.8195,33.5194,0.478768,0.0,0.0
2776,693.75,45.7795,47.2963,134.378,98.2193,93.8896,0.0051406,0.213244,20.8236,33.4594,0.407224,0.0,0.0
2784,695.75,45.3226,46.443,134.722,98.2486,93.8053,0.00511203,0.208504,20.8277,33.4093,0.418035,0.0,0.0
2792,697.75,45.1127,45.467,133.385,98.2641,93.1805,0.00512111,0.204363,20.8294,33.3693,0.47982,0.0,0.0
2800,699.75,45.2964,45.1392,137.466,98.2768,94.3262,0.00516421,0.20058,20.8322,33.3092,0.370602,0.0,0.0
2808,701.75,44.4329,44.9046,132.35,98.2784,95.1546,0.00513826,0.196896,20.8378,33.2692,0.291765,0.0,0.0
2816,703.75,44.2284,44.6557,131.828,98.2906,92.9509,0.00507994,0.192112,20.8433,33.2092,0.504543,0.0,0.0
2824,705.75,43.5188,43.921,131.505,98.2918,94.6555,0.00502816,0.187466,20.8493,33.1591,0.340504,0.0,0.0
2832,707.75,42.8653,44.0219,133.912,98.3101,95.0646,0.00501552,0.18296,20.8533,33.1191,0.303223,0.0,0.0
2840,709.75,42.9607,43.672,136.318,98.3204,94.2938,0.00493177,0.17884,20.8582,33.1091,0.377709,0.0,0.0
2848,711.75,43.0206,42.5556,138.538,98.3307,94.0484,0.00483038,0.175136,20.8631,33.069,0.402194,0.0,0.0
2856,713.75,42.0738,43.2178,134.645,98.3283,95.2634,0.00481226,0.171634,20.8668,33.029,0.286035,0.0,0.0
2864,715.75,41.7189,41.768,133.535,98.3208,94.6356,0.00491764,0.168258,20.8707,32.9689,0.345068,0.0,0.0
2872,717.75,41.7875,42.0358,133.329,98.3045,94.5392,0.00496468,0.164689,20.8727,32.9289,0.352776,0.0,0.0
2880,719.75,41.626,41.4163,134.741,98.2851,94.829,0.00480007,0.161783,20.8747,32.8889,0.323343,0.0,0.0
2888,721.75,41.1214,41.6613,133.678,98.2585,94.5441,0.00464932,0.159084,20.8766,32.8689,0.348081,0.0,0.0
2896,723.75,41.4318,40.88,138.657,98.2185,95.6228,0.00463947,0.156391,20.878,32.8288,0.241926,0.0,0.0
2904,725.75,40.5067,40.8103,138.682,98.1892,95.3951,0.00460302,0.153676,20.88,32.8188,0.260763,0.0,0.0
2912,727.75,39.74,40.5157,135.25,98.1503,95.2359,0.00450572,0.151157,20.8823,32.7788,0.272276,0.0,0.0
2920,729.75,40.3775,39.98,135.038,98.1131,94.9483,0.00444182,0.148616,20.8848,32.7588,0.29616,0.0,0.0
2928,731.75,40.1094,39.9575,136.377,98.0663,94.5155,0.00442703,0.1463,20.8864,32.7087,0.333125,0.0,0.0
2936,733.75,39.5646,39.7671,140.148,98.0247,96.0056,0.00444689,0.14408,20.8882,32.6687,0.187996,0.0,0.0
2944,735.75,39.1647,39.26,136.867,97.9842,95.8136,0.00458745,0.141709,20.8905,32.6687,0.202347,0.0,0.0
2952,737.75,39.1749,38.8366,140.37,97.9379,96.2318,0.00476873,0.139813,20.8921,32.6387,0.158735,0.0,0.0
2960,739.75,39.062,38.4106,137.138,97.8839,95.9548,0.00487051,0.138015,20.8939,32.6086,0.179802,0.0,0.0
2968,741.75,38.7874,38.446,135.255,97.8384,95.788,0.00486505,0.136757,20.8939,32.6086,0.191303,0.0,0.0
2976,743.75,38.449,37.7927,135.192,97.7726,95.476,0.00484881,0.135933,20.8935,32.5486,0.214698,0.0,0.0
2984,745.75,38.2099,37.8415,136.393,97.7119,95.7997,0.00488233,0.134932,20.8942,32.5085,0.178521,0.0,0.0
2992,747.75,38.1522,37.469,139.344,97.6477,95.7248,0.00496615,0.133722,20.8959,32.5085,0.179648,0.0,0.0
3000,749.75,37.8711,37.3593,140.111,97.5958,95.6138,0.00504213,0.131838,20.8989,32.4885,0.185326,0.0,0.0
3008,751.75,37.8753,36.9068,140.837,97.5201,95.7485,0.00498134,0.129725,20.9019,32.4785,0.165595,0.0,0.0
3016,753.75,37.3155,37.1737,133.547,97.4566,95.8343,0.00489565,0.127706,20.9034,32.4685,0.151627,0.0,0.0
3024,755.75,37.3899,36.6107,135.151,97.4079,95.8347,0.00484687,0.125907,20.9048,32.4585,0.147072,0.0,0.0
3032,757.75,37.4702,36.6014,139.284,97.3508,95.645,0.00473016,0.123872,20.9073,32.4185,0.159673,0.0,0.0
3040,759.75,36.8363,36.4375,137.617,97.2909,95.4546,0.00466975,0.121831,20.9095,32.4085,0.172122,0.0,0.0
3048,761.75,36.8058,36.0366,141.04,97.218,94.7368,0.00477713,0.120226,20.9111,32.3684,0.233524,0.0,0.0
3056,763.75,36.1665,35.9902,135.889,97.1601,94.3108,0.00495436,0.118358,20.9125,32.3684,0.268859,0.0,0.0
3064,765.75,36.063,35.6714,136.196,97.1221,95.3974,0.00506692,0.116683,20.9142,32.3384,0.161846,0.0,0.0
3072,767.75,36.0818,35.5318,141.236,97.0777,95.2062,0.00520089,0.115104,20.9153,32.3084,0.175837,0.0,0.0
3080,769.75,35.8009,34.8889,138.687,97.063,94.8802,0.00541422,0.113636,20.9181,32.2984,0.20545,0.0,0.0
3088,771.75,35.8259,34.5429,140.986,97.0341,94.7214,0.00549994,0.112182,20.9215,32.2683,0.21789,0.0,0.0
3096,773.75,35.4313,34.6506,140.511,97.0016,95.0853,0.00546897,0.110409,20.923,32.2383,0.180224,0.0,0.0
3104,775.75,35.9094,34.1985,140.614,96.9865,95.3394,0.00538696,0.108635,20.9254,32.2383,0.154718,0.0,0.0
3112,777.75,35.2582,34.5223,134.923,96.9683,95.6507,0.00540678,0.106889,20.9275,32.2183,0.123578,0.0,0.0
3120,779.75,34.9744,34.584,135.624,96.9683,94.9231,0.00548495,0.105308,20.9295,32.2183,0.192545,0.0,0.0
3128,781.75,34.5658,33.9704,141.978,96.9572,95.0477,0.00543786,0.103857,20.9304,32.2083,0.179663,0.0,0.0
3136,783.75,34.8447,33.6489,141.95,96.9524,95.4708,0.00540804,0.102888,20.9307,32.1983,0.139106,0.0,0.0
3144,785.75,33.5143,33.1774,137.707,96.9484,95.4911,0.00545106,0.102131,20.9309,32.1983,0.136814,0.0,0.0
3152,787.75,33.8233,33.0972,139.661,96.9445,95.065,0.00543204,0.101215,20.9309,32.1783,0.176837,0.0,0.0
3160,789.75,33.7389,32.5903,139.168,96.9338,94.9736,0.0053478,0.100264,20.931,32.1783,0.184534,0.0,0.0
3168,791.75,33.5229,32.9224,140.345,96.9457,95.1403,0.00527617,0.0990964,20.9319,32.1282,0.169799,0.0,0.0
3176,793.75,33.5143,32.37,145.04,96.9409,95.5133,0.00528475,0.0977448,20.9347,32.1482,0.134013,0.0,0.0
3184,795.75,33.647,32.4474,138.183,96.9417,93.6122,0.00523751,0.0965344,20.9366,32.1582,0.315684,0.0,0.0
3192,797.75,33.307,32.7633,142.174,96.9389,95.3465,0.005172,0.0954632,20.9385,32.1382,0.14961,0.0,0.0
3200,799.75,32.2986,32.375,138.304,96.9417,95.6409,0.0051241,0.0943021,20.9397,32.1182,0.122028,0.0,0.0
3208,801.75,32.8743,32.2015,139.556,96.935,94.6676,0.00506496,0.092986,20.9414,32.0982,0.213794,0.0,0.0
3216,803.75,32.6086,32.2055,139.027,96.9437,94.9081,0.0050912,0.0916499,20.9423,32.0882,0.191688,0.0,0.0
3224,805.75,31.4006,31.4141,140.24,96.9627,95.304,0.00509484,0.0902949,20.9444,32.0682,0.155855,0.0,0.0
3232,807.75,32.0805,31.8346,139.014,96.9524,95.2788,0.00510184,0.0890749,20.9455,32.0481,0.157286,0.0,0.0
3240,809.75,31.7218,30.8687,137.047,96.9457,95.461,0.00516476,0.0878879,20.9463,32.0581,0.139405,0.0,0.0
3248,811.75,31.7499,31.0374,139.381,96.9548,94.9743,0.00520313,0.0870735,20.9478,32.0581,0.186421,0.0,0.0
3256,813.75,31.3085,31.1241,141.176,96.9346,95.301,0.00520097,0.0860988,20.9488,32.0682,0.153519,0.0,0.0
3264,815.75,31.5246,31.3986,138.311,96.9516,95.0157,0.0051839,0.0851923,20.9496,32.0581,0.182188,0.0,0.0
3272,817.75,32.1359,31.5376,137.081,96.9627,95.5396,0.00504906,0.0844118,20.9508,32.0481,0.133552,0.0,0.0
3280,819.75,31.6205,31.1945,137.685,96.979,95.2491,0.00481759,0.0837327,20.9519,32.0381,0.162578,0.0,0.0
3288,821.75,31.6707,31.1772,139.05,97.0103,95.5618,0.0046886,0.0830669,20.9535,32.0281,0.135884,0.0,0.0
3296,823.75,31.2899,30.6236,137.422,97.0115,95.814,0.0045388,0.0823975,20.954,32.0181,0.112188,0.0,0.0
3304,825.75,31.5991,30.5999,139.116,97.0499,95.6172,0.004377,0.0816942,20.9548,32.0081,0.134345,0.0,0.0
3312,827.75,31.2779,30.4194,139.111,97.0999,95.3206,0.00427456,0.0810169,20.9557,31.9881,0.167054,0.0,0.0
3320,829.75,31.1699,30.2483,139.921,97.1355,95.5464,0.00425634,0.0805509,20.9561,31.9781,0.148997,0.0,0.0
3328,831.75,30.7033,30.4586,137.475,97.2077,95.9469,0.00438238,0.0800868,20.9567,31.9681,0.117924,0.0,0.0
3336,833.75,30.9529,30.8538,137.348,97.2711,95.1452,0.00453316,0.0794998,20.9579,31.9681,0.199605,0.0,0.0
3344,835.75,30.7538,29.9535,137.17,97.3437,96.1968,0.00457078,0.0790239,20.9584,31.9681,0.107052,0.0,0.0
3352,837.75,30.4658,29.841,140.662,97.4321,96.038,0.00440167,0.0784667,20.9584,31.948,0.130178,0.0,0.0
3360,839.75,30.8886,30.2972,138.639,97.5458,96.2164,0.00412045,0.0781238,20.9574,31.948,0.123955,0.0,0.0
3368,841.75,30.3016,29.6798,138.59,97.6417,96.0432,0.00395099,0.0777416,20.9569,31.948,0.149101,0.0,0.0
3376,843.75,30.3731,29.7138,136.732,97.7543,96.8336,0.00396049,0.0773133,20.9568,31.9581,0.0854797,0.0,0.0
3384,845.75,30.29,29.9927,138.983,97.853,96.1403,0.00404649,0.0770602,20.9567,31.9581,0.159498,0.0,0.0
3392,847.75,30.4072,29.6547,142.781,97.9513,96.0316,0.00412402,0.0768354,20.9566,31.948,0.178794,0.0,0.0
3400,849.75,30.1591,29.429,141.134,98.0528,96.6059,0.00420937,0.0763866,20.9566,31.948,0.134284,0.0,0.0
3408,851.75,29.997,29.4532,142.902,98.1376,96.7821,0.00420661,0.0760208,20.9566,31.938,0.12564,0.0,0.0
3416,853.75,30.0357,29.1507,144.388,98.2217,97.2966,0.00416413,0.0757689,20.9571,31.948,0.0854797,0.0,0.0
3424,855.75,30.2878,28.9671,140.997,98.272,97.3737,0.00409761,0.0756133,20.9573,31.908,0.0829482,0.0,0.0
3432,857.75,29.961,29.5118,138.315,98.3093,96.5141,0.00406244,0.0753431,20.9574,31.898,0.16647,0.0,0.0
3440,859.75,29.6157,29.004,136.588,98.322,97.0252,0.00403078,0.0751529,20.9574,31.908,0.119926,0.0,0.0
3448,861.75,29.3314,28.9105,137.235,98.3267,97.2476,0.00386775,0.0749647,20.9586,31.898,0.0996784,0.0,0.0
3456,863.75,29.4192,28.8495,141.083,98.3006,97.1607,0.00375684,0.0746837,20.9592,31.898,0.105354,0.0,0.0
3464,865.75,28.9902,29.0624,139.379,98.291,96.962,0.00378342,0.0745309,20.9591,31.888,0.122974,0.0,0.0
3472,867.75,29.3268,28.4427,138.533,98.2657,96.9089,0.00380751,0.0744729,20.9589,31.888,0.125587,0.0,0.0
3480,869.75,29.4813,28.5101,140.88,98.2272,95.7899,0.00365443,0.0742325,20.9596,31.878,0.226956,0.0,0.0
3488,871.75,29.4358,29.1247,138.821,98.1622,96.8769,0.00349135,0.0739119,20.9604,31.868,0.119055,0.0,0.0
3496,873.75,29.3591,28.9773,135.28,98.1119,97.1046,0.0035003,0.073518,20.9608,31.858,0.0932149,0.0,0.0
3504,875.75,28.8732,28.7228,141.517,98.052,96.8464,0.00346127,0.0733445,20.9609,31.868,0.111751,0.0,0.0
3512,877.75,28.6928,27.9651,140.75,98.0211,96.8637,0.00334293,0.0733352,20.961,31.848,0.107288,0.0,0.0
3520,879.75,28.6676,27.974,139.207,98.1575,96.90625,0.0032441,0.073463,20.961,31.868,0.11588,0.0,0.0
3528,881.75,28.6939,28.375,136.129,98.4024,96.6989,0.00322543,0.0737013,20.9611,31.858,0.157746,0.0,0.0
3536,883.75,28.7973,28.492,140.62,98.588,97.1468,0.00327761,0.0736239,20.9614,31.8379,0.133018,0.0,0.0
3544,885.75,28.7886,28.5104,134.75,98.7334,97.4561,0.00337104,0.0734124,20.9617,31.848,0.117617,0.0,0.0
3552,887.75,28.5183,28.2265,143.009,98.8068,97.1377,0.00345298,0.073368,20.9621,31.848,0.153883,0.0,0.0
3560,889.75,28.796,29.1854,138.766,98.8139,97.3014,0.00351125,0.0731906,20.9633,31.848,0.139324,0.0,0.0
3568,891.75,29.2096,28.2818,138.57,98.7612,97.2183,0.00347549,0.0728933,20.9639,31.8379,0.142229,0.0,0.0
3576,893.75,28.8386,28.2971,138.631,98.6236,97.347,,0.072752,,31.8279,0.117688,0.0,0.0
3584,895.75,28.2159,27.9195,139.909,98.4143,96.6078,,0.0725368,,31.8179,0.16735,0.0,0.0
3592,897.75,28.6066,28.2576,142.813,98.2474,96.7448,,,,31.8279,0.139219,0.0,0.0
3600,899.75,28.3032,28.2986,138.676,98.3402,97.3045,,,,31.8079,0.0956391,0.0,0.0
3608,901.75,28.4008,27.8922,143.134,98.4599,98.0316,,,,31.848,0.0393782,0.0,0.0
3616,903.75,28.563,28.3584,138.708,98.588,97.5423,,,,31.8179,0.0963125,0.0,0.0