File: 01_Data/PET/Cone/PET_Cone_HF25Scan_220218_R4.csv
Names,Time,Stack TC,Smoke TC,Exh Press,Smoke Comp,Smoke Meas,CO Meter,CO2 Meter,O2 Meter,Sample Mass,Ext Coeff,Start Test,Flame Verif
Chan Gain,,500,500,1,1,1,1,1,1,1,1,1.0,1.0
Offset,,0,0,0.132436,0,0,0,0,0,0,0,0.0,0.0
Gain,,1,1,25.011,15.4219,15.1528,1,1,1,1.00089,1.02113,1.0,1.0
Units,sec,C,C,Pa,%,%,%,%,%,g,/m,,
Baseline,,19.4656,20.4973,166.263,116.529,116.12,-0.00693615,0.0511742,20.9888,-478.8,0.0314864,,
13,3,17.9915,18.9831,167.065,115.885,115.295,-0.00694969,0.0551269,20.988,492.626,0.0457072,0.0,0.0
26,6.25,18.3562,19.0501,164.301,115.854,115.036,-0.00714247,0.0549494,20.9902,492.656,0.0634469,0.0,0.0
39,9.5,18.3819,19.1183,168.489,115.856,115.446,-0.00717463,0.0543067,20.9925,492.636,0.031819,0.0,0.0
52,12.75,18.0618,19.2352,164.766,115.823,115.504,-0.00715881,0.0526127,20.9944,492.636,0.0247161,0.0,0.0
65,16,18.3621,19.6069,168.466,115.789,115.694,-0.00707021,0.0515714,20.9959,492.626,0.00729642,0.0,0.0
78,19.25,18.6968,19.5013,166.329,115.777,115.727,-0.00714817,0.0506875,20.9963,492.606,0.00388056,0.0,0.0
91,22.5,18.4604,19.4578,160.465,115.781,115.18,-0.00727139,0.050297,20.9954,492.616,0.0466134,0.0,0.0
104,25.75,19.0851,19.8134,166.656,115.781,115.414,-0.00729636,0.049878,20.9951,492.606,0.0284359,0.0,0.0
117,29,18.8152,19.3814,166.12,115.746,115.641,-0.00734023,0.0495925,20.9946,492.616,0.00813604,0.0,0.0
130,32.25,18.9165,19.7466,166.059,115.743,115.417,-0.00744182,0.0496527,20.9944,492.626,0.0252347,0.0,0.0
143,35.5,18.7774,19.9474,163.34,115.747,115.236,-0.00731658,0.0494833,20.9944,492.616,0.0396774,0.0,0.0
156,38.75,18.9972,20.1381,168.736,115.732,115.28,-0.00728855,0.0493345,20.9944,492.606,0.0350253,0.0,0.0
169,42,19.1801,20.2526,168.843,115.729,115.253,-0.00723026,0.0493917,20.9944,492.596,0.0369279,0.0,0.0
182,45.25,19.2491,20.0956,169.185,115.74,115.532,-0.00707237,0.0494648,20.9928,492.606,0.0160846,0.0,0.0
195,48.5,19.4319,20.1206,169.914,115.736,115.335,-0.00719597,0.0495031,20.9922,492.606,0.0311508,0.0,0.0
208,51.75,19.2937,20.7178,165.36,115.724,115.342,-0.0074126,0.0497275,20.9952,492.596,0.029629,0.0,0.0
221,55,18.9504,20.7054,164.648,115.736,115.143,-0.00738367,0.0500671,20.9948,492.606,0.0460674,0.0,0.0
234,58.25,19.7624,20.3342,169.587,115.74,115.234,-0.00726727,0.0500684,20.9942,492.596,0.0392394,0.0,0.0
247,61.5,19.2361,20.3117,163.639,115.726,115.115,-0.00735746,0.0498478,20.9935,492.586,0.0473888,0.0,0.0
260,64.75,19.6276,20.2388,164.098,115.727,115.212,-0.00746058,0.0497236,20.9923,492.606,0.0399453,0.0,0.0
273,68,19.4053,20.9384,167.502,115.731,115.428,-0.00742485,0.0497402,20.9918,492.606,0.0235351,0.0,0.0
286,71.25,19.6195,20.7219,167.592,115.71,115.481,-0.00742092,0.0497244,20.9917,492.596,0.0178068,0.0,0.0
299,74.5,19.1641,20.4014,164.817,115.706,114.972,-0.00756234,0.0497424,20.9934,492.586,0.0570194,0.0,0.0
312,77.75,19.6369,20.5332,166.858,115.704,115.094,-0.00756396,0.0498379,20.9938,492.606,0.0474047,0.0,0.0
325,81,19.781,20.6181,164.579,115.709,114.927,-0.00766753,0.0499266,20.9939,492.576,0.0607343,0.0,0.0
338,84.25,19.8456,20.6901,164.008,115.687,115.272,-0.00763486,0.04987,20.9943,492.586,0.0321754,0.0,0.0
351,87.5,19.7564,20.9542,166.524,115.726,114.801,-0.00750644,0.0497818,20.9947,492.566,0.0718179,0.0,0.0
364,90.75,20.2775,20.9036,163.74,115.763,114.994,-0.00740664,0.0497268,20.9948,492.566,0.059662,0.0,0.0
377,94,20.2345,20.8879,166.763,115.799,115.381,-0.00745694,0.0498082,20.9947,492.556,0.0324042,0.0,0.0
390,97.25,19.7996,20.9124,164.865,115.844,115.286,-0.00737137,0.0496662,20.9953,492.576,0.0432603,0.0,0.0
403,100.5,20.0195,21.2337,165.774,115.876,114.983,-0.00724967,0.0496075,20.9958,492.556,0.0692997,0.0,0.0
416,103.75,19.9105,20.8838,164.245,115.924,115.342,-0.00736485,0.049589,20.9959,492.556,0.0450985,0.0,0.0
429,107,19.8647,20.8744,165.62,115.929,115.772,-0.00733616,0.0495396,20.9965,492.556,0.0121986,0.0,0.0
442,110.25,20.2577,20.8913,169.743,115.961,115.605,-0.00726023,0.0496465,20.9967,492.586,0.0275598,0.0,0.0
455,113.5,19.6615,20.7179,163.73,115.987,115.462,-0.00726119,0.0495374,20.9968,492.556,0.0406373,0.0,0.0
468,116.75,20.3751,21.6601,163.875,115.984,115.076,-0.00732317,0.0496845,20.9962,492.556,0.0704238,0.0,0.0
481,120,20.3728,21.5699,165.11,116.019,115.234,-0.00735043,0.0497632,20.9948,492.546,0.0608118,0.0,0.0
494,123.25,20.356,21.2821,165.496,116.057,115.422,-0.00724259,0.0497128,20.9939,492.546,0.049173,0.0,0.0
507,126.5,20.5816,21.1469,163.329,116.071,115.659,-0.00746188,0.049693,20.9952,492.556,0.0318722,0.0,0.0
520,129.75,20.4456,21.3594,163.92,116.091,115.336,-0.00750047,0.0495972,20.9957,492.546,0.0584655,0.0,0.0
533,133,20.3356,21.1828,166.864,116.111,115.571,-0.00730449,0.0498495,20.9959,492.556,0.0417289,0.0,0.0
546,136.25,20.5873,21.2434,165.972,116.141,115.623,-0.00740482,0.0499652,20.9944,492.556,0.040075,0.0,0.0
559,139.5,20.3213,21.3927,166.281,116.157,115.745,-0.00738764,0.0502084,20.9938,492.556,0.0318211,0.0,0.0
572,142.75,20.4999,21.7544,162.015,116.186,116.063,-0.00726287,0.0508125,20.9931,492.536,0.00951959,0.0,0.0
585,146,20.3792,21.7867,163.656,116.201,115.506,-0.00729593,0.0512667,20.9927,492.536,0.053752,0.0,0.0
598,149.25,20.6864,21.8469,167.09,116.2,115.618,-0.00722855,0.0512175,20.9926,492.536,0.0449338,0.0,0.0
611,152.5,20.6541,21.4223,164.637,116.225,115.62,-0.00716855,0.051069,20.9926,492.536,0.0467855,0.0,0.0
624,155.75,20.3396,21.8486,161.418,116.252,115.873,-0.00708944,0.0513637,20.9926,492.526,0.0292405,0.0,0.0
637,159,20.7054,21.675,163.748,116.268,114.427,-0.00712557,0.051327,20.9934,492.526,0.142921,0.0,0.0
650,162.25,20.8608,21.9302,165.584,116.284,115.527,-0.00729207,0.050709,20.9945,492.536,0.0584856,0.0,0.0
663,165.5,21.2215,21.8819,165.955,116.301,115.86,-0.00740175,0.0502704,20.9947,492.516,0.0340127,0.0,0.0
676,168.75,20.8688,22.0488,165.574,116.343,115.109,-0.00717591,0.0499687,20.995,492.516,0.0954864,0.0,0.0
689,172,20.6036,21.9973,161.486,116.348,115.757,-0.0071641,0.0498081,20.9953,492.526,0.0455766,0.0,0.0
702,175.25,20.9372,21.6659,164.059,116.363,115.41,-0.00721239,0.0499539,20.9945,492.526,0.0736131,0.0,0.0
715,178.5,20.5331,21.8996,166.779,116.371,115.483,-0.00727471,0.0512956,20.9935,492.526,0.0686681,0.0,0.0
728,181.75,20.929,21.5849,164.643,116.376,116.107,-0.00739141,0.0523879,20.9932,492.526,0.0207401,0.0,0.0
741,185,20.9851,22.0469,165.606,116.382,115.52,-0.00754228,0.0525403,20.9931,492.516,0.0665603,0.0,0.0
754,188.25,20.8946,21.8914,159.974,116.41,115.812,-0.00761064,0.0520841,20.9922,492.526,0.0461736,0.0,0.0
767,191.5,21.0188,21.7701,166.906,116.419,115.717,-0.00761257,0.0516257,20.9916,492.506,0.0541606,0.0,0.0
780,194.75,21.3493,22.0111,166.987,116.415,115.561,-0.00767537,0.0510396,20.9922,492.496,0.0660134,0.0,0.0
793,198,21.0037,22.2713,162.766,116.44,115.634,-0.00754823,0.0504854,20.9923,492.516,0.0622349,0.0,0.0
806,201.25,21.1708,22.5563,161.938,116.433,115.527,-0.00735369,0.0500211,20.9924,492.506,0.0699703,0.0,0.0
819,204.5,21.3245,22.7052,167.363,116.427,115.784,-0.00736218,0.0500668,20.9924,492.506,0.0495872,0.0,0.0
832,207.75,21.1809,22.1334,164.881,116.427,115.483,-0.00749378,0.0499147,20.9924,492.486,0.0728707,0.0,0.0
845,211,21.208,22.7325,164.888,116.441,116.048,-0.00750104,0.0498394,20.9936,492.506,0.0302686,0.0,0.0
858,214.25,21.0268,22.2671,166.234,116.449,115.624,-0.00722947,0.0498622,20.9953,492.486,0.0637109,0.0,0.0
871,217.5,21.1307,21.9501,164.696,116.428,115.764,-0.00697482,0.0501115,20.9949,492.506,0.051234,0.0,0.0
884,220.75,20.7873,22.158,162.949,116.449,115.717,-0.00696964,0.0501941,20.995,492.486,0.0565133,0.0,0.0
897,224,21.4373,22.3594,166.474,116.447,115.849,-0.00732457,0.0500938,20.9957,492.496,0.0461364,0.0,0.0
910,227.25,21.0477,22.3016,159.235,116.458,115.323,-0.00734781,0.0498542,20.9958,492.496,0.0877498,0.0,0.0
923,230.5,21.6211,22.2146,167.267,116.456,115.586,-0.0072675,0.0500232,20.9958,492.496,0.0671909,0.0,0.0
936,233.75,21.3538,21.9172,164.077,116.474,115.768,-0.00724156,0.0502329,20.9952,492.476,0.0544238,0.0,0.0
949,237,21.2181,22.1919,164.058,116.469,114.767,-0.00720124,0.0505611,20.9943,492.466,0.131859,0.0,0.0
962,240.25,21.1798,22.0507,165.113,116.466,115.061,-0.00727012,0.0513381,20.9931,492.476,0.108718,0.0,0.0
975,243.5,21.6906,22.6306,165.736,116.48,115.454,-0.00729996,0.0523773,20.992,492.466,0.0792201,0.0,0.0
988,246.75,21.7261,22.8718,159.817,116.488,114.702,-0.00739465,0.0525052,20.9924,492.456,0.138398,0.0,0.0
1001,250,20.8163,22.0049,162.981,116.486,114.66,-0.00732661,0.0519842,20.9925,492.456,0.141467,0.0,0.0
1014,253.25,21.2898,22.6101,164.105,116.51,115.154,-0.00731474,0.0510819,20.9925,492.456,0.104814,0.0,0.0
1027,256.5,21.6106,22.4902,163.77,116.504,115.089,-0.00748393,0.0506252,20.9941,492.456,0.109525,0.0,0.0
1040,259.75,21.4091,22.7489,165.627,116.504,114.818,-0.00741178,0.0503907,20.9947,492.436,0.130641,0.0,0.0
1053,263,21.5758,22.3707,165.361,116.49,115.553,-0.0074188,0.050444,20.9948,492.436,0.0723432,0.0,0.0
1066,266.25,21.9161,22.9089,163.32,116.506,115.136,-0.00740222,0.0503452,20.9941,492.426,0.106001,0.0,0.0
1079,269.5,21.8167,22.4919,163.288,116.511,115.11,-0.0072392,0.0504642,20.9937,492.426,0.108341,0.0,0.0
1092,272.75,22.293,22.5669,164.568,116.489,114.979,-0.00730187,0.0504661,20.9946,492.426,0.11683,0.0,0.0
1105,276,21.4735,22.4258,165.895,116.498,114.747,-0.0074073,0.0503829,20.9942,492.416,0.135656,0.0,0.0
1118,279.25,21.3987,22.5221,165.09,116.504,115.089,-0.00722261,0.0504928,20.9935,492.426,0.109489,0.0,0.0
1131,282.5,21.9128,22.9297,167.061,116.505,114.947,-0.00713748,0.0506547,20.9947,492.426,0.120581,0.0,0.0
1144,285.75,21.2129,22.6286,161.741,116.509,114.749,-0.00720196,0.0510261,20.9951,492.416,0.136344,0.0,0.0
1157,289,21.316,22.8829,166.64,116.498,115.215,-0.0072162,0.051265,20.9952,492.396,0.099235,0.0,0.0
1170,292.25,22.5513,23.0445,165.968,116.51,114.941,-0.00722211,0.0510513,20.9958,492.396,0.121413,0.0,0.0
1183,295.5,21.5328,22.7998,166.7,116.481,114.801,-0.00701277,0.0507868,20.9969,492.376,0.130131,0.0,0.0
1196,298.75,21.6458,22.5295,165.227,116.506,114.678,-0.00706841,0.0506587,20.998,492.386,0.141615,0.0,0.0
1209,302,22.1173,22.9284,165.848,116.507,114.683,-0.00718106,0.0505676,20.9972,492.376,0.141326,0.0,0.0
1222,305.25,21.8285,23.3236,165.026,116.508,114.574,-0.00708051,0.0506817,20.9939,492.376,0.149926,0.0,0.0
1235,308.5,21.8158,23.149,164.859,116.482,114.18,-0.0069732,0.0512084,20.9928,492.346,0.178754,0.0,0.0
1248,311.75,21.9789,23.0654,165.084,116.503,114.617,-0.00706204,0.0514641,20.9919,492.336,0.146166,0.0,0.0
1261,315,21.6583,23.1701,164.604,116.481,114.534,-0.00713147,0.0515802,20.9922,492.336,0.15101,0.0,0.0
1274,318.25,21.7842,22.8996,162.11,116.499,113.937,-0.00719057,0.0516127,20.9923,492.316,0.199158,0.0,0.0
1287,321.5,21.9782,23.3385,162.524,116.499,114.68,-0.00726682,0.0520603,20.9911,492.336,0.141,0.0,0.0
1300,324.75,21.5979,22.5226,163.108,116.493,113.992,-0.0072351,0.0527455,20.9903,492.326,0.194436,0.0,0.0
1313,328,22.1245,23.3485,162.61,116.494,114.841,-0.00716977,0.0532576,20.9926,492.316,0.127969,0.0,0.0
1326,331.25,21.8739,23.195,165.033,116.493,114.073,-0.00711589,0.0534687,20.9933,492.306,0.188006,0.0,0.0
1339,334.5,22.2189,23.2236,161.574,116.491,114.07,-0.00711497,0.0529324,20.9941,492.296,0.188152,0.0,0.0
1352,337.75,22.4471,23.6315,163.353,116.49,114.632,-0.0071606,0.0522245,20.9954,492.296,0.144069,0.0,0.0
1365,341,21.9896,24.0196,165.206,116.474,114.505,-0.00710471,0.0517841,20.995,492.306,0.152745,0.0,0.0
1378,344.25,22.2309,23.1629,164.372,116.456,114.192,-0.00700031,0.0518038,20.9948,492.296,0.175784,0.0,0.0
1391,347.5,22.1998,22.8006,163.608,116.433,114.326,-0.00693087,0.0522809,20.9939,492.296,0.16357,0.0,0.0
1404,350.75,22.4147,23.2089,165.707,116.394,113.823,-0.00680431,0.0527953,20.994,492.286,0.200105,0.0,0.0
1417,354,22.1834,23.7354,162.787,116.383,113.578,-0.00698627,0.0531251,20.9928,492.276,0.218545,0.0,0.0
1430,357.25,22.012,23.5642,164.821,116.336,113.969,-0.00726442,0.0530426,20.9921,492.266,0.184086,0.0,0.0
1443,360.5,21.79,22.8961,162.179,116.272,113.907,-0.00740193,0.0528679,20.9913,492.246,0.184064,0.0,0.0
1456,363.75,22.1282,23.3896,166.016,116.215,113.648,-0.00718764,0.0538626,20.9888,492.266,0.200099,0.0,0.0
1469,367,22.6075,23.8355,162.86,116.152,113.391,-0.00685934,0.0552195,20.9876,492.246,0.21545,0.0,0.0
1482,370.25,22.5712,23.4516,162.566,116.062,113.874,-0.00660667,0.0565514,20.9876,492.226,0.170461,0.0,0.0
1495,373.5,22.8121,23.8842,164.663,115.992,113.178,-0.00656121,0.0569673,20.9888,492.216,0.219995,0.0,0.0
1508,376.75,22.6279,24.211,166.058,115.938,113.643,-0.00667913,0.0564521,20.9896,492.166,0.179109,0.0,0.0
1521,380,22.58,23.8171,163.715,115.861,113.253,-0.00682587,0.0561151,20.9897,492.176,0.203922,0.0,0.0
1534,383.25,22.794,24.0142,166.909,115.772,113.026,-0.00674867,0.0570967,20.9882,492.176,0.215018,0.0,0.0
1547,386.5,22.5034,23.5562,163.101,115.698,113.475,-0.00669584,0.0582704,20.9871,492.156,0.173749,0.0,0.0
1560,389.75,22.6051,24.1156,162.335,115.689,112.534,-0.0066506,0.0579319,20.9868,492.176,0.247721,0.0,0.0
1573,393,22.7834,23.7528,161.492,115.699,113.034,-0.00663196,0.057065,20.9867,492.166,0.208676,0.0,0.0
1586,396.25,23.058,24.0286,165.506,115.724,113.002,-0.00677281,0.0568368,20.9874,492.156,0.213173,0.0,0.0
1599,399.5,22.7648,23.3364,165.095,115.754,112.757,-0.00681615,0.0556472,20.9912,492.136,0.234952,0.0,0.0
1612,402.75,22.8872,23.8898,161.605,115.769,112.95,-0.00674468,0.0538886,20.9935,492.126,0.220812,0.0,0.0
1625,406,23.0486,23.6928,163.346,115.773,112.894,-0.00691963,0.0525794,20.9952,492.106,0.225541,0.0,0.0
1638,409.25,22.9755,24.2802,168.501,115.831,112.687,-0.00705642,0.0517863,20.9956,492.096,0.246544,0.0,0.0
1651,412.5,22.7105,23.9187,161.689,115.837,112.669,-0.00678575,0.0514772,20.9958,492.086,0.248379,0.0,0.0
1664,415.75,23.0483,23.9509,165.961,115.862,112.912,-0.00677953,0.0512152,20.9951,492.066,0.230953,0.0,0.0
1677,419,23.0413,24.0634,166.155,115.912,112.766,-0.00695785,0.0511673,20.9956,492.056,0.246446,0.0,0.0
1690,422.25,22.9839,23.9652,164.194,115.953,112.244,-0.00688441,0.0510432,20.9957,492.026,0.291212,0.0,0.0
1703,425.5,22.6352,24.0264,161.819,115.993,113,-0.00659806,0.0512255,20.9958,492.026,0.234205,0.0,0.0
1716,428.75,23.0323,24.2599,161.818,116.02,112.934,-0.00664099,0.0512802,20.9958,491.996,0.241519,0.0,0.0
1729,432,22.8211,24.1774,161.905,116.067,112.848,-0.00663173,0.051196,20.9959,491.986,0.25194,0.0,0.0
1742,435.25,22.4204,23.8341,165.602,116.104,113.091,-0.00639603,0.0513033,20.9965,491.966,0.23556,0.0,0.0
1755,438.5,23.1059,24.5585,162.271,116.108,112.323,-0.00628746,0.0513665,20.9966,491.976,0.296821,0.0,0.0
1768,441.75,23.1323,23.9579,163.747,116.165,113.17,-0.00632435,0.0518264,20.9961,491.946,0.233909,0.0,0.0
1781,445,22.8333,23.972,162.177,116.197,113.632,-0.00656549,0.0531896,20.9917,491.946,0.199959,0.0,0.0
1794,448.25,22.5049,24.1789,161.725,116.217,113.324,-0.006777,0.0546411,20.9891,491.936,0.225792,0.0,0.0
1807,451.5,23.24,24.4446,162.962,116.251,112.246,-0.0067354,0.0551938,20.9885,491.906,0.314085,0.0,0.0
1820,454.75,22.975,23.9608,168.084,116.282,112.767,-0.00666033,0.0559057,20.9867,491.886,0.274949,0.0,0.0
1833,458,23.2247,24.2179,166.889,116.309,113.096,-0.00654369,0.0562553,20.9868,491.846,0.250865,0.0,0.0
1846,461.25,23.1244,24.4637,163.086,116.327,113.264,-0.00665298,0.0558029,20.9875,491.846,0.239066,0.0,0.0
1859,464.5,22.8866,24.5146,164.874,116.386,113.362,-0.00659487,0.0547613,20.9893,491.846,0.235809,0.0,0.0
1872,467.75,23.1417,24.6396,164.546,116.39,113.191,-0.00655838,0.0536532,20.9919,491.806,0.249628,0.0,0.0
1885,471,23.2521,24.1002,163.411,116.393,113.418,-0.00668071,0.0540827,20.9919,491.776,0.231895,0.0,0.0
1898,474.25,22.94,24.201,163.249,116.423,113.348,-0.00665514,0.0557913,20.991,491.756,0.239767,0.0,0.0
1911,477.5,23.6498,24.1833,164.75,116.457,113.111,-0.006351,0.0563429,20.9912,491.746,0.261139,0.0,0.0
1924,480.75,23.1703,24.8508,165.52,116.464,113.11,-0.00604069,0.0552345,20.9921,491.715,0.261755,0.0,0.0
1937,484,23.7033,24.628,162.552,116.476,113.027,-0.00590556,0.0538194,20.9932,491.695,0.269254,0.0,0.0
1950,487.25,23.7685,24.6283,166.2,116.504,112.597,-0.00603182,0.052458,20.9946,491.695,0.305572,0.0,0.0
1963,490.5,23.1633,24.297,164.401,116.512,113.308,-0.00628127,0.0517054,20.9955,491.675,0.249823,0.0,0.0
1976,493.75,22.6655,23.7872,165.068,116.505,112.884,-0.00631231,0.0514529,20.9957,491.655,0.282829,0.0,0.0
1989,497,23.2111,24.4305,163.573,116.522,113.322,-0.00624688,0.0513583,20.9957,491.665,0.249486,0.0,0.0
2002,500.25,23.1449,24.1529,163.744,116.521,112.908,-0.0062478,0.0513674,20.9957,491.665,0.282151,0.0,0.0
2015,503.5,23.2727,24.5801,163.74,116.511,113.128,-0.00616666,0.0516865,20.9951,491.615,0.263874,0.0,0.0
2028,506.75,23.236,24.6129,165.084,116.512,113.264,-0.00593508,0.0529392,20.9925,491.615,0.253223,0.0,0.0
2041,510,23.6454,24.8859,166.942,116.508,112.788,-0.00603848,0.0546304,20.991,491.585,0.290681,0.0,0.0
2054,513.25,23.7166,24.5644,159.432,116.496,113.311,-0.00613803,0.0558281,20.9908,491.555,0.248228,0.0,0.0
2067,516.5,23.451,24.0814,163.928,116.479,112.126,-0.00618086,0.0559588,20.9919,491.525,0.341108,0.0,0.0
2080,519.75,23.5099,24.6281,162.967,116.485,113.089,-0.00625917,0.0551068,20.9927,491.495,0.264995,0.0,0.0
2093,523,23.2704,24.274,163.975,116.462,112.4,-0.00620565,0.0538617,20.9928,491.495,0.317999,0.0,0.0
2106,526.25,23.2961,24.3949,165.524,116.434,112.296,-0.00598207,0.0530955,20.9929,491.475,0.324158,0.0,0.0
2119,529.5,23.1708,24.1942,164.436,116.421,112.535,-0.00596789,0.0533333,20.9932,491.435,0.304133,0.0,0.0
2132,532.75,23.0708,24.7116,164.163,116.401,112.201,-0.00593175,0.0543853,20.9923,491.415,0.329189,0.0,0.0
2145,536,23.3581,24.1862,164.053,116.36,112.63,-0.00586918,0.0541268,20.994,491.405,0.291881,0.0,0.0
2158,539.25,23.0016,24.5247,163.023,116.34,112.68,-0.00582886,0.0533417,20.995,491.365,0.286316,0.0,0.0
2171,542.5,23.6497,24.9279,162.791,116.32,112.762,-0.00590461,0.0533657,20.9938,491.345,0.278325,0.0,0.0
2184,545.75,23.614,25.161,161.283,116.303,112.31,-0.00610109,0.0545504,20.9931,491.315,0.312945,0.0,0.0
2197,549,24.0954,24.8764,159.907,116.263,111.799,-0.00594333,0.0551223,20.9931,491.295,0.350673,0.0,0.0
2210,552.25,23.935,24.938,164.383,116.232,111.68,-0.00578596,0.0551759,20.994,491.255,0.357843,0.0,0.0
2223,555.5,23.3915,24.9765,164.256,116.208,111.318,-0.00567071,0.0547607,20.9932,491.245,0.385043,0.0,0.0
2236,558.75,23.4221,24.2716,163.902,116.165,111.987,-0.00566402,0.0540204,20.9918,491.205,0.328099,0.0,0.0
2249,562,23.2333,24.9952,165.753,116.133,111.601,-0.00585666,0.0537206,20.9909,491.185,0.356495,0.0,0.0
2262,565.25,24.1602,25.3246,164.138,116.126,112.025,-0.00605366,0.0541948,20.9906,491.175,0.322053,0.0,0.0
2275,568.5,23.1006,24.7988,164.104,116.089,111.475,-0.00585923,0.0561171,20.9879,491.145,0.363293,0.0,0.0
2288,571.75,23.6578,24.9541,163.215,116.037,111.613,-0.00564912,0.0593889,20.9832,491.125,0.348194,0.0,0.0
2301,575,23.7284,24.4145,162.374,116.008,111.41,-0.00558012,0.0603834,20.9828,491.075,0.362248,0.0,0.0
2314,578.25,23.9949,24.637,164.28,115.998,111.255,-0.00562239,0.0589207,20.9856,491.065,0.373912,0.0,0.0
2327,581.5,24.0977,24.8863,164.188,115.966,111.402,-0.0055431,0.0567439,20.9888,491.025,0.359646,0.0,0.0
2340,584.75,23.7824,24.9321,161.145,115.965,111.191,-0.00548466,0.0549744,20.9922,491.015,0.376508,0.0,0.0
2353,588,24.2524,24.9743,168.846,115.948,111.651,-0.00554492,0.0536071,20.9935,490.985,0.338247,0.0,0.0
2366,591.25,23.9049,24.6935,163.123,115.935,112.241,-0.00555645,0.0529131,20.9941,490.955,0.290051,0.0,0.0
2379,594.5,23.5926,25.0143,161.89,115.935,111.264,-0.00546611,0.0523372,20.9951,490.925,0.36837,0.0,0.0
2392,597.75,24.0054,25.0552,164.491,115.951,111.09,-0.00527316,0.0516456,20.9953,490.885,0.383615,0.0,0.0
2405,601,23.6898,25.2336,162.186,115.97,111.08,-0.00537721,0.0512529,20.9959,490.875,0.385889,0.0,0.0
2418,604.25,24.2706,25.0952,160.996,115.955,110.505,-0.00544017,0.0509623,20.999,490.835,0.431235,0.0,0.0
2431,607.5,24.0848,25.2991,164.558,115.986,111.191,-0.00545007,0.0516215,20.9975,490.715,0.37818,0.0,0.0
2444,610.75,23.9114,25.8594,160.227,115.998,111.51,-0.00577399,0.0573494,20.9921,490.745,0.353422,0.0,0.0
2457,614,24.1953,25.3144,167.416,116.013,111.333,-0.00588422,0.0598888,20.9911,490.715,0.368822,0.0,0.0
2470,617.25,24.2491,25.1477,157.194,116.02,110.262,-0.0056011,0.0566891,20.9943,490.675,0.455987,0.0,0.0
2483,620.5,23.8205,25.423,164.283,116.055,111.14,-0.00535956,0.0536896,20.9956,490.655,0.387656,0.0,0.0
2496,623.75,24.4164,25.1594,163.604,116.064,111.175,-0.0052049,0.0526129,20.9959,490.605,0.385441,0.0,0.0
2509,627,23.8236,25.4879,163.14,116.052,111.567,-0.00514746,0.052203,20.9967,490.534,0.353033,0.0,0.0
2522,630.25,23.0853,25.0022,159.104,116.081,112.182,-0.00514012,0.0546473,20.9941,490.504,0.306005,0.0,0.0
2535,633.5,23.9538,25.7221,159.422,116.08,110.784,-0.00520605,0.0559493,20.9942,490.494,0.418287,0.0,0.0
2548,636.75,24.2009,25.4693,161.967,116.069,111.682,-0.00481832,0.0536889,20.9951,490.424,0.3451,0.0,0.0
2561,640,24.4274,25.5552,161.744,116.077,110.568,-0.00485195,0.0521942,20.9959,490.394,0.435513,0.0,0.0
2574,643.25,23.8789,25.4134,161.924,116.068,111.697,-0.00516637,0.055521,20.9911,490.364,0.343841,0.0,0.0
2587,646.5,24.477,25.0207,162.348,116.036,110.681,-0.00544264,0.0618656,20.9862,490.274,0.423215,0.0,0.0
2600,649.75,24.4244,25.4119,158.829,116.012,108.291,-0.0053913,0.065303,20.9835,490.274,0.616884,0.0,0.0
2613,653,24.3278,26.1437,160.561,116.012,109.998,-0.00491568,0.0644248,20.9827,490.214,0.476808,0.0,0.0
2626,656.25,24.2387,25.8058,165.981,115.992,110.959,-0.00466979,0.0664848,20.9784,490.034,0.397335,0.0,0.0
2639,659.5,24.8746,26.3458,159.4,115.946,113.389,-0.00490363,0.0799573,20.9545,490.114,0.199759,0.0,1.0
2652,662.75,25.0613,25.6979,151.568,115.958,105.581,-0.00420064,0.141844,20.8634,489.934,0.839662,0.0,1.0
2665,666,26.0989,27.491,143.846,115.951,95.6809,-0.00139653,0.269659,20.7078,489.634,1.72108,0.0,0.0
2678,669.25,27.4655,29.2698,144.6,115.923,87.5533,0.00196909,0.435573,20.5194,489.203,2.51412,0.0,0.0
2691,672.5,30.3839,32.5499,145.345,115.928,81.4691,0.00600756,0.58794,20.3656,488.633,3.15965,0.0,0.0
2704,675.75,34.0777,36.6709,136.217,115.909,80.5901,0.00912858,0.725696,20.2007,488.082,3.25534,0.0,0.0
2717,679,36.9035,41.1196,133.502,115.87,79.8469,0.0113842,0.825528,20.0875,487.432,3.33526,0.0,0.0
2730,682.25,41.0268,44.7853,134.968,115.847,75.5903,0.0141818,0.902923,19.9821,486.761,3.82423,0.0,0.0
2743,685.5,44.3758,49.3151,119.498,115.829,70.296,0.0208684,1.0412,19.8067,485.95,4.47326,0.0,0.0
2756,688.75,48.7908,54.4777,119.741,115.776,63.631,0.0324364,1.31524,19.4779,484.839,5.36141,0.0,0.0
2769,692,53.9802,61.6797,115.124,115.737,65.1205,0.0406381,1.596,19.2026,483.718,5.15117,0.0,0.0
2782,695.25,59.6918,68.6581,125.669,115.711,68.462,0.0423874,1.72324,19.1018,482.587,4.70095,0.0,0.0
2795,698.5,64.0926,73.9781,112.464,115.681,67.2555,0.0412515,1.71938,19.1151,481.637,4.85784,0.0,0.0
2808,701.75,67.5787,77.991,119.931,115.632,68.0111,0.0404372,1.67242,19.1706,480.526,4.75401,0.0,0.0
2821,705,70.658,81.7393,115.755,115.581,71.8765,0.0400959,1.60448,19.2505,479.515,4.25489,0.0,0.0
2834,708.25,73.8168,85.8513,123.909,115.525,67.5256,0.0393243,1.52992,19.3253,478.624,4.80987,0.0,0.0
2847,711.5,75.9345,88.0542,126.001,115.444,66.1891,0.0379763,1.45283,19.415,477.703,4.98265,0.0,0.0
2860,714.75,77.2438,89.1551,131.417,115.341,64.0287,0.0368735,1.37588,19.5049,476.802,5.27189,0.0,0.0
2873,718,78.2269,90.6675,133.467,115.264,63.9847,0.0351766,1.3287,19.5505,475.941,5.27205,0.0,0.0
2886,721.25,79.2552,91.6666,129.934,115.157,68.7838,0.0326473,1.28948,19.5957,475.021,4.61592,0.0,0.0
2899,724.5,79.8893,92.5783,133.658,115.058,67.6536,0.0297204,1.2231,19.6748,474.27,4.75662,0.0,0.0
2912,727.75,79.4915,92.9374,135.451,114.946,70.5484,0.0267718,1.16733,19.7352,473.519,4.37261,0.0,0.0
2925,731,80.1685,92.757,133.576,114.863,66.9655,0.0239945,1.10741,19.805,472.789,4.83301,0.0,0.0
2938,734.25,80.3546,92.5846,130.851,114.763,70.0601,0.021808,1.05235,19.8618,472.088,4.42051,0.0,0.0
2951,737.5,79.3883,91.929,131.03,114.685,71.7304,0.0197765,1.01161,19.9065,471.387,4.20344,0.0,0.0
2964,740.75,79.4722,91.9152,138.2,114.604,70.9836,0.0183442,0.973296,19.9436,470.727,4.29086,0.0,0.0
2977,744,79.4262,91.9369,132.978,114.521,72.9091,0.0175649,0.936315,19.9912,470.096,4.04461,0.0,0.0
2990,747.25,78.837,91.0279,135.361,114.413,73.4155,0.016549,0.906481,20.024,469.486,3.97418,0.0,0.0
3003,750.5,78.267,90.6473,135.138,114.34,75.7706,0.0152076,0.884169,20.0512,468.885,3.68556,0.0,0.0
3016,753.75,78.2362,90.1236,139.944,114.276,76.3875,0.0139094,0.855767,20.0827,468.295,3.60791,0.0,0.0
3029,757,77.6863,89.0297,139.074,114.201,77.1316,0.0126687,0.829437,20.1095,467.744,3.51526,0.0,0.0
3042,760.25,77.4738,88.4462,141.73,114.132,77.7392,0.0121341,0.81066,20.1302,467.164,3.43954,0.0,0.0
3055,763.5,76.0545,87.6144,138.309,114.086,76.855,0.0117583,0.793165,20.1485,466.643,3.53842,0.0,0.0
3068,766.75,76.4951,87.2815,135.935,114.036,76.9346,0.011402,0.782451,20.1585,466.073,3.52524,0.0,0.0
3081,770,75.873,86.8081,138.421,113.989,76.3954,0.0114973,0.779093,20.1617,465.552,3.5845,0.0,0.0
3094,773.25,75.6372,85.9123,139.105,113.972,77.0627,0.0113107,0.776856,20.1663,465.042,3.50527,0.0,0.0
3107,776.5,75.658,85.6318,137.822,113.951,78.3991,0.010633,0.772746,20.1707,464.461,3.34964,0.0,0.0
3120,779.75,75.5016,85.2607,139.835,113.927,76.3991,0.0100243,0.765677,20.1785,463.951,3.57918,0.0,0.0
3133,783,74.9882,84.7245,139.133,113.925,79.1616,0.00954688,0.755483,20.1905,463.43,3.2609,0.0,0.0
3146,786.25,74.4062,84.8157,139.09,113.938,82.5568,0.00917546,0.748221,20.1985,462.94,2.88571,0.0,0.0
3159,789.5,74.6522,84.0488,139.792,113.956,80.4985,0.0089269,0.74413,20.2039,462.39,3.1133,0.0,0.0
3172,792.75,74.2139,83.6261,138.871,113.963,80.7676,0.00903948,0.744809,20.2028,461.869,3.08399,0.0,0.0
3185,796,74.3932,83.656,140.256,114.008,81.2675,0.00905351,0.744647,20.2023,461.399,3.03224,0.0,0.0
3198,799.25,74.011,83.3453,135.748,114.055,83.1477,0.00904374,0.74133,20.2052,460.898,2.83106,0.0,0.0
3211,802.5,73.3788,82.6528,137.844,114.094,82.3981,0.00875964,0.742474,20.206,460.418,2.91521,0.0,0.0
3224,805.75,73.9161,83.1709,138.793,114.163,82.8994,0.00854084,0.739167,20.21,459.887,2.86631,0.0,0.0
3237,809,73.8422,82.435,142.445,114.238,83.2462,0.00821199,0.721544,20.232,459.387,2.83479,0.0,0.0
3250,812.25,72.9771,82.4394,135.621,114.304,85.1935,0.00749418,0.702899,20.2488,458.936,2.63284,0.0,0.0
3263,815.5,73.0667,81.4915,141.357,114.399,87.1399,0.00656684,0.686026,20.2705,458.496,2.43795,0.0,0.0
3276,818.75,72.68,81.3304,141.679,114.496,88.8129,0.00559892,0.665478,20.2952,458.056,2.27523,0.0,0.0
3289,822,72.4715,81.1439,141.712,114.593,84.0314,0.00528009,0.646845,20.3122,457.655,2.77851,0.0,0.0
3302,825.25,71.735,80.0548,137.107,114.672,85.0206,0.00534477,0.640506,20.3168,457.195,2.67987,0.0,0.0
3315,828.5,71.4128,79.8469,141.354,114.784,85.5403,0.00530169,0.637591,20.3173,456.765,2.63402,0.0,0.0
3328,831.75,71.5407,79.0507,138.991,114.927,85.729,0.00542753,0.643019,20.3106,456.354,2.62545,0.0,0.0
3341,835,70.7519,79.3618,138.92,115.014,87.1464,0.00571259,0.650781,20.3048,455.874,2.48532,0.0,0.0
3354,838.25,70.762,77.9579,139.82,115.108,85.6222,0.00614636,0.667951,20.2849,455.393,2.65069,0.0,0.0
3367,841.5,71.3438,78.6132,138.534,115.221,83.3526,0.00643926,0.677042,20.2755,454.973,2.90007,0.0,0.0
3380,844.75,71.3976,78.6508,144.651,115.334,84.7547,0.00673244,0.679071,20.2723,454.462,2.75943,0.0,0.0
3393,848,71.2045,79.1397,140.34,115.422,86.2391,0.00670908,0.690188,20.2564,453.992,2.61078,0.0,0.0
3406,851.25,71.6448,78.7221,141.35,115.519,85.2356,0.00669146,0.703055,20.2391,453.502,2.72317,0.0,0.0
3419,854.5,71.5489,79.3581,139.055,115.619,84.9494,0.00743184,0.720076,20.2214,453.051,2.761,0.0,0.0
3432,857.75,71.6652,79.6094,138.851,115.701,84.0421,0.00800748,0.730711,20.2096,452.551,2.86356,0.0,0.0
3445,861,71.5042,79.7594,137.953,115.796,83.8779,0.00833262,0.739945,20.1995,452.04,2.8884,0.0,0.0
3458,864.25,71.7329,79.8282,135.899,115.862,80.6941,0.00868579,0.742325,20.196,451.51,3.24011,0.0,0.0
3471,867.5,71.7846,79.6922,133.918,115.921,82.4629,0.00899179,0.75383,20.1804,450.969,3.05051,0.0,0.0
3484,870.75,72.311,80.436,136.104,115.977,79.7609,0.00993236,0.78635,20.1355,450.429,3.35321,0.0,0.0
3497,874,73.1561,80.636,136.714,116.045,84.0046,0.0102425,0.813877,20.1189,449.848,2.89415,0.0,0.0
3510,877.25,73.4026,81.5591,136.836,116.079,82.5059,0.00945087,0.803164,20.1338,449.328,3.05798,0.0,0.0
3523,880.5,73.3477,81.375,137.387,116.084,85.6083,0.00918565,0.776285,20.1587,448.797,2.72778,0.0,0.0
3536,883.75,73.3611,81.6438,137.761,116.087,81.9542,0.00973829,0.772184,20.1623,448.307,3.11869,0.0,0.0
3549,887,74.0514,81.7813,140.903,116.076,80.7436,0.00959274,0.775084,20.1664,447.777,3.25119,0.0,0.0
3562,890.25,73.8903,81.5849,136.151,116.031,80.3649,0.00886997,0.751771,20.1976,447.256,3.28978,0.0,0.0
3575,893.5,74.2044,81.6629,136.796,115.995,83.704,0.00802891,0.717093,20.2378,446.806,2.9224,0.0,0.0
3588,896.75,73.7898,81.0412,137.696,115.94,84.1443,0.00726032,0.692344,20.2604,446.315,2.87117,0.0,0.0
3601,900,73.6414,81.377,137.35,115.888,84.6146,0.00701704,0.68998,20.2668,445.855,2.81721,0.0,0.0
3614,903.25,73.3604,80.0716,138.08,115.814,83.6301,0.00710204,0.67079,20.2883,445.435,2.91636,0.0,0.0
3627,906.5,72.2842,80.4825,141.646,115.777,85.0594,0.00657627,0.630682,20.3431,445.054,2.76165,0.0,0.0
3640,909.75,71.9735,79.4073,142.9,115.71,84.3834,0.00584366,0.59346,20.3797,444.654,2.82799,0.0,0.0
3653,913,72.3114,78.2506,143.617,115.654,85.7202,0.00531155,0.568586,20.4118,444.253,2.68278,0.0,0.0
3666,916.25,71.424,77.3351,142.59,115.724,84.0971,0.00500931,0.547036,20.4324,443.913,2.85945,0.0,0.0
3679,919.5,70.3612,77.4192,142.765,115.962,86.8495,0.0047381,0.53673,20.4427,443.533,2.58943,0.0,0.0
3692,922.75,70.1023,76.0633,143.051,116.171,86.2409,0.00424016,0.524703,20.4579,443.183,2.66851,0.0,0.0
3705,926,69.1069,75.508,145.622,116.305,87.3605,0.00387856,0.512146,20.4723,442.812,2.56335,0.0,0.0
3718,929.25,68.2808,75.0957,143.7,116.424,86.2886,0.00369228,0.49681,20.4861,442.472,2.68303,0.0,0.0
3731,932.5,68.3703,74.2099,143.228,116.462,90.7038,0.00366718,0.475815,20.5165,442.152,2.23897,0.0,0.0
3744,935.75,67.0502,72.3698,145.457,116.482,88.9008,0.00304233,0.454277,20.5395,441.801,2.42041,0.0,0.0
3757,939,66.2915,71.9226,148.299,116.419,90.3329,0.0023552,0.440223,20.5547,441.531,2.27241,0.0,0.0
3770,942.25,65.463,71.077,145.987,116.307,94.1716,0.00213337,0.430867,20.5651,441.221,1.89099,0.0,0.0
3783,945.5,63.9228,69.0742,147.007,116.164,93.3748,0.00155184,0.420131,20.5778,440.951,1.95611,0.0,0.0
3796,948.75,63.6604,69.2835,146.813,115.984,95.4608,0.00139783,0.414509,20.5848,440.66,1.74433,0.0,0.0
3809,952,63.5622,68.2407,147.181,115.758,92.6849,0.00131486,0.407948,20.593,440.4,1.9912,0.0,0.0
3822,955.25,63.0566,66.7203,147.743,115.69,93.2597,0.00140085,0.401687,20.5989,440.13,1.93054,0.0,0.0
3835,958.5,62.4326,66.8937,148.178,115.761,92.9813,0.00161006,0.400205,20.5992,439.88,1.96278,0.0,0.0
3848,961.75,61.5138,66.268,149.236,115.846,93.3813,0.00165329,0.399453,20.6007,439.589,1.93092,0.0,0.0
3861,965,60.6904,65.701,149.134,115.935,94.2331,0.00134876,0.394768,20.6059,439.319,1.85643,0.0,0.0
3874,968.25,60.6236,64.9899,147.982,116.039,92.5591,0.00131473,0.394894,20.6052,439.039,2.02505,0.0,0.0
3887,971.5,60.5789,64.8102,148.579,116.145,93.1658,0.00124261,0.398181,20.6026,438.779,1.97473,0.0,0.0
3900,974.75,59.0602,63.2575,146.47,116.245,97.9889,0.00134556,0.40163,20.5992,438.498,1.53032,0.0,0.0
3913,978,59.7035,63.2453,148.027,116.32,96.5674,0.00171505,0.404105,20.5972,438.258,1.66701,0.0,0.0
3926,981.25,58.9781,62.8856,146.873,116.408,96.123,0.00172501,0.400163,20.6006,437.968,1.71503,0.0,0.0
3939,984.5,59.3897,62.242,148.83,116.468,96.1216,0.00191414,0.398043,20.6023,437.698,1.71983,0.0,0.0
3952,987.75,58.5628,63.0289,149.076,116.498,94.4652,0.00203328,0.399676,20.6011,437.417,1.87784,0.0,0.0
3965,991,58.5147,62.6094,149.954,116.508,94.2109,0.00189047,0.400592,20.6015,437.147,1.90275,0.0,0.0
3978,994.25,58.7761,61.7541,150.298,116.493,95.8673,0.00190235,0.40003,20.6031,436.877,1.74548,0.0,0.0
3991,997.5,58.0487,61.27,149.395,116.457,95.225,0.00182574,0.400272,20.6039,436.637,1.80291,0.0,0.0
4004,1000.75,57.855,61.1147,148.144,116.366,94.2136,0.00183013,0.402738,20.6009,436.356,1.89152,0.0,0.0
4017,1004,57.5553,61.259,150.782,116.28,95.6467,0.00196664,0.404057,20.6009,436.086,1.74974,0.0,0.0
4030,1007.25,57.3118,60.7925,150.155,116.147,95.8409,0.00186577,0.402325,20.601,435.816,1.72127,0.0,0.0
4043,1010.5,56.5821,59.9439,146.414,115.978,95.5921,0.00152958,0.402006,20.6018,435.546,1.73155,0.0,0.0
4056,1013.75,57.356,60.9088,149.116,115.792,96.7149,0.0013277,0.399863,20.6057,435.296,1.61254,0.0,0.0
4069,1017,56.9284,60.4641,150.055,115.599,96.4139,0.00100674,0.384334,20.6244,435.045,1.62557,0.0,0.0
4082,1020.25,56.4299,59.8708,155.853,115.403,99.7378,0.000642812,0.36425,20.6469,434.815,1.30674,0.0,0.0
4095,1023.5,56.4627,59.1405,150.663,115.168,98.6178,0.000570475,0.351243,20.6593,434.605,1.38962,0.0,0.0
4108,1026.75,55.7594,59.1968,150.313,114.974,100.216,0.000540213,0.344068,20.6675,434.375,1.23057,0.0,0.0
4121,1030,55.504,58.6859,153.583,114.755,97.9621,0.000514661,0.334373,20.6799,434.165,1.41717,0.0,0.0
4134,1033.25,55.3697,58.4871,151.249,114.535,98.1235,0.00027171,0.326697,20.6871,433.984,1.3853,0.0,0.0
4147,1036.5,54.6012,57.8727,147.419,114.357,98.3158,-2.24533e-05,0.317524,20.6979,433.804,1.35383,0.0,0.0
4160,1039.75,54.3129,57.1802,152.045,114.209,99.5635,5.11899e-05,0.306863,20.71,433.614,1.22922,0.0,0.0
4173,1043,53.5844,56.3968,150.872,114.09,100.622,0.000144615,0.299169,20.7176,433.394,1.12511,0.0,0.0
4186,1046.25,54.3099,55.9275,152.337,113.997,100.581,-2.07869e-06,0.290544,20.7299,433.214,1.12153,0.0,0.0
4199,1049.5,52.6584,55.3269,157.157,113.97,98.9295,-3.5137e-05,0.27966,20.7436,433.084,1.26767,0.0,0.0
4212,1052.75,53.0214,54.783,153.999,113.948,100.524,-4.94792e-06,0.267305,20.755,432.923,1.12275,0.0,0.0
4225,1056,52.2345,54.6261,154.184,113.938,100.089,-0.000186115,0.259577,20.7625,432.733,1.16079,0.0,0.0
4238,1059.25,51.8789,54.3446,151.569,113.989,102.337,-0.000269086,0.251315,20.7714,432.563,0.965885,0.0,0.0
4251,1062.5,51.6483,53.9772,152.338,114.04,100.888,-0.000182224,0.242835,20.7807,432.443,1.0976,0.0,0.0
4264,1065.75,50.8125,53.2886,153.248,114.11,102.546,5.42736e-05,0.237772,20.7856,432.303,0.957107,0.0,0.0
4277,1069,50.7116,52.5669,152.406,114.193,101.922,0.000173976,0.233031,20.7913,432.173,1.0183,0.0,0.0
4290,1072.25,50.3049,51.8375,153.232,114.324,103.648,0.00012782,0.227325,20.7969,432.023,0.878087,0.0,0.0
4303,1075.5,49.8187,51.8432,152.484,114.428,104.548,-1.79915e-05,0.222794,20.8015,431.913,0.808836,0.0,0.0
4316,1078.75,49.1886,51.2375,153.167,114.547,104.121,-0.000135176,0.217297,20.8085,431.802,0.854835,0.0,0.0
4329,1082,48.5459,50.1402,152.43,114.679,104.576,-0.000181793,0.210269,20.8165,431.722,0.826111,0.0,0.0
4342,1085.25,48.5431,50.3167,155.217,114.812,105.328,-0.000269601,0.204889,20.821,431.612,0.772223,0.0,0.0
4355,1088.5,48.3965,50.1393,152.197,114.931,106.043,-0.000216359,0.20095,20.8264,431.492,0.720951,0.0,0.0
4368,1091.75,47.8679,49.7856,157.612,115.051,106.008,-0.000270847,0.196449,20.8331,431.372,0.73323,0.0,0.0
4381,1095,47.3969,48.9308,153.159,115.206,106.641,2.23463e-05,0.191191,20.8399,431.252,0.691982,0.0,0.0
4394,1098.25,47.09,48.9954,156.798,115.325,106.416,0.000158922,0.186292,20.8439,431.162,0.720134,0.0,0.0
4407,1101.5,46.7597,48.2559,156.335,115.43,106.746,-1.66893e-05,0.181371,20.8497,431.062,0.700534,0.0,0.0
4420,1104.75,47.0558,47.2053,155.776,115.544,107.771,-3.55891e-05,0.178482,20.8528,430.962,0.623827,0.0,0.0
4433,1108,45.9871,47.3405,156.925,115.636,108.119,-8.89373e-05,0.175974,20.8542,430.882,0.602045,0.0,0.0
4446,1111.25,44.9761,46.4187,154.993,115.696,109.046,-0.000146372,0.17354,20.8549,430.792,0.530225,0.0,0.0
4459,1114.5,45.1902,46.4674,158.01,115.771,107.581,-0.000158869,0.170779,20.8571,430.681,0.657169,0.0,0.0
4472,1117.75,45.2073,45.7986,156.571,115.83,109.906,-0.000226969,0.169185,20.8594,430.581,0.470268,0.0,0.0
4485,1121,45.0351,45.6013,156.713,115.874,109.454,-9.16769e-05,0.167671,20.8614,430.481,0.510585,0.0,0.0
4498,1124.25,44.7141,45.4139,156.173,115.929,109.206,-0.000255596,0.167916,20.8612,430.391,0.53511,0.0,0.0
4511,1127.5,43.9824,45.5321,155.45,115.971,109.032,-0.000241132,0.16678,20.8628,430.291,0.552694,0.0,0.0
4524,1130.75,43.8211,44.5658,157.002,115.989,110.88,-0.000167544,0.163803,20.8648,430.211,0.403429,0.0,0.0
4537,1134,43.3501,44.6113,161.401,115.983,110.683,-0.000132753,0.161029,20.8686,430.161,0.418958,0.0,0.0
4550,1137.25,43.4173,44.5954,156.196,115.999,109.8,-0.000253535,0.157956,20.8722,430.071,0.491923,0.0,0.0
4563,1140.5,43.1612,43.7698,156.419,115.991,109.979,-0.000276348,0.154876,20.8755,429.991,0.476716,0.0,0.0
4576,1143.75,42.9118,43.4225,153.946,115.961,110.586,5.49256e-05,0.151524,20.878,429.931,0.425112,0.0,0.0
4589,1147,41.6544,42.596,159.451,115.931,111.576,6.40453e-05,0.151007,20.8775,429.871,0.342913,0.0,0.0
4602,1150.25,42.0203,43.3496,153.525,115.885,110.311,-0.000155647,0.151971,20.8752,429.811,0.441573,0.0,0.0
4615,1153.5,42.214,42.728,158.271,115.838,111.172,-0.000225443,0.151673,20.8754,429.711,0.368288,0.0,0.0
4628,1156.75,41.9016,42.7203,154.946,115.779,111.095,-0.000104535,0.150273,20.879,429.62,0.369851,0.0,0.0
4641,1160,41.8004,42.6072,159.553,115.737,111.566,-0.000274943,0.147082,20.8832,429.57,0.328772,0.0,0.0
4654,1163.25,41.4973,42.1439,162.275,115.688,111.5,-0.000569211,0.144988,20.8864,429.52,0.330294,0.0,0.0
4667,1166.5,41.5176,41.8699,158.213,115.637,111.768,-0.000339787,0.143717,20.8884,429.47,0.304801,0.0,0.0
4680,1169.75,41.0517,41.9571,157.391,115.608,110.823,-3.41499e-05,0.142159,20.8906,429.41,0.378612,0.0,0.0
4693,1173,40.8084,41.595,157.213,115.589,109.6,3.97173e-05,0.140446,20.892,429.34,0.476524,0.0,0.0
4706,1176.25,40.4169,41.3346,155.611,115.689,110.845,0.00011884,0.140232,20.8935,429.26,0.383124,0.0,0.0
4719,1179.5,40.7092,41.1599,159.11,115.852,111.863,4.63263e-05,0.139449,20.895,429.2,0.313852,0.0,0.0
4732,1182.75,39.8573,40.4063,156.769,116.015,111.536,-0.000425744,0.138827,20.8964,429.13,0.352723,0.0,0.0
4745,1186,39.2233,40.4762,154.648,116.132,111.552,-0.000700969,0.137072,20.8987,429.06,0.360393,0.0,0.0
4758,1189.25,40.2856,40.6071,160.782,116.22,111.852,-0.000692535,0.135164,20.8993,429,0.343187,0.0,0.0
4771,1192.5,39.8485,40.4498,158.149,116.287,112.397,-0.000570372,0.134808,20.8995,428.93,0.304709,0.0,0.0
4784,1195.75,39.9817,40.2466,159.541,116.353,111.471,-0.000417078,0.132465,20.9023,428.88,0.383939,0.0,0.0
4797,1199,39.5359,40.3115,164.212,116.388,112.038,-0.000258689,0.1291,20.906,428.8,0.341143,0.0,0.0
4810,1202.25,38.9788,39.9602,155.184,116.411,111.875,-8.9961e-05,0.127053,20.9065,428.74,0.356013,0.0,0.0
4823,1205.5,39.0101,39.7622,156.816,116.433,112.267,-9.81286e-05,0.125685,20.9085,428.69,0.326373,0.0,0.0
4836,1208.75,39.2622,39.6404,160.138,116.429,112.187,-9.5812e-05,0.123877,20.911,428.62,0.33247,0.0,0.0
4849,1212,38.9576,39.2838,156.747,116.398,112.524,-0.000168939,0.122849,20.913,428.57,0.303169,0.0,0.0
4862,1215.25,38.8983,39.2618,156.675,116.37,112.677,-0.000412755,0.121419,20.914,428.54,0.288928,0.0,0.0
4875,1218.5,38.6959,39.4318,163.342,116.305,112.713,-0.000288368,0.120819,20.9143,428.459,0.281024,0.0,0.0
4888,1221.75,38.3674,38.9665,158.219,116.196,112.234,-0.000156525,0.120775,20.9143,428.419,0.310691,0.0,0.0
4901,1225,38.4449,38.9755,158.248,116.113,112.066,-0.000419975,0.121332,20.9143,428.339,0.317783,0.0,0.0
4914,1228.25,38.5506,38.8009,158.991,115.982,111.75,-0.000664533,0.121398,20.9143,428.289,0.332927,0.0,0.0
4927,1231.5,38.4415,38.7337,156.798,115.833,113.245,-0.000919633,0.121326,20.9143,428.239,0.202397,0.0,0.0
4940,1234.75,37.7671,38.3918,158.055,115.645,111.244,-0.00112516,0.121379,20.9143,428.169,0.347544,0.0,0.0
4953,1238,37.6727,38.5256,157.442,115.689,112.008,-0.0010531,0.121605,20.9144,428.119,0.289633,0.0,0.0
4966,1241.25,37.8562,38.2499,159.276,115.748,111.953,-0.000691081,0.119851,20.9154,428.069,0.298588,0.0,0.0
4979,1244.5,37.0386,37.7052,156.961,115.815,111.814,-0.000424254,0.118905,20.9161,428.029,0.314938,0.0,0.0
4992,1247.75,37.7046,38.0356,161.789,115.908,111.574,-0.000559612,0.117909,20.9171,427.969,0.34139,0.0,0.0
5005,1251,37.2431,38.3929,163.864,115.995,113.06,-0.00064154,0.1172,20.9195,427.939,0.22955,0.0,0.0
5018,1254.25,37.3948,38.1986,157.862,116.057,112.65,-0.000910706,0.11621,20.9214,427.879,0.266938,0.0,0.0
5031,1257.5,37.4413,37.7218,159.404,116.136,112.571,-0.000974972,0.114581,20.9234,427.849,0.279291,0.0,0.0
5044,1260.75,37.1824,37.5614,160.552,116.229,112.775,-0.00101368,0.114093,20.9251,427.799,0.270263,0.0,0.0
5057,1264,37.0916,37.3647,158.089,116.31,112.015,-0.00108843,0.113253,20.925,427.759,0.337014,0.0,0.0
5070,1267.25,36.9918,37.2679,156.988,116.371,112.654,-0.00137698,0.112647,20.9249,427.699,0.290766,0.0,0.0
5083,1270.5,36.7015,37.6416,159.064,116.435,112.626,-0.00152868,0.111628,20.9264,427.669,0.29797,0.0,0.0
5096,1273.75,36.9612,37.5417,158.952,116.48,113.521,-0.00146311,0.110343,20.927,427.609,0.230526,0.0,0.0
5109,1277,36.4032,37.2451,162.232,116.485,113.306,-0.00141392,0.109305,20.9286,427.579,0.247797,0.0,0.0
5122,1280.25,36.5682,37.0802,155.966,116.493,112.98,-0.00139846,0.108934,20.9299,427.519,0.274295,0.0,0.0
5135,1283.5,36.5268,36.4656,162.885,116.495,113.35,-0.00135916,0.108318,20.9303,427.479,0.245159,0.0,0.0
5148,1286.75,36.2145,36.6744,160.518,116.452,113.12,-0.00160941,0.107463,20.9304,427.449,0.260009,0.0,0.0
5161,1290,36.3381,36.9308,154.696,116.431,113.403,-0.00162032,0.107938,20.9304,427.389,0.235961,0.0,0.0
5174,1293.25,36.4455,36.438,158.813,116.391,112.984,-0.00142156,0.107089,20.9303,427.348,0.266073,0.0,0.0
5187,1296.5,35.8547,36.001,158.626,116.319,113.035,-0.00133762,0.105907,20.9319,427.288,0.25657,0.0,0.0
5200,1299.75,35.6311,36.7469,158.845,116.214,113.544,-0.00139389,0.105764,20.932,427.268,0.208194,0.0,0.0
5213,1303,35.6604,36.5999,159.267,116.151,112.322,-0.00160666,0.105338,20.9307,427.228,0.300271,0.0,0.0
5226,1306.25,35.7611,36.6034,162.35,116.081,113.65,-0.00152222,0.106119,20.9297,427.178,0.189572,0.0,0.0
5239,1309.5,35.7701,36.4258,162.15,115.959,113.249,-0.00142752,0.105256,20.9303,427.148,0.21178,0.0,0.0
5252,1312.75,35.7086,35.7684,157.793,115.872,112.616,-0.00127402,0.10322,20.9333,427.098,0.255262,0.0,0.0
5265,1316,35.5242,35.9889,158.169,115.748,113.18,-0.00121043,0.10165,20.9346,427.058,0.200929,0.0,0.0
5278,1319.25,35.3959,35.7919,157.483,115.637,112.203,-0.00101214,0.09977,20.937,427.018,0.270032,0.0,0.0
5291,1322.5,34.9957,36.0284,156.533,115.48,112.514,-0.00073419,0.0983566,20.9378,426.988,0.233075,0.0,0.0
5304,1325.75,35.2171,35.3307,159.054,115.374,112.185,-0.000586214,0.0968967,20.9379,426.948,0.251069,0.0,0.0
5317,1329,35.2156,35.4816,161.663,115.249,112.199,-0.000552842,0.0970462,20.938,426.908,0.2402,0.0,0.0
5330,1332.25,34.8154,35.5898,157.413,115.096,112.233,-0.000565006,0.096891,20.9395,426.888,0.225648,0.0,0.0
5343,1335.5,34.88,35.3464,156.446,114.996,111.986,-0.000393108,0.0961846,20.9408,426.828,0.237572,0.0,0.0
5356,1338.75,34.9056,35.097,162.643,114.883,111.186,-0.000332787,0.0950378,20.9427,426.798,0.292988,0.0,0.0
5369,1342,34.6881,35.2563,160.348,114.762,111.976,-0.000235266,0.0937993,20.9434,426.758,0.220074,0.0,0.0
5382,1345.25,34.6751,34.8919,164.045,114.645,111.39,-2.14539e-05,0.0934588,20.9421,426.728,0.258023,0.0,0.0
5395,1348.5,34.7612,34.6176,160.253,114.541,111.809,4.46914e-05,0.0930456,20.9428,426.678,0.21623,0.0,0.0
5408,1351.75,34.4136,35.2062,158.51,114.428,111.185,-1.85367e-05,0.0927171,20.9432,426.648,0.25747,0.0,0.0
5421,1355,34.186,34.7484,163.224,114.323,110.96,-8.09503e-05,0.0927168,20.9433,426.618,0.267375,0.0,0.0
5434,1358.25,33.6448,34.2223,161.726,114.238,110.449,-0.000309098,0.0929661,20.9433,426.578,0.302079,0.0,0.0
5447,1361.5,34.3133,34.7097,161.064,114.152,110.691,-0.000401945,0.0922352,20.9446,426.548,0.275806,0.0,0.0
5460,1364.75,34.3527,34.2644,156.279,114.103,111.477,-0.000336814,0.0922004,20.9465,426.518,0.2085,0.0,0.0
5473,1368,33.9738,34.8056,158.5,114.042,111.063,-0.000401165,0.0924911,20.9462,426.478,0.237087,0.0,0.0
5486,1371.25,34.3862,34.2336,164.81,113.986,111.189,-0.000255984,0.0934682,20.9452,426.438,0.222512,0.0,0.0
5499,1374.5,34.3097,34.0807,159.214,113.98,111.292,2.50749e-05,0.0936564,20.9444,426.408,0.213801,0.0,0.0
5512,1377.75,34.0537,34.2288,160.083,113.961,111.526,9.18028e-05,0.0938084,20.9424,426.378,0.193436,0.0,0.0
5525,1381,34.0672,33.9984,157.812,113.979,110.64,-6.89568e-05,0.0939709,20.9414,426.338,0.266323,0.0,0.0
5538,1384.25,33.5858,34.2264,162.708,113.996,110.989,7.81789e-05,0.0943998,20.9426,426.308,0.239469,0.0,0.0
5551,1387.5,33.7228,34.1,163.19,113.997,111.379,0.000295117,0.0938182,20.9429,426.278,0.208101,0.0,0.0
5564,1390.75,34.0193,33.949,160.221,114.034,111.59,0.000266489,0.0933283,20.9436,426.237,0.194044,0.0,0.0
5577,1394,33.1469,32.9957,161.018,114.083,111.805,0.000338062,0.0930394,20.9438,426.217,0.180643,0.0,0.0
5590,1397.25,33.1116,33.3407,162.208,114.132,112.043,0.000553802,0.0934003,20.9424,426.187,0.165537,0.0,0.0
5603,1400.5,33.3986,33.4285,157.939,114.212,111.644,0.000463505,0.0947703,20.9402,426.157,0.203738,0.0,0.0
5616,1403.75,33.0869,33.5854,163.297,114.312,111.932,0.000435881,0.0957332,20.9395,426.117,0.188476,0.0,0.0
5629,1407,32.9874,33.2389,156.751,114.397,111.136,0.000330156,0.0958716,20.9392,426.087,0.259063,0.0,0.0
5642,1410.25,32.4412,33.3817,157.614,114.459,111.957,1.49467e-05,0.0958972,20.9392,426.057,0.197977,0.0,0.0
5655,1413.5,32.8203,33.6915,160.409,114.556,111.2,-0.000209617,0.0955905,20.9408,426.017,0.26633,0.0,0.0
5668,1416.75,33.0938,33.3558,158.846,114.659,111.739,-0.000422947,0.0964678,20.9398,425.977,0.231059,0.0,0.0
5681,1420,32.6432,33.1194,158.468,114.745,112.593,-0.000478124,0.0978758,20.9393,425.947,0.169579,0.0,0.0
5694,1423.25,32.5208,33.0285,161.418,114.813,112.112,-0.000223524,0.0985607,20.939,425.917,0.213209,0.0,0.0
5707,1426.5,32.8184,33.3245,160.918,114.924,112.196,-0.000189892,0.0987113,20.9374,425.877,0.215184,0.0,0.0
5720,1429.75,32.366,32.7151,160.554,114.999,112.045,-0.000374756,0.0995363,20.937,425.837,0.233095,0.0,0.0
5733,1433,32.5707,33.1548,158.445,115.07,112.803,-0.000570217,0.0985388,20.9379,425.797,0.178279,0.0,0.0
5746,1436.25,31.9095,33.4254,158.413,115.174,112.764,-0.000596879,0.0987646,20.9382,425.767,0.18942,0.0,0.0
5759,1439.5,32.3751,33.4548,157.51,115.233,112.65,-0.00049858,0.0988975,20.938,425.717,0.203071,0.0,0.0
5772,1442.75,32.7522,33.429,160.804,115.31,113.051,-0.000292177,0.0984929,20.9386,425.677,0.177247,0.0,0.0
5785,1446,32.545,33.6306,157.786,115.388,112.81,-0.000238545,0.0981305,20.9381,425.667,0.202387,0.0,0.0
5798,1449.25,32.6282,33.1464,157.869,115.466,113.113,-0.000369303,0.0980693,20.938,425.637,0.184432,0.0,0.0
5811,1452.5,32.7299,33.1522,158.514,115.517,112.186,-0.000572881,0.0973845,20.938,425.617,0.262024,0.0,0.0
5824,1455.75,32.7599,33.2151,158.693,115.566,113.477,-0.000520435,0.097659,20.9381,425.597,0.163396,0.0,0.0
5837,1459,32.6394,33.4779,157.96,115.633,111.944,-0.000659484,0.0980493,20.9388,425.547,0.290401,0.0,0.0
5850,1462.25,32.4387,33.439,160.166,115.678,113.872,-0.000852966,0.098097,20.939,425.487,0.140991,0.0,0.0
5863,1465.5,32.5338,33.0895,160.483,115.7,113.703,-0.00104642,0.0979856,20.9382,425.427,0.155954,0.0,0.0
5876,1468.75,32.686,32.8972,160.751,115.741,112.804,-0.00105881,0.0984593,20.9364,425.397,0.230186,0.0,0.0
5889,1472,32.4166,33.1101,161.35,115.776,113.671,-0.000847329,0.0990111,20.936,425.367,0.164405,0.0,0.0
5902,1475.25,32.2136,33.6527,157.029,115.8,113.463,-0.000631832,0.0986425,20.9359,425.327,0.182601,0.0,0.0
5915,1478.5,32.3993,33.4221,161.874,115.828,114.218,-0.000650234,0.0982807,20.9368,425.307,0.125332,0.0,0.0
5928,1481.75,32.3765,32.9412,158.189,115.866,113.883,-0.00103146,0.0976469,20.9385,425.257,0.154647,0.0,0.0
5941,1485,32.2806,32.8993,161.998,115.9,113.618,-0.00112248,0.0966453,20.9392,425.237,0.178058,0.0,0.0
5954,1488.25,32.1018,32.9991,163.46,115.89,114.166,-0.000908601,0.095555,20.9411,425.187,0.134306,0.0,0.0
5967,1491.5,32.4596,32.9674,160.106,115.906,113.315,-0.00043606,0.0951087,20.9416,425.157,0.202478,0.0,0.0
5980,1494.75,32.831,33.0436,159.467,115.925,112.833,-0.000305726,0.0946852,20.9417,425.116,0.242176,0.0,0.0
5993,1498,32.3054,33.2805,161.499,115.911,113.905,-0.000194494,0.094349,20.9417,425.086,0.15643,0.0,0.0
6006,1501.25,32.3599,32.5337,160.057,115.913,113.092,-3.90433e-05,0.0938057,20.9415,425.076,0.220696,0.0,0.0
6019,1504.5,32.3933,32.9011,159.311,115.921,113.624,,,,425.046,0.179294,0.0,0.0
6032,1507.75,32.0061,33.3558,161.472,115.909,113.092,,,,425.006,0.220406,0.0,0.0
6045,1511,32.0767,32.9292,160.882,115.885,113.902,,,,424.976,0.154611,0.0,0.0
6050,1512.25,32.3877,32.8386,158.907,115.906,113.904,,,,424.966,0.156103,0.0,0.0