File: 01_Data/Bravo_OSB/MCC/Bravo_OSB_MCC_30K_min_211207_R2.txt
Sample ID:	C:\MCC\MCC Cal\Test\Bravo_OSB_MCC_30K_min_211207_R2.txt
Sample Weight (mg):	4.82
Heating Rate (C/s):	0.5
Combustor Temp (C):	900
N2 Flow Rate (cc/min):	80
O2 Flow Rate (cc/min):	20
Calibration File:	C:\MCC\MCC Cal\Coeff1 JN10440_30_210304.txt.txt
T Correction Coefficients:	0	1.024463	0
Time Shift (s):	14
*
Time (s)	Temperature (C)	N2 flow rate (cc/min)	O2 flow rate (cc/min)	Flow Rate (cc/min)	Oxygen (%)	HRR (W/g)	Heating rate (C/s)
0.000	108.129	80.005	19.997	103.114	20.045	-0.205	0.038
1.500	108.105	80.006	19.995	103.112	20.042	0.055	-0.010
3.000	108.142	80.005	19.996	103.098	20.040	0.133	0.021
4.500	108.171	80.006	19.995	103.106	20.041	0.096	0.021
6.000	108.125	80.005	19.995	103.119	20.038	0.293	-0.014
7.500	108.171	80.006	19.995	103.139	20.046	-0.242	0.023
9.000	108.143	80.006	19.995	103.141	20.034	0.537	0.002
10.500	108.186	80.006	19.994	103.140	20.030	0.821	0.051
12.000	108.192	80.005	19.995	103.162	20.028	0.954	-0.010
13.500	108.188	80.006	19.995	103.176	20.028	0.987	-0.018
15.000	108.266	80.007	19.995	103.201	20.021	1.413	0.053
16.501	108.328	80.006	19.996	103.234	20.019	1.530	0.057
18.000	108.398	80.006	19.995	103.249	20.012	2.032	0.036
19.500	108.452	80.006	19.995	103.269	20.010	2.146	0.022
21.000	108.621	80.008	19.996	103.280	20.009	2.238	0.120
22.500	108.684	80.007	19.995	103.281	20.007	2.355	0.033
24.000	108.857	80.007	19.994	103.283	20.002	2.719	0.102
25.500	108.971	80.005	19.994	103.288	20.007	2.386	0.072
27.000	109.163	80.006	19.996	103.287	19.998	2.942	0.128
28.500	109.368	80.006	19.995	103.293	20.003	2.607	0.142
30.000	109.581	80.007	19.996	103.308	20.003	2.600	0.146
31.500	109.765	80.007	19.996	103.308	20.001	2.771	0.117
33.000	110.038	80.006	19.995	103.294	20.002	2.672	0.166
34.500	110.279	80.008	19.995	103.308	20.002	2.667	0.177
36.000	110.579	80.007	19.994	103.323	19.997	3.042	0.213
37.500	110.863	80.006	19.994	103.327	19.998	2.969	0.194
39.001	111.134	80.007	19.993	103.327	19.997	3.059	0.183
40.501	111.450	80.008	19.994	103.327	19.998	2.952	0.181
42.000	111.761	80.008	19.995	103.328	19.995	3.160	0.229
43.500	112.100	80.008	19.994	103.327	19.992	3.391	0.257
45.000	112.437	80.008	19.994	103.326	19.996	3.071	0.213
46.500	112.820	80.008	19.996	103.327	19.990	3.477	0.249
48.001	113.199	80.009	19.994	103.330	19.991	3.430	0.266
49.500	113.579	80.008	19.995	103.333	19.992	3.341	0.257
51.000	113.991	80.007	19.994	103.334	19.988	3.634	0.270
52.500	114.387	80.008	19.995	103.350	19.986	3.736	0.275
54.000	114.808	80.008	19.995	103.360	19.988	3.652	0.276
55.500	115.234	80.008	19.994	103.363	19.989	3.574	0.284
57.000	115.618	80.008	19.995	103.362	19.988	3.611	0.260
58.501	116.090	80.010	19.994	103.366	19.989	3.548	0.308
60.001	116.559	80.009	19.994	103.370	19.985	3.853	0.298
61.500	117.042	80.010	19.993	103.370	19.988	3.618	0.319
63.000	117.509	80.010	19.993	103.369	19.985	3.868	0.304
64.500	118.013	80.010	19.994	103.369	19.987	3.711	0.319
66.000	118.488	80.009	19.995	103.370	19.985	3.837	0.308
67.500	119.047	80.010	19.994	103.375	19.984	3.897	0.358
69.000	119.563	80.009	19.994	103.376	19.985	3.815	0.334
70.500	120.092	80.008	19.993	103.369	19.986	3.786	0.356
72.000	120.656	80.008	19.994	103.378	19.988	3.643	0.360
73.500	121.213	80.007	19.994	103.389	19.988	3.607	0.350
75.000	121.806	80.007	19.995	103.375	19.990	3.503	0.407
76.500	122.443	80.006	19.994	103.384	19.988	3.632	0.425
78.000	122.994	80.007	19.995	103.380	19.989	3.580	0.367
79.500	123.547	80.007	19.994	103.381	19.980	4.144	0.385
81.000	124.199	80.007	19.995	103.385	19.988	3.616	0.437
82.500	124.823	80.006	19.995	103.380	19.985	3.849	0.413
84.000	125.452	80.006	19.995	103.371	19.985	3.804	0.409
85.500	126.045	80.007	19.994	103.371	19.985	3.860	0.404
87.000	126.742	80.007	19.995	103.374	19.986	3.771	0.455
88.501	127.356	80.007	19.995	103.378	19.986	3.754	0.416
90.000	128.033	80.007	19.993	103.370	19.985	3.835	0.436
91.501	128.651	80.008	19.994	103.375	19.981	4.123	0.430
93.001	129.305	80.006	19.995	103.375	19.983	3.962	0.426
94.501	129.955	80.006	19.995	103.376	19.986	3.758	0.429
96.000	130.645	80.006	19.995	103.377	19.985	3.843	0.475
97.500	131.346	80.006	19.994	103.372	19.987	3.671	0.467
99.000	131.989	80.007	19.995	103.369	19.988	3.605	0.427
100.500	132.671	80.007	19.996	103.371	19.985	3.857	0.455
102.000	133.346	80.007	19.997	103.375	19.986	3.738	0.469
103.500	134.092	80.008	19.996	103.372	19.985	3.858	0.499
105.000	134.729	80.005	19.996	103.370	19.985	3.822	0.451
106.500	135.462	80.006	19.996	103.368	19.983	3.984	0.483
108.000	136.110	80.007	19.996	103.373	19.987	3.714	0.449
109.501	136.863	80.005	19.995	103.376	19.984	3.904	0.504
111.000	137.571	80.006	19.996	103.378	19.989	3.574	0.471
112.500	138.343	80.006	19.996	103.374	19.986	3.763	0.508
114.000	139.047	80.005	19.995	103.369	19.989	3.543	0.475
115.500	139.800	80.005	19.995	103.370	19.987	3.729	0.515
117.001	140.532	80.007	19.994	103.368	19.986	3.798	0.505
118.500	141.208	80.006	19.994	103.369	19.984	3.893	0.470
120.000	141.952	80.008	19.994	103.372	19.984	3.873	0.486
121.500	142.724	80.008	19.993	103.372	19.987	3.685	0.518
123.000	143.485	80.008	19.995	103.372	19.985	3.841	0.508
124.501	144.200	80.008	19.994	103.367	19.989	3.601	0.473
126.001	144.974	80.008	19.995	103.364	19.986	3.794	0.492
127.500	145.745	80.008	19.994	103.366	19.991	3.446	0.522
129.000	146.459	80.007	19.994	103.367	19.990	3.508	0.467
130.500	147.209	80.008	19.995	103.368	19.987	3.677	0.509
132.000	147.946	80.007	19.995	103.367	19.984	3.909	0.483
133.500	148.717	80.007	19.995	103.360	19.989	3.594	0.507
135.000	149.481	80.008	19.994	103.362	19.988	3.654	0.540
136.500	150.226	80.007	19.994	103.363	19.984	3.879	0.508
138.000	150.958	80.007	19.994	103.364	19.988	3.653	0.487
139.500	151.706	80.007	19.993	103.367	19.988	3.642	0.501
141.000	152.529	80.008	19.994	103.359	19.982	4.041	0.538
142.500	153.234	80.008	19.995	103.364	19.986	3.768	0.483
144.000	154.016	80.007	19.994	103.369	19.987	3.689	0.494
145.501	154.763	80.008	19.993	103.362	19.990	3.511	0.507
147.000	155.506	80.009	19.995	103.352	19.989	3.565	0.488
148.500	156.224	80.009	19.994	103.350	19.989	3.562	0.490
150.000	156.980	80.010	19.994	103.350	19.990	3.522	0.503
151.500	157.698	80.010	19.995	103.343	19.989	3.593	0.493
153.000	158.500	80.010	19.994	103.335	19.990	3.516	0.504
154.500	159.202	80.008	19.994	103.336	19.988	3.651	0.462
156.000	159.927	80.008	19.993	103.337	19.990	3.514	0.502
157.500	160.696	80.006	19.993	103.332	19.992	3.399	0.519
159.000	161.490	80.007	19.994	103.336	19.993	3.307	0.525
160.500	162.273	80.008	19.995	103.340	19.992	3.345	0.498
162.000	163.018	80.008	19.994	103.341	19.989	3.545	0.499
163.500	163.749	80.006	19.994	103.338	19.988	3.612	0.493
165.000	164.546	80.005	19.995	103.336	19.991	3.405	0.510
166.500	165.298	80.007	19.995	103.335	19.991	3.439	0.503
168.000	166.033	80.005	19.995	103.329	19.994	3.219	0.482
169.500	166.803	80.006	19.994	103.333	19.993	3.330	0.507
171.001	167.560	80.005	19.995	103.332	19.989	3.536	0.505
172.501	168.347	80.007	19.994	103.330	19.988	3.634	0.525
174.001	169.116	80.007	19.995	103.329	19.992	3.385	0.505
175.500	169.831	80.008	19.996	103.329	19.996	3.090	0.483
177.000	170.567	80.006	19.995	103.328	19.995	3.143	0.496
178.500	171.317	80.007	19.996	103.330	19.992	3.394	0.496
180.000	172.078	80.006	19.995	103.329	19.992	3.347	0.484
181.500	172.831	80.007	19.994	103.330	19.991	3.434	0.516
183.000	173.611	80.007	19.995	103.330	19.995	3.181	0.512
184.500	174.309	80.007	19.994	103.330	19.992	3.334	0.496
186.000	175.047	80.005	19.994	103.330	19.994	3.208	0.482
187.500	175.819	80.006	19.993	103.331	19.991	3.423	0.521
189.000	176.535	80.005	19.995	103.332	19.992	3.365	0.491
190.500	177.336	80.005	19.994	103.331	19.996	3.101	0.524
192.000	178.037	80.005	19.995	103.330	19.996	3.070	0.486
193.500	178.794	80.007	19.996	103.333	19.993	3.296	0.499
195.000	179.535	80.007	19.995	103.330	20.000	2.825	0.475
196.500	180.267	80.006	19.995	103.323	19.996	3.095	0.460
198.000	181.012	80.005	19.995	103.328	19.993	3.314	0.494
199.501	181.759	80.007	19.995	103.330	19.992	3.370	0.501
201.001	182.530	80.006	19.995	103.330	19.996	3.106	0.516
202.500	183.242	80.007	19.995	103.330	19.997	3.048	0.488
204.000	184.015	80.006	19.995	103.330	19.992	3.368	0.503
205.500	184.755	80.008	19.995	103.329	19.996	3.126	0.491
207.000	185.545	80.008	19.996	103.326	19.989	3.543	0.524
208.500	186.267	80.008	19.996	103.327	19.990	3.489	0.512
210.000	187.057	80.007	19.995	103.329	19.991	3.459	0.529
211.500	187.783	80.007	19.994	103.329	19.997	3.056	0.488
213.000	188.512	80.008	19.994	103.330	19.994	3.231	0.486
214.501	189.244	80.007	19.993	103.324	19.993	3.283	0.483
216.000	190.019	80.007	19.994	103.314	19.993	3.286	0.506
217.500	190.724	80.007	19.995	103.315	19.988	3.630	0.506
219.000	191.459	80.007	19.995	103.327	19.991	3.423	0.473
220.500	192.232	80.008	19.994	103.320	19.989	3.583	0.508
222.000	192.965	80.007	19.993	103.310	19.989	3.574	0.497
223.500	193.691	80.008	19.993	103.313	19.988	3.663	0.475
225.000	194.435	80.007	19.993	103.320	19.987	3.703	0.491
226.500	195.206	80.009	19.994	103.320	19.985	3.809	0.530
228.000	195.937	80.009	19.993	103.317	19.983	3.957	0.485
229.500	196.642	80.010	19.994	103.323	19.985	3.864	0.456
231.000	197.360	80.009	19.993	103.322	19.988	3.607	0.468
232.500	198.084	80.009	19.994	103.314	19.990	3.497	0.474
234.000	198.801	80.009	19.993	103.312	19.988	3.656	0.483
235.500	199.586	80.011	19.994	103.314	19.978	4.275	0.509
237.000	200.266	80.008	19.993	103.319	19.982	4.042	0.470
238.500	201.058	80.008	19.994	103.324	19.983	3.961	0.519
240.000	201.759	80.007	19.994	103.323	19.984	3.869	0.478
241.500	202.502	80.008	19.994	103.323	19.984	3.892	0.495
243.000	203.235	80.007	19.995	103.313	19.985	3.847	0.484
244.500	203.997	80.008	19.993	103.311	19.987	3.716	0.500
246.000	204.724	80.007	19.994	103.324	19.985	3.834	0.491
247.500	205.467	80.007	19.994	103.313	19.987	3.716	0.500
249.000	206.163	80.007	19.994	103.303	19.983	3.975	0.474
250.500	206.942	80.006	19.994	103.314	19.982	4.042	0.525
252.000	207.745	80.007	19.993	103.309	19.983	3.978	0.526
253.500	208.428	80.007	19.994	103.319	19.980	4.173	0.466
255.000	209.198	80.006	19.993	103.322	19.980	4.168	0.502
256.500	209.897	80.006	19.994	103.322	19.981	4.122	0.489
258.000	210.684	80.007	19.994	103.316	19.980	4.173	0.545
259.500	211.434	80.007	19.993	103.318	19.977	4.354	0.498
261.000	212.180	80.007	19.995	103.324	19.974	4.590	0.510
262.500	212.906	80.007	19.994	103.321	19.975	4.488	0.474
264.000	213.665	80.006	19.994	103.319	19.974	4.566	0.517
265.500	214.409	80.005	19.995	103.319	19.978	4.291	0.508
267.000	215.119	80.008	19.995	103.320	19.974	4.543	0.474
268.500	215.859	80.005	19.995	103.322	19.976	4.430	0.498
270.000	216.575	80.006	19.994	103.325	19.974	4.594	0.480
271.500	217.300	80.006	19.995	103.319	19.970	4.818	0.482
273.000	218.021	80.005	19.994	103.318	19.970	4.838	0.475
274.500	218.824	80.005	19.993	103.314	19.966	5.085	0.550
276.000	219.561	80.005	19.994	103.312	19.966	5.104	0.498
277.500	220.341	80.005	19.994	103.315	19.963	5.284	0.517
279.000	221.050	80.007	19.994	103.324	19.965	5.202	0.484
280.500	221.781	80.005	19.995	103.326	19.963	5.299	0.482
282.000	222.503	80.006	19.995	103.320	19.964	5.262	0.489
283.500	223.255	80.008	19.994	103.311	19.964	5.235	0.506
285.001	223.994	80.009	19.994	103.308	19.959	5.545	0.515
286.500	224.742	80.007	19.995	103.312	19.959	5.578	0.490
288.000	225.477	80.008	19.995	103.314	19.961	5.413	0.469
289.500	226.193	80.007	19.995	103.317	19.962	5.399	0.489
291.000	226.921	80.008	19.995	103.324	19.959	5.579	0.492
292.500	227.649	80.007	19.995	103.323	19.956	5.747	0.495
294.000	228.446	80.008	19.995	103.313	19.956	5.781	0.515
295.500	229.163	80.005	19.995	103.315	19.955	5.845	0.486
297.000	229.969	80.008	19.995	103.324	19.955	5.865	0.525
298.500	230.725	80.006	19.996	103.319	19.950	6.158	0.492
300.000	231.492	80.006	19.995	103.311	19.949	6.219	0.491
301.500	232.215	80.007	19.996	103.310	19.947	6.363	0.482
303.000	232.938	80.006	19.995	103.314	19.942	6.738	0.482
304.500	233.705	80.006	19.994	103.313	19.941	6.788	0.507
306.000	234.452	80.006	19.994	103.312	19.940	6.862	0.506
307.500	235.177	80.008	19.994	103.317	19.940	6.848	0.504
309.000	235.921	80.007	19.995	103.307	19.938	6.992	0.495
310.500	236.674	80.009	19.994	103.314	19.933	7.302	0.514
312.000	237.364	80.009	19.993	103.323	19.929	7.558	0.450
313.500	238.141	80.009	19.994	103.320	19.932	7.382	0.510
315.000	238.857	80.009	19.993	103.309	19.932	7.403	0.467
316.500	239.591	80.010	19.994	103.321	19.925	7.831	0.501
318.000	240.302	80.008	19.994	103.324	19.923	7.988	0.484
319.500	241.059	80.009	19.994	103.323	19.929	7.575	0.474
321.000	241.797	80.008	19.993	103.326	19.923	7.981	0.482
322.500	242.551	80.005	19.993	103.330	19.924	7.941	0.505
324.000	243.318	80.008	19.993	103.329	19.924	7.896	0.510
325.500	244.059	80.006	19.994	103.320	19.919	8.216	0.483
327.000	244.831	80.006	19.995	103.319	19.917	8.353	0.497
328.500	245.568	80.006	19.994	103.330	19.915	8.517	0.494
330.000	246.293	80.006	19.995	103.330	19.911	8.783	0.450
331.500	247.032	80.006	19.995	103.327	19.911	8.801	0.490
333.000	247.835	80.006	19.994	103.323	19.907	9.071	0.545
334.500	248.582	80.007	19.995	103.329	19.905	9.215	0.503
336.000	249.347	80.008	19.994	103.330	19.902	9.419	0.514
337.500	250.153	80.007	19.994	103.331	19.898	9.650	0.541
339.000	250.883	80.008	19.994	103.332	19.897	9.734	0.479
340.500	251.626	80.007	19.993	103.332	19.892	10.058	0.468
342.000	252.341	80.007	19.995	103.331	19.891	10.142	0.475
343.500	253.093	80.007	19.993	103.332	19.885	10.493	0.514
345.000	253.847	80.007	19.995	103.331	19.884	10.578	0.513
346.500	254.584	80.008	19.994	103.332	19.878	10.962	0.496
348.000	255.363	80.007	19.995	103.329	19.873	11.301	0.515
349.500	256.101	80.006	19.995	103.328	19.870	11.542	0.504
351.000	256.856	80.007	19.994	103.329	19.869	11.571	0.474
352.500	257.546	80.007	19.994	103.331	19.864	11.929	0.452
354.000	258.336	80.005	19.994	103.331	19.861	12.151	0.499
355.500	259.058	80.006	19.995	103.335	19.859	12.284	0.472
357.000	259.781	80.006	19.994	103.335	19.852	12.718	0.510
358.500	260.544	80.005	19.995	103.335	19.848	13.012	0.500
360.000	261.287	80.007	19.994	103.336	19.845	13.210	0.490
361.500	261.971	80.005	19.995	103.347	19.839	13.602	0.444
363.000	262.758	80.006	19.995	103.349	19.836	13.824	0.514
364.500	263.531	80.006	19.994	103.342	19.830	14.233	0.523
366.000	264.277	80.008	19.994	103.353	19.821	14.800	0.516
367.500	265.059	80.008	19.995	103.363	19.822	14.758	0.499
369.000	265.787	80.007	19.995	103.364	19.813	15.350	0.489
370.500	266.580	80.008	19.993	103.365	19.810	15.522	0.520
372.000	267.301	80.009	19.995	103.366	19.804	15.944	0.500
373.500	268.086	80.008	19.994	103.364	19.796	16.465	0.538
375.000	268.888	80.008	19.994	103.367	19.793	16.669	0.540
376.500	269.623	80.008	19.994	103.369	19.786	17.128	0.487
378.000	270.386	80.009	19.995	103.367	19.780	17.588	0.534
379.500	271.184	80.006	19.993	103.367	19.776	17.855	0.520
381.000	271.935	80.006	19.995	103.369	19.767	18.425	0.507
382.500	272.709	80.006	19.994	103.377	19.760	18.894	0.516
384.000	273.456	80.006	19.995	103.376	19.756	19.144	0.525
385.500	274.182	80.007	19.994	103.370	19.746	19.840	0.472
387.000	274.973	80.006	19.996	103.381	19.746	19.837	0.506
388.500	275.694	80.006	19.995	103.385	19.736	20.481	0.498
390.000	276.445	80.007	19.995	103.389	19.731	20.831	0.510
391.500	277.209	80.008	19.996	103.392	19.724	21.327	0.500
393.000	277.968	80.008	19.994	103.389	19.720	21.590	0.507
394.500	278.767	80.009	19.996	103.401	19.715	21.887	0.546
396.000	279.502	80.007	19.995	103.404	19.711	22.162	0.499
397.500	280.229	80.009	19.994	103.405	19.703	22.728	0.474
399.000	280.988	80.007	19.995	103.407	19.696	23.189	0.506
400.501	281.720	80.008	19.994	103.408	19.692	23.446	0.500
402.000	282.488	80.007	19.993	103.407	19.683	24.021	0.540
403.500	283.261	80.007	19.993	103.409	19.677	24.454	0.523
405.000	284.021	80.005	19.993	103.409	19.674	24.685	0.525
406.500	284.789	80.006	19.994	103.414	19.666	25.181	0.491
408.000	285.563	80.006	19.993	103.414	19.660	25.608	0.517
409.500	286.302	80.007	19.993	103.412	19.654	26.009	0.482
411.000	287.128	80.006	19.993	103.411	19.650	26.267	0.549
412.500	287.827	80.007	19.994	103.410	19.645	26.601	0.458
414.000	288.580	80.007	19.994	103.421	19.636	27.222	0.500
415.500	289.343	80.006	19.993	103.426	19.635	27.300	0.511
417.001	290.145	80.006	19.994	103.412	19.628	27.728	0.504
418.500	290.894	80.008	19.994	103.408	19.621	28.214	0.480
420.000	291.642	80.006	19.993	103.408	19.615	28.627	0.513
421.500	292.420	80.006	19.994	103.411	19.611	28.844	0.499
423.000	293.164	80.007	19.995	103.415	19.606	29.199	0.494
424.500	293.872	80.006	19.994	103.410	19.605	29.305	0.467
426.000	294.681	80.007	19.993	103.425	19.600	29.645	0.548
427.500	295.384	80.006	19.993	103.428	19.592	30.159	0.500
429.000	296.174	80.007	19.994	103.411	19.591	30.229	0.527
430.500	296.904	80.007	19.994	103.423	19.582	30.809	0.509
432.000	297.665	80.005	19.994	103.428	19.581	30.864	0.495
433.500	298.424	80.005	19.993	103.422	19.570	31.614	0.500
435.000	299.204	80.006	19.994	103.436	19.577	31.157	0.498
436.500	299.948	80.006	19.993	103.426	19.569	31.675	0.455
438.000	300.737	80.006	19.993	103.430	19.560	32.314	0.494
439.500	301.409	80.007	19.994	103.431	19.563	32.118	0.436
441.000	302.192	80.006	19.994	103.419	19.556	32.535	0.537
442.500	302.919	80.007	19.994	103.430	19.551	32.887	0.449
444.000	303.749	80.005	19.993	103.433	19.551	32.882	0.490
445.500	304.516	80.006	19.993	103.441	19.545	33.325	0.543
447.000	305.219	80.006	19.995	103.437	19.540	33.609	0.472
448.501	305.909	80.006	19.994	103.439	19.539	33.734	0.666
450.000	306.934	80.008	19.993	103.443	19.538	33.765	0.534
451.500	307.669	80.008	19.994	103.442	19.535	33.974	0.604
453.000	308.200	80.007	19.994	103.443	19.530	34.313	0.460
454.500	309.042	80.007	19.994	103.443	19.526	34.575	0.688
456.000	309.814	80.007	19.995	103.442	19.523	34.785	0.479
457.500	310.514	80.006	19.995	103.443	19.514	35.347	0.495
459.000	311.370	80.007	19.995	103.443	19.513	35.440	0.591
460.500	312.062	80.008	19.995	103.444	19.504	36.017	0.453
462.000	312.846	80.006	19.994	103.447	19.501	36.261	0.517
463.500	313.679	80.007	19.994	103.447	19.495	36.620	0.539
465.000	314.346	80.007	19.995	103.448	19.491	36.919	0.459
466.500	315.223	80.007	19.995	103.449	19.485	37.359	0.566
468.000	315.961	80.008	19.994	103.449	19.478	37.770	0.472
469.500	316.711	80.008	19.994	103.452	19.480	37.690	0.499
471.000	317.494	80.007	19.994	103.452	19.477	37.853	0.523
472.500	318.274	80.007	19.995	103.466	19.465	38.666	0.487
474.000	319.002	80.008	19.993	103.464	19.460	39.032	0.490
475.500	319.780	80.009	19.994	103.457	19.452	39.515	0.495
477.000	320.523	80.008	19.994	103.464	19.445	40.018	0.492
478.500	321.269	80.009	19.994	103.468	19.444	40.107	0.477
480.000	322.078	80.010	19.995	103.472	19.439	40.441	0.543
481.500	322.847	80.010	19.994	103.476	19.433	40.800	0.518
483.000	323.598	80.009	19.994	103.481	19.424	41.389	0.483
484.501	324.365	80.010	19.995	103.476	19.418	41.812	0.502
486.000	325.140	80.008	19.996	103.478	19.412	42.199	0.499
487.500	325.902	80.006	19.995	103.480	19.404	42.758	0.542
489.000	326.646	80.007	19.995	103.482	19.395	43.395	0.498
490.500	327.448	80.007	19.995	103.484	19.389	43.743	0.514
492.000	328.182	80.006	19.995	103.482	19.382	44.241	0.505
493.500	328.964	80.008	19.995	103.482	19.376	44.631	0.541
495.000	329.784	80.006	19.995	103.485	19.366	45.306	0.537
496.500	330.541	80.007	19.995	103.486	19.356	46.021	0.507
498.000	331.305	80.006	19.994	103.483	19.349	46.480	0.511
499.500	332.120	80.008	19.994	103.491	19.338	47.180	0.541
501.000	332.860	80.008	19.993	103.507	19.327	47.955	0.486
502.500	333.628	80.008	19.994	103.516	19.317	48.586	0.529
504.000	334.408	80.007	19.994	103.511	19.310	49.102	0.531
505.500	335.197	80.007	19.995	103.515	19.296	49.992	0.530
507.000	335.958	80.007	19.995	103.526	19.286	50.672	0.510
508.500	336.732	80.008	19.995	103.526	19.274	51.516	0.495
510.000	337.484	80.007	19.994	103.531	19.264	52.174	0.513
511.500	338.232	80.007	19.994	103.534	19.252	53.005	0.497
513.000	339.006	80.007	19.994	103.531	19.240	53.825	0.516
514.500	339.764	80.007	19.995	103.552	19.225	54.806	0.510
516.000	340.519	80.007	19.994	103.549	19.212	55.660	0.515
517.500	341.297	80.007	19.994	103.556	19.198	56.620	0.525
519.000	342.055	80.006	19.994	103.565	19.187	57.361	0.509
520.500	342.834	80.006	19.994	103.566	19.171	58.412	0.531
522.000	343.580	80.006	19.994	103.570	19.157	59.401	0.490
523.500	344.292	80.006	19.994	103.575	19.141	60.468	0.471
525.000	345.095	80.006	19.993	103.585	19.126	61.496	0.523
526.500	345.855	80.006	19.994	103.583	19.113	62.335	0.518
528.000	346.606	80.005	19.994	103.581	19.092	63.758	0.518
529.500	347.369	80.006	19.994	103.599	19.078	64.662	0.495
531.000	348.137	80.008	19.994	103.606	19.066	65.479	0.506
532.500	348.890	80.008	19.994	103.609	19.043	67.040	0.484
534.000	349.637	80.009	19.994	103.623	19.025	68.252	0.492
535.500	350.361	80.008	19.993	103.624	19.014	69.006	0.504
537.000	351.167	80.008	19.993	103.628	18.996	70.225	0.504
538.500	351.886	80.009	19.995	103.636	18.981	71.204	0.471
540.000	352.640	80.009	19.993	103.644	18.965	72.274	0.532
541.500	353.400	80.009	19.994	103.643	18.948	73.437	0.498
543.000	354.140	80.008	19.994	103.642	18.933	74.460	0.495
544.500	354.907	80.009	19.994	103.645	18.916	75.598	0.503
546.000	355.624	80.006	19.995	103.649	18.900	76.621	0.479
547.500	356.373	80.009	19.994	103.646	18.887	77.486	0.514
549.000	357.111	80.007	19.995	103.649	18.872	78.521	0.497
550.500	357.879	80.006	19.994	103.667	18.857	79.494	0.508
552.000	358.625	80.008	19.995	103.670	18.847	80.181	0.482
553.500	359.377	80.008	19.995	103.668	18.839	80.741	0.487
555.000	360.102	80.009	19.995	103.669	18.824	81.717	0.481
556.500	360.865	80.007	19.995	103.674	18.811	82.634	0.513
558.000	361.590	80.007	19.994	103.653	18.801	83.253	0.500
559.500	362.318	80.009	19.995	103.652	18.799	83.375	0.485
561.000	363.059	80.008	19.994	103.650	18.796	83.614	0.502
562.500	363.798	80.008	19.994	103.653	18.791	83.939	0.489
564.001	364.544	80.009	19.994	103.649	18.791	83.880	0.471
565.500	365.271	80.009	19.995	103.644	18.789	84.035	0.516
567.000	366.049	80.009	19.994	103.640	18.790	83.969	0.544
568.500	366.769	80.009	19.994	103.640	18.797	83.493	0.494
570.001	367.437	80.008	19.994	103.632	18.800	83.229	0.447
571.500	368.208	80.007	19.994	103.611	18.811	82.490	0.532
573.000	369.015	80.006	19.995	103.602	18.827	81.396	0.539
574.500	369.779	80.006	19.995	103.589	18.838	80.684	0.510
576.000	370.493	80.006	19.994	103.570	18.854	79.581	0.480
577.500	371.277	80.007	19.994	103.564	18.872	78.395	0.511
579.001	371.976	80.006	19.995	103.558	18.894	76.864	0.479
580.500	372.723	80.005	19.995	103.544	18.917	75.310	0.507
582.000	373.516	80.005	19.995	103.520	18.945	73.461	0.550
583.500	374.235	80.005	19.995	103.505	18.980	71.116	0.483
585.000	375.019	80.005	19.996	103.491	19.006	69.342	0.505
586.500	375.783	80.006	19.995	103.482	19.042	66.957	0.520
588.000	376.540	80.008	19.995	103.464	19.079	64.427	0.525
589.500	377.266	80.006	19.995	103.440	19.112	62.211	0.501
591.000	378.076	80.008	19.995	103.425	19.155	59.356	0.523
592.500	378.755	80.006	19.995	103.411	19.192	56.879	0.451
594.000	379.569	80.007	19.994	103.395	19.235	53.979	0.537
595.500	380.315	80.006	19.994	103.374	19.274	51.352	0.510
597.000	381.031	80.007	19.993	103.362	19.316	48.533	0.475
598.500	381.803	80.006	19.994	103.342	19.357	45.781	0.514
600.000	382.633	80.008	19.995	103.332	19.400	42.930	0.550
601.500	383.317	80.007	19.994	103.321	19.440	40.289	0.444
603.000	384.132	80.005	19.994	103.307	19.481	37.531	0.517
604.500	384.894	80.006	19.994	103.295	19.512	35.421	0.493
606.000	385.641	80.006	19.994	103.294	19.554	32.651	0.503
607.500	386.416	80.006	19.995	103.292	19.587	30.406	0.527
609.000	387.163	80.007	19.994	103.276	19.624	27.977	0.501
610.500	387.978	80.005	19.995	103.258	19.659	25.628	0.515
612.000	388.722	80.007	19.995	103.254	19.685	23.848	0.490
613.500	389.468	80.006	19.994	103.253	19.716	21.783	0.506
615.000	390.222	80.009	19.995	103.251	19.743	20.029	0.532
616.500	391.020	80.009	19.995	103.250	19.764	18.625	0.527
618.000	391.776	80.010	19.995	103.241	19.785	17.226	0.505
619.500	392.552	80.007	19.993	103.242	19.804	15.937	0.540
621.000	393.376	80.009	19.994	103.241	19.815	15.177	0.560
622.500	394.138	80.008	19.993	103.239	19.834	13.924	0.530
624.000	394.953	80.008	19.995	103.237	19.848	12.998	0.569
625.500	395.692	80.009	19.994	103.234	19.861	12.108	0.515
627.000	396.430	80.008	19.994	103.244	19.870	11.516	0.488
628.500	397.273	80.010	19.994	103.247	19.878	10.987	0.563
630.000	397.953	80.009	19.994	103.239	19.886	10.459	0.459
631.500	398.749	80.008	19.995	103.239	19.892	10.035	0.540
633.000	399.483	80.008	19.994	103.238	19.900	9.508	0.509
634.500	400.243	80.008	19.994	103.241	19.904	9.278	0.492
636.000	401.017	80.009	19.993	103.244	19.902	9.365	0.494
637.500	401.817	80.008	19.994	103.238	19.907	9.027	0.511
639.000	402.570	80.010	19.994	103.247	19.912	8.717	0.487
640.500	403.329	80.009	19.993	103.240	19.914	8.584	0.517
642.000	404.056	80.009	19.994	103.239	19.920	8.175	0.496
643.500	404.812	80.009	19.994	103.247	19.918	8.326	0.499
645.000	405.616	80.010	19.994	103.252	19.922	8.058	0.543
646.500	406.347	80.010	19.994	103.242	19.925	7.818	0.502
648.000	407.102	80.009	19.994	103.242	19.924	7.893	0.481
649.500	407.881	80.008	19.994	103.241	19.926	7.785	0.520
651.000	408.626	80.008	19.995	103.235	19.922	8.042	0.485
652.500	409.392	80.007	19.994	103.244	19.926	7.803	0.510
654.000	410.163	80.007	19.995	103.250	19.930	7.521	0.535
655.500	410.896	80.007	19.995	103.247	19.928	7.611	0.477
657.000	411.675	80.007	19.994	103.249	19.930	7.521	0.532
658.500	412.420	80.005	19.994	103.248	19.933	7.336	0.500
660.000	413.202	80.006	19.995	103.246	19.935	7.192	0.508
661.500	413.934	80.006	19.994	103.251	19.931	7.434	0.485
663.000	414.653	80.008	19.995	103.241	19.933	7.316	0.492
664.500	415.407	80.006	19.994	103.243	19.935	7.176	0.517
666.000	416.190	80.006	19.995	103.246	19.937	7.070	0.507
667.500	416.927	80.007	19.994	103.246	19.935	7.174	0.482
669.000	417.716	80.006	19.994	103.249	19.941	6.762	0.513
670.500	418.467	80.007	19.994	103.253	19.938	6.946	0.497
672.000	419.227	80.007	19.994	103.246	19.941	6.768	0.504
673.500	419.995	80.008	19.996	103.243	19.938	6.944	0.513
675.000	420.786	80.007	19.995	103.249	19.942	6.726	0.526
676.500	421.544	80.007	19.995	103.242	19.942	6.695	0.518
678.000	422.348	80.007	19.995	103.245	19.949	6.249	0.500
679.500	423.123	80.005	19.995	103.246	19.945	6.471	0.526
681.000	423.876	80.006	19.995	103.242	19.946	6.439	0.514
682.500	424.617	80.006	19.995	103.242	19.947	6.357	0.492
684.000	425.407	80.006	19.996	103.242	19.952	6.065	0.530
685.501	426.196	80.007	19.995	103.247	19.947	6.398	0.520
687.000	426.980	80.006	19.997	103.249	19.951	6.102	0.510
688.500	427.748	80.006	19.997	103.250	19.949	6.229	0.516
690.000	428.571	80.006	19.996	103.250	19.947	6.373	0.547
691.500	429.352	80.006	19.994	103.251	19.951	6.081	0.518
693.000	430.118	80.008	19.995	103.251	19.950	6.159	0.501
694.500	430.900	80.007	19.995	103.250	19.953	5.978	0.521
696.000	431.672	80.007	19.994	103.248	19.954	5.905	0.520
697.500	432.464	80.008	19.994	103.247	19.955	5.830	0.523
699.000	433.255	80.009	19.994	103.245	19.955	5.849	0.536
700.500	434.068	80.010	19.994	103.242	19.958	5.663	0.534
702.000	434.849	80.008	19.994	103.235	19.957	5.732	0.495
703.500	435.631	80.008	19.994	103.233	19.958	5.666	0.526
705.000	436.425	80.008	19.993	103.244	19.955	5.859	0.518
706.500	437.195	80.009	19.994	103.242	19.959	5.562	0.522
708.000	437.976	80.007	19.994	103.234	19.960	5.489	0.526
709.500	438.754	80.009	19.995	103.243	19.958	5.659	0.521
711.000	439.533	80.007	19.994	103.242	19.957	5.717	0.514
712.500	440.318	80.007	19.994	103.243	19.958	5.646	0.493
714.000	441.077	80.007	19.994	103.246	19.958	5.659	0.514
715.500	441.839	80.007	19.994	103.238	19.957	5.687	0.503
717.000	442.622	80.007	19.994	103.229	19.960	5.488	0.521
718.500	443.375	80.009	19.994	103.223	19.961	5.441	0.525
720.000	444.163	80.008	19.995	103.239	19.964	5.206	0.521
721.500	444.954	80.007	19.994	103.239	19.960	5.493	0.522
723.000	445.718	80.008	19.994	103.232	19.965	5.174	0.518
724.500	446.464	80.008	19.993	103.240	19.962	5.334	0.493
726.000	447.212	80.009	19.994	103.234	19.963	5.329	0.505
727.500	447.973	80.008	19.993	103.233	19.966	5.116	0.515
729.000	448.764	80.009	19.993	103.242	19.964	5.227	0.511
730.501	449.531	80.007	19.993	103.241	19.963	5.298	0.501
732.000	450.277	80.008	19.994	103.233	19.961	5.407	0.502
733.500	451.062	80.008	19.993	103.229	19.965	5.170	0.533
735.000	451.857	80.007	19.994	103.228	19.966	5.127	0.513
736.500	452.613	80.006	19.994	103.225	19.968	4.998	0.517
738.000	453.408	80.006	19.995	103.220	19.971	4.774	0.530
739.500	454.178	80.007	19.994	103.233	19.968	4.979	0.494
741.000	454.889	80.007	19.994	103.236	19.967	5.050	0.469
742.500	455.659	80.007	19.994	103.221	19.969	4.871	0.524
744.000	456.446	80.007	19.995	103.220	19.975	4.518	0.528
745.500	457.179	80.006	19.993	103.220	19.972	4.684	0.496
747.000	457.952	80.006	19.997	103.230	19.973	4.613	0.513
748.500	458.697	80.006	19.995	103.233	19.969	4.873	0.504
750.000	459.465	80.007	19.994	103.224	19.970	4.855	0.532
751.500	460.239	80.007	19.996	103.215	19.974	4.591	0.503
753.000	460.931	80.008	19.995	103.215	19.978	4.267	0.475
754.500	461.698	80.007	19.995	103.213	19.974	4.579	0.521
756.000	462.471	80.008	19.994	103.213	19.978	4.298	0.501
757.500	463.236	80.008	19.994	103.211	19.979	4.264	0.513
759.000	463.964	80.008	19.995	103.211	19.976	4.430	0.466
760.500	464.664	80.007	19.995	103.212	19.978	4.298	0.465
762.000	465.424	80.007	19.995	103.213	19.978	4.278	0.521
763.500	466.129	80.007	19.995	103.219	19.977	4.377	0.461
765.000	466.929	80.008	19.995	103.220	19.980	4.184	0.559
766.500	467.669	80.007	19.995	103.217	19.975	4.466	0.485
768.000	468.414	80.008	19.996	103.214	19.979	4.255	0.501
769.500	469.170	80.005	19.995	103.223	19.979	4.262	0.501
771.000	469.908	80.006	19.995	103.216	19.981	4.097	0.495
772.500	470.620	80.006	19.995	103.215	19.982	4.049	0.476
774.000	471.359	80.006	19.996	103.221	19.979	4.245	0.503
775.500	472.139	80.005	19.995	103.221	19.981	4.106	0.498
777.000	472.866	80.006	19.996	103.215	19.983	3.969	0.489
778.500	473.626	80.006	19.995	103.215	19.983	3.976	0.526
780.000	474.453	80.007	19.996	103.223	19.982	4.064	0.520
781.500	475.189	80.008	19.995	103.226	19.980	4.171	0.518
783.000	475.956	80.008	19.994	103.217	19.981	4.073	0.517
784.500	476.731	80.008	19.994	103.213	19.981	4.127	0.496
786.000	477.496	80.009	19.993	103.217	19.979	4.236	0.508
787.500	478.235	80.009	19.994	103.224	19.981	4.107	0.493
789.000	479.001	80.010	19.995	103.219	19.982	4.011	0.515
790.500	479.773	80.008	19.993	103.227	19.982	4.062	0.500
792.000	480.577	80.006	19.994	103.226	19.983	3.934	0.543
793.500	481.389	80.007	19.994	103.226	19.985	3.853	0.539
795.000	482.203	80.007	19.994	103.223	19.987	3.676	0.531
796.500	482.939	80.007	19.993	103.219	19.989	3.592	0.504
798.000	483.667	80.007	19.994	103.222	19.986	3.756	0.474
799.500	484.461	80.007	19.994	103.225	19.987	3.690	0.524
801.000	485.257	80.007	19.993	103.218	19.988	3.619	0.538
802.500	486.056	80.007	19.993	103.215	19.987	3.685	0.537
804.000	486.816	80.008	19.994	103.221	19.987	3.687	0.502
805.500	487.582	80.008	19.994	103.225	19.991	3.449	0.515
807.000	488.358	80.009	19.995	103.220	19.991	3.445	0.538
808.500	489.135	80.011	19.994	103.218	19.992	3.361	0.516
810.000	489.972	80.010	19.994	103.214	19.992	3.345	0.542
811.500	490.734	80.008	19.994	103.214	19.993	3.265	0.516
813.000	491.490	80.010	19.992	103.217	19.994	3.261	0.502
814.500	492.227	80.010	19.994	103.216	19.991	3.425	0.488
816.000	493.041	80.009	19.994	103.223	19.993	3.285	0.539
817.500	493.817	80.009	19.994	103.215	19.992	3.355	0.528
819.000	494.605	80.007	19.994	103.214	19.992	3.343	0.500
820.500	495.396	80.008	19.994	103.220	19.995	3.132	0.522
822.000	496.231	80.008	19.995	103.218	19.997	3.012	0.539
823.500	497.003	80.007	19.994	103.218	19.993	3.307	0.513
825.000	497.765	80.007	19.995	103.219	19.990	3.463	0.499
826.500	498.558	80.008	19.995	103.215	19.991	3.425	0.535
828.000	499.333	80.008	19.994	103.213	19.991	3.418	0.501
829.500	500.091	80.008	19.993	103.212	19.992	3.330	0.514
831.001	500.859	80.008	19.993	103.213	19.995	3.188	0.534
832.500	501.637	80.007	19.994	103.215	19.993	3.290	0.517
834.000	502.420	80.008	19.994	103.221	19.994	3.257	0.506
835.500	503.179	80.007	19.994	103.220	19.993	3.294	0.513
837.000	503.934	80.007	19.994	103.215	19.996	3.119	0.498
838.500	504.716	80.008	19.994	103.213	19.998	2.992	0.507
840.000	505.469	80.007	19.994	103.220	19.996	3.099	0.508
841.500	506.238	80.008	19.995	103.214	19.999	2.877	0.526
843.000	507.003	80.006	19.995	103.218	19.996	3.079	0.511
844.500	507.837	80.007	19.995	103.222	19.999	2.881	0.535
846.000	508.584	80.007	19.995	103.216	19.999	2.910	0.507
847.500	509.360	80.008	19.996	103.215	19.998	2.975	0.532
849.000	510.163	80.008	19.996	103.218	19.999	2.908	0.520
850.500	510.947	80.007	19.995	103.223	19.999	2.895	0.537
852.000	511.661	80.006	19.995	103.219	20.000	2.828	0.486
853.500	512.445	80.007	19.994	103.218	19.996	3.084	0.524
855.000	513.211	80.006	19.994	103.215	20.000	2.824	0.512
856.500	513.993	80.006	19.994	103.218	20.000	2.846	0.527
858.000	514.812	80.007	19.994	103.220	19.998	2.981	0.559
859.500	515.593	80.007	19.995	103.217	20.004	2.542	0.524
861.000	516.340	80.007	19.994	103.220	20.000	2.846	0.497
862.500	517.136	80.006	19.995	103.218	20.003	2.657	0.517
864.000	517.942	80.009	19.994	103.216	20.001	2.784	0.526
865.500	518.686	80.008	19.994	103.216	19.999	2.864	0.501
867.000	519.432	80.008	19.995	103.216	20.001	2.740	0.502
868.500	520.228	80.008	19.995	103.214	19.999	2.888	0.529
870.000	521.007	80.009	19.995	103.216	19.998	2.966	0.509
871.500	521.722	80.007	19.996	103.214	19.997	3.028	0.498
873.000	522.547	80.008	19.995	103.211	20.001	2.748	0.522
874.500	523.307	80.009	19.997	103.210	20.004	2.573	0.514
876.000	524.055	80.008	19.996	103.210	20.000	2.800	0.515
877.500	524.837	80.008	19.995	103.211	20.001	2.771	0.529
879.001	525.613	80.009	19.994	103.213	20.002	2.666	0.521
880.500	526.383	80.008	19.993	103.212	20.002	2.662	0.504
882.000	527.106	80.008	19.994	103.212	20.002	2.702	0.501
883.500	527.844	80.008	19.993	103.213	19.999	2.890	0.488
885.000	528.648	80.008	19.994	103.214	19.999	2.912	0.546
886.500	529.432	80.009	19.995	103.212	20.000	2.797	0.516
888.000	530.191	80.010	19.994	103.212	19.996	3.099	0.505
889.500	530.949	80.010	19.994	103.215	19.999	2.915	0.518
891.000	531.741	80.009	19.993	103.211	20.004	2.538	0.530
892.500	532.532	80.010	19.993	103.215	20.001	2.777	0.534
894.000	533.308	80.010	19.993	103.215	20.004	2.531	0.528
895.500	534.096	80.008	19.993	103.211	19.999	2.913	0.508
897.000	534.857	80.008	19.993	103.213	19.998	2.957	0.501
898.500	535.666	80.009	19.993	103.212	19.998	2.963	0.526
900.000	536.445	80.009	19.994	103.212	20.000	2.802	0.529
901.500	537.216	80.008	19.993	103.212	20.002	2.680	0.525
903.000	538.026	80.006	19.995	103.212	19.997	3.004	0.555
904.500	538.812	80.009	19.994	103.211	19.996	3.090	0.543
906.000	539.602	80.008	19.994	103.210	20.002	2.719	0.514
907.500	540.392	80.006	19.994	103.215	19.998	2.937	0.532
909.000	541.146	80.008	19.994	103.217	19.999	2.879	0.527
910.500	541.939	80.007	19.994	103.214	19.996	3.063	0.517
912.000	542.727	80.007	19.994	103.214	20.000	2.822	0.498
913.500	543.515	80.007	19.993	103.214	19.999	2.892	0.522
915.000	544.258	80.008	19.994	103.214	19.997	3.015	0.489
916.500	545.039	80.007	19.994	103.214	19.999	2.864	0.524
918.000	545.783	80.007	19.993	103.214	20.003	2.635	0.483
919.500	546.538	80.007	19.994	103.214	20.007	2.358	0.486
921.000	547.304	80.008	19.993	103.214	20.005	2.499	0.513
922.500	548.031	80.006	19.995	103.215	20.003	2.602	0.507
924.000	548.805	80.008	19.994	103.217	20.003	2.608	0.520
925.500	549.577	80.005	19.994	103.215	20.003	2.613	0.512
927.000	550.298	80.006	19.994	103.216	20.000	2.811	0.482
928.500	551.057	80.004	19.995	103.217	20.004	2.569	0.509
930.000	551.796	80.007	19.995	103.216	20.002	2.724	0.484
931.500	552.564	80.006	19.995	103.216	20.001	2.744	0.521
933.000	553.363	80.006	19.995	103.216	20.003	2.631	0.518
934.500	554.105	80.005	19.996	103.214	20.004	2.569	0.498
936.000	554.916	80.007	19.995	103.213	20.003	2.611	0.525
937.500	555.645	80.006	19.995	103.214	20.003	2.611	0.483
939.000	556.355	80.007	19.995	103.212	20.002	2.726	0.476
940.500	557.118	80.007	19.995	103.211	20.002	2.715	0.531
942.000	557.925	80.007	19.995	103.214	20.003	2.602	0.528
943.500	558.706	80.008	19.995	103.218	20.001	2.786	0.504
945.000	559.440	80.008	19.994	103.214	20.000	2.810	0.501
946.500	560.235	80.008	19.994	103.211	20.001	2.773	0.517
948.000	560.985	80.009	19.995	103.213	20.001	2.731	0.534
949.500	561.772	80.008	19.995	103.212	20.004	2.553	0.513
951.000	562.536	80.007	19.994	103.211	20.005	2.513	0.517
952.500	563.286	80.008	19.994	103.210	20.005	2.476	0.508
954.000	564.101	80.008	19.993	103.211	20.002	2.704	0.534
955.500	564.852	80.006	19.994	103.212	20.002	2.686	0.512
957.000	565.618	80.007	19.995	103.213	20.000	2.828	0.515
958.500	566.418	80.008	19.995	103.211	20.003	2.615	0.530
960.000	567.187	80.008	19.995	103.210	20.000	2.833	0.489
961.500	567.958	80.006	19.996	103.209	20.001	2.755	0.507
963.000	568.782	80.007	19.995	103.209	20.002	2.722	0.538
964.500	569.554	80.007	19.996	103.209	19.999	2.888	0.534
966.001	570.338	80.007	19.996	103.209	20.002	2.666	0.518
967.500	571.114	80.008	19.995	103.210	20.002	2.702	0.512
969.000	571.833	80.010	19.994	103.210	19.999	2.881	0.475
970.500	572.643	80.010	19.995	103.209	20.003	2.602	0.529
972.000	573.432	80.009	19.993	103.211	20.001	2.791	0.534
973.500	574.222	80.010	19.993	103.215	20.001	2.791	0.532
975.000	575.032	80.011	19.993	103.216	20.004	2.529	0.541
976.500	575.848	80.010	19.993	103.212	20.003	2.650	0.536
978.000	576.636	80.009	19.993	103.212	20.003	2.622	0.520
979.501	577.437	80.009	19.993	103.214	20.003	2.628	0.520
981.000	578.205	80.008	19.994	103.214	20.003	2.628	0.503
982.500	578.983	80.005	19.993	103.214	20.003	2.604	0.549
984.000	579.709	80.007	19.994	103.215	20.002	2.724	0.496
985.500	580.538	80.007	19.994	103.215	20.003	2.659	0.521
987.000	581.352	80.006	19.995	103.215	20.003	2.646	0.521
988.500	582.169	80.007	19.995	103.215	20.006	2.429	0.504
990.000	582.886	80.007	19.995	103.214	20.005	2.511	0.494
991.500	583.680	80.007	19.994	103.214	20.002	2.664	0.524
993.000	584.432	80.006	19.994	103.214	20.009	2.240	0.519
994.500	585.235	80.007	19.994	103.213	20.005	2.462	0.547
996.000	586.034	80.006	19.994	103.215	20.003	2.608	0.541
997.500	586.771	80.007	19.994	103.214	20.001	2.793	0.488
999.000	587.514	80.008	19.994	103.214	20.002	2.666	0.506
1000.500	588.284	80.009	19.994	103.208	20.003	2.631	0.517
1002.000	589.053	80.008	19.994	103.206	20.005	2.487	0.525
1003.500	589.806	80.008	19.993	103.210	20.004	2.535	0.505
1005.000	590.576	80.008	19.994	103.205	20.005	2.497	0.528
1006.500	591.387	80.007	19.995	103.206	20.006	2.395	0.526
1008.001	592.135	80.007	19.995	103.211	20.008	2.287	0.498
1009.500	592.855	80.007	19.995	103.211	20.006	2.409	0.479
1011.000	593.598	80.007	19.993	103.211	20.008	2.322	0.509
1012.500	594.433	80.007	19.994	103.212	20.009	2.236	0.521
1014.000	595.188	80.007	19.994	103.209	20.007	2.387	0.513
1015.500	595.970	80.008	19.994	103.209	20.004	2.546	0.528
1017.001	596.676	80.008	19.994	103.212	20.005	2.480	0.478
1018.500	597.433	80.007	19.993	103.212	20.007	2.391	0.511
1020.000	598.185	80.007	19.995	103.213	20.006	2.416	0.504
1021.500	598.963	80.008	19.994	103.212	20.007	2.393	0.502
1023.000	599.723	80.008	19.995	103.211	20.006	2.435	0.487
1024.500	600.491	80.008	19.994	103.211	20.005	2.471	0.500
1026.000	601.237	80.009	19.995	103.212	20.007	2.338	0.523
1027.500	601.977	80.009	19.995	103.212	20.006	2.424	0.480
1029.000	602.696	80.008	19.995	103.209	20.009	2.255	0.461
1030.500	603.490	80.007	19.995	103.206	20.008	2.298	0.520
1032.000	604.263	80.009	19.995	103.209	20.012	2.009	0.531
1033.500	604.988	80.008	19.995	103.208	20.011	2.113	0.498
1035.000	605.741	80.008	19.994	103.209	20.013	1.942	0.503
1036.501	606.468	80.008	19.994	103.209	20.013	1.942	0.482
1038.000	607.220	80.007	19.995	103.206	20.012	2.024	0.503
1039.500	607.997	80.007	19.994	103.209	20.011	2.102	0.504
1041.001	608.786	80.007	19.994	103.214	20.012	2.022	0.522
1042.500	609.510	80.008	19.995	103.214	20.014	1.918	0.505
1044.001	610.309	80.008	19.995	103.215	20.012	2.056	0.527
1045.500	611.069	80.008	19.994	103.214	20.013	1.934	0.511
1047.000	611.832	80.008	19.995	103.213	20.012	2.022	0.501
1048.500	612.599	80.008	19.996	103.213	20.013	1.962	0.502
1050.000	613.377	80.008	19.996	103.213	20.014	1.896	0.533
1051.500	614.154	80.009	19.995	103.212	20.012	2.034	0.511
1053.001	614.893	80.009	19.995	103.210	20.008	2.276	0.519
1054.500	615.693	80.008	19.995	103.209	20.014	1.922	0.522
1056.001	616.445	80.008	19.995	103.212	20.015	1.858	0.490
1057.500	617.203	80.009	19.995	103.214	20.011	2.118	0.514
1059.001	617.972	80.007	19.995	103.212	20.009	2.202	0.518
1060.500	618.712	80.007	19.996	103.211	20.013	1.989	0.504
1062.001	619.471	80.008	19.996	103.213	20.012	2.014	0.521
1063.500	620.264	80.007	19.996	103.211	20.013	1.967	0.513
1065.000	621.016	80.008	19.995	103.212	20.010	2.138	0.523
1066.500	621.758	80.008	19.995	103.208	20.012	2.027	0.519
1068.000	622.496	80.007	19.995	103.203	20.012	2.011	0.526
1069.500	623.267	80.007	19.994	103.199	20.008	2.293	0.498
1071.000	624.030	80.007	19.994	103.210	20.008	2.265	0.494
1072.500	624.776	80.007	19.993	103.209	20.011	2.061	0.514
1074.000	625.525	80.007	19.994	103.206	20.008	2.264	0.507
1075.500	626.285	80.008	19.994	103.206	20.008	2.271	0.495
1077.000	627.073	80.006	19.994	103.211	20.009	2.222	0.532
1078.500	627.823	80.009	19.994	103.211	20.004	2.566	0.523
1080.000	628.587	80.008	19.995	103.206	20.008	2.309	0.527
1081.500	629.323	80.007	19.994	103.194	20.008	2.302	0.472
1083.001	630.086	80.008	19.994	103.198	20.005	2.464	0.500
1084.500	630.873	80.009	19.994	103.205	20.006	2.453	0.519
1086.000	631.605	80.008	19.993	103.207	20.005	2.515	0.492
1087.500	632.372	80.007	19.995	103.210	20.005	2.486	0.509
1089.001	633.107	80.008	19.995	103.209	20.007	2.351	0.508
1090.500	633.958	80.007	19.993	103.209	20.007	2.360	0.554
1092.001	634.682	80.007	19.994	103.211	20.010	2.158	0.486
1093.500	635.474	80.008	19.995	103.210	20.008	2.278	0.508
1095.000	636.234	80.007	19.993	103.209	20.007	2.340	0.536
1096.500	637.003	80.009	19.995	103.210	20.007	2.338	0.522
1098.001	637.781	80.008	19.995	103.207	20.010	2.175	0.512
1099.500	638.570	80.007	19.994	103.208	20.015	1.805	0.541
1101.000	639.333	80.007	19.994	103.212	20.014	1.922	0.513
1102.500	640.129	80.008	19.993	103.212	20.011	2.078	0.515
1104.001	640.926	80.008	19.994	103.213	20.011	2.091	0.515
1105.500	641.728	80.009	19.995	103.213	20.014	1.925	0.525
1107.000	642.499	80.009	19.995	103.212	20.011	2.096	0.509
1108.500	643.265	80.009	19.994	103.214	20.012	2.007	0.500
1110.000	644.022	80.010	19.994	103.215	20.012	2.022	0.506
1111.500	644.851	80.009	19.995	103.213	20.013	1.951	0.536
1113.001	645.656	80.010	19.993	103.207	20.013	1.980	0.543
1114.501	646.422	80.009	19.993	103.212	20.011	2.064	0.494
1116.000	647.180	80.009	19.994	103.214	20.013	1.973	0.509
1117.500	647.941	80.008	19.994	103.213	20.015	1.809	0.512
1119.000	648.747	80.007	19.994	103.213	20.017	1.692	0.514
1120.500	649.546	80.007	19.994	103.212	20.013	1.953	0.534
1122.000	650.313	80.007	19.994	103.213	20.015	1.841	0.532
1123.501	651.062	80.008	19.995	103.214	20.016	1.785	0.521
1125.000	651.850	80.008	19.994	103.214	20.014	1.860	0.529
1126.500	652.610	80.009	19.994	103.213	20.014	1.898	0.530
1128.000	653.361	80.009	19.994	103.206	20.011	2.096	0.494
1129.500	654.156	80.009	19.995	103.206	20.017	1.696	0.518
1131.000	654.950	80.010	19.994	103.213	20.013	1.978	0.526
1132.500	655.757	80.011	19.994	103.210	20.014	1.882	0.529
1134.000	656.505	80.010	19.995	103.210	20.014	1.872	0.494
1135.501	657.310	80.010	19.995	103.207	20.015	1.809	0.528
1137.000	658.034	80.010	19.994	103.201	20.014	1.885	0.494
1138.500	658.804	80.010	19.994	103.201	20.015	1.805	0.524
1140.000	659.610	80.011	19.994	103.201	20.011	2.065	0.542
1141.500	660.333	80.008	19.995	103.209	20.012	2.011	0.499
1143.001	661.134	80.007	19.995	103.209	20.016	1.778	0.528
1144.500	661.860	80.007	19.995	103.209	20.019	1.546	0.474
1146.000	662.608	80.006	19.995	103.208	20.015	1.803	0.503
1147.500	663.381	80.008	19.995	103.209	20.017	1.707	0.548
1149.000	664.164	80.007	19.995	103.211	20.016	1.734	0.505
1150.500	664.925	80.006	19.996	103.202	20.016	1.779	0.507
1152.000	665.677	80.007	19.994	103.207	20.014	1.876	0.513
1153.500	666.430	80.006	19.996	103.202	20.014	1.909	0.489
1155.000	667.137	80.007	19.996	103.195	20.014	1.883	0.498
1156.500	667.948	80.007	19.996	103.186	20.014	1.883	0.530
1158.000	668.687	80.006	19.996	103.185	20.017	1.667	0.481
1159.500	669.466	80.006	19.995	103.200	20.016	1.748	0.525
1161.000	670.233	80.007	19.995	103.196	20.014	1.859	0.530
1162.500	670.969	80.007	19.995	103.201	20.015	1.830	0.519
1164.001	671.727	80.008	19.994	103.204	20.013	1.940	0.505
1165.500	672.489	80.007	19.994	103.207	20.015	1.827	0.515
1167.000	673.258	80.008	19.994	103.205	20.013	1.952	0.503
1168.500	674.049	80.007	19.993	103.202	20.012	2.023	0.531
1170.000	674.831	80.007	19.994	103.195	20.017	1.694	0.536
1171.500	675.616	80.009	19.994	103.193	20.017	1.683	0.531
1173.000	676.367	80.009	19.995	103.198	20.017	1.705	0.502
1174.500	677.152	80.007	19.994	103.206	20.015	1.800	0.507
1176.000	677.944	80.008	19.994	103.205	20.017	1.681	0.543
1177.500	678.706	80.006	19.995	103.205	20.016	1.761	0.509
1179.000	679.436	80.007	19.995	103.195	20.017	1.687	0.498
1180.500	680.223	80.005	19.995	103.207	20.019	1.563	0.514
1182.000	680.984	80.007	19.993	103.209	20.017	1.683	0.525
1183.501	681.747	80.005	19.994	103.201	20.015	1.800	0.529
1185.000	682.530	80.007	19.995	103.205	20.014	1.925	0.528
1186.500	683.267	80.005	19.994	103.207	20.011	2.063	0.465
1188.000	684.076	80.008	19.994	103.201	20.014	1.914	0.533
1189.501	684.820	80.007	19.993	103.190	20.012	2.018	0.495
1191.000	685.630	80.007	19.993	103.199	20.013	1.974	0.531
1192.500	686.353	80.010	19.993	103.204	20.012	2.016	0.508
1194.000	687.083	80.008	19.993	103.205	20.012	2.047	0.491
1195.500	687.885	80.010	19.993	103.202	20.014	1.898	0.502
1197.000	688.630	80.008	19.994	103.197	20.013	1.976	0.510
1198.500	689.343	80.008	19.993	103.201	20.014	1.880	0.486
1200.000	690.132	80.008	19.993	103.197	20.014	1.916	0.524
1201.501	690.877	80.008	19.994	103.198	20.016	1.790	0.515
1203.001	691.658	80.009	19.994	103.202	20.013	1.992	0.510
1204.500	692.411	80.010	19.993	103.204	20.015	1.826	0.501
1206.001	693.184	80.008	19.994	103.205	20.016	1.774	0.492
1207.500	693.910	80.009	19.994	103.194	20.016	1.780	0.490
1209.000	694.679	80.009	19.994	103.194	20.017	1.708	0.516
1210.500	695.485	80.008	19.994	103.199	20.018	1.656	0.544
1212.001	696.265	80.009	19.994	103.194	20.016	1.754	0.516
1213.500	697.039	80.010	19.994	103.186	20.017	1.661	0.510
1215.000	697.794	80.009	19.995	103.181	20.019	1.559	0.516
1216.500	698.534	80.010	19.994	103.189	20.018	1.639	0.522
1218.001	699.302	80.010	19.995	103.207	20.015	1.817	0.526
1219.500	700.129	80.009	19.995	103.200	20.017	1.692	0.536
1221.000	700.854	80.008	19.994	103.186	20.017	1.723	0.494
1222.500	701.594	80.010	19.994	103.182	20.018	1.606	0.513
1224.001	702.348	80.009	19.995	103.179	20.018	1.621	0.504
1225.500	703.091	80.008	19.994	103.179	20.018	1.632	0.485
1227.000	703.892	80.008	19.996	103.179	20.018	1.599	0.519
1228.500	704.670	80.008	19.995	103.187	20.016	1.741	0.521
1230.000	705.419	80.007	19.994	103.185	20.015	1.835	0.512
1231.501	706.135	80.008	19.994	103.199	20.015	1.812	0.474
1233.000	706.896	80.007	19.994	103.188	20.014	1.899	0.493
1234.501	707.671	80.007	19.995	103.180	20.016	1.756	0.527
1236.000	708.414	80.008	19.995	103.183	20.013	1.976	0.499
1237.501	709.144	80.007	19.996	103.189	20.012	1.996	0.508
1239.001	709.933	80.008	19.995	103.188	20.015	1.852	0.552
1240.500	710.656	80.006	19.995	103.176	20.013	1.927	0.492
1242.000	711.360	80.007	19.995	103.191	20.016	1.734	0.484
1243.500	712.113	80.005	19.996	103.192	20.020	1.488	0.505
1245.000	712.867	80.007	19.994	103.184	20.015	1.832	0.508
1246.500	713.626	80.006	19.995	103.187	20.014	1.894	0.484
1248.000	714.350	80.007	19.996	103.188	20.012	2.016	0.477
1249.501	715.073	80.007	19.995	103.184	20.015	1.821	0.478
1251.000	715.885	80.006	19.994	103.183	20.012	2.018	0.547
1252.501	716.644	80.007	19.995	103.186	20.012	2.014	0.499
1254.000	717.421	80.005	19.994	103.195	20.015	1.796	0.525
1255.500	718.161	80.008	19.994	103.190	20.018	1.592	0.491
1257.001	718.881	80.006	19.994	103.178	20.016	1.759	0.481
1258.500	719.654	80.005	19.993	103.178	20.014	1.869	0.511
1260.001	720.399	80.005	19.994	103.179	20.017	1.672	0.519
1261.500	721.146	80.006	19.995	103.194	20.019	1.579	0.533
1263.001	721.901	80.006	19.994	103.197	20.016	1.734	0.510
1264.500	722.633	80.007	19.994	103.194	20.015	1.808	0.503
1266.000	723.440	80.007	19.994	103.190	20.015	1.839	0.527
1267.500	724.220	80.008	19.993	103.192	20.016	1.787	0.521
1269.000	724.959	80.007	19.994	103.197	20.015	1.843	0.520
1270.501	725.722	80.008	19.994	103.188	20.013	1.943	0.495
1272.001	726.513	80.008	19.995	103.196	20.013	1.988	0.539
1273.500	727.260	80.009	19.994	103.197	20.012	2.032	0.511
1275.001	728.028	80.008	19.994	103.193	20.017	1.705	0.493
1276.500	728.830	80.008	19.994	103.184	20.012	2.005	0.522
1278.001	729.582	80.009	19.994	103.187	20.013	1.985	0.494
1279.500	730.316	80.009	19.994	103.191	20.013	1.992	0.495
1281.000	731.103	80.009	19.995	103.190	20.014	1.907	0.535
1282.500	731.891	80.008	19.995	103.186	20.017	1.697	0.521
1284.000	732.648	80.009	19.994	103.174	20.013	1.981	0.514
1285.501	733.459	80.007	19.995	103.191	20.015	1.819	0.522
1287.000	734.222	80.008	19.995	103.197	20.017	1.665	0.501
1288.500	734.954	80.008	19.995	103.202	20.020	1.483	0.509
1290.000	735.718	80.008	19.994	103.201	20.016	1.752	0.517
1291.500	736.518	80.007	19.993	103.191	20.014	1.861	0.531
1293.000	737.265	80.010	19.994	103.187	20.016	1.772	0.526
1294.500	738.054	80.010	19.994	103.190	20.015	1.805	0.509
1296.000	738.863	80.008	19.995	103.182	20.016	1.736	0.515
1297.500	739.629	80.009	19.993	103.180	20.015	1.796	0.513
1299.000	740.426	80.009	19.993	103.185	20.016	1.790	0.531
1300.500	741.171	80.010	19.993	103.197	20.012	2.007	0.474
1302.001	741.934	80.009	19.993	103.191	20.015	1.839	0.520
1303.500	742.689	80.010	19.994	103.186	20.014	1.882	0.512
1305.000	743.418	80.010	19.993	103.188	20.013	1.943	0.490