File: 01_Data/Bravo_OSB/MCC/Bravo_OSB_MCC_30K_min_211207_R3.txt
Sample ID:	C:\MCC\MCC Cal\Test\Bravo_OSB_MCC_30K_min_211207_R3.txt
Sample Weight (mg):	4.41
Heating Rate (C/s):	0.5
Combustor Temp (C):	900
N2 Flow Rate (cc/min):	80
O2 Flow Rate (cc/min):	20
Calibration File:	C:\MCC\MCC Cal\Coeff1 JN10440_30_210304.txt.txt
T Correction Coefficients:	0	1.024463	0
Time Shift (s):	14
*
Time (s)	Temperature (C)	N2 flow rate (cc/min)	O2 flow rate (cc/min)	Flow Rate (cc/min)	Oxygen (%)	HRR (W/g)	Heating rate (C/s)
0.000	109.407	80.004	19.994	103.056	20.207	-0.506	-0.053
2.000	109.421	80.003	19.995	103.056	20.205	-0.367	0.022
4.000	109.415	80.004	19.995	103.057	20.205	-0.367	0.013
6.000	109.410	80.004	19.993	103.056	20.204	-0.302	0.004
8.000	109.433	80.003	19.994	103.056	20.203	-0.236	0.032
10.000	109.401	80.004	19.994	103.054	20.205	-0.374	-0.015
12.000	109.446	80.004	19.993	103.054	20.202	-0.199	0.003
14.000	109.439	80.005	19.994	103.055	20.204	-0.334	0.011
16.000	109.411	80.007	19.994	103.074	20.203	-0.276	-0.009
18.000	109.447	80.005	19.994	103.094	20.201	-0.097	-0.010
20.000	109.432	80.007	19.995	103.124	20.195	0.346	-0.016
22.000	109.561	80.004	19.995	103.142	20.192	0.574	0.074
24.000	109.580	80.004	19.994	103.152	20.188	0.831	0.030
26.000	109.644	80.003	19.994	103.141	20.188	0.831	0.044
28.000	109.773	80.002	19.994	103.155	20.189	0.761	0.035
30.000	109.956	80.003	19.995	103.143	20.190	0.688	0.093
32.000	110.007	80.003	19.995	103.147	20.190	0.670	0.059
34.000	110.152	80.004	19.995	103.132	20.189	0.742	0.047
36.000	110.271	80.003	19.993	103.121	20.191	0.618	0.091
38.000	110.433	80.002	19.994	103.104	20.190	0.688	0.082
40.001	110.589	80.004	19.993	103.111	20.190	0.694	0.102
42.000	110.759	80.002	19.995	103.161	20.188	0.881	0.062
44.000	110.944	80.004	19.994	103.180	20.185	1.080	0.104
46.000	111.103	80.002	19.994	103.196	20.183	1.183	0.098
48.000	111.371	80.003	19.995	103.212	20.181	1.362	0.122
50.000	111.585	80.002	19.996	103.233	20.179	1.496	0.137
52.000	111.841	80.004	19.996	103.213	20.177	1.683	0.131
54.000	112.145	80.001	19.995	103.212	20.175	1.789	0.152
56.000	112.434	80.002	19.996	103.213	20.177	1.681	0.151
58.000	112.734	80.002	19.995	103.211	20.174	1.868	0.145
60.000	113.099	80.001	19.995	103.223	20.172	2.026	0.158
62.000	113.459	80.003	19.995	103.249	20.171	2.076	0.171
64.000	113.841	80.003	19.995	103.254	20.170	2.140	0.177
66.000	114.211	80.004	19.993	103.255	20.169	2.267	0.198
68.000	114.618	80.004	19.994	103.257	20.169	2.220	0.173
70.000	115.043	80.004	19.994	103.278	20.166	2.473	0.213
72.000	115.456	80.005	19.994	103.282	20.169	2.236	0.228
74.000	115.905	80.006	19.994	103.284	20.164	2.578	0.220
76.000	116.421	80.005	19.994	103.288	20.166	2.453	0.266
78.000	116.937	80.004	19.993	103.301	20.163	2.696	0.263
80.000	117.462	80.005	19.994	103.308	20.164	2.598	0.281
82.000	118.037	80.003	19.995	103.320	20.160	2.915	0.266
84.000	118.627	80.003	19.993	103.320	20.160	2.919	0.287
86.000	119.267	80.004	19.994	103.320	20.156	3.192	0.301
88.001	119.910	80.006	19.994	103.325	20.158	3.076	0.334
90.000	120.539	80.006	19.994	103.324	20.161	2.841	0.320
92.000	121.256	80.006	19.994	103.325	20.159	2.993	0.352
94.000	121.938	80.006	19.994	103.323	20.159	2.935	0.354
96.000	122.631	80.008	19.994	103.324	20.157	3.140	0.345
98.000	123.355	80.006	19.993	103.324	20.154	3.303	0.348
100.000	124.107	80.007	19.994	103.327	20.152	3.459	0.369
102.001	124.897	80.005	19.993	103.326	20.153	3.417	0.364
104.001	125.681	80.005	19.994	103.325	20.154	3.303	0.401
106.000	126.489	80.003	19.994	103.327	20.155	3.246	0.407
108.001	127.294	80.005	19.995	103.330	20.151	3.560	0.417
110.000	128.106	80.005	19.995	103.332	20.155	3.239	0.412
112.000	128.924	80.004	19.995	103.330	20.153	3.375	0.451
114.000	129.743	80.003	19.994	103.332	20.155	3.297	0.406
116.000	130.588	80.004	19.995	103.331	20.154	3.357	0.405
118.000	131.510	80.004	19.995	103.330	20.152	3.480	0.463
120.000	132.341	80.003	19.995	103.329	20.151	3.542	0.430
122.000	133.201	80.004	19.995	103.328	20.153	3.427	0.428
124.001	134.147	80.004	19.995	103.331	20.155	3.253	0.471
126.000	135.013	80.004	19.994	103.330	20.152	3.478	0.452
128.000	135.943	80.002	19.994	103.331	20.153	3.435	0.463
130.000	136.884	80.003	19.994	103.329	20.150	3.614	0.479
132.000	137.809	80.003	19.994	103.332	20.154	3.337	0.472
134.000	138.760	80.003	19.993	103.331	20.152	3.452	0.477
136.000	139.648	80.003	19.994	103.329	20.156	3.158	0.455
138.000	140.654	80.002	19.995	103.325	20.156	3.217	0.491
140.000	141.590	80.001	19.995	103.326	20.155	3.273	0.456
142.000	142.568	80.002	19.996	103.322	20.158	3.040	0.468
144.000	143.531	80.003	19.996	103.327	20.159	2.964	0.471
146.000	144.539	80.002	19.996	103.323	20.155	3.233	0.493
148.000	145.510	80.003	19.995	103.320	20.154	3.327	0.506
150.000	146.524	80.004	19.995	103.320	20.157	3.086	0.511
152.000	147.522	80.005	19.995	103.317	20.158	3.020	0.489
154.000	148.493	80.006	19.994	103.316	20.157	3.084	0.491
156.000	149.506	80.005	19.994	103.314	20.157	3.112	0.534
158.000	150.516	80.004	19.994	103.318	20.159	2.941	0.481
160.000	151.492	80.004	19.994	103.317	20.158	3.044	0.502
162.000	152.500	80.006	19.994	103.318	20.161	2.797	0.527
164.000	153.474	80.004	19.994	103.318	20.157	3.112	0.516
166.000	154.488	80.004	19.993	103.305	20.159	2.998	0.493
168.000	155.476	80.005	19.995	103.317	20.161	2.801	0.498
170.000	156.490	80.004	19.994	103.312	20.163	2.701	0.534
172.000	157.524	80.005	19.993	103.307	20.164	2.593	0.519
174.000	158.487	80.007	19.994	103.312	20.164	2.639	0.499
176.000	159.494	80.006	19.994	103.299	20.162	2.733	0.489
178.000	160.504	80.006	19.994	103.295	20.160	2.910	0.521
180.000	161.559	80.006	19.993	103.292	20.159	2.976	0.555
182.000	162.503	80.005	19.995	103.292	20.161	2.812	0.487
184.000	163.542	80.005	19.993	103.291	20.163	2.667	0.519
186.000	164.583	80.004	19.993	103.291	20.166	2.440	0.517
188.000	165.611	80.004	19.994	103.296	20.166	2.428	0.529
190.000	166.593	80.005	19.994	103.293	20.164	2.621	0.532
192.000	167.567	80.002	19.993	103.294	20.163	2.643	0.503
194.000	168.604	80.004	19.993	103.293	20.166	2.432	0.493
196.000	169.638	80.003	19.994	103.292	20.164	2.635	0.535
198.000	170.631	80.005	19.994	103.292	20.165	2.502	0.527
200.000	171.641	80.004	19.994	103.289	20.166	2.426	0.480
202.000	172.670	80.004	19.994	103.289	20.163	2.659	0.503
204.000	173.673	80.003	19.994	103.288	20.167	2.412	0.481
206.000	174.691	80.004	19.994	103.287	20.165	2.555	0.492
208.000	175.707	80.003	19.994	103.280	20.165	2.546	0.512
210.000	176.661	80.004	19.995	103.276	20.164	2.579	0.493
212.000	177.657	80.004	19.996	103.284	20.166	2.468	0.485
214.000	178.654	80.004	19.995	103.279	20.166	2.436	0.509
216.000	179.657	80.004	19.995	103.279	20.163	2.647	0.469
218.000	180.645	80.003	19.996	103.283	20.167	2.406	0.490
220.000	181.640	80.004	19.994	103.283	20.167	2.406	0.484
222.000	182.662	80.002	19.994	103.277	20.169	2.249	0.496
224.000	183.668	80.004	19.995	103.277	20.168	2.340	0.499
226.000	184.665	80.004	19.995	103.274	20.167	2.370	0.481
228.000	185.642	80.003	19.996	103.277	20.168	2.332	0.514
230.000	186.712	80.005	19.994	103.266	20.170	2.155	0.519
232.000	187.682	80.004	19.994	103.263	20.168	2.314	0.477
234.000	188.651	80.005	19.995	103.272	20.164	2.621	0.478
236.000	189.644	80.004	19.995	103.262	20.165	2.557	0.489
238.000	190.657	80.006	19.995	103.261	20.166	2.439	0.515
240.000	191.619	80.005	19.995	103.260	20.167	2.356	0.471
242.000	192.615	80.004	19.995	103.263	20.169	2.270	0.460
244.000	193.610	80.005	19.995	103.259	20.166	2.451	0.507
246.000	194.554	80.003	19.994	103.256	20.162	2.716	0.478
248.000	195.517	80.005	19.993	103.254	20.164	2.636	0.477
250.000	196.500	80.004	19.993	103.256	20.162	2.714	0.486
252.000	197.478	80.005	19.994	103.259	20.160	2.881	0.493
254.000	198.476	80.005	19.993	103.265	20.163	2.644	0.504
256.000	199.468	80.007	19.994	103.259	20.163	2.654	0.519
258.000	200.427	80.006	19.993	103.266	20.165	2.547	0.458
260.000	201.421	80.006	19.993	103.254	20.162	2.732	0.504
262.000	202.408	80.005	19.993	103.256	20.159	2.961	0.514
264.000	203.368	80.004	19.993	103.260	20.159	2.975	0.507
266.000	204.331	80.003	19.994	103.254	20.161	2.788	0.461
268.000	205.397	80.003	19.994	103.250	20.156	3.158	0.487
270.000	206.330	80.005	19.994	103.255	20.160	2.863	0.472
272.000	207.363	80.003	19.994	103.258	20.156	3.158	0.518
274.000	208.348	80.003	19.994	103.256	20.156	3.158	0.514
276.000	209.257	80.002	19.994	103.258	20.157	3.138	0.471
278.000	210.289	80.005	19.994	103.257	20.155	3.231	0.493
280.000	211.268	80.003	19.993	103.253	20.152	3.488	0.499
282.000	212.223	80.003	19.994	103.257	20.155	3.271	0.453
284.000	213.220	80.004	19.994	103.253	20.153	3.390	0.519
286.000	214.163	80.005	19.993	103.252	20.156	3.166	0.511
288.000	215.195	80.004	19.993	103.263	20.154	3.321	0.511
290.000	216.166	80.005	19.995	103.260	20.151	3.530	0.495
292.000	217.172	80.004	19.994	103.255	20.152	3.496	0.489
294.000	218.182	80.003	19.995	103.257	20.151	3.579	0.494
296.000	219.151	80.003	19.994	103.254	20.150	3.611	0.475
298.000	220.139	80.003	19.994	103.261	20.152	3.476	0.471
300.000	221.169	80.003	19.994	103.255	20.148	3.760	0.489
302.000	222.154	80.003	19.994	103.257	20.148	3.792	0.506
304.000	223.182	80.002	19.994	103.256	20.145	3.956	0.480
306.000	224.154	80.003	19.994	103.254	20.145	3.982	0.505
308.000	225.175	80.004	19.993	103.255	20.144	4.053	0.528
310.000	226.153	80.003	19.995	103.252	20.139	4.393	0.485
312.000	227.133	80.004	19.994	103.256	20.139	4.441	0.483
314.000	228.187	80.005	19.993	103.256	20.139	4.449	0.502
316.000	229.222	80.004	19.993	103.264	20.136	4.644	0.548
318.000	230.209	80.004	19.994	103.262	20.139	4.397	0.485
320.000	231.178	80.003	19.994	103.260	20.131	5.028	0.469
322.000	232.204	80.003	19.993	103.262	20.129	5.166	0.498
324.000	233.212	80.005	19.994	103.264	20.128	5.243	0.510
326.000	234.226	80.003	19.994	103.257	20.126	5.352	0.528
328.000	235.237	80.004	19.995	103.257	20.127	5.340	0.490
330.000	236.224	80.004	19.994	103.258	20.122	5.679	0.500
332.000	237.265	80.006	19.995	103.258	20.123	5.615	0.533
334.000	238.246	80.005	19.995	103.263	20.122	5.645	0.470
336.000	239.223	80.007	19.994	103.260	20.118	5.937	0.485
338.000	240.209	80.006	19.994	103.257	20.116	6.139	0.509
340.000	241.212	80.004	19.995	103.261	20.111	6.471	0.464
342.000	242.243	80.005	19.994	103.267	20.108	6.689	0.491
344.000	243.213	80.006	19.994	103.256	20.107	6.750	0.481
346.000	244.219	80.003	19.993	103.255	20.107	6.778	0.536
348.000	245.233	80.004	19.996	103.268	20.107	6.746	0.511
350.000	246.240	80.003	19.994	103.270	20.101	7.242	0.488
352.000	247.250	80.003	19.994	103.276	20.098	7.434	0.514
354.001	248.238	80.004	19.995	103.272	20.097	7.532	0.491
356.000	249.260	80.004	19.994	103.268	20.092	7.846	0.521
358.000	250.268	80.004	19.995	103.266	20.094	7.709	0.505
360.000	251.337	80.004	19.994	103.272	20.090	8.012	0.517
362.000	252.352	80.003	19.994	103.269	20.084	8.416	0.538
364.000	253.296	80.004	19.994	103.268	20.080	8.731	0.476
366.000	254.318	80.005	19.994	103.268	20.074	9.156	0.500
368.000	255.331	80.005	19.993	103.267	20.069	9.582	0.524
370.000	256.323	80.005	19.995	103.270	20.068	9.610	0.493
372.000	257.336	80.005	19.993	103.278	20.065	9.835	0.501
374.000	258.361	80.004	19.993	103.278	20.059	10.263	0.518
376.000	259.354	80.003	19.993	103.287	20.050	10.923	0.521
378.000	260.313	80.003	19.993	103.293	20.045	11.308	0.491
380.000	261.314	80.003	19.993	103.292	20.041	11.578	0.494
382.000	262.305	80.003	19.994	103.295	20.037	11.873	0.526
384.000	263.298	80.003	19.993	103.295	20.028	12.550	0.498
386.000	264.309	80.004	19.994	103.293	20.023	12.885	0.507
388.000	265.294	80.005	19.994	103.295	20.019	13.231	0.484
390.000	266.249	80.005	19.994	103.293	20.009	13.923	0.466
392.000	267.301	80.005	19.995	103.297	20.003	14.343	0.530
394.000	268.306	80.005	19.994	103.291	19.997	14.812	0.534
396.000	269.310	80.006	19.995	103.300	19.991	15.274	0.509
398.000	270.330	80.004	19.994	103.294	19.983	15.811	0.521
400.000	271.364	80.005	19.995	103.301	19.978	16.171	0.514
402.000	272.344	80.005	19.994	103.296	19.970	16.811	0.498
404.001	273.375	80.004	19.994	103.313	19.959	17.608	0.502
406.000	274.342	80.005	19.994	103.306	19.952	18.090	0.474
408.000	275.370	80.005	19.994	103.317	19.947	18.494	0.513
410.000	276.372	80.005	19.994	103.313	19.937	19.217	0.482
412.000	277.377	80.005	19.994	103.313	19.931	19.635	0.497
414.000	278.398	80.006	19.994	103.321	19.924	20.141	0.525
416.000	279.399	80.005	19.995	103.323	19.915	20.785	0.468
418.000	280.385	80.005	19.994	103.323	19.909	21.243	0.519
420.000	281.408	80.004	19.995	103.320	19.901	21.821	0.495
422.000	282.387	80.005	19.995	103.322	19.896	22.215	0.501
424.000	283.398	80.003	19.995	103.325	19.889	22.723	0.486
426.000	284.443	80.003	19.995	103.325	19.878	23.479	0.505
428.000	285.442	80.003	19.994	103.329	19.872	23.965	0.509
430.000	286.456	80.002	19.993	103.330	19.866	24.426	0.501
432.000	287.450	80.002	19.994	103.331	19.861	24.728	0.502
434.000	288.461	80.003	19.993	103.330	19.856	25.123	0.473
436.000	289.496	80.003	19.994	103.332	19.848	25.721	0.501
438.000	290.509	80.003	19.994	103.340	19.842	26.125	0.514
440.000	291.503	80.003	19.993	103.336	19.838	26.466	0.501
442.000	292.485	80.003	19.994	103.332	19.830	27.028	0.507
444.000	293.538	80.003	19.994	103.334	19.827	27.240	0.508
446.000	294.556	80.002	19.994	103.335	19.819	27.839	0.526
448.000	295.525	80.003	19.994	103.335	19.811	28.428	0.493
450.000	296.535	80.003	19.994	103.335	19.805	28.826	0.494
452.000	297.562	80.002	19.994	103.339	19.799	29.323	0.518
454.000	298.574	80.003	19.994	103.336	19.793	29.723	0.515
456.000	299.583	80.003	19.994	103.346	19.792	29.792	0.508
458.000	300.593	80.003	19.993	103.338	19.783	30.490	0.519
460.000	301.614	80.002	19.993	103.351	19.779	30.758	0.489
462.000	302.608	80.002	19.994	103.338	19.773	31.168	0.512
464.000	303.596	80.004	19.994	103.342	19.767	31.601	0.504
466.000	304.570	80.004	19.994	103.357	19.762	31.980	0.483
468.000	305.629	80.005	19.994	103.361	19.757	32.400	0.515
470.000	306.661	80.005	19.995	103.362	19.755	32.492	0.524
472.000	307.609	80.004	19.994	103.358	19.749	32.970	0.503
474.000	308.641	80.005	19.994	103.352	19.742	33.480	0.522
476.000	309.648	80.005	19.994	103.358	19.736	33.905	0.518
478.000	310.616	80.005	19.995	103.357	19.729	34.415	0.480
480.000	311.660	80.005	19.994	103.364	19.723	34.856	0.512
482.000	312.683	80.005	19.994	103.364	19.717	35.286	0.511
484.000	313.727	80.004	19.995	103.366	19.714	35.545	0.522
486.000	314.700	80.003	19.994	103.365	19.707	36.055	0.488
488.000	315.697	80.005	19.995	103.368	19.702	36.366	0.495
490.000	316.747	80.004	19.994	103.368	19.693	37.021	0.508
492.000	317.718	80.004	19.995	103.369	19.690	37.292	0.483
494.000	318.712	80.004	19.993	103.370	19.684	37.741	0.471
496.000	319.727	80.006	19.994	103.369	19.678	38.164	0.484
498.000	320.777	80.006	19.993	103.368	19.671	38.644	0.528
500.000	321.777	80.006	19.994	103.371	19.664	39.157	0.532
502.001	322.751	80.003	19.994	103.381	19.659	39.563	0.504
504.000	323.763	80.005	19.994	103.379	19.649	40.262	0.496
506.000	324.747	80.002	19.995	103.381	19.644	40.656	0.522
508.000	325.742	80.003	19.995	103.385	19.635	41.273	0.499
510.000	326.788	80.002	19.995	103.391	19.627	41.875	0.524
512.000	327.835	80.004	19.995	103.394	19.621	42.356	0.534
514.000	328.797	80.002	19.995	103.403	19.608	43.288	0.480
516.000	329.812	80.003	19.994	103.388	19.605	43.531	0.515
518.000	330.802	80.004	19.993	103.401	19.593	44.390	0.460
520.000	331.839	80.005	19.996	103.403	19.586	44.890	0.507
522.000	332.855	80.004	19.994	103.404	19.570	46.049	0.520
524.000	333.879	80.004	19.994	103.405	19.561	46.707	0.503
526.000	334.910	80.003	19.993	103.412	19.546	47.805	0.518
528.000	335.907	80.003	19.994	103.424	19.542	48.146	0.505
530.001	336.930	80.004	19.994	103.426	19.526	49.333	0.509
532.000	337.943	80.006	19.994	103.437	19.512	50.358	0.509
534.001	339.005	80.003	19.994	103.425	19.498	51.370	0.538
536.000	339.945	80.003	19.994	103.446	19.484	52.399	0.477
538.000	340.994	80.004	19.995	103.446	19.471	53.340	0.483
540.000	341.991	80.003	19.994	103.446	19.453	54.678	0.493
542.000	342.991	80.004	19.995	103.453	19.437	55.835	0.480
544.000	343.984	80.004	19.995	103.470	19.425	56.716	0.494
546.000	344.971	80.004	19.994	103.479	19.410	57.855	0.477
548.000	346.031	80.004	19.994	103.484	19.386	59.626	0.512
550.000	347.018	80.004	19.993	103.485	19.369	60.808	0.508
552.000	348.042	80.004	19.993	103.485	19.350	62.220	0.496
554.000	349.050	80.005	19.993	103.501	19.332	63.559	0.489
556.000	350.081	80.005	19.994	103.517	19.312	65.029	0.524
558.000	351.049	80.004	19.993	103.525	19.291	66.600	0.489
560.000	352.103	80.004	19.994	103.528	19.270	68.142	0.519
562.000	353.146	80.003	19.994	103.533	19.249	69.677	0.516
564.000	354.169	80.003	19.994	103.537	19.228	71.162	0.528
566.000	355.195	80.004	19.995	103.549	19.212	72.364	0.493
568.000	356.171	80.004	19.994	103.561	19.188	74.124	0.488
570.000	357.171	80.005	19.995	103.562	19.167	75.681	0.489
572.000	358.208	80.004	19.995	103.561	19.150	76.934	0.498
574.000	359.213	80.004	19.994	103.566	19.130	78.380	0.493
576.000	360.224	80.005	19.994	103.566	19.117	79.306	0.508
578.000	361.252	80.005	19.993	103.564	19.101	80.516	0.530
580.000	362.287	80.005	19.994	103.565	19.088	81.433	0.512
582.000	363.236	80.005	19.993	103.563	19.077	82.253	0.479
584.000	364.253	80.003	19.994	103.560	19.068	82.868	0.486
586.000	365.254	80.003	19.994	103.561	19.061	83.416	0.520
588.000	366.277	80.003	19.994	103.561	19.058	83.599	0.520
590.000	367.343	80.002	19.994	103.561	19.057	83.637	0.539
592.001	368.349	80.002	19.994	103.552	19.055	83.761	0.512
594.000	369.368	80.002	19.994	103.533	19.063	83.165	0.535
596.000	370.354	80.003	19.993	103.523	19.074	82.359	0.511
598.000	371.361	80.002	19.996	103.515	19.089	81.239	0.485
600.000	372.419	80.003	19.994	103.503	19.108	79.831	0.515
602.000	373.413	80.003	19.994	103.487	19.129	78.313	0.497
604.000	374.484	80.003	19.995	103.468	19.155	76.361	0.533
606.000	375.470	80.003	19.995	103.445	19.184	74.275	0.507
608.000	376.553	80.003	19.995	103.426	19.219	71.700	0.553
610.000	377.584	80.003	19.994	103.405	19.260	68.680	0.520
612.000	378.583	80.003	19.993	103.381	19.303	65.505	0.502
614.000	379.635	80.002	19.994	103.361	19.345	62.438	0.500
616.000	380.652	80.002	19.994	103.334	19.390	59.120	0.507
618.000	381.632	80.002	19.993	103.325	19.443	55.236	0.486
620.000	382.671	80.003	19.994	103.304	19.496	51.398	0.490
622.000	383.751	80.003	19.996	103.278	19.547	47.674	0.519
624.000	384.762	80.002	19.993	103.266	19.602	43.631	0.502
626.000	385.807	80.003	19.994	103.255	19.655	39.785	0.493
628.000	386.784	80.003	19.995	103.246	19.701	36.429	0.472
630.000	387.835	80.004	19.994	103.225	19.753	32.589	0.499
632.000	388.871	80.004	19.996	103.214	19.798	29.345	0.527
634.000	389.909	80.005	19.994	103.212	19.844	25.942	0.502
636.000	390.895	80.005	19.995	103.206	19.882	23.217	0.504
638.000	391.955	80.003	19.994	103.206	19.913	20.891	0.516
640.000	392.986	80.004	19.994	103.205	19.946	18.532	0.501
642.000	393.973	80.005	19.995	103.195	19.974	16.461	0.506
644.000	395.016	80.004	19.994	103.178	19.996	14.840	0.496
646.000	396.070	80.004	19.994	103.179	20.022	12.937	0.507
648.000	397.079	80.003	19.995	103.186	20.034	12.082	0.506
650.000	398.132	80.006	19.993	103.181	20.050	10.903	0.538
652.000	399.101	80.006	19.994	103.180	20.058	10.303	0.493
654.000	400.145	80.006	19.994	103.183	20.069	9.555	0.536
656.000	401.163	80.007	19.992	103.177	20.077	8.969	0.510
658.000	402.136	80.006	19.993	103.173	20.083	8.519	0.501
660.000	403.192	80.005	19.993	103.174	20.090	8.010	0.538
662.000	404.174	80.005	19.995	103.177	20.094	7.682	0.478
664.000	405.155	80.004	19.994	103.178	20.094	7.704	0.501
666.000	406.221	80.003	19.994	103.177	20.096	7.591	0.516
668.000	407.198	80.004	19.997	103.178	20.100	7.255	0.501
670.000	408.212	80.002	19.994	103.177	20.099	7.348	0.521
672.000	409.226	80.003	19.995	103.172	20.101	7.169	0.517
674.000	410.269	80.002	19.995	103.177	20.103	7.046	0.539
676.000	411.260	80.003	19.994	103.181	20.105	6.885	0.490
678.000	412.267	80.002	19.995	103.177	20.113	6.297	0.508
680.000	413.288	80.003	19.996	103.180	20.111	6.506	0.517
682.000	414.281	80.002	19.995	103.174	20.110	6.547	0.494
684.000	415.250	80.002	19.994	103.175	20.113	6.325	0.485
686.000	416.278	80.003	19.995	103.174	20.114	6.269	0.521
688.000	417.310	80.003	19.995	103.177	20.112	6.362	0.495
690.000	418.353	80.002	19.996	103.182	20.115	6.183	0.490
692.000	419.349	80.001	19.995	103.177	20.114	6.237	0.489
694.000	420.388	80.001	19.996	103.177	20.116	6.088	0.515
696.000	421.397	80.001	19.995	103.183	20.121	5.752	0.520
698.000	422.435	80.001	19.996	103.181	20.118	5.925	0.491
700.000	423.446	80.001	19.995	103.176	20.118	5.944	0.496
702.000	424.447	80.001	19.995	103.176	20.120	5.797	0.510
704.000	425.464	80.002	19.995	103.177	20.122	5.636	0.520
706.000	426.535	80.003	19.994	103.177	20.121	5.772	0.546
708.000	427.527	80.003	19.994	103.177	20.126	5.406	0.519
710.000	428.592	80.003	19.996	103.175	20.124	5.551	0.545
712.000	429.552	80.003	19.993	103.173	20.123	5.589	0.502
714.000	430.547	80.005	19.994	103.173	20.127	5.322	0.482
716.000	431.566	80.005	19.994	103.176	20.125	5.440	0.504
718.000	432.598	80.004	19.993	103.174	20.132	4.956	0.532
720.000	433.626	80.002	19.995	103.174	20.130	5.072	0.538
722.000	434.655	80.003	19.996	103.176	20.130	5.089	0.519
724.000	435.709	80.003	19.993	103.175	20.134	4.805	0.517
726.000	436.675	80.004	19.995	103.175	20.130	5.072	0.487
728.000	437.701	80.004	19.993	103.172	20.131	4.988	0.502
730.000	438.702	80.004	19.995	103.174	20.134	4.815	0.502
732.000	439.757	80.005	19.993	103.172	20.133	4.891	0.505
734.000	440.737	80.005	19.993	103.172	20.138	4.463	0.489
736.000	441.775	80.005	19.994	103.171	20.134	4.811	0.511
738.000	442.753	80.007	19.994	103.172	20.138	4.493	0.500
740.000	443.771	80.006	19.994	103.170	20.137	4.539	0.496
742.000	444.781	80.006	19.994	103.172	20.136	4.618	0.501
744.000	445.763	80.005	19.995	103.171	20.140	4.330	0.484
746.000	446.800	80.004	19.994	103.172	20.141	4.245	0.515
748.000	447.794	80.001	19.993	103.174	20.139	4.404	0.501
750.000	448.831	80.004	19.994	103.176	20.139	4.428	0.489
752.000	449.822	80.002	19.994	103.176	20.143	4.165	0.496
754.000	450.830	80.002	19.994	103.174	20.140	4.352	0.487
756.000	451.886	80.002	19.993	103.174	20.145	3.992	0.526
758.000	452.846	80.002	19.996	103.173	20.144	4.064	0.501
760.000	453.909	80.003	19.994	103.174	20.140	4.334	0.506
762.000	454.896	80.003	19.994	103.174	20.144	4.058	0.479
764.000	455.945	80.002	19.994	103.174	20.145	3.998	0.495
766.000	456.935	80.004	19.993	103.175	20.145	3.990	0.479
768.000	457.938	80.002	19.995	103.177	20.146	3.948	0.491
770.000	459.028	80.004	19.993	103.177	20.141	4.256	0.541
772.000	460.005	80.003	19.994	103.175	20.144	4.089	0.490
774.000	461.000	80.004	19.994	103.172	20.146	3.916	0.516
776.000	462.042	80.004	19.995	103.171	20.143	4.111	0.527
778.000	463.073	80.004	19.994	103.170	20.146	3.893	0.548
780.000	464.067	80.004	19.995	103.172	20.150	3.604	0.494
782.000	465.080	80.002	19.995	103.171	20.149	3.702	0.484
784.000	466.067	80.003	19.994	103.171	20.151	3.551	0.502
786.000	467.144	80.003	19.995	103.171	20.148	3.751	0.528
788.000	468.171	80.004	19.996	103.170	20.149	3.710	0.514
790.000	469.173	80.003	19.995	103.173	20.150	3.588	0.521
792.000	470.209	80.005	19.996	103.169	20.153	3.427	0.523
794.000	471.244	80.005	19.998	103.168	20.150	3.618	0.486
796.000	472.279	80.005	19.995	103.169	20.151	3.580	0.496
798.000	473.282	80.004	19.994	103.169	20.154	3.356	0.504
800.000	474.398	80.004	19.993	103.168	20.153	3.400	0.559
802.000	475.399	80.004	19.993	103.168	20.155	3.255	0.524
804.000	476.404	80.004	19.994	103.171	20.157	3.093	0.482
806.000	477.447	80.004	19.995	103.169	20.154	3.306	0.505
808.000	478.471	80.004	19.994	103.169	20.159	2.978	0.489
810.000	479.460	80.005	19.993	103.169	20.160	2.901	0.465
812.000	480.478	80.004	19.993	103.174	20.162	2.732	0.493
814.000	481.529	80.006	19.993	103.169	20.164	2.586	0.524
816.000	482.573	80.005	19.995	103.167	20.161	2.853	0.519
818.000	483.604	80.005	19.993	103.171	20.160	2.869	0.537
820.000	484.622	80.004	19.994	103.171	20.161	2.785	0.518
822.000	485.618	80.004	19.994	103.170	20.160	2.928	0.512
824.000	486.689	80.005	19.994	103.168	20.161	2.829	0.523
826.000	487.727	80.004	19.994	103.171	20.160	2.873	0.514
828.000	488.728	80.004	19.996	103.170	20.161	2.833	0.487
830.000	489.791	80.004	19.993	103.176	20.163	2.644	0.532
832.000	490.770	80.003	19.994	103.172	20.166	2.479	0.529
834.000	491.781	80.004	19.994	103.170	20.164	2.588	0.512
836.000	492.827	80.003	19.994	103.172	20.160	2.858	0.526
838.000	493.851	80.003	19.994	103.172	20.165	2.546	0.513
840.000	494.911	80.004	19.994	103.163	20.164	2.622	0.520
842.000	495.963	80.004	19.995	103.168	20.164	2.592	0.510
844.000	496.943	80.003	19.994	103.166	20.164	2.578	0.521
846.000	498.029	80.004	19.995	103.160	20.164	2.624	0.513
848.000	499.026	80.005	19.994	103.160	20.164	2.630	0.492
850.001	500.030	80.003	19.994	103.161	20.163	2.644	0.487
852.000	501.074	80.003	19.994	103.168	20.162	2.747	0.512
854.000	502.098	80.003	19.994	103.167	20.164	2.578	0.518
856.000	503.098	80.003	19.996	103.161	20.163	2.697	0.495
858.000	504.094	80.002	19.993	103.163	20.165	2.513	0.493
860.000	505.193	80.003	19.994	103.164	20.169	2.209	0.538
862.000	506.166	80.003	19.995	103.161	20.167	2.362	0.498
864.000	507.203	80.003	19.994	103.156	20.167	2.369	0.513
866.000	508.218	80.003	19.994	103.156	20.166	2.429	0.497
868.000	509.244	80.004	19.995	103.157	20.165	2.516	0.523
870.000	510.273	80.004	19.995	103.165	20.166	2.425	0.514
872.000	511.319	80.005	19.994	103.166	20.169	2.258	0.524
874.000	512.317	80.004	19.995	103.160	20.164	2.594	0.522
876.000	513.350	80.004	19.995	103.152	20.166	2.453	0.486
878.000	514.386	80.003	19.994	103.153	20.168	2.328	0.511
880.000	515.420	80.002	19.996	103.157	20.169	2.260	0.505
882.000	516.455	80.003	19.994	103.162	20.171	2.097	0.532
884.000	517.490	80.003	19.994	103.162	20.170	2.187	0.525
886.000	518.513	80.002	19.995	103.156	20.167	2.387	0.508
888.000	519.552	80.004	19.994	103.156	20.168	2.314	0.527
890.000	520.581	80.004	19.994	103.162	20.170	2.176	0.548
892.000	521.660	80.005	19.995	103.157	20.165	2.528	0.543
894.000	522.669	80.004	19.994	103.169	20.166	2.465	0.512
896.000	523.690	80.005	19.993	103.156	20.165	2.528	0.493
898.000	524.746	80.005	19.994	103.154	20.167	2.395	0.516
900.000	525.719	80.005	19.993	103.152	20.165	2.542	0.475
902.000	526.770	80.004	19.994	103.146	20.168	2.326	0.556
904.000	527.780	80.004	19.994	103.154	20.167	2.403	0.512
906.000	528.794	80.003	19.994	103.156	20.167	2.405	0.506
908.000	529.839	80.002	19.994	103.145	20.168	2.276	0.515
910.000	530.869	80.004	19.994	103.156	20.166	2.421	0.526
912.000	531.882	80.002	19.995	103.159	20.169	2.260	0.513
914.000	532.876	80.003	19.994	103.153	20.168	2.335	0.481
916.000	533.934	80.001	19.994	103.146	20.168	2.314	0.550
918.000	534.960	80.003	19.993	103.147	20.168	2.292	0.503
920.000	535.966	80.003	19.994	103.151	20.169	2.218	0.502
922.000	536.986	80.003	19.994	103.148	20.165	2.506	0.510
924.000	538.023	80.005	19.994	103.143	20.165	2.528	0.501
926.000	539.037	80.002	19.994	103.148	20.167	2.361	0.491
928.000	540.090	80.003	19.994	103.157	20.168	2.341	0.485
930.000	541.096	80.003	19.992	103.148	20.168	2.338	0.526
932.000	542.124	80.004	19.992	103.147	20.167	2.417	0.501
934.000	543.144	80.003	19.994	103.160	20.169	2.220	0.495
936.000	544.118	80.003	19.994	103.157	20.167	2.353	0.459
938.000	545.137	80.001	19.994	103.147	20.169	2.268	0.513
940.000	546.160	80.001	19.995	103.151	20.170	2.197	0.520
942.000	547.215	80.002	19.996	103.160	20.169	2.246	0.522
944.000	548.206	80.002	19.995	103.158	20.168	2.288	0.480
946.000	549.241	80.003	19.995	103.151	20.169	2.240	0.547
948.000	550.320	80.004	19.996	103.146	20.167	2.387	0.543
950.000	551.353	80.006	19.996	103.152	20.168	2.341	0.534
952.000	552.353	80.004	19.992	103.160	20.169	2.260	0.500
954.000	553.367	80.004	19.994	103.147	20.169	2.258	0.493
956.000	554.378	80.004	19.994	103.163	20.169	2.262	0.485
958.000	555.395	80.003	19.993	103.159	20.168	2.343	0.503
960.000	556.460	80.003	19.994	103.157	20.171	2.053	0.518
962.000	557.461	80.003	19.995	103.144	20.167	2.353	0.511
964.000	558.503	80.005	19.995	103.152	20.172	2.035	0.526
966.000	559.479	80.004	19.994	103.147	20.170	2.160	0.523
968.000	560.495	80.004	19.995	103.138	20.169	2.204	0.502
970.000	561.555	80.004	19.994	103.149	20.170	2.139	0.508
972.000	562.526	80.005	19.996	103.153	20.170	2.196	0.517
974.000	563.544	80.005	19.996	103.149	20.169	2.264	0.486
976.000	564.559	80.005	19.995	103.138	20.170	2.158	0.527
978.000	565.587	80.006	19.994	103.149	20.168	2.282	0.482
980.000	566.574	80.004	19.995	103.151	20.169	2.220	0.478
982.000	567.590	80.005	19.994	103.136	20.169	2.216	0.499
984.000	568.607	80.004	19.994	103.144	20.167	2.369	0.496
986.000	569.659	80.005	19.994	103.140	20.169	2.208	0.523
988.000	570.682	80.003	19.995	103.141	20.170	2.143	0.526
990.000	571.633	80.005	19.994	103.138	20.170	2.178	0.498
992.000	572.726	80.002	19.994	103.144	20.171	2.089	0.512
994.000	573.721	80.003	19.994	103.146	20.171	2.097	0.497
996.000	574.826	80.004	19.994	103.137	20.170	2.196	0.547
998.000	575.804	80.002	19.994	103.144	20.170	2.168	0.519
1000.000	576.859	80.003	19.993	103.145	20.171	2.103	0.538
1002.000	577.881	80.003	19.994	103.142	20.176	1.749	0.501
1004.000	578.870	80.003	19.995	103.142	20.173	1.948	0.480
1006.000	579.898	80.003	19.994	103.142	20.173	1.962	0.479
1008.000	580.922	80.003	19.997	103.144	20.173	1.912	0.491
1010.000	581.907	80.003	19.994	103.143	20.172	2.023	0.467
1012.000	582.992	80.003	19.994	103.142	20.170	2.140	0.453
1014.000	583.989	80.004	19.993	103.139	20.167	2.347	0.539
1016.000	585.002	80.003	19.994	103.135	20.169	2.202	0.489
1018.000	585.983	80.003	19.994	103.138	20.166	2.449	0.503
1020.000	586.958	80.002	19.994	103.144	20.175	1.803	0.502
1022.000	587.860	80.003	19.993	103.140	20.177	1.648	0.465
1024.000	588.885	80.002	19.994	103.145	20.168	2.288	0.524
1026.001	590.065	80.005	19.994	103.149	20.168	2.315	0.497
1028.000	590.887	80.005	19.994	103.141	20.169	2.236	0.411
1030.001	591.689	80.005	19.994	103.143	20.170	2.136	0.328
1032.000	592.613	80.006	19.994	103.138	20.169	2.208	0.516
1034.000	594.734	80.007	19.996	103.138	20.172	2.005	0.761
1036.000	595.081	80.003	19.995	103.147	20.171	2.117	-0.031
1038.000	595.969	80.004	19.995	103.138	20.170	2.192	0.429
1040.000	597.214	80.005	19.994	103.140	20.172	2.045	0.478
1042.000	598.077	80.003	19.995	103.135	20.167	2.369	0.445
1044.000	599.176	80.003	19.994	103.142	20.166	2.464	0.511
1046.000	600.328	80.004	19.996	103.136	20.172	1.987	0.537
1048.000	601.356	80.004	19.995	103.143	20.170	2.140	0.592
1050.000	602.413	80.005	19.993	103.141	20.169	2.208	0.470
1052.000	603.425	80.006	19.994	103.137	20.172	2.015	0.499
1054.000	604.444	80.006	19.994	103.133	20.169	2.256	0.536
1056.000	605.472	80.006	19.994	103.131	20.170	2.178	0.493
1058.000	606.488	80.006	19.994	103.130	20.171	2.113	0.512
1060.000	607.584	80.004	19.995	103.135	20.169	2.256	0.544
1062.001	608.581	80.004	19.995	103.134	20.170	2.154	0.521
1064.000	609.601	80.002	19.996	103.135	20.169	2.236	0.522
1066.000	610.631	80.002	19.996	103.136	20.171	2.093	0.519
1068.000	611.663	80.002	19.995	103.140	20.172	2.045	0.511
1070.000	612.728	80.002	19.995	103.139	20.172	1.997	0.526
1072.000	613.709	80.004	19.994	103.136	20.173	1.910	0.507
1074.001	614.724	80.003	19.994	103.136	20.174	1.876	0.527
1076.000	615.799	80.004	19.994	103.135	20.172	2.051	0.526
1078.000	616.770	80.001	19.994	103.135	20.172	2.031	0.504
1080.001	617.799	80.003	19.994	103.135	20.169	2.206	0.513
1082.000	618.869	80.003	19.992	103.135	20.170	2.184	0.527
1084.001	619.877	80.002	19.993	103.146	20.167	2.405	0.536
1086.000	620.926	80.003	19.993	103.140	20.167	2.353	0.541
1088.001	621.947	80.003	19.994	103.139	20.172	1.982	0.505
1090.000	622.981	80.004	19.995	103.136	20.167	2.393	0.513
1092.001	624.028	80.003	19.994	103.139	20.169	2.256	0.504
1094.000	625.083	80.003	19.994	103.148	20.171	2.109	0.514
1096.001	626.101	80.004	19.994	103.133	20.168	2.329	0.530
1098.000	627.160	80.003	19.994	103.139	20.170	2.154	0.513
1100.000	628.267	80.003	19.994	103.136	20.171	2.119	0.558
1102.000	629.306	80.005	19.994	103.134	20.172	2.009	0.549
1104.000	630.317	80.005	19.994	103.135	20.171	2.097	0.526
1106.000	631.391	80.004	19.994	103.139	20.168	2.283	0.524
1108.000	632.406	80.006	19.994	103.133	20.171	2.120	0.517
1110.000	633.477	80.007	19.994	103.136	20.172	2.039	0.490
1112.000	634.603	80.006	19.994	103.133	20.171	2.122	0.547
1114.000	635.631	80.005	19.995	103.133	20.173	1.961	0.520
1116.000	636.684	80.005	19.994	103.133	20.168	2.343	0.506
1118.000	637.737	80.006	19.995	103.133	20.169	2.210	0.509
1120.001	638.706	80.004	19.994	103.133	20.169	2.214	0.469
1122.001	639.761	80.003	19.995	103.133	20.170	2.192	0.513
1124.001	640.807	80.003	19.994	103.134	20.170	2.138	0.521
1126.000	641.874	80.005	19.995	103.133	20.172	2.045	0.554
1128.000	642.883	80.004	19.995	103.136	20.169	2.242	0.514
1130.000	643.885	80.004	19.995	103.137	20.169	2.220	0.471
1132.001	644.892	80.007	19.994	103.136	20.169	2.198	0.521
1134.000	645.894	80.005	19.994	103.134	20.169	2.236	0.485
1136.000	646.973	80.006	19.994	103.134	20.167	2.361	0.518
1138.000	647.981	80.005	19.994	103.133	20.170	2.138	0.516
1140.000	649.057	80.007	19.995	103.134	20.172	2.041	0.533
1142.000	650.075	80.004	19.994	103.133	20.166	2.450	0.533
1144.000	651.067	80.002	19.995	103.135	20.168	2.313	0.505
1146.000	652.095	80.002	19.995	103.135	20.171	2.112	0.499
1148.000	653.113	80.001	19.994	103.135	20.168	2.335	0.520
1150.000	654.113	80.002	19.994	103.136	20.163	2.645	0.489
1152.000	655.116	80.003	19.995	103.135	20.162	2.729	0.505
1154.000	656.115	80.002	19.996	103.134	20.159	2.951	0.484
1156.001	657.101	80.003	19.995	103.133	20.163	2.645	0.484
1158.001	658.099	80.003	19.995	103.130	20.162	2.750	0.474
1160.000	659.104	80.003	19.995	103.130	20.164	2.611	0.510
1162.001	660.031	80.003	19.994	103.130	20.163	2.697	0.451
1164.000	660.968	80.005	19.994	103.130	20.165	2.494	0.493
1166.000	661.932	80.002	19.994	103.131	20.164	2.629	0.467
1168.000	662.781	80.003	19.993	103.129	20.161	2.834	0.101
1170.000	663.899	80.003	19.993	103.132	20.162	2.760	0.514
1172.001	664.895	80.004	19.994	103.130	20.162	2.717	0.480
1174.000	665.853	80.003	19.994	103.127	20.165	2.530	0.433
1176.000	666.809	80.004	19.994	103.125	20.163	2.657	0.501
1178.000	667.845	80.003	19.993	103.132	20.163	2.671	0.495
1180.000	668.768	80.002	19.994	103.131	20.162	2.780	0.466
1182.000	669.802	80.005	19.994	103.132	20.162	2.709	0.478
1184.001	670.822	80.004	19.994	103.132	20.162	2.735	0.518
1186.000	671.842	80.005	19.994	103.130	20.161	2.838	0.506
1188.000	672.884	80.005	19.995	103.133	20.164	2.619	0.518
1190.000	673.954	80.005	19.994	103.132	20.166	2.464	0.538
1192.001	674.968	80.005	19.995	103.133	20.165	2.532	0.505
1194.000	676.121	80.006	19.994	103.134	20.164	2.578	0.549
1196.000	677.123	80.005	19.993	103.134	20.162	2.772	0.502
1198.000	678.137	80.005	19.994	103.135	20.161	2.830	0.522
1200.001	679.165	80.004	19.994	103.131	20.159	2.967	0.522
1202.001	680.206	80.022	19.997	103.130	20.160	2.882	0.530
1204.000	681.086	80.019	19.995	103.153	20.160	2.908	0.468
1206.000	682.628	80.006	19.995	103.136	20.161	2.806	0.507
1208.001	683.419	80.004	19.994	103.135	20.163	2.693	0.604
1210.000	684.478	80.006	19.995	103.136	20.163	2.657	0.531
1212.000	685.520	80.006	19.994	103.138	20.165	2.536	0.531
1214.001	686.596	80.004	19.995	103.135	20.166	2.464	0.548
1216.000	687.719	80.005	19.995	103.132	20.163	2.673	0.572
1218.000	688.797	80.005	19.995	103.133	20.162	2.711	0.553
1220.000	689.869	80.005	19.995	103.135	20.164	2.566	0.548
1222.000	690.987	80.005	19.995	103.133	20.163	2.647	0.523
1224.000	692.085	80.003	19.994	103.130	20.163	2.703	0.544
1226.000	693.287	80.001	19.995	103.130	20.163	2.679	0.673
1228.000	694.349	80.002	19.993	103.130	20.164	2.631	0.591
1230.000	695.427	80.003	19.993	103.132	20.163	2.689	0.581
1232.000	696.516	80.003	19.994	103.129	20.164	2.635	0.528
1234.000	697.600	80.003	19.995	103.132	20.167	2.387	0.530
1236.000	698.719	80.003	19.994	103.131	20.163	2.689	0.529
1238.000	699.799	80.004	19.994	103.131	20.161	2.854	0.535
1240.000	700.876	80.002	19.994	103.130	20.164	2.615	0.527
1242.000	701.972	80.003	19.995	103.128	20.162	2.780	0.556
1244.000	703.052	80.003	19.995	103.128	20.163	2.689	0.565
1246.000	704.128	80.003	19.995	103.128	20.162	2.766	0.565
1248.000	705.224	80.002	19.994	103.129	20.162	2.770	0.537
1250.000	706.299	80.003	19.995	103.129	20.162	2.768	0.549
1252.000	707.313	80.002	19.994	103.130	20.163	2.705	0.517
1254.000	708.382	80.003	19.994	103.125	20.162	2.722	0.538
1256.000	709.403	80.002	19.994	103.130	20.162	2.720	0.508
1258.001	710.475	80.003	19.993	103.129	20.162	2.768	0.533
1260.000	711.531	80.004	19.994	103.125	20.163	2.706	0.539
1262.000	712.533	80.004	19.993	103.133	20.162	2.774	0.522
1264.000	713.607	80.004	19.994	103.131	20.164	2.599	0.532
1266.001	714.624	80.004	19.994	103.119	20.165	2.554	0.535
1268.000	715.654	80.006	19.994	103.118	20.162	2.770	0.508
1270.000	716.719	80.005	19.993	103.118	20.160	2.915	0.515
1272.000	717.732	80.005	19.994	103.121	20.159	2.991	0.544
1274.000	718.741	80.004	19.994	103.116	20.160	2.868	0.502
1276.000	719.741	80.003	19.994	103.121	20.162	2.713	0.491
1278.000	720.772	80.004	19.993	103.127	20.164	2.589	0.519
1280.000	721.795	80.004	19.994	103.125	20.165	2.559	0.517
1282.000	722.732	80.004	19.993	103.122	20.163	2.675	0.467
1284.000	723.707	80.003	19.994	103.124	20.164	2.593	0.519
1286.000	724.698	80.005	19.993	103.129	20.165	2.554	0.498
1288.000	725.659	80.005	19.994	103.119	20.166	2.432	0.475
1290.000	726.590	80.006	19.993	103.113	20.164	2.595	0.459
1292.001	727.577	80.006	19.994	103.120	20.162	2.722	0.484
1294.001	728.533	80.006	19.993	103.124	20.166	2.476	0.478
1296.000	729.453	80.006	19.994	103.125	20.165	2.551	0.481
1298.000	730.379	80.005	19.994	103.121	20.165	2.534	0.481
1300.001	731.268	80.005	19.994	103.120	20.164	2.571	0.460
1302.000	732.167	80.004	19.995	103.124	20.166	2.482	0.437
1304.000	733.031	80.002	19.993	103.108	20.161	2.790	0.418
1306.000	733.992	80.004	19.995	103.109	20.161	2.846	0.420
1308.001	734.893	80.002	19.997	103.127	20.161	2.814	0.446
1310.001	735.807	80.003	19.994	103.123	20.164	2.565	0.455
1312.001	736.704	80.003	19.995	103.109	20.161	2.828	0.418
1314.000	737.614	80.002	19.995	103.126	20.159	2.935	0.464
1316.000	738.560	80.003	19.995	103.129	20.164	2.564	0.485
1318.000	739.542	80.004	19.995	103.121	20.160	2.883	0.464
1320.000	740.492	80.005	19.995	103.116	20.162	2.764	0.488
1322.000	741.497	80.003	19.994	103.133	20.158	3.021	0.514
1324.000	742.470	80.003	19.994	103.129	20.164	2.631	0.505
1325.500	743.297	80.002	19.994	103.129	20.158	3.041	0.548