File: 01_Data/Bravo_OSB/MCC/Bravo_OSB_MCC_30K_min_211207_R1.txt
Sample ID:	C:\MCC\MCC Cal\Test\Bravo_OSB_MCC_30K_min_211207_R1.txt
Sample Weight (mg):	4.53
Heating Rate (C/s):	0.5
Combustor Temp (C):	900
N2 Flow Rate (cc/min):	80
O2 Flow Rate (cc/min):	20
Calibration File:	C:\MCC\MCC Cal\Coeff1 JN10440_30_210304.txt.txt
T Correction Coefficients:	0	1.024463	0
Time Shift (s):	14
*
Time (s)	Temperature (C)	N2 flow rate (cc/min)	O2 flow rate (cc/min)	Flow Rate (cc/min)	Oxygen (%)	HRR (W/g)	Heating rate (C/s)
-0.001	108.517	80.015	19.997	103.072	19.951	0.122	0.049
1.999	108.467	80.014	19.997	103.080	19.954	-0.073	-0.027
3.999	108.524	80.014	19.995	103.077	19.949	0.228	0.026
5.999	108.514	80.007	19.994	103.089	19.957	-0.325	-0.005
7.999	108.519	80.009	19.995	103.086	19.951	0.089	0.018
9.999	108.516	80.010	19.993	103.095	19.951	0.083	0.015
11.999	108.528	80.009	19.994	103.101	19.948	0.327	0.004
13.999	108.560	80.007	19.993	103.113	19.946	0.457	0.018
15.999	108.561	80.016	19.993	103.140	19.944	0.620	0.024
17.999	108.609	80.009	19.994	103.161	19.937	1.075	-0.001
19.999	108.700	80.009	19.995	103.182	19.934	1.324	0.024
21.999	108.838	80.010	19.993	103.212	19.928	1.722	0.079
23.999	108.934	80.005	19.994	103.240	19.924	2.014	0.066
26.000	109.093	80.008	19.995	103.248	19.923	2.077	0.070
27.999	109.277	80.013	19.994	103.231	19.924	2.019	0.103
30.000	109.469	80.007	19.994	103.234	19.925	1.967	0.102
31.999	109.709	80.006	19.994	103.227	19.931	1.568	0.153
33.999	109.940	80.008	19.994	103.252	19.921	2.219	0.095
35.999	110.158	80.007	19.995	103.258	19.913	2.848	0.119
37.999	110.475	80.009	19.995	103.283	19.914	2.752	0.123
39.999	110.809	80.007	19.995	103.286	19.917	2.568	0.162
41.999	111.218	80.009	19.994	103.293	19.913	2.828	0.190
43.999	111.545	80.008	19.995	103.293	19.910	3.030	0.175
45.999	111.946	80.011	19.996	103.293	19.908	3.156	0.214
47.999	112.380	80.009	19.996	103.301	19.911	2.951	0.222
49.999	112.810	80.003	19.994	103.328	19.909	3.111	0.220
51.999	113.277	80.008	19.995	103.328	19.907	3.272	0.229
53.999	113.783	80.008	19.995	103.329	19.909	3.107	0.249
55.999	114.303	80.007	19.994	103.335	19.905	3.377	0.244
57.999	114.851	80.011	19.996	103.341	19.905	3.410	0.245
60.000	115.411	80.008	19.995	103.336	19.903	3.559	0.275
61.999	116.048	80.006	19.995	103.331	19.904	3.476	0.317
64.000	116.708	80.007	19.995	103.331	19.903	3.556	0.357
65.999	117.327	80.005	19.997	103.335	19.907	3.239	0.364
67.999	117.997	80.007	19.996	103.334	19.901	3.642	0.314
69.999	118.722	80.007	19.996	103.335	19.902	3.573	0.385
72.000	119.379	80.008	19.996	103.335	19.901	3.699	0.337
73.999	120.065	80.007	19.997	103.349	19.903	3.503	0.333
75.999	120.817	80.006	19.995	103.347	19.900	3.730	0.376
77.999	121.586	80.009	19.994	103.343	19.901	3.676	0.352
79.999	122.395	80.010	19.994	103.336	19.902	3.612	0.403
81.999	123.119	80.008	19.995	103.338	19.907	3.253	0.361
83.999	123.911	80.009	19.994	103.338	19.905	3.408	0.379
85.999	124.713	80.008	19.994	103.344	19.908	3.183	0.417
88.000	125.536	80.008	19.994	103.342	19.907	3.218	0.413
89.999	126.363	80.008	19.993	103.346	19.905	3.398	0.420
91.999	127.174	80.006	19.994	103.343	19.907	3.253	0.421
93.999	128.021	80.007	19.996	103.336	19.907	3.227	0.384
95.999	128.863	80.008	19.995	103.334	19.906	3.344	0.430
97.999	129.743	80.008	19.993	103.338	19.906	3.352	0.453
99.999	130.592	80.009	19.993	103.335	19.905	3.359	0.437
101.999	131.471	80.009	19.995	103.343	19.906	3.299	0.431
103.999	132.327	80.009	19.994	103.336	19.904	3.482	0.410
105.999	133.230	80.009	19.995	103.332	19.900	3.745	0.472
108.000	134.077	80.009	19.994	103.343	19.904	3.474	0.430
109.999	135.008	80.013	19.994	103.333	19.902	3.569	0.473
111.999	135.892	80.009	19.994	103.332	19.904	3.452	0.443
113.999	136.786	80.009	19.994	103.331	19.903	3.532	0.438
115.999	137.708	80.008	19.995	103.337	19.901	3.642	0.447
117.999	138.603	80.006	19.995	103.332	19.905	3.355	0.446
119.999	139.561	80.008	19.996	103.339	19.903	3.555	0.479
121.999	140.498	80.005	19.996	103.339	19.903	3.499	0.479
123.999	141.454	80.008	19.994	103.335	19.904	3.454	0.501
126.000	142.399	80.007	19.995	103.339	19.906	3.319	0.488
127.999	143.337	80.006	19.996	103.328	19.905	3.353	0.519
129.999	144.275	80.008	19.995	103.330	19.905	3.412	0.474
132.000	145.274	80.008	19.995	103.341	19.911	2.933	0.526
133.999	146.208	80.007	19.995	103.331	19.904	3.449	0.469
135.999	147.159	80.001	19.997	103.339	19.904	3.482	0.448
138.000	148.163	80.006	19.997	103.330	19.905	3.354	0.505
139.999	149.129	80.008	19.995	103.331	19.908	3.185	0.494
142.000	150.108	80.009	19.994	103.333	19.906	3.348	0.498
143.999	151.107	80.006	19.995	103.333	19.909	3.115	0.515
145.999	152.025	80.007	19.995	103.335	19.907	3.239	0.487
147.999	153.022	80.005	19.994	103.333	19.904	3.466	0.513
149.999	153.946	80.008	19.995	103.332	19.908	3.177	0.478
151.999	154.951	80.007	19.996	103.330	19.912	2.888	0.496
153.999	155.900	80.007	19.995	103.332	19.909	3.115	0.484
155.999	156.872	80.006	19.996	103.333	19.907	3.218	0.502
157.999	157.873	80.006	19.994	103.333	19.904	3.477	0.505
160.000	158.887	80.004	19.996	103.333	19.905	3.357	0.501
161.999	159.873	80.006	19.995	103.330	19.910	3.034	0.481
164.000	160.873	80.007	19.994	103.332	19.907	3.239	0.505
165.999	161.886	80.006	19.996	103.332	19.912	2.923	0.516
167.999	162.840	80.007	19.994	103.327	19.907	3.233	0.492
169.999	163.860	80.006	19.995	103.330	19.908	3.140	0.487
172.000	164.845	80.007	19.993	103.330	19.912	2.919	0.548
174.000	165.853	80.006	19.995	103.329	19.911	2.948	0.484
175.999	166.866	80.007	19.995	103.329	19.908	3.177	0.500
177.999	167.899	80.008	19.995	103.328	19.909	3.111	0.539
179.999	168.891	80.006	19.994	103.314	19.908	3.200	0.512
181.999	169.924	80.009	19.994	103.324	19.913	2.791	0.500
183.999	170.903	80.007	19.995	103.322	19.911	2.995	0.496
185.999	171.894	80.009	19.994	103.329	19.910	3.039	0.477
187.999	172.912	80.006	19.995	103.321	19.914	2.758	0.535
190.000	173.937	80.015	19.993	103.310	19.911	2.991	0.517
191.999	174.916	80.008	19.995	103.315	19.915	2.669	0.497
194.000	175.926	80.007	19.994	103.320	19.910	3.022	0.499
195.999	176.941	80.007	19.994	103.318	19.915	2.675	0.492
197.999	177.910	80.007	19.994	103.318	19.916	2.611	0.487
199.999	178.938	80.008	19.994	103.326	19.914	2.723	0.485
201.999	179.930	80.006	19.995	103.324	19.914	2.759	0.488
203.999	180.949	80.008	19.994	103.319	19.914	2.735	0.510
206.000	181.928	80.007	19.995	103.315	19.913	2.854	0.505
207.999	182.932	80.005	19.995	103.317	19.912	2.890	0.456
209.999	183.910	80.008	19.994	103.316	19.912	2.870	0.479
211.999	184.923	80.004	19.995	103.312	19.909	3.072	0.498
213.999	185.925	80.007	19.995	103.260	19.906	3.287	0.504
216.000	186.961	80.009	19.993	103.351	19.909	3.112	0.540
217.999	187.925	80.003	19.995	103.341	19.912	2.924	0.489
219.999	188.918	80.005	19.995	103.306	19.911	2.961	0.471
221.999	189.929	80.008	19.996	103.316	19.910	2.996	0.520
223.999	190.869	80.006	19.995	103.318	19.908	3.153	0.445
225.999	191.889	80.006	19.994	103.304	19.911	2.986	0.512
228.000	192.879	80.006	19.991	103.307	19.916	2.624	0.506
229.999	193.879	80.006	19.995	103.308	19.914	2.748	0.514
231.999	194.840	80.010	19.994	103.303	19.918	2.436	0.493
234.000	195.861	80.004	19.996	103.302	19.915	2.668	0.554
235.999	196.807	80.003	19.995	103.300	19.914	2.779	0.453
237.999	197.837	80.010	19.994	103.296	19.912	2.860	0.479
239.999	198.798	80.015	19.994	103.294	19.911	2.969	0.466
242.000	199.812	80.009	19.995	103.297	19.912	2.889	0.507
243.999	200.807	80.004	19.995	103.293	19.913	2.835	0.460
246.000	201.792	80.006	19.995	103.303	19.910	3.056	0.466
248.000	202.798	80.008	19.994	103.294	19.908	3.176	0.462
249.999	203.797	80.003	19.996	103.296	19.910	3.021	0.481
251.999	204.698	80.008	19.995	103.305	19.909	3.110	0.492
253.999	205.831	80.008	19.994	103.296	19.907	3.253	0.560
255.999	206.685	80.005	19.995	103.301	19.906	3.327	0.437
258.000	207.723	80.006	19.995	103.307	19.902	3.587	0.439
259.999	208.917	80.006	19.995	103.297	19.902	3.612	0.545
261.999	209.612	80.008	19.996	103.294	19.898	3.895	0.331
264.000	210.858	80.010	19.995	103.291	19.900	3.711	0.566
265.999	211.702	80.009	19.994	103.291	19.901	3.668	0.559
267.999	212.641	80.010	19.993	103.295	19.900	3.757	0.496
269.999	213.634	80.010	19.994	103.295	19.904	3.432	0.477
272.000	214.601	80.008	19.994	103.302	19.901	3.692	0.496
273.999	215.577	80.008	19.994	103.299	19.902	3.622	0.472
276.000	216.568	80.007	19.995	103.295	19.895	4.116	0.519
278.000	217.564	80.005	19.995	103.302	19.894	4.168	0.520
279.999	218.578	80.009	19.989	103.296	19.894	4.147	0.489
281.999	219.583	80.003	19.987	103.305	19.894	4.157	0.521
283.999	220.602	80.006	19.993	103.315	19.890	4.432	0.520
285.999	221.548	80.007	19.995	103.302	19.891	4.378	0.463
287.999	222.532	80.006	19.995	103.299	19.888	4.622	0.498
289.999	223.528	80.005	19.994	103.299	19.892	4.343	0.521
291.999	224.550	80.005	19.994	103.298	19.890	4.452	0.536
294.000	225.526	80.005	19.994	103.302	19.888	4.602	0.511
295.999	226.524	80.006	19.995	103.305	19.883	4.970	0.478
297.999	227.514	80.007	19.993	103.305	19.881	5.098	0.478
299.999	228.536	80.006	19.995	103.305	19.883	4.963	0.517
301.999	229.534	80.007	19.994	103.307	19.881	5.106	0.476
303.999	230.600	80.007	19.992	103.303	19.879	5.265	0.536
305.999	231.548	80.013	19.992	103.306	19.877	5.370	0.472
307.999	232.593	80.006	19.994	103.295	19.871	5.824	0.525
309.999	233.566	80.011	19.993	103.303	19.872	5.734	0.470
312.000	234.556	80.005	19.996	103.307	19.875	5.504	0.483
313.999	235.534	80.008	19.994	103.305	19.874	5.601	0.498
315.999	236.512	80.003	19.993	103.303	19.867	6.087	0.518
318.000	237.489	80.006	19.994	103.314	19.864	6.331	0.503
319.999	238.527	80.006	19.995	103.305	19.859	6.638	0.510
321.999	239.477	80.007	19.995	103.315	19.859	6.627	0.490
323.999	240.480	80.006	19.994	103.308	19.861	6.549	0.509
326.000	241.468	80.010	19.995	103.313	19.856	6.857	0.484
328.000	242.524	80.006	19.995	103.308	19.857	6.783	0.514
329.999	243.529	80.007	19.995	103.301	19.847	7.496	0.473
331.999	244.485	80.009	19.995	103.315	19.853	7.054	0.483
333.999	245.458	80.004	19.995	103.322	19.849	7.364	0.451
336.000	246.510	80.009	19.995	103.312	19.840	7.987	0.501
337.999	247.495	80.009	19.992	103.316	19.841	7.931	0.510
339.999	248.482	80.006	19.993	103.312	19.836	8.284	0.500
341.999	249.484	80.007	19.994	103.308	19.836	8.276	0.528
344.000	250.514	80.007	19.994	103.306	19.831	8.686	0.537
346.000	251.532	80.007	19.994	103.311	19.822	9.264	0.533
348.000	252.464	80.010	19.996	103.327	19.817	9.642	0.473
350.000	253.482	80.010	19.995	103.323	19.815	9.759	0.466
351.999	254.477	80.008	19.996	103.324	19.809	10.208	0.489
354.000	255.535	80.007	19.995	103.323	19.809	10.252	0.482
355.999	256.515	80.007	19.996	103.328	19.805	10.535	0.512
357.999	257.507	80.004	19.994	103.332	19.800	10.871	0.489
360.000	258.501	80.006	19.997	103.329	19.790	11.559	0.464
361.999	259.485	80.006	19.996	103.328	19.789	11.665	0.515
363.999	260.521	80.006	19.994	103.332	19.778	12.413	0.499
365.999	261.477	80.008	19.994	103.334	19.773	12.747	0.501
367.999	262.546	80.007	19.995	103.333	19.769	13.083	0.530
370.000	263.517	80.007	19.995	103.330	19.762	13.553	0.516
371.999	264.505	80.006	19.996	103.332	19.759	13.783	0.483
373.999	265.506	80.004	19.996	103.328	19.749	14.525	0.453
375.999	266.483	80.008	19.993	103.332	19.743	14.904	0.481
377.999	267.554	80.008	19.994	103.331	19.738	15.274	0.530
380.000	268.497	80.008	19.995	103.338	19.733	15.629	0.465
381.999	269.540	80.006	19.994	103.338	19.723	16.376	0.513
384.000	270.580	80.009	19.993	103.344	19.715	16.919	0.512
385.999	271.621	80.007	19.995	103.358	19.709	17.339	0.525
387.999	272.636	80.007	19.994	103.354	19.702	17.869	0.522
389.999	273.613	80.008	19.997	103.353	19.696	18.235	0.516
392.000	274.565	80.005	19.995	103.358	19.687	18.908	0.494
394.000	275.632	80.006	19.994	103.358	19.677	19.643	0.524
396.000	276.620	80.008	19.995	103.364	19.672	19.973	0.513
397.999	277.590	80.007	19.994	103.370	19.665	20.458	0.476
399.999	278.590	80.006	19.993	103.364	19.660	20.838	0.471
401.999	279.580	80.008	19.994	103.365	19.651	21.507	0.487
403.999	280.591	80.008	19.995	103.366	19.645	21.866	0.515
405.999	281.584	80.010	19.995	103.368	19.638	22.411	0.475
408.000	282.574	80.008	19.995	103.371	19.635	22.642	0.510
409.999	283.581	80.008	19.994	103.370	19.626	23.234	0.534
411.999	284.570	80.007	19.996	103.371	19.618	23.798	0.508
413.999	285.548	80.006	19.994	103.368	19.614	24.079	0.469
415.999	286.574	80.005	19.994	103.370	19.606	24.663	0.539
417.999	287.560	80.014	19.996	103.371	19.605	24.764	0.504
419.999	288.593	80.007	19.995	103.374	19.599	25.153	0.498
421.999	289.573	80.007	19.996	103.373	19.587	26.018	0.482
423.999	290.581	80.007	19.995	103.377	19.584	26.262	0.520
426.000	291.597	80.008	19.995	103.381	19.580	26.557	0.531
428.000	292.643	80.009	19.994	103.380	19.576	26.793	0.549
430.000	293.639	80.008	19.994	103.373	19.570	27.249	0.512
431.999	294.622	80.008	19.995	103.373	19.565	27.628	0.492
434.000	295.609	80.010	19.995	103.370	19.558	28.090	0.481
435.999	296.604	80.011	19.994	103.369	19.551	28.609	0.489
438.000	297.601	80.008	19.994	103.378	19.545	28.999	0.499
439.999	298.637	80.006	19.995	103.371	19.542	29.214	0.504
441.999	299.644	80.007	19.995	103.383	19.545	29.051	0.513
444.000	300.599	80.008	19.995	103.381	19.538	29.487	0.483
445.999	301.606	80.002	19.993	103.375	19.528	30.205	0.502
448.000	302.614	80.007	19.993	103.377	19.526	30.404	0.478
449.999	303.645	80.000	19.994	103.389	19.522	30.672	0.508
452.000	304.585	80.007	19.995	103.392	19.512	31.391	0.476
453.999	305.581	80.005	19.995	103.386	19.506	31.797	0.500
456.000	306.658	80.008	19.994	103.374	19.504	31.982	0.560
457.999	307.644	80.009	19.993	103.391	19.500	32.225	0.508
459.999	308.596	80.007	19.994	103.386	19.493	32.757	0.498
461.999	309.573	80.007	19.996	103.404	19.485	33.339	0.503
463.999	310.594	80.007	19.994	103.399	19.480	33.649	0.513
465.999	311.578	80.008	19.995	103.404	19.477	33.843	0.486
467.999	312.638	80.007	19.995	103.410	19.471	34.274	0.532
469.999	313.562	80.005	19.994	103.411	19.467	34.620	0.466
471.999	314.606	80.007	19.994	103.411	19.465	34.721	0.515
473.999	315.628	80.009	19.993	103.409	19.457	35.298	0.508
475.999	316.604	80.007	19.995	103.409	19.449	35.867	0.498
477.999	317.617	80.005	19.995	103.414	19.440	36.516	0.498
479.999	318.629	80.005	19.995	103.414	19.434	36.944	0.488
481.999	319.610	80.004	19.994	103.415	19.428	37.367	0.484
483.999	320.640	80.006	19.996	103.419	19.419	38.036	0.512
485.999	321.660	80.011	19.995	103.420	19.411	38.558	0.482
487.999	322.679	80.008	19.992	103.421	19.402	39.217	0.516
490.000	323.673	80.010	19.995	103.421	19.394	39.784	0.478
492.000	324.623	80.008	19.999	103.426	19.384	40.486	0.487
493.999	325.607	80.009	19.993	103.426	19.377	40.991	0.485
496.000	326.663	80.007	19.993	103.436	19.368	41.666	0.519
497.999	327.673	80.008	19.993	103.427	19.358	42.375	0.513
499.999	328.651	80.005	19.995	103.446	19.348	43.113	0.470
501.999	329.665	80.010	19.992	103.440	19.336	43.944	0.491
503.999	330.665	80.010	19.994	103.443	19.325	44.693	0.516
506.000	331.656	80.007	19.994	103.448	19.320	45.116	0.492
507.999	332.690	80.009	19.995	103.447	19.306	46.056	0.516
509.999	333.706	80.009	19.995	103.452	19.295	46.885	0.524
511.999	334.677	80.009	19.995	103.456	19.282	47.787	0.504
513.999	335.684	80.008	19.995	103.474	19.267	48.888	0.507
515.999	336.670	80.010	19.993	103.478	19.252	49.974	0.510
517.999	337.654	80.008	19.994	103.480	19.237	51.047	0.489
520.000	338.706	80.008	19.994	103.485	19.218	52.360	0.525
521.999	339.661	80.008	19.995	103.491	19.208	53.078	0.486
523.999	340.688	80.008	19.994	103.504	19.191	54.273	0.475
525.999	341.714	80.006	19.993	103.511	19.176	55.361	0.513
527.999	342.664	80.006	19.995	103.517	19.158	56.698	0.486
529.999	343.654	80.006	19.995	103.528	19.141	57.914	0.475
532.000	344.666	80.006	19.995	103.536	19.123	59.141	0.500
533.999	345.683	80.004	19.994	103.531	19.107	60.296	0.521
535.999	346.722	80.004	19.995	103.540	19.085	61.897	0.547
537.999	347.694	80.005	19.997	103.550	19.070	62.979	0.471
539.999	348.714	80.005	19.997	103.563	19.055	64.058	0.517
541.999	349.728	80.006	19.995	103.564	19.030	65.801	0.498
543.999	350.727	80.007	19.996	103.560	19.012	67.086	0.492
546.000	351.710	80.007	19.996	103.563	18.992	68.541	0.492
547.999	352.751	80.006	19.994	103.573	18.981	69.330	0.481
550.000	353.758	80.007	19.995	103.573	18.964	70.517	0.494
551.999	354.756	80.008	19.994	103.577	18.945	71.902	0.474
553.999	355.782	80.007	19.994	103.586	18.935	72.612	0.514
556.000	356.748	80.005	19.994	103.593	18.918	73.797	0.493
557.999	357.745	80.005	19.993	103.594	18.909	74.455	0.489
559.999	358.706	80.005	19.995	103.604	18.895	75.433	0.475
561.999	359.738	80.006	19.995	103.601	18.889	75.852	0.534
563.999	360.759	80.008	19.992	103.601	18.882	76.372	0.527
566.000	361.768	80.007	19.995	103.592	18.879	76.563	0.498
567.999	362.860	80.007	19.994	103.581	18.874	76.941	0.547
569.999	363.845	80.009	19.996	103.586	18.875	76.838	0.502
571.999	364.901	80.007	19.997	103.568	18.880	76.488	0.512
574.000	365.932	80.010	19.996	103.559	18.886	76.002	0.534
576.000	366.977	80.009	19.995	103.537	18.894	75.418	0.528
577.999	368.032	80.004	19.993	103.531	18.911	74.180	0.545
579.999	369.088	80.006	19.994	103.535	18.925	73.188	0.526
581.999	370.067	80.008	19.994	103.521	18.946	71.704	0.504
583.999	371.187	80.007	19.994	103.502	18.970	69.991	0.541
585.999	372.232	80.014	19.991	103.472	18.998	67.930	0.530
587.999	373.263	80.008	19.995	103.428	19.033	65.440	0.526
590.000	374.333	80.011	19.992	103.392	19.070	62.812	0.535
592.000	375.392	80.010	19.993	103.416	19.107	60.165	0.516
593.999	376.400	80.010	19.994	103.392	19.150	57.071	0.485
595.999	377.477	80.010	19.994	103.366	19.195	53.919	0.517
597.999	378.543	80.010	19.995	103.362	19.242	50.569	0.516
600.000	379.578	80.009	19.993	103.341	19.291	47.030	0.534
601.999	380.628	80.010	19.993	103.308	19.340	43.556	0.564
603.999	381.666	80.007	19.995	103.298	19.395	39.630	0.532
605.999	382.694	80.006	19.995	103.283	19.439	36.481	0.517
608.000	383.703	80.008	19.995	103.281	19.489	32.974	0.547
609.999	384.701	80.006	19.994	103.259	19.535	29.667	0.508
612.000	385.717	80.007	19.995	103.248	19.581	26.414	0.515
613.999	386.802	80.010	19.993	103.210	19.623	23.461	0.566
615.999	387.803	80.006	19.995	103.198	19.664	20.535	0.495
617.999	388.889	80.007	19.994	103.245	19.697	18.199	0.521
619.999	389.881	80.006	19.993	103.222	19.730	15.831	0.506
621.999	390.861	80.007	19.994	103.218	19.760	13.716	0.483
623.999	391.905	80.010	19.993	103.201	19.785	11.877	0.504
625.999	392.943	80.008	19.995	103.204	19.809	10.219	0.524
627.999	393.995	80.009	19.995	103.203	19.826	8.968	0.532
629.999	395.019	80.006	19.995	103.171	19.843	7.810	0.517
631.999	396.075	80.008	19.995	103.183	19.852	7.184	0.542
633.999	397.084	80.008	19.996	103.163	19.858	6.692	0.491
635.999	398.092	80.005	19.996	103.204	19.868	5.990	0.483
638.000	399.151	80.006	19.996	103.202	19.877	5.379	0.545
639.999	400.180	80.006	19.996	103.211	19.880	5.161	0.549
641.999	401.155	80.006	19.996	103.196	19.890	4.442	0.498
644.000	402.185	80.005	19.997	103.204	19.893	4.242	0.507
645.999	403.154	80.006	19.999	103.199	19.898	3.890	0.502
647.999	404.207	80.028	19.995	103.218	19.897	3.950	0.516
649.999	405.210	80.007	19.994	103.204	19.903	3.552	0.524
651.999	406.217	80.009	19.995	103.188	19.904	3.443	0.515
653.999	407.167	80.007	19.996	103.186	19.910	3.057	0.482
655.999	408.226	80.009	19.994	103.205	19.912	2.863	0.506
657.999	409.303	80.009	19.994	103.175	19.913	2.792	0.535
659.999	410.332	80.009	19.995	103.228	19.916	2.588	0.508
661.999	411.316	80.006	19.997	103.169	19.916	2.628	0.508
663.999	412.331	80.010	19.994	103.174	19.917	2.548	0.498
665.999	413.299	80.007	19.995	103.207	19.913	2.843	0.473
667.999	414.331	80.005	19.994	103.177	19.916	2.612	0.501
670.000	415.351	80.007	19.996	103.201	19.921	2.213	0.516
671.999	416.330	80.005	19.994	103.171	19.924	2.017	0.475
674.000	417.362	80.008	19.995	103.193	19.925	1.947	0.523
675.999	418.385	80.008	19.994	103.185	19.926	1.918	0.495
677.999	419.409	80.010	19.992	103.191	19.924	2.015	0.535
680.000	420.397	80.005	19.994	103.210	19.925	1.938	0.492
681.999	421.393	80.010	19.993	103.172	19.933	1.397	0.498
683.999	422.488	80.010	19.995	103.171	19.932	1.451	0.549
685.999	423.490	80.008	19.993	103.178	19.928	1.777	0.487
687.999	424.506	80.007	19.994	103.171	19.933	1.407	0.535
689.999	425.574	80.009	19.992	103.188	19.933	1.368	0.507
691.999	426.571	80.003	19.997	103.177	19.937	1.120	0.499
693.999	427.583	80.011	19.994	103.146	19.936	1.161	0.496
695.999	428.600	80.009	19.989	103.185	19.937	1.086	0.514
697.999	429.653	80.012	19.993	103.161	19.936	1.177	0.536
699.999	430.671	80.002	19.992	103.170	19.939	0.951	0.539
701.999	431.657	80.006	19.997	103.156	19.940	0.927	0.512
704.000	432.692	80.007	19.994	103.147	19.940	0.863	0.514
705.999	433.783	80.010	19.994	103.186	19.938	1.020	0.534
707.999	434.782	80.008	19.995	103.169	19.937	1.088	0.540
709.999	435.745	80.005	20.003	103.207	19.938	1.022	0.491
711.999	436.801	80.007	19.995	103.182	19.937	1.126	0.529
713.999	437.797	80.007	19.990	103.178	19.940	0.920	0.500
715.999	438.838	80.009	19.992	103.179	19.941	0.854	0.521
717.999	439.833	80.011	19.991	103.191	19.944	0.592	0.500
720.000	440.840	80.011	19.993	103.203	19.941	0.794	0.493
721.999	441.858	80.005	19.997	103.181	19.947	0.430	0.506
723.999	442.877	80.007	19.999	103.187	19.943	0.695	0.530
725.999	443.888	80.004	19.995	103.192	19.948	0.337	0.530
727.999	444.893	80.006	19.995	103.181	19.947	0.395	0.519
729.999	445.916	80.005	19.999	103.187	19.947	0.418	0.484
731.999	446.952	80.008	19.993	103.201	19.949	0.225	0.517
733.999	447.985	80.008	19.995	103.159	19.957	-0.283	0.513
735.999	449.002	80.011	19.995	103.177	19.953	-0.029	0.509
737.999	450.033	80.009	19.997	103.197	19.958	-0.352	0.537
739.999	451.076	80.008	19.996	103.183	19.957	-0.345	0.501
741.999	452.084	80.007	19.995	103.179	19.956	-0.215	0.481
743.999	453.055	80.006	19.995	103.202	19.957	-0.290	0.476
745.999	454.157	80.005	19.994	103.194	19.957	-0.321	0.551
747.999	455.181	80.008	19.994	103.195	19.959	-0.451	0.510
749.999	456.174	80.008	19.994	103.196	19.960	-0.536	0.483
751.999	457.222	80.007	19.994	103.188	19.961	-0.598	0.495
753.999	458.277	80.009	19.994	103.196	19.962	-0.677	0.507
755.999	459.322	80.009	19.990	103.186	19.962	-0.648	0.553
758.000	460.281	80.009	19.993	103.188	19.965	-0.846	0.485
760.000	461.343	80.011	19.994	103.176	19.966	-0.985	0.531
761.999	462.364	80.007	19.994	103.199	19.965	-0.904	0.505
763.999	463.411	80.010	19.994	103.186	19.967	-1.043	0.484
765.999	464.405	80.007	19.993	103.173	19.966	-0.925	0.496
767.999	465.393	80.007	19.993	103.177	19.970	-1.254	0.507
769.999	466.452	80.007	19.994	103.177	19.970	-1.239	0.543
771.999	467.455	80.007	19.994	103.184	19.968	-1.099	0.547
773.999	468.480	80.005	19.995	103.189	19.974	-1.506	0.533
775.999	469.509	80.005	19.997	103.175	19.976	-1.635	0.554
777.999	470.518	80.004	19.994	103.177	19.977	-1.742	0.520
780.000	471.542	80.008	19.995	103.192	19.976	-1.634	0.506
781.999	472.564	80.010	19.993	103.187	19.973	-1.461	0.540
783.999	473.585	80.008	19.994	103.191	19.978	-1.806	0.525
786.000	474.616	80.007	19.994	103.179	19.978	-1.779	0.502
787.999	475.725	80.007	19.994	103.177	19.979	-1.843	0.526
790.000	476.733	80.007	19.995	103.179	19.982	-2.054	0.537
791.999	477.749	80.007	19.995	103.180	19.981	-2.044	0.534
793.999	478.736	80.005	19.995	103.185	19.980	-1.936	0.509
795.999	479.759	80.005	19.993	103.182	19.985	-2.307	0.526
798.000	480.799	80.008	19.994	103.179	19.982	-2.117	0.515
800.000	481.785	80.003	19.996	103.178	19.982	-2.098	0.527
801.999	482.819	80.006	19.995	103.178	19.984	-2.243	0.504
804.000	483.810	80.007	19.996	103.181	19.987	-2.435	0.498
805.999	484.806	80.006	19.995	103.178	19.987	-2.474	0.526
807.999	485.775	80.006	19.994	103.176	19.986	-2.394	0.525
809.999	486.859	80.007	19.994	103.177	19.986	-2.350	0.524
812.000	487.847	80.005	19.993	103.182	19.988	-2.540	0.524
813.999	488.859	80.009	19.997	103.178	19.986	-2.342	0.489
815.999	489.903	80.008	19.995	103.177	19.985	-2.317	0.516
817.999	490.909	80.007	19.996	103.176	19.988	-2.533	0.511
819.999	491.926	80.007	19.995	103.178	19.988	-2.495	0.511
821.999	492.922	80.008	19.995	103.191	19.987	-2.435	0.566
824.000	493.959	80.006	19.996	103.189	19.988	-2.508	0.532
825.999	494.971	80.005	19.995	103.176	19.988	-2.520	0.519
827.999	496.029	80.008	19.995	103.170	19.988	-2.522	0.512
830.000	497.038	80.007	19.995	103.171	19.988	-2.541	0.482
832.000	498.064	80.007	19.994	103.175	19.989	-2.590	0.507
833.999	499.108	80.011	19.995	103.171	19.991	-2.729	0.508
836.000	500.165	80.009	19.995	103.169	19.991	-2.719	0.525
837.999	501.181	80.009	19.994	103.173	19.995	-3.023	0.528
839.999	502.219	80.008	19.993	103.172	19.994	-2.967	0.517
841.999	503.247	80.009	19.994	103.172	19.994	-2.975	0.516
843.999	504.262	80.013	19.993	103.173	19.998	-3.199	0.522
845.999	505.297	80.010	19.994	103.174	19.998	-3.199	0.501
847.999	506.357	80.008	19.994	103.180	19.993	-2.849	0.528
849.999	507.383	80.006	19.994	103.170	19.996	-3.085	0.506
851.999	508.419	80.007	19.994	103.170	19.999	-3.310	0.521
853.999	509.510	80.008	19.993	103.173	19.994	-2.944	0.520
855.999	510.611	80.006	19.998	103.171	19.997	-3.155	0.558
857.999	511.567	80.008	19.993	103.175	19.996	-3.105	0.512
859.999	512.597	80.007	19.995	103.175	19.998	-3.256	0.459
861.999	513.638	80.007	19.995	103.172	19.996	-3.079	0.543
863.999	514.712	80.007	19.994	103.176	19.991	-2.745	0.562
865.999	515.769	80.007	19.993	103.177	19.998	-3.209	0.501
867.999	516.806	80.004	19.995	103.176	19.997	-3.145	0.553
870.000	517.841	80.006	19.993	103.177	19.999	-3.283	0.535
872.000	518.851	80.006	19.994	103.178	19.999	-3.263	0.498
873.999	519.879	80.005	19.994	103.183	19.999	-3.329	0.511
875.999	520.927	80.006	19.993	103.180	20.001	-3.434	0.526
878.000	521.891	80.006	19.994	103.177	20.002	-3.530	0.493
880.000	522.942	80.006	19.994	103.179	20.002	-3.538	0.515
881.999	523.966	80.009	19.995	103.182	20.000	-3.356	0.495
883.999	525.016	80.005	19.995	103.179	19.997	-3.166	0.508
885.999	526.039	80.007	19.993	103.175	20.002	-3.542	0.523
887.999	527.113	80.007	19.995	103.175	20.005	-3.706	0.545
889.999	528.154	80.008	19.995	103.174	20.002	-3.505	0.553
891.999	529.162	80.007	19.996	103.167	20.002	-3.513	0.513
893.999	530.236	80.007	19.994	103.173	20.002	-3.521	0.532
896.000	531.229	80.009	19.994	103.172	20.005	-3.728	0.536
897.999	532.236	80.009	19.994	103.174	20.001	-3.418	0.516
900.000	533.295	80.006	19.996	103.169	20.004	-3.660	0.560
901.999	534.347	80.011	19.994	103.163	20.004	-3.619	0.520
903.999	535.371	80.009	19.994	103.172	20.004	-3.646	0.483
905.999	536.405	80.009	19.994	103.170	20.006	-3.791	0.523
907.999	537.398	80.007	19.994	103.174	20.004	-3.654	0.522
909.999	538.460	80.007	19.995	103.165	20.008	-3.934	0.516
911.999	539.482	80.008	19.995	103.168	20.004	-3.631	0.538
913.999	540.481	80.009	19.995	103.168	20.004	-3.679	0.492
916.000	541.510	80.008	19.997	103.165	20.004	-3.650	0.522
918.000	542.549	80.007	19.995	103.169	20.006	-3.778	0.524
919.999	543.557	80.009	19.995	103.168	20.004	-3.650	0.523
921.999	544.574	80.006	19.994	103.164	20.006	-3.766	0.492
923.999	545.600	80.008	19.994	103.165	20.006	-3.816	0.512
925.999	546.609	80.007	19.994	103.171	20.009	-3.987	0.512
928.000	547.670	80.007	19.995	103.169	20.009	-4.012	0.516
929.999	548.674	80.008	19.995	103.162	20.007	-3.881	0.529
932.000	549.695	80.005	19.995	103.172	20.012	-4.219	0.502
933.999	550.715	80.008	19.993	103.173	20.006	-3.819	0.494
935.999	551.776	80.004	19.992	103.166	20.005	-3.729	0.520
937.999	552.804	80.008	19.994	103.177	20.011	-4.151	0.510
939.999	553.861	80.006	19.995	103.176	20.014	-4.334	0.530
941.999	554.890	80.006	19.994	103.175	20.016	-4.494	0.542
943.999	555.904	80.007	19.994	103.177	20.015	-4.416	0.487
945.999	556.962	80.007	19.994	103.176	20.016	-4.488	0.530
947.999	557.976	80.007	19.995	103.164	20.013	-4.273	0.508
950.000	559.011	80.004	19.994	103.175	20.012	-4.213	0.525
951.999	560.064	80.005	19.993	103.176	20.013	-4.316	0.531
953.999	561.103	80.009	19.994	103.169	20.013	-4.266	0.551
955.999	562.124	80.005	19.997	103.172	20.014	-4.341	0.505
957.999	563.157	80.008	19.995	103.173	20.011	-4.159	0.503
959.999	564.182	80.008	19.995	103.169	20.014	-4.393	0.536
962.000	565.193	80.007	19.995	103.163	20.017	-4.589	0.490
963.999	566.191	80.007	19.994	103.168	20.014	-4.341	0.498
966.000	567.226	80.008	19.994	103.172	20.016	-4.523	0.511
967.999	568.251	80.008	19.994	103.173	20.017	-4.589	0.500
969.999	569.285	80.009	19.994	103.171	20.015	-4.459	0.524
971.999	570.282	80.008	19.994	103.168	20.018	-4.643	0.515
973.999	571.333	80.008	19.994	103.170	20.018	-4.660	0.514
975.999	572.369	80.008	19.994	103.166	20.019	-4.745	0.523
977.999	573.380	80.008	19.993	103.168	20.017	-4.560	0.501
979.999	574.428	80.009	19.994	103.163	20.016	-4.525	0.537
982.000	575.443	80.006	19.996	103.161	20.021	-4.875	0.501
983.999	576.491	80.012	19.995	103.167	20.018	-4.676	0.497
986.000	577.502	80.009	19.995	103.164	20.017	-4.577	0.505
987.999	578.558	80.006	19.995	103.173	20.019	-4.714	0.497
989.999	579.588	80.005	19.994	103.167	20.020	-4.813	0.530
991.999	580.610	80.007	19.994	103.166	20.017	-4.600	0.509
993.999	581.580	80.009	19.995	103.168	20.020	-4.810	0.516
995.999	582.630	80.013	19.993	103.160	20.018	-4.669	0.527
997.999	583.648	80.009	19.994	103.157	20.020	-4.794	0.511
999.999	584.629	80.010	19.994	103.166	20.018	-4.680	0.503
1001.999	585.612	80.009	19.994	103.166	20.018	-4.634	0.474
1004.000	586.698	80.004	19.996	103.169	20.021	-4.862	0.544
1006.000	587.653	80.007	19.998	103.177	20.024	-5.082	0.479
1007.999	588.640	80.010	19.996	103.175	20.021	-4.877	0.492
1009.999	589.673	80.006	19.995	103.170	20.021	-4.872	0.492
1011.999	590.731	80.000	19.995	103.175	20.022	-4.920	0.514
1014.000	591.723	80.006	19.994	103.169	20.018	-4.625	0.486
1015.999	592.749	80.006	19.997	103.166	20.023	-5.003	0.525
1017.999	593.781	80.005	19.996	103.176	20.025	-5.134	0.534
1019.999	594.835	80.016	19.995	103.173	20.024	-5.080	0.544
1022.000	595.845	80.000	19.996	103.175	20.027	-5.258	0.528
1023.999	596.869	80.005	19.995	103.166	20.022	-4.939	0.494
1026.000	597.899	80.008	19.994	103.167	20.020	-4.753	0.501
1028.000	598.909	80.006	19.994	103.167	20.023	-4.991	0.517
1030.000	599.951	80.009	19.994	103.170	20.023	-5.004	0.523
1031.999	601.064	80.002	19.994	103.172	20.024	-5.097	0.545
1034.000	602.025	80.003	19.995	103.165	20.025	-5.111	0.509
1035.999	603.002	80.007	19.994	103.170	20.027	-5.300	0.493
1037.999	604.036	80.002	19.993	103.166	20.023	-5.032	0.525
1040.000	605.054	80.004	19.995	103.159	20.026	-5.221	0.520
1041.999	606.063	80.005	19.995	103.151	20.027	-5.312	0.497
1043.999	607.111	80.006	19.995	103.162	20.030	-5.478	0.538
1046.000	608.117	80.005	19.995	103.157	20.027	-5.275	0.506
1047.999	609.154	80.008	19.995	103.163	20.029	-5.408	0.515
1049.999	610.209	80.005	19.994	103.165	20.030	-5.465	0.515
1051.999	611.225	80.007	19.994	103.166	20.032	-5.653	0.508
1053.999	612.266	80.006	19.994	103.159	20.031	-5.577	0.538
1055.999	613.296	80.007	19.994	103.148	20.031	-5.588	0.517
1057.999	614.341	80.007	19.994	103.151	20.033	-5.692	0.528
1059.999	615.350	80.007	19.994	103.150	20.030	-5.495	0.522
1061.999	616.379	80.007	19.994	103.161	20.031	-5.558	0.479
1064.000	617.403	80.008	19.994	103.163	20.029	-5.400	0.500
1065.999	618.409	80.008	19.997	103.151	20.026	-5.212	0.505
1068.000	619.457	80.009	19.994	103.160	20.028	-5.324	0.527
1070.000	620.484	80.005	19.994	103.175	20.031	-5.554	0.509
1071.999	621.487	80.006	19.994	103.161	20.030	-5.490	0.516
1073.999	622.467	80.006	19.995	103.172	20.033	-5.703	0.517
1075.999	623.481	80.012	19.995	103.172	20.033	-5.731	0.508
1077.999	624.488	80.012	19.994	103.158	20.032	-5.658	0.489
1080.000	625.542	80.006	19.993	103.160	20.031	-5.569	0.533
1081.999	626.526	80.008	19.995	103.162	20.030	-5.488	0.518
1083.999	627.591	80.010	19.994	103.157	20.030	-5.481	0.530
1086.000	628.617	80.011	19.994	103.155	20.032	-5.645	0.523
1088.000	629.655	80.014	19.993	103.146	20.033	-5.731	0.537
1089.999	630.697	79.998	19.995	103.147	20.032	-5.615	0.522
1091.999	631.723	79.997	19.996	103.157	20.033	-5.686	0.532
1093.999	632.703	80.006	19.995	103.165	20.034	-5.788	0.488
1095.999	633.776	80.008	19.993	103.167	20.036	-5.892	0.495
1098.000	634.809	80.006	19.995	103.153	20.035	-5.849	0.493
1099.999	635.886	80.015	19.995	103.140	20.036	-5.960	0.556
1102.000	636.912	80.009	19.996	103.158	20.037	-5.991	0.523
1104.000	637.918	80.013	19.995	103.156	20.037	-5.967	0.512
1105.999	638.961	80.004	19.995	103.149	20.036	-5.899	0.502
1107.999	640.028	80.001	19.996	103.145	20.035	-5.853	0.526
1109.999	641.096	80.002	19.995	103.144	20.039	-6.106	0.530
1112.000	642.115	80.012	19.994	103.147	20.033	-5.737	0.516
1113.999	643.172	80.004	19.995	103.142	20.040	-6.187	0.533
1116.000	644.173	80.003	19.995	103.137	20.038	-6.063	0.512
1118.000	645.180	80.017	19.993	103.149	20.038	-6.041	0.495
1120.000	646.211	80.008	19.993	103.143	20.035	-5.835	0.509
1122.000	647.226	80.008	19.994	103.143	20.038	-6.034	0.484
1123.999	648.271	80.005	19.994	103.154	20.040	-6.176	0.530
1125.999	649.276	80.002	19.995	103.160	20.042	-6.342	0.478
1127.999	650.310	80.015	19.993	103.139	20.040	-6.203	0.518
1129.999	651.325	80.011	19.994	103.139	20.039	-6.141	0.498
1131.999	652.344	80.006	19.994	103.136	20.040	-6.234	0.540
1133.999	653.353	80.003	19.995	103.137	20.039	-6.118	0.506
1135.999	654.379	80.007	19.994	103.141	20.038	-6.040	0.502
1137.999	655.425	80.010	19.994	103.141	20.036	-5.917	0.506
1139.999	656.403	80.004	19.995	103.143	20.039	-6.124	0.506
1141.999	657.414	80.009	19.994	103.143	20.038	-6.094	0.490
1143.999	658.416	80.003	19.995	103.146	20.039	-6.162	0.472
1145.999	659.433	80.013	19.994	103.155	20.040	-6.183	0.515
1147.999	660.391	80.016	19.993	103.161	20.040	-6.234	0.478
1150.000	661.395	80.008	19.994	103.147	20.042	-6.367	0.512
1151.999	662.417	79.994	19.995	103.146	20.046	-6.603	0.518
1153.999	663.456	80.013	19.993	103.134	20.040	-6.230	0.514
1155.999	664.428	79.998	19.996	103.138	20.044	-6.458	0.486
1157.999	665.465	80.012	19.993	103.138	20.043	-6.437	0.498
1160.000	666.475	80.004	19.993	103.141	20.043	-6.456	0.503
1162.000	667.516	80.006	19.995	103.133	20.047	-6.673	0.531
1163.999	668.536	79.999	19.995	103.138	20.047	-6.677	0.550
1165.999	669.532	80.007	19.994	103.136	20.046	-6.632	0.512
1167.999	670.558	80.005	19.995	103.136	20.047	-6.706	0.505
1169.999	671.607	80.000	19.994	103.137	20.044	-6.518	0.518
1171.999	672.625	80.014	19.992	103.136	20.044	-6.508	0.517
1174.000	673.642	80.002	19.995	103.140	20.045	-6.572	0.536
1175.999	674.704	79.999	19.994	103.134	20.046	-6.619	0.520
1177.999	675.762	80.009	19.994	103.134	20.047	-6.673	0.539
1179.999	676.768	80.007	19.994	103.136	20.049	-6.852	0.517
1181.999	677.749	80.006	19.994	103.134	20.048	-6.800	0.493
1183.999	678.753	80.003	19.996	103.138	20.050	-6.917	0.501
1185.999	679.721	79.996	19.995	103.134	20.050	-6.906	0.488
1188.000	680.776	80.005	19.994	103.141	20.050	-6.921	0.504
1189.999	681.751	80.002	19.994	103.134	20.052	-7.073	0.500
1191.999	682.789	80.003	19.994	103.128	20.055	-7.251	0.480
1193.999	683.773	80.010	19.994	103.136	20.053	-7.122	0.488
1195.999	684.821	80.011	19.994	103.137	20.053	-7.164	0.515
1198.000	685.843	80.009	19.996	103.148	20.054	-7.229	0.525
1199.999	686.746	80.003	19.995	103.140	20.055	-7.273	0.473
1202.000	687.808	80.005	19.996	103.138	20.059	-7.587	0.493
1204.000	688.845	80.009	19.993	103.136	20.054	-7.213	0.513
1206.000	689.851	80.001	19.997	103.136	20.059	-7.526	0.530
1208.000	690.862	80.003	19.994	103.135	20.056	-7.341	0.506
1209.999	691.873	80.003	19.994	103.143	20.058	-7.472	0.494
1211.999	692.883	80.005	19.995	103.144	20.059	-7.582	0.505
1213.999	693.938	80.011	19.994	103.143	20.060	-7.662	0.531
1216.000	694.977	80.009	19.995	103.134	20.060	-7.621	0.532
1217.999	695.991	80.012	19.992	103.133	20.062	-7.778	0.497
1220.000	697.025	80.005	19.994	103.139	20.061	-7.715	0.525
1221.999	698.036	80.003	19.994	103.137	20.062	-7.764	0.489
1223.999	699.051	80.003	19.995	103.134	20.061	-7.690	0.511
1226.000	700.138	80.005	19.993	103.134	20.058	-7.489	0.532
1227.999	701.151	80.015	19.993	103.133	20.059	-7.564	0.514
1230.000	702.163	80.005	19.995	103.130	20.062	-7.734	0.474
1231.999	703.206	80.009	19.994	103.129	20.063	-7.859	0.538
1233.999	704.218	80.005	19.995	103.130	20.063	-7.851	0.530
1235.999	705.244	80.002	19.994	103.132	20.065	-7.998	0.569
1237.999	706.248	79.993	19.996	103.123	20.062	-7.758	0.526
1240.000	707.236	80.008	19.993	103.119	20.061	-7.681	0.514
1241.999	708.249	79.996	19.994	103.133	20.060	-7.664	0.502
1243.999	709.301	80.018	19.992	103.129	20.064	-7.915	0.535
1246.000	710.306	80.008	19.993	103.139	20.060	-7.627	0.478
1247.999	711.285	80.008	19.993	103.136	20.061	-7.689	0.494
1249.999	712.285	80.006	19.994	103.135	20.060	-7.619	0.507
1251.999	713.322	79.999	19.995	103.140	20.060	-7.611	0.504
1253.999	714.301	80.012	19.994	103.139	20.057	-7.435	0.510
1256.000	715.330	80.009	19.994	103.139	20.057	-7.406	0.496
1257.999	716.352	80.016	19.995	103.139	20.059	-7.532	0.480
1259.999	717.313	80.007	19.995	103.137	20.065	-7.973	0.487
1262.000	718.306	80.005	19.995	103.135	20.057	-7.389	0.488
1263.999	719.408	80.007	19.996	103.126	20.064	-7.923	0.515
1265.999	720.385	80.005	19.995	103.135	20.060	-7.613	0.513
1267.999	721.340	80.001	19.996	103.135	20.058	-7.470	0.481
1269.999	722.380	79.999	19.995	103.135	20.062	-7.785	0.508
1271.999	723.380	80.005	19.995	103.128	20.060	-7.615	0.505
1274.000	724.401	80.014	19.994	103.136	20.059	-7.527	0.503
1275.999	725.411	79.992	19.995	103.133	20.060	-7.593	0.490
1278.000	726.451	80.018	19.994	103.126	20.057	-7.445	0.513
1279.999	727.454	80.007	19.994	103.129	20.059	-7.592	0.489
1281.999	728.498	80.005	19.995	103.135	20.061	-7.676	0.513
1283.999	729.489	80.003	19.995	103.130	20.058	-7.466	0.516
1285.999	730.483	79.996	19.996	103.127	20.059	-7.549	0.492
1287.999	731.508	80.013	19.995	103.130	20.061	-7.723	0.493
1290.000	732.561	80.007	19.995	103.128	20.060	-7.642	0.535
1291.999	733.520	80.009	19.995	103.131	20.059	-7.549	0.480
1293.999	734.542	80.006	19.996	103.136	20.060	-7.651	0.519
1295.999	735.561	80.011	19.995	103.136	20.062	-7.760	0.476
1298.000	736.582	80.016	19.994	103.136	20.066	-8.019	0.491
1299.999	737.593	80.008	19.994	103.134	20.064	-7.915	0.508
1301.999	738.606	80.003	19.994	103.129	20.063	-7.812	0.486
1303.999	739.650	80.011	19.994	103.121	20.062	-7.779	0.522
1305.999	740.637	80.014	19.993	103.127	20.064	-7.885	0.475
1307.999	741.705	80.013	19.993	103.131	20.065	-7.978	0.518
1309.999	742.729	80.006	19.994	103.135	20.066	-8.071	0.521
1311.499	743.479	80.010	19.994	103.129	20.066	-8.041	0.525