File: 01_Data/Feather_PillowB_Feathers/STA/N2/30K_min/Feather_Pillow_Feathers_STA_N2_30KData_2236_R1.csv
##Temp./Â°C,Time/min,Mass loss(subtr.2)/mg,DSC(subtr.2)/(mW/mg),Sensit./(uV/mW)
48.505,10.00917,-0.02394,0.04195405,1.05402
49.205,10.55295,-0.02344065,0.07334258,1.05387
49.905,10.68047,-0.02245983,0.10358,1.05373
50.605,10.77115,-0.0237248,0.13506,1.05359
51.305,10.84437,-0.02268371,0.16071,1.05344
52.005,10.90754,-0.0214368,0.18685,1.0533
52.705,10.9643,-0.0239412,0.21268,1.05315
53.405,11.016,-0.02304999,0.23611,1.053
54.105,11.06379,-0.02435048,0.25939,1.05286
54.805,11.10828,-0.02287228,0.28033,1.05271
55.505,11.151,-0.02498264,0.30352,1.05256
56.205,11.19179,-0.0235787,0.32072,1.05241
56.905,11.23071,-0.02427987,0.34212,1.05225
57.605,11.2684,-0.02317371,0.36156,1.0521
58.305,11.30454,-0.02136915,0.38019,1.05195
59.005,11.3396,-0.02166105,0.39483,1.05179
59.705,11.37359,-0.0212469,0.41356,1.05164
60.405,11.40692,-0.02264729,0.4309,1.05148
61.105,11.43948,-0.02281747,0.44621,1.05133
61.805,11.47138,-0.02139387,0.46203,1.05117
62.505,11.50266,-0.02232828,0.47863,1.05101
63.205,11.5334,-0.02476096,0.49187,1.05085
63.905,11.56355,-0.02455667,0.50761,1.05069
64.605,11.59323,-0.02364319,0.52211,1.05053
65.305,11.62257,-0.02456028,0.53719,1.05037
66.005,11.6515,-0.02421226,0.55046,1.0502
66.705,11.6801,-0.02480421,0.56437,1.05004
67.405,11.70842,-0.0257247,0.57676,1.04987
68.105,11.73643,-0.02747488,0.59085,1.04971
68.805,11.76436,-0.02607921,0.60562,1.04954
69.505,11.79186,-0.02646438,0.61993,1.04937
70.205,11.8192,-0.02800315,0.63222,1.04921
70.905,11.8462,-0.02839085,0.64583,1.04904
71.605,11.87301,-0.0274762,0.65677,1.04887
72.305,11.8996,-0.02722793,0.67082,1.04869
73.005,11.92608,-0.02721806,0.68455,1.04852
73.705,11.95247,-0.02722272,0.6976,1.04835
74.405,11.97867,-0.02719005,0.70881,1.04818
75.105,12.0047,-0.02838664,0.72124,1.048
75.805,12.0306,-0.02929906,0.73549,1.04783
76.505,12.05644,-0.02926775,0.74844,1.04765
77.205,12.0822,-0.03089895,0.76167,1.04747
77.905,12.10771,-0.03114624,0.7735,1.04729
78.605,12.1332,-0.03134616,0.78527,1.04712
79.305,12.15858,-0.03139095,0.7974,1.04694
80.005,12.18379,-0.03159277,0.81053,1.04676
80.705,12.20899,-0.03151709,0.82373,1.04657
81.405,12.23396,-0.03254674,0.83473,1.04639
82.105,12.25893,-0.03282604,0.84648,1.04621
82.805,12.28391,-0.0315515,0.8602,1.04602
83.505,12.30878,-0.03273744,0.87104,1.04584
84.205,12.33359,-0.0332974,0.88158,1.04565
84.905,12.35812,-0.03325862,0.8944,1.04547
85.605,12.38267,-0.03342493,0.90671,1.04528
86.305,12.4071,-0.03460229,0.91882,1.04509
87.005,12.43154,-0.03453415,0.92714,1.0449
87.705,12.45595,-0.03587226,0.94232,1.04471
88.405,12.4803,-0.0358975,0.95309,1.04452
89.105,12.50452,-0.03478446,0.96145,1.04433
89.805,12.52881,-0.03590775,0.97567,1.04414
90.505,12.553,-0.03711214,0.98562,1.04394
91.205,12.5772,-0.03847098,0.99528,1.04375
91.905,12.60122,-0.03881382,1.00548,1.04355
92.605,12.62518,-0.04014016,1.01292,1.04336
93.305,12.64911,-0.04149789,1.02518,1.04316
94.005,12.67291,-0.04181818,1.03336,1.04296
94.705,12.69678,-0.0429325,1.04141,1.04276
95.405,12.72063,-0.04303934,1.05076,1.04256
96.105,12.74433,-0.04535867,1.05983,1.04236
96.805,12.7682,-0.045764,1.06602,1.04216
97.505,12.79198,-0.04739421,1.07391,1.04196
98.205,12.81557,-0.04735034,1.0819,1.04176
98.905,12.8393,-0.04830757,1.08601,1.04155
99.605,12.86289,-0.04963945,1.09428,1.04135
100.305,12.8865,-0.0504936,1.09855,1.04114
101.005,12.91035,-0.05137211,1.10369,1.04094
101.705,12.93397,-0.05138008,1.10625,1.04073
102.405,12.95756,-0.05139111,1.11157,1.04052
103.105,12.9811,-0.05271447,1.11654,1.04031
103.805,13.00468,-0.05396893,1.11935,1.0401
104.505,13.0282,-0.05396165,1.12188,1.03989
105.205,13.05182,-0.05545255,1.12415,1.03968
105.905,13.0754,-0.05670369,1.12521,1.03947
106.605,13.09877,-0.05727619,1.12655,1.03926
107.305,13.12221,-0.05949392,1.12823,1.03904
108.005,13.1456,-0.05941877,1.12909,1.03883
108.705,13.16894,-0.06003148,1.12945,1.03861
109.405,13.1924,-0.06069166,1.1282,1.0384
110.105,13.21594,-0.06061543,1.12663,1.03818
110.805,13.2394,-0.06203103,1.12555,1.03796
111.505,13.26288,-0.06203063,1.12482,1.03774
112.205,13.2863,-0.06203175,1.11977,1.03752
112.905,13.30962,-0.06202271,1.1181,1.0373
113.605,13.3329,-0.06325286,1.11632,1.03708
114.305,13.35612,-0.06375872,1.11147,1.03686
115.005,13.37929,-0.064669,1.10761,1.03664
115.705,13.4025,-0.06468373,1.10382,1.03641
116.405,13.42583,-0.06627955,1.10018,1.03619
117.105,13.4491,-0.06620009,1.09498,1.03596
117.805,13.47228,-0.06619735,1.08878,1.03574
118.505,13.4954,-0.06726817,1.08264,1.03551
119.205,13.51847,-0.06762672,1.07912,1.03528
119.905,13.5415,-0.0676125,1.07253,1.03505
120.605,13.56468,-0.06901569,1.06649,1.03482
121.305,13.58779,-0.07026972,1.05971,1.03459
122.005,13.611,-0.07025928,1.05413,1.03436
122.705,13.63403,-0.07025373,1.04565,1.03413
123.405,13.657,-0.07017987,1.04006,1.0339
124.105,13.67999,-0.07156877,1.03554,1.03367
124.805,13.70292,-0.07279314,1.02833,1.03343
125.505,13.72584,-0.07289873,1.02116,1.0332
126.205,13.74879,-0.07289999,1.01268,1.03296
126.905,13.7716,-0.07289998,1.00687,1.03272
127.605,13.79447,-0.07289951,1.00139,1.03249
128.305,13.8174,-0.07289478,0.99406,1.03225
129.005,13.8403,-0.07427322,0.98657,1.03201
129.705,13.8631,-0.07426016,0.97973,1.03177
130.405,13.88589,-0.07571233,0.97349,1.03153
131.105,13.90851,-0.07564089,0.96674,1.03129
131.805,13.93101,-0.07564056,0.96005,1.03104
132.505,13.95367,-0.07566269,0.9548,1.0308
133.205,13.9763,-0.07634697,0.94743,1.03056
133.905,13.99893,-0.07696025,0.9419,1.03031
134.605,14.02165,-0.07696202,0.93518,1.03007
135.305,14.0442,-0.07706028,0.93062,1.02982
136.005,14.06664,-0.07798054,0.92712,1.02957
136.705,14.08924,-0.07794996,0.92115,1.02932
137.405,14.11179,-0.07795348,0.91519,1.02907
138.105,14.1343,-0.07707902,0.91087,1.02882
138.805,14.15686,-0.07664203,0.90531,1.02857
139.505,14.17919,-0.07662999,0.90156,1.02832
140.205,14.20134,-0.07662996,0.89624,1.02807
140.905,14.22362,-0.07662999,0.89361,1.02782
141.605,14.2459,-0.07662993,0.88732,1.02756
142.305,14.26821,-0.07662952,0.88472,1.02731
143.005,14.29071,-0.07664497,0.88225,1.02706
143.705,14.313,-0.07565986,0.879,1.0268
144.405,14.33528,-0.0753305,0.87695,1.02654
145.105,14.35757,-0.07532029,0.87394,1.02629
145.805,14.3798,-0.07532001,0.87286,1.02603
146.505,14.40195,-0.07532152,0.87042,1.02577
147.205,14.42421,-0.0753977,0.86767,1.02551
147.905,14.44639,-0.0769325,0.86784,1.02525
148.605,14.4685,-0.07696083,0.86616,1.02499
149.305,14.49063,-0.07691102,0.86583,1.02472
150.005,14.51268,-0.07589535,0.86364,1.02446
150.705,14.5347,-0.07698842,0.86339,1.0242
151.405,14.55679,-0.07770964,0.86359,1.02393
152.105,14.57889,-0.07827035,0.86172,1.02367
152.805,14.60091,-0.0782699,0.86165,1.0234
153.505,14.62296,-0.07827,0.86103,1.02313
154.205,14.645,-0.07827014,0.8602,1.02287
154.905,14.66709,-0.07827157,0.86073,1.0226
155.605,14.68917,-0.0786,0.86174,1.02233
156.305,14.7112,-0.07956922,0.86151,1.02206
157.005,14.7332,-0.0795911,0.86279,1.02179
157.705,14.7552,-0.07964162,0.86388,1.02152
158.405,14.777,-0.07836861,0.86331,1.02124
159.105,14.7987,-0.07799912,0.86472,1.02097
159.805,14.82044,-0.0777979,0.86506,1.0207
160.505,14.84237,-0.07675257,0.86716,1.02042
161.205,14.8644,-0.07552409,0.86871,1.02015
161.905,14.88649,-0.07702703,0.87169,1.01987
162.605,14.9084,-0.07843816,0.87063,1.01959
163.305,14.93024,-0.07852412,0.87135,1.01932
164.005,14.9521,-0.07917455,0.87598,1.01904
164.705,14.974,-0.07915173,0.87785,1.01876
165.405,14.99598,-0.07915008,0.87847,1.01848
166.105,15.01781,-0.07915,0.88021,1.0182
166.805,15.0397,-0.07915,0.88136,1.01792
167.505,15.0614,-0.07915,0.88201,1.01763
168.205,15.08327,-0.07915001,0.88493,1.01735
168.905,15.1051,-0.07915026,0.88559,1.01707
169.605,15.12684,-0.07915327,0.89049,1.01678
170.305,15.1486,-0.07916458,0.89031,1.0165
171.005,15.17035,-0.07779948,0.89378,1.01621
171.705,15.1921,-0.07873142,0.8956,1.01592
172.405,15.2138,-0.07995891,0.89828,1.01564
173.105,15.2356,-0.08045066,0.90033,1.01535
173.805,15.25726,-0.08046928,0.90212,1.01506
174.505,15.2789,-0.08046998,0.90477,1.01477
175.205,15.3006,-0.08047191,0.90807,1.01448
175.905,15.3223,-0.0805302,0.90802,1.01419
176.605,15.34384,-0.07922491,0.91153,1.0139
177.305,15.36545,-0.0791514,0.91156,1.0136
178.005,15.387,-0.07915005,0.91655,1.01331
178.705,15.4086,-0.07914999,0.92047,1.01302
179.405,15.43014,-0.07915033,0.92065,1.01272
180.105,15.45175,-0.07916344,0.92386,1.01243
180.805,15.47335,-0.07952043,0.9272,1.01213
181.505,15.4949,-0.08047629,0.92868,1.01183
182.205,15.51649,-0.08047851,0.93368,1.01153
182.905,15.538,-0.0792397,0.93441,1.01124
183.605,15.5595,-0.07849334,0.93898,1.01094
184.305,15.58109,-0.07849814,0.94032,1.01064
185.005,15.60254,-0.07849965,0.94287,1.01034
185.705,15.62391,-0.07849661,0.94674,1.01003
186.405,15.6453,-0.07844811,0.94993,1.00973
187.105,15.66669,-0.07971457,0.9553,1.00943
187.805,15.6881,-0.07981645,0.95716,1.00912
188.505,15.7096,-0.07982682,0.95823,1.00882
189.205,15.731,-0.07902388,0.96275,1.00852
189.905,15.7524,-0.07769668,0.96595,1.00821
190.605,15.7738,-0.077473,0.96982,1.0079
191.305,15.7952,-0.07876923,0.97446,1.0076
192.005,15.8166,-0.07903247,0.97831,1.00729
192.705,15.83801,-0.08027857,0.98252,1.00698
193.405,15.85941,-0.0803748,0.98716,1.00667
194.105,15.88071,-0.08180309,0.99105,1.00636
194.805,15.902,-0.08179207,0.99586,1.00605
195.505,15.9233,-0.08180537,0.99677,1.00574
196.205,15.94455,-0.08220111,1.00233,1.00542
196.905,15.96589,-0.08440583,1.00839,1.00511
197.605,15.98724,-0.08442949,1.01419,1.0048
198.305,16.00856,-0.08442999,1.0194,1.00448
199.005,16.0298,-0.08443,1.02447,1.00417
199.705,16.05109,-0.08443001,1.02809,1.00385
200.405,16.0724,-0.08443009,1.03498,1.00353
201.105,16.0937,-0.0844316,1.03972,1.00322
201.805,16.11514,-0.08445515,1.04509,1.0029
202.505,16.13645,-0.08514109,1.04953,1.00258
203.205,16.15775,-0.08587707,1.05561,1.00226
203.905,16.17897,-0.08651162,1.0624,1.00194
204.605,16.20017,-0.08652249,1.06989,1.00162
205.305,16.2214,-0.08652031,1.07611,1.0013
206.005,16.24258,-0.08652003,1.08263,1.00097
206.705,16.2638,-0.08652,1.08959,1.00065
207.405,16.28506,-0.08652,1.09651,1.00033
208.105,16.30613,-0.08652,1.10256,1.0
208.805,16.32723,-0.08651994,1.11026,0.99968
209.505,16.3485,-0.08651963,1.11946,0.99935
210.205,16.3697,-0.08652461,1.12655,0.99903
210.905,16.39106,-0.0857037,1.13877,0.9987
211.605,16.41244,-0.0852256,1.14903,0.99837
212.305,16.43371,-0.08548512,1.15903,0.99804
213.005,16.455,-0.08573804,1.1684,0.99771
213.705,16.47628,-0.08713993,1.18266,0.99738
214.405,16.4975,-0.08710326,1.1929,0.99705
215.105,16.51874,-0.08860141,1.20602,0.99672
215.805,16.53993,-0.09004804,1.21875,0.99639
216.505,16.56107,-0.091218,1.23438,0.99606
217.205,16.58213,-0.09123363,1.2508,0.99572
217.905,16.6034,-0.09115409,1.26756,0.99539
218.605,16.62463,-0.09269109,1.28565,0.99505
219.305,16.64588,-0.09315747,1.30288,0.99472
220.005,16.66722,-0.09410303,1.32192,0.99438
220.705,16.68838,-0.09378389,1.34201,0.99404
221.405,16.7095,-0.09445632,1.36904,0.99371
222.105,16.73068,-0.09533759,1.39211,0.99337
222.805,16.75185,-0.09689901,1.41785,0.99303
223.505,16.77301,-0.09686521,1.44277,0.99269
224.205,16.79425,-0.09836898,1.4746,0.99235
224.905,16.81547,-0.09955419,1.50631,0.99201
225.605,16.8367,-0.10014,1.53706,0.99167
226.305,16.8579,-0.10158,1.57241,0.99132
227.005,16.879,-0.10186,1.6088,0.99098
227.705,16.90016,-0.10315,1.6461,0.99064
228.405,16.9213,-0.10487,1.68848,0.99029
229.105,16.9425,-0.10663,1.73195,0.98995
229.805,16.96378,-0.10677,1.77658,0.9896
230.505,16.98507,-0.10867,1.82279,0.98926
231.205,17.00629,-0.11074,1.86991,0.98891
231.905,17.02756,-0.11215,1.91803,0.98856
232.605,17.04879,-0.11386,1.97148,0.98821
233.305,17.06997,-0.11524,2.02155,0.98786
234.005,17.09122,-0.11797,2.06646,0.98751
234.705,17.11243,-0.12107,2.11081,0.98716
235.405,17.13366,-0.12314,2.15018,0.98681
236.105,17.15494,-0.12476,2.18698,0.98646
236.805,17.17623,-0.12727,2.22138,0.98611
237.505,17.19752,-0.13053,2.25175,0.98576
238.205,17.2188,-0.13291,2.27792,0.9854
238.905,17.23995,-0.13577,2.29788,0.98505
239.605,17.26118,-0.14026,2.31617,0.98469
240.305,17.28237,-0.14446,2.32731,0.98434
241.005,17.3036,-0.14783,2.33638,0.98398
241.705,17.32487,-0.14994,2.34649,0.98362
242.405,17.34604,-0.15269,2.35022,0.98327
243.105,17.36724,-0.15769,2.35229,0.98291
243.805,17.3884,-0.16287,2.35292,0.98255
244.505,17.4094,-0.16626,2.35096,0.98219
245.205,17.43055,-0.16793,2.34647,0.98183
245.905,17.4515,-0.17147,2.34399,0.98147
246.605,17.47255,-0.1759,2.33874,0.98111
247.305,17.49381,-0.17949,2.33152,0.98075
248.005,17.51482,-0.1823,2.32238,0.98038
248.705,17.536,-0.18548,2.31605,0.98002
249.405,17.55731,-0.19009,2.30683,0.97966
250.105,17.57846,-0.19452,2.29788,0.97929
250.805,17.59965,-0.19827,2.28965,0.97893
251.505,17.62094,-0.20111,2.28204,0.97856
252.205,17.64205,-0.20435,2.27335,0.97819
252.905,17.66319,-0.20903,2.26563,0.97783
253.605,17.68419,-0.21345,2.25683,0.97746
254.305,17.70518,-0.21611,2.24987,0.97709
255.005,17.72626,-0.21895,2.24395,0.97672
255.705,17.7473,-0.2217,2.23827,0.97635
256.405,17.76853,-0.22652,2.23429,0.97598
257.105,17.78971,-0.23114,2.22915,0.97561
257.805,17.81074,-0.23421,2.22716,0.97524
258.505,17.8318,-0.23804,2.22622,0.97486
259.205,17.85274,-0.24132,2.22403,0.97449
259.905,17.87385,-0.24594,2.22229,0.97412
260.605,17.8948,-0.25018,2.22315,0.97374
261.305,17.91592,-0.25325,2.22035,0.97337
262.005,17.93703,-0.25792,2.22614,0.97299
262.705,17.95812,-0.26244,2.22634,0.97262
263.405,17.97931,-0.26614,2.22967,0.97224
264.105,18.0004,-0.26865,2.23539,0.97186
264.805,18.02149,-0.27231,2.23992,0.97149
265.505,18.0426,-0.27731,2.24573,0.97111
266.205,18.06369,-0.2828,2.25182,0.97073
266.905,18.08473,-0.28656,2.25571,0.97035
267.605,18.10576,-0.29121,2.26297,0.96997
268.305,18.1268,-0.29545,2.26815,0.96959
269.005,18.14789,-0.3001,2.27565,0.96921
269.705,18.1689,-0.3046,2.28481,0.96882
270.405,18.19001,-0.30886,2.29182,0.96844
271.105,18.2111,-0.31312,2.29902,0.96806
271.805,18.2321,-0.31818,2.30523,0.96767
272.505,18.25325,-0.32369,2.31309,0.96729
273.205,18.2743,-0.32732,2.32041,0.9669
273.905,18.2953,-0.3303,2.32429,0.96652
274.605,18.3163,-0.33633,2.33274,0.96613
275.305,18.3374,-0.34179,2.33978,0.96574
276.005,18.35848,-0.34678,2.3466,0.96536
276.705,18.37956,-0.35207,2.35158,0.96497
277.405,18.4006,-0.35677,2.35583,0.96458
278.105,18.42162,-0.36379,2.36073,0.96419
278.805,18.44277,-0.36827,2.36617,0.9638
279.505,18.4639,-0.37312,2.36795,0.96341
280.205,18.4851,-0.37937,2.3734,0.96302
280.905,18.50627,-0.38515,2.37688,0.96263
281.605,18.52736,-0.39165,2.37892,0.96223
282.305,18.5484,-0.39513,2.38118,0.96184
283.005,18.56945,-0.40066,2.38379,0.96145
283.705,18.59055,-0.40771,2.38626,0.96105
284.405,18.61165,-0.41534,2.39062,0.96066
285.105,18.63277,-0.42126,2.39333,0.96026
285.805,18.6539,-0.42567,2.39393,0.95987
286.505,18.675,-0.43196,2.39864,0.95947
287.205,18.69603,-0.43878,2.39878,0.95907
287.905,18.71707,-0.4465,2.40261,0.95868
288.605,18.73808,-0.45095,2.40643,0.95828
289.305,18.7592,-0.45659,2.40969,0.95788
290.005,18.78042,-0.46253,2.41144,0.95748
290.705,18.80153,-0.47133,2.41563,0.95708
291.405,18.82271,-0.477,2.41925,0.95668
292.105,18.84383,-0.48234,2.42241,0.95628
292.805,18.86486,-0.48757,2.42893,0.95587
293.505,18.88598,-0.49534,2.43183,0.95547
294.205,18.90707,-0.50206,2.43562,0.95507
294.905,18.9281,-0.50861,2.44328,0.95467
295.605,18.94922,-0.51547,2.44986,0.95426
296.305,18.97034,-0.5237,2.45566,0.95386
297.005,18.99151,-0.53183,2.4602,0.95345
297.705,19.01268,-0.5384,2.46771,0.95305
298.405,19.0338,-0.54299,2.47434,0.95264
299.105,19.0549,-0.54798,2.47805,0.95223
299.805,19.07595,-0.55561,2.48543,0.95183
300.505,19.09705,-0.56074,2.49051,0.95142
301.205,19.11814,-0.56807,2.49879,0.95101
301.905,19.13924,-0.57606,2.50499,0.9506
302.605,19.16033,-0.58577,2.50943,0.95019
303.305,19.1815,-0.5935,2.51208,0.94978
304.005,19.20257,-0.60113,2.51461,0.94937
304.705,19.2236,-0.60696,2.5161,0.94896
305.405,19.24475,-0.61542,2.51789,0.94854
306.105,19.26587,-0.62396,2.51434,0.94813
306.805,19.287,-0.63154,2.50724,0.94772
307.505,19.3082,-0.63913,2.49637,0.94731
308.205,19.32948,-0.64707,2.48289,0.94689
308.905,19.35067,-0.65619,2.45879,0.94648
309.605,19.37185,-0.66472,2.42616,0.94606
310.305,19.39295,-0.67102,2.38574,0.94564
311.005,19.41399,-0.67791,2.34189,0.94523
311.705,19.43502,-0.68702,2.30294,0.94481
312.405,19.4559,-0.69563,2.27326,0.94439
313.105,19.4769,-0.70477,2.2507,0.94398
313.805,19.4979,-0.71049,2.23314,0.94356
314.505,19.51886,-0.71787,2.22311,0.94314
315.205,19.54,-0.72525,2.21844,0.94272
315.905,19.56127,-0.73482,2.21444,0.9423
316.605,19.58256,-0.74051,2.21558,0.94188
317.305,19.60385,-0.748,2.21881,0.94146
318.005,19.62511,-0.75732,2.22502,0.94103
318.705,19.64626,-0.76794,2.234,0.94061
319.405,19.66733,-0.77587,2.24351,0.94019
320.105,19.68839,-0.7833,2.25737,0.93976
320.805,19.70951,-0.79151,2.27242,0.93934
321.505,19.7306,-0.80215,2.29049,0.93892
322.205,19.75175,-0.81295,2.31781,0.93849
322.905,19.77299,-0.82127,2.35149,0.93807
323.605,19.7943,-0.83117,2.38296,0.93764
324.305,19.81544,-0.84242,2.38974,0.93721
325.005,19.83665,-0.85586,2.39311,0.93678
325.705,19.85782,-0.86586,2.39413,0.93636
326.405,19.87892,-0.87716,2.40251,0.93593
327.105,19.90019,-0.88706,2.42316,0.9355
327.805,19.9214,-0.90069,2.44089,0.93507
328.505,19.94264,-0.91047,2.44781,0.93464
329.205,19.9638,-0.9227,2.4587,0.93421
329.905,19.98493,-0.9333,2.46817,0.93378
330.605,20.00597,-0.94739,2.48306,0.93335
331.305,20.02709,-0.96029,2.49682,0.93292
332.005,20.0482,-0.97277,2.50765,0.93248
332.705,20.06936,-0.98468,2.51786,0.93205
333.405,20.09061,-0.99819,2.52763,0.93162
334.105,20.1118,-1.01286,2.5389,0.93118
334.805,20.1332,-1.02592,2.55055,0.93075
335.505,20.1546,-1.04,2.5666,0.93031
336.205,20.17597,-1.05246,2.57852,0.92988
336.905,20.1973,-1.06933,2.58684,0.92944
337.605,20.21861,-1.08257,2.5949,0.929
338.305,20.23986,-1.09694,2.60725,0.92857
339.005,20.26118,-1.10871,2.62451,0.92813
339.705,20.28252,-1.12667,2.63612,0.92769
340.405,20.3038,-1.14172,2.64578,0.92725
341.105,20.32514,-1.15758,2.65474,0.92681
341.805,20.34645,-1.16953,2.66513,0.92637
342.505,20.36777,-1.18459,2.67824,0.92593
343.205,20.3891,-1.20075,2.68858,0.92549
343.905,20.41049,-1.21756,2.69804,0.92505
344.605,20.43178,-1.23314,2.71123,0.92461
345.305,20.45315,-1.24782,2.72685,0.92417
346.005,20.47447,-1.26582,2.73673,0.92372
346.705,20.49575,-1.2815,2.74439,0.92328
347.405,20.51708,-1.29789,2.74965,0.92284
348.105,20.53831,-1.31099,2.75053,0.92239
348.805,20.5596,-1.32898,2.74556,0.92195
349.505,20.58096,-1.34442,2.74321,0.9215
350.205,20.60227,-1.36286,2.74256,0.92106
350.905,20.62366,-1.37823,2.75391,0.92061
351.605,20.6449,-1.39754,2.75771,0.92017
352.305,20.66623,-1.41459,2.74845,0.91972
353.005,20.68764,-1.43367,2.73709,0.91927
353.705,20.70905,-1.45122,2.72386,0.91882
354.405,20.7305,-1.46897,2.71092,0.91837
355.105,20.75186,-1.48745,2.69881,0.91792
355.805,20.77306,-1.50414,2.6806,0.91748
356.505,20.79433,-1.5219,2.66584,0.91702
357.205,20.81573,-1.53785,2.644,0.91657
357.905,20.8371,-1.55712,2.62729,0.91612
358.605,20.85857,-1.57263,2.60396,0.91567
359.305,20.88007,-1.5906,2.57587,0.91522
360.005,20.90144,-1.60499,2.54332,0.91477
360.705,20.92285,-1.62449,2.51795,0.91431
361.405,20.94426,-1.64005,2.49177,0.91386
362.105,20.96558,-1.65699,2.45994,0.91341
362.805,20.98696,-1.67169,2.43638,0.91295
363.505,21.00826,-1.68793,2.40518,0.9125
364.205,21.02968,-1.70328,2.37354,0.91204
364.905,21.05112,-1.71755,2.34771,0.91159
365.605,21.07248,-1.73257,2.31804,0.91113
366.305,21.09385,-1.74686,2.29361,0.91067
367.005,21.1152,-1.76349,2.27247,0.91022
367.705,21.13654,-1.77863,2.24531,0.90976
368.405,21.15794,-1.79525,2.22141,0.9093
369.105,21.17942,-1.80852,2.19162,0.90884
369.805,21.20081,-1.82488,2.1628,0.90838
370.505,21.22222,-1.83743,2.13541,0.90792
371.205,21.24364,-1.85196,2.10337,0.90746
371.905,21.26501,-1.86369,2.07339,0.907
372.605,21.28647,-1.87738,2.04632,0.90654
373.305,21.30787,-1.88982,2.01885,0.90608
374.005,21.3293,-1.90228,1.99464,0.90562
374.705,21.35073,-1.915,1.96283,0.90516
375.405,21.3721,-1.92794,1.93195,0.90469
376.105,21.39359,-1.94089,1.90259,0.90423
376.805,21.41495,-1.9521,1.87684,0.90377
377.505,21.43636,-1.96521,1.85301,0.9033
378.205,21.4577,-1.97608,1.8248,0.90284
378.905,21.47918,-1.98895,1.79884,0.90237
379.605,21.50064,-1.999,1.7736,0.90191
380.305,21.5221,-2.01056,1.75233,0.90144
381.005,21.54358,-2.01975,1.72775,0.90098
381.705,21.56503,-2.0312,1.70639,0.90051
382.405,21.5865,-2.04015,1.68393,0.90004
383.105,21.608,-2.0514,1.66106,0.89957
383.805,21.62946,-2.06135,1.64045,0.89911
384.505,21.65098,-2.07169,1.61979,0.89864
385.205,21.6724,-2.08237,1.59917,0.89817
385.905,21.69391,-2.09198,1.57975,0.8977
386.605,21.7154,-2.10264,1.55939,0.89723
387.305,21.73696,-2.1127,1.53974,0.89676
388.005,21.75844,-2.12332,1.52284,0.89629
388.705,21.78003,-2.13135,1.50465,0.89582
389.405,21.80152,-2.14112,1.49145,0.89534
390.105,21.823,-2.14882,1.47548,0.89487
390.805,21.84453,-2.15863,1.46072,0.8944
391.505,21.86596,-2.16663,1.44526,0.89393
392.205,21.8875,-2.17591,1.42904,0.89345
392.905,21.9091,-2.18433,1.41318,0.89298
393.605,21.93069,-2.19302,1.40026,0.8925
394.305,21.9523,-2.20201,1.38563,0.89203
395.005,21.97381,-2.20992,1.37376,0.89155
395.705,21.9954,-2.21838,1.35798,0.89108
396.405,22.01699,-2.22663,1.34311,0.8906
397.105,22.03862,-2.23564,1.32806,0.89013
397.805,22.06028,-2.24274,1.3162,0.88965
398.505,22.08183,-2.25173,1.29978,0.88917
399.205,22.1034,-2.25883,1.28519,0.8887
399.905,22.1249,-2.26668,1.27264,0.88822
400.605,22.14647,-2.27284,1.25872,0.88774
401.305,22.16806,-2.27935,1.24461,0.88726
402.005,22.18965,-2.28633,1.23139,0.88678
402.705,22.2113,-2.29441,1.21967,0.8863
403.405,22.23293,-2.30149,1.20558,0.88582
404.105,22.2546,-2.3069,1.19541,0.88534
404.805,22.27621,-2.31404,1.17964,0.88486
405.505,22.29776,-2.3204,1.16723,0.88438
406.205,22.31925,-2.3283,1.15729,0.8839
406.905,22.34076,-2.33331,1.14699,0.88341
407.605,22.36242,-2.33894,1.13606,0.88293
408.305,22.38426,-2.34506,1.12651,0.88245
409.005,22.40607,-2.35297,1.11192,0.88196
409.705,22.42791,-2.3581,1.10766,0.88148
410.405,22.44961,-2.36395,1.09448,0.881
411.105,22.47125,-2.37017,1.08359,0.88051
411.805,22.49296,-2.376,1.07428,0.88003
412.505,22.51464,-2.38159,1.06456,0.87954
413.205,22.5364,-2.38675,1.05661,0.87905
413.905,22.55816,-2.39281,1.04567,0.87857
414.605,22.57994,-2.39741,1.03612,0.87808
415.305,22.60172,-2.4018,1.02657,0.87759
416.005,22.62345,-2.4064,1.01796,0.87711
416.705,22.64519,-2.4121,1.00994,0.87662
417.405,22.667,-2.41746,1.00071,0.87613
418.105,22.68872,-2.42262,0.99303,0.87564
418.805,22.71047,-2.42743,0.98374,0.87515
419.505,22.73216,-2.43208,0.97408,0.87466
420.205,22.75385,-2.43715,0.96602,0.87417
420.905,22.7756,-2.44169,0.95522,0.87368
421.605,22.79739,-2.44674,0.94908,0.87319
422.305,22.81922,-2.45094,0.94161,0.8727
423.005,22.841,-2.45565,0.93215,0.87221
423.705,22.8628,-2.46036,0.92397,0.87172
424.405,22.8845,-2.46457,0.91703,0.87123
425.105,22.9063,-2.46912,0.91004,0.87073
425.805,22.928,-2.47338,0.9029,0.87024
426.505,22.94966,-2.47748,0.89801,0.86975
427.205,22.9715,-2.48316,0.89009,0.86925
427.905,22.9934,-2.48694,0.88541,0.86876
428.605,23.01527,-2.4904,0.87945,0.86826
429.305,23.03732,-2.49512,0.87357,0.86777
430.005,23.05917,-2.499,0.86591,0.86727
430.705,23.08109,-2.50304,0.86169,0.86678
431.405,23.10303,-2.50623,0.85669,0.86628
432.105,23.12487,-2.50894,0.84678,0.86579
432.805,23.1467,-2.5124,0.83979,0.86529
433.505,23.1686,-2.51604,0.83564,0.86479
434.205,23.19039,-2.51994,0.83206,0.86429
434.905,23.21226,-2.52302,0.82513,0.8638
435.605,23.23415,-2.52648,0.81914,0.8633
436.305,23.2561,-2.52937,0.81349,0.8628
437.005,23.27796,-2.5327,0.80831,0.8623
437.705,23.2999,-2.53665,0.80316,0.8618
438.405,23.32179,-2.5402,0.80114,0.8613
439.105,23.34362,-2.54428,0.79984,0.8608
439.805,23.36554,-2.54821,0.79442,0.8603
440.505,23.38745,-2.55275,0.79071,0.8598
441.205,23.4092,-2.5561,0.78824,0.8593
441.905,23.43102,-2.55914,0.78363,0.8588
442.605,23.45274,-2.56171,0.78017,0.8583
443.305,23.4745,-2.56436,0.779,0.85779
444.005,23.4964,-2.56716,0.775,0.85729
444.705,23.51848,-2.57028,0.77119,0.85679
445.405,23.54066,-2.57411,0.76764,0.85628
446.105,23.56281,-2.57736,0.76305,0.85578
446.805,23.58486,-2.58086,0.76074,0.85528
447.505,23.60688,-2.5833,0.7554,0.85477
448.205,23.6288,-2.58547,0.75144,0.85427
448.905,23.6508,-2.588,0.7464,0.85376
449.605,23.67285,-2.59083,0.74341,0.85326
450.305,23.69482,-2.59325,0.73929,0.85275
451.005,23.71666,-2.59582,0.73625,0.85225
451.705,23.7385,-2.59895,0.73228,0.85174
452.405,23.76055,-2.60214,0.72882,0.85123
453.105,23.78259,-2.60505,0.7247,0.85073
453.805,23.80475,-2.60762,0.72206,0.85022
454.505,23.82688,-2.61103,0.71934,0.84971
455.205,23.8489,-2.61414,0.71651,0.8492
455.905,23.87079,-2.61662,0.71582,0.84869
456.605,23.8928,-2.61872,0.71215,0.84818
457.305,23.9148,-2.61994,0.70853,0.84767
458.005,23.93685,-2.62138,0.70484,0.84717
458.705,23.95895,-2.62259,0.70411,0.84666
459.405,23.98099,-2.62687,0.70213,0.84615
460.105,24.003,-2.63061,0.69761,0.84563
460.805,24.02505,-2.63284,0.69417,0.84512
461.505,24.0471,-2.63467,0.69203,0.84461
462.205,24.06915,-2.63678,0.6898,0.8441
462.905,24.0912,-2.63912,0.68826,0.84359
463.605,24.11329,-2.64113,0.68547,0.84308
464.305,24.1354,-2.64302,0.68411,0.84256
465.005,24.1574,-2.64448,0.68101,0.84205
465.705,24.1795,-2.64502,0.67833,0.84154
466.405,24.20158,-2.6472,0.6758,0.84102
467.105,24.2237,-2.64907,0.67149,0.84051
467.805,24.2458,-2.6506,0.66828,0.84
468.505,24.26793,-2.65241,0.67017,0.83948
469.205,24.28996,-2.65576,0.66684,0.83897
469.905,24.31202,-2.65787,0.66437,0.83845
470.605,24.33408,-2.66008,0.66244,0.83794
471.305,24.35615,-2.66096,0.66106,0.83742
472.005,24.3783,-2.6626,0.65889,0.8369
472.705,24.40045,-2.66365,0.65667,0.83639
473.405,24.42258,-2.66528,0.6562,0.83587
474.105,24.44473,-2.66744,0.65457,0.83535
474.805,24.46688,-2.66905,0.65532,0.83484
475.505,24.4891,-2.67234,0.65012,0.83432
476.205,24.51125,-2.67438,0.65332,0.8338
476.905,24.5334,-2.6763,0.65328,0.83328
477.605,24.55548,-2.67691,0.65122,0.83276
478.305,24.5776,-2.67889,0.64929,0.83224
479.005,24.59967,-2.68084,0.65009,0.83173
479.705,24.62182,-2.68277,0.65065,0.83121
480.405,24.64401,-2.68449,0.6533,0.83069
481.105,24.6662,-2.68649,0.65602,0.83017
481.805,24.68838,-2.68831,0.6574,0.82965
482.505,24.71058,-2.68981,0.66016,0.82912
483.205,24.73276,-2.6918,0.6603,0.8286
483.905,24.7549,-2.69357,0.66237,0.82808
484.605,24.7772,-2.69543,0.66227,0.82756
485.305,24.79936,-2.69728,0.66065,0.82704
486.005,24.82157,-2.69938,0.65886,0.82652
486.705,24.84369,-2.70104,0.65827,0.82599
487.405,24.86579,-2.70276,0.656,0.82547
488.105,24.8879,-2.70468,0.6532,0.82495
488.805,24.91004,-2.7063,0.65279,0.82442
489.505,24.93225,-2.70699,0.6509,0.8239
490.205,24.9544,-2.70926,0.64936,0.82338
490.905,24.9766,-2.71136,0.64384,0.82285
491.605,24.99888,-2.71274,0.64207,0.82233
492.305,25.02113,-2.71462,0.641,0.8218
493.005,25.04345,-2.71658,0.63677,0.82128
493.705,25.06588,-2.71862,0.63603,0.82075
494.405,25.08823,-2.71985,0.63286,0.82023
495.105,25.1106,-2.72142,0.63139,0.8197
495.805,25.13297,-2.72247,0.62868,0.81917
496.505,25.1552,-2.7251,0.62832,0.81865
497.205,25.17742,-2.72755,0.62729,0.81812
497.905,25.19975,-2.72833,0.62439,0.81759
498.605,25.22203,-2.72897,0.62245,0.81706
499.305,25.2444,-2.72943,0.62093,0.81654
500.005,25.26672,-2.73104,0.6191,0.81601
500.705,25.289,-2.73261,0.61952,0.81548
501.405,25.3113,-2.7318,0.61468,0.81495
502.105,25.33352,-2.7328,0.61618,0.81442
502.805,25.35575,-2.73403,0.61698,0.81389
503.505,25.378,-2.73501,0.61535,0.81336
504.205,25.40033,-2.7366,0.6135,0.81283
504.905,25.42266,-2.73818,0.61254,0.8123
505.605,25.44501,-2.73972,0.61243,0.81177
506.305,25.46741,-2.7409,0.61028,0.81124
507.005,25.48975,-2.7426,0.61143,0.81071
507.705,25.51216,-2.74403,0.60808,0.81018
508.405,25.53455,-2.74665,0.60831,0.80965
509.105,25.55684,-2.74771,0.60733,0.80912
509.805,25.57924,-2.74788,0.60581,0.80859
510.505,25.6016,-2.74925,0.60544,0.80805
511.205,25.6239,-2.75013,0.6039,0.80752
511.905,25.64635,-2.75081,0.60311,0.80699
512.605,25.66866,-2.75247,0.60335,0.80646
513.305,25.691,-2.75424,0.60142,0.80592
514.005,25.71341,-2.75718,0.59894,0.80539
514.705,25.7358,-2.75862,0.60005,0.80485
515.405,25.75825,-2.75954,0.59746,0.80432
516.105,25.78076,-2.76008,0.59764,0.80379
516.805,25.8032,-2.76148,0.59752,0.80325
517.505,25.82562,-2.76257,0.59835,0.80272
518.205,25.84805,-2.76356,0.59627,0.80218
518.905,25.8704,-2.76465,0.5948,0.80165
519.605,25.8929,-2.76611,0.59407,0.80111
520.305,25.91527,-2.76792,0.59286,0.80057
521.005,25.9377,-2.76946,0.59241,0.80004
521.705,25.96026,-2.7707,0.59146,0.7995
522.405,25.98272,-2.77107,0.5906,0.79897
523.105,26.00524,-2.77244,0.58996,0.79843
523.805,26.02769,-2.77109,0.59076,0.79789
524.505,26.05011,-2.77247,0.58911,0.79735
525.205,26.07255,-2.77348,0.58774,0.79682
525.905,26.09502,-2.7743,0.58856,0.79628
526.605,26.1175,-2.77545,0.58651,0.79574
527.305,26.13995,-2.77714,0.58687,0.7952
528.005,26.16242,-2.77739,0.58677,0.79466
528.705,26.18492,-2.77863,0.58744,0.79413
529.405,26.20737,-2.77881,0.58461,0.79359
530.105,26.22992,-2.78003,0.58568,0.79305
530.805,26.2525,-2.78171,0.58798,0.79251
531.505,26.27495,-2.7819,0.58638,0.79197
532.205,26.29748,-2.78323,0.58427,0.79143
532.905,26.31999,-2.78437,0.58209,0.79089
533.605,26.34248,-2.78567,0.58238,0.79035
534.305,26.365,-2.78617,0.58087,0.78981
535.005,26.38754,-2.7867,0.57986,0.78927
535.705,26.41007,-2.78818,0.58013,0.78872
536.405,26.4326,-2.78975,0.57997,0.78818
537.105,26.45515,-2.79095,0.57848,0.78764
537.805,26.47774,-2.79117,0.57652,0.7871
538.505,26.50031,-2.79277,0.57613,0.78656
539.205,26.5229,-2.79416,0.57718,0.78601
539.905,26.54542,-2.79442,0.57577,0.78547
540.605,26.56798,-2.79565,0.57455,0.78493
541.305,26.59058,-2.79568,0.5759,0.78439
542.005,26.6131,-2.797,0.57785,0.78384
542.705,26.6357,-2.79695,0.57693,0.7833
543.405,26.6583,-2.79696,0.57706,0.78276
544.105,26.6809,-2.79806,0.57518,0.78221
544.805,26.7035,-2.79798,0.57423,0.78167
545.505,26.72611,-2.79869,0.57316,0.78112
546.205,26.74871,-2.79893,0.57303,0.78058
546.905,26.77127,-2.80056,0.57616,0.78003
547.605,26.7938,-2.80053,0.5749,0.77949
548.305,26.81643,-2.80193,0.57128,0.77894
549.005,26.83904,-2.80111,0.57322,0.7784
549.705,26.8616,-2.8022,0.57181,0.77785
550.405,26.8842,-2.80249,0.57071,0.77731
551.105,26.9069,-2.80357,0.57242,0.77676
551.805,26.9294,-2.80421,0.57212,0.77621
552.505,26.9521,-2.80491,0.57311,0.77567
553.205,26.9748,-2.80606,0.57358,0.77512
553.905,26.99745,-2.80624,0.57149,0.77457
554.605,27.0202,-2.80763,0.57516,0.77403
555.305,27.04285,-2.80761,0.57396,0.77348
556.005,27.0655,-2.80796,0.57346,0.77293
556.705,27.08817,-2.80892,0.57325,0.77238
557.405,27.1108,-2.80897,0.57486,0.77184
558.105,27.1334,-2.8103,0.57553,0.77129
558.805,27.15602,-2.81097,0.57406,0.77074
559.505,27.1787,-2.81175,0.57488,0.77019
560.205,27.20137,-2.8132,0.57419,0.76964
560.905,27.22403,-2.81437,0.5756,0.76909
561.605,27.2467,-2.81524,0.57512,0.76854
562.305,27.26933,-2.81638,0.57602,0.768
563.005,27.292,-2.81775,0.57667,0.76745
563.705,27.31468,-2.81765,0.57658,0.7669
564.405,27.3374,-2.81895,0.57844,0.76635
565.105,27.3602,-2.81902,0.57765,0.7658
565.805,27.3829,-2.81895,0.57799,0.76525
566.505,27.4056,-2.82038,0.57855,0.76469
567.205,27.4283,-2.82045,0.57747,0.76414
567.905,27.4511,-2.82171,0.57764,0.76359
568.605,27.47382,-2.82222,0.57792,0.76304
569.305,27.4966,-2.82333,0.57916,0.76249
570.005,27.5193,-2.8233,0.58234,0.76194
570.705,27.54209,-2.82471,0.58082,0.76139
571.405,27.56483,-2.82463,0.57983,0.76084
572.105,27.5876,-2.82483,0.57958,0.76028
572.805,27.6103,-2.82591,0.57907,0.75973
573.505,27.63305,-2.82698,0.57828,0.75918
574.205,27.6558,-2.82746,0.57947,0.75863
574.905,27.67857,-2.82747,0.57934,0.75807
575.605,27.70133,-2.82748,0.57885,0.75752
576.305,27.7241,-2.82888,0.57738,0.75697
577.005,27.74683,-2.82879,0.57885,0.75641
577.705,27.7695,-2.82878,0.57954,0.75586
578.405,27.7923,-2.82998,0.57994,0.75531
579.105,27.81503,-2.83011,0.57948,0.75475
579.805,27.83786,-2.83033,0.57888,0.7542
580.505,27.8607,-2.83092,0.5805,0.75364
581.205,27.88355,-2.83096,0.58072,0.75309
581.905,27.90632,-2.83153,0.58143,0.75254
582.605,27.9291,-2.83218,0.58124,0.75198
583.305,27.95181,-2.83284,0.58126,0.75143
584.005,27.97467,-2.83303,0.58356,0.75087
584.705,27.9975,-2.83318,0.58361,0.75032
585.405,28.02035,-2.83318,0.58316,0.74976
586.105,28.04321,-2.83319,0.58467,0.74921
586.805,28.06601,-2.83357,0.58322,0.74865
587.505,28.08887,-2.83462,0.58121,0.74809
588.205,28.11165,-2.83547,0.58189,0.74754
588.905,28.13447,-2.83591,0.5828,0.74698
589.605,28.15731,-2.83586,0.58505,0.74642
590.305,28.18014,-2.83725,0.58456,0.74587
591.005,28.203,-2.83796,0.58384,0.74531
591.705,28.2258,-2.83957,0.58501,0.74475
592.405,28.24863,-2.83987,0.58708,0.7442
593.105,28.27148,-2.84043,0.58797,0.74364
593.805,28.2944,-2.84118,0.58713,0.74308
594.505,28.3172,-2.84166,0.58624,0.74253
595.205,28.34,-2.84145,0.5886,0.74197
595.905,28.36272,-2.84136,0.58982,0.74141
596.605,28.3856,-2.84278,0.59193,0.74085
597.305,28.4085,-2.84532,0.59175,0.74029
598.005,28.4314,-2.84545,0.59355,0.73974
598.705,28.45423,-2.84685,0.59405,0.73918
599.405,28.477,-2.84681,0.59375,0.73862
600.105,28.49985,-2.84783,0.59461,0.73806
600.805,28.5227,-2.84811,0.59664,0.7375
601.505,28.5458,-2.84814,0.598,0.73694
602.205,28.5687,-2.84906,0.5992,0.73638
602.905,28.5915,-2.84943,0.60123,0.73582
603.605,28.61437,-2.8495,0.60086,0.73526
604.305,28.6372,-2.85078,0.60327,0.7347
605.005,28.66,-2.85074,0.60518,0.73414
605.705,28.6829,-2.85074,0.60702,0.73358
606.405,28.7058,-2.85065,0.61295,0.73302
607.105,28.7287,-2.85207,0.61454,0.73246
607.805,28.7516,-2.85207,0.6195,0.7319
608.505,28.7745,-2.85215,0.62235,0.73134
609.205,28.79744,-2.85342,0.62319,0.73078
609.905,28.8203,-2.85339,0.62352,0.73022
610.605,28.8431,-2.85335,0.62641,0.72966
611.305,28.8659,-2.85455,0.63022,0.7291
612.005,28.8888,-2.8547,0.62991,0.72854
612.705,28.91171,-2.8549,0.63244,0.72798
613.405,28.9346,-2.85603,0.63289,0.72742
614.105,28.9576,-2.85604,0.63506,0.72685
614.805,28.98048,-2.85706,0.63579,0.72629
615.505,29.0034,-2.85701,0.63922,0.72573
616.205,29.0264,-2.85736,0.64162,0.72517
616.905,29.0493,-2.85932,0.64408,0.72461
617.605,29.07222,-2.86107,0.64571,0.72404
618.305,29.09512,-2.8624,0.6445,0.72348
619.005,29.118,-2.86294,0.64718,0.72292
619.705,29.14088,-2.86369,0.6493,0.72236
620.405,29.1638,-2.86361,0.65015,0.72179
621.105,29.1867,-2.86499,0.65211,0.72123
621.805,29.20972,-2.86501,0.65386,0.72067
622.505,29.2326,-2.86501,0.65315,0.7201
623.205,29.2556,-2.86501,0.65574,0.71954
623.905,29.27845,-2.86503,0.6562,0.71898
624.605,29.3014,-2.86366,0.65617,0.71841
625.305,29.32439,-2.86396,0.65573,0.71785
626.005,29.34735,-2.86515,0.65895,0.71729
626.705,29.37029,-2.86513,0.65922,0.71672
627.405,29.39322,-2.8652,0.65997,0.71616
628.105,29.41617,-2.86373,0.66213,0.7156
628.805,29.43911,-2.86557,0.66117,0.71503
629.505,29.4621,-2.86765,0.66249,0.71447
630.205,29.48507,-2.86821,0.66269,0.7139
630.905,29.508,-2.86876,0.66535,0.71334
631.605,29.53097,-2.8696,0.6668,0.71277
632.305,29.5539,-2.87072,0.66655,0.71221
633.005,29.5768,-2.87105,0.666,0.71164
633.705,29.59975,-2.87106,0.66852,0.71108
634.405,29.6227,-2.87106,0.66792,0.71051
635.105,29.6456,-2.87107,0.66776,0.70995
635.805,29.66855,-2.87167,0.66646,0.70938
636.505,29.6915,-2.87236,0.6683,0.70882
637.205,29.71449,-2.87238,0.66933,0.70825
637.905,29.73749,-2.87289,0.66948,0.70769
638.605,29.7605,-2.87373,0.66817,0.70712
639.305,29.7835,-2.87478,0.67072,0.70656
640.005,29.80647,-2.87436,0.66932,0.70599
640.705,29.8295,-2.87435,0.67044,0.70542
641.405,29.8524,-2.87501,0.67184,0.70486
642.105,29.87538,-2.87565,0.67409,0.70429
642.805,29.8983,-2.87568,0.67317,0.70372
643.505,29.92128,-2.8765,0.6722,0.70316
644.205,29.9443,-2.87664,0.67253,0.70259
644.905,29.9673,-2.87614,0.67297,0.70202
645.605,29.99033,-2.87503,0.67373,0.70146
646.305,30.0133,-2.87536,0.67223,0.70089
647.005,30.0362,-2.87633,0.67334,0.70032
647.705,30.05913,-2.87819,0.67235,0.69976
648.405,30.0822,-2.88042,0.6767,0.69919
649.105,30.10527,-2.88199,0.67622,0.69862
649.805,30.1283,-2.88191,0.67461,0.69806
650.505,30.15127,-2.88078,0.67481,0.69749
651.205,30.17424,-2.8806,0.67514,0.69692
651.905,30.19721,-2.88058,0.67386,0.69635
652.605,30.2202,-2.88302,0.67336,0.69579
653.305,30.24325,-2.88324,0.67185,0.69522
654.005,30.26635,-2.88324,0.67433,0.69465
654.705,30.28936,-2.88324,0.67318,0.69408
655.405,30.3124,-2.88318,0.67247,0.69351
656.105,30.3354,-2.88453,0.67019,0.69295
656.805,30.3584,-2.88485,0.67041,0.69238
657.505,30.3814,-2.88449,0.67159,0.69181
658.205,30.4045,-2.88456,0.6701,0.69124
658.905,30.4275,-2.88457,0.66946,0.69067
659.605,30.4505,-2.88446,0.67024,0.69011
660.305,30.4736,-2.88314,0.66984,0.68954
661.005,30.4966,-2.88475,0.66686,0.68897
661.705,30.51973,-2.88657,0.66884,0.6884
662.405,30.54275,-2.88654,0.66946,0.68783
663.105,30.56578,-2.88653,0.66585,0.68726
663.805,30.58874,-2.88654,0.666,0.68669
664.505,30.6117,-2.88769,0.66583,0.68612
665.205,30.63474,-2.88787,0.66368,0.68556
665.905,30.65767,-2.88843,0.66528,0.68499
666.605,30.6807,-2.88849,0.66332,0.68442
667.305,30.70373,-2.8893,0.66468,0.68385
668.005,30.72672,-2.88841,0.66528,0.68328
668.705,30.7499,-2.88916,0.66292,0.68271
669.405,30.77295,-2.88917,0.66103,0.68214
670.105,30.7959,-2.88917,0.6621,0.68157
670.805,30.81891,-2.89057,0.66103,0.681
671.505,30.84188,-2.8906,0.66017,0.68043
672.205,30.86498,-2.89062,0.65991,0.67986
672.905,30.8882,-2.89176,0.65893,0.67929
673.605,30.9113,-2.89318,0.65659,0.67872
674.305,30.9344,-2.8943,0.65738,0.67815
675.005,30.95748,-2.89455,0.65644,0.67758
675.705,30.9805,-2.89455,0.65418,0.67701
676.405,31.00361,-2.89459,0.65433,0.67644
677.105,31.02673,-2.89603,0.65179,0.67587
677.805,31.04983,-2.89637,0.65193,0.6753
678.505,31.07286,-2.89726,0.65116,0.67473
679.205,31.09575,-2.89729,0.65051,0.67416
679.905,31.11875,-2.89729,0.64896,0.67359
680.605,31.1418,-2.89882,0.64795,0.67302
681.305,31.1649,-2.89873,0.6466,0.67245
682.005,31.18817,-2.89876,0.64558,0.67188
682.705,31.2112,-2.89879,0.64521,0.67131
683.405,31.23435,-2.89871,0.64164,0.67074
684.105,31.2575,-2.89884,0.63917,0.67017
684.805,31.2806,-2.89928,0.634,0.6696
685.505,31.30377,-2.90011,0.63477,0.66903
686.205,31.32687,-2.9001,0.63513,0.66845
686.905,31.34998,-2.9016,0.63558,0.66788
687.605,31.3731,-2.90157,0.6326,0.66731
688.305,31.39616,-2.90156,0.6299,0.66674
689.005,31.41931,-2.90158,0.6259,0.66617
689.705,31.4425,-2.90298,0.62384,0.6656
690.405,31.46558,-2.90415,0.62098,0.66503
691.105,31.48872,-2.90432,0.61949,0.66446
691.805,31.5118,-2.9042,0.61963,0.66389
692.505,31.5349,-2.90296,0.61653,0.66332
693.205,31.558,-2.90324,0.61562,0.66274
693.905,31.58111,-2.90441,0.61236,0.66217
694.605,31.60427,-2.9047,0.60759,0.6616
695.305,31.62742,-2.90578,0.60548,0.66103
696.005,31.6506,-2.90697,0.6043,0.66046
696.705,31.6738,-2.90728,0.60242,0.65989
697.405,31.69691,-2.90738,0.59945,0.65932
698.105,31.7201,-2.9067,0.59873,0.65874
698.805,31.74322,-2.90728,0.59502,0.65817
699.505,31.7664,-2.90729,0.59344,0.6576
700.205,31.7896,-2.90729,0.58988,0.65703
700.905,31.8128,-2.90658,0.5911,0.65646
701.605,31.83597,-2.90728,0.58877,0.65589
702.305,31.8592,-2.90794,0.58936,0.65531
703.005,31.88233,-2.90859,0.588,0.65474
703.705,31.90553,-2.9086,0.58643,0.65417
704.405,31.9287,-2.9086,0.58487,0.6536
705.105,31.95184,-2.90882,0.58199,0.65303
705.805,31.9751,-2.91155,0.58116,0.65246
706.505,31.99827,-2.91088,0.57719,0.65188
707.205,32.0215,-2.91016,0.57822,0.65131
707.905,32.0447,-2.91042,0.57613,0.65074
708.605,32.06792,-2.91169,0.5761,0.65017
709.305,32.09122,-2.91307,0.57468,0.6496
710.005,32.11445,-2.91301,0.57351,0.64902
710.705,32.1376,-2.91352,0.57119,0.64845
711.405,32.16082,-2.9143,0.57357,0.64788
712.105,32.18396,-2.91508,0.57154,0.64731
712.805,32.2072,-2.91426,0.56944,0.64674
713.505,32.2304,-2.91432,0.56834,0.64616
714.205,32.25358,-2.91474,0.56727,0.64559
714.905,32.27684,-2.91585,0.56712,0.64502
715.605,32.30005,-2.91721,0.56296,0.64445
716.305,32.32331,-2.91718,0.56064,0.64388
717.005,32.34652,-2.91717,0.56182,0.6433
717.705,32.3697,-2.91717,0.55953,0.64273
718.405,32.39288,-2.91717,0.55855,0.64216
719.105,32.41608,-2.91718,0.5572,0.64159
719.805,32.43936,-2.91751,0.5569,0.64102
720.505,32.46266,-2.91925,0.55399,0.64044
721.205,32.48594,-2.91987,0.55497,0.63987
721.905,32.5092,-2.92068,0.55335,0.6393
722.605,32.53246,-2.92074,0.54905,0.63873
723.305,32.5557,-2.91932,0.54924,0.63815
724.005,32.579,-2.92057,0.54801,0.63758
724.705,32.60219,-2.91993,0.54674,0.63701
725.405,32.62539,-2.91991,0.5474,0.63644
726.105,32.64861,-2.91991,0.5441,0.63587
726.805,32.67185,-2.91992,0.54463,0.63529
727.505,32.69513,-2.92022,0.54508,0.63472
728.205,32.71848,-2.92145,0.54254,0.63415
728.905,32.74178,-2.92145,0.53953,0.63358
729.605,32.76501,-2.92296,0.53844,0.633
730.305,32.78826,-2.92434,0.536,0.63243
731.005,32.81149,-2.92442,0.5354,0.63186
731.705,32.83477,-2.92441,0.53255,0.63129
732.405,32.85808,-2.92442,0.53271,0.63072
733.105,32.88142,-2.92526,0.5311,0.63014
733.805,32.90482,-2.92572,0.52994,0.62957
734.505,32.92815,-2.92573,0.52843,0.629
735.205,32.95143,-2.92574,0.52796,0.62843
735.905,32.9747,-2.92601,0.52789,0.62785
736.605,32.99798,-2.92728,0.52628,0.62728
737.305,33.02125,-2.92772,0.52262,0.62671
738.005,33.04468,-2.92787,0.52592,0.62614
738.705,33.068,-2.92759,0.52461,0.62557
739.405,33.09135,-2.92766,0.52102,0.62499
740.105,33.11473,-2.92822,0.52223,0.62442
740.805,33.1379,-2.92925,0.51952,0.62385
741.505,33.16121,-2.92924,0.51585,0.62328
742.205,33.1845,-2.92926,0.51657,0.62271
742.905,33.2078,-2.92981,0.50935,0.62213
743.605,33.23111,-2.9293,0.50867,0.62156
744.305,33.25442,-2.92935,0.50985,0.62099
745.005,33.27774,-2.92935,0.50827,0.62042
745.705,33.30107,-2.92942,0.50533,0.61985
746.405,33.32435,-2.93071,0.50436,0.61927
747.105,33.34763,-2.93066,0.50222,0.6187
747.805,33.37093,-2.93066,0.5011,0.61813
748.505,33.39438,-2.93057,0.49778,0.61756
749.205,33.41791,-2.93197,0.49653,0.61699
749.905,33.44133,-2.93198,0.49886,0.61641
750.605,33.46483,-2.93198,0.49648,0.61584
751.305,33.4882,-2.93198,0.49519,0.61527
752.005,33.51157,-2.93217,0.49245,0.6147
752.705,33.53499,-2.93331,0.49322,0.61413
753.405,33.55832,-2.9333,0.49033,0.61355
754.105,33.5816,-2.9333,0.48866,0.61298
754.805,33.60496,-2.9333,0.48706,0.61241
755.505,33.6282,-2.9333,0.48548,0.61184
756.205,33.65152,-2.9333,0.48455,0.61127
756.905,33.67488,-2.93325,0.48412,0.6107
757.605,33.6982,-2.93468,0.47911,0.61012
758.305,33.72153,-2.93561,0.47986,0.60955
759.005,33.74487,-2.93485,0.47988,0.60898
759.705,33.76818,-2.93495,0.47993,0.60841
760.405,33.79152,-2.93495,0.47849,0.60784
761.105,33.81477,-2.93502,0.47389,0.60727
761.805,33.8381,-2.9364,0.47206,0.6067
762.505,33.8614,-2.93638,0.4724,0.60612
763.205,33.88475,-2.93638,0.47174,0.60555
763.905,33.9081,-2.93639,0.46995,0.60498
764.605,33.93156,-2.93699,0.47039,0.60441
765.305,33.955,-2.93651,0.4697,0.60384
766.005,33.97844,-2.93788,0.46942,0.60327
766.705,34.00189,-2.93908,0.46774,0.6027
767.405,34.0252,-2.9393,0.46381,0.60213
768.105,34.04853,-2.93961,0.46309,0.60156
768.805,34.07185,-2.93955,0.4607,0.60098
769.505,34.09505,-2.93936,0.46179,0.60041
770.205,34.11838,-2.93923,0.4599,0.59984
770.905,34.14182,-2.93923,0.45883,0.59927
771.605,34.1652,-2.93923,0.45754,0.5987
772.305,34.18873,-2.93923,0.45564,0.59813
773.005,34.212,-2.93918,0.45437,0.59756
773.705,34.23536,-2.93911,0.45276,0.59699
774.405,34.25874,-2.93943,0.45193,0.59642
775.105,34.28215,-2.94078,0.45123,0.59585
775.805,34.3057,-2.9396,0.44849,0.59528
776.505,34.32893,-2.93922,0.44775,0.59471
777.205,34.35221,-2.9406,0.44796,0.59414
777.905,34.37546,-2.94054,0.44587,0.59357
778.605,34.39873,-2.93993,0.44301,0.593
779.305,34.42203,-2.93925,0.44257,0.59243
780.005,34.4454,-2.93924,0.43949,0.59186
780.705,34.46877,-2.93924,0.44061,0.59129
781.405,34.49216,-2.93924,0.4407,0.59072
782.105,34.51554,-2.93928,0.44014,0.59015
782.805,34.53895,-2.94197,0.43841,0.58958
783.505,34.56228,-2.94261,0.43882,0.58901
784.205,34.5856,-2.94326,0.43903,0.58844
784.905,34.60906,-2.94328,0.4407,0.58787
785.605,34.6325,-2.94481,0.43559,0.5873
786.305,34.65605,-2.94601,0.43505,0.58673
787.005,34.6796,-2.94615,0.43649,0.58616
787.705,34.70306,-2.94615,0.43634,0.58559
788.405,34.72647,-2.94615,0.43401,0.58502
789.105,34.7498,-2.94614,0.43352,0.58445
789.805,34.7733,-2.94638,0.43192,0.58388
790.505,34.79667,-2.94615,0.43193,0.58331
791.205,34.82008,-2.94614,0.43444,0.58274
791.905,34.84345,-2.94611,0.43205,0.58217
792.605,34.8668,-2.94652,0.43018,0.5816
793.305,34.8902,-2.94615,0.43062,0.58103
794.005,34.91369,-2.94615,0.43098,0.58046
794.705,34.93712,-2.94615,0.43262,0.5799
795.405,34.96058,-2.9476,0.42783,0.57933
796.105,34.98403,-2.94622,0.42806,0.57876
796.505,34.9974,-2.94627,0.42715,0.57843