File: 01_Data/Bean_Bag_Chair_Beads/STA/N2/30K_min/Bean_Bag_Chair_Beads_STA_N2_30KData_220519_R3.csv
##Temp./Â°C,Time/min,Mass loss(subtr.2)/mg,DSC(subtr.2)/(mW/mg),Sensit./(uV/mW)
48.646,10.00667,0.01152,-0.00893657,1.05399
49.146,10.5078,0.01125457,0.02156249,1.05389
49.646,10.62122,0.01043834,0.05231762,1.05378
50.146,10.69963,0.00975875,0.0771413,1.05368
50.646,10.76407,0.009809563,0.09937121,1.05358
51.146,10.82002,0.01065001,0.12303,1.05348
51.646,10.86915,0.01076869,0.14446,1.05337
52.146,10.9138,0.01109332,0.16448,1.05327
52.646,10.95525,0.01048728,0.1828,1.05316
53.146,10.99382,0.009779745,0.19882,1.05306
53.646,11.03032,0.01062578,0.21687,1.05295
54.146,11.06505,0.01121634,0.23448,1.05285
54.646,11.0982,0.01018841,0.24824,1.05274
55.146,11.13,0.01042863,0.2616,1.05263
55.646,11.16044,0.01081874,0.27713,1.05253
56.146,11.18958,0.01159541,0.29106,1.05242
56.646,11.2179,0.01054495,0.3055,1.05231
57.146,11.24568,0.01058743,0.31697,1.0522
57.646,11.2729,0.01004395,0.32906,1.05209
58.146,11.29919,0.009936351,0.34096,1.05198
58.646,11.32431,0.01052084,0.35252,1.05187
59.146,11.34885,0.01062518,0.36312,1.05176
59.646,11.37347,0.01053021,0.37536,1.05165
60.146,11.39841,0.01125532,0.38459,1.05154
60.646,11.42285,0.01167654,0.39624,1.05143
61.146,11.44638,0.01155619,0.40361,1.05132
61.646,11.46924,0.01111591,0.41246,1.0512
62.146,11.49196,0.01128332,0.42298,1.05109
62.646,11.51435,0.01184812,0.43279,1.05098
63.146,11.53663,0.01220114,0.44148,1.05086
63.646,11.55848,0.01171306,0.44803,1.05075
64.146,11.58029,0.01124288,0.45713,1.05063
64.646,11.60175,0.01130791,0.46726,1.05052
65.146,11.62305,0.0109256,0.47487,1.0504
65.646,11.64407,0.0103555,0.48022,1.05029
66.146,11.6646,0.01035302,0.48734,1.05017
66.646,11.6851,0.01081399,0.49523,1.05005
67.146,11.70539,0.01095834,0.50338,1.04993
67.646,11.72562,0.01075711,0.50829,1.04982
68.146,11.74595,0.01083683,0.51678,1.0497
68.646,11.76605,0.01109433,0.52221,1.04958
69.146,11.78594,0.01114837,0.52834,1.04946
69.646,11.80567,0.01155325,0.53651,1.04934
70.146,11.82535,0.01172641,0.54063,1.04922
70.646,11.84477,0.01182648,0.54859,1.0491
71.146,11.86416,0.01149406,0.55327,1.04898
71.646,11.88338,0.01125822,0.5585,1.04886
72.146,11.9025,0.01139982,0.56477,1.04873
72.646,11.9216,0.01070748,0.56936,1.04861
73.146,11.94057,0.0103013,0.576,1.04849
73.646,11.9594,0.01155346,0.58179,1.04836
74.146,11.97834,0.01131499,0.58558,1.04824
74.646,11.9971,0.01136103,0.59098,1.04812
75.146,12.01569,0.01128878,0.59936,1.04799
75.646,12.0343,0.01170501,0.60216,1.04787
76.146,12.05274,0.01161193,0.60797,1.04774
76.646,12.0713,0.01137541,0.61405,1.04761
77.146,12.08975,0.01285837,0.61884,1.04749
77.646,12.10816,0.01222963,0.62127,1.04736
78.146,12.12646,0.01308905,0.62717,1.04723
78.646,12.14455,0.01272561,0.63415,1.04711
79.146,12.1626,0.01227163,0.63632,1.04698
79.646,12.18061,0.01257357,0.64183,1.04685
80.146,12.19855,0.01168551,0.64953,1.04672
80.646,12.2166,0.01230398,0.6522,1.04659
81.146,12.23447,0.01187527,0.65837,1.04646
81.646,12.25239,0.01160412,0.66353,1.04633
82.146,12.2703,0.01204619,0.6673,1.0462
82.646,12.2881,0.01207557,0.67152,1.04607
83.146,12.30593,0.01177207,0.67887,1.04593
83.646,12.32352,0.01243717,0.68541,1.0458
84.146,12.34121,0.01196503,0.68955,1.04567
84.646,12.35886,0.01310158,0.69505,1.04554
85.146,12.37645,0.01304408,0.7015,1.0454
85.646,12.39401,0.01331324,0.70785,1.04527
86.146,12.41146,0.0133317,0.71305,1.04513
86.646,12.42884,0.01182622,0.72042,1.045
87.146,12.44623,0.01308311,0.72195,1.04486
87.646,12.46358,0.01171597,0.72495,1.04473
88.146,12.48091,0.01253724,0.72918,1.04459
88.646,12.49824,0.01185458,0.73161,1.04445
89.146,12.51557,0.01189174,0.73213,1.04432
89.646,12.53289,0.01247226,0.73106,1.04418
90.146,12.55015,0.01176084,0.73119,1.04404
90.646,12.5674,0.01176005,0.7291,1.0439
91.146,12.58458,0.01055216,0.72739,1.04376
91.646,12.60173,0.01154477,0.72482,1.04363
92.146,12.6189,0.0117384,0.72259,1.04349
92.646,12.63596,0.01173938,0.72006,1.04335
93.146,12.65291,0.01173574,0.71754,1.0432
93.646,12.66997,0.01064348,0.71507,1.04306
94.146,12.68699,0.01176258,0.71345,1.04292
94.646,12.70402,0.0117441,0.71244,1.04278
95.146,12.721,0.01138142,0.71226,1.04264
95.646,12.73798,0.01188744,0.71114,1.0425
96.146,12.75486,0.01185925,0.71046,1.04235
96.646,12.77158,0.01185997,0.71314,1.04221
97.146,12.78839,0.01186,0.71531,1.04206
97.646,12.80533,0.01186007,0.71696,1.04192
98.146,12.82226,0.01185713,0.72224,1.04177
98.646,12.83933,0.01159132,0.72513,1.04163
99.146,12.85643,0.01154759,0.72664,1.04148
99.646,12.87319,0.0118495,0.72955,1.04134
100.146,12.88998,0.01184524,0.73371,1.04119
100.646,12.90673,0.01151502,0.73904,1.04104
101.146,12.92351,0.01080275,0.74527,1.0409
101.646,12.94036,0.01185604,0.74998,1.04075
102.146,12.9572,0.01185944,0.75516,1.0406
102.646,12.9741,0.01185728,0.76374,1.04045
103.146,12.99092,0.01150829,0.76991,1.0403
103.646,13.00775,0.01134583,0.77652,1.04015
104.146,13.0245,0.01185168,0.78391,1.04
104.646,13.04125,0.0118601,0.79141,1.03985
105.146,13.05803,0.01185674,0.79997,1.0397
105.646,13.07479,0.01194378,0.80745,1.03955
106.146,13.0915,0.01277448,0.8126,1.0394
106.646,13.10825,0.01187148,0.82249,1.03925
107.146,13.12491,0.01186051,0.82752,1.03909
107.646,13.14158,0.01185953,0.83315,1.03894
108.146,13.15828,0.01184759,0.84304,1.03879
108.646,13.175,0.01098714,0.84654,1.03863
109.146,13.1917,0.01137559,0.85434,1.03848
109.646,13.2084,0.01184508,0.86141,1.03832
110.146,13.22511,0.01184976,0.86406,1.03817
110.646,13.2418,0.01185199,0.86743,1.03801
111.146,13.2584,0.01189662,0.87261,1.03786
111.646,13.27505,0.01049295,0.8754,1.0377
112.146,13.29147,0.0105379,0.87833,1.03754
112.646,13.30799,0.01054006,0.88406,1.03739
113.146,13.32465,0.01054002,0.88528,1.03723
113.646,13.34131,0.01053957,0.8892,1.03707
114.146,13.35808,0.01052542,0.89405,1.03691
114.646,13.3749,0.009723814,0.89447,1.03675
115.146,13.3916,0.01050502,0.89677,1.03659
115.646,13.40828,0.01054099,0.90115,1.03643
116.146,13.4249,0.01054004,0.90455,1.03627
116.646,13.4415,0.01054,0.90847,1.03611
117.146,13.45815,0.01054,0.90912,1.03595
117.646,13.4747,0.01054,0.91042,1.03579
118.146,13.49121,0.01054,0.91302,1.03563
118.646,13.50774,0.01054,0.91511,1.03547
119.146,13.5242,0.01053998,0.91741,1.0353
119.646,13.54079,0.01054022,0.9184,1.03514
120.146,13.5573,0.01055388,0.91928,1.03498
120.646,13.57385,0.01126423,0.92247,1.03481
121.146,13.5904,0.01185162,0.9263,1.03465
121.646,13.60687,0.01185039,0.9258,1.03448
122.146,13.6233,0.01049153,0.92806,1.03432
122.646,13.63974,0.01053976,0.92972,1.03415
123.146,13.6562,0.01054007,0.93141,1.03399
123.646,13.67264,0.01054,0.93304,1.03382
124.146,13.68895,0.01054,0.93521,1.03365
124.646,13.7052,0.01053998,0.9369,1.03348
125.146,13.72145,0.01054061,0.93811,1.03332
125.646,13.7378,0.01055956,0.94044,1.03315
126.146,13.7541,0.01123291,0.94279,1.03298
126.646,13.77048,0.01175859,0.9433,1.03281
127.146,13.78691,0.01185596,0.94352,1.03264
127.646,13.8033,0.01065037,0.94694,1.03247
128.146,13.81959,0.01054055,0.94869,1.0323
128.646,13.83564,0.0105399,0.95028,1.03213
129.146,13.8518,0.01054,0.95298,1.03196
129.646,13.868,0.01054,0.95266,1.03179
130.146,13.88442,0.01054,0.95638,1.03162
130.646,13.9009,0.01054,0.95458,1.03144
131.146,13.9175,0.01053974,0.95884,1.03127
131.646,13.93385,0.01054182,0.96144,1.0311
132.146,13.9501,0.01080723,0.9622,1.03092
132.646,13.9663,0.01185467,0.96316,1.03075
133.146,13.9826,0.01184899,0.96366,1.03058
133.646,13.99875,0.01185005,0.96619,1.0304
134.146,14.0149,0.01184756,0.96812,1.03023
134.646,14.0311,0.01168143,0.97073,1.03005
135.146,14.0472,0.0105325,0.97091,1.02987
135.646,14.0634,0.01053872,0.97309,1.0297
136.146,14.0795,0.01053999,0.97428,1.02952
136.646,14.0957,0.01054,0.9782,1.02934
137.146,14.1118,0.01054,0.97869,1.02917
137.646,14.12795,0.01054001,0.97968,1.02899
138.146,14.14401,0.01054039,0.98193,1.02881
138.646,14.16,0.01053986,0.9829,1.02863
139.146,14.176,0.01112187,0.98625,1.02845
139.646,14.19198,0.01137623,0.98778,1.02827
140.146,14.20795,0.01055058,0.98931,1.02809
140.646,14.22381,0.01054081,0.99059,1.02791
141.146,14.2398,0.01054,0.99127,1.02773
141.646,14.25581,0.01053998,0.9936,1.02755
142.146,14.27178,0.01053968,0.99629,1.02737
142.646,14.28778,0.01054609,0.9977,1.02719
143.146,14.30381,0.009828831,0.99997,1.027
143.646,14.31981,0.009219089,1.00056,1.02682
144.146,14.33574,0.009220373,1.00197,1.02664
144.646,14.35171,0.00921999,1.00358,1.02645
145.146,14.36762,0.009220367,1.0054,1.02627
145.646,14.38347,0.00923821,1.00607,1.02609
146.146,14.39935,0.008288206,1.00876,1.0259
146.646,14.41516,0.00790455,1.007,1.02572
147.146,14.431,0.00789655,1.01332,1.02553
147.646,14.44685,0.00790899,1.01546,1.02534
148.146,14.4627,0.009272144,1.01667,1.02516
148.646,14.47858,0.009221551,1.01913,1.02497
149.146,14.4945,0.009219947,1.01859,1.02478
149.646,14.5103,0.009219996,1.01943,1.0246
150.146,14.52617,0.00922,1.02205,1.02441
150.646,14.54204,0.00922,1.02343,1.02422
151.146,14.55783,0.00922,1.02426,1.02403
151.646,14.5736,0.009220001,1.02411,1.02384
152.146,14.5893,0.009220078,1.02913,1.02365
152.646,14.60511,0.009221195,1.02824,1.02346
153.146,14.6209,0.009201394,1.02996,1.02327
153.646,14.6367,0.008007649,1.03571,1.02308
154.146,14.65249,0.007901192,1.0361,1.02289
154.646,14.66828,0.007899913,1.03707,1.0227
155.146,14.6841,0.007899994,1.03732,1.0225
155.646,14.6998,0.0079,1.03853,1.02231
156.146,14.7156,0.007899984,1.04009,1.02212
156.646,14.7313,0.00789968,1.04013,1.02193
157.146,14.747,0.007901576,1.04356,1.02173
157.646,14.7625,0.007335994,1.04533,1.02154
158.146,14.7781,0.006579287,1.04382,1.02134
158.646,14.79365,0.00659009,1.04438,1.02115
159.146,14.8093,0.006590026,1.04688,1.02095
159.646,14.82501,0.006590006,1.04881,1.02076
160.146,14.84084,0.006589928,1.04935,1.02056
160.646,14.85666,0.006585935,1.04996,1.02037
161.146,14.87236,0.006549561,1.0498,1.02017
161.646,14.88804,0.00759356,1.05077,1.01997
162.146,14.9037,0.00758101,1.0522,1.01978
162.646,14.9194,0.007580014,1.05342,1.01958
163.146,14.93501,0.007579998,1.054,1.01938
163.646,14.95065,0.00758,1.05692,1.01918
164.146,14.96626,0.00758,1.05754,1.01898
164.646,14.9819,0.00758,1.05683,1.01878
165.146,14.9975,0.00758,1.05856,1.01858
165.646,15.01314,0.00758,1.05977,1.01838
166.146,15.02878,0.00758,1.05908,1.01818
166.646,15.04446,0.00758,1.05969,1.01798
167.146,15.06005,0.00758,1.0589,1.01778
167.646,15.0757,0.00758,1.06056,1.01758
168.146,15.0913,0.00758,1.05818,1.01738
168.646,15.1069,0.00758,1.05865,1.01717
169.146,15.12244,0.00758,1.06246,1.01697
169.646,15.13795,0.00758,1.06153,1.01677
170.146,15.1535,0.00758,1.06294,1.01656
170.646,15.16898,0.00758,1.06253,1.01636
171.146,15.1845,0.00758,1.06367,1.01615
171.646,15.20002,0.00758,1.06507,1.01595
172.146,15.2156,0.00758,1.06395,1.01574
172.646,15.2312,0.00758001,1.06299,1.01554
173.146,15.2468,0.00757999,1.06182,1.01533
173.646,15.2623,0.007576999,1.06226,1.01513
174.146,15.27774,0.007423911,1.0623,1.01492
174.646,15.29314,0.006587116,1.06376,1.01471
175.146,15.30855,0.006591115,1.06526,1.0145
175.646,15.324,0.006590068,1.06473,1.0143
176.146,15.33932,0.00659,1.06513,1.01409
176.646,15.3545,0.006590035,1.0644,1.01388
177.146,15.3697,0.006591252,1.06324,1.01367
177.646,15.38512,0.00660686,1.06433,1.01346
178.146,15.40056,0.005551566,1.06449,1.01325
178.646,15.41615,0.00588171,1.0635,1.01304
179.146,15.43189,0.006598316,1.06223,1.01283
179.646,15.4476,0.006589758,1.06257,1.01262
180.146,15.4631,0.00658997,1.06187,1.01241
180.646,15.47861,0.00659,1.06592,1.0122
181.146,15.494,0.006590019,1.06596,1.01198
181.646,15.50946,0.006591227,1.06519,1.01177
182.146,15.52485,0.006609531,1.0663,1.01156
182.646,15.5403,0.007260815,1.06676,1.01135
183.146,15.55574,0.0065691,1.06681,1.01113
183.646,15.57112,0.00658899,1.06727,1.01092
184.146,15.58644,0.006589994,1.06684,1.0107
184.646,15.60179,0.00659,1.06837,1.01049
185.146,15.61711,0.00659,1.06733,1.01027
185.646,15.63245,0.00659,1.06777,1.01006
186.146,15.6478,0.00659,1.0692,1.00984
186.646,15.6632,0.006590089,1.07074,1.00963
187.146,15.67849,0.006591184,1.07182,1.00941
187.646,15.69377,0.00658167,1.07317,1.00919
188.146,15.709,0.005431339,1.07387,1.00898
188.646,15.72427,0.005273679,1.07423,1.00876
189.146,15.73955,0.005270043,1.07631,1.00854
189.646,15.75489,0.005269994,1.07717,1.00832
190.146,15.7702,0.00527,1.07822,1.0081
190.646,15.78549,0.00527,1.07832,1.00788
191.146,15.80079,0.00527,1.07892,1.00766
191.646,15.81608,0.00527,1.08021,1.00745
192.146,15.83133,0.005270006,1.08171,1.00722
192.646,15.8466,0.005270006,1.08423,1.007
193.146,15.8619,0.005267469,1.08871,1.00678
193.646,15.8772,0.005209674,1.08776,1.00656
194.146,15.8924,0.006243938,1.09043,1.00634
194.646,15.90768,0.006258051,1.09218,1.00612
195.146,15.923,0.006116757,1.09321,1.0059
195.646,15.9382,0.005935,1.09661,1.00567
196.146,15.95345,0.00592998,1.10188,1.00545
196.646,15.9687,0.00592994,1.1039,1.00523
197.146,15.9839,0.00592883,1.10847,1.005
197.646,15.9991,0.00591961,1.10794,1.00478
198.146,16.01425,0.005190493,1.11373,1.00455
198.646,16.0295,0.00494551,1.11838,1.00433
199.146,16.04475,0.004958264,1.12096,1.0041
199.646,16.06,0.003949289,1.12347,1.00388
200.146,16.07517,0.003624881,1.12544,1.00365
200.646,16.09026,0.003620327,1.13184,1.00342
201.146,16.1054,0.00361997,1.13553,1.0032
201.646,16.12061,0.00362043,1.13745,1.00297
202.146,16.13581,0.003646957,1.14288,1.00274
202.646,16.1511,0.00326645,1.14562,1.00251
203.146,16.16651,0.003289898,1.14964,1.00229
203.646,16.1817,0.00329005,1.15405,1.00206
204.146,16.19699,0.00329,1.15845,1.00183
204.646,16.21216,0.00329,1.16219,1.0016
205.146,16.2273,0.00329,1.16263,1.00137
205.646,16.2425,0.00329,1.16604,1.00114
206.146,16.2577,0.00329,1.16928,1.00091
206.646,16.27286,0.00329,1.17113,1.00068
207.146,16.2881,0.00329,1.17465,1.00045
207.646,16.30329,0.00329,1.1785,1.00022
208.146,16.31846,0.00329,1.18234,0.99998
208.646,16.33364,0.00329,1.18505,0.99975
209.146,16.34881,0.00329,1.18633,0.99952
209.646,16.36393,0.00329,1.18623,0.99929
210.146,16.37916,0.00329,1.18863,0.99905
210.646,16.39436,0.00329,1.1887,0.99882
211.146,16.40952,0.00329,1.19214,0.99859
211.646,16.42471,0.00329,1.19489,0.99835
212.146,16.4399,0.00329,1.19807,0.99812
212.646,16.45504,0.003290703,1.19911,0.99788
213.146,16.47012,0.003308192,1.20273,0.99765
213.646,16.48515,0.002449031,1.2045,0.99741
214.146,16.50031,0.001981306,1.20639,0.99717
214.646,16.5154,0.00198037,1.20548,0.99694
215.146,16.53063,0.001980021,1.20831,0.9967
215.646,16.54591,0.00198,1.2114,0.99646
216.146,16.56126,0.00198,1.21215,0.99623
216.646,16.57646,0.001979995,1.21382,0.99599
217.146,16.59163,0.001979935,1.21424,0.99575
217.646,16.60678,0.001980105,1.21391,0.99551
218.146,16.62193,0.002010408,1.21507,0.99527
218.646,16.63707,0.0008821785,1.21638,0.99503
219.146,16.65221,0.0006644677,1.21794,0.99479
219.646,16.6674,0.0006598725,1.22238,0.99455
220.146,16.68255,0.000660742,1.22195,0.99431
220.646,16.69763,0.000673923,1.22106,0.99407
221.146,16.71275,0.001246326,1.22416,0.99383
221.646,16.72786,0.00196946,1.22511,0.99359
222.146,16.74295,0.001979019,1.22558,0.99335
222.646,16.7581,0.001979937,1.22691,0.99311
223.146,16.77326,0.00197998,1.22816,0.99286
223.646,16.78837,0.001988483,1.22798,0.99262
224.146,16.80334,0.001290116,1.23022,0.99238
224.646,16.81832,0.00104535,1.2314,0.99213
225.146,16.83345,-0.000335293,1.23107,0.99189
225.646,16.8486,-0.00033356,1.23377,0.99165
226.146,16.8638,-0.000330223,1.23268,0.9914
226.646,16.87912,-0.0003300046,1.2339,0.99116
227.146,16.89435,-0.00033,1.23801,0.99091
227.646,16.90946,-0.00033,1.23932,0.99067
228.146,16.92458,-0.00033,1.2408,0.99042
228.646,16.93965,-0.0003300007,1.24005,0.99017
229.146,16.95474,-0.000329945,1.24053,0.98993
229.646,16.96985,-0.000328314,1.23984,0.98968
230.146,16.98495,-0.0003064226,1.2427,0.98943
230.646,17.00005,-0.000991124,1.24167,0.98919
231.146,17.01516,-0.0009917628,1.24288,0.98894
231.646,17.03022,-0.0009901209,1.24442,0.98869
232.146,17.0453,-0.0009900039,1.24412,0.98844
232.646,17.06041,-0.0009899999,1.24623,0.98819
233.146,17.07558,-0.00099,1.24887,0.98794
233.646,17.0907,-0.0009900007,1.25039,0.98769
234.146,17.10579,-0.0009900058,1.25126,0.98744
234.646,17.1209,-0.000989875,1.25245,0.98719
235.146,17.13598,-0.000984524,1.2518,0.98694
235.646,17.15097,-0.0008040478,1.2512,0.98669
236.146,17.16611,-0.0003261419,1.25307,0.98644
236.646,17.18122,-0.000329484,1.25209,0.98619
237.146,17.19633,-0.000298999,1.2548,0.98594
237.646,17.2114,-0.0006807445,1.25742,0.98568
238.146,17.2265,-0.000660152,1.25784,0.98543
238.646,17.24154,-0.000651293,1.25985,0.98518
239.146,17.25659,-0.00131218,1.2616,0.98493
239.646,17.2716,-0.001989551,1.26086,0.98467
240.146,17.28669,-0.001979994,1.26223,0.98442
240.646,17.30176,-0.001979976,1.26177,0.98416
241.146,17.31685,-0.00198,1.26147,0.98391
241.646,17.33192,-0.00198,1.26229,0.98365
242.146,17.34706,-0.00198,1.26308,0.9834
242.646,17.36212,-0.001980001,1.26441,0.98314
243.146,17.37717,-0.001980026,1.26679,0.98289
243.646,17.3922,-0.001980258,1.26828,0.98263
244.146,17.4073,-0.001976534,1.26717,0.98237
244.646,17.42234,-0.00253251,1.26901,0.98212
245.146,17.43744,-0.00330484,1.27216,0.98186
245.646,17.4525,-0.003290322,1.27155,0.9816
246.146,17.46751,-0.003289984,1.27364,0.98134
246.646,17.48254,-0.00329,1.27283,0.98109
247.146,17.49761,-0.003289977,1.27457,0.98083
247.646,17.51269,-0.00328985,1.27472,0.98057
248.146,17.52778,-0.00329523,1.27516,0.98031
248.646,17.54291,-0.003540055,1.27664,0.98005
249.146,17.55797,-0.004290092,1.27721,0.97979
249.646,17.5731,-0.004280074,1.277,0.97953
250.146,17.58813,-0.00427998,1.2777,0.97927
250.646,17.60316,-0.004279992,1.27882,0.97901
251.146,17.6182,-0.004279909,1.27888,0.97875
251.646,17.63328,-0.004279942,1.28065,0.97849
252.146,17.64839,-0.004321796,1.28369,0.97822
252.646,17.66349,-0.005486585,1.28245,0.97796
253.146,17.6786,-0.005111477,1.28361,0.9777
253.646,17.69364,-0.004283485,1.28494,0.97744
254.146,17.70865,-0.004280966,1.28479,0.97717
254.646,17.7237,-0.004279967,1.28718,0.97691
255.146,17.73873,-0.004278937,1.28478,0.97665
255.646,17.75379,-0.00428847,1.28791,0.97638
256.146,17.76891,-0.005433559,1.28834,0.97612
256.646,17.78397,-0.005600991,1.28829,0.97585
257.146,17.79898,-0.005848595,1.29006,0.97559
257.646,17.814,-0.00692925,1.29252,0.97532
258.146,17.82905,-0.006921351,1.29294,0.97506
258.646,17.84406,-0.006920076,1.28985,0.97479
259.146,17.85913,-0.006920002,1.29012,0.97452
259.646,17.87421,-0.006919995,1.29288,0.97426
260.146,17.88924,-0.00691979,1.29364,0.97399
260.646,17.9041,-0.006916217,1.29603,0.97372
261.146,17.919,-0.00688371,1.29511,0.97345
261.646,17.934,-0.008264612,1.29515,0.97319
262.146,17.94899,-0.008243818,1.29596,0.97292
262.646,17.96405,-0.008241399,1.29728,0.97265
263.146,17.97924,-0.008249081,1.2988,0.97238
263.646,17.99446,-0.008996054,1.30053,0.97211
264.146,18.00946,-0.009225723,1.30031,0.97184
264.646,18.02447,-0.00923016,1.30154,0.97157
265.146,18.0395,-0.009232044,1.29993,0.9713
265.646,18.0545,-0.009663825,1.30162,0.97103
266.146,18.0695,-0.01055921,1.30347,0.97076
266.646,18.0845,-0.01054091,1.30429,0.97049
267.146,18.0996,-0.01054002,1.30561,0.97022
267.646,18.1146,-0.01053948,1.30415,0.96995
268.146,18.12977,-0.01052297,1.30489,0.96967
268.646,18.1449,-0.01136273,1.30489,0.9694
269.146,18.15996,-0.01186016,1.30584,0.96913
269.646,18.175,-0.01185968,1.30795,0.96886
270.146,18.19002,-0.01185998,1.30876,0.96858
270.646,18.20502,-0.01186,1.30752,0.96831
271.146,18.22,-0.01186,1.30889,0.96804
271.646,18.23503,-0.01185774,1.30993,0.96776
272.146,18.24995,-0.01180246,1.31162,0.96749
272.646,18.26499,-0.01281372,1.31377,0.96721
273.146,18.28,-0.01284999,1.31097,0.96694
273.646,18.29505,-0.01285008,1.31203,0.96666
274.146,18.31015,-0.01285001,1.31807,0.96638
274.646,18.3253,-0.01285,1.31213,0.96611
275.146,18.34036,-0.01284999,1.31479,0.96583
275.646,18.3554,-0.01284913,1.31529,0.96556
276.146,18.37045,-0.012831,1.31465,0.96528
276.646,18.3855,-0.01373295,1.31792,0.965
277.146,18.40052,-0.01416796,1.31596,0.96472
277.646,18.41553,-0.01416964,1.31659,0.96445
278.146,18.4305,-0.01416998,1.31994,0.96417
278.646,18.4456,-0.01417002,1.31901,0.96389
279.146,18.46063,-0.01416978,1.31764,0.96361
279.646,18.47571,-0.01415689,1.31923,0.96333
280.146,18.49076,-0.01491769,1.3203,0.96305
280.646,18.5058,-0.01602735,1.31953,0.96277
281.146,18.52083,-0.01678162,1.32079,0.96249
281.646,18.5359,-0.01678897,1.32257,0.96221
282.146,18.55094,-0.01678995,1.32266,0.96193
282.646,18.56599,-0.01679,1.32282,0.96165
283.146,18.58106,-0.01678992,1.32409,0.96137
283.646,18.59614,-0.01678691,1.32425,0.96109
284.146,18.61114,-0.01673832,1.32687,0.9608
284.646,18.6262,-0.01808759,1.32658,0.96052
285.146,18.64126,-0.01803729,1.32701,0.96024
285.646,18.65629,-0.01674984,1.32821,0.95996
286.146,18.67136,-0.01679781,1.32831,0.95967
286.646,18.68644,-0.01679993,1.33145,0.95939
287.146,18.70156,-0.0168065,1.33039,0.95911
287.646,18.71655,-0.01705133,1.33105,0.95882
288.146,18.73163,-0.01814627,1.33277,0.95854
288.646,18.74667,-0.01812,1.33267,0.95825
289.146,18.76174,-0.01811993,1.33303,0.95797
289.646,18.77675,-0.01811991,1.33357,0.95768
290.146,18.7919,-0.01811893,1.33402,0.9574
290.646,18.80696,-0.01812492,1.3339,0.95711
291.146,18.822,-0.01922314,1.33424,0.95683
291.646,18.8371,-0.02033718,1.33548,0.95654
292.146,18.85223,-0.02041755,1.3377,0.95625
292.646,18.86725,-0.0204308,1.33681,0.95597
293.146,18.8823,-0.02156541,1.33964,0.95568
293.646,18.89735,-0.02172597,1.33944,0.95539
294.146,18.91229,-0.02172991,1.33861,0.9551
294.646,18.92736,-0.02172974,1.34074,0.95482
295.146,18.94249,-0.02171557,1.33997,0.95453
295.646,18.9576,-0.02248788,1.34224,0.95424
296.146,18.97268,-0.02305336,1.34057,0.95395
296.646,18.98794,-0.02304973,1.34169,0.95366
297.146,19.00305,-0.02305058,1.3449,0.95337
297.646,19.01813,-0.023059,1.34415,0.95308
298.146,19.03325,-0.02337718,1.34604,0.95279
298.646,19.04832,-0.02338246,1.348,0.9525
299.146,19.0634,-0.02338424,1.34982,0.95221
299.646,19.07835,-0.02357595,1.34844,0.95192
300.146,19.09329,-0.02437084,1.34866,0.95163
300.646,19.1082,-0.02487669,1.34976,0.95133
301.146,19.12319,-0.0262057,1.34928,0.95104
301.646,19.13831,-0.0251242,1.35118,0.95075
302.146,19.1535,-0.02624319,1.35394,0.95046
302.646,19.16871,-0.02623957,1.35564,0.95017
303.146,19.1839,-0.02618752,1.35565,0.94987
303.646,19.1991,-0.02750728,1.35577,0.94958
304.146,19.21411,-0.02756068,1.35499,0.94929
304.646,19.22929,-0.02832469,1.35671,0.94899
305.146,19.2444,-0.0303562,1.36033,0.9487
305.646,19.2595,-0.03029938,1.35827,0.9484
306.146,19.2746,-0.03037694,1.35843,0.94811
306.646,19.2897,-0.03166146,1.3585,0.94781
307.146,19.30474,-0.03161217,1.3586,0.94752
307.646,19.3199,-0.03161,1.36186,0.94722
308.146,19.335,-0.03161246,1.36544,0.94693
308.646,19.35004,-0.03171956,1.36509,0.94663
309.146,19.36511,-0.03289233,1.36749,0.94633
309.646,19.38022,-0.03293096,1.36682,0.94604
310.146,19.39536,-0.0330602,1.3666,0.94574
310.646,19.4104,-0.03441519,1.36758,0.94544
311.146,19.42556,-0.03437067,1.36784,0.94514
311.646,19.44066,-0.03511019,1.37036,0.94485
312.146,19.45571,-0.03577238,1.37235,0.94455
312.646,19.47071,-0.03610914,1.37355,0.94425
313.146,19.48585,-0.03722229,1.37527,0.94395
313.646,19.50095,-0.03726316,1.37395,0.94365
314.146,19.5161,-0.03858008,1.37566,0.94335
314.646,19.53125,-0.03851283,1.37643,0.94305
315.146,19.5464,-0.03949395,1.37813,0.94275
315.646,19.56155,-0.0399435,1.37943,0.94245
316.146,19.5767,-0.04060779,1.38056,0.94215
316.646,19.5918,-0.04139505,1.38217,0.94185
317.146,19.6069,-0.04137629,1.38375,0.94155
317.646,19.62205,-0.04229216,1.38636,0.94125
318.146,19.63712,-0.04268835,1.38574,0.94095
318.646,19.65223,-0.04269974,1.38714,0.94065
319.146,19.6674,-0.04269933,1.38833,0.94034
319.646,19.6825,-0.04266402,1.38959,0.94004
320.146,19.69763,-0.04392616,1.3911,0.93974
320.646,19.7128,-0.04412934,1.39042,0.93944
321.146,19.7279,-0.04458712,1.39134,0.93913
321.646,19.743,-0.04571006,1.39355,0.93883
322.146,19.75815,-0.04615628,1.39395,0.93853
322.646,19.77326,-0.04731202,1.39725,0.93822
323.146,19.78836,-0.04822611,1.39884,0.93792
323.646,19.80344,-0.0488153,1.39893,0.93761
324.146,19.81856,-0.04978542,1.40185,0.93731
324.646,19.83357,-0.0503894,1.40167,0.937
325.146,19.8487,-0.05052442,1.40241,0.9367
325.646,19.86374,-0.05174413,1.40417,0.93639
326.146,19.87891,-0.05170107,1.40415,0.93609
326.646,19.89411,-0.05215862,1.40559,0.93578
327.146,19.90943,-0.05367729,1.40635,0.93547
327.646,19.9246,-0.05363161,1.4096,0.93517
328.146,19.93988,-0.0551031,1.40993,0.93486
328.646,19.95506,-0.05512205,1.41164,0.93455
329.146,19.9702,-0.05711918,1.41235,0.93425
329.646,19.98535,-0.05740996,1.41498,0.93394
330.146,20.00056,-0.05874347,1.41583,0.93363
330.646,20.01567,-0.05887699,1.41757,0.93332
331.146,20.03079,-0.06017959,1.41824,0.93301
331.646,20.0459,-0.058972,1.41945,0.9327
332.146,20.0611,-0.05978115,1.42089,0.9324
332.646,20.07631,-0.06048154,1.42238,0.93209
333.146,20.09155,-0.06091536,1.42491,0.93178
333.646,20.10673,-0.06224409,1.42561,0.93147
334.146,20.12191,-0.06377989,1.42899,0.93116
334.646,20.13705,-0.06479345,1.43084,0.93085
335.146,20.15225,-0.06475751,1.43096,0.93054
335.646,20.16743,-0.06582156,1.43377,0.93022
336.146,20.18263,-0.06607157,1.4356,0.92991
336.646,20.1978,-0.0669336,1.43612,0.9296
337.146,20.21295,-0.06762154,1.43764,0.92929
337.646,20.22813,-0.06770599,1.43854,0.92898
338.146,20.24331,-0.0691121,1.44317,0.92867
338.646,20.25846,-0.06923915,1.44488,0.92835
339.146,20.2737,-0.07092451,1.44609,0.92804
339.646,20.28892,-0.07208008,1.45,0.92773
340.146,20.3041,-0.07263617,1.45217,0.92741
340.646,20.3193,-0.07369199,1.45287,0.9271
341.146,20.3346,-0.07420444,1.45418,0.92679
341.646,20.34982,-0.07422062,1.45685,0.92647
342.146,20.36504,-0.07464835,1.45923,0.92616
342.646,20.38024,-0.07574256,1.46274,0.92584
343.146,20.39547,-0.07688818,1.4648,0.92553
343.646,20.41064,-0.07761208,1.46794,0.92521
344.146,20.42589,-0.07900492,1.47096,0.9249
344.646,20.44114,-0.08016555,1.47154,0.92458
345.146,20.45642,-0.08125369,1.47519,0.92427
345.646,20.47167,-0.08214647,1.47852,0.92395
346.146,20.48687,-0.08278833,1.47846,0.92364
346.646,20.50204,-0.08474066,1.47997,0.92332
347.146,20.51728,-0.08498353,1.48429,0.923
347.646,20.5325,-0.08664263,1.48696,0.92269
348.146,20.54774,-0.08668741,1.48906,0.92237
348.646,20.56298,-0.08832482,1.49245,0.92205
349.146,20.57825,-0.08914932,1.49633,0.92173
349.646,20.5935,-0.08991687,1.49842,0.92141
350.146,20.60877,-0.09175942,1.50167,0.9211
350.646,20.62405,-0.09199196,1.50425,0.92078
351.146,20.63934,-0.09321514,1.50782,0.92046
351.646,20.65457,-0.0944334,1.51157,0.92014
352.146,20.66986,-0.09561242,1.51671,0.91982
352.646,20.68507,-0.09704427,1.52105,0.9195
353.146,20.70035,-0.09859499,1.5238,0.91918
353.646,20.71562,-0.09971523,1.5262,0.91886
354.146,20.7309,-0.10035,1.52933,0.91854
354.646,20.74619,-0.10198,1.53401,0.91822
355.146,20.76148,-0.10302,1.53871,0.9179
355.646,20.7767,-0.10383,1.54243,0.91758
356.146,20.792,-0.10534,1.54738,0.91726
356.646,20.80725,-0.10628,1.55,0.91693
357.146,20.82249,-0.10751,1.55337,0.91661
357.646,20.83782,-0.10885,1.55766,0.91629
358.146,20.85315,-0.10987,1.56158,0.91597
358.646,20.86844,-0.11121,1.56586,0.91565
359.146,20.88372,-0.11249,1.5695,0.91532
359.646,20.89904,-0.11408,1.57407,0.915
360.146,20.91429,-0.11551,1.58114,0.91468
360.646,20.9296,-0.11676,1.58514,0.91435
361.146,20.94485,-0.11826,1.59123,0.91403
361.646,20.96013,-0.12033,1.59623,0.9137
362.146,20.97544,-0.12177,1.60118,0.91338
362.646,20.99073,-0.12298,1.60695,0.91306
363.146,21.00604,-0.12431,1.6124,0.91273
363.646,21.02137,-0.1263,1.61711,0.91241
364.146,21.03678,-0.12799,1.62398,0.91208
364.646,21.05213,-0.12936,1.62849,0.91176
365.146,21.06747,-0.13113,1.63666,0.91143
365.646,21.0828,-0.13297,1.6414,0.9111
366.146,21.09815,-0.13475,1.64787,0.91078
366.646,21.11344,-0.13658,1.65573,0.91045
367.146,21.12875,-0.13827,1.66229,0.91012
367.646,21.14412,-0.14028,1.66821,0.9098
368.146,21.15948,-0.14276,1.67619,0.90947
368.646,21.1749,-0.14475,1.68072,0.90914
369.146,21.1903,-0.1471,1.68644,0.90882
369.646,21.20573,-0.14843,1.69698,0.90849
370.146,21.22111,-0.15053,1.70737,0.90816
370.646,21.23649,-0.15267,1.71573,0.90783
371.146,21.2518,-0.15525,1.72352,0.9075
371.646,21.2672,-0.15736,1.73254,0.90717
372.146,21.28256,-0.15957,1.74226,0.90684
372.646,21.2979,-0.16121,1.75103,0.90651
373.146,21.31324,-0.16389,1.76154,0.90619
373.646,21.32859,-0.16598,1.77012,0.90586
374.146,21.34389,-0.16857,1.78037,0.90553
374.646,21.35922,-0.17077,1.79172,0.9052
375.146,21.37461,-0.17312,1.79984,0.90486
375.646,21.39,-0.17556,1.81125,0.90453
376.146,21.4054,-0.17817,1.8237,0.9042
376.646,21.42084,-0.18229,1.83575,0.90387
377.146,21.4362,-0.18503,1.84912,0.90354
377.646,21.4516,-0.18781,1.85987,0.90321
378.146,21.46705,-0.19063,1.87249,0.90288
378.646,21.4824,-0.19423,1.88553,0.90255
379.146,21.49783,-0.19678,1.89966,0.90221
379.646,21.51324,-0.20011,1.91341,0.90188
380.146,21.52865,-0.20276,1.9279,0.90155
380.646,21.54403,-0.20601,1.94064,0.90121
381.146,21.55943,-0.20908,1.95586,0.90088
381.646,21.57477,-0.21227,1.97244,0.90055
382.146,21.5902,-0.21544,1.98744,0.90021
382.646,21.6056,-0.21935,2.00471,0.89988
383.146,21.62105,-0.22316,2.02016,0.89955
383.646,21.63651,-0.22776,2.03877,0.89921
384.146,21.652,-0.23237,2.05639,0.89888
384.646,21.66743,-0.23644,2.0748,0.89854
385.146,21.68282,-0.24012,2.0945,0.89821
385.646,21.69821,-0.24403,2.11406,0.89787
386.146,21.71361,-0.24808,2.13257,0.89754
386.646,21.72901,-0.25252,2.15183,0.8972
387.146,21.7445,-0.25695,2.17389,0.89686
387.646,21.75996,-0.26127,2.19343,0.89653
388.146,21.77541,-0.26577,2.21514,0.89619
388.646,21.7909,-0.27058,2.2381,0.89586
389.146,21.80634,-0.27556,2.26112,0.89552
389.646,21.82176,-0.28074,2.28388,0.89518
390.146,21.8372,-0.28691,2.30507,0.89484
390.646,21.85266,-0.29193,2.33242,0.89451
391.146,21.86811,-0.29677,2.3552,0.89417
391.646,21.8836,-0.30184,2.381,0.89383
392.146,21.89905,-0.30706,2.41088,0.89349
392.646,21.91459,-0.31281,2.43874,0.89315
393.146,21.93006,-0.31901,2.46641,0.89282
393.646,21.94558,-0.32509,2.4946,0.89248
394.146,21.96114,-0.33125,2.52374,0.89214
394.646,21.9767,-0.33786,2.55351,0.8918
395.146,21.9922,-0.34485,2.58471,0.89146
395.646,22.00778,-0.35168,2.61785,0.89112
396.146,22.0233,-0.35843,2.65205,0.89078
396.646,22.0388,-0.36506,2.68777,0.89044
397.146,22.05432,-0.3711,2.72215,0.8901
397.646,22.0698,-0.37783,2.75722,0.88976
398.146,22.08527,-0.38518,2.79488,0.88942
398.646,22.10077,-0.39298,2.83112,0.88908
399.146,22.11628,-0.40086,2.86833,0.88874
399.646,22.13178,-0.40879,2.91032,0.88839
400.146,22.1474,-0.41725,2.95226,0.88805
400.646,22.16293,-0.42615,2.99391,0.88771
401.146,22.17857,-0.43523,3.03677,0.88737
401.646,22.19408,-0.44411,3.08274,0.88703
402.146,22.20962,-0.45433,3.12717,0.88668
402.646,22.2252,-0.46352,3.17237,0.88634
403.146,22.24077,-0.47309,3.22303,0.886
403.646,22.25633,-0.48309,3.27398,0.88565
404.146,22.27205,-0.49339,3.32544,0.88531
404.646,22.2877,-0.50394,3.37767,0.88497
405.146,22.30335,-0.51477,3.43096,0.88462
405.646,22.31899,-0.52603,3.48594,0.88428
406.146,22.33456,-0.53731,3.54647,0.88394
406.646,22.35015,-0.54905,3.60844,0.88359
407.146,22.36572,-0.56101,3.66719,0.88325
407.646,22.3813,-0.57346,3.72839,0.8829
408.146,22.39692,-0.58579,3.78721,0.88256
408.646,22.4126,-0.59775,3.84985,0.88221
409.146,22.42819,-0.60949,3.91616,0.88187
409.646,22.44386,-0.62187,3.98481,0.88152
410.146,22.45952,-0.63553,4.05387,0.88117
410.646,22.4753,-0.65098,4.12441,0.88083
411.146,22.49098,-0.66745,4.20422,0.88048
411.646,22.5067,-0.68496,4.28125,0.88014
412.146,22.52241,-0.70116,4.35969,0.87979
412.646,22.53809,-0.717,4.43734,0.87944
413.146,22.55376,-0.73313,4.52049,0.8791
413.646,22.56946,-0.74973,4.60749,0.87875
414.146,22.58515,-0.76749,4.69441,0.8784
414.646,22.60086,-0.78529,4.77895,0.87805
415.146,22.61661,-0.80392,4.86247,0.8777
415.646,22.63237,-0.82296,4.94844,0.87736
416.146,22.6481,-0.84209,5.05606,0.87701
416.646,22.6639,-0.86119,5.14927,0.87666
417.146,22.67965,-0.88026,5.23988,0.87631
417.646,22.6954,-0.8999,5.35107,0.87596
418.146,22.71121,-0.92078,5.46367,0.87561
418.646,22.727,-0.94294,5.56816,0.87526
419.146,22.74277,-0.96714,5.67813,0.87491
419.646,22.75858,-0.99181,5.79319,0.87456
420.146,22.77439,-1.01602,5.91874,0.87421
420.646,22.79019,-1.04152,6.04058,0.87386
421.146,22.80605,-1.06676,6.1421,0.87351
421.646,22.8219,-1.09235,6.25149,0.87316
422.146,22.8378,-1.11839,6.35659,0.87281
422.646,22.85371,-1.14513,6.46722,0.87246
423.146,22.86966,-1.17299,6.59243,0.87211
423.646,22.88556,-1.20152,6.71265,0.87176
424.146,22.90144,-1.23051,6.82106,0.87141
424.646,22.9173,-1.25986,6.92931,0.87106
425.146,22.93316,-1.28984,7.06549,0.8707
425.646,22.94908,-1.32069,7.18554,0.87035
426.146,22.96499,-1.35242,7.2843,0.87
426.646,22.98096,-1.38451,7.38865,0.86965
427.146,22.99696,-1.41692,7.48999,0.86929
427.646,23.01294,-1.44996,7.58476,0.86894
428.146,23.02886,-1.48354,7.6899,0.86859
428.646,23.0448,-1.5179,7.77816,0.86824
429.146,23.06073,-1.55259,7.86331,0.86788
429.646,23.07664,-1.58697,7.95925,0.86753
430.146,23.09254,-1.62133,8.06501,0.86717
430.646,23.1085,-1.65662,8.14884,0.86682
431.146,23.1245,-1.69286,8.20554,0.86647
431.646,23.1404,-1.73064,8.26928,0.86611
432.146,23.15636,-1.76756,8.35956,0.86576
432.646,23.17227,-1.80375,8.41472,0.8654
433.146,23.18818,-1.84048,8.48915,0.86505
433.646,23.20414,-1.87789,8.56475,0.86469
434.146,23.22,-1.91531,8.62533,0.86434
434.646,23.23601,-1.95245,8.6394,0.86398
435.146,23.252,-1.98946,8.62231,0.86363
435.646,23.26802,-2.02731,8.55057,0.86327
436.146,23.28399,-2.0657,8.46978,0.86291
436.646,23.29999,-2.10507,8.33324,0.86256
437.146,23.31607,-2.14317,8.15118,0.8622
437.646,23.3321,-2.1925,7.90093,0.86184
438.146,23.34806,-2.27048,7.66766,0.86149
438.646,23.36404,-2.32028,7.5826,0.86113
439.146,23.37987,-2.37243,7.61678,0.86077
439.646,23.3956,-2.42317,7.68722,0.86042
440.146,23.41134,-2.47004,7.74614,0.86006
440.646,23.4271,-2.50756,7.80961,0.8597
441.146,23.44298,-2.54401,7.85181,0.85934
441.646,23.4589,-2.58633,7.86262,0.85898
442.146,23.47488,-2.63619,7.8677,0.85863
442.646,23.49074,-2.68579,7.85602,0.85827
443.146,23.5066,-2.73594,7.83771,0.85791
443.646,23.5226,-2.78591,7.8191,0.85755
444.146,23.53849,-2.83582,7.76793,0.85719
444.646,23.55436,-2.88507,7.70076,0.85683
445.146,23.57035,-2.93674,7.6186,0.85647
445.646,23.58618,-2.98752,7.51829,0.85611
446.146,23.60193,-3.03632,7.41249,0.85575
446.646,23.6177,-3.08307,7.28091,0.85539
447.146,23.6334,-3.12825,7.13835,0.85503
447.646,23.64913,-3.17227,6.98974,0.85467
448.146,23.66487,-3.21455,6.81667,0.85431
448.646,23.6805,-3.25466,6.6364,0.85395
449.146,23.69613,-3.29488,6.45815,0.85359
449.646,23.71176,-3.3357,6.26917,0.85323
450.146,23.72728,-3.36589,6.06427,0.85287
450.646,23.74276,-3.39577,5.85333,0.85251
451.146,23.75825,-3.4237,5.6417,0.85214
451.646,23.77369,-3.45396,5.42869,0.85178
452.146,23.7891,-3.48484,5.21136,0.85142
452.646,23.80455,-3.51537,4.98998,0.85106
453.146,23.82,-3.54373,4.76561,0.8507
453.646,23.83539,-3.56903,4.54088,0.85033
454.146,23.85079,-3.59237,4.31535,0.84997
454.646,23.86615,-3.6149,4.09275,0.84961
455.146,23.8815,-3.63784,3.87079,0.84924
455.646,23.89684,-3.66068,3.65435,0.84888
456.146,23.91208,-3.68191,3.44087,0.84852
456.646,23.92734,-3.70098,3.22943,0.84815
457.146,23.9426,-3.71798,3.02683,0.84779
457.646,23.95779,-3.73402,2.82933,0.84743
458.146,23.97304,-3.7498,2.63793,0.84706
458.646,23.98826,-3.76545,2.45237,0.8467
459.146,24.00346,-3.78067,2.27164,0.84633
459.646,24.0187,-3.7949,2.09904,0.84597
460.146,24.034,-3.80767,1.93337,0.8456
460.646,24.04934,-3.81907,1.7761,0.84524
461.146,24.06458,-3.82979,1.62735,0.84487
461.646,24.07974,-3.83994,1.4862,0.84451
462.146,24.09497,-3.84983,1.35242,0.84414
462.646,24.1102,-3.85869,1.22474,0.84378
463.146,24.1254,-3.86692,1.10472,0.84341
463.646,24.1407,-3.87471,0.99109,0.84305
464.146,24.15606,-3.8818,0.88527,0.84268
464.646,24.17135,-3.88825,0.78855,0.84231
465.146,24.18665,-3.89444,0.69527,0.84195
465.646,24.202,-3.90134,0.60744,0.84158
466.146,24.21731,-3.90801,0.52532,0.84121
466.646,24.2327,-3.91415,0.45033,0.84085
467.146,24.24796,-3.91951,0.38172,0.84048
467.646,24.26334,-3.92355,0.315,0.84011
468.146,24.27867,-3.92753,0.25502,0.83975
468.646,24.29391,-3.9315,0.19669,0.83938
469.146,24.3092,-3.93573,0.14651,0.83901
469.646,24.3244,-3.94013,0.09652286,0.83864
470.146,24.3398,-3.9439,0.05124697,0.83827
470.646,24.35519,-3.94726,0.00771479,0.83791
471.146,24.37058,-3.95034,-0.03426211,0.83754
471.646,24.3861,-3.95342,-0.07253119,0.83717
472.146,24.40175,-3.95603,-0.10426,0.8368
472.646,24.41711,-3.95847,-0.13912,0.83643
473.146,24.43265,-3.96059,-0.17205,0.83606
473.646,24.44829,-3.96282,-0.19977,0.83569
474.146,24.46376,-3.96558,-0.22806,0.83532
474.646,24.47925,-3.96762,-0.25391,0.83495
475.146,24.4948,-3.96971,-0.27717,0.83458
475.646,24.5103,-3.97148,-0.3001,0.83421
476.146,24.52585,-3.97259,-0.32272,0.83384
476.646,24.5415,-3.97379,-0.34394,0.83347
477.146,24.55712,-3.97572,-0.36237,0.8331
477.646,24.57287,-3.97806,-0.37986,0.83273
478.146,24.58858,-3.97955,-0.39554,0.83236
478.646,24.60418,-3.98078,-0.41212,0.83199
479.146,24.61984,-3.98217,-0.42595,0.83162
479.646,24.63543,-3.98363,-0.4422,0.83125
480.146,24.65101,-3.98427,-0.45284,0.83088
480.646,24.66669,-3.98546,-0.46342,0.83051
481.146,24.68231,-3.98693,-0.47763,0.83014
481.646,24.69795,-3.98739,-0.49104,0.82976
482.146,24.71358,-3.98854,-0.50213,0.82939
482.646,24.7293,-3.98855,-0.51263,0.82902
483.146,24.745,-3.98897,-0.52154,0.82865
483.646,24.7607,-3.99005,-0.53204,0.82827
484.146,24.77642,-3.99177,-0.54446,0.8279
484.646,24.79212,-3.99293,-0.55389,0.82753
485.146,24.80781,-3.99296,-0.56263,0.82716
485.646,24.82346,-3.9942,-0.56924,0.82678
486.146,24.83916,-3.99435,-0.57812,0.82641
486.646,24.85491,-3.99549,-0.58807,0.82604
487.146,24.8706,-3.99578,-0.59657,0.82566
487.646,24.88639,-3.99579,-0.60722,0.82529
488.146,24.90215,-3.99632,-0.61582,0.82492
488.646,24.9179,-3.99711,-0.62347,0.82454
489.146,24.93361,-3.9971,-0.63191,0.82417
489.646,24.94923,-3.99611,-0.64077,0.82379
490.146,24.9649,-3.99713,-0.64668,0.82342
490.646,24.98065,-3.9971,-0.65428,0.82305
491.146,24.99642,-3.9971,-0.65946,0.82267
491.646,25.0123,-3.9971,-0.66607,0.8223
492.146,25.02819,-3.9971,-0.67349,0.82192
492.646,25.04399,-3.9971,-0.67544,0.82155
493.146,25.05973,-3.9971,-0.67919,0.82117
493.646,25.07554,-3.9971,-0.68398,0.8208
494.146,25.09131,-3.9971,-0.687,0.82042
494.646,25.10714,-3.9971,-0.69124,0.82004
495.146,25.123,-3.9971,-0.69444,0.81967
495.646,25.13874,-3.9971,-0.69639,0.81929
496.146,25.15447,-3.9971,-0.70037,0.81892
496.646,25.17025,-3.9971,-0.69975,0.81854
497.146,25.18608,-3.9971,-0.70083,0.81816
497.646,25.20188,-3.9971,-0.70252,0.81779
498.146,25.21782,-3.9971,-0.70405,0.81741
498.646,25.2338,-3.9971,-0.70607,0.81703
499.146,25.24971,-3.9971,-0.70741,0.81666
499.646,25.26559,-3.9971,-0.70816,0.81628
500.146,25.2815,-3.9971,-0.71043,0.8159
500.646,25.29731,-3.9971,-0.70977,0.81552
501.146,25.31317,-3.9971,-0.70925,0.81515
501.646,25.329,-3.9971,-0.71017,0.81477
502.146,25.34485,-3.99708,-0.71151,0.81439
502.646,25.36073,-3.99812,-0.71233,0.81401
503.146,25.3766,-3.99809,-0.71238,0.81363
503.646,25.39248,-3.99809,-0.7132,0.81326
504.146,25.40834,-3.99809,-0.71365,0.81288
504.646,25.4242,-3.99809,-0.71508,0.8125
505.146,25.44003,-3.99809,-0.71421,0.81212
505.646,25.45593,-3.99809,-0.71622,0.81174
506.146,25.4719,-3.99809,-0.71681,0.81136
506.646,25.48777,-3.99809,-0.71518,0.81098
507.146,25.50368,-3.99809,-0.71482,0.8106
507.646,25.51963,-3.99809,-0.71778,0.81023
508.146,25.5355,-3.99809,-0.7151,0.80985
508.646,25.55144,-3.99809,-0.71774,0.80947
509.146,25.5673,-3.99809,-0.71783,0.80909
509.646,25.58313,-3.99809,-0.71961,0.80871
510.146,25.5991,-3.99809,-0.7206,0.80833
510.646,25.61494,-3.99815,-0.72016,0.80795
511.146,25.6309,-3.99645,-0.71977,0.80757
511.646,25.6468,-3.99644,-0.72047,0.80719
512.146,25.6628,-3.99644,-0.72048,0.8068
512.646,25.6787,-3.99644,-0.72079,0.80642
513.146,25.69471,-3.99644,-0.72151,0.80604
513.646,25.71069,-3.99644,-0.72102,0.80566
514.146,25.72661,-3.99644,-0.72355,0.80528
514.646,25.74256,-3.99644,-0.72316,0.8049
515.146,25.7585,-3.99642,-0.72358,0.80452
515.646,25.77441,-3.99752,-0.72287,0.80414
516.146,25.79034,-3.99776,-0.72365,0.80375
516.646,25.80634,-3.99776,-0.72517,0.80337
517.146,25.82226,-3.99776,-0.72586,0.80299
517.646,25.8383,-3.99776,-0.72473,0.80261
518.146,25.85426,-3.99776,-0.72497,0.80223
518.646,25.8703,-3.99776,-0.72857,0.80184
519.146,25.88619,-3.99776,-0.72843,0.80146
519.646,25.9022,-3.99776,-0.72864,0.80108
520.146,25.9181,-3.99776,-0.72943,0.8007
520.646,25.9341,-3.99776,-0.72897,0.80031
521.146,25.95006,-3.99776,-0.72817,0.79993
521.646,25.96614,-3.99776,-0.72915,0.79955
522.146,25.98198,-3.99776,-0.72999,0.79916
522.646,25.99793,-3.99776,-0.73147,0.79878
523.146,26.01393,-3.99776,-0.73099,0.7984
523.646,26.0299,-3.99776,-0.73202,0.79801
524.146,26.0459,-3.99776,-0.73468,0.79763
524.646,26.06204,-3.99776,-0.73766,0.79725
525.146,26.07807,-3.99776,-0.73668,0.79686
525.646,26.09404,-3.99776,-0.73812,0.79648
526.146,26.11008,-3.99776,-0.73769,0.79609
526.646,26.12615,-3.99777,-0.73929,0.79571
527.146,26.14218,-3.99744,-0.73979,0.79532
527.646,26.1583,-3.99743,-0.74197,0.79494
528.146,26.1743,-3.99743,-0.74301,0.79456
528.646,26.19032,-3.99743,-0.74293,0.79417
529.146,26.20632,-3.99743,-0.744,0.79379
529.646,26.22233,-3.99749,-0.74279,0.7934
530.146,26.23828,-3.99845,-0.74414,0.79302
530.646,26.25432,-3.99842,-0.74893,0.79263
531.146,26.27035,-3.99842,-0.74849,0.79224
531.646,26.28637,-3.99842,-0.74765,0.79186
532.146,26.3025,-3.99842,-0.7497,0.79147
532.646,26.3185,-3.99842,-0.74756,0.79109
533.146,26.3345,-3.99842,-0.74881,0.7907
533.646,26.35057,-3.99847,-0.74821,0.79032
534.146,26.3666,-3.9971,-0.75072,0.78993
534.646,26.3826,-3.9971,-0.75306,0.78954
535.146,26.3987,-3.9971,-0.7546,0.78916
535.646,26.4147,-3.9971,-0.75358,0.78877
536.146,26.4308,-3.9971,-0.75464,0.78838
536.646,26.4469,-3.9971,-0.75764,0.788
537.146,26.463,-3.9971,-0.75918,0.78761
537.646,26.47908,-3.9971,-0.75907,0.78722
538.146,26.49527,-3.9971,-0.75832,0.78684
538.646,26.51134,-3.9971,-0.75824,0.78645
539.146,26.52745,-3.9971,-0.76077,0.78606
539.646,26.54348,-3.99693,-0.76182,0.78567
540.146,26.5594,-3.99677,-0.76392,0.78529
540.646,26.5755,-3.99677,-0.76401,0.7849
541.146,26.5915,-3.99677,-0.76341,0.78451
541.646,26.60755,-3.99675,-0.76666,0.78412
542.146,26.62375,-3.99554,-0.76561,0.78373
542.646,26.63999,-3.99545,-0.76497,0.78335
543.146,26.6562,-3.99545,-0.76719,0.78296
543.446,26.66586,-3.99545,-0.76848,0.78272