File: 01_Data/Bean_Bag_Chair_Beads/STA/N2/30K_min/Bean_Bag_Chair_Beads_STA_N2_30KData_220518_R1.csv
##Temp./Â°C,Time/min,Mass loss(subtr.2)/mg,DSC(subtr.2)/(mW/mg),Sensit./(uV/mW)
48.615,10.00667,-0.00593,0.00290269,1.05399
49.115,10.51174,-0.007242985,0.03296111,1.05389
49.615,10.62401,-0.004590088,0.06070649,1.05379
50.115,10.702,-0.00746864,0.08493061,1.05369
50.615,10.7654,-0.007632735,0.10863,1.05359
51.115,10.8199,-0.005708205,0.12813,1.05348
51.615,10.86843,-0.006646877,0.14781,1.05338
52.115,10.9136,-0.005617915,0.16366,1.05327
52.615,10.9547,-0.006556168,0.18551,1.05317
53.115,10.99323,-0.005493741,0.19968,1.05306
53.615,11.0295,-0.003165663,0.21681,1.05296
54.115,11.06371,-0.003923226,0.22988,1.05285
54.615,11.09629,-0.00667075,0.24528,1.05275
55.115,11.12777,-0.007763,0.26045,1.05264
55.615,11.15806,-0.007012514,0.27419,1.05253
56.115,11.18755,-0.006663233,0.28644,1.05243
56.615,11.216,-0.006253056,0.29949,1.05232
57.115,11.24354,-0.006232581,0.3121,1.05221
57.615,11.27053,-0.007036117,0.32382,1.0521
58.115,11.2967,-0.007214786,0.33482,1.05199
58.615,11.3223,-0.00675302,0.34356,1.05188
59.115,11.34718,-0.00595141,0.35558,1.05177
59.615,11.37176,-0.0063087,0.3638,1.05166
60.115,11.39583,-0.006323844,0.37438,1.05155
60.615,11.41948,-0.005886264,0.38301,1.05144
61.115,11.44241,-0.006415311,0.39162,1.05132
61.615,11.4654,-0.006911533,0.4026,1.05121
62.115,11.48803,-0.00660688,0.41039,1.0511
62.615,11.51089,-0.006428082,0.41823,1.05098
63.115,11.53305,-0.00619146,0.4277,1.05087
63.615,11.55495,-0.005902182,0.43279,1.05076
64.115,11.5765,-0.00572014,0.4425,1.05064
64.615,11.59789,-0.00548203,0.44885,1.05053
65.115,11.6191,-0.006061517,0.45414,1.05041
65.615,11.63999,-0.006811214,0.46133,1.05029
66.115,11.66071,-0.0067266,0.46746,1.05018
66.615,11.68127,-0.00570075,0.47516,1.05006
67.115,11.70159,-0.005428343,0.48267,1.04994
67.615,11.72194,-0.00622421,0.48552,1.04982
68.115,11.74205,-0.006569566,0.49677,1.04971
68.615,11.76212,-0.006405268,0.499,1.04959
69.115,11.78213,-0.006192144,0.50477,1.04947
69.615,11.8018,-0.00620572,0.51043,1.04935
70.115,11.82146,-0.00614783,0.51591,1.04923
70.615,11.84089,-0.006150607,0.52048,1.04911
71.115,11.8602,-0.006144007,0.52611,1.04898
71.615,11.8795,-0.006240003,0.53058,1.04886
72.115,11.89865,-0.006739364,0.53569,1.04874
72.615,11.91784,-0.00702465,0.54272,1.04862
73.115,11.9369,-0.006530585,0.5459,1.0485
73.615,11.9559,-0.005801855,0.54908,1.04837
74.115,11.97467,-0.005163201,0.55395,1.04825
74.615,11.99337,-0.00570857,0.5599,1.04812
75.115,12.0121,-0.00525526,0.56601,1.048
75.615,12.03076,-0.00628853,0.57096,1.04787
76.115,12.0494,-0.005893225,0.57581,1.04775
76.615,12.0679,-0.00652032,0.57711,1.04762
77.115,12.08635,-0.005721456,0.58308,1.0475
77.615,12.10477,-0.005590595,0.58847,1.04737
78.115,12.12312,-0.00577118,0.59311,1.04724
78.615,12.14145,-0.005783386,0.59639,1.04711
79.115,12.15966,-0.00643837,0.60062,1.04699
79.615,12.1777,-0.006007758,0.60482,1.04686
80.115,12.1958,-0.006756268,0.6133,1.04673
80.615,12.21375,-0.005957549,0.6138,1.0466
81.115,12.2317,-0.00659073,0.62026,1.04647
81.615,12.24973,-0.00607416,0.62639,1.04634
82.115,12.26763,-0.005792168,0.63084,1.04621
82.615,12.28551,-0.00586084,0.63517,1.04607
83.115,12.30333,-0.005380165,0.64041,1.04594
83.615,12.3211,-0.00582681,0.64573,1.04581
84.115,12.33873,-0.00600504,0.65205,1.04568
84.615,12.35628,-0.006130322,0.65632,1.04554
85.115,12.37373,-0.0073709,0.66004,1.04541
85.615,12.39124,-0.006105322,0.66499,1.04528
86.115,12.4088,-0.00592566,0.67167,1.04514
86.615,12.42639,-0.00593977,0.67463,1.04501
87.115,12.44416,-0.005923313,0.67819,1.04487
87.615,12.4617,-0.007192773,0.68144,1.04474
88.115,12.47921,-0.007469614,0.68195,1.0446
88.615,12.49648,-0.007327385,0.68067,1.04446
89.115,12.51373,-0.007594597,0.68018,1.04433
89.615,12.53105,-0.007630484,0.67921,1.04419
90.115,12.54828,-0.006093964,0.67839,1.04405
90.615,12.5656,-0.006167729,0.67458,1.04391
91.115,12.58286,-0.005722983,0.67095,1.04377
91.615,12.59998,-0.005929947,0.66875,1.04363
92.115,12.61707,-0.005981726,0.6666,1.04349
92.615,12.6343,-0.004572506,0.66484,1.04335
93.115,12.65146,-0.005813844,0.6621,1.04321
93.615,12.66855,-0.005935796,0.65953,1.04307
94.115,12.68566,-0.00686297,0.66059,1.04293
94.615,12.7027,-0.005873776,0.65823,1.04279
95.115,12.71981,-0.005929821,0.66075,1.04265
95.615,12.73687,-0.005925435,0.6623,1.0425
96.115,12.754,-0.00553645,0.6622,1.04236
96.615,12.77095,-0.005356222,0.66343,1.04222
97.115,12.78786,-0.005921915,0.66618,1.04207
97.615,12.80483,-0.005509305,0.66954,1.04193
98.115,12.82168,-0.00551422,0.67254,1.04178
98.615,12.83863,-0.00603353,0.67692,1.04164
99.115,12.85564,-0.006044249,0.68062,1.04149
99.615,12.87256,-0.006039561,0.68653,1.04135
100.115,12.88943,-0.00605131,0.68912,1.0412
100.615,12.90632,-0.006656363,0.69869,1.04105
101.115,12.9231,-0.00733409,0.70272,1.04091
101.615,12.9399,-0.006711878,0.7073,1.04076
102.115,12.9568,-0.006052708,0.71652,1.04061
102.615,12.9736,-0.006039966,0.72248,1.04046
103.115,12.99044,-0.00604509,0.72756,1.04031
103.615,13.00734,-0.00643059,0.73443,1.04016
104.115,13.0242,-0.007373777,0.74394,1.04001
104.615,13.0411,-0.00736011,0.752,1.03986
105.115,13.0579,-0.007375869,0.75856,1.03971
105.615,13.0747,-0.008128435,0.76638,1.03956
106.115,13.09148,-0.007914269,0.77659,1.03941
106.615,13.1083,-0.007109739,0.78428,1.03925
107.115,13.1251,-0.00735608,0.79021,1.0391
107.615,13.14192,-0.007358811,0.79793,1.03895
108.115,13.15885,-0.007336026,0.80316,1.0388
108.615,13.17555,-0.00756864,0.8066,1.03864
109.115,13.1923,-0.00735336,0.81272,1.03849
109.615,13.209,-0.00729656,0.81572,1.03833
110.115,13.22569,-0.006352845,0.81852,1.03818
110.615,13.2425,-0.00637099,0.82093,1.03802
111.115,13.2592,-0.00636781,0.82393,1.03787
111.615,13.2759,-0.00655941,0.82568,1.03771
112.115,13.29265,-0.007699821,0.82932,1.03755
112.615,13.3093,-0.007688455,0.83203,1.0374
113.115,13.32596,-0.007685147,0.83301,1.03724
113.615,13.34268,-0.007324142,0.83441,1.03708
114.115,13.35929,-0.007359514,0.83572,1.03692
114.615,13.37595,-0.00735928,0.8382,1.03676
115.115,13.3926,-0.0073525,0.83487,1.0366
115.615,13.4091,-0.006402672,0.83571,1.03644
116.115,13.4257,-0.006043806,0.84059,1.03628
116.615,13.44234,-0.006039737,0.84012,1.03612
117.115,13.45892,-0.00604005,0.84046,1.03596
117.615,13.4755,-0.006037385,0.8431,1.0358
118.115,13.49194,-0.005993266,0.84571,1.03564
118.615,13.5084,-0.006913819,0.8457,1.03548
119.115,13.52483,-0.00603177,0.84717,1.03531
119.615,13.5413,-0.00604036,0.84799,1.03515
120.115,13.5577,-0.00604501,0.84921,1.03499
120.615,13.57421,-0.006449494,0.85102,1.03482
121.115,13.5907,-0.00737461,0.85476,1.03466
121.615,13.6072,-0.007359855,0.85364,1.03449
122.115,13.62371,-0.00735998,0.85601,1.03433
122.615,13.64021,-0.00736,0.85815,1.03416
123.115,13.65676,-0.00736,0.86096,1.034
123.615,13.6734,-0.00736,0.86042,1.03383
124.115,13.69,-0.00736,0.86349,1.03366
124.615,13.7066,-0.00736,0.86163,1.03349
125.115,13.72313,-0.007359999,0.86556,1.03333
125.615,13.7395,-0.007359991,0.86741,1.03316
126.115,13.7559,-0.007361029,0.86909,1.03299
126.615,13.7723,-0.007372841,0.87074,1.03282
127.115,13.78873,-0.006229221,0.87115,1.03265
127.615,13.80511,-0.00652028,0.87153,1.03248
128.115,13.82143,-0.00734857,0.87545,1.03231
128.615,13.8377,-0.007359312,0.87791,1.03214
129.115,13.854,-0.00736001,0.87906,1.03197
129.615,13.87018,-0.007360071,0.88134,1.0318
130.115,13.88649,-0.007360151,0.88189,1.03163
130.615,13.9027,-0.007317594,0.88186,1.03145
131.115,13.91905,-0.008625234,0.88284,1.03128
131.615,13.9353,-0.008683607,0.88529,1.03111
132.115,13.95147,-0.00867964,0.88585,1.03094
132.615,13.9677,-0.008688034,0.88831,1.03076
133.115,13.9838,-0.008161047,0.8878,1.03059
133.615,14,-0.007690079,0.88628,1.03041
134.115,14.0162,-0.00769054,0.88951,1.03024
134.615,14.03236,-0.007690011,0.89428,1.03006
135.115,14.04848,-0.007689999,0.89195,1.02989
135.615,14.06466,-0.00769,0.89625,1.02971
136.115,14.08075,-0.00769,0.89726,1.02953
136.615,14.0968,-0.00769,0.89787,1.02936
137.115,14.113,-0.00769,0.89987,1.02918
137.615,14.129,-0.007689999,0.89895,1.029
138.115,14.14509,-0.00768998,0.89966,1.02882
138.615,14.16099,-0.00769034,0.89991,1.02864
139.115,14.17665,-0.00770564,0.90138,1.02846
139.615,14.19255,-0.00827139,0.90385,1.02828
140.115,14.20846,-0.0086759,0.90275,1.0281
140.615,14.2243,-0.008679778,0.90418,1.02792
141.115,14.24036,-0.008679995,0.90802,1.02774
141.615,14.2565,-0.008679092,0.91031,1.02756
142.115,14.27244,-0.008671391,0.91012,1.02738
142.615,14.28841,-0.007805006,0.91017,1.0272
143.115,14.3044,-0.00736844,0.91232,1.02702
143.615,14.3204,-0.007365979,0.91439,1.02683
144.115,14.33632,-0.008411116,0.91661,1.02665
144.615,14.3522,-0.00835141,0.91531,1.02647
145.115,14.36815,-0.008349927,0.91862,1.02628
145.615,14.3841,-0.008349995,0.92192,1.0261
146.115,14.4001,-0.00835,0.92352,1.02591
146.615,14.416,-0.008350038,0.92086,1.02573
147.115,14.43193,-0.00835056,0.92275,1.02554
147.615,14.4477,-0.008339218,0.92375,1.02536
148.115,14.4635,-0.008712415,0.92554,1.02517
148.615,14.4793,-0.008680472,0.92885,1.02498
149.115,14.49515,-0.008679954,0.92821,1.02479
149.615,14.511,-0.00867999,0.93008,1.02461
150.115,14.52682,-0.008680014,0.93125,1.02442
150.615,14.54266,-0.008684139,0.93158,1.02423
151.115,14.5585,-0.008894229,0.93106,1.02404
151.615,14.5742,-0.0100011,0.93467,1.02385
152.115,14.5899,-0.009991295,0.93286,1.02366
152.615,14.60569,-0.009990027,0.93679,1.02347
153.115,14.62146,-0.009989999,0.93616,1.02328
153.615,14.6372,-0.00999,0.93646,1.02309
154.115,14.65305,-0.00999,0.93871,1.0229
154.615,14.6689,-0.009990013,0.94079,1.02271
155.115,14.68457,-0.009990261,0.94064,1.02252
155.615,14.70036,-0.009988702,0.94273,1.02232
156.115,14.71615,-0.00977892,0.94189,1.02213
156.615,14.73185,-0.008647148,0.94419,1.02194
157.115,14.74758,-0.008670623,0.94461,1.02174
157.615,14.76325,-0.00867007,0.94558,1.02155
158.115,14.7789,-0.008670001,0.94505,1.02136
158.615,14.7945,-0.008670025,0.94806,1.02116
159.115,14.8103,-0.008670969,0.94841,1.02097
159.615,14.826,-0.008677054,0.94705,1.02077
160.115,14.84164,-0.00953372,0.94484,1.02058
160.615,14.8573,-0.00997894,0.94839,1.02038
161.115,14.87299,-0.009989911,0.94913,1.02018
161.615,14.88865,-0.00999002,0.9485,1.01999
162.115,14.90434,-0.009990001,0.94796,1.01979
162.615,14.92,-0.00999,0.94857,1.01959
163.115,14.93569,-0.00999,0.94838,1.01939
163.615,14.95134,-0.00999,0.94934,1.01919
164.115,14.967,-0.00999,0.94691,1.01899
164.615,14.98279,-0.009989999,0.94874,1.01879
165.115,14.9986,-0.009989984,0.94868,1.01859
165.615,15.0144,-0.00999031,0.94729,1.01839
166.115,15.03024,-0.01000329,0.94925,1.01819
166.615,15.0459,-0.01055699,0.94811,1.01799
167.115,15.0615,-0.01129619,0.94814,1.01779
167.615,15.07714,-0.01125782,0.94796,1.01759
168.115,15.09268,-0.01259507,0.94784,1.01739
168.615,15.1083,-0.01263323,0.94861,1.01718
169.115,15.12391,-0.01262837,0.94777,1.01698
169.615,15.1396,-0.01262101,0.94968,1.01678
170.115,15.15511,-0.01330322,0.94871,1.01658
170.615,15.17066,-0.0132817,0.9467,1.01637
171.115,15.18627,-0.01328118,0.94636,1.01617
171.615,15.2018,-0.01315975,0.9463,1.01596
172.115,15.21737,-0.01193024,0.94546,1.01576
172.615,15.23296,-0.01196965,0.94524,1.01555
173.115,15.2485,-0.01197007,0.94466,1.01535
173.615,15.264,-0.01197,0.94436,1.01514
174.115,15.27953,-0.01197,0.94444,1.01493
174.615,15.295,-0.01197,0.94635,1.01472
175.115,15.31054,-0.01197,0.94466,1.01452
175.615,15.326,-0.01197,0.94476,1.01431
176.115,15.34155,-0.01196999,0.94429,1.0141
176.615,15.35704,-0.01196974,0.94303,1.01389
177.115,15.3725,-0.01196795,0.94403,1.01368
177.615,15.388,-0.01205162,0.94234,1.01347
178.115,15.4035,-0.01332725,0.9424,1.01326
178.615,15.41894,-0.01328121,0.94323,1.01305
179.115,15.43436,-0.01327856,0.94196,1.01284
179.615,15.4497,-0.01318994,0.94254,1.01263
180.115,15.46514,-0.0120056,0.9446,1.01242
180.615,15.48051,-0.01197272,0.94193,1.01221
181.115,15.49594,-0.01144168,0.94265,1.012
181.615,15.5114,-0.009938614,0.94463,1.01179
182.115,15.52691,-0.009990349,0.94419,1.01157
182.615,15.54235,-0.009990126,0.94483,1.01136
183.115,15.55776,-0.009990006,0.94457,1.01115
183.615,15.57315,-0.00999,0.9444,1.01093
184.115,15.58849,-0.00999,0.94479,1.01072
184.615,15.60384,-0.00999,0.94557,1.0105
185.115,15.6192,-0.009989979,0.94442,1.01029
185.615,15.63464,-0.009990759,0.9448,1.01007
186.115,15.65003,-0.01001596,0.94721,1.00986
186.615,15.6654,-0.01100026,0.94766,1.00964
187.115,15.68074,-0.0126151,0.94737,1.00942
187.615,15.696,-0.01262798,0.94571,1.00921
188.115,15.71127,-0.01262991,0.94902,1.00899
188.615,15.7266,-0.01263,0.94776,1.00877
189.115,15.74189,-0.01262999,0.95033,1.00855
189.615,15.7572,-0.01262973,0.95151,1.00834
190.115,15.77259,-0.012628,0.9519,1.00812
190.615,15.7879,-0.01270348,0.95345,1.0079
191.115,15.80318,-0.01398887,0.95515,1.00768
191.615,15.8184,-0.01394169,0.95547,1.00746
192.115,15.8337,-0.01393998,0.95788,1.00724
192.615,15.84905,-0.01393999,0.95853,1.00702
193.115,15.8643,-0.01394,0.95775,1.0068
193.615,15.8796,-0.01394,0.96112,1.00658
194.115,15.89485,-0.01394,0.96191,1.00635
194.615,15.90996,-0.01394,0.96413,1.00613
195.115,15.92516,-0.01394,0.96832,1.00591
195.615,15.9404,-0.01394,0.96899,1.00569
196.115,15.95568,-0.01394,0.97287,1.00546
196.615,15.97091,-0.01394,0.97748,1.00524
197.115,15.9863,-0.01394001,0.97963,1.00502
197.615,16.00153,-0.01393934,0.98058,1.00479
198.115,16.0168,-0.01392057,0.98243,1.00457
198.615,16.032,-0.01479327,0.98413,1.00434
199.115,16.04727,-0.01629758,0.98771,1.00412
199.615,16.06255,-0.01657455,0.99109,1.00389
200.115,16.07781,-0.01658001,0.99413,1.00366
200.615,16.09308,-0.01658078,0.99834,1.00344
201.115,16.10826,-0.01647812,1.00064,1.00321
201.615,16.12353,-0.01521294,1.0049,1.00298
202.115,16.1387,-0.01525859,1.00671,1.00276
202.615,16.1539,-0.01526003,1.0116,1.00253
203.115,16.1691,-0.01526001,1.01447,1.0023
203.615,16.18429,-0.01526003,1.01534,1.00207
204.115,16.1995,-0.01526015,1.02163,1.00184
204.615,16.2147,-0.01525225,1.02147,1.00161
205.115,16.22984,-0.01589303,1.02607,1.00138
205.615,16.24502,-0.01670967,1.0302,1.00115
206.115,16.26026,-0.01704242,1.03201,1.00092
206.615,16.2754,-0.01802932,1.03458,1.00069
207.115,16.29064,-0.01803062,1.03903,1.00046
207.615,16.30585,-0.01710001,1.03935,1.00023
208.115,16.32102,-0.01658576,1.04033,1.0
208.615,16.33616,-0.01658482,1.04496,0.99977
209.115,16.35138,-0.01676486,1.04904,0.99953
209.615,16.36657,-0.01789834,1.04782,0.9993
210.115,16.38175,-0.01790126,1.05179,0.99907
210.615,16.39699,-0.01790008,1.05291,0.99883
211.115,16.41222,-0.0179,1.05454,0.9986
211.615,16.4273,-0.0179,1.05628,0.99837
212.115,16.44249,-0.0179,1.06026,0.99813
212.615,16.45768,-0.0179,1.0605,0.9979
213.115,16.4728,-0.0179,1.06209,0.99766
213.615,16.488,-0.01790001,1.06418,0.99742
214.115,16.50329,-0.01790046,1.06533,0.99719
214.615,16.51847,-0.017906,1.06561,0.99695
215.115,16.53364,-0.01824924,1.06777,0.99672
215.615,16.5488,-0.0185531,1.06923,0.99648
216.115,16.5639,-0.0185596,1.06994,0.99624
216.615,16.57907,-0.01856016,1.07029,0.996
217.115,16.59406,-0.01855723,1.07415,0.99576
217.615,16.60918,-0.01837879,1.07538,0.99553
218.115,16.62429,-0.01720302,1.07761,0.99529
218.615,16.63949,-0.01723938,1.07863,0.99505
219.115,16.65462,-0.01724623,1.07744,0.99481
219.615,16.66986,-0.01752193,1.07952,0.99457
220.115,16.685,-0.01822765,1.07911,0.99433
220.615,16.70015,-0.01821995,1.08183,0.99409
221.115,16.7153,-0.01821775,1.08529,0.99385
221.615,16.73048,-0.01816846,1.08646,0.99361
222.115,16.74567,-0.01948254,1.08576,0.99336
222.615,16.76078,-0.01954209,1.08678,0.99312
223.115,16.7759,-0.01954027,1.08731,0.99288
223.615,16.79103,-0.01954001,1.0892,0.99264
224.115,16.80613,-0.01954,1.09082,0.99239
224.615,16.8213,-0.01954,1.08957,0.99215
225.115,16.83638,-0.01953984,1.091,0.99191
225.615,16.85151,-0.01953763,1.09372,0.99166
226.115,16.8666,-0.0195378,1.09433,0.99142
226.615,16.88169,-0.01986135,1.09388,0.99117
227.115,16.89677,-0.0198693,1.09468,0.99093
227.615,16.91188,-0.01986898,1.09582,0.99068
228.115,16.927,-0.01987536,1.09638,0.99044
228.615,16.94204,-0.02091907,1.09639,0.99019
229.115,16.95705,-0.02086015,1.09811,0.98994
229.615,16.97198,-0.02081755,1.09849,0.9897
230.115,16.98692,-0.02219073,1.09982,0.98945
230.615,17.00195,-0.02218338,1.10157,0.9892
231.115,17.01718,-0.02217768,1.10362,0.98895
231.615,17.0324,-0.02215792,1.10334,0.98871
232.115,17.04769,-0.02250361,1.10263,0.98846
232.615,17.06296,-0.02250933,1.10284,0.98821
233.115,17.07807,-0.02250997,1.10225,0.98796
233.615,17.0931,-0.02251,1.10653,0.98771
234.115,17.10821,-0.02251054,1.10465,0.98746
234.615,17.12331,-0.02252524,1.10493,0.98721
235.115,17.1384,-0.02299915,1.10705,0.98696
235.615,17.15344,-0.0234996,1.10827,0.98671
236.115,17.16854,-0.02349973,1.10857,0.98646
236.615,17.18356,-0.02350065,1.10923,0.9862
237.115,17.19866,-0.02350774,1.11134,0.98595
237.615,17.21376,-0.02384218,1.11148,0.9857
238.115,17.22877,-0.02383251,1.11048,0.98545
238.615,17.24384,-0.02383015,1.11074,0.98519
239.115,17.2588,-0.02383,1.11081,0.98494
239.615,17.27383,-0.02383,1.11267,0.98469
240.115,17.2889,-0.02383,1.11194,0.98443
240.615,17.304,-0.02383,1.11396,0.98418
241.115,17.31912,-0.02383002,1.11588,0.98392
241.615,17.33432,-0.02382959,1.11705,0.98367
242.115,17.34941,-0.02381345,1.11723,0.98341
242.615,17.36451,-0.02459409,1.11698,0.98316
243.115,17.37956,-0.02610368,1.11647,0.9829
243.615,17.39459,-0.02646577,1.11972,0.98265
244.115,17.40973,-0.02646962,1.11941,0.98239
244.615,17.42482,-0.02646998,1.11981,0.98213
245.115,17.43993,-0.02647,1.1221,0.98188
245.615,17.45501,-0.02647,1.12373,0.98162
246.115,17.4701,-0.02646997,1.12446,0.98136
246.615,17.48511,-0.02646956,1.12546,0.9811
247.115,17.50017,-0.02647111,1.12562,0.98084
247.615,17.51524,-0.02602228,1.1275,0.98058
248.115,17.53032,-0.02581608,1.12554,0.98033
248.615,17.5454,-0.02581019,1.12678,0.98007
249.115,17.56043,-0.02581,1.13111,0.97981
249.615,17.57549,-0.02581063,1.13066,0.97955
250.115,17.5905,-0.0258235,1.13053,0.97929
250.615,17.6055,-0.02631924,1.1306,0.97902
251.115,17.62059,-0.02711381,1.13343,0.97876
251.615,17.63566,-0.027119,1.13371,0.9785
252.115,17.65072,-0.02711994,1.13326,0.97824
252.615,17.6658,-0.02711999,1.13277,0.97798
253.115,17.68088,-0.02712024,1.13377,0.97772
253.615,17.69595,-0.02713082,1.13602,0.97745
254.115,17.71097,-0.0274903,1.13699,0.97719
254.615,17.72596,-0.02845003,1.13843,0.97693
255.115,17.74098,-0.02843934,1.13982,0.97666
255.615,17.75599,-0.02843993,1.13996,0.9764
256.115,17.771,-0.02844,1.13987,0.97613
256.615,17.78606,-0.02844,1.14012,0.97587
257.115,17.80116,-0.02844,1.13982,0.9756
257.615,17.81619,-0.02844,1.14133,0.97534
258.115,17.8312,-0.02844,1.14176,0.97507
258.615,17.84626,-0.02844,1.14205,0.97481
259.115,17.8613,-0.02844,1.14247,0.97454
259.615,17.87629,-0.02844002,1.14531,0.97427
260.115,17.8914,-0.02844036,1.14699,0.97401
260.615,17.9064,-0.02844112,1.14638,0.97374
261.115,17.92148,-0.02890773,1.14567,0.97347
261.615,17.93649,-0.02977825,1.14691,0.9732
262.115,17.95151,-0.02976075,1.14675,0.97293
262.615,17.96654,-0.02976001,1.14921,0.97267
263.115,17.98161,-0.0297582,1.15131,0.9724
263.615,17.99664,-0.02971117,1.15199,0.97213
264.115,18.0117,-0.03097383,1.15224,0.97186
264.615,18.02665,-0.03107993,1.15169,0.97159
265.115,18.04151,-0.03108258,1.15184,0.97132
265.615,18.05644,-0.03117749,1.15107,0.97105
266.115,18.07147,-0.03234209,1.15315,0.97078
266.615,18.0865,-0.03238978,1.15454,0.97051
267.115,18.1016,-0.0323901,1.15504,0.97023
267.615,18.1168,-0.03239037,1.15652,0.96996
268.115,18.13185,-0.03239467,1.15694,0.96969
268.615,18.14685,-0.03273539,1.1545,0.96942
269.115,18.16189,-0.03357477,1.15625,0.96915
269.615,18.17697,-0.03270658,1.15661,0.96887
270.115,18.19205,-0.03271957,1.15859,0.9686
270.615,18.20709,-0.03272012,1.15974,0.96833
271.115,18.22211,-0.03272883,1.16005,0.96805
271.615,18.2371,-0.03303046,1.15932,0.96778
272.115,18.25208,-0.03405884,1.16056,0.9675
272.615,18.26711,-0.03403965,1.16248,0.96723
273.115,18.28214,-0.03403993,1.1635,0.96695
273.615,18.29721,-0.03404,1.16139,0.96668
274.115,18.31229,-0.03404,1.16456,0.9664
274.615,18.3274,-0.03404,1.16612,0.96613
275.115,18.34242,-0.03404,1.165,0.96585
275.615,18.35746,-0.03404003,1.16627,0.96557
276.115,18.37249,-0.03404022,1.16701,0.9653
276.615,18.38749,-0.03403562,1.16699,0.96502
277.115,18.4025,-0.03461029,1.16714,0.96474
277.615,18.4175,-0.0353745,1.16667,0.96446
278.115,18.43252,-0.03536089,1.16838,0.96418
278.615,18.4476,-0.03534687,1.16915,0.96391
279.115,18.46262,-0.03633821,1.16892,0.96363
279.615,18.4777,-0.0366704,1.16894,0.96335
280.115,18.4927,-0.03667984,1.17153,0.96307
280.615,18.5078,-0.03668004,1.17209,0.96279
281.115,18.52285,-0.03668082,1.17402,0.96251
281.615,18.5379,-0.03669332,1.17384,0.96223
282.115,18.5529,-0.03727232,1.17471,0.96195
282.615,18.56794,-0.03797903,1.17564,0.96167
283.115,18.58297,-0.03798902,1.1734,0.96139
283.615,18.598,-0.03799003,1.17416,0.9611
284.115,18.61306,-0.03799022,1.17635,0.96082
284.615,18.62818,-0.03796684,1.17797,0.96054
285.115,18.6432,-0.03903213,1.17862,0.96026
285.615,18.6583,-0.03930282,1.17915,0.95997
286.115,18.67335,-0.03931,1.18112,0.95969
286.615,18.6884,-0.03931002,1.18077,0.95941
287.115,18.7035,-0.03931,1.18254,0.95912
287.615,18.7185,-0.03931001,1.18278,0.95884
288.115,18.73359,-0.03930998,1.18191,0.95856
288.615,18.7487,-0.03930771,1.18275,0.95827
289.115,18.7638,-0.03925903,1.1812,0.95799
289.615,18.77885,-0.04056255,1.18396,0.9577
290.115,18.794,-0.04063176,1.18579,0.95742
290.615,18.80905,-0.04063099,1.18589,0.95713
291.115,18.8241,-0.04064396,1.18758,0.95684
291.615,18.8392,-0.04118614,1.1886,0.95656
292.115,18.85429,-0.04193116,1.1873,0.95627
292.615,18.8692,-0.04193897,1.1902,0.95598
293.115,18.88413,-0.04193967,1.19123,0.9557
293.615,18.8992,-0.04193786,1.19211,0.95541
294.115,18.9143,-0.04199385,1.19298,0.95512
294.615,18.9293,-0.04331141,1.19541,0.95483
295.115,18.94453,-0.04326236,1.19613,0.95454
295.615,18.95976,-0.04326001,1.19666,0.95426
296.115,18.97482,-0.04326016,1.19752,0.95397
296.615,18.98985,-0.04326465,1.19884,0.95368
297.115,19.00498,-0.04346162,1.19899,0.95339
297.615,19.02005,-0.04458086,1.20012,0.9531
298.115,19.03513,-0.04457107,1.20052,0.95281
298.615,19.05023,-0.04526423,1.20186,0.95252
299.115,19.06532,-0.0459083,1.20323,0.95223
299.615,19.08043,-0.04589407,1.20445,0.95194
300.115,19.09554,-0.04682789,1.20574,0.95164
300.615,19.11065,-0.04719905,1.20529,0.95135
301.115,19.12576,-0.0472089,1.20837,0.95106
301.615,19.14092,-0.04722903,1.20858,0.95077
302.115,19.15597,-0.04838594,1.21038,0.95048
302.615,19.17108,-0.0485275,1.21181,0.95018
303.115,19.18619,-0.04853502,1.21262,0.94989
303.615,19.20131,-0.0493418,1.21301,0.9496
304.115,19.2164,-0.04982619,1.2164,0.9493
304.615,19.23151,-0.04983818,1.21763,0.94901
305.115,19.24663,-0.04983937,1.21816,0.94872
305.615,19.2617,-0.05095711,1.22025,0.94842
306.115,19.27675,-0.05115534,1.22076,0.94813
306.615,19.29178,-0.05116017,1.21976,0.94783
307.115,19.30685,-0.05115907,1.22273,0.94754
307.615,19.32195,-0.05166842,1.22362,0.94724
308.115,19.33707,-0.05261243,1.22431,0.94694
308.615,19.35215,-0.05255144,1.22646,0.94665
309.115,19.36729,-0.05392341,1.22792,0.94635
309.615,19.38244,-0.05388937,1.22805,0.94605
310.115,19.39754,-0.05463995,1.23033,0.94576
310.615,19.4127,-0.05533397,1.23214,0.94546
311.115,19.4278,-0.05538693,1.23194,0.94516
311.615,19.4428,-0.05694321,1.23217,0.94486
312.115,19.45779,-0.056855,1.23459,0.94457
312.615,19.47276,-0.0578123,1.23391,0.94427
313.115,19.48771,-0.05723218,1.23529,0.94397
313.615,19.50271,-0.05700572,1.23616,0.94367
314.115,19.51771,-0.05736373,1.23986,0.94337
314.615,19.533,-0.05830822,1.24068,0.94307
315.115,19.54824,-0.05915031,1.24075,0.94277
315.615,19.56352,-0.05988119,1.24155,0.94247
316.115,19.57875,-0.06094897,1.24262,0.94217
316.615,19.59393,-0.06092656,1.24392,0.94187
317.115,19.60902,-0.06148669,1.24559,0.94157
317.615,19.62411,-0.06226883,1.24684,0.94127
318.115,19.63926,-0.06251543,1.24718,0.94097
318.615,19.65446,-0.06379896,1.24971,0.94067
319.115,19.66959,-0.0637657,1.24941,0.94036
319.615,19.68471,-0.06458377,1.24946,0.94006
320.115,19.6998,-0.06510109,1.25151,0.93976
320.615,19.71484,-0.06507772,1.25204,0.93946
321.115,19.72997,-0.06620855,1.25504,0.93915
321.615,19.74512,-0.0665328,1.25729,0.93885
322.115,19.7603,-0.06723301,1.25928,0.93855
322.615,19.7755,-0.06805825,1.25943,0.93824
323.115,19.79061,-0.06838135,1.26125,0.93794
323.615,19.80579,-0.06950822,1.26259,0.93763
324.115,19.82091,-0.06991524,1.26281,0.93733
324.615,19.83601,-0.07130834,1.26279,0.93702
325.115,19.85117,-0.07163432,1.26512,0.93672
325.615,19.86635,-0.07320709,1.26845,0.93641
326.115,19.88148,-0.07321729,1.27038,0.93611
326.615,19.89666,-0.07449978,1.27123,0.9358
327.115,19.91183,-0.07496803,1.27138,0.93549
327.615,19.92697,-0.0749812,1.27321,0.93519
328.115,19.94207,-0.07512166,1.27511,0.93488
328.615,19.9572,-0.07634346,1.27584,0.93457
329.115,19.97234,-0.07630973,1.27663,0.93427
329.615,19.98754,-0.07708038,1.27677,0.93396
330.115,20.0027,-0.07772335,1.27744,0.93365
330.615,20.01783,-0.07811146,1.28049,0.93334
331.115,20.03302,-0.07916469,1.28592,0.93303
331.615,20.0482,-0.07919546,1.28537,0.93272
332.115,20.0634,-0.08036344,1.28714,0.93242
332.615,20.07856,-0.0804716,1.28908,0.93211
333.115,20.0938,-0.08084216,1.28613,0.9318
333.615,20.10888,-0.08202765,1.28909,0.93149
334.115,20.12404,-0.0828589,1.29367,0.93118
334.615,20.1392,-0.08376828,1.29484,0.93087
335.115,20.1544,-0.08496792,1.29708,0.93056
335.615,20.16958,-0.0852971,1.30058,0.93024
336.115,20.18476,-0.08549036,1.29838,0.92993
336.615,20.1999,-0.08672832,1.30323,0.92962
337.115,20.21517,-0.0868404,1.30376,0.92931
337.615,20.2304,-0.08833997,1.30606,0.929
338.115,20.24568,-0.08851716,1.3045,0.92869
338.615,20.26096,-0.08982698,1.30791,0.92837
339.115,20.2762,-0.08977445,1.31119,0.92806
339.615,20.29141,-0.09115557,1.31351,0.92775
340.115,20.3066,-0.09134016,1.31538,0.92743
340.615,20.32183,-0.09227898,1.31738,0.92712
341.115,20.3369,-0.09285066,1.31963,0.92681
341.615,20.35199,-0.09393711,1.32198,0.92649
342.115,20.36714,-0.09431572,1.3255,0.92618
342.615,20.38232,-0.09573967,1.32647,0.92586
343.115,20.39753,-0.09607774,1.32672,0.92555
343.615,20.41292,-0.09758961,1.33206,0.92523
344.115,20.42822,-0.09763423,1.33348,0.92492
344.615,20.44353,-0.09900031,1.33488,0.9246
345.115,20.45875,-0.09912582,1.33612,0.92429
345.615,20.47402,-0.10043,1.33985,0.92397
346.115,20.48919,-0.10103,1.34449,0.92366
346.615,20.50442,-0.10259,1.34566,0.92334
347.115,20.5197,-0.10382,1.35018,0.92302
347.615,20.53497,-0.10444,1.35444,0.9227
348.115,20.55025,-0.1058,1.35728,0.92239
348.615,20.56542,-0.10593,1.35956,0.92207
349.115,20.58066,-0.1075,1.36161,0.92175
349.615,20.5959,-0.1084,1.3655,0.92143
350.115,20.61112,-0.10998,1.36788,0.92112
350.615,20.6264,-0.11022,1.37314,0.9208
351.115,20.64167,-0.11229,1.3787,0.92048
351.615,20.65694,-0.11316,1.38039,0.92016
352.115,20.67224,-0.11427,1.38282,0.91984
352.615,20.6875,-0.11609,1.38637,0.91952
353.115,20.7028,-0.11668,1.3902,0.9192
353.615,20.71811,-0.11755,1.39482,0.91888
354.115,20.7334,-0.11945,1.39805,0.91856
354.615,20.7486,-0.1203,1.40223,0.91824
355.115,20.76391,-0.1204,1.40561,0.91792
355.615,20.77918,-0.12207,1.40859,0.9176
356.115,20.7944,-0.12401,1.41186,0.91728
356.615,20.8097,-0.12471,1.4154,0.91695
357.115,20.82505,-0.12602,1.41861,0.91663
357.615,20.84036,-0.12759,1.42555,0.91631
358.115,20.85564,-0.12905,1.43063,0.91599
358.615,20.87094,-0.12973,1.43568,0.91567
359.115,20.88626,-0.13097,1.43601,0.91534
359.615,20.90157,-0.13284,1.44083,0.91502
360.115,20.91691,-0.13489,1.44518,0.9147
360.615,20.93221,-0.13627,1.45066,0.91437
361.115,20.9475,-0.13804,1.45682,0.91405
361.615,20.96279,-0.13968,1.46042,0.91372
362.115,20.9781,-0.141,1.46583,0.9134
362.615,20.99336,-0.14239,1.47116,0.91308
363.115,21.0087,-0.14444,1.47646,0.91275
363.615,21.02405,-0.1464,1.48261,0.91243
364.115,21.0394,-0.14811,1.48906,0.9121
364.615,21.0547,-0.14937,1.49518,0.91178
365.115,21.06993,-0.15087,1.50075,0.91145
365.615,21.08525,-0.15174,1.50654,0.91112
366.115,21.1006,-0.15335,1.51058,0.9108
366.615,21.11586,-0.15477,1.5191,0.91047
367.115,21.1312,-0.15657,1.52585,0.91014
367.615,21.14659,-0.15874,1.53104,0.90982
368.115,21.1619,-0.16199,1.53609,0.90949
368.615,21.1772,-0.16422,1.5456,0.90916
369.115,21.1926,-0.16598,1.55453,0.90884
369.615,21.20796,-0.16725,1.558,0.90851
370.115,21.22335,-0.16904,1.56574,0.90818
370.615,21.2387,-0.17115,1.57569,0.90785
371.115,21.25406,-0.17353,1.58398,0.90752
371.615,21.26941,-0.17618,1.59351,0.90719
372.115,21.2848,-0.17832,1.60211,0.90686
372.615,21.30011,-0.18083,1.6105,0.90654
373.115,21.3155,-0.18283,1.62086,0.90621
373.615,21.33084,-0.18533,1.63093,0.90588
374.115,21.3462,-0.18753,1.64219,0.90555
374.615,21.3616,-0.19007,1.64872,0.90522
375.115,21.37696,-0.19243,1.6604,0.90489
375.615,21.3923,-0.19467,1.67164,0.90455
376.115,21.40774,-0.19687,1.68182,0.90422
376.615,21.42318,-0.19915,1.69384,0.90389
377.115,21.43856,-0.20154,1.70652,0.90356
377.615,21.45399,-0.20521,1.71635,0.90323
378.115,21.46937,-0.20875,1.73044,0.9029
378.615,21.48469,-0.21171,1.74396,0.90257
379.115,21.50003,-0.21541,1.75674,0.90223
379.615,21.51541,-0.21766,1.77012,0.9019
380.115,21.5308,-0.22036,1.78415,0.90157
380.615,21.54626,-0.22278,1.79762,0.90124
381.115,21.5617,-0.22577,1.81164,0.9009
381.615,21.57716,-0.22896,1.82869,0.90057
382.115,21.59262,-0.23241,1.84631,0.90023
382.615,21.6081,-0.2359,1.86302,0.8999
383.115,21.62353,-0.23944,1.8785,0.89957
383.615,21.63896,-0.24294,1.89755,0.89923
384.115,21.6544,-0.24653,1.91548,0.8989
384.615,21.6698,-0.25052,1.93282,0.89856
385.115,21.68526,-0.25407,1.95062,0.89823
385.615,21.7007,-0.25763,1.97139,0.89789
386.115,21.71613,-0.26205,1.99146,0.89756
386.615,21.7316,-0.26694,2.01077,0.89722
387.115,21.74705,-0.27184,2.03162,0.89689
387.615,21.7625,-0.27651,2.05305,0.89655
388.115,21.77792,-0.28079,2.07531,0.89621
388.615,21.79336,-0.28512,2.09855,0.89588
389.115,21.80879,-0.2895,2.12113,0.89554
389.615,21.8242,-0.29423,2.14682,0.8952
390.115,21.8397,-0.29906,2.17059,0.89487
390.615,21.85517,-0.30404,2.19704,0.89453
391.115,21.87065,-0.30896,2.2233,0.89419
391.615,21.88617,-0.31405,2.24839,0.89385
392.115,21.90171,-0.31916,2.27598,0.89351
392.615,21.9172,-0.32427,2.30438,0.89318
393.115,21.93262,-0.32977,2.3339,0.89284
393.615,21.94812,-0.3355,2.36488,0.8925
394.115,21.96357,-0.34133,2.39459,0.89216
394.615,21.97906,-0.34775,2.42435,0.89182
395.115,21.99457,-0.35437,2.45717,0.89148
395.615,22.01013,-0.36122,2.48996,0.89114
396.115,22.0256,-0.36775,2.52179,0.8908
396.615,22.04106,-0.37427,2.5595,0.89046
397.115,22.0566,-0.38091,2.59537,0.89012
397.615,22.0721,-0.38805,2.63436,0.88978
398.115,22.08764,-0.39595,2.67232,0.88944
398.615,22.10324,-0.404,2.70956,0.8891
399.115,22.11882,-0.41209,2.74768,0.88876
399.615,22.13436,-0.42,2.78706,0.88842
400.115,22.14997,-0.42793,2.83252,0.88807
400.615,22.16553,-0.43591,2.87549,0.88773
401.115,22.18109,-0.44412,2.9195,0.88739
401.615,22.19665,-0.45285,2.96468,0.88705
402.115,22.21219,-0.46212,3.01117,0.8867
402.615,22.2278,-0.47213,3.06168,0.88636
403.115,22.2434,-0.48176,3.11032,0.88602
403.615,22.25901,-0.49136,3.15947,0.88568
404.115,22.27463,-0.50089,3.20696,0.88533
404.615,22.29028,-0.51085,3.26182,0.88499
405.115,22.3059,-0.52148,3.31367,0.88465
405.615,22.32152,-0.53231,3.36788,0.8843
406.115,22.33709,-0.54361,3.42444,0.88396
406.615,22.3527,-0.55537,3.48323,0.88361
407.115,22.36829,-0.56732,3.54224,0.88327
407.615,22.38395,-0.57963,3.60307,0.88292
408.115,22.3996,-0.59229,3.666,0.88258
408.615,22.41526,-0.60517,3.72796,0.88223
409.115,22.43093,-0.61834,3.796,0.88189
409.615,22.44661,-0.63198,3.86422,0.88154
410.115,22.46227,-0.64585,3.92996,0.8812
410.615,22.478,-0.66017,4.01141,0.88085
411.115,22.4937,-0.6752,4.08468,0.8805
411.615,22.50937,-0.69159,4.15367,0.88016
412.115,22.52501,-0.70694,4.22326,0.87981
412.615,22.54068,-0.72276,4.30279,0.87946
413.115,22.55633,-0.73897,4.38676,0.87912
413.615,22.572,-0.7553,4.46723,0.87877
414.115,22.58773,-0.77094,4.54811,0.87842
414.615,22.60352,-0.78833,4.63387,0.87807
415.115,22.6192,-0.80615,4.72142,0.87773
415.615,22.63494,-0.82457,4.81228,0.87738
416.115,22.65073,-0.84368,4.9068,0.87703
416.615,22.66649,-0.86355,5.01208,0.87668
417.115,22.68222,-0.88386,5.11327,0.87633
417.615,22.69801,-0.90443,5.21247,0.87598
418.115,22.71379,-0.92568,5.33006,0.87563
418.615,22.7296,-0.94794,5.43571,0.87529
419.115,22.7454,-0.97034,5.54318,0.87494
419.615,22.76124,-0.99324,5.64128,0.87459
420.115,22.77701,-1.01639,5.74759,0.87424
420.615,22.79281,-1.04059,5.85933,0.87389
421.115,22.80864,-1.06611,5.96206,0.87354
421.615,22.8244,-1.09224,6.07222,0.87319
422.115,22.84029,-1.11863,6.19261,0.87283
422.615,22.8562,-1.14536,6.32529,0.87248
423.115,22.8721,-1.17321,6.45043,0.87213
423.615,22.8879,-1.20125,6.57065,0.87178
424.115,22.90389,-1.23064,6.7059,0.87143
424.615,22.91975,-1.26039,6.84991,0.87108
425.115,22.93565,-1.29041,6.99802,0.87073
425.615,22.9516,-1.32133,7.12963,0.87037
426.115,22.9676,-1.35347,7.24857,0.87002
426.615,22.98355,-1.38682,7.36795,0.86967
427.115,22.99955,-1.42072,7.48248,0.86932
427.615,23.01549,-1.45501,7.59705,0.86896
428.115,23.03138,-1.48933,7.70436,0.86861
428.615,23.04731,-1.52426,7.81205,0.86826
429.115,23.06329,-1.56022,7.91833,0.8679
429.615,23.0793,-1.59715,8.02157,0.86755
430.115,23.0953,-1.63467,8.14194,0.8672
430.615,23.1113,-1.67284,8.24047,0.86684
431.115,23.12729,-1.71061,8.32743,0.86649
431.615,23.14327,-1.74977,8.44764,0.86613
432.115,23.15919,-1.78576,8.58452,0.86578
432.615,23.17519,-1.83126,8.69472,0.86542
433.115,23.1912,-1.88354,8.7832,0.86507
433.615,23.2072,-1.92859,8.87684,0.86471
434.115,23.22319,-1.97002,8.99199,0.86436
434.615,23.2392,-2.01186,9.07409,0.864
435.115,23.25518,-2.05434,9.15585,0.86365
435.615,23.2712,-2.09808,9.2136,0.86329
436.115,23.2872,-2.14248,9.24545,0.86294
436.615,23.30319,-2.18678,9.3003,0.86258
437.115,23.31912,-2.23039,9.32729,0.86222
437.615,23.33507,-2.27348,9.34626,0.86187
438.115,23.351,-2.31643,9.35512,0.86151
438.615,23.36695,-2.35968,9.34622,0.86115
439.115,23.3829,-2.40353,9.33425,0.86079
439.615,23.39896,-2.44731,9.3329,0.86044
440.115,23.41489,-2.48948,9.37532,0.86008
440.615,23.43086,-2.53142,9.38528,0.85972
441.115,23.44683,-2.57363,9.37384,0.85936
441.615,23.46276,-2.61655,9.34689,0.85901
442.115,23.47866,-2.66076,9.30482,0.85865
442.615,23.49456,-2.70594,9.24861,0.85829
443.115,23.51042,-2.74998,9.17532,0.85793
443.615,23.52629,-2.79351,9.12099,0.85757
444.115,23.54215,-2.83648,9.07603,0.85721
444.615,23.55801,-2.87937,8.99724,0.85685
445.115,23.57387,-2.92199,8.90728,0.85649
445.615,23.58963,-2.9635,8.80435,0.85613
446.115,23.60537,-3.00489,8.67533,0.85577
446.615,23.62116,-3.04587,8.54462,0.85541
447.115,23.63689,-3.08593,8.3998,0.85505
447.615,23.65256,-3.12504,8.24871,0.85469
448.115,23.66822,-3.16333,8.08843,0.85433
448.615,23.68388,-3.20102,7.9199,0.85397
449.115,23.69953,-3.23849,7.73804,0.85361
449.615,23.71517,-3.27582,7.55329,0.85325
450.115,23.73081,-3.30515,7.35801,0.85289
450.615,23.74628,-3.33494,7.15407,0.85253
451.115,23.76182,-3.36466,6.94078,0.85217
451.615,23.77732,-3.39582,6.72033,0.8518
452.115,23.79285,-3.42575,6.49723,0.85144
452.615,23.8084,-3.45471,6.26928,0.85108
453.115,23.824,-3.48258,6.03762,0.85072
453.615,23.83938,-3.50928,5.809,0.85036
454.115,23.85482,-3.53534,5.57875,0.84999
454.615,23.87022,-3.56,5.34518,0.84963
455.115,23.8856,-3.58338,5.11466,0.84927
455.615,23.90095,-3.60538,4.88667,0.8489
456.115,23.9163,-3.62599,4.66217,0.84854
456.615,23.93161,-3.6456,4.43982,0.84818
457.115,23.94687,-3.66393,4.22595,0.84781
457.615,23.9622,-3.68174,4.0134,0.84745
458.115,23.97747,-3.69847,3.81024,0.84709
458.615,23.99278,-3.71448,3.60657,0.84672
459.115,24.00806,-3.73,3.41306,0.84636
459.615,24.02336,-3.74382,3.23137,0.84599
460.115,24.03866,-3.75671,3.05168,0.84563
460.615,24.05398,-3.7688,2.87901,0.84526
461.115,24.06921,-3.77967,2.71845,0.8449
461.615,24.08448,-3.78999,2.56422,0.84453
462.115,24.09974,-3.79999,2.41815,0.84417
462.615,24.11499,-3.80994,2.27734,0.8438
463.115,24.13026,-3.81941,2.14735,0.84344
463.615,24.1456,-3.82773,2.02286,0.84307
464.115,24.16089,-3.83505,1.90503,0.8427
464.615,24.17625,-3.84205,1.79377,0.84234
465.115,24.1915,-3.84895,1.69359,0.84197
465.615,24.2068,-3.85542,1.59542,0.8416
466.115,24.2221,-3.86131,1.50504,0.84124
466.615,24.2374,-3.86663,1.41822,0.84087
467.115,24.25273,-3.87156,1.33858,0.8405
467.615,24.26811,-3.87615,1.26172,0.84014
468.115,24.2835,-3.88106,1.19271,0.83977
468.615,24.2988,-3.88588,1.12863,0.8394
469.115,24.3143,-3.89011,1.07049,0.83903
469.615,24.3297,-3.89409,1.01051,0.83867
470.115,24.34514,-3.89794,0.9565,0.8383
470.615,24.36052,-3.90171,0.90742,0.83793
471.115,24.37585,-3.90494,0.86186,0.83756
471.615,24.3911,-3.90811,0.82058,0.83719
472.115,24.40639,-3.91154,0.77991,0.83682
472.615,24.4219,-3.91447,0.74288,0.83645
473.115,24.43745,-3.91673,0.7073,0.83609
473.615,24.45309,-3.91857,0.67475,0.83572
474.115,24.46867,-3.9205,0.64291,0.83535
474.615,24.48433,-3.92233,0.61475,0.83498
475.115,24.49985,-3.9242,0.5893,0.83461
475.615,24.51539,-3.92603,0.56259,0.83424
476.115,24.5309,-3.92785,0.53747,0.83387
476.615,24.54659,-3.93002,0.51674,0.8335
477.115,24.56221,-3.93126,0.49366,0.83313
477.615,24.5778,-3.9324,0.472,0.83276
478.115,24.59348,-3.93398,0.45145,0.83239
478.615,24.60906,-3.93593,0.43536,0.83201
479.115,24.6247,-3.93672,0.4186,0.83164
479.615,24.64021,-3.93739,0.40373,0.83127
480.115,24.6558,-3.93884,0.38762,0.8309
480.615,24.67142,-3.9392,0.37163,0.83053
481.115,24.68705,-3.9408,0.3579,0.83016
481.615,24.70265,-3.94202,0.34459,0.82979
482.115,24.71838,-3.94273,0.33148,0.82941
482.615,24.73404,-3.94432,0.32271,0.82904
483.115,24.7498,-3.94498,0.31009,0.82867
483.615,24.76547,-3.94586,0.29828,0.8283
484.115,24.78122,-3.94668,0.28765,0.82793
484.615,24.7969,-3.94738,0.27823,0.82755
485.115,24.81267,-3.94796,0.26873,0.82718
485.615,24.82838,-3.94869,0.25984,0.82681
486.115,24.84412,-3.94871,0.24948,0.82643
486.615,24.85986,-3.94933,0.23827,0.82606
487.115,24.87558,-3.95092,0.23084,0.82569
487.615,24.89132,-3.95131,0.22207,0.82531
488.115,24.90708,-3.95132,0.2127,0.82494
488.615,24.92279,-3.95132,0.20279,0.82457
489.115,24.9386,-3.95132,0.19576,0.82419
489.615,24.9543,-3.95134,0.18837,0.82382
490.115,24.97004,-3.95253,0.18259,0.82344
490.615,24.98581,-3.95264,0.17556,0.82307
491.115,25.00153,-3.95264,0.16885,0.82269
491.615,25.01725,-3.95264,0.16222,0.82232
492.115,25.03305,-3.95264,0.15643,0.82194
492.615,25.04886,-3.95264,0.15227,0.82157
493.115,25.06468,-3.95264,0.14738,0.82119
493.615,25.08055,-3.95265,0.14678,0.82082
494.115,25.09635,-3.95384,0.1447,0.82044
494.615,25.11215,-3.95396,0.14282,0.82007
495.115,25.12791,-3.95396,0.14017,0.81969
495.615,25.1437,-3.95396,0.13768,0.81932
496.115,25.15951,-3.95396,0.13393,0.81894
496.615,25.17537,-3.95396,0.13163,0.81856
497.115,25.1912,-3.95396,0.13019,0.81819
497.615,25.2071,-3.95396,0.13025,0.81781
498.115,25.2229,-3.95396,0.12982,0.81743
498.615,25.23872,-3.95396,0.12814,0.81706
499.115,25.25455,-3.95396,0.12951,0.81668
499.615,25.27039,-3.95396,0.12929,0.8163
500.115,25.2862,-3.95396,0.12846,0.81593
500.615,25.3021,-3.95396,0.12748,0.81555
501.115,25.318,-3.95396,0.12631,0.81517
501.615,25.33391,-3.95396,0.12716,0.81479
502.115,25.34981,-3.95396,0.12872,0.81441
502.615,25.3657,-3.95396,0.12811,0.81404
503.115,25.3815,-3.95396,0.12873,0.81366
503.615,25.39736,-3.95396,0.12992,0.81328
504.115,25.41316,-3.95396,0.13079,0.8129
504.615,25.42898,-3.95396,0.13012,0.81252
505.115,25.44485,-3.95396,0.13069,0.81214
505.615,25.46071,-3.95396,0.13239,0.81177
506.115,25.47664,-3.95396,0.13329,0.81139
506.615,25.49257,-3.95396,0.13394,0.81101
507.115,25.50858,-3.95396,0.13363,0.81063
507.615,25.5245,-3.95392,0.13215,0.81025
508.115,25.54051,-3.95429,0.13483,0.80987
508.615,25.55644,-3.95429,0.13401,0.80949
509.115,25.57239,-3.95429,0.13461,0.80911
509.615,25.58834,-3.95429,0.13346,0.80873
510.115,25.60428,-3.95429,0.13518,0.80835
510.615,25.62022,-3.95429,0.13419,0.80797
511.115,25.6361,-3.95429,0.13138,0.80759
511.615,25.65202,-3.95429,0.13202,0.80721
512.115,25.66795,-3.95429,0.13304,0.80683
512.615,25.68388,-3.95442,0.13306,0.80645
513.115,25.69988,-3.95528,0.13213,0.80607
513.615,25.71579,-3.95528,0.13264,0.80569
514.115,25.73173,-3.95528,0.13467,0.8053
514.615,25.74769,-3.95528,0.13425,0.80492
515.115,25.76361,-3.95528,0.13362,0.80454
515.615,25.77956,-3.95528,0.13222,0.80416
516.115,25.7956,-3.95527,0.13318,0.80378
516.615,25.8115,-3.9561,0.13139,0.8034
517.115,25.8275,-3.9566,0.13089,0.80301
517.615,25.84349,-3.9566,0.13018,0.80263
518.115,25.8595,-3.9566,0.13225,0.80225
518.615,25.87545,-3.9566,0.13239,0.80187
519.115,25.8915,-3.9566,0.13044,0.80149
519.615,25.90747,-3.9566,0.13046,0.8011
520.115,25.9234,-3.9566,0.12979,0.80072
520.615,25.93935,-3.9566,0.12832,0.80034
521.115,25.95534,-3.9566,0.12661,0.79995
521.615,25.97133,-3.9566,0.1259,0.79957
522.115,25.98734,-3.9566,0.12488,0.79919
522.615,26.00336,-3.9566,0.12431,0.7988
523.115,26.01936,-3.9566,0.12358,0.79842
523.615,26.03537,-3.9566,0.12306,0.79804
524.115,26.0514,-3.9566,0.12372,0.79765
524.615,26.06741,-3.9566,0.12274,0.79727
525.115,26.08344,-3.9566,0.12236,0.79689
525.615,26.09947,-3.9566,0.12079,0.7965
526.115,26.11551,-3.9566,0.11989,0.79612
526.615,26.1315,-3.9566,0.12038,0.79573
527.115,26.1476,-3.9566,0.12067,0.79535
527.615,26.1636,-3.9566,0.11777,0.79496
528.115,26.1796,-3.9566,0.11799,0.79458
528.615,26.1956,-3.9566,0.11668,0.79419
529.115,26.21167,-3.9566,0.11654,0.79381
529.615,26.22774,-3.9566,0.11614,0.79342
530.115,26.2438,-3.9566,0.11301,0.79304
530.615,26.2599,-3.9566,0.1105,0.79265
531.115,26.27601,-3.9566,0.10943,0.79227
531.615,26.29192,-3.9566,0.10793,0.79188
532.115,26.3079,-3.9566,0.10639,0.7915
532.615,26.324,-3.9566,0.10634,0.79111
533.115,26.34005,-3.9566,0.10543,0.79073
533.615,26.3561,-3.9566,0.1019,0.79034
534.115,26.37225,-3.9566,0.10221,0.78995
534.615,26.3883,-3.95659,0.10031,0.78957
535.115,26.4044,-3.95736,0.09881857,0.78918
535.615,26.42045,-3.95791,0.09590246,0.78879
536.115,26.43651,-3.95791,0.09459905,0.78841
536.615,26.45247,-3.95791,0.09248557,0.78802
537.115,26.46852,-3.95791,0.09272484,0.78763
537.615,26.48459,-3.95791,0.09154152,0.78725
538.115,26.5007,-3.95791,0.09084255,0.78686
538.615,26.5168,-3.95791,0.09091611,0.78647
539.115,26.53295,-3.95791,0.09003448,0.78608
539.615,26.54893,-3.95791,0.09010323,0.7857
540.115,26.56493,-3.95791,0.08866587,0.78531
540.615,26.58091,-3.95796,0.08729711,0.78492
541.115,26.59692,-3.95928,0.08622085,0.78453
541.615,26.61305,-3.95924,0.08585513,0.78415
542.115,26.62915,-3.95787,0.08542164,0.78376
542.615,26.6452,-3.95792,0.08568915,0.78337
543.115,26.6612,-3.95792,0.08492723,0.78298
543.215,26.6644,-3.95792,0.08515048,0.7829