File: 01_Data/Bean_Bag_Chair_Beads/STA/N2/30K_min/Bean_Bag_PS_Beads_STA_N2_30KData_220518_R2.csv
##Temp./Â°C,Time/min,Mass loss(subtr.2)/mg,DSC(subtr.2)/(mW/mg),Sensit./(uV/mW)
48.618,10.00583,-0.01822,0.01170418,1.05399
49.118,10.5068,-0.01643465,0.04632406,1.05389
49.618,10.6223,-0.01733716,0.07453909,1.05379
50.118,10.7018,-0.01691266,0.10134,1.05369
50.618,10.76637,-0.01805261,0.12375,1.05358
51.118,10.82064,-0.01872517,0.14605,1.05348
51.618,10.87005,-0.01790083,0.16655,1.05338
52.118,10.91498,-0.01719373,0.18307,1.05327
52.618,10.95594,-0.01784484,0.20124,1.05317
53.118,10.99436,-0.01718581,0.21868,1.05306
53.618,11.03076,-0.01694226,0.23447,1.05296
54.118,11.06528,-0.01751235,0.24815,1.05285
54.618,11.0981,-0.0172014,0.26284,1.05275
55.118,11.12985,-0.01813306,0.27719,1.05264
55.618,11.16023,-0.01846271,0.29038,1.05253
56.118,11.18943,-0.01823619,0.30282,1.05243
56.618,11.2181,-0.01814784,0.31553,1.05232
57.118,11.24581,-0.017997,0.32664,1.05221
57.618,11.2728,-0.01819277,0.33837,1.0521
58.118,11.29899,-0.01789027,0.35085,1.05199
58.618,11.32451,-0.01717362,0.36041,1.05188
59.118,11.34967,-0.01701003,0.37203,1.05177
59.618,11.37457,-0.01634534,0.38025,1.05166
60.118,11.39879,-0.01656384,0.38799,1.05155
60.618,11.42271,-0.0173266,0.39852,1.05144
61.118,11.44616,-0.01788231,0.4103,1.05132
61.618,11.4694,-0.01712535,0.4162,1.05121
62.118,11.49201,-0.01640012,0.42305,1.0511
62.618,11.5143,-0.01670321,0.4335,1.05098
63.118,11.5364,-0.0167664,0.44074,1.05087
63.618,11.55823,-0.01696938,0.44873,1.05076
64.118,11.57992,-0.01756664,0.45382,1.05064
64.618,11.6014,-0.01779453,0.46374,1.05053
65.118,11.62262,-0.01756023,0.4708,1.05041
65.618,11.64362,-0.0164934,0.47798,1.05029
66.118,11.66428,-0.01595998,0.48451,1.05018
66.618,11.68482,-0.01696097,0.4916,1.05006
67.118,11.7052,-0.01848349,0.49771,1.04994
67.618,11.72545,-0.01817163,0.50423,1.04982
68.118,11.74554,-0.01734514,0.5107,1.0497
68.618,11.76553,-0.01694251,0.51652,1.04959
69.118,11.78529,-0.01751684,0.5215,1.04947
69.618,11.80498,-0.01807001,0.52946,1.04935
70.118,11.8245,-0.01833033,0.53539,1.04923
70.618,11.84394,-0.01738928,0.53755,1.04911
71.118,11.8633,-0.01677274,0.54229,1.04898
71.618,11.88255,-0.01708966,0.54965,1.04886
72.118,11.9018,-0.0173723,0.55405,1.04874
72.618,11.921,-0.01730701,0.55815,1.04862
73.118,11.93995,-0.01743248,0.56474,1.04849
73.618,11.95894,-0.01801697,0.57146,1.04837
74.118,11.9777,-0.01805111,0.57392,1.04825
74.618,11.99649,-0.01758019,0.57902,1.04812
75.118,12.01523,-0.01756357,0.58317,1.048
75.618,12.03377,-0.0171775,0.58719,1.04787
76.118,12.05226,-0.01757133,0.59253,1.04775
76.618,12.07071,-0.01709272,0.59757,1.04762
77.118,12.08906,-0.01753077,0.60205,1.04749
77.618,12.10737,-0.01792875,0.60822,1.04737
78.118,12.1256,-0.01788537,0.6129,1.04724
78.618,12.14372,-0.01767258,0.61714,1.04711
79.118,12.16184,-0.01839943,0.62123,1.04698
79.618,12.18,-0.01758775,0.62722,1.04686
80.118,12.198,-0.01683289,0.63178,1.04673
80.618,12.21604,-0.01764976,0.63576,1.0466
81.118,12.234,-0.01643292,0.63984,1.04647
81.618,12.25179,-0.01734646,0.64448,1.04634
82.118,12.26958,-0.01614858,0.65194,1.04621
82.618,12.28737,-0.01728795,0.65817,1.04607
83.118,12.305,-0.01620309,0.66128,1.04594
83.618,12.3227,-0.01719379,0.66796,1.04581
84.118,12.34046,-0.01712895,0.67253,1.04568
84.618,12.35803,-0.01713089,0.67699,1.04554
85.118,12.37562,-0.01707103,0.68241,1.04541
85.618,12.39316,-0.01773332,0.68802,1.04528
86.118,12.41062,-0.01715307,0.69363,1.04514
86.618,12.42803,-0.01803965,0.6964,1.04501
87.118,12.44545,-0.01783593,0.70105,1.04487
87.618,12.46289,-0.01712487,0.70274,1.04474
88.118,12.48015,-0.01817765,0.70383,1.0446
88.618,12.49745,-0.01716964,0.7046,1.04446
89.118,12.51465,-0.01712767,0.70354,1.04433
89.618,12.53186,-0.0171189,0.70639,1.04419
90.118,12.5489,-0.01734316,0.69932,1.04405
90.618,12.56595,-0.01735126,0.70156,1.04391
91.118,12.5832,-0.01746645,0.69633,1.04377
91.618,12.60047,-0.01783234,0.69375,1.04363
92.118,12.61765,-0.0174452,0.69006,1.04349
92.618,12.63492,-0.01745814,0.68642,1.04335
93.118,12.652,-0.01744129,0.68465,1.04321
93.618,12.6691,-0.01857291,0.68469,1.04307
94.118,12.6862,-0.01746334,0.68423,1.04293
94.618,12.70319,-0.01744653,0.6839,1.04279
95.118,12.72023,-0.01667068,0.68385,1.04265
95.618,12.73727,-0.01657446,0.68242,1.0425
96.118,12.75422,-0.01744713,0.68384,1.04236
96.618,12.77122,-0.01745941,0.68602,1.04222
97.118,12.78819,-0.0174698,0.68686,1.04207
97.618,12.80499,-0.01801496,0.69062,1.04193
98.118,12.82179,-0.01877122,0.69321,1.04178
98.618,12.8386,-0.0178392,0.69504,1.04164
99.118,12.85549,-0.01746563,0.70075,1.04149
99.618,12.87229,-0.01746153,0.70452,1.04135
100.118,12.88912,-0.01785528,0.70946,1.0412
100.618,12.906,-0.01746129,0.71614,1.04105
101.118,12.92276,-0.01747908,0.72018,1.0409
101.618,12.93955,-0.01643769,0.72732,1.04076
102.118,12.9564,-0.01612554,0.73577,1.04061
102.618,12.97322,-0.01718874,0.74006,1.04046
103.118,12.99003,-0.01745527,0.74645,1.04031
103.618,13.0068,-0.01747431,0.75677,1.04016
104.118,13.02363,-0.01629337,0.7614,1.04001
104.618,13.04033,-0.01613677,0.76923,1.03986
105.118,13.05712,-0.01612135,0.77706,1.03971
105.618,13.07368,-0.01722318,0.78369,1.03956
106.118,13.09034,-0.01745658,0.79115,1.03941
106.618,13.10694,-0.01746156,0.79642,1.03925
107.118,13.1236,-0.01752556,0.80316,1.0391
107.618,13.1404,-0.01691324,0.81143,1.03895
108.118,13.1573,-0.01744986,0.81618,1.03879
108.618,13.1742,-0.01746035,0.82222,1.03864
109.118,13.19106,-0.01746083,0.82683,1.03849
109.618,13.2079,-0.01742861,0.83068,1.03833
110.118,13.2246,-0.01870892,0.83612,1.03818
110.618,13.24131,-0.01878371,0.83668,1.03802
111.118,13.25801,-0.0187801,0.84037,1.03787
111.618,13.27475,-0.01877975,0.84408,1.03771
112.118,13.29142,-0.01877642,0.84798,1.03755
112.618,13.3081,-0.01823302,0.84858,1.03739
113.118,13.3249,-0.01746374,0.85173,1.03724
113.618,13.3415,-0.0184067,0.85506,1.03708
114.118,13.35811,-0.01877582,0.85521,1.03692
114.618,13.37474,-0.01878027,0.85588,1.03676
115.118,13.39135,-0.01878001,0.85824,1.0366
115.618,13.4079,-0.01877978,0.86168,1.03644
116.118,13.4246,-0.01877641,0.86392,1.03628
116.618,13.4413,-0.01823655,0.86527,1.03612
117.118,13.45785,-0.01832086,0.86971,1.03596
117.618,13.47446,-0.01877545,0.87276,1.0358
118.118,13.49107,-0.0187798,0.87283,1.03564
118.618,13.5076,-0.01878207,0.87438,1.03547
119.118,13.5242,-0.01882702,0.87801,1.03531
119.618,13.5409,-0.01739984,0.8813,1.03515
120.118,13.55744,-0.0180543,0.88416,1.03498
120.618,13.57391,-0.01811154,0.88405,1.03482
121.118,13.5905,-0.01811008,0.88186,1.03466
121.618,13.60705,-0.01811,0.88629,1.03449
122.118,13.6234,-0.0181101,0.88717,1.03433
122.618,13.6399,-0.01810899,0.89048,1.03416
123.118,13.65635,-0.01804059,0.89048,1.03399
123.618,13.67268,-0.01876705,0.89292,1.03383
124.118,13.68914,-0.01875381,0.89315,1.03366
124.618,13.70565,-0.0181378,0.89576,1.03349
125.118,13.7221,-0.01779439,0.8963,1.03333
125.618,13.73851,-0.01779006,0.89575,1.03316
126.118,13.7549,-0.01778992,0.89605,1.03299
126.618,13.77123,-0.0177889,0.89832,1.03282
127.118,13.78767,-0.0178364,0.90223,1.03265
127.618,13.80401,-0.01906648,0.89933,1.03248
128.118,13.82029,-0.01906668,0.89935,1.03231
128.618,13.83654,-0.0187875,0.90064,1.03214
129.118,13.8528,-0.01877996,0.90298,1.03197
129.618,13.86904,-0.01877999,0.9059,1.0318
130.118,13.88534,-0.01878,0.90656,1.03163
130.618,13.9016,-0.01878,0.90701,1.03145
131.118,13.9179,-0.01878,0.90907,1.03128
131.618,13.93421,-0.01878,0.91041,1.03111
132.118,13.9504,-0.01878,0.91234,1.03093
132.618,13.9665,-0.01878,0.91313,1.03076
133.118,13.9826,-0.01878,0.91524,1.03059
133.618,13.9987,-0.01878,0.92029,1.03041
134.118,14.01476,-0.01878005,0.92083,1.03024
134.618,14.03096,-0.01878087,0.92268,1.03006
135.118,14.0472,-0.01875834,0.9248,1.02988
135.618,14.0634,-0.01991256,0.92589,1.02971
136.118,14.07965,-0.01938041,0.9284,1.02953
136.618,14.09578,-0.01879341,0.93021,1.02935
137.118,14.1119,-0.01878016,0.93178,1.02918
137.618,14.128,-0.01877998,0.93104,1.029
138.118,14.1441,-0.01878,0.93226,1.02882
138.618,14.16014,-0.01878,0.9362,1.02864
139.118,14.1763,-0.01878,0.93819,1.02846
139.618,14.19232,-0.01878,0.93742,1.02828
140.118,14.20836,-0.01878,0.93824,1.0281
140.618,14.22441,-0.01878,0.94076,1.02792
141.118,14.2404,-0.01878,0.94224,1.02774
141.618,14.2564,-0.01877998,0.94486,1.02756
142.118,14.2724,-0.01877997,0.94524,1.02738
142.618,14.28836,-0.01879055,0.94829,1.0272
143.118,14.30432,-0.01925238,0.95084,1.02701
143.618,14.32035,-0.02008948,0.95154,1.02683
144.118,14.33625,-0.02009914,0.95181,1.02665
144.618,14.3521,-0.02009999,0.95329,1.02646
145.118,14.36801,-0.0201,0.95419,1.02628
145.618,14.3839,-0.0201,0.95593,1.0261
146.118,14.39975,-0.0201,0.95717,1.02591
146.618,14.41564,-0.0201,0.95783,1.02573
147.118,14.4315,-0.0201,0.9595,1.02554
147.618,14.4473,-0.0201,0.96021,1.02535
148.118,14.46305,-0.02009997,0.96157,1.02517
148.618,14.4789,-0.02009992,0.96506,1.02498
149.118,14.49479,-0.02011318,0.96767,1.02479
149.618,14.51065,-0.01928456,0.96823,1.02461
150.118,14.52655,-0.0187827,0.97031,1.02442
150.618,14.54241,-0.01878003,0.97266,1.02423
151.118,14.55821,-0.01877686,0.97337,1.02404
151.618,14.57404,-0.02074017,0.97143,1.02385
152.118,14.5898,-0.02140484,0.97287,1.02366
152.618,14.60564,-0.02141978,0.97552,1.02347
153.118,14.6214,-0.02145543,0.97817,1.02328
153.618,14.6371,-0.02023714,0.97712,1.02309
154.118,14.6529,-0.02009891,0.97819,1.0229
154.618,14.66857,-0.02009973,0.9812,1.02271
155.118,14.6843,-0.02009999,0.98381,1.02252
155.618,14.70004,-0.0201,0.98492,1.02232
156.118,14.7158,-0.0201,0.98729,1.02213
156.618,14.73148,-0.02010002,0.98789,1.02194
157.118,14.74722,-0.02009932,0.98668,1.02174
157.618,14.763,-0.02007712,0.98983,1.02155
158.118,14.77871,-0.0207474,0.9908,1.02136
158.618,14.79432,-0.02006764,0.99105,1.02116
159.118,14.81,-0.02008871,0.99133,1.02097
159.618,14.8257,-0.02009,0.99354,1.02077
160.118,14.8413,-0.02009,0.99358,1.02057
160.618,14.85704,-0.02009,0.99165,1.02038
161.118,14.87279,-0.02009,0.99545,1.02018
161.618,14.88848,-0.02009,0.99468,1.01998
162.118,14.9042,-0.02009,0.99423,1.01979
162.618,14.92,-0.02009,0.99472,1.01959
163.118,14.93561,-0.02009001,0.9972,1.01939
163.618,14.9512,-0.02009006,0.99747,1.01919
164.118,14.9669,-0.02008889,0.99668,1.01899
164.618,14.9824,-0.02004205,0.99629,1.01879
165.118,14.99805,-0.02134408,0.99864,1.01859
165.618,15.0136,-0.02141272,0.99869,1.01839
166.118,15.0293,-0.02141025,0.99779,1.01819
166.618,15.04486,-0.02141,0.99768,1.01799
167.118,15.0605,-0.02141,1.00004,1.01779
167.618,15.0761,-0.02141,0.99824,1.01759
168.118,15.0917,-0.02141,1.00013,1.01739
168.618,15.10709,-0.02141,0.99744,1.01718
169.118,15.1227,-0.02141,0.9969,1.01698
169.618,15.1382,-0.02141,0.99755,1.01678
170.118,15.15376,-0.02141,0.99999,1.01657
170.618,15.1694,-0.02141,0.99976,1.01637
171.118,15.18511,-0.02141,0.99963,1.01617
171.618,15.2006,-0.02141,0.99953,1.01596
172.118,15.21594,-0.02141,1.00119,1.01576
172.618,15.2313,-0.02140998,1.00197,1.01555
173.118,15.24666,-0.02141023,1.0009,1.01534
173.618,15.26206,-0.02142206,0.99925,1.01514
174.118,15.2777,-0.02188284,0.99756,1.01493
174.618,15.2934,-0.02272139,0.99753,1.01472
175.118,15.3091,-0.02272905,0.99847,1.01452
175.618,15.3247,-0.02272998,0.99688,1.01431
176.118,15.34031,-0.02273,0.99735,1.0141
176.618,15.35585,-0.02273,0.99653,1.01389
177.118,15.37129,-0.02273,0.99692,1.01368
177.618,15.38671,-0.02273,0.99876,1.01347
178.118,15.40213,-0.02273,0.99839,1.01326
178.618,15.41748,-0.02273,0.99769,1.01305
179.118,15.4329,-0.02273,0.9982,1.01284
179.618,15.4483,-0.02273,0.99871,1.01263
180.118,15.4638,-0.02272998,0.99653,1.01242
180.618,15.47919,-0.02273001,0.99937,1.01221
181.118,15.4946,-0.02274061,0.99864,1.012
181.618,15.51,-0.02312215,0.99918,1.01178
182.118,15.5254,-0.02372097,0.99968,1.01157
182.618,15.54079,-0.02378856,0.99724,1.01136
183.118,15.55614,-0.02403731,0.9985,1.01114
183.618,15.57151,-0.02380503,1.00008,1.01093
184.118,15.5869,-0.02307134,0.9982,1.01072
184.618,15.60225,-0.02306115,1.00006,1.0105
185.118,15.61765,-0.02306004,1.00035,1.01029
185.618,15.63306,-0.02306,0.99978,1.01007
186.118,15.64845,-0.02305998,1.0012,1.00986
186.618,15.6638,-0.02305974,1.0017,1.00964
187.118,15.67914,-0.0230599,1.00042,1.00942
187.618,15.6945,-0.02319146,1.00123,1.00921
188.118,15.7098,-0.02442197,1.00294,1.00899
188.618,15.7251,-0.02438072,1.00301,1.00877
189.118,15.74045,-0.02437994,1.00485,1.00855
189.618,15.7558,-0.02438,1.00586,1.00833
190.118,15.77108,-0.02438,1.00619,1.00812
190.618,15.7863,-0.02438,1.00678,1.0079
191.118,15.80159,-0.02438,1.00938,1.00768
191.618,15.81686,-0.02438,1.01239,1.00746
192.118,15.83211,-0.02438,1.01317,1.00724
192.618,15.8473,-0.02438,1.01203,1.00702
193.118,15.8626,-0.02438,1.01276,1.0068
193.618,15.87779,-0.02438,1.01417,1.00657
194.118,15.89305,-0.02438001,1.01602,1.00635
194.618,15.90831,-0.02438074,1.01795,1.00613
195.118,15.92358,-0.02439386,1.01987,1.00591
195.618,15.9388,-0.02499893,1.02108,1.00569
196.118,15.9541,-0.02568771,1.02341,1.00546
196.618,15.96935,-0.0256991,1.0259,1.00524
197.118,15.9845,-0.02569997,1.02789,1.00501
197.618,15.99976,-0.0257,1.0317,1.00479
198.118,16.015,-0.0257,1.03531,1.00457
198.618,16.03014,-0.0257,1.03537,1.00434
199.118,16.0454,-0.0257,1.04017,1.00412
199.618,16.06061,-0.0257,1.0433,1.00389
200.118,16.07582,-0.02570007,1.04764,1.00366
200.618,16.09103,-0.02570084,1.04884,1.00344
201.118,16.10631,-0.02569352,1.05208,1.00321
201.618,16.12154,-0.02664981,1.05654,1.00298
202.118,16.13675,-0.02700981,1.05968,1.00276
202.618,16.15202,-0.02701987,1.06644,1.00253
203.118,16.16722,-0.02702002,1.06662,1.0023
203.618,16.18238,-0.02702,1.06897,1.00207
204.118,16.19753,-0.02701999,1.07519,1.00184
204.618,16.21275,-0.02702002,1.07857,1.00161
205.118,16.22798,-0.02702336,1.0795,1.00138
205.618,16.2432,-0.02716539,1.08447,1.00115
206.118,16.2585,-0.02831588,1.08521,1.00092
206.618,16.27369,-0.02833104,1.08752,1.00069
207.118,16.28894,-0.0283301,1.09278,1.00046
207.618,16.3041,-0.02833,1.09667,1.00023
208.118,16.31931,-0.02833,1.0985,1.0
208.618,16.3344,-0.02833,1.101,0.99976
209.118,16.34959,-0.02833,1.10309,0.99953
209.618,16.36467,-0.02833,1.10377,0.9993
210.118,16.37985,-0.02833,1.10426,0.99907
210.618,16.39499,-0.02833,1.10717,0.99883
211.118,16.4102,-0.02833,1.11042,0.9986
211.618,16.42536,-0.02833,1.11377,0.99836
212.118,16.44065,-0.02833,1.11429,0.99813
212.618,16.45581,-0.02833,1.11836,0.99789
213.118,16.47104,-0.02832999,1.12037,0.99766
213.618,16.48616,-0.02833003,1.1209,0.99742
214.118,16.5013,-0.02833329,1.12371,0.99719
214.618,16.51643,-0.02846818,1.124,0.99695
215.118,16.53165,-0.02963254,1.12604,0.99671
215.618,16.5468,-0.02965088,1.12946,0.99648
216.118,16.56193,-0.0296501,1.12872,0.99624
216.618,16.5771,-0.02965001,1.12992,0.996
217.118,16.59224,-0.02965,1.13267,0.99576
217.618,16.60725,-0.02965,1.13344,0.99552
218.118,16.62239,-0.02965,1.13544,0.99529
218.618,16.6376,-0.02965,1.13802,0.99505
219.118,16.65268,-0.02965,1.13683,0.99481
219.618,16.6678,-0.02965,1.13896,0.99457
220.118,16.68306,-0.02965,1.13893,0.99433
220.618,16.6982,-0.02965,1.14138,0.99409
221.118,16.71331,-0.02965001,1.14236,0.99384
221.618,16.7285,-0.02965054,1.1445,0.9936
222.118,16.7436,-0.02965938,1.1447,0.99336
222.618,16.75872,-0.02996412,1.14599,0.99312
223.118,16.77381,-0.02998464,1.14708,0.99288
223.618,16.78896,-0.03009684,1.14771,0.99263
224.118,16.8041,-0.03064336,1.14971,0.99239
224.618,16.81928,-0.03062997,1.15022,0.99215
225.118,16.8344,-0.03063589,1.15275,0.9919
225.618,16.84959,-0.03082878,1.15343,0.99166
226.118,16.86469,-0.03124162,1.15378,0.99142
226.618,16.87975,-0.03129119,1.15426,0.99117
227.118,16.89489,-0.03128838,1.15498,0.99093
227.618,16.91,-0.03125452,1.15683,0.99068
228.118,16.92505,-0.03162777,1.158,0.99043
228.618,16.93993,-0.03161956,1.15844,0.99019
229.118,16.95506,-0.03161655,1.1581,0.98994
229.618,16.97019,-0.03146528,1.16112,0.98969
230.118,16.98534,-0.03063221,1.16326,0.98945
230.618,17.0005,-0.03064095,1.16262,0.9892
231.118,17.0158,-0.03064099,1.16338,0.98895
231.618,17.03086,-0.03065259,1.16397,0.9887
232.118,17.04586,-0.03130275,1.16488,0.98846
232.618,17.0609,-0.03194723,1.16815,0.98821
233.118,17.07595,-0.03195908,1.16817,0.98796
233.618,17.09096,-0.03195997,1.17013,0.98771
234.118,17.10611,-0.03196,1.17163,0.98746
234.618,17.12122,-0.03196,1.17139,0.98721
235.118,17.13634,-0.03196,1.17008,0.98696
235.618,17.15146,-0.03196,1.17321,0.98671
236.118,17.16657,-0.03196,1.17376,0.98645
236.618,17.18165,-0.03196,1.17422,0.9862
237.118,17.19673,-0.03196,1.17591,0.98595
237.618,17.21177,-0.03196,1.17409,0.9857
238.118,17.22681,-0.03196002,1.17815,0.98545
238.618,17.24186,-0.03196078,1.17991,0.98519
239.118,17.25685,-0.03197362,1.17875,0.98494
239.618,17.2719,-0.03253637,1.17873,0.98469
240.118,17.287,-0.03326418,1.1805,0.98443
240.618,17.3021,-0.03348715,1.18275,0.98418
241.118,17.31719,-0.03461106,1.18387,0.98392
241.618,17.33233,-0.03458029,1.18329,0.98367
242.118,17.34743,-0.03455553,1.18277,0.98341
242.618,17.3624,-0.03562439,1.18312,0.98316
243.118,17.37745,-0.0358928,1.18456,0.9829
243.618,17.39252,-0.03590001,1.18704,0.98265
244.118,17.40757,-0.03590198,1.18759,0.98239
244.618,17.42266,-0.03594969,1.1878,0.98213
245.118,17.43778,-0.03467349,1.18898,0.98187
245.618,17.45281,-0.03458907,1.19059,0.98162
246.118,17.46786,-0.03458974,1.19217,0.98136
246.618,17.4829,-0.03458998,1.19443,0.9811
247.118,17.49792,-0.03459,1.1946,0.98084
247.618,17.51302,-0.03459,1.19496,0.98058
248.118,17.52809,-0.03459,1.1974,0.98032
248.618,17.54318,-0.03459,1.19561,0.98006
249.118,17.5582,-0.03459,1.19533,0.9798
249.618,17.5733,-0.03459,1.1979,0.97954
250.118,17.58835,-0.03459,1.19832,0.97928
250.618,17.60339,-0.03459,1.19954,0.97902
251.118,17.61846,-0.03458999,1.19957,0.97876
251.618,17.63353,-0.03459029,1.20099,0.9785
252.118,17.64857,-0.03460129,1.20239,0.97824
252.618,17.6636,-0.03497999,1.20349,0.97798
253.118,17.67866,-0.03591699,1.20504,0.97771
253.618,17.69371,-0.03590923,1.20466,0.97745
254.118,17.70871,-0.03590985,1.20554,0.97719
254.618,17.7238,-0.03590881,1.2067,0.97692
255.118,17.73881,-0.03590505,1.20735,0.97666
255.618,17.75388,-0.03694543,1.20742,0.9764
256.118,17.76892,-0.03712996,1.20756,0.97613
256.618,17.784,-0.03820645,1.21005,0.97587
257.118,17.79888,-0.03854279,1.20902,0.9756
257.618,17.8139,-0.03853939,1.20929,0.97534
258.118,17.8289,-0.03853995,1.21119,0.97507
258.618,17.84385,-0.03854,1.21045,0.9748
259.118,17.85889,-0.03854,1.21203,0.97454
259.618,17.874,-0.03854015,1.21322,0.97427
260.118,17.8891,-0.03854443,1.21267,0.974
260.618,17.90416,-0.0387347,1.21483,0.97374
261.118,17.91923,-0.03985113,1.21517,0.97347
261.618,17.93429,-0.03985125,1.21456,0.9732
262.118,17.9494,-0.03985009,1.21612,0.97293
262.618,17.96441,-0.03985,1.21805,0.97266
263.118,17.97949,-0.03985,1.21848,0.9724
263.618,17.99454,-0.03984984,1.21926,0.97213
264.118,18.00956,-0.03984634,1.21875,0.97186
264.618,18.02456,-0.03980985,1.22135,0.97159
265.118,18.0396,-0.04118675,1.22048,0.97132
265.618,18.05459,-0.0411239,1.22212,0.97105
266.118,18.0696,-0.04013894,1.22305,0.97078
266.618,18.0846,-0.04018847,1.2252,0.9705
267.118,18.0996,-0.04019,1.22544,0.97023
267.618,18.11458,-0.04018768,1.22369,0.96996
268.118,18.1296,-0.04013864,1.22371,0.96969
268.618,18.14462,-0.04143741,1.22654,0.96942
269.118,18.15964,-0.0415114,1.22661,0.96914
269.618,18.17469,-0.04151027,1.22765,0.96887
270.118,18.18972,-0.04151009,1.22962,0.9686
270.618,18.20479,-0.04151069,1.23013,0.96832
271.118,18.21981,-0.04150093,1.23074,0.96805
271.618,18.23481,-0.04244835,1.23189,0.96778
272.118,18.24969,-0.04279928,1.23255,0.9675
272.618,18.26455,-0.04254166,1.23107,0.96723
273.118,18.27936,-0.0424896,1.23202,0.96695
273.618,18.29438,-0.04248983,1.23317,0.96668
274.118,18.30951,-0.04248998,1.23317,0.9664
274.618,18.32475,-0.04248993,1.23503,0.96612
275.118,18.33997,-0.04249114,1.23406,0.96585
275.618,18.35519,-0.04256842,1.23515,0.96557
276.118,18.37021,-0.0437477,1.23737,0.96529
276.618,18.38518,-0.0438091,1.23803,0.96502
277.118,18.4001,-0.04381006,1.23839,0.96474
277.618,18.4151,-0.04380999,1.23932,0.96446
278.118,18.43007,-0.04380973,1.23893,0.96418
278.618,18.44507,-0.04380798,1.2395,0.9639
279.118,18.45996,-0.04385389,1.24141,0.96363
279.618,18.47494,-0.04518202,1.24188,0.96335
280.118,18.49002,-0.04513251,1.24191,0.96307
280.618,18.50507,-0.04512805,1.24167,0.96279
281.118,18.5201,-0.04518412,1.24279,0.96251
281.618,18.53523,-0.04647679,1.24528,0.96223
282.118,18.55027,-0.04721767,1.2452,0.96195
282.618,18.5652,-0.04776342,1.24657,0.96166
283.118,18.58015,-0.04775975,1.24784,0.96138
283.618,18.59508,-0.04775971,1.24859,0.9611
284.118,18.6101,-0.04775523,1.24905,0.96082
284.618,18.62504,-0.04772254,1.24709,0.96054
285.118,18.64009,-0.04832778,1.25007,0.96026
285.618,18.6551,-0.04777733,1.25168,0.95997
286.118,18.67008,-0.04776126,1.25318,0.95969
286.618,18.68518,-0.04776246,1.25474,0.95941
287.118,18.70035,-0.04819842,1.25492,0.95912
287.618,18.71546,-0.04909874,1.25615,0.95884
288.118,18.73064,-0.04908076,1.25699,0.95855
288.618,18.74587,-0.04908,1.25801,0.95827
289.118,18.76098,-0.0490802,1.25927,0.95798
289.618,18.77613,-0.04908498,1.26022,0.9577
290.118,18.79125,-0.04931209,1.26198,0.95741
290.618,18.80629,-0.05040672,1.26353,0.95713
291.118,18.82135,-0.05040055,1.26526,0.95684
291.618,18.83635,-0.0503835,1.26502,0.95656
292.118,18.85138,-0.05130465,1.26574,0.95627
292.618,18.86634,-0.05137476,1.26743,0.95598
293.118,18.8813,-0.05230789,1.26918,0.95569
293.618,18.8964,-0.05268876,1.26809,0.95541
294.118,18.91153,-0.05269973,1.26821,0.95512
294.618,18.9266,-0.05270001,1.26989,0.95483
295.118,18.94171,-0.0526998,1.27338,0.95454
295.618,18.95686,-0.0526963,1.2752,0.95425
296.118,18.97195,-0.05267844,1.27573,0.95397
296.618,18.98702,-0.05404804,1.27654,0.95368
297.118,19.00209,-0.05401045,1.27741,0.95339
297.618,19.01715,-0.0539601,1.27851,0.9531
298.118,19.03216,-0.05531304,1.277,0.95281
298.618,19.04714,-0.05533155,1.27717,0.95252
299.118,19.0622,-0.05528491,1.27992,0.95223
299.618,19.07724,-0.0565209,1.28072,0.95193
300.118,19.0923,-0.05664927,1.2827,0.95164
300.618,19.10739,-0.05665658,1.28579,0.95135
301.118,19.12237,-0.05690029,1.28671,0.95106
301.618,19.13741,-0.05799761,1.28846,0.95077
302.118,19.15243,-0.05797007,1.28831,0.95047
302.618,19.1675,-0.05796809,1.28958,0.95018
303.118,19.1825,-0.05792142,1.28955,0.94989
303.618,19.1977,-0.05918717,1.28947,0.9496
304.118,19.21281,-0.05928093,1.29072,0.9493
304.618,19.22791,-0.05927909,1.29161,0.94901
305.118,19.243,-0.05925434,1.29339,0.94871
305.618,19.25812,-0.05991828,1.2969,0.94842
306.118,19.27306,-0.05995026,1.29662,0.94812
306.618,19.28803,-0.05991543,1.2978,0.94783
307.118,19.30313,-0.06107032,1.29851,0.94753
307.618,19.31822,-0.0612663,1.29995,0.94724
308.118,19.33331,-0.06126931,1.29937,0.94694
308.618,19.3486,-0.06122794,1.30171,0.94665
309.118,19.36374,-0.0624471,1.30193,0.94635
309.618,19.3788,-0.06258876,1.30371,0.94605
310.118,19.3939,-0.06259585,1.30559,0.94576
310.618,19.409,-0.06283124,1.30739,0.94546
311.118,19.42405,-0.06392839,1.30777,0.94516
311.618,19.4391,-0.06390026,1.3078,0.94486
312.118,19.45414,-0.06438407,1.30803,0.94456
312.618,19.46921,-0.06523653,1.30897,0.94427
313.118,19.48423,-0.06520399,1.30941,0.94397
313.618,19.4993,-0.066221,1.31067,0.94367
314.118,19.51437,-0.06654076,1.31295,0.94337
314.618,19.52937,-0.06676971,1.3149,0.94307
315.118,19.54439,-0.06910275,1.3175,0.94277
315.618,19.5595,-0.06916641,1.31742,0.94247
316.118,19.57464,-0.07011377,1.31765,0.94217
316.618,19.58975,-0.07058157,1.31779,0.94187
317.118,19.605,-0.07085426,1.3214,0.94157
317.618,19.62015,-0.07204045,1.32239,0.94127
318.118,19.63524,-0.0720334,1.32347,0.94097
318.618,19.65034,-0.07241532,1.32338,0.94066
319.118,19.66542,-0.07334565,1.32349,0.94036
319.618,19.68052,-0.07333788,1.32664,0.94006
320.118,19.69564,-0.07329901,1.32711,0.93976
320.618,19.71075,-0.07467198,1.328,0.93945
321.118,19.72583,-0.07345029,1.33091,0.93915
321.618,19.74098,-0.07438236,1.3324,0.93885
322.118,19.75614,-0.07492803,1.33226,0.93854
322.618,19.77125,-0.07642169,1.33294,0.93824
323.118,19.7864,-0.07652948,1.33441,0.93794
323.618,19.80152,-0.07708713,1.33732,0.93763
324.118,19.81665,-0.07786114,1.33885,0.93733
324.618,19.83173,-0.07782425,1.3404,0.93702
325.118,19.84676,-0.07931208,1.34213,0.93672
325.618,19.86182,-0.07934458,1.343,0.93641
326.118,19.8769,-0.08072841,1.34501,0.9361
326.618,19.89205,-0.08109904,1.34667,0.9358
327.118,19.90717,-0.08237688,1.34471,0.93549
327.618,19.9224,-0.08258697,1.34727,0.93519
328.118,19.93764,-0.08391375,1.34891,0.93488
328.618,19.95276,-0.08388059,1.35107,0.93457
329.118,19.96792,-0.08587304,1.35151,0.93426
329.618,19.98313,-0.08648015,1.35176,0.93396
330.118,19.99829,-0.08660532,1.35363,0.93365
330.618,20.0135,-0.08769973,1.35763,0.93334
331.118,20.0287,-0.08805252,1.36009,0.93303
331.618,20.04375,-0.0884422,1.35971,0.93272
332.118,20.05884,-0.08948497,1.36028,0.93241
332.618,20.07399,-0.08950845,1.36068,0.9321
333.118,20.08915,-0.09085652,1.36226,0.93179
333.618,20.10431,-0.09099505,1.36582,0.93148
334.118,20.11954,-0.09226232,1.36639,0.93117
334.618,20.13475,-0.09262064,1.37171,0.93086
335.118,20.14994,-0.09386494,1.37261,0.93055
335.618,20.16508,-0.09409407,1.37276,0.93024
336.118,20.1802,-0.09488242,1.37614,0.92993
336.618,20.1954,-0.09539118,1.37858,0.92962
337.118,20.2106,-0.09559199,1.3791,0.92931
337.618,20.2258,-0.09683013,1.38223,0.929
338.118,20.24106,-0.0973626,1.38424,0.92868
338.618,20.25623,-0.09837704,1.38484,0.92837
339.118,20.27139,-0.09934621,1.38851,0.92806
339.618,20.28653,-0.09990859,1.39075,0.92775
340.118,20.30169,-0.10123,1.39076,0.92743
340.618,20.3169,-0.10159,1.39236,0.92712
341.118,20.33215,-0.10297,1.39663,0.92681
341.618,20.34737,-0.10301,1.40083,0.92649
342.118,20.36261,-0.10437,1.40269,0.92618
342.618,20.37781,-0.10448,1.40604,0.92586
343.118,20.393,-0.10608,1.40726,0.92555
343.618,20.40819,-0.10664,1.40835,0.92523
344.118,20.4234,-0.1076,1.4115,0.92492
344.618,20.43861,-0.10875,1.41457,0.9246
345.118,20.45382,-0.10889,1.41831,0.92429
345.618,20.46904,-0.11063,1.41881,0.92397
346.118,20.48423,-0.11074,1.4233,0.92365
346.618,20.49946,-0.11221,1.42468,0.92334
347.118,20.51463,-0.11236,1.42877,0.92302
347.618,20.52993,-0.11401,1.43146,0.9227
348.118,20.5452,-0.11497,1.43467,0.92239
348.618,20.5604,-0.11566,1.43764,0.92207
349.118,20.57563,-0.11755,1.44007,0.92175
349.618,20.59086,-0.11838,1.44044,0.92143
350.118,20.60605,-0.11901,1.44714,0.92111
350.618,20.62124,-0.12026,1.45275,0.92079
351.118,20.63637,-0.11978,1.45375,0.92048
351.618,20.65162,-0.12129,1.45641,0.92016
352.118,20.66692,-0.12228,1.46096,0.91984
352.618,20.6822,-0.12314,1.46498,0.91952
353.118,20.69752,-0.12477,1.46892,0.9192
353.618,20.71284,-0.12566,1.4723,0.91888
354.118,20.72812,-0.12675,1.47642,0.91856
354.618,20.74338,-0.12864,1.48026,0.91824
355.118,20.75866,-0.12946,1.48545,0.91792
355.618,20.7739,-0.13065,1.4878,0.9176
356.118,20.7892,-0.13222,1.49179,0.91727
356.618,20.8044,-0.13285,1.49555,0.91695
357.118,20.8197,-0.13406,1.50015,0.91663
357.618,20.835,-0.13609,1.50356,0.91631
358.118,20.85029,-0.13811,1.5088,0.91599
358.618,20.86562,-0.13928,1.51483,0.91566
359.118,20.88082,-0.1406,1.51965,0.91534
359.618,20.89617,-0.14255,1.5243,0.91502
360.118,20.9115,-0.14427,1.53106,0.91469
360.618,20.92681,-0.14494,1.53718,0.91437
361.118,20.94218,-0.14644,1.54115,0.91405
361.618,20.95759,-0.14848,1.54484,0.91372
362.118,20.97289,-0.14973,1.55052,0.9134
362.618,20.98819,-0.15125,1.55562,0.91307
363.118,21.00349,-0.15353,1.56303,0.91275
363.618,21.01877,-0.15532,1.56797,0.91242
364.118,21.03408,-0.15603,1.57414,0.9121
364.618,21.0494,-0.15772,1.58016,0.91177
365.118,21.06476,-0.15987,1.5881,0.91145
365.618,21.08008,-0.16201,1.59478,0.91112
366.118,21.09542,-0.1641,1.60254,0.9108
366.618,21.11072,-0.16629,1.60829,0.91047
367.118,21.12594,-0.1681,1.61379,0.91014
367.618,21.1411,-0.17017,1.62232,0.90982
368.118,21.15638,-0.17213,1.63188,0.90949
368.618,21.17161,-0.17409,1.63783,0.90916
369.118,21.187,-0.17588,1.64636,0.90883
369.618,21.2025,-0.17757,1.65472,0.90851
370.118,21.21791,-0.17972,1.66467,0.90818
370.618,21.23334,-0.18199,1.67071,0.90785
371.118,21.2488,-0.18403,1.68067,0.90752
371.618,21.26425,-0.18706,1.6912,0.90719
372.118,21.27962,-0.18925,1.70175,0.90686
372.618,21.29513,-0.19152,1.71187,0.90653
373.118,21.31053,-0.19349,1.72177,0.9062
373.618,21.3259,-0.19553,1.73117,0.90587
374.118,21.34123,-0.19799,1.74267,0.90554
374.618,21.35654,-0.20066,1.75381,0.90521
375.118,21.3719,-0.20358,1.76182,0.90488
375.618,21.38733,-0.20671,1.77529,0.90455
376.118,21.40271,-0.20905,1.78784,0.90422
376.618,21.4181,-0.21133,1.79817,0.90389
377.118,21.43357,-0.21387,1.81455,0.90356
377.618,21.44903,-0.21606,1.82599,0.90323
378.118,21.4644,-0.21928,1.83748,0.9029
378.618,21.47985,-0.22197,1.85474,0.90256
379.118,21.49523,-0.22538,1.86866,0.90223
379.618,21.5107,-0.2284,1.88217,0.9019
380.118,21.52613,-0.23141,1.89817,0.90157
380.618,21.54156,-0.23455,1.91312,0.90123
381.118,21.5569,-0.23799,1.92625,0.9009
381.618,21.57231,-0.24226,1.94091,0.90057
382.118,21.58759,-0.24617,1.95853,0.90023
382.618,21.60303,-0.25071,1.97527,0.8999
383.118,21.61854,-0.25529,1.9923,0.89956
383.618,21.634,-0.25894,2.01011,0.89923
384.118,21.64948,-0.26237,2.02803,0.8989
384.618,21.66495,-0.26582,2.04417,0.89856
385.118,21.68034,-0.2698,2.0629,0.89823
385.618,21.69574,-0.27438,2.08084,0.89789
386.118,21.71115,-0.27884,2.1016,0.89755
386.618,21.72662,-0.28344,2.12225,0.89722
387.118,21.7421,-0.28741,2.1432,0.89688
387.618,21.75764,-0.29165,2.1637,0.89655
388.118,21.77307,-0.2964,2.18554,0.89621
388.618,21.7884,-0.30171,2.2072,0.89587
389.118,21.80387,-0.30703,2.22921,0.89554
389.618,21.81919,-0.31224,2.25366,0.8952
390.118,21.83465,-0.31716,2.27705,0.89486
390.618,21.8503,-0.3223,2.30332,0.89453
391.118,21.8659,-0.32763,2.32845,0.89419
391.618,21.88147,-0.33337,2.35417,0.89385
392.118,21.89709,-0.33938,2.38194,0.89351
392.618,21.91254,-0.34507,2.40923,0.89317
393.118,21.92801,-0.35048,2.43758,0.89283
393.618,21.94353,-0.35595,2.46628,0.8925
394.118,21.95901,-0.36167,2.49541,0.89216
394.618,21.9745,-0.36855,2.52565,0.89182
395.118,21.99001,-0.37581,2.55666,0.89148
395.618,22.00554,-0.38291,2.58851,0.89114
396.118,22.02105,-0.38949,2.62,0.8908
396.618,22.0366,-0.39616,2.65419,0.89046
397.118,22.05211,-0.40306,2.6878,0.89012
397.618,22.06762,-0.4108,2.72348,0.88978
398.118,22.08314,-0.41893,2.75983,0.88944
398.618,22.0987,-0.42724,2.79548,0.8891
399.118,22.11426,-0.43501,2.83318,0.88875
399.618,22.12983,-0.44231,2.87273,0.88841
400.118,22.14537,-0.4501,2.91335,0.88807
400.618,22.16092,-0.45892,2.95609,0.88773
401.118,22.17653,-0.46849,2.99838,0.88739
401.618,22.19203,-0.47662,3.04369,0.88705
402.118,22.20759,-0.48525,3.08809,0.8867
402.618,22.22316,-0.49387,3.1365,0.88636
403.118,22.23875,-0.5031,3.18416,0.88602
403.618,22.25433,-0.51371,3.23374,0.88567
404.118,22.26996,-0.52507,3.28484,0.88533
404.618,22.28559,-0.53623,3.33747,0.88499
405.118,22.30123,-0.54659,3.39114,0.88464
405.618,22.31679,-0.55676,3.44726,0.8843
406.118,22.33237,-0.56739,3.50196,0.88396
406.618,22.34797,-0.57944,3.55887,0.88361
407.118,22.36358,-0.5922,3.6195,0.88327
407.618,22.3793,-0.60465,3.67838,0.88292
408.118,22.3949,-0.61684,3.74015,0.88258
408.618,22.41064,-0.62867,3.80135,0.88223
409.118,22.42626,-0.64165,3.86612,0.88189
409.618,22.44197,-0.65625,3.93711,0.88154
410.118,22.4576,-0.67119,4.00671,0.88119
410.618,22.47335,-0.68643,4.07825,0.88085
411.118,22.48903,-0.70058,4.14488,0.8805
411.618,22.50463,-0.71479,4.21827,0.88016
412.118,22.52032,-0.73029,4.29443,0.87981
412.618,22.53601,-0.74691,4.37089,0.87946
413.118,22.5517,-0.76394,4.45047,0.87911
413.618,22.5674,-0.78023,4.51655,0.87877
414.118,22.58315,-0.79604,4.58964,0.87842
414.618,22.5989,-0.81283,4.66933,0.87807
415.118,22.6146,-0.83152,4.74612,0.87772
415.618,22.6304,-0.85146,4.8187,0.87738
416.118,22.6462,-0.87064,4.90168,0.87703
416.618,22.662,-0.88848,4.9941,0.87668
417.118,22.6778,-0.90624,5.06672,0.87633
417.618,22.69344,-0.92551,5.13384,0.87598
418.118,22.70918,-0.94687,5.24678,0.87563
418.618,22.72498,-0.9686,5.37592,0.87528
419.118,22.7408,-0.98861,5.47823,0.87493
419.618,22.75662,-1.00732,5.57687,0.87458
420.118,22.77257,-1.02768,5.67597,0.87423
420.618,22.7884,-1.05101,5.77792,0.87388
421.118,22.80426,-1.07563,5.87687,0.87353
421.618,22.82015,-1.09932,5.97094,0.87318
422.118,22.83598,-1.12142,6.07204,0.87283
422.618,22.85187,-1.14426,6.17815,0.87248
423.118,22.86778,-1.1701,6.30429,0.87213
423.618,22.8837,-1.19773,6.41097,0.87178
424.118,22.89957,-1.22407,6.51213,0.87143
424.618,22.9155,-1.24989,6.62145,0.87108
425.118,22.93145,-1.27623,6.73347,0.87072
425.618,22.94736,-1.30593,6.84134,0.87037
426.118,22.96329,-1.3387,6.9413,0.87002
426.618,22.97922,-1.37119,7.03861,0.86967
427.118,22.99513,-1.40052,7.12836,0.86931
427.618,23.01108,-1.42882,7.21394,0.86896
428.118,23.027,-1.4595,7.28388,0.86861
428.618,23.04291,-1.4928,7.33271,0.86826
429.118,23.05884,-1.52437,7.34663,0.8679
429.618,23.07477,-1.55235,7.34246,0.86755
430.118,23.0908,-1.57925,7.20034,0.86719
430.618,23.10685,-1.60943,6.99477,0.86684
431.118,23.12291,-1.6459,6.78059,0.86649
431.618,23.1389,-1.68062,6.59593,0.86613
432.118,23.15492,-1.72946,6.43074,0.86578
432.618,23.17084,-1.78632,6.27614,0.86542
433.118,23.18669,-1.87315,6.14127,0.86507
433.618,23.20251,-1.92789,6.00826,0.86471
434.118,23.21836,-1.9825,5.90391,0.86436
434.618,23.23415,-2.03751,5.98798,0.864
435.118,23.2499,-2.08805,6.11983,0.86365
435.618,23.2657,-2.13291,6.19151,0.86329
436.118,23.2815,-2.16153,6.19908,0.86293
436.618,23.2972,-2.1982,6.14689,0.86258
437.118,23.3129,-2.24128,6.05947,0.86222
437.618,23.32868,-2.29463,5.98496,0.86186
438.118,23.34437,-2.34838,6.00916,0.86151
438.618,23.36007,-2.40001,6.00541,0.86115
439.118,23.37578,-2.44922,6.0139,0.86079
439.618,23.39154,-2.49578,6.10862,0.86044
440.118,23.40726,-2.54111,6.14974,0.86008
440.618,23.42298,-2.58667,6.11477,0.85972
441.118,23.43864,-2.63256,6.04909,0.85936
441.618,23.45426,-2.68102,6.05659,0.859
442.118,23.46988,-2.73067,6.08531,0.85865
442.618,23.48549,-2.77965,6.18592,0.85829
443.118,23.5012,-2.82493,6.26765,0.85793
443.618,23.5169,-2.86552,6.27597,0.85757
444.118,23.53268,-2.90477,6.23843,0.85721
444.618,23.54843,-2.94453,6.15778,0.85685
445.118,23.56413,-2.98679,6.02822,0.85649
445.618,23.57976,-3.03325,5.95391,0.85613
446.118,23.5954,-3.07918,6.00751,0.85577
446.618,23.61094,-3.12009,6.08189,0.85541
447.118,23.62659,-3.15861,6.1315,0.85505
447.618,23.64219,-3.18636,6.14536,0.85469
448.118,23.6578,-3.21254,6.13296,0.85433
448.618,23.67342,-3.23708,6.08038,0.85397
449.118,23.68905,-3.26274,6.01058,0.85361
449.618,23.70466,-3.28864,5.92502,0.85325
450.118,23.72031,-3.3176,5.80964,0.85289
450.618,23.73601,-3.35141,5.66465,0.85253
451.118,23.75166,-3.38741,5.50146,0.85216
451.618,23.76734,-3.42216,5.32925,0.8518
452.118,23.7829,-3.45347,5.14793,0.85144
452.618,23.79845,-3.483,4.9577,0.85108
453.118,23.81401,-3.51216,4.76118,0.85072
453.618,23.82957,-3.54059,4.56614,0.85035
454.118,23.84505,-3.56703,4.36951,0.84999
454.618,23.86056,-3.59092,4.17273,0.84963
455.118,23.876,-3.61239,3.97695,0.84926
455.618,23.8913,-3.6325,3.78641,0.8489
456.118,23.9067,-3.65251,3.59725,0.84854
456.618,23.92215,-3.67263,3.41116,0.84817
457.118,23.93755,-3.69158,3.22984,0.84781
457.618,23.95303,-3.70869,3.05342,0.84745
458.118,23.9684,-3.72313,2.87792,0.84708
458.618,23.98374,-3.73672,2.71345,0.84672
459.118,23.99906,-3.7499,2.55161,0.84635
459.618,24.01438,-3.76363,2.39914,0.84599
460.118,24.02972,-3.77723,2.25325,0.84563
460.618,24.04508,-3.78943,2.11123,0.84526
461.118,24.06032,-3.80005,1.97805,0.8449
461.618,24.07551,-3.80924,1.85202,0.84453
462.118,24.09085,-3.81806,1.7329,0.84416
462.618,24.1062,-3.82682,1.61735,0.8438
463.118,24.1215,-3.83581,1.51241,0.84343
463.618,24.137,-3.84444,1.40993,0.84307
464.118,24.15245,-3.85207,1.31642,0.8427
464.618,24.16778,-3.85879,1.22519,0.84233
465.118,24.1831,-3.86469,1.14104,0.84197
465.618,24.19846,-3.86971,1.06324,0.8416
466.118,24.21379,-3.87609,0.99252,0.84123
466.618,24.22916,-3.88262,0.9241,0.84087
467.118,24.24457,-3.88854,0.85858,0.8405
467.618,24.25998,-3.89404,0.80281,0.84013
468.118,24.27542,-3.8983,0.74752,0.83977
468.618,24.29087,-3.90198,0.69575,0.8394
469.118,24.30633,-3.90612,0.64692,0.83903
469.618,24.32177,-3.91015,0.60102,0.83866
470.118,24.33717,-3.91427,0.56127,0.83829
470.618,24.35259,-3.91797,0.52229,0.83793
471.118,24.36804,-3.92128,0.48445,0.83756
471.618,24.38348,-3.92443,0.45247,0.83719
472.118,24.39882,-3.92702,0.42174,0.83682
472.618,24.41439,-3.92987,0.39243,0.83645
473.118,24.42999,-3.93201,0.36314,0.83608
473.618,24.44555,-3.93374,0.33614,0.83571
474.118,24.46121,-3.93587,0.31338,0.83534
474.618,24.4769,-3.93783,0.29117,0.83497
475.118,24.49239,-3.94034,0.27185,0.83461
475.618,24.5079,-3.9422,0.25153,0.83424
476.118,24.5235,-3.9443,0.23114,0.83387
476.618,24.53914,-3.94539,0.21133,0.83349
477.118,24.55475,-3.94673,0.1961,0.83312
477.618,24.57046,-3.94858,0.18124,0.83275
478.118,24.58608,-3.95091,0.16759,0.83238
478.618,24.60174,-3.95215,0.15363,0.83201
479.118,24.61734,-3.95292,0.14014,0.83164
479.618,24.63295,-3.9543,0.1254,0.83127
480.118,24.6485,-3.95491,0.11474,0.8309
480.618,24.66416,-3.95615,0.10349,0.83053
481.118,24.67979,-3.95771,0.09262901,0.83016
481.618,24.6955,-3.95893,0.08633678,0.82978
482.118,24.71125,-3.95933,0.07512141,0.82941
482.618,24.727,-3.95936,0.0622881,0.82904
483.118,24.74263,-3.96074,0.05254602,0.82867
483.618,24.75835,-3.96114,0.04440941,0.8283
484.118,24.77403,-3.96245,0.03577115,0.82792
484.618,24.78969,-3.96255,0.02882887,0.82755
485.118,24.80547,-3.96394,0.01976447,0.82718
485.618,24.82122,-3.964,0.01264232,0.8268
486.118,24.83695,-3.96541,0.00300663,0.82643
486.618,24.85272,-3.96549,-0.007218534,0.82606
487.118,24.8685,-3.96647,-0.01441478,0.82568
487.618,24.8842,-3.9668,-0.02205782,0.82531
488.118,24.89996,-3.96681,-0.03146476,0.82494
488.618,24.91573,-3.96681,-0.03794759,0.82456
489.118,24.9315,-3.96681,-0.04428314,0.82419
489.618,24.9473,-3.96681,-0.05295068,0.82382
490.118,24.9631,-3.96679,-0.05765626,0.82344
490.618,24.97883,-3.96777,-0.06248901,0.82307
491.118,24.99466,-3.96812,-0.06976984,0.82269
491.618,25.01047,-3.96812,-0.07120894,0.82232
492.118,25.02626,-3.96812,-0.07737826,0.82194
492.618,25.0421,-3.96812,-0.0814174,0.82157
493.118,25.05793,-3.96812,-0.08409312,0.82119
493.618,25.07378,-3.96812,-0.0882858,0.82082
494.118,25.08962,-3.96812,-0.09229946,0.82044
494.618,25.10545,-3.96812,-0.09277983,0.82006
495.118,25.1213,-3.96812,-0.09311737,0.81969
495.618,25.13716,-3.96812,-0.09617089,0.81931
496.118,25.15296,-3.96812,-0.09782752,0.81894
496.618,25.1688,-3.96812,-0.09780556,0.81856
497.118,25.18461,-3.96812,-0.09765334,0.81818
497.618,25.20041,-3.96819,-0.09801977,0.81781
498.118,25.2162,-3.96948,-0.10006,0.81743
498.618,25.23208,-3.96944,-0.10012,0.81705
499.118,25.24795,-3.96944,-0.09927618,0.81668
499.618,25.26385,-3.96944,-0.09938779,0.8163
500.118,25.27976,-3.96944,-0.10222,0.81592
500.618,25.29569,-3.96944,-0.10067,0.81555
501.118,25.31154,-3.96944,-0.1012,0.81517
501.618,25.32742,-3.96944,-0.10146,0.81479
502.118,25.34329,-3.96944,-0.10047,0.81441
502.618,25.3592,-3.96944,-0.10025,0.81403
503.118,25.37509,-3.96925,-0.10014,0.81366
503.618,25.391,-3.9681,-0.09981515,0.81328
504.118,25.40689,-3.96813,-0.098093,0.8129
504.618,25.42265,-3.96843,-0.09806852,0.81252
505.118,25.43851,-3.96911,-0.10022,0.81214
505.618,25.4544,-3.96911,-0.0992947,0.81176
506.118,25.47038,-3.96911,-0.1006,0.81138
506.618,25.48629,-3.96911,-0.09944406,0.81101
507.118,25.50226,-3.96912,-0.09850701,0.81063
507.618,25.5181,-3.9694,-0.09866644,0.81025
508.118,25.53389,-3.9699,-0.09704167,0.80987
508.618,25.54969,-3.97078,-0.09850559,0.80949
509.118,25.56559,-3.97076,-0.09878254,0.80911
509.618,25.58145,-3.97076,-0.09787385,0.80873
510.118,25.59733,-3.97076,-0.09945141,0.80835
510.618,25.6133,-3.97076,-0.09965087,0.80797
511.118,25.62925,-3.97076,-0.09963532,0.80759
511.618,25.6452,-3.97076,-0.09853829,0.80721
512.118,25.6612,-3.97076,-0.09871292,0.80683
512.618,25.67719,-3.97076,-0.09834863,0.80645
513.118,25.69324,-3.97076,-0.09938996,0.80606
513.618,25.7093,-3.97076,-0.09817024,0.80568
514.118,25.72545,-3.97077,-0.09821807,0.8053
514.618,25.74155,-3.9696,-0.09825486,0.80492
515.118,25.75755,-3.96944,-0.09683803,0.80454
515.618,25.77356,-3.96944,-0.09715615,0.80416
516.118,25.78956,-3.96944,-0.09813918,0.80378
516.618,25.80557,-3.96944,-0.09925397,0.80339
517.118,25.82156,-3.96944,-0.098895,0.80301
517.618,25.83758,-3.96941,-0.10012,0.80263
518.118,25.85359,-3.96981,-0.10231,0.80225
518.618,25.8696,-3.97009,-0.10057,0.80187
519.118,25.8856,-3.97009,-0.09994658,0.80148
519.618,25.90169,-3.97047,-0.09951601,0.8011
520.118,25.91767,-3.96974,-0.09996227,0.80072
520.618,25.9337,-3.96977,-0.09908906,0.80034
521.118,25.94966,-3.96977,-0.09991719,0.79995
521.618,25.96571,-3.96977,-0.10159,0.79957
522.118,25.98166,-3.96977,-0.1018,0.79919
522.618,25.99772,-3.96977,-0.10136,0.7988
523.118,26.01377,-3.96977,-0.10145,0.79842
523.618,26.02969,-3.96977,-0.10216,0.79804
524.118,26.04563,-3.96977,-0.10036,0.79765
524.618,26.06169,-3.96977,-0.10221,0.79727
525.118,26.07767,-3.96976,-0.10105,0.79688
525.618,26.09372,-3.96893,-0.10176,0.7965
526.118,26.1099,-3.96918,-0.10105,0.79612
526.618,26.126,-3.96911,-0.10208,0.79573
527.118,26.14206,-3.96911,-0.10248,0.79535
527.618,26.15811,-3.96911,-0.10298,0.79496
528.118,26.1741,-3.96911,-0.10286,0.79458
528.618,26.19015,-3.96909,-0.10496,0.79419
529.118,26.2062,-3.97012,-0.10616,0.79381
529.618,26.22225,-3.9701,-0.10701,0.79342
530.118,26.23831,-3.9701,-0.10637,0.79304
530.618,26.2544,-3.9701,-0.10487,0.79265
531.118,26.27048,-3.9701,-0.1064,0.79227
531.618,26.2866,-3.9701,-0.10741,0.79188
532.118,26.30275,-3.9701,-0.10559,0.79149
532.618,26.31881,-3.9701,-0.10577,0.79111
533.118,26.33488,-3.9701,-0.10578,0.79072
533.618,26.3509,-3.9701,-0.10702,0.79034
534.118,26.3669,-3.9701,-0.1079,0.78995
534.618,26.383,-3.9701,-0.10884,0.78956
535.118,26.39913,-3.9701,-0.1087,0.78918
535.618,26.41521,-3.9701,-0.10913,0.78879
536.118,26.43129,-3.9701,-0.10901,0.7884
536.618,26.4474,-3.9701,-0.10942,0.78802
537.118,26.4634,-3.9701,-0.11069,0.78763
537.618,26.4795,-3.9701,-0.11043,0.78724
538.118,26.49564,-3.97041,-0.1122,0.78686
538.618,26.5117,-3.97076,-0.11331,0.78647
539.118,26.52785,-3.97076,-0.11698,0.78608
539.618,26.544,-3.97076,-0.11899,0.78569
540.118,26.56012,-3.97076,-0.12019,0.78531
540.618,26.57628,-3.97076,-0.12105,0.78492
541.118,26.59249,-3.97076,-0.11999,0.78453
541.618,26.60864,-3.97076,-0.1208,0.78414
542.118,26.62476,-3.97076,-0.1234,0.78376
542.618,26.6409,-3.97076,-0.12421,0.78337
543.118,26.657,-3.97076,-0.12487,0.78298
543.318,26.66351,-3.97076,-0.12516,0.78282