File: 01_Data/Polyester_Felt/MCC/Polyester_Felt_MCC_30K_min_210709_R3.txt
Sample ID:	C:\MCC\MCC Cal\Test\Polyester_Felt\Polyester_Felt_MCC_30K_min_21_07_09_R3.txt
Sample Weight (mg):	4.94
Heating Rate (C/s):	1
Combustor Temp (C):	900
N2 Flow Rate (cc/min):	80
O2 Flow Rate (cc/min):	20
Calibration File:	C:\MCC\MCC Cal\Coeff1 JN10440_30_210304.txt.txt
T Correction Coefficients:	0	1.024463	0
Time Shift (s):	14
*
Time (s)	Temperature (C)	N2 flow rate (cc/min)	O2 flow rate (cc/min)	Flow Rate (cc/min)	Oxygen (%)	HRR (W/g)	Heating rate (C/s)
0.000	106.990	79.997	19.994	99.918	20.122	-0.007	-0.009
1.000	106.965	79.995	19.996	99.918	20.123	-0.028	-0.018
2.000	107.000	79.995	19.996	99.917	20.121	0.096	0.027
3.000	107.016	79.996	19.995	99.915	20.124	-0.146	0.010
4.000	107.010	79.997	19.996	99.922	20.124	-0.088	-0.008
5.000	106.993	79.995	19.996	99.926	20.124	-0.136	-0.009
6.000	106.977	79.995	19.996	99.927	20.124	-0.133	-0.001
7.000	106.996	79.994	19.995	99.928	20.122	0.009	0.007
8.000	106.971	79.993	19.996	99.929	20.119	0.203	-0.024
9.001	106.995	79.994	19.996	99.931	20.119	0.197	0.024
10.001	106.986	79.994	19.996	99.948	20.112	0.612	-0.006
11.001	106.985	79.993	19.995	99.987	20.112	0.671	-0.005
12.000	106.977	79.993	19.995	100.039	20.102	1.305	0.008
13.000	107.019	79.993	19.995	100.084	20.096	1.641	0.025
14.000	107.006	79.993	19.995	100.122	20.091	1.997	-0.010
15.000	107.083	79.992	19.996	100.165	20.087	2.237	0.082
16.000	107.159	79.993	19.996	100.193	20.082	2.554	0.043
17.000	107.202	79.993	19.995	100.212	20.074	3.039	0.057
18.000	107.313	79.995	19.995	100.230	20.070	3.327	0.105
19.000	107.404	79.994	19.995	100.262	20.061	3.892	0.105
20.000	107.583	79.993	19.995	100.293	20.060	3.958	0.128
21.000	107.674	79.995	19.995	100.321	20.056	4.184	0.133
22.000	107.875	79.994	19.995	100.335	20.053	4.392	0.175
23.000	108.031	79.994	19.995	100.351	20.048	4.705	0.160
24.000	108.294	79.994	19.995	100.358	20.048	4.670	0.242
25.000	108.494	79.994	19.996	100.361	20.046	4.846	0.205
26.000	108.750	79.994	19.996	100.356	20.041	5.161	0.251
27.000	109.011	79.993	19.995	100.351	20.038	5.359	0.252
28.000	109.256	79.992	19.997	100.290	20.037	5.399	0.238
29.000	109.586	79.995	19.996	100.256	20.038	5.364	0.309
30.000	109.837	79.993	19.997	100.285	20.039	5.241	0.291
31.000	110.194	79.994	19.995	100.370	20.039	5.259	0.351
32.000	110.567	79.992	19.996	100.429	20.036	5.461	0.326
33.000	110.872	79.992	19.996	100.429	20.036	5.458	0.341
34.000	111.242	79.993	19.996	100.371	20.035	5.541	0.371
35.001	111.603	79.991	19.996	100.363	20.035	5.552	0.360
36.000	112.002	79.992	19.995	100.365	20.033	5.633	0.382
37.000	112.411	79.992	19.995	100.369	20.035	5.539	0.397
38.000	112.875	79.993	19.996	100.372	20.032	5.720	0.458
39.000	113.311	79.993	19.996	100.370	20.035	5.529	0.428
40.001	113.738	79.994	19.997	100.367	20.036	5.476	0.428
41.001	114.242	79.993	19.997	100.364	20.031	5.750	0.510
42.000	114.733	79.992	19.997	100.364	20.031	5.748	0.482
43.000	115.197	79.993	19.996	100.372	20.034	5.587	0.449
44.000	115.676	79.994	19.996	100.379	20.032	5.733	0.494
45.001	116.204	79.994	19.996	100.376	20.033	5.647	0.532
46.000	116.706	79.993	19.995	100.362	20.034	5.610	0.477
47.000	117.239	79.995	19.996	100.365	20.033	5.669	0.538
48.000	117.776	79.994	19.995	100.371	20.031	5.775	0.545
49.000	118.309	79.994	19.996	100.381	20.034	5.585	0.524
50.001	118.876	79.995	19.996	100.390	20.030	5.863	0.576
51.000	119.469	79.995	19.996	100.396	20.030	5.830	0.574
52.000	120.008	79.995	19.996	100.391	20.030	5.816	0.561
53.000	120.657	79.995	19.996	100.377	20.030	5.858	0.620
54.001	121.235	79.996	19.996	100.373	20.030	5.864	0.593
55.000	121.858	79.996	19.996	100.383	20.031	5.773	0.611
56.000	122.470	79.995	19.996	100.388	20.028	5.956	0.611
57.000	123.121	79.993	19.997	100.387	20.027	6.022	0.638
58.000	123.752	79.995	19.997	100.389	20.026	6.105	0.643
59.000	124.427	79.994	19.997	100.395	20.027	6.033	0.675
60.000	125.109	79.995	19.997	100.395	20.027	6.065	0.674
61.000	125.762	79.993	19.996	100.394	20.027	6.003	0.645
62.000	126.439	79.996	19.996	100.394	20.026	6.086	0.705
63.000	127.156	79.994	19.996	100.395	20.027	6.037	0.668
64.000	127.821	79.996	19.997	100.392	20.024	6.231	0.702
65.000	128.565	79.994	19.997	100.389	20.023	6.279	0.700
66.000	129.241	79.995	19.996	100.392	20.028	5.973	0.721
67.000	129.994	79.994	19.995	100.400	20.025	6.151	0.727
68.001	130.698	79.995	19.996	100.402	20.025	6.180	0.712
69.000	131.448	79.994	19.995	100.402	20.022	6.373	0.744
70.000	132.176	79.995	19.996	100.404	20.024	6.216	0.735
71.001	132.953	79.995	19.995	100.404	20.022	6.335	0.757
72.001	133.710	79.995	19.996	100.400	20.024	6.195	0.755
73.000	134.474	79.999	19.995	100.396	20.021	6.410	0.782
74.001	135.256	79.994	19.995	100.399	20.021	6.400	0.757
75.000	136.025	79.995	19.995	100.399	20.023	6.298	0.779
76.000	136.861	79.996	19.995	100.397	20.024	6.212	0.827
77.001	137.642	79.995	19.995	100.395	20.023	6.267	0.787
78.001	138.459	79.995	19.995	100.400	20.023	6.288	0.812
79.000	139.280	79.996	19.995	100.410	20.025	6.172	0.825
80.001	140.120	79.995	19.995	100.409	20.024	6.212	0.830
81.001	140.974	79.994	19.995	100.405	20.025	6.165	0.828
82.000	141.756	79.994	19.995	100.402	20.025	6.172	0.809
83.000	142.612	79.993	19.995	100.401	20.025	6.157	0.864
84.000	143.441	79.993	19.996	100.399	20.023	6.279	0.838
85.001	144.323	79.995	19.995	100.401	20.025	6.162	0.853
86.001	145.169	79.993	19.995	100.400	20.021	6.417	0.848
87.000	146.024	79.993	19.995	100.401	20.023	6.303	0.862
88.000	146.923	79.993	19.995	100.403	20.024	6.243	0.882
89.000	147.786	79.992	19.996	100.403	20.026	6.105	0.851
90.000	148.668	79.994	19.995	100.401	20.024	6.212	0.892
91.000	149.556	79.992	19.995	100.400	20.021	6.408	0.892
92.001	150.477	79.993	19.995	100.399	20.023	6.286	0.915
93.001	151.358	79.993	19.995	100.398	20.027	6.056	0.873
94.000	152.258	79.994	19.996	100.398	20.025	6.172	0.925
95.000	153.181	79.993	19.995	100.398	20.024	6.227	0.910
96.001	154.106	79.993	19.995	100.400	20.025	6.160	0.907
97.000	154.948	79.993	19.996	100.398	20.023	6.291	0.863
98.000	155.845	79.994	19.995	100.397	20.022	6.325	0.911
99.000	156.799	79.994	19.995	100.399	20.023	6.306	0.931
100.000	157.719	79.994	19.995	100.401	20.022	6.335	0.923
101.000	158.670	79.993	19.995	100.395	20.022	6.344	0.928
102.000	159.594	79.994	19.994	100.391	20.024	6.227	0.937
103.000	160.537	79.993	19.996	100.391	20.026	6.104	0.934
104.001	161.479	79.993	19.995	100.395	20.022	6.339	0.935
105.001	162.387	79.995	19.995	100.402	20.022	6.325	0.917
106.000	163.319	79.995	19.995	100.401	20.024	6.207	0.942
107.000	164.279	79.994	19.995	100.400	20.023	6.294	0.944
108.000	165.257	79.994	19.996	100.392	20.024	6.212	0.996
109.000	166.210	79.993	19.996	100.390	20.025	6.129	0.955
110.001	167.209	79.994	19.996	100.390	20.026	6.092	0.973
111.000	168.150	79.995	19.995	100.386	20.024	6.244	0.966
112.000	169.091	79.992	19.995	100.383	20.026	6.073	0.945
113.000	170.073	79.993	19.996	100.386	20.024	6.204	0.954
114.001	171.067	79.992	19.996	100.383	20.026	6.080	1.017
115.000	172.062	79.993	19.996	100.387	20.030	5.842	0.963
116.000	173.048	79.992	19.996	100.384	20.028	5.952	0.992
117.001	174.060	79.994	19.996	100.380	20.025	6.176	1.005
118.000	175.045	79.994	19.997	100.365	20.024	6.199	0.994
119.000	175.984	79.994	19.996	100.369	20.023	6.258	0.962
120.000	176.986	79.993	19.996	100.368	20.023	6.270	0.995
121.000	178.008	79.991	19.997	100.366	20.027	6.021	1.006
122.000	178.996	79.993	19.997	100.363	20.027	6.062	0.999
123.000	180.006	79.993	19.996	100.362	20.024	6.229	0.995
124.000	181.025	79.994	19.996	100.360	20.026	6.071	1.023
125.000	182.003	79.994	19.997	100.361	20.027	6.003	0.994
126.000	183.050	79.995	19.996	100.362	20.027	6.015	1.038
127.000	184.033	79.995	19.995	100.358	20.023	6.295	0.974
128.000	185.086	79.996	19.995	100.356	20.024	6.206	1.055
129.000	186.126	79.995	19.996	100.302	20.025	6.168	1.037
130.000	187.151	79.995	19.996	100.288	20.028	5.938	1.034
131.000	188.167	79.995	19.996	100.329	20.027	6.040	1.008
132.000	189.173	79.995	19.996	100.411	20.027	6.037	1.004
133.000	190.213	79.993	19.995	100.413	20.029	5.926	1.041
134.000	191.234	79.995	19.996	100.365	20.030	5.867	1.024
135.000	192.291	79.995	19.996	100.353	20.028	5.978	1.048
136.000	193.310	79.994	19.996	100.351	20.028	5.953	1.024
137.000	194.375	79.997	19.995	100.347	20.030	5.831	1.054
138.000	195.380	79.994	19.996	100.344	20.027	6.048	1.028
139.000	196.399	79.995	19.996	100.336	20.030	5.808	1.000
140.000	197.440	79.992	19.997	100.327	20.028	5.984	1.055
141.000	198.463	79.994	19.996	100.328	20.030	5.826	1.020
142.000	199.515	79.993	19.996	100.332	20.032	5.718	1.066
143.000	200.595	79.993	19.996	100.331	20.034	5.616	1.046
144.000	201.637	79.994	19.997	100.327	20.033	5.671	1.043
145.000	202.696	79.993	19.996	100.325	20.033	5.642	1.056
146.000	203.710	79.992	19.997	100.324	20.031	5.783	1.018
147.000	204.752	79.994	19.996	100.322	20.028	5.940	1.048
148.001	205.807	79.994	19.997	100.323	20.032	5.696	1.052
149.000	206.875	79.994	19.996	100.322	20.029	5.900	1.064
150.001	207.923	79.994	19.996	100.319	20.032	5.720	1.041
151.001	208.952	79.995	19.996	100.318	20.030	5.812	1.052
152.000	210.028	79.996	19.996	100.317	20.032	5.717	1.071
153.001	211.039	79.995	19.996	100.311	20.031	5.781	1.019
154.000	212.099	79.995	19.995	100.306	20.031	5.794	1.066
155.000	213.144	79.996	19.995	100.298	20.032	5.720	1.031
156.001	214.204	79.997	19.995	100.239	20.030	5.856	1.055
157.001	215.238	79.996	19.995	100.212	20.030	5.808	1.049
158.000	216.259	79.998	19.995	100.237	20.031	5.760	1.021
159.001	217.328	79.996	19.995	100.352	20.032	5.710	1.058
160.001	218.330	79.995	19.994	100.375	20.033	5.644	1.026
161.000	219.376	79.994	19.994	100.339	20.034	5.599	1.044
162.001	220.382	79.994	19.995	100.296	20.036	5.456	0.988
163.000	221.451	79.993	19.995	100.286	20.036	5.438	1.073
164.001	222.513	79.993	19.995	100.289	20.032	5.727	1.036
165.000	223.523	79.994	19.995	100.287	20.036	5.467	1.035
166.000	224.589	79.995	19.995	100.284	20.037	5.408	1.048
167.001	225.608	79.993	19.995	100.283	20.039	5.285	1.031
168.001	226.622	79.994	19.996	100.279	20.039	5.254	1.031
169.001	227.661	79.995	19.995	100.283	20.040	5.206	1.033
170.001	228.706	79.995	19.995	100.285	20.041	5.155	1.021
171.001	229.739	79.994	19.996	100.281	20.042	5.101	1.069
172.000	230.788	79.993	19.996	100.280	20.037	5.389	1.029
173.000	231.803	79.993	19.996	100.277	20.039	5.269	1.032
174.000	232.826	79.995	19.996	100.228	20.040	5.228	1.026
175.000	233.877	79.994	19.996	100.197	20.040	5.220	1.030
176.000	234.912	79.993	19.996	100.203	20.041	5.158	1.043
177.000	235.978	79.993	19.995	100.319	20.041	5.122	1.049
178.000	236.975	79.994	19.996	100.341	20.046	4.809	1.013
179.001	238.039	79.994	19.995	100.311	20.046	4.823	1.075
180.001	239.064	79.995	19.995	100.275	20.048	4.670	1.021
181.001	240.104	79.994	19.995	100.262	20.048	4.708	1.021
182.001	241.091	79.994	19.995	100.252	20.049	4.632	1.025
183.001	242.142	79.994	19.995	100.259	20.051	4.515	1.021
184.000	243.182	79.995	19.995	100.270	20.052	4.415	1.047
185.000	244.216	79.996	19.994	100.264	20.052	4.455	1.029
186.000	245.197	79.996	19.995	100.251	20.052	4.458	1.007
187.000	246.256	79.995	19.995	100.244	20.051	4.496	1.019
188.000	247.256	79.993	19.996	100.247	20.053	4.355	1.018
189.000	248.246	79.996	19.994	100.245	20.051	4.501	0.983
190.001	249.287	79.993	19.995	100.248	20.054	4.294	1.031
191.000	250.327	79.993	19.995	100.249	20.050	4.558	1.043
192.000	251.352	79.994	19.995	100.246	20.053	4.349	1.034
193.000	252.349	79.994	19.995	100.247	20.051	4.487	1.008
194.000	253.382	79.995	19.995	100.247	20.052	4.433	1.019
195.001	254.329	79.992	19.995	100.244	20.056	4.163	0.975
196.000	255.392	79.993	19.994	100.250	20.054	4.303	1.039
197.001	256.371	79.993	19.996	100.259	20.055	4.232	0.992
198.000	257.409	79.993	19.996	100.259	20.056	4.178	1.017
199.000	258.361	79.993	19.996	100.248	20.057	4.097	0.969
200.001	259.380	79.992	19.995	100.246	20.057	4.130	1.008
201.001	260.361	79.992	19.996	100.251	20.057	4.149	0.999
202.001	261.343	79.993	19.996	100.251	20.057	4.134	0.983
203.000	262.286	79.992	19.996	100.240	20.057	4.115	0.961
204.000	263.284	79.992	19.995	100.235	20.056	4.204	0.982
205.001	264.311	79.995	19.996	100.238	20.056	4.189	1.024
206.001	265.307	79.993	19.997	100.248	20.061	3.880	0.972
207.000	266.251	79.996	19.997	100.247	20.056	4.199	0.977
208.000	267.275	79.993	19.996	100.244	20.056	4.170	1.002
209.000	268.267	79.994	19.995	100.244	20.057	4.122	1.008
210.001	269.273	79.993	19.996	100.243	20.056	4.165	0.982
211.000	270.267	79.995	19.996	100.245	20.056	4.180	0.996
212.000	271.261	79.995	19.996	100.246	20.055	4.225	1.000
213.000	272.242	79.995	19.996	100.244	20.056	4.175	0.997
214.000	273.243	79.995	19.996	100.243	20.060	3.925	1.012
215.000	274.229	79.996	19.995	100.243	20.058	4.081	0.958
216.001	275.215	79.994	19.995	100.244	20.058	4.051	1.014
217.001	276.194	79.993	19.995	100.244	20.059	4.024	0.960
218.000	277.182	79.994	19.995	100.245	20.057	4.120	0.997
219.000	278.147	79.994	19.995	100.245	20.056	4.216	0.952
220.000	279.192	79.993	19.995	100.243	20.058	4.071	1.029
221.000	280.131	79.994	19.996	100.240	20.057	4.113	0.957
222.000	281.132	79.995	19.995	100.241	20.055	4.275	1.009
223.000	282.092	79.994	19.995	100.245	20.055	4.277	0.959
224.000	283.074	79.993	19.995	100.244	20.052	4.463	0.990
225.000	284.041	79.993	19.994	100.240	20.054	4.313	0.964
226.000	285.032	79.993	19.995	100.186	20.056	4.173	0.995
227.000	286.018	79.994	19.995	100.160	20.057	4.139	0.965
228.000	286.980	79.993	19.996	100.220	20.056	4.171	0.961
229.000	287.996	79.995	19.997	100.299	20.055	4.271	1.031
230.001	288.992	79.994	19.996	100.317	20.056	4.180	0.984
231.000	289.990	79.995	19.996	100.261	20.058	4.033	0.987
232.000	290.915	79.995	19.997	100.243	20.057	4.133	0.968
233.000	291.912	79.994	19.997	100.241	20.057	4.151	0.983
234.000	292.901	79.997	19.996	100.239	20.058	4.056	0.987
235.000	293.925	79.996	19.996	100.239	20.059	4.027	1.014
236.001	294.914	79.996	19.997	100.240	20.055	4.233	0.987
237.000	295.856	79.995	19.996	100.240	20.056	4.209	0.959
238.000	296.846	79.996	19.997	100.238	20.054	4.290	0.997
239.000	297.873	79.996	19.997	100.236	20.055	4.278	1.002
240.000	298.833	79.996	19.996	100.236	20.057	4.102	0.966
241.001	299.830	79.996	19.995	100.238	20.052	4.414	0.999
242.001	300.815	79.995	19.995	100.237	20.057	4.140	0.984
243.000	301.802	79.994	19.995	100.237	20.056	4.199	0.987
244.000	302.803	79.993	19.994	100.238	20.055	4.278	0.992
245.001	303.806	79.994	19.995	100.241	20.054	4.310	0.982
246.000	304.800	79.991	19.994	100.241	20.054	4.326	1.018
247.000	305.809	79.993	19.994	100.236	20.055	4.242	0.979
248.001	306.747	79.991	19.995	100.231	20.053	4.380	0.983
249.001	307.754	79.993	19.995	100.230	20.056	4.168	0.981
250.001	308.730	79.994	19.996	100.234	20.053	4.349	1.019
251.000	309.734	79.994	19.995	100.234	20.056	4.205	0.971
252.000	310.729	79.993	19.997	100.235	20.054	4.307	0.994
253.000	311.720	79.995	19.995	100.240	20.056	4.212	1.000
254.001	312.760	79.993	19.996	100.237	20.053	4.374	1.015
255.000	313.744	79.994	19.995	100.227	20.054	4.291	1.000
256.000	314.755	79.993	19.995	100.221	20.055	4.273	1.000
257.000	315.756	79.995	19.996	100.221	20.053	4.355	1.006
258.000	316.772	79.994	19.996	100.226	20.054	4.310	1.005
259.000	317.732	79.992	19.996	100.233	20.051	4.514	0.988
260.000	318.763	79.993	19.996	100.236	20.054	4.290	1.023
261.000	319.731	79.994	19.996	100.229	20.052	4.450	0.957
262.000	320.782	79.994	19.995	100.216	20.053	4.375	1.043
263.000	321.751	79.993	19.996	100.217	20.052	4.441	0.972
264.000	322.751	79.995	19.995	100.226	20.050	4.598	1.030
265.000	323.766	79.994	19.996	100.226	20.054	4.345	1.003
266.000	324.783	79.995	19.995	100.215	20.052	4.438	0.998
267.000	325.782	79.993	19.995	100.208	20.052	4.472	0.996
268.000	326.789	79.994	19.995	100.211	20.048	4.695	1.018
269.000	327.780	79.993	19.995	100.216	20.047	4.744	0.998
270.000	328.808	79.992	19.995	100.223	20.045	4.877	1.026
271.000	329.811	79.993	19.995	100.222	20.045	4.910	1.004
272.000	330.829	79.995	19.996	100.216	20.046	4.797	1.010
273.000	331.841	79.993	19.995	100.213	20.046	4.803	0.999
274.000	332.838	79.990	19.996	100.207	20.047	4.767	1.023
275.000	333.876	79.993	19.994	100.213	20.047	4.731	1.019
276.000	334.893	79.994	19.996	100.219	20.048	4.722	1.029
277.000	335.920	79.995	19.995	100.223	20.047	4.760	1.021
278.000	336.907	79.993	19.995	100.219	20.045	4.860	0.995
279.000	337.945	79.993	19.995	100.221	20.044	4.939	1.010
280.000	338.933	79.992	19.995	100.217	20.046	4.794	1.024
281.000	339.916	79.993	19.995	100.213	20.047	4.777	0.986
282.000	340.956	79.993	19.995	100.211	20.047	4.747	1.026
283.000	341.932	79.992	19.995	100.210	20.045	4.883	0.983
284.000	342.952	79.994	19.995	100.210	20.045	4.904	1.012
285.000	343.968	79.993	19.995	100.218	20.045	4.852	1.017
286.000	344.959	79.993	19.995	100.220	20.042	5.092	0.985
287.000	345.980	79.995	19.995	100.218	20.044	4.925	1.029
288.000	347.006	79.996	19.996	100.210	20.045	4.909	1.022
289.000	348.009	79.992	19.996	100.211	20.042	5.058	1.009
290.000	349.022	79.993	19.996	100.217	20.041	5.130	1.005
291.000	350.066	79.993	19.996	100.213	20.043	5.018	1.042
292.001	351.062	79.995	19.996	100.207	20.044	4.940	1.007
293.000	352.079	79.994	19.996	100.206	20.043	5.035	1.020
294.000	353.112	79.996	19.996	100.205	20.040	5.216	1.023
295.000	354.183	79.994	19.995	100.203	20.040	5.222	1.050
296.000	355.182	79.992	19.996	100.203	20.039	5.287	1.018
297.000	356.188	79.994	19.997	100.209	20.036	5.454	1.021
298.000	357.203	79.994	19.996	100.213	20.039	5.252	1.000
299.000	358.234	79.996	19.997	100.209	20.038	5.309	1.035
300.000	359.207	79.995	19.996	100.211	20.035	5.540	0.999
301.000	360.274	79.994	19.996	100.216	20.036	5.469	1.041
302.000	361.291	79.995	19.996	100.214	20.033	5.635	1.008
303.000	362.296	79.995	19.996	100.205	20.031	5.783	1.005
304.001	363.301	79.994	19.996	100.211	20.031	5.752	1.024
305.000	364.322	79.994	19.996	100.215	20.027	6.022	1.009
306.000	365.351	79.995	19.996	100.215	20.025	6.144	1.018
307.000	366.352	79.995	19.995	100.209	20.024	6.191	1.017
308.000	367.401	79.994	19.996	100.207	20.024	6.234	1.046
309.000	368.389	79.994	19.996	100.207	20.019	6.543	0.992
310.000	369.403	79.996	19.995	100.207	20.017	6.681	1.016
311.000	370.452	79.996	19.996	100.203	20.013	6.899	1.024
312.000	371.462	79.996	19.995	100.208	20.011	7.027	1.012
313.000	372.487	79.997	19.996	100.215	20.008	7.216	1.025
314.000	373.512	79.996	19.996	100.214	20.004	7.456	1.044
315.000	374.557	79.996	19.996	100.203	20.000	7.748	1.021
316.000	375.544	79.997	19.996	100.203	19.997	7.894	1.026
317.000	376.591	79.996	19.997	100.201	19.992	8.263	1.012
318.000	377.544	79.995	19.996	100.200	19.989	8.408	0.998
319.000	378.627	79.996	19.996	100.205	19.987	8.587	1.043
320.000	379.602	79.995	19.997	100.212	19.982	8.882	0.972
321.000	380.640	79.996	19.997	100.218	19.976	9.269	1.049
322.000	381.643	79.994	19.997	100.224	19.971	9.559	1.018
323.000	382.677	79.995	19.996	100.231	19.965	9.957	1.009
324.000	383.709	79.993	19.996	100.229	19.957	10.438	1.030
325.000	384.686	79.993	19.997	100.226	19.954	10.662	0.993
326.000	385.673	79.993	19.996	100.220	19.950	10.906	1.005
327.000	386.700	79.992	19.995	100.225	19.940	11.553	1.005
328.000	387.732	79.993	19.995	100.231	19.932	12.044	1.040
329.000	388.754	79.992	19.996	100.235	19.926	12.444	1.031
330.000	389.777	79.994	19.995	100.235	19.920	12.833	1.015
331.000	390.828	79.995	19.995	100.238	19.911	13.402	1.031
332.000	391.832	79.994	19.995	100.248	19.900	14.045	1.019
333.000	392.826	79.993	19.995	100.248	19.891	14.672	1.007
334.000	393.904	79.992	19.995	100.250	19.877	15.508	1.058
335.000	394.912	79.994	19.995	100.252	19.865	16.292	1.015
336.000	395.968	79.993	19.996	100.263	19.856	16.857	1.044
337.000	396.947	79.994	19.997	100.272	19.838	17.987	0.999
338.000	397.975	79.993	19.996	100.278	19.822	19.004	1.017
339.000	398.988	79.994	19.995	100.282	19.805	20.099	1.021
340.000	400.049	79.994	19.996	100.288	19.782	21.561	1.033
341.000	401.046	79.994	19.996	100.304	19.764	22.708	0.997
342.000	402.026	79.994	19.995	100.319	19.739	24.312	1.012
343.000	403.051	79.994	19.995	100.325	19.712	26.017	1.018
344.000	404.057	79.993	19.995	100.333	19.681	28.012	0.998
345.000	405.056	79.994	19.995	100.347	19.651	29.892	1.017
346.000	406.079	79.994	19.994	100.361	19.620	31.903	1.010
347.000	407.071	79.995	19.995	100.370	19.583	34.207	1.007
348.000	408.119	79.995	19.995	100.385	19.544	36.721	1.018
349.001	409.147	79.992	19.995	100.404	19.500	39.485	1.043
350.000	410.182	79.994	19.995	100.420	19.457	42.257	1.018
351.000	411.178	79.994	19.995	100.437	19.419	44.649	1.030
352.000	412.175	79.992	19.995	100.444	19.384	46.881	0.985
353.000	413.204	79.994	19.995	100.440	19.347	49.247	1.022
354.000	414.257	79.994	19.996	100.443	19.303	52.012	1.037
355.000	415.260	79.994	19.996	100.460	19.254	55.099	1.019
356.000	416.316	79.993	19.996	100.484	19.194	58.923	1.040
357.000	417.314	79.994	19.996	100.496	19.129	63.107	1.025
358.000	418.366	79.994	19.995	100.507	19.068	67.104	1.042
359.001	419.424	79.994	19.995	100.542	19.015	70.498	1.050
360.000	420.475	79.994	19.996	100.550	18.974	73.135	1.045
361.000	421.490	79.996	19.996	100.564	18.931	75.895	1.024
362.000	422.528	79.995	19.996	100.545	18.890	78.490	1.037
363.000	423.568	79.994	19.996	100.546	18.846	81.337	1.044
364.000	424.593	79.994	19.996	100.533	18.804	84.023	1.026
365.000	425.632	79.996	19.995	100.514	18.758	87.014	1.033
366.000	426.652	79.997	19.995	100.482	18.713	89.887	1.034
367.000	427.704	79.996	19.996	100.523	18.662	93.188	1.059
368.000	428.735	79.998	19.995	100.633	18.600	97.164	1.020
369.000	429.800	79.996	19.996	100.753	18.526	101.899	1.054
370.000	430.828	79.996	19.995	100.817	18.442	107.317	1.022
371.000	431.843	79.996	19.996	100.856	18.341	113.813	1.040
372.000	432.889	79.994	19.995	100.873	18.244	120.127	1.015
373.000	433.919	79.995	19.995	100.900	18.148	126.493	1.048
374.000	434.949	79.995	19.996	100.934	18.047	133.210	1.047
375.000	435.983	79.996	19.996	100.963	17.937	140.434	1.002
376.001	437.005	79.995	19.996	100.966	17.814	148.256	1.050
377.000	438.009	79.995	19.996	101.007	17.685	156.491	1.003
378.000	439.015	79.997	19.996	101.042	17.544	165.470	0.998
379.000	440.051	79.995	19.996	101.061	17.408	174.159	1.039
380.000	441.078	79.995	19.996	101.070	17.287	181.576	1.015
381.000	442.075	79.993	19.996	101.129	17.144	190.143	0.997
382.000	443.073	79.997	19.996	101.176	16.942	202.828	1.010
383.000	444.092	79.996	19.996	101.268	16.683	219.895	1.006
384.000	445.116	79.994	19.996	101.453	16.426	237.070	1.037
385.000	446.105	79.994	19.997	101.630	16.192	252.627	0.997
386.000	447.121	79.994	19.996	101.749	15.995	265.535	1.007
387.000	448.130	79.995	19.996	101.718	15.831	276.175	0.994
388.000	449.133	79.996	19.995	101.659	15.700	284.637	1.013
389.000	450.111	79.996	19.995	101.608	15.589	291.796	0.973
390.000	451.132	79.995	19.996	101.580	15.499	297.582	1.032
391.000	452.152	79.997	19.995	101.397	15.424	302.321	1.008
392.000	453.132	79.996	19.995	101.083	15.361	306.192	1.001
393.000	454.120	79.996	19.995	100.974	15.306	309.530	0.981
394.000	455.151	79.996	19.995	101.227	15.251	312.988	1.002
395.000	456.163	79.997	19.995	101.568	15.207	315.830	1.017
396.000	457.157	79.998	19.996	101.780	15.165	318.483	1.011
397.000	458.125	79.997	19.995	101.868	15.131	320.515	0.986
398.000	459.150	79.996	19.995	101.891	15.105	322.070	1.017
399.000	460.143	79.995	19.995	101.915	15.089	323.036	0.994
400.000	461.122	79.995	19.996	101.927	15.086	323.103	0.994
401.000	462.134	79.996	19.995	101.924	15.095	322.451	0.986
402.000	463.130	79.992	19.996	101.888	15.118	320.863	0.998
403.000	464.134	79.992	19.996	101.834	15.151	318.596	1.029
404.000	465.110	79.993	19.996	101.764	15.202	315.159	0.971
405.000	466.125	79.993	19.997	101.733	15.270	310.716	0.995
406.000	467.105	79.994	19.996	101.734	15.351	305.370	0.985
407.000	468.135	79.991	19.996	101.721	15.446	299.194	1.025
408.000	469.102	79.992	19.996	101.669	15.555	292.141	0.961
409.000	470.150	79.992	19.997	101.633	15.673	284.421	1.024
410.000	471.143	79.993	19.996	101.613	15.804	275.930	1.017
411.000	472.142	79.993	19.996	101.589	15.948	266.652	0.996
412.000	473.085	79.993	19.997	101.556	16.099	256.863	0.973
413.000	474.136	79.993	19.996	101.520	16.259	246.568	1.038
414.000	475.137	79.992	19.996	101.476	16.423	236.026	0.994
415.000	476.159	79.994	19.997	101.428	16.593	225.077	1.015
416.000	477.135	79.994	19.996	101.382	16.768	213.874	0.980
417.000	478.130	79.993	19.996	101.342	16.940	202.771	1.002
418.000	479.170	79.994	19.995	101.307	17.111	191.829	1.021
419.000	480.174	79.992	19.995	101.270	17.288	180.477	1.012
420.000	481.138	79.994	19.995	101.226	17.452	169.956	0.977
421.000	482.168	79.992	19.995	101.184	17.616	159.450	1.015
422.000	483.193	79.994	19.996	101.143	17.771	149.500	1.019
423.000	484.156	79.993	19.996	101.098	17.929	139.394	0.986
424.000	485.136	79.995	19.995	101.053	18.077	129.955	0.988
425.000	486.182	79.996	19.995	101.014	18.217	121.014	1.024
426.000	487.233	79.995	19.994	100.983	18.350	112.527	1.037
427.000	488.203	79.994	19.995	100.947	18.478	104.330	0.976
428.000	489.194	79.992	19.996	100.902	18.598	96.701	1.018
429.000	490.199	79.995	19.996	100.855	18.714	89.371	1.013
430.000	491.237	79.995	19.996	100.809	18.818	82.698	1.009
431.000	492.226	79.994	19.996	100.766	18.918	76.381	0.995
432.000	493.231	79.995	19.994	100.723	19.015	70.220	0.997
433.000	494.248	79.995	19.995	100.680	19.098	64.939	1.023
434.000	495.311	79.995	19.995	100.644	19.178	59.824	1.048
435.000	496.291	79.994	19.995	100.609	19.256	54.896	0.989
436.000	497.322	79.996	19.996	100.574	19.329	50.271	1.027
437.001	498.354	79.993	19.995	100.534	19.389	46.418	1.028
438.000	499.335	79.993	19.995	100.500	19.449	42.610	0.989
439.000	500.312	79.993	19.995	100.472	19.504	39.137	1.003
440.000	501.354	79.995	19.996	100.454	19.558	35.718	1.025
441.000	502.375	79.995	19.996	100.439	19.600	33.055	1.019
442.000	503.370	79.993	19.995	100.425	19.643	30.365	1.000
443.000	504.393	79.995	19.996	100.395	19.682	27.843	1.016
444.000	505.438	79.996	19.995	100.358	19.715	25.760	1.026
445.000	506.424	79.995	19.996	100.333	19.747	23.727	1.005
446.000	507.452	79.994	19.995	100.325	19.779	21.731	0.998
447.000	508.445	79.996	19.996	100.320	19.801	20.328	1.019
448.000	509.492	79.996	19.995	100.307	19.823	18.956	1.048
449.000	510.474	79.996	19.995	100.291	19.844	17.606	0.991
450.001	511.472	79.996	19.995	100.271	19.864	16.311	0.987
451.000	512.477	79.997	19.995	100.252	19.877	15.493	1.012
452.000	513.505	79.996	19.995	100.242	19.889	14.732	1.013
453.000	514.566	79.995	19.995	100.239	19.907	13.582	1.065
454.000	515.587	79.997	19.996	100.234	19.917	12.991	1.005
455.000	516.597	79.995	19.995	100.224	19.928	12.306	1.021
456.000	517.604	79.996	19.995	100.212	19.938	11.657	1.034
457.000	518.638	79.996	19.995	100.206	19.943	11.308	1.032
458.000	519.664	79.995	19.996	100.205	19.951	10.796	1.003
459.000	520.714	79.995	19.995	100.205	19.958	10.359	1.044
460.000	521.702	79.994	19.995	100.192	19.965	9.940	1.001
461.000	522.708	79.993	19.994	100.184	19.971	9.534	1.015
462.000	523.721	79.995	19.995	100.176	19.973	9.422	1.016
463.000	524.766	79.994	19.996	100.174	19.977	9.208	1.027
464.000	525.819	79.995	19.995	100.168	19.978	9.091	1.053
465.000	526.815	79.996	19.996	100.168	19.982	8.865	1.016
466.000	527.875	79.995	19.996	100.172	19.986	8.588	1.032
467.000	528.885	79.997	19.995	100.172	19.991	8.306	1.033
468.000	529.920	79.994	19.996	100.169	19.987	8.524	1.002
469.000	530.926	79.995	19.996	100.165	19.994	8.095	1.023
470.000	531.975	79.996	19.996	100.165	19.980	8.971	1.050
471.000	532.975	79.996	19.995	100.166	20.002	7.627	1.025
472.000	534.004	79.997	19.996	100.166	19.997	7.904	1.015
473.000	535.060	79.996	19.996	100.167	19.999	7.827	1.045
474.001	536.090	79.996	19.996	100.167	19.997	7.909	1.022
475.000	537.086	79.996	19.995	100.166	19.999	7.787	1.060
476.000	538.136	79.997	19.995	100.165	19.999	7.783	1.004
477.000	539.201	79.997	19.996	100.166	20.002	7.623	1.063
478.000	540.209	79.995	19.996	100.167	19.999	7.790	0.992
479.000	541.261	79.996	19.995	100.163	19.998	7.830	1.028
480.000	542.163	79.997	19.995	100.121	19.997	7.928	0.958
481.001	543.287	79.995	19.995	100.093	19.997	7.897	1.127
482.000	544.279	79.995	19.996	100.098	19.998	7.845	0.975
483.000	545.287	79.994	19.996	100.209	20.000	7.735	1.016
484.000	546.209	79.998	19.995	100.230	20.000	7.740	0.770
485.000	547.441	79.994	19.997	100.220	20.000	7.711	1.129
486.000	548.479	79.994	19.996	100.165	20.001	7.653	1.070
487.000	549.413	79.994	19.996	100.160	20.004	7.492	1.124
488.000	550.490	79.994	19.997	100.154	20.002	7.621	1.100
489.000	551.456	79.993	19.997	100.153	20.003	7.536	0.952
490.000	552.388	79.993	19.997	100.158	19.999	7.768	0.981
491.000	553.490	79.995	19.997	100.160	20.004	7.496	1.094
492.000	554.498	79.995	19.996	100.160	20.002	7.578	0.960
493.000	555.564	79.994	19.996	100.161	20.002	7.593	1.103
494.000	556.574	79.993	19.996	100.163	19.999	7.805	1.018
495.000	557.576	79.993	19.996	100.163	20.000	7.734	0.997
496.000	558.611	79.995	19.996	100.162	20.000	7.732	1.016
497.000	559.631	79.993	19.997	100.161	20.004	7.454	1.037
498.000	560.642	79.993	19.997	100.160	19.999	7.773	0.995
499.000	561.683	79.995	19.997	100.152	20.003	7.557	1.043
500.000	562.690	79.993	19.997	100.148	20.003	7.515	1.041
501.000	563.762	79.994	19.996	100.141	20.001	7.683	1.037
502.000	564.758	79.994	19.997	100.142	19.999	7.815	0.993
503.000	565.771	79.995	19.996	100.152	19.997	7.891	1.027
504.000	566.757	79.994	19.996	100.155	19.999	7.786	0.981
505.000	567.794	79.995	19.996	100.151	19.998	7.869	1.028
506.000	568.816	79.994	19.996	100.151	19.998	7.824	1.031
507.000	569.830	79.995	19.996	100.158	19.997	7.926	1.023
508.000	570.868	79.994	19.996	100.160	19.997	7.892	1.022
509.000	571.883	79.995	19.996	100.158	19.998	7.842	1.011
510.000	572.872	79.995	19.995	100.157	19.997	7.916	0.997
511.000	573.955	79.994	19.996	100.159	19.997	7.901	1.081
512.000	575.009	79.994	19.996	100.155	19.999	7.768	1.054
513.000	576.055	79.993	19.995	100.150	19.999	7.776	1.027
514.000	577.053	79.995	19.995	100.151	20.000	7.711	1.013
515.000	578.053	79.993	19.995	100.154	19.997	7.916	1.003
516.001	579.109	79.995	19.994	100.151	19.997	7.896	1.055
517.000	580.106	79.992	19.995	100.153	19.999	7.789	1.000
518.000	581.130	79.993	19.996	100.152	20.000	7.733	1.025
519.000	582.157	79.994	19.995	100.142	20.000	7.727	1.038
520.000	583.171	79.994	19.995	100.136	19.997	7.896	0.996
521.000	584.167	79.993	19.996	100.140	20.000	7.714	0.996
522.000	585.155	79.992	19.995	100.149	20.000	7.696	1.015
523.000	586.187	79.994	19.995	100.161	19.999	7.813	1.019
524.000	587.216	79.997	19.997	100.156	19.997	7.890	1.019
525.000	588.234	79.997	19.996	100.154	20.000	7.710	1.036
526.000	589.284	79.996	19.997	100.157	20.002	7.625	1.027
527.000	590.306	79.996	19.995	100.152	19.996	7.974	1.029
528.000	591.346	79.996	19.996	100.141	19.986	8.604	1.022
529.000	592.294	79.995	19.995	100.132	19.998	7.864	0.997
530.000	593.376	79.995	19.995	100.140	19.995	8.062	1.027
531.000	594.415	79.996	19.996	100.145	19.995	8.055	1.063
532.000	595.411	79.995	19.996	100.151	19.994	8.082	0.988
533.000	596.455	79.995	19.996	100.144	19.992	8.236	1.045
534.000	597.467	79.995	19.995	100.146	19.995	8.036	1.014
535.000	598.458	79.995	19.994	100.139	19.997	7.919	1.008
536.000	599.457	79.995	19.996	100.149	19.994	8.107	0.988
537.000	600.449	79.994	19.996	100.155	19.992	8.241	1.002
538.000	601.485	79.994	19.996	100.158	19.994	8.077	1.025
539.000	602.507	79.994	19.995	100.151	19.993	8.152	1.028
540.000	603.529	79.994	19.995	100.140	19.994	8.102	1.003
541.000	604.574	79.994	19.994	100.131	19.995	8.037	1.034
542.000	604.834	79.995	19.994	100.129	19.992	8.210	0.651
543.000	606.557	79.994	19.994	100.132	19.992	8.251	1.299
544.000	607.585	79.995	19.996	100.132	19.991	8.267	1.082
545.000	608.591	79.996	19.994	100.134	19.992	8.205	0.994
546.000	609.606	79.996	19.995	100.133	19.994	8.106	1.016
547.000	610.616	79.996	19.996	100.132	19.995	8.062	1.025
548.000	611.637	79.996	19.995	100.131	19.992	8.221	1.008
549.000	612.676	79.996	19.995	100.133	19.990	8.371	1.045
550.000	613.662	79.996	19.996	100.139	19.993	8.182	0.984
551.000	614.680	79.997	19.995	100.144	19.994	8.127	1.022
552.000	615.729	79.996	19.995	100.140	19.989	8.423	1.041
553.000	616.735	79.996	19.995	100.131	19.983	8.781	1.016
554.000	617.763	79.997	19.996	100.130	19.989	8.393	1.022
555.000	618.770	79.997	19.995	100.134	19.991	8.324	1.019
556.000	619.811	79.996	19.995	100.135	19.988	8.499	1.051
557.000	620.792	79.996	19.996	100.129	19.989	8.401	0.968
558.000	621.819	79.997	19.995	100.132	19.990	8.339	1.030
559.000	622.862	79.997	19.996	100.136	19.991	8.289	1.031
560.000	623.859	79.995	19.995	100.142	19.992	8.247	1.021
561.000	624.923	79.994	19.996	100.145	19.989	8.428	1.036
562.000	625.924	79.994	19.996	100.146	19.988	8.463	1.016
563.000	626.931	79.993	19.996	100.143	19.991	8.294	0.967
564.000	627.966	79.995	19.996	100.140	19.991	8.274	1.055
565.000	628.968	79.995	19.997	100.141	19.987	8.527	1.030
566.000	629.952	79.994	19.996	100.138	19.989	8.443	0.989
567.000	630.722	79.993	19.995	100.135	19.988	8.497	0.910
568.000	632.057	79.994	19.997	100.133	19.990	8.385	1.169
569.000	633.000	79.994	19.997	100.129	19.989	8.424	0.977
570.000	634.049	79.994	19.996	100.136	19.989	8.439	1.012
571.000	635.131	79.994	19.996	100.144	19.991	8.285	1.083
572.000	636.160	79.996	19.996	100.140	19.989	8.421	1.029
573.000	637.165	79.995	19.996	100.135	19.992	8.242	1.008
574.000	638.167	79.994	19.996	100.128	19.988	8.506	1.033
575.000	639.220	79.993	19.996	100.131	19.992	8.258	1.023
576.000	640.219	79.995	19.995	100.132	19.993	8.190	1.023
577.000	641.128	79.994	19.996	100.135	19.993	8.194	0.948
578.000	642.266	79.994	19.996	100.131	19.992	8.211	1.079
579.000	643.250	79.994	19.996	100.131	19.991	8.268	0.991
580.000	644.248	79.992	19.996	100.134	19.991	8.292	1.014
581.000	645.306	79.995	19.996	100.137	19.994	8.108	1.033
582.000	646.310	79.993	19.997	100.140	19.996	7.991	1.029
583.000	647.304	79.994	19.996	100.148	19.998	7.840	0.982
584.000	648.311	79.994	19.995	100.140	19.997	7.935	1.027
585.000	649.378	79.993	19.996	100.132	20.001	7.664	1.037
586.000	650.398	79.994	19.997	100.126	20.003	7.517	1.017
587.000	651.421	79.994	19.997	100.125	20.004	7.448	1.025
588.000	652.402	79.993	19.997	100.124	20.002	7.614	1.005
589.000	653.409	79.995	19.996	100.124	20.001	7.658	0.998
590.000	654.495	79.993	19.997	100.122	20.004	7.480	1.063
591.000	655.526	79.994	19.996	100.122	20.005	7.431	1.026
592.000	656.502	79.994	19.996	100.125	20.005	7.414	1.000
593.000	657.528	79.994	19.997	100.126	20.006	7.350	1.009
594.000	658.534	79.994	19.996	100.117	20.005	7.380	1.013
595.000	659.548	79.992	19.996	100.112	20.006	7.365	1.010
596.000	660.572	79.994	19.994	100.114	20.010	7.114	1.023
597.000	661.588	79.993	19.995	100.126	20.006	7.339	1.029
598.000	662.613	79.993	19.995	100.126	20.008	7.195	1.030
599.000	663.648	79.992	19.996	100.126	20.009	7.158	1.025
600.000	664.639	79.993	19.996	100.126	20.011	7.048	0.995
601.000	665.688	79.994	19.994	100.128	20.014	6.827	1.023
602.000	666.689	79.995	19.996	100.129	20.010	7.066	1.000
603.000	667.669	79.995	19.995	100.129	20.014	6.841	1.015
604.000	668.624	79.994	19.996	100.128	20.013	6.878	0.958
605.000	669.698	79.996	19.995	100.127	20.017	6.656	1.051
606.000	670.684	79.996	19.995	100.119	20.017	6.654	1.003
607.000	671.688	79.996	19.995	100.116	20.014	6.855	1.007
608.000	672.704	79.997	19.996	100.113	20.018	6.591	1.016
609.000	673.698	79.996	19.995	100.118	20.016	6.737	1.008
610.000	674.746	79.995	19.995	100.117	20.018	6.596	1.027
611.000	675.776	79.996	19.996	100.120	20.017	6.636	1.021
612.000	676.775	79.997	19.996	100.122	20.022	6.353	1.008
613.000	677.745	79.996	19.995	100.118	20.021	6.408	0.999
614.000	678.816	79.995	19.996	100.109	20.022	6.325	1.044
615.000	679.799	79.994	19.995	100.112	20.022	6.302	0.998
616.000	680.818	79.997	19.995	100.117	20.021	6.395	0.994
617.000	681.803	79.995	19.996	100.112	20.019	6.507	1.006
618.000	682.801	79.994	19.996	100.108	20.028	5.957	0.989
619.000	683.830	79.997	19.996	100.103	20.038	5.344	1.014
620.000	684.827	79.995	19.997	100.093	20.025	6.134	1.011
621.000	685.847	79.996	19.996	100.098	20.023	6.276	1.008
622.000	686.833	79.996	19.995	100.111	20.026	6.103	1.012
623.000	687.838	79.996	19.996	100.119	20.026	6.071	1.007
624.000	688.913	79.996	19.996	100.118	20.029	5.867	1.028
625.000	689.865	79.995	19.996	100.115	20.029	5.889	0.992
626.000	690.881	79.996	19.995	100.108	20.028	5.947	1.009
627.000	691.902	79.996	19.996	100.109	20.027	6.022	1.001
628.000	692.932	79.997	19.996	100.107	20.028	5.924	1.023
629.000	693.863	79.997	19.994	100.097	20.029	5.918	0.986
630.000	694.881	79.997	19.996	100.087	20.030	5.855	0.981
631.000	695.972	79.998	19.994	100.088	20.030	5.810	1.054
632.000	696.876	79.997	19.995	100.099	20.032	5.675	0.963
633.000	697.917	79.998	19.995	100.113	20.033	5.648	1.047
634.000	698.918	79.997	19.996	100.120	20.035	5.505	0.985
635.000	699.931	79.998	19.995	100.111	20.035	5.485	0.998
636.000	700.992	79.998	19.995	100.102	20.036	5.415	1.123
637.000	701.982	79.996	19.995	100.094	20.034	5.570	0.940
638.000	703.021	79.997	19.996	100.091	20.032	5.716	1.034
639.000	704.002	79.998	19.996	100.095	20.037	5.392	0.973
640.000	705.014	79.996	19.995	100.108	20.033	5.621	1.019
641.000	706.008	79.996	19.995	100.118	20.034	5.594	0.997
642.000	707.005	79.995	19.995	100.109	20.037	5.400	0.990
643.000	708.033	79.994	19.996	100.100	20.035	5.495	1.032
644.000	709.032	79.994	19.996	100.098	20.034	5.558	1.010
645.000	710.046	79.994	19.996	100.097	20.035	5.509	1.012
646.000	711.060	79.993	19.996	100.087	20.039	5.270	1.017
647.000	712.108	79.994	19.995	100.089	20.036	5.415	1.035
648.000	713.135	79.994	19.996	100.090	20.036	5.420	1.039
649.000	714.131	79.995	19.996	100.090	20.039	5.229	0.994
650.001	715.143	79.993	19.996	100.092	20.038	5.339	0.999
651.000	716.196	79.994	19.996	100.094	20.041	5.129	1.042
652.000	717.208	79.993	19.996	100.095	20.041	5.127	1.031
653.000	718.203	79.995	19.997	100.100	20.040	5.163	1.005
654.000	719.207	79.995	19.996	100.102	20.040	5.176	0.985
655.000	720.217	79.996	19.996	100.097	20.037	5.370	1.023
656.000	721.245	79.993	19.995	100.089	20.041	5.110	1.003
657.000	722.222	79.995	19.996	100.090	20.041	5.129	1.002
658.000	723.216	79.994	19.996	100.091	20.040	5.176	1.005
659.000	724.217	79.995	19.996	100.093	20.041	5.120	1.003
660.000	725.254	79.995	19.995	100.094	20.040	5.170	1.027
661.000	726.306	79.994	19.996	100.097	20.038	5.347	1.029
662.000	727.285	79.993	19.996	100.096	20.038	5.292	0.999
663.000	728.308	79.994	19.995	100.091	20.043	5.024	1.008
664.000	729.310	79.993	19.996	100.091	20.040	5.193	1.012
665.000	730.340	79.993	19.996	100.093	20.042	5.095	1.023
666.000	731.336	79.994	19.995	100.093	20.045	4.850	0.991
667.000	732.337	79.994	19.996	100.091	20.046	4.824	1.013
668.000	733.334	79.993	19.997	100.093	20.042	5.066	0.998
669.000	734.332	79.993	19.996	100.094	20.044	4.959	0.994
670.000	735.336	79.994	19.997	100.090	20.040	5.208	1.013
671.000	736.309	79.993	19.995	100.087	20.039	5.240	0.978
672.000	737.324	79.994	19.996	100.085	20.037	5.394	1.010