File: 01_Data/Polyester_Felt/MCC/Polyester_Felt_MCC_30K_min_210709_R1.txt
Sample ID:	C:\MCC\MCC Cal\Test\Polyester_Felt\Polyester_Felt_MCC_30K_min_21_07_09_R1.txt
Sample Weight (mg):	3.86
Heating Rate (C/s):	0.5
Combustor Temp (C):	900
N2 Flow Rate (cc/min):	80
O2 Flow Rate (cc/min):	20
Calibration File:	C:\MCC\MCC Cal\Coeff1 JN10440_30_210304.txt.txt
T Correction Coefficients:	0	1.024463	0
Time Shift (s):	14
*
Time (s)	Temperature (C)	N2 flow rate (cc/min)	O2 flow rate (cc/min)	Flow Rate (cc/min)	Oxygen (%)	HRR (W/g)	Heating rate (C/s)
0.000	109.089	79.998	19.995	99.936	20.131	0.018	-0.016
2.000	109.074	79.998	19.996	99.932	20.129	0.129	0.000
4.000	109.067	79.999	19.997	99.932	20.129	0.160	-0.006
6.000	109.097	79.998	19.996	99.931	20.133	-0.169	0.039
8.000	109.029	79.996	19.996	99.933	20.131	0.018	0.026
10.000	109.065	79.998	19.996	99.932	20.129	0.140	-0.008
12.000	109.018	79.999	19.997	99.931	20.132	-0.060	0.015
14.000	109.028	79.996	19.996	99.933	20.131	0.007	0.008
16.000	109.014	79.998	19.996	99.937	20.134	-0.229	-0.017
18.000	108.999	79.997	19.996	99.933	20.128	0.202	-0.019
20.000	109.010	79.995	19.997	99.940	20.134	-0.231	0.028
22.000	108.992	79.995	19.996	99.950	20.126	0.389	-0.024
24.000	109.037	79.995	19.996	99.974	20.128	0.262	0.017
26.000	109.038	79.995	19.997	99.985	20.122	0.713	0.018
28.000	109.084	79.995	19.998	100.016	20.116	1.245	0.023
30.000	109.139	79.995	19.997	100.028	20.110	1.712	0.028
32.000	109.186	79.996	19.997	100.046	20.120	0.905	0.015
34.000	109.309	79.994	19.996	100.047	20.115	1.319	0.062
36.000	109.373	79.996	19.998	100.038	20.113	1.419	0.043
38.000	109.573	79.995	19.997	100.058	20.107	1.910	0.071
40.000	109.705	79.994	19.996	100.071	20.107	1.910	0.074
42.000	109.885	79.993	19.995	100.094	20.106	2.010	0.093
44.000	110.095	79.994	19.996	100.122	20.101	2.440	0.112
46.000	110.316	79.996	19.996	100.127	20.100	2.496	0.112
48.000	110.640	79.994	19.996	100.135	20.099	2.551	0.146
50.000	110.953	79.996	19.997	100.135	20.094	2.989	0.150
52.001	111.274	79.995	19.995	100.123	20.097	2.752	0.173
54.000	111.623	79.996	19.996	100.127	20.095	2.910	0.169
56.000	112.011	79.996	19.997	100.153	20.096	2.830	0.198
58.001	112.382	79.995	19.997	100.153	20.088	3.455	0.177
60.000	112.850	79.996	19.997	100.150	20.088	3.462	0.242
62.000	113.299	79.999	19.997	100.149	20.088	3.439	0.229
64.000	113.745	79.998	19.995	100.158	20.086	3.651	0.277
66.000	114.269	79.999	19.997	100.162	20.089	3.362	0.244
68.000	114.769	79.998	19.995	100.165	20.087	3.555	0.239
70.000	115.285	79.999	19.997	100.164	20.087	3.564	0.253
72.000	115.837	79.998	19.997	100.166	20.082	3.993	0.261
74.000	116.460	79.997	19.995	100.168	20.082	3.938	0.323
76.000	117.026	79.997	19.996	100.166	20.084	3.789	0.301
78.000	117.646	79.999	19.997	100.169	20.090	3.284	0.282
80.001	118.287	79.998	19.996	100.168	20.081	4.074	0.327
82.001	118.932	79.999	19.996	100.165	20.086	3.606	0.332
84.000	119.645	79.999	19.996	100.169	20.088	3.497	0.363
86.000	120.284	79.996	19.994	100.168	20.084	3.820	0.357
88.001	120.939	79.998	19.995	100.169	20.083	3.842	0.343
90.000	121.672	79.998	19.996	100.176	20.084	3.796	0.337
92.001	122.410	79.997	19.996	100.169	20.090	3.291	0.382
94.000	123.133	79.995	19.996	100.169	20.090	3.287	0.352
96.001	123.886	79.994	19.996	100.176	20.087	3.591	0.361
98.000	124.664	79.996	19.997	100.178	20.085	3.727	0.368
100.000	125.389	79.993	19.996	100.179	20.083	3.863	0.397
102.000	126.175	79.995	19.995	100.177	20.087	3.573	0.410
104.001	126.946	79.997	19.997	100.187	20.072	4.798	0.377
106.000	127.732	79.997	19.996	100.188	20.077	4.397	0.391
108.001	128.552	79.997	19.999	100.183	20.074	4.628	0.410
110.000	129.417	79.995	19.997	100.191	20.075	4.515	0.401
112.000	130.232	79.995	19.998	100.196	20.081	4.028	0.396
114.000	131.019	79.996	19.998	100.184	20.075	4.545	0.360
116.000	131.987	79.997	19.997	100.195	20.075	4.549	0.453
118.000	132.830	79.995	19.997	100.183	20.086	3.647	0.445
120.000	133.666	79.995	19.997	100.190	20.081	4.068	0.412
122.000	134.595	79.996	19.998	100.200	20.081	4.084	0.446
124.000	135.475	79.996	19.997	100.202	20.079	4.199	0.420
126.000	136.389	79.996	19.996	100.202	20.073	4.658	0.442
128.000	137.325	79.994	19.996	100.201	20.085	3.738	0.446
130.000	138.302	79.995	19.996	100.195	20.073	4.700	0.508
132.000	139.238	79.996	19.997	100.202	20.076	4.413	0.485
134.000	140.216	79.996	19.996	100.206	20.079	4.172	0.495
136.000	141.194	79.997	19.994	100.195	20.075	4.568	0.470
138.000	142.124	79.998	19.996	100.204	20.080	4.148	0.465
140.000	143.105	79.996	19.995	100.191	20.079	4.208	0.471
142.000	144.081	79.999	19.997	100.199	20.083	3.890	0.462
144.000	145.095	79.996	19.995	100.190	20.081	4.043	0.497
146.000	146.109	79.998	19.995	100.191	20.081	4.075	0.508
148.000	147.087	79.997	19.996	100.199	20.076	4.475	0.494
150.000	148.073	79.998	19.997	100.194	20.077	4.336	0.487
152.000	149.100	79.996	19.996	100.178	20.078	4.252	0.522
154.000	150.101	79.999	19.996	100.117	20.077	4.345	0.499
156.000	151.081	79.996	19.998	100.230	20.083	3.853	0.508
158.000	152.059	79.997	19.997	100.256	20.082	3.967	0.519
160.000	153.063	79.998	19.996	100.183	20.080	4.085	0.500
162.000	154.071	79.998	19.997	100.178	20.082	3.996	0.486
164.000	155.115	80.000	19.997	100.182	20.083	3.922	0.526
166.000	156.081	79.997	19.994	100.174	20.079	4.243	0.497
168.000	157.138	79.996	19.994	100.171	20.081	4.049	0.522
170.000	158.138	79.999	19.997	100.173	20.076	4.427	0.500
172.000	159.157	79.996	19.997	100.174	20.077	4.384	0.506
174.000	160.202	79.995	19.997	100.170	20.079	4.187	0.494
176.000	161.207	79.997	19.997	100.171	20.082	3.982	0.508
178.000	162.228	79.996	19.997	100.172	20.088	3.479	0.512
180.000	163.244	79.998	19.996	100.170	20.086	3.670	0.519
182.000	164.281	79.994	19.997	100.159	20.084	3.804	0.526
184.000	165.261	79.996	19.997	100.165	20.087	3.564	0.459
186.000	166.293	79.996	19.997	100.167	20.086	3.657	0.500
188.000	167.331	79.995	19.996	100.166	20.084	3.840	0.523
190.000	168.335	79.997	19.997	100.153	20.089	3.432	0.495
192.000	169.341	79.996	19.997	100.152	20.093	3.081	0.485
194.001	170.371	79.996	19.996	100.162	20.085	3.714	0.503
196.000	171.389	79.995	19.996	100.158	20.084	3.763	0.511
198.000	172.376	79.996	19.998	100.169	20.089	3.406	0.498
200.000	173.383	79.995	19.997	100.158	20.088	3.475	0.487
202.000	174.372	79.994	19.996	100.140	20.084	3.761	0.485
204.000	175.365	79.995	19.998	100.155	20.089	3.392	0.497
206.000	176.373	79.995	19.999	100.077	20.090	3.322	0.453
208.000	177.413	79.995	19.997	100.137	20.089	3.434	0.495
210.000	178.377	79.996	19.998	100.220	20.090	3.347	0.495
212.001	179.403	79.993	19.998	100.152	20.093	3.105	0.493
214.001	180.436	79.996	19.997	100.149	20.089	3.387	0.525
216.000	181.389	79.997	19.997	100.130	20.092	3.147	0.488
218.000	182.420	79.999	19.997	100.126	20.087	3.527	0.513
220.000	183.439	79.998	19.997	100.133	20.087	3.529	0.501
222.000	184.404	79.996	19.995	100.137	20.091	3.267	0.498
224.000	185.414	79.997	19.997	100.134	20.089	3.427	0.516
226.000	186.451	79.996	19.996	100.132	20.088	3.512	0.526
228.000	187.415	79.997	19.996	100.134	20.090	3.307	0.482
230.000	188.453	79.995	19.995	100.137	20.086	3.612	0.527
232.000	189.425	79.995	19.995	100.134	20.092	3.167	0.504
234.000	190.389	79.997	19.996	100.132	20.091	3.207	0.477
236.000	191.364	79.996	19.996	100.129	20.089	3.382	0.491
238.000	192.311	79.996	19.995	100.131	20.089	3.427	0.449
240.000	193.314	79.997	19.996	100.133	20.089	3.387	0.485
242.000	194.281	79.998	19.996	100.132	20.096	2.807	0.478
244.000	195.236	79.997	19.995	100.128	20.092	3.191	0.478
246.000	196.182	79.998	19.997	100.119	20.098	2.704	0.482
248.000	197.178	79.999	19.996	100.125	20.092	3.178	0.480
250.000	198.130	79.997	19.995	100.127	20.094	2.988	0.454
252.000	199.126	79.997	19.995	100.130	20.097	2.715	0.488
254.000	200.070	79.997	19.996	100.130	20.092	3.129	0.471
256.000	201.053	79.994	19.996	100.131	20.097	2.724	0.483
258.000	202.068	79.996	19.996	100.127	20.095	2.938	0.512
260.000	203.015	79.996	19.997	100.122	20.095	2.913	0.476
262.000	203.993	79.995	19.996	100.113	20.092	3.173	0.495
264.000	204.959	79.996	19.997	100.130	20.093	3.089	0.502
266.000	205.896	79.997	19.997	100.117	20.100	2.511	0.507
268.000	206.909	79.996	19.997	100.121	20.097	2.753	0.471
270.000	207.916	79.995	19.997	100.122	20.095	2.889	0.485
272.000	208.882	79.996	19.997	100.128	20.094	2.993	0.501
274.000	209.879	79.995	19.996	100.130	20.092	3.133	0.512
276.000	210.830	79.997	19.999	100.130	20.095	2.891	0.489
278.000	211.810	79.995	19.996	100.124	20.092	3.142	0.485
280.000	212.777	79.996	19.996	100.129	20.090	3.335	0.479
282.000	213.771	79.996	19.996	100.119	20.094	3.017	0.478
284.000	214.763	79.996	19.997	100.123	20.096	2.868	0.486
286.000	215.734	79.995	19.997	100.122	20.099	2.546	0.499
288.000	216.681	79.993	19.997	100.116	20.096	2.839	0.476
290.000	217.702	79.993	19.997	100.115	20.100	2.475	0.506
292.000	218.647	79.996	19.996	100.099	20.101	2.450	0.481
294.001	219.615	79.995	19.997	100.107	20.099	2.595	0.485
296.000	220.618	79.996	19.997	100.115	20.099	2.546	0.492
298.000	221.617	79.997	19.997	100.121	20.100	2.532	0.502
300.000	222.582	79.996	19.997	100.108	20.104	2.196	0.490
302.000	223.547	79.998	19.996	100.113	20.098	2.677	0.434
304.000	224.547	79.998	19.998	100.112	20.095	2.879	0.502
306.000	225.579	79.997	19.996	100.107	20.100	2.543	0.547
308.000	226.515	79.997	19.996	100.100	20.102	2.348	0.491
310.000	227.542	79.997	19.996	100.099	20.098	2.692	0.517
312.000	228.523	79.998	19.997	100.093	20.106	2.005	0.540
314.000	229.505	79.999	19.997	100.092	20.105	2.130	0.508
316.000	230.508	79.998	19.996	100.093	20.103	2.283	0.516
318.000	231.509	79.997	19.995	100.092	20.099	2.557	0.509
320.000	232.474	79.999	19.996	100.093	20.102	2.316	0.503
322.000	233.442	79.999	19.997	100.096	20.102	2.314	0.462
324.000	234.419	79.998	19.997	100.092	20.105	2.119	0.516
326.000	235.406	79.998	19.998	100.096	20.104	2.150	0.495
328.000	236.421	79.999	19.996	100.098	20.106	2.021	0.512
330.000	237.401	79.999	19.998	100.095	20.108	1.890	0.491
332.000	238.369	79.999	19.997	100.092	20.108	1.881	0.480
334.000	239.338	79.997	19.997	100.092	20.109	1.774	0.458
336.000	240.359	79.997	19.996	100.091	20.111	1.647	0.528
338.000	241.364	79.996	19.995	100.094	20.103	2.221	0.512
340.000	242.355	79.997	19.996	100.102	20.104	2.154	0.499
342.000	243.322	79.997	19.996	100.098	20.111	1.641	0.484
344.000	244.296	79.998	19.997	100.098	20.108	1.879	0.478
346.000	245.304	79.996	19.997	100.104	20.111	1.583	0.495
348.000	246.262	79.998	19.997	100.097	20.107	1.965	0.510
350.000	247.238	79.997	19.997	100.096	20.106	2.041	0.490
352.000	248.200	79.995	19.997	100.095	20.111	1.634	0.520
354.000	249.195	79.996	19.996	100.094	20.113	1.421	0.466
356.000	250.213	79.997	19.999	100.094	20.109	1.743	0.506
358.000	251.173	79.997	19.996	100.094	20.108	1.818	0.471
360.000	252.180	79.995	19.996	100.095	20.113	1.474	0.483
362.000	253.117	79.996	19.996	100.095	20.112	1.541	0.466
364.000	254.114	79.995	19.996	100.096	20.117	1.100	0.470
366.000	255.118	79.996	19.998	100.094	20.111	1.612	0.490
368.000	256.104	79.996	19.997	100.094	20.115	1.287	0.493
370.000	257.053	79.997	19.997	100.093	20.109	1.803	0.479
372.000	258.031	79.996	19.995	100.091	20.109	1.747	0.496
374.000	258.998	79.998	19.998	100.088	20.112	1.514	0.469
376.000	260.014	79.997	19.997	100.086	20.115	1.283	0.495
378.000	260.966	79.997	19.996	100.089	20.113	1.432	0.452
380.000	261.984	79.998	19.997	100.091	20.116	1.192	0.476
382.000	262.949	79.997	19.997	100.089	20.112	1.532	0.462
384.000	263.928	79.998	19.998	100.089	20.115	1.272	0.446
386.000	264.974	79.997	19.998	100.090	20.115	1.294	0.524
388.000	265.955	79.996	19.997	100.088	20.112	1.503	0.499
390.000	266.950	79.998	19.997	100.089	20.110	1.656	0.496
392.000	267.943	79.997	19.996	100.091	20.110	1.718	0.483
394.000	268.918	79.998	19.997	100.090	20.112	1.560	0.510
396.000	269.906	79.998	19.995	100.091	20.113	1.438	0.481
398.000	270.907	79.999	19.997	100.086	20.113	1.420	0.477
400.000	271.933	79.999	19.996	100.084	20.109	1.754	0.490
402.000	272.941	79.999	19.996	100.090	20.109	1.811	0.485
404.000	273.942	79.998	19.996	100.077	20.113	1.463	0.475
406.000	274.975	79.998	19.996	100.089	20.109	1.778	0.548
408.000	275.964	79.998	19.996	100.082	20.109	1.765	0.537
410.000	276.971	79.997	19.997	100.085	20.108	1.874	0.485
412.000	277.901	79.997	19.997	100.077	20.111	1.620	0.439
414.000	278.954	79.996	19.995	100.080	20.113	1.487	0.505
416.000	279.996	79.996	19.996	100.091	20.110	1.683	0.509
418.000	280.968	79.995	19.995	100.079	20.110	1.716	0.475
420.000	281.890	79.997	19.997	100.078	20.110	1.731	0.480
422.000	282.988	79.997	19.996	100.084	20.109	1.789	0.529
424.000	283.946	79.995	19.994	100.077	20.109	1.782	0.478
426.000	284.958	79.996	19.996	100.086	20.111	1.640	0.505
428.000	285.957	79.997	19.996	100.077	20.109	1.754	0.491
430.000	286.949	79.996	19.995	100.081	20.114	1.403	0.496
432.000	287.940	79.997	19.997	100.068	20.111	1.638	0.503
434.000	288.930	79.997	19.997	100.066	20.111	1.605	0.488
436.000	289.964	79.995	19.996	100.075	20.114	1.340	0.506
438.000	290.992	79.995	19.997	100.084	20.111	1.645	0.529
440.000	292.045	79.997	19.998	100.089	20.111	1.592	0.508
442.000	292.999	79.996	19.998	100.086	20.116	1.247	0.476
444.000	293.984	79.996	19.998	100.087	20.108	1.885	0.467
446.000	295.053	79.995	19.997	100.083	20.115	1.325	0.521
448.000	296.078	79.994	19.997	100.079	20.113	1.427	0.517
450.000	297.052	79.997	19.997	100.084	20.109	1.814	0.519
452.000	298.095	79.997	19.997	100.087	20.112	1.567	0.536
454.000	299.071	79.999	19.997	100.077	20.114	1.360	0.500
456.000	300.079	79.997	19.996	100.068	20.111	1.632	0.513
458.000	301.100	79.998	19.997	100.064	20.111	1.587	0.516
460.000	302.149	79.998	19.998	100.088	20.117	1.149	0.524
462.000	303.136	79.998	19.997	100.080	20.114	1.385	0.532
464.000	304.134	79.996	19.997	100.069	20.116	1.178	0.523
466.000	305.120	79.996	19.996	100.077	20.120	0.891	0.521
468.000	306.125	79.997	19.997	100.075	20.112	1.509	0.524
470.000	307.110	79.996	19.998	100.073	20.119	1.007	0.501
472.000	308.142	79.995	19.997	100.074	20.112	1.500	0.496
474.000	309.179	79.998	19.997	100.070	20.121	0.776	0.493
476.000	310.171	79.997	19.996	100.062	20.116	1.245	0.487
478.001	311.183	79.997	19.997	100.052	20.119	0.987	0.489
480.000	312.228	79.998	19.997	100.063	20.121	0.776	0.509
482.000	313.245	79.999	19.997	100.062	20.122	0.762	0.506
484.000	314.216	79.997	19.996	100.072	20.122	0.685	0.476
486.001	315.221	79.997	19.996	100.065	20.121	0.771	0.486
488.000	316.230	79.998	19.996	100.068	20.118	1.042	0.492
490.000	317.260	79.997	19.996	100.070	20.119	1.007	0.493
492.000	318.256	79.997	19.996	100.079	20.118	1.056	0.523
494.000	319.297	79.996	19.996	100.077	20.116	1.245	0.508
496.000	320.278	79.996	19.998	100.060	20.114	1.345	0.507
498.000	321.266	79.995	19.996	100.058	20.110	1.656	0.455
500.000	322.301	79.996	19.997	100.065	20.111	1.607	0.500
502.000	323.259	79.997	19.997	100.073	20.115	1.314	0.496
504.000	324.241	79.997	19.996	100.080	20.121	0.811	0.525
506.000	325.222	79.996	19.994	100.071	20.110	1.698	0.460
508.000	326.257	79.997	19.997	100.074	20.113	1.476	0.531
510.000	327.340	79.998	19.997	100.085	20.117	1.120	0.516
512.000	328.238	79.997	19.997	100.089	20.115	1.269	0.447
514.000	329.297	79.997	19.996	100.084	20.113	1.436	0.552
516.000	330.358	79.996	19.996	100.064	20.112	1.554	0.420
518.000	331.407	79.995	19.995	100.080	20.109	1.760	0.569
520.000	332.476	79.997	19.996	100.081	20.115	1.311	0.742
522.000	333.503	79.995	19.996	100.082	20.113	1.449	0.690
524.000	334.749	79.996	19.997	100.069	20.113	1.414	0.393
526.000	335.685	79.996	19.997	100.062	20.114	1.398	0.599
528.000	336.677	79.996	19.997	100.073	20.116	1.231	0.517
530.000	337.685	79.996	19.997	100.073	20.114	1.380	0.534
532.000	338.782	79.997	19.997	100.064	20.114	1.393	0.463
534.000	339.906	79.998	19.997	100.078	20.115	1.311	0.516
536.000	340.956	79.998	19.997	100.070	20.116	1.169	0.536
538.000	341.991	79.998	19.997	100.058	20.115	1.320	0.545
540.000	343.058	79.998	19.997	100.057	20.118	1.009	0.505
542.000	344.125	79.997	19.997	100.061	20.115	1.302	0.557
544.000	345.184	79.996	19.997	100.059	20.118	1.054	0.526
546.000	346.272	79.996	19.998	100.058	20.114	1.364	0.567
548.000	347.297	79.996	19.997	100.074	20.116	1.229	0.514
550.000	348.367	79.997	19.998	100.071	20.116	1.204	0.543
552.000	349.450	79.996	19.997	100.064	20.120	0.864	0.533
554.000	350.503	79.997	19.997	100.072	20.118	1.020	0.571
556.000	351.533	79.996	19.996	100.061	20.116	1.220	0.534
558.000	352.590	79.997	19.997	100.058	20.113	1.427	0.510
560.000	353.676	79.997	19.998	100.063	20.112	1.496	0.540
562.000	354.751	79.997	19.997	100.054	20.113	1.447	0.538
564.000	355.758	79.997	19.998	100.054	20.114	1.358	0.493
566.000	356.803	79.997	19.997	100.055	20.111	1.580	0.510
568.000	357.898	79.997	19.996	100.053	20.106	2.020	0.540
570.000	358.870	79.996	19.996	100.054	20.110	1.667	0.500
572.000	359.898	79.995	19.995	100.057	20.108	1.889	0.526
574.000	360.885	79.997	19.997	100.057	20.108	1.887	0.514
576.000	361.945	79.997	19.998	100.059	20.105	2.076	0.525
578.000	362.991	79.996	19.996	100.059	20.104	2.169	0.512
580.000	363.930	79.996	19.996	100.056	20.101	2.389	0.476
582.000	364.946	79.997	19.997	100.054	20.100	2.542	0.495
584.000	365.959	79.994	19.996	100.050	20.095	2.900	0.510
586.000	366.985	79.997	19.997	100.065	20.097	2.727	0.503
588.000	367.974	79.996	19.997	100.054	20.094	2.978	0.500
590.000	368.949	79.996	19.996	100.055	20.091	3.232	0.468
592.000	369.973	79.997	19.997	100.054	20.090	3.343	0.516
594.000	370.942	79.996	19.996	100.063	20.088	3.437	0.479
596.000	371.981	79.997	19.997	100.079	20.083	3.841	0.535
598.000	372.971	79.995	19.997	100.066	20.081	4.063	0.484
600.000	373.979	79.995	19.996	100.073	20.075	4.544	0.524
602.000	374.989	79.996	19.996	100.072	20.076	4.426	0.495
604.000	376.045	79.996	19.997	100.083	20.072	4.797	0.533
606.000	377.049	79.995	19.996	100.085	20.062	5.555	0.508
608.000	378.087	79.994	19.996	100.072	20.061	5.662	0.517
610.000	379.044	79.997	19.997	100.069	20.060	5.771	0.503
612.000	380.105	79.996	19.997	100.092	20.055	6.109	0.536
614.000	381.104	79.998	19.997	100.093	20.048	6.747	0.485
616.000	382.152	79.996	19.996	100.082	20.040	7.323	0.522
618.000	383.163	79.996	19.998	100.089	20.032	7.965	0.487
620.000	384.194	79.995	19.997	100.090	20.028	8.324	0.508
622.000	385.202	79.998	19.997	100.087	20.022	8.848	0.509
624.000	386.217	79.995	19.997	100.091	20.011	9.695	0.498
626.000	387.240	79.996	19.996	100.094	20.005	10.219	0.488
628.000	388.269	79.997	19.996	100.094	19.989	11.470	0.512
630.000	389.308	79.997	19.997	100.093	19.980	12.222	0.553
632.000	390.329	79.998	19.997	100.101	19.967	13.255	0.517
634.000	391.324	79.998	19.997	100.053	19.953	14.363	0.501
636.000	392.362	79.997	19.997	100.084	19.935	15.866	0.509
638.000	393.366	79.997	19.997	100.187	19.927	16.519	0.510
640.000	394.448	79.999	19.997	100.129	19.903	18.449	0.507
642.000	395.457	79.997	19.998	100.131	19.882	20.143	0.530
644.000	396.454	79.997	19.997	100.140	19.865	21.511	0.513
646.000	397.491	79.997	19.997	100.149	19.838	23.689	0.513
648.000	398.526	79.994	19.998	100.145	19.816	25.541	0.510
650.000	399.599	79.996	19.997	100.157	19.791	27.525	0.535
652.000	400.610	79.994	19.999	100.168	19.768	29.426	0.542
654.000	401.653	79.994	19.997	100.171	19.742	31.471	0.522
656.000	402.742	79.997	19.997	100.184	19.717	33.498	0.537
658.000	403.741	79.997	19.996	100.189	19.705	34.517	0.522
660.000	404.793	79.996	19.997	100.200	19.676	36.903	0.513
662.000	405.799	79.995	19.995	100.195	19.665	37.799	0.520
664.000	406.849	79.996	19.996	100.204	19.640	39.793	0.507
666.000	407.925	79.996	19.997	100.224	19.618	41.510	0.515
668.000	408.960	79.996	19.996	100.240	19.589	43.825	0.524
670.000	410.030	79.995	19.996	100.246	19.534	48.433	0.557
672.000	411.118	79.995	19.996	100.282	19.489	52.066	0.529
674.000	412.142	79.994	19.996	100.267	19.464	54.095	0.505
676.000	413.232	79.995	19.996	100.248	19.446	55.525	0.556
678.000	414.240	79.994	19.998	100.097	19.422	57.458	0.498
680.000	415.295	79.994	19.995	100.265	19.397	59.521	0.497
682.000	416.313	79.995	19.997	100.357	19.376	61.244	0.509
684.000	417.310	79.996	19.997	100.363	19.339	64.286	0.495
686.000	418.337	79.996	19.996	100.358	19.304	67.118	0.499
688.000	419.396	79.996	19.996	100.342	19.265	70.251	0.504
690.000	420.428	79.997	19.996	100.352	19.224	73.613	0.525
692.000	421.431	79.999	19.997	100.377	19.175	77.593	0.501
694.000	422.439	80.000	19.996	100.394	19.119	82.215	0.479
696.000	423.413	79.997	19.996	100.411	19.069	86.236	0.493
698.000	424.448	79.998	19.996	100.413	19.011	91.032	0.522
700.000	425.396	79.997	19.997	100.442	18.944	96.458	0.494
702.000	426.425	79.996	19.996	100.459	18.890	100.891	0.504
704.000	427.465	79.996	19.996	100.469	18.824	106.240	0.517
706.000	428.447	79.996	19.997	100.478	18.760	111.408	0.501
708.000	429.426	79.995	19.997	100.492	18.700	116.367	0.491
710.000	430.408	79.997	19.996	100.540	18.639	121.396	0.479
712.000	431.407	79.998	19.998	100.540	18.589	125.485	0.463
714.000	432.384	79.998	19.996	100.557	18.542	129.307	0.479
716.000	433.424	79.997	19.997	100.561	18.499	132.803	0.517
718.000	434.420	79.999	19.995	100.575	18.455	136.356	0.517
720.000	435.368	79.996	19.996	100.634	18.404	140.528	0.452
722.000	436.408	79.997	19.996	100.655	18.361	144.091	0.533
724.000	437.369	79.996	19.997	100.664	18.314	147.918	0.491
726.000	438.348	79.994	19.996	100.672	18.270	151.463	0.490
728.000	439.364	79.995	19.997	100.684	18.237	154.163	0.507
730.000	440.342	79.994	19.998	100.682	18.203	156.985	0.466
732.000	441.333	79.994	19.996	100.694	18.178	159.044	0.497
734.000	442.272	79.994	19.997	100.706	18.150	161.235	0.441
736.000	443.336	79.995	19.997	100.713	18.128	163.031	0.526
738.000	444.272	79.994	19.996	100.721	18.117	163.989	0.481
740.000	445.283	79.994	19.997	100.725	18.114	164.162	0.495
742.000	446.264	79.996	19.998	100.734	18.114	164.170	0.484
744.000	447.274	79.995	19.997	100.726	18.119	163.762	0.518
746.000	448.267	79.997	19.996	100.721	18.139	162.137	0.507
748.000	449.267	79.997	19.996	100.724	18.158	160.546	0.483
750.000	450.225	79.996	19.997	100.717	18.185	158.268	0.497
752.000	451.221	79.996	19.996	100.710	18.224	155.076	0.498
754.001	452.253	79.996	19.995	100.701	18.268	151.496	0.516
756.000	453.204	79.996	19.996	100.691	18.315	147.618	0.503
758.000	454.203	79.993	19.997	100.678	18.362	143.795	0.457
760.000	455.209	79.995	19.998	100.659	18.422	138.889	0.523
762.000	456.193	79.995	19.996	100.637	18.482	133.942	0.480
764.000	457.168	79.996	19.997	100.617	18.547	128.612	0.491
766.000	458.215	79.997	19.996	100.579	18.620	122.732	0.514
768.000	459.220	79.997	19.995	100.560	18.709	115.490	0.550
770.000	460.163	79.997	19.997	100.540	18.807	107.504	0.478
772.000	461.159	79.997	19.995	100.519	18.901	99.816	0.479
774.000	462.171	79.998	19.995	100.495	18.998	91.927	0.496
776.000	463.125	79.998	19.996	100.480	19.093	84.158	0.473
778.000	464.133	79.998	19.996	100.466	19.182	76.972	0.469
780.000	465.152	79.998	19.996	100.446	19.271	69.724	0.481
782.000	466.166	79.998	19.996	100.432	19.347	63.537	0.516
784.000	467.189	79.997	19.995	100.403	19.422	57.434	0.537
786.001	468.198	79.998	19.996	100.371	19.485	52.347	0.532
788.000	469.202	79.998	19.997	100.343	19.547	47.296	0.487
790.000	470.250	79.996	19.997	100.318	19.601	42.926	0.504
792.000	471.274	79.997	19.997	100.299	19.649	39.003	0.530
794.000	472.273	79.998	19.996	100.275	19.696	35.181	0.547
796.000	473.265	79.999	19.997	100.252	19.736	31.993	0.508
798.000	474.319	79.998	19.996	100.242	19.772	29.076	0.515
800.000	475.320	79.997	19.996	100.214	19.802	26.665	0.491
802.000	476.389	79.997	19.996	100.208	19.833	24.088	0.532
804.000	477.351	79.996	19.997	100.199	19.862	21.805	0.472
806.000	478.365	79.994	19.996	100.176	19.892	19.374	0.492
808.000	479.403	79.997	19.997	100.174	19.913	17.640	0.518
810.000	480.423	79.997	19.996	100.163	19.930	16.232	0.551
812.000	481.418	79.995	19.996	100.146	19.955	14.218	0.463
814.000	482.420	79.995	19.998	100.141	19.970	12.994	0.501
816.000	483.437	79.996	19.998	100.129	19.988	11.564	0.522
818.000	484.386	79.995	19.999	100.123	20.001	10.550	0.470
820.000	485.471	79.995	19.998	100.108	20.015	9.370	0.498
822.000	486.469	79.997	19.998	100.119	20.026	8.523	0.540
824.000	487.465	79.996	19.998	100.093	20.034	7.816	0.539
826.000	488.507	79.995	19.997	100.094	20.044	7.017	0.499
828.000	489.533	79.996	19.997	100.092	20.056	6.043	0.493
830.000	490.598	79.995	19.998	100.086	20.063	5.485	0.509
832.000	491.584	79.996	20.000	100.089	20.071	4.860	0.472
834.000	492.587	79.996	19.998	100.088	20.077	4.385	0.513
836.000	493.604	79.996	19.997	100.084	20.079	4.187	0.495
838.000	494.654	79.995	19.998	100.064	20.088	3.465	0.524
840.001	495.688	79.994	19.997	100.065	20.097	2.778	0.517
842.000	496.711	79.994	19.997	100.062	20.097	2.762	0.513
844.000	497.760	79.995	19.996	100.061	20.102	2.351	0.518
846.000	498.811	79.996	19.996	100.056	20.104	2.167	0.540
848.000	499.810	79.996	19.997	100.059	20.105	2.105	0.488
850.000	500.769	79.996	19.998	100.056	20.109	1.739	0.516
852.000	501.831	79.998	19.996	100.053	20.113	1.469	0.512
854.000	502.898	79.996	19.998	100.053	20.109	1.740	0.532
856.001	503.879	79.997	19.997	100.025	20.113	1.420	0.483
858.000	504.940	79.996	19.997	99.975	20.117	1.156	0.530
860.000	505.937	79.996	19.996	100.125	20.120	0.913	0.522
862.000	506.983	79.996	19.996	100.060	20.118	1.087	0.520
864.000	508.001	79.996	19.996	100.052	20.119	0.995	0.534
866.000	509.004	79.996	19.995	100.055	20.124	0.544	0.514
868.000	510.045	79.996	19.996	100.056	20.124	0.573	0.513
870.000	511.069	79.998	19.998	100.056	20.121	0.844	0.502
872.000	512.080	79.999	19.996	100.056	20.123	0.633	0.512
874.000	513.071	79.997	19.997	100.042	20.125	0.478	0.487
876.000	514.092	79.998	19.997	100.053	20.123	0.616	0.527
878.000	515.134	79.997	19.997	100.044	20.126	0.393	0.512
880.000	516.237	79.998	19.997	100.037	20.124	0.600	0.501
882.000	517.266	79.996	19.998	100.046	20.127	0.282	0.535
884.000	518.249	79.997	19.997	100.041	20.126	0.373	0.493
886.000	519.342	79.997	19.997	100.047	20.122	0.709	0.533
888.000	520.395	79.997	19.998	100.049	20.121	0.798	0.525
890.000	521.404	79.994	19.997	100.050	20.125	0.507	0.507
892.000	522.378	79.996	19.997	100.047	20.123	0.622	0.498
894.000	523.461	79.997	19.997	100.049	20.125	0.518	0.532
896.000	524.481	79.996	19.998	100.046	20.122	0.713	0.526
898.000	525.517	79.996	19.997	100.046	20.128	0.233	0.539
900.000	526.494	79.994	19.996	100.049	20.127	0.291	0.501
902.000	527.523	79.996	19.997	100.039	20.129	0.151	0.515
904.000	528.584	79.995	19.998	100.026	20.128	0.231	0.546
906.000	529.603	79.995	19.998	100.032	20.130	0.116	0.537
908.000	530.623	79.996	19.998	100.040	20.124	0.576	0.518
910.000	531.642	79.995	19.998	100.043	20.129	0.147	0.510
912.000	532.719	79.995	19.997	100.049	20.125	0.504	0.520
914.000	533.789	79.995	19.997	100.045	20.126	0.424	0.523
916.000	534.846	79.995	19.997	100.050	20.126	0.404	0.520
918.000	535.862	79.995	19.997	100.051	20.129	0.162	0.484
920.000	536.935	79.995	19.996	100.052	20.128	0.225	0.527
922.000	537.965	79.996	19.995	100.046	20.128	0.256	0.530
924.000	539.015	79.995	19.996	100.051	20.127	0.336	0.535
926.000	540.075	79.996	19.995	100.028	20.123	0.653	0.547
928.000	541.077	79.997	19.996	99.960	20.126	0.367	0.513
930.000	542.121	79.997	19.996	100.096	20.128	0.211	0.501
932.000	543.106	79.997	19.996	100.055	20.129	0.131	0.483
934.001	544.152	79.997	19.997	100.046	20.126	0.418	0.543
936.000	545.177	79.997	19.996	100.047	20.130	0.104	0.526
938.000	546.181	79.996	19.996	100.047	20.128	0.249	0.526
940.000	547.195	79.997	19.997	100.048	20.131	0.033	0.526
942.000	548.246	79.998	19.997	100.045	20.130	0.109	0.551
944.000	549.303	79.999	19.996	100.038	20.128	0.278	0.508
946.000	550.301	79.997	19.996	100.040	20.126	0.371	0.521
948.000	551.304	79.998	19.996	100.028	20.127	0.307	0.488
950.000	552.325	79.999	19.996	100.037	20.128	0.238	0.501
952.000	553.360	79.999	19.996	100.045	20.130	0.060	0.521
954.000	554.371	80.000	19.996	100.029	20.131	0.027	0.506
956.000	555.460	80.000	19.995	100.039	20.128	0.231	0.548
958.000	556.424	79.999	19.997	100.047	20.128	0.251	0.460
960.000	557.503	79.999	19.997	100.043	20.128	0.267	0.513
962.000	558.528	79.996	19.997	100.038	20.127	0.329	0.494
964.000	559.564	79.997	19.997	100.038	20.130	0.064	0.520
966.000	560.567	79.995	19.998	100.046	20.128	0.249	0.492
968.000	561.619	79.996	19.997	100.036	20.126	0.411	0.533
970.000	562.646	79.995	19.997	100.040	20.127	0.331	0.523
972.000	563.663	79.997	19.997	100.037	20.127	0.331	0.540
974.000	564.686	79.996	19.997	100.049	20.125	0.442	0.523
976.000	565.704	79.997	19.997	99.968	20.124	0.574	0.537
978.000	566.721	79.995	19.997	100.005	20.129	0.127	0.502
980.000	567.692	79.996	19.997	100.109	20.128	0.262	0.500
982.000	568.715	79.996	19.997	100.060	20.125	0.453	0.505
984.000	569.735	79.996	19.996	99.975	20.126	0.382	0.500
986.000	570.751	79.995	19.996	100.089	20.133	-0.147	0.529
988.000	571.846	79.995	19.996	100.098	20.129	0.189	0.533
990.000	572.841	79.994	19.997	100.050	20.127	0.338	0.502
992.000	573.897	79.994	19.998	100.044	20.130	0.058	0.524
994.000	574.951	79.994	19.998	100.040	20.126	0.391	0.522
996.000	575.990	79.995	19.998	100.040	20.126	0.418	0.498
998.000	576.975	79.995	19.998	100.048	20.127	0.333	0.498
1000.000	578.019	79.996	19.997	100.046	20.123	0.662	0.512
1002.000	579.036	79.995	19.997	100.047	20.128	0.244	0.526
1004.000	580.028	79.997	19.997	100.026	20.124	0.560	0.498
1006.000	581.015	79.997	19.996	100.030	20.127	0.344	0.486
1008.000	582.024	79.998	19.997	100.023	20.129	0.129	0.483
1010.000	583.060	79.998	19.995	100.032	20.126	0.420	0.525
1012.000	583.995	79.998	19.995	100.040	20.130	0.089	0.467
1014.000	585.062	79.997	19.997	100.047	20.127	0.329	0.512
1016.000	586.032	79.997	19.996	100.027	20.128	0.204	0.482
1018.000	587.069	79.997	19.997	100.024	20.128	0.242	0.508
1020.000	588.055	79.997	19.997	100.042	20.126	0.393	0.484
1022.001	589.097	79.996	19.996	100.031	20.127	0.340	0.502
1024.001	590.103	79.997	19.996	100.040	20.127	0.331	0.485
1026.000	591.166	79.997	19.996	100.039	20.126	0.440	0.520
1028.000	592.177	79.997	19.996	100.047	20.127	0.324	0.489
1030.000	593.208	79.997	19.996	100.044	20.130	0.113	0.522
1032.000	594.280	80.002	19.996	100.045	20.132	-0.091	0.525
1034.000	595.311	79.999	19.995	100.042	20.130	0.116	0.520
1036.000	596.353	79.998	19.995	100.027	20.123	0.626	0.530
1038.000	597.391	79.999	19.996	100.031	20.128	0.271	0.519
1040.000	598.405	79.997	19.996	100.047	20.126	0.380	0.523
1042.000	599.480	79.997	19.997	100.046	20.129	0.127	0.557
1044.000	600.474	79.996	19.996	100.034	20.125	0.462	0.514
1046.000	601.533	79.998	19.997	99.997	20.123	0.658	0.535
1048.000	602.565	79.996	19.995	99.967	20.130	0.071	0.522
1050.000	603.587	79.996	19.996	100.108	20.129	0.136	0.517
1052.000	604.643	79.995	19.997	100.046	20.126	0.431	0.495
1054.000	605.661	79.996	19.997	100.045	20.127	0.289	0.556
1056.001	606.645	79.997	19.997	100.035	20.129	0.153	0.509
1058.000	607.667	79.996	19.997	100.047	20.127	0.344	0.505
1060.000	608.676	79.997	19.996	100.035	20.123	0.651	0.486
1062.000	609.754	79.996	19.997	100.034	20.128	0.235	0.533
1064.000	610.750	79.996	19.998	100.022	20.122	0.700	0.520
1066.000	611.750	79.995	19.995	100.040	20.125	0.495	0.485
1068.000	612.779	79.996	19.998	100.025	20.127	0.342	0.509
1070.000	613.766	79.995	19.996	100.026	20.123	0.667	0.511
1072.001	614.770	79.994	19.998	100.029	20.122	0.738	0.487
1074.000	615.780	79.995	19.997	100.028	20.127	0.313	0.498
1076.000	616.793	79.993	19.996	100.021	20.124	0.569	0.509
1078.000	617.829	79.994	19.998	100.025	20.126	0.382	0.522
1080.000	618.862	79.995	19.998	100.045	20.124	0.580	0.524
1082.001	619.906	79.996	19.997	100.046	20.122	0.695	0.517
1084.000	620.910	79.996	19.997	100.049	20.125	0.453	0.493
1086.000	621.954	79.996	19.998	100.045	20.129	0.149	0.514
1088.000	623.028	79.997	19.997	100.032	20.126	0.369	0.528
1090.000	624.013	79.996	19.997	100.038	20.125	0.504	0.516
1092.000	625.107	79.997	19.997	100.042	20.123	0.627	0.535
1094.000	626.157	79.998	19.995	100.037	20.125	0.504	0.532
1096.000	627.165	79.996	19.997	100.046	20.123	0.651	0.499
1098.000	628.245	79.996	19.996	100.047	20.126	0.389	0.531
1100.000	629.330	79.996	19.996	100.052	20.123	0.613	0.525
1102.000	630.335	79.997	19.996	100.047	20.127	0.342	0.506
1104.000	631.410	79.997	19.996	100.050	20.124	0.571	0.515
1106.000	632.434	79.997	19.997	100.042	20.126	0.389	0.515
1108.000	633.494	79.997	19.996	100.036	20.123	0.653	0.509
1110.000	634.519	79.998	19.997	100.041	20.128	0.256	0.517
1112.000	635.569	79.997	19.995	100.034	20.124	0.527	0.514
1114.000	636.642	79.999	19.996	100.020	20.128	0.267	0.525
1116.000	637.667	79.998	19.996	100.025	20.128	0.256	0.521
1118.001	638.740	79.997	19.996	100.033	20.126	0.400	0.518
1120.000	639.758	79.995	19.994	100.041	20.130	0.078	0.496
1122.000	640.795	79.997	19.998	100.051	20.129	0.131	0.510
1124.000	641.810	79.996	19.996	100.042	20.130	0.082	0.508
1126.000	642.854	79.995	19.997	100.045	20.129	0.140	0.517
1128.000	643.883	79.997	19.996	100.048	20.133	-0.189	0.513
1130.000	644.887	79.995	19.996	100.038	20.132	-0.051	0.501
1132.001	645.894	79.997	19.996	100.027	20.132	-0.120	0.516
1134.000	646.896	79.995	19.996	100.036	20.135	-0.320	0.516
1136.000	647.893	79.996	19.996	100.039	20.134	-0.220	0.499
1138.000	648.884	79.997	19.997	100.031	20.135	-0.349	0.493
1140.000	649.906	79.996	19.996	100.020	20.134	-0.238	0.534
1142.000	650.905	79.995	19.996	100.045	20.136	-0.400	0.508
1144.000	651.915	79.996	19.997	100.038	20.138	-0.551	0.526
1146.000	652.905	79.996	19.997	100.030	20.132	-0.124	0.541
1148.000	653.918	79.995	19.998	100.034	20.134	-0.282	0.505
1150.000	654.899	79.996	19.998	100.042	20.135	-0.289	0.537
1152.000	655.916	79.997	19.996	100.030	20.135	-0.335	0.526
1154.000	656.916	79.996	19.997	100.022	20.134	-0.249	0.492
1156.000	657.941	79.996	19.997	100.036	20.138	-0.569	0.506
1158.000	658.933	79.994	19.997	100.040	20.131	-0.040	0.517
1160.001	659.927	79.996	19.997	100.042	20.135	-0.320	0.503
1162.000	660.946	79.995	19.997	100.030	20.131	0.033	0.507
1164.000	661.969	79.996	19.997	100.021	20.135	-0.309	0.511
1166.000	662.965	79.996	19.997	100.038	20.133	-0.131	0.482
1168.000	663.941	79.997	19.998	99.961	20.136	-0.438	0.512
1170.000	664.986	79.995	19.997	100.073	20.136	-0.440	0.513
1172.000	665.950	79.997	19.997	100.091	20.141	-0.778	0.487
1174.001	666.985	79.997	19.996	100.043	20.139	-0.631	0.531
1176.000	667.972	79.996	19.997	100.036	20.140	-0.762	0.491
1178.000	668.991	79.996	19.996	100.025	20.142	-0.862	0.486
1180.000	670.001	79.997	19.996	100.037	20.140	-0.707	0.484
1182.000	671.035	79.995	19.996	100.043	20.136	-0.402	0.540
1184.000	672.046	79.998	19.997	100.038	20.138	-0.584	0.487
1186.000	673.106	79.998	19.996	100.031	20.138	-0.589	0.557
1188.000	674.082	79.997	19.995	100.025	20.136	-0.438	0.491
1190.000	675.143	79.999	19.995	100.041	20.142	-0.873	0.521
1192.000	676.140	79.998	19.995	100.033	20.142	-0.858	0.478
1194.000	677.151	79.998	19.996	100.025	20.141	-0.815	0.511
1196.000	678.151	79.997	19.997	100.028	20.141	-0.773	0.522
1198.000	679.128	79.996	19.996	100.013	20.142	-0.904	0.494
1200.000	680.156	79.996	19.997	100.017	20.144	-1.035	0.523
1202.000	681.134	79.996	19.997	100.029	20.141	-0.784	0.496
1204.000	682.192	79.996	19.996	100.022	20.138	-0.573	0.530
1206.000	683.212	79.997	19.997	100.030	20.139	-0.669	0.517
1208.000	684.266	79.996	19.997	100.020	20.142	-0.880	0.539
1210.000	685.281	79.996	19.997	100.030	20.144	-1.049	0.533
1212.000	686.317	79.997	19.996	100.029	20.144	-1.044	0.566
1214.000	687.362	79.998	19.997	100.032	20.144	-1.084	0.530
1216.000	688.372	79.996	19.997	100.030	20.141	-0.849	0.518
1218.000	689.367	79.996	19.997	100.028	20.143	-0.946	0.517
1220.001	690.411	79.996	19.996	100.030	20.142	-0.882	0.518
1222.000	691.468	79.996	19.996	100.032	20.146	-1.200	0.507
1224.000	692.537	79.996	19.997	100.018	20.140	-0.702	0.530
1226.000	693.544	79.996	19.996	100.025	20.139	-0.678	0.491
1228.000	694.629	79.994	19.996	100.038	20.145	-1.113	0.527
1230.000	695.624	79.993	19.997	100.038	20.141	-0.800	0.511
1232.000	696.710	79.994	19.996	100.023	20.143	-1.002	0.519
1234.000	697.743	79.993	19.996	100.020	20.140	-0.755	0.535
1236.000	698.781	79.994	19.997	100.021	20.141	-0.775	0.495
1238.000	699.736	79.995	19.996	100.019	20.144	-1.055	0.499
1240.000	700.757	79.996	19.996	100.024	20.141	-0.829	0.514
1242.000	701.792	79.996	19.996	100.029	20.142	-0.871	0.521
1244.000	702.801	79.997	19.996	100.031	20.141	-0.782	0.493
1246.000	703.868	79.997	19.995	100.036	20.137	-0.453	0.530
1248.000	704.832	79.998	19.997	100.017	20.137	-0.520	0.476
1250.000	705.911	79.996	19.996	100.026	20.137	-0.498	0.522
1252.000	706.957	79.996	19.996	100.035	20.134	-0.233	0.506
1254.000	707.947	79.995	19.998	100.042	20.138	-0.587	0.485
1256.000	709.047	79.996	19.997	100.040	20.135	-0.367	0.551
1258.001	710.059	79.998	19.998	100.018	20.135	-0.309	0.493
1260.000	711.071	79.996	19.998	100.028	20.138	-0.553	0.523
1262.000	712.125	79.997	19.999	100.023	20.137	-0.480	0.516
1264.000	713.134	79.997	19.996	100.029	20.138	-0.542	0.500
1266.000	714.208	79.997	19.997	100.024	20.136	-0.447	0.559
1268.000	715.229	79.999	19.996	100.026	20.139	-0.653	0.537
1270.000	716.230	79.998	19.996	100.017	20.137	-0.509	0.482
1272.000	717.299	79.998	19.997	100.026	20.141	-0.811	0.507
1274.000	718.309	79.997	19.995	100.023	20.139	-0.658	0.521
1276.000	719.349	79.996	19.996	100.019	20.137	-0.522	0.489
1278.001	720.313	79.997	19.995	100.018	20.137	-0.453	0.488
1280.000	721.366	79.995	19.997	100.024	20.140	-0.713	0.494
1282.000	722.383	79.996	19.997	100.033	20.140	-0.713	0.517
1284.000	723.342	79.995	19.996	100.023	20.141	-0.793	0.512
1286.001	724.352	79.996	19.996	100.036	20.141	-0.826	0.497
1288.000	725.307	79.996	19.996	100.030	20.138	-0.535	0.511
1290.001	726.312	79.995	19.997	100.033	20.136	-0.382	0.506
1292.001	727.328	79.995	19.996	100.027	20.136	-0.449	0.514
1294.000	728.315	79.997	19.997	100.035	20.138	-0.600	0.515
1296.000	729.305	79.995	19.996	100.034	20.138	-0.569	0.484
1298.000	730.287	79.995	19.996	100.022	20.137	-0.453	0.494
1300.000	731.302	79.996	19.996	100.030	20.139	-0.622	0.497
1302.001	732.273	79.995	19.995	100.027	20.135	-0.313	0.485
1304.000	733.263	79.996	19.996	100.030	20.135	-0.353	0.500
1306.000	734.251	79.995	19.997	100.020	20.139	-0.629	0.532
1308.000	735.222	79.994	19.996	100.025	20.135	-0.295	0.454
1310.000	736.220	79.994	19.995	100.038	20.137	-0.478	0.500
1312.000	737.197	79.995	19.996	100.015	20.137	-0.507	0.480
1314.000	738.159	79.995	19.997	100.020	20.136	-0.413	0.494
1316.000	739.154	79.994	19.997	100.024	20.133	-0.195	0.476
1318.000	740.142	79.996	19.996	100.019	20.134	-0.267	0.498
1320.000	741.152	79.997	19.998	100.015	20.134	-0.267	0.518
1322.000	742.148	79.997	19.996	100.026	20.135	-0.327	0.487
1324.000	743.158	79.997	19.998	100.029	20.137	-0.529	0.508
1325.000	743.714	79.997	19.998	100.029	20.138	-0.538	0.541