File: 01_Data/Polyester_Felt/MCC/Polyester_Felt_MCC_30K_min_211020_R4.txt
Sample ID:	C:\MCC\MCC Cal\Test\Polyester_Felt_MCC_30K_min_211020_R4.txt
Sample Weight (mg):	4.9
Heating Rate (C/s):	0.5
Combustor Temp (C):	900
N2 Flow Rate (cc/min):	80
O2 Flow Rate (cc/min):	20
Calibration File:	C:\MCC\MCC Cal\Coeff1 JN10440_30_210304.txt.txt
T Correction Coefficients:	0	1.024463	0
Time Shift (s):	14
*
Time (s)	Temperature (C)	N2 flow rate (cc/min)	O2 flow rate (cc/min)	Flow Rate (cc/min)	Oxygen (%)	HRR (W/g)	Heating rate (C/s)
0.000	107.515	80.003	19.994	102.992	20.006	-0.413	0.018
2.000	107.554	80.001	19.994	103.003	20.006	-0.431	0.018
4.000	107.500	80.001	19.994	103.021	20.007	-0.491	0.020
6.000	107.495	80.000	19.996	103.019	20.005	-0.336	-0.008
8.000	107.509	80.001	19.997	103.016	20.003	-0.206	-0.017
10.001	107.502	80.001	19.996	103.026	20.001	-0.105	-0.007
12.001	107.513	80.001	19.996	103.022	20.001	-0.103	-0.005
14.000	107.540	80.001	19.996	103.030	20.002	-0.142	0.023
16.001	107.588	80.001	19.995	103.049	19.999	0.057	0.019
18.000	107.575	80.002	19.995	103.070	19.994	0.360	0.021
20.000	107.591	80.001	19.993	103.085	19.995	0.338	0.007
22.000	107.609	80.002	19.995	103.110	19.990	0.652	-0.002
24.000	107.706	79.999	19.993	103.109	19.990	0.668	0.026
26.000	107.821	80.001	19.994	103.111	19.992	0.510	0.038
28.000	107.937	80.003	19.994	103.090	19.988	0.793	0.087
30.000	108.070	80.001	19.994	103.108	19.988	0.809	0.053
32.000	108.203	80.001	19.994	103.134	19.979	1.394	0.073
34.000	108.356	80.001	19.994	103.167	19.975	1.656	0.087
36.000	108.549	80.001	19.994	103.182	19.972	1.831	0.070
38.000	108.836	80.000	19.994	103.187	19.973	1.745	0.119
40.000	109.100	80.001	19.995	103.193	19.974	1.674	0.183
42.000	109.373	80.002	19.994	103.212	19.969	2.022	0.140
44.000	109.647	80.002	19.994	103.224	19.967	2.148	0.153
46.000	109.996	80.004	19.994	103.225	19.964	2.362	0.177
48.000	110.376	80.001	19.994	103.225	19.967	2.184	0.176
50.000	110.741	80.004	19.995	103.230	19.961	2.546	0.228
52.000	111.186	80.002	19.993	103.223	19.963	2.400	0.224
54.000	111.613	80.004	19.994	103.223	19.963	2.452	0.198
56.000	112.114	80.002	19.993	103.234	19.966	2.256	0.250
58.000	112.575	80.002	19.995	103.242	19.958	2.718	0.230
60.000	113.080	80.001	19.995	103.247	19.962	2.484	0.277
62.000	113.639	80.002	19.993	103.257	19.961	2.584	0.283
64.000	114.144	80.002	19.994	103.253	19.958	2.771	0.312
66.000	114.742	80.004	19.994	103.259	19.963	2.432	0.305
68.000	115.294	80.002	19.994	103.260	19.958	2.761	0.288
70.001	115.955	80.003	19.993	103.264	19.960	2.589	0.336
72.000	116.502	80.005	19.994	103.261	19.959	2.693	0.256
74.000	117.173	80.006	19.994	103.252	19.959	2.670	0.329
76.000	117.808	80.004	19.994	103.264	19.958	2.762	0.336
78.000	118.511	80.004	19.994	103.254	19.957	2.812	0.342
80.001	119.205	80.003	19.993	103.260	19.956	2.896	0.373
82.001	119.852	80.000	19.995	103.257	19.956	2.857	0.357
84.001	120.542	80.002	19.994	103.251	19.957	2.795	0.330
86.000	121.277	80.001	19.994	103.263	19.959	2.702	0.336
88.000	122.043	80.003	19.994	103.257	19.956	2.880	0.360
90.000	122.764	80.001	19.995	103.260	19.958	2.730	0.362
92.000	123.549	80.003	19.994	103.250	19.957	2.819	0.388
94.000	124.301	80.002	19.995	103.258	19.952	3.123	0.399
96.000	125.066	80.000	19.995	103.265	19.954	3.037	0.402
98.000	125.859	80.001	19.994	103.258	19.958	2.745	0.395
100.001	126.626	80.002	19.995	103.255	19.960	2.625	0.389
102.000	127.425	80.004	19.996	103.261	19.957	2.825	0.382
104.000	128.269	80.002	19.995	103.260	19.956	2.864	0.428
106.000	129.088	79.999	19.995	103.260	19.957	2.830	0.436
108.000	129.902	80.000	19.995	103.258	19.958	2.737	0.398
110.000	130.746	80.001	19.995	103.256	19.958	2.721	0.404
112.001	131.640	80.002	19.995	103.258	19.956	2.855	0.404
114.000	132.485	80.001	19.994	103.261	19.957	2.820	0.438
116.000	133.311	80.001	19.995	103.263	19.957	2.789	0.425
118.000	134.154	80.001	19.994	103.260	19.958	2.732	0.388
120.000	135.077	80.000	19.994	103.260	19.953	3.078	0.457
122.000	135.954	80.002	19.993	103.263	19.957	2.839	0.441
124.001	136.804	80.002	19.995	103.263	19.957	2.812	0.429
126.000	137.728	80.002	19.994	103.263	19.957	2.835	0.439
128.000	138.644	80.003	19.994	103.264	19.961	2.580	0.417
130.000	139.469	80.002	19.993	103.263	19.957	2.788	0.423
132.000	140.435	80.000	19.994	103.258	19.963	2.393	0.465
134.000	141.327	80.002	19.994	103.248	19.956	2.896	0.439
136.000	142.212	80.002	19.993	103.259	19.958	2.775	0.447
138.000	143.147	80.002	19.994	103.253	19.962	2.502	0.461
140.000	144.102	80.003	19.994	103.267	19.960	2.648	0.462
142.000	145.025	80.003	19.994	103.262	19.959	2.702	0.465
144.000	145.950	80.002	19.994	103.266	19.959	2.652	0.476
146.000	146.889	80.002	19.995	103.258	19.959	2.684	0.470
148.000	147.795	80.001	19.993	103.264	19.955	2.928	0.454
150.000	148.748	80.004	19.994	103.263	19.958	2.745	0.494
152.000	149.716	80.005	19.992	103.265	19.959	2.716	0.467
154.000	150.688	80.003	19.993	103.265	19.957	2.812	0.461
156.000	151.594	80.003	19.993	103.264	19.956	2.892	0.458
158.000	152.550	80.005	19.994	103.265	19.955	2.962	0.454
160.000	153.501	80.002	19.994	103.260	19.958	2.748	0.468
162.000	154.381	80.003	19.993	103.259	19.956	2.850	0.423
164.000	155.371	80.002	19.994	103.256	19.956	2.853	0.450
166.000	156.349	79.999	19.995	103.253	19.956	2.851	0.478
168.000	157.320	80.001	19.995	103.254	19.955	2.948	0.469
170.000	158.272	80.001	19.994	103.247	19.955	2.978	0.456
172.000	159.253	80.001	19.994	103.241	19.955	2.937	0.514
174.000	160.207	80.000	19.995	103.249	19.956	2.905	0.489
176.000	161.145	80.001	19.996	103.252	19.954	3.017	0.448
178.000	162.179	80.001	19.995	103.252	19.953	3.074	0.510
180.000	163.119	80.001	19.995	103.255	19.960	2.622	0.480
182.000	164.098	80.000	19.994	103.252	19.958	2.755	0.473
184.000	165.077	80.001	19.996	103.239	19.955	2.917	0.500
186.000	166.042	79.999	19.994	103.254	19.953	3.087	0.501
188.000	167.045	80.002	19.995	103.257	19.956	2.876	0.496
190.000	168.008	80.001	19.994	103.257	19.953	3.077	0.484
192.000	168.954	80.002	19.995	103.260	19.959	2.714	0.502
194.000	169.980	80.000	19.996	103.241	19.958	2.735	0.519
196.000	170.947	79.999	19.995	103.247	19.960	2.596	0.475
198.000	171.904	80.000	19.997	103.249	19.957	2.817	0.480
200.000	172.956	80.001	19.995	103.251	19.962	2.516	0.510
202.000	173.984	79.999	19.995	103.238	19.956	2.851	0.550
204.000	174.932	80.001	19.996	103.241	19.962	2.498	0.474
206.000	175.917	80.002	19.995	103.244	19.958	2.767	0.526
208.000	176.944	80.002	19.995	103.236	19.960	2.587	0.519
210.000	177.906	80.002	19.994	103.231	19.959	2.673	0.496
212.000	178.967	80.003	19.994	103.226	19.959	2.658	0.506
214.000	179.921	80.002	19.994	103.228	19.959	2.667	0.480
216.000	180.934	80.003	19.995	103.240	19.961	2.580	0.505
218.000	181.913	80.003	19.994	103.233	19.960	2.596	0.491
220.000	182.925	80.002	19.994	103.232	19.957	2.804	0.467
222.000	183.934	80.000	19.994	103.235	19.956	2.852	0.507
224.000	184.899	80.001	19.994	103.236	19.959	2.685	0.494
226.000	185.958	80.003	19.993	103.235	19.961	2.581	0.503
228.000	186.928	80.003	19.994	103.227	19.959	2.674	0.520
230.000	187.947	80.001	19.995	103.227	19.958	2.733	0.505
232.000	188.955	80.004	19.994	103.228	19.963	2.453	0.486
234.000	190.002	80.004	19.993	103.224	19.961	2.567	0.515
236.000	190.981	80.002	19.994	103.222	19.961	2.537	0.501
238.000	192.015	80.005	19.994	103.222	19.961	2.539	0.517
240.000	193.031	80.004	19.993	103.223	19.962	2.501	0.510
242.000	194.036	80.003	19.994	103.222	19.958	2.717	0.538
244.000	195.057	80.001	19.994	103.223	19.961	2.554	0.512
246.000	196.046	80.002	19.994	103.224	19.962	2.458	0.527
248.000	197.066	80.001	19.994	103.222	19.961	2.555	0.510
250.000	198.020	80.002	19.993	103.222	19.962	2.476	0.481
252.000	199.019	80.002	19.994	103.224	19.966	2.253	0.487
254.001	199.976	80.001	19.994	103.219	19.963	2.414	0.490
256.000	201.024	80.001	19.994	103.219	19.961	2.571	0.534
258.000	202.005	80.001	19.995	103.221	19.962	2.492	0.521
260.000	202.987	80.000	19.995	103.219	19.961	2.567	0.487
262.000	203.989	80.000	19.995	103.217	19.962	2.514	0.469
264.001	204.952	79.997	19.995	103.213	19.964	2.342	0.496
266.000	206.002	80.002	19.994	103.222	19.964	2.357	0.503
268.000	206.973	80.002	19.995	103.220	19.966	2.255	0.481
270.000	207.922	79.999	19.994	103.224	19.963	2.435	0.461
272.000	208.923	80.002	19.994	103.224	19.964	2.374	0.479
274.000	209.895	79.999	19.994	103.222	19.962	2.478	0.442
276.000	210.911	80.001	19.995	103.220	19.967	2.176	0.504
278.000	211.886	79.999	19.994	103.215	19.968	2.103	0.457
280.000	212.881	80.001	19.995	103.219	19.964	2.342	0.504
282.000	213.886	80.000	19.994	103.215	19.963	2.415	0.524
284.001	214.844	79.999	19.995	103.223	19.963	2.433	0.490
286.000	215.839	80.001	19.995	103.226	19.962	2.488	0.451
288.000	216.811	80.001	19.994	103.206	19.963	2.413	0.480
290.000	217.843	80.000	19.995	103.215	19.963	2.419	0.499
292.000	218.842	80.002	19.996	103.216	19.965	2.281	0.491
294.000	219.733	80.002	19.995	103.215	19.964	2.328	0.457
296.000	220.776	79.999	19.995	103.213	19.964	2.387	0.518
298.000	221.732	80.003	19.996	103.198	19.963	2.426	0.488
300.000	222.705	80.003	19.995	103.198	19.964	2.358	0.491
302.000	223.677	80.001	19.994	103.199	19.963	2.410	0.498
304.000	224.653	80.000	19.995	103.210	19.961	2.554	0.505
306.000	225.685	80.001	19.994	103.219	19.963	2.433	0.536
308.000	226.663	80.003	19.995	103.219	19.962	2.483	0.490
310.000	227.611	80.001	19.993	103.213	19.965	2.281	0.497
312.000	228.643	80.003	19.994	103.212	19.964	2.367	0.532
314.000	229.642	80.002	19.993	103.221	19.964	2.376	0.491
316.000	230.654	80.004	19.994	103.213	19.964	2.363	0.513
318.000	231.614	80.002	19.993	103.200	19.964	2.342	0.465
320.000	232.602	80.005	19.995	103.199	19.965	2.290	0.492
322.000	233.628	80.003	19.994	103.210	19.962	2.504	0.489
324.000	234.655	80.004	19.994	103.207	19.965	2.303	0.500
326.000	235.672	80.001	19.994	103.200	19.964	2.326	0.533
328.000	236.647	80.000	19.994	103.203	19.964	2.335	0.514
330.000	237.633	80.001	19.994	103.206	19.968	2.102	0.494
332.000	238.638	80.001	19.994	103.195	19.965	2.282	0.516
334.000	239.566	80.002	19.995	103.194	19.967	2.132	0.507
336.000	240.505	80.000	19.993	103.197	19.967	2.133	0.445
338.000	241.502	80.000	19.993	103.190	19.969	2.023	0.492
340.000	242.522	80.001	19.993	103.197	19.972	1.798	0.517
342.000	243.494	80.000	19.994	103.216	19.965	2.292	0.505
344.000	244.455	79.998	19.994	103.214	19.967	2.169	0.500
346.000	245.433	80.000	19.993	103.209	19.968	2.117	0.486
348.000	246.420	80.002	19.994	103.200	19.969	2.048	0.462
350.000	247.382	80.001	19.994	103.200	19.968	2.114	0.487
352.000	248.359	80.002	19.995	103.203	19.970	1.991	0.503
354.000	249.362	80.000	19.995	103.204	19.977	1.492	0.488
356.000	250.338	80.000	19.996	103.194	19.968	2.105	0.456
358.000	251.323	80.001	19.994	103.192	19.970	1.978	0.469
360.000	252.323	80.000	19.995	103.194	19.971	1.884	0.494
362.000	253.283	80.001	19.995	103.190	19.971	1.905	0.470
364.000	254.285	80.002	19.995	103.193	19.972	1.839	0.489
366.000	255.295	80.003	19.995	103.196	19.970	1.928	0.507
368.000	256.294	80.002	19.995	103.202	19.970	1.932	0.486
370.000	257.250	80.001	19.994	103.195	19.970	1.985	0.484
372.000	258.236	80.002	19.995	103.205	19.971	1.894	0.503
374.000	259.255	80.002	19.994	103.202	19.968	2.071	0.540
376.000	260.218	80.002	19.995	103.196	19.971	1.887	0.500
378.000	261.195	80.003	19.994	103.188	19.969	2.014	0.504
380.000	262.228	80.003	19.994	103.196	19.974	1.668	0.528
382.000	263.233	80.003	19.995	103.191	19.970	1.966	0.499
384.000	264.244	80.003	19.994	103.187	19.972	1.837	0.495
386.000	265.238	80.001	19.996	103.186	19.968	2.069	0.514
388.000	266.331	80.000	19.996	103.187	19.970	1.944	0.540
390.000	267.299	80.001	19.994	103.189	19.972	1.819	0.522
392.000	268.306	80.000	19.995	103.187	19.978	1.431	0.544
394.000	269.276	80.001	19.995	103.192	19.975	1.598	0.473
396.001	270.382	80.003	19.994	103.196	19.966	2.210	0.542
398.000	271.335	80.004	19.994	103.193	19.970	1.953	0.514
400.000	272.392	80.004	19.994	103.186	19.974	1.672	0.536
402.000	273.590	80.005	19.993	103.188	19.975	1.625	0.558
404.000	274.625	80.005	19.993	103.186	19.975	1.663	0.714
406.000	275.580	80.003	19.994	103.186	19.978	1.461	0.662
408.000	276.713	80.001	19.994	103.184	19.970	1.944	0.388
410.000	277.500	80.004	19.994	103.186	19.973	1.795	0.407
412.000	278.523	80.002	19.994	103.186	19.966	2.212	0.494
414.000	279.537	80.000	19.995	103.186	19.968	2.062	0.552
416.000	280.629	80.002	19.994	103.189	19.966	2.226	0.550
418.000	281.595	80.005	19.995	103.189	19.968	2.094	0.520
420.000	282.560	80.004	19.995	103.190	19.973	1.787	0.473
422.000	283.600	80.002	19.994	103.187	19.971	1.912	0.501
424.000	284.601	80.000	19.996	103.193	19.974	1.686	0.511
426.000	285.644	80.000	19.995	103.185	19.972	1.855	0.507
428.000	286.642	80.002	19.994	103.188	19.973	1.750	0.528
430.000	287.689	80.002	19.994	103.181	19.972	1.857	0.497
432.000	288.741	80.002	19.994	103.181	19.972	1.860	0.550
434.000	289.741	80.000	19.993	103.184	19.971	1.889	0.503
436.000	290.812	80.003	19.993	103.172	19.970	1.928	0.550
438.000	291.821	80.001	19.994	103.166	19.973	1.773	0.527
440.000	292.840	80.002	19.995	103.167	19.970	1.992	0.503
442.000	293.857	80.001	19.993	103.179	19.968	2.101	0.486
444.000	294.863	80.001	19.994	103.169	19.970	1.932	0.505
446.000	295.925	80.001	19.994	103.181	19.974	1.686	0.546
448.000	296.908	80.001	19.995	103.178	19.974	1.689	0.516
450.000	297.866	80.001	19.994	103.175	19.970	1.969	0.464
452.000	298.924	80.002	19.995	103.181	19.973	1.759	0.519
454.000	299.908	80.002	19.994	103.174	19.972	1.841	0.492
456.000	300.935	80.002	19.994	103.176	19.971	1.878	0.502
458.000	301.953	80.003	19.994	103.174	19.971	1.883	0.516
460.000	302.937	80.003	19.994	103.182	19.975	1.662	0.443
462.000	303.961	80.002	19.994	103.166	19.971	1.867	0.523
464.000	304.997	80.002	19.993	103.169	19.970	1.949	0.502
466.000	306.014	80.004	19.994	103.160	19.970	1.957	0.535
468.000	307.024	80.002	19.994	103.162	19.971	1.919	0.517
470.000	308.001	80.003	19.995	103.169	19.973	1.778	0.480
472.000	309.037	80.000	19.995	103.176	19.974	1.678	0.513
474.000	310.019	80.001	19.995	103.174	19.973	1.742	0.523
476.000	311.039	80.002	19.995	103.186	19.972	1.833	0.523
478.000	312.045	80.003	19.995	103.167	19.972	1.853	0.526
480.000	313.075	80.003	19.995	103.164	19.971	1.885	0.480
482.000	314.078	80.002	19.994	103.172	19.973	1.741	0.542
484.000	315.121	80.005	19.995	103.167	19.965	2.270	0.517
486.000	316.117	80.005	19.994	103.153	19.971	1.920	0.523
488.000	317.079	80.004	19.994	103.148	19.968	2.086	0.478
490.000	318.111	80.004	19.994	103.153	19.971	1.873	0.502
492.000	319.035	80.002	19.994	103.156	19.973	1.740	0.473
494.000	320.052	80.003	19.994	103.162	19.970	1.990	0.508
496.000	321.020	80.002	19.994	103.157	19.974	1.703	0.479
498.000	322.032	80.001	19.994	103.160	19.973	1.744	0.514
500.000	323.014	80.000	19.994	103.158	19.969	2.001	0.488
502.000	324.004	80.001	19.993	103.160	19.974	1.723	0.485
504.000	325.001	80.000	19.993	103.148	19.971	1.926	0.489
506.000	326.034	80.002	19.995	103.147	19.973	1.753	0.500
508.000	327.035	80.002	19.995	103.146	19.970	1.931	0.502
510.000	328.028	80.002	19.995	103.152	19.971	1.886	0.489
512.000	329.047	80.002	19.994	103.157	19.972	1.840	0.489
514.000	330.055	80.003	19.995	103.146	19.971	1.885	0.500
516.000	331.035	80.003	19.995	103.148	19.968	2.099	0.497
518.000	332.048	80.001	19.993	103.148	19.963	2.448	0.496
520.000	333.098	80.002	19.995	103.147	19.970	1.983	0.527
522.000	334.095	80.001	19.993	103.146	19.967	2.156	0.504
524.000	335.129	80.001	19.993	103.148	19.967	2.159	0.507
526.000	336.104	80.001	19.995	103.152	19.967	2.150	0.490
528.000	337.125	80.001	19.993	103.150	19.966	2.218	0.501
530.000	338.160	80.002	19.993	103.150	19.967	2.172	0.522
532.000	339.122	80.002	19.994	103.149	19.964	2.366	0.493
534.000	340.167	80.001	19.993	103.149	19.960	2.631	0.501
536.000	341.186	80.003	19.994	103.161	19.961	2.544	0.481
538.000	342.225	80.003	19.994	103.152	19.962	2.483	0.502
540.000	343.212	80.004	19.994	103.151	19.964	2.330	0.497
542.000	344.195	80.003	19.994	103.148	19.961	2.558	0.493
544.000	345.180	80.003	19.995	103.152	19.964	2.341	0.502
546.000	346.193	80.001	19.995	103.149	19.960	2.594	0.530
548.000	347.218	80.002	19.995	103.151	19.963	2.417	0.481
550.000	348.196	80.001	19.993	103.150	19.959	2.667	0.519
552.000	349.264	80.000	19.994	103.150	19.958	2.779	0.530
554.000	350.303	80.002	19.994	103.145	19.959	2.668	0.511
556.000	351.335	80.002	19.994	103.144	19.956	2.868	0.525
558.000	352.325	80.003	19.995	103.144	19.956	2.896	0.504
560.000	353.364	80.004	19.995	103.144	19.958	2.736	0.505
562.000	354.431	80.005	19.996	103.144	19.954	3.028	0.533
564.000	355.385	80.005	19.994	103.146	19.954	3.025	0.470
566.000	356.431	80.004	19.994	103.143	19.956	2.893	0.490
568.000	357.414	80.003	19.994	103.146	19.950	3.276	0.503
570.000	358.467	80.003	19.994	103.145	19.947	3.459	0.511
572.000	359.464	80.002	19.995	103.143	19.949	3.367	0.503
574.000	360.541	80.000	19.996	103.143	19.950	3.281	0.530
576.000	361.548	80.000	19.995	103.143	19.941	3.844	0.489
578.000	362.563	80.001	19.996	103.142	19.943	3.704	0.503
580.000	363.607	80.001	19.995	103.142	19.939	3.996	0.515
582.000	364.626	80.002	19.995	103.150	19.936	4.185	0.529
584.001	365.644	80.003	19.994	103.149	19.933	4.400	0.509
586.000	366.692	80.000	19.994	103.144	19.931	4.528	0.547
588.000	367.713	80.000	19.993	103.148	19.933	4.422	0.507
590.000	368.747	80.002	19.994	103.150	19.928	4.696	0.522
592.001	369.765	80.000	19.994	103.149	19.924	4.983	0.503
594.000	370.762	80.002	19.994	103.149	19.922	5.093	0.496
596.000	371.790	80.001	19.995	103.150	19.919	5.280	0.473
598.000	372.851	80.002	19.995	103.147	19.916	5.500	0.550
600.000	373.885	80.000	19.993	103.156	19.908	6.037	0.511
602.000	374.904	80.001	19.995	103.154	19.909	5.946	0.514
604.000	375.914	80.001	19.994	103.154	19.904	6.321	0.496
606.000	376.928	80.000	19.994	103.153	19.899	6.595	0.495
608.000	377.958	80.000	19.995	103.154	19.895	6.888	0.488
610.000	379.015	80.000	19.994	103.168	19.886	7.460	0.495
612.000	380.050	79.999	19.994	103.174	19.882	7.739	0.543
614.000	381.057	80.001	19.994	103.185	19.877	8.073	0.520
616.000	382.039	80.002	19.994	103.175	19.870	8.547	0.498
618.000	383.088	80.002	19.993	103.183	19.856	9.475	0.534
620.000	384.103	80.002	19.994	103.185	19.852	9.723	0.516
622.000	385.078	80.003	19.993	103.185	19.837	10.733	0.479
624.000	386.133	80.003	19.994	103.185	19.824	11.565	0.480
626.000	387.145	80.003	19.994	103.184	19.806	12.768	0.513
628.000	388.174	80.002	19.993	103.195	19.790	13.800	0.522
630.000	389.197	80.001	19.994	103.205	19.777	14.652	0.505
632.000	390.177	80.002	19.994	103.208	19.763	15.572	0.512
634.000	391.243	80.002	19.996	103.223	19.744	16.840	0.520
636.000	392.249	80.001	19.994	103.224	19.725	18.082	0.500
638.000	393.297	80.002	19.994	103.235	19.700	19.698	0.526
640.000	394.321	80.002	19.994	103.257	19.678	21.180	0.534
642.000	395.346	80.003	19.994	103.259	19.654	22.720	0.513
644.000	396.351	80.003	19.994	103.257	19.627	24.513	0.528
646.000	397.384	80.004	19.993	103.269	19.597	26.531	0.488
648.000	398.414	80.004	19.995	103.276	19.576	27.882	0.518
650.000	399.471	80.002	19.994	103.270	19.553	29.400	0.529
652.000	400.531	80.001	19.995	103.271	19.533	30.685	0.538
654.000	401.615	80.002	19.994	103.285	19.518	31.705	0.512
656.000	402.653	80.000	19.997	103.305	19.498	33.047	0.535
658.000	403.677	80.001	19.995	103.321	19.479	34.279	0.477
660.000	404.729	79.998	19.994	103.327	19.458	35.685	0.525
662.000	405.801	80.000	19.996	103.333	19.438	37.001	0.556
664.000	406.873	79.999	19.996	103.317	19.421	38.087	0.549
666.000	407.889	80.000	19.994	103.323	19.402	39.324	0.503
668.000	408.953	80.001	19.995	103.336	19.378	40.980	0.514
670.000	409.992	79.999	19.995	103.367	19.356	42.396	0.534
672.000	411.024	79.999	19.995	103.380	19.329	44.202	0.507
674.000	412.041	79.999	19.995	103.373	19.306	45.696	0.522
676.001	413.109	80.002	19.993	103.382	19.273	47.895	0.505
678.001	414.044	80.002	19.994	103.400	19.233	50.532	0.475
680.000	415.024	80.002	19.994	103.439	19.183	53.865	0.487
682.000	416.005	80.003	19.994	103.467	19.127	57.574	0.479
684.000	417.044	80.002	19.995	103.457	19.080	60.632	0.519
686.000	418.072	80.001	19.995	103.458	19.030	63.947	0.520
688.000	419.070	80.002	19.996	103.464	18.974	67.674	0.489
690.000	420.093	80.001	19.995	103.521	18.903	72.427	0.534
692.000	421.082	80.001	19.995	103.567	18.841	76.560	0.506
694.000	422.062	80.001	19.994	103.575	18.783	80.454	0.507
696.000	423.019	80.001	19.994	103.544	18.733	83.681	0.468
698.000	423.991	80.000	19.995	103.565	18.691	86.384	0.472
700.000	424.991	80.001	19.995	103.639	18.624	90.773	0.503
702.000	425.956	80.003	19.995	103.708	18.468	101.268	0.498
704.000	426.988	80.002	19.994	103.859	18.325	110.914	0.478
706.000	427.948	80.003	19.994	103.815	18.230	117.230	0.471
708.000	428.971	80.002	19.996	103.682	18.159	121.911	0.498
710.001	429.994	80.003	19.994	103.609	18.090	126.394	0.497
712.000	430.931	80.003	19.995	103.696	18.014	131.410	0.461
714.000	431.880	80.001	19.994	103.954	17.914	138.077	0.478
716.000	432.890	80.002	19.994	104.043	17.790	146.374	0.489
718.000	433.899	80.002	19.995	104.032	17.682	153.599	0.505
720.000	434.892	80.001	19.995	103.992	17.609	158.465	0.514
722.000	435.900	80.003	19.994	103.929	17.550	162.355	0.480
724.000	436.943	80.003	19.995	103.911	17.502	165.569	0.542
726.000	437.898	80.002	19.994	103.996	17.463	168.116	0.491
728.000	438.899	80.003	19.994	104.075	17.431	170.253	0.491
730.000	439.873	80.003	19.994	104.085	17.398	172.455	0.484
732.000	440.927	80.003	19.994	104.090	17.374	173.999	0.517
734.000	441.911	80.002	19.994	104.089	17.361	174.861	0.494
736.000	442.878	80.000	19.995	104.084	17.354	175.294	0.493
738.000	443.936	80.001	19.994	104.086	17.355	175.234	0.546
740.000	444.908	80.001	19.994	104.087	17.361	174.787	0.476
742.000	445.934	80.000	19.995	104.087	17.378	173.629	0.509
744.000	446.935	80.000	19.994	104.082	17.400	172.146	0.463
746.000	447.955	80.001	19.995	104.059	17.438	169.534	0.488
748.000	448.947	79.998	19.995	104.045	17.481	166.668	0.480
750.000	449.946	79.999	19.995	104.040	17.531	163.357	0.503
752.000	450.965	80.000	19.996	104.019	17.584	159.746	0.513
754.000	451.979	80.002	19.996	103.994	17.654	155.064	0.481
756.000	452.979	80.001	19.995	103.970	17.721	150.598	0.502
758.000	453.995	80.001	19.995	103.931	17.798	145.466	0.524
760.000	455.022	80.001	19.995	103.913	17.883	139.807	0.518
762.000	456.034	80.001	19.996	103.876	17.967	134.209	0.511
764.000	457.051	80.002	19.996	103.836	18.061	127.975	0.511
766.000	458.000	80.001	19.994	103.814	18.160	121.420	0.459
768.000	459.046	80.001	19.995	103.777	18.257	115.000	0.493
770.000	460.075	80.001	19.995	103.747	18.365	107.822	0.533
772.000	461.028	80.001	19.995	103.713	18.480	100.226	0.460
774.000	462.060	80.002	19.995	103.680	18.602	92.153	0.514
776.000	463.078	80.001	19.993	103.636	18.720	84.308	0.505
778.000	464.070	80.002	19.995	103.614	18.829	77.112	0.502
780.000	465.086	80.002	19.995	103.592	18.933	70.280	0.493
782.000	466.095	80.003	19.994	103.574	19.030	63.874	0.532
784.000	467.110	80.003	19.995	103.538	19.115	58.252	0.522
786.000	468.115	80.002	19.993	103.504	19.191	53.198	0.478
788.000	469.122	80.003	19.995	103.465	19.262	48.535	0.529
790.000	470.100	80.002	19.994	103.437	19.327	44.240	0.506
792.000	471.106	80.001	19.995	103.418	19.385	40.456	0.486
794.001	472.140	80.002	19.994	103.394	19.435	37.138	0.467
796.000	473.163	80.001	19.994	103.374	19.476	34.425	0.496
798.001	474.181	80.002	19.994	103.348	19.519	31.627	0.521
800.000	475.266	80.001	19.994	103.330	19.561	28.846	0.563
802.000	476.271	80.002	19.993	103.305	19.602	26.174	0.482
804.000	477.305	80.003	19.994	103.298	19.632	24.175	0.515
806.000	478.303	80.003	19.994	103.277	19.665	21.984	0.519
808.000	479.347	80.003	19.994	103.266	19.694	20.096	0.522
810.000	480.352	80.004	19.994	103.260	19.724	18.092	0.480
812.000	481.403	80.003	19.994	103.234	19.748	16.536	0.540
814.000	482.396	80.003	19.995	103.225	19.772	14.995	0.472
816.000	483.448	80.001	19.993	103.220	19.789	13.835	0.519
818.000	484.467	80.001	19.995	103.202	19.812	12.324	0.519
820.000	485.516	80.000	19.995	103.191	19.829	11.233	0.506
822.000	486.508	79.999	19.994	103.186	19.847	10.064	0.481
824.000	487.558	80.000	19.994	103.183	19.860	9.210	0.524
826.000	488.586	80.000	19.994	103.171	19.871	8.431	0.533
828.000	489.641	80.001	19.994	103.159	19.885	7.539	0.502
830.000	490.664	79.999	19.995	103.176	19.891	7.136	0.515
832.000	491.722	80.000	19.994	103.163	19.903	6.368	0.548
834.000	492.771	80.000	19.994	103.147	19.910	5.880	0.540
836.000	493.819	80.002	19.995	103.147	19.917	5.436	0.513
838.000	494.901	80.001	19.994	103.150	19.926	4.836	0.557
840.000	495.941	80.000	19.994	103.141	19.931	4.489	0.543
842.000	496.953	80.000	19.996	103.144	19.936	4.191	0.507
844.000	498.032	79.999	19.995	103.143	19.933	4.372	0.533
846.000	499.024	80.000	19.995	103.133	19.937	4.108	0.517
848.000	500.054	79.999	19.996	103.133	19.935	4.282	0.498
850.000	501.173	80.000	19.995	103.139	19.935	4.226	0.533
852.000	502.180	80.000	19.995	103.135	19.935	4.265	0.498
854.000	503.187	79.999	19.995	103.122	19.936	4.191	0.493
856.000	504.243	80.001	19.996	103.134	19.939	3.978	0.485
858.000	505.293	80.000	19.994	103.135	19.941	3.849	0.526
860.000	506.296	80.001	19.997	103.122	19.942	3.820	0.519
862.000	507.385	80.000	19.994	103.122	19.942	3.790	0.530
864.000	508.410	80.002	19.994	103.126	19.943	3.756	0.525
866.000	509.453	80.002	19.995	103.130	19.947	3.492	0.552
868.000	510.491	80.001	19.994	103.114	19.945	3.574	0.518
870.000	511.539	80.002	19.994	103.119	19.949	3.350	0.527
872.000	512.583	80.001	19.994	103.122	19.949	3.318	0.506
874.000	513.664	80.001	19.995	103.121	19.948	3.412	0.550
876.000	514.678	80.003	19.994	103.112	19.948	3.400	0.521
878.000	515.754	80.002	19.995	103.127	19.949	3.368	0.529
880.000	516.779	80.003	19.995	103.113	19.951	3.236	0.505
882.000	517.830	80.002	19.994	103.115	19.954	2.988	0.505
884.000	518.884	80.003	19.993	103.112	19.952	3.140	0.518
886.001	519.907	80.003	19.995	103.124	19.950	3.245	0.481
888.000	520.964	80.003	19.994	103.121	19.952	3.159	0.509
890.000	521.943	80.004	19.995	103.128	19.950	3.271	0.497
892.000	523.002	80.003	19.993	103.113	19.949	3.325	0.495
894.000	524.045	80.003	19.994	103.115	19.953	3.065	0.479
896.000	525.059	80.003	19.994	103.126	19.950	3.271	0.504
898.000	526.076	80.003	19.994	103.127	19.955	2.960	0.514
900.000	527.080	80.002	19.994	103.118	19.957	2.780	0.480
902.000	528.141	80.003	19.995	103.108	19.953	3.065	0.532
904.000	529.141	80.001	19.993	103.121	19.958	2.741	0.499
906.000	530.202	80.000	19.994	103.115	19.953	3.077	0.538
908.000	531.173	80.000	19.995	103.110	19.953	3.095	0.495
910.000	532.218	80.002	19.994	103.109	19.953	3.070	0.509
912.000	533.244	80.000	19.994	103.110	19.953	3.052	0.553
914.000	534.243	80.002	19.995	103.115	19.951	3.198	0.507
916.000	535.265	80.000	19.995	103.120	19.955	2.960	0.516
918.000	536.317	80.001	19.995	103.109	19.955	2.940	0.501
920.000	537.285	80.001	19.994	103.122	19.956	2.876	0.493
922.000	538.288	80.001	19.994	103.112	19.958	2.773	0.473
924.000	539.313	80.000	19.994	103.109	19.952	3.125	0.502
926.000	540.314	79.999	19.995	103.117	19.952	3.148	0.480
928.000	541.314	80.000	19.995	103.117	19.957	2.794	0.499
930.000	542.344	80.000	19.994	103.113	19.958	2.751	0.526
932.000	543.340	79.998	19.995	103.118	19.958	2.728	0.517
934.000	544.331	79.999	19.993	103.116	19.960	2.645	0.520
936.000	545.328	79.998	19.995	103.117	19.955	2.961	0.514
938.000	546.310	80.000	19.995	103.111	19.956	2.867	0.474
940.000	547.302	79.999	19.995	103.110	19.960	2.630	0.506
942.000	548.308	80.000	19.996	103.114	19.961	2.562	0.480
944.000	549.382	80.001	19.995	103.117	19.956	2.895	0.513
946.000	550.356	80.002	19.996	103.118	19.953	3.068	0.518
948.000	551.334	80.002	19.995	103.112	19.954	3.025	0.503
950.000	552.368	80.002	19.995	103.107	19.955	2.970	0.522
952.000	553.360	80.002	19.995	103.104	19.957	2.828	0.494
954.000	554.349	80.001	19.996	103.103	19.956	2.892	0.518
956.000	555.407	80.003	19.995	103.103	19.957	2.792	0.504
958.000	556.423	80.002	19.993	103.108	19.957	2.822	0.500
960.000	557.399	80.002	19.994	103.109	19.962	2.497	0.496
962.000	558.412	80.003	19.994	103.107	19.959	2.708	0.503
964.000	559.416	80.003	19.995	103.107	19.957	2.824	0.489
966.000	560.487	80.005	19.994	103.106	19.961	2.561	0.532
968.000	561.503	80.003	19.995	103.109	19.955	2.920	0.521
970.000	562.494	80.003	19.994	103.104	19.964	2.365	0.491
972.000	563.550	80.004	19.994	103.106	19.966	2.228	0.524
974.000	564.551	80.001	19.994	103.103	19.960	2.619	0.533
976.000	565.562	80.001	19.995	103.109	19.963	2.424	0.507
978.000	566.622	80.001	19.994	103.107	19.964	2.343	0.530
980.000	567.623	80.001	19.995	103.112	19.962	2.486	0.515
982.000	568.647	80.000	19.994	103.109	19.960	2.618	0.508
984.000	569.688	80.001	19.994	103.110	19.961	2.520	0.505
986.000	570.774	80.000	19.995	103.110	19.964	2.342	0.518
988.000	571.843	80.000	19.993	103.111	19.961	2.575	0.530
990.000	572.863	80.000	19.993	103.107	19.961	2.548	0.519
992.000	573.909	80.001	19.994	103.114	19.964	2.377	0.510
994.000	575.024	80.000	19.994	103.113	19.964	2.372	0.530
996.000	576.072	80.000	19.994	103.111	19.966	2.240	0.537
998.000	577.107	80.001	19.994	103.110	19.965	2.295	0.506
1000.000	578.174	80.002	19.994	103.107	19.961	2.529	0.511
1002.000	579.202	80.001	19.995	103.099	19.958	2.714	0.521
1004.000	580.260	80.001	19.994	103.110	19.957	2.804	0.533
1006.000	581.254	80.001	19.995	103.107	19.960	2.628	0.491
1008.000	582.354	80.000	19.995	103.106	19.955	2.947	0.534
1010.000	583.364	80.000	19.996	103.108	19.956	2.874	0.501
1012.000	584.443	79.999	19.995	103.106	19.954	2.981	0.520
1014.000	585.407	79.999	19.995	103.102	19.958	2.737	0.463
1016.000	586.468	79.999	19.994	103.104	19.956	2.874	0.524
1018.000	587.470	79.999	19.993	103.107	19.958	2.719	0.480
1020.000	588.473	80.002	19.994	103.104	19.963	2.441	0.497
1022.000	589.499	80.001	19.994	103.107	19.962	2.502	0.496
1024.000	590.541	80.002	19.995	103.108	19.962	2.470	0.505
1026.000	591.540	80.002	19.994	103.109	19.961	2.530	0.506
1028.000	592.590	80.002	19.995	103.104	19.957	2.838	0.547
1030.000	593.598	80.003	19.995	103.105	19.957	2.806	0.517
1032.000	594.656	80.001	19.994	103.106	19.963	2.438	0.541
1034.000	595.711	80.002	19.995	103.102	19.959	2.680	0.553
1036.000	596.715	80.001	19.996	103.099	19.964	2.333	0.489
1038.000	597.755	80.001	19.995	103.106	19.962	2.502	0.518
1040.000	598.742	80.001	19.995	103.100	19.963	2.450	0.523
1042.000	599.770	80.002	19.995	103.098	19.958	2.737	0.515
1044.000	600.796	80.003	19.994	103.102	19.960	2.594	0.522
1046.000	601.780	80.004	19.994	103.105	19.955	2.958	0.499
1048.001	602.787	80.004	19.994	103.104	19.957	2.824	0.457
1050.001	603.819	80.005	19.995	103.107	19.957	2.789	0.476
1052.000	604.777	80.003	19.992	103.100	19.955	2.940	0.496
1054.001	605.816	80.003	19.994	103.107	19.952	3.107	0.509
1056.000	606.852	80.002	19.994	103.107	19.956	2.890	0.503
1058.001	607.837	80.002	19.994	103.108	19.952	3.130	0.483
1060.000	608.875	80.001	19.993	103.111	19.950	3.275	0.498
1062.001	609.905	80.001	19.995	103.110	19.953	3.050	0.517
1064.000	610.964	80.002	19.995	103.106	19.958	2.721	0.525
1066.000	612.006	80.001	19.994	103.110	19.952	3.157	0.557
1068.000	613.050	80.001	19.993	103.109	19.951	3.216	0.493
1070.000	614.121	80.002	19.995	103.108	19.955	2.970	0.570
1072.000	615.151	80.001	19.994	103.104	19.957	2.799	0.518
1074.000	616.224	80.001	19.994	103.100	19.960	2.635	0.554
1076.000	617.307	80.002	19.993	103.102	19.961	2.546	0.541
1078.000	618.372	80.002	19.995	103.106	19.955	2.954	0.534
1080.000	619.396	80.002	19.994	103.106	19.956	2.853	0.532
1082.001	620.490	80.002	19.994	103.100	19.955	2.958	0.512
1084.001	621.559	80.002	19.994	103.097	19.955	2.956	0.530
1086.002	622.600	80.003	19.995	103.102	19.958	2.769	0.524
1088.000	623.688	80.002	19.995	103.105	19.958	2.740	0.534
1090.000	624.777	80.001	19.995	103.103	19.953	3.076	0.539
1092.000	625.788	80.001	19.994	103.106	19.953	3.082	0.496
1094.000	626.850	79.999	19.994	103.098	19.956	2.907	0.546
1096.000	627.934	79.999	19.993	103.106	19.964	2.343	0.523
1098.000	628.960	80.001	19.995	103.107	19.957	2.833	0.518
1100.001	629.968	80.001	19.994	103.086	19.963	2.438	0.500
1102.001	631.109	80.002	19.994	103.097	19.960	2.625	0.555
1104.000	632.126	80.001	19.994	103.075	19.958	2.749	0.535
1106.000	633.166	80.003	19.994	103.091	19.961	2.530	0.532
1108.001	634.224	80.001	19.993	103.099	19.966	2.194	0.545
1110.000	635.289	80.003	19.996	103.099	19.964	2.375	0.539
1112.000	636.351	80.002	19.994	103.099	19.965	2.256	0.530
1114.001	637.393	80.003	19.995	103.099	19.961	2.523	0.534
1116.000	638.408	80.002	19.995	103.086	19.957	2.797	0.526
1118.000	639.482	80.000	19.995	103.095	19.961	2.550	0.536
1120.000	640.536	80.000	19.994	103.102	19.967	2.124	0.536
1122.000	641.560	80.001	19.996	103.098	19.967	2.144	0.525
1124.000	642.601	80.000	19.994	103.100	19.960	2.592	0.540
1126.000	643.610	80.003	19.995	103.100	19.967	2.144	0.498
1128.000	644.632	80.003	19.994	103.097	19.959	2.665	0.498
1130.001	645.665	80.001	19.993	103.100	19.958	2.754	0.524
1132.001	646.691	80.004	19.994	103.096	19.971	1.898	0.521
1134.000	647.719	80.003	19.995	103.091	19.965	2.284	0.500
1136.001	648.752	80.003	19.994	103.094	19.970	1.964	0.507
1138.000	649.770	80.001	19.993	103.085	19.969	2.016	0.539
1140.000	650.830	80.001	19.993	103.076	19.968	2.113	0.534
1142.000	651.779	80.000	19.994	103.100	19.967	2.147	0.471
1144.001	652.836	80.002	19.993	103.087	19.968	2.078	0.530
1146.000	653.848	80.001	19.995	103.082	19.970	1.978	0.519
1148.001	654.922	80.001	19.994	103.088	19.972	1.830	0.535
1150.001	655.949	80.000	19.994	103.099	19.976	1.581	0.540
1152.000	656.946	80.002	19.996	103.084	19.969	2.008	0.479
1154.000	657.982	80.001	19.994	103.094	19.973	1.736	0.487
1156.000	659.013	80.003	19.993	103.092	19.969	2.028	0.505
1158.000	660.041	80.002	19.994	103.093	19.968	2.108	0.492
1160.001	661.069	80.001	19.994	103.084	19.975	1.611	0.522
1162.000	662.069	80.001	19.994	103.088	19.968	2.070	0.496
1164.001	663.170	80.001	19.995	103.093	19.973	1.759	0.544
1166.000	664.127	80.001	19.995	103.088	19.971	1.914	0.527
1168.000	665.153	80.001	19.994	103.079	19.973	1.784	0.512
1170.000	666.177	80.002	19.995	103.078	19.967	2.133	0.521
1172.001	667.208	80.000	19.994	103.080	19.974	1.709	0.523
1174.001	668.195	80.001	19.994	103.079	19.973	1.755	0.488
1176.001	669.249	80.001	19.994	103.078	19.973	1.784	0.525
1178.000	670.250	80.001	19.993	103.078	19.975	1.602	0.505
1180.000	671.325	80.003	19.995	103.085	19.977	1.470	0.565
1182.000	672.315	80.003	19.994	103.080	19.973	1.738	0.518
1184.000	673.362	80.001	19.993	103.083	19.976	1.583	0.526
1186.000	674.390	80.003	19.994	103.084	19.972	1.830	0.530
1188.001	675.417	80.003	19.995	103.072	19.970	1.971	0.495
1190.001	676.450	80.003	19.995	103.077	19.971	1.882	0.527
1192.000	677.453	80.002	19.995	103.078	19.978	1.412	0.523
1194.000	678.447	80.003	19.995	103.089	19.974	1.713	0.503
1196.000	679.464	80.003	19.995	103.087	19.978	1.430	0.514
1198.000	680.509	80.002	19.995	103.081	19.973	1.734	0.519
1200.001	681.483	80.001	19.993	103.074	19.972	1.843	0.482
1202.000	682.482	80.001	19.993	103.068	19.972	1.837	0.516
1204.000	683.471	80.002	19.995	103.080	19.980	1.321	0.487
1206.000	684.460	80.003	19.994	103.081	19.971	1.898	0.488
1208.001	685.482	80.003	19.994	103.081	19.981	1.205	0.498
1210.000	686.492	80.004	19.995	103.078	19.975	1.625	0.468
1212.000	687.451	80.005	19.994	103.087	19.978	1.422	0.491
1214.000	688.462	80.003	19.995	103.076	19.978	1.463	0.511
1216.000	689.463	80.004	19.994	103.085	19.977	1.502	0.487
1218.000	690.498	80.002	19.995	103.080	19.978	1.435	0.492
1220.000	691.496	80.001	19.995	103.075	19.977	1.504	0.487
1222.000	692.508	80.001	19.997	103.070	19.978	1.458	0.503
1224.001	693.500	80.000	19.994	103.075	19.980	1.285	0.488
1226.000	694.525	80.002	19.995	103.071	19.976	1.559	0.507
1228.000	695.495	80.001	19.995	103.078	19.976	1.563	0.514
1230.000	696.513	80.002	19.994	103.080	19.979	1.364	0.517
1232.000	697.541	80.003	19.995	103.079	19.978	1.458	0.493
1234.000	698.499	80.002	19.995	103.070	19.973	1.734	0.501
1236.000	699.527	80.000	19.993	103.074	19.978	1.433	0.479
1238.000	700.506	80.003	19.994	103.072	19.977	1.531	0.495
1240.000	701.505	80.003	19.994	103.081	19.984	1.020	0.475
1242.000	702.517	80.001	19.993	103.070	19.975	1.618	0.511
1244.000	703.506	80.001	19.994	103.071	19.978	1.410	0.503
1246.000	704.517	80.001	19.992	103.075	19.980	1.298	0.505
1248.001	705.538	80.001	19.994	103.084	19.981	1.230	0.532
1250.001	706.521	80.001	19.994	103.076	19.977	1.486	0.498
1252.000	707.549	80.002	19.993	103.086	19.978	1.408	0.514
1254.000	708.590	80.001	19.995	103.083	19.977	1.517	0.527
1256.000	709.546	80.001	19.994	103.074	19.977	1.519	0.472
1258.000	710.596	80.001	19.994	103.076	19.974	1.695	0.507
1260.000	711.569	80.003	19.995	103.075	19.980	1.283	0.489
1262.000	712.619	80.003	19.996	103.072	19.977	1.470	0.534
1264.000	713.625	80.003	19.994	103.083	19.978	1.433	0.501
1266.000	714.614	80.005	19.994	103.084	19.976	1.579	0.490
1268.000	715.685	80.004	19.992	103.081	19.974	1.688	0.506
1270.000	716.699	80.004	19.993	103.080	19.975	1.618	0.505
1272.000	717.686	80.003	19.992	103.077	19.975	1.632	0.510
1274.001	718.719	80.003	19.995	103.080	19.976	1.554	0.504
1276.000	719.725	80.002	19.994	103.072	19.975	1.602	0.498
1278.000	720.748	80.001	19.994	103.076	19.975	1.647	0.508
1280.000	721.743	80.002	19.995	103.071	19.973	1.768	0.504
1282.001	722.788	80.001	19.994	103.071	19.973	1.738	0.514
1284.001	723.783	80.002	19.994	103.088	19.977	1.479	0.492
1286.000	724.811	80.001	19.994	103.089	19.978	1.440	0.498
1288.000	725.862	80.004	19.995	103.073	19.978	1.426	0.529
1290.000	726.868	80.003	19.996	103.069	19.975	1.625	0.513
1292.001	727.853	80.004	19.994	103.080	19.976	1.575	0.494
1294.000	728.912	80.004	19.995	103.084	19.974	1.702	0.522
1296.000	729.932	80.002	19.993	103.073	19.976	1.577	0.496
1298.000	730.946	80.003	19.994	103.078	19.978	1.433	0.504
1300.000	731.998	80.003	19.994	103.070	19.976	1.572	0.515
1302.000	732.988	80.001	19.994	103.075	19.974	1.707	0.499
1304.000	734.021	80.000	19.994	103.070	19.975	1.625	0.530
1306.000	735.026	80.001	19.995	103.070	19.971	1.924	0.512
1308.001	736.023	80.000	19.994	103.071	19.973	1.743	0.482
1310.000	737.048	80.000	19.996	103.071	19.974	1.725	0.525
1312.000	738.022	79.999	19.995	103.073	19.979	1.374	0.517
1314.000	739.053	80.000	19.995	103.082	19.979	1.394	0.510
1316.000	740.052	80.000	19.996	103.071	19.973	1.777	0.508
1318.000	741.105	80.001	19.996	103.078	19.975	1.629	0.538
1320.000	742.084	80.000	19.994	103.079	19.974	1.725	0.514
1322.000	743.065	80.000	19.994	103.075	19.972	1.842	0.497
1323.001	743.601	80.001	19.995	103.073	19.975	1.655	0.513