File: 01_Data/Polyester_Felt/MCC/Polyester_Felt_MCC_30K_min_210709_R2.txt
Sample ID:	C:\MCC\MCC Cal\Test\Polyester_Felt\Polyester_Felt_MCC_30K_min_21_07_09_R2.txt
Sample Weight (mg):	5.01
Heating Rate (C/s):	1
Combustor Temp (C):	900
N2 Flow Rate (cc/min):	80
O2 Flow Rate (cc/min):	20
Calibration File:	C:\MCC\MCC Cal\Coeff1 JN10440_30_210304.txt.txt
T Correction Coefficients:	0	1.024463	0
Time Shift (s):	14
*
Time (s)	Temperature (C)	N2 flow rate (cc/min)	O2 flow rate (cc/min)	Flow Rate (cc/min)	Oxygen (%)	HRR (W/g)	Heating rate (C/s)
0.000	107.164	79.994	19.996	99.974	20.038	0.241	-0.003
1.000	107.179	79.995	19.996	99.974	20.042	-0.029	-0.001
2.000	107.186	79.994	19.996	99.982	20.039	0.173	0.018
3.000	107.177	79.995	19.996	99.982	20.036	0.389	-0.016
4.000	107.179	79.995	19.997	99.976	20.038	0.236	-0.001
5.000	107.158	79.995	19.994	99.986	20.040	0.102	-0.032
6.000	107.160	79.994	19.995	99.990	20.035	0.444	0.032
7.000	107.149	79.995	19.996	99.987	20.035	0.452	-0.025
8.000	107.132	79.995	19.996	99.986	20.037	0.315	-0.002
9.000	107.144	79.993	19.995	99.998	20.033	0.541	-0.007
10.001	107.165	79.994	19.996	100.020	20.029	0.775	0.020
11.000	107.116	79.995	19.996	100.054	20.026	1.019	-0.019
12.000	107.167	79.994	19.995	100.095	20.021	1.305	0.022
13.000	107.166	79.995	19.995	100.120	20.019	1.407	-0.010
14.000	107.170	79.993	19.996	100.148	20.013	1.824	0.026
15.000	107.257	79.999	19.995	100.179	20.012	1.880	0.061
16.000	107.306	79.997	19.995	100.202	20.003	2.409	0.056
17.000	107.335	79.995	19.995	100.216	19.999	2.657	0.029
18.000	107.447	79.994	19.995	100.242	19.995	2.950	0.097
19.000	107.520	79.996	19.996	100.270	19.990	3.249	0.068
20.000	107.646	79.995	19.994	100.287	19.988	3.368	0.130
21.000	107.761	79.995	19.996	100.296	19.986	3.468	0.115
22.000	107.864	79.995	19.997	100.307	19.984	3.604	0.102
23.000	108.021	79.994	19.996	100.312	19.979	3.919	0.161
24.000	108.218	79.992	19.996	100.321	19.975	4.173	0.184
25.000	108.399	79.994	19.996	100.328	19.975	4.204	0.181
26.000	108.644	79.996	19.996	100.328	19.977	4.071	0.224
27.000	108.810	79.995	19.997	100.326	19.966	4.749	0.181
28.000	109.093	79.991	19.996	100.332	19.972	4.373	0.258
29.000	109.334	79.995	19.997	100.348	19.968	4.619	0.244
30.000	109.588	79.992	19.996	100.363	19.966	4.762	0.271
31.000	109.853	79.994	19.996	100.365	19.960	5.091	0.254
32.000	110.177	79.997	19.996	100.365	19.968	4.616	0.291
33.000	110.447	79.994	19.996	100.364	19.967	4.711	0.283
34.001	110.738	79.995	19.996	100.366	19.964	4.870	0.306
35.000	111.085	79.991	19.997	100.368	19.969	4.583	0.328
36.001	111.443	79.997	19.995	100.368	19.962	4.979	0.346
37.000	111.794	79.994	19.995	100.373	19.965	4.815	0.356
38.000	112.178	79.993	19.995	100.380	19.964	4.891	0.367
39.000	112.534	79.996	19.996	100.382	19.962	4.966	0.388
40.000	112.940	79.995	19.996	100.379	19.962	5.022	0.383
41.000	113.304	79.995	19.996	100.384	19.957	5.298	0.369
42.001	113.746	79.996	19.996	100.391	19.963	4.917	0.412
43.000	114.175	79.995	19.995	100.387	19.963	4.910	0.441
44.001	114.618	79.995	19.996	100.385	19.960	5.111	0.431
45.001	115.090	79.997	19.995	100.389	19.960	5.109	0.488
46.001	115.488	79.995	19.996	100.395	19.958	5.235	0.405
47.000	115.994	79.995	19.996	100.397	19.956	5.340	0.487
48.001	116.476	79.997	19.996	100.405	19.957	5.288	0.489
49.001	116.970	79.995	19.997	100.405	19.955	5.461	0.488
50.000	117.469	79.996	19.995	100.400	19.953	5.584	0.495
51.000	118.014	79.995	19.997	100.400	19.952	5.623	0.525
52.001	118.480	79.995	19.997	100.404	19.954	5.522	0.495
53.000	119.015	79.994	19.998	100.403	19.955	5.432	0.519
54.000	119.540	79.997	19.996	100.402	19.957	5.301	0.525
55.001	120.117	79.995	19.996	100.400	19.955	5.407	0.556
56.001	120.655	79.995	19.997	100.400	19.955	5.448	0.549
57.001	121.241	79.994	19.997	100.399	19.950	5.763	0.594
58.001	121.812	79.994	19.995	100.401	19.953	5.557	0.559
59.000	122.399	79.996	19.997	100.400	19.956	5.383	0.585
60.000	122.993	79.992	19.995	100.399	19.956	5.383	0.598
61.000	123.598	79.995	19.996	100.400	19.955	5.454	0.580
62.000	124.157	79.995	19.996	100.400	19.952	5.599	0.588
63.001	124.770	79.994	19.995	100.400	19.955	5.437	0.594
64.000	125.430	79.997	19.996	100.401	19.954	5.504	0.648
65.001	126.015	79.995	19.995	100.401	19.956	5.388	0.607
66.001	126.666	79.996	19.995	100.401	19.952	5.596	0.624
67.000	127.308	79.997	19.995	100.406	19.958	5.272	0.664
68.001	127.978	79.998	19.995	100.408	19.949	5.810	0.653
69.000	128.659	79.998	19.996	100.407	19.953	5.576	0.672
70.000	129.310	79.998	19.996	100.405	19.953	5.584	0.658
71.000	130.001	79.996	19.995	100.403	19.950	5.756	0.687
72.000	130.657	79.997	19.995	100.402	19.950	5.754	0.652
73.000	131.370	79.998	19.995	100.400	19.952	5.607	0.723
74.000	132.051	79.995	19.995	100.403	19.950	5.747	0.687
75.000	132.769	79.996	19.996	100.404	19.953	5.569	0.698
76.000	133.490	79.996	19.995	100.402	19.945	6.037	0.720
77.001	134.161	79.995	19.995	100.400	19.948	5.886	0.672
78.000	134.885	79.996	19.996	100.401	19.950	5.774	0.719
79.001	135.618	79.997	19.996	100.406	19.948	5.864	0.742
80.000	136.338	79.995	19.995	100.407	19.949	5.782	0.719
81.001	137.068	79.994	19.995	100.406	19.952	5.647	0.730
82.000	137.811	79.995	19.996	100.407	19.951	5.676	0.747
83.000	138.575	79.994	19.996	100.408	19.945	6.035	0.735
84.000	139.358	79.994	19.995	100.418	19.949	5.812	0.794
85.000	140.097	79.994	19.996	100.427	19.946	5.974	0.738
86.000	140.905	79.995	19.996	100.419	19.948	5.844	0.783
87.001	141.633	79.995	19.995	100.410	19.952	5.651	0.752
88.001	142.406	79.994	19.995	100.417	19.943	6.173	0.766
89.000	143.205	79.994	19.995	100.427	19.948	5.869	0.814
90.001	143.971	79.994	19.995	100.419	19.947	5.947	0.771
91.000	144.839	79.995	19.996	100.412	19.946	6.027	0.834
92.000	145.628	79.995	19.995	100.374	19.948	5.899	0.789
93.001	146.405	79.995	19.995	100.345	19.949	5.785	0.806
94.000	147.192	79.995	19.995	100.348	19.950	5.724	0.780
95.001	148.011	79.994	19.996	100.439	19.949	5.829	0.804
96.000	148.799	79.996	19.995	100.489	19.951	5.685	0.814
97.000	149.666	79.995	19.995	100.479	19.952	5.651	0.835
98.001	150.510	79.996	19.996	100.422	19.947	5.944	0.850
99.000	151.343	79.994	19.994	100.410	19.947	5.927	0.816
100.000	152.160	79.995	19.995	100.411	19.951	5.656	0.841
101.000	152.999	79.996	19.996	100.412	19.947	5.944	0.846
102.000	153.849	79.995	19.995	100.413	19.949	5.779	0.841
103.001	154.696	79.994	19.996	100.412	19.943	6.181	0.833
104.001	155.571	79.994	19.996	100.409	19.947	5.963	0.849
105.000	156.424	79.994	19.994	100.408	19.944	6.124	0.882
106.000	157.295	79.995	19.995	100.406	19.944	6.116	0.856
107.000	158.105	79.994	19.996	100.409	19.947	5.944	0.843
108.001	159.011	79.994	19.996	100.412	19.944	6.129	0.904
109.000	159.866	79.994	19.997	100.419	19.949	5.792	0.851
110.000	160.753	79.994	19.996	100.418	19.942	6.260	0.859
111.000	161.653	79.994	19.995	100.418	19.948	5.878	0.902
112.000	162.557	79.991	19.995	100.419	19.946	5.970	0.900
113.000	163.404	79.994	19.996	100.421	19.946	5.972	0.852
114.001	164.305	79.995	19.997	100.427	19.947	5.964	0.901
115.000	165.212	79.993	19.996	100.422	19.942	6.215	0.918
116.000	166.087	79.996	19.997	100.414	19.943	6.186	0.878
117.001	167.034	79.995	19.995	100.413	19.946	6.001	0.927
118.000	167.942	79.996	19.997	100.412	19.946	5.989	0.913
119.000	168.884	79.995	19.997	100.411	19.940	6.379	0.930
120.001	169.787	79.993	19.996	100.407	19.939	6.460	0.910
121.000	170.717	79.998	19.996	100.404	19.941	6.287	0.936
122.000	171.660	79.994	19.996	100.403	19.943	6.191	0.948
123.000	172.598	79.993	19.997	100.403	19.944	6.149	0.927
124.000	173.524	79.997	19.996	100.402	19.943	6.207	0.925
125.000	174.489	79.997	19.995	100.402	19.946	6.023	0.943
126.001	175.393	79.994	19.997	100.402	19.943	6.165	0.928
127.000	176.275	79.998	19.997	100.401	19.944	6.090	0.918
128.000	177.254	79.998	19.996	100.400	19.940	6.347	0.948
129.000	178.245	79.998	19.996	100.400	19.944	6.145	0.967
130.000	179.166	79.997	19.997	100.401	19.940	6.364	0.948
131.000	180.112	79.995	19.996	100.399	19.945	6.059	0.940
132.000	181.070	79.996	19.997	100.398	19.941	6.308	0.963
133.000	182.043	79.994	19.996	100.399	19.943	6.196	0.955
134.000	183.018	79.993	19.995	100.398	19.944	6.113	0.995
135.000	183.956	79.995	19.997	100.397	19.944	6.136	0.940
136.000	184.951	79.996	19.997	100.395	19.945	6.035	0.951
137.000	185.965	79.994	19.997	100.389	19.943	6.198	1.031
138.000	186.985	79.995	19.997	100.387	19.945	6.048	1.012
139.000	187.959	79.995	19.996	100.390	19.948	5.885	0.987
140.000	188.934	79.994	19.996	100.393	19.948	5.891	0.984
141.000	189.953	79.995	19.996	100.384	19.946	6.022	0.982
142.000	190.911	79.993	19.997	100.375	19.943	6.157	0.984
143.000	191.913	79.995	19.997	100.378	19.951	5.684	1.006
144.000	192.892	79.995	19.996	100.389	19.949	5.827	0.958
145.000	193.883	79.998	19.998	100.390	19.947	5.949	1.000
146.000	194.865	79.999	19.996	100.380	19.945	6.080	0.988
147.000	195.859	79.998	19.998	100.366	19.950	5.743	0.988
148.000	196.851	79.996	19.997	100.368	19.950	5.730	1.000
149.000	197.870	80.000	19.996	100.369	19.946	5.978	1.018
150.000	198.878	79.997	19.996	100.371	19.949	5.825	0.992
151.001	199.883	79.997	19.995	100.362	19.949	5.834	1.032
152.000	200.895	79.997	19.996	100.363	19.948	5.876	0.992
153.000	201.906	79.996	19.996	100.361	19.945	6.036	1.013
154.000	202.923	79.997	19.995	100.360	19.946	6.007	1.015
155.000	203.973	79.995	19.995	100.361	19.946	5.988	1.034
156.000	204.943	79.996	19.996	100.360	19.951	5.699	0.988
157.000	205.945	79.995	19.996	100.360	19.952	5.624	1.011
158.000	207.045	79.997	19.996	100.360	19.949	5.807	1.063
159.000	208.007	79.995	19.997	100.361	19.947	5.928	1.003
160.001	209.039	79.995	19.996	100.362	19.952	5.593	1.018
161.000	210.072	79.994	19.996	100.365	19.952	5.589	1.044
162.000	211.090	79.994	19.995	100.365	19.952	5.647	1.009
163.000	212.110	79.993	19.995	100.363	19.953	5.548	1.011
164.000	213.087	79.995	19.996	100.363	19.950	5.765	0.996
165.000	214.158	79.995	19.995	100.363	19.955	5.454	1.039
166.000	215.138	79.992	19.995	100.362	19.949	5.798	0.998
167.000	216.166	79.994	19.995	100.360	19.952	5.645	1.032
168.000	217.185	79.995	19.995	100.352	19.955	5.406	1.024
169.000	218.216	79.995	19.995	100.346	19.952	5.587	1.008
170.000	219.214	79.997	19.996	100.344	19.952	5.602	1.008
171.000	220.197	79.996	19.997	100.347	19.956	5.377	0.999
172.000	221.239	79.993	19.996	100.346	19.955	5.416	1.020
173.000	222.293	79.994	19.995	100.336	19.953	5.574	1.037
174.000	223.311	79.993	19.997	100.330	19.954	5.522	1.028
175.000	224.299	79.994	19.995	100.330	19.959	5.188	1.023
176.000	225.360	79.995	19.995	100.333	19.951	5.669	1.023
177.000	226.366	79.994	19.995	100.333	19.955	5.413	1.004
178.000	227.352	79.996	19.995	100.333	19.956	5.363	0.999
179.000	228.395	79.997	19.995	100.330	19.958	5.270	1.054
180.000	229.460	79.994	19.995	100.328	19.958	5.270	1.049
181.000	230.472	79.996	19.995	100.327	19.956	5.387	1.021
182.000	231.515	79.994	19.996	100.327	19.959	5.168	1.042
183.000	232.497	79.993	19.996	100.327	19.960	5.099	0.987
184.001	233.525	79.996	19.995	100.325	19.960	5.122	1.027
185.000	234.585	79.997	19.996	100.323	19.960	5.101	1.059
186.000	235.621	79.996	19.995	100.317	19.962	4.967	1.032
187.000	236.593	79.994	19.997	100.317	19.964	4.871	1.004
188.000	237.661	79.996	19.995	100.322	19.963	4.951	1.025
189.000	238.656	79.997	19.995	100.324	19.968	4.618	1.024
190.000	239.662	79.995	19.996	100.321	19.966	4.710	1.000
191.000	240.735	79.996	19.995	100.321	19.966	4.764	1.044
192.000	241.704	79.994	19.996	100.319	19.967	4.678	0.988
193.000	242.726	79.994	19.995	100.318	19.966	4.746	1.023
194.000	243.775	79.994	19.995	100.317	19.966	4.715	1.047
195.001	244.802	79.993	19.995	100.319	19.965	4.821	1.023
196.000	245.796	79.995	19.996	100.318	19.969	4.539	1.021
197.000	246.873	79.996	19.995	100.313	19.967	4.704	1.045
198.000	247.829	79.996	19.996	100.309	19.971	4.440	0.973
199.000	248.862	79.996	19.996	100.307	19.967	4.688	1.019
200.000	249.922	79.997	19.996	100.308	19.966	4.724	1.048
201.000	250.890	79.996	19.996	100.312	19.967	4.654	1.009
202.000	251.918	79.997	19.996	100.299	19.969	4.581	1.016
203.000	252.931	79.998	19.997	100.290	19.970	4.515	1.008
204.000	253.957	79.997	19.996	100.290	19.971	4.428	1.014
205.000	254.950	79.997	19.996	100.290	19.967	4.686	0.986
206.000	255.927	79.997	19.996	100.297	19.970	4.462	1.007
207.000	256.936	79.997	19.996	100.296	19.971	4.440	0.994
208.000	257.924	79.997	19.996	100.296	19.972	4.334	1.004
209.000	258.931	79.996	19.996	100.287	19.972	4.377	0.989
210.000	259.934	79.998	19.996	100.285	19.972	4.367	1.017
211.000	260.927	79.997	19.996	100.283	19.973	4.290	0.992
212.000	261.875	79.995	19.995	100.283	19.976	4.144	0.959
213.000	262.904	79.996	19.996	100.284	19.974	4.224	1.017
214.000	263.854	79.994	19.995	100.284	19.974	4.222	0.972
215.000	264.900	79.995	19.996	100.284	19.975	4.147	1.014
216.000	265.906	79.996	19.996	100.283	19.978	4.013	0.998
217.000	266.897	79.996	19.996	100.284	19.974	4.263	0.999
218.000	267.853	79.997	19.996	100.284	19.977	4.083	0.960
219.000	268.853	79.995	19.995	100.282	19.978	4.008	1.011
220.000	269.844	79.996	19.996	100.282	19.976	4.085	0.966
221.000	270.895	79.995	19.996	100.283	19.975	4.167	1.028
222.000	271.867	79.997	19.996	100.285	19.976	4.140	1.011
223.001	272.917	79.994	19.996	100.285	19.976	4.107	1.045
224.000	273.832	79.997	19.996	100.278	19.975	4.204	0.930
225.000	274.861	79.997	19.996	100.273	19.977	4.077	1.017
226.000	275.914	79.996	19.995	100.276	19.981	3.814	1.033
227.000	276.863	79.997	19.996	100.281	19.979	3.941	0.963
228.000	277.844	79.997	19.996	100.283	19.984	3.593	1.001
229.000	278.834	79.997	19.996	100.284	19.979	3.902	0.976
230.000	279.846	79.997	19.996	100.281	19.977	4.055	1.008
231.000	280.794	79.995	19.996	100.270	19.976	4.130	0.966
232.000	281.754	79.997	19.997	100.270	19.979	3.953	0.952
233.000	282.759	79.996	19.996	100.272	19.977	4.023	1.005
234.000	283.751	79.996	19.997	100.267	19.977	4.030	0.995
235.000	284.709	79.995	19.997	100.265	19.977	4.074	0.975
236.000	285.735	79.995	19.996	100.272	19.977	4.031	0.996
237.000	286.705	79.996	19.997	100.276	19.976	4.098	0.992
238.000	287.694	79.993	19.996	100.282	19.978	3.991	0.966
239.000	288.672	79.994	19.996	100.282	19.979	3.929	0.977
240.000	289.665	79.993	19.995	100.276	19.979	3.909	0.998
241.000	290.657	79.993	19.995	100.276	19.979	3.900	0.998
242.000	291.638	79.996	19.996	100.281	19.977	4.041	0.987
243.000	292.643	79.995	19.995	100.283	19.981	3.830	0.991
244.000	293.622	79.995	19.996	100.274	19.981	3.801	0.981
245.000	294.594	79.996	19.995	100.273	19.979	3.934	0.973
246.000	295.612	79.995	19.996	100.270	19.976	4.102	1.000
247.000	296.574	79.995	19.995	100.277	19.977	4.080	0.998
248.000	297.589	79.995	19.995	100.275	19.977	4.029	0.994
249.000	298.535	79.996	19.995	100.279	19.980	3.863	0.968
250.000	299.539	79.996	19.994	100.278	19.976	4.124	0.991
251.000	300.525	79.996	19.996	100.271	19.977	4.035	0.967
252.001	301.470	79.995	19.995	100.264	19.978	4.003	0.974
253.001	302.505	79.995	19.996	100.260	19.976	4.119	1.015
254.000	303.483	79.995	19.995	100.257	19.976	4.100	0.995
255.001	304.470	79.995	19.996	100.258	19.977	4.059	0.983
256.001	305.455	79.996	19.996	100.265	19.975	4.166	1.001
257.001	306.452	79.995	19.995	100.268	19.977	4.062	0.970
258.001	307.440	79.998	19.995	100.260	19.977	4.078	1.002
259.001	308.420	79.996	19.996	100.263	19.977	4.037	0.974
260.000	309.405	79.995	19.995	100.264	19.973	4.321	0.994
261.000	310.394	79.996	19.996	100.255	19.972	4.334	0.982
262.000	311.415	79.996	19.997	100.248	19.979	3.904	1.014
263.001	312.407	79.995	19.995	100.246	19.975	4.164	0.974
264.000	313.430	79.994	19.995	100.249	19.976	4.090	1.045
265.000	314.406	79.996	19.995	100.255	19.979	3.947	0.985
266.000	315.392	79.996	19.996	100.255	19.978	3.974	0.985
267.000	316.417	79.994	19.995	100.254	19.976	4.124	1.011
268.000	317.394	79.995	19.996	100.246	19.974	4.246	0.998
269.000	318.385	79.996	19.996	100.246	19.978	3.976	0.965
270.001	319.394	79.995	19.995	100.246	19.976	4.127	1.010
271.001	320.360	79.995	19.996	100.246	19.968	4.608	0.973
272.001	321.402	79.994	19.996	100.249	19.973	4.292	1.037
273.000	322.358	79.994	19.996	100.249	19.971	4.396	0.979
274.000	323.376	79.996	19.996	100.249	19.978	4.005	0.995
275.001	324.381	79.995	19.996	100.245	19.972	4.372	1.023
276.000	325.376	79.995	19.996	100.246	19.972	4.341	0.966
277.000	326.369	79.997	19.996	100.248	19.970	4.469	1.012
278.001	327.366	79.997	19.996	100.248	19.970	4.492	0.995
279.000	328.343	79.996	19.994	100.247	19.970	4.469	0.977
280.000	329.342	79.995	19.995	100.250	19.971	4.455	1.002
281.000	330.338	79.997	19.995	100.249	19.978	4.006	1.012
282.000	331.330	79.997	19.996	100.247	19.966	4.707	0.981
283.000	332.339	79.997	19.995	100.246	19.971	4.395	0.997
284.000	333.326	79.998	19.996	100.248	19.968	4.643	0.998
285.000	334.338	79.998	19.995	100.247	19.971	4.402	1.019
286.000	335.328	79.997	19.995	100.244	19.969	4.581	0.996
287.000	336.380	79.995	19.995	100.243	19.972	4.363	1.017
288.000	337.346	79.998	19.995	100.245	19.972	4.356	0.981
289.000	338.350	79.996	19.994	100.246	19.969	4.576	1.018
290.001	339.376	79.996	19.996	100.243	19.967	4.691	1.007
291.001	340.342	79.996	19.996	100.243	19.972	4.367	0.988
292.001	341.384	79.996	19.995	100.245	19.964	4.883	1.004
293.000	342.395	79.996	19.996	100.246	19.964	4.863	1.038
294.000	343.343	79.997	19.995	100.241	19.968	4.618	0.958
295.000	344.403	79.996	19.996	100.239	19.963	4.913	1.047
296.000	345.408	79.997	19.997	100.243	19.964	4.867	1.002
297.000	346.423	79.995	19.995	100.244	19.969	4.565	0.999
298.000	347.422	79.996	19.996	100.245	19.966	4.740	1.001
299.000	348.418	79.995	19.996	100.246	19.964	4.859	1.009
300.001	349.459	79.995	19.996	100.247	19.966	4.727	1.041
301.001	350.469	79.996	19.996	100.247	19.959	5.145	1.018
302.001	351.468	79.996	19.995	100.247	19.961	5.073	0.991
303.000	352.462	79.997	19.996	100.246	19.959	5.167	1.012
304.001	353.521	79.997	19.996	100.246	19.955	5.453	1.032
305.000	354.546	79.997	19.995	100.240	19.959	5.147	1.020
306.001	355.547	79.998	19.995	100.235	19.956	5.351	1.005
307.000	356.518	79.997	19.996	100.232	19.949	5.826	0.982
308.000	357.569	79.999	19.995	100.237	19.951	5.645	1.042
309.000	358.592	79.997	19.995	100.239	19.954	5.465	1.005
310.000	359.544	79.997	19.994	100.243	19.951	5.645	1.007
311.001	360.537	79.999	19.994	100.236	19.954	5.507	1.004
312.000	361.608	79.998	19.996	100.235	19.948	5.866	1.005
313.000	362.575	79.997	19.995	100.235	19.947	5.909	0.995
314.000	363.577	79.996	19.995	100.240	19.945	6.046	1.006
315.000	364.547	79.998	19.996	100.241	19.945	6.048	0.977
316.000	365.575	79.996	19.996	100.241	19.942	6.228	1.029
317.001	366.511	79.996	19.996	100.240	19.943	6.179	0.982
318.001	367.627	79.995	19.997	100.241	19.938	6.466	1.063
319.001	368.416	79.996	19.997	100.242	19.937	6.573	0.894
320.000	369.744	79.995	19.997	100.243	19.936	6.639	1.166
321.000	370.603	79.995	19.996	100.243	19.929	7.027	0.804
322.001	371.291	79.995	19.996	100.241	19.930	6.956	0.829
323.000	372.630	79.994	19.998	100.244	19.927	7.159	1.412
324.001	373.668	79.993	19.997	100.250	19.918	7.736	0.851
325.001	374.760	79.994	19.997	100.250	19.920	7.632	1.113
326.000	375.662	79.995	19.996	100.246	19.909	8.299	0.962
327.000	376.740	79.995	19.997	100.246	19.904	8.618	1.051
328.001	377.702	79.995	19.996	100.247	19.901	8.825	0.961
329.000	378.719	79.995	19.996	100.246	19.896	9.080	1.058
330.000	379.803	79.995	19.997	100.245	19.892	9.383	1.031
331.001	380.796	79.994	19.996	100.247	19.877	10.305	1.027
332.000	381.825	79.995	19.996	100.256	19.881	10.066	1.004
333.001	382.790	79.996	19.996	100.258	19.867	10.935	0.985
334.001	383.769	79.996	19.995	100.247	19.863	11.157	1.023
335.000	384.850	79.996	19.996	100.256	19.856	11.641	1.031
336.000	385.830	79.995	19.996	100.267	19.851	11.917	0.990
337.000	386.844	79.997	19.996	100.276	19.836	12.840	1.015
338.000	387.854	79.996	19.996	100.270	19.833	13.049	1.019
339.001	388.886	79.994	19.995	100.263	19.823	13.669	1.022
340.000	389.872	79.995	19.997	100.263	19.812	14.350	0.997
341.001	390.915	79.995	19.996	100.269	19.805	14.810	1.031
342.000	391.973	79.994	19.995	100.274	19.795	15.425	1.054
343.000	392.999	79.996	19.996	100.278	19.782	16.256	1.025
344.000	394.029	79.995	19.997	100.286	19.771	16.937	1.039
345.000	395.057	79.994	19.995	100.286	19.754	18.009	1.026
346.000	396.095	79.995	19.996	100.295	19.739	18.959	1.035
347.001	397.114	79.995	19.994	100.306	19.718	20.244	1.028
348.000	398.119	79.994	19.996	100.316	19.701	21.323	0.996
349.000	399.141	79.994	19.995	100.323	19.684	22.367	1.003
350.000	400.204	79.994	19.996	100.330	19.663	23.716	1.078
351.001	401.187	79.995	19.995	100.338	19.646	24.747	1.006
352.000	402.193	79.995	19.996	100.349	19.618	26.508	0.982
353.001	403.253	79.995	19.996	100.365	19.587	28.441	1.046
354.000	404.271	79.995	19.996	100.381	19.556	30.442	1.044
355.000	405.269	79.995	19.996	100.393	19.517	32.877	1.005
356.000	406.318	79.993	19.996	100.406	19.496	34.215	1.040
357.000	407.309	79.995	19.995	100.418	19.452	36.963	0.998
358.000	408.364	79.995	19.995	100.432	19.403	39.987	1.047
359.001	409.375	79.995	19.995	100.444	19.362	42.601	1.017
360.001	410.416	79.994	19.995	100.461	19.320	45.225	1.035
361.000	411.426	79.996	19.996	100.481	19.283	47.538	1.029
362.000	412.472	79.997	19.994	100.481	19.239	50.240	1.019
363.000	413.448	79.997	19.994	100.481	19.192	53.208	1.009
364.000	414.487	79.996	19.997	100.495	19.138	56.577	1.043
365.000	415.525	79.998	19.995	100.521	19.070	60.922	1.014
366.000	416.520	79.997	19.995	100.542	19.012	64.609	0.992
367.000	417.602	79.998	19.996	100.599	18.955	68.234	1.072
368.001	418.631	79.997	19.995	100.580	18.914	70.828	1.046
369.000	419.687	79.996	19.994	100.560	18.872	73.499	1.039
370.000	420.730	79.996	19.996	100.547	18.833	75.989	1.054
371.000	421.753	79.998	19.996	100.570	18.799	78.129	1.034
372.000	422.778	79.998	19.996	100.550	18.760	80.567	1.011
373.000	423.812	79.995	19.995	100.513	18.722	82.972	1.035
374.000	424.870	79.995	19.994	100.481	18.673	86.067	1.073
375.000	425.911	79.997	19.995	100.516	18.622	89.355	1.030
376.000	426.947	79.996	19.996	100.629	18.564	93.042	1.043
377.000	427.969	79.996	19.996	100.761	18.492	97.640	1.030
378.001	429.049	79.998	19.995	100.822	18.426	101.835	1.055
379.000	430.097	79.996	19.996	100.847	18.349	106.731	1.033
380.000	431.098	79.997	19.996	100.876	18.264	112.141	1.021
381.000	432.119	79.997	19.996	100.903	18.172	118.042	1.033
382.001	433.166	79.996	19.995	100.914	18.069	124.629	1.025
383.001	434.227	79.996	19.998	100.941	17.964	131.315	1.073
384.000	435.240	79.998	19.996	100.962	17.857	138.092	1.003
385.000	436.238	79.998	19.997	100.992	17.733	145.966	1.021
386.000	437.264	79.996	19.995	101.034	17.601	154.345	1.014
387.000	438.306	79.997	19.996	101.086	17.459	163.398	1.048
388.001	439.334	80.000	19.997	101.157	17.312	172.637	1.018
389.001	440.348	79.998	19.995	101.205	17.159	182.263	1.026
390.001	441.335	79.997	19.995	101.225	16.993	192.667	0.977
391.001	442.382	79.997	19.995	101.272	16.822	203.485	1.054
392.000	443.395	79.997	19.996	101.355	16.636	215.279	0.997
393.000	444.362	79.996	19.996	101.433	16.458	226.615	0.976
394.001	445.354	79.997	19.996	101.480	16.264	239.086	0.992
395.000	446.319	79.996	19.996	101.493	16.088	250.505	0.979
396.000	447.303	79.996	19.996	101.510	15.915	261.703	0.995
397.000	448.342	79.997	19.996	101.546	15.771	271.073	1.012
398.000	449.295	79.996	19.997	101.566	15.653	278.651	0.976
399.000	450.303	79.996	19.996	101.559	15.556	284.772	0.996
400.000	451.317	79.995	19.997	101.528	15.458	290.863	1.028
401.000	452.301	79.995	19.996	101.489	15.392	294.940	0.971
402.001	453.282	79.995	19.997	101.476	15.322	299.287	0.983
403.000	454.334	79.994	19.997	101.492	15.259	303.248	1.043
404.000	455.327	79.995	19.996	101.533	15.202	306.776	1.003
405.000	456.335	79.995	19.996	101.614	15.159	309.412	1.003
406.001	457.347	79.994	19.996	101.725	15.115	312.092	0.992
407.000	458.330	79.995	19.998	101.839	15.088	313.683	1.000
408.001	459.344	79.996	19.997	101.921	15.067	314.897	1.015
409.001	460.365	79.995	19.998	101.946	15.061	315.179	1.018
410.000	461.346	79.994	19.998	101.929	15.069	314.562	1.000
411.000	462.399	79.995	19.996	101.894	15.086	313.359	1.032
412.001	463.414	79.996	19.997	101.860	15.118	311.195	1.016
413.000	464.431	79.995	19.998	101.831	15.176	307.364	1.010
414.000	465.432	79.995	19.997	101.811	15.235	303.528	1.023
415.001	466.421	79.995	19.997	101.788	15.319	298.058	0.988
416.000	467.472	79.995	19.996	101.755	15.409	292.323	1.036
417.001	468.525	79.996	19.996	101.709	15.523	285.005	1.032
418.000	469.496	79.995	19.996	101.672	15.655	276.617	1.011
419.000	470.573	79.996	19.998	101.639	15.790	268.026	1.034
420.000	471.611	79.995	19.997	101.609	15.939	258.517	1.040
421.001	472.594	79.994	19.995	101.566	16.107	247.832	1.011
422.001	473.691	79.995	19.996	101.530	16.280	236.838	1.079
423.000	474.686	79.997	19.997	101.482	16.456	225.681	1.006
424.000	475.750	79.995	19.995	101.435	16.636	214.238	1.062
425.000	476.788	79.995	19.997	101.391	16.822	202.452	1.047
426.001	477.827	79.994	19.995	101.349	17.001	191.127	1.046
427.000	478.856	79.995	19.996	101.313	17.176	180.063	1.013
428.000	479.889	79.995	19.996	101.286	17.353	168.815	1.029
429.000	480.955	79.996	19.995	101.256	17.527	157.836	1.073
430.000	482.016	79.994	19.995	101.215	17.697	147.143	1.060
431.001	483.016	79.994	19.995	101.174	17.854	137.201	0.997
432.000	484.079	79.995	19.996	101.135	18.006	127.629	1.060
433.000	485.138	79.997	19.995	101.098	18.154	118.304	1.047
434.000	486.150	79.995	19.996	101.057	18.295	109.404	1.053
435.000	487.174	79.995	19.995	101.011	18.423	101.370	1.012
436.001	488.265	79.995	19.995	100.967	18.545	93.741	1.060
437.000	489.292	79.996	19.996	100.924	18.667	86.030	1.037
438.000	490.318	79.995	19.996	100.878	18.770	79.565	1.044
439.000	491.359	79.995	19.996	100.828	18.876	72.917	1.036
440.001	492.428	79.997	19.996	100.783	18.966	67.274	1.054
441.000	493.432	79.997	19.995	100.742	19.055	61.735	1.014
442.001	494.506	79.998	19.995	100.710	19.134	56.785	1.065
443.000	495.566	79.995	19.994	100.672	19.211	51.909	1.066
444.000	496.579	79.997	19.995	100.630	19.275	47.893	1.017
445.000	497.624	79.996	19.996	100.591	19.338	43.951	1.052
446.000	498.672	79.998	19.995	100.558	19.403	39.899	1.053
447.000	499.683	79.999	19.996	100.530	19.454	36.729	1.015
448.000	500.749	79.999	19.996	100.499	19.499	33.910	1.045
449.001	501.751	79.997	19.995	100.475	19.542	31.229	1.015
450.000	502.769	79.996	19.994	100.446	19.582	28.731	1.009
451.000	503.785	79.998	19.995	100.420	19.616	26.614	1.025
452.001	504.822	79.996	19.995	100.400	19.651	24.417	1.031
453.000	505.841	79.998	19.997	100.384	19.683	22.401	1.012
454.000	506.844	79.997	19.996	100.361	19.711	20.648	1.008
455.001	507.888	79.997	19.994	100.339	19.737	19.006	1.054
456.000	508.903	79.997	19.996	100.324	19.752	18.102	1.017
457.000	509.958	79.997	19.996	100.316	19.771	16.920	1.031
458.000	510.996	79.996	19.995	100.303	19.794	15.499	1.037
459.000	511.959	79.998	19.996	100.286	19.808	14.568	1.000
460.000	513.011	79.997	19.996	100.271	19.823	13.660	1.021
461.000	514.032	79.996	19.996	100.264	19.838	12.731	1.031
462.001	515.071	79.997	19.997	100.261	19.849	12.009	1.034
463.001	516.074	79.998	19.997	100.254	19.853	11.813	1.021
464.000	517.090	79.997	19.995	100.238	19.864	11.076	1.013
465.000	518.096	79.997	19.995	100.220	19.873	10.560	1.008
466.001	519.114	79.998	19.996	100.216	19.877	10.315	1.012
467.000	520.159	79.997	19.996	100.214	19.883	9.894	1.031
468.001	521.189	79.998	19.996	100.207	19.893	9.295	1.034
469.000	522.228	79.997	19.996	100.205	19.892	9.321	1.040
470.000	523.229	79.998	19.995	100.204	19.902	8.699	1.002
471.001	524.178	79.997	19.997	100.204	19.904	8.602	0.981
472.000	525.223	79.997	19.995	100.203	19.907	8.420	1.020
473.000	526.243	79.996	19.996	100.203	19.912	8.129	1.036
474.001	527.278	79.996	19.995	100.202	19.912	8.094	1.008
475.000	528.305	79.997	19.996	100.187	19.917	7.783	1.017
476.000	529.294	79.996	19.996	100.174	19.918	7.740	1.001
477.001	530.273	79.996	19.997	100.174	19.921	7.511	1.003
478.000	531.299	79.994	19.995	100.179	19.917	7.803	1.018
479.000	532.313	79.995	19.996	100.184	19.925	7.317	1.011
480.000	533.337	79.995	19.996	100.189	19.927	7.167	0.995
481.000	534.330	79.994	19.997	100.187	19.928	7.076	1.016
482.000	535.397	79.994	19.996	100.180	19.929	7.069	1.049
483.000	536.418	79.994	19.995	100.182	19.925	7.283	1.036
484.001	537.422	79.993	19.996	100.191	19.928	7.118	1.005
485.001	538.445	79.995	19.997	100.186	19.927	7.137	1.015
486.000	539.425	79.994	19.995	100.177	19.927	7.149	1.008
487.000	540.452	79.995	19.997	100.171	19.933	6.779	0.999
488.001	541.445	79.994	19.996	100.174	19.933	6.800	1.019
489.000	542.492	79.994	19.996	100.177	19.933	6.817	1.022
490.000	543.524	79.995	19.996	100.171	19.936	6.595	1.033
491.000	544.495	79.994	19.996	100.169	19.931	6.928	0.972
492.000	545.478	79.994	19.995	100.171	19.931	6.890	1.016
493.001	546.514	79.993	19.995	100.174	19.934	6.749	0.993
494.000	547.498	79.995	19.996	100.174	19.934	6.734	1.002
495.000	548.534	79.995	19.998	100.172	19.932	6.881	1.026
496.001	549.558	79.995	19.997	100.175	19.933	6.799	1.030
497.000	550.558	79.997	19.996	100.174	19.933	6.780	0.997
498.000	551.545	79.995	19.997	100.170	19.933	6.799	0.988
499.001	552.546	79.995	19.997	100.167	19.933	6.794	1.017
500.001	553.549	79.995	19.996	100.167	19.931	6.896	1.012
501.000	554.616	79.995	19.998	100.166	19.937	6.556	1.038
502.000	555.613	79.996	19.997	100.166	19.930	6.965	1.009
503.000	556.617	79.994	19.997	100.165	19.936	6.583	1.010
504.001	557.602	79.995	19.997	100.162	19.932	6.824	0.986
505.000	558.646	79.995	19.997	100.158	19.933	6.780	1.030
506.001	559.617	79.995	19.997	100.159	19.933	6.773	0.990
507.000	560.617	79.994	19.997	100.166	19.934	6.727	0.998
508.001	561.645	79.995	19.997	100.172	19.935	6.668	1.034
509.001	562.635	79.995	19.996	100.172	19.931	6.911	0.992
510.001	563.673	79.994	19.997	100.171	19.936	6.592	1.033
511.001	564.682	79.995	19.995	100.168	19.936	6.619	1.004
512.000	565.659	79.995	19.996	100.168	19.933	6.780	0.979
513.000	566.702	79.996	19.995	100.166	19.933	6.776	1.026
514.000	567.698	79.996	19.996	100.166	19.933	6.814	1.004
515.000	568.704	79.996	19.996	100.165	19.936	6.631	1.014
516.000	569.759	79.995	19.995	100.165	19.934	6.756	1.043
517.000	570.731	79.993	19.994	100.164	19.939	6.398	0.990
518.000	571.778	79.996	19.997	100.162	19.937	6.537	1.025
519.000	572.738	79.995	19.995	100.163	19.934	6.746	0.975
520.000	573.796	79.995	19.996	100.167	19.932	6.839	1.050
521.000	574.871	79.997	19.996	100.170	19.934	6.724	1.051
522.000	575.876	79.996	19.996	100.168	19.932	6.826	1.018
523.000	576.885	79.996	19.996	100.164	19.934	6.709	1.019
524.000	577.905	79.997	19.997	100.164	19.938	6.498	0.997
525.000	578.883	79.997	19.996	100.165	19.932	6.845	1.009
526.000	579.889	79.996	19.995	100.166	19.927	7.162	1.000
527.001	580.909	79.998	19.997	100.166	19.931	6.928	1.001
528.000	581.920	79.997	19.997	100.165	19.934	6.727	1.021
529.000	582.919	79.996	19.995	100.165	19.935	6.675	1.001
530.000	583.933	79.997	19.997	100.165	19.935	6.671	1.016
531.000	584.955	79.997	19.996	100.162	19.927	7.181	1.022
532.000	585.939	79.998	19.996	100.161	19.932	6.882	0.989
533.000	586.973	79.995	19.994	100.164	19.929	7.050	1.016
534.000	587.959	79.997	19.997	100.168	19.931	6.934	1.004
535.000	588.971	79.997	19.996	100.169	19.931	6.939	1.015
536.000	589.984	79.995	19.996	100.167	19.934	6.714	1.024
537.000	590.975	79.996	19.995	100.168	19.932	6.863	0.971
538.000	592.017	79.996	19.996	100.167	19.936	6.623	1.046
539.000	592.975	79.997	19.994	100.167	19.934	6.728	0.971
540.000	594.001	79.997	19.995	100.166	19.928	7.126	1.014
541.000	595.034	79.996	19.996	100.165	19.930	6.972	1.033
542.000	596.081	79.996	19.994	100.167	19.928	7.094	1.037
543.000	597.104	79.997	19.995	100.166	19.928	7.087	1.023
544.000	598.116	79.996	19.995	100.163	19.924	7.350	1.026
545.000	599.065	79.998	19.996	100.162	19.924	7.364	0.955
546.000	600.114	79.997	19.996	100.163	19.924	7.345	1.068
547.000	601.149	79.999	19.996	100.166	19.923	7.442	1.029
548.000	602.146	79.997	19.994	100.165	19.923	7.417	0.972
549.000	603.126	79.998	19.995	100.155	19.923	7.446	0.994
550.000	604.210	79.997	19.995	100.150	19.925	7.296	1.062
551.000	605.220	79.997	19.995	100.156	19.922	7.465	1.016
552.000	606.226	79.998	19.995	100.166	19.926	7.220	1.025
553.000	607.261	79.998	19.995	100.166	19.926	7.258	1.014
554.000	608.271	79.995	19.995	100.167	19.922	7.454	1.012
555.000	609.277	79.995	19.996	100.164	19.919	7.656	0.999
556.000	610.277	79.996	19.996	100.161	19.920	7.620	1.006
557.000	611.290	79.994	19.996	100.162	19.920	7.575	1.032
558.000	612.293	79.992	19.996	100.165	19.919	7.665	1.001
559.000	613.353	79.996	19.997	100.167	19.920	7.609	1.037
560.000	614.409	79.995	19.996	100.165	19.918	7.714	1.049
561.000	615.447	79.994	19.996	100.167	19.917	7.763	1.037
562.000	616.464	79.994	19.997	100.167	19.921	7.569	1.039
563.000	617.481	79.994	19.996	100.161	19.920	7.572	1.011
564.000	618.493	79.994	19.996	100.155	19.916	7.848	1.030
565.000	619.567	79.997	19.996	100.159	19.918	7.705	1.038
566.000	620.572	79.996	19.997	100.160	19.914	7.977	1.033
567.000	621.614	79.995	19.996	100.161	19.917	7.795	1.034
568.000	622.707	79.996	19.997	100.152	19.918	7.701	1.077
569.000	623.699	79.996	19.997	100.141	19.914	7.951	1.010
570.001	624.696	79.997	19.997	100.147	19.918	7.699	1.022
571.000	625.756	79.993	19.996	100.160	19.918	7.748	1.015
572.000	626.794	79.995	19.995	100.163	19.915	7.911	1.033
573.000	627.818	79.995	19.997	100.162	19.919	7.682	1.041
574.000	628.830	79.995	19.996	100.152	19.914	7.971	1.018
575.000	629.904	79.996	19.997	100.141	19.916	7.874	1.054
576.000	630.909	79.995	19.997	100.139	19.913	8.022	1.025
577.000	631.933	79.995	19.996	100.142	19.914	7.967	1.023
578.001	632.967	79.994	19.996	100.142	19.909	8.289	1.029
579.000	634.039	79.994	19.997	100.150	19.913	8.059	1.073
580.000	635.084	79.995	19.996	100.150	19.916	7.873	1.042
581.000	636.133	79.996	19.997	100.148	19.912	8.093	1.070
582.000	637.190	79.995	19.997	100.147	19.916	7.868	1.037
583.000	638.209	79.994	19.997	100.144	19.911	8.167	1.022
584.000	639.289	79.995	19.997	100.145	19.918	7.740	1.065
585.000	640.334	79.994	19.997	100.146	19.915	7.905	1.030
586.000	641.346	79.994	19.997	100.151	19.915	7.907	1.027
587.000	642.345	79.995	19.998	100.148	19.916	7.877	1.020
588.000	643.446	79.993	19.997	100.148	19.914	7.951	1.067
589.000	644.422	79.994	19.997	100.153	19.921	7.537	1.003
590.000	645.459	79.994	19.996	100.142	19.919	7.635	1.044
591.000	646.486	79.993	19.997	100.130	19.924	7.322	1.030
592.000	647.501	79.992	19.997	100.132	19.920	7.570	1.026
593.000	648.549	79.995	19.997	100.135	19.921	7.553	1.046
594.000	649.597	79.995	19.997	100.133	19.925	7.300	1.038
595.000	650.670	79.994	19.996	100.132	19.920	7.577	1.057
596.000	651.663	79.996	19.997	100.133	19.925	7.270	1.033
597.000	652.707	79.995	19.995	100.137	19.933	6.799	1.018
598.000	653.734	79.995	19.995	100.141	19.928	7.091	1.028
599.000	654.807	79.996	19.996	100.136	19.926	7.251	1.055
600.000	655.834	79.996	19.995	100.133	19.924	7.372	1.032
601.000	656.868	79.997	19.995	100.130	19.928	7.078	1.030
602.000	657.875	79.995	19.993	100.126	19.931	6.889	1.035
603.000	658.905	79.995	19.995	100.121	19.931	6.898	1.034
604.000	659.971	79.996	19.995	100.120	19.929	7.063	1.034
605.000	660.982	79.997	19.996	100.128	19.933	6.817	1.019
606.000	661.976	79.997	19.996	100.131	19.937	6.555	1.021
607.000	663.001	79.996	19.996	100.128	19.936	6.609	1.009
608.000	664.045	79.996	19.996	100.125	19.934	6.750	1.022
609.000	665.042	79.996	19.995	100.128	19.939	6.405	1.025
610.000	666.121	79.995	19.995	100.129	19.939	6.413	1.024
611.000	667.113	79.997	19.996	100.128	19.939	6.438	1.002
612.000	668.087	79.996	19.996	100.129	19.933	6.799	1.017
613.000	669.147	79.995	19.996	100.127	19.940	6.345	1.025
614.000	670.161	79.994	19.996	100.127	19.940	6.349	1.021
615.000	671.152	79.994	19.995	100.129	19.943	6.184	1.009
616.000	672.209	79.995	19.995	100.130	19.943	6.167	1.040
617.000	673.180	79.996	19.996	100.130	19.944	6.116	1.007
618.000	674.242	79.996	19.996	100.128	19.942	6.229	1.036
619.000	675.244	79.995	19.995	100.122	19.940	6.361	0.997
620.000	676.267	79.995	19.995	100.114	19.948	5.876	1.049
621.001	677.245	79.996	19.997	100.117	19.942	6.213	0.977
622.000	678.260	79.996	19.996	100.124	19.942	6.204	1.017
623.000	679.300	79.997	19.996	100.122	19.945	6.035	1.025
624.000	680.318	79.997	19.995	100.114	19.952	5.575	1.019
625.000	681.287	79.998	19.995	100.117	19.952	5.611	0.973
626.000	682.291	79.998	19.995	100.119	19.948	5.830	1.025
627.000	683.235	79.997	19.995	100.116	19.948	5.854	0.941
628.000	684.215	79.997	19.995	100.104	19.952	5.616	0.971
629.000	685.228	79.997	19.995	100.103	19.948	5.834	1.022
630.000	686.233	79.997	19.995	100.101	19.957	5.277	0.964
631.000	687.228	79.998	19.995	100.108	19.954	5.475	0.997
632.000	688.182	79.998	19.996	100.109	19.952	5.620	0.985
633.000	689.166	79.996	19.994	100.109	19.953	5.564	0.980
634.000	690.138	79.996	19.996	100.098	19.957	5.312	0.973
635.000	691.097	79.996	19.995	100.090	19.955	5.439	0.968
636.000	692.084	79.997	19.995	100.091	19.952	5.608	0.976
637.000	693.106	79.995	19.995	100.092	19.957	5.323	1.020
638.000	694.097	79.995	19.996	100.098	19.960	5.093	1.015
639.000	695.105	79.994	19.994	100.103	19.958	5.206	0.975
640.000	696.057	79.995	19.996	100.104	19.955	5.412	0.967
641.000	697.047	79.995	19.996	100.097	19.957	5.309	0.988
642.000	698.006	79.994	19.995	100.091	19.964	4.866	0.974
643.000	699.037	79.996	19.996	100.099	19.964	4.854	0.996
644.000	699.997	79.995	19.996	100.111	19.962	4.982	0.980
645.000	700.975	79.995	19.996	100.120	19.958	5.233	0.970
646.000	701.970	79.996	19.996	100.110	19.962	5.004	0.991
647.000	702.959	79.995	19.997	100.103	19.960	5.133	0.999
648.000	703.973	79.995	19.996	100.104	19.960	5.097	1.012
649.000	704.946	79.994	19.996	100.115	19.964	4.863	0.986
650.000	705.927	79.995	19.997	100.108	19.962	5.000	0.972
651.000	706.905	79.995	19.997	100.096	19.959	5.159	0.990
652.000	707.933	79.995	19.997	100.091	19.969	4.554	1.010
653.000	708.925	79.996	19.997	100.100	19.964	4.887	0.988
654.000	709.918	79.995	19.997	100.106	19.964	4.835	0.997
655.000	710.919	79.995	19.997	100.100	19.961	5.064	1.010
656.001	711.930	79.995	19.997	100.099	19.965	4.763	1.000
657.000	712.954	79.995	19.997	100.104	19.964	4.835	1.030
658.000	713.960	79.994	19.995	100.103	19.968	4.588	0.995
659.000	714.963	79.995	19.995	100.106	19.966	4.717	1.010
660.000	716.018	79.996	19.996	100.113	19.968	4.583	1.055
661.000	717.016	79.995	19.995	100.122	19.965	4.787	0.995
662.000	717.992	79.996	19.996	100.118	19.971	4.435	0.981
663.000	719.077	79.994	19.996	100.115	19.966	4.724	1.063
664.000	720.082	79.995	19.995	100.116	19.967	4.656	1.022
665.000	721.078	79.994	19.997	100.117	19.965	4.771	1.006
666.001	722.130	79.993	19.996	100.113	19.963	4.935	1.034
667.000	723.155	79.996	19.996	100.102	19.964	4.829	1.026
668.000	724.156	79.994	19.996	100.097	19.963	4.915	1.002
669.001	725.189	79.993	19.996	100.099	19.964	4.837	1.034
670.000	726.186	79.994	19.996	100.103	19.965	4.808	1.001
671.000	727.229	79.994	19.996	100.106	19.967	4.659	1.049
672.000	728.283	79.994	19.997	100.104	19.967	4.654	1.012
673.000	729.265	79.996	19.997	100.105	19.966	4.706	1.035
674.000	730.301	79.995	19.997	100.106	19.972	4.375	1.015
675.000	731.329	79.995	19.996	100.105	19.961	5.056	1.028
676.000	732.344	79.993	19.995	100.099	19.967	4.647	1.031
677.000	733.355	79.993	19.997	100.096	19.966	4.732	1.017
678.000	734.377	79.994	19.997	100.095	19.968	4.621	1.003
679.000	735.386	79.994	19.996	100.094	19.966	4.733	1.015
680.000	736.394	79.997	19.997	100.092	19.964	4.844	1.025
681.000	737.419	79.996	19.996	100.091	19.970	4.453	0.998
682.001	738.488	79.996	19.996	100.095	19.968	4.599	1.068
683.000	739.493	79.996	19.996	100.095	19.965	4.798	1.020
683.500	740.041	79.996	19.996	100.093	19.965	4.772	1.021