File: 01_Data/Polyester_Felt/MCC/Polyester_Felt_MCC_30K_min_211022_R5.txt
Sample ID:	C:\MCC\MCC Cal\Test\Polyester_Felt\Polyester_Felt_MCC_30K_min_211022_R5.txt
Sample Weight (mg):	4.38
Heating Rate (C/s):	0.5
Combustor Temp (C):	900
N2 Flow Rate (cc/min):	80
O2 Flow Rate (cc/min):	20
Calibration File:	C:\MCC\MCC Cal\Coeff1 JN10440_30_210304.txt.txt
T Correction Coefficients:	0	1.024463	0
Time Shift (s):	14
*
Time (s)	Temperature (C)	N2 flow rate (cc/min)	O2 flow rate (cc/min)	Flow Rate (cc/min)	Oxygen (%)	HRR (W/g)	Heating rate (C/s)
0.000	106.948	79.999	19.997	103.004	20.126	0.189	-0.001
2.000	106.945	80.000	19.999	103.001	20.126	0.125	0.003
4.000	106.982	80.000	19.997	103.009	20.132	-0.271	0.018
6.000	106.928	80.000	19.996	102.997	20.126	0.191	-0.015
8.000	106.911	80.001	19.997	103.001	20.124	0.287	-0.022
9.999	106.912	80.000	19.995	103.016	20.124	0.334	-0.022
11.999	106.949	80.000	19.994	103.030	20.125	0.233	0.001
14.000	106.924	80.001	19.995	103.037	20.122	0.471	-0.022
15.999	106.943	80.001	19.995	103.038	20.122	0.426	-0.013
17.999	106.990	80.000	19.995	103.050	20.119	0.662	0.055
19.999	106.992	80.001	19.995	103.076	20.117	0.823	0.007
21.999	107.026	80.000	19.995	103.078	20.119	0.674	0.032
23.999	107.071	80.001	19.996	103.086	20.110	1.366	0.008
25.999	107.159	80.000	19.996	103.121	20.109	1.444	0.060
27.999	107.245	80.000	19.994	103.145	20.109	1.394	0.039
29.999	107.366	80.001	19.995	103.135	20.111	1.288	0.033
31.999	107.509	80.002	19.996	103.120	20.108	1.487	0.086
33.999	107.686	80.002	19.996	103.124	20.106	1.600	0.076
35.999	107.850	80.003	19.996	103.147	20.102	1.890	0.087
37.999	108.046	80.002	19.994	103.141	20.104	1.751	0.122
40.000	108.204	80.003	19.994	103.151	20.100	2.065	0.093
41.999	108.468	80.002	19.995	103.161	20.101	2.002	0.119
43.999	108.739	80.002	19.996	103.165	20.102	1.896	0.148
45.999	108.995	80.001	19.995	103.171	20.098	2.190	0.131
47.999	109.276	80.002	19.996	103.186	20.097	2.304	0.115
49.999	109.617	80.001	19.995	103.186	20.091	2.713	0.166
51.999	109.898	80.003	19.995	103.187	20.094	2.483	0.141
53.999	110.238	80.003	19.995	103.192	20.094	2.492	0.173
55.999	110.579	80.005	19.995	103.196	20.096	2.330	0.187
57.999	110.984	80.004	19.996	103.191	20.091	2.725	0.212
59.999	111.398	80.003	19.995	103.189	20.097	2.264	0.212
61.999	111.794	80.001	19.996	103.189	20.096	2.341	0.205
63.999	112.196	80.002	19.997	103.190	20.096	2.371	0.187
65.999	112.627	80.002	19.996	103.190	20.094	2.486	0.218
68.000	113.119	80.001	19.995	103.189	20.096	2.347	0.231
70.000	113.539	80.001	19.997	103.190	20.097	2.295	0.187
71.999	114.015	80.000	19.997	103.196	20.095	2.440	0.231
73.999	114.526	80.001	19.996	103.197	20.097	2.301	0.256
76.000	115.028	80.001	19.996	103.197	20.095	2.410	0.252
77.999	115.485	80.000	19.996	103.197	20.096	2.368	0.234
79.999	116.034	80.000	19.996	103.200	20.092	2.678	0.266
81.999	116.544	80.001	19.996	103.212	20.088	2.931	0.265
83.999	117.113	80.001	19.996	103.226	20.089	2.893	0.271
85.999	117.664	80.000	19.997	103.226	20.089	2.893	0.284
87.999	118.251	80.001	19.996	103.230	20.087	3.010	0.283
89.999	118.807	80.000	19.995	103.232	20.088	2.967	0.274
91.999	119.395	80.001	19.997	103.226	20.089	2.855	0.278
93.999	119.993	80.000	19.995	103.235	20.092	2.672	0.283
96.000	120.613	80.000	19.996	103.234	20.092	2.655	0.287
97.999	121.252	80.000	19.997	103.232	20.091	2.744	0.332
99.999	121.879	80.001	19.997	103.222	20.090	2.772	0.324
101.999	122.512	80.000	19.997	103.227	20.092	2.667	0.336
103.999	123.221	80.000	19.997	103.227	20.088	2.953	0.355
105.999	123.877	80.000	19.995	103.228	20.088	2.963	0.299
107.999	124.560	80.000	19.996	103.230	20.088	2.989	0.362
109.999	125.252	80.000	19.996	103.231	20.091	2.698	0.348
111.999	125.953	80.002	19.995	103.230	20.091	2.756	0.350
113.999	126.648	80.002	19.994	103.216	20.087	3.022	0.372
115.999	127.354	80.002	19.995	103.214	20.090	2.798	0.352
117.999	128.028	80.003	19.994	103.214	20.091	2.698	0.345
119.999	128.718	80.002	19.995	103.223	20.090	2.835	0.354
121.999	129.463	80.003	19.995	103.225	20.089	2.847	0.333
123.999	130.200	80.002	19.995	103.228	20.090	2.776	0.393
125.999	130.943	80.001	19.996	103.229	20.091	2.748	0.388
127.999	131.649	80.002	19.994	103.228	20.092	2.641	0.338
130.000	132.385	80.001	19.995	103.226	20.092	2.690	0.386
132.000	133.140	80.001	19.995	103.231	20.089	2.859	0.390
134.000	133.895	80.002	19.995	103.230	20.089	2.875	0.355
136.000	134.627	80.002	19.995	103.231	20.093	2.605	0.388
138.000	135.394	80.002	19.996	103.230	20.092	2.650	0.337
140.000	136.170	80.005	19.994	103.231	20.091	2.739	0.383
142.000	136.973	80.004	19.994	103.238	20.092	2.650	0.420
144.000	137.751	80.003	19.994	103.239	20.092	2.690	0.380
146.000	138.548	80.003	19.994	103.236	20.089	2.891	0.399
148.000	139.334	80.003	19.995	103.242	20.089	2.869	0.372
150.000	140.150	80.000	19.994	103.244	20.088	2.960	0.430
152.000	140.958	80.002	19.994	103.248	20.088	2.951	0.434
154.000	141.778	80.000	19.996	103.235	20.086	3.090	0.420
156.000	142.601	79.999	19.995	103.238	20.090	2.805	0.392
158.000	143.467	80.000	19.995	103.236	20.088	2.990	0.436
160.000	144.304	80.000	19.995	103.235	20.085	3.139	0.414
162.000	145.138	80.000	19.996	103.231	20.085	3.165	0.399
164.000	145.968	79.999	19.995	103.229	20.087	3.054	0.412
166.000	146.822	80.000	19.995	103.231	20.087	3.022	0.408
168.000	147.676	80.001	19.996	103.231	20.085	3.199	0.434
170.000	148.555	80.002	19.996	103.241	20.090	2.819	0.438
172.000	149.433	80.001	19.995	103.240	20.089	2.847	0.453
174.000	150.279	80.001	19.995	103.241	20.086	3.095	0.412
176.000	151.157	80.000	19.995	103.237	20.088	2.944	0.447
178.000	152.059	80.002	19.996	103.232	20.089	2.877	0.455
180.000	152.896	79.999	19.997	103.234	20.089	2.902	0.441
182.000	153.782	80.000	19.996	103.235	20.091	2.767	0.445
184.000	154.715	80.000	19.996	103.241	20.089	2.893	0.461
186.000	155.572	80.001	19.997	103.263	20.087	3.058	0.450
188.000	156.453	79.998	19.996	103.240	20.089	2.905	0.468
190.000	157.346	80.000	19.996	103.240	20.087	3.028	0.445
192.000	158.305	80.000	19.996	103.244	20.087	2.996	0.445
194.000	159.203	80.000	19.996	103.235	20.087	3.002	0.431
196.000	160.139	80.002	19.996	103.243	20.087	3.036	0.459
198.000	161.069	80.003	19.995	103.239	20.087	3.062	0.441
200.000	161.992	80.003	19.994	103.240	20.087	3.058	0.454
202.000	162.970	80.001	19.994	103.237	20.085	3.179	0.506
204.000	163.897	80.003	19.995	103.244	20.086	3.119	0.464
206.000	164.820	80.001	19.995	103.244	20.084	3.227	0.469
208.000	165.783	80.001	19.995	103.239	20.089	2.899	0.503
210.000	166.759	80.001	19.996	103.233	20.089	2.899	0.512
212.000	167.710	80.000	19.995	103.236	20.087	3.000	0.484
214.000	168.624	80.001	19.995	103.237	20.085	3.167	0.444
216.000	169.633	80.001	19.995	103.237	20.089	2.889	0.487
218.000	170.566	80.002	19.995	103.236	20.087	3.036	0.498
220.000	171.512	80.003	19.994	103.235	20.085	3.189	0.469
222.000	172.446	80.004	19.995	103.233	20.090	2.794	0.476
224.000	173.442	80.003	19.995	103.234	20.087	3.026	0.492
226.000	174.416	80.003	19.995	103.230	20.086	3.086	0.504
228.000	175.400	80.003	19.996	103.231	20.085	3.179	0.478
230.000	176.396	80.002	19.996	103.232	20.085	3.161	0.492
232.000	177.319	80.002	19.995	103.231	20.086	3.123	0.468
234.000	178.263	80.001	19.995	103.231	20.085	3.193	0.439
236.000	179.304	80.004	19.995	103.230	20.085	3.179	0.482
238.000	180.307	80.003	19.995	103.229	20.086	3.115	0.503
240.000	181.259	80.000	19.994	103.235	20.084	3.219	0.489
242.000	182.261	80.001	19.995	103.231	20.084	3.270	0.475
244.000	183.274	80.002	19.996	103.231	20.089	2.901	0.518
246.000	184.221	80.000	19.997	103.231	20.090	2.790	0.493
248.000	185.254	80.000	19.995	103.231	20.092	2.649	0.505
250.000	186.290	80.002	19.996	103.229	20.090	2.829	0.532
252.000	187.306	80.001	19.996	103.230	20.089	2.860	0.543
254.000	188.293	80.001	19.996	103.228	20.088	2.919	0.490
256.000	189.300	80.000	19.996	103.229	20.088	2.951	0.514
258.000	190.322	80.001	19.995	103.220	20.088	2.973	0.524
260.000	191.349	80.001	19.995	103.219	20.090	2.794	0.528
262.000	192.342	80.001	19.996	103.227	20.086	3.124	0.510
264.000	193.338	80.002	19.996	103.203	20.086	3.104	0.503
266.000	194.392	80.000	19.994	103.218	20.090	2.832	0.534
268.000	195.332	80.001	19.995	103.225	20.089	2.862	0.503
270.000	196.319	80.002	19.995	103.227	20.091	2.764	0.487
272.000	197.305	79.998	19.995	103.212	20.090	2.842	0.498
274.000	198.348	80.003	19.995	103.207	20.088	2.928	0.529
276.000	199.330	80.001	19.996	103.209	20.089	2.876	0.493
278.000	200.332	80.001	19.995	103.207	20.091	2.701	0.500
280.000	201.344	80.002	19.996	103.215	20.092	2.691	0.507
282.000	202.371	80.001	19.996	103.208	20.092	2.693	0.521
284.000	203.384	80.001	19.994	103.201	20.090	2.808	0.504
286.000	204.348	80.000	19.996	103.204	20.090	2.779	0.535
288.000	205.360	80.001	19.996	103.205	20.091	2.731	0.516
290.000	206.393	80.002	19.996	103.196	20.095	2.459	0.501
292.000	207.361	80.002	19.994	103.193	20.093	2.580	0.494
294.000	208.378	80.004	19.995	103.198	20.090	2.794	0.501
296.000	209.396	80.002	19.995	103.196	20.089	2.872	0.531
298.000	210.381	80.004	19.994	103.195	20.090	2.838	0.496
300.000	211.348	80.002	19.994	103.189	20.093	2.604	0.477
302.000	212.364	80.004	19.995	103.190	20.090	2.775	0.496
304.000	213.354	80.003	19.996	103.202	20.089	2.852	0.498
306.000	214.335	80.003	19.995	103.191	20.089	2.848	0.466
308.000	215.299	80.003	19.994	103.189	20.093	2.618	0.449
310.000	216.312	80.002	19.995	103.190	20.091	2.749	0.481
312.000	217.299	80.001	19.995	103.188	20.089	2.876	0.493
314.000	218.273	80.002	19.995	103.189	20.093	2.550	0.487
316.000	219.285	80.001	19.996	103.187	20.092	2.663	0.495
318.000	220.268	80.002	19.995	103.187	20.093	2.568	0.494
320.000	221.219	80.002	19.995	103.188	20.090	2.810	0.479
322.000	222.213	80.002	19.994	103.195	20.095	2.425	0.515
324.000	223.219	80.000	19.995	103.189	20.093	2.618	0.504
326.000	224.213	80.000	19.994	103.191	20.090	2.783	0.504
328.000	225.149	80.001	19.995	103.194	20.092	2.651	0.498
330.000	226.140	80.001	19.994	103.191	20.091	2.737	0.498
332.000	227.113	80.002	19.995	103.194	20.094	2.520	0.465
334.000	228.105	80.002	19.996	103.193	20.095	2.419	0.501
336.000	229.144	80.001	19.995	103.193	20.095	2.425	0.504
338.000	230.099	80.001	19.994	103.192	20.094	2.475	0.495
340.000	231.102	79.999	19.995	103.192	20.096	2.375	0.506
342.000	232.098	80.000	19.995	103.191	20.096	2.399	0.479
344.000	233.072	79.997	19.996	103.193	20.093	2.588	0.487
346.000	234.084	79.999	19.996	103.193	20.093	2.568	0.510
348.000	235.078	79.999	19.995	103.183	20.096	2.341	0.515
350.000	236.045	80.000	19.996	103.190	20.100	2.087	0.487
352.000	237.025	80.000	19.994	103.189	20.097	2.296	0.461
354.000	238.007	80.000	19.995	103.190	20.098	2.188	0.471
356.000	239.031	80.002	19.995	103.187	20.098	2.199	0.482
358.000	239.952	80.002	19.995	103.186	20.095	2.431	0.469
360.000	240.951	80.001	19.996	103.190	20.094	2.505	0.488
362.000	241.915	80.002	19.997	103.188	20.094	2.475	0.498
364.000	242.935	80.002	19.997	103.189	20.096	2.332	0.517
366.000	243.893	80.002	19.995	103.183	20.099	2.179	0.473
368.000	244.863	80.002	19.996	103.180	20.095	2.417	0.480
370.000	245.841	79.998	19.996	103.186	20.098	2.211	0.490
372.000	246.819	80.001	19.996	103.188	20.099	2.111	0.474
374.000	247.776	80.003	19.997	103.183	20.097	2.326	0.451
376.000	248.723	80.001	19.996	103.183	20.099	2.143	0.470
378.000	249.796	80.001	19.996	103.183	20.099	2.167	0.515
380.000	250.749	80.001	19.995	103.175	20.097	2.322	0.494
382.000	251.715	80.004	19.996	103.184	20.102	1.958	0.461
384.000	252.704	80.001	19.995	103.176	20.096	2.350	0.479
386.000	253.743	80.005	19.994	103.181	20.101	1.968	0.541
388.000	254.700	80.003	19.994	103.180	20.099	2.141	0.504
390.000	255.705	80.003	19.995	103.186	20.098	2.238	0.509
392.000	256.673	80.002	19.994	103.184	20.098	2.185	0.479
394.000	257.663	79.999	19.994	103.178	20.100	2.107	0.501
396.000	258.682	80.003	19.994	103.190	20.100	2.069	0.506
398.000	259.660	80.000	19.995	103.191	20.100	2.091	0.461
400.000	260.691	80.001	19.995	103.182	20.097	2.280	0.486
402.000	261.619	80.001	19.995	103.186	20.100	2.037	0.460
404.000	262.628	79.999	19.994	103.190	20.100	2.105	0.506
406.000	263.630	80.001	19.995	103.181	20.097	2.282	0.505
408.000	264.617	80.000	19.995	103.186	20.099	2.113	0.510
410.000	265.625	79.998	19.994	103.187	20.101	2.000	0.518
412.000	266.624	80.000	19.995	103.194	20.099	2.161	0.514
414.000	267.626	80.000	19.994	103.179	20.102	1.942	0.488
416.000	268.634	80.001	19.995	103.173	20.098	2.197	0.481
418.000	269.659	80.001	19.995	103.170	20.099	2.161	0.493
420.000	270.692	80.001	19.996	103.178	20.098	2.212	0.501
422.000	271.694	80.003	19.995	103.168	20.099	2.121	0.520
424.000	272.751	80.000	19.995	103.172	20.100	2.087	0.516
426.000	273.744	79.999	19.995	103.182	20.099	2.161	0.532
428.000	274.770	80.000	19.995	103.176	20.102	1.948	0.481
430.000	275.749	80.000	19.996	103.183	20.103	1.829	0.497
432.000	276.717	80.001	19.995	103.171	20.098	2.185	0.477
434.000	277.720	80.000	19.996	103.173	20.101	1.990	0.512
436.000	278.731	80.002	19.996	103.182	20.101	2.012	0.493
438.000	279.750	80.004	19.996	103.183	20.102	1.925	0.483
440.000	280.777	80.002	19.995	103.172	20.103	1.865	0.461
442.000	281.774	80.002	19.995	103.165	20.102	1.907	0.497
444.000	282.792	79.999	19.995	103.175	20.100	2.105	0.508
446.000	283.807	80.003	19.994	103.169	20.102	1.958	0.472
448.000	284.844	80.002	19.994	103.153	20.101	1.980	0.503
450.000	285.836	80.001	19.995	103.159	20.106	1.652	0.468
452.000	286.866	80.002	19.995	103.165	20.102	1.939	0.515
454.000	287.898	80.002	19.996	103.166	20.102	1.893	0.532
456.000	288.871	80.003	19.996	103.164	20.105	1.734	0.517
458.000	289.884	80.003	19.995	103.165	20.105	1.690	0.504
460.000	290.877	80.001	19.995	103.164	20.104	1.809	0.467
462.000	291.910	80.003	19.996	103.158	20.105	1.730	0.514
464.000	292.935	80.002	19.997	103.155	20.103	1.865	0.537
466.000	293.903	80.002	19.996	103.154	20.106	1.632	0.491
468.000	294.911	80.002	19.996	103.152	20.103	1.879	0.523
470.000	295.872	80.002	19.995	103.151	20.106	1.654	0.502
472.000	296.865	79.999	19.996	103.154	20.106	1.662	0.456
474.000	297.851	80.001	19.996	103.159	20.106	1.632	0.505
476.000	298.833	80.000	19.995	103.152	20.099	2.108	0.537
478.000	299.876	80.000	19.994	103.159	20.105	1.730	0.523
480.000	300.851	80.001	19.996	103.155	20.101	2.012	0.472
482.000	301.831	80.001	19.994	103.155	20.102	1.911	0.499
484.000	302.785	80.002	19.995	103.163	20.103	1.871	0.580
486.000	303.918	80.002	19.996	103.163	20.101	1.970	0.487
488.000	304.876	80.000	19.996	103.153	20.102	1.937	0.477
490.000	305.530	80.000	19.994	103.152	20.098	2.193	0.355
492.000	306.767	80.000	19.996	103.152	20.099	2.151	0.550
494.000	307.795	80.000	19.995	103.163	20.101	2.008	0.558
496.000	308.813	80.002	19.996	103.152	20.099	2.167	0.519
498.000	309.784	80.001	19.996	103.154	20.100	2.106	0.483
500.000	310.805	80.000	19.995	103.155	20.096	2.328	0.464
502.000	311.855	80.001	19.994	103.151	20.097	2.318	0.502
504.000	312.859	80.000	19.995	103.151	20.100	2.052	0.512
506.000	313.863	80.001	19.995	103.152	20.098	2.237	0.518
508.000	314.842	80.002	19.995	103.152	20.097	2.255	0.477
510.000	315.860	80.001	19.995	103.152	20.099	2.126	0.478
512.000	316.845	80.001	19.994	103.150	20.099	2.139	0.468
514.000	317.828	80.001	19.997	103.161	20.100	2.034	0.507
516.000	318.787	80.002	19.995	103.156	20.104	1.752	0.492
518.000	319.812	80.002	19.995	103.154	20.104	1.811	0.466
520.000	320.803	80.001	19.994	103.153	20.102	1.919	0.496
522.000	321.835	80.003	19.995	103.160	20.100	2.090	0.527
524.000	322.817	80.002	19.996	103.160	20.098	2.219	0.502
526.000	323.808	80.002	19.995	103.154	20.098	2.213	0.486
528.000	324.838	80.001	19.998	103.157	20.100	2.048	0.493
530.000	325.858	80.003	19.997	103.154	20.099	2.159	0.497
532.000	326.830	80.002	19.997	103.153	20.097	2.263	0.483
534.000	327.852	80.002	19.996	103.153	20.098	2.249	0.488
536.000	328.865	80.002	19.995	103.154	20.101	1.988	0.515
538.000	329.853	80.003	19.996	103.155	20.096	2.360	0.499
540.000	330.822	80.001	19.994	103.156	20.099	2.142	0.486
542.000	331.874	80.003	19.995	103.155	20.099	2.175	0.509
544.000	332.904	80.005	19.995	103.151	20.097	2.301	0.539
546.000	333.931	80.003	19.995	103.152	20.094	2.529	0.508
548.000	334.943	80.003	19.995	103.145	20.096	2.344	0.532
550.000	335.975	80.003	19.997	103.149	20.093	2.559	0.543
552.000	336.947	80.003	19.997	103.146	20.096	2.390	0.506
554.000	338.011	80.000	19.996	103.141	20.091	2.744	0.540
556.000	339.016	79.999	19.997	103.145	20.094	2.529	0.532
558.000	339.993	80.001	19.997	103.148	20.097	2.281	0.477
560.000	340.983	80.001	19.996	103.150	20.098	2.245	0.514
562.000	342.013	80.001	19.996	103.150	20.093	2.615	0.503
564.000	343.037	80.000	19.997	103.143	20.098	2.237	0.522
566.000	343.984	80.001	19.996	103.150	20.095	2.450	0.496
568.000	344.989	80.001	19.996	103.149	20.096	2.374	0.492
570.000	346.026	80.002	19.996	103.151	20.092	2.688	0.514
572.000	347.024	80.001	19.995	103.149	20.092	2.660	0.482
574.000	348.042	80.002	19.995	103.149	20.093	2.591	0.514
576.000	349.022	80.000	19.995	103.149	20.090	2.808	0.491
578.000	350.116	80.002	19.995	103.149	20.091	2.712	0.527
580.000	351.110	80.000	19.995	103.151	20.088	2.937	0.483
582.000	352.087	79.999	19.995	103.151	20.087	3.026	0.496
584.000	353.111	79.999	19.995	103.154	20.085	3.171	0.537
586.000	354.125	79.998	19.995	103.155	20.091	2.746	0.512
588.000	355.115	80.000	19.996	103.152	20.088	2.931	0.485
590.000	356.107	80.002	19.995	103.153	20.084	3.249	0.497
592.000	357.136	80.001	19.996	103.154	20.084	3.272	0.524
594.000	358.121	80.001	19.996	103.154	20.080	3.527	0.494
596.000	359.122	80.000	19.996	103.154	20.081	3.493	0.487
598.000	360.146	80.003	19.995	103.155	20.079	3.583	0.511
600.000	361.191	80.005	19.995	103.157	20.075	3.915	0.525
602.000	362.193	80.002	19.994	103.165	20.073	4.070	0.500
604.000	363.231	80.002	19.995	103.163	20.069	4.320	0.525
606.000	364.269	80.003	19.995	103.154	20.068	4.444	0.526
608.000	365.255	80.003	19.995	103.159	20.064	4.683	0.519
610.000	366.290	80.003	19.996	103.160	20.064	4.726	0.509
612.000	367.323	80.000	19.995	103.161	20.062	4.858	0.507
614.000	368.395	80.002	19.996	103.156	20.059	5.074	0.517
616.000	369.460	80.002	19.995	103.157	20.056	5.324	0.521
618.000	370.411	80.001	19.996	103.154	20.055	5.400	0.498
620.000	371.451	80.004	19.996	103.151	20.051	5.681	0.483
622.000	372.485	80.004	19.996	103.151	20.046	6.056	0.512
624.000	373.573	80.005	19.996	103.150	20.042	6.331	0.537
626.000	374.587	80.004	19.995	103.153	20.038	6.617	0.512
628.000	375.605	80.005	19.995	103.165	20.034	6.888	0.499
630.000	376.672	80.001	19.996	103.162	20.028	7.394	0.530
632.000	377.683	80.003	19.995	103.168	20.027	7.412	0.523
634.000	378.690	80.002	19.994	103.154	20.021	7.902	0.511
636.000	379.757	80.002	19.996	103.151	20.014	8.375	0.527
638.000	380.796	80.002	19.996	103.164	20.006	8.956	0.546
640.000	381.816	80.004	19.996	103.177	19.998	9.582	0.492
642.000	382.832	80.000	19.996	103.156	19.993	9.928	0.499
644.000	383.872	80.003	19.996	103.182	19.981	10.800	0.514
646.000	384.889	80.002	19.996	103.178	19.970	11.613	0.510
648.000	385.878	80.001	19.997	103.185	19.962	12.225	0.505
650.000	386.942	80.001	19.996	103.192	19.951	13.016	0.527
652.000	387.963	79.999	19.997	103.191	19.940	13.836	0.514
654.000	388.955	80.000	19.997	103.192	19.924	14.986	0.501
656.000	389.971	80.002	19.996	103.203	19.908	16.159	0.517
658.000	390.971	80.001	19.996	103.225	19.892	17.405	0.488
660.000	391.982	80.002	19.995	103.227	19.870	18.997	0.519
662.000	392.986	80.002	19.995	103.231	19.848	20.627	0.523
664.000	393.980	79.999	19.994	103.235	19.829	21.988	0.530
666.000	395.010	80.000	19.995	103.251	19.802	23.983	0.499
668.000	396.042	80.000	19.995	103.264	19.774	26.044	0.478
670.000	397.038	79.999	19.995	103.269	19.754	27.541	0.486
672.000	398.048	80.002	19.996	103.273	19.727	29.541	0.499
674.000	399.056	80.002	19.995	103.285	19.704	31.216	0.503
676.000	400.092	80.004	19.996	103.298	19.680	33.008	0.523
678.000	401.136	80.003	19.996	103.298	19.647	35.394	0.535
680.000	402.117	80.003	19.996	103.308	19.627	36.929	0.512
682.000	403.154	80.002	19.994	103.286	19.612	37.986	0.504
684.000	404.230	80.003	19.995	103.274	19.610	38.122	0.541
686.000	405.213	80.004	19.995	103.269	19.602	38.729	0.507
688.000	406.229	80.003	19.996	103.297	19.594	39.325	0.506
690.000	407.275	80.002	19.996	103.339	19.579	40.436	0.509
692.000	408.255	80.003	19.996	103.362	19.563	41.648	0.473
694.000	409.305	80.001	19.996	103.359	19.532	43.900	0.504
696.000	410.307	80.003	19.996	103.346	19.508	45.706	0.530
698.000	411.329	80.004	19.996	103.349	19.479	47.824	0.493
700.000	412.314	80.006	19.996	103.361	19.451	49.915	0.502
702.000	413.353	80.004	19.996	103.379	19.420	52.178	0.523
704.000	414.332	80.003	19.996	103.384	19.387	54.641	0.512
706.000	415.305	80.003	19.996	103.393	19.347	57.566	0.491
708.000	416.240	80.005	19.996	103.423	19.302	60.945	0.477
710.000	417.292	80.003	19.996	103.458	19.257	64.241	0.513
712.000	418.251	80.001	19.997	103.463	19.212	67.633	0.490
714.000	419.222	80.004	19.996	103.467	19.158	71.716	0.482
716.000	420.227	80.001	19.996	103.484	19.110	75.344	0.491
718.000	421.195	80.001	19.997	103.526	19.061	78.855	0.480
720.000	422.174	80.002	19.995	103.556	19.022	81.518	0.480
722.000	423.149	80.000	19.996	103.568	18.955	86.385	0.451
724.000	424.169	80.002	19.995	103.639	18.770	100.249	0.514
726.000	425.135	80.001	19.996	103.880	18.564	115.802	0.509
728.000	426.066	80.002	19.996	103.853	18.444	124.683	0.497
730.000	427.034	80.005	19.997	103.626	18.384	129.036	0.496
732.000	428.002	80.000	19.996	103.394	18.352	131.375	0.498
734.000	428.991	80.002	19.996	103.394	18.318	133.908	0.521
736.000	429.964	80.000	19.996	103.809	18.284	136.454	0.480
738.000	430.978	80.000	19.997	103.938	18.250	138.984	0.502
740.000	431.936	80.001	19.996	103.883	18.218	141.362	0.516
742.000	432.924	80.003	19.997	103.822	18.189	143.486	0.475
744.000	433.925	80.002	19.998	103.820	18.157	145.901	0.509
746.000	434.987	80.001	19.997	103.839	18.122	148.534	0.540
748.000	435.920	80.001	19.997	103.869	18.084	151.391	0.506
750.000	436.900	79.998	19.997	103.891	18.053	153.642	0.481
752.000	437.886	80.001	19.995	103.893	18.013	156.582	0.472
754.000	438.865	79.999	19.996	103.902	17.979	159.176	0.475
756.000	439.886	80.003	19.995	103.925	17.943	161.853	0.533
758.000	440.892	80.003	19.996	103.934	17.908	164.409	0.490
760.000	441.953	80.003	19.995	103.946	17.883	166.248	0.536
762.000	442.958	80.005	19.995	103.941	17.858	168.139	0.500
764.000	444.072	80.003	19.995	103.957	17.843	169.223	0.531
766.000	445.144	80.004	19.994	103.971	17.830	170.183	0.555
768.000	446.193	80.002	19.996	103.972	17.825	170.541	0.519
770.000	447.294	80.002	19.996	103.967	17.832	169.926	0.518
772.000	448.355	80.004	19.996	103.967	17.847	168.821	0.531
774.000	449.454	80.002	19.996	103.952	17.868	167.252	0.559
776.000	450.560	80.002	19.995	103.944	17.895	165.181	0.498
778.000	451.695	80.004	19.995	103.939	17.933	162.346	0.589
780.000	452.789	80.004	19.996	103.919	17.981	158.746	0.544
782.000	453.895	80.004	19.995	103.898	18.033	154.881	0.561
784.000	454.971	80.003	19.995	103.881	18.095	150.242	0.549
786.000	456.094	80.004	19.994	103.859	18.161	145.342	0.567
788.000	457.203	80.004	19.995	103.837	18.237	139.694	0.575
790.000	458.284	80.005	19.995	103.798	18.311	134.182	0.543
792.000	459.360	80.005	19.994	103.776	18.403	127.323	0.534
794.000	460.494	80.004	19.995	103.750	18.496	120.425	0.561
796.000	461.577	80.000	19.994	103.713	18.605	112.360	0.553
798.000	462.717	80.002	19.996	103.688	18.717	104.057	0.571
800.000	463.757	80.004	19.995	103.662	18.837	95.226	0.526
802.000	464.844	80.002	19.995	103.631	18.951	86.765	0.564
804.000	465.876	80.001	19.995	103.611	19.050	79.433	0.545
806.000	466.917	79.999	19.995	103.583	19.147	72.253	0.527
808.000	468.025	79.999	19.995	103.555	19.235	65.797	0.502
810.000	469.051	80.000	19.995	103.521	19.310	60.278	0.491
812.000	470.132	80.002	19.995	103.489	19.377	55.327	0.542
814.000	471.186	80.001	19.995	103.452	19.439	50.711	0.547
816.000	472.235	80.003	19.996	103.432	19.497	46.452	0.499
818.000	473.302	80.003	19.996	103.409	19.547	42.749	0.526
820.000	474.396	80.002	19.996	103.384	19.592	39.420	0.536
822.000	475.424	80.000	19.996	103.354	19.638	36.084	0.534
824.000	476.472	80.000	19.996	103.341	19.676	33.253	0.545
826.000	477.515	79.999	19.995	103.317	19.714	30.460	0.508
828.000	478.602	80.000	19.997	103.299	19.751	27.700	0.544
830.000	479.636	80.000	19.997	103.290	19.787	25.106	0.525
832.000	480.649	80.000	19.996	103.274	19.816	22.939	0.513
834.000	481.770	80.000	19.996	103.248	19.848	20.581	0.547
836.000	482.774	80.002	19.997	103.231	19.879	18.348	0.516
838.000	483.809	80.002	19.997	103.220	19.903	16.528	0.531
840.000	484.837	80.002	19.996	103.216	19.926	14.866	0.503
842.000	485.800	80.003	19.996	103.198	19.943	13.572	0.490
844.000	486.854	80.001	19.996	103.193	19.964	12.059	0.509
846.000	487.890	80.004	19.995	103.192	19.983	10.689	0.518
848.000	488.918	80.001	19.994	103.183	19.990	10.153	0.527
850.000	489.930	80.003	19.996	103.164	20.004	9.091	0.514
852.000	490.932	80.001	19.995	103.160	20.007	8.867	0.505
854.000	491.950	80.004	19.996	103.158	20.018	8.085	0.486
856.000	492.972	80.002	19.995	103.154	20.024	7.685	0.512
858.000	494.033	80.002	19.995	103.152	20.030	7.204	0.502
860.000	495.068	80.003	19.995	103.149	20.036	6.797	0.517
862.000	496.098	80.003	19.995	103.147	20.035	6.817	0.530
864.000	497.105	80.004	19.996	103.148	20.045	6.103	0.523
866.000	498.118	80.005	19.994	103.149	20.040	6.471	0.504
868.000	499.162	80.004	19.996	103.147	20.046	6.026	0.538
870.000	500.170	80.005	19.994	103.146	20.042	6.332	0.505
872.000	501.198	80.003	19.996	103.149	20.045	6.100	0.528
874.000	502.187	80.006	19.995	103.137	20.044	6.189	0.478
876.000	503.195	80.003	19.995	103.138	20.045	6.106	0.507
878.000	504.218	80.002	19.995	103.129	20.046	6.066	0.493
880.000	505.227	80.002	19.995	103.129	20.045	6.107	0.525
882.000	506.198	80.004	19.995	103.132	20.057	5.240	0.500
884.000	507.264	80.002	19.995	103.135	20.049	5.830	0.513
886.000	508.273	80.002	19.996	103.139	20.051	5.652	0.516
888.000	509.257	80.001	19.995	103.126	20.051	5.660	0.534
890.000	510.336	80.002	19.997	103.134	20.052	5.596	0.509
892.000	511.313	80.002	19.995	103.134	20.056	5.316	0.503
894.000	512.286	80.002	19.995	103.125	20.053	5.543	0.470
896.000	513.310	80.003	19.996	103.122	20.058	5.141	0.490
898.000	514.372	80.003	19.995	103.141	20.058	5.181	0.530
900.000	515.385	80.002	19.996	103.134	20.061	4.914	0.525
902.000	516.387	80.001	19.995	103.133	20.059	5.072	0.493
904.000	517.420	80.001	19.995	103.126	20.060	4.980	0.500
906.000	518.446	80.001	19.996	103.130	20.058	5.151	0.513
908.000	519.467	80.001	19.995	103.124	20.063	4.762	0.472
910.000	520.488	80.000	19.996	103.132	20.060	5.038	0.512
912.000	521.502	80.001	19.996	103.134	20.060	5.010	0.491
914.000	522.527	80.002	19.996	103.122	20.061	4.935	0.506
916.000	523.566	80.003	19.994	103.128	20.061	4.925	0.537
918.000	524.546	80.002	19.996	103.121	20.058	5.191	0.492
920.000	525.560	80.002	19.997	103.119	20.061	4.900	0.502
922.000	526.624	80.004	19.997	103.124	20.063	4.812	0.525
924.000	527.616	80.003	19.996	103.123	20.061	4.945	0.484
926.000	528.667	80.003	19.996	103.123	20.062	4.864	0.508
928.000	529.656	80.003	19.996	103.122	20.064	4.742	0.471
930.000	530.697	80.002	19.995	103.131	20.059	5.090	0.515
932.000	531.692	80.000	19.996	103.139	20.070	4.247	0.506
934.000	532.777	80.002	19.996	103.144	20.076	3.866	0.525
936.000	533.783	80.003	19.996	103.143	20.072	4.120	0.514
938.000	534.809	80.003	19.995	103.148	20.081	3.434	0.512
940.000	535.875	80.002	19.998	103.149	20.080	3.536	0.540
942.000	536.904	80.002	19.996	103.150	20.083	3.313	0.490
944.000	537.891	80.004	19.994	103.149	20.083	3.333	0.493
946.000	538.943	80.003	19.996	103.141	20.077	3.743	0.513
948.000	539.948	80.004	19.997	103.146	20.082	3.411	0.527
950.000	540.984	80.004	19.994	103.144	20.075	3.874	0.498
952.000	542.009	80.004	19.995	103.138	20.076	3.830	0.527
954.000	543.041	80.004	19.995	103.145	20.075	3.880	0.505
956.000	544.018	80.003	19.996	103.141	20.073	4.089	0.510
958.000	545.092	80.002	19.996	103.127	20.073	4.070	0.507
960.000	546.034	80.003	19.996	103.119	20.070	4.244	0.472
962.000	547.101	80.001	19.997	103.125	20.072	4.125	0.527
964.000	548.092	80.001	19.996	103.132	20.069	4.378	0.526
966.000	549.121	80.001	19.997	103.122	20.068	4.410	0.516
968.000	550.129	80.002	19.996	103.118	20.066	4.594	0.500
970.000	551.145	80.001	19.994	103.116	20.064	4.728	0.516
972.000	552.179	80.002	19.995	103.123	20.068	4.453	0.525
974.000	553.195	80.001	19.994	103.128	20.064	4.732	0.521
976.000	554.228	80.003	19.995	103.114	20.068	4.392	0.510
978.000	555.216	80.003	19.995	103.115	20.066	4.573	0.497
980.000	556.269	80.002	19.994	103.124	20.068	4.396	0.502
982.000	557.258	80.002	19.996	103.123	20.067	4.465	0.500
984.000	558.263	80.001	19.996	103.119	20.064	4.704	0.516
986.000	559.229	80.000	19.994	103.117	20.066	4.557	0.485
988.000	560.291	80.001	19.996	103.125	20.065	4.644	0.503
990.000	561.299	80.001	19.996	103.118	20.065	4.617	0.516
992.000	562.323	80.002	19.996	103.119	20.063	4.776	0.499
994.000	563.325	80.000	19.998	103.117	20.061	4.921	0.484
996.000	564.333	80.002	19.996	103.113	20.062	4.852	0.479
998.000	565.331	80.001	19.996	103.116	20.065	4.613	0.490
1000.000	566.342	80.003	19.995	103.113	20.059	5.106	0.500
1002.000	567.366	80.003	19.996	103.112	20.061	4.901	0.490
1004.000	568.377	80.003	19.996	103.113	20.064	4.740	0.529
1006.000	569.366	80.004	19.995	103.111	20.064	4.726	0.487
1008.000	570.374	80.003	19.997	103.109	20.061	4.921	0.504
1010.000	571.375	80.002	19.995	103.108	20.060	5.025	0.479
1012.000	572.436	80.003	19.997	103.108	20.061	4.917	0.528
1014.000	573.424	80.003	19.997	103.110	20.059	5.068	0.515
1016.000	574.462	80.001	19.997	103.113	20.055	5.375	0.503
1018.000	575.480	80.002	19.997	103.111	20.060	5.017	0.493
1020.000	576.512	80.002	19.997	103.108	20.060	4.997	0.523
1022.000	577.505	80.002	19.997	103.111	20.057	5.259	0.505
1024.000	578.482	80.003	19.996	103.110	20.060	4.985	0.506
1025.999	579.477	80.004	19.996	103.113	20.060	4.995	0.505
1027.999	580.480	80.005	19.996	103.111	20.060	4.979	0.490
1030.000	581.514	80.004	19.995	103.113	20.058	5.118	0.507
1031.999	582.552	80.003	19.993	103.112	20.051	5.649	0.495
1033.999	583.542	80.005	19.995	103.112	20.058	5.172	0.518
1035.999	584.555	80.002	19.995	103.112	20.056	5.285	0.506
1037.999	585.541	80.002	19.995	103.113	20.057	5.245	0.496
1040.000	586.541	80.002	19.995	103.115	20.060	5.028	0.497
1041.999	587.555	80.001	19.995	103.120	20.059	5.092	0.513
1043.999	588.549	80.002	19.996	103.113	20.057	5.223	0.498
1045.999	589.555	80.001	19.995	103.115	20.057	5.249	0.533
1048.001	590.539	80.001	19.995	103.115	20.057	5.201	0.483
1049.999	591.547	80.001	19.995	103.114	20.057	5.229	0.485
1051.999	592.589	80.002	19.996	103.118	20.062	4.859	0.527
1053.999	593.615	80.002	19.994	103.116	20.055	5.409	0.521
1055.999	594.645	80.000	19.995	103.114	20.054	5.458	0.501
1057.999	595.692	80.001	19.995	103.115	20.060	5.020	0.512
1060.000	596.695	80.002	19.995	103.115	20.062	4.850	0.489
1061.999	597.667	80.002	19.996	103.113	20.060	5.001	0.501
1063.999	598.681	80.003	19.995	103.111	20.057	5.227	0.520
1065.999	599.715	80.002	19.996	103.113	20.058	5.154	0.504
1067.999	600.687	80.001	19.995	103.116	20.051	5.633	0.480
1069.999	601.752	80.000	19.994	103.116	20.055	5.345	0.530
1071.999	602.722	80.000	19.995	103.110	20.059	5.080	0.489
1073.999	603.760	80.001	19.996	103.110	20.059	5.106	0.502
1075.999	604.783	80.002	19.995	103.109	20.052	5.560	0.511
1077.999	605.785	80.001	19.995	103.112	20.057	5.238	0.502
1079.999	606.779	80.002	19.996	103.109	20.056	5.327	0.551
1081.999	607.799	80.001	19.996	103.111	20.055	5.341	0.499
1083.999	608.798	80.003	19.997	103.108	20.055	5.361	0.496
1085.999	609.801	80.003	19.996	103.108	20.057	5.200	0.461
1087.999	610.812	80.003	19.998	103.108	20.053	5.538	0.491
1089.999	611.787	80.003	19.997	103.109	20.060	5.026	0.487
1091.999	612.828	80.003	19.995	103.108	20.054	5.412	0.511
1093.999	613.846	80.002	19.996	103.109	20.055	5.363	0.517
1095.999	614.810	80.002	19.995	103.111	20.058	5.144	0.470
1098.000	615.863	80.001	19.996	103.106	20.057	5.253	0.508
1099.999	616.855	80.002	19.997	103.106	20.058	5.188	0.521
1101.999	617.833	80.002	19.995	103.117	20.056	5.265	0.509
1103.999	618.835	80.002	19.997	103.109	20.054	5.446	0.478
1105.999	619.792	80.002	19.996	103.108	20.055	5.361	0.484
1107.999	620.783	80.003	19.997	103.110	20.055	5.391	0.503
1109.999	621.790	80.003	19.996	103.108	20.054	5.430	0.508
1111.999	622.758	80.004	19.997	103.107	20.059	5.086	0.474
1113.999	623.746	80.003	19.996	103.109	20.055	5.367	0.514
1115.999	624.695	80.004	19.996	103.112	20.058	5.176	0.461
1117.999	625.693	80.001	19.996	103.111	20.055	5.341	0.485
1119.999	626.710	80.001	19.996	103.111	20.054	5.480	0.461
1121.999	627.661	80.001	19.996	103.112	20.055	5.369	0.480
1123.999	628.667	80.000	19.995	103.113	20.055	5.366	0.455
1125.999	629.717	80.002	19.996	103.115	20.060	5.024	0.514
1127.999	630.711	80.002	19.997	103.110	20.059	5.086	0.480
1129.999	631.739	80.002	19.996	103.112	20.059	5.048	0.513
1132.000	632.828	80.002	19.995	103.109	20.060	5.039	0.548
1133.999	633.852	80.002	19.996	103.113	20.058	5.162	0.519
1135.999	634.949	80.003	19.995	103.118	20.055	5.370	0.560
1137.999	636.050	80.002	19.996	103.113	20.059	5.066	0.560
1139.999	637.134	80.002	19.996	103.110	20.058	5.164	0.538
1141.999	638.262	80.002	19.995	103.113	20.050	5.776	0.562
1143.999	639.377	80.003	19.995	103.111	20.051	5.685	0.565
1145.999	640.503	80.003	19.997	103.119	20.057	5.237	0.562
1148.000	641.639	80.002	19.996	103.113	20.058	5.170	0.593
1149.999	642.779	80.002	19.995	103.110	20.056	5.289	0.585
1151.999	643.873	80.002	19.997	103.121	20.059	5.072	0.577
1153.999	645.009	80.001	19.995	103.111	20.058	5.182	0.553
1155.999	646.184	80.002	19.994	103.111	20.058	5.148	0.605
1157.999	647.295	80.002	19.995	103.114	20.058	5.188	0.575
1159.999	648.442	80.003	19.995	103.111	20.058	5.142	0.585
1161.999	649.603	80.003	19.995	103.111	20.058	5.174	0.597
1163.999	650.736	80.002	19.996	103.115	20.055	5.349	0.586
1165.999	651.855	80.003	19.997	103.115	20.057	5.227	0.578
1167.999	653.003	80.003	19.995	103.115	20.058	5.148	0.574
1169.999	654.180	80.003	19.995	103.113	20.061	4.925	0.590
1171.999	655.340	80.002	19.995	103.117	20.054	5.412	0.605
1173.999	656.385	80.002	19.996	103.113	20.056	5.329	0.529
1175.999	657.541	80.002	19.995	103.115	20.051	5.673	0.564
1177.999	658.669	80.001	19.996	103.113	20.057	5.205	0.579
1179.999	659.799	80.002	19.996	103.113	20.060	5.035	0.573
1182.000	660.900	80.002	19.996	103.113	20.060	5.027	0.546
1183.999	661.993	80.003	19.996	103.114	20.061	4.897	0.566
1185.999	663.074	80.003	19.995	103.112	20.056	5.301	0.525
1187.999	664.197	80.003	19.995	103.115	20.058	5.174	0.566
1190.000	665.262	80.004	19.995	103.111	20.063	4.800	0.552
1191.999	666.347	80.004	19.995	103.110	20.054	5.424	0.537
1193.999	667.447	80.004	19.995	103.108	20.064	4.732	0.586
1195.999	668.482	80.004	19.995	103.109	20.060	5.003	0.526
1197.999	669.523	80.003	19.995	103.109	20.064	4.738	0.495
1199.999	670.569	80.001	19.996	103.104	20.062	4.866	0.520
1201.999	671.597	80.000	19.997	103.110	20.059	5.071	0.506
1203.999	672.691	80.002	19.997	103.112	20.060	5.021	0.556
1205.999	673.729	80.001	19.996	103.109	20.061	4.930	0.541
1207.999	674.763	80.002	19.997	103.109	20.055	5.355	0.501
1210.001	675.764	80.000	19.997	103.108	20.062	4.846	0.498
1211.999	676.773	80.003	19.997	103.105	20.065	4.627	0.522
1213.999	677.761	80.003	19.995	103.101	20.066	4.553	0.485
1215.999	678.738	80.002	19.994	103.101	20.059	5.076	0.501
1217.999	679.718	80.002	19.995	103.101	20.061	4.949	0.489
1219.999	680.697	80.003	19.995	103.099	20.061	4.905	0.493
1221.999	681.600	80.001	19.994	103.099	20.059	5.098	0.460
1223.999	682.624	80.002	19.996	103.109	20.061	4.923	0.542
1226.000	683.547	80.002	19.995	103.111	20.064	4.708	0.461
1227.999	684.476	80.001	19.995	103.114	20.065	4.617	0.485
1229.999	685.496	80.000	19.995	103.114	20.064	4.682	0.511
1231.999	686.423	80.002	19.995	103.111	20.062	4.831	0.480
1233.999	687.350	80.000	19.994	103.114	20.063	4.780	0.477
1235.999	688.305	80.001	19.995	103.115	20.064	4.738	0.479
1237.999	689.289	80.003	19.996	103.115	20.063	4.760	0.485
1239.999	690.270	80.003	19.996	103.114	20.063	4.820	0.494
1242.000	691.209	80.001	19.995	103.114	20.063	4.752	0.457
1243.999	692.179	80.002	19.996	103.116	20.066	4.543	0.482
1245.999	693.124	80.002	19.993	103.114	20.063	4.806	0.498
1247.999	694.071	80.002	19.997	103.115	20.068	4.454	0.467
1249.999	695.046	80.003	19.995	103.116	20.061	4.904	0.491
1251.999	696.043	80.003	19.994	103.111	20.067	4.521	0.503
1253.999	696.994	80.004	19.995	103.114	20.068	4.446	0.500
1255.999	698.013	80.004	19.993	103.112	20.064	4.701	0.493
1257.999	699.019	80.002	19.994	103.110	20.065	4.645	0.566
1259.999	699.970	80.004	19.995	103.105	20.057	5.245	0.493
1262.000	700.967	80.003	19.997	103.102	20.059	5.087	0.467
1263.999	701.982	80.001	19.995	103.110	20.063	4.800	0.496
1265.999	702.955	80.003	19.997	103.105	20.065	4.657	0.481
1267.999	704.001	80.002	19.996	103.104	20.064	4.734	0.513
1269.999	705.002	80.004	19.997	103.110	20.063	4.768	0.510
1271.999	706.016	80.005	19.996	103.106	20.061	4.921	0.517
1273.999	706.957	80.005	19.995	103.105	20.059	5.072	0.488
1275.999	707.993	80.004	19.994	103.110	20.061	4.906	0.491
1278.000	709.036	80.005	19.995	103.109	20.060	5.039	0.504
1279.999	710.036	80.003	19.995	103.111	20.056	5.300	0.504
1281.999	711.041	80.002	19.995	103.109	20.061	4.935	0.520
1283.999	712.051	80.001	19.996	103.109	20.059	5.054	0.487
1285.999	713.086	80.001	19.995	103.100	20.061	4.927	0.486
1287.999	714.082	80.002	19.997	103.102	20.061	4.967	0.501
1289.999	715.101	80.001	19.996	103.105	20.057	5.220	0.509
1291.999	716.112	80.001	19.995	103.104	20.058	5.127	0.473
1293.999	717.135	80.001	19.997	103.115	20.063	4.800	0.522
1295.999	718.153	80.002	19.996	103.111	20.056	5.287	0.501
1297.999	719.191	80.000	19.997	103.114	20.058	5.182	0.513
1299.999	720.203	80.000	19.995	103.111	20.059	5.083	0.491
1302.000	721.229	80.000	19.995	103.109	20.057	5.262	0.532
1303.999	722.213	80.002	19.996	103.096	20.055	5.375	0.476
1305.999	723.211	80.002	19.996	103.112	20.062	4.852	0.508
1308.000	724.202	80.002	19.996	103.113	20.058	5.152	0.502
1309.999	725.189	80.001	19.996	103.109	20.053	5.486	0.451
1311.999	726.240	80.001	19.995	103.106	20.051	5.668	0.556
1313.999	727.253	80.000	19.995	103.110	20.056	5.312	0.527
1315.999	728.207	80.002	19.995	103.105	20.056	5.337	0.486
1317.999	729.197	80.003	19.997	103.112	20.054	5.478	0.499
1319.999	730.174	80.002	19.996	103.112	20.058	5.142	0.494
1321.999	731.203	80.003	19.995	103.108	20.057	5.200	0.522
1323.999	732.151	80.002	19.993	103.089	20.056	5.273	0.506
1325.999	733.140	80.004	19.997	103.097	20.055	5.389	0.501
1327.999	734.119	80.003	19.997	103.108	20.055	5.393	0.470
1329.999	735.123	80.003	19.995	103.109	20.056	5.297	0.451
1331.999	736.098	80.004	19.995	103.109	20.055	5.355	0.478
1333.999	737.093	80.005	19.998	103.109	20.052	5.608	0.481
1336.000	738.091	80.005	19.997	103.111	20.054	5.430	0.487
1337.999	739.099	80.004	19.996	103.096	20.053	5.500	0.500
1339.999	740.092	80.004	19.994	103.105	20.056	5.331	0.487
1341.999	741.091	80.003	19.995	103.108	20.052	5.605	0.504
1343.999	742.114	80.004	19.995	103.105	20.050	5.761	0.519
1346.000	743.093	80.004	19.995	103.110	20.053	5.506	0.493
1346.500	743.339	80.005	19.996	103.111	20.049	5.792	0.492