File: 01_Data/Face_Shield/Cone/Face_Shield_Cone_HF50-FrameScan_201103_R1.csv
Names,Time,Stack TC,Smoke TC,Exh Press,Smoke Comp,Smoke Meas,CO Meter,CO2 Meter,O2 Meter,Sample Mass,Ext Coeff,Start Test,Flame Verif
Chan Gain,,500,500,1,1,1,1,1,1,1,1,1.0,1.0
Offset,,0,0,0.134413,0,0,0,0,0,0,0,0.0,0.0
Gain,,1,1,25.011,13.8462,17.0661,1,1,1,1.0009,1.04998,1.0,1.0
Units,sec,C,C,Pa,%,%,%,%,%,g,/m,,
Baseline,,28.4814,31.3135,182.33,102.554,103.8,0.00432506,0.078234,20.9814,-938.592,-0.111141,,
2,0.25,27.1489,29.5117,176.801,102.338,103.867,0.00420508,0.088134,20.9735,21.5593,-0.136583,0.0,0.0
4,0.75,25.8673,28.1217,182.269,102.329,103.406,0.00419498,0.0875655,20.9743,21.7094,-0.0964178,0.0,0.0
6,1.25,25.8751,28.6445,176.776,102.334,102.914,0.0041868,0.0869043,20.9751,21.6194,-0.0520487,0.0,0.0
8,1.75,25.9493,28.1669,182.624,102.328,103.055,0.0041721,0.0861878,20.9758,21.6594,-0.0651663,0.0,0.0
10,2.25,26.1002,28.4606,185.269,102.335,103.495,0.00415293,0.0853215,20.9768,21.6094,-0.103853,0.0,0.0
12,2.75,26.1969,28.4622,181.101,102.331,103.262,0.00413741,0.0846199,20.9776,21.6694,-0.0833691,0.0,0.0
14,3.25,26.5397,28.5117,182.819,102.331,103.339,0.00411407,0.0839154,20.9782,21.6094,-0.0901955,0.0,0.0
16,3.75,26.3446,28.2913,179.707,102.33,102.9,0.00408549,0.0832223,20.979,21.6394,-0.0511416,0.0,0.0
18,4.25,26.0533,28.2916,187.055,102.329,103.555,0.00406234,0.0825821,20.9798,21.6294,-0.109714,0.0,0.0
20,4.75,26.0201,28.8614,184.918,102.334,103.235,0.00403209,0.0819927,20.9805,21.6194,-0.0807337,0.0,0.0
22,5.25,26.3095,28.7189,180.142,102.331,103.24,0.0040076,0.0815153,20.981,21.6394,-0.0814481,0.0,0.0
24,5.75,26.0705,28.8893,186.062,102.324,103.552,0.00399158,0.0809382,20.9814,21.5993,-0.109892,0.0,0.0
26,6.25,26.5935,29.1022,175.751,102.321,103.242,0.00397861,0.0804707,20.9818,21.6194,-0.0825088,0.0,0.0
28,6.75,26.6521,28.9422,186.016,102.325,104.119,0.00397281,0.0800921,20.9821,21.5893,-0.16008,0.0,0.0
30,7.25,25.9797,28.5952,179.491,102.315,103.648,0.00397234,0.079799,20.9823,21.5993,-0.119296,0.0,0.0
32,7.75,26.0836,29.1523,182.361,102.347,103.321,0.00397264,0.0795616,20.9825,21.6194,-0.0872566,0.0,0.0
34,8.25,26.4839,28.8299,182.574,102.318,103.785,0.00397348,0.0794509,20.9822,21.6194,-0.131147,0.0,0.0
36,8.75,26.5511,29.4333,179.409,102.323,103.439,0.00397282,0.0793612,20.982,21.6094,-0.0998268,0.0,0.0
38,9.25,26.716,29.0811,180.438,102.318,103.61,0.00397108,0.0794461,20.9813,21.6194,-0.115574,0.0,0.0
40,9.75,26.7849,29.1605,179.258,102.331,103.437,0.00396966,0.0796566,20.9808,21.6094,-0.0990411,0.0,0.0
42,10.25,26.4954,29.1064,181.048,102.323,103.368,0.0039665,0.0798271,20.9802,21.6294,-0.093564,0.0,0.0
44,10.75,26.8485,29.498,179.3,102.318,104.021,0.00396213,0.0803463,20.9795,21.6294,-0.152031,0.0,0.0
46,11.25,26.436,29.168,181.659,102.308,103.091,0.00396127,0.080767,20.9789,21.6194,-0.0702034,0.0,0.0
48,11.75,27.1032,28.9856,182.811,102.32,103.334,0.003963,0.0815028,20.9784,21.6194,-0.0908896,0.0,0.0
50,12.25,26.6723,29.4684,182.512,102.315,103.281,0.0039644,0.0820988,20.978,21.6194,-0.0866099,0.0,0.0
52,12.75,26.3806,29.4396,180.558,102.314,103.306,0.00398597,0.0829908,20.9777,21.6094,-0.0888301,0.0,0.0
54,13.25,26.5582,29.6935,184.206,102.31,103.289,0.00400344,0.0837133,20.9772,21.5793,-0.0876778,0.0,0.0
56,13.75,26.6848,28.8691,181.992,102.305,103.42,0.0040176,0.0844565,20.9766,21.5893,-0.0998385,0.0,0.0
58,14.25,26.6798,29.4368,180.371,102.302,103.319,0.00403982,0.0852008,20.9762,21.5993,-0.0910565,0.0,0.0
60,14.75,27.1117,29.4369,182.306,102.321,103.911,0.00406751,0.0858037,20.976,21.6194,-0.142059,0.0,0.0
62,15.25,26.5897,29.1629,189.419,102.299,103.695,0.00408591,0.0863876,20.9759,21.6094,-0.124784,0.0,0.0
64,15.75,26.8573,29.957,183.56,102.299,103.726,0.00409717,0.0868606,20.9758,21.5893,-0.127596,0.0,0.0
66,16.25,27.0134,30.176,184.054,102.296,103.166,0.00410024,0.0872437,20.9757,21.5693,-0.0779667,0.0,0.0
68,16.75,27.3375,29.9332,180.035,102.304,103.843,0.00409728,0.0875037,20.9757,21.5693,-0.137577,0.0,0.0
70,17.25,27.2596,29.8977,182.153,102.301,103.592,0.00409488,0.0876691,20.9756,21.5793,-0.115475,0.0,0.0
72,17.75,26.7907,29.7763,174.02,102.308,103.528,0.00408689,0.087803,20.9756,21.5793,-0.109123,0.0,0.0
74,18.25,26.8121,29.5281,179.902,102.298,103.317,0.00407497,0.0876248,20.976,21.5893,-0.0913354,0.0,0.0
76,18.75,27.3679,30.1834,184.594,102.305,103.395,0.00406531,0.0874804,20.9763,21.5793,-0.0976039,0.0,0.0
78,19.25,27.4776,29.4905,179.899,102.294,103.68,0.00405876,0.0870771,20.9766,21.5693,-0.123898,0.0,0.0
80,19.75,26.9649,29.7453,185.319,102.307,103.293,0.00405346,0.0867503,20.9768,21.5693,-0.088354,0.0,0.0
82,20.25,27.2482,29.8968,182.256,102.295,103.382,0.00404661,0.0862267,20.9772,21.5893,-0.097357,0.0,0.0
84,20.75,26.805,29.6686,183.351,102.298,103.621,0.00404107,0.0858025,20.9777,21.5693,-0.118372,0.0,0.0
86,21.25,26.7693,29.999,182.959,102.301,103.475,0.00403657,0.0854589,20.9781,21.5793,-0.105126,0.0,0.0
88,21.75,27.1671,30.1591,183.396,102.298,103.432,0.00403293,0.0851397,20.9785,21.5693,-0.101506,0.0,0.0
90,22.25,27.1586,30.4187,180.098,102.288,102.947,0.0040402,0.0848812,20.9788,21.5793,-0.0591778,0.0,0.0
92,22.75,27.1172,29.3174,186.867,102.296,103.593,0.0040461,0.0846854,20.979,21.5893,-0.116054,0.0,0.0
94,23.25,26.9829,29.7438,178.13,102.295,103.357,0.00405961,0.0845268,20.9792,21.5893,-0.0950909,0.0,0.0
96,23.75,27.6449,30.1466,179.06,102.312,103.609,0.00407843,0.0843848,20.9793,21.5793,-0.116006,0.0,0.0
98,24.25,27.0189,30.0703,181.397,102.307,103.474,0.00409367,0.0842697,20.9795,21.5493,-0.104501,0.0,0.0
100,24.75,27.4966,29.4852,182.509,102.312,103.468,0.0041114,0.0840947,20.9796,21.5293,-0.103459,0.0,0.0
102,25.25,27.3085,30.0822,180.396,102.311,103.616,0.00413061,0.083953,20.9797,21.4392,-0.116722,0.0,0.0
104,25.75,27.2351,29.9741,182.532,102.31,103.055,0.0041428,0.08377,20.9797,21.4292,-0.0668401,0.0,0.0
106,26.25,27.5342,29.8029,179.363,102.317,103.445,0.00414964,0.0836219,20.9798,21.5793,-0.101038,0.0,0.0
108,26.75,27.0865,30.2672,183.659,102.315,103.762,0.00415519,0.0835019,20.9798,21.5493,-0.129379,0.0,0.0
110,27.25,27.0987,30.2281,180.426,102.305,103.685,0.00413668,0.0833229,20.9798,21.5993,-0.123371,0.0,0.0
112,27.75,27.4244,30.1074,178.895,102.322,103.195,0.00412168,0.083178,20.9799,21.5493,-0.0782496,0.0,0.0
114,28.25,27.0172,29.7283,180.139,102.316,103.376,0.00408527,0.0830606,20.9799,21.5693,-0.0949062,0.0,0.0
116,28.75,27.4887,30.2182,182.129,102.324,103.051,0.00405577,0.0828702,20.9799,21.5593,-0.0651746,0.0,0.0
118,29.25,26.9977,29.8173,184.157,102.318,103.492,0.00401657,0.082716,20.9799,21.5593,-0.105088,0.0,0.0
120,29.75,27.5591,30.3125,188.489,102.331,103.592,0.00398481,0.0824277,20.9799,21.5693,-0.112804,0.0,0.0
122,30.25,27.505,30.6288,179.651,102.329,103.61,0.0039578,0.0821941,20.9802,21.5593,-0.114615,0.0,0.0
124,30.75,27.5814,30.3544,181.944,102.33,103.535,0.00393593,0.0818825,20.9806,21.5493,-0.107794,0.0,0.0
126,31.25,27.2235,29.9959,182.651,102.326,103.132,0.00391822,0.0816301,20.9809,21.5593,-0.0722432,0.0,0.0
128,31.75,27.0405,30.0753,182.782,102.353,103.972,0.00391663,0.0813755,20.9812,21.5593,-0.144538,0.0,0.0
130,32.25,27.3455,30.0423,183.89,102.336,104.261,0.00391535,0.0811241,20.9814,21.5793,-0.171621,0.0,0.0
132,32.75,27.3321,30.0244,181.961,102.342,103.262,0.00392835,0.0808253,20.9816,21.5793,-0.0823803,0.0,0.0
134,33.25,27.152,29.8719,174.068,102.336,103.647,0.00393889,0.0805833,20.9817,21.5593,-0.117263,0.0,0.0
136,33.75,27.3269,30.2044,178.258,102.349,103.757,0.00395953,0.0803157,20.9818,21.5493,-0.125836,0.0,0.0
138,34.25,27.2837,30.2968,177.543,102.341,103.503,0.00398713,0.0800345,20.9819,21.5593,-0.103932,0.0,0.0
140,34.75,26.9088,30.1021,178.717,102.362,103.481,0.00402161,0.0798068,20.982,21.5493,-0.100083,0.0,0.0
142,35.25,27.428,30.1184,184.53,102.357,103.196,0.00406043,0.0796223,20.982,21.5293,-0.0752326,0.0,0.0
144,35.75,27.0185,30.2655,182.173,102.367,103.262,0.00409726,0.0794728,20.9821,21.5693,-0.0801754,0.0,0.0
146,36.25,27.1388,30.6034,179.282,102.351,103.995,0.00413194,0.0794162,20.9821,21.5493,-0.146834,0.0,0.0
148,36.75,27.313,30.3471,180.912,102.375,103.804,0.00416003,0.0794283,20.9822,21.5793,-0.127685,0.0,0.0
150,37.25,27.3938,30.4051,181.906,102.372,103.243,0.00418683,0.0794954,20.9822,21.5693,-0.0779999,0.0,0.0
152,37.75,27.1789,30.6963,179.82,102.386,103.617,0.00421217,0.0796013,20.9823,21.5693,-0.110129,0.0,0.0
154,38.25,27.1962,29.7081,181.363,102.383,103.456,0.00423269,0.0796871,20.9826,21.4893,-0.0959951,0.0,0.0
156,38.75,27.439,30.0678,181.012,102.396,103.301,0.00425268,0.0797701,20.9828,21.5593,-0.0810361,0.0,0.0
158,39.25,27.6959,30.2879,181.216,102.378,103.029,0.0042719,0.0798374,20.9829,21.5593,-0.0583894,0.0,0.0
160,39.75,27.2181,30.5308,182.103,102.407,103.732,0.00428747,0.0798919,20.983,21.5593,-0.118409,0.0,0.0
162,40.25,27.5122,29.9842,183.048,102.399,103.792,0.00430137,0.0800041,20.9832,21.5493,-0.124447,0.0,0.0
164,40.75,27.7129,30.1875,185.821,102.411,103.857,0.00431262,0.080095,20.9832,21.5393,-0.129166,0.0,0.0
166,41.25,27.3815,30.5778,182.375,102.423,103.535,0.00431278,0.0801614,20.9833,21.5293,-0.0994767,0.0,0.0
168,41.75,27.4042,30.3552,181.445,102.43,103.471,0.00431291,0.0802088,20.9834,21.5393,-0.0931214,0.0,0.0
170,42.25,27.4592,30.1046,181.829,102.421,103.08,0.0043083,0.0802471,20.9834,21.5493,-0.0590745,0.0,0.0
172,42.75,27.2597,30.5708,173.355,102.434,103.366,0.00430032,0.0803054,20.9834,21.5593,-0.0833724,0.0,0.0
174,43.25,27.904,30.7077,177.381,102.429,103.202,0.00428781,0.0803526,20.9835,21.5493,-0.0692829,0.0,0.0
176,43.75,27.1335,30.3473,182.835,102.436,103.403,0.00427222,0.0803229,20.9839,21.5693,-0.0864763,0.0,0.0
178,44.25,27.1978,30.7093,180.344,102.44,103.224,0.00425959,0.0802987,20.9843,21.5493,-0.070293,0.0,0.0
180,44.75,27.6994,30.591,180.862,102.454,103.422,0.00423274,0.0802076,20.9846,21.5293,-0.0866348,0.0,0.0
182,45.25,27.6731,30.4955,184.545,102.456,103.604,0.00421099,0.0800693,20.9848,21.5393,-0.102627,0.0,0.0
184,45.75,27.1264,30.6276,181.839,102.466,103.652,0.00419338,0.0799144,20.985,21.5393,-0.105928,0.0,0.0
186,46.25,27.687,30.7894,177.008,102.469,103.705,0.00416378,0.0797503,20.9852,21.5393,-0.110381,0.0,0.0
188,46.75,27.8578,30.7279,185.305,102.474,103.276,0.0041398,0.0796173,20.9853,21.5493,-0.0717773,0.0,0.0
190,47.25,27.6496,30.2388,180.426,102.484,103.273,0.00411399,0.079496,20.9854,21.5493,-0.0706343,0.0,0.0
192,47.75,27.7675,30.3745,181.352,102.486,103.753,0.00409309,0.0793978,20.9855,21.5493,-0.113163,0.0,0.0
194,48.25,27.6217,30.5859,181.658,102.488,103.582,0.00406083,0.0792967,20.9856,21.5493,-0.0977959,0.0,0.0
196,48.75,27.7445,30.5667,176.148,102.485,103.992,0.0040347,0.0791955,20.9856,21.5493,-0.134389,0.0,0.0
198,49.25,27.4994,30.3359,181.806,102.499,103.732,0.00398801,0.0791136,20.9857,21.5493,-0.11009,0.0,0.0
200,49.75,27.7758,30.8266,184.257,102.496,103.766,0.00395019,0.0789756,20.9857,21.5293,-0.113407,0.0,0.0
202,50.25,27.6378,30.3294,184.056,102.502,103.607,0.00389405,0.0787995,20.9858,21.5393,-0.0987564,0.0,0.0
204,50.75,27.7555,30.9237,179.965,102.505,104.003,0.00384857,0.0786569,20.9858,21.5293,-0.13362,0.0,0.0
206,51.25,27.2631,30.4206,181.209,102.511,103.84,0.00380408,0.0785413,20.9858,21.5193,-0.11864,0.0,0.0
208,51.75,27.9695,30.6407,183.891,102.503,103.624,0.00376805,0.0784549,20.9858,21.5193,-0.100255,0.0,0.0
210,52.25,27.6005,30.8203,178.668,102.519,103.896,0.00373886,0.0783913,20.9858,21.5093,-0.122945,0.0,0.0
212,52.75,27.5587,30.4808,182.904,102.517,103.658,0.00375348,0.0783126,20.9858,21.5093,-0.101888,0.0,0.0
214,53.25,27.2526,30.755,184.589,102.522,103.517,0.00376533,0.0782489,20.9859,21.5193,-0.0888833,0.0,0.0
216,53.75,27.4518,30.7339,183.127,102.526,103.823,0.00381961,0.0781293,20.9859,21.5493,-0.115749,0.0,0.0
218,54.25,28.161,30.9447,179.334,102.536,103.538,0.00386358,0.0780324,20.9859,21.5493,-0.0896062,0.0,0.0
220,54.75,27.503,30.5442,181.258,102.528,103.904,0.00392275,0.0780112,20.9859,21.5493,-0.122764,0.0,0.0
222,55.25,27.3422,30.5538,183.37,102.531,103.654,0.00399186,0.0780455,20.9859,21.5293,-0.100387,0.0,0.0
224,55.75,28.0288,30.8113,185.41,102.539,103.712,0.00405526,0.0780733,20.9859,21.5093,-0.104763,0.0,0.0
226,56.25,27.6238,30.4618,181.583,102.545,103.906,0.00411327,0.0783542,20.9854,21.4993,-0.121468,0.0,0.0
228,56.75,27.6553,30.3277,181.716,102.542,104.184,0.00416026,0.0785817,20.9851,21.5393,-0.146308,0.0,0.0
230,57.25,27.6895,30.7817,178.63,102.555,104.157,0.00418553,0.0788475,20.9848,21.5493,-0.142737,0.0,0.0
232,57.75,27.5625,30.8628,183.741,102.555,103.888,0.00419321,0.0790629,20.9846,21.5393,-0.118979,0.0,0.0
234,58.25,27.7598,30.9316,180.74,102.566,103.543,0.00418792,0.079266,20.9844,21.5293,-0.0872987,0.0,0.0
236,58.75,27.3314,30.4579,180.61,102.561,103.854,0.00418364,0.0794563,20.9842,21.5193,-0.115447,0.0,0.0
238,59.25,27.6974,30.892,178.833,102.561,104.307,0.00418017,0.0796104,20.9841,21.5093,-0.155468,0.0,0.0
240,59.75,27.6692,30.9737,185.323,102.567,103.457,0.00414158,0.0797625,20.984,21.5093,-0.0796134,0.0,0.0
242,60.25,27.8857,30.7065,179.62,102.583,103.775,0.00411033,0.0798856,20.9839,21.5093,-0.106412,0.0,0.0
244,60.75,28.0318,30.9305,182.81,102.572,104.117,0.00408501,0.0799718,20.9839,21.5293,-0.13771,0.0,0.0
246,61.25,27.9047,30.6999,181.589,102.588,103.559,0.00405556,0.0800416,20.9838,21.5293,-0.0867157,0.0,0.0
248,61.75,28.0457,31.1277,180.996,102.58,103.691,0.00403171,0.0800408,20.9838,21.5093,-0.0991487,0.0,0.0
250,62.25,28.1317,31.2468,187.057,102.581,103.924,0.00400984,0.0799887,20.9837,21.5193,-0.119858,0.0,0.0
252,62.75,27.8743,30.8307,178.285,102.586,103.718,0.00399212,0.0799464,20.9837,21.5293,-0.101107,0.0,0.0
254,63.25,27.3985,31.2455,181.453,102.595,104.055,0.00397139,0.0799122,20.9839,21.5193,-0.130185,0.0,0.0
256,63.75,27.2888,30.6367,182.619,102.585,103.67,0.00395459,0.0797077,20.9843,21.4993,-0.0968422,0.0,0.0
258,64.25,28.0481,30.8535,182.777,102.59,104.104,0.00393965,0.079542,20.9846,21.4792,-0.134935,0.0,0.0
260,64.75,28.3206,31.3028,182.96,102.588,103.82,0.00392633,0.0792583,20.9848,21.4893,-0.109931,0.0,0.0
262,65.25,27.825,31.2223,185.021,102.603,103.8,0.00392025,0.0790284,20.985,21.4792,-0.106894,0.0,0.0
264,65.75,28.095,30.667,194.355,102.585,103.384,0.00391955,0.0788137,20.9852,21.4993,-0.0714426,0.0,0.0
266,66.25,28.1205,31.2417,182.43,102.613,103.405,0.00391899,0.078614,20.9853,21.5093,-0.0707942,0.0,0.0
268,66.75,27.6245,31.1037,182.067,102.6,103.504,0.00391854,0.0785237,20.9854,21.5093,-0.0807802,0.0,0.0
270,67.25,27.9062,31.1108,179.31,102.618,103.67,0.00394499,0.0785151,20.9855,21.5093,-0.0940055,0.0,0.0
272,67.75,28.0826,30.9316,178.075,102.61,103.503,0.00396642,0.078601,20.9856,21.5093,-0.0797391,0.0,0.0
274,68.25,28.1558,30.7037,181.635,102.622,103.84,0.00400038,0.0787544,20.9856,21.4993,-0.108614,0.0,0.0
276,68.75,27.9469,30.9529,183.038,102.612,103.992,0.0040279,0.0788787,20.9857,21.4893,-0.123088,0.0,0.0
278,69.25,28.0428,31.459,181.826,102.626,103.139,0.00405658,0.0790867,20.9857,21.4792,-0.0458827,0.0,0.0
280,69.75,28.2105,31.2591,181.475,102.623,103.47,0.00407981,0.0793519,20.9858,21.4792,-0.0756815,0.0,0.0
282,70.25,28.0796,31.2098,186.304,102.632,103.167,0.00409862,0.0795667,20.9858,21.4893,-0.04791,0.0,0.0
284,70.75,27.7007,30.942,177.912,102.628,103.444,0.00411386,0.0798223,20.9858,21.4692,-0.0729542,0.0,0.0
286,71.25,28.0851,30.6601,176.953,102.639,104.031,0.0041147,0.0800293,20.9858,21.4792,-0.12412,0.0,0.0
288,71.75,27.8542,30.6044,180.511,102.636,103.14,0.00411538,0.0802107,20.9858,21.4692,-0.0451501,0.0,0.0
290,72.25,27.6674,30.928,183.188,102.657,103.625,0.00410443,0.0803575,20.9858,21.4492,-0.0864148,0.0,0.0
292,72.75,27.8197,31.259,179.525,102.632,103.276,0.00409557,0.0803268,20.9859,21.4692,-0.0575762,0.0,0.0
294,73.25,27.9954,31.0746,183.037,102.669,103.427,0.00408838,0.0803019,20.9859,21.4893,-0.0677376,0.0,0.0
296,73.75,28.0241,31.1559,180.189,102.659,103.308,0.00406851,0.0801887,20.9859,21.4492,-0.0580375,0.0,0.0
298,74.25,27.9765,31.2183,176.663,102.675,103.336,0.00405242,0.0800132,20.9859,21.4592,-0.05918,0.0,0.0
300,74.75,27.9935,31.4819,182.106,102.664,103.276,0.00404321,0.0798282,20.9859,21.4792,-0.0546566,0.0,0.0
302,75.25,27.8916,31.0133,184.744,102.679,103.461,0.00403576,0.0796396,20.9859,21.4692,-0.0698969,0.0,0.0
304,75.75,27.8975,30.9621,181.384,102.671,103.11,0.00404115,0.0794225,20.9859,21.4692,-0.0393521,0.0,0.0
306,76.25,27.7528,31.2376,182.211,102.691,103.589,0.0040558,0.0791887,20.9859,21.4692,-0.0801417,0.0,0.0
308,76.75,27.7818,30.9836,175.816,102.683,103.783,0.00407844,0.0789992,20.9859,21.4692,-0.0980805,0.0,0.0
310,77.25,28.3091,31.4808,178.74,102.702,103.489,0.00410647,0.0789546,20.9859,21.4392,-0.0702697,0.0,0.0
312,77.75,28.0933,31.3542,181.39,102.698,103.302,0.00413253,0.0789184,20.9859,21.4592,-0.0539845,0.0,0.0
314,78.25,28.1448,31.4959,183.769,102.692,103.533,0.00415667,0.0789464,20.9859,21.4792,-0.0751944,0.0,0.0
316,78.75,27.9882,31.2872,178.247,102.696,103.091,0.00417623,0.0790205,20.9859,21.4792,-0.0353101,0.0,0.0
318,79.25,27.8962,31.1443,185.333,102.705,103.465,0.00418312,0.0791164,20.9859,21.4792,-0.0679013,0.0,0.0
320,79.75,27.8453,31.0665,183.795,102.706,104.305,0.0041887,0.0792263,20.9859,21.4292,-0.142277,0.0,0.0
322,80.25,27.5867,31.1938,180.046,102.698,103.072,0.00419321,0.0793153,20.9859,21.4292,-0.0334834,0.0,0.0
324,80.75,27.8965,31.0378,186.209,102.706,103.639,0.00418153,0.079401,20.9859,21.4292,-0.08326,0.0,0.0
326,81.25,27.9769,31.2007,183.136,102.709,103.454,0.00417207,0.0794704,20.9859,21.4492,-0.0665569,0.0,0.0
328,81.75,27.9714,31.5066,180.242,102.706,103.419,0.0041593,0.079581,20.9859,21.4492,-0.0637152,0.0,0.0
330,82.25,28.0752,31.6237,180.878,102.715,103.232,0.00414895,0.0796706,20.9859,21.4292,-0.0462529,0.0,0.0
332,82.75,28.1752,30.8267,182.151,102.725,103.019,0.00414057,0.079951,20.9859,21.4392,-0.026319,0.0,0.0
334,83.25,28.1488,31.2218,183.465,102.726,103.218,0.00413378,0.080365,20.9854,21.4292,-0.0440506,0.0,0.0
336,83.75,27.5024,30.7548,182.342,102.734,103.053,0.00412828,0.0807004,20.9846,21.4192,-0.028587,0.0,0.0
338,84.25,28.3425,31.2434,183.46,102.732,102.89,0.00413021,0.0818717,20.9834,21.4192,-0.0140729,0.0,0.0
340,84.75,27.4071,30.911,177.322,102.752,102.293,0.00413104,0.0828204,20.9825,21.4292,0.0412065,0.0,1.0
342,85.25,28.0974,31.6878,176.641,102.742,102.109,0.00413884,0.0842034,20.9809,21.4392,0.0569135,0.0,1.0
344,85.75,27.7703,30.8036,179.06,102.745,102.389,0.00414516,0.0853237,20.9793,21.4292,0.0320235,0.0,1.0
346,86.25,28.2066,31.4733,183.385,102.747,102.694,0.00415432,0.0862311,20.9781,21.4292,0.00476174,0.0,1.0
348,86.75,27.7325,31.6129,181.638,102.756,102.088,0.00416537,0.0874994,20.9766,21.3992,0.0600906,0.0,1.0
350,87.25,28.3158,31.6935,181.988,102.757,102.744,0.00417432,0.0885267,20.9755,21.4092,0.00117804,0.0,1.0
352,87.75,28.1716,31.2039,184.708,102.758,102.576,0.00420312,0.0889862,20.9745,21.4092,0.0163934,0.0,1.0
354,88.25,28.185,31.9765,177.834,102.77,102.769,0.00424583,0.0897721,20.9733,21.3291,3.62328e-05,0.0,1.0
356,88.75,28.3168,31.9996,178.954,102.761,102.477,0.00430335,0.0903813,20.9723,21.4192,0.0255022,0.0,1.0
358,89.25,29.0808,31.9225,183.523,102.749,102.115,0.00437057,0.0908747,20.9711,21.3491,0.0570783,0.0,1.0
360,89.75,27.3262,30.8405,179.343,102.765,101.884,0.00442502,0.0912744,20.9701,21.5193,0.0792756,0.0,0.0
362,90.25,27.3733,30.7387,184.179,102.757,102.642,0.00451015,0.0920774,20.9693,21.3591,0.0103337,0.0,0.0
364,90.75,27.1051,31.1041,178.247,102.766,100.34,0.0045791,0.0927278,20.9687,21.3992,0.220058,0.0,0.0
366,91.25,27.6582,30.9294,178.186,102.759,99.21,0.00466062,0.0932546,20.9665,21.3792,0.323734,0.0,0.0
368,91.75,28.141,30.3479,180.119,102.768,100.712,0.00472665,0.0956591,20.9633,21.3691,0.18609,0.0,0.0
370,92.25,27.2956,31.0398,176.774,102.759,99.4527,0.00479169,0.0976067,20.9605,21.3992,0.301191,0.0,0.0
372,92.75,27.803,31.3337,179.164,102.776,99.6965,0.00484437,0.100025,20.9581,21.3792,0.280198,0.0,0.0
374,93.25,27.6457,31.27,179.96,102.776,100.602,0.00487036,0.101984,20.9561,21.3591,0.196913,0.0,0.0
376,93.75,27.7948,31.5719,183.896,102.79,100.193,0.0048914,0.103736,20.9544,21.3491,0.235697,0.0,0.0
378,94.25,27.4802,31.4102,179.468,102.771,100.649,0.0048882,0.105156,20.9531,21.3391,0.192159,0.0,0.0
380,94.75,27.8175,31.6291,182.837,102.782,101.207,0.00486737,0.106499,20.9512,21.3091,0.142202,0.0,0.0
382,95.25,27.9734,31.5095,177.793,102.77,100.428,0.00483431,0.107586,20.9496,21.2891,0.212361,0.0,0.0
384,95.75,27.6231,31.8544,179.386,102.784,99.8022,0.00479295,0.10862,20.9483,21.249,0.271194,0.0,0.0
386,96.25,28.1283,31.6773,180.857,102.784,99.3527,0.00475946,0.109456,20.9473,21.2891,0.312729,0.0,0.0
388,96.75,27.9481,31.9004,181.771,102.786,100.4,0.00471696,0.110061,20.9465,21.3391,0.21634,0.0,0.0
390,97.25,27.6014,31.7436,184.67,102.774,101.015,0.00468253,0.110486,20.9458,21.3191,0.159017,0.0,0.0
392,97.75,27.9279,31.9908,185.328,102.795,100.292,0.0046508,0.11083,20.9452,21.3091,0.22706,0.0,0.0
394,98.25,27.2984,31.3774,176.908,102.782,100.227,0.0046251,0.110088,20.9461,21.169,0.231915,0.0,0.0
396,98.75,27.7656,31.5772,175.464,102.795,99.9902,0.00460294,0.109487,20.9468,21.9897,0.254805,0.0,0.0
398,99.25,27.8446,31.6095,176.717,102.784,102.803,0.00458377,0.107323,20.9496,11.2301,-0.00166302,0.0,0.0
400,99.75,27.6178,31.8249,188.001,102.803,103.59,0.00456488,0.10557,20.9518,-841.664,-0.0701585,0.0,0.0
402,100.25,28.0088,31.2383,186.146,102.781,103.786,0.00454654,0.10274,20.9549,-1275.76,-0.0896439,0.0,0.0
404,100.75,27.5757,30.9593,186.696,102.789,103.679,0.00453169,0.100448,20.9574,-914.639,-0.0794074,0.0,0.0
406,101.25,27.338,30.7034,181.987,102.784,103.593,0.00452536,0.0985909,20.9599,-938.611,-0.0721867,0.0,0.0
408,101.75,27.0094,29.7796,184.363,102.797,103.841,0.00450045,0.0964722,20.9612,-938.441,-0.0930577,0.0,0.0
410,102.25,27.0208,29.4,182.309,102.783,103.853,0.00447152,0.0945837,20.9634,-938.631,-0.0953316,0.0,0.0
412,102.75,26.4662,29.7559,179.478,102.797,103.786,0.00444021,0.0928989,20.9656,-938.621,-0.0881672,0.0,0.0
414,103.25,26.4392,29.4869,186.187,102.789,103.507,0.00441484,0.0915342,20.9674,-938.611,-0.064127,0.0,0.0
416,103.75,26.4554,29.3646,179.19,102.795,103.702,0.00437895,0.0900743,20.9689,-938.611,-0.0809513,0.0,0.0
418,104.25,26.8099,29.2801,181.439,102.785,103.839,0.00434988,0.089452,20.97,-938.611,-0.0939334,0.0,0.0
420,104.75,26.7486,29.6295,184.872,102.789,104.092,0.00431355,0.0883878,20.9719,-938.601,-0.115978,0.0,0.0
422,105.25,26.8295,28.9443,189.145,102.786,103.68,0.00427604,0.0872805,20.9733,-938.601,-0.079718,0.0,0.0
424,105.75,26.8428,29.3216,183.823,102.787,103.745,0.0042384,0.0863836,20.9745,-938.601,-0.0853863,0.0,0.0
426,106.25,25.7487,29.1553,180.081,102.792,104.362,0.00420791,0.0854938,20.9755,-938.601,-0.139683,0.0,0.0
428,106.75,26.3073,28.9112,183.302,102.803,103.835,0.00418322,0.084773,20.9763,-938.611,-0.0920274,0.0,0.0
430,107.25,26.3082,29.3744,183.067,102.779,104.38,0.00413256,0.0839986,20.9774,-938.621,-0.142419,0.0,0.0
432,107.75,26.4201,28.944,177.606,102.795,104.194,0.00409153,0.0833713,20.9787,-938.621,-0.124522,0.0,0.0
434,108.25,26.2733,29.8106,179.378,102.788,103.813,0.00405829,0.0826591,20.9798,-938.621,-0.0914041,0.0,0.0
436,108.75,26.4992,28.7818,184.069,102.823,103.377,0.00401927,0.0820823,20.9806,-938.611,-0.0494205,0.0,0.0
438,109.25,25.9272,28.0705,182.09,102.776,103.872,0.00397679,0.081615,20.9817,-938.591,-0.0977304,0.0,0.0
440,109.75,26.6344,29.0687,175.86,102.787,103.959,0.00395003,0.0809374,20.9826,-938.501,-0.104455,0.0,0.0
442,110.25,26.0424,28.294,183.425,102.781,104.471,0.00392836,0.0803886,20.9834,-938.671,-0.150186,0.0,0.0
444,110.75,25.8851,28.2803,183.721,102.824,103.556,0.00391912,0.079944,20.9837,-938.521,-0.065377,0.0,0.0
446,111.25,26.2302,28.2797,185.705,102.777,103.833,0.00392375,0.0794344,20.9847,-938.611,-0.0941524,0.0,0.0
448,111.75,26.0443,28.4045,183.682,102.777,104.573,0.00393825,0.0790216,20.9855,-938.591,-0.159522,0.0,0.0
450,112.25,25.4851,28.4676,182.416,102.764,103.947,0.00395968,0.0786229,20.9861,-938.581,-0.105392,0.0,0.0
452,112.75,25.9773,28.2927,176.955,102.757,104.593,0.00397704,0.0782421,20.9866,-938.581,-0.163166,0.0,0.0
454,113.25,25.7935,26.5815,180.651,102.76,104.006,0.00400004,0.0779121,20.987,-938.611,-0.110992,0.0,0.0
456,113.75,25.6005,28.2811,175.347,102.78,104.311,0.00401867,0.0777613,20.9874,-938.611,-0.136238,0.0,0.0
458,114.25,25.134,27.7909,178.553,102.766,103.516,0.00402354,0.0774748,20.9877,-938.621,-0.0669595,0.0,0.0
460,114.75,25.7746,27.9631,183.298,102.764,103.647,0.00402749,0.077217,20.9879,-938.621,-0.0787728,0.0,0.0
462,115.25,25.9021,28.1596,179.572,102.755,104.319,0.00403069,0.0770082,20.9881,-938.611,-0.139162,0.0,0.0
464,115.75,25.1807,27.9322,179.462,102.761,103.36,0.00398338,0.0768119,20.9883,-938.601,-0.0535858,0.0,0.0
466,116.25,25.7501,28.2141,182.736,102.752,103.693,0.00397066,0.0766529,20.9883,-938.591,-0.0839807,0.0,0.0
468,116.75,25.6275,28.1192,179.861,102.753,103.935,0.00392593,0.0765241,20.9884,-938.591,-0.105399,0.0,0.0
470,117.25,25.7462,28.2961,183.216,102.748,104.106,0.0038897,0.0764197,20.9885,-938.611,-0.12098,0.0,0.0
472,117.75,25.6599,28.2522,179.046,102.748,103.975,0.00385095,0.0762709,20.9886,-938.611,-0.109407,0.0,0.0
474,118.25,25.6318,28.6096,184.535,102.736,103.912,0.00381111,0.0760925,20.9891,-938.611,-0.104846,0.0,0.0
476,118.75,25.8412,28.4993,178.576,102.738,103.74,0.00377884,0.0758863,20.9895,-938.601,-0.0893179,0.0,0.0
478,119.25,25.9232,27.962,183.024,102.733,104.071,0.00374378,0.0757737,20.9898,-938.601,-0.11918,0.0,0.0
480,119.75,25.6901,27.7791,185.773,102.732,104.01,0.00371538,0.0755812,20.99,-938.611,-0.113891,0.0,0.0
482,120.25,25.703,28.2984,182.689,102.742,103.578,0.00368983,0.0753752,20.9902,-938.631,-0.0746692,0.0,0.0
484,120.75,25.6399,28.4957,182.522,102.719,104.016,0.00366913,0.0751634,20.9904,-938.641,-0.115497,0.0,0.0
486,121.25,25.3991,28.2362,177.393,102.721,103.845,0.00365491,0.0749489,20.9905,-938.641,-0.100244,0.0,0.0
488,121.75,25.7305,28.1388,178.032,102.723,104.072,0.0036434,0.0747367,20.9907,-938.621,-0.120182,0.0,0.0
490,122.25,25.9076,28.0762,180.342,102.702,104.128,0.00364816,0.0745647,20.9907,-938.621,-0.126998,0.0,0.0
492,122.75,25.7786,28.4882,178.342,102.722,103.549,0.00366471,0.0743983,20.9908,-938.621,-0.073818,0.0,0.0
494,123.25,25.9003,28.5778,186.055,102.692,104.031,0.00369154,0.0742635,20.9909,-938.631,-0.119336,0.0,0.0
496,123.75,25.2738,28.1579,181.808,102.708,103.722,0.00372537,0.0741272,20.9909,-938.621,-0.0904815,0.0,0.0
498,124.25,25.9404,28.4656,180.204,102.689,104.592,0.00373978,0.0740168,20.9909,-938.611,-0.169137,0.0,0.0
500,124.75,25.6429,28.2821,188.532,102.679,103.544,0.00378998,0.0738774,20.991,-938.611,-0.0773034,0.0,0.0
502,125.25,25.7054,28.2646,182.164,102.683,103.95,0.00383064,0.0737195,20.991,-938.621,-0.112906,0.0,0.0
504,125.75,25.8154,28.2871,181.026,102.678,103.678,0.00388273,0.0735916,20.9913,-938.651,-0.089278,0.0,0.0
506,126.25,25.5973,28.4626,177.661,102.684,103.591,0.00392493,0.0734609,20.9917,-938.621,-0.0810178,0.0,0.0
508,126.75,25.6359,28.5734,183.396,102.654,103.897,0.00396295,0.073355,20.992,-938.631,-0.110897,0.0,0.0
510,127.25,25.6024,28.424,182.429,102.654,103.756,0.00399374,0.0732956,20.9923,-938.631,-0.0983763,0.0,0.0
512,127.75,25.5359,28.5415,182.703,102.654,103.668,0.0040059,0.073194,20.9925,-938.631,-0.0905215,0.0,0.0
514,128.25,25.6054,28.6514,179.736,102.644,103.884,0.00401576,0.0731117,20.9927,-938.621,-0.110606,0.0,0.0
516,128.75,25.7113,28.275,188,102.655,103.695,0.00402374,0.073045,20.9928,-938.621,-0.0928519,0.0,0.0
518,129.25,25.5895,28.2876,175.418,102.637,103.655,0.00398168,0.072991,20.9929,-938.621,-0.0908818,0.0,0.0
520,129.75,25.8418,28.2154,180.541,102.626,103.503,0.00394762,0.0729473,20.993,-938.611,-0.078336,0.0,0.0
522,130.25,25.8149,27.7547,180.221,102.628,104.205,0.00392002,0.0729119,20.9931,-938.611,-0.140448,0.0,0.0
524,130.75,25.7148,28.4231,185.497,102.617,104.144,0.00387217,0.0728832,20.9932,-938.651,-0.136092,0.0,0.0
526,131.25,25.8252,28.3451,184.795,102.615,103.839,0.00381045,0.0728599,20.9931,-938.671,-0.109251,0.0,0.0
528,131.75,25.7887,28.2514,183.077,102.61,104.156,0.00376046,0.072814,20.9928,-938.661,-0.137758,0.0,0.0
530,132.25,25.614,28.672,183.793,102.609,104.165,0.00369195,0.0727768,20.9926,-938.641,-0.138572,0.0,0.0
532,132.75,25.3333,28.1692,183.389,102.597,103.859,0.00362639,0.0727466,20.9925,-938.641,-0.112561,0.0,0.0
534,133.25,24.9976,28.1986,181.205,102.593,103.742,0.00356425,0.0727222,20.9923,-938.641,-0.102589,0.0,0.0
536,133.75,25.2867,27.607,184.065,102.573,103.652,0.00351392,0.0726482,20.9922,-938.631,-0.0964072,0.0,0.0
538,134.25,25.3484,27.7541,175.758,102.58,103.782,0.00345915,0.0725882,20.9921,-938.621,-0.107279,0.0,0.0
540,134.75,25.3211,27.8596,182.947,102.571,103.715,0.00341478,0.0725261,20.9921,-938.631,-0.102149,0.0,0.0
542,135.25,25.4729,27.7266,183.106,102.565,104.097,0.0033763,0.0724758,20.992,-938.611,-0.136574,0.0,0.0
544,135.75,25.5991,28.1361,181.514,102.542,104.116,0.00334514,0.072435,20.992,-938.611,-0.14032,0.0,0.0
546,136.25,25.0182,28.0112,173.832,102.548,103.586,0.00331989,0.072402,20.9919,-938.631,-0.0928131,0.0,0.0
548,136.75,25.7803,28.1268,182.401,102.538,103.694,0.00331089,0.0723753,20.9919,-938.641,-0.103221,0.0,0.0
550,137.25,25.6907,27.9104,182.786,102.521,103.582,0.0033036,0.0723536,20.9919,-938.641,-0.0947875,0.0,0.0
552,137.75,24.874,28.0416,185.235,102.515,103.796,0.00331043,0.0723767,20.9919,-938.621,-0.114333,0.0,0.0
554,138.25,25.6231,27.3702,179.471,102.516,103.388,0.00331596,0.0723955,20.9918,-938.611,-0.0779993,0.0,0.0
556,138.75,25.5863,28.4546,179.491,102.495,103.631,0.00332647,0.0724321,20.9918,-938.611,-0.101494,0.0,0.0
558,139.25,25.8296,28.3811,183.476,102.492,104.016,0.00334041,0.072481,20.9918,-938.611,-0.135904,0.0,0.0
560,139.75,25.6095,28.4748,182.383,102.474,103.546,0.0033517,0.0725206,20.9918,-938.621,-0.0958519,0.0,0.0
562,140.25,25.3986,28.2294,182.547,102.495,104.096,0.00336467,0.0725662,20.9918,-938.621,-0.142745,0.0,0.0
564,140.75,25.5915,28.1039,185.277,102.469,103.573,0.00337517,0.0726032,20.9918,-938.621,-0.098717,0.0,0.0
566,141.25,24.7893,27.8157,183.68,102.473,103.486,0.00338623,0.0726189,20.9918,-938.621,-0.0905531,0.0,0.0
568,141.75,24.8996,27.6617,182.354,102.469,102.988,0.00339518,0.0726187,20.9918,-938.641,-0.0465498,0.0,0.0
570,142.25,25.4699,28.2133,183.373,102.44,103.719,0.00340498,0.0726257,20.9918,-938.641,-0.114335,0.0,0.0
572,142.75,25.4648,28.4103,191.294,102.431,103.376,0.00341292,0.0726379,20.9918,-938.621,-0.084604,0.0,0.0
574,143.25,25.8574,28.5368,183.076,102.435,103.181,0.00341935,0.0726477,20.9918,-938.621,-0.0667693,0.0,0.0
576,143.75,25.7098,28.6711,189.5,102.427,103.542,0.00343602,0.0726556,20.9918,-938.621,-0.0996898,0.0,0.0
578,144.25,25.7846,28.3086,184.905,102.426,103.965,0.00344953,0.072662,20.9918,-938.611,-0.137393,0.0,0.0
580,144.75,25.7678,28.6203,182.456,102.409,103.529,0.00347959,0.0726887,20.9918,-938.621,-0.100166,0.0,0.0
582,145.25,25.5346,27.9898,181.405,102.409,103.576,0.00350393,0.0727295,20.9918,-938.631,-0.104297,0.0,0.0
584,145.75,25.6826,28.0725,182.006,102.388,103.635,0.00353385,0.072734,20.9918,-938.661,-0.111522,0.0,0.0
586,146.25,25.3442,28.6525,180.897,102.387,103.827,0.00355809,0.072712,20.9918,-938.651,-0.12857,0.0,0.0
588,146.75,25.537,28.1433,177.931,102.38,103.484,0.00357644,0.0726942,20.9918,-938.641,-0.0988113,0.0,0.0
590,147.25,26.1147,28.6607,180.212,102.374,103.548,0.00359131,0.0726661,20.9918,-938.641,-0.105082,0.0,0.0
592,147.75,25.7122,28.6582,182.801,102.368,103.292,0.00360335,0.0726435,20.9918,-938.641,-0.0827553,0.0,0.0
594,148.25,25.9284,28.3365,183.666,102.358,103.922,0.00361311,0.0725844,20.9918,-938.641,-0.139682,0.0,0.0
596,148.75,25.5895,28.5162,179.029,102.348,103.447,0.00362739,0.0725366,20.9918,-938.631,-0.098409,0.0,0.0
598,149.25,25.944,28.5313,177.26,102.341,103.82,0.00363895,0.0725114,20.9918,-938.641,-0.13216,0.0,0.0
600,149.75,25.7286,28.6263,188.916,102.317,103.409,0.00364832,0.072491,20.9918,-938.631,-0.097792,0.0,0.0
602,150.25,25.883,28.437,185.524,102.312,103.362,0.00366598,0.0725151,20.9918,-938.621,-0.093996,0.0,0.0
604,150.75,25.9076,29.1017,187.105,102.295,103.709,0.00368934,0.0725347,20.9918,-938.641,-0.126412,0.0,0.0
606,151.25,25.4819,28.3413,181.355,102.308,103.813,0.00370827,0.0725641,20.9918,-938.671,-0.13448,0.0,0.0
608,151.75,25.7262,28.1106,182.883,102.294,103.795,0.00373381,0.0725879,20.9918,-938.661,-0.134163,0.0,0.0
610,152.25,25.7049,28.6314,183.963,102.285,103.618,0.0037545,0.0726072,20.9918,-938.621,-0.119236,0.0,0.0
612,152.75,25.7418,28.7212,183.729,102.259,103.212,0.00376232,0.0726635,20.9918,-938.621,-0.0854611,0.0,0.0
614,153.25,26.0217,28.4354,182.995,102.271,103.244,0.00376866,0.0727091,20.9918,-938.621,-0.0871918,0.0,0.0
616,153.75,25.9372,28.5245,178.803,102.255,103.472,0.00377379,0.0727461,20.9918,-938.631,-0.108967,0.0,0.0
618,154.25,25.591,28.3146,183.08,102.258,103.193,0.00374989,0.0728981,20.9917,-938.631,-0.083855,0.0,0.0
620,154.75,25.7146,28.6369,182.391,102.236,103.715,0.00373053,0.0730212,20.9915,-938.641,-0.132257,0.0,0.0
622,155.25,25.9132,28.4852,184.734,102.255,103.678,0.00370464,0.0732566,20.9914,-938.651,-0.127335,0.0,0.0
624,155.75,25.5852,28.6794,182.43,102.236,103.342,0.00368368,0.0734473,20.9913,-938.661,-0.0990821,0.0,0.0
626,156.25,25.3483,28.0092,182.746,102.228,103.004,0.00366415,0.0736018,20.9912,-938.651,-0.0696601,0.0,0.0
628,156.75,25.5332,28.8023,179.735,102.203,102.855,0.00364833,0.0738626,20.9911,-938.651,-0.0585016,0.0,0.0
630,157.25,25.4482,28.5971,186.941,102.211,103.467,0.00363887,0.0740739,20.9911,-938.631,-0.112499,0.0,0.0
632,157.75,25.6171,28.2638,181.25,102.203,103.336,0.00363423,0.0743536,20.991,-938.621,-0.101532,0.0,0.0
634,158.25,25.5362,28.1787,191.292,102.194,103.235,0.00363651,0.0745802,20.991,-938.611,-0.0933216,0.0,0.0
636,158.75,25.9791,28.4956,188.127,102.192,103.657,0.00364379,0.0748452,20.9909,-938.601,-0.131036,0.0,0.0
638,159.25,25.6333,28.5392,182.197,102.192,103.612,0.00364968,0.0750599,20.9909,-938.611,-0.127055,0.0,0.0
640,159.75,25.7168,28.3167,185.653,102.171,103.203,0.00366977,0.0752195,20.9907,-938.611,-0.0926201,0.0,0.0
642,160.25,25.6616,28.3265,178.08,102.164,103.158,0.00368604,0.0753358,20.9902,-938.611,-0.0891472,0.0,0.0
644,160.75,26.1012,28.7965,186.197,102.162,102.835,0.00370324,0.0754301,20.9899,-938.611,-0.0604233,0.0,0.0
646,161.25,25.5423,28.5914,182.826,102.149,102.766,0.0037208,0.0754658,20.9901,-938.621,-0.0554447,0.0,0.0
648,161.75,25.8798,28.7986,181.301,102.144,102.881,0.00373503,0.0754946,20.9902,-938.621,-0.0661655,0.0,0.0
650,162.25,25.6919,28.3747,183.679,102.145,103.37,0.00375293,0.0755316,20.9901,-938.621,-0.109852,0.0,0.0
652,162.75,25.5438,28.5026,181.484,102.132,103.334,0.00376743,0.0755615,20.9898,-938.621,-0.107755,0.0,0.0
654,163.25,25.6221,28.6575,186.462,102.112,103.013,0.00378811,0.0755643,20.9895,-938.621,-0.0809358,0.0,0.0
656,163.75,25.4147,28.1221,177.572,102.125,103.514,0.00380487,0.0755473,20.9893,-938.641,-0.124396,0.0,0.0
658,164.25,24.7341,29.3036,182.564,102.102,103.542,0.00381843,0.0755335,20.9892,-938.641,-0.128956,0.0,0.0
660,164.75,25.4717,28.3268,185.048,102.124,103.427,0.00383453,0.0754137,20.9893,-938.651,-0.116692,0.0,0.0
662,165.25,25.2844,28.3976,185.734,102.102,103.097,0.00384757,0.0753167,20.9896,-938.651,-0.0893063,0.0,0.0
664,165.75,25.1776,28.3059,181.532,102.099,102.84,0.00385175,0.0751567,20.9898,-938.641,-0.0665592,0.0,0.0
666,166.25,25.5856,28.3485,181.89,102.098,103.027,0.00385513,0.0750271,20.99,-938.661,-0.0833658,0.0,0.0
668,166.75,25.5818,28.1909,182.661,102.089,102.669,0.00384894,0.0748721,20.9901,-938.651,-0.0521243,0.0,0.0
670,167.25,24.9197,28.6861,183.835,102.089,103.293,0.00384392,0.0747016,20.9903,-938.641,-0.108012,0.0,0.0
672,167.75,25.4493,28.2713,177.245,102.082,103.09,0.00383603,0.0745634,20.9908,-938.641,-0.0904843,0.0,0.0
674,168.25,25.2681,28.0755,180.871,102.071,103.686,0.00382964,0.0743973,20.9912,-938.641,-0.14461,0.0,0.0
676,168.75,26.0952,28.4789,181.339,102.08,103.296,0.00382064,0.0742627,20.9916,-938.631,-0.10913,0.0,0.0
678,169.25,25.5111,28.1685,185.379,102.084,103.282,0.00381334,0.0741401,20.9919,-938.631,-0.107449,0.0,0.0
680,169.75,25.3987,28.3534,177.595,102.069,102.861,0.0038036,0.0740408,20.9921,-938.621,-0.0712639,0.0,0.0
682,170.25,25.8417,27.8584,183.078,102.059,103.418,0.00379572,0.0739332,20.9923,-938.631,-0.121812,0.0,0.0
684,170.75,25.2533,27.9114,180.671,102.067,103.883,0.00378933,0.0738461,20.9924,-938.631,-0.162454,0.0,0.0
686,171.25,25.4406,28.1956,180.404,102.082,103.205,0.00376513,0.0737484,20.9926,-938.611,-0.100724,0.0,0.0
688,171.75,25.2735,28.2416,177.636,102.056,103.541,0.00374553,0.0736693,20.9927,-938.631,-0.133027,0.0,0.0
690,172.25,25.8705,27.8657,183.254,102.045,103.299,0.00370671,0.0735781,20.9928,-938.641,-0.112535,0.0,0.0
692,172.75,25.0834,27.7615,180.301,102.058,103.225,0.00367526,0.0735042,20.993,-938.641,-0.104748,0.0,0.0
694,173.25,25.3065,27.9896,182.811,102.044,103.022,0.00364442,0.0734161,20.9932,-938.651,-0.0878735,0.0,0.0
696,173.75,25.2852,27.7468,186.389,102.051,104.102,0.00361462,0.0733194,20.9934,-938.651,-0.183239,0.0,0.0
698,174.25,25.5526,28.103,182.561,102.037,103.041,0.00359249,0.0732411,20.9935,-938.641,-0.0901905,0.0,0.0
700,174.75,25.4494,28.1159,184.214,102.049,103.309,0.00357637,0.0731776,20.9936,-938.631,-0.113036,0.0,0.0
702,175.25,25.1565,28.2382,190.257,102.031,103.273,0.00357002,0.0731263,20.9936,-938.641,-0.11151,0.0,0.0
704,175.75,25.4573,27.9596,184.643,102.034,103.306,0.00357092,0.0730918,20.9937,-938.641,-0.114046,0.0,0.0
706,176.25,25.2714,28.1373,180.99,102.009,103.273,0.00357164,0.0730703,20.9937,-938.641,-0.11341,0.0,0.0
708,176.75,25.5842,28.2202,182.454,102.029,103.862,0.00358096,0.0730386,20.9938,-938.641,-0.164085,0.0,0.0
710,177.25,25.3743,28.2022,184.498,102.007,103.421,0.00359635,0.073,20.9936,-938.651,-0.126829,0.0,0.0
712,177.75,25.4801,27.6313,181.839,102.022,103.162,0.00360882,0.0729688,20.9933,-938.651,-0.102365,0.0,0.0
714,178.25,25.2747,28.2414,180.342,102.008,103.22,0.00361891,0.0729435,20.9931,-938.651,-0.108793,0.0,0.0
716,178.75,25.4132,28.1148,180.871,102.019,103.361,0.0036424,0.0729231,20.9929,-938.641,-0.12034,0.0,0.0
718,179.25,25.4755,28.0201,186.675,102.004,103.102,0.00366142,0.0729065,20.9928,-938.641,-0.0986104,0.0,0.0
720,179.75,25.2253,27.8549,180.768,102.002,103.108,0.00368959,0.0728659,20.9926,-938.631,-0.0992836,0.0,0.0
722,180.25,24.937,28.1752,180.722,102,102.921,0.0037124,0.0728331,20.9925,-938.661,-0.0827952,0.0,0.0
724,180.75,24.9072,27.9,181.653,102.006,103.191,0.00373889,0.0728208,20.9925,-938.651,-0.106335,0.0,0.0
726,181.25,25.6408,28.0191,182.832,101.99,103.093,0.00376755,0.0728236,20.9928,-938.651,-0.0990405,0.0,0.0
728,181.75,25.1366,28.1176,181.42,101.996,103.012,0.00379412,0.0728259,20.9931,-938.651,-0.0913381,0.0,0.0
730,182.25,25.2821,28.4088,182.32,101.987,103.076,0.00381866,0.0728549,20.9933,-938.641,-0.0978569,0.0,0.0
732,182.75,25.5734,28.2339,181.129,102.005,103.051,0.00383855,0.0728784,20.9933,-938.651,-0.0939439,0.0,0.0
734,183.25,25.2354,27.9691,181.207,101.983,102.622,0.00384955,0.0729517,20.9934,-938.651,-0.0575298,0.0,0.0
736,183.75,24.9008,28.1277,184.5,101.996,103.004,0.00385845,0.0730111,20.9934,-938.651,-0.0905847,0.0,0.0
738,184.25,25.2259,27.9907,178.249,101.974,102.829,0.00385546,0.0730588,20.9934,-938.631,-0.0768777,0.0,0.0
740,184.75,24.9144,28.0488,182.473,101.982,102.944,0.00385303,0.0730971,20.9934,-938.631,-0.0864569,0.0,0.0
742,185.25,25.3626,28.3023,183.086,101.978,103.138,0.00384972,0.0731282,20.9935,-938.641,-0.104194,0.0,0.0
744,185.75,25.0727,28.0431,182.034,101.989,102.916,0.00384584,0.0731176,20.9935,-938.651,-0.0833209,0.0,0.0
746,186.25,25.7747,28.0187,182.771,101.98,103.11,0.00384604,0.073077,20.9935,-938.651,-0.101577,0.0,0.0
748,186.75,25.0781,27.9294,180.589,101.98,103.03,0.00384924,0.0730169,20.9935,-938.661,-0.0943327,0.0,0.0
750,187.25,25.3982,27.6945,181.421,101.977,103.025,0.00385182,0.0729682,20.9935,-938.651,-0.0941729,0.0,0.0
752,187.75,25.4048,27.7898,188.451,101.965,103.076,0.00385264,0.0729146,20.9935,-938.641,-0.0997564,0.0,0.0
754,188.25,25.08,27.6044,181.165,101.97,102.881,0.0038533,0.0728582,20.9935,-938.641,-0.0819621,0.0,0.0
756,188.75,25.5072,28.4209,181.439,101.985,103.408,0.0038449,0.0728126,20.9935,-938.651,-0.12769,0.0,0.0
758,189.25,25.5774,27.7028,184.802,101.975,103.14,0.0038381,0.0727756,20.9935,-938.651,-0.10461,0.0,0.0
760,189.75,25.5137,28.6638,183.884,101.981,102.743,0.00381728,0.0727457,20.9935,-938.641,-0.0686053,0.0,0.0
762,190.25,25.2473,28.1118,186.079,101.976,102.897,0.00380042,0.0727079,20.9935,-938.651,-0.0828728,0.0,0.0
764,190.75,25.405,28.0477,180.961,101.976,103.044,0.00376763,0.0726773,20.9935,-938.641,-0.0959718,0.0,0.0
766,191.25,25.1969,27.8312,183.499,101.958,103.392,0.00374107,0.0726796,20.9935,-938.631,-0.128619,0.0,0.0
768,191.75,25.8905,28.2067,178.685,101.965,103.001,0.00371956,0.0726815,20.9935,-938.641,-0.0930909,0.0,0.0
770,192.25,25.6823,28.2581,180.382,101.975,102.809,0.00367283,0.0727372,20.9935,-938.661,-0.074983,0.0,0.0
772,192.75,25.4224,28.4041,183.077,101.969,103.183,0.00363497,0.0727824,20.9935,-938.651,-0.10908,0.0,0.0
774,193.25,25.375,28.265,177.992,101.965,103.198,0.00359894,0.0728732,20.9935,-938.671,-0.110733,0.0,0.0
776,193.75,25.7176,28.2015,181.426,101.966,104.086,0.00356493,0.0729468,20.9935,-938.671,-0.189525,0.0,0.0
778,194.25,25.423,28.0297,183.797,101.958,103.116,0.00353672,0.0730064,20.9935,-938.661,-0.104073,0.0,0.0
780,194.75,25.4684,28.3762,182.732,101.957,102.898,0.00351326,0.073109,20.9935,-938.661,-0.084645,0.0,0.0
782,195.25,25.722,28.4409,180.59,101.95,102.731,0.00349425,0.073192,20.9935,-938.671,-0.0702714,0.0,0.0
784,195.75,25.0507,28.3544,183.548,101.94,104.018,0.00348014,0.0732593,20.9935,-938.681,-0.185852,0.0,0.0
786,196.25,25.491,28.4152,179.514,101.952,103.401,0.0034687,0.0733816,20.9935,-938.681,-0.129934,0.0,0.0
788,196.75,26.0273,28.0781,181.455,101.944,103.416,0.00346326,0.0734807,20.9935,-938.651,-0.131966,0.0,0.0
790,197.25,25.4226,28.1178,178.609,101.955,103.129,0.00345885,0.073561,20.9935,-938.671,-0.105504,0.0,0.0
792,197.75,24.6508,27.8577,184.767,101.941,102.651,0.00345783,0.073626,20.9935,-938.651,-0.0638876,0.0,0.0
794,198.25,25.6765,27.8908,176.582,101.944,102.913,0.003457,0.073638,20.9935,-938.651,-0.0870964,0.0,0.0
796,198.75,25.4459,27.7207,178.201,101.938,103.116,0.00345633,0.0736476,20.9935,-938.641,-0.10583,0.0,0.0
798,199.25,25.0127,27.9815,184.463,101.94,103.272,0.00345706,0.0736283,20.9935,-938.641,-0.119538,0.0,0.0
800,199.75,25.1485,28.2239,178.837,101.932,102.914,0.00345765,0.0736127,20.9933,-938.651,-0.0883341,0.0,0.0
802,200.25,25.2471,28.2052,177.221,101.949,102.93,0.00345813,0.0736136,20.9929,-938.651,-0.0882138,0.0,0.0
804,200.75,25.3288,28.4401,182.26,101.936,102.925,0.00344451,0.0736144,20.9928,-938.631,-0.088931,0.0,0.0
806,201.25,25.4769,27.8966,183.893,101.93,102.788,0.00343347,0.0736649,20.9928,-938.641,-0.0771617,0.0,0.0
808,201.75,26.0013,28.1652,179.288,101.924,103.549,0.00341053,0.0737509,20.9929,-938.661,-0.145712,0.0,0.0
810,202.25,25.1886,28.0038,179.904,101.93,103.039,0.00339195,0.0738205,20.9929,-938.651,-0.0997053,0.0,0.0
812,202.75,25.587,28.2892,188.619,101.928,103.779,0.00337817,0.0738769,20.993,-938.671,-0.165729,0.0,0.0
814,203.25,25.0888,28.196,177.326,101.92,103.053,0.00336701,0.0742077,20.9925,-938.641,-0.101794,0.0,0.0
816,203.75,25.3078,27.9565,180.188,101.918,103.271,0.00336735,0.0744756,20.9922,-938.661,-0.121468,0.0,0.0
818,204.25,25.5666,28.5721,180.02,101.917,103.114,0.00337607,0.0746997,20.9919,-938.661,-0.10759,0.0,0.0
820,204.75,25.8362,28.0517,185.585,101.914,103.049,0.0033952,0.0748877,20.9917,-938.661,-0.102041,0.0,0.0
822,205.25,25.5632,28.3669,183.404,101.918,103.609,0.00342156,0.0750257,20.9916,-938.661,-0.151565,0.0,0.0
824,205.75,25.4187,28.3402,179.559,101.913,103.31,0.00344291,0.0751246,20.9914,-938.651,-0.125417,0.0,0.0
826,206.25,25.84,28.2076,182.775,101.913,102.973,0.00347631,0.0751761,20.9913,-938.651,-0.09528,0.0,0.0
828,206.75,25.0831,28.2587,182.855,101.911,103.109,0.00351785,0.0751921,20.9912,-938.661,-0.10763,0.0,0.0
830,207.25,25.2673,28.0054,182.399,101.915,103.036,0.00355822,0.0752051,20.9911,-938.681,-0.100763,0.0,0.0
832,207.75,25.8074,28.3002,184.022,101.905,103.21,0.00359696,0.0751477,20.9911,-938.671,-0.117178,0.0,0.0
834,208.25,25.2669,28.4882,184.528,101.902,103.31,0.00362833,0.0751012,20.991,-938.661,-0.126402,0.0,0.0
836,208.75,26.111,27.993,178.967,101.909,102.969,0.00365885,0.0749993,20.991,-938.641,-0.0952512,0.0,0.0
838,209.25,25.2508,28.2176,179.378,101.903,103.287,0.00368357,0.0748589,20.9909,-938.651,-0.124283,0.0,0.0
840,209.75,25.2822,28.6419,183.295,101.892,103.167,0.00370998,0.0747451,20.9911,-938.661,-0.114588,0.0,0.0
842,210.25,25.1154,27.7915,179.455,101.895,103.046,0.00373203,0.074558,20.9915,-938.641,-0.103442,0.0,0.0
844,210.75,24.681,27.9214,184.85,101.879,103.259,0.00375051,0.0744065,20.9918,-938.631,-0.123959,0.0,0.0
846,211.25,25.2053,28.2838,183.299,101.889,103.203,0.00376547,0.0742294,20.9921,-938.631,-0.118024,0.0,0.0
848,211.75,25.5574,27.9044,188.085,101.876,102.874,0.00376993,0.074086,20.9925,-938.641,-0.0897947,0.0,0.0
850,212.25,25.4919,28.5018,189.062,101.885,103.229,0.00377355,0.0739428,20.993,-938.641,-0.120645,0.0,0.0
852,212.75,24.8986,28.5458,181.879,101.87,103.141,0.00377648,0.0738267,20.9935,-938.641,-0.114173,0.0,0.0
854,213.25,25.2206,27.5261,181.891,101.875,102.636,0.00375971,0.0737327,20.9936,-938.641,-0.0685285,0.0,0.0
856,213.75,25.2021,28.2265,186.72,101.867,102.956,0.00374614,0.0736566,20.9935,-938.651,-0.0979529,0.0,0.0
858,214.25,25.6135,27.8698,181.27,101.869,103.162,0.00373715,0.0735542,20.9934,-938.651,-0.116193,0.0,0.0
860,214.75,25.2849,27.8828,186.788,101.851,102.611,0.00373169,0.0734713,20.9934,-938.671,-0.0684234,0.0,0.0
862,215.25,25.4604,28.3981,183.886,101.878,103.333,0.00373129,0.0734041,20.9933,-938.661,-0.130669,0.0,0.0
864,215.75,25.6648,28.3733,182.417,101.845,103.389,0.00373459,0.0733226,20.9933,-938.651,-0.138615,0.0,0.0
866,216.25,25.1148,27.4643,179.991,101.854,102.977,0.00374062,0.0732565,20.9932,-938.651,-0.100962,0.0,0.0
868,216.75,25.1768,27.6601,185.663,101.842,102.944,0.00374853,0.0732102,20.9936,-938.641,-0.0990888,0.0,0.0
870,217.25,25.288,28.3529,184.872,101.844,102.963,0.00375561,0.073179,20.994,-938.641,-0.100576,0.0,0.0
872,217.75,25.4001,28.0351,184.308,101.847,102.723,0.00376194,0.0731538,20.9938,-938.641,-0.078898,0.0,0.0
874,218.25,25.4703,27.9169,179.575,101.846,103.136,0.00376573,0.0731334,20.9937,-938.651,-0.115923,0.0,0.0
876,218.75,25.2796,27.6407,186.159,101.826,102.62,0.0037676,0.0731312,20.9936,-938.651,-0.0715969,0.0,0.0
878,219.25,25.3743,28.1965,186.329,101.838,103.092,0.0037691,0.0731422,20.9935,-938.631,-0.112695,0.0,0.0
880,219.75,25.2166,27.5718,181.806,101.83,102.748,0.00376764,0.0731511,20.9934,-938.621,-0.0826218,0.0,0.0
882,220.25,25.0603,27.8908,182.725,101.832,103.226,0.00376403,0.0731448,20.9938,-938.621,-0.125142,0.0,0.0
884,220.75,24.8669,28.1229,183.779,101.816,102.789,0.00376514,0.0731396,20.9941,-938.631,-0.0876468,0.0,0.0
886,221.25,24.8301,28.3227,183.623,101.827,103.409,0.00376967,0.0730948,20.9943,-938.631,-0.142029,0.0,0.0
888,221.75,25.3302,27.872,185.124,101.808,103.207,0.00377333,0.0730585,20.9945,-938.661,-0.125771,0.0,0.0
890,222.25,25.1179,28.3503,185.941,101.799,103.137,0.00380566,0.0730019,20.9947,-938.671,-0.120297,0.0,0.0
892,222.75,25.7495,27.929,179.621,101.804,102.805,,0.0729561,,-938.681,-0.0901639,0.0,0.0
894,223.25,25.2453,27.5645,184.343,101.808,102.603,,0.0729333,,-938.671,-0.0716124,0.0,0.0
896,223.75,25.1572,27.9935,180.265,101.803,103.174,,0.0729276,,-938.671,-0.123217,0.0,0.0
898,224.25,25.3569,28.1412,178.886,101.812,103.127,,0.0729231,,-938.671,-0.118228,0.0,0.0
900,224.75,25.3841,27.8553,181.559,101.798,103.132,,0.0729465,,-938.681,-0.119871,0.0,0.0
902,225.25,25.054,28.1362,182.167,101.8,103.071,,0.0729655,,-938.691,-0.114282,0.0,0.0
904,225.75,25.3941,28.1214,184.505,101.795,103.209,,,,-938.661,-0.127066,0.0,0.0
906,226.25,24.9838,27.3728,181.717,101.804,102.544,,,,-938.661,-0.0666725,0.0,0.0
908,226.75,24.9527,28.3364,186.729,101.799,102.912,,,,-938.651,-0.10023,0.0,0.0
910,227.25,25.2165,28.6491,185.606,101.797,102.977,,,,-938.641,-0.106198,0.0,0.0
912,227.75,25.4605,27.6902,184.255,101.785,103.475,,,,-938.631,-0.151657,0.0,0.0
914,228.25,25.2217,28.0322,179.576,101.795,102.752,,,,-938.641,-0.0861682,0.0,0.0
916,228.75,25.5582,28.2817,183.778,101.784,103.404,,,,-938.651,-0.145465,0.0,0.0
918,229.25,25.129,27.9955,179.681,101.792,103.456,,,,-938.641,-0.149376,0.0,0.0
920,229.75,25.1735,27.8151,178.573,101.781,102.819,,,,-938.651,-0.093442,0.0,0.0
922,230.25,25.7789,28.0894,176.032,101.793,102.777,,,,-938.641,-0.0886001,0.0,0.0
924,230.75,25.4787,28.0204,187.518,101.79,102.469,,,,-938.651,-0.0612804,0.0,0.0
926,231.25,25.4572,27.9206,183.952,101.787,102.97,,,,-938.661,-0.106434,0.0,0.0
928,231.75,25.5037,28.0739,178.543,101.775,102.852,,,,-938.671,-0.0969243,0.0,0.0
930,232.25,25.3666,28.0969,183.473,101.78,103.144,,,,-938.671,-0.122584,0.0,0.0
932,232.75,25.2059,28.3132,183.939,101.771,102.764,,,,-938.651,-0.089421,0.0,0.0
934,233.25,25.7532,28.3573,188.98,101.771,103.644,,,,-938.651,-0.167973,0.0,0.0
935,233.5,25.3002,27.6495,182.627,101.784,103.053,,,,-938.651,-0.114098,0.0,0.0