File: 01_Data/Face_Shield/Cone/Face_Shield_Cone_HF75-Frame+GridScan_201103_R1.csv
Names,Time,Stack TC,Smoke TC,Exh Press,Smoke Comp,Smoke Meas,CO Meter,CO2 Meter,O2 Meter,Sample Mass,Ext Coeff,Start Test,Flame Verif
Chan Gain,,500,500,1,1,1,1,1,1,1,1,1.0,1.0
Offset,,0,0,0.134413,0,0,0,0,0,0,0,0.0,0.0
Gain,,1,1,25.011,13.8462,17.0661,1,1,1,1.0009,1.04998,1.0,1.0
Units,sec,C,C,Pa,%,%,%,%,%,g,/m,,
Baseline,,32.824,36.8027,178.407,102.027,103.975,0.00344721,0.0697762,20.9964,-937.802,-0.174101,,
2,0.25,31.2553,33.8003,181.79,102.496,104.653,0.00330841,0.077667,20.9892,64.9282,-0.191837,0.0,0.0
4,0.75,30.9907,33.4546,176.931,102.503,104.516,0.00333714,0.0778297,20.9888,64.8581,-0.179045,0.0,0.0
6,1.25,31.0076,33.9409,177.134,102.506,104.953,0.00336041,0.0778842,20.9885,64.9282,-0.217252,0.0,0.0
8,1.75,30.9041,34.2006,176.084,102.509,104.045,0.00338261,0.0778354,20.9883,64.8981,-0.136975,0.0,0.0
10,2.25,31.092,34.0561,179.984,102.531,103.77,0.00340361,0.0777121,20.9881,64.9382,-0.110656,0.0,0.0
12,2.75,31.4427,33.97,186.488,102.517,103.928,0.0034233,0.0776123,20.9879,64.8581,-0.12595,0.0,0.0
14,3.25,31.0113,34.0461,177.28,102.555,104.953,0.00344167,0.0773413,20.9882,64.8681,-0.212879,0.0,0.0
16,3.75,31.2196,34.1968,179.442,102.536,104.793,0.0034552,0.0771217,20.9885,64.8581,-0.200469,0.0,0.0
18,4.25,31.3736,34.5481,173.484,102.561,104.022,0.00346496,0.0768653,20.9886,64.8081,-0.130278,0.0,0.0
20,4.75,31.3526,34.7172,177.09,102.561,104.068,0.00346817,0.0765868,20.9888,64.8581,-0.134289,0.0,0.0
22,5.25,31.297,34.6349,177.753,102.552,104.011,0.00346654,0.0762827,20.9892,64.8381,-0.130182,0.0,0.0
24,5.75,31.1419,34.6388,179.743,102.554,104.351,0.00346523,0.0759656,20.9897,64.8681,-0.159975,0.0,0.0
26,6.25,31.5637,34.5519,178.601,102.565,104.352,0.00344888,0.0756302,20.9901,64.8281,-0.159035,0.0,0.0
28,6.75,31.6133,34.7153,178.69,102.574,104.602,0.00343563,0.0752878,20.9904,64.8481,-0.180239,0.0,0.0
30,7.25,31.8821,34.6944,179.262,102.573,105.183,0.00342491,0.0749248,20.9907,64.8481,-0.231428,0.0,0.0
32,7.75,31.6396,34.7984,171.447,102.578,103.896,0.00340215,0.0745536,20.9909,64.8581,-0.117593,0.0,0.0
34,8.25,31.0675,35.4586,178.261,102.563,104.215,0.00337106,0.074253,20.991,64.8381,-0.147172,0.0,0.0
36,8.75,32.1185,34.9677,180.859,102.579,105.231,0.00333984,0.0738875,20.9916,64.8181,-0.235053,0.0,0.0
38,9.25,31.6417,35.0879,177.305,102.577,104.691,0.00330914,0.0735914,20.9921,64.8481,-0.187811,0.0,0.0
40,9.75,31.6242,35.0361,179.401,102.582,104.354,0.00328427,0.0733515,20.9925,64.8181,-0.157701,0.0,0.0
42,10.25,32.126,34.9047,176.109,102.567,104.324,0.00326539,0.0731301,20.9928,64.8281,-0.156447,0.0,0.0
44,10.75,32.3243,35.4108,181.787,102.571,104.467,0.0032501,0.0729508,20.993,64.8581,-0.168656,0.0,0.0
46,11.25,31.7862,35.5956,178.591,102.577,105.44,0.00325426,0.0728984,20.9932,64.8381,-0.253588,0.0,0.0
48,11.75,32.0593,35.0703,178.126,102.562,104.512,0.00325763,0.0729394,20.993,64.8481,-0.173447,0.0,0.0
50,12.25,31.1987,35.7568,175.251,102.606,104.333,0.00327563,0.0730725,20.9927,64.8381,-0.153783,0.0,0.0
52,12.75,32.2093,35.2946,176.899,102.572,104.003,0.00329021,0.0732704,20.9925,64.8181,-0.127538,0.0,0.0
54,13.25,32.0028,35.5676,175.263,102.568,104.509,0.00330839,0.0735592,20.9924,64.8481,-0.172687,0.0,0.0
56,13.75,32.1372,35.1206,176.997,102.56,103.959,0.00332311,0.0739089,20.9923,64.8281,-0.124848,0.0,0.0
58,14.25,31.9306,35.5288,185.478,102.556,104.385,0.00333504,0.0742993,20.9922,64.8381,-0.162773,0.0,0.0
60,14.75,31.9933,35.4388,177.04,102.544,104.258,0.00332688,0.0747121,20.9921,64.8081,-0.1527,0.0,0.0
62,15.25,32.0134,35.5573,179.449,102.541,104.409,0.00332026,0.0750464,20.9921,64.8581,-0.166291,0.0,0.0
64,15.75,32.1984,35.9421,180.179,102.531,104.197,0.00331491,0.0756297,20.9918,64.8681,-0.148529,0.0,0.0
66,16.25,32.4733,35.8944,174.102,102.531,103.793,0.00326097,0.0761022,20.9913,64.8581,-0.112659,0.0,0.0
68,16.75,32.0507,35.9908,180.958,102.512,103.911,0.00321727,0.0768573,20.991,64.8281,-0.124853,0.0,0.0
70,17.25,32.6757,36.5238,180.302,102.517,104.779,0.00318188,0.0778039,20.9901,64.8281,-0.200987,0.0,0.0
72,17.75,31.9907,35.7077,177.315,102.503,104.02,0.00312272,0.0785707,20.9895,64.8281,-0.135285,0.0,0.0
74,18.25,32.1072,35.4731,179.291,102.504,104.405,0.0030748,0.0802005,20.9882,64.8281,-0.169226,0.0,0.0
76,18.75,32.2801,35.6131,180.529,102.475,103.608,0.00303725,0.0815206,20.9866,64.8081,-0.101288,0.0,0.0
78,19.25,32.4074,35.8034,177.052,102.482,104.349,0.00300684,0.0825899,20.9848,64.8181,-0.166291,0.0,0.0
80,19.75,32.1782,35.4777,178.643,102.455,104.676,0.00299157,0.0839883,20.983,64.8281,-0.1975,0.0,0.0
82,20.25,32.3969,36.0143,179.363,102.45,103.997,0.00298762,0.0855998,20.9815,64.8181,-0.138003,0.0,0.0
84,20.75,31.9698,35.9131,177.761,102.434,105.378,0.00300095,0.0869052,20.9802,64.8181,-0.260922,0.0,0.0
86,21.25,32.2624,35.8848,174.013,102.43,104.474,0.00301174,0.0880447,20.9793,64.8081,-0.182019,0.0,0.0
88,21.75,32.5365,36.2338,174.895,102.399,103.974,0.00302049,0.0889676,20.9785,64.798,-0.140609,0.0,0.0
90,22.25,31.8046,35.7715,180.212,102.394,104.413,0.00304156,0.0893323,20.9778,64.768,-0.179846,0.0,0.0
92,22.75,31.3263,35.9931,174.973,102.365,104.6,0.00305862,0.0896276,20.9773,64.8081,-0.198947,0.0,0.0
94,23.25,32.1064,35.9954,174.425,102.367,104.08,0.00306791,0.0894296,20.9771,64.788,-0.152905,0.0,0.0
96,23.75,32.5427,36.481,178.371,102.342,103.843,0.00308378,0.0892693,20.9771,64.778,-0.134154,0.0,0.0
98,24.25,32.442,36.3747,181.568,102.326,104.233,0.00309262,0.0888377,20.9772,64.758,-0.170088,0.0,0.0
100,24.75,32.2277,36.3669,184.918,102.315,103.634,0.00309617,0.0882166,20.9776,64.778,-0.118,0.0,0.0
102,25.25,32.4481,36.1962,177.421,102.299,104.305,0.00309503,0.0877136,20.978,64.788,-0.178795,0.0,0.0
104,25.75,32.4332,36.1001,176.02,102.265,104.708,0.00309049,0.0868427,20.9783,64.788,-0.217405,0.0,0.0
106,26.25,32.5936,36.4221,175.259,102.27,103.76,0.00309217,0.0864714,20.9786,64.798,-0.133235,0.0,0.0
108,26.75,32.9061,36.4529,175.234,102.217,104.448,0.00309835,0.0857075,20.9792,64.798,-0.198817,0.0,0.0
110,27.25,32.4105,36.545,181.529,102.217,103.953,0.00310335,0.0849726,20.9797,64.8081,-0.155037,0.0,0.0
112,27.75,32.372,36.6079,179.998,102.179,104.004,0.00313422,0.0842842,20.9804,64.768,-0.163069,0.0,0.0
114,28.25,32.7205,36.6889,176.346,102.174,103.519,0.00315923,0.0836428,20.9811,64.788,-0.12044,0.0,0.0
116,28.75,32.2667,36.6572,177.418,102.143,103.995,0.00317948,0.0830874,20.9817,64.798,-0.165524,0.0,0.0
118,29.25,33.0373,36.7852,175.449,102.122,103.789,0.00321626,0.0826054,20.9823,64.8181,-0.149098,0.0,0.0
120,29.75,32.9164,36.6636,180.425,102.103,103.887,0.00324605,0.0821862,20.9828,64.778,-0.159545,0.0,0.0
122,30.25,33.0929,36.5854,183.687,102.066,103.85,0.00328772,0.081821,20.9834,64.798,-0.15962,0.0,0.0
124,30.75,32.6352,36.8497,179.542,102.04,103.865,0.00329894,0.0815251,20.9836,64.8081,-0.163202,0.0,0.0
126,31.25,32.6186,36.6968,179.122,102.024,103.957,0.00331301,0.0812429,20.9839,64.788,-0.17286,0.0,0.0
128,31.75,32.4907,36.6725,179.514,101.988,103.89,0.00332442,0.0809759,20.9841,64.798,-0.170188,0.0,0.0
130,32.25,32.8655,36.3449,178.486,101.979,103.504,0.0033222,0.0807597,20.9843,64.8081,-0.136672,0.0,0.0
132,32.75,32.9333,36.5724,178.166,101.943,103.789,0.0033204,0.0805058,20.9845,64.8081,-0.165279,0.0,0.0
134,33.25,32.5078,36.5877,175.629,101.909,104.61,0.00331693,0.0801114,20.9846,64.788,-0.241009,0.0,0.0
136,33.75,32.6249,36.5701,180.196,101.879,104.021,0.00331231,0.0799266,20.9851,64.778,-0.19159,0.0,0.0
138,34.25,32.6497,36.6145,178.755,101.838,103.418,0.00331661,0.0796106,20.9855,64.788,-0.141739,0.0,0.0
140,34.75,32.6066,36.8851,178.456,101.808,103.489,0.00332733,0.0793045,20.9859,64.798,-0.150844,0.0,0.0
142,35.25,32.4583,36.5341,182.536,101.814,103.202,0.00333602,0.0790116,20.9862,64.768,-0.124695,0.0,0.0
144,35.75,32.7684,36.7583,176.295,101.813,104.072,0.00335981,0.0787242,20.9864,64.758,-0.202107,0.0,0.0
146,36.25,32.4581,36.6434,177.762,101.826,103.978,0.00339417,0.0784464,20.9866,64.768,-0.192661,0.0,0.0
148,36.75,32.9166,36.29,178.029,101.827,103.497,0.00344239,0.0781641,20.9868,64.738,-0.149819,0.0,0.0
150,37.25,32.8429,36.6216,177.802,101.835,104.223,0.00348146,0.077884,20.9869,64.758,-0.213561,0.0,0.0
152,37.75,32.8136,37.0109,177.892,101.839,103.503,0.00352781,0.0776571,20.987,64.758,-0.149258,0.0,0.0
154,38.25,33.0599,37.0379,174.63,101.854,104.286,0.0035786,0.077419,20.9871,64.758,-0.217325,0.0,0.0
156,38.75,33.0095,36.6696,180.617,101.863,103.509,0.00361973,0.0772261,20.9871,64.778,-0.147599,0.0,0.0
158,39.25,32.8637,37.2043,183.164,101.864,103.614,0.00365306,0.0771342,20.9872,64.758,-0.156917,0.0,0.0
160,39.75,33.2458,37.507,179.995,101.871,103.005,0.00371196,0.0771177,20.9873,64.778,-0.101988,0.0,0.0
162,40.25,33.1306,36.9429,176.919,101.887,103.78,0.00375967,0.0771973,20.9874,64.758,-0.169488,0.0,0.0
164,40.75,32.7484,37.1267,179.244,101.882,103.485,0.0038162,0.0773455,20.9872,64.758,-0.143747,0.0,0.0
166,41.25,33.1669,37.2881,175.6,101.909,103.043,0.00386199,0.0774655,20.9869,64.748,-0.101949,0.0,0.0
168,41.75,33.0931,37.1759,178.908,101.911,103.838,0.00391569,0.0775627,20.9867,64.768,-0.172487,0.0,0.0
170,42.25,32.9801,36.8612,177.063,101.918,103.384,0.00395919,0.0781031,20.9864,64.788,-0.131504,0.0,0.0
172,42.75,33.104,36.9059,181.087,101.928,103.207,0.00399442,0.0785409,20.9863,64.758,-0.114798,0.0,0.0
174,43.25,32.8996,37.2102,180.538,101.937,102.851,0.00404597,0.0792085,20.9859,64.768,-0.0821881,0.0,0.0
176,43.75,33.4189,37.5707,178.982,101.971,102.812,0.00408773,0.0797493,20.9854,64.748,-0.0756057,0.0,0.0
178,44.25,33.0046,37.6761,173.556,101.963,103.342,0.00413563,0.0804461,20.9848,64.738,-0.123745,0.0,0.0
180,44.75,33.3492,37.3654,183.419,101.985,102.974,0.00417442,0.0810105,20.984,64.748,-0.0889682,0.0,0.0
182,45.25,33.2057,37.2568,171.156,101.995,102.965,0.0042212,0.0814677,20.9835,64.738,-0.0872139,0.0,0.0
184,45.75,32.7654,37.5993,177.615,102.015,102.529,0.00425909,0.0821105,20.983,64.728,-0.0462679,0.0,0.0
186,46.25,33.1107,37.5625,175.316,102.004,101.128,0.00431283,0.0826313,20.9821,64.738,0.0795097,0.0,0.0
188,46.75,33.009,37.3161,181.119,102.034,101.475,0.00435636,0.0835305,20.981,64.718,0.0505966,0.0,0.0
190,47.25,33.0977,37.6465,179.336,102.042,101.061,0.00442493,0.0842589,20.9799,64.778,0.0889402,0.0,1.0
192,47.75,32.9742,37.3064,173.45,102.075,101.114,0.00448047,0.0850932,20.9788,64.718,0.0870751,0.0,1.0
194,48.25,32.9897,37.2776,176.127,102.075,101.245,0.00455246,0.085989,20.9779,64.708,0.0752515,0.0,1.0
196,48.75,33.3292,37.5678,175.723,102.088,101.233,0.00463508,0.0869376,20.9767,64.708,0.0774467,0.0,1.0
198,49.25,33.3207,37.7387,173.874,102.093,100.329,0.004702,0.0879068,20.9758,64.708,0.160573,0.0,1.0
200,49.75,33.511,37.5818,175.328,102.115,100.138,0.00480214,0.0893214,20.975,64.728,0.180071,0.0,1.0
202,50.25,33.232,37.6205,176.377,102.125,100.147,0.00492458,0.0904673,20.9734,64.8381,0.180171,0.0,1.0
204,50.75,32.9568,37.6102,176.459,102.137,100.941,0.00505764,0.0939103,20.972,64.788,0.108528,0.0,1.0
206,51.25,33.4453,37.5245,175.508,102.138,99.5386,0.00519592,0.0966991,20.9675,64.6779,0.23743,0.0,1.0
208,51.75,33.3556,37.3892,181.909,102.154,99.4522,0.00530792,0.0989581,20.9638,64.8481,0.246882,0.0,1.0
210,52.25,32.9712,37.4907,175.757,102.169,93.3701,0.00546829,0.109634,20.9555,64.6279,0.829446,0.0,1.0
212,52.75,33.5183,37.9117,173.975,102.187,87.6656,0.00559818,0.118281,20.944,64.6579,1.41176,0.0,0.0
214,53.25,33.269,37.9404,170.276,102.19,88.8483,0.0057861,0.125285,20.9313,64.5879,1.28859,0.0,0.0
216,53.75,33.6166,38.112,174.11,102.202,91.0077,0.00593832,0.136301,20.9179,64.5879,1.06849,0.0,0.0
218,54.25,33.5286,38.1036,169.928,102.206,93.1472,0.00615616,0.145224,20.9047,64.5278,0.854813,0.0,0.0
220,54.75,33.383,39.0947,168.951,102.221,91.9467,0.00633262,0.155294,20.892,64.5278,0.975621,0.0,0.0
222,55.25,34.4165,39.7148,165.04,102.252,90.9207,0.00645225,0.163451,20.8838,64.4778,1.08175,0.0,0.0
224,55.75,34.6441,40.2712,173.073,102.247,88.9634,0.00665683,0.174512,20.8698,64.5078,1.28173,0.0,0.0
226,56.25,35.246,40.4652,166.785,102.255,85.4078,0.00682253,0.183471,20.8585,64.4577,1.6582,0.0,0.0
228,56.75,35.3029,40.3744,163.843,102.271,84.2464,0.00698536,0.195712,20.8493,64.4177,1.78572,0.0,0.0
230,57.25,35.9937,40.5958,176.922,102.273,83.4277,0.00711724,0.205628,20.8419,64.4277,1.87586,0.0,0.0
232,57.75,35.4444,41.3321,173.578,102.281,83.5751,0.00716559,0.21516,20.8358,64.3476,1.86028,0.0,0.0
234,58.25,35.5599,41.914,173.651,102.299,81.6064,0.00720476,0.219223,20.831,64.2275,2.08148,0.0,0.0
236,58.75,35.85,42.196,167.661,102.307,83.6058,0.00718535,0.226172,20.827,64.768,1.85929,0.0,0.0
238,59.25,36.022,42.9215,171.855,102.304,92.03,0.00712361,0.223746,20.8269,64.728,0.974736,0.0,0.0
240,59.75,37.1877,43.7128,185.585,102.323,101.608,0.00703477,0.22178,20.8267,64.3777,0.0645172,0.0,0.0
242,60.25,37.3895,43.7283,178.353,102.332,103.511,0.00692787,0.210295,20.8329,-365.467,-0.105519,0.0,0.0
244,60.75,36.6596,44.0286,182.24,102.335,103.461,0.00684128,0.200991,20.8436,-764.475,-0.10084,0.0,0.0
246,61.25,36.2583,42.4039,182.253,102.353,102.984,0.00669623,0.19059,20.8523,-937.82,-0.0565985,0.0,0.0
248,61.75,36.2021,41.7333,181.321,102.364,103.056,0.00657874,0.179586,20.8618,-937.8,-0.0620271,0.0,0.0
250,62.25,35.2216,40.7605,182.433,102.371,102.703,0.00648357,0.169072,20.8718,-937.76,-0.0297677,0.0,0.0
252,62.75,34.8465,40.5037,178.308,102.381,103.331,0.00628537,0.159113,20.8823,-937.86,-0.0850966,0.0,0.0
254,63.25,34.8664,40.5021,189.58,102.377,103.251,0.00612483,0.151047,20.893,-938.03,-0.0782872,0.0,0.0
256,63.75,34.9924,40.1068,176.408,102.395,104.014,0.00599479,0.141947,20.9017,-937.58,-0.144465,0.0,0.0
258,64.25,34.3958,39.1431,175.229,102.401,103.837,0.00577898,0.134576,20.9103,-937.8,-0.128286,0.0,0.0
260,64.75,34.174,38.563,182.129,102.415,104.183,0.00560418,0.128606,20.9187,-937.81,-0.157647,0.0,0.0
262,65.25,33.9941,38.8865,180.461,102.411,104.036,0.00538187,0.122637,20.9267,-937.81,-0.145033,0.0,0.0
264,65.75,33.7592,38.5618,181.978,102.436,104.073,0.00520179,0.116782,20.9342,-937.81,-0.146073,0.0,0.0
266,66.25,33.2947,38.555,180.744,102.422,103.793,0.0050216,0.11204,20.9414,-937.82,-0.122488,0.0,0.0
268,66.75,33.6016,38.5092,181.632,102.43,103.755,0.00484475,0.107215,20.9483,-937.82,-0.118353,0.0,0.0
270,67.25,33.0907,38.1571,171.305,102.441,103.301,0.00467395,0.103307,20.9544,-937.83,-0.0769618,0.0,0.0
272,67.75,33.7269,37.9565,174.966,102.457,103.602,0.0045108,0.0993778,20.9597,-937.84,-0.102366,0.0,0.0
274,68.25,32.7052,38.0235,175.977,102.449,103.743,0.00435113,0.0961954,20.964,-937.85,-0.115626,0.0,0.0
276,68.75,33.4191,37.923,175.816,102.469,104.116,0.00419703,0.0933453,20.9679,-937.85,-0.146889,0.0,0.0
278,69.25,33.6095,37.7996,181.811,102.456,104.002,0.00407221,0.0907918,20.971,-937.84,-0.137924,0.0,0.0
280,69.75,33.5227,37.6996,177.289,102.476,104.184,0.00393799,0.0885088,20.9741,-937.86,-0.152315,0.0,0.0
282,70.25,33.3437,37.5541,179.027,102.468,104.307,0.00382927,0.0864663,20.9769,-937.86,-0.163812,0.0,0.0
284,70.75,33.0474,37.4946,176.29,102.48,104.328,0.0037412,0.0845974,20.9793,-937.86,-0.164596,0.0,0.0
286,71.25,33.0768,37.8268,175.551,102.481,104.632,0.00367114,0.0828906,20.9814,-937.86,-0.191371,0.0,0.0
288,71.75,33.6155,37.5102,177.521,102.487,104.268,0.0036144,0.0813508,20.9833,-937.84,-0.158691,0.0,0.0
290,72.25,32.9571,37.5283,175.541,102.492,104.014,0.0035748,0.0799622,20.9851,-937.86,-0.135727,0.0,0.0
292,72.75,33.1155,37.6105,177.121,102.502,103.562,0.00354273,0.0788375,20.9867,-937.87,-0.0947359,0.0,0.0
294,73.25,32.6943,37.1684,175.642,102.519,104.255,0.00351038,0.0777693,20.9883,-937.87,-0.154664,0.0,0.0
296,73.75,32.8209,37.5049,179.698,102.509,104.602,0.00348418,0.0767628,20.9898,-937.86,-0.186159,0.0,0.0
298,74.25,32.9286,37.3915,172.307,102.504,104.353,0.00345692,0.0759475,20.991,-937.87,-0.164592,0.0,0.0
300,74.75,32.5673,37.378,184.74,102.526,104.033,0.00342942,0.0752015,20.9919,-937.87,-0.13435,0.0,0.0
302,75.25,33.0101,37.3831,178.524,102.516,104.308,0.00340045,0.0745202,20.9927,-937.87,-0.159575,0.0,0.0
304,75.75,32.741,37.2583,175.818,102.522,104.34,0.00337095,0.0738613,20.9933,-937.85,-0.161857,0.0,0.0
306,76.25,32.7074,37.0234,175.854,102.531,104.293,0.00334237,0.0732313,20.9939,-937.86,-0.156921,0.0,0.0
308,76.75,33.6428,36.828,177.508,102.517,104.69,0.003315,0.0726783,20.9943,-937.89,-0.193109,0.0,0.0
310,77.25,32.9168,37.2842,178.504,102.527,104.334,0.00329283,0.0721918,20.9946,-937.87,-0.160926,0.0,0.0
312,77.75,33.1088,37.0141,177.663,102.526,104.862,0.00327019,0.0717407,20.9949,-937.86,-0.207512,0.0,0.0
314,78.25,32.9599,37.1286,176.449,102.531,104.48,0.00324763,0.071324,20.9955,-937.86,-0.173372,0.0,0.0
316,78.75,32.7567,36.9844,182.152,102.536,104.165,0.003224,0.0709865,20.9961,-937.85,-0.145136,0.0,0.0
318,79.25,32.6898,36.3154,178.174,102.534,104.849,0.00320004,0.0706318,20.9965,-937.86,-0.205646,0.0,0.0
320,79.75,32.4821,36.687,181.452,102.538,103.969,0.00318064,0.0703446,20.9969,-937.86,-0.127652,0.0,0.0
322,80.25,32.4738,36.6966,182.101,102.537,104.338,0.00314839,0.0700306,20.9971,-937.85,-0.160382,0.0,0.0
324,80.75,32.2764,37.3123,179.044,102.532,104.387,0.00312227,0.0697764,20.9974,-937.84,-0.165121,0.0,0.0
326,81.25,32.7457,36.6181,172.405,102.545,104.511,0.00309731,0.0695562,20.9975,-937.85,-0.17492,0.0,0.0
328,81.75,32.965,36.2495,176.568,102.544,104.485,0.00307708,0.069365,20.9977,-937.84,-0.172777,0.0,0.0
330,82.25,32.5121,36.7092,178.135,102.542,104.79,0.00306405,0.069203,20.9978,-937.85,-0.199662,0.0,0.0
332,82.75,32.9601,36.7763,173.747,102.546,104.406,0.0030565,0.0690653,20.9979,-937.85,-0.165559,0.0,0.0
334,83.25,32.5696,36.311,180.513,102.577,104.918,0.00305573,0.0689539,20.998,-937.86,-0.207805,0.0,0.0
336,83.75,32.9462,36.7322,181.719,102.544,104.424,0.00305993,0.0687282,20.9985,-937.85,-0.167404,0.0,0.0
338,84.25,32.0052,36.3599,175.1,102.54,104.109,0.00306333,0.0685454,20.9989,-937.85,-0.139872,0.0,0.0
340,84.75,32.5811,36.905,181.642,102.524,104.268,0.00309153,0.0683689,20.9992,-937.87,-0.155358,0.0,0.0
342,85.25,33.0603,36.5597,175.512,102.548,103.972,0.00311436,0.0682003,20.9995,-937.86,-0.12698,0.0,0.0
344,85.75,32.6371,37.3192,181.379,102.542,104.308,0.00313286,0.0680352,20.9993,-937.86,-0.157343,0.0,0.0
346,86.25,32.2601,35.9459,170.541,102.542,104.787,0.00316727,0.0678758,20.9991,-937.88,-0.19948,0.0,0.0
348,86.75,32.3036,36.2208,179.288,102.53,105.557,0.00321262,0.0677468,20.999,-937.91,-0.267993,0.0,0.0
350,87.25,32.2479,36.5881,171.735,102.536,104.465,0.00325875,0.0676287,20.9988,-937.89,-0.171661,0.0,0.0
352,87.75,32.7483,36.5054,178.534,102.534,104.12,0.00330456,0.067533,20.9987,-937.88,-0.141326,0.0,0.0
354,88.25,32.8121,36.3551,176.783,102.542,104.415,0.0033477,0.0674555,20.9987,-937.88,-0.166682,0.0,0.0
356,88.75,32.0381,36.5191,179.946,102.528,104.004,0.00338807,0.067343,20.999,-937.9,-0.131578,0.0,0.0
358,89.25,31.9545,35.8844,174.989,102.536,104.308,0.00341877,0.0672069,20.9993,-937.89,-0.157837,0.0,0.0
360,89.75,31.7873,35.8476,180.815,102.509,104.933,0.00344182,0.0670896,20.9996,-937.89,-0.215325,0.0,0.0
362,90.25,32.3736,36.3529,179.343,102.515,104.598,0.00346049,0.0669881,20.9998,-937.87,-0.185315,0.0,0.0
364,90.75,31.9246,36.4869,176.662,102.511,104.707,0.00345257,0.0668775,21,-937.88,-0.195236,0.0,0.0
366,91.25,31.9757,36.6526,178.511,102.527,104.039,0.00344616,0.0667622,21.0001,-937.88,-0.134781,0.0,0.0
368,91.75,32.3628,36.3529,175.786,102.503,104.432,0.00344097,0.0666618,21.0002,-937.87,-0.171729,0.0,0.0
370,92.25,32.2063,35.9592,178.063,102.506,104.509,0.00340112,0.066574,21.0002,-937.88,-0.178305,0.0,0.0
372,92.75,32.2381,36.2836,178.172,102.491,104.157,0.00336885,0.0665029,21.0001,-937.89,-0.148553,0.0,0.0
374,93.25,32.1611,35.7287,178.054,102.489,104.87,0.0033338,0.0664994,21,-937.89,-0.211577,0.0,0.0
376,93.75,32.0608,35.7259,177.531,102.479,103.948,0.00330541,0.0664966,21,-937.88,-0.131092,0.0,0.0
378,94.25,32.1478,36.125,173.281,102.483,104.425,0.00328241,0.0664939,21,-937.88,-0.172962,0.0,0.0
380,94.75,32.216,35.9673,176.799,102.468,104.881,0.00326379,0.0664915,20.9999,-937.88,-0.214361,0.0,0.0
382,95.25,32.0859,35.9049,173.845,102.465,104.242,0.00325888,0.0664895,20.9999,-937.87,-0.158289,0.0,0.0
384,95.75,32.3639,36.3302,177.286,102.451,104.996,0.0032549,0.0664737,20.9999,-937.84,-0.225982,0.0,0.0
386,96.25,32.4667,35.7463,178.185,102.454,104.956,0.00326186,0.066448,20.9999,-937.83,-0.222189,0.0,0.0
388,96.75,32.0522,36.182,177.494,102.443,104.341,0.00326749,0.0664813,20.9998,-937.83,-0.169042,0.0,0.0
390,97.25,31.7313,35.5892,177.127,102.448,104.642,0.0032746,0.0665083,20.9998,-937.84,-0.195121,0.0,0.0
392,97.75,31.9105,35.494,178.317,102.419,104.829,0.00328037,0.0665167,20.9998,-937.84,-0.214223,0.0,0.0
394,98.25,32.0725,36.0936,179.009,102.422,103.711,0.00328637,0.0665234,20.9998,-937.85,-0.115237,0.0,0.0
396,98.75,32.4982,35.6567,182.944,102.402,103.819,0.00329244,0.0665154,20.9998,-937.87,-0.126592,0.0,0.0
398,99.25,31.985,35.9961,176.348,102.394,104.015,0.00329736,0.0665089,20.9998,-937.87,-0.144671,0.0,0.0
400,99.75,32.4193,35.8013,178.376,102.381,104.408,0.0032988,0.0665306,20.9998,-937.87,-0.180602,0.0,0.0
402,100.25,32.0226,35.7584,180.64,102.377,104.033,0.00329862,0.0665483,20.9998,-937.87,-0.147798,0.0,0.0
404,100.75,32.4921,35.8405,169.025,102.363,104.028,0.00329727,0.0665341,20.9998,-937.87,-0.148637,0.0,0.0
406,101.25,31.8444,35.4327,176.922,102.341,104.457,0.00329618,0.0664969,20.9998,-937.87,-0.188494,0.0,0.0
408,101.75,31.6945,35.8435,171.974,102.337,104.855,0.00328395,0.0664669,20.9998,-937.86,-0.223931,0.0,0.0
410,102.25,31.732,36.1519,174.415,102.317,103.991,0.00327404,0.066429,20.9998,-937.87,-0.149423,0.0,0.0
412,102.75,32.4228,35.8763,180.877,102.306,104.784,0.00326333,0.0663983,20.9998,-937.87,-0.220438,0.0,0.0
414,103.25,32.0872,36.0948,181.21,102.291,103.86,0.00325225,0.066387,21,-937.88,-0.140205,0.0,0.0
416,103.75,31.9255,35.8992,180.787,102.275,104.622,0.00324462,0.0663778,21.0001,-937.88,-0.208967,0.0,0.0
418,104.25,32.0971,35.4231,176.954,102.267,103.506,0.00323964,0.0663778,21.0002,-937.88,-0.110913,0.0,0.0
420,104.75,32.1482,35.71,181.897,102.25,104.009,0.0032356,0.0663846,21.0003,-937.9,-0.157134,0.0,0.0
422,105.25,31.8959,35.7263,176.76,102.23,104.509,0.00323635,0.0663972,21.0003,-937.89,-0.203093,0.0,0.0
424,105.75,32.3506,35.9013,176.43,102.22,103.952,0.00324058,0.0664137,21.0004,-937.88,-0.154754,0.0,0.0
426,106.25,32.0928,36.1044,181.02,102.196,104.198,0.00324273,0.0664272,21.0004,-937.89,-0.178696,0.0,0.0
428,106.75,31.7976,36.1113,179.833,102.186,103.804,0.00324447,0.0665057,21.0005,-937.9,-0.144648,0.0,0.0
430,107.25,32.4153,35.6505,174.986,102.172,104.169,0.00324253,0.0665693,21.0005,-937.9,-0.178242,0.0,0.0
432,107.75,32.2001,35.3539,181.262,102.173,104.043,0.00323795,0.0666344,21.0005,-937.9,-0.167023,0.0,0.0
434,108.25,31.7592,35.0037,175.992,102.143,104.368,0.00323423,0.0666871,21.0006,-937.9,-0.198483,0.0,0.0
436,108.75,31.8529,35.416,176.197,102.135,103.581,0.00323123,0.0667226,21.0006,-937.88,-0.129466,0.0,0.0
438,109.25,31.6833,35.8509,177.225,102.12,103.664,0.00323261,0.066745,21.0007,-937.88,-0.138152,0.0,0.0
440,109.75,31.9583,35.7003,173.169,102.092,104.18,0.00323373,0.0667703,21.0009,-937.88,-0.186411,0.0,0.0
442,110.25,31.4843,36.083,178.683,102.087,104.548,0.00324736,0.0667971,21.0011,-937.9,-0.219403,0.0,0.0
444,110.75,31.8348,35.5291,178.722,102.066,103.542,0.0032584,0.0668189,21.0013,-937.88,-0.132281,0.0,0.0
446,111.25,32.196,35.4394,179.053,102.05,103.844,0.00328008,0.0668365,21.0014,-937.89,-0.160439,0.0,0.0
448,111.75,32.015,35.8047,172.528,102.029,103.828,0.00329763,0.0668102,21.0015,-937.86,-0.160914,0.0,0.0
450,112.25,31.9589,36.0119,173.529,102.026,104.375,0.00331185,0.0667889,21.0016,-937.86,-0.209649,0.0,0.0
452,112.75,32.0255,35.8811,179.959,102.008,103.778,0.00332002,0.0667987,21.0017,-937.89,-0.158385,0.0,0.0
454,113.25,32.1244,35.8553,181.377,101.987,103.755,0.00332362,0.0668066,21.0017,-937.89,-0.158343,0.0,0.0
456,113.75,31.7706,36.0201,174.763,101.971,104.119,0.00331783,0.0668537,21.0018,-937.88,-0.192016,0.0,0.0
458,114.25,32.2459,35.2994,173.544,101.939,103.792,0.0033053,0.0668917,21.0018,-937.88,-0.16593,0.0,0.0
460,114.75,32.434,36.0131,183.789,101.919,103.989,0.00328712,0.0669226,21.0018,-937.89,-0.185178,0.0,0.0
462,115.25,32.7049,36.0739,175.989,101.902,103.639,0.00326516,0.0670017,21.0018,-937.88,-0.155702,0.0,0.0
464,115.75,31.6624,36.0326,174.832,101.873,103.999,0.00324335,0.0670658,21.0019,-937.87,-0.190273,0.0,0.0
466,116.25,31.9704,35.6857,175.453,101.864,103.151,0.00322208,0.0671604,21.0014,-937.86,-0.11562,0.0,0.0
468,116.75,31.4066,35.1896,178.338,101.835,104.118,0.00319949,0.0672755,21.0011,-937.84,-0.204137,0.0,0.0
470,117.25,32.1885,36.0972,179.712,101.821,103.269,0.00317638,0.0673759,21.0008,-937.85,-0.13004,0.0,0.0
472,117.75,32.0861,35.7665,173.895,101.806,103.573,0.00315632,0.0674636,21.0006,-937.85,-0.158541,0.0,0.0
474,118.25,32.293,35.4824,178.592,101.778,103.268,0.00313886,0.0675346,21.0004,-937.88,-0.133876,0.0,0.0
476,118.75,32.2436,35.7561,182.659,101.752,103.982,0.00312472,0.0676057,21.0003,-937.88,-0.199674,0.0,0.0
478,119.25,31.9214,36.1418,180.704,101.732,103.557,0.00311394,0.0676633,21.0002,-937.89,-0.163797,0.0,0.0
480,119.75,31.8937,35.3037,177.876,101.704,103.738,0.00310581,0.0677099,21.0001,-937.9,-0.182344,0.0,0.0
482,120.25,31.7164,35.6223,182.251,101.686,103.62,0.00309922,0.0677477,21,-937.91,-0.173525,0.0,0.0
484,120.75,31.6143,35.6327,174.41,101.672,103.896,0.00308626,0.0677647,20.9999,-937.88,-0.1993,0.0,0.0
486,121.25,32.0313,36.0736,170.789,101.646,103.248,0.00307576,0.0677785,20.9999,-937.85,-0.144095,0.0,0.0
488,121.75,32.39,35.7943,174.553,101.64,103.483,0.00306344,0.0678254,20.9998,-937.87,-0.165561,0.0,0.0
490,122.25,31.8626,35.8113,178.285,101.611,103.732,0.00305347,0.0678953,20.9998,-937.85,-0.190289,0.0,0.0
492,122.75,32.1981,35.7974,176.719,101.592,103.691,0.00304538,0.067952,20.9998,-937.85,-0.18832,0.0,0.0
494,123.25,32.164,35.699,172.259,101.564,103.762,0.00304138,0.0680521,20.9997,-937.86,-0.19723,0.0,0.0
496,123.75,32.3084,36.1165,180.564,101.547,104.262,0.00303814,0.0681331,20.9997,-937.88,-0.24303,0.0,0.0
498,124.25,31.884,36.3496,180.433,101.51,103.432,0.00304568,0.0683206,20.9997,-937.87,-0.172819,0.0,0.0
500,124.75,32.0454,35.7603,176.986,101.508,104.042,0.00305179,0.0684725,20.9997,-937.87,-0.22712,0.0,0.0
502,125.25,32.3087,35.8389,178.54,101.467,103.252,0.00307454,0.0686169,20.9995,-937.88,-0.160585,0.0,0.0
504,125.75,32.2914,35.8348,175.987,101.459,102.883,0.00309297,0.0687531,20.9991,-937.86,-0.128323,0.0,0.0
506,126.25,32.008,35.0785,172.776,101.437,102.919,0.0031079,0.0688634,20.9987,-937.86,-0.133611,0.0,0.0
508,126.75,31.3252,35.4532,179.406,101.41,102.968,0.0031378,0.0689663,20.9985,-937.87,-0.14037,0.0,0.0
510,127.25,32.0117,36.1374,181.552,101.377,103.518,0.00316202,0.0690496,20.9983,-937.86,-0.192429,0.0,0.0
512,127.75,32.0755,36.141,175.259,101.378,102.95,0.0031931,0.0690359,20.9981,-937.83,-0.141703,0.0,0.0
514,128.25,32.2751,36.0877,180.526,101.36,103.438,0.00321827,0.0690248,20.9979,-937.86,-0.186872,0.0,0.0
516,128.75,32.2817,35.6322,175.896,101.312,104.331,0.00324737,0.0690087,20.9978,-937.86,-0.270481,0.0,0.0
518,129.25,32.1529,35.8762,179.749,101.291,103.365,0.00327878,0.0689892,20.9977,-937.88,-0.186677,0.0,0.0
520,129.75,31.8151,36.333,179.872,101.293,103.253,0.00331495,0.0689734,20.9977,-937.86,-0.176502,0.0,0.0
522,130.25,31.9546,35.408,183.425,101.265,103.232,0.0033539,0.0689065,20.9976,-937.85,-0.177171,0.0,0.0
524,130.75,31.9446,36.1362,181.194,101.242,102.855,0.0033935,0.0688522,20.9976,-937.86,-0.145581,0.0,0.0
526,131.25,31.8034,35.5022,174.829,101.198,103.605,0.00343282,0.0687798,20.9975,-937.86,-0.216456,0.0,0.0
528,131.75,31.9273,34.8855,181.787,101.2,102.947,0.00346467,0.0686955,20.9975,-937.86,-0.157639,0.0,0.0
530,132.25,31.7343,35.6463,177.792,101.168,103.394,0.0034945,0.0686201,20.9975,-937.85,-0.200455,0.0,0.0
532,132.75,31.9075,35.6228,176.206,101.159,102.834,0.00352228,0.0685526,20.9978,-937.85,-0.151262,0.0,0.0
534,133.25,31.8743,36.1665,182.338,101.12,102.706,0.00354478,0.0685264,20.998,-937.85,-0.143357,0.0,0.0
536,133.75,31.9439,35.248,175.503,101.116,103.504,0.00356301,0.0685309,20.9982,-937.84,-0.21498,0.0,0.0
538,134.25,32.0729,35.122,187.93,101.087,102.657,0.00357777,0.0685345,20.9983,-937.84,-0.142007,0.0,0.0
540,134.75,32.3675,35.5387,176.95,101.073,103.69,0.00358973,0.0685374,20.9985,-937.86,-0.235437,0.0,0.0
542,135.25,31.7166,35.5595,174.107,101.044,103.404,0.00359814,0.0685398,20.9986,-937.86,-0.212661,0.0,0.0
544,135.75,32.0325,36.0339,175.023,101.024,103.435,0.00360496,0.0685417,20.9986,-937.87,-0.217293,0.0,0.0
546,136.25,32.2485,35.0566,183.006,101,103.029,0.00361175,0.0685568,20.9987,-937.87,-0.183121,0.0,0.0
548,136.75,32.1383,35.5075,182.674,101.008,102.753,0.00361725,0.068569,20.9988,-937.88,-0.157757,0.0,0.0
550,137.25,32.7684,35.5422,180.444,100.955,103.274,0.00362299,0.0685789,20.9988,-937.88,-0.209148,0.0,0.0
552,137.75,31.7291,35.5656,178.035,100.96,102.643,0.00362763,0.0685869,20.9988,-937.89,-0.152303,0.0,0.0
554,138.25,32.136,35.5531,175.757,100.935,102.746,0.00363394,0.0685934,20.9989,-937.88,-0.163787,0.0,0.0
556,138.75,32.0069,35.4688,180.168,100.916,102.529,0.00363905,0.0685987,20.9989,-937.88,-0.146072,0.0,0.0
558,139.25,32.0812,35.494,174.191,100.891,102.957,0.0036385,0.0686029,20.9989,-937.86,-0.186764,0.0,0.0
560,139.75,32.0619,35.3222,179.079,100.856,102.927,0.00363382,0.0685779,20.9989,-937.86,-0.18714,0.0,0.0
562,140.25,32.2678,35.137,176.662,100.838,102.441,0.00363003,0.0685319,20.9989,-937.87,-0.145253,0.0,0.0
564,140.75,31.9708,35.8339,177.321,100.826,103.294,0.00359001,0.068452,20.999,-937.87,-0.222802,0.0,0.0
566,141.25,31.7347,35.3083,176.764,100.796,103.035,0.00355759,0.0683488,20.999,-937.89,-0.202434,0.0,0.0
568,141.75,31.9053,35.4742,175.261,100.79,102.918,0.00350332,0.0682651,20.999,-937.89,-0.192369,0.0,0.0
570,142.25,31.45,36.0385,181.81,100.765,102.756,0.00345937,0.0681974,20.999,-937.88,-0.180227,0.0,0.0
572,142.75,31.8779,35.7668,180.044,100.752,102.422,0.0034085,0.0681426,20.999,-937.87,-0.151444,0.0,0.0
574,143.25,32.1901,35.1656,181.465,100.718,102.358,0.00336729,0.0681793,20.999,-937.87,-0.148819,0.0,0.0
576,143.75,31.9823,36.0846,179.44,100.692,102.03,0.00333458,0.0682091,20.999,-937.85,-0.121519,0.0,0.0
578,144.25,31.933,35.7718,177.385,100.687,102.869,0.00330869,0.068276,20.999,-937.88,-0.197452,0.0,0.0
580,144.75,32.4673,36.366,176.367,100.662,102.426,0.00328772,0.0683686,20.999,-937.88,-0.159925,0.0,0.0
582,145.25,32.2972,35.325,174.8,100.654,102.884,0.00328728,0.0684722,20.999,-937.88,-0.201781,0.0,0.0
584,145.75,32.2006,35.7102,178.146,100.633,102.353,0.00328692,0.0685817,20.999,-937.88,-0.156073,0.0,0.0
586,146.25,32.0018,35.8439,176.206,100.618,102.98,0.0033019,0.0686704,20.999,-937.88,-0.213768,0.0,0.0
588,146.75,32.0779,35.7793,176.619,100.606,102.759,0.00331404,0.0687152,20.999,-937.88,-0.19508,0.0,0.0
590,147.25,32.3806,35.7373,179.118,100.595,102.018,0.00332387,0.0687515,20.999,-937.88,-0.129378,0.0,0.0
592,147.75,32.1953,35.8634,181.914,100.571,102.671,0.00333947,0.0687538,20.999,-937.89,-0.190359,0.0,0.0
594,148.25,32.3693,35.8799,174.435,100.562,102.613,0.00335211,0.0687557,20.999,-937.89,-0.185937,0.0,0.0
596,148.75,32.2991,36.3673,176.916,100.542,102.119,0.00336107,0.0687572,20.999,-937.9,-0.143286,0.0,0.0
598,149.25,31.9605,35.9731,176.15,100.535,102.582,0.00336833,0.0687584,20.999,-937.92,-0.185695,0.0,0.0
600,149.75,31.6758,35.8106,180.546,100.517,102.195,0.00335766,0.0687309,20.999,-937.94,-0.152426,0.0,0.0
602,150.25,32.2176,35.5298,182.99,100.502,102.553,0.00334902,0.068683,20.999,-937.91,-0.186049,0.0,0.0
604,150.75,32.3031,35.8403,178.576,100.484,102.548,0.00333599,0.0686441,20.999,-937.91,-0.18734,0.0,0.0
606,151.25,31.6324,35.3756,179.391,100.465,102.69,0.00332001,0.068545,20.999,-937.91,-0.201751,0.0,0.0
608,151.75,31.5338,34.8433,177.942,100.453,102.36,0.00330506,0.0684647,20.999,-937.9,-0.17318,0.0,0.0
610,152.25,32.144,35.4964,179.511,100.449,102.148,0.00329114,0.0683591,20.999,-937.89,-0.154483,0.0,0.0
612,152.75,32.022,35.7476,186.772,100.423,102.963,0.00328388,0.0682735,20.999,-937.9,-0.23004,0.0,0.0
614,153.25,32.0983,35.9282,176.083,100.413,102.654,0.00328162,0.0681686,20.999,-937.91,-0.203301,0.0,0.0
616,153.75,31.9065,35.9284,179.727,100.412,102.041,0.00327979,0.0680515,20.999,-937.91,-0.148168,0.0,0.0
618,154.25,32.1923,35.6108,177.666,100.407,102.519,0.00327831,0.0679638,20.999,-937.88,-0.191772,0.0,0.0
620,154.75,32.0765,36.0419,175.467,100.388,102.35,0.0032771,0.0678992,20.999,-937.89,-0.178259,0.0,0.0
622,155.25,31.7774,34.9008,180.791,100.391,101.842,0.00329288,0.0678611,20.999,-937.88,-0.132168,0.0,0.0
624,155.75,31.7325,35.3449,182.705,100.366,102.184,0.00332074,0.0678431,20.999,-937.89,-0.16535,0.0,0.0
626,156.25,32.2944,36.27,177.541,100.354,101.971,0.00334331,0.0678285,20.9991,-937.89,-0.147301,0.0,0.0
628,156.75,32.5519,35.9214,175.594,100.347,102.738,0.00336158,0.0678238,20.9992,-937.89,-0.216862,0.0,0.0
630,157.25,32.1289,35.6357,173.632,100.34,102.434,0.00337639,0.0678264,20.9993,-937.9,-0.190182,0.0,0.0
632,157.75,32.4006,36.0681,176.97,100.334,102.386,0.00336546,0.0678285,20.9994,-937.9,-0.186541,0.0,0.0
634,158.25,31.8729,35.8038,177.887,100.329,102.601,0.00335661,0.0678302,20.9994,-937.9,-0.206251,0.0,0.0
636,158.75,31.4561,36.1157,178.712,100.321,102.038,0.0033189,0.0678316,20.9995,-937.88,-0.156261,0.0,0.0
638,159.25,31.6382,35.4332,171.631,100.329,101.732,0.00328836,0.0678192,20.9995,-937.89,-0.127887,0.0,0.0
640,159.75,31.3304,35.472,175.318,100.318,102.374,0.00323692,0.0678091,20.9995,-937.88,-0.18686,0.0,0.0
642,160.25,31.726,35.8412,176.043,100.317,101.785,0.00319525,0.0677739,20.9996,-937.86,-0.133828,0.0,0.0
644,160.75,31.8059,35.7564,184.833,100.31,102.241,0.00315642,0.0677454,20.9996,-937.88,-0.175593,0.0,0.0
646,161.25,31.7132,36.2349,175.36,100.311,101.713,0.00312496,0.0677088,20.9996,-937.89,-0.127818,0.0,0.0
648,161.75,31.7066,36.0385,179.675,100.308,102.043,0.00310952,0.0676791,20.9996,-937.89,-0.157981,0.0,0.0
650,162.25,31.9887,36.082,179.939,100.311,102.202,0.00310604,0.0676686,20.9996,-937.89,-0.171997,0.0,0.0
652,162.75,32.6896,36.2408,177.101,100.307,101.799,0.00311461,0.0676458,20.9996,-937.89,-0.135946,0.0,0.0
654,163.25,31.3222,35.3575,176.957,100.311,102.891,0.00313178,0.0676146,20.9996,-937.9,-0.233885,0.0,0.0
656,163.75,31.7682,35.1712,176.086,100.302,102.271,0.0031457,0.0675892,20.9996,-937.91,-0.179043,0.0,0.0
658,164.25,31.8515,35.9735,180.984,100.307,102.471,0.00317351,0.0675146,20.9996,-937.91,-0.196611,0.0,0.0
660,164.75,32.0785,35.7379,183.641,100.288,102.281,0.00319604,0.0674542,20.9996,-937.91,-0.181263,0.0,0.0
662,165.25,31.9279,35.9059,179.372,100.317,101.685,0.00321301,0.0674123,20.9996,-937.9,-0.124728,0.0,0.0
664,165.75,31.683,35.5049,177.718,100.305,102.615,0.00322676,0.0673849,20.9996,-937.91,-0.209685,0.0,0.0
666,166.25,32.5389,35.8963,183.704,100.32,102.553,0.00324125,0.0673555,20.9996,-937.91,-0.202755,0.0,0.0
668,166.75,31.915,35.7719,178.266,100.315,102.747,0.003256,0.0673253,20.9996,-937.92,-0.220621,0.0,0.0
670,167.25,31.9559,35.9489,180.677,100.316,102.015,0.00327531,0.0673008,20.9996,-937.91,-0.154666,0.0,0.0
672,167.75,31.889,35.5624,176.483,100.314,102.448,0.0032976,0.0672404,20.9996,-937.91,-0.193938,0.0,0.0
674,168.25,31.8576,35.5114,175.296,100.33,102.243,0.00331564,0.0671915,20.9996,-937.91,-0.173997,0.0,0.0
676,168.75,31.6535,35.2513,175.052,100.326,102.51,0.00333093,0.0671654,20.9996,-937.91,-0.198376,0.0,0.0
678,169.25,32.1444,35.5521,175.9,100.342,102.571,0.00334392,0.0671442,20.9996,-937.91,-0.202374,0.0,0.0
680,169.75,32.1127,35.8437,179.707,100.34,101.791,,0.0671342,,-937.91,-0.132213,0.0,0.0
682,170.25,31.8024,35.9496,173.421,100.369,102.016,,0.0671325,,-937.91,-0.149865,0.0,0.0
684,170.75,31.7206,35.7057,175.022,100.368,101.896,,0.0671311,,-937.91,-0.139168,0.0,0.0
686,171.25,31.8936,35.3693,185.45,100.367,102.215,,0.067103,,-937.93,-0.168088,0.0,0.0
688,171.75,31.9012,35.9589,173.589,100.377,102.283,,0.0670801,,-937.92,-0.173304,0.0,0.0
690,172.25,32.1527,35.661,171.892,100.387,103.031,,0.0670901,,-937.92,-0.239429,0.0,0.0
692,172.75,32.1342,35.977,176.901,100.392,102.342,,,,-937.91,-0.177121,0.0,0.0
694,173.25,32.143,35.781,176.792,100.416,103.092,,,,-937.92,-0.242238,0.0,0.0
696,173.75,32.4275,35.8452,172.633,100.417,102.195,,,,-937.93,-0.161653,0.0,0.0
698,174.25,31.8876,36.1021,174.888,100.444,102.051,,,,-937.92,-0.146154,0.0,0.0
700,174.75,32.2274,35.5663,178.336,100.439,102.744,,,,-937.91,-0.209019,0.0,0.0
702,175.25,31.7162,36.0825,177.779,100.457,102.401,,,,-937.9,-0.176534,0.0,0.0
704,175.75,32.0599,35.5758,176.274,100.457,102.131,,,,-937.89,-0.152275,0.0,0.0
706,176.25,32.0412,35.8219,174.622,100.48,102.462,,,,-937.9,-0.179882,0.0,0.0
708,176.75,31.8591,35.4235,177.255,100.485,102.197,,,,-937.92,-0.155603,0.0,0.0
710,177.25,32.3314,36.1498,174.459,100.497,102.042,,,,-937.93,-0.140474,0.0,0.0
712,177.75,31.9102,35.9857,173.385,100.507,102.303,,,,-937.94,-0.163113,0.0,0.0
714,178.25,31.9699,35.5295,176.838,100.526,102.192,,,,-937.95,-0.151456,0.0,0.0
716,178.75,32.4215,35.8062,177.251,100.544,102.214,,,,-937.95,-0.151724,0.0,0.0
718,179.25,32.1027,36.1282,176.633,100.546,102.444,,,,-937.96,-0.172289,0.0,0.0
720,179.75,32.5184,35.8775,178.786,100.569,102.52,,,,-937.94,-0.176946,0.0,0.0
722,180.25,32.3285,35.5102,183.07,100.592,102.12,,,,-937.95,-0.138813,0.0,0.0