File: 01_Data/Face_Shield/Cone/Face_Shield_Cone_HF100-FrameScan_201103_R1.csv
Names,Time,Stack TC,Smoke TC,Exh Press,Smoke Comp,Smoke Meas,CO Meter,CO2 Meter,O2 Meter,Sample Mass,Ext Coeff,Start Test,Flame Verif
Chan Gain,,500,500,1,1,1,1,1,1,1,1,1.0,1.0
Offset,,0,0,0.134413,0,0,0,0,0,0,0,0.0,0.0
Gain,,1,1,25.011,13.8462,17.0661,1,1,1,1.0009,1.04998,1.0,1.0
Units,sec,C,C,Pa,%,%,%,%,%,g,/m,,
Baseline,,40.0615,45.3727,174.353,103.044,104.852,0.0042145,0.079564,20.98,-939.361,-0.160126,,
2,0.25,38.4868,42.105,175.283,102.424,104.513,0.00432906,0.0928407,20.9655,15.4438,-0.185956,0.0,0.0
4,0.75,37.6059,41.2773,176.453,102.435,104.22,0.00431086,0.0924709,20.9653,15.4038,-0.159054,0.0,0.0
6,1.25,37.2328,41.5803,175.016,102.446,103.922,0.00429611,0.0918025,20.9655,15.4138,-0.131701,0.0,0.0
8,1.75,37.7436,41.6754,168.249,102.438,104.727,0.00428417,0.091261,20.9661,15.4238,-0.203539,0.0,0.0
10,2.25,37.4297,41.6655,173.505,102.462,104.321,0.00427449,0.0906428,20.9667,15.4138,-0.165547,0.0,0.0
12,2.75,37.4896,41.8893,173.832,102.447,104.206,0.00423725,0.0899804,20.9675,15.4238,-0.156784,0.0,0.0
14,3.25,37.7287,41.6673,175.607,102.437,104.425,0.00420709,0.0892858,20.9682,15.4238,-0.177057,0.0,0.0
16,3.75,38.1091,42.212,170.223,102.442,104.788,0.00416733,0.0885811,20.969,15.4538,-0.208609,0.0,0.0
18,4.25,37.7261,42.4642,172.87,102.451,104.519,0.00413512,0.0880102,20.9698,15.4038,-0.184037,0.0,0.0
20,4.75,38.0081,42.3346,177.398,102.456,104.41,0.00410265,0.0873541,20.9707,15.4238,-0.174014,0.0,0.0
22,5.25,38.0798,42.1457,171.921,102.457,104.445,0.00407634,0.0866483,20.9717,15.3938,-0.176978,0.0,0.0
24,5.75,38.3543,42.9187,175.932,102.482,104.755,0.00405504,0.0860766,20.9727,15.4038,-0.202032,0.0,0.0
26,6.25,38.5187,42.7034,176.489,102.462,103.974,0.00403778,0.0853956,20.9737,15.3938,-0.134956,0.0,0.0
28,6.75,38.6116,43.2094,174.09,102.485,104.063,0.00402783,0.0848439,20.9745,15.4038,-0.140745,0.0,0.0
30,7.25,38.4719,43.061,171.708,102.465,104.378,0.00402341,0.0843183,20.9751,15.3938,-0.170292,0.0,0.0
32,7.75,38.4956,43.186,172.375,102.474,104.554,0.00402453,0.0838215,20.9757,15.4038,-0.185053,0.0,0.0
34,8.25,38.0809,43.2768,171.859,102.477,104.476,0.00402967,0.083369,20.9761,15.3938,-0.177949,0.0,0.0
36,8.75,38.9589,43.4244,171.666,102.477,104.552,0.00403384,0.0829574,20.9765,15.4038,-0.184649,0.0,0.0
38,9.25,38.6551,43.4251,164.679,102.473,104.179,0.00403587,0.0825881,20.9768,15.4138,-0.151998,0.0,0.0
40,9.75,38.0862,43.0651,175.974,102.493,104.424,0.0040363,0.0822567,20.977,15.4138,-0.171875,0.0,0.0
42,10.25,39.1508,43.7613,172.796,102.487,104.664,0.00403935,0.0819884,20.9772,15.4238,-0.193559,0.0,0.0
44,10.75,38.5862,43.7442,176.246,102.494,103.797,0.00404423,0.0817574,20.9773,15.3938,-0.116324,0.0,0.0
46,11.25,38.9185,43.6964,173.904,102.501,104.323,0.00405289,0.0815702,20.9775,15.4038,-0.162314,0.0,0.0
48,11.75,38.9368,43.8602,171.453,102.492,104.101,0.00406415,0.0813972,20.9776,15.4038,-0.143426,0.0,0.0
50,12.25,39.054,43.6619,177.534,102.506,104.053,0.00407663,0.0812377,20.9776,15.3838,-0.137962,0.0,0.0
52,12.75,38.8264,43.7399,171.889,102.503,105.081,0.00408977,0.0810727,20.9777,15.4138,-0.228755,0.0,0.0
54,13.25,39.1388,43.3675,171.389,102.512,104.309,0.00410041,0.0809068,20.9778,15.3838,-0.160055,0.0,0.0
56,13.75,39.3084,43.6866,166.219,102.513,104.489,0.00410902,0.0807724,20.9778,15.4038,-0.175831,0.0,0.0
58,14.25,38.747,44.0338,178.391,102.514,104.56,0.00411601,0.0806772,20.9778,15.4038,-0.182005,0.0,0.0
60,14.75,39.147,44.0294,168.613,102.53,104.683,0.00413455,0.0806001,20.9776,15.3838,-0.191413,0.0,0.0
62,15.25,38.9819,43.9082,176.138,102.524,104.037,0.00414958,0.0806192,20.9773,15.3738,-0.134909,0.0,0.0
64,15.75,38.9839,43.9379,174.152,102.523,104.37,0.00416175,0.0806347,20.977,15.3738,-0.164401,0.0,0.0
66,16.25,39.2231,44.1428,176.328,102.52,104.14,0.00423944,0.0807154,20.9768,15.3738,-0.144375,0.0,0.0
68,16.75,38.7193,44.062,175.109,102.542,104.448,0.00430236,0.0807807,20.9768,15.3738,-0.169668,0.0,0.0
70,17.25,39.2947,44.258,175.878,102.537,104.845,0.00440396,0.0809052,20.9767,15.3638,-0.204969,0.0,0.0
72,17.75,39.0977,44.5371,176.793,102.548,103.63,0.00453182,0.0810706,20.9767,15.3638,-0.0966558,0.0,0.0
74,18.25,39.1006,43.9024,174.115,102.547,104.063,0.004755,0.0812045,20.9767,15.3638,-0.135164,0.0,0.0
76,18.75,39.3501,44.2522,170.021,102.556,103.761,0.00493578,0.0813409,20.9766,15.3638,-0.107592,0.0,0.0
78,19.25,39.3633,44.5162,172.653,102.553,103.516,0.00522287,0.0814515,20.9764,15.3538,-0.0861039,0.0,0.0
80,19.75,39.6124,44.1718,171.85,102.554,102.128,0.00545542,0.0815195,20.976,15.3437,0.0383882,0.0,0.0
82,20.25,39.4166,44.3925,176.499,102.562,102.033,0.00574337,0.0815552,20.9756,15.3337,0.0475769,0.0,0.0
84,20.75,39.2046,44.1249,171.654,102.561,100.758,0.00606623,0.0826832,20.9732,15.3137,0.1634,0.0,0.0
86,21.25,39.4119,44.4828,177.648,102.582,100.346,0.00644913,0.0845861,20.9712,15.3037,0.202947,0.0,0.0
88,21.75,38.9635,44.4701,172.643,102.578,98.7934,0.00686851,0.0916023,20.9548,15.2937,0.346233,0.0,0.0
90,22.25,39.484,44.409,172.762,102.573,97.195,0.00720822,0.102213,20.9415,15.2737,0.496012,0.0,0.0
92,22.75,39.3884,44.8025,169.288,102.588,91.2832,0.00800952,0.119179,20.9208,15.1736,1.07539,0.0,0.0
94,23.25,39.476,44.5843,162.902,102.589,76.0664,0.00865858,0.140457,20.8952,15.1336,2.75507,0.0,1.0
96,23.75,39.9483,45.6981,159.184,102.596,74.6233,0.00968388,0.165509,20.8744,15.0835,2.93214,0.0,1.0
98,24.25,40.3069,46.5286,164.092,102.587,76.5216,0.0105144,0.192835,20.8576,14.9934,2.69992,0.0,1.0
100,24.75,40.915,47.1479,164.662,102.587,72.3754,0.0111871,0.214969,20.8282,15.0235,3.21297,0.0,1.0
102,25.25,41.7955,48.7638,166.824,102.606,68.6234,0.011732,0.248431,20.8045,15.2637,3.70497,0.0,1.0
104,25.75,42.0029,49.1903,159.249,102.612,61.395,0.0131016,0.275535,20.77,14.8333,4.73071,0.0,1.0
106,26.25,42.9828,50.2188,156.476,102.607,59.3919,0.0144291,0.304431,20.7421,14.8133,5.0358,0.0,1.0
108,26.75,43.263,51.3817,164.265,102.618,59.5925,0.0157008,0.334084,20.6984,14.7132,5.00566,0.0,1.0
110,27.25,43.8566,52.4256,157.118,102.625,56.6233,0.0167309,0.358102,20.663,14.6731,5.47704,0.0,1.0
112,27.75,44.4465,53.556,156.209,102.634,56.6816,0.0179544,0.382829,20.6286,14.5731,5.46835,0.0,1.0
114,28.25,45.684,54.384,155.134,102.632,57.3566,0.0189455,0.407603,20.5955,14.513,5.35921,0.0,1.0
116,28.75,46.0275,55.6142,151.244,102.631,54.6108,0.0199597,0.427669,20.5639,14.4329,5.81091,0.0,0.0
118,29.25,46.9792,56.6892,162.724,102.637,56.2999,0.0207812,0.447509,20.534,14.3629,5.5309,0.0,0.0
120,29.75,47.9444,58.136,157,102.644,53.9312,0.0214466,0.464576,20.5097,14.2328,5.92744,0.0,0.0
122,30.25,48.249,58.9965,158.652,102.661,53.9239,0.0221233,0.479297,20.4887,14.1827,5.9302,0.0,0.0
124,30.75,48.8808,59.6974,158.395,102.651,56.4587,0.0226714,0.49122,20.4704,14.1227,5.50624,0.0,0.0
126,31.25,49.2998,60.6672,157.031,102.661,54.4905,0.0230184,0.501486,20.4556,14.0126,5.83388,0.0,0.0
128,31.75,50.0137,61.7416,158.565,102.667,54.9801,0.0232995,0.510347,20.4436,14.0025,5.75207,0.0,0.0
130,32.25,50.7461,62.1772,157.664,102.66,58.4946,0.023229,0.517746,20.4339,13.9025,5.18076,0.0,0.0
132,32.75,50.348,62.6533,156.362,102.68,58.6633,0.0231718,0.52394,20.4261,13.8624,5.15601,0.0,0.0
134,33.25,51.0059,63.8664,158.436,102.679,59.0826,0.0227036,0.528957,20.4275,13.7423,5.09031,0.0,0.0
136,33.75,52.2027,64.5452,154.763,102.677,58.8263,0.0223243,0.520462,20.4357,15.4338,5.13015,0.0,0.0
138,34.25,52.3204,65.2125,147.919,102.699,58.9336,0.021535,0.513581,20.455,13.442,5.11534,0.0,0.0
140,34.75,53.1459,65.8519,165.676,102.694,82.161,0.0208956,0.497774,20.482,13.7323,2.05463,0.0,0.0
142,35.25,53.5954,66.4194,175.796,102.7,96.6002,0.0199227,0.475758,20.5105,12.6213,0.563961,0.0,0.0
144,35.75,52.9984,65.8916,171.017,102.705,97.9876,0.0191347,0.444744,20.5396,-729.944,0.43307,0.0,0.0
146,36.25,52.5297,65.2917,176.08,102.721,99.748,0.0184964,0.419622,20.5632,-923.457,0.270511,0.0,0.0
148,36.75,52.3148,63.7637,171.589,102.72,99.9902,0.0176365,0.393353,20.5822,-939.442,0.248063,0.0,0.0
150,37.25,51.7397,62.9538,170.453,102.73,99.5527,0.0166314,0.372075,20.6064,-939.412,0.289358,0.0,0.0
152,37.75,51.1099,61.9115,177.328,102.733,99.9116,0.0156188,0.348202,20.626,-939.432,0.256522,0.0,0.0
154,38.25,49.8763,61.2298,172.537,102.741,102.721,0.0146199,0.328864,20.6524,-939.462,0.0018411,0.0,0.0
156,38.75,49.6761,60.4769,179.053,102.738,102.852,0.0136953,0.308551,20.6737,-939.452,-0.0102233,0.0,0.0
158,39.25,49.3503,59.6589,175.317,102.744,103.147,0.0128425,0.287912,20.6998,-939.452,-0.0360618,0.0,0.0
160,39.75,48.6734,58.3296,178.037,102.751,103.405,0.0120478,0.271194,20.7208,-939.452,-0.058438,0.0,0.0
162,40.25,48.2513,57.2326,180.088,102.772,103.512,0.0113106,0.253884,20.7439,-939.512,-0.0661428,0.0,0.0
164,40.75,47.5278,56.5523,176.483,102.763,103.677,0.0107135,0.236472,20.7679,-939.562,-0.0815246,0.0,0.0
166,41.25,47.3621,56.0499,172.15,102.776,104.323,0.0100608,0.220533,20.7901,-939.472,-0.137591,0.0,0.0
168,41.75,46.7831,55.0151,170.672,102.782,104.622,0.00924457,0.205971,20.8106,-939.502,-0.163378,0.0,0.0
170,42.25,46.3052,54.9629,171.877,102.792,105.032,0.00898583,0.194176,20.8291,-939.462,-0.198483,0.0,0.0
172,42.75,46.412,54.763,168.775,102.798,103.842,0.0085434,0.182312,20.8457,-939.462,-0.0930737,0.0,0.0
174,43.25,46.1434,54.2888,176.521,102.795,104.371,0.00818502,0.172702,20.8591,-939.462,-0.140154,0.0,0.0
176,43.75,46.1945,54.1818,173.799,102.797,104.824,0.00777844,0.163054,20.8722,-939.462,-0.179872,0.0,0.0
178,44.25,45.9844,53.7929,172.124,102.808,104.569,0.00744911,0.155239,20.8827,-939.452,-0.156391,0.0,0.0
180,44.75,45.7544,53.8709,170.72,102.819,104.068,0.00711789,0.144076,20.8925,-939.432,-0.111216,0.0,0.0
182,45.25,45.4178,53.3346,173.55,102.82,104.421,0.0068496,0.141073,20.9014,-939.412,-0.142294,0.0,0.0
184,45.75,45.4983,53.4348,174.822,102.831,104.64,0.00658466,0.135117,20.9095,-939.422,-0.160667,0.0,0.0
186,46.25,45.3148,53.3935,176.551,102.83,104.534,0.00637005,0.129555,20.9169,-939.432,-0.151348,0.0,0.0
188,46.75,45.1471,52.964,170.437,102.836,104.07,0.00615379,0.125049,20.9229,-939.462,-0.109924,0.0,0.0
190,47.25,45.0549,52.5465,171.695,102.846,104.542,0.00597862,0.120355,20.9287,-939.422,-0.150636,0.0,0.0
192,47.75,44.9962,52.5384,173.796,102.85,104.353,0.00583673,0.116552,20.9342,-939.442,-0.133594,0.0,0.0
194,48.25,45.0081,52.3345,168.884,102.866,104.316,0.00570084,0.11306,20.9387,-939.472,-0.128846,0.0,0.0
196,48.75,44.9242,52.4991,177.398,102.871,104.482,0.00557191,0.110232,20.9424,-939.472,-0.143134,0.0,0.0
198,49.25,44.5265,51.8133,171.651,102.877,104.39,0.00545667,0.107653,20.9454,-939.472,-0.134436,0.0,0.0
200,49.75,44.8819,51.8573,176.966,102.887,104.653,0.00535359,0.105564,20.9483,-939.462,-0.156781,0.0,0.0
202,50.25,44.4056,51.6776,173.347,102.884,104.771,0.0052701,0.103872,20.9506,-939.432,-0.167445,0.0,0.0
204,50.75,44.4023,51.2707,171.01,102.887,104.417,0.00518155,0.102192,20.9525,-939.432,-0.135948,0.0,0.0
206,51.25,44.5549,50.8643,179.404,102.906,104.218,0.00509099,0.100551,20.9549,-939.422,-0.116642,0.0,0.0
208,51.75,44.172,50.8673,172.564,102.911,104.797,0.00499741,0.0992226,20.9569,-939.422,-0.167276,0.0,0.0
210,52.25,44.0743,50.8005,172.454,102.921,104.668,0.00490341,0.0977224,20.9589,-939.432,-0.154962,0.0,0.0
212,52.75,43.9394,50.3861,174.402,102.925,104.942,0.00480302,0.0965071,20.9605,-939.432,-0.178744,0.0,0.0
214,53.25,43.9803,50.3205,174.756,102.932,104.756,0.00469987,0.0952221,20.9623,-939.452,-0.161843,0.0,0.0
216,53.75,43.6426,49.9306,169.642,102.941,104.749,0.00459547,0.0941812,20.9637,-939.452,-0.160416,0.0,0.0
218,54.25,43.4082,49.578,177.273,102.951,104.459,0.00449214,0.093144,20.9648,-939.462,-0.133958,0.0,0.0
220,54.75,43.0634,49.5796,177.238,102.953,104.725,0.00439298,0.0921292,20.9658,-939.462,-0.157129,0.0,0.0
222,55.25,43.1186,49.4636,174.082,102.962,104.773,0.00429874,0.0911491,20.967,-939.472,-0.160632,0.0,0.0
224,55.75,43.3122,49.4315,174.394,102.978,104.674,0.00421569,0.0902131,20.9679,-939.482,-0.150447,0.0,0.0
226,56.25,43.0219,49.3482,177.454,102.973,104.815,0.00414238,0.0893186,20.9692,-939.472,-0.16335,0.0,0.0
228,56.75,43.0229,49.1409,173.671,102.981,104.517,0.00408299,0.0884712,20.9701,-939.462,-0.136416,0.0,0.0
230,57.25,42.9344,48.8413,172.174,102.987,105.758,0.00403825,0.0877849,20.9709,-939.462,-0.24453,0.0,0.0
232,57.75,43.2595,48.2544,174.881,102.997,105.104,0.00400503,0.0870654,20.9716,-939.442,-0.186485,0.0,0.0
234,58.25,42.777,48.7586,172.739,103.003,104.558,0.00397812,0.0864252,20.9721,-939.432,-0.138039,0.0,0.0
236,58.75,42.8949,48.2227,169.618,103.006,104.739,0.00396154,0.085855,20.9729,-939.442,-0.153642,0.0,0.0
238,59.25,42.5594,48.9401,173.451,103.011,104.978,0.00394811,0.0853932,20.9737,-939.452,-0.174216,0.0,0.0
240,59.75,42.368,48.8264,174.697,103.014,105.435,0.00393118,0.0848965,20.9745,-939.472,-0.213955,0.0,0.0
242,60.25,43.0622,47.842,176.857,103.025,104.922,0.00391203,0.0844941,20.975,-939.482,-0.168003,0.0,0.0
244,60.75,42.2162,48.2061,174.893,103.024,104.456,0.00388503,0.0841682,20.9757,-939.482,-0.127115,0.0,0.0
246,61.25,42.5096,48.258,171.585,103.049,104.668,0.00386317,0.0837279,20.9765,-939.472,-0.143634,0.0,0.0
248,61.75,42.3929,47.9484,171.135,103.038,105.293,0.00383807,0.0833713,20.9771,-939.462,-0.199411,0.0,0.0
250,62.25,41.6795,48.51,171.782,103.046,105.25,0.00381109,0.0829965,20.9776,-939.452,-0.194911,0.0,0.0
252,62.75,42.3376,47.5053,169.407,103.062,104.819,0.00379125,0.0826155,20.9781,-939.432,-0.155706,0.0,0.0
254,63.25,41.9317,48.2957,177.391,103.054,105.435,0.003777,0.0822567,20.9784,-939.422,-0.210442,0.0,0.0
256,63.75,41.7988,47.9623,176.405,103.068,105.484,0.00376545,0.081921,20.9787,-939.432,-0.213396,0.0,0.0
258,64.25,41.833,47.8689,168.236,103.064,104.594,0.00377088,0.0816061,20.9789,-939.422,-0.135719,0.0,0.0
260,64.75,42.1985,47.3135,171.25,103.077,105.043,0.00378856,0.0813124,20.9795,-939.442,-0.173997,0.0,0.0
262,65.25,42.0858,47.3651,176.77,103.09,104.938,0.0038123,0.0810458,20.98,-939.432,-0.163689,0.0,0.0
264,65.75,41.7417,47.7736,172.183,103.077,104.736,0.00383999,0.0808041,20.9804,-939.432,-0.147068,0.0,0.0
266,66.25,42.2591,46.8004,171.374,102.976,104.831,0.00386242,0.0806083,20.9807,-939.442,-0.164382,0.0,0.0
268,66.75,42.2374,46.7785,173.887,103.038,104.741,0.00389464,0.0804354,20.981,-939.452,-0.150992,0.0,0.0
270,67.25,42.0277,46.7858,170.378,103.099,104.693,0.00392074,0.0802825,20.9812,-939.482,-0.14134,0.0,0.0
272,67.75,41.3836,47.5509,172.014,103.104,105.184,0.00395594,0.0801228,20.9814,-939.482,-0.183956,0.0,0.0
274,68.25,41.9598,46.9912,172.301,103.118,104.89,0.00398444,0.0799613,20.9815,-939.482,-0.156907,0.0,0.0
276,68.75,41.7028,47.077,174.982,103.127,104.871,0.00401009,0.0798304,20.9816,-939.482,-0.154422,0.0,0.0
278,69.25,41.037,46.3626,169.102,103.119,104.96,0.00403087,0.0796564,20.9817,-939.472,-0.163004,0.0,0.0
280,69.75,40.8591,46.5406,169.776,103.132,104.816,0.00404299,0.0795155,20.9818,-939.482,-0.149119,0.0,0.0
282,70.25,41.4602,46.4241,172.858,103.14,104.908,0.00404856,0.0793606,20.9818,-939.472,-0.156545,0.0,0.0
284,70.75,40.825,46.2094,176.789,103.127,104.985,0.00405308,0.0792351,20.9823,-939.462,-0.16448,0.0,0.0
286,71.25,40.7416,45.9854,168.773,103.155,104.862,0.00405674,0.0791742,20.9827,-939.462,-0.151238,0.0,0.0
288,71.75,40.9235,46.2096,173.233,103.15,105.006,0.00405769,0.0791249,20.983,-939.462,-0.164308,0.0,0.0
290,72.25,41.0808,46.1734,176.93,103.167,105.351,0.00405664,0.0790778,20.9834,-939.482,-0.192961,0.0,0.0
292,72.75,41.04,46.447,170.708,103.152,105.268,0.00405714,0.0790332,20.9837,-939.502,-0.187068,0.0,0.0
294,73.25,40.867,46.3444,171.36,103.165,105.137,0.00405875,0.0789971,20.9839,-939.492,-0.174454,0.0,0.0
296,73.75,41.2339,46.2771,174.668,103.175,105.068,0.00405333,0.0789679,20.9841,-939.482,-0.167395,0.0,0.0
298,74.25,40.8965,46.4909,172.526,103.161,105.337,0.00404289,0.0789012,20.9842,-939.472,-0.19226,0.0,0.0
300,74.75,40.9512,46.129,170.892,103.171,105.036,0.00402301,0.0788086,20.9843,-939.432,-0.165032,0.0,0.0
302,75.25,40.6268,46.2848,172.928,103.187,104.732,0.00399662,0.0787336,20.9844,-939.462,-0.136882,0.0,0.0
304,75.75,40.7209,46.3161,171.76,103.186,105.2,0.00397525,0.0786592,20.9845,-939.462,-0.178041,0.0,0.0
306,76.25,40.6907,46.4046,172.671,103.188,105.096,0.00392986,0.078599,20.9846,-939.482,-0.168812,0.0,0.0
308,76.75,40.797,45.9917,173.568,103.193,105.102,0.0038931,0.078523,20.9846,-939.472,-0.168824,0.0,0.0
310,77.25,41.4557,46.3646,171.943,103.209,104.98,0.00384674,0.0784615,20.9847,-939.472,-0.156742,0.0,0.0
312,77.75,40.6961,46.2767,174.303,103.188,105.122,0.00380919,0.0783981,20.9847,-939.482,-0.171048,0.0,0.0
314,78.25,41.1971,46.0448,172.938,103.201,104.888,0.00377877,0.0783467,20.9847,-939.472,-0.149413,0.0,0.0
316,78.75,40.8976,45.9467,170.728,103.205,104.631,0.00375347,0.0782915,20.9847,-939.472,-0.126379,0.0,0.0
318,79.25,41.1964,46.2872,174.403,103.199,104.949,0.00373236,0.0782467,20.9848,-939.492,-0.15483,0.0,0.0
320,79.75,41.4028,46.5402,171.676,103.212,104.943,0.00372064,0.0781833,20.9848,-939.482,-0.153196,0.0,0.0
322,80.25,41.0766,45.4439,174.411,103.2,105.55,0.00371597,0.078132,20.9848,-939.482,-0.20735,0.0,0.0
324,80.75,41.0622,45.8224,172.921,103.215,105.063,0.00372227,0.0780904,20.9848,-939.462,-0.163402,0.0,0.0
326,81.25,40.3222,45.3242,176.339,103.207,105.42,0.00373643,0.0780567,20.9848,-939.462,-0.19534,0.0,0.0
328,81.75,40.1274,45.1747,168.082,103.221,105.771,0.00376066,0.0780294,20.9848,-939.472,-0.224798,0.0,0.0
330,82.25,40.8738,46.1706,175.783,103.217,105.033,0.00379178,0.0780001,20.9848,-939.502,-0.160685,0.0,0.0
332,82.75,40.6316,45.91,172.527,103.213,105.583,0.0038338,0.07797,20.9848,-939.492,-0.209089,0.0,0.0
334,83.25,40.8258,46.1612,171.256,103.214,105.716,0.00388296,0.0779456,20.9848,-939.472,-0.220547,0.0,0.0
336,83.75,40.9248,46.3251,176.089,103.216,105.052,0.00394027,0.077953,20.9848,-939.482,-0.162405,0.0,0.0
338,84.25,41.0489,45.7454,172.465,103.209,104.92,0.00397299,0.077959,20.9848,-939.492,-0.151402,0.0,0.0
340,84.75,41.0755,46.3767,171.547,103.222,105.109,0.00402894,0.0779774,20.9848,-939.492,-0.166861,0.0,0.0
342,85.25,40.4739,45.4472,174.984,103.224,104.728,0.00407426,0.0779781,20.9848,-939.492,-0.133205,0.0,0.0
344,85.75,40.4057,45.9522,175.675,103.229,105.246,0.004134,0.0779657,20.9848,-939.512,-0.178207,0.0,0.0
346,86.25,40.2045,45.8763,175.394,103.216,104.947,0.00418239,0.0779342,20.9848,-939.532,-0.153139,0.0,0.0
348,86.75,40.5053,46.0127,172.703,103.224,105.536,0.00422159,0.0778894,20.9848,-939.522,-0.204094,0.0,0.0
350,87.25,41.0367,45.8182,174.192,103.224,105.299,0.00425334,0.0778703,20.9848,-939.522,-0.183345,0.0,0.0
352,87.75,41.0869,46.0403,169.863,103.224,104.756,0.00426242,0.0778376,20.9851,-939.492,-0.135707,0.0,0.0
354,88.25,40.2571,46.1549,174.697,103.23,104.969,0.00426978,0.0777568,20.9855,-939.492,-0.153814,0.0,0.0
356,88.75,40.6029,45.5534,171.197,103.228,105.633,0.00425891,0.0776914,20.9858,-939.492,-0.212168,0.0,0.0
358,89.25,40.4081,45.2661,172.612,103.227,104.943,0.00423496,0.0776791,20.986,-939.482,-0.151876,0.0,0.0
360,89.75,39.8938,45.3635,175.084,103.232,105.178,0.00420206,0.0776692,20.9862,-939.472,-0.172053,0.0,0.0
362,90.25,40.8268,45.8139,175.996,103.216,105.42,0.00416326,0.077654,20.9863,-939.482,-0.194632,0.0,0.0
364,90.75,40.9178,45.8142,168.902,103.222,105.433,0.00413182,0.0776352,20.9863,-939.472,-0.195242,0.0,0.0
366,91.25,40.0806,45.7093,175.045,103.221,105.285,0.00409628,0.0776201,20.9863,-939.462,-0.182349,0.0,0.0
368,91.75,40.6894,45.509,173.946,103.229,105.352,0.00405842,0.0776078,20.9863,-939.442,-0.187539,0.0,0.0
370,92.25,39.8122,45.2005,177.712,103.213,105.076,0.00402775,0.0775978,20.9863,-939.452,-0.164807,0.0,0.0
372,92.75,40.5062,45.1077,168.064,103.217,105.321,0.00401057,0.0775754,20.9863,-939.462,-0.185869,0.0,0.0
374,93.25,40.3124,45.414,172.31,103.211,104.959,0.00399665,0.0775573,20.9863,-939.482,-0.154642,0.0,0.0
376,93.75,40.4379,45.3073,176.386,103.206,104.629,0.00399049,0.0775427,20.9863,-939.492,-0.12612,0.0,0.0
378,94.25,40.3884,45.2894,169.615,103.206,105.406,0.00398549,0.0775308,20.9863,-939.512,-0.194263,0.0,0.0
380,94.75,40.1689,45.4144,180.691,103.218,105.264,0.00398145,0.077514,20.9859,-939.532,-0.18082,0.0,0.0
382,95.25,40.1881,45.2929,174.487,103.193,105.262,0.00397548,0.077494,20.9856,-939.532,-0.182863,0.0,0.0
384,95.75,40.4838,45.1281,170.883,103.197,105.112,0.00396823,0.0774778,20.9854,-939.532,-0.169359,0.0,0.0
386,96.25,40.2345,45.3781,171.145,103.185,104.948,0.00396438,0.0774918,20.9853,-939.542,-0.156058,0.0,0.0
388,96.75,40.2244,45.906,167.292,103.192,105.004,0.00396307,0.0775032,20.9852,-939.542,-0.160315,0.0,0.0
390,97.25,40.4364,45.5762,175.954,103.176,105.244,0.00396738,0.0775124,20.9852,-939.522,-0.182784,0.0,0.0
392,97.75,40.1747,44.9641,170.956,103.191,104.93,0.00397572,0.0775413,20.9851,-939.502,-0.15393,0.0,0.0
394,98.25,40.4732,45.1011,179.593,103.177,105.56,0.00398516,0.0775841,20.9851,-939.502,-0.210326,0.0,0.0
396,98.75,40.2466,45.3812,173.794,103.183,105.29,0.00399523,0.0776187,20.985,-939.472,-0.186145,0.0,0.0
398,99.25,40.4818,44.9536,170.261,103.171,104.832,0.00400339,0.0776467,20.985,-939.472,-0.147151,0.0,0.0
400,99.75,40.1997,45.4488,173.044,103.163,104.928,0.00400999,0.0776694,20.985,-939.472,-0.156162,0.0,0.0
402,100.25,40.2843,45.3501,169.19,103.156,105.31,0.0039986,0.0776878,20.9849,-939.462,-0.190382,0.0,0.0
404,100.75,40.4697,45.3781,171.929,103.155,105.32,0.00397429,0.0777027,20.9849,-939.472,-0.191239,0.0,0.0
406,101.25,40.6435,45.4812,172.884,103.149,104.707,0.00394655,0.077742,20.9851,-939.472,-0.138086,0.0,0.0
408,101.75,40.7601,44.9598,179.12,103.139,104.597,0.00391682,0.0777738,20.9852,-939.472,-0.129358,0.0,0.0
410,102.25,40.5429,45.5933,170.976,103.133,105.142,0.00389274,0.07785,20.9853,-939.472,-0.177695,0.0,0.0
412,102.75,40.5973,45.4294,173.172,103.132,104.931,0.00387451,0.0779571,20.9854,-939.492,-0.159312,0.0,0.0
414,103.25,40.6239,45.2022,176.077,103.134,105.486,0.00385975,0.0780439,20.9854,-939.502,-0.207644,0.0,0.0
416,103.75,40.7906,44.7586,173.837,103.119,104.343,0.00385672,0.0781499,20.9855,-939.512,-0.108724,0.0,0.0
418,104.25,40.4357,45.1336,172.296,103.126,104.865,0.00385427,0.0782681,20.9853,-939.492,-0.154032,0.0,0.0
420,104.75,40.7404,45.2408,174.914,103.113,105.751,0.00385867,0.0783924,20.9849,-939.502,-0.232694,0.0,0.0
422,105.25,40.7727,45.0064,171.811,103.103,105.312,0.00386223,0.0785188,20.9846,-939.512,-0.195318,0.0,0.0
424,105.75,40.6634,45.1778,172.031,103.102,105.608,0.00386767,0.0786212,20.9844,-939.512,-0.221185,0.0,0.0
426,106.25,40.4588,45.0956,176.305,103.089,104.988,0.00387207,0.0787722,20.9842,-939.502,-0.168106,0.0,0.0
428,106.75,40.4835,45.5001,173.267,103.098,105.315,0.00387564,0.0788945,20.9841,-939.502,-0.195954,0.0,0.0
430,107.25,40.3213,45.1426,175.073,103.075,105.063,0.00388619,0.0789799,20.9839,-939.492,-0.176012,0.0,0.0
432,107.75,40.6201,45.4997,175.017,103.073,104.527,0.00389473,0.0790491,20.9838,-939.492,-0.128978,0.0,0.0
434,108.25,40.2376,44.6677,175.967,103.069,105.151,0.0039106,0.0791324,20.9838,-939.512,-0.184208,0.0,0.0
436,108.75,40.2919,45.6547,171.028,103.079,105.211,0.00392345,0.0791998,20.9837,-939.522,-0.188508,0.0,0.0
438,109.25,40.5257,45.2692,171.16,103.053,104.672,0.00393513,0.0792759,20.9836,-939.532,-0.143539,0.0,0.0
440,109.75,40.5215,45.3748,175.355,103.04,105.565,0.00394459,0.0793569,20.9836,-939.532,-0.22301,0.0,0.0
442,110.25,40.5356,45.2034,181.716,103.038,104.807,0.00394884,0.0794225,20.9836,-939.532,-0.156761,0.0,0.0
444,110.75,40.2446,45.3066,170.565,103.036,104.973,0.00394921,0.0794756,20.9835,-939.542,-0.171538,0.0,0.0
446,111.25,40.2491,45.3511,171.975,103.018,104.944,0.0039495,0.0795187,20.9833,-939.532,-0.170604,0.0,0.0
448,111.75,40.2579,45.6149,169.081,103.011,104.989,0.00394463,0.0795807,20.9832,-939.542,-0.175221,0.0,0.0
450,112.25,40.3785,45.3658,169.049,103.009,104.544,0.00394069,0.079631,20.9831,-939.552,-0.136232,0.0,0.0
452,112.75,40.4484,45.6013,172.739,103.007,105.333,0.00393622,0.0796037,20.983,-939.532,-0.205675,0.0,0.0
454,113.25,40.501,45.6969,175.016,103.002,104.742,0.0039326,0.0795816,20.9829,-939.532,-0.154295,0.0,0.0
456,113.75,40.5851,45.5137,179.738,102.978,104.892,0.00392967,0.0795418,20.9828,-939.532,-0.169629,0.0,0.0
458,114.25,40.2381,45.6827,172.875,102.978,104.51,0.00392729,0.07949,20.9828,-939.552,-0.136046,0.0,0.0
460,114.75,40.5383,45.9875,172.5,102.973,105.304,0.00392536,0.079448,20.983,-939.552,-0.206178,0.0,0.0
462,115.25,40.8058,45.7736,170.963,102.968,104.608,0.00392045,0.079414,20.9833,-939.552,-0.145495,0.0,0.0
464,115.75,40.572,45.8714,171.181,102.95,104.909,0.00391344,0.0793864,20.9836,-939.562,-0.173587,0.0,0.0
466,116.25,40.6493,46.0331,173.036,102.96,104.705,0.00390393,0.0793354,20.9838,-939.552,-0.154821,0.0,0.0
468,116.75,40.5436,45.9166,175.954,102.943,105.084,0.00389623,0.0792684,20.984,-939.552,-0.189664,0.0,0.0
470,117.25,40.2528,45.6128,171.002,102.934,105.314,0.00389,0.0792141,20.9842,-939.542,-0.210529,0.0,0.0
472,117.75,40.1063,45.9647,174.66,102.926,104.95,0.0038789,0.0791837,20.9843,-939.542,-0.179437,0.0,0.0
474,118.25,40.6335,45.9175,174.516,102.91,104.692,0.00386447,0.0791591,20.9845,-939.522,-0.15813,0.0,0.0
476,118.75,40.5641,45.8457,175.303,102.907,105.058,0.00384674,0.079112,20.9848,-939.522,-0.190549,0.0,0.0
478,119.25,40.7287,46.2409,167.24,102.888,104.815,0.00382694,0.0790738,20.9851,-939.502,-0.170828,0.0,0.0
480,119.75,41.0017,45.8985,173.214,102.885,104.781,0.00380284,0.0790021,20.9853,-939.502,-0.168201,0.0,0.0
482,120.25,40.6944,45.6134,171.076,102.872,105.097,0.00377608,0.078944,20.9855,-939.482,-0.197158,0.0,0.0
484,120.75,40.2285,45.732,170.732,102.874,104.655,0.0037544,0.0788969,20.9856,-939.492,-0.158053,0.0,0.0
486,121.25,40.5198,45.8158,169.943,102.883,105.097,0.00372744,0.078886,20.9857,-939.512,-0.196054,0.0,0.0
488,121.75,40.7927,45.8014,171.627,102.836,104.429,0.00369715,0.0788772,20.9858,-939.512,-0.14159,0.0,0.0
490,122.25,40.4479,45.991,172.261,102.836,105.911,0.00367262,0.0788557,20.9859,-939.522,-0.271394,0.0,0.0
492,122.75,40.8682,46.0166,178.046,102.82,104.904,0.00363746,0.0788254,20.9859,-939.542,-0.184781,0.0,0.0
494,123.25,40.5479,46.187,170.711,102.822,104.794,0.00360897,0.0788009,20.986,-939.522,-0.174938,0.0,0.0
496,123.75,40.2217,45.9949,175.66,102.805,105.028,0.0035668,0.078781,20.986,-939.532,-0.196982,0.0,0.0
498,124.25,40.4168,45.368,170.925,102.792,104.756,0.00353263,0.0787649,20.986,-939.532,-0.174246,0.0,0.0
500,124.75,40.2263,45.746,172.339,102.777,104.855,0.00349732,0.0787519,20.986,-939.532,-0.184388,0.0,0.0
502,125.25,40.3041,45.8753,171.143,102.767,104.687,0.00346872,0.0787277,20.9861,-939.522,-0.170471,0.0,0.0
504,125.75,40.4892,45.7042,174.041,102.758,104.568,0.00345446,0.0787082,20.9861,-939.522,-0.160767,0.0,0.0
506,126.25,40.8485,46.0385,176.338,102.75,104.121,0.00344292,0.0787059,20.9861,-939.532,-0.122089,0.0,0.0
508,126.75,40.8113,45.7673,176.162,102.743,105.157,0.00345394,0.0787041,20.9861,-939.542,-0.213876,0.0,0.0
510,127.25,40.8192,45.8329,173.952,102.724,104.63,0.00346288,0.078621,20.9861,-939.542,-0.169301,0.0,0.0
512,127.75,40.7506,45.6325,172.441,102.706,104.741,0.00347011,0.0785538,20.9861,-939.542,-0.180683,0.0,0.0
514,128.25,39.9703,45.3384,175.133,102.698,104.687,0.00351039,0.0784857,20.9861,-939.542,-0.176646,0.0,0.0
516,128.75,40.3393,45.4405,174.123,102.691,105.095,0.00354302,0.0784306,20.9861,-939.552,-0.213099,0.0,0.0
518,129.25,40.6693,45.8392,173.126,102.678,104.502,0.00359496,0.0783859,20.9861,-939.552,-0.162101,0.0,0.0
520,129.75,40.4994,46.1858,171.643,102.67,104.361,0.00363703,0.0783497,20.9861,-939.542,-0.150494,0.0,0.0
522,130.25,40.78,45.9746,171.755,102.66,104.555,0.00369536,0.078266,20.9861,-939.562,-0.168495,0.0,0.0
524,130.75,40.1796,46.1324,179.907,102.657,104.527,0.00374261,0.0781983,20.9861,-939.552,-0.166236,0.0,0.0
526,131.25,40.911,46.4194,170.815,102.631,105.345,0.00379231,0.078129,20.9861,-939.542,-0.240403,0.0,0.0
528,131.75,40.4957,45.8946,172.572,102.62,105.243,0.00384285,0.0780601,20.9861,-939.532,-0.232505,0.0,0.0
530,132.25,40.8833,45.9189,173.775,102.618,104.297,0.00389187,0.0780186,20.9861,-939.532,-0.149473,0.0,0.0
532,132.75,40.8552,45.9795,172.546,102.597,105.205,0.00393883,0.0779978,20.9861,-939.572,-0.23118,0.0,0.0
534,133.25,40.7819,45.9005,180.803,102.599,104.98,0.00395885,0.0779738,20.9859,-939.552,-0.211279,0.0,0.0
536,133.75,40.5558,45.3847,176.33,102.575,104.903,0.00400076,0.077948,20.9855,-939.562,-0.206631,0.0,0.0
538,134.25,40.2758,45.7745,170.074,102.582,104.263,0.0040347,0.077927,20.9852,-939.542,-0.149661,0.0,0.0
540,134.75,40.9997,45.4492,171.858,102.553,104.19,0.00406489,0.0778829,20.9849,-939.522,-0.145874,0.0,0.0
542,135.25,40.9505,46.1459,175.689,102.55,104.463,0.00409176,0.0778471,20.9847,-939.522,-0.170232,0.0,0.0
544,135.75,40.4658,46.0873,173.263,102.542,104.186,0.00410747,0.0778396,20.985,-939.542,-0.146576,0.0,0.0
546,136.25,41.0584,46.1388,168.678,102.539,104.544,0.00411475,0.0778466,20.9852,-939.542,-0.178418,0.0,0.0
548,136.75,40.6814,45.9699,175.1,102.515,104.02,0.00411324,0.0778585,20.9854,-939.542,-0.134268,0.0,0.0
550,137.25,40.6201,45.3038,173.188,102.506,104.357,0.00410536,0.077861,20.9855,-939.552,-0.164816,0.0,0.0
552,137.75,40.7891,46.0993,173.397,102.496,104.459,0.00409898,0.0778566,20.9857,-939.552,-0.174686,0.0,0.0
554,138.25,41.0061,45.3562,175.942,102.487,104.297,0.00407721,0.0778387,20.9858,-939.552,-0.161191,0.0,0.0
556,138.75,41.0269,45.6184,173.49,102.471,105.013,0.00405957,0.0778113,20.9858,-939.522,-0.22578,0.0,0.0
558,139.25,40.4304,45.2794,175.485,102.468,104.477,0.00403889,0.0778035,20.9859,-939.522,-0.178876,0.0,0.0
560,139.75,41.1305,45.6566,168.212,102.462,104.726,0.00402215,0.07781,20.9859,-939.522,-0.201253,0.0,0.0
562,140.25,40.5731,45.8087,175.08,102.451,104.861,0.00400859,0.0778153,20.986,-939.552,-0.214134,0.0,0.0
564,140.75,40.6689,45.7321,171.557,102.446,104.347,0.00400654,0.0778603,20.986,-939.542,-0.169365,0.0,0.0
566,141.25,40.5504,45.5918,171.393,102.43,104.288,0.00400488,0.0778968,20.986,-939.532,-0.165537,0.0,0.0
568,141.75,40.6542,45.2439,172.037,102.434,104.931,0.00400354,0.0779264,20.9861,-939.532,-0.221782,0.0,0.0
570,142.25,40.627,45.8193,172.146,102.406,104.329,0.00401456,0.0779503,20.9861,-939.542,-0.17129,0.0,0.0
572,142.75,40.9738,46.1055,174.35,102.388,104.198,0.00403437,0.0779561,20.9861,-939.562,-0.161414,0.0,0.0
574,143.25,41.0008,45.2603,174.493,102.382,104.205,0.00405043,0.0779608,20.9861,-939.572,-0.162507,0.0,0.0
576,143.75,40.6089,45.8888,174.743,102.382,104.136,0.00405959,0.0779646,20.9861,-939.552,-0.156474,0.0,0.0
578,144.25,40.307,45.6965,168.752,102.369,103.973,0.00406702,0.0779462,20.9861,-939.532,-0.143178,0.0,0.0
580,144.75,40.8092,45.6909,171.438,102.358,104.625,0.00404876,0.077912,20.9861,-939.552,-0.201795,0.0,0.0
582,145.25,40.8324,45.7674,171.375,102.342,103.85,0.00403397,0.0778843,20.9861,-939.562,-0.1348,0.0,0.0
584,145.75,40.726,45.39,170.934,102.354,104.638,0.00399136,0.0778619,20.9861,-939.552,-0.203283,0.0,0.0
586,146.25,40.4622,46.0141,169.447,102.324,104.109,0.00395683,0.0778709,20.9861,-939.562,-0.159288,0.0,0.0
588,146.75,40.3202,45.6221,172.015,102.32,104.445,0.00389953,0.0778782,20.9861,-939.542,-0.189332,0.0,0.0
590,147.25,40.9427,45.3523,168.89,102.304,104.654,0.00385312,0.0779113,20.9861,-939.562,-0.209222,0.0,0.0
592,147.75,40.3726,45.6312,179.52,102.304,103.959,0.0038015,0.0779381,20.9859,-939.552,-0.147873,0.0,0.0
594,148.25,40.2777,46.1165,172.251,102.304,104.567,0.00375969,0.0780006,20.9855,-939.552,-0.201518,0.0,0.0
596,148.75,40.4206,45.6992,175.403,102.273,104.504,0.00372583,0.0780512,20.9852,-939.562,-0.198751,0.0,0.0
598,149.25,40.4794,45.6264,172.163,102.281,104.364,0.00369967,0.0780922,20.9852,-939.562,-0.185627,0.0,0.0
600,149.75,40.4733,45.4334,170.97,102.274,104.008,0.00367848,0.0781254,20.9854,-939.562,-0.154873,0.0,0.0
602,150.25,40.5038,45.425,169.451,102.252,103.883,0.00367534,0.0781595,20.9855,-939.572,-0.145814,0.0,0.0
604,150.75,40.5475,45.9077,174.986,102.267,104.255,0.0036728,0.0781935,20.9856,-939.572,-0.177309,0.0,0.0
606,151.25,40.5071,45.3752,173.791,102.239,103.859,0.00367813,0.0782211,20.9857,-939.572,-0.144823,0.0,0.0
608,151.75,40.5253,45.684,176.819,102.25,103.982,0.00368909,0.0782434,20.9854,-939.582,-0.154774,0.0,0.0
610,152.25,40.3636,45.6267,179.633,102.238,104.621,0.00369796,0.0782615,20.9851,-939.572,-0.212224,0.0,0.0
612,152.75,40.5582,45.6633,174.084,102.231,104.205,0.00371663,0.0782904,20.9849,-939.562,-0.176088,0.0,0.0
614,153.25,40.3525,45.6507,173.817,102.22,104.158,0.00373176,0.0783268,20.9847,-939.572,-0.173018,0.0,0.0
616,153.75,40.3951,45.4871,175.596,102.205,104.212,0.00374804,0.0783562,20.9845,-939.572,-0.179132,0.0,0.0
618,154.25,40.0462,45.2334,172.552,102.198,104.028,0.00376485,0.07838,20.9844,-939.582,-0.163439,0.0,0.0
620,154.75,40.3563,44.9459,171.382,102.189,103.689,0.00378049,0.0783922,20.9843,-939.562,-0.134209,0.0,0.0
622,155.25,40.3567,45.8299,175.371,102.182,103.972,0.00379497,0.0783956,20.9842,-939.562,-0.159943,0.0,0.0
624,155.75,40.7923,45.5609,178.027,102.168,103.896,0.0038067,0.0783983,20.9841,-939.582,-0.154507,0.0,0.0
626,156.25,40.3636,45.4618,175.977,102.165,104.31,0.00381284,0.0783734,20.9841,-939.592,-0.191369,0.0,0.0
628,156.75,40.6245,45.5198,170.906,102.16,104.108,0.00381479,0.0783532,20.9845,-939.592,-0.174042,0.0,0.0
630,157.25,40.6634,45.7827,170.88,102.169,104.929,0.00381032,0.0783225,20.9848,-939.572,-0.245497,0.0,0.0
632,157.75,40.3547,45.6087,175.281,102.142,104.566,0.00380127,0.0782848,20.9851,-939.572,-0.216017,0.0,0.0
634,158.25,40.3721,45.5429,175.155,102.127,104.155,0.00379393,0.0782542,20.9853,-939.582,-0.18116,0.0,0.0
636,158.75,40.7701,45.8931,174.087,102.13,103.852,0.00378416,0.0782438,20.9854,-939.592,-0.153927,0.0,0.0
638,159.25,40.4246,45.5416,174.78,102.115,104.146,0.00377625,0.0782482,20.9856,-939.582,-0.181398,0.0,0.0
640,159.75,40.0261,45.5792,171.978,102.124,103.991,0.00377494,0.0782518,20.9857,-939.572,-0.166861,0.0,0.0
642,160.25,40.2266,45.5522,174.452,102.1,104.12,0.00377389,0.0782683,20.9858,-939.552,-0.180429,0.0,0.0
644,160.75,40.7929,45.8332,170.85,102.088,103.818,0.00378451,0.0782816,20.9858,-939.552,-0.154782,0.0,0.0
646,161.25,41.1184,45.7715,172.91,102.074,103.99,0.00379312,0.0782652,20.9859,-939.542,-0.171275,0.0,0.0
648,161.75,40.5841,45.8013,174.192,102.075,104.035,0.00381541,0.078252,20.9859,-939.542,-0.175127,0.0,0.0
650,162.25,40.4714,45.743,174.69,102.055,103.78,0.00383347,0.0782555,20.986,-939.562,-0.154336,0.0,0.0
652,162.75,40.3795,45.5816,175.013,102.058,103.784,0.00384809,0.0782713,20.986,-939.572,-0.154523,0.0,0.0
654,163.25,40.7135,45.7201,169.805,102.063,104.218,0.00387409,0.0783657,20.986,-939.572,-0.192449,0.0,0.0
656,163.75,41.1756,45.8186,175.161,102.05,103.836,0.00389516,0.0784421,20.9861,-939.572,-0.159869,0.0,0.0
658,164.25,40.361,45.468,171.918,102.043,103.538,0.00391221,0.0785448,20.9861,-939.582,-0.133931,0.0,0.0
660,164.75,40.2632,45.7174,175.802,102.026,104.443,0.00392603,0.078628,20.9861,-939.612,-0.215583,0.0,0.0
662,165.25,40.8621,45.9214,170.283,102.025,104.564,0.00392445,0.0786882,20.9859,-939.612,-0.226393,0.0,0.0
664,165.75,40.6053,45.8476,176.233,102.02,104.002,0.00392855,0.0787306,20.9856,-939.612,-0.177134,0.0,0.0
666,166.25,40.8469,45.6113,170.646,102.006,103.722,0.00393285,0.0787648,20.9854,-939.612,-0.153629,0.0,0.0
668,166.75,40.2436,45.5733,174.69,101.997,104.07,0.00394019,0.0787926,20.9852,-939.612,-0.185356,0.0,0.0
670,167.25,40.7174,45.7507,169.423,101.983,103.582,0.00396913,0.0788298,20.985,-939.622,-0.143278,0.0,0.0
672,167.75,41.0343,45.7401,175.583,101.98,103.734,0.00399258,0.0788731,20.9849,-939.622,-0.157104,0.0,0.0
674,168.25,40.4501,46.117,170.054,101.969,103.853,0.00402233,0.0789082,20.9847,-939.642,-0.168633,0.0,0.0
676,168.75,41.2804,46.2581,174.66,101.955,104.312,0.00405612,0.0789367,20.9842,-939.622,-0.210496,0.0,0.0
678,169.25,40.922,45.8175,174.777,101.946,104.13,0.00408551,0.0789488,20.9838,-939.612,-0.195189,0.0,0.0
680,169.75,40.722,45.4685,170.647,101.943,103.688,0.00411113,0.0789552,20.9834,-939.612,-0.156308,0.0,0.0
682,170.25,40.5325,46.1962,172.649,101.933,103.896,0.00413188,0.0789475,20.9831,-939.602,-0.175711,0.0,0.0
684,170.75,40.5916,46.042,170.214,101.923,103.427,0.00412784,0.0789198,20.9829,-939.612,-0.13485,0.0,0.0
686,171.25,40.2418,46.0581,173.401,101.911,104.005,0.0041058,0.078878,20.9831,-939.602,-0.187257,0.0,0.0
688,171.75,40.6674,46.3502,172.292,101.911,103.573,0.00406711,0.0788442,20.9833,-939.602,-0.148981,0.0,0.0
690,172.25,40.8332,46.2304,170.25,101.906,103.648,0.00401703,0.0788304,20.9835,-939.602,-0.156144,0.0,0.0
692,172.75,40.9117,46.1233,176.425,101.892,103.839,0.00395633,0.0788193,20.9836,-939.592,-0.174374,0.0,0.0
694,173.25,41.233,45.947,174.339,101.874,103.429,0.00388903,0.078783,20.9837,-939.612,-0.139512,0.0,0.0
696,173.75,41.0728,46.0897,174.323,101.875,103.828,0.00383452,0.0787536,20.9838,-939.622,-0.174847,0.0,0.0
698,174.25,41.1865,46.1453,172.151,101.872,103.794,0.00372399,0.0787299,20.9839,-939.612,-0.172157,0.0,0.0
700,174.75,41.0526,46.4461,171.132,101.863,103.931,0.00369425,0.0787106,20.9838,-939.622,-0.185061,0.0,0.0
702,175.25,40.8051,45.6632,167.533,101.846,103.855,0.00363195,0.078695,20.9835,-939.622,-0.17997,0.0,0.0
704,175.75,40.6551,45.884,168.264,101.839,103.879,0.00358148,0.0786824,20.9833,-939.622,-0.18266,0.0,0.0
706,176.25,40.2539,45.9712,172.759,101.827,103.568,0.00354395,0.0786507,20.9832,-939.612,-0.156081,0.0,0.0
708,176.75,40.9778,46.3895,174.628,101.822,103.456,0.00351657,0.0786057,20.983,-939.602,-0.146615,0.0,0.0
710,177.25,41.0558,45.935,172.505,101.803,103.712,0.00349439,0.0785613,20.9829,-939.582,-0.171082,0.0,0.0
712,177.75,40.7814,45.9257,171.654,101.811,103.98,,0.0785183,,-939.562,-0.194136,0.0,0.0
714,178.25,40.9548,46.3089,175.394,101.8,103.31,,0.0784834,,-939.572,-0.135573,0.0,0.0
716,178.75,40.9734,46.6267,171.979,101.785,103.066,,0.0785096,,-939.572,-0.115147,0.0,0.0
718,179.25,40.7783,46.2472,170.106,101.766,104.353,,0.0785308,,-939.582,-0.231162,0.0,0.0
720,179.75,40.4934,45.6967,174.662,101.756,103.789,,0.0785265,,-939.602,-0.182199,0.0,0.0
722,180.25,40.6831,45.8441,171.436,101.753,103.126,,0.0785037,,-939.612,-0.123489,0.0,0.0
724,180.75,40.6346,45.4592,170.864,101.733,103.685,,,,-939.602,-0.175063,0.0,0.0
726,181.25,40.42,45.7715,170.115,101.722,103.189,,,,-939.592,-0.131823,0.0,0.0
728,181.75,40.6514,45.86,174.303,101.706,103.731,,,,-939.592,-0.181543,0.0,0.0
730,182.25,40.6663,45.634,172.972,101.712,103.695,,,,-939.612,-0.177778,0.0,0.0
732,182.75,40.8911,45.5664,171.306,101.708,103.327,,,,-939.602,-0.145397,0.0,0.0
734,183.25,40.5697,46.1092,172.469,101.684,103.534,,,,-939.602,-0.166075,0.0,0.0
736,183.75,40.7364,46.2529,169.89,101.667,103.769,,,,-939.612,-0.188478,0.0,0.0
738,184.25,40.9631,46.0681,173.294,101.655,103.891,,,,-939.622,-0.200407,0.0,0.0
740,184.75,41.1926,45.8846,171.024,101.647,103.908,,,,-939.602,-0.202619,0.0,0.0
742,185.25,40.9872,45.9185,178.559,101.641,103.58,,,,-939.622,-0.174055,0.0,0.0
744,185.75,40.7244,45.8194,175.068,101.624,103.725,,,,-939.602,-0.188499,0.0,0.0
746,186.25,40.4783,45.8989,174.61,101.624,104.422,,,,-939.612,-0.250171,0.0,0.0
748,186.75,40.9259,46.3779,169.642,101.617,103.654,,,,-939.632,-0.182821,0.0,0.0
750,187.25,40.6715,46.1779,169.582,101.583,103.616,,,,-939.632,-0.182544,0.0,0.0
752,187.75,40.9981,45.9503,170.279,101.586,104.389,,,,-939.642,-0.250724,0.0,0.0
754,188.25,40.6895,46.1408,170.7,101.568,103.679,,,,-939.632,-0.189524,0.0,0.0
755,188.5,40.7281,46.1151,172.688,101.557,103.496,,,,-939.622,-0.17422,0.0,0.0