File: 01_Data/Feather_PillowB_Feathers/STA/N2/3K_min/Feather_Pillow_Feathers_STA_N2_3KData_2266_R1.csv
##Temp./Â°C,Time/min,Mass loss(subtr.2)/mg,DSC(subtr.2)/(mW/mg),Sensit./(uV/mW)
50.255,10.01667,-0.06104,0.02743508,1.05674
50.855,11.09702,-0.06382373,0.04241697,1.05668
51.455,11.45681,-0.06618445,0.05148688,1.05661
52.055,11.74499,-0.06487076,0.05831568,1.05654
52.655,12.0045,-0.06623281,0.06302301,1.05647
53.255,12.24915,-0.06762663,0.06661209,1.05641
53.855,12.48506,-0.06762016,0.06797268,1.05634
54.455,12.71635,-0.06895742,0.06879486,1.05627
55.055,12.9435,-0.06892955,0.06996858,1.0562
55.655,13.16811,-0.06829004,0.07209738,1.05613
56.255,13.3901,-0.0695998,0.0733667,1.05605
56.855,13.6081,-0.06960107,0.07559705,1.05598
57.455,13.8277,-0.07092182,0.07680671,1.05591
58.055,14.04614,-0.07109773,0.07828507,1.05584
58.655,14.2654,-0.07354741,0.0791542,1.05576
59.255,14.479,-0.07355974,0.08058474,1.05569
59.855,14.6911,-0.07356001,0.08127671,1.05561
60.455,14.90104,-0.07617162,0.08421218,1.05554
61.055,15.10999,-0.07422187,0.08314599,1.05546
61.655,15.3175,-0.07682833,0.08543571,1.05539
62.255,15.5229,-0.07555053,0.08602967,1.05531
62.855,15.72911,-0.07946625,0.08912866,1.05523
63.455,15.9336,-0.07916093,0.08804721,1.05515
64.055,16.139,-0.07916,0.09048589,1.05507
64.655,16.34381,-0.07915996,0.09123976,1.05499
65.255,16.5485,-0.08017203,0.0924002,1.05491
65.855,16.7528,-0.0802685,0.09040996,1.05483
66.455,16.9548,-0.08276966,0.09160814,1.05475
67.055,17.15774,-0.08408562,0.0911325,1.05467
67.655,17.36064,-0.08263105,0.09338298,1.05459
68.255,17.56469,-0.08408842,0.09154728,1.05451
68.855,17.76708,-0.08541003,0.09188837,1.05442
69.455,17.96986,-0.08672842,0.09026602,1.05434
70.055,18.17268,-0.0880877,0.09043888,1.05425
70.655,18.37462,-0.08804087,0.09131518,1.05417
71.255,18.57541,-0.09005834,0.09002825,1.05408
71.855,18.77709,-0.09200723,0.08922126,1.054
72.455,18.9796,-0.09068012,0.09020637,1.05391
73.055,19.1835,-0.09068222,0.08705244,1.05382
73.655,19.3867,-0.09166996,0.08533374,1.05373
74.255,19.5886,-0.09200017,0.0854295,1.05365
74.855,19.79058,-0.09467432,0.08600788,1.05356
75.455,19.9925,-0.09461992,0.08563766,1.05347
76.055,20.19431,-0.09580907,0.08509719,1.05338
76.655,20.39542,-0.09727702,0.08289531,1.05328
77.255,20.59636,-0.09594997,0.08321393,1.05319
77.855,20.79727,-0.09869517,0.08407328,1.0531
78.455,20.99855,-0.09694282,0.0811369,1.05301
79.055,21.1985,-0.09760093,0.08026963,1.05291
79.655,21.39919,-0.09890996,0.0786142,1.05282
80.255,21.59998,-0.09793001,0.07826966,1.05273
80.855,21.80167,-0.09924,0.07677929,1.05263
81.455,22.0029,-0.10021,0.07540514,1.05254
82.055,22.2032,-0.10203,0.07344697,1.05244
82.655,22.4032,-0.10265,0.07292036,1.05234
83.255,22.6029,-0.10149,0.07068678,1.05224
83.855,22.80317,-0.10286,0.07090192,1.05215
84.455,23.00277,-0.10221,0.06879159,1.05205
85.055,23.20385,-0.1032,0.06792858,1.05195
85.655,23.4044,-0.10497,0.065568,1.05185
86.255,23.604,-0.10556,0.06597036,1.05175
86.855,23.8033,-0.1055,0.06461448,1.05165
87.455,24.002,-0.1055,0.06143653,1.05155
88.055,24.20119,-0.1055,0.06041606,1.05144
88.655,24.40073,-0.1055,0.06041984,1.05134
89.255,24.59999,-0.10715,0.05878602,1.05124
89.855,24.7989,-0.10743,0.059118,1.05113
90.455,24.99813,-0.1088,0.05596894,1.05103
91.055,25.19813,-0.10879,0.05469655,1.05092
91.655,25.39912,-0.1095,0.05304677,1.05082
92.255,25.59904,-0.10911,0.05004939,1.05071
92.855,25.79984,-0.10978,0.0497447,1.0506
93.455,26.00015,-0.10978,0.04755889,1.0505
94.055,26.2,-0.11044,0.04884799,1.05039
94.655,26.39955,-0.11176,0.04484403,1.05028
95.255,26.59863,-0.11209,0.0452111,1.05017
95.855,26.79867,-0.11212,0.04424587,1.05006
96.455,26.99788,-0.11308,0.04398617,1.04995
97.055,27.19643,-0.11046,0.04226879,1.04984
97.655,27.3951,-0.11175,0.03992211,1.04973
98.255,27.5933,-0.11076,0.0413495,1.04961
98.855,27.7913,-0.11123,0.04087577,1.0495
99.455,27.98964,-0.1134,0.0400665,1.04939
100.055,28.18801,-0.11307,0.03870221,1.04927
100.655,28.3862,-0.11419,0.03750667,1.04916
101.255,28.585,-0.11308,0.03571895,1.04904
101.855,28.7832,-0.11308,0.03636544,1.04893
102.455,28.98177,-0.11445,0.03416563,1.04881
103.055,29.1805,-0.11303,0.03449204,1.04869
103.655,29.379,-0.1144,0.03366056,1.04858
104.255,29.57729,-0.11534,0.03292959,1.04846
104.855,29.7758,-0.11268,0.03343572,1.04834
105.455,29.97383,-0.11685,0.03200127,1.04822
106.055,30.17152,-0.11406,0.03292097,1.0481
106.655,30.3688,-0.11413,0.03275373,1.04798
107.255,30.5664,-0.11604,0.03350994,1.04786
107.855,30.76495,-0.11406,0.03241505,1.04773
108.455,30.96391,-0.11477,0.03187958,1.04761
109.055,31.1619,-0.11673,0.03107876,1.04749
109.655,31.36,-0.11536,0.03069087,1.04736
110.255,31.55808,-0.11472,0.03152554,1.04724
110.855,31.75654,-0.11433,0.02997039,1.04711
111.455,31.9541,-0.11734,0.027939,1.04699
112.055,32.15188,-0.11467,0.0290525,1.04686
112.655,32.34929,-0.11473,0.02697476,1.04674
113.255,32.54748,-0.11472,0.02651757,1.04661
113.855,32.746,-0.11377,0.02645191,1.04648
114.455,32.94447,-0.11473,0.02758761,1.04635
115.055,33.14253,-0.11481,0.02846881,1.04622
115.655,33.34037,-0.11362,0.02758406,1.04609
116.255,33.53627,-0.11627,0.02698923,1.04596
116.855,33.7328,-0.11503,0.0273603,1.04583
117.455,33.93138,-0.11472,0.02691644,1.0457
118.055,34.1305,-0.11418,0.02532363,1.04557
118.655,34.3283,-0.11406,0.02374636,1.04543
119.255,34.52393,-0.11406,0.02444056,1.0453
119.855,34.71949,-0.11505,0.02397118,1.04516
120.455,34.915,-0.11373,0.02284112,1.04503
121.055,35.11533,-0.11373,0.02072507,1.04489
121.655,35.3156,-0.1144,0.02060093,1.04476
122.255,35.516,-0.11505,0.02102054,1.04462
122.855,35.7151,-0.11571,0.02010829,1.04448
123.455,35.91296,-0.1144,0.02011947,1.04435
124.055,36.11034,-0.1144,0.02018195,1.04421
124.655,36.30862,-0.11569,0.01947072,1.04407
125.255,36.50698,-0.11506,0.0218465,1.04393
125.855,36.70436,-0.11638,0.02003115,1.04379
126.455,36.90157,-0.11639,0.0202305,1.04365
127.055,37.09782,-0.11701,0.01891016,1.0435
127.655,37.29455,-0.11439,0.01927174,1.04336
128.255,37.49168,-0.11512,0.01881799,1.04322
128.855,37.6898,-0.11571,0.01968692,1.04308
129.455,37.88712,-0.11505,0.0187201,1.04293
130.055,38.08493,-0.11637,0.01786576,1.04279
130.655,38.28222,-0.11604,0.01846392,1.04264
131.255,38.4797,-0.11604,0.01780924,1.04249
131.855,38.67588,-0.11604,0.01879792,1.04235
132.455,38.87312,-0.11637,0.01802213,1.0422
133.055,39.07028,-0.11636,0.01841478,1.04205
133.655,39.26727,-0.11505,0.02030758,1.0419
134.255,39.46508,-0.11571,0.01840986,1.04175
134.855,39.66176,-0.11453,0.01719869,1.0416
135.455,39.85928,-0.11439,0.01874161,1.04145
136.055,40.057,-0.11571,0.01579309,1.0413
136.655,40.25482,-0.11475,0.01576607,1.04115
137.255,40.45223,-0.11528,0.01603229,1.041
137.855,40.649,-0.11736,0.01651512,1.04085
138.455,40.8448,-0.1149,0.01799624,1.04069
139.055,41.0407,-0.11604,0.01773934,1.04054
139.655,41.23693,-0.11573,0.01529701,1.04038
140.255,41.4332,-0.11702,0.01375842,1.04023
140.855,41.62958,-0.11572,0.01604556,1.04007
141.455,41.8249,-0.11458,0.01663137,1.03992
142.055,42.0201,-0.11604,0.01495782,1.03976
142.655,42.21561,-0.11736,0.01601639,1.0396
143.255,42.41252,-0.11736,0.01519453,1.03944
143.855,42.60992,-0.11607,0.01456278,1.03928
144.455,42.80713,-0.11604,0.01464332,1.03912
145.055,43.0041,-0.11684,0.01364921,1.03896
145.655,43.20085,-0.11706,0.01483828,1.0388
146.255,43.39678,-0.11832,0.01387325,1.03864
146.855,43.59213,-0.1171,0.01237499,1.03848
147.455,43.7883,-0.11768,0.009812257,1.03831
148.055,43.98379,-0.11768,0.01103562,1.03815
148.655,44.18063,-0.11636,0.009181962,1.03798
149.255,44.37735,-0.11769,0.01072093,1.03782
149.855,44.5743,-0.1174,0.0106387,1.03765
150.455,44.77145,-0.11768,0.01194894,1.03749
151.055,44.96865,-0.11901,0.01154402,1.03732
151.655,45.16446,-0.11912,0.01093154,1.03715
152.255,45.36043,-0.11964,0.01063276,1.03699
152.855,45.55663,-0.11972,0.01186486,1.03682
153.455,45.75336,-0.11832,0.01270895,1.03665
154.055,45.9501,-0.11966,0.01215645,1.03648
154.655,46.14793,-0.11834,0.01328217,1.03631
155.255,46.34463,-0.11934,0.01361189,1.03613
155.855,46.54166,-0.11805,0.012652,1.03596
156.455,46.73832,-0.11931,0.01173205,1.03579
157.055,46.93495,-0.11802,0.0110228,1.03562
157.655,47.13196,-0.11931,0.01266536,1.03544
158.255,47.32762,-0.11917,0.01369683,1.03527
158.855,47.52303,-0.11934,0.01294503,1.03509
159.455,47.7187,-0.11934,0.01459265,1.03492
160.055,47.9139,-0.11873,0.01323808,1.03474
160.655,48.10966,-0.11929,0.01374695,1.03456
161.255,48.30594,-0.11801,0.01184946,1.03439
161.855,48.50241,-0.119,0.01145607,1.03421
162.455,48.69924,-0.12065,0.01401631,1.03403
163.055,48.89455,-0.11968,0.01443697,1.03385
163.655,49.09059,-0.11962,0.01332955,1.03367
164.255,49.28609,-0.11835,0.01316082,1.03349
164.855,49.482,-0.11822,0.01459685,1.03331
165.455,49.67753,-0.12098,0.0148023,1.03312
166.055,49.87293,-0.12098,0.01342914,1.03294
166.655,50.06841,-0.12173,0.01308735,1.03276
167.255,50.26316,-0.1223,0.01369952,1.03257
167.855,50.45857,-0.121,0.01501731,1.03239
168.455,50.65251,-0.12131,0.0147143,1.0322
169.055,50.847,-0.12267,0.01580141,1.03202
169.655,51.04209,-0.12025,0.01527871,1.03183
170.255,51.23738,-0.12272,0.01235777,1.03164
170.855,51.4332,-0.12263,0.01311874,1.03145
171.455,51.62908,-0.12263,0.01306446,1.03127
172.055,51.8255,-0.1223,0.01191551,1.03108
172.655,52.02152,-0.12296,0.01378813,1.03089
173.255,52.21804,-0.12356,0.01178243,1.0307
173.855,52.4133,-0.12408,0.01293337,1.0305
174.455,52.6083,-0.12328,0.01352802,1.03031
175.055,52.804,-0.12328,0.01252656,1.03012
175.655,52.9997,-0.1246,0.01499917,1.02993
176.255,53.1961,-0.12574,0.01534203,1.02973
176.855,53.39292,-0.12592,0.015269,1.02954
177.455,53.5899,-0.12597,0.01327447,1.02934
178.055,53.7864,-0.12526,0.01537984,1.02915
178.655,53.98248,-0.12658,0.01574248,1.02895
179.255,54.17794,-0.12658,0.01550422,1.02875
179.855,54.37379,-0.12658,0.0161384,1.02856
180.455,54.5698,-0.12856,0.01634805,1.02836
181.055,54.76633,-0.12757,0.01391675,1.02816
181.655,54.96278,-0.12889,0.01624979,1.02796
182.255,55.1589,-0.12889,0.0138601,1.02776
182.855,55.35552,-0.12904,0.01539587,1.02756
183.455,55.55137,-0.1302,0.01636173,1.02735
184.055,55.74631,-0.12889,0.01803359,1.02715
184.655,55.9418,-0.13086,0.01857747,1.02695
185.255,56.13743,-0.12955,0.01821946,1.02675
185.855,56.3336,-0.12889,0.01838793,1.02654
186.455,56.5307,-0.12955,0.01939418,1.02634
187.055,56.726,-0.13152,0.02012855,1.02613
187.655,56.92174,-0.13087,0.02056681,1.02592
188.255,57.1169,-0.13119,0.02231835,1.02572
188.855,57.3118,-0.13089,0.0228896,1.02551
189.455,57.50586,-0.13097,0.02428578,1.0253
190.055,57.7015,-0.13316,0.02474052,1.02509
190.655,57.89741,-0.13317,0.02490995,1.02488
191.255,58.09321,-0.1345,0.02619993,1.02467
191.855,58.28917,-0.1332,0.02603716,1.02446
192.455,58.48444,-0.13447,0.027607,1.02425
193.055,58.68,-0.13589,0.02697642,1.02404
193.655,58.8771,-0.13357,0.02826454,1.02382
194.255,59.0736,-0.13613,0.02822051,1.02361
194.855,59.26951,-0.13644,0.02892796,1.0234
195.455,59.46591,-0.13712,0.02947683,1.02318
196.055,59.6595,-0.13843,0.03188145,1.02297
196.655,59.8532,-0.13901,0.03164311,1.02275
197.255,60.0478,-0.13909,0.03460519,1.02253
197.855,60.2437,-0.13993,0.03505969,1.02232
198.455,60.4402,-0.14074,0.03422865,1.0221
199.055,60.6369,-0.14145,0.03537954,1.02188
199.655,60.83275,-0.14272,0.03739024,1.02166
200.255,61.0274,-0.14001,0.03993184,1.02144
200.855,61.22282,-0.14075,0.04076189,1.02122
201.455,61.41757,-0.143,0.04336372,1.021
202.055,61.61237,-0.14542,0.04454357,1.02078
202.655,61.80819,-0.14388,0.04695433,1.02055
203.255,62.00345,-0.14337,0.04723794,1.02033
203.855,62.1988,-0.14597,0.04922372,1.0201
204.455,62.39376,-0.14733,0.05077811,1.01988
205.055,62.58826,-0.14832,0.05265218,1.01965
205.655,62.78321,-0.15128,0.0542443,1.01943
206.255,62.9785,-0.15194,0.05706174,1.0192
206.855,63.1739,-0.14964,0.05804625,1.01897
207.455,63.37065,-0.15328,0.06006068,1.01875
208.055,63.56585,-0.15457,0.0640783,1.01852
208.655,63.76118,-0.15589,0.06693628,1.01829
209.255,63.9571,-0.15589,0.07117978,1.01806
209.855,64.15275,-0.15727,0.07090225,1.01783
210.455,64.34744,-0.16163,0.07687266,1.0176
211.055,64.54284,-0.16115,0.07945141,1.01736
211.655,64.73658,-0.16243,0.08362287,1.01713
212.255,64.93156,-0.16511,0.0876885,1.0169
212.855,65.12691,-0.16668,0.09361242,1.01666
213.455,65.3228,-0.1701,0.09417111,1.01643
214.055,65.51807,-0.17208,0.09798069,1.01619
214.655,65.7128,-0.1749,0.10595,1.01596
215.255,65.90732,-0.17752,0.10829,1.01572
215.855,66.102,-0.17888,0.11634,1.01548
216.455,66.2974,-0.18148,0.11929,1.01525
217.055,66.4923,-0.18545,0.12486,1.01501
217.655,66.6881,-0.18676,0.13303,1.01477
218.255,66.88359,-0.1907,0.13404,1.01453
218.855,67.0793,-0.19199,0.14056,1.01429
219.455,67.27476,-0.19691,0.14846,1.01404
220.055,67.47001,-0.19992,0.15163,1.0138
220.655,67.66502,-0.20376,0.15657,1.01356
221.255,67.86022,-0.20772,0.15849,1.01332
221.855,68.0553,-0.21245,0.15973,1.01307
222.455,68.2507,-0.21642,0.16566,1.01283
223.055,68.44605,-0.21951,0.16388,1.01258
223.655,68.64185,-0.22324,0.1639,1.01234
224.255,68.83665,-0.22756,0.16389,1.01209
224.855,69.03092,-0.2321,0.16261,1.01184
225.455,69.22621,-0.23499,0.16037,1.01159
226.055,69.4221,-0.24134,0.1592,1.01135
226.655,69.61896,-0.24564,0.15687,1.0111
227.255,69.81535,-0.24856,0.1554,1.01085
227.855,70.01082,-0.2541,0.15453,1.01059
228.455,70.20596,-0.259,0.15148,1.01034
229.055,70.4007,-0.26303,0.15058,1.01009
229.655,70.59569,-0.26833,0.14535,1.00984
230.255,70.79021,-0.27081,0.14544,1.00959
230.855,70.9846,-0.27665,0.14286,1.00933
231.455,71.17829,-0.28072,0.14067,1.00908
232.055,71.3727,-0.28628,0.13859,1.00882
232.655,71.5668,-0.28928,0.13635,1.00856
233.255,71.76087,-0.2953,0.13443,1.00831
233.855,71.95564,-0.29859,0.13398,1.00805
234.455,72.15066,-0.30356,0.13169,1.00779
235.055,72.34639,-0.30923,0.12971,1.00753
235.655,72.54217,-0.31179,0.12984,1.00727
236.255,72.73686,-0.31626,0.12945,1.00701
236.855,72.93109,-0.32218,0.12757,1.00675
237.455,73.12477,-0.32473,0.12711,1.00649
238.055,73.31864,-0.32816,0.12609,1.00623
238.655,73.51544,-0.33331,0.1262,1.00597
239.255,73.7113,-0.3393,0.12805,1.0057
239.855,73.90871,-0.34128,0.12849,1.00544
240.455,74.10445,-0.3466,0.12944,1.00517
241.055,74.29911,-0.34918,0.12999,1.00491
241.655,74.49463,-0.35636,0.12893,1.00464
242.255,74.69001,-0.36219,0.13048,1.00438
242.855,74.88457,-0.36778,0.1307,1.00411
243.455,75.08009,-0.37036,0.13057,1.00384
244.055,75.27594,-0.37573,0.1303,1.00357
244.655,75.47191,-0.38284,0.12926,1.0033
245.255,75.66768,-0.38665,0.13025,1.00303
245.855,75.86421,-0.39234,0.13032,1.00276
246.455,76.06004,-0.39886,0.13147,1.00249
247.055,76.25646,-0.40254,0.13361,1.00222
247.655,76.45265,-0.40895,0.13594,1.00194
248.255,76.64814,-0.41727,0.1386,1.00167
248.855,76.84361,-0.42307,0.13913,1.0014
249.455,77.03888,-0.42815,0.14054,1.00112
250.055,77.23461,-0.43405,0.13953,1.00084
250.655,77.43012,-0.43908,0.14091,1.00057
251.255,77.62598,-0.44424,0.14227,1.00029
251.855,77.82135,-0.45316,0.14357,1.00001
252.455,78.01675,-0.45823,0.14404,0.99974
253.055,78.2127,-0.46532,0.14472,0.99946
253.655,78.4084,-0.47053,0.14478,0.99918
254.255,78.60483,-0.47654,0.14666,0.9989
254.855,78.80067,-0.48296,0.14514,0.99862
255.455,78.99544,-0.49008,0.1471,0.99833
256.055,79.19037,-0.49631,0.14798,0.99805
256.655,79.38479,-0.50287,0.15137,0.99777
257.255,79.57915,-0.51004,0.1511,0.99748
257.855,79.77458,-0.51542,0.15139,0.9972
258.455,79.97024,-0.52444,0.15351,0.99691
259.055,80.1657,-0.53026,0.15234,0.99663
259.655,80.36077,-0.53819,0.1566,0.99634
260.255,80.5561,-0.54536,0.15622,0.99606
260.855,80.75157,-0.55137,0.1569,0.99577
261.455,80.94709,-0.55958,0.15672,0.99548
262.055,81.14325,-0.56807,0.15544,0.99519
262.655,81.33905,-0.57418,0.15658,0.9949
263.255,81.53563,-0.58312,0.1589,0.99461
263.855,81.73145,-0.58959,0.15935,0.99432
264.455,81.92696,-0.5981,0.16012,0.99403
265.055,82.12302,-0.60618,0.16738,0.99373
265.655,82.31883,-0.61484,0.16553,0.99344
266.255,82.51514,-0.62195,0.16798,0.99315
266.855,82.70936,-0.63009,0.16632,0.99285
267.455,82.9036,-0.63889,0.16953,0.99256
268.055,83.09777,-0.64737,0.17158,0.99226
268.655,83.29297,-0.65574,0.17039,0.99196
269.255,83.488,-0.66593,0.17078,0.99167
269.855,83.68341,-0.67407,0.17027,0.99137
270.455,83.87957,-0.68273,0.17064,0.99107
271.055,84.0762,-0.693,0.16966,0.99077
271.655,84.27239,-0.70174,0.16964,0.99047
272.255,84.4686,-0.70891,0.16915,0.99017
272.855,84.66401,-0.7194,0.16837,0.98987
273.455,84.86,-0.7296,0.16779,0.98957
274.055,85.0552,-0.739,0.16791,0.98926
274.655,85.2509,-0.74777,0.16862,0.98896
275.255,85.44581,-0.75811,0.16752,0.98866
275.855,85.64112,-0.76901,0.16937,0.98835
276.455,85.83481,-0.77853,0.16887,0.98805
277.055,86.02712,-0.78771,0.16925,0.98774
277.655,86.2195,-0.79772,0.16646,0.98743
278.255,86.41243,-0.80859,0.16779,0.98713
278.855,86.60705,-0.81878,0.16498,0.98682
279.455,86.8027,-0.82863,0.16576,0.98651
280.055,86.99831,-0.83864,0.16619,0.9862
280.655,87.196,-0.85008,0.16467,0.98589
281.255,87.3935,-0.86214,0.16259,0.98558
281.855,87.59129,-0.87427,0.16117,0.98527
282.455,87.7882,-0.8841,0.16028,0.98496
283.055,87.98437,-0.89285,0.1568,0.98464
283.655,88.1805,-0.90488,0.15913,0.98433
284.255,88.37645,-0.91624,0.15801,0.98402
284.855,88.5725,-0.92807,0.15786,0.9837
285.455,88.76818,-0.93846,0.1591,0.98339
286.055,88.96472,-0.94989,0.15889,0.98307
286.655,89.1605,-0.96276,0.15688,0.98275
287.255,89.35636,-0.97357,0.15784,0.98243
287.855,89.55213,-0.98442,0.15613,0.98212
288.455,89.7482,-0.9944,0.1562,0.9818
289.055,89.94408,-1.00975,0.15861,0.98148
289.655,90.13999,-1.02049,0.15819,0.98116
290.255,90.33561,-1.03267,0.15835,0.98084
290.855,90.53165,-1.04378,0.15763,0.98052
291.455,90.72784,-1.05711,0.15798,0.98019
292.055,90.92451,-1.06904,0.15733,0.97987
292.655,91.12053,-1.07985,0.15816,0.97955
293.255,91.31656,-1.09376,0.15757,0.97922
293.855,91.5117,-1.10543,0.16089,0.9789
294.455,91.70647,-1.11991,0.16269,0.97857
295.055,91.9011,-1.13086,0.16248,0.97825
295.655,92.09604,-1.14324,0.16157,0.97792
296.255,92.29163,-1.15616,0.1625,0.97759
296.855,92.48777,-1.17181,0.16161,0.97726
297.455,92.68356,-1.18501,0.16243,0.97693
298.055,92.87985,-1.19673,0.16165,0.9766
298.655,93.07535,-1.2092,0.16059,0.97627
299.255,93.27051,-1.22209,0.1606,0.97594
299.855,93.46534,-1.23468,0.15797,0.97561
300.455,93.66086,-1.24836,0.15827,0.97528
301.055,93.8573,-1.26357,0.1589,0.97494
301.655,94.05386,-1.2768,0.1553,0.97461
302.255,94.2499,-1.28886,0.15583,0.97428
302.855,94.44564,-1.30262,0.15182,0.97394
303.455,94.64151,-1.31577,0.15018,0.97361
304.055,94.83695,-1.32949,0.1479,0.97327
304.655,95.03307,-1.34208,0.14605,0.97293
305.255,95.22856,-1.35535,0.14657,0.97259
305.855,95.4245,-1.36996,0.14405,0.97226
306.455,95.62055,-1.38188,0.14275,0.97192
307.055,95.8173,-1.39506,0.14233,0.97158
307.655,96.0145,-1.40996,0.14158,0.97124
308.255,96.2114,-1.42094,0.13929,0.9709
308.855,96.40849,-1.43389,0.13911,0.97055
309.455,96.6053,-1.44945,0.13899,0.97021
310.055,96.80215,-1.46442,0.13865,0.96987
310.655,96.9991,-1.47769,0.138,0.96952
311.255,97.19622,-1.49141,0.13661,0.96918
311.855,97.39214,-1.50479,0.13705,0.96883
312.455,97.58842,-1.51854,0.13548,0.96849
313.055,97.78407,-1.53129,0.13377,0.96814
313.655,97.9807,-1.54672,0.13452,0.96779
314.255,98.17635,-1.56164,0.13133,0.96745
314.855,98.37183,-1.57325,0.12856,0.9671
315.455,98.56788,-1.58885,0.12683,0.96675
316.055,98.76329,-1.60014,0.12573,0.9664
316.655,98.95912,-1.61504,0.12106,0.96605
317.255,99.15539,-1.62775,0.11919,0.9657
317.855,99.3514,-1.64133,0.11802,0.96535
318.455,99.5489,-1.65307,0.11563,0.96499
319.055,99.74429,-1.66791,0.1134,0.96464
319.655,99.93952,-1.67945,0.11148,0.96429
320.255,100.134,-1.69338,0.10972,0.96393
320.855,100.329,-1.7047,0.10723,0.96358
321.455,100.524,-1.71617,0.10337,0.96322
322.055,100.719,-1.72911,0.09869959,0.96286
322.655,100.915,-1.74318,0.09656842,0.96251
323.255,101.111,-1.75526,0.09208415,0.96215
323.855,101.308,-1.76471,0.08806137,0.96179
324.455,101.504,-1.77891,0.08641888,0.96143
325.055,101.7,-1.78634,0.08371406,0.96107
325.655,101.896,-1.79939,0.08043105,0.96071
326.255,102.092,-1.81072,0.07808812,0.96035
326.855,102.288,-1.82103,0.0758854,0.95999
327.455,102.484,-1.83086,0.07293521,0.95962
328.055,102.6797,-1.83969,0.07044222,0.95926
328.655,102.876,-1.85133,0.068167,0.9589
329.255,103.072,-1.86113,0.06394834,0.95853
329.855,103.269,-1.87126,0.06342189,0.95817
330.455,103.466,-1.87898,0.05995309,0.9578
331.055,103.662,-1.8898,0.05974748,0.95743
331.655,103.859,-1.8995,0.05529566,0.95707
332.255,104.056,-1.90696,0.05286775,0.9567
332.855,104.2534,-1.91794,0.05221449,0.95633
333.455,104.4499,-1.9245,0.04809097,0.95596
334.055,104.647,-1.93587,0.04865266,0.95559
334.655,104.844,-1.94371,0.04729454,0.95522
335.255,105.04,-1.95196,0.04508158,0.95485
335.855,105.236,-1.95743,0.04453661,0.95448
336.455,105.432,-1.96779,0.04292041,0.9541
337.055,105.627,-1.97749,0.04054986,0.95373
337.655,105.824,-1.98626,0.03702516,0.95336
338.255,106.02,-1.99419,0.03628099,0.95298
338.855,106.217,-2.00027,0.03326374,0.95261
339.455,106.4151,-2.01041,0.03066907,0.95223
340.055,106.613,-2.01594,0.02930327,0.95185
340.655,106.812,-2.02332,0.02816949,0.95148
341.255,107.0099,-2.02987,0.02724688,0.9511
341.855,107.207,-2.03802,0.0250282,0.95072
342.455,107.403,-2.04614,0.0261732,0.95034
343.055,107.598,-2.05319,0.02343664,0.94996
343.655,107.793,-2.05875,0.02199174,0.94958
344.255,107.99,-2.06548,0.0200352,0.9492
344.855,108.189,-2.0749,0.02094843,0.94882
345.455,108.3877,-2.08032,0.02144371,0.94844
346.055,108.586,-2.08793,0.0211234,0.94805
346.655,108.783,-2.09345,0.01791229,0.94767
347.255,108.981,-2.09928,0.01747168,0.94728
347.855,109.178,-2.1048,0.01708936,0.9469
348.455,109.374,-2.11284,0.0150619,0.94651
349.055,109.571,-2.11886,0.01446288,0.94613
349.655,109.768,-2.12497,0.01318968,0.94574
350.255,109.966,-2.13028,0.01407452,0.94535
350.855,110.162,-2.13565,0.01125488,0.94496
351.455,110.359,-2.14121,0.0115604,0.94457
352.055,110.556,-2.14838,0.009171751,0.94418
352.655,110.754,-2.15403,0.01091586,0.94379
353.255,110.952,-2.16071,0.008774659,0.9434
353.855,111.15,-2.16821,0.008288077,0.94301
354.455,111.347,-2.17365,0.00807992,0.94262
355.055,111.544,-2.17902,0.00529375,0.94222
355.655,111.741,-2.18442,0.004050235,0.94183
356.255,111.939,-2.18781,0.002656576,0.94144
356.855,112.1358,-2.19557,0.00126393,0.94104
357.455,112.333,-2.20082,0.0004085322,0.94065
358.055,112.532,-2.2067,-0.00176441,0.94025
358.655,112.731,-2.20965,-0.002887905,0.93985
359.255,112.93,-2.21662,-0.005133011,0.93946
359.855,113.129,-2.22183,-0.005910554,0.93906
360.455,113.328,-2.22878,-0.007185189,0.93866
361.055,113.525,-2.23431,-0.005283551,0.93826
361.655,113.722,-2.23987,-0.003387981,0.93786
362.255,113.919,-2.24316,-0.005304454,0.93746
362.855,114.117,-2.25046,-0.0067337,0.93706
363.455,114.3131,-2.25531,-0.006486126,0.93665
364.055,114.509,-2.25908,-0.007037641,0.93625
364.655,114.705,-2.26371,-0.006515906,0.93585
365.255,114.902,-2.26822,-0.009129114,0.93544
365.855,115.099,-2.27492,-0.01038348,0.93504
366.455,115.296,-2.27759,-0.01064454,0.93463
367.055,115.494,-2.28439,-0.009944338,0.93423
367.655,115.691,-2.28797,-0.01240296,0.93382
368.255,115.888,-2.29263,-0.01218552,0.93341
368.855,116.085,-2.29889,-0.01427457,0.933
369.455,116.2821,-2.30277,-0.01457717,0.93259
370.055,116.479,-2.30816,-0.01680732,0.93219
370.655,116.677,-2.31221,-0.01653448,0.93178
371.255,116.8752,-2.31795,-0.01762168,0.93136
371.855,117.074,-2.32082,-0.01900851,0.93095
372.455,117.272,-2.32481,-0.02067318,0.93054
373.055,117.47,-2.32921,-0.02185202,0.93013
373.655,117.669,-2.33288,-0.02085165,0.92972
374.255,117.868,-2.33702,-0.02256796,0.9293
374.855,118.067,-2.34322,-0.02340844,0.92889
375.455,118.265,-2.34753,-0.02278571,0.92847
376.055,118.464,-2.35279,-0.02402067,0.92806
376.655,118.663,-2.35544,-0.02651752,0.92764
377.255,118.861,-2.36203,-0.0257318,0.92722
377.855,119.059,-2.36643,-0.02737283,0.9268
378.455,119.256,-2.37004,-0.02824436,0.92639
379.055,119.453,-2.3732,-0.03004179,0.92597
379.655,119.65,-2.37748,-0.03009848,0.92555
380.255,119.848,-2.38152,-0.03191352,0.92513
380.855,120.046,-2.38437,-0.03367241,0.92471
381.455,120.244,-2.38887,-0.03494574,0.92428
382.055,120.442,-2.39296,-0.03564808,0.92386
382.655,120.64,-2.39682,-0.0345379,0.92344
383.255,120.8385,-2.4009,-0.03649126,0.92302
383.855,121.037,-2.40484,-0.03600265,0.92259
384.455,121.235,-2.40656,-0.03571711,0.92217
385.055,121.433,-2.41326,-0.03456256,0.92174
385.655,121.63,-2.41497,-0.03536604,0.92132
386.255,121.828,-2.42005,-0.03672163,0.92089
386.855,122.026,-2.42446,-0.0382893,0.92046
387.455,122.224,-2.42764,-0.03721423,0.92003
388.055,122.422,-2.43083,-0.03606337,0.9196
388.655,122.6193,-2.43578,-0.03677995,0.91918
389.255,122.818,-2.4395,-0.03807218,0.91875
389.855,123.016,-2.44047,-0.0394693,0.91832
390.455,123.215,-2.44488,-0.04169032,0.91788
391.055,123.413,-2.44749,-0.04171149,0.91745
391.655,123.612,-2.45112,-0.04055333,0.91702
392.255,123.811,-2.45394,-0.04195537,0.91659
392.855,124.01,-2.45764,-0.04398816,0.91615
393.455,124.209,-2.46344,-0.04320939,0.91572
394.055,124.409,-2.46474,-0.04676166,0.91528
394.655,124.609,-2.4687,-0.04716067,0.91485
395.255,124.808,-2.46909,-0.04745884,0.91441
395.855,125.007,-2.47459,-0.04568825,0.91398
396.455,125.205,-2.47837,-0.04688899,0.91354
397.055,125.403,-2.48115,-0.04837384,0.9131
397.655,125.603,-2.48513,-0.04674963,0.91266
398.255,125.802,-2.48637,-0.04895021,0.91222
398.855,126.001,-2.489,-0.04933916,0.91178
399.455,126.2,-2.49527,-0.05022933,0.91134
400.055,126.4,-2.49757,-0.05108176,0.9109
400.655,126.6,-2.50053,-0.05383023,0.91046
401.255,126.799,-2.50444,-0.05323028,0.91002
401.855,126.997,-2.50631,-0.05496738,0.90957
402.455,127.196,-2.51107,-0.05522191,0.90913
403.055,127.393,-2.51375,-0.054963,0.90868
403.655,127.591,-2.51634,-0.05835216,0.90824
404.255,127.788,-2.519,-0.05650146,0.90779
404.855,127.985,-2.52299,-0.05871618,0.90735
405.455,128.1835,-2.52558,-0.05846512,0.9069
406.055,128.382,-2.52952,-0.05884121,0.90645
406.655,128.581,-2.5298,-0.06068369,0.90601
407.255,128.78,-2.535,-0.06219244,0.90556
407.855,128.979,-2.53715,-0.06044759,0.90511
408.455,129.177,-2.54102,-0.06037006,0.90466
409.055,129.375,-2.54496,-0.05951196,0.90421
409.655,129.573,-2.54695,-0.05995495,0.90376
410.255,129.772,-2.55158,-0.06093081,0.9033
410.855,129.971,-2.55369,-0.06242652,0.90285
411.455,130.17,-2.5555,-0.06231975,0.9024
412.055,130.369,-2.55686,-0.0639486,0.90194
412.655,130.569,-2.56009,-0.06417494,0.90149
413.255,130.7684,-2.56318,-0.06320806,0.90104
413.855,130.9675,-2.56414,-0.06438067,0.90058
414.455,131.166,-2.56838,-0.06483776,0.90012
415.055,131.365,-2.57201,-0.06547682,0.89967
415.655,131.564,-2.57473,-0.06870768,0.89921
416.255,131.763,-2.57738,-0.06752855,0.89875
416.855,131.962,-2.58056,-0.06782161,0.89829
417.455,132.161,-2.58327,-0.06918872,0.89783
418.055,132.36,-2.58395,-0.06693979,0.89737
418.655,132.559,-2.58759,-0.06878055,0.89691
419.255,132.758,-2.59092,-0.07025532,0.89645
419.855,132.957,-2.59254,-0.07112171,0.89599
420.455,133.156,-2.59689,-0.06957046,0.89553
421.055,133.355,-2.60015,-0.06884756,0.89507
421.655,133.555,-2.60318,-0.07191918,0.8946
422.255,133.754,-2.60362,-0.07439062,0.89414
422.855,133.953,-2.60622,-0.07378136,0.89367
423.455,134.151,-2.61018,-0.0741693,0.89321
424.055,134.35,-2.61153,-0.07351653,0.89274
424.655,134.548,-2.61373,-0.07623069,0.89228
425.255,134.747,-2.6175,-0.07593183,0.89181
425.855,134.947,-2.62144,-0.07912177,0.89134
426.455,135.146,-2.62129,-0.07841894,0.89087
427.055,135.345,-2.62405,-0.0788231,0.89041
427.655,135.543,-2.62631,-0.08010645,0.88994
428.255,135.742,-2.62849,-0.08048779,0.88947
428.855,135.941,-2.63199,-0.08133078,0.889
429.455,136.14,-2.63325,-0.0834705,0.88852
430.055,136.339,-2.63624,-0.08218109,0.88805
430.655,136.539,-2.63908,-0.08363273,0.88758
431.255,136.739,-2.64116,-0.08580291,0.88711
431.855,136.939,-2.6451,-0.08485119,0.88663
432.455,137.138,-2.64791,-0.08573859,0.88616
433.055,137.3384,-2.65006,-0.08649619,0.88568
433.655,137.538,-2.6527,-0.0867466,0.88521
434.255,137.737,-2.65442,-0.08796316,0.88473
434.855,137.937,-2.65567,-0.08669106,0.88426
435.455,138.136,-2.65742,-0.0857143,0.88378
436.055,138.335,-2.65959,-0.08663543,0.8833
436.655,138.534,-2.66194,-0.08747056,0.88282
437.255,138.734,-2.66457,-0.08623353,0.88234
437.855,138.934,-2.66718,-0.08628258,0.88186
438.455,139.134,-2.66883,-0.08567096,0.88138
439.055,139.334,-2.67016,-0.08918236,0.8809
439.655,139.535,-2.67383,-0.08696626,0.88042
440.255,139.735,-2.67543,-0.0887166,0.87994
440.855,139.936,-2.67648,-0.09162493,0.87946
441.455,140.1353,-2.67958,-0.09084907,0.87898
442.055,140.335,-2.68189,-0.09233413,0.87849
442.655,140.535,-2.68421,-0.0915534,0.87801
443.255,140.736,-2.6871,-0.09401014,0.87752
443.855,140.9359,-2.68853,-0.09608057,0.87704
444.455,141.136,-2.69086,-0.09610324,0.87655
445.055,141.335,-2.69233,-0.09701913,0.87606
445.655,141.535,-2.69494,-0.09622524,0.87558
446.255,141.734,-2.69626,-0.09625577,0.87509
446.855,141.934,-2.69759,-0.09771753,0.8746
447.455,142.133,-2.69891,-0.09666528,0.87411
448.055,142.332,-2.70286,-0.09815594,0.87362
448.655,142.531,-2.70353,-0.10127,0.87313
449.255,142.729,-2.70474,-0.10023,0.87264
449.855,142.929,-2.70749,-0.10045,0.87215
450.455,143.128,-2.71004,-0.09971133,0.87166
451.055,143.327,-2.71079,-0.10053,0.87117
451.655,143.526,-2.71208,-0.10283,0.87067
452.255,143.725,-2.71486,-0.10231,0.87018
452.855,143.924,-2.71494,-0.10411,0.86969
453.455,144.1234,-2.71857,-0.10461,0.86919
454.055,144.324,-2.71867,-0.10655,0.8687
454.655,144.525,-2.72066,-0.10763,0.8682
455.255,144.726,-2.722,-0.10914,0.8677
455.855,144.927,-2.72404,-0.10918,0.86721
456.455,145.127,-2.7265,-0.11056,0.86671
457.055,145.327,-2.72755,-0.11032,0.86621
457.655,145.527,-2.73015,-0.10826,0.86571
458.255,145.728,-2.73151,-0.1092,0.86521
458.855,145.927,-2.73251,-0.1117,0.86471
459.455,146.128,-2.73382,-0.11146,0.86421
460.055,146.328,-2.7365,-0.11246,0.86371
460.655,146.529,-2.73773,-0.11438,0.86321
461.255,146.7301,-2.73975,-0.11287,0.86271
461.855,146.9307,-2.73976,-0.11337,0.86221
462.455,147.132,-2.74238,-0.11443,0.8617
463.055,147.332,-2.7437,-0.11405,0.8612
463.655,147.532,-2.74373,-0.11261,0.8607
464.255,147.731,-2.74601,-0.1124,0.86019
464.855,147.93,-2.74867,-0.11135,0.85969
465.455,148.128,-2.75016,-0.10951,0.85918
466.055,148.328,-2.75059,-0.1103,0.85867
466.655,148.5265,-2.75147,-0.10832,0.85817
467.255,148.726,-2.75424,-0.10949,0.85766
467.855,148.926,-2.75556,-0.11027,0.85715
468.455,149.127,-2.75621,-0.10683,0.85664
469.055,149.327,-2.75886,-0.1064,0.85613
469.655,149.526,-2.75919,-0.10699,0.85562
470.255,149.725,-2.7608,-0.10752,0.85511
470.855,149.925,-2.76126,-0.105,0.8546
471.455,150.125,-2.76265,-0.10574,0.85409
472.055,150.325,-2.76347,-0.1043,0.85358
472.655,150.525,-2.76486,-0.10079,0.85307
473.255,150.724,-2.76713,-0.10168,0.85255
473.855,150.924,-2.76733,-0.10024,0.85204
474.455,151.124,-2.76778,-0.098993,0.85153
475.055,151.323,-2.76999,-0.09732022,0.85101
475.655,151.523,-2.77039,-0.09614394,0.8505
476.255,151.724,-2.77155,-0.09456977,0.84998
476.855,151.924,-2.7717,-0.09390939,0.84946
477.455,152.123,-2.77369,-0.09338407,0.84895
478.055,152.321,-2.77599,-0.09231813,0.84843
478.655,152.5195,-2.77479,-0.09293952,0.84791
479.255,152.719,-2.77627,-0.09568758,0.84739
479.855,152.9193,-2.7776,-0.09175559,0.84687
480.455,153.119,-2.77993,-0.0919918,0.84635
481.055,153.32,-2.78122,-0.0919072,0.84583
481.655,153.522,-2.78042,-0.09106355,0.84531
482.255,153.7244,-2.7819,-0.09483681,0.84479
482.855,153.927,-2.78282,-0.09447789,0.84427
483.455,154.128,-2.7825,-0.09596224,0.84375
484.055,154.327,-2.78616,-0.09392944,0.84323
484.655,154.525,-2.78617,-0.09591086,0.8427
485.255,154.724,-2.78609,-0.09639613,0.84218
485.855,154.922,-2.78882,-0.09707457,0.84165
486.455,155.123,-2.78949,-0.09809278,0.84113
487.055,155.324,-2.78938,-0.09850469,0.8406
487.655,155.527,-2.79107,-0.09813375,0.84008
488.255,155.728,-2.79179,-0.09986161,0.83955
488.855,155.9278,-2.79248,-0.10209,0.83902
489.455,156.1262,-2.79652,-0.10403,0.8385
490.055,156.325,-2.79541,-0.1078,0.83797
490.655,156.524,-2.79914,-0.11043,0.83744
491.255,156.7239,-2.79853,-0.11251,0.83691
491.855,156.9253,-2.80097,-0.1156,0.83638
492.455,157.127,-2.80112,-0.11348,0.83585
493.055,157.329,-2.80096,-0.11866,0.83532
493.655,157.53,-2.80108,-0.11775,0.83479
494.255,157.7315,-2.80233,-0.11736,0.83426
494.855,157.933,-2.80364,-0.11989,0.83373
495.455,158.135,-2.80364,-0.12355,0.83319
496.055,158.335,-2.80496,-0.12609,0.83266
496.655,158.535,-2.80628,-0.12775,0.83213
497.255,158.735,-2.8076,-0.12872,0.83159
497.855,158.935,-2.80766,-0.13236,0.83106
498.455,159.136,-2.80891,-0.13287,0.83052
499.055,159.336,-2.80957,-0.1348,0.82999
499.655,159.537,-2.81023,-0.13583,0.82945
500.255,159.738,-2.81155,-0.13594,0.82891
500.855,159.94,-2.81285,-0.1403,0.82838
501.455,160.141,-2.81188,-0.13964,0.82784
502.055,160.342,-2.81325,-0.13989,0.8273
502.655,160.543,-2.81319,-0.14483,0.82676
503.255,160.742,-2.8146,-0.14331,0.82622
503.855,160.942,-2.81451,-0.14252,0.82568
504.455,161.141,-2.81583,-0.1458,0.82514
505.055,161.34,-2.81711,-0.14758,0.8246
505.655,161.5414,-2.81921,-0.14737,0.82406
506.255,161.743,-2.81877,-0.14811,0.82352
506.855,161.946,-2.81879,-0.1519,0.82298
507.455,162.148,-2.82015,-0.15216,0.82243
508.055,162.349,-2.82011,-0.15237,0.82189
508.655,162.55,-2.82045,-0.15187,0.82134
509.255,162.753,-2.82171,-0.15299,0.8208
509.855,162.954,-2.82177,-0.15169,0.82026
510.455,163.156,-2.82316,-0.15486,0.81971
511.055,163.357,-2.82409,-0.15464,0.81916
511.655,163.558,-2.82505,-0.15424,0.81862
512.255,163.759,-2.82487,-0.15415,0.81807
512.855,163.96,-2.82607,-0.15674,0.81752
513.455,164.161,-2.8266,-0.15496,0.81698
514.055,164.362,-2.82977,-0.15593,0.81643
514.655,164.563,-2.82835,-0.1551,0.81588
515.255,164.765,-2.82839,-0.15682,0.81533
515.855,164.965,-2.82933,-0.1525,0.81478
516.455,165.167,-2.83328,-0.1539,0.81423
517.055,165.368,-2.82994,-0.15357,0.81368
517.655,165.5691,-2.8329,-0.15468,0.81313
518.255,165.77,-2.83328,-0.15371,0.81258
518.855,165.971,-2.83331,-0.15589,0.81202
519.455,166.172,-2.83474,-0.15368,0.81147
520.055,166.373,-2.83452,-0.15502,0.81092
520.655,166.574,-2.83395,-0.15389,0.81037
521.255,166.776,-2.83527,-0.1558,0.80981
521.855,166.977,-2.8356,-0.15653,0.80926
522.455,167.178,-2.83692,-0.15554,0.8087
523.055,167.379,-2.83824,-0.15813,0.80815
523.655,167.58,-2.83691,-0.15852,0.80759
524.255,167.781,-2.83823,-0.15927,0.80703
524.855,167.982,-2.83955,-0.15894,0.80648
525.455,168.184,-2.84087,-0.16041,0.80592
526.055,168.386,-2.84206,-0.1592,0.80536
526.655,168.588,-2.8415,-0.15906,0.8048
527.255,168.79,-2.84176,-0.16159,0.80425
527.855,168.993,-2.84276,-0.15894,0.80369
528.455,169.194,-2.84385,-0.16078,0.80313
529.055,169.396,-2.84416,-0.16316,0.80257
529.655,169.597,-2.84461,-0.16312,0.80201
530.255,169.798,-2.84525,-0.16184,0.80144
530.855,170,-2.84745,-0.16147,0.80088
531.455,170.201,-2.84745,-0.16052,0.80032
532.055,170.403,-2.84679,-0.1608,0.79976
532.655,170.604,-2.84813,-0.16108,0.7992
533.255,170.806,-2.86052,-0.16045,0.79863
533.855,171.008,-2.85649,-0.16385,0.79807
534.455,171.2104,-2.85206,-0.16347,0.7975
535.055,171.411,-2.84658,-0.16261,0.79694
535.655,171.611,-2.84931,-0.1638,0.79637
536.255,171.81,-2.85116,-0.16572,0.79581
536.855,172.01,-2.85207,-0.16482,0.79524
537.455,172.212,-2.85761,-0.16288,0.79468
538.055,172.414,-2.85687,-0.16218,0.79411
538.655,172.616,-2.85495,-0.16371,0.79354
539.255,172.816,-2.85096,-0.16645,0.79297
539.855,173.017,-2.84504,-0.16706,0.79241
540.455,173.218,-2.85164,-0.16816,0.79184
541.055,173.419,-2.8556,-0.16915,0.79127
541.655,173.621,-2.85821,-0.16867,0.7907
542.255,173.822,-2.8569,-0.16728,0.79013
542.855,174.023,-2.8592,-0.16591,0.78956
543.455,174.224,-2.86122,-0.16744,0.78899
544.055,174.426,-2.86082,-0.16815,0.78842
544.655,174.627,-2.8622,-0.16849,0.78784
545.255,174.828,-2.86212,-0.17197,0.78727
545.855,175.029,-2.86183,-0.16852,0.7867
546.455,175.231,-2.86315,-0.16901,0.78613
547.055,175.433,-2.86414,-0.16882,0.78555
547.655,175.634,-2.86579,-0.16886,0.78498
548.255,175.836,-2.86578,-0.167,0.7844
548.855,176.038,-2.86578,-0.1701,0.78383
549.455,176.241,-2.86448,-0.16977,0.78325
550.055,176.443,-2.86349,-0.1707,0.78268
550.655,176.6457,-2.86612,-0.17204,0.7821
551.255,176.848,-2.86807,-0.1705,0.78152
551.855,177.049,-2.86809,-0.17071,0.78095
552.455,177.251,-2.86808,-0.17153,0.78037
553.055,177.453,-2.86941,-0.16968,0.77979
553.655,177.655,-2.86965,-0.17256,0.77921
554.255,177.857,-2.8702,-0.17284,0.77864
554.855,178.059,-2.87068,-0.17379,0.77806
555.455,178.262,-2.86976,-0.17413,0.77748
556.055,178.465,-2.8724,-0.17527,0.7769
556.655,178.668,-2.87104,-0.17359,0.77632
557.255,178.871,-2.87204,-0.17329,0.77574
557.855,179.0734,-2.8751,-0.17365,0.77515
558.455,179.275,-2.87355,-0.17602,0.77457
559.055,179.476,-2.87368,-0.1764,0.77399
559.655,179.677,-2.87367,-0.17166,0.77341
560.255,179.878,-2.87368,-0.1723,0.77283
560.855,180.079,-2.87493,-0.1701,0.77224
561.455,180.28,-2.87698,-0.17061,0.77166
562.055,180.482,-2.87566,-0.16966,0.77108
562.655,180.6838,-2.87766,-0.17029,0.77049
563.255,180.886,-2.87672,-0.17134,0.76991
563.855,181.088,-2.87937,-0.17146,0.76932
564.455,181.291,-2.87797,-0.16877,0.76873
565.055,181.4941,-2.87765,-0.17042,0.76815
565.655,181.696,-2.87932,-0.17021,0.76756
566.255,181.899,-2.87796,-0.17063,0.76698
566.855,182.102,-2.87928,-0.1707,0.76639
567.455,182.305,-2.87994,-0.17236,0.7658
568.055,182.508,-2.88103,-0.17192,0.76521
568.655,182.71,-2.8793,-0.17248,0.76462
569.255,182.9122,-2.8806,-0.17399,0.76404
569.855,183.114,-2.87995,-0.17246,0.76345
570.455,183.318,-2.88259,-0.17159,0.76286
571.055,183.52,-2.88127,-0.17202,0.76227
571.655,183.724,-2.88032,-0.1711,0.76168
572.255,183.9269,-2.88164,-0.17332,0.76109
572.855,184.13,-2.88423,-0.17222,0.76049
573.455,184.3315,-2.88416,-0.16948,0.7599
574.055,184.534,-2.88423,-0.17206,0.75931
574.655,184.736,-2.88554,-0.17081,0.75872
575.255,184.939,-2.88785,-0.1683,0.75813
575.855,185.142,-2.8886,-0.16738,0.75753
576.455,185.345,-2.88849,-0.16956,0.75694
577.055,185.547,-2.88725,-0.16803,0.75635
577.655,185.749,-2.88654,-0.16821,0.75575
578.255,185.952,-2.88719,-0.16862,0.75516
578.855,186.153,-2.88782,-0.16882,0.75456
579.455,186.3551,-2.88786,-0.16745,0.75397
580.055,186.557,-2.88916,-0.17007,0.75337
580.655,186.759,-2.89049,-0.17044,0.75277
581.255,186.962,-2.89049,-0.17133,0.75218
581.855,187.163,-2.89086,-0.16917,0.75158
582.455,187.366,-2.8931,-0.16786,0.75098
583.055,187.568,-2.89312,-0.16635,0.75039
583.655,187.771,-2.89508,-0.16766,0.74979
584.255,187.973,-2.89345,-0.16699,0.74919
584.855,188.175,-2.89315,-0.16497,0.74859
585.455,188.377,-2.89539,-0.16681,0.74799
586.055,188.58,-2.89411,-0.16525,0.74739
586.655,188.783,-2.89607,-0.16605,0.74679
587.255,188.986,-2.89626,-0.16304,0.74619
587.855,189.19,-2.89663,-0.16348,0.74559
588.455,189.393,-2.8974,-0.16283,0.74499
589.055,189.596,-2.89739,-0.1615,0.74439
589.655,189.799,-2.89806,-0.16234,0.74379
590.255,190.002,-2.89804,-0.16146,0.74319
590.855,190.203,-2.89795,-0.16244,0.74259
591.455,190.405,-2.89608,-0.16352,0.74198
592.055,190.607,-2.89803,-0.16416,0.74138
592.655,190.81,-2.89806,-0.16171,0.74078
593.255,191.0125,-2.89979,-0.16265,0.74017
593.855,191.216,-2.89905,-0.16353,0.73957
594.455,191.42,-2.89791,-0.16289,0.73896
595.055,191.623,-2.90169,-0.16338,0.73836
595.655,191.828,-2.90202,-0.16152,0.73776
596.255,192.0315,-2.90336,-0.1606,0.73715
596.855,192.235,-2.90103,-0.1608,0.73654
597.455,192.438,-2.90247,-0.16106,0.73594
598.055,192.64,-2.90366,-0.16006,0.73533
598.655,192.843,-2.9049,-0.16085,0.73473
599.255,193.045,-2.90261,-0.16264,0.73412
599.855,193.2473,-2.90266,-0.16148,0.73351
600.455,193.449,-2.90397,-0.16164,0.7329
601.055,193.651,-2.90663,-0.16095,0.7323
601.655,193.853,-2.90531,-0.16074,0.73169
602.255,194.0543,-2.90472,-0.16284,0.73108
602.855,194.256,-2.90466,-0.16494,0.73047
603.455,194.459,-2.90369,-0.165,0.72986
604.055,194.6617,-2.90498,-0.16514,0.72925
604.655,194.864,-2.906,-0.16462,0.72864
605.255,195.067,-2.90629,-0.16502,0.72803
605.855,195.27,-2.90761,-0.16697,0.72742
606.455,195.473,-2.90626,-0.16611,0.72681
607.055,195.676,-2.90808,-0.16582,0.7262
607.655,195.879,-2.90662,-0.1682,0.72559
608.255,196.082,-2.90687,-0.16906,0.72497
608.855,196.2842,-2.90794,-0.16844,0.72436
609.455,196.487,-2.90925,-0.16642,0.72375
610.055,196.69,-2.90794,-0.16808,0.72314
610.655,196.893,-2.90786,-0.16823,0.72252
611.255,197.096,-2.90859,-0.16657,0.72191
611.855,197.298,-2.90991,-0.16654,0.7213
612.455,197.5,-2.91123,-0.16356,0.72068
613.055,197.7032,-2.90857,-0.16522,0.72007
613.655,197.907,-2.91042,-0.16173,0.71945
614.255,198.11,-2.91246,-0.16265,0.71884
614.855,198.313,-2.91453,-0.16598,0.71822
615.455,198.516,-2.91321,-0.16425,0.71761
616.055,198.719,-2.91255,-0.16549,0.71699
616.655,198.922,-2.9126,-0.16537,0.71637
617.255,199.124,-2.91518,-0.16603,0.71576
617.855,199.326,-2.91396,-0.16525,0.71514
618.455,199.529,-2.91485,-0.16471,0.71452
619.055,199.731,-2.91649,-0.16252,0.71391
619.655,199.932,-2.91643,-0.16611,0.71329
620.255,200.1342,-2.91519,-0.16397,0.71267
620.855,200.336,-2.91781,-0.16562,0.71205
621.455,200.538,-2.91553,-0.16464,0.71143
622.055,200.74,-2.91816,-0.16405,0.71082
622.655,200.943,-2.91811,-0.16551,0.7102
623.255,201.147,-2.91914,-0.16206,0.70958
623.855,201.351,-2.91847,-0.16412,0.70896
624.455,201.5558,-2.91711,-0.1658,0.70834
625.055,201.76,-2.91913,-0.16407,0.70772
625.655,201.965,-2.9205,-0.16779,0.7071
626.255,202.169,-2.92047,-0.16558,0.70648
626.855,202.374,-2.92174,-0.16555,0.70585
627.455,202.577,-2.92042,-0.16452,0.70523
628.055,202.78,-2.91946,-0.16817,0.70461
628.655,202.983,-2.92078,-0.16716,0.70399
629.255,203.185,-2.9221,-0.16452,0.70337
629.855,203.387,-2.92342,-0.16705,0.70274
630.455,203.589,-2.92139,-0.16787,0.70212
631.055,203.79,-2.92312,-0.17332,0.7015
631.655,203.992,-2.92309,-0.16866,0.70087
632.255,204.1934,-2.92382,-0.1689,0.70025
632.855,204.3958,-2.92374,-0.16724,0.69963
633.455,204.599,-2.92475,-0.17052,0.699
634.055,204.8022,-2.92474,-0.16957,0.69838
634.655,205.005,-2.92375,-0.16953,0.69775
635.255,205.208,-2.92359,-0.1717,0.69713
635.855,205.411,-2.92717,-0.17127,0.6965
636.455,205.613,-2.92603,-0.17145,0.69588
637.055,205.816,-2.92407,-0.17476,0.69525
637.655,206.018,-2.92605,-0.17118,0.69463
638.255,206.221,-2.92667,-0.17762,0.694
638.855,206.4237,-2.92803,-0.17572,0.69337
639.455,206.626,-2.92605,-0.18001,0.69275
640.055,206.828,-2.92591,-0.17829,0.69212
640.655,207.031,-2.9287,-0.18126,0.69149
641.255,207.233,-2.92867,-0.18193,0.69087
641.855,207.435,-2.92604,-0.18025,0.69024
642.455,207.637,-2.92865,-0.18208,0.68961
643.055,207.839,-2.92737,-0.18011,0.68898
643.655,208.042,-2.92869,-0.18013,0.68835
644.255,208.243,-2.92902,-0.18217,0.68772
644.855,208.445,-2.92902,-0.18292,0.6871
645.455,208.647,-2.92902,-0.18157,0.68647
646.055,208.849,-2.93001,-0.18248,0.68584
646.655,209.052,-2.92901,-0.18454,0.68521
647.255,209.255,-2.93067,-0.18151,0.68458
647.855,209.458,-2.93067,-0.18342,0.68395
648.455,209.662,-2.93197,-0.18684,0.68332
649.055,209.866,-2.93297,-0.18755,0.68269
649.655,210.0705,-2.93434,-0.18557,0.68206
650.255,210.275,-2.93462,-0.18683,0.68142
650.855,210.48,-2.93598,-0.18706,0.68079
651.455,210.684,-2.93462,-0.18729,0.68016
652.055,210.887,-2.93462,-0.19227,0.67953
652.655,211.09,-2.93658,-0.18993,0.6789
653.255,211.291,-2.9366,-0.19161,0.67827
653.855,211.4926,-2.93592,-0.19352,0.67763
654.455,211.694,-2.9362,-0.19205,0.677
655.055,211.896,-2.93743,-0.19527,0.67637
655.655,212.097,-2.93758,-0.19576,0.67574
656.255,212.298,-2.93824,-0.19496,0.6751
656.855,212.5003,-2.93692,-0.19116,0.67447
657.455,212.703,-2.93662,-0.19447,0.67383
658.055,212.906,-2.93791,-0.19698,0.6732
658.655,213.109,-2.94088,-0.19601,0.67257
659.255,213.312,-2.94024,-0.19631,0.67193
659.855,213.515,-2.93891,-0.19764,0.6713
660.455,213.718,-2.94022,-0.19961,0.67066
661.055,213.921,-2.94182,-0.19883,0.67003
661.655,214.124,-2.94422,-0.20006,0.66939
662.255,214.327,-2.9419,-0.19894,0.66876
662.855,214.53,-2.94151,-0.20052,0.66812
663.455,214.733,-2.94187,-0.20146,0.66749
664.055,214.937,-2.94286,-0.20482,0.66685
664.655,215.139,-2.9429,-0.20153,0.66621
665.255,215.341,-2.94317,-0.20137,0.66558
665.855,215.543,-2.9445,-0.20328,0.66494
666.455,215.7449,-2.94417,-0.20086,0.6643
667.055,215.947,-2.94417,-0.19906,0.66367
667.655,216.149,-2.94417,-0.20244,0.66303
668.255,216.3513,-2.94451,-0.20501,0.66239
668.855,216.554,-2.94486,-0.2061,0.66175
669.455,216.756,-2.94582,-0.20348,0.66112
670.055,216.959,-2.94657,-0.20389,0.66048
670.655,217.163,-2.94976,-0.20475,0.65984
671.255,217.366,-2.94845,-0.20419,0.6592
671.855,217.569,-2.94647,-0.20659,0.65856
672.455,217.773,-2.94779,-0.21041,0.65793
673.055,217.976,-2.94807,-0.20721,0.65729
673.655,218.179,-2.94984,-0.20804,0.65665
674.255,218.382,-2.94977,-0.21021,0.65601
674.855,218.584,-2.94911,-0.21107,0.65537
675.455,218.786,-2.94927,-0.21167,0.65473
676.055,218.988,-2.95109,-0.21271,0.65409
676.655,219.191,-2.95139,-0.21055,0.65345
677.255,219.394,-2.95109,-0.21103,0.65281
677.855,219.597,-2.95108,-0.21319,0.65217
678.455,219.799,-2.95109,-0.21307,0.65153
679.055,220.001,-2.95207,-0.2122,0.65089
679.655,220.204,-2.95372,-0.21426,0.65025
680.255,220.407,-2.95376,-0.21638,0.64961
680.855,220.611,-2.95339,-0.21361,0.64897
681.455,220.813,-2.95195,-0.21369,0.64832
682.055,221.016,-2.95339,-0.21441,0.64768
682.655,221.218,-2.95337,-0.21508,0.64704
683.255,221.421,-2.9537,-0.21885,0.6464
683.855,221.623,-2.95471,-0.21913,0.64576
684.455,221.826,-2.95471,-0.21754,0.64512
685.055,222.03,-2.95471,-0.22131,0.64447
685.655,222.234,-2.95601,-0.21901,0.64383
686.255,222.44,-2.95866,-0.21986,0.64319
686.855,222.646,-2.95689,-0.2228,0.64255
687.455,222.85,-2.95602,-0.2241,0.6419
688.055,223.053,-2.95876,-0.22546,0.64126
688.655,223.255,-2.95866,-0.224,0.64062
689.255,223.457,-2.95866,-0.2258,0.63997
689.855,223.659,-2.95734,-0.22447,0.63933
690.455,223.861,-2.95802,-0.22728,0.63869
691.055,224.064,-2.958,-0.22991,0.63804
691.655,224.266,-2.95866,-0.22777,0.6374
692.255,224.469,-2.95866,-0.22691,0.63676
692.855,224.671,-2.95912,-0.22942,0.63611
693.455,224.875,-2.95899,-0.22833,0.63547
694.055,225.078,-2.9603,-0.23289,0.63482
694.655,225.281,-2.9603,-0.23085,0.63418
695.255,225.483,-2.96096,-0.23122,0.63353
695.855,225.687,-2.96095,-0.23142,0.63289
696.455,225.89,-2.96096,-0.23377,0.63224
697.055,226.094,-2.96097,-0.23068,0.6316
697.655,226.297,-2.96097,-0.23229,0.63095
698.255,226.5,-2.96064,-0.23112,0.63031
698.855,226.703,-2.96064,-0.23196,0.62966
699.455,226.906,-2.96193,-0.22851,0.62902
700.055,227.109,-2.96191,-0.23163,0.62837
700.655,227.313,-2.96294,-0.23094,0.62773
701.255,227.517,-2.96294,-0.23482,0.62708
701.855,227.72,-2.96186,-0.23564,0.62643
702.455,227.922,-2.96359,-0.23439,0.62579
703.055,228.125,-2.96491,-0.23873,0.62514
703.655,228.329,-2.96532,-0.23801,0.62449
704.255,228.533,-2.96623,-0.23842,0.62385
704.855,228.736,-2.96491,-0.23998,0.6232
705.455,228.939,-2.96454,-0.24058,0.62255
706.055,229.14,-2.96624,-0.24117,0.62191
706.655,229.342,-2.96639,-0.24206,0.62126
707.255,229.545,-2.96755,-0.24092,0.62061
707.855,229.747,-2.96855,-0.24218,0.61997
708.455,229.95,-2.96854,-0.243,0.61932
709.055,230.152,-2.96854,-0.24208,0.61867
709.655,230.356,-2.9697,-0.24278,0.61802
710.255,230.558,-2.96854,-0.24564,0.61738
710.855,230.76,-2.96978,-0.24519,0.61673
711.455,230.963,-2.96985,-0.24718,0.61608
712.055,231.165,-2.96985,-0.2469,0.61543
712.655,231.368,-2.97117,-0.24515,0.61479
713.255,231.569,-2.97121,-0.24648,0.61414
713.855,231.771,-2.97081,-0.24608,0.61349
714.455,231.974,-2.96954,-0.25036,0.61284
715.055,232.177,-2.97063,-0.24917,0.61219
715.655,232.379,-2.97205,-0.25201,0.61155
716.255,232.583,-2.97314,-0.25449,0.6109
716.855,232.7855,-2.9725,-0.25767,0.61025
717.455,232.9888,-2.97395,-0.25702,0.6096
718.055,233.191,-2.97287,-0.25708,0.60895
718.655,233.394,-2.97348,-0.25798,0.6083
719.255,233.596,-2.97348,-0.25882,0.60765
719.855,233.798,-2.97282,-0.25971,0.607
720.455,234.001,-2.97381,-0.26023,0.60636
721.055,234.2038,-2.97388,-0.26137,0.60571
721.655,234.408,-2.9738,-0.26578,0.60506
722.255,234.611,-2.97315,-0.26766,0.60441
722.855,234.815,-2.97447,-0.26776,0.60376
723.455,235.016,-2.97546,-0.26878,0.60311
724.055,235.216,-2.97546,-0.2707,0.60246
724.655,235.417,-2.97579,-0.27162,0.60181
725.255,235.618,-2.97342,-0.27426,0.60116
725.855,235.819,-2.97611,-0.27237,0.60051
726.455,236.0215,-2.97478,-0.27669,0.59986
727.055,236.224,-2.97414,-0.27787,0.59921
727.655,236.426,-2.97547,-0.27704,0.59856
728.255,236.629,-2.97455,-0.27971,0.59791
728.855,236.832,-2.97578,-0.27815,0.59726
729.455,237.036,-2.97533,-0.28073,0.59661
730.055,237.239,-2.97675,-0.2811,0.59596
730.655,237.442,-2.9769,-0.28166,0.59531
731.255,237.645,-2.97537,-0.28519,0.59466
731.855,237.847,-2.97677,-0.28231,0.59401
732.455,238.048,-2.97677,-0.28189,0.59336
733.055,238.25,-2.97644,-0.28353,0.59271
733.655,238.452,-2.97524,-0.28229,0.59206
734.255,238.654,-2.97643,-0.28221,0.59141
734.855,238.856,-2.97776,-0.2878,0.59076
735.455,239.058,-2.97645,-0.28683,0.59011
736.055,239.26,-2.97777,-0.28768,0.58946
736.655,239.463,-2.97789,-0.29156,0.58881
737.255,239.665,-2.97777,-0.29031,0.58816
737.855,239.8672,-2.97774,-0.29116,0.5875
738.455,240.0683,-2.97777,-0.29362,0.58685
739.055,240.27,-2.97678,-0.29254,0.5862
739.655,240.471,-2.97874,-0.28957,0.58555
740.255,240.674,-2.97838,-0.29134,0.5849
740.855,240.878,-2.97915,-0.29432,0.58425
741.455,241.082,-2.97839,-0.29748,0.5836
742.055,241.286,-2.97974,-0.29728,0.58295
742.655,241.489,-2.97973,-0.30373,0.5823
743.255,241.692,-2.98104,-0.30199,0.58165
743.855,241.894,-2.98081,-0.30332,0.581
744.455,242.098,-2.98106,-0.30376,0.58034
745.055,242.3015,-2.98239,-0.31011,0.57969
745.655,242.505,-2.97965,-0.3081,0.57904
746.255,242.707,-2.98073,-0.31104,0.57839
746.855,242.909,-2.97972,-0.31475,0.57774
747.455,243.11,-2.97939,-0.31725,0.57709
748.055,243.3073,-2.97877,-0.31842,0.57644