File: 01_Data/Overstuffed_Chair_Polyester_Batting/Cone/Overstuffed_Chair_Polyester_Batting_Cone_HF25Scan_210324_R3.csv
Names,Time,Stack TC,Smoke TC,Exh Press,Smoke Comp,Smoke Meas,CO Meter,CO2 Meter,O2 Meter,Sample Mass,Ext Coeff,Start Test,Flame Verif
Chan Gain,,500,500,1,1,1,1,1,1,1,1,1.0,1.0
Offset,,0,0,0.194005,0,0,0,0,0,0,0,0.0,0.0
Gain,,1,1,25.011,13.5067,16.616,1,1,1,1.00091,1.04608,1.0,1.0
Units,sec,C,C,Pa,%,%,%,%,%,g,/m,,
Baseline,,19.4932,21.0508,167.873,101.73,100.93,0.000301724,0.0923279,20.7951,-1.35102,0.072457,,
6,1.25,16.7116,18.2844,167.977,101.479,100.654,0.000426807,0.107697,20.7777,474.082,0.0749747,0.0,0.0
12,2.75,17.0249,18.0343,168.254,101.472,100.759,0.000490258,0.109043,20.7778,474.112,0.064729,0.0,0.0
18,4.25,17.0075,18.364,163.967,101.473,100.797,0.000456076,0.109677,20.7779,474.072,0.0613872,0.0,0.0
24,5.75,17.3565,18.8646,168.913,101.472,100.795,0.000397101,0.109554,20.7789,474.042,0.06146,0.0,0.0
30,7.25,17.516,18.5448,165.721,101.465,100.674,0.000365577,0.109005,20.7797,474.032,0.0717832,0.0,0.0
36,8.75,17.5439,19.2161,163.509,101.462,100.686,0.000368415,0.108156,20.7804,474.052,0.070459,0.0,0.0
42,10.25,17.4734,19.3251,166.553,101.449,100.692,0.000383756,0.107096,20.7807,474.032,0.0687405,0.0,0.0
48,11.75,17.842,19.2994,167.428,101.449,100.623,0.000329132,0.105553,20.7819,474.021,0.0750734,0.0,0.0
54,13.25,17.7834,19.4006,165.961,101.432,100.68,0.000265407,0.104208,20.7834,474.001,0.068329,0.0,0.0
60,14.75,18.1106,19.773,167.237,101.446,100.6,0.000246603,0.102417,20.7858,473.991,0.0768092,0.0,0.0
66,16.25,18.156,19.4839,169.944,101.42,100.553,0.000292341,0.100769,20.7886,474.001,0.0787258,0.0,0.0
72,17.75,18.1582,19.4177,165.095,101.43,100.615,0.000333355,0.0991556,20.7907,474.011,0.07406,0.0,0.0
78,19.25,18.3206,19.8095,166.022,101.42,100.561,0.000300122,0.0975784,20.7932,474.011,0.0780316,0.0,0.0
84,20.75,18.4051,19.7951,167.368,101.427,100.564,0.000190934,0.0961566,20.7948,473.981,0.0783408,0.0,0.0
90,22.25,17.8332,19.6511,166.198,101.415,100.53,8.97496e-05,0.0948844,20.7957,474.001,0.0804435,0.0,0.0
96,23.75,18.0581,19.7601,167.823,101.43,100.449,7.80883e-05,0.0939253,20.797,473.991,0.0891953,0.0,0.0
102,25.25,18.1461,20.0289,168.143,101.417,100.578,0.000146322,0.0931298,20.7979,473.981,0.0762353,0.0,0.0
108,26.75,18.1272,19.8763,167.395,101.419,100.43,0.000186018,0.0925501,20.7984,473.991,0.0899027,0.0,0.0
114,28.25,18.3066,19.8746,165.001,101.414,100.468,0.000167352,0.092156,20.7987,473.991,0.0859806,0.0,0.0
120,29.75,18.2322,20.2257,161.821,101.417,100.463,0.000103355,0.0918297,20.7984,473.991,0.0867521,0.0,0.0
126,31.25,18.1433,19.5716,170.075,101.402,100.45,5.77043e-05,0.0914827,20.7976,474.011,0.0865289,0.0,0.0
132,32.75,18.0948,19.8667,170.236,101.413,100.548,5.35023e-05,0.0911738,20.7972,473.991,0.0786,0.0,0.0
138,34.25,17.6606,19.8952,170.063,101.401,100.442,9.57071e-05,0.0908541,20.7984,474.011,0.0871866,0.0,0.0
144,35.75,17.9525,19.5419,167.208,101.404,100.442,0.000133357,0.0906631,20.8004,473.991,0.0875323,0.0,0.0
150,37.25,17.7499,19.3518,171.351,101.401,100.372,0.000152918,0.0904059,20.8019,473.961,0.0935903,0.0,0.0
156,38.75,18.0961,19.6793,165.681,101.395,100.385,0.000164426,0.0900948,20.8036,473.951,0.0918642,0.0,0.0
162,40.25,17.8434,19.5394,166.101,101.379,100.443,0.000198531,0.0896915,20.8053,473.991,0.0851635,0.0,0.0
168,41.75,17.6759,20.3386,168.302,101.373,100.474,0.000247899,0.0893614,20.8062,473.991,0.0817782,0.0,0.0
174,43.25,18.4462,19.7174,166.456,101.369,100.448,0.00027628,0.0890014,20.8067,473.981,0.0838043,0.0,0.0
180,44.75,18.0569,19.4243,167.424,101.37,100.454,0.000265181,0.0886656,20.807,473.991,0.0832396,0.0,0.0
186,46.25,18.4664,19.9641,171.625,101.359,100.393,0.000274902,0.088519,20.8071,473.971,0.0878855,0.0,0.0
192,47.75,18.6139,19.7102,171.371,101.35,100.415,0.000344335,0.0884778,20.8072,473.971,0.0850995,0.0,0.0
198,49.25,18.0923,20.0509,163.356,101.354,100.486,0.000455541,0.0883983,20.8072,473.951,0.0789123,0.0,0.0
204,50.75,18.5604,19.7418,171.493,101.332,100.426,0.000560077,0.0882513,20.8066,473.961,0.0823918,0.0,0.0
210,52.25,18.2469,19.8102,165.641,101.345,100.432,0.00054534,0.0881589,20.8058,473.951,0.0830011,0.0,0.0
216,53.75,18.3645,20.0811,169.165,101.326,100.414,0.000439632,0.0881152,20.8054,473.951,0.0829447,0.0,0.0
222,55.25,18.2067,20.2046,165.332,101.331,100.332,0.000337371,0.0882151,20.8052,473.951,0.09091,0.0,0.0
228,56.75,18.1236,20.1961,163.98,101.315,100.263,0.000280819,0.0882545,20.805,473.971,0.0957177,0.0,0.0
234,58.25,18.4174,20.1249,167.386,101.316,100.221,0.000268007,0.088353,20.8043,473.981,0.0997287,0.0,0.0
240,59.75,17.7818,19.7014,166.865,101.301,100.262,0.000235115,0.0885299,20.8038,473.951,0.0945788,0.0,0.0
246,61.25,18.0992,19.8116,166.942,101.307,100.392,0.000172354,0.0887481,20.8026,473.941,0.0832743,0.0,0.0
252,62.75,17.7856,20.0046,169.525,101.29,100.235,0.000123195,0.0889381,20.8016,473.951,0.0960673,0.0,0.0
258,64.25,18.4618,19.967,166.493,101.292,100.285,0.00015808,0.0892334,20.8004,473.931,0.0916681,0.0,0.0
264,65.75,18.0849,20.2729,170.048,101.275,100.285,0.000228663,0.0894716,20.7997,473.951,0.0901377,0.0,0.0
270,67.25,18.057,19.9457,165.451,101.274,100.274,0.000261057,0.0898234,20.7988,473.931,0.0910378,0.0,0.0
276,68.75,18.1056,20.3179,162.082,101.269,100.282,0.000220194,0.0902704,20.7978,473.951,0.0898561,0.0,0.0
282,70.25,18.5945,20.2303,165.623,101.265,100.238,0.000146127,0.0906617,20.7963,473.941,0.0935112,0.0,0.0
288,71.75,18.4212,20.0967,163.058,101.255,100.163,0.000117901,0.0909635,20.795,473.951,0.0995339,0.0,0.0
294,73.25,18.9946,20.0358,170.936,101.257,100.262,0.000135198,0.0911164,20.7943,473.951,0.0906663,0.0,0.0
300,74.75,18.7996,20.3258,164.222,101.247,100.168,0.000142846,0.0911891,20.7939,473.951,0.0982386,0.0,0.0
306,76.25,18.5741,20.172,170.135,101.249,100.179,0.000127443,0.0912125,20.7938,473.911,0.0975242,0.0,0.0
312,77.75,18.1501,20.2468,161.346,101.25,100.186,0.000133259,0.0912008,20.7936,473.961,0.0969116,0.0,0.0
318,79.25,18.4454,20.367,166.702,101.259,100.186,0.00014302,0.0912145,20.7936,473.951,0.0977797,0.0,0.0
324,80.75,18.13,19.733,161.339,101.241,100.156,0.000153482,0.0912226,20.7945,473.951,0.0988673,0.0,0.0
330,82.25,18.0963,20.1036,167.64,101.24,100.068,0.000158445,0.0911964,20.7958,473.951,0.10688,0.0,0.0
336,83.75,17.8274,19.4749,165.462,101.244,99.993,0.000172905,0.0912749,20.7964,473.951,0.114063,0.0,0.0
342,85.25,18.8427,20.2868,163.953,101.232,100.105,0.000150855,0.0912364,20.7968,473.921,0.102702,0.0,0.0
348,86.75,18.5048,20.0146,165.618,101.226,100.136,7.57583e-05,0.0913766,20.796,473.941,0.0992601,0.0,0.0
354,88.25,18.5285,20.1188,167.396,101.216,100.173,3.51039e-06,0.0917263,20.7955,473.941,0.0950086,0.0,0.0
360,89.75,18.3351,20.3268,167.179,101.215,100.178,1.41437e-05,0.092013,20.7952,473.931,0.094516,0.0,0.0
366,91.25,19.1233,20.6475,169.475,101.216,100.141,0.000114682,0.0921606,20.7951,473.931,0.0980665,0.0,0.0
372,92.75,18.5031,20.4459,165.338,101.219,100.014,0.000281128,0.0922889,20.795,473.911,0.109831,0.0,0.0
378,94.25,18.3803,20.4326,164.365,101.2,100.143,0.000401163,0.0921976,20.7959,473.931,0.0963758,0.0,0.0
384,95.75,18.402,20.0062,171.373,101.206,100.219,0.000432886,0.0922026,20.7964,473.941,0.0899796,0.0,0.0
390,97.25,18.7374,20.1193,164.55,101.195,100.128,0.000413162,0.0921271,20.7968,473.911,0.0972472,0.0,0.0
396,98.75,18.798,20.5369,171.314,101.197,100.042,0.000387284,0.0920548,20.797,473.921,0.105328,0.0,0.0
402,100.25,18.9519,20.5524,168.245,101.19,99.9138,0.000392661,0.0920061,20.7975,473.901,0.11643,0.0,0.0
408,101.75,19.114,20.4241,164.31,101.2,100.039,0.000416717,0.0919219,20.7985,473.921,0.105906,0.0,0.0
414,103.25,18.6025,20.7927,170.796,101.186,99.9955,0.000418454,0.0918347,20.799,473.911,0.108599,0.0,0.0
420,104.75,18.4691,19.4485,165.062,101.165,99.8971,0.000390445,0.0916803,20.7991,473.911,0.115724,0.0,0.0
426,106.25,18.4692,20.33,165.811,101.178,99.9098,0.000336411,0.0915241,20.7992,473.891,0.115718,0.0,0.0
432,107.75,18.5067,20.3159,162.174,101.182,100.009,0.000251837,0.0913747,20.7993,473.891,0.106968,0.0,0.0
438,109.25,18.6425,20.2312,164.825,101.19,99.961,0.000228694,0.0912753,20.7993,473.881,0.1121,0.0,0.0
444,110.75,18.2946,20.4367,164.05,101.2,100.018,0.00028699,0.0911345,20.7993,473.891,0.107813,0.0,0.0
450,112.25,19.0281,20.9504,164.81,101.221,100.09,0.000337945,0.090745,20.7993,473.901,0.103125,0.0,0.0
456,113.75,19.4209,20.5332,164.689,101.243,100.044,0.000360936,0.090538,20.7993,473.901,0.109373,0.0,0.0
462,115.25,18.5136,20.4838,166.77,101.235,99.998,0.000384425,0.0904615,20.7993,473.911,0.112777,0.0,0.0
468,116.75,18.8821,20.7575,166.521,101.258,100.051,0.00042632,0.0903338,20.7993,473.931,0.109983,0.0,0.0
474,118.25,18.1107,20.4188,169.643,101.268,100.036,0.000461558,0.0902859,20.7993,473.911,0.112313,0.0,0.0
480,119.75,18.7116,20.2896,168.421,101.277,100.119,0.000485984,0.0902851,20.7993,473.921,0.105518,0.0,0.0
486,121.25,18.5983,20.4469,165.486,101.286,100.145,0.000516085,0.090348,20.7991,473.881,0.103924,0.0,0.0
492,122.75,18.5208,19.9516,166.708,101.3,99.9656,0.000556054,0.090502,20.7977,473.891,0.121655,0.0,0.0
498,124.25,18.8538,20.6427,166.101,101.313,99.9422,0.000548097,0.0906647,20.7958,473.921,0.12503,0.0,0.0
504,125.75,19.1133,20.5146,166.827,101.307,100.072,0.000452163,0.0910417,20.7932,473.921,0.112567,0.0,0.0
510,127.25,18.3843,20.5203,168.126,101.327,99.9463,0.00034403,0.0915051,20.7911,473.891,0.125851,0.0,0.0
516,128.75,18.833,20.2346,167.222,101.317,99.9696,0.000315016,0.0922493,20.7893,473.881,0.122889,0.0,0.0
522,130.25,18.5722,20.606,164.388,101.337,100.061,0.000336935,0.0928965,20.7882,473.881,0.116259,0.0,0.0
528,131.75,18.8047,20.7016,171.075,101.348,99.8048,0.00038281,0.0934837,20.7877,473.881,0.140753,0.0,0.0
534,133.25,19.2067,20.7719,165.36,101.353,99.9772,0.000419065,0.0938604,20.7876,473.881,0.125438,0.0,0.0
540,134.75,18.8058,20.7649,164.972,101.368,99.8398,0.00041708,0.0940653,20.7885,473.901,0.139402,0.0,0.0
546,136.25,19.2143,20.8098,165.06,101.392,99.9894,0.000391788,0.0941831,20.7889,473.871,0.127865,0.0,0.0
552,137.75,18.9496,20.4073,171.53,101.364,99.9782,0.00039237,0.0945317,20.7891,473.861,0.126277,0.0,0.0
558,139.25,18.791,21.0235,169.61,101.387,99.9144,0.000387651,0.0948481,20.7893,473.851,0.134271,0.0,0.0
564,140.75,18.9772,21.0529,164.109,101.407,99.995,0.000360902,0.0950656,20.7885,473.841,0.128659,0.0,0.0
570,142.25,19.2629,20.9419,166.982,101.403,99.9057,0.000396455,0.0952935,20.7879,473.841,0.136479,0.0,0.0
576,143.75,19.0123,20.8982,163.435,101.42,99.9894,0.000521142,0.0954411,20.7875,473.871,0.130365,0.0,0.0
582,145.25,19.0523,21.4346,165.319,101.43,100.079,0.000651692,0.0954949,20.7873,473.861,0.123026,0.0,0.0
588,146.75,19.2056,20.8543,164.248,101.441,99.927,0.000709032,0.0953848,20.7872,473.861,0.137954,0.0,0.0
594,148.25,19.1583,21.3765,165.37,101.455,99.9757,0.000723777,0.0951933,20.7871,473.881,0.134753,0.0,0.0
600,149.75,19.1516,20.887,163.687,101.455,100.031,0.000708534,0.094896,20.7871,473.901,0.129681,0.0,0.0
606,151.25,19.0504,20.6751,166.471,101.458,99.9853,0.000625477,0.0944026,20.7877,473.871,0.13413,0.0,0.0
612,152.75,19.0302,20.506,167.012,101.46,99.927,0.000496278,0.0939927,20.7892,473.871,0.139669,0.0,0.0
618,154.25,18.5807,20.6146,165.935,101.479,99.9275,0.000400084,0.093474,20.7904,473.861,0.141375,0.0,0.0
624,155.75,18.5832,20.4516,168.153,101.483,99.6917,0.000417671,0.0929879,20.7921,473.851,0.163389,0.0,0.0
630,157.25,19.0425,20.6049,164.36,101.48,99.8621,0.000452685,0.0924794,20.793,473.881,0.147496,0.0,0.0
636,158.75,18.8793,20.7563,167.587,101.486,99.8434,0.000468812,0.0919885,20.7944,473.861,0.149779,0.0,0.0
642,160.25,19.2374,20.9924,166.53,101.491,99.7998,0.000461385,0.0914391,20.7953,473.851,0.15416,0.0,0.0
648,161.75,18.8931,20.8476,169.43,101.509,99.7217,0.000427725,0.0909583,20.7964,473.861,0.163019,0.0,0.0
654,163.25,19.279,20.9444,165.476,101.502,100.07,0.000344394,0.0907471,20.7975,473.831,0.130387,0.0,0.0
660,164.75,18.8313,21.0941,165.535,101.52,99.8398,0.000268069,0.0907812,20.798,473.831,0.15316,0.0,0.0
666,166.25,19.0815,21.2557,166.525,101.541,99.6923,0.000239797,0.0908398,20.7983,473.811,0.168596,0.0,0.0
672,167.75,19.0736,21.0961,166.369,101.521,99.9468,0.000246941,0.0909155,20.7985,473.821,0.143369,0.0,0.0
678,169.25,19.0726,21.0602,169.967,101.532,99.7105,0.000236723,0.0910649,20.7986,473.801,0.166133,0.0,0.0
684,170.75,19.4364,21.1775,171.212,101.556,99.8418,0.000191108,0.0912858,20.7986,473.821,0.156177,0.0,0.0
690,172.25,19.2575,21.2767,166.423,101.543,99.8246,0.00010385,0.0915213,20.7986,473.811,0.15657,0.0,0.0
696,173.75,19.253,21.1401,160.253,101.571,99.8824,2.96841e-05,0.0917111,20.7986,473.811,0.153865,0.0,0.0
702,175.25,19.5055,21.2116,167.746,101.568,99.7399,2.33427e-05,0.0917704,20.799,473.801,0.166667,0.0,0.0
708,176.75,18.8746,21.2057,164.886,101.577,99.8829,0.00010624,0.0917333,20.7991,473.811,0.154303,0.0,0.0
714,178.25,19.3667,21.1747,164.535,101.582,99.892,0.000172693,0.0916337,20.8007,473.781,0.153984,0.0,0.0
720,179.75,19.4179,21.3776,169.527,101.6,99.8008,0.000222924,0.0913837,20.8022,473.791,0.163974,0.0,0.0
726,181.25,19.049,21.2507,165.882,101.613,99.9032,0.00028298,0.0911136,20.803,473.781,0.155753,0.0,0.0
732,182.75,18.8017,21.2558,166.879,101.621,99.9083,0.000343721,0.0907994,20.8035,473.761,0.155957,0.0,0.0
738,184.25,19.3025,21.144,168.23,101.637,100.089,0.000432545,0.0903867,20.8037,473.761,0.140881,0.0,0.0
744,185.75,18.9295,21.1967,166.86,101.65,99.8804,0.000539779,0.0900385,20.8038,473.781,0.161162,0.0,0.0
750,187.25,19.568,21.1131,170.994,101.655,99.7932,0.000663063,0.0897883,20.8037,473.791,0.169661,0.0,0.0
756,188.75,19.3601,21.1894,169.053,101.671,99.746,0.000779138,0.0895098,20.8034,473.791,0.175375,0.0,0.0
762,190.25,18.9319,21.1354,171.994,101.674,99.4397,0.000793786,0.0893765,20.8033,473.821,0.203928,0.0,0.0
768,191.75,19.5843,20.9001,166.48,101.679,99.498,0.0006888,0.0893736,20.8023,473.781,0.198959,0.0,0.0
774,193.25,19.2778,21.4822,168.31,101.694,99.5107,0.000536529,0.08953,20.8005,473.781,0.199128,0.0,0.0
780,194.75,19.544,21.329,166.809,101.693,99.6923,0.000344268,0.0895383,20.7995,473.771,0.182329,0.0,0.0
786,196.25,19.3352,21.3392,165.515,101.707,99.5031,0.000255181,0.0894995,20.799,473.771,0.200983,0.0,0.0
792,197.75,19.2603,21.2537,160.55,101.708,99.5082,0.000262697,0.0895633,20.7988,473.771,0.200664,0.0,0.0
798,199.25,19.6016,21.2104,166.179,101.715,99.3976,0.0003271,0.0896354,20.7986,473.771,0.211459,0.0,0.0
804,200.75,19.4039,21.3895,165.308,101.726,99.6978,0.000324787,0.0896791,20.7978,473.781,0.184754,0.0,0.0
810,202.25,19.3578,20.6329,165.961,101.73,99.6988,0.000273984,0.089777,20.7974,473.761,0.185107,0.0,0.0
816,203.75,19.5534,21.296,168.732,101.726,99.5067,0.000196069,0.0902059,20.7964,473.741,0.202366,0.0,0.0
822,205.25,19.4037,20.826,168.582,101.743,99.7247,9.40022e-05,0.0906766,20.7945,473.751,0.18388,0.0,0.0
828,206.75,19.3609,21.3967,164.989,101.74,99.6512,4.14542e-05,0.0912831,20.7933,473.741,0.190387,0.0,0.0
834,208.25,19.7659,21.6173,167.824,101.75,99.5868,5.16454e-05,0.0918183,20.7918,473.731,0.197212,0.0,0.0
840,209.75,19.4828,21.2815,168.141,101.747,99.3839,9.65723e-05,0.0922565,20.791,473.721,0.215659,0.0,0.0
846,211.25,19.2615,21.3429,168.188,101.754,99.8261,0.000127101,0.0926552,20.7905,473.741,0.175519,0.0,0.0
852,212.75,19.2022,21.4538,166.783,101.749,99.7962,0.000107543,0.0930041,20.7903,473.731,0.17786,0.0,0.0
858,214.25,19.566,21.36,170.293,101.764,99.2075,7.85115e-05,0.0932884,20.7902,473.721,0.233454,0.0,0.0
864,215.75,19.3432,21.2545,169.257,101.755,99.8687,7.12605e-05,0.093182,20.7916,473.691,0.171678,0.0,0.0
870,217.25,19.1248,21.6133,165.474,101.761,99.3054,0.000100505,0.0929886,20.7933,473.681,0.224183,0.0,0.0
876,218.75,19.6084,21.5982,163.624,101.758,99.9737,0.000203506,0.0926956,20.795,473.681,0.1623,0.0,0.0
882,220.25,19.4385,21.1311,166.122,101.765,99.494,0.000317138,0.0921917,20.7968,473.681,0.207142,0.0,0.0
888,221.75,19.3717,21.5365,163.223,101.768,99.5072,0.000390144,0.091541,20.7995,473.671,0.206148,0.0,0.0
894,223.25,19.3532,21.3085,167.497,101.767,99.6,0.000441404,0.0909946,20.8013,473.701,0.197521,0.0,0.0
900,224.75,19.4718,21.4665,163.053,101.769,99.65625,0.000477207,0.0902808,20.8032,473.691,0.192485,0.0,0.0
906,226.25,19.1814,21.4331,166.027,101.77,99.8297,0.000496785,0.0897724,20.8041,473.671,0.176605,0.0,0.0
912,227.75,19.1548,21.156,166.137,101.77,99.4747,0.000517727,0.0894773,20.8047,473.661,0.209364,0.0,0.0
918,229.25,19.6538,21.5586,170.754,101.761,99.2283,0.000572352,0.0892941,20.8049,473.671,0.231271,0.0,0.0
924,230.75,19.7417,21.2562,165.887,101.763,99.2369,0.000636716,0.0891381,20.8051,473.671,0.23066,0.0,0.0
930,232.25,19.2094,20.9767,171.313,101.757,99.6557,0.000654564,0.0889176,20.8052,473.641,0.191454,0.0,0.0
936,233.75,19.136,21.2542,170.561,101.756,99.4828,0.000674999,0.0886405,20.8056,473.611,0.207278,0.0,0.0
942,235.25,19.3138,21.2555,164.842,101.754,99.6547,0.000723271,0.0884136,20.8065,473.631,0.191287,0.0,0.0
948,236.75,19.6427,21.6614,168.195,101.753,98.4813,0.000764369,0.0882929,20.807,473.631,0.299897,0.0,0.0
954,238.25,19.3971,21.3296,166.402,101.761,99.3302,0.000790026,0.0882288,20.8073,473.641,0.221813,0.0,0.0
960,239.75,19.4788,21.6145,164.689,101.753,99.7754,0.000801446,0.0881655,20.8074,473.601,0.180107,0.0,0.0
966,241.25,19.8604,21.0681,165.813,101.742,99.5604,0.000815763,0.0880606,20.8075,473.621,0.198898,0.0,0.0
972,242.75,19.1887,21.4312,168.252,101.753,98.9053,0.000823371,0.0880718,20.8075,473.631,0.260483,0.0,0.0
978,244.25,19.959,21.6888,164.308,101.733,99.3916,0.000827414,0.0880778,20.8081,473.611,0.213619,0.0,0.0
984,245.75,19.1775,21.6644,164.34,101.734,99.4058,0.000798574,0.0879053,20.8092,473.601,0.212456,0.0,0.0
990,247.25,18.4323,21.15,169.473,101.719,98.9007,0.000676108,0.0878175,20.8098,473.601,0.257859,0.0,0.0
996,248.75,19.9641,21.1095,165.75,101.715,99.5584,0.000493483,0.0878207,20.8102,473.581,0.196631,0.0,0.0
1002,250.25,19.5536,21.4009,163.937,101.697,99.6542,0.000326582,0.0877045,20.8103,473.601,0.186203,0.0,0.0
1008,251.75,20.0958,21.572,168.811,101.7,99.1857,0.000250235,0.0876438,20.8095,473.551,0.229671,0.0,0.0
1014,253.25,19.7092,21.6473,172.512,101.69,99.5751,0.000294685,0.0876899,20.8089,473.591,0.19282,0.0,0.0
1020,254.75,19.7258,21.6715,167.459,101.676,99.4134,0.000358971,0.0878087,20.8086,473.541,0.206511,0.0,0.0
1026,256.25,19.8159,20.9417,161.901,101.671,99.211,0.000423606,0.0879328,20.8084,473.581,0.224722,0.0,0.0
1032,257.75,20.0158,21.5543,168.593,101.669,99.2942,0.000439088,0.0879775,20.8083,473.561,0.216922,0.0,0.0
1038,259.25,19.9006,21.0718,168.835,101.653,99.2805,0.000403765,0.0879502,20.8087,473.521,0.216661,0.0,0.0
1044,260.75,19.4237,20.9614,165.385,101.646,99.1329,0.000361216,0.0878205,20.8095,473.531,0.229715,0.0,0.0
1050,262.25,19.2132,20.6935,168.043,101.648,98.9595,0.000362838,0.0877139,20.8099,473.521,0.245969,0.0,0.0
1056,263.75,19.7017,20.4327,166.502,101.634,98.8875,0.000397144,0.087519,20.8104,473.531,0.251418,0.0,0.0
1062,265.25,19.9961,21.7001,165.75,101.625,99.212,0.000441584,0.087487,20.8116,473.521,0.220461,0.0,0.0
1068,266.75,19.156,21.3014,172.128,101.614,99.6674,0.000470809,0.0873916,20.8122,473.491,0.177473,0.0,0.0
1074,268.25,19.4996,20.9917,168.023,101.607,99.4139,0.0004775,0.0871659,20.8125,473.511,0.20025,0.0,0.0
1080,269.75,20.0345,21.746,168.636,101.592,99.4575,0.00046084,0.0869933,20.8126,473.511,0.194811,0.0,0.0
1086,271.25,19.3957,21.3267,167.524,101.599,99.0985,0.000437104,0.0869948,20.813,473.481,0.228627,0.0,0.0
1092,272.75,19.5355,21.404,167.809,101.587,97.7897,0.000439535,0.0869887,20.814,473.471,0.349617,0.0,0.0
1098,274.25,19.525,21.8762,166.527,101.586,98.6152,0.000465521,0.0869996,20.8145,473.501,0.272366,0.0,0.0
1104,275.75,19.6391,21.4573,166.014,101.568,99.0625,0.000527656,0.0870317,20.8148,473.491,0.229242,0.0,0.0
1110,277.25,19.8774,21.8698,166.175,101.571,99.534,0.000582025,0.0870224,20.815,473.481,0.185888,0.0,0.0
1116,278.75,19.4255,21.8467,172.615,101.555,99.5589,0.000615375,0.0869981,20.8158,473.471,0.182144,0.0,0.0
1122,280.25,19.244,21.8142,162.847,101.545,99.5117,0.000635468,0.0869125,20.8166,473.451,0.185599,0.0,0.0
1128,281.75,19.8581,20.9109,164.572,101.536,99.5214,0.000682402,0.0868974,20.817,473.431,0.183928,0.0,0.0
1134,283.25,19.6924,21.6457,165.834,101.531,98.4038,0.000709668,0.0869667,20.8172,473.461,0.287036,0.0,0.0
1140,284.75,19.643,21.2002,164.47,101.524,99.4468,0.000699161,0.087046,20.8173,473.451,0.189685,0.0,0.0
1146,286.25,19.6392,21.2404,170.697,101.526,99.5812,0.000664782,0.0869871,20.8163,473.451,0.177444,0.0,0.0
1152,287.75,19.0215,21.3584,172.26,101.517,98.5427,0.000622141,0.087004,20.8158,473.431,0.272821,0.0,0.0
1158,289.25,19.4923,21.5461,166.614,101.514,99.1923,0.000601823,0.0870997,20.8155,473.411,0.21231,0.0,0.0
1164,290.75,19.939,20.8521,168.379,101.505,99.2181,0.000595562,0.0871399,20.8153,473.421,0.209098,0.0,0.0
1170,292.25,19.6408,21.1479,165.327,101.497,99.1492,0.000586421,0.0872385,20.8148,473.411,0.214733,0.0,0.0
1176,293.75,19.6874,20.9924,167.641,101.493,98.8338,0.000626748,0.0872611,20.8145,473.411,0.243597,0.0,0.0
1182,295.25,19.9006,21.9007,170.242,101.474,99.2714,0.000737877,0.087294,20.8143,473.401,0.201342,0.0,0.0
1188,296.75,19.1465,21.9128,159.805,101.454,98.7841,0.000846489,0.0872981,20.814,473.411,0.244745,0.0,0.0
1194,298.25,19.5109,21.4478,166.276,101.448,99.0691,0.000881525,0.0874728,20.813,473.401,0.217715,0.0,0.0
1200,299.75,19.5302,21.4731,169.535,101.437,99.1477,0.000895178,0.0875516,20.8124,473.381,0.209431,0.0,0.0
1206,301.25,19.8579,21.0535,165.79,101.429,99.4783,0.000910263,0.0875918,20.8121,473.371,0.178175,0.0,0.0
1212,302.75,19.7239,21.7181,169.328,101.406,98.6527,0.000895692,0.0877133,20.812,473.361,0.252627,0.0,0.0
1218,304.25,19.9825,21.1476,169.046,101.388,99.1578,0.000790763,0.0877281,20.8119,473.351,0.20413,0.0,0.0
1224,305.75,20.2649,21.762,165.744,101.388,99.2982,0.000665816,0.087669,20.8119,473.361,0.191065,0.0,0.0
1230,307.25,19.5564,21.437,168.947,101.386,99.098,0.000593401,0.0876292,20.8118,473.341,0.209481,0.0,0.0
1236,308.75,19.278,21.5386,160.001,101.393,99.1015,0.000602535,0.0875834,20.8118,473.331,0.209787,0.0,0.0
1242,310.25,19.3731,21.5425,168.427,101.378,98.8028,0.000616509,0.0875765,20.8109,473.331,0.236103,0.0,0.0
1248,311.75,19.5889,21.6668,166.86,101.378,98.9676,0.000588445,0.0876008,20.8102,473.321,0.220773,0.0,0.0
1254,313.25,19.9683,20.974,165.388,101.382,99.2217,0.000532974,0.087771,20.8099,473.311,0.197659,0.0,0.0
1260,314.75,19.1279,21.7151,164.228,101.399,99.3048,0.000492279,0.0879772,20.8101,473.331,0.1915,0.0,0.0
1266,316.25,19.9952,21.8615,172.81,101.402,99.1598,0.000492751,0.087994,20.8104,473.331,0.20521,0.0,0.0
1272,317.75,19.1615,20.941,166.187,101.439,99.1968,0.000540905,0.0879444,20.8115,473.331,0.205067,0.0,0.0
1278,319.25,19.7111,21.6553,163.106,101.448,99.2891,0.000598519,0.0879551,20.8123,473.341,0.197392,0.0,0.0
1284,320.75,19.3171,21.1115,166.394,101.481,99.2952,0.000679148,0.0877588,20.8129,473.351,0.199848,0.0,0.0
1290,322.25,19.8328,20.9995,168.784,101.493,97.9773,0.000766147,0.0875763,20.8141,473.341,0.32346,0.0,0.0
1296,323.75,19.7575,21.9398,171.859,101.521,99.4514,0.000827976,0.0874794,20.8147,473.351,0.188966,0.0,0.0
1302,325.25,19.7583,21.8966,165.407,101.539,99.5158,0.000822017,0.0873986,20.8151,473.331,0.184703,0.0,0.0
1308,326.75,19.8335,21.7198,170.887,101.569,99.2252,0.00074311,0.0872893,20.8152,473.291,0.214215,0.0,0.0
1314,328.25,19.9527,21.2499,165.537,101.593,99.4402,0.000620575,0.0871452,20.8153,473.281,0.196514,0.0,0.0
1320,329.75,19.914,21.8169,163.596,101.618,99.6172,0.000546243,0.0870899,20.8144,473.261,0.182506,0.0,0.0
1326,331.25,19.9374,22.0815,169.811,101.647,99.7749,0.000547333,0.087182,20.8134,473.261,0.170596,0.0,0.0
1332,332.75,19.4202,21.77,168.494,101.676,99.5812,0.00053842,0.0874672,20.8122,473.271,0.191069,0.0,0.0
1338,334.25,20.0015,21.3716,167.63,101.697,99.4108,0.000456211,0.0879082,20.8104,473.281,0.208606,0.0,0.0
1344,335.75,19.8879,22.1671,168.592,101.73,99.4022,0.000348376,0.0883648,20.8095,473.271,0.212376,0.0,0.0
1350,337.25,20.1768,21.97,167.939,101.742,99.1968,0.000292217,0.0887343,20.8081,473.251,0.232469,0.0,0.0
1356,338.75,19.7994,21.2775,169.781,101.757,99.2227,0.000359975,0.0890893,20.8069,473.261,0.231415,0.0,0.0
1362,340.25,19.7896,21.8793,166.628,101.758,99.0949,0.000486732,0.0894003,20.8055,473.261,0.243389,0.0,0.0
1368,341.75,20.0594,22.7112,165.147,101.765,99.6228,0.000562999,0.0897172,20.8033,473.251,0.195271,0.0,0.0
1374,343.25,20.048,22.2145,165.68,101.757,99.6289,0.000561678,0.0899635,20.8022,473.251,0.193966,0.0,0.0
1380,344.75,20.3716,22.0644,170.026,101.741,99.4032,0.000524863,0.0902106,20.8016,473.231,0.213323,0.0,0.0
1386,346.25,20.2012,21.8653,165.788,101.72,99.3272,0.000502453,0.0903833,20.8013,473.221,0.218451,0.0,0.0
1392,347.75,20.4665,22.062,159.623,101.694,99.5026,0.000502964,0.0907031,20.8005,473.221,0.199876,0.0,0.0
1398,349.25,19.9453,22.1075,164.138,101.669,99.2962,0.000512462,0.0911759,20.7996,473.211,0.21666,0.0,0.0
1404,350.75,20.0961,21.8955,161.318,101.601,99.1593,0.000527281,0.0914561,20.7991,473.221,0.22318,0.0,0.0
1410,352.25,20.3748,22.3678,164.883,101.552,99.567,0.000576019,0.091679,20.7982,473.211,0.181099,0.0,0.0
1416,353.75,20.1819,22.3392,167.64,101.471,99.351,0.00064824,0.0919384,20.7981,473.191,0.193763,0.0,0.0
1422,355.25,20.482,22.3764,168.339,101.399,99.4387,0.000736387,0.0920684,20.7981,473.221,0.179101,0.0,0.0
1428,356.75,20.2167,22.0735,168.531,101.273,99.3398,0.000819354,0.0921077,20.797,473.201,0.176847,0.0,0.0
1434,358.25,19.9018,22.3007,162.864,101.171,97.8084,0.000890669,0.0922917,20.7956,473.211,0.310137,0.0,0.0
1440,359.75,19.8782,21.7811,162.3,101.196,98.8561,0.000929567,0.0926314,20.7948,473.141,0.214654,0.0,0.0
1446,361.25,19.7529,22.2992,166.654,101.233,99.0168,0.000886785,0.0929851,20.7935,473.121,0.203109,0.0,0.0
1452,362.75,19.7439,22.5648,167.211,101.267,99.353,0.0008418,0.0932201,20.7918,473.111,0.175107,0.0,0.0
1458,364.25,20.1282,21.8713,165.45,101.337,99.0097,0.000764403,0.0934368,20.791,473.101,0.213214,0.0,0.0
1464,365.75,19.9819,22.2456,162.334,101.378,99.5396,0.000676661,0.0936096,20.7905,473.081,0.167967,0.0,0.0
1470,367.25,20.1185,22.2409,169.602,101.442,99.4134,0.000700963,0.0937586,20.7903,473.121,0.185394,0.0,0.0
1476,368.75,20.0337,22.003,164.805,101.513,99.0224,0.000782097,0.0937071,20.7901,473.141,0.227963,0.0,0.0
1482,370.25,20.1173,21.8589,165.873,101.581,99.0741,0.000854112,0.0935738,20.791,473.141,0.229281,0.0,0.0
1488,371.75,19.9834,22.2122,171.215,101.646,99.2075,0.000879221,0.0934048,20.7918,473.141,0.22278,0.0,0.0
1494,373.25,20.1669,22.1527,167.769,101.714,99.5457,0.0008605,0.0931495,20.7931,473.141,0.197762,0.0,0.0
1500,374.75,20.4777,21.9108,162.561,101.779,99.1608,0.00080908,0.092834,20.7938,473.131,0.239145,0.0,0.0
1506,376.25,20.5219,22.3039,164.176,101.825,99.5041,0.000776327,0.0925481,20.7953,473.091,0.211556,0.0,0.0
1512,377.75,20.5333,22.1423,170.325,101.877,99.6294,0.000746745,0.0924167,20.7965,473.101,0.204692,0.0,0.0
1518,379.25,19.6784,22.6418,167.91,101.913,99.7267,0.000684771,0.0921848,20.7971,473.091,0.199034,0.0,0.0
1524,380.75,20.1225,22.2539,164.927,101.944,100.034,0.000667794,0.0918613,20.797,473.101,0.173595,0.0,0.0
1530,382.25,20.3216,22.1538,168.262,101.951,99.1938,0.000736132,0.0917832,20.7972,473.081,0.251615,0.0,0.0
1536,383.75,20.1799,22.2718,167.309,101.965,99.5219,0.000804062,0.0917557,20.7988,473.091,0.222577,0.0,0.0
1542,385.25,20.4017,21.9487,168.164,101.95,99.6126,0.000817126,0.0917715,20.8001,473.061,0.212803,0.0,0.0
1548,386.75,20.1272,22.2768,159.363,101.944,99.4387,0.000774492,0.091759,20.8008,473.051,0.228282,0.0,0.0
1554,388.25,20.1528,22.4328,162.3,101.913,99.5543,0.000756349,0.0919016,20.8011,473.031,0.21491,0.0,0.0
1560,389.75,20.0134,22.4544,166.521,101.894,99.3596,0.000766086,0.0919246,20.8013,473.031,0.231094,0.0,0.0
1566,391.25,20.2698,21.9929,169.217,101.829,99.3023,0.000780602,0.0919615,20.8003,473.031,0.230595,0.0,0.0
1572,392.75,20.3769,22.3607,168.333,101.801,99.568,0.00076962,0.092098,20.7998,473.041,0.203549,0.0,0.0
1578,394.25,20.7221,22.6493,167.25,101.734,99.2262,0.000724755,0.0922111,20.7995,473.031,0.229043,0.0,0.0
1584,395.75,20.8104,22.7389,169.573,101.656,98.957,0.000662847,0.0922816,20.7994,473.021,0.24691,0.0,0.0
1590,397.25,20.5327,23.1439,165.729,101.567,99.4438,0.000625145,0.0923086,20.7993,473.011,0.193841,0.0,0.0
1596,398.75,20.8128,22.661,171.774,101.502,99.2313,0.000647325,0.0923604,20.7994,473.001,0.20758,0.0,0.0
1602,400.25,20.4479,22.994,173.992,101.383,98.5255,0.00073957,0.0923273,20.7997,472.981,0.262348,0.0,0.0
1608,401.75,20.823,22.4937,164.994,101.28,98.7273,0.000840033,0.09218,20.7999,472.991,0.234202,0.0,0.0
1614,403.25,20.8109,22.6394,163.729,101.168,98.4864,0.000902315,0.092191,20.8,473.001,0.246527,0.0,0.0
1620,404.75,20.2931,22.368,167.227,101.072,98.6147,0.000880671,0.0921339,20.8,473.031,0.225829,0.0,0.0
1626,406.25,20.5015,22.8611,169.06,100.934,98.4185,0.000781436,0.0920253,20.8005,473.011,0.2316,0.0,0.0
1632,407.75,20.2433,22.4927,163.406,100.825,97.8521,0.000714845,0.0919252,20.801,472.971,0.274626,0.0,0.0
1638,409.25,20.4598,22.9408,166.207,100.7,98.1761,0.000752411,0.0917546,20.8008,472.951,0.232917,0.0,0.0
1644,410.75,20.4884,22.8465,165.633,100.573,98.3941,0.000821665,0.0915238,20.8012,472.951,0.200985,0.0,0.0
1650,412.25,20.4073,22.5897,169.409,100.47,97.8485,0.000871122,0.0911945,20.8019,472.951,0.242603,0.0,0.0
1656,413.75,20.2833,22.5842,161.793,100.377,98.206,0.000893286,0.0909394,20.8022,472.941,0.200626,0.0,0.0
1662,415.25,20.7285,22.8299,164.597,100.282,98.0934,0.000898518,0.0907509,20.8024,472.931,0.202481,0.0,0.0
1668,416.75,21.0217,22.7209,163.051,100.187,97.0549,0.000851453,0.0906561,20.8025,472.91,0.291428,0.0,0.0
1674,418.25,20.7801,22.9572,166.141,100.126,97.7912,0.000776981,0.0907556,20.8026,472.88,0.216489,0.0,0.0
1680,419.75,20.2934,22.8428,164.049,100.045,97.5407,0.000707882,0.0908498,20.8017,472.88,0.232656,0.0,0.0
1686,421.25,20.2457,22.2843,167.447,100.01,97.6579,0.000717205,0.0908621,20.801,472.88,0.218428,0.0,0.0
1692,422.75,20.6422,22.5876,170.048,99.9857,97.8505,0.000799621,0.0908472,20.8007,472.87,0.198071,0.0,0.0
1698,424.25,20.4766,22.3874,166.924,99.9659,97.6254,0.000872123,0.0907407,20.7999,472.84,0.217392,0.0,0.0
1704,425.75,20.4095,22.9542,169.218,99.9535,97.8019,0.00084198,0.0907064,20.8001,472.84,0.199687,0.0,0.0
1710,427.25,20.6883,22.4896,160.315,99.9832,97.7065,0.000735045,0.09068,20.8004,472.85,0.21136,0.0,0.0
1716,428.75,20.4362,22.7307,167.28,99.9947,97.7162,0.000623137,0.0905638,20.8015,472.83,0.211514,0.0,0.0
1722,430.25,20.6305,22.4608,166.801,100.054,97.6731,0.000591327,0.0904506,20.8023,472.83,0.221006,0.0,0.0
1728,431.75,20.016,22.3795,171.534,100.109,97.777,0.000691485,0.0904151,20.8036,472.83,0.21631,0.0,0.0
1734,433.25,20.2568,22.8533,167.856,100.195,97.9291,0.00077655,0.0904947,20.8034,472.84,0.209901,0.0,0.0
1740,434.75,20.5685,22.361,164.635,100.261,97.9885,0.000752081,0.0906335,20.8031,472.82,0.210419,0.0,0.0
1746,436.25,20.3835,22.4325,170.884,100.355,98.2572,0.000659763,0.0907666,20.803,472.81,0.193808,0.0,0.0
1752,437.75,20.5945,22.0229,166.713,100.45,98.5706,0.000629693,0.0908268,20.8018,472.78,0.173328,0.0,0.0
1758,439.25,20.7901,22.4108,166.93,100.577,97.8379,0.000672394,0.0911067,20.8012,472.77,0.253384,0.0,0.0
1764,440.75,20.239,22.5672,169.484,100.691,98.4235,0.000778893,0.0915582,20.8009,472.75,0.209029,0.0,0.0
1770,442.25,20.7304,22.1996,162.789,100.811,98.5437,0.000921068,0.0918093,20.8007,472.77,0.208718,0.0,0.0
1776,443.75,20.3056,22.7338,160.64,100.911,98.5265,0.00101947,0.0918684,20.8006,472.8,0.219399,0.0,0.0
1782,445.25,20.5178,22.4695,166.633,101.024,98.6624,0.00106457,0.091854,20.8006,472.81,0.217052,0.0,0.0
1788,446.75,20.263,22.532,166.8,101.112,98.9884,0.00107896,0.0917829,20.8006,472.77,0.19475,0.0,0.0
1794,448.25,20.3125,22.5996,160.392,101.192,98.7324,0.00104363,0.0915657,20.8016,472.75,0.225809,0.0,0.0
1800,449.75,20.5567,22.6251,166.379,101.265,99.2658,0.0010175,0.0913119,20.8022,472.73,0.182941,0.0,0.0
1806,451.25,20.2886,22.6046,162.757,101.3,99.1446,0.00120342,0.0915227,20.8009,472.77,0.197363,0.0,0.0
1812,452.75,20.5972,22.2804,159.194,101.331,98.6304,0.00155276,0.0968029,20.7953,472.71,0.247837,0.0,0.0
1818,454.25,21.1282,22.9136,161.181,101.333,92.4228,0.0028493,0.113122,20.774,472.6,0.844531,0.0,1.0
1824,455.75,22.033,24.7148,153.633,101.32,87.2272,0.0048336,0.141427,20.7197,472.43,1.37424,0.0,1.0
1830,457.25,23.1182,26.5789,153.204,101.292,82.4191,0.00683831,0.191513,20.6444,472.1,1.89201,0.0,1.0
1836,458.75,23.1788,27.5242,146.798,101.244,77.3321,0.0094462,0.255651,20.527,471.739,2.47228,0.0,1.0
1842,460.25,24.9163,30.1561,153.281,101.159,83.2619,0.0117905,0.316236,20.4344,471.539,1.78663,0.0,1.0
1848,461.75,26.4197,32.4373,146.318,101.089,74.1334,0.0134598,0.378423,20.3641,471.269,2.8458,0.0,0.0
1854,463.25,27.777,34.2951,150.807,101.013,78.7671,0.0144025,0.428148,20.3207,471.009,2.28261,0.0,0.0
1860,464.75,28.2785,35.596,149.095,100.954,81.3152,0.0148291,0.463179,20.2939,470.819,1.98512,0.0,0.0
1866,466.25,30.4667,37.2599,151,100.887,75.9741,0.0154604,0.491044,20.2684,470.578,2.60243,0.0,0.0
1872,467.75,31.4942,39.6175,147.049,100.86,75.4939,0.0165079,0.521756,20.2335,470.318,2.65814,0.0,0.0
1878,469.25,32.0282,41.4586,145.569,100.827,69.9262,0.0179312,0.556886,20.1813,470.008,3.3581,0.0,0.0
1884,470.75,33.8762,43.9761,150.083,100.928,73.5559,0.0189259,0.593111,20.1489,469.708,2.90297,0.0,0.0
1890,472.25,35.3068,46.2799,141.484,101.167,73.3257,0.0198715,0.632521,20.1164,469.477,2.95344,0.0,0.0
1896,473.75,36.2015,47.4152,145.966,101.376,73.6943,0.0205995,0.655313,20.096,469.267,2.92636,0.0,0.0
1902,475.25,37.5986,48.9697,149.161,101.55,71.8465,0.0211148,0.68085,20.08,468.947,3.17511,0.0,0.0
1908,476.75,38.4483,50.6012,148.574,101.65,71.2862,0.0213115,0.699572,20.0715,468.687,3.25603,0.0,0.0
1914,478.25,39.1546,51.0496,154.764,101.738,77.8549,0.021014,0.706045,20.0742,468.516,2.4551,0.0,0.0
1920,479.75,39.406,51.6825,143.252,101.749,74.9585,0.0202779,0.702062,20.0935,468.306,2.80396,0.0,0.0
1926,481.25,39.758,51.7215,150.107,101.718,79.8421,0.0188106,0.68389,20.142,468.146,2.222,0.0,0.0
1932,482.75,39.1934,51.1798,158.277,101.63,87.4691,0.0172442,0.651609,20.2178,468.006,1.37689,0.0,0.0
1938,484.25,38.8199,50.0114,152.634,101.504,88.8879,0.0143824,0.605684,20.2967,467.956,1.21785,0.0,0.0
1944,485.75,38.1844,48.6371,154.761,101.322,94.8354,0.0117527,0.553488,20.3843,467.876,0.607092,0.0,0.0
1950,487.25,37.0355,47.2563,158.915,101.186,98.6974,0.00929318,0.492942,20.4752,467.926,0.228464,0.0,0.0
1956,488.75,36.0733,45.166,162.99,101.255,100.072,0.00734825,0.424562,20.5538,467.956,0.107852,0.0,0.0
1962,490.25,34.6402,43.2788,160.095,101.36,100.648,0.00581712,0.362473,20.618,468.006,0.0647051,0.0,0.0
1968,491.75,33.5638,41.9743,165.404,101.468,100.655,0.00473787,0.309108,20.6615,468.016,0.0737909,0.0,0.0
1974,493.25,32.4037,39.4252,163.209,101.597,100.902,0.00373723,0.263188,20.7013,468.036,0.0630126,0.0,0.0
1980,494.75,30.9344,37.7235,165.614,101.692,101.01,0.00292288,0.23221,20.7309,468.026,0.0617447,0.0,0.0
1986,496.25,30.6636,36.6119,168.082,101.804,101.161,0.00232219,0.202538,20.7523,467.996,0.0581486,0.0,0.0
1992,497.75,30.1193,35.3108,164.258,101.879,101.163,0.00185604,0.177944,20.7675,468.006,0.0647605,0.0,0.0
1998,499.25,29.1672,33.6802,170.074,101.954,101.228,0.0014879,0.16001,20.7765,468.036,0.0655924,0.0,0.0
2004,500.75,28.3542,32.9531,165.931,101.958,101.221,0.00120218,0.146508,20.7828,468.046,0.0665242,0.0,0.0
2010,502.25,27.6455,31.9398,165.111,101.951,101.193,0.00103556,0.136288,20.7884,468.046,0.0685049,0.0,0.0
2016,503.75,26.984,31.1276,167.275,101.895,101.17,0.000938306,0.128581,20.7939,468.046,0.0655273,0.0,0.0
2022,505.25,26.9864,29.9893,166.654,101.812,101.069,0.000832367,0.121853,20.797,468.026,0.0671834,0.0,0.0
2028,506.75,26.4574,29.0902,172.789,101.663,100.913,0.000694761,0.116576,20.8002,468.086,0.0679891,0.0,0.0
2034,508.25,25.8313,28.7216,165.194,101.506,100.611,0.000571217,0.111917,20.8035,468.026,0.0813261,0.0,0.0
2040,509.75,25.2519,28.6046,166.773,101.293,100.537,0.000461621,0.107739,20.8069,468.066,0.0687122,0.0,0.0
2046,511.25,25.3162,27.3142,166.779,101.1,100.445,0.000342283,0.104132,20.8099,468.066,0.0596387,0.0,0.0
2052,512.75,24.4172,27.0942,163.696,100.859,100.145,0.000162002,0.101364,20.8118,468.096,0.0651917,0.0,0.0
2058,514.25,24.4241,26.2077,168.574,100.635,99.9204,1.53536e-05,0.0991155,20.8131,468.086,0.0654132,0.0,0.0
2064,515.75,24.2361,26.5259,169.479,100.417,99.6846,-5.18367e-05,0.097271,20.8146,468.076,0.0671877,0.0,0.0
2070,517.25,24.3873,25.5114,170.963,100.262,99.389,-5.85545e-05,0.095845,20.8154,468.066,0.080231,0.0,0.0
2076,518.75,23.6725,25.1099,166.013,100.111,99.39,-6.65397e-05,0.09473,20.8158,468.046,0.066357,0.0,0.0
2082,520.25,23.6652,25.0304,169.417,100.033,99.3434,-6.47694e-05,0.0938141,20.816,468.056,0.0634461,0.0,0.0
2088,521.75,23.366,25.0716,166.707,100.003,99.2202,-4.21962e-05,0.093078,20.8162,468.106,0.07215,0.0,0.0
2094,523.25,23.7863,25.1528,164.252,100.006,99.2633,7.40679e-06,0.0922549,20.817,468.086,0.0683908,0.0,0.0
2100,524.75,23.3588,24.6548,161.728,100.059,99.2724,4.61403e-05,0.0915775,20.817,468.086,0.0723867,0.0,0.0
2106,526.25,23.0874,24.3536,163.358,100.173,99.4838,4.34871e-05,0.0909847,20.817,468.096,0.0633657,0.0,0.0
2112,527.75,22.915,24.0801,162.452,100.31,99.5731,5.22011e-05,0.0904517,20.8178,468.096,0.0677024,0.0,0.0
2118,529.25,22.822,24.2426,162.185,100.479,99.6644,9.77567e-05,0.0898624,20.8185,468.066,0.0747034,0.0,0.0
2124,530.75,22.5041,23.9146,165.618,100.648,99.8434,0.000161498,0.0893259,20.8188,468.036,0.0736585,0.0,0.0
2130,532.25,22.781,23.8236,161.948,100.822,100.251,0.000204193,0.0889245,20.819,468.066,0.0521477,0.0,0.0
2136,533.75,22.2152,24.0511,163.371,100.979,100.259,0.00017194,0.0885907,20.8191,468.066,0.0656587,0.0,0.0
2142,535.25,22.6377,24.231,163.089,101.114,100.411,8.68205e-05,0.0882761,20.8192,468.086,0.0640153,0.0,0.0
2148,536.75,22.1435,23.5212,165.366,101.216,100.403,-2.98167e-05,0.0880031,20.8192,468.076,0.0740372,0.0,0.0
2154,538.25,22.3159,23.4135,167.438,101.3,100.539,-0.00010424,0.0876352,20.8197,468.086,0.0691997,0.0,0.0
2160,539.75,22.0477,23.4784,162.939,101.342,100.636,-0.000110609,0.0872155,20.8206,468.096,0.0641348,0.0,0.0
2166,541.25,22.0456,23.0829,163.38,101.313,100.534,-8.4423e-05,0.086928,20.8211,468.096,0.0708574,0.0,0.0
2172,542.75,22.263,23.1715,166.415,101.268,100.516,-6.98652e-05,0.0866659,20.8213,468.076,0.0683322,0.0,0.0
2178,544.25,21.7595,23.1588,164.435,101.163,100.408,-4.8574e-05,0.0864983,20.8214,468.096,0.0687426,0.0,0.0
2184,545.75,21.9485,22.8769,170.778,101.052,100.266,-2.72578e-05,0.0864668,20.8209,468.076,0.0716747,0.0,0.0
2190,547.25,21.8363,22.5361,163.545,100.929,100.125,5.88188e-05,0.0864542,20.8204,468.076,0.0733395,0.0,0.0
2196,548.75,21.4032,23.1161,168.162,100.86,100.163,0.000211584,0.0864476,20.8207,468.076,0.0636785,0.0,0.0
2202,550.25,21.9903,22.737,164.594,100.778,99.9681,0.000295518,0.0865426,20.8208,468.086,0.0740307,0.0,0.0
2208,551.75,21.7478,22.7748,164.277,100.855,100.066,0.000284116,0.086613,20.8209,468.086,0.0720296,0.0,0.0
2214,553.25,21.2444,22.4338,162.706,101.174,100.338,0.000256033,0.0865814,20.8209,468.096,0.0761225,0.0,0.0
2220,554.75,21.6083,22.9458,164.445,101.417,100.502,0.00027097,0.0865132,20.8209,468.096,0.0832233,0.0,0.0
2226,556.25,21.8687,23.1089,166.559,101.584,100.74,0.000299457,0.0865016,20.8209,468.116,0.0764968,0.0,0.0
2232,557.75,20.9694,22.456,163.574,101.686,100.922,0.000308559,0.0864972,20.8215,468.096,0.0691226,0.0,0.0
2238,559.25,21.4598,22.758,164.095,101.714,101.127,0.000306181,0.0864693,20.8226,468.126,0.0531646,0.0,0.0
2244,560.75,21.6875,22.3859,164.434,101.672,101.024,0.000285146,0.086431,20.8233,468.136,0.0586323,0.0,0.0
2250,562.25,21.7731,22.7909,163.819,101.565,100.853,0.00020092,0.0865037,20.8237,468.106,0.0645725,0.0,0.0
2256,563.75,21.8679,22.9507,162.245,101.381,100.626,0.000105113,0.0865194,20.8239,468.086,0.0686417,0.0,0.0
2262,565.25,20.8994,22.5997,167.253,101.144,100.367,2.7542e-07,0.08641,20.824,468.106,0.0707781,0.0,0.0
2268,566.75,21.6765,22.2962,171.239,101.236,100.544,-5.94956e-05,0.0862872,20.824,468.096,0.0629105,0.0,0.0
2274,568.25,21.0498,22.3046,164.734,101.355,100.484,-6.32741e-05,0.0861914,20.8241,468.096,0.0792095,0.0,0.0
2280,569.75,21.4711,22.7285,165.815,101.486,100.863,-3.27158e-05,0.086199,20.8239,468.086,0.0565343,0.0,0.0
2286,571.25,21.4941,22.4789,166.775,101.617,100.956,-2.20045e-05,0.0861529,20.8242,468.096,0.0599028,0.0,0.0
2292,572.75,21.2351,22.4034,170.743,101.727,101.027,-7.04929e-05,0.0859737,20.8247,468.086,0.0633863,0.0,0.0
2298,574.25,21.1975,22.2704,162.772,101.843,101.061,-0.000138308,0.0858186,20.8249,468.096,0.0707336,0.0,0.0
2304,575.75,21.3308,22.4188,162.007,101.897,101.151,-0.00018829,0.0856494,20.8251,468.066,0.0674603,0.0,0.0
2310,577.25,21.1279,22.575,162.074,101.942,101.122,-0.000170904,0.0856587,20.8249,468.036,0.0740828,0.0,0.0
2316,578.75,21.4331,22.4088,160.425,101.93,101.258,-0.000102656,0.0856899,20.824,468.056,0.0607657,0.0,0.0
2322,580.25,21.2143,22.2416,163.873,101.885,101.084,-4.54991e-05,0.0857311,20.8235,468.076,0.0724583,0.0,0.0
2328,581.75,21.5207,22.6387,161.89,101.794,100.996,-1.37853e-05,0.085707,20.8232,468.036,0.0721804,0.0,0.0
2334,583.25,21.3685,22.7244,161.771,101.663,101.014,1.96766e-05,0.0855744,20.8241,468.086,0.0587725,0.0,0.0
2340,584.75,20.7274,22.0824,166.038,101.491,100.866,7.39494e-05,0.0855188,20.8246,468.056,0.05663,0.0,0.0
2346,586.25,21.3871,22.7112,162.192,101.324,100.614,8.81759e-05,0.0854423,20.8258,468.076,0.0645182,0.0,0.0
2352,587.75,21.1576,22.2882,163.768,101.108,100.331,5.04463e-05,0.0852438,20.8266,468.096,0.0708248,0.0,0.0
2358,589.25,21.4933,22.3857,163.078,100.904,100.109,-2.28327e-05,0.0850706,20.827,468.096,0.0725863,0.0,0.0
2364,590.75,21.6973,22.2563,163.071,100.691,99.8809,-7.1343e-05,0.0848545,20.8281,468.086,0.0741555,0.0,0.0
2370,592.25,21.0722,22.3195,165.82,100.492,99.7774,-9.04144e-05,0.0845886,20.8289,468.096,0.0655023,0.0,0.0
2376,593.75,20.937,21.9996,163.154,100.31,99.5188,-1.19778e-05,0.0843108,20.8293,468.116,0.0726287,0.0,0.0
2382,595.25,21.0318,22.4805,165.453,100.178,99.4656,7.90117e-05,0.0840899,20.8296,468.106,0.0654643,0.0,0.0
2388,596.75,20.8915,22.6463,170.618,100.072,99.3616,0.000161164,0.0839281,20.8297,468.086,0.0653893,0.0,0.0
2394,598.25,21.0715,22.3112,164.9,100.02,99.2486,0.000175892,0.083804,20.8298,468.096,0.0710365,0.0,0.0
2400,599.75,21.0993,22.0299,162.494,100.001,99.2197,0.00011516,0.0836868,20.8298,468.096,0.0720079,0.0,0.0
2406,601.25,21.2393,22.821,167.958,100.037,99.2328,-1.37032e-06,0.0835801,20.8298,468.076,0.0740405,0.0,0.0
2412,602.75,21.3401,21.6083,161.71,100.11,99.3611,,0.0835599,,468.166,0.0688751,0.0,0.0
2418,604.25,20.5728,21.6857,164.963,100.221,99.5736,,0.0834025,,468.086,0.0594322,0.0,0.0
2424,605.75,21.1244,21.9716,165.456,100.351,99.7181,,,,468.106,0.0580791,0.0,0.0
2430,607.25,20.7928,22.1691,163.922,100.502,99.7678,,,,468.106,0.067292,0.0,0.0
2436,608.75,21.1057,21.8954,167.159,100.673,99.9468,,,,468.116,0.0664102,0.0,0.0
2442,610.25,20.7599,21.6726,167.101,100.817,100.107,,,,468.066,0.0648973,0.0,0.0
2448,611.75,20.6155,21.5465,169.569,100.966,100.19,,,,468.096,0.0708487,0.0,0.0
2450,612.25,20.3669,21.5223,164.628,101.011,100.151,,,,468.096,0.0784709,0.0,0.0