File: 01_Data/Overstuffed_Chair_Polyester_Batting/Cone/Overstuffed_Chair_Polyester_Batting_Cone_HF50Scan_210326_R3.csv
Names,Time,Stack TC,Smoke TC,Exh Press,Smoke Comp,Smoke Meas,CO Meter,CO2 Meter,O2 Meter,Sample Mass,Ext Coeff,Start Test,Flame Verif
Chan Gain,,500,500,1,1,1,1,1,1,1,1,1.0,1.0
Offset,,0,0,0.138348,0,0,0,0,0,0,0,0.0,0.0
Gain,,1,1,25.011,13.5067,16.616,1,1,1,1.00091,1.04608,1.0,1.0
Units,sec,C,C,Pa,%,%,%,%,%,g,/m,,
Baseline,,32.8908,35.0408,162.304,102.46,99.5145,-0.00135926,0.0472212,20.9613,0.000792389,0.26771,,
2,0.25,30.6826,32.66,162.18,102.447,99.6071,-0.00153348,0.0477484,20.9589,487.414,0.25795,0.0,0.0
4,0.75,30.7298,32.3164,159.193,102.46,99.1994,-0.00151551,0.0478538,20.9588,487.454,0.296803,0.0,0.0
6,1.25,30.9155,32.3966,163.727,102.441,99.4073,-0.00149326,0.0480024,20.9588,487.464,0.275894,0.0,0.0
8,1.75,30.3505,32.5013,160.435,102.456,99.3814,-0.00146832,0.0481799,20.9588,487.464,0.279611,0.0,0.0
10,2.25,30.7302,32.7014,161.846,102.443,99.3277,-0.00144811,0.0483236,20.9587,487.444,0.283393,0.0,0.0
12,2.75,30.677,32.5461,162.854,102.439,99.17,-0.00141591,0.0485202,20.9587,487.414,0.297642,0.0,0.0
14,3.25,31.2183,32.6899,160.185,102.439,99.3768,-0.00138982,0.0486795,20.9587,487.414,0.278518,0.0,0.0
16,3.75,30.3295,32.4427,159.314,102.44,99.4585,-0.00136017,0.0488085,20.9584,487.404,0.271056,0.0,0.0
18,4.25,30.8974,33.2798,162.452,102.441,99.2024,-0.00133615,0.04902,20.9578,487.404,0.294824,0.0,0.0
20,4.75,30.3243,32.9948,157.723,102.454,99.5021,-0.0013106,0.0491913,20.9567,487.404,0.268253,0.0,0.0
22,5.25,30.8574,33.1212,161.343,102.434,99.5858,-0.00128991,0.0494505,20.9551,487.384,0.258731,0.0,0.0
24,5.75,31.154,32.8826,161.03,102.444,99.2009,-0.00126949,0.0496604,20.9538,487.384,0.295223,0.0,0.0
26,6.25,30.6831,32.6543,165.48,102.438,99.6527,-0.00124591,0.0500037,20.9524,487.374,0.252971,0.0,0.0
28,6.75,30.6434,32.8446,161.682,102.44,99.1553,-0.00123956,0.0502818,20.952,487.364,0.299039,0.0,0.0
30,7.25,31.2197,32.8762,162.451,102.439,99.5067,-0.00121532,0.0506008,20.9513,487.344,0.266539,0.0,0.0
32,7.75,31.1996,33.1444,164.21,102.432,99.2607,-0.00119568,0.0508591,20.9507,487.354,0.288545,0.0,0.0
34,8.25,30.3991,32.7628,162.655,102.438,99.2328,-0.00116394,0.0510966,20.9501,487.344,0.291715,0.0,0.0
36,8.75,30.5409,32.9645,163.937,102.44,99.3556,-0.00113823,0.0513143,20.949,487.344,0.280559,0.0,0.0
38,9.25,31.1917,33.4053,163.786,102.439,100.047,-0.0011142,0.0516461,20.9487,487.374,0.216874,0.0,0.0
40,9.75,30.99,33.2671,161.123,102.441,99.318,-0.00109185,0.051748,20.9482,487.364,0.284062,0.0,0.0
42,10.25,31.1829,33.404,167.415,102.434,99.8606,-0.00107055,0.0519223,20.9478,487.344,0.233515,0.0,0.0
44,10.75,31.3247,33.4179,162.742,102.437,99.4494,-0.0010504,0.0520768,20.9479,487.354,0.271603,0.0,0.0
46,11.25,31.3862,32.9914,160.879,102.43,99.5624,-0.00103601,0.052202,20.948,487.344,0.260548,0.0,0.0
48,11.75,31.0785,33.5146,161.764,102.44,99.103,-0.00102608,0.052357,20.9481,487.344,0.303874,0.0,0.0
50,12.25,31.0913,33.2705,164.576,102.423,99.5898,-0.00102445,0.0524825,20.9481,487.344,0.257434,0.0,0.0
52,12.75,31.0893,33.6724,164.45,102.426,99.5863,-0.0010289,0.0526123,20.9482,487.354,0.258019,0.0,0.0
54,13.25,31.2649,33.4061,159.302,102.418,100.245,-0.0010325,0.0527429,20.9482,487.334,0.196703,0.0,0.0
56,13.75,30.9488,33.8999,159.874,102.441,99.6973,-0.00104439,0.0528627,20.9483,487.334,0.249122,0.0,0.0
58,14.25,30.7488,33.8655,157.427,102.418,99.4625,-0.0010621,0.0529725,20.9483,487.334,0.268688,0.0,0.0
60,14.75,31.2345,33.4586,162.028,102.42,99.3885,-0.00107773,0.0531107,20.9483,487.324,0.275706,0.0,0.0
62,15.25,31.6573,33.8939,159.701,102.413,99.1248,-0.00109154,0.0532672,20.9483,487.314,0.299455,0.0,0.0
64,15.75,31.2641,33.7702,164.323,102.44,99.176,-0.00110401,0.0533938,20.9483,487.314,0.297152,0.0,0.0
66,16.25,30.8123,34.0039,159.692,102.407,99.0052,-0.00111526,0.0535106,20.9483,487.304,0.309987,0.0,0.0
68,16.75,31.3207,33.9153,168.348,102.421,99.315,-0.0011263,0.0536178,20.9484,487.314,0.28257,0.0,0.0
70,17.25,31.1035,33.6957,159.807,102.411,99.5645,-0.00113697,0.0537611,20.9484,487.314,0.258663,0.0,0.0
72,17.75,30.8884,34.0814,162.022,102.419,99.3424,-0.00114946,0.0539279,20.9484,487.314,0.279894,0.0,0.0
74,18.25,31.7373,33.6556,162.95,102.41,99.355,-0.00116304,0.054063,20.9479,487.304,0.27791,0.0,0.0
76,18.75,31.5683,33.8787,160.357,102.414,99.1258,-0.00118365,0.0542796,20.9476,487.294,0.299435,0.0,0.0
78,19.25,32.0991,34.0993,164.221,102.408,99.3175,-0.001209,0.0544551,20.9473,487.314,0.281155,0.0,0.0
80,19.75,31.3766,33.6229,158.604,102.42,99.314,-0.00122953,0.0546911,20.9466,487.314,0.282627,0.0,0.0
82,20.25,31.5229,33.9655,160.913,102.398,99.2191,-0.00124616,0.0548822,20.946,487.314,0.289361,0.0,0.0
84,20.75,31.7944,34.3264,165.974,102.412,98.8951,-0.00125964,0.0551443,20.9461,487.294,0.32067,0.0,0.0
86,21.25,31.7545,34.5041,165.27,102.389,98.7861,-0.00127888,0.0554272,20.9462,487.284,0.328723,0.0,0.0
88,21.75,31.0833,33.782,161.303,102.411,98.8317,-0.00130197,0.0557198,20.9461,487.314,0.326442,0.0,0.0
90,22.25,31.5417,33.6541,157.903,102.381,99.8936,-0.00131105,0.0559568,20.9457,487.324,0.225686,0.0,0.0
92,22.75,31.6494,34.0587,157.373,102.404,98.5331,-0.00130976,0.0561488,20.9454,487.304,0.353625,0.0,0.0
94,23.25,31.7359,34.139,161.424,102.395,98.92,-0.00129333,0.0564597,20.9447,487.314,0.316777,0.0,0.0
96,23.75,31.4571,34.1458,158.259,102.393,98.4154,-0.00126619,0.0568513,20.9442,487.324,0.363552,0.0,0.0
98,24.25,31.32,34.1516,161.836,102.385,98.3617,-0.0012442,0.0571685,20.9437,487.314,0.367825,0.0,0.0
100,24.75,31.9285,33.785,162.067,102.388,99.0036,-0.00119959,0.0576804,20.9434,487.304,0.308465,0.0,0.0
102,25.25,32.1371,34.0098,162.892,102.37,98.3176,-0.00116346,0.0580951,20.9433,487.314,0.370613,0.0,0.0
104,25.75,31.6295,34.6479,162.707,102.386,98.7303,-0.00111228,0.0585512,20.9432,487.294,0.33361,0.0,0.0
106,26.25,31.747,34.1486,162.612,102.365,98.3338,-0.00107082,0.0590287,20.9431,487.294,0.368655,0.0,0.0
108,26.75,31.7781,33.848,162.699,102.369,97.6721,-0.00101531,0.0595008,20.943,487.294,0.430984,0.0,0.0
110,27.25,31.5617,34.3028,159.132,102.37,97.4778,-0.000970353,0.0599598,20.943,487.274,0.449322,0.0,0.0
112,27.75,31.8964,34.8405,160.437,102.37,97.8526,-0.000933936,0.0603316,20.9429,487.294,0.41415,0.0,0.0
114,28.25,31.6867,34.276,161.969,102.354,96.9915,-0.000876428,0.0607,20.9429,487.284,0.493809,0.0,0.0
116,28.75,31.9909,34.7278,160.907,102.365,97.13,-0.000829846,0.0610125,20.9433,487.264,0.481719,0.0,0.0
118,29.25,31.5407,34.4709,164.843,102.355,97.133,-0.000768975,0.0612784,20.9436,487.254,0.480471,0.0,0.0
120,29.75,32.2667,34.3101,159.843,102.348,97.3607,-0.00071967,0.0614938,20.9439,487.244,0.458359,0.0,0.0
122,30.25,31.7867,34.5737,159.373,102.339,96.9206,-0.000640761,0.0616328,20.9441,487.244,0.499198,0.0,0.0
124,30.75,32.3885,34.7766,162.555,102.357,97.0301,-0.000576844,0.0617137,20.9443,487.244,0.490422,0.0,0.0
126,31.25,31.8587,34.3785,163.784,102.348,96.8009,-0.000494946,0.0617862,20.9445,487.224,0.511347,0.0,0.0
128,31.75,31.8934,34.8315,156.229,102.349,96.7598,-0.000401495,0.0618513,20.9446,487.214,0.515315,0.0,0.0
130,32.25,31.8334,34.8197,168.245,102.334,97.2826,-0.000301427,0.0618687,20.9447,487.224,0.464539,0.0,0.0
132,32.75,32.2679,34.6594,157.847,102.338,95.8668,-0.000198437,0.061851,20.9447,487.214,0.599395,0.0,0.0
134,33.25,32.5023,35.1781,159.93,102.338,95.0687,-9.1254e-05,0.0618366,20.9448,487.193,0.676111,0.0,0.0
136,33.75,32.282,34.5219,158.746,102.336,95.6128,1.69496e-05,0.0617712,20.9449,487.193,0.623521,0.0,0.0
138,34.25,31.9507,34.5663,159.048,102.322,94.2062,0.000104595,0.0617182,20.9453,487.163,0.758265,0.0,0.0
140,34.75,31.8668,35.009,160.181,102.323,95.0423,0.000141959,0.0616216,20.9456,487.163,0.677325,0.0,0.0
142,35.25,32.2479,34.5989,163.21,102.317,96.1544,0.000251056,0.0615433,20.9459,487.153,0.569994,0.0,0.0
144,35.75,31.9377,34.9956,160.454,102.312,93.8527,0.000339425,0.0614304,20.9465,487.153,0.791869,0.0,0.0
146,36.25,31.6347,35.0549,165.684,102.311,94.0018,0.000434238,0.0612944,20.9469,487.143,0.77723,0.0,0.0
148,36.75,31.6049,35.0897,162.139,102.309,94.6843,0.000511035,0.0611843,20.9473,487.123,0.710659,0.0,0.0
150,37.25,31.9817,35.0277,163.254,102.301,94.554,0.000600163,0.0609607,20.9476,487.113,0.722634,0.0,0.0
152,37.75,32.2654,35.336,158.54,102.296,93.3127,0.000672356,0.0608655,20.9479,487.123,0.84338,0.0,0.0
154,38.25,31.7021,35.3274,159.642,102.293,91.9725,0.000763899,0.0607022,20.9481,487.113,0.975869,0.0,0.0
156,38.75,32.3467,35.1548,162.876,102.292,93.3406,0.000838048,0.0605696,20.9482,487.103,0.840342,0.0,0.0
158,39.25,32.2504,35.3884,159.04,102.288,93.6661,0.000911657,0.0604622,20.9483,487.093,0.808024,0.0,0.0
160,39.75,32.0077,35.1749,159.063,102.29,93.3238,0.000983472,0.0604155,20.9485,487.073,0.841765,0.0,0.0
162,40.25,32.0638,34.7916,162.674,102.287,92.2747,0.00106372,0.0603776,20.9485,487.053,0.945249,0.0,0.0
164,40.75,32.8666,35.8771,159.41,102.272,92.1637,0.00112872,0.0604544,20.9486,487.043,0.95493,0.0,0.0
166,41.25,32.0157,35.0691,162.78,102.279,92.4354,0.00118137,0.0605167,20.9487,487.033,0.928538,0.0,0.0
168,41.75,32.9956,35.1456,160.08,102.277,90.5866,0.00124404,0.0606342,20.9487,487.003,1.11375,0.0,0.0
170,42.25,32.5976,35.6867,158.965,102.27,92.407,0.00131283,0.0607294,20.9487,486.993,0.930581,0.0,0.0
172,42.75,32.4665,35.3133,156.47,102.264,90.1947,0.00136855,0.0608065,20.9488,486.983,1.15243,0.0,0.0
174,43.25,32.5358,35.739,161.784,102.269,91.8259,0.00141369,0.060869,20.9488,486.973,0.988357,0.0,0.0
176,43.75,32.71,35.8063,160.152,102.261,89.683,0.0015277,0.060962,20.9488,486.973,1.2043,0.0,0.0
178,44.25,32.5672,35.8901,158.249,102.261,89.2408,0.00162005,0.0610756,20.9492,486.953,1.24965,0.0,0.0
180,44.75,32.7467,36.0091,159.306,102.249,89.645,0.00179221,0.0611675,20.9497,486.913,1.20711,0.0,0.0
182,45.25,32.9853,35.4786,155.586,102.258,88.7145,0.00193167,0.0612915,20.9498,486.893,1.30375,0.0,0.0
184,45.75,32.1171,35.9223,158.082,102.242,89.2023,0.00213977,0.0614365,20.9493,486.873,1.25191,0.0,0.0
186,46.25,32.8505,35.7515,159.62,102.254,88.1298,0.00230833,0.061554,20.9491,486.853,1.36405,0.0,0.0
188,46.75,33.0685,36.279,159.519,102.243,85.9955,0.00252381,0.0617128,20.9489,486.833,1.58801,0.0,0.0
190,47.25,32.3807,36.3033,156.126,102.241,87.3824,0.0027694,0.0618987,20.9477,486.803,1.44102,0.0,0.0
192,47.75,32.9692,35.9315,157.837,102.231,86.3718,0.00308571,0.0620493,20.9456,486.803,1.54688,0.0,0.0
194,48.25,33.5249,36.4092,163.962,102.238,87.7571,0.00344755,0.063289,20.9439,486.763,1.40146,0.0,0.0
196,48.75,33.2533,35.9078,156.03,102.221,86.2516,0.00374065,0.0642932,20.9336,486.753,1.55869,0.0,0.0
198,49.25,33.4238,36.3937,160.382,102.233,87.6552,0.00433586,0.0705031,20.9252,486.643,1.41172,0.0,1.0
200,49.75,33.085,36.6129,153.369,102.215,90.9685,0.00481799,0.0755332,20.9065,486.473,1.06964,0.0,1.0
202,50.25,33.4915,37.229,156.879,102.221,84.0134,0.00550735,0.0904362,20.8805,486.473,1.80003,0.0,1.0
204,50.75,33.2773,37.7097,149.142,102.205,73.743,0.00606573,0.102508,20.8474,486.343,2.99506,0.0,1.0
206,51.25,34.0654,38.9219,145.859,102.212,70.1681,0.00681149,0.120159,20.8099,486.203,3.45164,0.0,1.0
208,51.75,34.6455,39.2411,143.311,102.201,72.5605,0.00741556,0.141543,20.7795,486.072,3.14299,0.0,1.0
210,52.25,35.6797,40.1054,146.797,102.206,79.5845,0.00814349,0.158864,20.7392,485.962,2.29561,0.0,1.0
212,52.75,35.6598,40.9209,153.755,102.191,82.9221,0.00894789,0.184521,20.7009,485.972,1.9173,0.0,1.0
214,53.25,35.7313,40.6494,150.476,102.204,76.786,0.00986567,0.205303,20.6649,485.842,2.62391,0.0,1.0
216,53.75,35.0588,40.6802,148.303,102.189,77.1602,0.0108487,0.230867,20.6274,485.772,2.57793,0.0,1.0
218,54.25,35.6252,41.4076,141.901,102.2,71.0976,0.0119768,0.251574,20.5897,485.632,3.32978,0.0,0.0
220,54.75,36.3331,42.2473,150.843,102.173,69.6392,0.0131892,0.274594,20.5591,485.512,3.51759,0.0,0.0
222,55.25,37.0745,43.08,139.052,102.19,65.6617,0.0141713,0.298862,20.5226,485.432,4.05881,0.0,0.0
224,55.75,37.3946,44.2111,146.006,102.174,65.0324,0.0149668,0.325157,20.4824,485.312,4.14566,0.0,0.0
226,56.25,38.0968,45.0399,136.91,102.183,63.5284,0.0167385,0.352432,20.4499,485.222,4.36118,0.0,0.0
228,56.75,38.3197,46.3562,139.289,102.168,61.171,0.0181735,0.381803,20.4128,485.052,4.70683,0.0,0.0
230,57.25,39.2278,47.3813,133.123,102.181,60.7354,0.0199714,0.412146,20.3729,484.941,4.77355,0.0,0.0
232,57.75,40.3544,48.9536,134.185,102.157,57.5819,0.0214276,0.436724,20.3308,484.781,5.26074,0.0,0.0
234,58.25,41.0822,49.9117,135.319,102.168,55.8152,0.0230875,0.476126,20.2878,484.651,5.54764,0.0,0.0
236,58.75,42.2297,51.7491,142.189,102.149,61.2227,0.024432,0.508043,20.2447,484.561,4.69741,0.0,0.0
238,59.25,42.5075,52.2229,138.659,102.162,58.0048,0.0258537,0.533895,20.2024,484.381,5.19404,0.0,0.0
240,59.75,43.1059,53.229,138.165,102.138,62.0766,0.0270053,0.568267,20.1587,484.251,4.56931,0.0,0.0
242,60.25,43.6588,54.3164,138.665,102.144,59.3739,0.0281209,0.596108,20.1234,484.141,4.9783,0.0,0.0
244,60.75,45.1594,56.014,135.01,102.144,59.4687,0.0290246,0.626962,20.0894,484.071,4.96366,0.0,0.0
246,61.25,46.1377,57.2801,133.304,102.143,54.6357,0.0298177,0.651953,20.0619,483.891,5.74133,0.0,0.0
248,61.75,46.4632,57.5296,138.212,102.121,60.1446,0.0304601,0.678476,20.0396,483.74,4.85787,0.0,0.0
250,62.25,46.7592,58.1828,136.934,102.122,60.706,0.0309804,0.702371,20.0215,483.63,4.77274,0.0,0.0
252,62.75,47.7696,59.5376,136.746,102.12,60.6304,0.0313223,0.723898,20.0069,483.54,4.78395,0.0,0.0
254,63.25,47.8424,60.5366,137.827,102.118,63.1349,0.0315993,0.742817,19.995,483.43,4.41234,0.0,0.0
256,63.75,48.4718,61.2718,130.584,102.127,56.086,0.0316988,0.759474,19.9856,483.3,5.49957,0.0,0.0
258,64.25,48.9968,62.0093,137.028,102.099,58.9794,0.0317794,0.772967,19.9783,483.17,5.03544,0.0,0.0
260,64.75,49.5932,62.7618,134.621,102.098,56.8796,0.03175,0.785553,19.9723,483.08,5.36801,0.0,0.0
262,65.25,50.0964,63.3395,149.103,102.096,59.9433,0.0317261,0.795748,19.9684,482.95,4.88645,0.0,0.0
264,65.75,50.6054,63.8685,130.688,102.092,60.2988,0.0317068,0.804005,19.9661,482.83,4.83183,0.0,0.0
266,66.25,51.2399,64.4388,142.928,102.094,63.4402,0.031565,0.810869,19.9642,482.749,4.36601,0.0,0.0
268,66.75,51.1401,64.9449,145.755,102.097,64.793,0.0313366,0.816428,19.9657,482.669,4.17264,0.0,0.0
270,67.25,51.2382,64.9189,143.733,102.089,60.2278,0.0311516,0.822619,19.967,482.529,4.84231,0.0,0.0
272,67.75,51.583,65.2968,127.138,102.09,56.6047,0.0306979,0.827634,19.9681,482.379,5.41176,0.0,0.0
274,68.25,52.4487,66.803,134.76,102.066,61.6791,0.0303304,0.831696,19.9692,482.279,4.62182,0.0,0.0
276,68.75,52.4114,67.0376,133.941,102.07,63.6734,0.029961,0.835438,19.9701,482.229,4.33014,0.0,0.0
278,69.25,53.0357,67.8693,137.371,102.069,66.0344,0.0293293,0.838875,19.9717,482.159,3.99598,0.0,0.0
280,69.75,53.7068,67.8573,137.724,102.065,69.7832,0.0288176,0.841659,19.973,482.079,3.48889,0.0,0.0
282,70.25,54.0004,68.2316,141.058,102.083,73.3586,0.0277256,0.837602,19.9829,482.069,3.03206,0.0,0.0
284,70.75,54.4242,69.1209,148.299,102.061,75.1324,0.026841,0.834316,19.9991,481.969,2.81078,0.0,0.0
286,71.25,53.8584,68.692,138.241,102.052,73.2486,0.0255743,0.823811,20.0203,481.919,3.04301,0.0,0.0
288,71.75,53.7559,68.0325,143.05,102.057,77.5152,0.0245483,0.819332,20.045,481.889,2.52392,0.0,0.0
290,72.25,54.7717,68.9343,138.355,102.041,77.7266,0.0231489,0.811674,20.0734,481.859,2.49751,0.0,0.0
292,72.75,54.0738,69.3185,143.354,102.043,78.039,0.0220154,0.794099,20.1041,481.859,2.4609,0.0,0.0
294,73.25,54.3379,68.8711,145.242,102.037,82.4095,0.0208029,0.779863,20.1416,481.829,1.96032,0.0,0.0
296,73.75,53.7022,67.7047,149.693,102.035,85.3034,0.0195559,0.753638,20.1834,481.769,1.6435,0.0,0.0
298,74.25,53.6658,68.5724,149.405,102.028,86.671,0.0180819,0.732395,20.2265,481.749,1.49689,0.0,0.0
300,74.75,53.5888,68.1466,147.673,102.03,88.6618,0.016888,0.703765,20.2696,481.729,1.28869,0.0,0.0
302,75.25,53.6068,67.1461,145.241,102.019,90.0339,0.0155238,0.680575,20.3121,481.708,1.1468,0.0,0.0
304,75.75,53.0434,66.8089,154.002,102.026,90.4051,0.0144187,0.655108,20.3532,481.668,1.10968,0.0,0.0
306,76.25,54.3433,66.4139,150.985,102.016,92.5445,0.0135236,0.628463,20.3866,481.638,0.894098,0.0,0.0
308,76.75,51.824,66.523,148.976,102.017,92.6474,0.0123409,0.601826,20.4136,481.628,0.883971,0.0,0.0
310,77.25,52.4411,65.5039,156.67,102,93.23,0.0113828,0.575699,20.448,481.598,0.824963,0.0,0.0
312,77.75,51.9149,64.884,159.165,102.011,93.5642,0.0104399,0.550241,20.4758,481.608,0.793132,0.0,0.0
314,78.25,51.9567,64.3469,150.281,101.994,94.3446,0.0095258,0.525753,20.5073,481.578,0.715357,0.0,0.0
316,78.75,51.3175,63.9698,154.912,102.012,94.4577,0.00878542,0.501249,20.5328,481.568,0.705996,0.0,0.0
318,79.25,51.319,63.3295,154.545,101.996,94.5834,0.00799813,0.477198,20.5579,481.548,0.692342,0.0,0.0
320,79.75,50.954,62.8021,151.565,102.007,95.4891,0.00736043,0.457717,20.5823,481.538,0.605936,0.0,0.0
322,80.25,50.676,62.3038,154.194,101.991,96.3445,0.00673927,0.436753,20.6082,481.558,0.522614,0.0,0.0
324,80.75,50.1694,61.7296,157.21,101.991,96.8871,0.00623612,0.415106,20.6346,481.558,0.471046,0.0,0.0
326,81.25,50.014,61.4605,161.64,101.976,98.2192,0.00577264,0.397572,20.6601,481.578,0.344445,0.0,0.0
328,81.75,49.7286,60.8004,158.122,101.986,98.8038,0.00539722,0.376645,20.6842,481.558,0.290912,0.0,0.0
330,82.25,49.2278,60.3512,156.65,101.981,98.9565,0.00506705,0.359695,20.7067,481.568,0.276266,0.0,0.0
332,82.75,48.8055,59.6019,159.486,101.986,99.0052,0.00479962,0.340328,20.7274,481.558,0.272161,0.0,0.0
334,83.25,48.48,59.2741,160.381,101.971,99.7526,0.004583,0.32464,20.7441,481.568,0.201811,0.0,0.0
336,83.75,47.4479,57.8998,155.156,101.971,99.9275,0.00439885,0.306994,20.7598,481.578,0.185733,0.0,0.0
338,84.25,47.7103,57.6751,152.536,101.959,99.3028,0.00424969,0.292701,20.7744,481.568,0.242241,0.0,0.0
340,84.75,46.9941,57.1207,158.849,101.973,99.1492,0.00413135,0.276935,20.7882,481.588,0.257675,0.0,0.0
342,85.25,46.9007,56.7098,157.907,101.965,99.8839,0.00403549,0.264165,20.801,481.578,0.189182,0.0,0.0
344,85.75,46.4546,55.9968,156.718,101.97,99.5934,0.00395916,0.251518,20.8113,481.578,0.216433,0.0,0.0
346,86.25,46.5633,54.9774,156.18,101.955,99.6111,0.0038985,0.239201,20.8224,481.588,0.213425,0.0,0.0
348,86.75,46.1065,55.2823,152.209,101.965,99.6228,0.00385394,0.229225,20.8314,481.598,0.213241,0.0,0.0
350,87.25,45.6351,54.4082,157.186,101.95,99.5386,0.00382197,0.219037,20.8418,481.598,0.219626,0.0,0.0
352,87.75,45.1962,54.4615,162.824,101.962,99.2389,0.00379606,0.208889,20.8502,481.588,0.24837,0.0,0.0
354,88.25,45.1316,53.6143,154.068,101.958,99.4083,0.00378874,0.199399,20.8571,481.588,0.232352,0.0,0.0
356,88.75,44.8882,53.1935,155.941,101.97,100.165,0.00378281,0.19057,20.8633,481.578,0.163845,0.0,0.0
358,89.25,45.0524,53.3407,152.788,101.951,99.8129,0.003778,0.182253,20.869,481.588,0.194481,0.0,0.0
360,89.75,44.9195,52.5444,158.553,101.96,98.9727,0.00378065,0.174468,20.8742,481.578,0.272906,0.0,0.0
362,90.25,44.3199,52.2906,156.837,101.948,99.2699,0.00378867,0.168162,20.8791,481.578,0.244286,0.0,0.0
364,90.75,43.9049,51.8793,162.884,101.963,99.2998,0.00379518,0.161105,20.883,481.588,0.242893,0.0,0.0
366,91.25,43.9075,50.9748,157.354,101.945,98.9626,0.00378678,0.155389,20.8867,481.588,0.272475,0.0,0.0
368,91.75,43.6506,50.8479,155.248,101.96,99.5898,0.00377998,0.150759,20.8901,481.598,0.215796,0.0,0.0
370,92.25,43.6163,50.7635,158.991,101.965,99.4418,0.00375709,0.14569,20.8933,481.588,0.22993,0.0,0.0
372,92.75,43.0853,50.5546,155.452,101.972,98.9316,0.00373855,0.140398,20.8963,481.568,0.277792,0.0,0.0
374,93.25,42.8459,49.7354,158.751,101.941,99.2678,0.00370721,0.135394,20.8988,481.568,0.243805,0.0,0.0
376,93.75,42.8074,49.1335,162.668,101.958,99.2577,0.00366713,0.130696,20.9021,481.578,0.246301,0.0,0.0
378,94.25,42.7564,49.6863,159.019,101.941,99.7597,0.00361901,0.12689,20.9048,481.578,0.19845,0.0,0.0
380,94.75,41.8814,48.6783,161.354,101.957,99.4184,0.00356593,0.123136,20.9074,481.588,0.231379,0.0,0.0
382,95.25,42.1212,48.8503,155.27,101.938,99.423,0.00350991,0.119491,20.9095,481.588,0.229213,0.0,0.0
384,95.75,41.8736,48.8038,162.099,101.943,99.852,0.00345279,0.116021,20.9117,481.588,0.190188,0.0,0.0
386,96.25,42.3206,48.3516,156.307,101.944,99.3916,0.00340652,0.112743,20.9135,481.588,0.232709,0.0,0.0
388,96.75,41.448,47.5364,160.15,101.949,99.9711,0.003348,0.1096,20.9153,481.588,0.1798,0.0,0.0
390,97.25,41.2903,46.9166,158.66,101.944,99.6527,0.0033006,0.106614,20.9173,481.568,0.208557,0.0,0.0
392,97.75,41.0988,46.874,161.214,101.954,99.4732,0.00326221,0.104196,20.9189,481.578,0.226066,0.0,0.0
394,98.25,41.4721,47.1102,162.665,101.933,99.209,0.00323358,0.101543,20.9202,481.578,0.248576,0.0,0.0
396,98.75,40.9956,46.5675,156.895,101.955,99.5371,0.0032104,0.0993935,20.9212,481.568,0.220247,0.0,0.0
398,99.25,40.6216,46.5301,161.906,101.944,99.7567,0.00321019,0.0969595,20.9224,481.558,0.19899,0.0,0.0
400,99.75,40.5283,46.3692,157.879,101.958,99.886,0.00321003,0.094988,20.9236,481.568,0.188439,0.0,0.0
402,100.25,40.5273,46.0034,160.209,101.944,100.137,0.00323839,0.0930624,20.9251,481.568,0.164111,0.0,0.0
404,100.75,40.683,45.4095,165.089,101.958,99.5275,0.00326136,0.0912071,20.9267,481.578,0.221396,0.0,0.0
406,101.25,40.3472,45.3667,160.457,101.943,99.2557,0.00330104,0.0897042,20.928,481.568,0.245154,0.0,0.0
408,101.75,40.2408,44.8305,160.643,101.958,100.012,0.00333318,0.087783,20.9291,481.578,0.176811,0.0,0.0
410,102.25,39.868,45.497,162.3,101.944,99.8794,0.00337782,0.0862269,20.9299,481.578,0.187747,0.0,0.0
412,102.75,40.1918,44.9633,158.494,101.965,99.5979,0.00341398,0.0845334,20.9306,481.568,0.21553,0.0,0.0
414,103.25,39.8722,45.1377,161.574,101.946,100.011,0.00345195,0.0831616,20.9314,481.568,0.175837,0.0,0.0
416,103.75,39.702,44.8895,161.854,101.948,99.4823,0.00348271,0.081726,20.9323,481.568,0.224667,0.0,0.0
418,104.25,39.93,44.1354,159.132,101.945,99.676,0.00350763,0.0805632,20.933,481.568,0.20652,0.0,0.0
420,104.75,39.0689,43.8106,163.009,101.957,99.9397,0.0035265,0.0793375,20.9335,481.578,0.183391,0.0,0.0
422,105.25,38.9625,43.7611,156.86,101.948,100.247,0.00354061,0.0783448,20.934,481.558,0.154404,0.0,0.0
424,105.75,39.1202,43.826,158.762,101.968,99.7815,0.00355596,0.0773772,20.9344,481.558,0.198894,0.0,0.0
426,106.25,38.7121,43.4217,158.071,101.958,99.0711,0.00357192,0.0764463,20.9347,481.558,0.263605,0.0,0.0
428,106.75,38.8793,43.1175,156.554,101.97,100.046,0.00359465,0.0756924,20.9349,481.568,0.174778,0.0,0.0
430,107.25,38.1848,42.9316,152.93,101.972,99.3586,0.00362188,0.0746769,20.9355,481.578,0.238275,0.0,0.0
432,107.75,39.2124,43.2107,158.471,101.959,99.103,0.00365832,0.0738544,20.9361,481.568,0.260721,0.0,0.0
434,108.25,38.5113,42.7975,159.887,101.963,99.3718,0.00370078,0.0729966,20.9365,481.548,0.236167,0.0,0.0
436,108.75,38.8003,42.409,158.577,101.978,99.4519,0.00373517,0.0721294,20.9368,481.548,0.230182,0.0,0.0
438,109.25,38.6566,42.4709,160.931,101.972,99.6223,0.00381153,0.0714269,20.9371,481.558,0.213919,0.0,0.0
440,109.75,38.6649,42.6814,160.265,101.983,99.4849,0.00387337,0.0706289,20.9373,481.558,0.227549,0.0,0.0
442,110.25,38.3402,42.8396,161.255,101.971,99.2912,0.00396454,0.0699826,20.9377,481.558,0.244357,0.0,0.0
444,110.75,37.5843,42.338,157.648,101.981,99.2795,0.0040384,0.0692436,20.9383,481.558,0.2464,0.0,0.0
446,111.25,37.8298,41.6707,161.479,101.979,98.9245,0.00409822,0.068645,20.9387,481.558,0.279081,0.0,0.0
448,111.75,37.8882,42.5827,158.058,101.99,99.8616,0.00419403,0.0680893,20.9391,481.558,0.193494,0.0,0.0
450,112.25,38.3706,41.6489,155.276,101.998,99.1908,0.00427164,0.0675755,20.9394,481.548,0.256089,0.0,0.0
452,112.75,37.7988,41.8228,154.766,101.998,99.711,0.00433451,0.0671026,20.9396,481.548,0.208085,0.0,0.0
454,113.25,38.0453,41.7115,157.715,101.986,99.4088,0.00441537,0.0666686,20.9396,481.548,0.234864,0.0,0.0
456,113.75,38.1463,41.5651,157.779,101.985,99.4316,0.00448087,0.066317,20.9395,481.548,0.232647,0.0,0.0
458,114.25,38.3012,41.2924,162.088,101.993,99.8074,0.00454049,0.0658977,20.9393,481.538,0.198815,0.0,0.0
460,114.75,37.8853,41.6263,158.85,102,99.1973,0.0045947,0.0655581,20.9392,481.538,0.255664,0.0,0.0
462,115.25,37.8953,41.4801,156.931,102.005,100.16,0.00463861,0.065283,20.9392,481.548,0.167473,0.0,0.0
464,115.75,37.584,41.1861,159.157,102.005,99.2572,0.00470041,0.0648047,20.9391,481.558,0.250539,0.0,0.0
466,116.25,37.7797,41.1192,157.393,102.007,99.4321,0.00475046,0.0644173,20.939,481.548,0.234639,0.0,0.0
468,116.75,37.7837,41.0756,159.882,102.003,99.4174,0.00482601,0.064061,20.939,481.538,0.235589,0.0,0.0
470,117.25,37.689,41.13,161.814,102.008,99.8342,0.0048872,0.0637342,20.9389,481.538,0.197642,0.0,0.0
472,117.75,36.9118,40.9404,160.176,102.015,99.3424,0.00497179,0.0634413,20.9389,481.538,0.24363,0.0,0.0
474,118.25,37.4064,40.8036,156.392,102.007,99.6537,0.00504031,0.0631785,20.9389,481.538,0.214139,0.0,0.0
476,118.75,37.0499,39.9788,158.833,102.006,99.4818,0.00509582,0.0629656,20.9389,481.538,0.229944,0.0,0.0
478,119.25,36.714,40.6882,162.609,102.028,99.1598,0.00518712,0.0626991,20.9389,481.538,0.26162,0.0,0.0
480,119.75,37.2412,40.3945,163.846,102.01,99.7009,0.00526107,0.0624833,20.9388,481.538,0.21013,0.0,0.0
482,120.25,36.829,40.1817,161.206,102.023,100.05,0.00534856,0.0622731,20.9386,481.528,0.179191,0.0,0.0
484,120.75,36.7153,39.9551,160.945,102.02,99.7901,0.00541942,0.062071,20.9382,481.518,0.20281,0.0,0.0
486,121.25,37.2811,40.0828,157.211,102.029,99.3038,0.00550442,0.0618579,20.9379,481.518,0.248414,0.0,0.0
488,121.75,36.8207,40.3149,159.165,102.017,99.8292,0.00557327,0.0616407,20.9376,481.528,0.198923,0.0,0.0
490,122.25,36.2921,40.0995,160.262,102.03,99.4879,0.00564661,0.0614647,20.9374,481.518,0.231495,0.0,0.0
492,122.75,36.9145,39.8572,162.718,102.022,99.8611,0.00570602,0.061301,20.9372,481.528,0.196471,0.0,0.0
494,123.25,35.9862,39.9347,157.666,102.038,99.3723,0.00575943,0.0611493,20.937,481.538,0.242944,0.0,0.0
496,123.75,36.7357,39.8876,170.02,102.034,99.9372,0.00580745,0.0610264,20.9369,481.548,0.190559,0.0,0.0
498,124.25,36.6461,39.3852,156.128,102.041,99.5913,0.00584899,0.0609269,20.9368,481.548,0.222998,0.0,0.0
500,124.75,37.2572,39.3345,157.808,102.031,99.3363,0.00588501,0.060818,20.9372,481.548,0.245601,0.0,0.0
502,125.25,36.377,39.503,159.931,102.045,99.2607,0.0059142,0.0607044,20.9375,481.558,0.253844,0.0,0.0
504,125.75,36.5708,39.9854,159.9,102.028,99.6182,0.00594048,0.0605841,20.9378,481.548,0.219298,0.0,0.0
506,126.25,36.6525,39.5019,160.59,102.05,99.4636,0.00596415,0.0604611,20.9379,481.538,0.235557,0.0,0.0
508,126.75,36.6085,39.9678,159.282,102.03,99.247,0.0059906,0.0603333,20.9381,481.528,0.253776,0.0,0.0
510,127.25,36.5417,39.032,161.006,102.062,99.1674,0.00601856,0.0602044,20.9382,481.528,0.263992,0.0,0.0
512,127.75,36.3524,39.1072,158.591,102.031,99.3398,0.00604122,0.0600999,20.9383,481.528,0.24531,0.0,0.0
514,128.25,36.096,38.6739,158.284,102.047,99.3424,0.00608597,0.0599079,20.9384,481.518,0.246484,0.0,0.0
516,128.75,35.5618,38.6975,159.168,102.048,99.4468,0.00614474,0.0597523,20.9385,481.508,0.236915,0.0,0.0
518,129.25,36.4337,38.9392,157.4,102.047,98.8383,0.0062126,0.0596264,20.9386,481.518,0.293123,0.0,0.0
520,129.75,36.3424,39.0062,161.419,102.039,99.2455,0.00626758,0.0594438,20.9386,481.498,0.254731,0.0,0.0
522,130.25,35.3365,39.0621,160.755,102.047,99.5477,0.00636628,0.0592959,20.9386,481.498,0.227571,0.0,0.0
524,130.75,35.9523,38.4962,165.085,102.035,99.1502,0.00644623,0.0591224,20.9387,481.488,0.263142,0.0,0.0
526,131.25,35.8429,38.593,167.795,102.042,99.8631,0.00654505,0.0589819,20.9387,481.488,0.198026,0.0,0.0
528,131.75,36.2782,38.6961,153.957,102.038,99.6816,0.0066251,0.0588681,20.9387,481.498,0.214351,0.0,0.0
530,132.25,35.6842,38.403,158.345,102.037,99.1725,0.00668993,0.0587759,20.9387,481.488,0.261263,0.0,0.0
532,132.75,35.7522,39.0554,156.323,102.047,99.7369,0.00676012,0.0586878,20.9387,481.478,0.210079,0.0,0.0
534,133.25,35.403,38.8346,160.967,102.05,99.9296,0.00681697,0.0586165,20.9387,481.468,0.192702,0.0,0.0
536,133.75,35.8289,38.6149,159.811,102.043,99.8814,0.00686428,0.0585587,20.9388,481.498,0.19646,0.0,0.0
538,134.25,35.3367,38.3955,158.182,102.056,99.8616,0.00690261,0.0585118,20.9388,481.498,0.199426,0.0,0.0
540,134.75,35.7651,38.8869,159.609,102.046,99.6872,0.00693617,0.0584386,20.9388,481.248,0.214579,0.0,0.0
542,135.25,35.5718,38.7045,154.068,102.055,99.8794,0.00696336,0.0583475,20.9388,481.298,0.197721,0.0,0.0
544,135.75,35.6448,38.5938,162.054,102.038,99.89,0.00698538,0.0582737,20.9388,481.258,0.195186,0.0,0.0
546,136.25,36.2396,37.9872,161.355,102.055,99.2602,0.00700701,0.0581871,20.9388,481.308,0.25478,0.0,0.0
548,136.75,35.709,38.3277,157.549,102.042,99.7977,0.00702453,0.058117,20.9392,481.378,0.204076,0.0,0.0
550,137.25,35.7024,38.0872,157.369,102.061,99.6912,0.00704071,0.0580333,20.9395,481.418,0.215577,0.0,0.0
552,137.75,35.4848,38.1045,161.582,102.052,99.6537,0.00705562,0.0579656,20.9397,481.448,0.218217,0.0,0.0
554,138.25,35.4066,38.7248,160.539,102.055,99.4255,0.00707035,0.0579107,20.9399,481.428,0.239548,0.0,0.0
556,138.75,35.6179,38.1223,160.09,102.05,100.247,0.00708467,0.0578804,20.9401,481.458,0.163601,0.0,0.0
558,139.25,35.2615,38.1593,157.959,102.06,99.9696,0.00709627,0.0578685,20.9402,481.448,0.189915,0.0,0.0
560,139.75,35.3291,37.873,161.777,102.053,99.7283,0.00710567,0.057873,20.9403,481.468,0.211466,0.0,0.0
562,140.25,35.4991,37.7108,160.398,102.057,99.5219,0.00714361,0.0578894,20.94,481.498,0.230846,0.0,0.0
564,140.75,34.9367,38.226,164.394,102.052,99.4828,0.00717434,0.0579027,20.9397,481.498,0.233928,0.0,0.0
566,141.25,35.1239,37.9072,156.068,102.057,99.6973,0.00722829,0.0579134,20.9394,481.518,0.214684,0.0,0.0
568,141.75,35.565,37.6246,157.363,102.059,100.676,0.007272,0.0579221,20.939,481.538,0.125112,0.0,0.0
570,142.25,35.5726,38.1353,164.041,102.054,99.5619,0.00734663,0.0579503,20.9387,481.538,0.226894,0.0,0.0
572,142.75,35.0629,38.4881,159.084,102.056,99.495,0.00740708,0.0579923,20.9385,481.558,0.233213,0.0,0.0
574,143.25,35.1958,37.3619,161.379,102.061,99.7191,0.00749532,0.0580262,20.9383,481.518,0.213048,0.0,0.0
576,143.75,35.2679,37.5802,162.847,102.051,99.2562,0.0075668,0.0580933,20.9382,481.508,0.254822,0.0,0.0
578,144.25,35.8846,38.2138,157.32,102.065,99.2323,0.00763938,0.0581477,20.9381,481.508,0.258249,0.0,0.0
580,144.75,35.3169,37.8563,158.457,102.06,100.217,0.00771138,0.0581783,20.938,481.508,0.167276,0.0,0.0
582,145.25,35.035,37.7707,157.366,102.064,99.4443,0.00777704,0.0582031,20.9379,481.508,0.238632,0.0,0.0
584,145.75,35.208,37.9343,162.154,102.065,99.8991,0.00783685,0.05825,20.9378,481.508,0.196794,0.0,0.0
586,146.25,35.2233,38.3675,159.942,102.065,99.7709,0.00788528,0.058288,20.9378,481.508,0.208585,0.0,0.0
588,146.75,35.4893,37.6313,161.454,102.068,99.3748,0.00792385,0.05834,20.9377,481.498,0.245379,0.0,0.0
590,147.25,35.4462,38.1316,158.43,102.066,99.7166,0.00795449,0.0584012,20.9377,481.508,0.213651,0.0,0.0
592,147.75,35.3677,37.9668,159.381,102.067,99.5427,0.0079773,0.0584507,20.9377,481.508,0.229818,0.0,0.0
594,148.25,35.3708,38.1758,160.341,102.061,99.2866,0.00799398,0.0584909,20.9377,481.488,0.252862,0.0,0.0
596,148.75,35.7134,37.7085,157.774,102.065,99.355,0.00800749,0.0585234,20.9376,481.478,0.246908,0.0,0.0
598,149.25,35.6048,38.4242,160.013,102.061,99.5442,0.00802731,0.0585497,20.9376,481.478,0.229123,0.0,0.0
600,149.75,35.0842,38.1094,158.399,102.066,99.7866,0.00804337,0.058571,20.9376,481.458,0.207214,0.0,0.0
602,150.25,35.4985,37.9525,159.065,102.066,98.955,0.00806021,0.0585883,20.9378,481.458,0.284007,0.0,0.0
604,150.75,35.2166,37.8683,159.449,102.075,99.4494,0.00807385,0.0586291,20.9382,481.478,0.239164,0.0,0.0
606,151.25,35.4991,37.8471,156.592,102.078,99.8489,0.0080646,0.0586622,20.9386,481.478,0.202592,0.0,0.0
608,151.75,35.6391,37.6628,161.516,102.063,99.2759,0.0080571,0.0587024,20.939,481.468,0.254068,0.0,0.0
610,152.25,35.6205,37.801,161.028,102.063,99.672,0.00803168,0.058735,20.9394,481.468,0.217536,0.0,0.0
612,152.75,35.3493,38.1454,157.094,102.07,99.2333,0.00799367,0.0587077,20.9396,481.478,0.258599,0.0,0.0
614,153.25,35.643,38.116,159.178,102.059,99.422,0.00796288,0.0586856,20.9399,481.458,0.240209,0.0,0.0
616,153.75,35.1823,37.9579,158.357,102.062,99.5771,0.00789994,0.0586751,20.94,481.448,0.226196,0.0,0.0
618,154.25,34.9649,38.0278,154.272,102.054,99.098,0.0078731,0.0586733,20.9401,481.448,0.269756,0.0,0.0
620,154.75,35.1205,38.1188,156.637,102.061,99.7237,0.00782056,0.0586647,20.9402,481.458,0.212626,0.0,0.0
622,155.25,35.3583,37.5109,157.558,102.045,99.2288,0.007772,0.0586514,20.9403,481.438,0.256834,0.0,0.0
624,155.75,35.0575,37.9903,157.124,102.069,100.17,0.00773267,0.0586407,20.9404,481.438,0.172326,0.0,0.0
626,156.25,35.4633,38.0845,160.185,102.047,99.2693,0.00769068,0.058632,20.9405,481.438,0.253195,0.0,0.0
628,156.75,35.8927,38.2115,157.366,102.057,99.5335,0.00765667,0.0586249,20.9406,481.468,0.22977,0.0,0.0
630,157.25,35.6597,37.7237,161.948,102.057,99.9108,0.00762027,0.0586219,20.9406,481.458,0.195019,0.0,0.0
632,157.75,35.1904,38.5168,163.07,102.063,99.4382,0.00759079,0.0586302,20.9406,481.448,0.239045,0.0,0.0
634,158.25,35.0608,38.1861,164.07,102.057,99.8084,0.00756957,0.0586227,20.9407,481.428,0.204394,0.0,0.0
636,158.75,35.604,37.8547,156.055,102.064,99.9438,0.00755478,0.058604,20.9407,481.448,0.192622,0.0,0.0
638,159.25,34.8888,37.6623,158.507,102.052,99.5574,0.0075428,0.0585888,20.9407,481.448,0.227092,0.0,0.0
640,159.75,35.0378,38.1004,159.958,102.054,99.9788,0.00754375,0.0585363,20.9406,481.448,0.188521,0.0,0.0
642,160.25,35.1788,38.5111,160.79,102.047,99.355,0.00755411,0.0584937,20.9404,481.438,0.245351,0.0,0.0
644,160.75,34.9481,37.702,156.234,102.049,99.0072,0.00756251,0.0584734,20.9402,481.438,0.27772,0.0,0.0
646,161.25,35.5598,37.921,155.596,102.05,99.319,0.00757396,0.0584696,20.9401,481.428,0.2489,0.0,0.0
648,161.75,34.779,38.1828,163.094,102.043,99.4793,0.00758742,0.0584666,20.9399,481.428,0.233477,0.0,0.0
650,162.25,34.88,37.6759,163.519,102.051,99.8667,0.00759366,0.0584711,20.9398,481.438,0.198553,0.0,0.0
652,162.75,35.2515,37.379,157.134,102.045,100.133,0.00759451,0.0584812,20.9392,481.428,0.173568,0.0,0.0
654,163.25,34.4171,37.8831,162.129,102.027,100.005,0.00758788,0.0584611,20.9386,481.428,0.183739,0.0,0.0
656,163.75,34.6596,37.9249,164.753,102.045,99.7622,0.00757591,0.0584194,20.9382,481.428,0.207636,0.0,0.0
658,164.25,35.3557,37.6786,156.526,102.04,100.659,0.00756222,0.0583857,20.9378,481.428,0.125025,0.0,0.0
660,164.75,35.3031,37.0002,161.601,102.033,99.5705,0.00754754,0.058365,20.9375,481.408,0.224172,0.0,0.0
662,165.25,35.0511,37.2522,160.3,102.034,99.0533,0.00753631,0.0583543,20.9373,481.408,0.272037,0.0,0.0
664,165.75,35.0248,37.4395,159.385,102.038,99.39,0.00752781,0.0583386,20.9371,481.408,0.241305,0.0,0.0
666,166.25,34.9114,37.3413,155.574,102.016,99.4276,0.00752826,0.0583195,20.9369,481.418,0.235801,0.0,0.0
668,166.75,35.3056,38.0585,163.96,102.033,99.1958,0.00753521,0.0583041,20.9368,481.388,0.25877,0.0,0.0
670,167.25,34.7583,37.6769,159.363,102.007,99.6659,0.00754084,0.0582513,20.9367,481.398,0.213055,0.0,0.0
672,167.75,34.7848,38.0915,157.69,102.024,100.157,0.0075534,0.0582368,20.9366,481.408,0.169531,0.0,0.0
674,168.25,34.9329,37.4475,159.493,102.007,99.6324,0.00757077,0.0582505,20.9365,481.398,0.216174,0.0,0.0
676,168.75,34.6168,37.6757,157.621,102.018,99.1776,0.0075795,0.0582687,20.9365,481.398,0.259125,0.0,0.0
678,169.25,35.1511,37.4878,159.444,102,99.3981,0.00758178,0.0582897,20.9369,481.398,0.237071,0.0,0.0
680,169.75,34.9334,37.5051,161.021,102.007,99.1142,0.00757697,0.0583068,20.9372,481.388,0.263991,0.0,0.0
682,170.25,35.0942,37.8656,162.218,102.016,99.0609,0.00756707,0.0582535,20.937,481.398,0.269737,0.0,0.0
684,170.75,34.955,37.5177,160.035,102.026,99.5959,0.0075524,0.0582103,20.9369,481.388,0.221168,0.0,0.0
686,171.25,34.4738,37.3404,159.689,101.987,99.4691,0.00753452,0.0581754,20.9367,481.388,0.229369,0.0,0.0
688,171.75,35.1546,37.17,161.374,101.997,99.3353,0.00752004,0.0581336,20.9366,481.398,0.242655,0.0,0.0
690,172.25,34.3899,37.7038,158.827,101.978,99.3145,0.00748934,0.0580998,20.9366,481.388,0.242833,0.0,0.0
692,172.75,34.8612,37.3898,167.826,101.993,99.2546,0.00746447,0.058059,20.9365,481.388,0.249773,0.0,0.0
694,173.25,35.0073,37.5983,160.584,101.993,99.4123,0.00743435,0.0580684,20.9365,481.388,0.23513,0.0,0.0
696,173.75,35.0072,37.8252,163.407,101.996,99.709,0.00740097,0.058114,20.9364,481.388,0.208086,0.0,0.0
698,174.25,34.7036,37.4401,157.35,101.998,99.3997,0.00737393,0.0581511,20.9364,481.388,0.236745,0.0,0.0
700,174.75,34.9462,37.9733,158.452,101.996,99.5614,0.00732929,0.0582481,20.9364,481.398,0.221676,0.0,0.0
702,175.25,34.8362,36.9836,159.738,101.973,99.3236,0.00729313,0.0583268,20.9363,481.388,0.241581,0.0,0.0
704,175.75,34.6298,37.2064,160.555,101.979,99.3566,0.00726118,0.0583763,20.9363,481.398,0.239093,0.0,0.0
706,176.25,34.626,37.6361,159.501,101.954,99.8302,0.00723291,0.0584038,20.9363,481.378,0.193194,0.0,0.0
708,176.75,34.9332,37.0777,158.284,101.976,99.2526,0.007212,0.058426,20.9363,481.358,0.248364,0.0,0.0
710,177.25,34.8485,37.304,161.675,101.967,99.8322,0.00719687,0.058444,20.9358,481.368,0.194157,0.0,0.0
712,177.75,34.7412,37.1775,158.522,101.958,99.3383,0.00718992,0.0584586,20.9355,481.368,0.238851,0.0,0.0
714,178.25,34.9697,37.138,162.951,101.965,99.7323,0.00718908,0.0584704,20.9352,481.378,0.203122,0.0,0.0
716,178.75,34.2701,37.2243,154.352,101.962,99.2131,0.0071884,0.0584799,20.9349,481.348,0.250762,0.0,0.0
718,179.25,34.6122,36.9408,159.436,101.954,99.421,0.00720428,0.0585018,20.9347,481.358,0.230884,0.0,0.0
720,179.75,34.6475,37.2389,157.415,101.959,99.456,0.00721714,0.0585322,20.9346,481.378,0.228064,0.0,0.0
722,180.25,34.2791,37.6172,157.036,101.957,99.0873,0.00723155,0.0585781,20.9344,481.358,0.261992,0.0,0.0
724,180.75,34.4092,37.5707,155.246,101.953,99.4037,0.00724681,0.0586343,20.9343,481.368,0.232402,0.0,0.0
726,181.25,34.6886,37.101,158.998,101.939,99.2105,0.00725917,0.0586798,20.9342,481.368,0.248918,0.0,0.0
728,181.75,34.8477,37.1986,157.682,101.952,99.8789,0.0072652,0.0587167,20.9342,481.358,0.188535,0.0,0.0
730,182.25,34.4994,37.0767,161.401,101.943,99.3297,0.00726648,0.0587465,20.9341,481.368,0.238274,0.0,0.0
732,182.75,34.6275,37.3448,162.023,101.951,99.3774,0.00726752,0.0587707,20.9336,481.368,0.234576,0.0,0.0
734,183.25,34.4026,37.5387,159.103,101.947,99.1522,0.00726837,0.0587903,20.9332,481.348,0.255055,0.0,0.0
736,183.75,34.7698,37.0057,161.417,101.932,99.5498,0.00726402,0.0588062,20.9333,481.358,0.217039,0.0,0.0
738,184.25,34.6917,36.5886,159.194,101.934,99.6993,0.0072605,0.0588325,20.9337,481.358,0.203372,0.0,0.0
740,184.75,34.8631,37.299,157.159,101.937,99.2415,0.00725891,0.0588538,20.934,481.358,0.245909,0.0,0.0
742,185.25,33.9998,37.3761,159.382,101.934,99.1451,0.00725762,0.058871,20.9345,481.348,0.254562,0.0,0.0
744,185.75,34.5557,37.1552,161.791,101.927,99.4265,0.0072619,0.058885,20.9348,481.348,0.227959,0.0,0.0
746,186.25,34.5789,37.129,160.293,101.929,99.2394,0.00727016,0.0589249,20.9355,481.348,0.245391,0.0,0.0
748,186.75,35.0845,37.6081,155.73,101.93,99.7526,0.0072835,0.058983,20.9361,481.348,0.198139,0.0,0.0
750,187.25,34.7621,37.4701,161.335,101.934,99.2972,0.00730029,0.0590166,20.9366,481.318,0.240457,0.0,0.0
752,187.75,34.865,37.4966,160.289,101.925,99.0833,0.00731855,0.0590438,20.937,481.328,0.259436,0.0,0.0
754,188.25,34.6838,37.1889,157.483,101.932,99.7298,0.00733754,0.0590659,20.9373,481.338,0.200461,0.0,0.0
756,188.75,34.6273,37.4865,154.531,101.929,99.7267,0.00735292,0.0590838,20.9376,481.318,0.200407,0.0,0.0
758,189.25,35.3538,37.4378,162.854,101.934,99.7445,0.00736538,0.0590982,20.9378,481.318,0.199255,0.0,0.0
760,189.75,34.8115,37.6852,158.379,101.915,99.7125,0.00737547,0.05911,20.9379,481.328,0.200452,0.0,0.0
762,190.25,34.9247,36.8735,159.419,101.917,99.0072,0.00738364,0.0591124,20.9381,481.348,0.265815,0.0,0.0
764,190.75,35.0977,37.6048,161.048,101.914,98.8556,0.00737761,0.059108,20.9382,481.328,0.279581,0.0,0.0
766,191.25,34.2326,37.2393,158.009,101.908,99.1507,0.00737273,0.0591044,20.9383,481.328,0.251708,0.0,0.0
768,191.75,34.4658,37.872,156.699,101.911,99.2131,0.00734476,0.0590479,20.9383,481.338,0.246198,0.0,0.0
770,192.25,34.4507,37.1969,161.376,101.914,99.3981,0.00732211,0.059002,20.9384,481.338,0.229354,0.0,0.0
772,192.75,34.5878,37.3053,158.326,101.916,99.4945,,0.0589649,,481.328,0.220687,0.0,0.0
774,193.25,34.5558,36.9357,158.66,101.912,99.3403,,0.0588946,,481.308,0.234544,0.0,0.0
776,193.75,34.9023,36.9662,154.62,101.898,99.2197,,0.0588376,,481.308,0.2444,0.0,0.0
778,194.25,34.4939,37.1817,157.795,101.91,99.0067,,0.0587647,,481.318,0.265193,0.0,0.0
780,194.75,34.4149,37.8586,154.401,101.901,99.4047,,0.0587055,,481.308,0.227596,0.0,0.0
782,195.25,33.9085,37.1462,161.805,101.902,99.4306,,0.058604,,481.318,0.225246,0.0,0.0
784,195.75,34.5652,37.1289,164.061,101.897,99.9372,,,,481.308,0.178207,0.0,0.0
786,196.25,34.5994,37.4274,158.82,101.896,99.5695,,,,481.298,0.211951,0.0,0.0
788,196.75,34.4862,37.056,161.991,101.885,99.352,,,,481.308,0.231017,0.0,0.0
790,197.25,34.7691,36.8078,161.967,101.894,99.03,,,,481.298,0.261584,0.0,0.0
792,197.75,34.2976,37.0382,160,101.88,98.7197,,,,481.298,0.28916,0.0,0.0
794,198.25,34.5827,37.4092,160.893,101.887,99.1177,,,,481.288,0.252829,0.0,0.0
796,198.75,34.5542,37.6212,158.632,101.868,99.0194,,,,481.288,0.260269,0.0,0.0
798,199.25,35.028,37.2351,159.744,101.878,99.0275,,,,481.288,0.260409,0.0,0.0
800,199.75,34.1419,37.3146,155.957,101.867,99.6999,,,,481.278,0.197349,0.0,0.0
802,200.25,34.5056,37.5399,162.933,101.874,99.2567,,,,481.288,0.238861,0.0,0.0
804,200.75,34.9206,37.2758,159.159,101.866,99.3586,,,,481.288,0.2287,0.0,0.0
806,201.25,34.8473,37.116,162.406,101.87,98.9955,,,,481.298,0.262665,0.0,0.0
808,201.75,34.4125,37.3604,160.207,101.851,99.4372,,,,481.288,0.220071,0.0,0.0
810,202.25,34.4525,37.1434,159.835,101.876,99.1857,,,,481.298,0.245575,0.0,0.0
812,202.75,34.8065,37.2561,162.019,101.848,99.3003,,,,481.298,0.23249,0.0,0.0
814,203.25,34.6318,36.8696,161.287,101.87,98.9428,,,,481.288,0.267517,0.0,0.0
815,203.5,34.3997,37.1162,159.612,101.851,99.4605,,,,481.278,0.217919,0.0,0.0