File: 01_Data/Overstuffed_Chair_Polyester_Batting/Cone/Overstuffed_Chair_Polyester_Batting_Cone_HF75Scan_210325_R2.csv
Names,Time,Stack TC,Smoke TC,Exh Press,Smoke Comp,Smoke Meas,CO Meter,CO2 Meter,O2 Meter,Sample Mass,Ext Coeff,Start Test,Flame Verif
Chan Gain,,500,500,1,1,1,1,1,1,1,1,1.0,1.0
Offset,,0,0,0.138348,0,0,0,0,0,0,0,0.0,0.0
Gain,,1,1,25.011,13.5067,16.616,1,1,1,1.00091,1.04608,1.0,1.0
Units,sec,C,C,Pa,%,%,%,%,%,g,/m,,
Baseline,,40.0449,43.8068,157.187,101.997,99.6599,-0.000398012,0.082564,20.8705,-1.97876,0.212725,,
2,0.25,35.8321,37.9455,157.144,101.568,99.1426,-0.000307973,0.0855504,20.8688,473.341,0.221787,0.0,0.0
4,0.75,35.2497,37.7605,156.81,101.579,99.1558,-0.000296325,0.0856959,20.8685,473.241,0.221536,0.0,0.0
6,1.25,35.5639,37.8405,156.434,101.57,99.0594,-0.000286891,0.0858652,20.8681,473.241,0.229673,0.0,0.0
8,1.75,35.0721,37.8496,156.649,101.57,98.8738,-0.000296299,0.0860023,20.8678,473.231,0.246844,0.0,0.0
10,2.25,35.7695,38.7144,160.162,101.558,98.9179,-0.00030392,0.0862221,20.8675,473.251,0.241709,0.0,0.0
12,2.75,35.9045,38.9566,153.008,101.573,98.7962,-0.000324194,0.0864001,20.8668,473.231,0.254346,0.0,0.0
14,3.25,36.0712,38.7132,155.893,101.554,98.6436,-0.000353308,0.0867073,20.8658,473.211,0.266857,0.0,0.0
16,3.75,36.0262,38.936,158.596,101.561,98.7714,-0.00037689,0.0869562,20.865,473.161,0.255574,0.0,0.0
18,4.25,36.0064,38.8609,157.55,101.549,98.669,-0.000441889,0.0873753,20.8644,473.131,0.263977,0.0,0.0
20,4.75,36.4273,38.8383,157.481,101.548,98.6183,-0.000465313,0.0877148,20.8634,473.111,0.26862,0.0,0.0
22,5.25,36.2497,38.8568,160.264,101.547,98.8221,-0.000512419,0.0881257,20.8627,473.131,0.249635,0.0,0.0
24,5.75,36.0003,39.2239,155.473,101.556,99.0077,-0.00055692,0.0885811,20.862,473.151,0.233201,0.0,0.0
26,6.25,36.2946,39.4427,156.979,101.535,99.0052,-0.000587838,0.0889499,20.8615,473.121,0.231498,0.0,0.0
28,6.75,36.6441,39.3221,157.115,101.547,98.9545,-0.000608267,0.0894528,20.8611,473.141,0.237353,0.0,0.0
30,7.25,36.7399,39.3145,158.479,101.528,98.6943,-0.00061584,0.0900337,20.8608,473.131,0.259794,0.0,0.0
32,7.75,36.8261,40.4161,158.68,101.546,98.7623,-0.000613898,0.0902402,20.861,473.121,0.255044,0.0,0.0
34,8.25,36.7251,39.3865,160.151,101.541,98.9129,-0.000609121,0.0905932,20.8611,473.081,0.240652,0.0,0.0
36,8.75,36.8596,39.7687,153.98,101.541,99.1385,-0.000602366,0.0908792,20.8612,473.081,0.219706,0.0,0.0
38,9.25,37.124,40.6371,154.68,101.534,98.6314,-0.000593049,0.0910699,20.8613,473.121,0.266127,0.0,0.0
40,9.75,37.2763,40.3635,152.151,101.539,98.5412,-0.000582041,0.0912245,20.8618,473.091,0.275012,0.0,0.0
42,10.25,36.974,40.1157,158.265,101.526,98.5503,-0.000573125,0.0912952,20.8622,473.081,0.273008,0.0,0.0
44,10.75,36.8155,40.6638,158.338,101.535,98.4529,-0.000540263,0.0913524,20.8626,473.101,0.282897,0.0,0.0
46,11.25,37.6905,40.2346,159.817,101.526,98.1548,-0.00049057,0.091358,20.8628,473.101,0.309835,0.0,0.0
48,11.75,37.2522,40.1468,158.229,101.533,98.3221,-0.000406084,0.0913625,20.863,473.081,0.294875,0.0,0.0
50,12.25,37.339,40.1289,150.83,101.528,97.6573,-0.000297838,0.0913117,20.8632,473.081,0.356718,0.0,0.0
52,12.75,37.6596,40.9128,155.292,101.521,97.4682,-0.00021016,0.0912706,20.8634,473.061,0.373799,0.0,0.0
54,13.25,37.2119,40.8023,158.415,101.518,96.6406,4.04869e-05,0.0912372,20.8635,473.081,0.451781,0.0,0.0
56,13.75,37.433,40.8094,159.198,101.517,95.2873,0.000243511,0.0912102,20.8636,473.041,0.581158,0.0,0.0
58,14.25,37.7984,41.0722,153.526,101.517,95.159,0.000630361,0.0915038,20.8637,473.011,0.593483,0.0,0.0
60,14.75,37.7118,40.9545,158.887,101.507,94.6889,0.000943709,0.0920254,20.8637,473.011,0.638066,0.0,0.0
62,15.25,37.7947,40.6281,157.368,101.534,92.5921,0.00119752,0.0924479,20.8604,473.001,0.845965,0.0,0.0
64,15.75,38.1888,41.2809,161.348,101.518,88.9802,0.00163475,0.0960751,20.8578,472.88,1.20963,0.0,0.0
66,16.25,38.0284,41.5729,156.792,101.519,91.3057,0.00219739,0.0990131,20.8499,472.76,0.972935,0.0,1.0
68,16.75,37.996,42.4843,150.319,101.509,87.5807,0.00265313,0.107997,20.8383,472.78,1.35429,0.0,1.0
70,17.25,38.7522,42.5983,149.316,101.515,79.7549,0.0033429,0.115273,20.8167,472.58,2.21371,0.0,1.0
72,17.75,38.9528,43.8274,142.556,101.512,77.3473,0.00390161,0.121167,20.7882,472.55,2.49476,0.0,1.0
74,18.25,39.1205,44.1878,148.049,101.517,80.3269,0.00435416,0.125941,20.7651,472.24,2.14836,0.0,1.0
76,18.75,39.7661,44.6581,135.804,101.496,79.5516,0.00519147,0.147308,20.7339,472.06,2.23542,0.0,1.0
78,19.25,40.0184,45.9128,142.745,101.503,77.2215,0.00586969,0.164614,20.6975,472.8,2.50887,0.0,1.0
80,19.75,40.9382,46.5205,145.44,101.511,80.3431,0.00686463,0.188612,20.6587,472.43,2.14595,0.0,1.0
82,20.25,41.3161,47.1698,144.217,101.504,79.1332,0.00767053,0.20805,20.619,472.21,2.28451,0.0,1.0
84,20.75,40.339,46.5212,139.583,101.499,69.5763,0.00888218,0.223795,20.5804,472.13,3.46515,0.0,1.0
86,21.25,40.5736,47.0961,149.352,101.501,72.3445,0.00986363,0.248319,20.5433,471.99,3.1073,0.0,1.0
88,21.75,41.232,47.5347,146.011,101.512,69.229,0.0112227,0.268182,20.5133,471.86,3.51223,0.0,0.0
90,22.25,41.5118,48.4085,145,101.517,68.8588,0.0123235,0.297896,20.4626,471.749,3.56184,0.0,0.0
92,22.75,42.2417,49.2369,143.537,101.521,63.7561,0.0139147,0.321963,20.4216,471.689,4.26871,0.0,0.0
94,23.25,42.4646,50.1985,137.096,101.532,58.7791,0.0152037,0.347886,20.3884,471.559,5.01554,0.0,0.0
96,23.75,43.1783,51.7685,131.881,101.536,58.9195,0.0166365,0.37467,20.3431,471.439,4.99404,0.0,0.0
98,24.25,44.0504,52.7947,135.012,101.552,58.5053,0.0181471,0.408419,20.3064,471.289,5.06025,0.0,0.0
100,24.75,44.7959,53.9976,134.765,101.551,54.6956,0.0193707,0.435755,20.2701,471.159,5.678,0.0,0.0
102,25.25,45.3696,55.2048,134.485,101.579,57.3395,0.0203617,0.46707,20.2348,471.099,5.24732,0.0,0.0
104,25.75,46.4817,56.2299,138.853,101.565,57.3755,0.0220476,0.492434,20.1968,470.979,5.24029,0.0,0.0
106,26.25,47.0757,57.5098,134.036,101.578,53.5663,0.0234132,0.520552,20.1575,470.869,5.87189,0.0,0.0
108,26.75,47.3875,58.5248,138.507,101.576,57.3233,0.0250468,0.550144,20.1175,470.749,5.24969,0.0,0.0
110,27.25,48.296,59.5813,134.349,101.592,54.9633,0.0263701,0.574113,20.0779,470.578,5.63688,0.0,0.0
112,27.75,49.2789,60.9011,130.847,101.583,51.2895,0.0278443,0.608,20.038,470.418,6.27089,0.0,0.0
114,28.25,49.8243,62.0252,135.861,101.625,51.9431,0.0290384,0.635448,19.9986,470.278,6.15841,0.0,0.0
116,28.75,50.6068,63.1465,131.938,101.586,53.8214,0.0302405,0.657681,19.9602,470.188,5.82901,0.0,0.0
118,29.25,51.1535,64.0792,129.063,101.618,52.3224,0.0312142,0.684365,19.9233,470.038,6.09109,0.0,0.0
120,29.75,52.1532,65.2932,138.287,101.614,51.6399,0.032069,0.713785,19.8935,469.908,6.21121,0.0,0.0
122,30.25,52.605,66.5112,135.237,101.632,52.1627,0.0327614,0.743317,19.8692,469.818,6.12038,0.0,0.0
124,30.75,53.9391,68.0371,131.091,101.628,52.5085,0.0332274,0.772369,19.8496,469.668,6.05941,0.0,0.0
126,31.25,54.7439,69.0871,131.532,101.651,57.484,0.0336048,0.803098,19.8338,469.607,5.23077,0.0,0.0
128,31.75,55.1684,69.9438,131.131,101.644,54.9709,0.0339106,0.827988,19.8209,469.477,5.64033,0.0,0.0
130,32.25,55.8107,70.8276,129.498,101.655,56.7863,0.0338124,0.851198,19.813,469.387,5.3432,0.0,0.0
132,32.75,56.1491,72.3092,133.145,101.656,57.7756,0.0337328,0.869998,19.8089,469.267,5.18475,0.0,0.0
134,33.25,56.9031,72.6948,137.718,101.684,60.4849,0.0332912,0.88525,19.8056,469.167,4.7668,0.0,0.0
136,33.75,57.0646,71.7014,135.945,101.67,61.8023,0.0329336,0.897627,19.8121,469.087,4.56779,0.0,0.0
138,34.25,57.1425,73.08,134.094,101.692,61.1314,0.0323508,0.906107,19.8174,468.967,4.66994,0.0,0.0
140,34.75,57.2104,73.6123,139.683,101.68,64.6653,0.0316149,0.911587,19.8313,468.907,4.15315,0.0,0.0
142,35.25,58.0694,73.9705,133.761,101.701,63.9858,0.0310189,0.916025,19.8426,468.877,4.25198,0.0,0.0
144,35.75,57.6356,73.9081,137.628,101.701,65.1161,0.0300124,0.915069,19.8584,468.777,4.09134,0.0,0.0
146,36.25,58.1442,74.4805,141.057,101.724,67.8664,0.0295834,0.914295,19.8683,468.697,3.7138,0.0,0.0
148,36.75,58.4651,75.146,140.992,101.707,69.2787,0.0285824,0.910867,19.8853,468.617,3.52329,0.0,0.0
150,37.25,58.4442,74.7748,141.174,101.737,66.1845,0.0275311,0.905568,19.9086,468.496,3.94523,0.0,0.0
152,37.75,58.365,75.1665,136.482,101.723,65.2433,0.0264479,0.898459,19.9276,468.426,4.07543,0.0,0.0
154,38.25,59.2476,75.3729,143.571,101.741,68.9967,0.0253622,0.890165,19.9429,468.326,3.56372,0.0,0.0
156,38.75,59.5472,75.6685,147.57,101.726,75.5107,0.0241079,0.883446,19.9658,468.266,2.73456,0.0,0.0
158,39.25,59.4469,75.3427,136.849,101.746,68.7341,0.0237705,0.876464,19.9844,468.186,3.5992,0.0,0.0
160,39.75,59.3965,75.9172,141.248,101.755,71.4241,0.0228384,0.864525,19.9995,468.136,3.24774,0.0,0.0
162,40.25,59.7882,75.5171,142.012,101.765,73.6735,0.021764,0.851542,20.0225,468.076,2.96407,0.0,0.0
164,40.75,59.6573,75.5435,139.407,101.754,75.9123,0.0207346,0.838043,20.0412,468.006,2.68845,0.0,0.0
166,41.25,59.5203,75.9055,141.271,101.777,74.6537,0.0197575,0.827109,20.0655,467.936,2.84394,0.0,0.0
168,41.75,59.8548,75.774,143.163,101.766,76.8565,0.0188268,0.818252,20.0852,467.866,2.57606,0.0,0.0
170,42.25,59.837,75.6758,143.276,101.787,76.9051,0.0179474,0.805302,20.1112,467.786,2.57215,0.0,0.0
172,42.75,59.6504,74.8397,139.349,101.781,76.0274,0.0171213,0.789615,20.1323,467.786,2.67692,0.0,0.0
174,43.25,59.6227,75.3096,143.739,101.801,76.9442,0.0163497,0.776909,20.1652,467.746,2.56872,0.0,0.0
176,43.75,59.9239,75.4807,141.715,101.794,79.6226,0.0157247,0.75809,20.1918,467.676,2.2541,0.0,0.0
178,44.25,59.5142,75.7939,143.531,101.811,78.4426,0.0149877,0.739574,20.2212,467.596,2.39267,0.0,0.0
180,44.75,59.691,75.2237,144.278,101.798,77.9127,0.0143908,0.72163,20.2451,467.556,2.45368,0.0,0.0
182,45.25,59.7373,75.0792,143.521,101.835,81.5272,0.0137216,0.703868,20.2676,467.536,2.04094,0.0,0.0
184,45.75,59.575,74.8441,143.297,101.831,81.1991,0.0131796,0.686576,20.2888,467.486,2.07757,0.0,0.0
186,46.25,59.192,74.1912,143.856,101.826,81.7853,0.0127406,0.669664,20.306,467.426,2.01116,0.0,0.0
188,46.75,59.4471,74.0859,142.446,101.829,82.6336,0.0121248,0.653349,20.3229,467.405,1.91665,0.0,0.0
190,47.25,58.8751,73.6556,146.491,101.837,82.3618,0.0116259,0.640134,20.3392,467.355,1.94763,0.0,0.0
192,47.75,59.059,73.5719,144.127,101.837,83.7857,0.0110637,0.622453,20.356,467.315,1.79035,0.0,0.0
194,48.25,58.3853,73.4874,148.521,101.851,84.8435,0.0106084,0.608131,20.3726,467.275,1.67653,0.0,0.0
196,48.75,58.7017,73.0721,142.369,101.845,86.3485,0.0100643,0.593114,20.3903,467.235,1.51462,0.0,0.0
198,49.25,58.4326,72.7251,146.994,101.859,87.9584,0.00983238,0.577876,20.3998,467.205,1.34634,0.0,0.0
200,49.75,58.1686,71.7506,144.243,101.853,87.5944,0.00933998,0.565533,20.416,467.115,1.38388,0.0,0.0
202,50.25,58.1371,71.7223,147.639,101.871,86.5848,0.00885493,0.551379,20.4401,467.105,1.49185,0.0,0.0
204,50.75,58.0553,71.9488,149.529,101.866,89.8032,0.00837199,0.536175,20.4596,467.075,1.15651,0.0,0.0
206,51.25,57.7171,70.9579,149.729,101.88,90.1845,0.00789977,0.518422,20.482,467.045,1.11892,0.0,0.0
208,51.75,57.4631,71.2623,140.98,101.882,90.0461,0.00742828,0.504041,20.5001,467.025,1.13321,0.0,0.0
210,52.25,57.3226,70.3215,147.204,101.894,90.8539,0.00696628,0.494902,20.5218,467.005,1.05233,0.0,0.0
212,52.75,56.9175,69.6496,148.022,101.881,91.5095,0.00659207,0.479274,20.5394,467.015,0.9852,0.0,0.0
214,53.25,56.8178,69.3377,149.185,101.89,93.0302,0.00617942,0.463461,20.5571,467.015,0.834705,0.0,0.0
216,53.75,56.2616,68.4875,149.673,101.892,93.9998,0.0057466,0.447814,20.5746,466.985,0.739754,0.0,0.0
218,54.25,56.368,68.4967,152.239,101.905,94.4916,0.00533594,0.432314,20.5887,466.975,0.693089,0.0,0.0
220,54.75,56.0056,68.0198,155.128,101.898,96.0965,0.00494922,0.417217,20.6067,466.965,0.537914,0.0,0.0
222,55.25,55.7499,67.2444,151.645,101.905,96.7461,0.00461252,0.404988,20.6213,466.965,0.47669,0.0,0.0
224,55.75,55.123,67.0049,153.786,101.91,98.0422,0.00431868,0.388392,20.6393,466.935,0.35502,0.0,0.0
226,56.25,54.7517,66.5443,159.477,101.917,99.0351,0.00407872,0.374949,20.6538,466.935,0.26323,0.0,0.0
228,56.75,54.4925,65.3378,151.588,101.918,99.2927,0.00388259,0.360767,20.6691,466.945,0.239468,0.0,0.0
230,57.25,54.432,65.6904,152.048,101.924,99.7125,0.00372372,0.346315,20.6845,466.945,0.201267,0.0,0.0
232,57.75,54.4306,64.9636,157.174,101.918,100.004,0.00360989,0.334609,20.6989,466.955,0.174001,0.0,0.0
234,58.25,54.1951,64.5088,152.452,101.931,99.7374,0.00351769,0.32001,20.7122,466.945,0.199613,0.0,0.0
236,58.75,53.3853,63.7587,158.046,101.939,100.039,0.0034653,0.308184,20.7241,466.945,0.172721,0.0,0.0
238,59.25,53.5682,63.5102,154.664,101.943,99.8545,0.00342285,0.29479,20.7348,466.965,0.189955,0.0,0.0
240,59.75,52.6052,63.1617,154.275,101.941,100.002,0.00338848,0.28394,20.7435,466.955,0.176182,0.0,0.0
242,60.25,52.9411,62.7611,151.947,101.942,99.9088,0.00340773,0.2731,20.7517,466.975,0.184859,0.0,0.0
244,60.75,52.6923,61.8623,156.766,101.942,100.023,0.00342332,0.262474,20.7593,466.935,0.174424,0.0,0.0
246,61.25,52.2923,61.8376,155.446,101.949,99.7856,0.00347938,0.252396,20.7655,466.945,0.196813,0.0,0.0
248,61.75,52.031,61.2365,156.376,101.953,99.5766,0.00352478,0.242911,20.7712,466.985,0.216417,0.0,0.0
250,62.25,51.6313,61.1901,154.858,101.955,99.9214,0.00356157,0.233764,20.7765,466.995,0.184882,0.0,0.0
252,62.75,51.5365,60.3281,152.645,101.952,99.8768,0.00364851,0.225037,20.7811,467.005,0.188684,0.0,0.0
254,63.25,51.0867,59.9967,156.329,101.947,99.6137,0.00371894,0.217968,20.7851,466.975,0.21245,0.0,0.0
256,63.75,50.9907,59.545,152.314,101.96,99.7932,0.00380086,0.209998,20.7888,467.015,0.197079,0.0,0.0
258,64.25,50.9019,59.4906,155.981,101.957,99.7987,0.00386722,0.203542,20.7922,467.005,0.196345,0.0,0.0
260,64.75,50.5622,58.9802,153.764,101.969,99.5503,0.0039308,0.198313,20.795,467.035,0.220293,0.0,0.0
262,65.25,50.4593,58.5453,154.687,101.954,99.7607,0.00399114,0.192844,20.7972,467.005,0.199544,0.0,0.0
264,65.75,49.4011,57.7003,153.216,101.974,100.352,0.00404591,0.187306,20.7991,467.025,0.147102,0.0,0.0
266,66.25,48.9715,56.308,158.085,101.964,99.8748,0.00409558,0.182188,20.8014,467.025,0.189946,0.0,0.0
268,66.75,48.9413,56.5903,151.373,101.975,99.6664,0.00413582,0.177474,20.8033,467.045,0.210153,0.0,0.0
270,67.25,48.7682,56.2987,154.999,101.974,99.5716,0.00419706,0.173145,20.8049,467.035,0.218739,0.0,0.0
272,67.75,48.3875,56.3087,154.36,101.98,99.8697,0.00424667,0.169178,20.807,466.955,0.191896,0.0,0.0
274,68.25,48.5437,55.5224,153.384,101.979,99.7632,0.00430063,0.16536,20.8087,466.965,0.201536,0.0,0.0
276,68.75,48.4377,55.5746,153.39,101.986,99.891,0.00435674,0.161723,20.8101,466.975,0.190494,0.0,0.0
278,69.25,47.7061,55.3369,157.363,101.977,99.8165,0.00440416,0.158776,20.8112,466.985,0.196492,0.0,0.0
280,69.75,47.5783,54.8883,153.529,101.984,99.891,0.00444434,0.155467,20.813,466.995,0.190273,0.0,0.0
282,70.25,47.2053,54.7343,158.782,101.977,100.028,0.00447492,0.152786,20.8145,466.945,0.177065,0.0,0.0
284,70.75,47.6065,53.8887,152.135,102.001,99.8185,0.00449791,0.150615,20.8156,466.955,0.198457,0.0,0.0
286,71.25,47.1072,53.9404,152.548,101.984,99.8971,0.0045126,0.147991,20.8166,466.955,0.189677,0.0,0.0
288,71.75,46.9948,53.4331,152.264,102.002,99.9615,0.00452095,0.145866,20.8182,466.945,0.185432,0.0,0.0
290,72.25,47.1992,53.8959,157.33,101.986,99.6116,0.00452444,0.143575,20.8196,466.965,0.21616,0.0,0.0
292,72.75,47.0398,53.423,157.631,101.996,99.9032,0.00452431,0.141718,20.8207,466.955,0.190267,0.0,0.0
294,73.25,47.2552,54.0406,152.171,101.982,99.8292,0.0045242,0.139756,20.8215,466.925,0.195772,0.0,0.0
296,73.75,46.5111,53.1316,152.623,102.004,100.137,0.00452084,0.138166,20.8222,466.925,0.169479,0.0,0.0
298,74.25,46.3903,53.2416,155.325,101.999,100.053,0.00451516,0.136435,20.8228,466.905,0.17676,0.0,0.0
300,74.75,46.3053,52.782,150.689,102.003,100.234,0.00450662,0.135032,20.8233,466.905,0.160507,0.0,0.0
302,75.25,46.5088,52.7382,149.432,101.991,100.009,0.00449617,0.133549,20.8237,466.875,0.180066,0.0,0.0
304,75.75,46.2423,52.4904,154.488,101.998,99.7572,0.0044877,0.132188,20.8244,466.875,0.20384,0.0,0.0
306,76.25,45.7543,52.2035,158.803,102,99.9108,0.00445718,0.130941,20.825,466.915,0.189865,0.0,0.0
308,76.75,45.9079,52.2384,158.885,102.001,100.038,0.00443246,0.129931,20.8256,466.905,0.178378,0.0,0.0
310,77.25,45.8659,51.7642,152.762,101.995,100.086,0.00437727,0.128822,20.8264,466.915,0.173367,0.0,0.0
312,77.75,46.4837,51.9128,156.417,102.016,100.093,0.00436242,0.127924,20.8266,466.935,0.174561,0.0,0.0
314,78.25,45.7056,51.6873,153.968,101.992,99.7166,0.00432655,0.127007,20.8269,466.925,0.207016,0.0,0.0
316,78.75,45.8949,50.9878,156.844,102.008,99.8069,0.00428806,0.126095,20.8272,466.925,0.200196,0.0,0.0
318,79.25,45.3574,51.0272,154.483,101.993,100.046,0.00425689,0.125356,20.8274,466.905,0.176856,0.0,0.0
320,79.75,45.6385,50.8845,151.8,102.003,100.159,0.00422168,0.124523,20.8276,466.905,0.167408,0.0,0.0
322,80.25,45.6706,50.7197,156.191,101.999,99.8145,0.00419317,0.123459,20.828,466.885,0.198644,0.0,0.0
324,80.75,44.5775,50.2707,154.406,102.009,99.5001,0.00417007,0.123108,20.8285,466.895,0.228483,0.0,0.0
326,81.25,45.0523,50.8134,152.388,101.994,99.8003,0.00417002,0.122509,20.829,466.885,0.199541,0.0,0.0
328,81.75,45.325,50.1848,155.397,102.012,99.9438,0.00416999,0.12198,20.8293,466.895,0.187988,0.0,0.0
330,82.25,45.1656,50.4711,159.094,101.993,99.9017,0.00420482,0.121512,20.8296,466.895,0.190074,0.0,0.0
332,82.75,45.3342,50.7425,154.318,102.014,100.212,0.00423303,0.121133,20.8298,466.895,0.163579,0.0,0.0
334,83.25,45.0706,50.508,157.289,101.997,99.7206,0.00430449,0.120775,20.83,466.905,0.207087,0.0,0.0
336,83.75,44.8321,50.5706,154.929,102.016,100.121,0.00436237,0.120439,20.8301,466.895,0.172087,0.0,0.0
338,84.25,44.8184,49.5868,148.693,102.012,99.9387,0.0044467,0.120059,20.8302,466.855,0.18838,0.0,0.0
340,84.75,44.7873,49.6269,151.581,102.012,100.039,0.00451499,0.119652,20.8303,466.845,0.17924,0.0,0.0
342,85.25,44.1639,49.6952,151.307,102.007,100.375,0.00457032,0.119258,20.8306,466.815,0.147935,0.0,0.0
344,85.75,45.0232,49.4271,150.786,102.005,100.439,0.00461887,0.118879,20.8311,466.805,0.141957,0.0,0.0
346,86.25,44.1739,49.3397,154.391,102.003,99.7572,0.0046582,0.118493,20.8314,466.825,0.204322,0.0,0.0
348,86.75,45.2006,49.845,151.056,102.014,100.04,0.00467166,0.118109,20.8317,466.845,0.179304,0.0,0.0
350,87.25,44.7979,49.2572,154.682,101.991,100.082,0.00466601,0.117717,20.8319,466.855,0.173369,0.0,0.0
352,87.75,44.2812,49.2099,153.541,102.006,100.484,0.00466143,0.117328,20.8322,466.845,0.137946,0.0,0.0
354,88.25,44.5827,50.053,152.635,101.999,100.038,0.0046223,0.117014,20.8326,466.825,0.178109,0.0,0.0
356,88.75,44.336,49.084,155.639,102.014,99.8205,0.00455872,0.116758,20.8329,466.845,0.199457,0.0,0.0
358,89.25,43.931,49.1215,152.864,101.991,100.197,0.00450723,0.116421,20.8332,466.815,0.162775,0.0,0.0
360,89.75,43.9249,49.5474,154.528,102.019,99.8728,0.0044145,0.11603,20.8334,466.825,0.195102,0.0,0.0
362,90.25,44.4953,49.1258,152.553,102.004,99.994,0.00432107,0.115713,20.8336,466.825,0.182639,0.0,0.0
364,90.75,43.6686,47.9392,154.432,102.022,100.005,0.00422891,0.11525,20.8337,466.835,0.183294,0.0,0.0
366,91.25,44.5412,48.8593,150.426,102.005,100.028,0.00415426,0.114875,20.8338,466.835,0.179596,0.0,0.0
368,91.75,44.4522,48.8195,157.941,102.014,99.9585,0.00406399,0.114469,20.8339,466.845,0.186824,0.0,0.0
370,92.25,44.515,48.8451,151.808,102.001,99.9316,0.00402551,0.11405,20.8342,466.835,0.188104,0.0,0.0
372,92.75,44.0375,48.3277,159.098,101.996,100.293,0.00395598,0.11366,20.8346,466.835,0.154521,0.0,0.0
374,93.25,43.7787,48.3584,153.914,102.006,100.083,0.00389966,0.113298,20.835,466.815,0.174647,0.0,0.0
376,93.75,43.6392,48.5554,152.975,102.005,99.997,0.00387515,0.112932,20.8353,466.795,0.182396,0.0,0.0
378,94.25,44.2122,47.9095,151.957,101.998,100.037,0.00385529,0.112571,20.8356,466.785,0.178211,0.0,0.0
380,94.75,43.2806,48.974,156.581,102.001,100.007,0.00385786,0.112228,20.8358,466.795,0.181179,0.0,0.0
382,95.25,43.5481,47.8992,151.952,102.001,99.962,0.00387465,0.112058,20.8359,466.785,0.185311,0.0,0.0
384,95.75,43.4809,48.5073,154.774,102.007,99.8494,0.00390335,0.111767,20.836,466.805,0.196133,0.0,0.0
386,96.25,43.936,47.8443,153.658,102.02,99.8885,0.00393839,0.111407,20.8361,466.825,0.193769,0.0,0.0
388,96.75,43.9267,47.9774,152.49,101.998,100.043,0.00397737,0.111116,20.8362,466.835,0.17758,0.0,0.0
390,97.25,43.6662,47.7828,156.043,102.003,100.112,0.00400699,0.110844,20.8363,466.785,0.171776,0.0,0.0
392,97.75,43.145,48.3933,153.45,101.994,99.8631,0.0040292,0.110591,20.8364,466.775,0.193725,0.0,0.0
394,98.25,43.5458,47.8035,155.96,102.007,100.029,0.0040472,0.110387,20.8364,466.775,0.179726,0.0,0.0
396,98.75,43.2274,47.9883,152.011,101.993,100.178,0.00404188,0.110138,20.8364,466.785,0.164808,0.0,0.0
398,99.25,43.0025,47.6931,160.188,102,99.9646,0.00403757,0.109937,20.8365,466.785,0.185004,0.0,0.0
400,99.75,43.627,47.9095,155.595,101.999,99.8353,0.00403146,0.109767,20.8365,466.765,0.196733,0.0,0.0
402,100.25,43.1334,47.4251,154.453,102.009,100.058,0.00402415,0.109623,20.8365,466.795,0.177139,0.0,0.0
404,100.75,43.0816,47.5956,152.191,102.001,99.8104,0.00403001,0.109492,20.8365,466.805,0.199203,0.0,0.0
406,101.25,42.4846,47.1786,152.913,101.998,100.299,0.00404537,0.109372,20.8365,466.825,0.154112,0.0,0.0
408,101.75,43.2256,47.699,149.463,102.004,99.8834,0.00405781,0.109276,20.837,466.815,0.192752,0.0,0.0
410,102.25,43.4292,47.3629,155.323,101.991,100.101,0.00408884,0.109168,20.8374,466.805,0.171639,0.0,0.0
412,102.75,43.3894,47.6549,153.845,101.998,99.8013,0.00413285,0.109055,20.8376,466.835,0.199783,0.0,0.0
414,103.25,43.0726,47.4593,158.011,102.003,99.8276,0.00417899,0.108957,20.8379,466.835,0.197765,0.0,0.0
416,103.75,42.7945,47.3836,153.965,101.981,99.8155,0.0042258,0.10887,20.8381,466.825,0.196993,0.0,0.0
418,104.25,42.9079,47.3914,152.677,102.003,100.084,0.00426896,0.1088,20.8382,466.785,0.174212,0.0,0.0
420,104.75,43.385,47.4684,154.51,101.986,99.9808,0.00430865,0.108675,20.8384,466.815,0.182217,0.0,0.0
422,105.25,43.0305,47.1403,156.918,101.995,99.9904,0.00434145,0.108574,20.8385,466.815,0.182149,0.0,0.0
424,105.75,43.1471,47.2742,154.537,101.986,99.7227,0.00436861,0.10845,20.8385,466.805,0.205935,0.0,0.0
426,106.25,43.2395,47.4195,156.763,101.997,99.8266,0.00438667,0.10835,20.8386,466.815,0.197377,0.0,0.0
428,106.75,42.9492,46.7877,148.08,101.985,99.7637,0.00439776,0.108255,20.8387,466.825,0.202046,0.0,0.0
430,107.25,42.8692,46.9721,154.626,102,99.8145,0.00440674,0.108165,20.8387,466.805,0.198792,0.0,0.0
432,107.75,43.1793,47.007,157.669,101.992,100.02,0.0043916,0.108099,20.8388,466.805,0.179144,0.0,0.0
434,108.25,42.9391,47.3633,155.651,102.009,99.9874,0.00437933,0.108052,20.8388,466.835,0.183688,0.0,0.0
436,108.75,42.2408,47.0365,156.779,101.987,100.058,0.00436939,0.108,20.8388,466.825,0.17522,0.0,0.0
438,109.25,43.142,46.8216,152.349,102.006,100.186,0.00436134,0.107944,20.8388,466.785,0.165205,0.0,0.0
440,109.75,42.8221,46.6064,157.052,101.986,99.993,0.00431872,0.107906,20.8388,466.785,0.1811,0.0,0.0
442,110.25,42.5264,46.6986,154.174,102.001,99.8139,0.00428419,0.107882,20.8392,466.805,0.198876,0.0,0.0
444,110.75,42.98,47.2455,157.153,101.986,99.9569,0.00423384,0.107863,20.8397,466.795,0.184405,0.0,0.0
446,111.25,42.7963,46.892,153.021,102.005,99.8956,0.00419306,0.107862,20.8402,466.805,0.191782,0.0,0.0
448,111.75,42.6702,46.6892,150.79,101.993,99.8707,0.00414824,0.107873,20.8405,466.785,0.192915,0.0,0.0
450,112.25,42.8027,46.9234,152.967,102.004,100.46,0.00410135,0.107883,20.8408,466.825,0.139938,0.0,0.0
452,112.75,42.8756,46.7395,153.565,101.993,99.9544,0.00405682,0.107891,20.8411,466.825,0.185268,0.0,0.0
454,113.25,42.6331,47.005,153.493,102.005,99.8114,0.00401487,0.107733,20.8412,466.825,0.199444,0.0,0.0
456,113.75,42.7015,47.0391,152.071,101.987,100.09,0.00397435,0.107604,20.8414,466.845,0.172244,0.0,0.0
458,114.25,42.7793,46.4229,158.939,101.993,100.398,0.00393565,0.107418,20.8415,466.855,0.144626,0.0,0.0
460,114.75,42.3449,46.6748,153.586,101.986,99.9214,0.00389515,0.107268,20.8416,466.845,0.187701,0.0,0.0
462,115.25,42.4807,46.4425,151.551,102,99.8753,0.00385411,0.10716,20.8417,466.825,0.193163,0.0,0.0
464,115.75,42.502,46.6698,156.279,101.999,99.993,0.00382087,0.107086,20.8418,466.765,0.182249,0.0,0.0
466,116.25,41.8977,47.1138,157.292,101.998,99.9052,0.00377697,0.107012,20.8418,466.705,0.190266,0.0,0.0
468,116.75,42.2943,46.1482,154.201,101.984,99.8702,0.00372612,0.106952,20.8423,466.735,0.192145,0.0,0.0
470,117.25,42.49,46.4843,152.953,101.986,100.092,0.00368102,0.106835,20.8427,466.745,0.171984,0.0,0.0
472,117.75,42.352,46.3438,158.788,101.989,100.206,0.00364097,0.10674,20.843,466.725,0.161873,0.0,0.0
474,118.25,42.2748,46.3633,154.96,102,99.9199,0.00360852,0.106599,20.8433,466.695,0.189027,0.0,0.0
476,118.75,41.8297,46.5573,150.763,101.99,100.083,0.00359589,0.106425,20.8435,466.665,0.173238,0.0,0.0
478,119.25,41.9965,46.0443,150.294,101.992,99.7242,0.0035905,0.106285,20.8436,466.745,0.206352,0.0,0.0
480,119.75,42.3669,46.3661,151.624,101.985,100.142,0.00359617,0.106128,20.8437,466.725,0.167401,0.0,0.0
482,120.25,42.4437,45.98,155.954,102,99.9265,0.00360077,0.105962,20.8439,466.745,0.188458,0.0,0.0
484,120.75,41.9521,46.2581,157.199,101.988,100.34,0.00360776,0.105828,20.844,466.805,0.149513,0.0,0.0
486,121.25,42.2945,45.6458,155.68,101.998,100.377,0.00361636,0.105787,20.8436,466.765,0.14698,0.0,0.0
488,121.75,41.5645,46.1818,150.543,102.015,99.9062,0.00362725,0.105754,20.8433,466.775,0.191656,0.0,0.0
490,122.25,42.345,45.8459,154.09,101.997,99.7125,0.00363959,0.105748,20.8431,466.815,0.207834,0.0,0.0
492,122.75,41.777,46.6619,153.274,101.996,100.187,0.00364959,0.105736,20.8429,466.815,0.164269,0.0,0.0
494,123.25,42.0701,46.269,154.723,102.002,100.153,0.00367731,0.105734,20.8427,466.885,0.167817,0.0,0.0
496,123.75,41.9345,46.2821,156.279,101.989,100.118,0.0037174,0.105739,20.8426,466.855,0.169957,0.0,0.0
498,124.25,42.4826,46.3776,152.13,101.999,100.184,0.003761,0.10575,20.8425,466.875,0.16477,0.0,0.0
500,124.75,42.4685,46.6779,155.096,101.991,99.7957,0.00380632,0.105765,20.8424,466.845,0.199703,0.0,0.0
502,125.25,42.1374,45.9905,157.9,102.002,99.8479,0.00384762,0.105778,20.8424,466.805,0.195827,0.0,0.0
504,125.75,42.2992,45.5407,151.099,101.999,99.818,0.00388519,0.105815,20.8423,466.785,0.198355,0.0,0.0
506,126.25,42.2076,46.1391,157.298,102,99.996,0.00391431,0.105846,20.8423,466.775,0.182081,0.0,0.0
508,126.75,41.8498,46.4291,150.028,101.987,99.6557,0.00393673,0.105914,20.8422,466.755,0.212171,0.0,0.0
510,127.25,41.6454,46.2387,152.004,102.007,99.8768,0.00395095,0.106008,20.8422,466.715,0.193617,0.0,0.0
512,127.75,42.0374,46.2364,155.468,101.993,100.04,0.00395894,0.106084,20.8422,466.715,0.177442,0.0,0.0
514,128.25,42.0467,45.8824,154.129,101.996,99.9716,0.00396542,0.106159,20.8421,466.715,0.183946,0.0,0.0
516,128.75,41.9621,46.1466,155.149,101.998,100.003,0.00395947,0.10622,20.8421,466.725,0.181328,0.0,0.0
518,129.25,42.4214,45.6552,153.127,102.002,99.9656,0.00395465,0.106256,20.8421,466.725,0.18506,0.0,0.0
520,129.75,42.3651,45.4284,156.655,101.993,99.9245,0.00395075,0.106285,20.8423,466.715,0.188052,0.0,0.0
522,130.25,42.1524,46.1864,157.18,101.987,99.9894,0.00394564,0.106322,20.8424,466.685,0.1815,0.0,0.0
524,130.75,41.7738,46.0167,154.451,101.998,99.9838,0.00393973,0.106338,20.8425,466.675,0.182976,0.0,0.0
526,131.25,42.3795,45.9724,157.082,101.996,99.9255,0.00393495,0.106337,20.8426,466.685,0.188182,0.0,0.0
528,131.75,41.6971,46.2785,154.008,101.988,99.8337,0.00393107,0.106337,20.8426,466.675,0.195872,0.0,0.0
530,132.25,42.1357,45.8183,154.814,102.003,99.8469,0.00392669,0.106273,20.8427,466.685,0.196033,0.0,0.0
532,132.75,41.9418,46.1278,153.285,102.002,100.042,0.00392314,0.106162,20.8429,466.655,0.17808,0.0,0.0
534,133.25,41.9305,45.5069,150.943,102.005,100.356,0.00389418,0.106073,20.8431,466.655,0.149548,0.0,0.0
536,133.75,42.1632,45.9629,153.187,101.999,100.335,0.00387072,0.105932,20.8433,466.685,0.15094,0.0,0.0
538,134.25,41.5356,45.8505,152.244,101.993,99.782,0.00381572,0.105817,20.8434,466.685,0.201147,0.0,0.0
540,134.75,41.6226,46.1908,158.101,102.002,99.8941,0.00377117,0.105725,20.8436,466.685,0.191588,0.0,0.0
542,135.25,41.7686,46.1492,157.317,101.998,99.6943,0.00372072,0.1056,20.8436,466.665,0.209662,0.0,0.0
544,135.75,41.6624,45.8817,153.445,101.996,99.927,0.00366693,0.105453,20.8437,466.685,0.188078,0.0,0.0
546,136.25,42.0311,45.4439,152.474,102.008,100.49,0.00362336,0.105333,20.8438,466.685,0.137613,0.0,0.0
548,136.75,41.4135,45.8416,155.952,102.015,99.9772,0.00358807,0.10521,20.8438,466.675,0.185175,0.0,0.0
550,137.25,42.2327,45.8305,154.127,102,100.094,0.00355949,0.105109,20.8439,466.695,0.173106,0.0,0.0
552,137.75,41.9614,45.6074,153.932,102.015,100.068,0.00355853,0.105014,20.8439,466.705,0.176848,0.0,0.0
554,138.25,41.2777,45.4955,157.035,101.99,100.013,0.00357774,0.104937,20.8439,466.695,0.179573,0.0,0.0
556,138.75,41.8886,45.0911,155.251,102,99.926,0.00361617,0.104875,20.8439,466.695,0.188506,0.0,0.0
558,139.25,41.8764,45.4646,156.698,102,99.7065,0.00366789,0.104825,20.8439,466.695,0.20869,0.0,0.0
560,139.75,41.2742,45.2931,156.04,102.001,99.9042,0.0037209,0.104748,20.8444,466.645,0.190619,0.0,0.0
562,140.25,41.9011,45.5162,156.036,101.982,99.9544,0.00377385,0.104653,20.8448,466.615,0.184266,0.0,0.0
564,140.75,41.1807,45.6824,156.658,102.012,99.8626,0.00381673,0.104576,20.8449,466.635,0.195366,0.0,0.0
566,141.25,41.8546,45.8525,152.541,102.001,99.9762,0.00385147,0.104459,20.845,466.645,0.184008,0.0,0.0
568,141.75,41.019,45.8847,153.193,102.016,100.091,0.00387241,0.104365,20.8455,466.625,0.174793,0.0,0.0
570,142.25,41.4203,45.3454,158.669,102.005,100.335,0.00388289,0.104287,20.846,466.615,0.151497,0.0,0.0
572,142.75,41.4811,45.5069,151.884,102.01,100.143,0.00389138,0.104225,20.8463,466.615,0.169571,0.0,0.0
574,143.25,41.7181,46.2592,152.778,101.999,100.148,0.00386968,0.104145,20.8466,466.615,0.168059,0.0,0.0
576,143.75,41.8324,45.1271,150.992,102.005,100.08,0.00385211,0.104054,20.8468,466.605,0.174816,0.0,0.0
578,144.25,41.586,45.6039,159.131,101.992,100.011,0.00383787,0.103974,20.847,466.585,0.180028,0.0,0.0
580,144.75,41.395,45.4461,154.571,102.002,99.9514,0.00380544,0.103902,20.8471,466.575,0.186326,0.0,0.0
582,145.25,41.3967,45.8086,150.472,102.012,100.564,0.00376035,0.103844,20.8473,466.585,0.131226,0.0,0.0
584,145.75,41.6369,45.18,156.18,102.009,99.9529,0.00370026,0.103756,20.8474,466.585,0.186817,0.0,0.0
586,146.25,42.016,45.6633,150.408,102.005,100.013,0.00365159,0.103684,20.8474,466.615,0.181029,0.0,0.0
588,146.75,41.6514,45.5936,154.603,102.003,100.029,0.00359853,0.103612,20.8475,466.635,0.179271,0.0,0.0
590,147.25,42.108,45.6483,157.605,102,99.6502,0.00355556,0.103541,20.8476,466.645,0.213872,0.0,0.0
592,147.75,41.6418,45.9831,153.885,102.008,99.7901,0.00351455,0.103483,20.8476,466.635,0.201735,0.0,0.0
594,148.25,41.6693,45.8681,155.625,101.994,99.8033,0.00348133,0.103436,20.8474,466.645,0.199263,0.0,0.0
596,148.75,41.6487,45.5182,150.64,102.007,100.014,0.00345182,0.103398,20.847,466.645,0.181047,0.0,0.0
598,149.25,41.3985,45.1248,155.719,101.996,99.994,0.00342557,0.10334,20.8467,466.645,0.181934,0.0,0.0
600,149.75,41.6773,45.6134,158.073,102.013,100.224,0.00340104,0.103292,20.8465,466.635,0.162399,0.0,0.0
602,150.25,41.7211,45.3931,152.031,101.995,99.7835,0.00337824,0.103186,20.8463,466.625,0.201191,0.0,0.0
604,150.75,41.5582,45.5956,155.809,102.006,99.7632,0.00335977,0.1031,20.8461,466.635,0.204022,0.0,0.0
606,151.25,41.6957,45.3069,153.306,102.006,100.008,0.00334677,0.102948,20.846,466.625,0.181521,0.0,0.0
608,151.75,42.2081,45.2451,157.436,102.015,99.7262,0.003338,0.102824,20.8459,466.625,0.208242,0.0,0.0
610,152.25,41.3074,45.7537,152.953,101.989,99.8905,0.00333872,0.102725,20.8458,466.635,0.190765,0.0,0.0
612,152.75,41.5586,45.2695,154.502,101.997,100.064,0.00334634,0.102644,20.8458,466.645,0.175543,0.0,0.0
614,153.25,41.4304,45.3005,155.902,101.988,100.077,0.00335252,0.102578,20.8457,466.655,0.173648,0.0,0.0
616,153.75,41.6885,45.5475,156.77,101.997,100.057,0.0033848,0.102539,20.8457,466.645,0.176204,0.0,0.0
618,154.25,41.1061,45.4774,150.024,101.987,100.128,0.00341095,0.102507,20.8456,466.625,0.168843,0.0,0.0
620,154.75,41.3654,45.6453,153.833,102.002,100.263,0.00343213,0.102481,20.8456,466.635,0.157786,0.0,0.0
622,155.25,41.5263,45.8413,155.016,101.999,99.9311,0.00348031,0.10246,20.8456,466.625,0.187929,0.0,0.0
624,155.75,41.1535,45.6092,151.958,102.001,99.9605,0.00351933,0.102444,20.8455,466.655,0.185451,0.0,0.0
626,156.25,41.9966,45.2953,155.509,101.975,99.8383,0.0035412,0.102375,20.8455,466.645,0.19434,0.0,0.0
628,156.75,41.2963,45.4919,150.318,101.997,100.013,0.00357858,0.102305,20.8456,466.635,0.180241,0.0,0.0
630,157.25,41.3968,45.8309,156.311,101.989,100.492,0.0036056,0.102236,20.8459,466.635,0.135685,0.0,0.0
632,157.75,41.1131,45.7989,160.21,102,99.9453,0.00362454,0.102179,20.8462,466.635,0.1867,0.0,0.0
634,158.25,41.1081,45.4038,153.958,101.993,100.025,0.00363988,0.102134,20.8464,466.595,0.178762,0.0,0.0
636,158.75,41.156,45.6607,154.93,101.991,100.273,0.00363794,0.102069,20.8466,466.585,0.155932,0.0,0.0
638,159.25,41.4466,45.6832,154.435,101.989,100.012,0.00362344,0.102042,20.8467,466.585,0.179629,0.0,0.0
640,159.75,41.4082,45.366,151.917,102.006,99.6512,0.00361169,0.101913,20.8468,466.575,0.214298,0.0,0.0
642,160.25,41.2645,45.6337,157.287,101.993,99.9103,0.00356745,0.101809,20.8469,466.535,0.189283,0.0,0.0
644,160.75,40.9908,45.6415,153.231,102.003,99.6811,0.00353162,0.101666,20.847,466.555,0.211245,0.0,0.0
646,161.25,41.137,45.4607,149.791,101.993,99.82,0.0034902,0.101499,20.8471,466.625,0.19765,0.0,0.0
648,161.75,41.0419,45.2161,155.308,101.989,99.7146,0.00345666,0.101364,20.8471,466.635,0.20698,0.0,0.0
650,162.25,41.054,45.2192,150.06,101.982,99.8281,0.00342824,0.10124,20.8472,466.625,0.195902,0.0,0.0
652,162.75,41.3466,45.2215,156.499,101.98,99.9275,0.00340523,0.101127,20.8472,466.515,0.186586,0.0,0.0
654,163.25,40.849,45.7925,154.411,101.99,99.5761,0.00338789,0.101035,20.8472,466.545,0.219802,0.0,0.0
656,163.75,41.3973,45.4471,155.051,101.991,99.7201,0.00337502,0.100988,20.8472,466.525,0.206578,0.0,0.0
658,164.25,40.9147,44.5104,157.053,101.985,99.7835,0.0033646,0.10095,20.8473,466.585,0.200265,0.0,0.0
660,164.75,41.4391,45.2291,154.613,101.984,99.7191,0.00335616,0.100919,20.8473,466.605,0.206115,0.0,0.0
662,165.25,41.1821,45.3321,156.111,101.986,99.7404,0.00334932,0.100894,20.8473,466.585,0.20434,0.0,0.0
664,165.75,41.2193,44.7814,155.147,101.991,99.9544,0.00333856,0.10086,20.8473,466.535,0.18512,0.0,0.0
666,166.25,40.8443,45.7567,154.845,101.987,99.6456,0.00332515,0.100833,20.8473,466.555,0.213143,0.0,0.0
668,166.75,41.2118,45.5798,151.571,101.989,100.162,0.00331299,0.10081,20.8473,466.565,0.165878,0.0,0.0
670,167.25,41.0513,45.1735,159.776,101.986,99.8743,0.00330197,0.100738,20.8473,466.555,0.191995,0.0,0.0
672,167.75,41.6096,44.6911,155.258,101.981,100.114,0.00330086,0.100679,20.8473,466.565,0.169541,0.0,0.0
674,168.25,41.6555,44.774,152.462,102.003,100.053,0.003307,0.100576,20.8473,466.565,0.177094,0.0,0.0
676,168.75,41.2985,44.997,155.723,101.985,99.6943,0.00332699,0.100494,20.8473,466.555,0.208475,0.0,0.0
678,169.25,40.8435,44.5388,154.393,102.005,99.9777,0.00335668,0.100441,20.8478,466.535,0.184166,0.0,0.0
680,169.75,41.0263,45.3682,154.29,101.988,100.242,0.00339052,0.100411,20.8481,466.545,0.158429,0.0,0.0
682,170.25,40.7525,45.3102,151.222,101.987,100.212,0.00342675,0.10038,20.8484,466.525,0.161132,0.0,0.0
684,170.75,41.2273,45.0386,155.902,101.984,100.554,0.00345609,0.100348,20.8486,466.525,0.129629,0.0,0.0
686,171.25,41.2738,45.2974,157.077,102,99.6786,0.00347738,0.100322,20.8488,466.535,0.211221,0.0,0.0
688,171.75,41.491,45.3536,155.484,101.983,100.207,0.00349462,0.100246,20.849,466.575,0.161178,0.0,0.0
690,172.25,41.1194,45.3557,153.26,101.993,99.9681,0.0034864,0.100171,20.8491,466.585,0.184011,0.0,0.0
692,172.75,41.2651,45.5617,154.485,101.991,100.299,0.00345977,0.100097,20.8496,466.625,0.153482,0.0,0.0
694,173.25,41.4512,45.3748,157.239,101.987,100.287,0.0034382,0.100037,20.8501,466.635,0.154272,0.0,0.0
696,173.75,41.3426,44.8584,157.243,101.985,99.8489,0.00338605,0.100029,20.8504,466.645,0.194251,0.0,0.0
698,174.25,41.0182,45.1937,149.912,101.983,100.226,0.00334381,0.100023,20.8507,466.595,0.15946,0.0,0.0
700,174.75,41.1197,45.0723,156.496,102.005,99.7409,,0.099996,,466.585,0.206001,0.0,0.0
702,175.25,41.417,45.2323,154.639,101.994,99.9072,,0.099955,,466.575,0.18971,0.0,0.0
704,175.75,40.7313,44.963,154.509,101.99,99.8408,,0.0999218,,466.505,0.195442,0.0,0.0
706,176.25,41.2476,45.5028,154.92,101.998,99.6086,,0.0998676,,466.535,0.217516,0.0,0.0
708,176.75,41.3949,45.7133,153.23,101.979,99.5761,,0.0998237,,466.535,0.218837,0.0,0.0
710,177.25,40.806,45.5094,155.016,102,100.062,,0.0997738,,466.545,0.176025,0.0,0.0
712,177.75,41.2008,45.3804,156.292,101.992,100.001,,,,466.505,0.180922,0.0,0.0
714,178.25,41.3168,44.54,156.16,101.998,100.105,,,,466.505,0.171897,0.0,0.0
716,178.75,40.5915,45.5654,149.053,101.982,100.408,,,,466.565,0.142697,0.0,0.0
718,179.25,41.4128,45.1867,154.982,101.998,100.155,,,,466.515,0.167307,0.0,0.0
720,179.75,41.3537,45.5551,157.1,101.988,99.8996,,,,466.465,0.189853,0.0,0.0
722,180.25,41.224,45.0771,154.506,101.995,100.102,,,,466.465,0.171833,0.0,0.0
724,180.75,41.1573,45.2644,153.987,101.986,99.9564,,,,466.485,0.184488,0.0,0.0
726,181.25,40.9947,45.2151,155.571,101.998,99.8003,,,,466.505,0.199838,0.0,0.0
728,181.75,41.6196,45.5278,156.271,101.984,99.6334,,,,466.515,0.214003,0.0,0.0
730,182.25,41.4675,45.0643,157.908,101.994,99.6907,,,,466.525,0.209618,0.0,0.0
732,182.75,41.2943,45.2271,154.49,101.988,100.029,,,,466.525,0.177936,0.0,0.0
734,183.25,41.4361,45.6445,159.139,101.995,99.7658,,,,466.515,0.202824,0.0,0.0
736,183.75,41.2958,44.9512,154.052,101.986,99.7536,,,,466.495,0.20309,0.0,0.0
738,184.25,41.0723,45.1069,151.127,101.998,100.197,,,,466.485,0.163488,0.0,0.0
740,184.75,41.0956,45.2697,156.502,101.977,99.8287,,,,466.505,0.195337,0.0,0.0
742,185.25,41.1885,44.8962,153.749,101.995,99.8941,,,,466.505,0.191032,0.0,0.0
743,185.5,41.3014,45.6601,157.846,101.986,99.8652,,,,466.495,0.192872,0.0,0.0