File: 01_Data/Overstuffed_Chair_Polyester_Batting/Cone/Overstuffed_Chair_Polyester_Batting_Cone_HF75Scan_210325_R3.csv
Names,Time,Stack TC,Smoke TC,Exh Press,Smoke Comp,Smoke Meas,CO Meter,CO2 Meter,O2 Meter,Sample Mass,Ext Coeff,Start Test,Flame Verif
Chan Gain,,500,500,1,1,1,1,1,1,1,1,1.0,1.0
Offset,,0,0,0.138348,0,0,0,0,0,0,0,0.0,0.0
Gain,,1,1,25.011,13.5067,16.616,1,1,1,1.00091,1.04608,1.0,1.0
Units,sec,C,C,Pa,%,%,%,%,%,g,/m,,
Baseline,,40.3716,43.5907,157.713,101.976,99.5504,-0.00067669,0.0821546,20.8721,-1.99207,0.22091,,
2,0.25,36.1584,37.6208,156.544,101.916,99.2141,-0.000613892,0.086334,20.8681,485.422,0.246549,0.0,0.0
4,0.75,35.7075,37.82,154.029,101.914,99.6314,-0.000596488,0.0863685,20.8683,485.372,0.207884,0.0,0.0
6,1.25,35.9344,37.9729,159.992,101.916,99.14,-0.000581112,0.0863822,20.8685,485.312,0.253362,0.0,0.0
8,1.75,35.7887,37.5148,156.196,101.909,99.1664,-0.000567507,0.0863804,20.869,485.302,0.250326,0.0,0.0
10,2.25,35.7222,37.9184,155.889,101.914,99.2131,-0.000556486,0.0863789,20.8695,485.272,0.246495,0.0,0.0
12,2.75,35.8823,38.0632,155.586,101.904,99.6456,-0.000520765,0.0863369,20.8699,485.272,0.205685,0.0,0.0
14,3.25,35.9957,37.681,155.702,101.909,99.4169,-0.000491831,0.086303,20.8704,485.312,0.22714,0.0,0.0
16,3.75,35.9994,37.8779,154.526,101.901,99.5558,-0.000445255,0.0862111,20.8707,485.302,0.21362,0.0,0.0
18,4.25,36.6134,38.235,153.184,101.908,99.3916,-0.000407528,0.0860789,20.871,485.282,0.229443,0.0,0.0
20,4.75,36.3954,38.9522,156.116,101.9,99.4286,-0.000366073,0.0859718,20.8713,485.262,0.225284,0.0,0.0
22,5.25,35.9661,39.1263,152.634,101.908,99.4123,-0.000322686,0.08575,20.8719,485.252,0.227487,0.0,0.0
24,5.75,36.5579,39.1576,157.509,101.906,99.2633,-0.000287544,0.0855704,20.8724,485.252,0.241147,0.0,0.0
26,6.25,36.5829,38.6248,154.419,101.909,99.1831,-0.000260296,0.0853678,20.8728,485.242,0.248779,0.0,0.0
28,6.75,36.6033,39.1312,159.584,101.902,99.2323,-0.000238225,0.0851522,20.8731,485.222,0.243636,0.0,0.0
30,7.25,36.2409,39.4872,154.606,101.909,99.495,-0.000234962,0.0849491,20.8734,485.222,0.22001,0.0,0.0
32,7.75,36.9773,39.5701,157.633,101.899,99.3358,-0.000232319,0.0847588,20.8736,485.232,0.233815,0.0,0.0
34,8.25,36.8198,39.8538,157.62,101.915,99.1517,-0.000234666,0.0846047,20.8738,485.222,0.252245,0.0,0.0
36,8.75,37.2392,40.0076,156.022,101.897,99.5462,-0.000240605,0.0844935,20.8739,485.222,0.214138,0.0,0.0
38,9.25,36.984,39.8996,162.547,101.906,99.1796,-0.000243492,0.0844033,20.8741,485.202,0.248848,0.0,0.0
40,9.75,37.6018,40.2903,152.913,101.907,99.1745,-0.0002441,0.0843161,20.8742,485.212,0.249391,0.0,0.0
42,10.25,36.876,39.7738,157.496,101.902,98.9712,-0.00022985,0.0842325,20.8742,485.172,0.267742,0.0,0.0
44,10.75,37.4976,40.0608,161.177,101.89,98.5914,-0.000205039,0.0841863,20.8743,485.182,0.301983,0.0,0.0
46,11.25,37.2095,40.2902,154.062,101.904,98.921,-0.000184943,0.0841681,20.8743,485.162,0.27262,0.0,0.0
48,11.75,37.2333,40.4335,153.877,101.895,97.8703,-9.55473e-05,0.0841676,20.8744,485.172,0.369749,0.0,0.0
50,12.25,37.7086,40.658,161.714,101.902,98.0721,-2.31372e-05,0.0841801,20.8744,485.162,0.351552,0.0,0.0
52,12.75,37.3801,40.8618,156.399,101.896,97.6695,3.5515e-05,0.0842116,20.8744,485.152,0.388745,0.0,0.0
54,13.25,37.3717,41.0671,153.857,101.911,96.6914,0.000229684,0.0842565,20.8744,485.162,0.482405,0.0,0.0
56,13.75,37.7294,41.07,154.637,101.894,95.2102,0.000386961,0.0842928,20.8743,485.122,0.622573,0.0,0.0
58,14.25,37.4806,41.0682,153.371,101.904,94.4354,0.000632112,0.0844036,20.8742,485.122,0.698408,0.0,0.0
60,14.75,38.3188,41.2145,154.202,101.895,93.4531,0.000830684,0.0844934,20.8741,485.132,0.793606,0.0,0.0
62,15.25,38.3807,41.1299,157.671,101.903,92.4983,0.000991527,0.0846729,20.874,485.092,0.888547,0.0,0.0
64,15.75,38.4725,41.4811,154.809,101.887,92.0257,0.00124441,0.0849143,20.8739,485.072,0.934065,0.0,0.0
66,16.25,37.8874,41.017,159.31,101.904,90.9025,0.00155959,0.0851099,20.8737,485.052,1.04835,0.0,0.0
68,16.75,38.4357,42.0755,153.208,101.888,89.683,0.00192059,0.0861247,20.8735,485.042,1.17084,0.0,0.0
70,17.25,38.9387,41.967,151.717,101.92,89.2571,0.00230813,0.0869466,20.869,485.012,1.21738,0.0,0.0
72,17.75,37.704,42.3737,157.328,101.885,86.2612,0.0027474,0.0876123,20.8653,484.981,1.52754,0.0,0.0
74,18.25,38.5787,42.449,157.666,101.9,87.2926,0.00321604,0.0925967,20.8417,484.761,1.41977,0.0,1.0
76,18.75,38.5839,42.8597,145.166,101.879,90.2646,0.00359563,0.100635,20.8226,484.691,1.11066,0.0,1.0
78,19.25,39.0147,43.2203,144.366,101.901,82.6179,0.00421588,0.107146,20.7914,484.591,1.92494,0.0,1.0
80,19.75,39.7353,44.2627,141.98,101.878,80.4927,0.00471828,0.122232,20.7521,484.541,2.16194,0.0,1.0
82,20.25,39.9138,44.8377,143.477,101.896,79.8406,0.00544234,0.134453,20.7202,484.431,2.23822,0.0,1.0
84,20.75,40.1702,45.7919,139.6,101.878,79.5014,0.00631423,0.155418,20.6781,484.311,2.27566,0.0,1.0
86,21.25,40.8275,46.3731,140.004,101.888,80.7802,0.00729873,0.172399,20.6441,484.281,2.13019,0.0,1.0
88,21.75,41.3374,46.8509,147.632,101.876,73.42,0.00834663,0.19763,20.6096,484.211,3.00569,0.0,1.0
90,22.25,41.7437,47.9338,141.19,101.887,73.455,0.00919543,0.218067,20.5754,483.991,3.00232,0.0,1.0
92,22.75,40.9379,47.0456,142.522,101.871,74.8961,0.0102893,0.241757,20.5477,483.941,2.82259,0.0,1.0
94,23.25,40.9024,47.6414,144.193,101.887,67.7275,0.011541,0.26737,20.5095,483.87,3.74728,0.0,0.0
96,23.75,41.9871,48.7691,144.451,101.878,68.3543,0.0129675,0.288116,20.4785,483.79,3.66197,0.0,0.0
98,24.25,42.1675,48.614,141.909,101.881,63.6475,0.0144943,0.318861,20.4308,483.67,4.31681,0.0,0.0
100,24.75,42.5751,49.7627,137.74,101.876,63.5872,0.016034,0.343764,20.3922,483.64,4.32507,0.0,0.0
102,25.25,42.9699,50.9392,141.813,101.882,62.9899,0.0175538,0.378094,20.3438,483.53,4.41227,0.0,0.0
104,25.75,43.7152,51.9105,139.777,101.881,58.0175,0.0190554,0.405902,20.3046,483.49,5.16668,0.0,0.0
106,26.25,44.401,52.9514,134.135,101.884,57.5758,0.0205153,0.428426,20.2593,483.31,5.23713,0.0,0.0
108,26.75,45.3773,54.5565,135.969,101.884,64.0623,0.0216979,0.460395,20.2225,483.18,4.2575,0.0,0.0
110,27.25,46.1807,55.5951,137.77,101.876,64.8534,0.0230849,0.48629,20.1928,483.07,4.14418,0.0,0.0
112,27.75,46.7712,56.6623,137.722,101.883,60.7937,0.0245946,0.517137,20.1586,482.98,4.73795,0.0,0.0
114,28.25,47.6656,57.7618,133.244,101.875,58.7938,0.0261161,0.547228,20.1309,482.92,5.04418,0.0,0.0
116,28.75,48.5332,58.3694,131.482,101.878,60.9702,0.0276173,0.576196,20.0967,482.719,4.71094,0.0,0.0
118,29.25,48.9387,60.0381,137.34,101.872,56.2178,0.0290833,0.59966,20.0689,482.699,5.45503,0.0,0.0
120,29.75,49.1384,60.6104,136.037,101.874,54.5668,0.0304958,0.625916,20.032,482.559,5.72875,0.0,0.0
122,30.25,49.7844,61.723,143.274,101.871,56.1479,0.0316399,0.653709,20.002,482.369,5.46643,0.0,0.0
124,30.75,50.522,63.2285,132.664,101.878,52.0253,0.0329477,0.676221,19.9616,482.219,6.16677,0.0,0.0
126,31.25,50.9451,64.466,138.548,101.873,58.2923,0.0340071,0.708288,19.9288,482.189,5.12264,0.0,0.0
128,31.75,51.9499,65.3573,131.643,101.882,51.8042,0.0350942,0.73902,19.9011,481.999,6.20622,0.0,0.0
130,32.25,52.81,66.4896,136.739,101.87,60.5665,0.0359748,0.768196,19.8776,481.879,4.77119,0.0,0.0
132,32.75,53.1638,67.7262,126.296,101.884,55.0688,0.036702,0.791828,19.8586,481.759,5.64564,0.0,0.0
134,33.25,53.442,68.6914,130.681,101.884,55.2625,0.0373034,0.817877,19.8432,481.719,5.61342,0.0,0.0
136,33.75,54.6672,69.1204,141.468,101.885,57.3217,0.0377906,0.838976,19.8307,481.528,5.27782,0.0,0.0
138,34.25,54.9373,70.2008,139.099,101.875,57.8552,0.0379735,0.860406,19.8206,481.408,5.19189,0.0,0.0
140,34.75,55.5096,70.9461,140.706,101.873,59.5858,0.0379311,0.877763,19.8123,481.338,4.92124,0.0,0.0
142,35.25,56.7665,70.8089,129.315,101.883,56.9602,0.0376152,0.892692,19.8055,481.178,5.33569,0.0,0.0
144,35.75,56.4355,72.3804,136.089,101.883,59.2233,0.0371059,0.905567,19.8035,481.078,4.9781,0.0,0.0
146,36.25,56.9359,73.1949,133.666,101.864,59.5585,0.0363148,0.915996,19.805,481.018,4.92468,0.0,0.0
148,36.75,57.3495,73.3222,138.491,101.882,64.9193,0.0353333,0.920888,19.8211,480.948,4.13538,0.0,0.0
150,37.25,57.4947,73.4918,137.092,101.876,69.0865,0.0341657,0.92485,19.8342,480.838,3.56398,0.0,0.0
152,37.75,58.5553,74.5037,139.99,101.89,70.9622,0.0328848,0.928059,19.8447,480.808,3.31939,0.0,0.0
154,38.25,58.5199,74.0095,140.658,101.873,70.7573,0.0318473,0.921109,19.8667,480.738,3.34447,0.0,0.0
156,38.75,57.9156,73.7185,136.627,101.881,73.8302,0.0310069,0.91548,19.8965,480.698,2.95505,0.0,0.0
158,39.25,58.6978,74.0415,135.513,101.871,71.844,0.0291588,0.901864,19.9291,480.638,3.20444,0.0,0.0
160,39.75,58.5765,74.3079,136.365,101.882,74.8854,0.0276618,0.890835,19.9631,480.587,2.82494,0.0,0.0
162,40.25,58.616,74.5465,141.671,101.867,76.7444,0.0259008,0.872864,19.9974,480.477,2.59859,0.0,0.0
164,40.75,58.1793,74.1079,139.911,101.878,80.4932,0.0244743,0.858308,20.0311,480.417,2.16192,0.0,0.0
166,41.25,58.7494,74.5107,149.267,101.872,78.2433,0.0229883,0.846518,20.0585,480.367,2.42154,0.0,0.0
168,41.75,58.6186,74.2383,141.731,101.885,77.7089,0.0214872,0.823552,20.0924,480.347,2.48555,0.0,0.0
170,42.25,58.8208,74.3108,142.415,101.866,78.8016,0.0202713,0.80495,20.12,480.277,2.35574,0.0,0.0
172,42.75,58.9174,74.303,140.446,101.88,81.4628,0.0189454,0.781919,20.1487,480.227,2.05224,0.0,0.0
174,43.25,58.6072,74.2682,143.511,101.874,80.1682,0.0178714,0.763264,20.1778,480.197,2.19868,0.0,0.0
176,43.75,58.8327,73.6174,140.707,101.883,82.3121,0.0167059,0.743261,20.2056,480.147,1.95729,0.0,0.0
178,44.25,58.6204,73.4132,144.159,101.881,82.0023,0.0157618,0.722655,20.2318,480.117,1.99178,0.0,0.0
180,44.75,58.4304,73.6052,149.777,101.883,81.2173,0.0148684,0.705965,20.253,480.047,2.08015,0.0,0.0
182,45.25,58.4967,73.1888,145.976,101.875,82.5398,0.0140289,0.684011,20.2798,480.007,1.93127,0.0,0.0
184,45.75,58.1127,73.3078,147.623,101.882,82.3836,0.013239,0.666228,20.3015,479.977,1.94925,0.0,0.0
186,46.25,58.3743,72.5315,146.129,101.87,83.1863,0.0125003,0.648058,20.3266,479.917,1.8592,0.0,0.0
188,46.75,58.5082,72.6136,142.76,101.883,83.4541,0.011902,0.629952,20.3469,479.887,1.8309,0.0,0.0
190,47.25,58.0065,72.2385,147.43,101.871,84.0154,0.0112111,0.612292,20.3672,479.857,1.76827,0.0,0.0
192,47.75,57.3889,72.313,147.61,101.881,84.3506,0.0106515,0.595293,20.3873,479.837,1.7327,0.0,0.0
194,48.25,57.6654,71.6627,151.811,101.864,85.7598,0.0101982,0.581524,20.4035,479.797,1.57915,0.0,0.0
196,48.75,57.3368,71.6288,146.253,101.887,86.8779,0.00959927,0.563615,20.4208,479.757,1.46229,0.0,0.0
198,49.25,57.5402,71.2949,149.631,101.861,88.7429,0.00911416,0.549109,20.4385,479.687,1.26508,0.0,0.0
200,49.75,57.1763,70.8532,144.513,101.884,88.4244,0.00859644,0.531621,20.4559,479.687,1.30015,0.0,0.0
202,50.25,57.1727,70.5841,150.304,101.86,89.5745,0.00817709,0.517455,20.4726,479.687,1.17938,0.0,0.0
204,50.75,56.9147,70.0263,150.79,101.883,90.9882,0.00771429,0.502536,20.4892,479.657,1.03777,0.0,0.0
206,51.25,56.3729,69.7863,146.242,101.861,90.5151,0.00733942,0.487349,20.5054,479.627,1.0836,0.0,0.0
208,51.75,56.7034,69.1749,147.522,101.892,91.4314,0.00693432,0.475048,20.5223,479.627,0.993999,0.0,0.0
210,52.25,56.5751,68.915,147.988,101.871,92.3284,0.00660619,0.459018,20.5396,479.587,0.902519,0.0,0.0
212,52.75,56.1953,68.4753,151.527,101.877,92.3726,0.00623796,0.446034,20.5564,479.567,0.898654,0.0,0.0
214,53.25,55.9087,68.682,145.182,101.876,92.7057,0.0059397,0.430823,20.5725,479.537,0.865508,0.0,0.0
216,53.75,55.8973,68.0659,148.085,101.892,94.6788,0.00564499,0.418502,20.5855,479.547,0.673785,0.0,0.0
218,54.25,55.3795,67.574,147.923,101.867,93.8578,0.00535848,0.403971,20.6013,479.537,0.751397,0.0,0.0
220,54.75,55.4804,67.0565,153.824,101.878,94.9602,0.0051264,0.392202,20.6141,479.486,0.64525,0.0,0.0
222,55.25,54.9804,66.6807,147.743,101.877,95.415,0.00490505,0.378395,20.6245,479.507,0.601292,0.0,0.0
224,55.75,55.105,66.881,154.906,101.877,96.8095,0.00469572,0.367211,20.6381,479.476,0.468193,0.0,0.0
226,56.25,54.6926,65.6277,152.347,101.868,97.3328,0.00451963,0.355702,20.6492,479.486,0.417908,0.0,0.0
228,56.75,54.0243,65.5704,151.39,101.874,98.1822,0.00437112,0.344175,20.6621,479.466,0.338738,0.0,0.0
230,57.25,54.2468,65.0902,149.549,101.871,98.3693,0.00425082,0.334838,20.6726,479.476,0.321007,0.0,0.0
232,57.75,54.1881,64.766,156.212,101.895,98.6228,0.00415959,0.324254,20.6854,479.476,0.299504,0.0,0.0
234,58.25,53.7105,64.051,154.745,101.868,99.1999,0.00409746,0.31296,20.6958,479.496,0.243519,0.0,0.0
236,58.75,53.0699,63.8454,153.446,101.88,99.4955,0.00405772,0.301232,20.7095,479.476,0.217328,0.0,0.0
238,59.25,53.272,63.2739,157.579,101.868,99.7607,0.00404648,0.289411,20.7206,479.486,0.191787,0.0,0.0
240,59.75,52.8221,62.363,153.616,101.876,99.8084,0.00405622,0.279835,20.7309,479.466,0.188184,0.0,0.0
242,60.25,52.6739,62.0567,154.522,101.853,99.7004,0.00408376,0.268792,20.7392,479.396,0.196003,0.0,0.0
244,60.75,52.0325,61.5227,156.201,101.865,99.6497,0.00412375,0.259847,20.746,479.476,0.201785,0.0,0.0
246,61.25,51.9593,61.553,151.039,101.873,99.9788,0.00415614,0.249627,20.7537,479.486,0.172199,0.0,0.0
248,61.75,52.3998,61.2826,153.545,101.877,100.177,0.00416995,0.241349,20.7569,479.466,0.154428,0.0,0.0
250,62.25,51.7694,60.7375,154.998,101.877,99.7962,0.00419357,0.232345,20.7625,479.466,0.189377,0.0,0.0
252,62.75,51.4465,60.6193,154.916,101.879,99.5665,0.00425755,0.225052,20.7677,479.476,0.210709,0.0,0.0
254,63.25,51.2075,59.7222,156.341,101.869,100.047,0.00430675,0.217221,20.7724,479.476,0.165547,0.0,0.0
256,63.75,50.6579,59.7419,150.58,101.877,99.8211,0.00434424,0.210878,20.7767,479.486,0.187092,0.0,0.0
258,64.25,50.6548,59.6401,154.443,101.879,99.5376,0.00437461,0.20574,20.7806,479.486,0.213335,0.0,0.0
260,64.75,50.0714,58.8285,157.686,101.888,99.9382,0.0043855,0.203549,20.784,479.446,0.177259,0.0,0.0
262,65.25,50.2989,58.4675,158.843,101.881,99.7927,0.00439432,0.197124,20.787,479.456,0.190074,0.0,0.0
264,65.75,50.4884,58.0684,155.41,101.883,99.9098,0.00440474,0.19192,20.7893,479.456,0.179459,0.0,0.0
266,66.25,49.8206,57.9782,155.035,101.873,99.6071,0.00441614,0.186246,20.7922,479.466,0.206451,0.0,0.0
268,66.75,48.2161,56.3726,151.628,101.888,99.6786,0.00444309,0.18165,20.7944,479.456,0.201166,0.0,0.0
270,67.25,48.3899,56.4645,152.025,101.869,99.9544,0.00448086,0.176996,20.7967,479.466,0.174099,0.0,0.0
272,67.75,48.4142,55.4365,153.997,101.888,100.266,0.00453511,0.173227,20.7986,479.446,0.147222,0.0,0.0
274,68.25,48.3423,55.2972,153.699,101.876,99.8794,0.00460033,0.169625,20.8009,479.406,0.181622,0.0,0.0
276,68.75,48.2501,54.9179,154.787,101.886,99.7678,0.00465316,0.166215,20.8029,479.456,0.192768,0.0,0.0
278,69.25,47.7167,55.2198,156.464,101.881,99.856,0.00471173,0.16298,20.8044,479.486,0.184248,0.0,0.0
280,69.75,47.8713,55.5137,152.416,101.886,99.784,0.00477338,0.159935,20.8061,479.436,0.191275,0.0,0.0
282,70.25,47.0983,54.3345,152.967,101.884,100.097,0.00482332,0.157468,20.8075,479.466,0.162355,0.0,0.0
284,70.75,47.3322,54.3992,155.951,101.883,99.8951,0.00486376,0.154687,20.8091,479.446,0.180773,0.0,0.0
286,71.25,47.5011,53.5908,153.034,101.889,99.7734,0.00488995,0.152434,20.8103,479.426,0.192515,0.0,0.0
288,71.75,47.2394,53.5146,147.642,101.894,99.925,0.00490524,0.150219,20.8113,479.446,0.179026,0.0,0.0
290,72.25,46.931,53.4215,156.277,101.877,99.7567,0.00491434,0.148075,20.8122,479.446,0.192976,0.0,0.0
292,72.75,46.3491,53.5934,154.829,101.906,99.7501,0.00491875,0.146031,20.8128,479.446,0.196219,0.0,0.0
294,73.25,46.6334,52.6454,152.42,101.889,99.9463,0.00492166,0.144097,20.8134,479.446,0.176626,0.0,0.0
296,73.75,46.8235,52.9662,151.762,101.898,100.302,0.00492343,0.142531,20.8143,479.416,0.144818,0.0,0.0
298,74.25,46.982,52.8848,154.704,101.896,99.8327,0.00492684,0.140887,20.815,479.396,0.187691,0.0,0.0
300,74.75,46.505,52.2118,152.624,101.895,100.001,0.00493137,0.139555,20.8158,479.406,0.172194,0.0,0.0
302,75.25,46.1622,52.0979,153.419,101.899,99.8555,0.00493504,0.138115,20.8166,479.426,0.185854,0.0,0.0
304,75.75,45.813,52.623,153.911,101.904,99.5995,0.00493802,0.136948,20.8173,479.416,0.209898,0.0,0.0
306,76.25,45.6955,52.0586,157.908,101.902,99.676,0.00494043,0.135601,20.8181,479.396,0.202624,0.0,0.0
308,76.75,45.867,52.0078,155.951,101.898,99.672,0.00494238,0.134509,20.819,479.406,0.202664,0.0,0.0
310,77.25,45.6732,52.0924,154.194,101.9,99.8895,0.00492522,0.133278,20.8199,479.396,0.182843,0.0,0.0
312,77.75,45.6205,51.492,153.899,101.892,99.8824,0.00491133,0.132281,20.8208,479.396,0.182753,0.0,0.0
314,78.25,45.6132,51.1167,153.642,101.894,99.7759,0.00488759,0.131211,20.8219,479.396,0.192764,0.0,0.0
316,78.75,45.6174,51.2377,151.191,101.898,99.8545,0.00486836,0.130108,20.8229,479.396,0.185911,0.0,0.0
318,79.25,45.2043,50.7124,151.051,101.904,99.8008,0.00485278,0.129214,20.8237,479.436,0.191333,0.0,0.0
320,79.75,45.4618,51.232,153.073,101.89,99.712,0.00484017,0.128185,20.8248,479.436,0.198234,0.0,0.0
322,80.25,44.9637,50.421,152.504,101.906,99.7876,0.0048352,0.127076,20.8257,479.396,0.192731,0.0,0.0
324,80.75,45.1794,50.1805,153.322,101.9,99.8155,0.00483592,0.126018,20.8269,479.396,0.189648,0.0,0.0
326,81.25,44.7819,50.4041,155.214,101.91,99.6182,0.00483649,0.125016,20.8278,479.386,0.208728,0.0,0.0
328,81.75,44.9239,50.0753,152.256,101.904,99.8586,0.00483696,0.124045,20.8286,479.406,0.186019,0.0,0.0
330,82.25,44.4078,50.1379,152.901,101.913,99.9306,0.00483734,0.123115,20.8292,479.376,0.180222,0.0,0.0
332,82.75,44.8765,50.1686,150.859,101.915,100.019,0.00483107,0.122202,20.8297,479.376,0.172262,0.0,0.0
334,83.25,44.2967,50.289,155.319,101.926,100.101,0.00482008,0.121319,20.8305,479.376,0.165778,0.0,0.0
336,83.75,44.3423,49.8331,155.28,101.922,99.8439,0.00481118,0.120603,20.8312,479.366,0.189041,0.0,0.0
338,84.25,43.9346,48.6202,148.295,101.938,99.6725,0.00480273,0.11972,20.8318,479.366,0.206217,0.0,0.0
340,84.75,44.1824,49.422,153.762,101.922,99.8849,0.00479588,0.119005,20.8322,479.386,0.185267,0.0,0.0
342,85.25,43.9673,49.5573,151.402,101.932,100.053,0.00479033,0.118245,20.8326,479.396,0.170705,0.0,0.0
344,85.75,44.1081,49.6295,153.237,101.92,99.8931,0.00479241,0.117466,20.8329,479.396,0.1843,0.0,0.0
346,86.25,44.3498,49.0284,156.344,101.939,99.5249,0.00480002,0.116835,20.8337,479.366,0.219959,0.0,0.0
348,86.75,43.9777,48.545,158.863,101.922,99.9965,0.00480618,0.116076,20.8343,479.376,0.175024,0.0,0.0
350,87.25,44.2353,48.9779,153.935,101.938,99.8626,0.00481991,0.115461,20.8349,479.406,0.188726,0.0,0.0
352,87.75,44.5514,48.5544,156.315,101.928,99.9022,0.00483104,0.114963,20.8355,479.396,0.184203,0.0,0.0
354,88.25,44.0648,48.5147,152.248,101.943,99.8839,0.00484005,0.114313,20.8362,479.386,0.187216,0.0,0.0
356,88.75,43.7357,48.7137,155.164,101.947,99.8677,0.00484734,0.113785,20.837,479.406,0.189078,0.0,0.0
358,89.25,44.2743,48.6216,155.46,101.942,99.7217,0.00484701,0.113359,20.8376,479.426,0.202098,0.0,0.0
360,89.75,43.4066,48.9605,154.974,101.937,100.102,0.00484674,0.112849,20.8381,479.396,0.166603,0.0,0.0
362,90.25,43.3068,48.688,157.124,101.946,99.7348,0.00484652,0.112436,20.8385,479.366,0.201256,0.0,0.0
364,90.75,44.3891,48.7271,154.959,101.935,99.779,0.00483386,0.111977,20.8388,479.356,0.196196,0.0,0.0
366,91.25,43.5323,48.3589,153.939,101.936,100.063,0.00482361,0.111606,20.8391,479.346,0.170109,0.0,0.0
368,91.75,43.1872,48.6296,154.932,101.934,99.9529,0.00481405,0.111233,20.8393,479.376,0.180103,0.0,0.0
370,92.25,43.2327,48.0039,152.565,101.939,99.8332,0.00480631,0.110866,20.8395,479.346,0.191577,0.0,0.0
372,92.75,43.9883,47.8106,157.446,101.935,99.8996,0.00481003,0.110518,20.8399,479.376,0.185067,0.0,0.0
374,93.25,43.4958,48.2189,161.309,101.956,100.151,0.00481304,0.110191,20.8404,479.406,0.163932,0.0,0.0
376,93.75,43.3552,47.587,156.522,101.936,99.7445,0.00482672,0.109926,20.8408,479.386,0.199404,0.0,0.0
378,94.25,43.1867,47.785,151.257,101.948,100.273,0.0048378,0.109574,20.8411,479.356,0.152037,0.0,0.0
380,94.75,43.4481,47.4441,153.774,101.938,99.7617,0.00485072,0.109289,20.8414,479.356,0.198004,0.0,0.0
382,95.25,43.2556,47.9454,157.813,101.96,99.8799,0.00486473,0.109014,20.8416,479.376,0.18911,0.0,0.0
384,95.75,43.6372,47.5971,159.706,101.95,100.255,0.00487608,0.108753,20.8418,479.376,0.153893,0.0,0.0
386,96.25,42.8048,47.5717,157.117,101.958,99.8946,0.00489902,0.108513,20.8419,479.376,0.187611,0.0,0.0
388,96.75,42.7736,47.6902,154.229,101.953,99.7252,0.0049176,0.108292,20.8421,479.386,0.202772,0.0,0.0
390,97.25,43.4269,47.5667,151.362,101.97,99.7998,0.00493265,0.10807,20.8422,479.366,0.197363,0.0,0.0
392,97.75,42.9552,47.504,155.546,101.95,99.9387,0.00496983,0.107851,20.8421,479.356,0.182817,0.0,0.0
394,98.25,43.0263,47.1244,152.811,101.957,99.9291,0.00499994,0.107674,20.8421,479.356,0.184369,0.0,0.0
396,98.75,43.2247,47.3132,153.803,101.965,99.6375,0.00504059,0.107489,20.842,479.296,0.211849,0.0,0.0
398,99.25,42.9426,47.3373,152.101,101.968,99.9666,0.00507352,0.107339,20.8419,479.316,0.181888,0.0,0.0
400,99.75,42.9179,48.0252,154.503,101.963,100.002,0.00510414,0.107189,20.8419,479.316,0.178269,0.0,0.0
402,100.25,42.2268,47.1339,152.365,101.972,99.9646,0.0051325,0.107041,20.8419,479.316,0.182446,0.0,0.0
404,100.75,42.8101,47.1831,154.925,101.96,99.8925,0.00515086,0.10692,20.8418,479.326,0.187982,0.0,0.0
406,101.25,42.8967,46.6691,156.466,101.968,99.78,0.00516158,0.106802,20.8418,479.376,0.19907,0.0,0.0
408,101.75,42.5522,46.9912,151.578,101.972,100.098,0.00515711,0.106686,20.8418,479.416,0.170128,0.0,0.0
410,102.25,42.2808,47.2453,159.28,101.974,99.8221,0.00514164,0.10657,20.8422,479.396,0.195757,0.0,0.0
412,102.75,42.8931,46.9737,154.887,101.969,99.9706,0.00511003,0.106457,20.8426,479.376,0.18159,0.0,0.0
414,103.25,42.6389,47.2126,153.787,101.984,100.182,0.00506727,0.106308,20.8428,479.396,0.163537,0.0,0.0
416,103.75,42.5874,47.5494,156.815,101.963,99.7364,0.00503263,0.106135,20.8431,479.406,0.2026,0.0,0.0
418,104.25,43.0695,47.3437,156.773,101.97,99.4914,0.00496587,0.105966,20.8432,479.416,0.225791,0.0,0.0
420,104.75,42.348,46.5698,151.928,101.969,99.6588,0.0049118,0.105804,20.8434,479.386,0.21026,0.0,0.0
422,105.25,42.7477,46.4924,153.778,101.971,99.5472,0.00485553,0.105686,20.8435,479.376,0.22076,0.0,0.0
424,105.75,42.3618,46.6176,150.832,101.967,99.7212,0.00480995,0.105604,20.8436,479.376,0.20437,0.0,0.0
426,106.25,42.8957,46.7333,155.118,101.972,99.8697,0.00478051,0.105538,20.8437,479.356,0.191154,0.0,0.0
428,106.75,42.5302,46.9218,156.792,101.972,99.7308,0.00475667,0.105429,20.8437,479.346,0.20393,0.0,0.0
430,107.25,41.8542,46.5892,155.309,101.966,99.7749,0.0047459,0.105341,20.8438,479.356,0.199314,0.0,0.0
432,107.75,41.8176,46.5602,154.605,101.972,100.002,0.00474485,0.105219,20.8438,479.356,0.179049,0.0,0.0
434,108.25,42.3816,46.6048,155.755,101.979,99.9458,0.004744,0.105075,20.8439,479.336,0.184762,0.0,0.0
436,108.75,42.3335,46.5139,156.164,101.974,99.6973,0.00474332,0.104944,20.8439,479.346,0.207158,0.0,0.0
438,109.25,41.9787,46.3544,154.745,101.99,99.8271,0.00477023,0.104825,20.8441,479.366,0.196701,0.0,0.0
440,109.75,42.2241,46.2803,153.709,101.97,100.375,0.00479203,0.104735,20.8444,479.356,0.144681,0.0,0.0
442,110.25,42.055,45.9723,157.015,101.978,99.9904,0.00482342,0.10467,20.8446,479.356,0.180591,0.0,0.0
444,110.75,42.1863,46.1684,154.28,101.974,99.7612,0.00484886,0.104616,20.8448,479.376,0.201278,0.0,0.0
446,111.25,41.89,46.1934,155.185,101.988,99.7085,0.00486946,0.104573,20.845,479.356,0.207391,0.0,0.0
448,111.75,42.4942,46.0838,158.625,101.983,99.8069,0.00490864,0.104552,20.8451,479.306,0.197934,0.0,0.0
450,112.25,42.1618,46.2227,150.076,101.977,100.366,0.00494037,0.104549,20.8452,479.346,0.146063,0.0,0.0
452,112.75,41.8542,46.2245,154.595,101.991,99.779,0.00498484,0.104532,20.8453,479.326,0.201241,0.0,0.0
454,113.25,42.3631,46.4484,153.198,101.979,99.7257,0.00502085,0.104519,20.8454,479.296,0.205064,0.0,0.0
456,113.75,41.9713,46.3412,154.863,101.986,99.7288,0.00505878,0.1045,20.8454,479.296,0.20534,0.0,0.0
458,114.25,42.3414,45.9523,155.817,101.981,99.9671,0.00509082,0.104479,20.8455,479.296,0.182991,0.0,0.0
460,114.75,42.095,45.8565,150.261,101.985,100.054,0.00511796,0.104462,20.8455,479.326,0.175407,0.0,0.0
462,115.25,42.3415,46.4166,153.516,101.993,99.8434,0.00513599,0.104434,20.8455,479.326,0.195469,0.0,0.0
464,115.75,42.1329,46.2042,156.844,101.991,99.7435,0.00514703,0.104412,20.8456,479.336,0.204431,0.0,0.0
466,116.25,42.0191,46.3518,154.167,101.979,99.8246,0.00514611,0.104312,20.8456,479.316,0.195969,0.0,0.0
468,116.75,42.2792,46.8571,158.154,101.988,100.106,0.00514104,0.104231,20.8456,479.316,0.170961,0.0,0.0
470,117.25,42.2417,46.3749,158.872,101.998,99.997,0.00513237,0.104124,20.846,479.296,0.181803,0.0,0.0
472,117.75,42.0419,46.0408,154.664,101.99,100.087,0.00512535,0.104037,20.8464,479.296,0.172783,0.0,0.0
474,118.25,41.9332,46.6116,155.622,101.981,100.01,0.00507593,0.103953,20.8467,479.286,0.179036,0.0,0.0
476,118.75,42.0136,45.9726,152.457,102.01,99.9716,0.0050359,0.103857,20.8474,479.286,0.185169,0.0,0.0
478,119.25,42.8218,46.2104,150.715,101.986,99.816,0.0049923,0.103752,20.8479,479.266,0.197354,0.0,0.0
480,119.75,41.9194,46.721,153.09,101.995,99.8205,0.00494693,0.103708,20.8484,479.286,0.197714,0.0,0.0
482,120.25,42.0461,46.4039,156.541,101.987,99.749,0.00489837,0.103581,20.8487,479.256,0.203621,0.0,0.0
484,120.75,42.5057,46.1992,154.809,101.993,99.8991,0.00484839,0.103434,20.849,479.246,0.190381,0.0,0.0
486,121.25,42.517,46.4581,158.221,101.996,100.047,0.00480791,0.103314,20.8493,479.246,0.177059,0.0,0.0
488,121.75,41.2764,45.9603,153.12,101.999,100.564,0.00474146,0.103217,20.8497,479.256,0.129992,0.0,0.0
490,122.25,42.3144,46.4578,152.278,101.987,99.9245,0.00468763,0.103056,20.8502,479.236,0.187496,0.0,0.0
492,122.75,41.2214,45.7809,159.013,102.015,99.7105,0.00460915,0.102876,20.8507,479.246,0.209652,0.0,0.0
494,123.25,42.0126,45.7474,148.568,101.993,100.232,0.00454558,0.102684,20.8511,479.266,0.15983,0.0,0.0
496,123.75,41.5112,46.0367,153.965,101.996,99.6593,0.00448165,0.102529,20.8513,479.246,0.212697,0.0,0.0
498,124.25,41.3828,45.5886,154.29,102.007,100.029,0.00442985,0.102266,20.8516,479.256,0.179642,0.0,0.0
500,124.75,41.5958,45.6689,151.625,102,99.9757,0.0043879,0.102054,20.8518,479.246,0.183944,0.0,0.0
502,125.25,41.7897,45.3665,150.905,101.979,100.019,0.00436513,0.101854,20.8519,479.256,0.178097,0.0,0.0
504,125.75,41.6571,45.2419,157.221,102.006,99.9387,0.00434668,0.101693,20.8521,479.236,0.187898,0.0,0.0
506,126.25,41.9935,45.7805,155.654,101.994,100.328,0.00435042,0.101526,20.8522,479.206,0.151136,0.0,0.0
508,126.75,41.7444,45.722,153.852,102.001,99.9965,0.00435344,0.101358,20.8522,479.236,0.182146,0.0,0.0
510,127.25,41.6745,45.7278,155.507,102.001,100.39,0.00436586,0.101222,20.8523,479.226,0.146108,0.0,0.0
512,127.75,41.6907,45.4101,155.054,102.002,100.1,0.00437592,0.101099,20.8524,479.216,0.172696,0.0,0.0
514,128.25,41.8006,45.8077,155.253,101.992,100.109,0.00438997,0.100999,20.8524,479.226,0.171016,0.0,0.0
516,128.75,41.2252,45.8945,154.778,102.008,99.9468,0.00440667,0.100932,20.8524,479.196,0.187339,0.0,0.0
518,129.25,41.4084,45.3574,153.887,101.993,100.015,0.00442019,0.100891,20.8525,479.196,0.179684,0.0,0.0
520,129.75,42.1799,45.4546,156.089,102.013,100.009,0.00443862,0.100816,20.8525,479.226,0.182068,0.0,0.0
522,130.25,41.9507,46.0998,158.669,102,99.8576,0.00445355,0.100756,20.8525,479.236,0.19483,0.0,0.0
524,130.75,41.5582,45.805,155.573,102.012,99.9199,0.00446938,0.100664,20.8525,479.236,0.190177,0.0,0.0
526,131.25,41.6779,45.1258,153.735,101.997,99.8434,0.00448221,0.100551,20.8525,479.216,0.195839,0.0,0.0
528,131.75,41.509,45.0286,155.475,102.018,100.003,0.00449259,0.100459,20.8525,479.196,0.183108,0.0,0.0
530,132.25,41.5981,45.4619,158.156,102.008,100.252,0.00450101,0.100385,20.8526,479.186,0.159318,0.0,0.0
532,132.75,41.6556,45.5342,158.572,102.016,99.7825,0.00449785,0.100325,20.8524,479.186,0.203139,0.0,0.0
534,133.25,41.4989,45.6094,156.373,101.994,99.71,0.00449529,0.100276,20.8523,479.196,0.207844,0.0,0.0
536,133.75,41.7463,45.4836,152.44,102.009,99.6923,0.00446581,0.100236,20.8523,479.176,0.210776,0.0,0.0
538,134.25,42.233,45.1914,154.57,101.996,99.9448,0.00444193,0.100204,20.8522,479.146,0.186412,0.0,0.0
540,134.75,41.4654,45.2704,153.245,102.012,99.9027,0.00439022,0.100171,20.8522,479.176,0.191687,0.0,0.0
542,135.25,41.3383,45.3395,157.196,101.998,100.053,0.00434833,0.100138,20.8521,479.196,0.176686,0.0,0.0
544,135.75,42.1761,44.9877,153.212,102.01,99.7998,0.00430321,0.100111,20.8521,479.206,0.200998,0.0,0.0
546,136.25,41.5283,45.3672,155.391,102.002,99.7597,0.00426666,0.100076,20.8521,479.196,0.203977,0.0,0.0
548,136.75,41.3935,45.3738,153.336,102.027,100.103,0.0042377,0.100047,20.852,479.206,0.17468,0.0,0.0
550,137.25,41.3177,45.3501,157.385,102.01,99.781,0.00421484,0.0999825,20.852,479.176,0.202723,0.0,0.0
552,137.75,41.4678,45.16,154.88,102.027,100.072,0.00419632,0.0999304,20.852,479.166,0.177515,0.0,0.0
554,138.25,41.4292,44.9018,151.834,102.003,99.8028,0.00420248,0.0998811,20.852,479.146,0.20005,0.0,0.0
556,138.75,41.6837,45.3396,156.837,102.031,99.9164,0.00420746,0.0998346,20.852,479.156,0.192133,0.0,0.0
558,139.25,41.7129,45.3925,154.585,102.005,100.314,0.0042115,0.0997898,20.852,479.156,0.153436,0.0,0.0
560,139.75,41.2916,45.5422,153.381,102.001,100.11,0.00425463,0.099747,20.852,479.186,0.171738,0.0,0.0
562,140.25,41.7086,45.3823,152.355,102.012,100.025,0.00428956,0.0996979,20.852,479.186,0.180542,0.0,0.0
564,140.75,41.7105,45.5948,151.762,102.012,99.8281,0.00431785,0.0996453,20.8522,479.176,0.198572,0.0,0.0
566,141.25,41.2207,45.6586,151.389,101.996,100.206,0.00434077,0.0996026,20.8526,479.176,0.16242,0.0,0.0
568,141.75,41.2401,45.2921,150.935,102.007,99.8489,0.00432944,0.0995537,20.8529,479.166,0.19618,0.0,0.0
570,142.25,41.6896,45.3603,151.277,102.003,99.7206,0.00432026,0.0995011,20.8532,479.166,0.207606,0.0,0.0
572,142.75,41.3279,45.5637,156.687,101.999,99.6522,0.00428467,0.0994585,20.8534,479.196,0.213573,0.0,0.0
574,143.25,41.7279,44.7098,152.165,101.994,99.9179,0.0042305,0.0993952,20.8535,479.206,0.188694,0.0,0.0
576,143.75,41.553,45.2093,152.605,102.001,100.024,0.00412326,0.0993181,20.8537,479.206,0.17955,0.0,0.0
578,144.25,41.5734,45.3231,158.248,101.998,100.058,0.0040364,0.0992412,20.8538,479.216,0.176212,0.0,0.0
580,144.75,41.5367,45.2599,154.104,102.006,99.7759,0.00390899,0.0991661,20.8539,479.186,0.202819,0.0,0.0
582,145.25,40.9692,45.0295,155.021,102.003,100.298,0.00380579,0.0990908,20.8539,479.186,0.154688,0.0,0.0
584,145.75,41.3905,45.8233,154.594,102.014,99.7551,0.00372219,0.0990168,20.854,479.186,0.205435,0.0,0.0
586,146.25,41.0567,45.3809,155.691,102.008,99.8642,0.00360865,0.0989498,20.854,479.176,0.19493,0.0,0.0
588,146.75,40.9225,45.1982,155.516,102.001,99.7222,0.00351669,0.098889,20.8541,479.206,0.207318,0.0,0.0
590,147.25,40.8224,44.7289,155.361,102.016,99.7303,0.00344219,0.0988261,20.8541,479.186,0.207905,0.0,0.0
592,147.75,41.2425,44.9398,157.953,102.01,99.8951,0.00338186,0.0987751,20.8541,479.176,0.1922,0.0,0.0
594,148.25,41.1058,45.0277,159.925,101.997,100.035,0.00334667,0.0987051,20.8542,479.166,0.178204,0.0,0.0
596,148.75,41.1241,45.6736,155.865,102,100.06,0.00333048,0.0986225,20.8542,479.166,0.176137,0.0,0.0
598,149.25,40.6106,44.9869,155.86,102.009,100.205,0.00334347,0.0985556,20.8542,479.176,0.16371,0.0,0.0
600,149.75,41.3968,44.8353,152.279,101.99,99.8342,0.00339196,0.0984741,20.8542,479.206,0.196048,0.0,0.0
602,150.25,41.2456,45.3627,155.15,102.008,100.152,0.00340501,0.0984081,20.8542,479.186,0.168513,0.0,0.0
604,150.75,40.8582,45.0627,154.268,101.998,99.6253,0.003472,0.0983683,20.8542,479.166,0.216012,0.0,0.0
606,151.25,41.2493,45.0223,155.082,102.004,99.7567,0.00352626,0.098336,20.8542,479.176,0.204406,0.0,0.0
608,151.75,41.4883,45.2012,155.214,102,100.099,0.00359257,0.0983099,20.8542,479.186,0.172632,0.0,0.0
610,152.25,40.7455,45.289,151.875,102.003,99.5807,0.00364628,0.0982478,20.8542,479.166,0.220531,0.0,0.0
612,152.75,40.8072,45.2629,158.114,102.005,99.7982,0.00368978,0.0981975,20.8542,479.156,0.200693,0.0,0.0
614,153.25,41.261,45.1468,155.989,101.996,100.101,0.00372875,0.0981157,20.8542,479.186,0.172038,0.0,0.0
616,153.75,41.4814,45.2803,152.544,102,100.232,0.00376031,0.0980495,20.8542,479.156,0.160507,0.0,0.0
618,154.25,41.1827,45.5896,157.628,101.998,100.069,0.00377718,0.0980096,20.8542,479.146,0.175245,0.0,0.0
620,154.75,40.8673,45.4296,154.113,101.992,99.9514,0.00379085,0.0979772,20.8542,479.146,0.185473,0.0,0.0
622,155.25,41.6335,45.521,154.79,102.011,99.8631,0.00380191,0.0979654,20.8542,479.136,0.195282,0.0,0.0
624,155.75,40.9731,45.5024,157.42,102.005,99.9214,0.00380094,0.0979687,20.8541,479.156,0.18937,0.0,0.0
626,156.25,41.1313,44.7221,155.754,102.007,99.8555,0.00380015,0.0979714,20.854,479.136,0.195649,0.0,0.0
628,156.75,41.3024,45.1449,156.279,102.006,99.8069,0.00378834,0.0979053,20.8538,479.126,0.200011,0.0,0.0
630,157.25,41.2419,45.4112,154.217,102.007,99.7171,0.00377877,0.0978518,20.8537,479.116,0.208378,0.0,0.0
632,157.75,41.2403,45.3695,156.434,102.002,99.7582,0.0037524,0.0978085,20.8539,479.126,0.204079,0.0,0.0
634,158.25,41.6333,44.5397,153.838,102,99.9174,0.00373103,0.097759,20.8542,479.116,0.18926,0.0,0.0
636,158.75,41.0179,45.3437,150.683,101.991,99.8058,0.00370132,0.0977059,20.8544,479.106,0.198769,0.0,0.0
638,159.25,41.3783,45.2489,157.456,102.011,99.785,0.00367726,0.0976494,20.8546,479.116,0.202423,0.0,0.0
640,159.75,41.34,45.3754,155.295,102.012,99.785,0.00365776,0.0976035,20.8548,479.116,0.202498,0.0,0.0
642,160.25,41.1701,45.4819,155.137,102.011,99.6791,0.00362585,0.0975448,20.855,479.126,0.212212,0.0,0.0
644,160.75,41.348,44.8874,153.934,102,99.8454,0.0036,0.0974779,20.8551,479.126,0.195949,0.0,0.0
646,161.25,40.9724,45.5017,152.955,102.003,99.8403,0.00357057,0.09741,20.8552,479.116,0.196639,0.0,0.0
648,161.75,41.1319,45.2733,157.075,101.999,99.9123,0.00353911,0.0973551,20.8552,479.146,0.189652,0.0,0.0
650,162.25,41.5213,44.9906,152.692,102.024,99.8586,0.00349927,0.0973105,20.8553,479.116,0.196815,0.0,0.0
652,162.75,41.1178,44.8407,156.68,101.992,99.8789,0.00345409,0.0972335,20.8553,479.116,0.192096,0.0,0.0
654,163.25,41.0019,44.4475,154.266,102.006,99.9488,0.00340576,0.0971712,20.8554,479.096,0.186968,0.0,0.0
656,163.75,40.9521,44.8833,154.1,102,99.6831,0.00335606,0.0971206,20.8554,479.136,0.210801,0.0,0.0
658,164.25,40.8782,45.2565,155.851,102.014,99.5898,0.00330603,0.0970797,20.8554,479.106,0.22069,0.0,0.0
660,164.75,41.4232,44.8468,156.35,101.992,100.134,0.00325671,0.0970322,20.8555,479.116,0.168646,0.0,0.0
662,165.25,41.1733,44.8159,158.739,102.011,100.241,0.00321155,0.0969808,20.8555,479.126,0.160599,0.0,0.0
664,165.75,40.8808,45.2784,153.67,101.998,99.9387,0.00317029,0.0969248,20.8555,479.086,0.187119,0.0,0.0
666,166.25,41.4111,44.6596,157.613,102.004,99.6897,0.00313686,0.0968665,20.8555,479.116,0.210602,0.0,0.0
668,166.75,41.4214,45.2219,157.249,101.986,99.9833,0.00310914,0.0968408,20.8555,479.126,0.182021,0.0,0.0
670,167.25,40.9852,45.0188,155.116,102.019,100.126,0.0030861,0.0968394,20.8555,479.126,0.171883,0.0,0.0
672,167.75,40.7846,44.7906,153.106,101.997,100.19,0.0030699,0.0968598,20.8555,479.106,0.164027,0.0,0.0
674,168.25,40.8539,44.8701,154.954,102.009,99.6923,0.00305679,0.0968957,20.8555,479.086,0.210776,0.0,0.0
676,168.75,40.9977,44.9674,157.421,101.994,99.71,0.00304291,0.0969248,20.8555,479.076,0.207844,0.0,0.0
678,169.25,41.5536,44.9249,157.797,102.008,99.8155,0.00302874,0.0968802,20.8555,479.086,0.199404,0.0,0.0
680,169.75,41.2969,45.2137,154.742,101.996,99.6978,0.00301726,0.096844,20.8555,479.086,0.209113,0.0,0.0
682,170.25,41.1417,45.1584,157.292,102.003,99.9194,0.00299931,0.0968003,20.8555,479.116,0.189333,0.0,0.0
684,170.75,41.1409,44.981,150.413,101.984,100.23,0.00298477,0.096752,20.8555,479.116,0.159172,0.0,0.0
686,171.25,41.3544,44.9148,150.913,102.007,100.046,0.0029795,0.0967129,20.8555,479.086,0.178107,0.0,0.0
688,171.75,40.5539,45.2614,158.545,101.988,100.079,0.00298108,0.0966812,20.8555,479.086,0.173463,0.0,0.0
690,172.25,41.374,45.2891,153.055,102.009,99.8692,0.00299084,0.0966555,20.8555,479.076,0.194501,0.0,0.0
692,172.75,41.2049,45.0805,155.802,101.989,99.961,0.00300635,0.0966075,20.8555,479.066,0.184292,0.0,0.0
694,173.25,41.1786,45.2665,156.202,102.02,99.8925,0.00301892,0.0965685,20.8555,479.096,0.19336,0.0,0.0
696,173.75,41.343,45.181,153.858,101.993,99.5944,0.00303367,0.0965097,20.8555,479.076,0.218379,0.0,0.0
698,174.25,40.9751,45.1675,155.891,102.009,99.8195,0.00304971,0.096462,20.8555,479.086,0.199105,0.0,0.0
700,174.75,41.2027,44.6923,156.418,101.998,99.6715,0.0030627,0.0964019,20.8555,479.076,0.211725,0.0,0.0
702,175.25,40.5978,45.173,157.267,102.003,99.7359,0.00307818,0.0963338,20.8555,479.076,0.206281,0.0,0.0
704,175.75,41.1219,44.6429,152.343,101.995,99.9012,,0.0962786,,479.056,0.190306,0.0,0.0
706,176.25,40.8408,45.0546,154.037,102.007,99.9245,,0.0962196,,479.056,0.189276,0.0,0.0
708,176.75,40.7901,45.0307,152.563,101.992,99.7323,,0.0961588,,479.046,0.205569,0.0,0.0
710,177.25,41.1584,44.7476,152.405,102.001,99.9534,,0.0961096,,479.086,0.186103,0.0,0.0
712,177.75,40.8593,44.2771,157.25,101.996,99.8216,,0.0960834,,479.066,0.19777,0.0,0.0
714,178.25,40.6238,44.8754,157.531,102.009,100.11,,0.0960622,,479.086,0.172443,0.0,0.0
716,178.75,40.7642,44.8149,153.464,101.993,99.9666,,,,479.076,0.184188,0.0,0.0
718,179.25,41.2188,45.0142,153.413,101.998,100.063,,,,479.086,0.175794,0.0,0.0
720,179.75,41.0536,45.1568,157.979,101.981,99.9377,,,,479.046,0.185729,0.0,0.0
722,180.25,41.1498,44.9068,150.794,102.002,99.9311,,,,479.056,0.188225,0.0,0.0
724,180.75,40.2632,44.7135,154.006,101.989,99.6664,,,,479.066,0.211414,0.0,0.0
726,181.25,40.6823,45.1519,156.017,101.994,99.6786,,,,479.066,0.210739,0.0,0.0
728,181.75,40.8385,45.018,157.723,101.985,99.8931,,,,479.046,0.190161,0.0,0.0
730,182.25,41.1296,44.9119,152.327,101.993,99.8707,,,,479.056,0.192952,0.0,0.0
732,182.75,40.9366,45.0654,152.676,101.986,100.05,,,,479.056,0.175889,0.0,0.0
734,183.25,40.8027,44.7672,158.116,101.995,99.603,,,,479.046,0.21777,0.0,0.0
736,183.75,40.8141,44.4906,157.742,101.979,99.7125,,,,479.056,0.206203,0.0,0.0
738,184.25,41.0966,45.21,152.573,101.991,99.9564,,,,479.046,0.184897,0.0,0.0
740,184.75,41.3287,45.3153,154.048,101.995,99.7065,,,,479.046,0.208283,0.0,0.0
742,185.25,40.7863,44.9587,156.029,101.989,99.9012,,,,479.056,0.189824,0.0,0.0
744,185.75,41.0626,44.26,155.237,101.996,99.9417,,,,479.066,0.186691,0.0,0.0
746,186.25,40.6695,44.2838,155.197,101.99,99.9291,,,,479.076,0.1873,0.0,0.0