File: 01_Data/Overstuffed_Chair_Polyester_Batting/Cone/Overstuffed_Chair_Polyester_Batting_Cone_HF50Scan_210326_R2.csv
Names,Time,Stack TC,Smoke TC,Exh Press,Smoke Comp,Smoke Meas,CO Meter,CO2 Meter,O2 Meter,Sample Mass,Ext Coeff,Start Test,Flame Verif
Chan Gain,,500,500,1,1,1,1,1,1,1,1,1.0,1.0
Offset,,0,0,0.138348,0,0,0,0,0,0,0,0.0,0.0
Gain,,1,1,25.011,13.5067,16.616,1,1,1,1.00091,1.04608,1.0,1.0
Units,sec,C,C,Pa,%,%,%,%,%,g,/m,,
Baseline,,32.596,34.6865,162.683,102.482,99.6819,-0.00138179,0.0468852,20.9621,-0.00291932,0.254242,,
2,0.25,30.3888,32.0242,161.418,102.822,99.6096,-0.00154257,0.0483808,20.957,476.404,0.291216,0.0,0.0
4,0.75,30.2132,31.8907,159.357,102.822,99.6081,-0.00154113,0.0485554,20.9568,476.354,0.291356,0.0,0.0
6,1.25,29.7424,32.0596,162.146,102.817,99.6294,-0.00153997,0.0487475,20.9565,476.354,0.288952,0.0,0.0
8,1.75,30.2398,31.8616,160.846,102.815,100.025,-0.00152684,0.0489524,20.9563,476.374,0.252366,0.0,0.0
10,2.25,30.7684,32.5351,160.349,102.831,100.046,-0.00151621,0.0491626,20.9562,476.374,0.251967,0.0,0.0
12,2.75,30.1771,31.6157,161.951,102.823,99.7597,-0.00149664,0.0493682,20.9561,476.324,0.277546,0.0,0.0
14,3.25,30.2728,32.4881,159.862,102.825,100.071,-0.00148079,0.0495663,20.956,476.314,0.249146,0.0,0.0
16,3.75,30.2776,32.0526,164.128,102.831,99.6314,-0.00146795,0.049748,20.9559,476.324,0.290054,0.0,0.0
18,4.25,30.6019,32.6814,160.997,102.84,100.252,-0.00145755,0.0499141,20.9558,476.314,0.233923,0.0,0.0
20,4.75,30.3905,32.5035,161.732,102.829,100.177,-0.00144913,0.0500487,20.9558,476.314,0.239792,0.0,0.0
22,5.25,30.0259,31.9803,163.739,102.83,99.9858,-0.00145205,0.0501844,20.9557,476.314,0.257393,0.0,0.0
24,5.75,30.6355,32.6189,167.468,102.831,99.8986,-0.00145441,0.0502944,20.9557,476.314,0.265474,0.0,0.0
26,6.25,31.0012,32.2342,162.974,102.833,100.178,-0.00146145,0.0503623,20.9557,476.304,0.24003,0.0,0.0
28,6.75,30.3922,32.2301,164.234,102.838,99.7627,-0.00147177,0.0503984,20.9556,476.304,0.278628,0.0,0.0
30,7.25,30.6088,32.2586,161.638,102.828,100.159,-0.00148398,0.0504276,20.9556,476.304,0.241307,0.0,0.0
32,7.75,30.8538,32.6655,163.318,102.842,99.8571,-0.00149732,0.0504244,20.9556,476.294,0.270286,0.0,0.0
34,8.25,30.5707,32.7494,162.71,102.839,99.8261,-0.00151006,0.0504219,20.9556,476.304,0.272836,0.0,0.0
36,8.75,31.191,32.8775,161.342,102.833,100.348,-0.0015221,0.0504339,20.9556,476.304,0.224483,0.0,0.0
38,9.25,30.6235,32.5753,165.778,102.834,100.065,-0.00152994,0.0504564,20.9556,476.294,0.250466,0.0,0.0
40,9.75,30.7774,32.4736,163.701,102.842,99.8099,-0.00153455,0.0504745,20.9556,476.294,0.274585,0.0,0.0
42,10.25,30.9381,33.1643,158.601,102.832,100.056,-0.00153829,0.050516,20.9556,476.294,0.251157,0.0,0.0
44,10.75,30.7585,33.1638,163.151,102.84,99.5487,-0.00153645,0.0505637,20.9556,476.294,0.298442,0.0,0.0
46,11.25,31.2154,33.046,160.65,102.843,99.7617,-0.00153495,0.050615,20.9556,476.294,0.279163,0.0,0.0
48,11.75,31.2747,33.0812,163.099,102.853,100.027,-0.0015331,0.0506636,20.9555,476.274,0.2556,0.0,0.0
50,12.25,30.8936,33.1889,161.591,102.834,99.7774,-0.00153103,0.0507092,20.9555,476.274,0.276869,0.0,0.0
52,12.75,30.4905,33.1482,161.968,102.846,99.926,-0.00152934,0.0507463,20.9555,476.294,0.26432,0.0,0.0
54,13.25,30.5909,32.8281,165.356,102.834,100.077,-0.00152311,0.0508565,20.9551,476.294,0.249434,0.0,0.0
56,13.75,30.7462,32.6481,160.054,102.845,100.702,-0.00151806,0.0509458,20.9547,476.274,0.193157,0.0,0.0
58,14.25,31.1183,33.1324,161.903,102.836,100.388,-0.00150423,0.0510957,20.9544,476.264,0.221115,0.0,0.0
60,14.75,31.2636,33.7609,164.516,102.855,100.114,-0.00149303,0.0512868,20.9542,476.264,0.24788,0.0,0.0
62,15.25,31.2586,33.1748,159.207,102.849,99.6142,-0.00148248,0.0514416,20.9538,476.274,0.293223,0.0,0.0
64,15.75,30.8025,33.511,157.361,102.853,100.034,-0.00145676,0.0516741,20.9532,476.264,0.255033,0.0,0.0
66,16.25,31.2376,33.2095,162.387,102.843,99.7617,-0.00144407,0.0518624,20.953,476.264,0.279163,0.0,0.0
68,16.75,31.2652,33.7985,160.299,102.856,100.278,-0.00142238,0.0520685,20.9526,476.264,0.232944,0.0,0.0
70,17.25,31.0925,33.3815,159.61,102.845,100.14,-0.0014048,0.0522354,20.9522,476.274,0.244581,0.0,0.0
72,17.75,31.0334,33.6917,162.198,102.863,99.6192,-0.00138032,0.0524643,20.952,476.264,0.294042,0.0,0.0
74,18.25,31.1738,33.988,158.816,102.842,99.5143,-0.00135125,0.0526498,20.9518,476.254,0.301841,0.0,0.0
76,18.75,31.118,33.9233,162.363,102.855,99.5092,-0.0013277,0.0528938,20.9516,476.254,0.303412,0.0,0.0
78,19.25,31.0025,33.1235,163.473,102.838,99.817,-0.00129261,0.0529978,20.9514,476.254,0.273602,0.0,0.0
80,19.75,31.1615,33.6756,161.197,102.858,100.015,-0.00124976,0.0531757,20.9514,476.254,0.257159,0.0,0.0
82,20.25,30.897,33.8827,157.205,102.838,99.8494,-0.00121505,0.0533761,20.9515,476.264,0.270619,0.0,0.0
84,20.75,31.5234,33.852,162.029,102.847,99.3601,-0.00116258,0.0535893,20.9515,476.274,0.316507,0.0,0.0
86,21.25,31.4371,33.7914,161.156,102.832,99.5204,-0.00109043,0.0537619,20.9516,476.264,0.300396,0.0,0.0
88,21.75,31.115,33.4205,161.18,102.853,99.6948,-0.00106374,0.0539018,20.9516,476.264,0.286203,0.0,0.0
90,22.25,31.8938,33.7022,163.152,102.844,99.5609,-0.00101809,0.0541893,20.9516,476.244,0.297724,0.0,0.0
92,22.75,31.1081,33.6748,163.219,102.855,99.6086,-0.000972152,0.0544221,20.9516,476.233,0.294289,0.0,0.0
94,23.25,31.7862,34.0963,160.655,102.851,99.3277,-0.000926862,0.0547314,20.9516,476.224,0.319837,0.0,0.0
96,23.75,31.2421,34.3095,161.078,102.856,99.5249,-0.000888255,0.0549819,20.9516,476.224,0.302109,0.0,0.0
98,24.25,31.4213,33.7992,162.921,102.839,99.2678,-0.000855252,0.055367,20.9512,476.224,0.3243,0.0,0.0
100,24.75,30.8313,33.1671,160.068,102.847,98.6335,-0.000828519,0.0554705,20.9509,476.224,0.383861,0.0,0.0
102,25.25,30.8549,33.6994,161.304,102.827,98.6264,-0.000814173,0.0556547,20.9506,476.224,0.382756,0.0,0.0
104,25.75,31.4919,33.9041,159.717,102.842,98.2952,-0.000802553,0.0558102,20.9503,476.244,0.41494,0.0,0.0
106,26.25,31.4066,34.0126,162.13,102.832,98.6178,-0.000798909,0.0559433,20.9502,476.233,0.383962,0.0,0.0
108,26.75,31.0563,33.9228,168.974,102.849,98.812,-0.00080115,0.0560574,20.95,476.224,0.367418,0.0,0.0
110,27.25,31.3555,34.3816,161.822,102.829,98.6188,-0.000804246,0.0561498,20.9499,476.214,0.383611,0.0,0.0
112,27.75,31.2037,33.7067,159.189,102.845,98.7111,-0.000807908,0.0562247,20.9498,476.224,0.376499,0.0,0.0
114,28.25,31.5117,34.239,161.069,102.836,98.2283,-0.000810874,0.0562853,20.9497,476.193,0.420676,0.0,0.0
116,28.75,31.8937,34.3037,156.656,102.845,98.2846,-0.000797445,0.0563485,20.9496,476.193,0.416228,0.0,0.0
118,29.25,31.1851,34.0107,160.996,102.832,98.4164,-0.000786568,0.0564125,20.9496,476.183,0.402712,0.0,0.0
120,29.75,31.5295,34.0108,164.179,102.84,97.742,-0.000741222,0.0564925,20.9495,476.183,0.466583,0.0,0.0
122,30.25,31.4513,34.3482,158.336,102.826,97.6046,-0.000704492,0.0565827,20.9495,476.173,0.478169,0.0,0.0
124,30.75,31.6342,33.9907,162.091,102.836,96.9738,-0.000638205,0.0566558,20.9492,476.183,0.538585,0.0,0.0
126,31.25,31.3409,33.9247,158.017,102.833,97.4003,-0.000584513,0.0568223,20.9488,476.193,0.498063,0.0,0.0
128,31.75,31.6426,33.7801,158.835,102.839,97.0007,-0.000521152,0.0569571,20.9485,476.183,0.5363,0.0,0.0
130,32.25,31.1219,33.9399,159.062,102.826,97.6325,-0.000451946,0.0571737,20.9482,476.173,0.475547,0.0,0.0
132,32.75,30.8067,33.7198,161.609,102.827,96.5134,-0.00039589,0.0573491,20.948,476.163,0.581485,0.0,0.0
134,33.25,31.6758,34.0889,158.917,102.823,95.8278,-0.000323691,0.057612,20.9475,476.143,0.646494,0.0,0.0
136,33.75,31.3698,34.5396,161.62,102.831,96.5839,-0.000265211,0.0578249,20.947,476.153,0.575117,0.0,0.0
138,34.25,31.5381,34.2577,164.724,102.823,96.3258,-0.000197134,0.0581175,20.9466,476.133,0.598972,0.0,0.0
140,34.75,31.8419,34.6251,162.819,102.822,95.4485,-0.000141992,0.0584626,20.9462,476.123,0.682812,0.0,0.0
142,35.25,31.9061,34.4043,160.97,102.82,94.7548,-8.51385e-05,0.0587421,20.9459,476.123,0.749597,0.0,0.0
144,35.75,31.7016,34.6156,163.047,102.815,95.594,-2.81179e-05,0.0592371,20.9448,476.103,0.66817,0.0,0.0
146,36.25,31.6345,34.8185,160.416,102.82,96.1802,2.9623e-05,0.0596381,20.9439,476.113,0.612588,0.0,0.0
148,36.75,31.8701,34.2469,161.6,102.825,95.772,8.67921e-05,0.0600548,20.9431,476.103,0.65202,0.0,0.0
150,37.25,32.1974,34.7655,158.594,102.82,95.733,0.000150443,0.0604751,20.9425,476.063,0.655321,0.0,0.0
152,37.75,32.001,34.4992,162.58,102.82,94.8365,0.000217611,0.0608792,20.942,476.063,0.741694,0.0,0.0
154,38.25,31.9823,34.9288,159.811,102.835,94.5855,0.000272016,0.0612638,20.9416,476.053,0.767338,0.0,0.0
156,38.75,32.0186,35.0296,156.882,102.818,95.4617,0.000351464,0.0616108,20.9413,476.033,0.681213,0.0,0.0
158,39.25,32.3794,34.8602,158.033,102.827,94.6772,0.000447659,0.0619236,20.9411,476.013,0.757702,0.0,0.0
160,39.75,32.3358,35.0251,159.117,102.817,94.8679,0.000525576,0.0621841,20.9408,476.003,0.738322,0.0,0.0
162,40.25,31.6126,34.785,163.628,102.815,94.8025,0.000637657,0.0624015,20.9408,475.983,0.74454,0.0,0.0
164,40.75,32.6006,34.9939,159.458,102.808,93.7615,0.000728443,0.0625775,20.9408,475.993,0.8452,0.0,0.0
166,41.25,31.6067,35.0714,159.584,102.813,92.8675,0.00085224,0.0626993,20.9408,476.003,0.933588,0.0,0.0
168,41.75,32.3421,35.2667,159.436,102.805,91.4416,0.000952515,0.0627791,20.9408,475.983,1.07487,0.0,0.0
170,42.25,32.6667,34.9325,160.396,102.809,91.3026,0.00103374,0.0628438,20.9408,475.953,1.08912,0.0,0.0
172,42.75,32.24,35.1409,159.393,102.808,92.8923,0.00115969,0.0628827,20.9408,475.933,0.930693,0.0,0.0
174,43.25,32.2463,34.711,161.195,102.804,91.3366,0.00126171,0.0629142,20.9418,475.913,1.0853,0.0,0.0
176,43.75,31.835,35.4954,157.27,102.802,92.7645,0.00137346,0.0628994,20.9426,475.883,0.942735,0.0,0.0
178,44.25,32.3244,35.2836,163.718,102.806,92.225,0.0014902,0.0628874,20.9432,475.863,0.996629,0.0,0.0
180,44.75,32.2637,35.6964,162.02,102.793,91.3513,0.00163144,0.0628777,20.9437,475.873,1.08283,0.0,0.0
182,45.25,31.6506,35.1557,158.132,102.81,91.2504,0.00178787,0.0627623,20.9441,475.853,1.09452,0.0,0.0
184,45.75,32.316,35.2961,159.999,102.79,90.7986,0.00191458,0.0626689,20.9445,475.803,1.13823,0.0,0.0
186,46.25,32.5739,35.0393,160.412,102.789,90.791,0.00212398,0.0625932,20.9448,475.773,1.13896,0.0,0.0
188,46.75,32.6676,35.548,155.241,102.785,91.5303,0.00238969,0.0630428,20.9423,475.773,1.06413,0.0,0.0
190,47.25,32.3405,35.2113,157.04,102.789,88.969,0.00260491,0.0634071,20.9403,475.753,1.3249,0.0,0.0
192,47.75,32.0564,35.2194,172.932,102.776,89.3205,0.00296824,0.0676212,20.9267,475.583,1.28759,0.0,1.0
194,48.25,32.7806,35.8448,152.238,102.786,93.5789,0.00326254,0.0710346,20.9156,475.503,0.861169,0.0,1.0
196,48.75,32.6282,35.9771,147.542,102.776,89.1161,0.00362993,0.0786431,20.8963,475.403,1.3086,0.0,1.0
198,49.25,33.4058,37.0101,151.585,102.782,88.0781,0.00404362,0.0891654,20.8713,475.323,1.41666,0.0,1.0
200,49.75,33.2942,37.4236,151.772,102.768,82.8593,0.0045079,0.0976884,20.8511,475.253,1.97589,0.0,1.0
202,50.25,33.7691,37.7917,145.568,102.775,83.8668,0.00500022,0.117294,20.8132,475.102,1.86561,0.0,1.0
204,50.75,34.4661,38.7192,149.165,102.765,81.1271,0.00558394,0.133174,20.7824,475.052,2.16953,0.0,1.0
206,51.25,35.0129,39.6869,147.451,102.772,83.0702,0.0062232,0.15465,20.7468,475.052,1.95293,0.0,1.0
208,51.75,35.7186,40.0497,156.367,102.758,85.0706,0.00649572,0.172045,20.7316,474.992,1.73336,0.0,1.0
210,52.25,34.3268,39.518,150.685,102.772,80.4167,0.00749028,0.191309,20.6986,474.922,2.25083,0.0,1.0
212,52.75,35.2272,40.1012,146.91,102.747,75.2936,0.00829586,0.21157,20.6655,474.812,2.85265,0.0,0.0
214,53.25,35.2189,40.8035,140.755,102.763,73.0655,0.00894839,0.233168,20.6387,474.742,3.12965,0.0,0.0
216,53.75,35.7495,41.269,149.43,102.748,75.1547,0.0103886,0.255331,20.617,474.632,2.86963,0.0,0.0
218,54.25,36.2104,42.6309,147.298,102.759,71.4824,0.0115552,0.273282,20.5811,474.502,3.33036,0.0,0.0
220,54.75,36.7985,43.3464,141.137,102.747,69.0733,0.0132371,0.287675,20.5417,474.372,3.64381,0.0,0.0
222,55.25,37.8524,43.9056,138.201,102.749,64.5283,0.0145995,0.312287,20.5004,474.292,4.26859,0.0,0.0
224,55.75,38.1547,45.6822,147.362,102.746,63.6161,0.0160209,0.340835,20.467,474.152,4.39894,0.0,0.0
226,56.25,39.4234,46.5544,144.959,102.745,61.1593,0.0174583,0.37171,20.4168,474.042,4.7603,0.0,0.0
228,56.75,39.8128,48.0469,134.775,102.736,58.5925,0.0188528,0.396718,20.376,473.941,5.15289,0.0,0.0
230,57.25,40.3022,49.6768,133.996,102.751,59.7877,0.0201895,0.426954,20.3207,473.791,4.96896,0.0,0.0
232,57.75,41.4109,50.5026,141.562,102.729,58.0154,0.0212722,0.460427,20.2759,473.651,5.24308,0.0,0.0
234,58.25,42.4159,51.9234,136.981,102.737,57.9941,0.0223606,0.492448,20.2366,473.531,5.24722,0.0,0.0
236,58.75,42.7921,52.6972,140.664,102.728,57.1113,0.0232422,0.522801,20.202,473.391,5.38714,0.0,0.0
238,59.25,43.2586,53.7287,141.727,102.745,58.3252,0.0240006,0.547388,20.1739,473.311,5.19568,0.0,0.0
240,59.75,44.6812,54.3992,142.599,102.73,61.6978,0.0246149,0.574369,20.1512,473.201,4.6785,0.0,0.0
242,60.25,44.8908,55.8414,142.567,102.732,60.7268,0.0251124,0.596225,20.1328,473.091,4.82425,0.0,0.0
244,60.75,45.3091,56.7385,137.169,102.714,64.2819,0.0253826,0.618283,20.1179,472.971,4.30061,0.0,0.0
246,61.25,46.0948,57.433,140.418,102.731,62.2181,0.0256015,0.63615,20.1059,472.88,4.60155,0.0,0.0
248,61.75,46.5304,58.2175,129.398,102.74,61.4823,0.0256297,0.65223,20.0982,472.76,4.71149,0.0,0.0
250,62.25,46.8673,58.8361,142.557,102.722,64.897,0.0256527,0.665255,20.0939,472.63,4.21392,0.0,0.0
252,62.75,47.3009,59.2783,143.052,102.721,65.6475,0.0255269,0.675805,20.0923,472.54,4.10831,0.0,0.0
254,63.25,47.793,60.2481,139.729,102.719,65.2012,0.025425,0.685066,20.0927,472.45,4.17071,0.0,0.0
256,63.75,47.8794,60.6471,142.314,102.711,64.3164,0.0252506,0.692567,20.0942,472.33,4.29539,0.0,0.0
258,64.25,48.8304,61.0665,141.161,102.708,59.7912,0.0251093,0.698934,20.0964,472.25,4.96458,0.0,0.0
260,64.75,49.031,61.5186,139.252,102.706,64.5405,0.0249898,0.704353,20.0983,472.11,4.26303,0.0,0.0
262,65.25,49.0365,62.2282,148.083,102.721,65.4015,0.0248885,0.709173,20.0998,472,4.14275,0.0,0.0
264,65.75,49.6508,62.6075,135.483,102.706,62.9889,0.0248065,0.713078,20.101,471.92,4.48629,0.0,0.0
266,66.25,49.8776,63.0753,143.963,102.714,65.7205,0.0248295,0.716564,20.1019,471.85,4.09752,0.0,0.0
268,66.75,50.1147,63.5753,143.305,102.691,66.3995,0.0249288,0.71968,20.1036,471.769,4.0011,0.0,0.0
270,67.25,50.7476,63.894,136.182,102.707,65.4522,0.0250092,0.723688,20.105,471.669,4.13438,0.0,0.0
272,67.75,50.954,64.6074,143.346,102.697,61.9189,0.025112,0.726934,20.1061,471.579,4.64269,0.0,0.0
274,68.25,51.1599,64.8545,146.527,102.705,64.8757,0.0252292,0.729563,20.1065,471.459,4.21539,0.0,0.0
276,68.75,51.6932,65.4564,128.871,102.698,64.9898,0.0252322,0.731693,20.1069,471.369,4.19864,0.0,0.0
278,69.25,52.7151,66.4763,144.254,102.696,63.3119,0.025152,0.737575,20.1072,471.339,4.43848,0.0,0.0
280,69.75,52.4649,66.4216,131.981,102.7,63.8757,0.025087,0.74234,20.1074,471.299,4.35744,0.0,0.0
282,70.25,52.9929,66.6514,141.209,102.684,74.6147,0.024591,0.745441,20.1076,471.259,2.9301,0.0,0.0
284,70.75,52.6841,67.0226,149.708,102.706,73.9986,0.0241892,0.747271,20.1078,471.209,3.00817,0.0,0.0
286,71.25,53.2445,67.6222,147.05,102.687,72.922,0.0233659,0.744906,20.1182,471.129,3.14095,0.0,0.0
288,71.75,52.9962,68.1266,143.727,102.685,77.6221,0.0226991,0.739528,20.136,471.099,2.56757,0.0,0.0
290,72.25,53.5179,67.5903,146.391,102.684,79.6758,0.0216087,0.735171,20.1608,471.099,2.32792,0.0,0.0
292,72.75,52.7996,67.5115,150.733,102.686,83.5935,0.0207254,0.720525,20.1901,471.059,1.88765,0.0,0.0
294,73.25,53.1465,66.8688,150.444,102.677,85.1122,0.01945,0.708661,20.2318,471.019,1.72163,0.0,0.0
296,73.75,52.5629,67.4641,146.71,102.684,86.4463,0.018417,0.688989,20.2655,471.009,1.57953,0.0,0.0
298,74.25,53.0679,66.4867,148.092,102.667,86.9833,0.017259,0.673055,20.2928,470.989,1.5212,0.0,0.0
300,74.75,52.5706,66.6558,153.274,102.684,89.7596,0.016032,0.650105,20.3297,470.929,1.23441,0.0,0.0
302,75.25,52.6133,65.6604,148.579,102.666,89.5172,0.0150381,0.631515,20.3596,470.899,1.2576,0.0,0.0
304,75.75,52.4218,65.2145,151.897,102.675,91.2185,0.0138429,0.606859,20.3903,470.859,1.08566,0.0,0.0
306,76.25,52.1741,64.7758,155.685,102.665,93.3193,0.0128747,0.586887,20.4212,470.859,0.875838,0.0,0.0
308,76.75,51.5692,64.4477,155.648,102.674,94.7325,0.0118342,0.565374,20.452,470.859,0.738727,0.0,0.0
310,77.25,51.7789,63.9585,150.821,102.665,95.8237,0.0109914,0.543146,20.4823,470.839,0.632782,0.0,0.0
312,77.75,51.1753,63.5405,152.406,102.669,95.6016,0.0101082,0.525141,20.5189,470.849,0.654444,0.0,0.0
314,78.25,50.9887,63.1245,153.013,102.654,95.7964,0.00939277,0.499937,20.5486,470.839,0.634411,0.0,0.0
316,78.75,50.2178,62.9255,153.522,102.662,96.7314,0.00867139,0.479521,20.5777,470.819,0.545978,0.0,0.0
318,79.25,50.1228,62.0683,157.638,102.648,97.3054,0.00808708,0.455837,20.606,470.799,0.490434,0.0,0.0
320,79.75,50.1265,61.509,152.78,102.662,97.6472,0.00751239,0.436653,20.6332,470.809,0.459551,0.0,0.0
322,80.25,49.6744,60.9744,160.881,102.645,98.8241,0.0070469,0.414492,20.659,470.819,0.348066,0.0,0.0
324,80.75,49.1009,60.4133,156.658,102.654,99.315,0.00666985,0.396542,20.6799,470.829,0.303412,0.0,0.0
326,81.25,49.5175,59.5124,160.572,102.643,99.8555,0.00629076,0.376102,20.6996,470.819,0.252683,0.0,0.0
328,81.75,48.2346,58.5125,157.484,102.631,100.455,0.0059837,0.359546,20.7181,470.819,0.196627,0.0,0.0
330,82.25,47.8179,57.9723,158.193,102.63,100.573,0.00571253,0.340522,20.736,470.829,0.185805,0.0,0.0
332,82.75,47.3556,57.6629,156.789,102.64,100.077,0.00549289,0.325113,20.753,470.819,0.232057,0.0,0.0
334,83.25,47.2677,57.6532,157.475,102.623,100.196,0.00529129,0.312632,20.7691,470.829,0.21958,0.0,0.0
336,83.75,46.5293,56.6012,154.184,102.637,100.465,0.005128,0.296031,20.7842,470.829,0.196301,0.0,0.0
338,84.25,46.4103,56.3446,160.207,102.625,99.9296,0.00497869,0.282585,20.7965,470.849,0.244187,0.0,0.0
340,84.75,46.7149,56.0684,157.493,102.622,100.557,0.0048424,0.267058,20.8105,470.849,0.186548,0.0,0.0
342,85.25,46.0148,54.7126,160.349,102.611,100.569,0.00468847,0.254482,20.8218,470.849,0.184396,0.0,0.0
344,85.75,45.3281,55.0559,161.074,102.612,99.8038,0.00456378,0.242501,20.8327,470.839,0.254636,0.0,0.0
346,86.25,45.8195,54.0578,158.262,102.607,100.585,0.00442682,0.231182,20.8416,470.839,0.182593,0.0,0.0
348,86.75,45.6335,53.8108,155.879,102.612,100.252,0.00428351,0.220611,20.8506,470.839,0.213478,0.0,0.0
350,87.25,45.1241,53.4386,154.748,102.601,100.443,0.00416743,0.210787,20.8578,470.849,0.195122,0.0,0.0
352,87.75,44.848,53.068,157.475,102.605,100.82,0.00403164,0.201565,20.8637,470.859,0.161016,0.0,0.0
354,88.25,44.6253,52.6192,157.814,102.595,99.8621,0.00388407,0.192957,20.8685,470.849,0.247765,0.0,0.0
356,88.75,44.4531,52.5601,158.817,102.605,100.607,0.00376453,0.185985,20.8737,470.849,0.180456,0.0,0.0
358,89.25,43.6804,51.3788,160.19,102.586,100.471,0.00362277,0.178064,20.8779,470.839,0.191164,0.0,0.0
360,89.75,43.6538,51.2579,159.89,102.587,99.5974,0.00346751,0.171648,20.8827,470.849,0.271381,0.0,0.0
362,90.25,43.6329,50.8421,158.324,102.571,100.404,0.00334175,0.164415,20.8866,470.859,0.195952,0.0,0.0
364,90.75,43.6197,50.724,159.4,102.579,100.362,0.00316952,0.158556,20.8903,470.849,0.200499,0.0,0.0
366,91.25,42.865,50.9031,155.303,102.567,100.472,0.00303001,0.15381,20.8936,470.859,0.189375,0.0,0.0
368,91.75,42.7766,49.7966,159.955,102.571,100.372,0.00288522,0.148661,20.8964,470.849,0.198881,0.0,0.0
370,92.25,42.443,49.3168,162.25,102.578,99.927,0.00273934,0.143315,20.8999,470.849,0.240291,0.0,0.0
372,92.75,42.8033,49.3676,157.128,102.542,100.023,0.00259591,0.138985,20.9028,470.849,0.228166,0.0,0.0
374,93.25,42.0907,49.251,159.164,102.547,100.136,0.00245701,0.134168,20.9056,470.859,0.218287,0.0,0.0
376,93.75,41.6111,48.4647,159.455,102.563,100.301,0.00232832,0.130266,20.9078,470.849,0.204711,0.0,0.0
378,94.25,42.5832,48.5226,156.915,102.555,100.21,0.00220952,0.126448,20.9105,470.849,0.212243,0.0,0.0
380,94.75,41.4102,48.4477,160.152,102.573,99.7435,0.0021133,0.122763,20.9127,470.849,0.25672,0.0,0.0
382,95.25,41.8293,47.7604,158.997,102.546,99.7348,0.00203277,0.119223,20.9145,470.849,0.255043,0.0,0.0
384,95.75,41.6863,47.4861,161.837,102.55,100.266,0.00196521,0.115856,20.9164,470.849,0.206648,0.0,0.0
386,96.25,40.9178,47.5983,156.093,102.542,100.163,0.00191049,0.112727,20.9179,470.849,0.215409,0.0,0.0
388,96.75,41.3049,47.2043,160.704,102.552,100.589,0.0018846,0.109829,20.9194,470.839,0.177356,0.0,0.0
390,97.25,40.9178,46.7639,159.87,102.525,100.038,0.00186363,0.107482,20.9208,470.849,0.225388,0.0,0.0
392,97.75,40.1483,46.2296,154.807,102.542,100.03,0.00186632,0.105114,20.9224,470.829,0.227515,0.0,0.0
394,98.25,40.804,46.3085,159.408,102.543,99.9777,0.0018685,0.102776,20.9237,470.839,0.232465,0.0,0.0
396,98.75,40.0593,45.8786,160.487,102.538,100.062,0.00188379,0.100883,20.9249,470.829,0.224216,0.0,0.0
398,99.25,40.2813,46.1011,160.134,102.514,100.124,0.00189618,0.0984785,20.9262,470.839,0.216488,0.0,0.0
400,99.75,40.3464,45.8648,157.866,102.525,100.127,0.00190621,0.0965308,20.9276,470.829,0.217158,0.0,0.0
402,100.25,39.5056,45.6078,158.66,102.518,99.8307,0.00190463,0.0943149,20.9288,470.839,0.243758,0.0,0.0
404,100.75,39.3549,45.372,158.637,102.538,100.193,0.00189461,0.09252,20.93,470.839,0.212309,0.0,0.0
406,101.25,39.8131,44.8383,163.053,102.505,99.7876,0.00189033,0.0905643,20.9306,470.829,0.246539,0.0,0.0
408,101.75,39.8365,44.59,161.084,102.51,99.8459,0.00188303,0.0889802,20.9321,470.839,0.241658,0.0,0.0
410,102.25,39.9524,44.7677,164.314,102.495,99.9154,0.00183164,0.0871823,20.9328,470.839,0.233947,0.0,0.0
412,102.75,39.3683,44.042,160.717,102.509,99.9067,0.00179001,0.085726,20.9339,470.819,0.235994,0.0,0.0
414,103.25,39.178,43.6251,157.004,102.499,100.505,0.00172438,0.0840593,20.9347,470.809,0.180325,0.0,0.0
416,103.75,39.5122,43.8541,156.559,102.498,100.405,0.00167122,0.0827093,20.9355,470.859,0.189256,0.0,0.0
418,104.25,38.9852,43.8327,159.941,102.487,100.56,0.00160975,0.0821337,20.9363,470.859,0.174163,0.0,0.0
420,104.75,39.3795,43.5734,162.087,102.493,99.8195,0.00155996,0.0800167,20.9372,470.899,0.242495,0.0,0.0
422,105.25,38.9338,43.5928,159.444,102.461,100.489,0.00151719,0.0794473,20.9379,470.899,0.178318,0.0,0.0
424,105.75,38.4572,43.3411,160.243,102.481,99.6106,0.00148253,0.0782887,20.9384,470.889,0.260687,0.0,0.0
426,106.25,38.9599,43.0646,159.398,102.46,100.142,0.0014655,0.0771839,20.9389,470.859,0.210027,0.0,0.0
428,106.75,38.1416,43.2125,160.145,102.479,99.5868,0.00145171,0.0761684,20.9393,470.859,0.262699,0.0,0.0
430,107.25,38.8914,42.754,156.383,102.461,100.304,0.00144829,0.0752371,20.9396,470.859,0.195234,0.0,0.0
432,107.75,38.1331,42.7374,159.252,102.465,99.3576,0.00145249,0.0744473,20.9389,470.859,0.282549,0.0,0.0
434,108.25,38.2405,42.2064,161.402,102.483,99.7906,0.00145589,0.0737756,20.9384,470.859,0.244304,0.0,0.0
436,108.75,38.0326,42.4454,164.283,102.467,99.9078,0.00146382,0.0732244,20.9378,470.859,0.232063,0.0,0.0
438,109.25,38.228,41.8667,156.314,102.448,99.6999,0.00147489,0.0727715,20.937,470.839,0.249479,0.0,0.0
440,109.75,37.8665,41.7177,157.191,102.448,100.113,0.00148773,0.072497,20.9364,470.839,0.211595,0.0,0.0
442,110.25,37.9895,41.568,162.18,102.441,99.3855,0.00150163,0.0723578,20.935,470.849,0.277833,0.0,0.0
444,110.75,37.7544,41.3276,161.379,102.441,100.139,0.00152452,0.0722449,20.9339,470.849,0.208515,0.0,0.0
446,111.25,37.4972,41.1397,161.22,102.44,99.7044,0.00155353,0.072221,20.933,470.829,0.248358,0.0,0.0
448,111.75,37.7551,41.7108,159.991,102.43,100.665,0.00157703,0.0722017,20.9323,470.839,0.159496,0.0,0.0
450,112.25,37.7049,41.7322,160.147,102.426,99.7252,0.00159606,0.0721931,20.9317,470.839,0.245189,0.0,0.0
452,112.75,37.3482,41.4512,157.592,102.423,100.327,0.00164467,0.0721925,20.9311,470.829,0.189751,0.0,0.0
454,113.25,37.6148,41.2167,161.129,102.413,100.124,0.00168404,0.0721423,20.9306,470.839,0.207443,0.0,0.0
456,113.75,37.2701,41.1084,163.851,102.405,100.154,0.00171839,0.072057,20.9304,470.829,0.204001,0.0,0.0
458,114.25,37.3966,41.0185,159.018,102.402,99.8063,0.00174621,0.0719878,20.9305,470.839,0.235585,0.0,0.0
460,114.75,36.9057,40.6202,154.135,102.399,100.021,0.00177134,0.0719318,20.9306,470.829,0.21558,0.0,0.0
462,115.25,36.9412,40.6584,153.606,102.404,100.407,0.00179402,0.0716032,20.9306,470.829,0.180728,0.0,0.0
464,115.75,37.2752,40.6384,155.933,102.385,100.039,0.00181239,0.071337,20.9307,470.839,0.21266,0.0,0.0
466,116.25,37.1186,40.871,154.44,102.407,99.9022,0.0018445,0.0710007,20.9309,470.839,0.227258,0.0,0.0
468,116.75,36.9537,40.726,157.188,102.373,99.781,0.0018705,0.0706199,20.9313,470.839,0.235367,0.0,0.0
470,117.25,36.9474,40.2089,157.063,102.381,99.8429,0.00190634,0.070205,20.9317,470.839,0.230382,0.0,0.0
472,117.75,36.9648,40.676,161.754,102.368,100.269,0.00193536,0.0697731,20.9324,470.839,0.190089,0.0,0.0
474,118.25,37.1533,40.1102,158.95,102.367,99.7668,0.00197611,0.0693312,20.933,470.839,0.236119,0.0,0.0
476,118.75,36.7996,40.0227,161.721,102.357,99.6644,0.00200911,0.0688903,20.9335,470.839,0.244584,0.0,0.0
478,119.25,36.176,40.167,159.968,102.362,99.7232,0.00204694,0.0685332,20.9339,470.849,0.239614,0.0,0.0
480,119.75,36.3214,40.0571,161.929,102.349,99.9493,0.00207757,0.0680958,20.9342,470.839,0.217718,0.0,0.0
482,120.25,36.6783,39.3383,159.566,102.359,99.7719,0.00211471,0.0677416,20.9347,470.849,0.234877,0.0,0.0
484,120.75,37.0887,39.3185,160.515,102.34,99.3327,0.00214479,0.0673625,20.9353,470.849,0.273727,0.0,0.0
486,121.25,36.5853,39.5821,156.533,102.347,99.8175,0.00217694,0.0669726,20.9358,470.849,0.229609,0.0,0.0
488,121.75,36.5069,39.4964,156.17,102.328,99.7024,0.00220999,0.0666143,20.9362,470.859,0.238496,0.0,0.0
490,122.25,36.203,39.8363,159.998,102.331,99.856,0.00223675,0.0662858,20.9365,470.859,0.224699,0.0,0.0
492,122.75,36.5612,39.4139,158.854,102.318,99.6862,0.00226688,0.065956,20.9368,470.849,0.23914,0.0,0.0
494,123.25,36.6867,39.4466,160.932,102.326,99.8332,0.00229887,0.0656316,20.937,470.849,0.226353,0.0,0.0
496,123.75,36.2222,39.5229,161.359,102.318,100.057,0.00232933,0.065305,20.9371,470.849,0.205036,0.0,0.0
498,124.25,36.0477,39.2934,159.952,102.314,100.123,0.0023581,0.0649832,20.9374,470.829,0.198669,0.0,0.0
500,124.75,36.3642,39.1155,159.672,102.309,99.6846,0.00238724,0.0647225,20.9377,470.819,0.238466,0.0,0.0
502,125.25,36.3242,40.0598,163.613,102.319,99.4752,0.00241611,0.0644622,20.9383,470.829,0.258652,0.0,0.0
504,125.75,36.1589,39.5597,160.11,102.308,99.5493,0.00244339,0.0642071,20.9389,470.829,0.250789,0.0,0.0
506,126.25,35.3867,38.5393,157.851,102.307,99.8494,0.00246899,0.0639297,20.9393,470.829,0.223124,0.0,0.0
508,126.75,36.5594,39.4403,155.941,102.284,99.7947,0.00249233,0.0636413,20.9396,470.829,0.226088,0.0,0.0
510,127.25,36.4009,39.1019,162.029,102.288,99.9149,0.00251357,0.0634077,20.9399,470.829,0.215413,0.0,0.0
512,127.75,35.8395,38.788,158.94,102.278,99.9402,0.00253078,0.063111,20.9401,470.829,0.21216,0.0,0.0
514,128.25,35.9726,38.6756,156.012,102.271,100.256,0.00256695,0.0628706,20.9405,470.819,0.182619,0.0,0.0
516,128.75,35.9364,38.8245,161.154,102.247,99.4747,0.00259624,0.0625953,20.9411,470.819,0.252226,0.0,0.0
518,129.25,35.9985,39.3312,158.869,102.265,99.9879,0.00261997,0.0623724,20.9415,470.829,0.206639,0.0,0.0
520,129.75,36.2586,39.0524,160.251,102.249,99.3946,0.00269976,0.0620305,20.9419,470.829,0.259843,0.0,0.0
522,130.25,35.7016,38.628,159.174,102.246,100.593,0.0027644,0.0617537,20.9422,470.819,0.149587,0.0,0.0
524,130.75,35.7678,38.894,161.332,102.233,99.3692,0.00286875,0.0613951,20.9424,470.829,0.260704,0.0,0.0
526,131.25,35.407,38.5909,158.801,102.233,99.8353,0.00295328,0.0611047,20.9426,470.819,0.217808,0.0,0.0
528,131.75,35.6243,38.5121,160.929,102.222,99.6659,0.00306886,0.0608411,20.9428,470.829,0.23239,0.0,0.0
530,132.25,35.5058,38.3099,158.49,102.229,99.817,0.00316248,0.0606023,20.9429,470.839,0.21908,0.0,0.0
532,132.75,35.7283,38.3678,162.957,102.215,99.784,0.00325921,0.0604088,20.943,470.819,0.220852,0.0,0.0
534,133.25,35.6739,38.76,157.31,102.227,100.002,0.00335638,0.0601983,20.9431,470.829,0.201943,0.0,0.0
536,133.75,35.6668,38.4336,160.6,102.221,99.7217,0.00344358,0.0600279,20.9431,470.819,0.227107,0.0,0.0
538,134.25,35.5409,38.1424,160.232,102.213,99.5913,0.00352186,0.0598361,20.9431,470.829,0.238442,0.0,0.0
540,134.75,35.8693,38.8669,160.488,102.198,99.6999,0.00358526,0.0596808,20.943,470.819,0.227116,0.0,0.0
542,135.25,35.6168,38.4867,155.141,102.2,100.022,0.00361426,0.0595193,20.943,470.819,0.197667,0.0,0.0
544,135.75,34.9678,38.5529,162.038,102.183,99.7759,0.00366384,0.0593564,20.9433,470.829,0.218711,0.0,0.0
546,136.25,35.5771,38.3248,156.634,102.188,99.4636,0.003704,0.0591962,20.9435,470.819,0.248001,0.0,0.0
548,136.75,35.9737,38.3742,160.772,102.173,99.6101,0.00373391,0.059041,20.9437,470.819,0.233085,0.0,0.0
550,137.25,35.7424,38.3449,158.927,102.168,100.195,0.00375578,0.0589153,20.9439,470.809,0.17894,0.0,0.0
552,137.75,35.4185,38.3606,161.429,102.151,99.2161,0.00378528,0.0587641,20.944,470.809,0.26749,0.0,0.0
554,138.25,35.379,38.1541,162.325,102.161,99.7906,0.00381976,0.0586762,20.9441,470.819,0.215434,0.0,0.0
556,138.75,35.751,37.9192,159.066,102.151,99.5944,0.00384769,0.0585259,20.9442,470.819,0.232571,0.0,0.0
558,139.25,35.6208,38.0192,157.266,102.162,99.42,0.0039263,0.0583829,20.9443,470.829,0.24962,0.0,0.0
560,139.75,35.5577,38.4099,160.555,102.145,99.6385,0.00398997,0.0582481,20.9443,470.819,0.227952,0.0,0.0
562,140.25,35.5578,37.9847,161.619,102.142,100.072,0.00410509,0.0581389,20.9441,470.819,0.187936,0.0,0.0
564,140.75,35.392,37.6984,161.436,102.119,99.7866,0.00419834,0.0580504,20.9438,470.809,0.21203,0.0,0.0
566,141.25,35.1215,38.3659,159.543,102.134,99.2866,0.00433253,0.0579788,20.9435,470.819,0.259419,0.0,0.0
568,141.75,35.4945,37.4422,159.62,102.118,99.9209,0.00444122,0.0578939,20.9432,470.829,0.19957,0.0,0.0
570,142.25,35.2907,38.2123,157.846,102.122,99.9275,0.00458676,0.0578252,20.9433,470.819,0.199372,0.0,0.0
572,142.75,35.4844,38.216,156.904,102.096,100.829,0.00470465,0.0577963,20.9435,470.819,0.11462,0.0,0.0
574,143.25,35.4366,37.9996,163.582,102.103,99.2491,0.00480014,0.0577729,20.9437,470.809,0.260147,0.0,0.0
576,143.75,35.5131,37.8118,157.807,102.098,99.5269,0.0049238,0.0577406,20.9439,470.789,0.234009,0.0,0.0
578,144.25,35.3351,37.8027,160.277,102.097,99.5873,0.00502396,0.0577144,20.944,470.799,0.228374,0.0,0.0
580,144.75,35.3833,37.9046,155.1,102.064,99.5112,0.00511887,0.0576529,20.9441,470.799,0.232458,0.0,0.0
582,145.25,34.9429,38.049,158.76,102.079,99.3814,0.00519575,0.0576031,20.9442,470.799,0.245732,0.0,0.0
584,145.75,35.1616,37.7103,157.924,102.062,99.2602,0.00526178,0.0575487,20.9443,470.799,0.255447,0.0,0.0
586,146.25,35.3769,38.0505,158.724,102.054,99.1142,0.00531527,0.0574919,20.9443,470.789,0.268217,0.0,0.0
588,146.75,35.4214,38.0666,165.111,102.039,99.3383,0.00535734,0.0574459,20.9444,470.789,0.246119,0.0,0.0
590,147.25,35.4624,38.203,158.08,102.033,99.4788,0.00539141,0.0574086,20.9444,470.789,0.232672,0.0,0.0
592,147.75,34.913,37.9267,156.508,102.028,99.2622,0.00542152,0.0573784,20.9444,470.779,0.252221,0.0,0.0
594,148.25,34.8337,37.7162,157.721,102.017,99.9184,0.00544591,0.0573405,20.9445,470.779,0.190687,0.0,0.0
596,148.75,35.2634,37.8896,158.99,102.015,99.7764,0.00546566,0.0573099,20.9445,470.779,0.203624,0.0,0.0
598,149.25,34.8073,37.454,156.76,102.002,99.9392,0.00549043,0.0573118,20.9445,470.779,0.18748,0.0,0.0
600,149.75,35.139,37.425,159.146,101.991,99.0604,0.0055105,0.0573134,20.9445,470.769,0.267485,0.0,0.0
602,150.25,35.1606,37.4719,158.107,101.994,98.8419,0.00553863,0.0573147,20.9445,470.769,0.288085,0.0,0.0
604,150.75,35.3354,37.7673,157.76,101.984,99.6284,0.00557211,0.0573158,20.9445,470.769,0.214396,0.0,0.0
606,151.25,35.3314,37.5946,159.657,101.956,99.2881,0.00561573,0.0573096,20.9445,470.759,0.243303,0.0,0.0
608,151.75,35.1187,37.6078,160.736,101.964,99.0513,0.00566592,0.0572982,20.9445,470.779,0.265957,0.0,0.0
610,152.25,35.215,37.0826,161.577,101.951,99.9711,0.00572442,0.057289,20.9445,470.779,0.179949,0.0,0.0
612,152.75,34.8972,37.3076,162.306,101.952,98.8383,0.00578787,0.0572956,20.9445,470.789,0.284595,0.0,0.0
614,153.25,35.1595,37.7725,160.432,101.934,99.4387,0.00583926,0.0573137,20.9446,470.769,0.227428,0.0,0.0
616,153.75,34.8713,37.0906,157.649,101.927,99.5178,0.00592111,0.0572931,20.9446,470.759,0.219502,0.0,0.0
618,154.25,35.3364,37.8952,161.959,101.918,99.1096,0.0059874,0.0572446,20.9446,470.759,0.2564,0.0,0.0
620,154.75,34.3735,37.3603,158.116,101.92,99.9133,0.00607381,0.0572195,20.9446,470.779,0.18251,0.0,0.0
622,155.25,34.6933,37.7986,161.229,101.903,99.4468,0.00614381,0.0572118,20.9446,470.769,0.22386,0.0,0.0
624,155.75,34.669,37.2413,158.496,101.903,99.9027,0.0062345,0.0572056,20.9443,470.769,0.18193,0.0,0.0
626,156.25,34.2928,37.2406,161.226,101.888,100.135,0.00630796,0.0572274,20.9439,470.759,0.15924,0.0,0.0
628,156.75,34.9098,36.3173,162.675,101.884,99.9833,0.00636746,0.057245,20.9436,470.749,0.172783,0.0,0.0
630,157.25,35.0147,37.5101,159.12,101.876,100.215,0.00646104,0.0572727,20.9433,470.738,0.150917,0.0,0.0
632,157.75,34.9819,37.3056,162.529,101.878,99.2232,0.00653684,0.0572952,20.9429,470.749,0.242252,0.0,0.0
634,158.25,34.4389,37.4837,161.691,101.867,99.5944,0.00659823,0.0572865,20.9423,470.759,0.207025,0.0,0.0
636,158.75,34.9256,37.348,154.91,101.855,99.2998,0.00671866,0.0572795,20.9418,470.738,0.233132,0.0,0.0
638,159.25,35.0197,37.0639,161.974,101.841,99.101,0.00681621,0.0572597,20.9412,470.738,0.250219,0.0,0.0
640,159.75,35.0047,36.9399,158.982,101.84,99.242,0.00692184,0.057231,20.9407,470.749,0.237138,0.0,0.0
642,160.25,34.4074,37.5927,162.828,101.833,99.4499,0.00703136,0.0572077,20.9403,470.728,0.217305,0.0,0.0
644,160.75,34.5985,37.1276,164.48,101.822,100.036,0.00712007,0.0571889,20.94,470.738,0.162374,0.0,0.0
646,161.25,34.5158,37.2827,162.638,101.814,99.2014,0.00723116,0.0572138,20.9397,470.738,0.238549,0.0,0.0
648,161.75,34.7736,37.3725,161.938,101.809,98.9068,0.00732115,0.0572341,20.9395,470.738,0.265396,0.0,0.0
650,162.25,34.5887,37.2328,158.912,101.791,99.387,0.00742699,0.0572363,20.9393,470.738,0.219318,0.0,0.0
652,162.75,34.9636,37.447,161.151,101.793,98.9666,0.00753074,0.0572255,20.9391,470.749,0.258361,0.0,0.0
654,163.25,34.9589,37.5634,162.227,101.773,99.6238,0.00763099,0.0572166,20.939,470.749,0.195883,0.0,0.0
656,163.75,34.4516,37.5502,161.097,101.778,99.3987,0.0077122,0.0572229,20.9389,470.719,0.217052,0.0,0.0
658,164.25,34.7461,37.1898,161.506,101.77,99.314,0.00777798,0.057228,20.9389,470.719,0.224167,0.0,0.0
660,164.75,34.4639,36.814,156.463,101.753,99.8119,0.00786807,0.0572321,20.9388,470.719,0.176713,0.0,0.0
662,165.25,34.6656,37.7322,156.521,101.735,98.8911,0.00794104,0.0572355,20.9387,470.719,0.260128,0.0,0.0
664,165.75,34.1544,37.1418,162.254,101.744,98.8251,0.0080192,0.0572382,20.9387,470.728,0.267102,0.0,0.0
666,166.25,34.5711,37.2273,161.029,101.725,99.4727,0.00808251,0.0572403,20.9387,470.719,0.205463,0.0,0.0
668,166.75,34.4355,36.959,160.594,101.722,99.8109,0.00815667,0.0572774,20.9386,470.708,0.174017,0.0,0.0
670,167.25,34.5,36.9816,158.712,101.697,99.0523,0.00821674,0.0573392,20.9386,470.708,0.241757,0.0,0.0
672,167.75,34.9883,36.7785,157.286,101.699,98.8348,0.00829338,0.0573893,20.9386,470.698,0.262118,0.0,0.0
674,168.25,34.3423,37.1709,155.533,101.68,99.1766,0.00835545,0.0574432,20.9386,470.708,0.228767,0.0,0.0
676,168.75,34.4645,37.0701,157.912,101.681,99.032,0.00843755,0.0574869,20.9386,470.708,0.242222,0.0,0.0
678,169.25,34.7351,37.4536,161.159,101.649,99.0959,0.00850405,0.0575365,20.9386,470.708,0.233441,0.0,0.0
680,169.75,35.0224,37.6536,155.016,101.656,98.6735,0.00856931,0.0575893,20.9386,470.698,0.273231,0.0,0.0
682,170.25,34.7089,37.5111,162.277,101.633,99.4727,0.00863243,0.0576462,20.9386,470.698,0.197168,0.0,0.0
684,170.75,35.0685,36.7121,157.515,101.638,99.2901,0.00868355,0.057705,20.9386,470.698,0.214431,0.0,0.0
686,171.25,34.8101,37.158,159.883,101.62,98.7374,0.00872764,0.0577173,20.9386,470.698,0.264092,0.0,0.0
688,171.75,34.5054,36.721,162.097,101.622,99.4615,0.00876577,0.0576956,20.9385,470.698,0.197154,0.0,0.0
690,172.25,34.7971,37.1674,163.338,101.603,98.9742,0.00879733,0.0576567,20.9385,470.698,0.24051,0.0,0.0
692,172.75,34.2198,36.8005,159.485,101.619,98.7227,0.00882349,0.0576062,20.939,470.698,0.26531,0.0,0.0
694,173.25,34.8222,37.321,157.169,101.602,99.0437,0.00884469,0.0575653,20.9393,470.698,0.233998,0.0,0.0
696,173.75,34.2888,37.1145,160.58,101.592,98.5746,0.00885803,0.0575463,20.9396,470.698,0.2767,0.0,0.0
698,174.25,34.6734,37.4353,156.595,101.576,98.6588,0.00886884,0.0575436,20.9399,470.708,0.267379,0.0,0.0
700,174.75,33.8522,37.2065,159.524,101.575,98.9332,0.0088738,0.0575202,20.9401,470.698,0.241825,0.0,0.0
702,175.25,34.8078,37.0331,164.38,101.568,99.6218,0.00887782,0.0574822,20.9402,470.698,0.17758,0.0,0.0
704,175.75,34.0564,36.8767,159.881,101.559,99.5766,0.00888744,0.0574585,20.9403,470.719,0.18092,0.0,0.0
706,176.25,34.591,36.8691,162.578,101.541,98.9646,0.00889524,0.0574457,20.9406,470.719,0.235818,0.0,0.0
708,176.75,34.9077,36.7758,159.076,101.535,98.8277,0.00891162,0.0574353,20.9408,470.708,0.247999,0.0,0.0
710,177.25,34.3663,36.8676,159.708,101.514,98.959,0.00893394,0.0574342,20.941,470.698,0.23395,0.0,0.0
712,177.75,34.4069,37.3548,158.557,101.516,99.0898,0.00895202,0.0574401,20.9411,470.688,0.221939,0.0,0.0
714,178.25,33.9488,36.8053,162.96,101.493,99.3378,0.00897875,0.0574582,20.9413,470.688,0.196956,0.0,0.0
716,178.75,34.9912,36.8621,155.37,101.505,98.6127,0.00901127,0.0574729,20.9414,470.698,0.265264,0.0,0.0
718,179.25,34.5833,36.2681,157.861,101.474,98.7927,0.00903123,0.0574989,20.9414,470.688,0.245733,0.0,0.0
720,179.75,34.6995,36.816,159.825,101.479,98.8596,0.0090474,0.0575327,20.941,470.688,0.239967,0.0,0.0
722,180.25,34.925,37.0187,164.07,101.459,99.0914,0.00903836,0.0575601,20.9407,470.698,0.216692,0.0,0.0
724,180.75,34.2349,37.0921,158.514,101.464,98.9717,0.00901111,0.0576225,20.9405,470.688,0.228229,0.0,0.0
726,181.25,34.0591,37.4978,165.027,101.434,98.1994,0.00898904,0.057673,20.9403,470.688,0.29739,0.0,0.0
728,181.75,33.9299,36.8178,158.882,101.464,98.8505,0.00897117,0.0576999,20.9401,470.678,0.239434,0.0,0.0
730,182.25,34.4736,36.8386,159.836,101.436,98.2075,0.00890449,0.0577089,20.9399,470.678,0.296817,0.0,0.0
732,182.75,34.6819,36.4906,156.821,101.434,99.3282,0.00885048,0.0577303,20.9398,470.668,0.192478,0.0,0.0
734,183.25,33.827,37.1435,158.647,101.411,98.9808,0.00878511,0.0577604,20.9397,470.668,0.222572,0.0,0.0
736,183.75,34.4238,36.5749,163.034,101.408,98.7775,0.00873216,0.0577847,20.9396,470.668,0.241182,0.0,0.0
738,184.25,34.0001,36.7653,165.72,101.407,99.0914,0.0086839,0.0578045,20.9395,470.668,0.211995,0.0,0.0
740,184.75,34.6011,36.8344,164.06,101.399,98.8733,0.00863998,0.0579144,20.9395,470.668,0.231498,0.0,0.0
742,185.25,34.0171,37.0109,157.985,101.388,98.7572,0.00860441,0.0580034,20.9394,470.668,0.241275,0.0,0.0
744,185.75,34.1423,37.3568,159.417,101.38,98.7476,0.00855018,0.0581426,20.939,470.668,0.241424,0.0,0.0
746,186.25,34.3862,36.6689,159.472,101.371,98.8505,0.00850625,0.0582554,20.9385,470.648,0.231043,0.0,0.0
748,186.75,34.3018,36.7745,162.885,101.362,98.4717,0.00844274,0.0584406,20.938,470.658,0.265415,0.0,0.0
750,187.25,34.0035,36.7926,161.913,101.366,98.456,0.00839129,0.0585907,20.9376,470.658,0.267327,0.0,0.0
752,187.75,34.3774,37.5076,160.102,101.353,99.0802,0.00833565,0.0587123,20.9373,470.658,0.208139,0.0,0.0
754,188.25,34.4243,37.0779,158.765,101.357,98.5047,0.00829059,0.0588772,20.937,470.658,0.261971,0.0,0.0
756,188.75,34.0531,36.8839,160.479,101.338,98.8606,0.00825662,0.0590108,20.9368,470.648,0.227153,0.0,0.0
758,189.25,34.2061,37.3562,159.907,101.34,99.3109,0.00822911,0.059119,20.9367,470.648,0.185566,0.0,0.0
760,189.75,34.004,37.0992,160.371,101.322,98.2785,0.00821952,0.0592067,20.9366,470.658,0.279852,0.0,0.0
762,190.25,34.2025,36.3078,160.44,101.324,99.6329,0.00821543,0.0592989,20.9365,470.658,0.154406,0.0,0.0
764,190.75,34.2371,36.9281,156.793,101.319,99.211,,0.0593926,,470.648,0.192896,0.0,0.0
766,191.25,34.3462,36.3977,160.281,101.306,99.2998,,0.0594757,,470.638,0.183573,0.0,0.0
768,191.75,34.2221,36.921,158.704,101.308,98.9007,,0.0595493,,470.638,0.220636,0.0,0.0
770,192.25,34.5082,37.0256,159.397,101.301,98.7937,,0.059623,,470.628,0.229971,0.0,0.0
772,192.75,33.9318,37.2694,163.741,101.295,98.5899,,0.0596955,,470.638,0.248402,0.0,0.0
774,193.25,34.1608,37.3827,162.403,101.285,98.5721,,0.0597546,,470.628,0.24912,0.0,0.0
776,193.75,33.9751,37.3201,158.714,101.278,99.1345,,,,470.628,0.196323,0.0,0.0
778,194.25,33.8811,36.8105,153.095,101.29,98.5604,,,,470.628,0.250692,0.0,0.0
780,194.75,34.6981,36.7023,161.912,101.261,98.351,,,,470.628,0.267596,0.0,0.0
782,195.25,34.0011,36.8589,158.865,101.279,98.6213,,,,470.628,0.24402,0.0,0.0
784,195.75,34.2693,36.9695,160.371,101.242,99.0204,,,,470.618,0.203565,0.0,0.0
786,196.25,34.4334,37.2095,161.134,101.27,98.6309,,,,470.628,0.242301,0.0,0.0
788,196.75,34.5344,37.0218,161.7,101.255,99.0969,,,,470.628,0.197704,0.0,0.0
790,197.25,33.9753,36.7032,158.984,101.25,98.1015,,,,470.618,0.289894,0.0,0.0
792,197.75,34.1941,37.138,160.755,101.247,98.6208,,,,470.618,0.241153,0.0,0.0
794,198.25,34.3706,37.1139,163.035,101.242,98.6948,,,,470.608,0.233856,0.0,0.0
796,198.75,34.4363,36.8523,160.352,101.228,99.0919,,,,470.618,0.19567,0.0,0.0
798,199.25,34.0008,36.7974,155.367,101.235,98.7587,,,,470.618,0.227283,0.0,0.0
800,199.75,34.4108,36.7372,161.967,101.217,99.2526,,,,470.618,0.179863,0.0,0.0
802,200.25,34.6187,36.9073,158.536,101.236,99.42,,,,470.608,0.166087,0.0,0.0
804,200.75,34.4862,36.8841,159.256,101.218,98.9905,,,,470.618,0.20417,0.0,0.0
806,201.25,34.3359,37.0196,161.29,101.236,98.1325,,,,470.618,0.285693,0.0,0.0
807,201.5,34.4417,37.0131,157.821,101.23,98.6304,,,,470.618,0.238763,0.0,0.0