File: 01_Data/Bean_Bag_Chair_Outer_Cover/STA/N2/3K_min/Bean_Bag_Outer_Cover_STA_N2_3KData_220512_R1.csv
##Temp./Â°C,Time/min,Mass loss(subtr.2)/mg,DSC(subtr.2)/(mW/mg),Sensit./(uV/mW)
50.234,10.01667,-0.00856,0.03265646,1.05675
50.934,11.16165,-0.0078407,0.06108063,1.05667
51.634,11.55053,-0.01064738,0.0759238,1.05659
52.334,11.8695,-0.00799791,0.08492941,1.05651
53.034,12.16104,-0.008323542,0.09061572,1.05643
53.734,12.43704,-0.008018928,0.09565232,1.05635
54.434,12.7059,-0.0094709,0.1,1.05627
55.134,12.9706,-0.008071501,0.10201,1.05619
55.834,13.23199,-0.008643685,0.10432,1.0561
56.534,13.4892,-0.007913802,0.1081,1.05602
57.234,13.7428,-0.00895407,0.10992,1.05594
57.934,13.99415,-0.00800328,0.1128,1.05585
58.634,14.24335,-0.008990067,0.11487,1.05577
59.334,14.4908,-0.008362476,0.11777,1.05568
60.034,14.7371,-0.009278609,0.11812,1.05559
60.734,14.9815,-0.009327065,0.12031,1.0555
61.434,15.22538,-0.01195512,0.12187,1.05541
62.134,15.4674,-0.01063996,0.12232,1.05532
62.834,15.7088,-0.009709987,0.12621,1.05523
63.534,15.94764,-0.01185048,0.1273,1.05514
64.234,16.1852,-0.01097,0.12811,1.05505
64.934,16.42174,-0.01178161,0.1293,1.05496
65.634,16.6586,-0.01097289,0.1332,1.05486
66.334,16.89555,-0.01163,0.13293,1.05477
67.034,17.13279,-0.01325149,0.13456,1.05467
67.734,17.36918,-0.01390025,0.13316,1.05458
68.434,17.60688,-0.0146099,0.13327,1.05448
69.134,17.8428,-0.01328023,0.13429,1.05438
69.834,18.07976,-0.01562498,0.13701,1.05429
70.534,18.31459,-0.01425767,0.13547,1.05419
71.234,18.54968,-0.01558,0.13786,1.05409
71.934,18.7831,-0.01426201,0.13751,1.05399
72.634,19.0163,-0.01820121,0.13752,1.05388
73.334,19.25121,-0.01822311,0.13795,1.05378
74.034,19.48556,-0.01785213,0.13774,1.05368
74.734,19.71939,-0.01652531,0.1379,1.05357
75.434,19.95257,-0.01756298,0.13879,1.05347
76.134,20.18603,-0.01889561,0.13767,1.05336
76.834,20.4203,-0.0187303,0.13894,1.05326
77.534,20.65462,-0.01954385,0.13559,1.05315
78.234,20.88845,-0.01999603,0.13539,1.05304
78.934,21.12204,-0.01976902,0.13487,1.05293
79.634,21.35574,-0.02248506,0.13492,1.05282
80.334,21.59026,-0.0209551,0.13319,1.05271
81.034,21.82552,-0.02184,0.13331,1.0526
81.734,22.05989,-0.02176428,0.13212,1.05249
82.434,22.29393,-0.02213046,0.13401,1.05238
83.134,22.52736,-0.02282945,0.13307,1.05226
83.834,22.76034,-0.02184,0.13371,1.05215
84.534,22.99241,-0.02183928,0.13215,1.05203
85.234,23.22496,-0.0232337,0.13316,1.05192
85.934,23.4568,-0.02282375,0.13299,1.0518
86.634,23.68918,-0.0234922,0.13179,1.05168
87.334,23.92054,-0.02448029,0.12928,1.05157
88.034,24.1527,-0.02447016,0.12963,1.05145
88.734,24.38482,-0.02579024,0.13001,1.05133
89.434,24.61804,-0.02579104,0.12899,1.05121
90.134,24.85165,-0.02545889,0.12745,1.05108
90.834,25.08655,-0.02546997,0.12362,1.05096
91.534,25.3212,-0.02677982,0.12441,1.05084
92.234,25.5562,-0.02677238,0.12184,1.05071
92.934,25.79031,-0.02717874,0.12176,1.05059
93.634,26.02402,-0.0267884,0.12236,1.05046
94.334,26.25644,-0.02546077,0.12282,1.05034
95.034,26.48705,-0.02679541,0.12213,1.05021
95.734,26.71776,-0.02678289,0.12437,1.05008
96.434,26.94807,-0.02615438,0.12471,1.04995
97.134,27.17863,-0.02615683,0.12207,1.04982
97.834,27.40953,-0.02674466,0.12134,1.04969
98.534,27.6411,-0.02809818,0.12326,1.04956
99.234,27.87293,-0.02678013,0.11878,1.04943
99.934,28.10377,-0.02821586,0.12032,1.0493
100.634,28.33523,-0.02678,0.11987,1.04916
101.334,28.56648,-0.02677971,0.12163,1.04903
102.034,28.79795,-0.02579,0.11984,1.04889
102.734,29.0289,-0.02676288,0.12087,1.04876
103.434,29.26091,-0.02648559,0.12058,1.04862
104.134,29.4932,-0.02645018,0.11969,1.04848
104.834,29.7252,-0.02717558,0.12144,1.04834
105.534,29.95665,-0.02751087,0.12198,1.0482
106.234,30.1876,-0.02612067,0.12314,1.04806
106.934,30.41842,-0.02472744,0.12199,1.04792
107.634,30.64909,-0.02510649,0.12233,1.04778
108.334,30.88015,-0.02619523,0.12306,1.04764
109.034,31.1118,-0.02481,0.12178,1.04749
109.734,31.34395,-0.02480964,0.12181,1.04735
110.434,31.5769,-0.02477958,0.12293,1.0472
111.134,31.80852,-0.02480893,0.12464,1.04706
111.834,32.03922,-0.02485882,0.12546,1.04691
112.534,32.26961,-0.0258362,0.12496,1.04676
113.234,32.5005,-0.02547,0.1253,1.04661
113.934,32.73117,-0.02612474,0.12511,1.04646
114.634,32.9615,-0.02481,0.12579,1.04631
115.334,33.19171,-0.02608436,0.12365,1.04616
116.034,33.42263,-0.02489493,0.12264,1.04601
116.734,33.65365,-0.0256362,0.12336,1.04586
117.434,33.88454,-0.02546697,0.12356,1.0457
118.134,34.1151,-0.02546172,0.12225,1.04555
118.834,34.3468,-0.02414013,0.12345,1.04539
119.534,34.57689,-0.02546414,0.12355,1.04524
120.234,34.80785,-0.02411282,0.12458,1.04508
120.934,35.03722,-0.02414966,0.12446,1.04492
121.634,35.26774,-0.02448005,0.12409,1.04476
122.334,35.4981,-0.02448,0.12504,1.0446
123.034,35.72866,-0.0257885,0.12462,1.04444
123.734,35.95912,-0.02545678,0.12659,1.04428
124.434,36.18949,-0.02413453,0.12465,1.04412
125.134,36.42013,-0.02426969,0.1252,1.04396
125.834,36.6509,-0.02350455,0.12543,1.04379
126.534,36.88055,-0.02414002,0.12704,1.04363
127.234,37.11083,-0.02162874,0.12576,1.04346
127.934,37.34061,-0.0241505,0.12836,1.0433
128.634,37.5702,-0.02412155,0.12974,1.04313
129.334,37.79847,-0.02316,0.12852,1.04296
130.034,38.02763,-0.02448917,0.12976,1.04279
130.734,38.25663,-0.02348998,0.12751,1.04262
131.434,38.48668,-0.02422402,0.12815,1.04245
132.134,38.7157,-0.02413999,0.1287,1.04228
132.834,38.94611,-0.02423242,0.12944,1.04211
133.534,39.17592,-0.02487725,0.12942,1.04193
134.234,39.4062,-0.02477185,0.13049,1.04176
134.934,39.636,-0.0234836,0.12912,1.04159
135.634,39.86652,-0.02316194,0.13039,1.04141
136.334,40.0969,-0.02316,0.13041,1.04123
137.034,40.3279,-0.02446148,0.13101,1.04106
137.734,40.55849,-0.02394982,0.13106,1.04088
138.434,40.78908,-0.02380998,0.13031,1.0407
139.134,41.019,-0.02514318,0.13191,1.04052
139.834,41.2485,-0.02247433,0.13369,1.04034
140.534,41.47786,-0.02380928,0.13516,1.04016
141.234,41.70687,-0.02348,0.13644,1.03997
141.934,41.93543,-0.023455,0.13497,1.03979
142.634,42.16369,-0.02394016,0.13552,1.03961
143.334,42.392,-0.02349,0.13499,1.03942
144.034,42.61991,-0.02282971,0.13488,1.03923
144.734,42.8477,-0.02317635,0.13536,1.03905
145.434,43.07636,-0.02282914,0.13462,1.03886
146.134,43.30571,-0.02390393,0.13497,1.03867
146.834,43.5349,-0.02316013,0.13518,1.03848
147.534,43.76298,-0.02446412,0.13549,1.03829
148.234,43.9912,-0.0218601,0.13587,1.0381
148.934,44.2203,-0.02273594,0.13759,1.03791
149.634,44.4499,-0.02316,0.13607,1.03772
150.334,44.6802,-0.02217,0.139,1.03752
151.034,44.90923,-0.02217,0.13819,1.03733
151.734,45.13879,-0.0218404,0.13744,1.03713
152.434,45.36596,-0.02379092,0.13759,1.03693
153.134,45.59478,-0.02284759,0.13527,1.03674
153.834,45.8224,-0.02187217,0.13888,1.03654
154.534,46.052,-0.02283,0.13822,1.03634
155.234,46.2804,-0.02283204,0.14009,1.03614
155.934,46.50795,-0.02283,0.1386,1.03594
156.634,46.7352,-0.02415545,0.14008,1.03574
157.334,46.96328,-0.02283008,0.14169,1.03554
158.034,47.19255,-0.02249959,0.14092,1.03533
158.734,47.42216,-0.02381999,0.13859,1.03513
159.434,47.6524,-0.02275801,0.1416,1.03492
160.134,47.8827,-0.02271998,0.14152,1.03472
160.834,48.11225,-0.02271991,0.14264,1.03451
161.534,48.34087,-0.02270927,0.14355,1.0343
162.234,48.56883,-0.02436003,0.14544,1.03409
162.934,48.79696,-0.02403133,0.14481,1.03389
163.634,49.02527,-0.02398978,0.14388,1.03367
164.334,49.25408,-0.02173,0.14512,1.03346
165.034,49.48397,-0.02272165,0.14408,1.03325
165.734,49.71374,-0.02304979,0.14304,1.03304
166.434,49.94332,-0.02239129,0.14235,1.03282
167.134,50.17277,-0.02205392,0.1438,1.03261
167.834,50.40126,-0.02201886,0.14512,1.03239
168.534,50.62996,-0.02339785,0.14473,1.03218
169.234,50.8581,-0.02176614,0.14581,1.03196
169.934,51.08676,-0.02305573,0.14807,1.03174
170.634,51.31496,-0.02203993,0.14721,1.03152
171.334,51.54253,-0.02204612,0.14943,1.0313
172.034,51.76959,-0.02073448,0.15115,1.03108
172.734,51.99671,-0.02234846,0.15186,1.03086
173.434,52.22371,-0.0223796,0.14901,1.03064
174.134,52.4518,-0.02271993,0.14885,1.03041
174.834,52.6803,-0.02173998,0.14884,1.03019
175.534,52.9092,-0.02075434,0.14842,1.02997
176.234,53.13701,-0.02075157,0.1497,1.02974
176.934,53.36642,-0.02174999,0.1473,1.02951
177.634,53.59605,-0.02224769,0.14805,1.02928
178.334,53.82615,-0.02077546,0.14973,1.02906
179.034,54.0543,-0.02198672,0.14929,1.02883
179.734,54.28216,-0.02106044,0.15003,1.0286
180.434,54.51,-0.02107093,0.15207,1.02836
181.134,54.738,-0.02107297,0.15195,1.02813
181.834,54.9658,-0.02107005,0.15245,1.0279
182.534,55.1936,-0.02073554,0.15176,1.02766
183.234,55.4219,-0.02071168,0.15206,1.02743
183.934,55.64963,-0.02206103,0.15088,1.02719
184.634,55.878,-0.02073982,0.14942,1.02696
185.334,56.1055,-0.02074,0.15047,1.02672
186.034,56.3341,-0.02238082,0.1521,1.02648
186.734,56.5619,-0.02237785,0.15197,1.02624
187.434,56.7896,-0.02107154,0.15181,1.026
188.134,57.0172,-0.02073992,0.15366,1.02576
188.834,57.2451,-0.02074019,0.15562,1.02552
189.534,57.473,-0.02158257,0.15433,1.02527
190.234,57.70105,-0.02168505,0.15554,1.02503
190.934,57.92935,-0.02341382,0.15562,1.02479
191.634,58.15766,-0.021467,0.15558,1.02454
192.334,58.38496,-0.02175683,0.15687,1.02429
193.034,58.61124,-0.02172998,0.15768,1.02405
193.734,58.8369,-0.02275988,0.15695,1.0238
194.434,59.0631,-0.02140804,0.15861,1.02355
195.134,59.28944,-0.02038022,0.15806,1.0233
195.834,59.5173,-0.02267291,0.15952,1.02305
196.534,59.74592,-0.02226876,0.158,1.02279
197.234,59.975,-0.02239,0.15919,1.02254
197.934,60.20385,-0.02139328,0.15966,1.02229
198.634,60.4309,-0.02270933,0.16166,1.02203
199.334,60.65753,-0.02272669,0.16071,1.02178
200.034,60.88455,-0.02272481,0.16249,1.02152
200.734,61.1113,-0.02404071,0.16363,1.02126
201.434,61.33831,-0.02274281,0.16342,1.02101
202.134,61.56414,-0.02503514,0.164,1.02075
202.834,61.7909,-0.02259757,0.16528,1.02049
203.534,62.0176,-0.02271984,0.16437,1.02022
204.234,62.24442,-0.02469948,0.16566,1.01996
204.934,62.47099,-0.02438811,0.16533,1.0197
205.634,62.69664,-0.02394083,0.16559,1.01944
206.334,62.92406,-0.02503,0.16501,1.01917
207.034,63.1512,-0.02508374,0.16722,1.01891
207.734,63.37981,-0.02503,0.16663,1.01864
208.434,63.60686,-0.02554714,0.16615,1.01837
209.134,63.83405,-0.02634017,0.16597,1.0181
209.834,64.06061,-0.02634,0.16602,1.01784
210.534,64.28783,-0.02632593,0.1671,1.01757
211.234,64.51569,-0.02700002,0.16634,1.01729
211.934,64.74325,-0.02696896,0.16658,1.01702
212.634,64.9711,-0.02699998,0.16771,1.01675
213.334,65.19844,-0.02831997,0.16897,1.01648
214.034,65.4258,-0.02931099,0.16817,1.0162
214.734,65.65249,-0.02798996,0.16805,1.01593
215.434,65.87894,-0.02754647,0.16815,1.01565
216.134,66.1054,-0.02799014,0.16818,1.01537
216.834,66.33163,-0.02930951,0.16925,1.01509
217.534,66.55794,-0.02797493,0.17058,1.01482
218.234,66.78419,-0.02896548,0.17044,1.01454
218.934,67.01105,-0.03061997,0.16881,1.01425
219.634,67.2376,-0.03062,0.16758,1.01397
220.334,67.46505,-0.03062,0.17047,1.01369
221.034,67.6913,-0.03061999,0.17243,1.01341
221.734,67.91852,-0.03005272,0.17291,1.01312
222.434,68.14496,-0.03163095,0.17261,1.01284
223.134,68.37245,-0.03166647,0.17282,1.01255
223.834,68.59989,-0.03160463,0.17249,1.01226
224.534,68.8269,-0.03227765,0.17163,1.01197
225.234,69.05373,-0.03127998,0.17373,1.01169
225.934,69.28062,-0.03260023,0.17356,1.0114
226.634,69.50822,-0.03359,0.17343,1.0111
227.334,69.73616,-0.0349095,0.17358,1.01081
228.034,69.96229,-0.03490834,0.17575,1.01052
228.734,70.18981,-0.03558878,0.17443,1.01023
229.434,70.4162,-0.03425551,0.17473,1.00993
230.134,70.6446,-0.03502806,0.17649,1.00964
230.834,70.872,-0.03687882,0.17529,1.00934
231.534,71.09966,-0.03686895,0.17545,1.00904
232.234,71.3269,-0.03895771,0.17474,1.00874
232.934,71.55389,-0.03750693,0.17308,1.00845
233.634,71.78142,-0.039512,0.17652,1.00815
234.334,72.00876,-0.03994388,0.1739,1.00784
235.034,72.23626,-0.04051,0.17748,1.00754
235.734,72.46319,-0.03927539,0.17461,1.00724
236.434,72.6907,-0.04151156,0.17645,1.00694
237.134,72.9182,-0.04156116,0.17843,1.00663
237.834,73.1465,-0.04312678,0.17927,1.00633
238.534,73.37383,-0.04310023,0.17832,1.00602
239.234,73.60116,-0.045411,0.17913,1.00571
239.934,73.82805,-0.04517845,0.17825,1.0054
240.634,74.05536,-0.04666791,0.17912,1.00509
241.334,74.28235,-0.04775103,0.17914,1.00478
242.034,74.50921,-0.04643764,0.17886,1.00447
242.734,74.73594,-0.04807501,0.17919,1.00416
243.434,74.96183,-0.04905995,0.17962,1.00385
244.134,75.18777,-0.05169987,0.18039,1.00354
244.834,75.41368,-0.05104001,0.18372,1.00322
245.534,75.63999,-0.05299998,0.18355,1.0029
246.234,75.86649,-0.05335005,0.18308,1.00259
246.934,76.09259,-0.05402514,0.1843,1.00227
247.634,76.3198,-0.05481542,0.18175,1.00195
248.334,76.54733,-0.05749977,0.18244,1.00163
249.034,76.7752,-0.05795988,0.18254,1.00131
249.734,77.00322,-0.05926891,0.18564,1.00099
250.434,77.2305,-0.05929881,0.18552,1.00067
251.134,77.4573,-0.0618257,0.18648,1.00035
251.834,77.68305,-0.06091,0.18598,1.00002
252.534,77.9085,-0.06325013,0.18679,0.9997
253.234,78.13418,-0.06488019,0.1876,0.99937
253.934,78.36049,-0.06552099,0.18697,0.99905
254.634,78.58691,-0.06618659,0.18715,0.99872
255.334,78.8137,-0.06752061,0.18966,0.99839
256.034,79.04041,-0.06948951,0.18961,0.99806
256.734,79.26746,-0.07081001,0.18862,0.99773
257.434,79.49485,-0.07311959,0.19099,0.9974
258.134,79.7222,-0.07468606,0.18847,0.99707
258.834,79.94941,-0.07739042,0.19107,0.99673
259.534,80.17674,-0.07771894,0.19042,0.9964
260.234,80.40387,-0.07903662,0.19146,0.99607
260.934,80.63123,-0.08129289,0.19296,0.99573
261.634,80.85706,-0.08265849,0.19451,0.99539
262.334,81.08315,-0.08397996,0.1944,0.99506
263.034,81.30983,-0.08561995,0.19591,0.99472
263.734,81.53738,-0.08822247,0.19488,0.99438
264.434,81.7646,-0.08957358,0.1959,0.99404
265.134,81.99162,-0.09161837,0.19691,0.9937
265.834,82.21889,-0.09357822,0.19678,0.99335
266.534,82.44645,-0.09619371,0.19878,0.99301
267.234,82.6738,-0.09851781,0.19703,0.99267
267.934,82.90049,-0.10015,0.19846,0.99232
268.634,83.12759,-0.10145,0.1987,0.99197
269.334,83.35455,-0.10554,0.19999,0.99163
270.034,83.58227,-0.106,0.2011,0.99128
270.734,83.80905,-0.10902,0.20076,0.99093
271.434,84.03608,-0.11134,0.20409,0.99058
272.134,84.26301,-0.11405,0.20203,0.99023
272.834,84.49024,-0.11787,0.20559,0.98988
273.534,84.71797,-0.12059,0.20478,0.98953
274.234,84.94496,-0.12096,0.20489,0.98917
274.934,85.1725,-0.12565,0.20417,0.98882
275.634,85.40002,-0.12943,0.20721,0.98847
276.334,85.62895,-0.13115,0.20823,0.98811
277.034,85.85746,-0.13498,0.20984,0.98775
277.734,86.08601,-0.13765,0.21001,0.98739
278.434,86.31334,-0.1417,0.21166,0.98704
279.134,86.54065,-0.1445,0.21248,0.98668
279.834,86.76768,-0.14726,0.21118,0.98631
280.534,86.9949,-0.15214,0.21266,0.98595
281.234,87.2224,-0.1564,0.21284,0.98559
281.934,87.4487,-0.15776,0.21093,0.98523
282.634,87.67627,-0.16116,0.21225,0.98486
283.334,87.90342,-0.16613,0.21322,0.9845
284.034,88.13132,-0.17015,0.21267,0.98413
284.734,88.35817,-0.17418,0.21163,0.98376
285.434,88.5852,-0.17817,0.21054,0.9834
286.134,88.81221,-0.18285,0.20938,0.98303
286.834,89.03976,-0.18725,0.21232,0.98266
287.534,89.26782,-0.19344,0.21113,0.98229
288.234,89.4958,-0.19732,0.21107,0.98192
288.934,89.72386,-0.2028,0.21279,0.98154
289.634,89.95177,-0.20687,0.21074,0.98117
290.334,90.17945,-0.21394,0.2117,0.98079
291.034,90.4062,-0.21768,0.2157,0.98042
291.734,90.63298,-0.22329,0.21792,0.98004
292.434,90.8611,-0.2297,0.21921,0.97967
293.134,91.08919,-0.23532,0.22312,0.97929
293.834,91.31778,-0.24304,0.22602,0.97891
294.534,91.54587,-0.24759,0.22524,0.97853
295.234,91.77396,-0.2568,0.2263,0.97815
295.934,92.00228,-0.26324,0.22594,0.97777
296.634,92.23029,-0.26998,0.23052,0.97738
297.334,92.4584,-0.27807,0.23252,0.977
298.034,92.68567,-0.28505,0.23498,0.97661
298.734,92.91385,-0.29331,0.23616,0.97623
299.434,93.1424,-0.30028,0.2365,0.97584
300.134,93.37042,-0.30983,0.24159,0.97546
300.834,93.5977,-0.3179,0.24306,0.97507
301.534,93.82376,-0.32647,0.24544,0.97468
302.234,94.05119,-0.3363,0.24832,0.97429
302.934,94.2784,-0.34631,0.24897,0.9739
303.634,94.50649,-0.35416,0.25359,0.97351
304.334,94.7332,-0.36534,0.25533,0.97311
305.034,94.96043,-0.37601,0.25804,0.97272
305.734,95.18777,-0.38804,0.26151,0.97232
306.434,95.41485,-0.39878,0.26432,0.97193
307.134,95.64277,-0.41105,0.26805,0.97153
307.834,95.8707,-0.42308,0.27449,0.97113
308.534,96.09958,-0.43571,0.27729,0.97074
309.234,96.3275,-0.44948,0.28177,0.97034
309.934,96.55527,-0.46321,0.28706,0.96994
310.634,96.78317,-0.47699,0.29264,0.96954
311.334,97.01119,-0.49218,0.29539,0.96913
312.034,97.23871,-0.50829,0.2999,0.96873
312.734,97.46651,-0.52464,0.30533,0.96833
313.434,97.69539,-0.54045,0.3099,0.96792
314.134,97.9252,-0.5604,0.31639,0.96752
314.834,98.15438,-0.57993,0.32339,0.96711
315.534,98.3831,-0.59763,0.33014,0.9667
316.234,98.6112,-0.61805,0.33799,0.96629
316.934,98.83981,-0.63843,0.34762,0.96589
317.634,99.06838,-0.65822,0.35186,0.96547
318.334,99.29757,-0.68317,0.36005,0.96506
319.034,99.52552,-0.70754,0.36996,0.96465
319.734,99.75318,-0.7308,0.37928,0.96424
320.434,99.98049,-0.75501,0.39134,0.96382
321.134,100.208,-0.78409,0.40032,0.96341
321.834,100.434,-0.81109,0.41088,0.96299
322.534,100.661,-0.83947,0.4203,0.96258
323.234,100.888,-0.87126,0.43054,0.96216
323.934,101.115,-0.90214,0.44099,0.96174
324.634,101.343,-0.93448,0.45329,0.96132
325.334,101.572,-0.96862,0.46456,0.9609
326.034,101.801,-1.00461,0.47625,0.96048
326.734,102.0297,-1.04173,0.48889,0.96006
327.434,102.259,-1.08119,0.50099,0.95964
328.134,102.488,-1.12197,0.5109,0.95921
328.834,102.717,-1.16304,0.52457,0.95879
329.534,102.946,-1.20695,0.53721,0.95836
330.234,103.175,-1.25182,0.55109,0.95794
330.934,103.405,-1.2999,0.56136,0.95751
331.634,103.635,-1.34741,0.57252,0.95708
332.334,103.864,-1.39502,0.58659,0.95665
333.034,104.0927,-1.44721,0.59372,0.95622
333.734,104.322,-1.49793,0.60601,0.95579
334.434,104.552,-1.55079,0.616,0.95536
335.134,104.782,-1.60654,0.62385,0.95492
335.834,105.013,-1.66225,0.63251,0.95449
336.534,105.244,-1.71861,0.63741,0.95406
337.234,105.473,-1.77543,0.64253,0.95362
337.934,105.704,-1.83672,0.64755,0.95318
338.634,105.934,-1.89404,0.65042,0.95275
339.334,106.164,-1.95451,0.64953,0.95231
340.034,106.393,-2.01123,0.6508,0.95187
340.734,106.622,-2.07286,0.64924,0.95143
341.434,106.85,-2.13078,0.64494,0.95099
342.134,107.078,-2.18824,0.63979,0.95054
342.834,107.305,-2.24839,0.63358,0.9501
343.534,107.532,-2.30583,0.6273,0.94966
344.234,107.759,-2.36322,0.61958,0.94921
344.934,107.987,-2.41759,0.61314,0.94877
345.634,108.214,-2.47459,0.60111,0.94832
346.334,108.442,-2.52946,0.59083,0.94787
347.034,108.67,-2.58163,0.57924,0.94743
347.734,108.898,-2.63382,0.56643,0.94698
348.434,109.127,-2.6867,0.55055,0.94653
349.134,109.355,-2.73666,0.53404,0.94608
349.834,109.585,-2.78217,0.51709,0.94562
350.534,109.813,-2.82668,0.49813,0.94517
351.234,110.041,-2.8714,0.47797,0.94472
351.934,110.27,-2.91177,0.45701,0.94426
352.634,110.498,-2.9526,0.43735,0.94381
353.334,110.725,-2.98821,0.4131,0.94335
354.034,110.951,-3.02197,0.38983,0.94289
354.734,111.178,-3.05408,0.36415,0.94244
355.434,111.404,-3.08321,0.33953,0.94198
356.134,111.631,-3.10813,0.31315,0.94152
356.834,111.859,-3.13125,0.28778,0.94106
357.534,112.087,-3.15193,0.25992,0.94059
358.234,112.314,-3.16958,0.23662,0.94013
358.934,112.542,-3.18213,0.21613,0.93967
359.634,112.769,-3.19765,0.19527,0.9392
360.334,112.9973,-3.20803,0.17693,0.93874
361.034,113.2263,-3.21825,0.16082,0.93827
361.734,113.455,-3.22482,0.14587,0.93781
362.434,113.6846,-3.23199,0.13661,0.93734
363.134,113.914,-3.23589,0.1263,0.93687
363.834,114.1429,-3.24133,0.11934,0.9364
364.534,114.372,-3.24349,0.11557,0.93593
365.234,114.601,-3.24786,0.11065,0.93546
365.934,114.829,-3.2505,0.11012,0.93498
366.634,115.0575,-3.25177,0.10888,0.93451
367.334,115.2858,-3.25178,0.10907,0.93404
368.034,115.514,-3.25441,0.11236,0.93356
368.734,115.743,-3.25816,0.11302,0.93309
369.434,115.972,-3.25633,0.10909,0.93261
370.134,116.2022,-3.26001,0.10955,0.93213
370.834,116.432,-3.26066,0.10888,0.93165
371.534,116.6623,-3.26132,0.1073,0.93117
372.234,116.8921,-3.26263,0.10756,0.93069
372.934,117.122,-3.26396,0.10887,0.93021
373.634,117.352,-3.26494,0.10792,0.92973
374.334,117.582,-3.26758,0.10683,0.92925
375.034,117.812,-3.26758,0.10531,0.92876
375.734,118.041,-3.26828,0.10588,0.92828
376.434,118.271,-3.26892,0.10573,0.92779
377.134,118.501,-3.27156,0.1046,0.92731
377.834,118.729,-3.27153,0.10483,0.92682
378.534,118.958,-3.27417,0.1029,0.92633
379.234,119.188,-3.27285,0.10246,0.92584
379.934,119.418,-3.27417,0.10299,0.92535
380.634,119.648,-3.27549,0.10202,0.92486
381.334,119.878,-3.27515,0.10207,0.92437
382.034,120.108,-3.27636,0.10109,0.92388
382.734,120.337,-3.27785,0.09974947,0.92338
383.434,120.565,-3.28011,0.10057,0.92289
384.134,120.795,-3.28011,0.09964793,0.92239
384.834,121.025,-3.28008,0.10019,0.9219
385.534,121.255,-3.28209,0.1003,0.9214
386.234,121.485,-3.28151,0.09936841,0.9209
386.934,121.715,-3.28257,0.10246,0.92041
387.634,121.944,-3.28409,0.09968357,0.91991
388.334,122.174,-3.28538,0.10002,0.91941
389.034,122.404,-3.2857,0.10016,0.9189
389.734,122.633,-3.288,0.09890791,0.9184
390.434,122.863,-3.288,0.09926499,0.9179
391.134,123.093,-3.28803,0.09837138,0.9174
391.834,123.323,-3.2893,0.10018,0.91689
392.534,123.554,-3.29132,0.09791978,0.91639
393.234,123.7854,-3.2913,0.09818234,0.91588
393.934,124.016,-3.29328,0.09719903,0.91537
394.634,124.247,-3.29218,0.09703125,0.91486
395.334,124.476,-3.29329,0.09584536,0.91435
396.034,124.705,-3.29589,0.09664124,0.91384
396.734,124.934,-3.29591,0.09681595,0.91333
397.434,125.164,-3.29584,0.09688366,0.91282
398.134,125.393,-3.29857,0.09655668,0.91231
398.834,125.624,-3.29783,0.0959837,0.9118
399.534,125.855,-3.29889,0.09550009,0.91128
400.234,126.0855,-3.29985,0.09472846,0.91077
400.934,126.316,-3.30151,0.09405526,0.91025
401.634,126.546,-3.30217,0.09422847,0.90974
402.334,126.777,-3.3012,0.09474419,0.90922
403.034,127.009,-3.30289,0.09476064,0.9087
403.734,127.239,-3.30417,0.09309529,0.90818
404.434,127.469,-3.30442,0.09451499,0.90766
405.134,127.6992,-3.30711,0.0941374,0.90714
405.834,127.93,-3.3058,0.09215248,0.90662
406.534,128.16,-3.30744,0.09444746,0.9061
407.234,128.391,-3.30861,0.09458296,0.90557
407.934,128.622,-3.31021,0.09719564,0.90505
408.634,128.851,-3.31138,0.09950959,0.90452
409.334,129.08,-3.3104,0.09866124,0.904
410.034,129.3103,-3.31043,0.09974335,0.90347
410.734,129.541,-3.31241,0.09855255,0.90294
411.434,129.772,-3.31097,0.09820112,0.90241
412.134,130.002,-3.31405,0.09899144,0.90188
412.834,130.233,-3.31469,0.0999503,0.90135
413.534,130.463,-3.31499,0.09776996,0.90082
414.234,130.694,-3.31501,0.09895704,0.90029
414.934,130.925,-3.3159,0.09877794,0.89976
415.634,131.155,-3.31734,0.10062,0.89923
416.334,131.3854,-3.31798,0.10037,0.89869
417.034,131.616,-3.31962,0.10071,0.89816
417.734,131.845,-3.32012,0.09974182,0.89762
418.434,132.075,-3.3216,0.10012,0.89708
419.134,132.304,-3.32178,0.09881413,0.89655
419.834,132.534,-3.32215,0.09990526,0.89601
420.534,132.764,-3.32478,0.09790737,0.89547
421.234,132.994,-3.32413,0.10005,0.89493
421.934,133.225,-3.32544,0.1003,0.89439
422.634,133.454,-3.32544,0.1009,0.89385
423.334,133.684,-3.32743,0.09984382,0.8933
424.034,133.914,-3.32774,0.10087,0.89276
424.734,134.145,-3.32803,0.10002,0.89222
425.434,134.375,-3.32974,0.10066,0.89167
426.134,134.606,-3.32973,0.1004,0.89113
426.834,134.838,-3.33104,0.10112,0.89058
427.534,135.07,-3.33236,0.10188,0.89003
428.234,135.301,-3.33236,0.10277,0.88948
428.934,135.533,-3.33466,0.10115,0.88893
429.634,135.763,-3.33368,0.10112,0.88838
430.334,135.994,-3.33628,0.10195,0.88783
431.034,136.225,-3.33631,0.09948016,0.88728
431.734,136.456,-3.33648,0.09866437,0.88673
432.434,136.687,-3.33762,0.09918285,0.88618
433.134,136.918,-3.33864,0.09987236,0.88562
433.834,137.149,-3.33895,0.09987548,0.88507
434.534,137.379,-3.33925,0.0991689,0.88451
435.234,137.6097,-3.33997,0.10049,0.88396
435.934,137.84,-3.34124,0.1003,0.8834
436.634,138.071,-3.34137,0.09900948,0.88284
437.334,138.302,-3.34226,0.09793637,0.88228
438.034,138.5322,-3.34257,0.09991207,0.88172
438.734,138.763,-3.34454,0.09974275,0.88116
439.434,138.993,-3.3452,0.10008,0.8806
440.134,139.224,-3.34649,0.09915918,0.88004
440.834,139.453,-3.34652,0.0992977,0.87948
441.534,139.684,-3.34719,0.10123,0.87891
442.234,139.914,-3.34718,0.10473,0.87835
442.934,140.145,-3.34838,0.1038,0.87778
443.634,140.377,-3.34981,0.10703,0.87722
444.334,140.608,-3.34983,0.10828,0.87665
445.034,140.84,-3.3504,0.10658,0.87608
445.734,141.071,-3.35179,0.10618,0.87551
446.434,141.303,-3.35114,0.10605,0.87494
447.134,141.535,-3.35279,0.10469,0.87437
447.834,141.767,-3.35278,0.10461,0.8738
448.534,141.999,-3.35377,0.10607,0.87323
449.234,142.23,-3.35411,0.10485,0.87266
449.934,142.461,-3.35596,0.10656,0.87209
450.634,142.692,-3.35507,0.10636,0.87151
451.334,142.923,-3.3564,0.10463,0.87094
452.034,143.153,-3.35635,0.1051,0.87036
452.734,143.384,-3.35673,0.10466,0.86979
453.434,143.615,-3.35846,0.10354,0.86921
454.134,143.846,-3.35871,0.10307,0.86863
454.834,144.078,-3.35937,0.10237,0.86805
455.534,144.31,-3.36002,0.10128,0.86747
456.234,144.541,-3.36134,0.10194,0.86689
456.934,144.773,-3.36002,0.104,0.86631
457.634,145.005,-3.36072,0.10173,0.86573
458.334,145.2366,-3.36274,0.10346,0.86515
459.034,145.467,-3.36199,0.1055,0.86457
459.734,145.698,-3.36391,0.10595,0.86398
460.434,145.9294,-3.36429,0.1057,0.8634
461.134,146.16,-3.36397,0.10485,0.86281
461.834,146.39,-3.36496,0.10467,0.86223
462.534,146.621,-3.36536,0.10584,0.86164
463.234,146.852,-3.36496,0.10298,0.86105
463.934,147.083,-3.36628,0.10319,0.86046
464.634,147.315,-3.36562,0.10292,0.85987
465.334,147.548,-3.36817,0.10347,0.85928
466.034,147.782,-3.36767,0.10248,0.85869
466.734,148.015,-3.36826,0.10321,0.8581
467.434,148.247,-3.36826,0.10402,0.85751
468.134,148.479,-3.36892,0.10204,0.85692
468.834,148.711,-3.37129,0.10166,0.85632
469.534,148.943,-3.37023,0.10207,0.85573
470.234,149.174,-3.37025,0.10077,0.85513
470.934,149.405,-3.36988,0.10227,0.85454
471.634,149.637,-3.37123,0.10358,0.85394
472.334,149.867,-3.37122,0.10187,0.85334
473.034,150.098,-3.37188,0.10374,0.85274
473.734,150.328,-3.37254,0.10145,0.85214
474.434,150.559,-3.37254,0.10131,0.85154
475.134,150.791,-3.37385,0.10235,0.85094
475.834,151.024,-3.37257,0.10022,0.85034
476.534,151.2556,-3.37451,0.10179,0.84974
477.234,151.4881,-3.37415,0.09994289,0.84914
477.934,151.7208,-3.37484,0.10045,0.84853
478.634,151.955,-3.37616,0.10075,0.84793
479.334,152.188,-3.376,0.09878694,0.84732
480.034,152.42,-3.37547,0.09840578,0.84672
480.734,152.652,-3.37814,0.1005,0.84611
481.434,152.885,-3.37808,0.09950399,0.84551
482.134,153.117,-3.37847,0.10063,0.8449
482.834,153.35,-3.37847,0.09807226,0.84429
483.534,153.582,-3.3795,0.09601456,0.84368
484.234,153.815,-3.37978,0.09825182,0.84307
484.934,154.046,-3.37929,0.09780337,0.84246
485.634,154.277,-3.37978,0.0957008,0.84185
486.334,154.508,-3.38147,0.09591227,0.84124
487.034,154.7393,-3.38024,0.09640581,0.84062
487.734,154.972,-3.38176,0.09631666,0.84001
488.434,155.204,-3.38176,0.09639029,0.83939
489.134,155.437,-3.38213,0.09444158,0.83878
489.834,155.67,-3.38252,0.09438694,0.83816
490.534,155.903,-3.38308,0.09271594,0.83755
491.234,156.134,-3.38176,0.09407375,0.83693
491.934,156.366,-3.38242,0.09159217,0.83631
492.634,156.596,-3.38307,0.09139518,0.83569
493.334,156.828,-3.38242,0.09101782,0.83507
494.034,157.06,-3.38327,0.09275586,0.83445
494.734,157.293,-3.38273,0.09152137,0.83383
495.434,157.525,-3.38405,0.0896791,0.83321
496.134,157.758,-3.38406,0.08965308,0.83259
496.834,157.991,-3.38392,0.0904424,0.83197
497.534,158.225,-3.38598,0.08980852,0.83134
498.234,158.458,-3.38637,0.0938258,0.83072
498.934,158.691,-3.38636,0.09425719,0.83009
499.634,158.924,-3.38582,0.09322437,0.82947
500.334,159.157,-3.38733,0.09139733,0.82884
501.034,159.389,-3.38736,0.09234357,0.82822
501.734,159.622,-3.38741,0.09208556,0.82759
502.434,159.854,-3.38735,0.09228141,0.82696
503.134,160.086,-3.38734,0.09269384,0.82633
503.834,160.318,-3.38873,0.09309902,0.8257
504.534,160.551,-3.38933,0.09111471,0.82507
505.234,160.783,-3.38933,0.09117986,0.82444
505.934,161.015,-3.38834,0.09142466,0.82381
506.634,161.247,-3.38735,0.09124483,0.82317
507.334,161.479,-3.38933,0.09097059,0.82254
508.034,161.712,-3.38794,0.09246702,0.82191
508.734,161.9443,-3.39061,0.09158244,0.82127
509.434,162.176,-3.39073,0.0899857,0.82064
510.134,162.409,-3.38907,0.09181462,0.82
510.834,162.642,-3.38999,0.09050382,0.81937
511.534,162.876,-3.39197,0.09001832,0.81873
512.234,163.11,-3.39071,0.09097108,0.81809
512.934,163.3434,-3.39197,0.09018777,0.81745
513.634,163.5771,-3.39165,0.08800431,0.81681
514.334,163.81,-3.39159,0.0888073,0.81617
515.034,164.042,-3.39193,0.09193304,0.81553
515.734,164.275,-3.39098,0.09026295,0.81489
516.434,164.507,-3.39093,0.09117652,0.81425
517.134,164.74,-3.39197,0.08778359,0.81361
517.834,164.973,-3.39458,0.08904404,0.81296
518.534,165.206,-3.39365,0.08904967,0.81232
519.234,165.4391,-3.39438,0.08899521,0.81168
519.934,165.672,-3.39298,0.08907351,0.81103
520.634,165.904,-3.39428,0.08869785,0.81039
521.334,166.138,-3.39428,0.08934314,0.80974
522.034,166.3703,-3.39428,0.09031538,0.80909
522.734,166.603,-3.39296,0.08876641,0.80844
523.434,166.836,-3.39286,0.08608548,0.8078
524.134,167.0697,-3.39494,0.08811725,0.80715
524.834,167.303,-3.39494,0.08683007,0.8065
525.534,167.536,-3.39492,0.08637429,0.80585
526.234,167.769,-3.3949,0.08759685,0.8052
526.934,168.001,-3.39592,0.08671565,0.80454
527.634,168.2329,-3.39459,0.08768045,0.80389
528.334,168.465,-3.39592,0.08761135,0.80324
529.034,168.696,-3.39658,0.08581199,0.80259
529.734,168.928,-3.39658,0.08741946,0.80193
530.434,169.16,-3.39625,0.08588297,0.80128
531.134,169.393,-3.39629,0.08493792,0.80062
531.834,169.6263,-3.39625,0.08726458,0.79997
532.534,169.861,-3.39757,0.085158,0.79931
533.234,170.095,-3.39862,0.08645738,0.79865
533.934,170.33,-3.39856,0.08729605,0.79799
534.634,170.564,-3.39856,0.08668884,0.79734
535.334,170.799,-3.39883,0.08343363,0.79668
536.034,171.033,-3.39955,0.08511014,0.79602
536.734,171.266,-3.39856,0.08528116,0.79536
537.434,171.5,-3.39988,0.08356164,0.7947
538.134,171.733,-3.39988,0.08600278,0.79403
538.834,171.966,-3.39856,0.08415478,0.79337
539.534,172.2,-3.39724,0.08377056,0.79271
540.234,172.434,-3.40118,0.08502211,0.79205
540.934,172.667,-3.39987,0.08510203,0.79138
541.634,172.899,-3.40119,0.08484905,0.79072
542.334,173.132,-3.39922,0.08365522,0.79005
543.034,173.365,-3.3979,0.0845561,0.78939
543.734,173.5971,-3.39913,0.08340949,0.78872
544.434,173.829,-3.40152,0.08199438,0.78805
545.134,174.062,-3.39915,0.08359284,0.78739
545.834,174.296,-3.39987,0.08437343,0.78672
546.534,174.5316,-3.40086,0.08398405,0.78605
547.234,174.7675,-3.40085,0.08288591,0.78538
547.934,175.002,-3.40086,0.08477606,0.78471
548.634,175.2368,-3.40074,0.08531187,0.78404
549.334,175.4705,-3.40053,0.08348901,0.78337
550.034,175.704,-3.40053,0.08298938,0.7827
550.734,175.938,-3.40053,0.08241146,0.78203
551.434,176.171,-3.40119,0.08466615,0.78135
552.134,176.405,-3.40218,0.08359751,0.78068
552.834,176.637,-3.4009,0.08365943,0.78001
553.534,176.87,-3.40247,0.08134226,0.77933
554.234,177.1032,-3.40201,0.08554903,0.77866
554.934,177.338,-3.4014,0.08400806,0.77798
555.634,177.572,-3.40154,0.08257922,0.7773
556.334,177.806,-3.40315,0.08271353,0.77663
557.034,178.04,-3.40391,0.08454562,0.77595
557.734,178.275,-3.40317,0.08222821,0.77527
558.434,178.509,-3.40284,0.08175026,0.77459
559.134,178.743,-3.40323,0.07979651,0.77391
559.834,178.976,-3.40418,0.08113238,0.77323
560.534,179.209,-3.40413,0.07974001,0.77255
561.234,179.443,-3.40451,0.08184757,0.77187
561.934,179.675,-3.40416,0.07930242,0.77119
562.634,179.908,-3.40515,0.0797733,0.77051
563.334,180.141,-3.40416,0.08139872,0.76983
564.034,180.375,-3.40415,0.08024337,0.76915
564.734,180.611,-3.40416,0.07977944,0.76846
565.434,180.846,-3.40451,0.07842342,0.76778
566.134,181.081,-3.40317,0.08027117,0.76709
566.834,181.316,-3.40482,0.08084166,0.76641
567.534,181.551,-3.40548,0.07990567,0.76572
568.234,181.784,-3.40548,0.07757122,0.76504
568.934,182.017,-3.40582,0.0785974,0.76435
569.634,182.25,-3.40516,0.07891153,0.76366
570.334,182.4829,-3.40613,0.07873795,0.76298
571.034,182.717,-3.40548,0.0802587,0.76229
571.734,182.9515,-3.40548,0.07728845,0.7616
572.434,183.185,-3.40548,0.07961476,0.76091
573.134,183.419,-3.40679,0.08202596,0.76022
573.834,183.6521,-3.40678,0.08147223,0.75953
574.534,183.885,-3.4068,0.0808536,0.75884
575.234,184.12,-3.40661,0.08085201,0.75815
575.934,184.354,-3.40547,0.08053436,0.75745
576.634,184.59,-3.40712,0.0804849,0.75676
577.334,184.825,-3.40646,0.07999126,0.75607
578.034,185.061,-3.40778,0.08125651,0.75538
578.734,185.295,-3.40778,0.08246329,0.75468
579.434,185.529,-3.40778,0.08106803,0.75399
580.134,185.762,-3.40745,0.08312367,0.75329
580.834,185.995,-3.40806,0.08361611,0.7526
581.534,186.229,-3.40813,0.08484929,0.7519
582.234,186.461,-3.40877,0.08363403,0.7512
582.934,186.6934,-3.4101,0.08331606,0.75051
583.634,186.926,-3.40909,0.08266807,0.74981
584.334,187.16,-3.41042,0.08487101,0.74911
585.034,187.393,-3.41042,0.08413959,0.74841
585.734,187.627,-3.41042,0.08370063,0.74771
586.434,187.86,-3.40943,0.08681733,0.74701
587.134,188.093,-3.41075,0.08520381,0.74631
587.834,188.327,-3.41205,0.08716167,0.74561
588.534,188.561,-3.41,0.0842614,0.74491
589.234,188.796,-3.4114,0.08692302,0.74421
589.934,189.031,-3.41041,0.08624462,0.74351
590.634,189.265,-3.41214,0.08411434,0.74281
591.334,189.5,-3.4114,0.0819369,0.7421
592.034,189.734,-3.4114,0.08346617,0.7414
592.734,189.968,-3.41202,0.08573714,0.7407
593.434,190.202,-3.41173,0.08377801,0.73999
594.134,190.436,-3.41041,0.08369449,0.73929
594.834,190.67,-3.40975,0.08290979,0.73858
595.534,190.905,-3.4107,0.08231823,0.73788
596.234,191.139,-3.4114,0.08365166,0.73717
596.934,191.372,-3.41138,0.08481036,0.73646
597.634,191.606,-3.4117,0.08353167,0.73576
598.334,191.84,-3.4114,0.08293389,0.73505
599.034,192.074,-3.41067,0.08370219,0.73434
599.734,192.308,-3.41108,0.08556892,0.73363
600.434,192.542,-3.41239,0.08935827,0.73292
601.134,192.776,-3.41239,0.0870979,0.73222
601.834,193.01,-3.41239,0.08618152,0.73151
602.534,193.245,-3.41131,0.08714541,0.7308
603.234,193.479,-3.41008,0.08675815,0.73008
603.934,193.713,-3.41041,0.08901122,0.72937
604.634,193.947,-3.41241,0.0900617,0.72866
605.334,194.182,-3.41272,0.08954467,0.72795
606.034,194.415,-3.41239,0.08935814,0.72724
606.734,194.65,-3.41371,0.08852013,0.72652
607.434,194.886,-3.41285,0.09206916,0.72581
608.134,195.123,-3.41171,0.09265487,0.7251
608.834,195.358,-3.41416,0.09319491,0.72438
609.534,195.594,-3.41418,0.09214759,0.72367
610.234,195.829,-3.41143,0.09032784,0.72295
610.934,196.065,-3.41271,0.09214504,0.72224
611.634,196.3,-3.41271,0.09462444,0.72152
612.334,196.534,-3.41271,0.09418822,0.72081
613.034,196.768,-3.41403,0.09652781,0.72009
613.734,197.002,-3.41305,0.0934294,0.71937
614.434,197.236,-3.41472,0.09727475,0.71865
615.134,197.469,-3.41403,0.09564063,0.71794
615.834,197.703,-3.4132,0.09542416,0.71722
616.534,197.937,-3.41403,0.09609372,0.7165
617.234,198.171,-3.41403,0.09398474,0.71578
617.934,198.405,-3.41338,0.09277362,0.71506
618.634,198.641,-3.41404,0.09518032,0.71434
619.334,198.876,-3.41503,0.09719786,0.71362
620.034,199.111,-3.41473,0.09344619,0.7129
620.734,199.345,-3.41536,0.09480704,0.71218
621.434,199.58,-3.41498,0.09365284,0.71146
622.134,199.8156,-3.41507,0.09663045,0.71073
622.834,200.051,-3.41504,0.0925029,0.71001
623.534,200.287,-3.41403,0.09259807,0.70929
624.234,200.522,-3.4147,0.09457785,0.70857
624.934,200.758,-3.41404,0.09446418,0.70784
625.634,200.993,-3.41537,0.09559988,0.70712
626.334,201.228,-3.41541,0.09416684,0.70639
627.034,201.463,-3.4147,0.09289024,0.70567
627.734,201.697,-3.41404,0.09027947,0.70494
628.434,201.932,-3.41503,0.09407355,0.70422
629.134,202.168,-3.4137,0.09451663,0.70349
629.834,202.403,-3.41404,0.09204064,0.70277
630.534,202.639,-3.41599,0.09400655,0.70204
631.234,202.874,-3.41404,0.09428032,0.70131
631.934,203.109,-3.4143,0.09349401,0.70058
632.634,203.344,-3.41404,0.09274375,0.69986
633.334,203.578,-3.41469,0.09314733,0.69913
634.034,203.813,-3.41359,0.09028261,0.6984
634.734,204.048,-3.41437,0.08833501,0.69767
635.434,204.284,-3.41437,0.08564469,0.69694
636.134,204.518,-3.41667,0.08768917,0.69621
636.834,204.7535,-3.41668,0.0893876,0.69548
637.534,204.987,-3.41601,0.08533212,0.69475
638.234,205.2205,-3.417,0.08627143,0.69402
638.934,205.453,-3.41634,0.08963286,0.69329
639.634,205.6873,-3.41632,0.0903384,0.69256
640.334,205.9236,-3.41798,0.0906659,0.69183
641.034,206.161,-3.41799,0.08788138,0.6911
641.734,206.398,-3.417,0.08533823,0.69036
642.434,206.634,-3.41633,0.08491108,0.68963
643.134,206.8708,-3.41634,0.08657317,0.6889
643.834,207.107,-3.41623,0.08624318,0.68817
644.534,207.342,-3.41765,0.08610602,0.68743
645.234,207.576,-3.41892,0.08550484,0.6867
645.934,207.81,-3.41898,0.08692793,0.68596
646.634,208.043,-3.42031,0.08810993,0.68523
647.334,208.277,-3.41864,0.08835699,0.68449
648.034,208.512,-3.41865,0.0880269,0.68376
648.734,208.746,-3.41964,0.08681314,0.68302
649.434,208.981,-3.41765,0.08401068,0.68229
650.134,209.217,-3.41898,0.08507518,0.68155
650.834,209.453,-3.41898,0.08277593,0.68082
651.534,209.688,-3.41898,0.08458637,0.68008
652.234,209.922,-3.41997,0.08484645,0.67934
652.934,210.157,-3.41982,0.08083936,0.6786
653.634,210.392,-3.42128,0.08162985,0.67787
654.334,210.628,-3.42128,0.08197387,0.67713
655.034,210.864,-3.42011,0.08157196,0.67639
655.734,211.1,-3.42094,0.08143805,0.67565
656.434,211.335,-3.4226,0.08274527,0.67491
657.134,211.57,-3.4213,0.08600269,0.67417
657.834,211.805,-3.4202,0.08727346,0.67343
658.534,212.04,-3.42241,0.08446656,0.67269
659.234,212.275,-3.42162,0.08317905,0.67195
659.934,212.5096,-3.4226,0.08296519,0.67121
660.634,212.745,-3.4226,0.08387709,0.67047
661.334,212.98,-3.42161,0.08432263,0.66973
662.034,213.216,-3.42293,0.08583957,0.66899
662.734,213.452,-3.42294,0.08660806,0.66825
663.434,213.687,-3.42424,0.08481794,0.66751
664.134,213.923,-3.42286,0.08869309,0.66677
664.834,214.159,-3.42425,0.08713615,0.66602
665.534,214.3947,-3.42283,0.08807811,0.66528
666.234,214.63,-3.42392,0.08729401,0.66454
666.934,214.865,-3.42557,0.08980088,0.6638
667.634,215.099,-3.42391,0.09257837,0.66305
668.334,215.333,-3.42392,0.08986281,0.66231
669.034,215.568,-3.42399,0.08850016,0.66156
669.734,215.804,-3.42392,0.08775862,0.66082
670.434,216.039,-3.42658,0.08988426,0.66008
671.134,216.2729,-3.42524,0.08990864,0.65933
671.834,216.507,-3.42429,0.0884464,0.65859
672.534,216.742,-3.42524,0.08596712,0.65784
673.234,216.979,-3.42523,0.08716115,0.6571
673.934,217.217,-3.42524,0.08554513,0.65635
674.634,217.454,-3.42326,0.08559786,0.6556
675.334,217.691,-3.42557,0.0860413,0.65486
676.034,217.927,-3.42558,0.08537235,0.65411
676.734,218.165,-3.42523,0.08738097,0.65337
677.434,218.402,-3.42392,0.08550249,0.65262
678.134,218.639,-3.42492,0.08743659,0.65187
678.834,218.875,-3.42491,0.08980776,0.65112
679.534,219.111,-3.42524,0.08853445,0.65038
680.234,219.346,-3.42557,0.08694807,0.64963
680.934,219.581,-3.42655,0.08463365,0.64888
681.634,219.8153,-3.42524,0.08578132,0.64813
682.334,220.05,-3.42688,0.09163002,0.64738
683.034,220.285,-3.42524,0.08778862,0.64664
683.734,220.521,-3.42655,0.09050278,0.64589
684.434,220.7563,-3.42558,0.09026346,0.64514
685.134,220.9917,-3.42814,0.08803241,0.64439
685.834,221.227,-3.42655,0.08895731,0.64364
686.534,221.462,-3.42688,0.08972081,0.64289
687.234,221.696,-3.42648,0.08996307,0.64214
687.934,221.932,-3.42754,0.09189264,0.64139
688.634,222.167,-3.42754,0.09085089,0.64064
689.334,222.404,-3.4282,0.0914684,0.63989
690.034,222.639,-3.42722,0.09016128,0.63914
690.734,222.8759,-3.42621,0.09109315,0.63839
691.434,223.112,-3.42754,0.09230619,0.63764
692.134,223.3479,-3.42891,0.09689276,0.63689
692.834,223.5836,-3.42852,0.09591799,0.63613
693.534,223.8195,-3.42787,0.09233398,0.63538
694.234,224.056,-3.42787,0.09353111,0.63463
694.934,224.294,-3.42787,0.09414938,0.63388
695.634,224.5304,-3.42868,0.09124092,0.63313
696.334,224.767,-3.42853,0.09294492,0.63237
697.034,225.004,-3.42853,0.0903527,0.63162
697.734,225.24,-3.4288,0.09258492,0.63087
698.434,225.476,-3.42928,0.09322235,0.63012
699.134,225.712,-3.42853,0.09345869,0.62936
699.834,225.9476,-3.42957,0.09056813,0.62861
700.534,226.183,-3.42886,0.09448252,0.62786
701.234,226.419,-3.42913,0.09011505,0.6271
701.934,226.655,-3.42936,0.09068022,0.62635
702.634,226.891,-3.42889,0.09059276,0.62559
703.334,227.126,-3.42853,0.09014361,0.62484
704.034,227.361,-3.42919,0.08933822,0.62409
704.734,227.596,-3.43018,0.09104629,0.62333
705.434,227.832,-3.43022,0.09487891,0.62258
706.134,228.068,-3.43083,0.09111654,0.62182
706.834,228.305,-3.43081,0.09522623,0.62107
707.534,228.542,-3.42952,0.09386542,0.62031
708.234,228.777,-3.42924,0.09253197,0.61956
708.934,229.012,-3.42997,0.09490967,0.6188
709.634,229.247,-3.42952,0.09525862,0.61805
710.334,229.483,-3.42952,0.09881484,0.61729
711.034,229.719,-3.43084,0.09965718,0.61654
711.734,229.956,-3.42951,0.09641617,0.61578
712.434,230.192,-3.42984,0.09699017,0.61502
713.134,230.428,-3.42985,0.09557308,0.61427
713.834,230.663,-3.43018,0.0951641,0.61351
714.534,230.898,-3.42886,0.09892337,0.61276
715.234,231.134,-3.43116,0.09906299,0.612
715.934,231.369,-3.42985,0.09772235,0.61124
716.634,231.605,-3.43131,0.10226,0.61049
717.334,231.841,-3.42984,0.09851967,0.60973
718.034,232.078,-3.43121,0.10328,0.60897
718.734,232.316,-3.4308,0.09959064,0.60822
719.434,232.555,-3.43182,0.09890961,0.60746
720.134,232.794,-3.43116,0.09864145,0.6067
720.834,233.031,-3.43143,0.09646731,0.60595
721.534,233.268,-3.4305,0.09433418,0.60519
722.234,233.503,-3.42919,0.09274182,0.60443
722.934,233.738,-3.42919,0.0942578,0.60367
723.634,233.973,-3.42984,0.0913264,0.60291
724.334,234.209,-3.4325,0.08837486,0.60216
725.034,234.445,-3.4305,0.08364513,0.6014
725.734,234.682,-3.43242,0.08567503,0.60064
726.434,234.9187,-3.42874,0.08172756,0.59988
727.134,235.155,-3.43225,0.08709928,0.59913
727.834,235.391,-3.42846,0.08781244,0.59837
728.534,235.627,-3.43113,0.08977385,0.59761
729.234,235.8638,-3.43095,0.08963264,0.59685
729.934,236.102,-3.43137,0.09088717,0.59609
730.634,236.339,-3.43272,0.09071643,0.59533
731.334,236.577,-3.43335,0.09328724,0.59457
732.034,236.814,-3.43204,0.09000523,0.59382
732.734,237.052,-3.43072,0.08837915,0.59306
733.434,237.288,-3.43268,0.09121674,0.5923
734.134,237.524,-3.43266,0.08969231,0.59154
734.834,237.761,-3.33919,0.09311699,0.59078
735.534,237.998,-3.34114,0.08945682,0.59002
736.234,238.234,-3.33979,0.08570826,0.58926
736.934,238.469,-3.34114,0.08855725,0.5885
737.634,238.703,-3.34016,0.08560661,0.58774
738.334,238.938,-3.34138,0.08286902,0.58699
739.034,239.174,-3.34103,0.08168215,0.58623
739.734,239.41,-3.34116,0.08498383,0.58547
740.434,239.645,-3.34117,0.08430387,0.58471
741.134,239.882,-3.34212,0.08143309,0.58395
741.834,240.119,-3.34146,0.08052393,0.58319
742.534,240.356,-3.34141,0.08047648,0.58243
743.234,240.593,-3.34344,0.08467353,0.58167
743.934,240.83,-3.34338,0.07989845,0.58091
744.634,241.068,-3.34278,0.08179598,0.58015
745.334,241.306,-3.34408,0.077536,0.57939
746.034,241.543,-3.34344,0.0744316,0.57863
746.734,241.78,-3.34551,0.07413534,0.57787
747.434,242.017,-3.34443,0.07338491,0.57711
748.134,242.254,-3.34443,0.07568244,0.57635
748.834,242.491,-3.34443,0.07658769,0.57559
749.534,242.726,-3.34444,0.07584319,0.57483
750.234,242.962,-3.34576,0.07778084,0.57407
750.934,243.197,-3.34506,0.07519583,0.57331
751.334,243.332,-3.34509,0.07444823,0.57288