File: 01_Data/Countertop_Plastic_Laminate_Particle_Board/MCC/Countertop_Plastic_Laminate_Particle_Board_MCC_30K_min_211215_R2.txt
Sample ID:	C:\MCC\MCC Cal\Test\Countertop_Plastic_LaminateB_MCC_30K_min_211215_R2.txt
Sample Weight (mg):	4.71
Heating Rate (C/s):	0.5
Combustor Temp (C):	900
N2 Flow Rate (cc/min):	80
O2 Flow Rate (cc/min):	20
Calibration File:	C:\MCC\MCC Cal\Coeff1 JN10440_30_210304.txt.txt
T Correction Coefficients:	0	1.024463	0
Time Shift (s):	14
*
Time (s)	Temperature (C)	N2 flow rate (cc/min)	O2 flow rate (cc/min)	Flow Rate (cc/min)	Oxygen (%)	HRR (W/g)	Heating rate (C/s)
0.000	109.888	80.002	19.995	102.991	20.382	0.039	0.022
2.000	109.879	80.002	19.997	102.999	20.384	-0.093	0.010
4.000	109.899	80.001	19.998	103.005	20.385	-0.154	0.020
6.000	109.867	80.002	19.996	102.996	20.381	0.119	0.004
8.001	109.853	80.002	19.996	102.994	20.380	0.221	-0.002
10.001	109.895	80.005	19.995	103.011	20.380	0.182	0.029
12.001	109.883	80.004	19.996	103.017	20.380	0.212	-0.003
14.000	109.887	80.004	19.995	103.018	20.378	0.344	-0.012
16.001	109.990	80.004	19.994	103.038	20.376	0.501	0.044
18.000	109.983	80.006	19.995	103.058	20.372	0.767	0.010
20.000	109.994	80.005	19.995	103.088	20.369	0.933	0.024
22.000	110.126	80.003	19.995	103.093	20.371	0.834	0.035
24.000	110.206	80.004	19.995	103.118	20.365	1.201	0.008
26.001	110.316	80.004	19.995	103.131	20.361	1.501	0.076
28.000	110.437	80.004	19.996	103.149	20.357	1.779	0.079
30.000	110.647	80.004	19.994	103.165	20.356	1.850	0.085
32.000	110.820	80.004	19.995	103.172	20.355	1.886	0.097
34.001	111.106	80.006	19.994	103.178	20.352	2.137	0.141
36.001	111.380	80.003	19.995	103.210	20.344	2.640	0.129
38.001	111.656	80.004	19.995	103.213	20.343	2.735	0.147
40.000	111.961	80.004	19.996	103.212	20.340	2.903	0.183
42.001	112.321	80.005	19.995	103.227	20.340	2.935	0.187
44.000	112.694	80.001	19.995	103.238	20.337	3.159	0.181
46.000	113.107	80.003	19.995	103.244	20.339	2.983	0.212
48.000	113.603	80.004	19.993	103.251	20.340	2.950	0.244
50.000	114.075	80.004	19.995	103.253	20.336	3.196	0.266
52.000	114.525	80.002	19.994	103.256	20.338	3.069	0.214
54.001	115.059	80.003	19.995	103.256	20.336	3.209	0.261
56.001	115.630	80.002	19.995	103.256	20.335	3.273	0.282
58.000	116.138	80.003	19.996	103.256	20.339	2.995	0.265
60.000	116.747	80.002	19.996	103.256	20.334	3.362	0.293
62.001	117.376	80.002	19.994	103.260	20.331	3.540	0.284
64.001	118.051	80.002	19.996	103.269	20.333	3.426	0.337
66.000	118.746	80.004	19.995	103.274	20.333	3.445	0.339
68.001	119.382	80.002	19.995	103.278	20.329	3.668	0.362
70.000	120.091	80.002	19.995	103.272	20.329	3.672	0.383
72.001	120.815	80.004	19.995	103.283	20.330	3.629	0.385
74.000	121.551	80.003	19.996	103.288	20.330	3.595	0.385
76.001	122.246	80.003	19.996	103.284	20.329	3.663	0.373
78.001	123.035	80.003	19.996	103.287	20.331	3.551	0.353
80.000	123.854	80.002	19.997	103.287	20.330	3.586	0.386
82.000	124.642	80.003	19.995	103.286	20.329	3.707	0.409
84.000	125.468	80.001	19.995	103.272	20.324	4.017	0.428
86.000	126.295	80.004	19.996	103.280	20.328	3.750	0.426
88.001	127.120	80.004	19.997	103.286	20.328	3.737	0.422
90.001	128.010	80.003	19.996	103.285	20.325	3.991	0.422
92.001	128.841	80.004	19.996	103.279	20.326	3.909	0.463
94.000	129.755	80.004	19.997	103.278	20.326	3.909	0.432
96.001	130.637	80.002	19.996	103.278	20.325	3.944	0.433
98.001	131.552	80.003	19.996	103.277	20.322	4.172	0.473
100.000	132.444	80.002	19.995	103.277	20.327	3.825	0.452
102.000	133.356	80.006	19.994	103.278	20.327	3.836	0.460
104.000	134.296	80.002	19.994	103.280	20.328	3.734	0.486
106.001	135.245	80.004	19.996	103.287	20.323	4.116	0.468
108.001	136.166	80.004	19.995	103.289	20.325	3.929	0.493
110.001	137.114	80.007	19.994	103.285	20.324	4.054	0.481
112.001	138.137	80.004	19.996	103.285	20.322	4.169	0.503
114.001	139.110	80.007	19.995	103.286	20.324	4.024	0.458
116.000	140.148	80.005	19.994	103.288	20.325	3.987	0.512
118.000	141.063	80.004	19.995	103.279	20.323	4.069	0.494
120.001	142.054	80.005	19.996	103.275	20.327	3.852	0.475
122.001	143.053	80.003	19.994	103.281	20.328	3.735	0.457
124.000	144.126	80.002	19.995	103.273	20.324	3.995	0.493
126.000	145.111	80.002	19.996	103.286	20.326	3.902	0.486
128.001	146.147	80.001	19.994	103.277	20.327	3.822	0.535
130.001	147.133	80.003	19.994	103.268	20.322	4.193	0.481
132.000	148.170	80.003	19.994	103.279	20.321	4.206	0.512
134.000	149.198	80.003	19.994	103.263	20.324	4.006	0.513
136.000	150.243	80.002	19.995	103.260	20.327	3.809	0.519
138.001	151.247	80.002	19.994	103.256	20.324	4.014	0.523
140.000	152.299	80.002	19.994	103.254	20.326	3.913	0.541
142.000	153.312	80.004	19.995	103.253	20.327	3.813	0.499
144.001	154.312	80.003	19.995	103.252	20.331	3.574	0.506
146.001	155.310	80.004	19.995	103.252	20.325	3.969	0.488
148.000	156.329	80.002	19.995	103.252	20.330	3.635	0.529
150.000	157.338	80.001	19.995	103.251	20.327	3.814	0.500
152.000	158.379	80.005	19.996	103.252	20.329	3.650	0.533
154.000	159.409	80.000	19.996	103.252	20.330	3.645	0.495
156.001	160.431	80.000	19.996	103.251	20.330	3.598	0.522
158.000	161.435	80.003	19.996	103.251	20.330	3.589	0.532
160.000	162.455	79.998	19.996	103.252	20.327	3.823	0.502
162.000	163.455	80.003	19.996	103.246	20.327	3.790	0.517
164.001	164.496	80.001	19.995	103.244	20.329	3.708	0.548
166.000	165.486	80.005	19.996	103.247	20.325	3.989	0.486
168.000	166.508	80.006	19.996	103.247	20.331	3.566	0.478
170.000	167.535	80.005	19.997	103.245	20.327	3.803	0.508
172.001	168.525	80.005	19.996	103.248	20.329	3.717	0.502
174.000	169.520	80.005	19.997	103.246	20.325	3.939	0.534
176.000	170.551	80.004	19.996	103.251	20.326	3.896	0.509
178.001	171.473	80.003	19.997	103.243	20.325	3.936	0.463
180.000	172.474	80.001	19.997	103.249	20.325	3.975	0.475
182.000	173.521	80.007	19.996	103.238	20.326	3.894	0.481
184.000	174.523	80.003	19.997	103.246	20.323	4.106	0.532
186.000	175.499	80.005	19.995	103.247	20.322	4.153	0.478
188.001	176.412	80.002	19.996	103.239	20.324	4.010	0.454
190.000	177.444	80.005	19.995	103.224	20.321	4.213	0.478
192.001	178.443	80.008	19.995	103.227	20.322	4.156	0.494
194.000	179.435	80.007	19.994	103.242	20.324	4.051	0.487
196.000	180.403	80.005	19.994	103.230	20.324	4.030	0.477
198.000	181.394	80.004	19.995	103.235	20.322	4.178	0.513
200.000	182.335	80.004	19.996	103.237	20.320	4.288	0.499
202.000	183.365	80.004	19.994	103.234	20.323	4.102	0.531
204.000	184.296	80.005	19.995	103.234	20.321	4.224	0.483
206.000	185.308	80.001	19.995	103.241	20.318	4.449	0.500
208.000	186.291	80.009	19.994	103.224	20.316	4.540	0.463
210.000	187.331	79.997	19.996	103.228	20.320	4.309	0.478
212.001	188.323	80.001	19.996	103.212	20.320	4.302	0.516
214.000	189.297	80.003	19.995	103.233	20.318	4.410	0.499
216.000	190.317	80.002	19.996	103.226	20.315	4.609	0.539
218.000	191.288	80.004	19.996	103.229	20.316	4.559	0.480
220.000	192.280	80.002	19.995	103.221	20.315	4.657	0.515
222.000	193.257	80.004	19.994	103.223	20.317	4.527	0.509
224.000	194.244	80.001	19.996	103.223	20.314	4.713	0.502
226.000	195.226	79.999	19.995	103.233	20.313	4.788	0.495
228.000	196.195	80.004	19.995	103.229	20.311	4.897	0.493
230.000	197.139	80.001	19.994	103.222	20.314	4.741	0.457
232.000	198.110	80.003	19.994	103.223	20.314	4.706	0.494
234.000	199.136	80.004	19.996	103.230	20.313	4.808	0.489
236.000	200.114	80.003	19.996	103.231	20.311	4.935	0.453
238.000	201.113	80.003	19.997	103.223	20.310	4.968	0.490
240.000	202.101	80.011	19.994	103.226	20.311	4.915	0.508
242.000	203.030	80.002	19.994	103.231	20.308	5.122	0.493
244.000	204.021	80.002	19.994	103.228	20.306	5.227	0.451
246.000	205.048	80.003	19.996	103.232	20.307	5.210	0.510
248.000	206.082	80.004	19.991	103.228	20.303	5.490	0.538
250.000	207.070	80.004	19.997	103.230	20.305	5.326	0.507
252.000	208.033	80.009	19.995	103.236	20.306	5.274	0.505
254.000	209.052	80.006	19.992	103.227	20.303	5.484	0.508
256.000	210.039	80.002	19.995	103.221	20.302	5.504	0.485
258.000	211.024	80.002	19.995	103.224	20.303	5.432	0.464
260.000	211.997	80.002	19.994	103.219	20.300	5.668	0.514
262.000	213.006	80.008	19.994	103.218	20.299	5.703	0.500
264.000	213.988	80.005	19.997	103.219	20.295	6.002	0.504
266.000	215.000	79.999	19.995	103.214	20.294	6.095	0.505
268.000	216.001	80.007	19.993	103.215	20.295	5.982	0.499
270.000	217.004	80.008	19.994	103.214	20.291	6.256	0.514
272.000	217.963	80.005	19.996	103.224	20.292	6.179	0.484
274.000	218.998	80.005	19.999	103.225	20.291	6.261	0.501
276.000	219.993	80.006	19.995	103.213	20.291	6.275	0.480
278.000	220.955	80.005	19.990	103.224	20.291	6.302	0.485
280.000	221.967	80.005	19.999	103.222	20.286	6.606	0.471
282.000	222.993	80.002	19.996	103.216	20.284	6.736	0.502
284.000	223.971	80.004	19.993	103.218	20.286	6.591	0.496
286.000	224.965	80.001	19.994	103.230	20.286	6.639	0.519
288.000	225.959	80.002	19.994	103.221	20.282	6.898	0.481
290.000	226.939	80.003	19.999	103.226	20.278	7.161	0.447
292.000	228.017	80.001	20.001	103.225	20.279	7.094	0.500
294.000	229.023	79.999	19.991	103.223	20.276	7.310	0.496
296.000	230.020	80.001	19.997	103.223	20.273	7.479	0.516
298.000	231.034	80.003	19.996	103.221	20.273	7.483	0.524
300.000	232.023	80.004	19.990	103.220	20.270	7.684	0.493
302.000	233.025	80.007	19.995	103.218	20.270	7.744	0.469
304.000	234.022	80.007	19.993	103.224	20.268	7.878	0.461
306.000	235.033	80.004	19.997	103.218	20.265	8.038	0.477
308.000	236.016	79.999	19.992	103.217	20.264	8.158	0.458
310.001	236.987	79.997	19.990	103.214	20.261	8.352	0.467
312.000	238.062	80.006	19.995	103.219	20.256	8.648	0.520
314.000	239.024	80.003	19.994	103.227	20.257	8.629	0.500
316.000	240.002	80.000	19.996	103.222	20.251	9.016	0.484
318.000	241.005	80.002	19.997	103.227	20.251	9.031	0.516
320.000	242.017	80.006	19.996	103.227	20.248	9.205	0.500
322.000	243.021	80.012	19.996	103.232	20.247	9.284	0.468
324.000	244.046	80.008	19.995	103.232	20.244	9.481	0.504
326.000	245.000	79.998	19.999	103.229	20.240	9.779	0.493
328.000	246.064	80.002	19.996	103.223	20.236	10.074	0.512
330.000	246.999	80.000	19.994	103.212	20.237	9.996	0.466
332.000	247.983	79.999	19.995	103.215	20.228	10.576	0.506
334.000	248.984	80.007	19.994	103.221	20.228	10.596	0.488
336.000	250.084	80.004	19.997	103.245	20.224	10.879	0.557
338.000	251.089	80.005	19.995	103.240	20.217	11.345	0.529
340.000	252.047	80.003	19.998	103.234	20.215	11.508	0.506
342.000	253.091	80.010	19.997	103.242	20.212	11.706	0.515
344.000	254.067	80.003	19.996	103.244	20.209	11.882	0.488
346.000	255.070	80.007	19.996	103.250	20.209	11.884	0.511
348.000	256.037	80.013	19.996	103.251	20.203	12.336	0.533
350.000	257.019	80.003	19.996	103.254	20.199	12.550	0.489
352.000	258.016	79.987	20.003	103.247	20.194	12.901	0.503
354.000	258.997	79.993	20.000	103.242	20.189	13.290	0.480
356.000	260.071	80.006	19.997	103.246	20.183	13.640	0.530
358.000	261.011	80.017	19.996	103.252	20.176	14.132	0.489
360.000	262.034	79.994	19.995	103.253	20.174	14.306	0.497
362.000	262.970	80.003	19.995	103.254	20.167	14.769	0.474
364.000	263.981	80.013	19.994	103.254	20.163	15.019	0.515
366.000	265.004	79.999	19.994	103.252	20.157	15.455	0.515
368.001	265.995	80.014	19.993	103.256	20.153	15.710	0.500
370.000	266.976	80.002	19.995	103.260	20.149	16.013	0.481
372.001	267.950	80.001	19.994	103.263	20.142	16.499	0.488
374.000	268.938	80.009	19.994	103.261	20.137	16.855	0.547
376.001	269.943	80.015	19.992	103.279	20.125	17.653	0.540
378.000	270.962	80.003	19.999	103.275	20.123	17.787	0.483
380.000	271.990	80.004	19.989	103.270	20.119	18.066	0.487
382.000	272.975	80.004	19.995	103.283	20.109	18.748	0.491
384.000	273.998	80.006	19.989	103.277	20.100	19.330	0.499
386.000	274.995	80.000	19.998	103.291	20.094	19.765	0.523
388.000	275.975	80.001	19.994	103.281	20.087	20.223	0.487
390.000	276.982	80.008	19.988	103.289	20.084	20.436	0.522
392.000	277.934	80.007	19.994	103.282	20.079	20.762	0.518
394.000	278.919	80.019	19.990	103.290	20.077	20.949	0.514
396.000	279.940	79.997	19.995	103.290	20.068	21.514	0.505
398.000	280.892	80.008	19.994	103.282	20.063	21.868	0.497
400.000	281.869	80.013	19.995	103.288	20.057	22.268	0.526
402.000	282.878	79.999	19.995	103.290	20.051	22.706	0.516
404.000	283.873	80.007	19.993	103.284	20.049	22.850	0.504
406.000	284.871	80.010	19.991	103.292	20.039	23.517	0.503
408.000	285.885	80.012	19.992	103.294	20.032	23.983	0.504
410.000	286.883	80.001	19.996	103.289	20.027	24.318	0.522
412.000	287.872	80.000	19.993	103.295	20.018	24.968	0.478
414.000	288.843	80.007	20.001	103.297	20.016	25.102	0.509
416.000	289.847	80.002	19.992	103.300	20.006	25.757	0.472
418.001	290.845	80.021	19.993	103.314	19.999	26.250	0.514
420.000	291.848	80.009	19.997	103.317	19.992	26.740	0.491
422.000	292.841	79.998	20.004	103.291	19.983	27.335	0.473
424.000	293.814	80.007	19.992	103.300	19.979	27.668	0.475
426.000	294.798	80.006	19.987	103.309	19.972	28.135	0.476
428.000	295.785	80.006	19.991	103.305	19.963	28.712	0.499
430.000	296.768	80.010	19.990	103.325	19.955	29.309	0.465
432.000	297.775	80.002	19.994	103.324	19.950	29.616	0.485
434.000	298.763	80.005	19.998	103.318	19.941	30.253	0.477
436.000	299.723	79.993	20.000	103.327	19.938	30.421	0.496
438.000	300.703	79.998	19.995	103.325	19.929	31.043	0.502
440.001	301.694	80.004	19.994	103.330	19.923	31.474	0.491
442.000	302.719	80.008	19.992	103.336	19.912	32.222	0.495
444.000	303.717	79.999	19.994	103.334	19.902	32.882	0.475
446.001	304.716	79.995	19.995	103.339	19.896	33.324	0.466
448.000	305.672	79.986	19.996	103.327	19.889	33.817	0.500
450.000	306.769	80.009	19.994	103.338	19.886	34.014	0.523
452.000	307.742	79.990	19.994	103.337	19.875	34.771	0.489
454.000	308.758	79.998	19.996	103.328	19.863	35.570	0.523
456.001	309.837	80.000	19.996	103.337	19.853	36.312	0.527
458.000	310.836	80.014	19.993	103.346	19.847	36.660	0.482
460.000	311.819	80.005	19.993	103.348	19.838	37.307	0.531
462.000	312.893	80.001	19.994	103.350	19.829	37.944	0.524
464.000	313.967	80.015	19.993	103.354	19.821	38.504	0.572
466.000	314.948	79.996	19.998	103.367	19.811	39.156	0.516
468.000	315.972	80.013	19.992	103.356	19.799	40.004	0.531
470.001	316.976	79.988	19.997	103.368	19.796	40.171	0.508
472.000	318.079	80.004	19.997	103.367	19.786	40.847	0.515
474.000	319.052	79.994	19.995	103.370	19.777	41.466	0.520
476.000	320.069	80.002	19.995	103.367	19.765	42.296	0.508
478.000	321.127	80.007	19.993	103.373	19.752	43.194	0.524
480.000	322.141	80.007	19.995	103.371	19.747	43.527	0.519
482.000	323.154	80.004	19.992	103.367	19.735	44.344	0.515
484.000	324.171	80.004	19.996	103.372	19.735	44.397	0.510
486.000	325.234	80.002	19.997	103.366	19.719	45.499	0.523
488.000	326.262	80.007	19.997	103.374	19.710	46.119	0.532
490.000	327.290	79.998	19.995	103.380	19.702	46.636	0.514
492.000	328.292	80.001	19.987	103.374	19.687	47.685	0.497
494.000	329.352	79.988	19.996	103.381	19.677	48.329	0.510
496.000	330.347	79.998	19.997	103.390	19.663	49.330	0.494
498.000	331.385	80.019	19.998	103.411	19.657	49.754	0.524
500.000	332.440	80.003	19.996	103.404	19.647	50.425	0.544
502.000	333.459	80.000	20.000	103.403	19.634	51.295	0.484
504.000	334.552	80.005	19.994	103.405	19.621	52.176	0.532
506.000	335.541	80.008	19.995	103.417	19.614	52.690	0.510
508.000	336.558	80.003	19.996	103.413	19.601	53.569	0.503
510.000	337.614	80.002	19.993	103.414	19.590	54.358	0.532
512.000	338.628	80.003	19.994	103.415	19.581	54.940	0.541
514.000	339.703	80.032	19.991	103.418	19.565	56.043	0.536
516.000	340.743	80.006	19.996	103.428	19.555	56.698	0.524
518.000	341.771	80.002	19.995	103.418	19.543	57.560	0.572
520.000	342.809	80.005	19.996	103.427	19.530	58.424	0.525
522.000	343.853	80.005	19.991	103.438	19.517	59.347	0.523
524.000	344.843	80.004	19.995	103.439	19.505	60.128	0.471
526.000	345.906	80.006	19.995	103.446	19.496	60.767	0.479
528.000	346.985	80.007	19.996	103.448	19.483	61.678	0.535
530.000	347.993	80.014	19.994	103.447	19.467	62.752	0.507
532.000	349.039	80.003	19.997	103.454	19.455	63.578	0.508
534.000	350.098	80.015	19.990	103.453	19.440	64.603	0.524
536.000	351.124	80.006	19.995	103.454	19.431	65.272	0.508
538.000	352.191	79.999	19.998	103.444	19.423	65.799	0.503
540.000	353.249	80.013	19.993	103.452	19.408	66.820	0.519
542.000	354.273	80.014	19.996	103.449	19.403	67.132	0.522
544.000	355.291	80.018	19.994	103.453	19.392	67.903	0.503
546.000	356.323	80.003	19.990	103.470	19.381	68.668	0.494
548.000	357.347	79.997	19.993	103.469	19.370	69.426	0.507
550.001	358.385	80.015	19.995	103.461	19.367	69.591	0.533
552.000	359.371	79.998	19.995	103.461	19.359	70.185	0.484
554.000	360.450	80.011	19.995	103.450	19.357	70.288	0.562
556.000	361.477	80.005	19.994	103.456	19.352	70.618	0.560
558.000	362.511	80.007	19.994	103.454	19.354	70.452	0.500
560.000	363.548	80.007	19.989	103.452	19.358	70.207	0.516
562.000	364.529	79.998	19.996	103.453	19.360	70.023	0.491
564.000	365.536	79.999	19.996	103.435	19.364	69.781	0.534
566.000	366.558	80.012	19.992	103.412	19.376	68.945	0.533
568.000	367.543	80.008	19.997	103.414	19.386	68.217	0.502
570.001	368.589	80.011	19.993	103.401	19.404	67.018	0.534
572.000	369.631	80.014	19.987	103.378	19.418	66.009	0.535
574.001	370.603	80.005	19.993	103.379	19.443	64.342	0.484
576.000	371.608	79.993	19.996	103.370	19.470	62.483	0.534
578.000	372.568	80.004	19.996	103.354	19.499	60.441	0.475
580.001	373.617	80.000	20.000	103.338	19.531	58.237	0.504
582.000	374.613	79.998	19.993	103.325	19.569	55.663	0.474
584.000	375.621	79.990	19.998	103.304	19.602	53.361	0.530
586.000	376.628	79.992	19.993	103.291	19.636	51.076	0.478
588.000	377.610	80.009	19.993	103.265	19.678	48.175	0.460
590.000	378.659	80.009	19.996	103.252	19.720	45.287	0.511
592.000	379.656	80.008	19.996	103.249	19.764	42.326	0.482
594.000	380.679	80.028	19.991	103.235	19.804	39.570	0.501
596.000	381.658	80.022	19.996	103.218	19.842	36.930	0.510
598.000	382.670	80.003	19.997	103.212	19.886	33.949	0.541
600.000	383.699	79.995	19.992	103.195	19.930	30.961	0.477
602.000	384.709	80.012	19.993	103.191	19.964	28.609	0.488
604.000	385.670	80.003	19.993	103.174	20.003	25.980	0.497
606.000	386.731	80.007	19.995	103.174	20.033	23.922	0.514
608.000	387.689	80.003	19.995	103.175	20.062	21.936	0.522
610.000	388.673	79.997	19.996	103.173	20.085	20.328	0.479
612.000	389.744	80.004	19.997	103.172	20.110	18.653	0.467
614.000	390.786	80.001	19.997	103.172	20.133	17.094	0.500
616.000	391.790	80.005	19.997	103.173	20.149	16.007	0.530
618.000	392.792	80.017	19.993	103.171	20.160	15.222	0.511
620.000	393.876	80.002	19.996	103.175	20.177	14.089	0.546
622.000	394.828	80.000	19.999	103.173	20.188	13.347	0.489
624.000	395.894	80.001	19.995	103.161	20.193	12.977	0.544
626.000	396.860	80.005	19.996	103.147	20.200	12.526	0.488
628.001	397.880	80.002	19.995	103.156	20.202	12.363	0.486
630.000	398.858	80.006	19.991	103.171	20.205	12.141	0.491
632.000	399.868	79.999	20.001	103.161	20.209	11.847	0.503
634.000	400.849	80.007	19.993	103.142	20.212	11.704	0.525
636.000	401.886	80.002	19.996	103.157	20.217	11.313	0.488
638.000	402.895	80.003	19.995	103.152	20.221	11.032	0.488
640.001	403.876	80.002	19.999	103.154	20.218	11.293	0.499
642.000	404.868	80.007	19.993	103.144	20.221	11.079	0.474
644.000	405.899	80.007	19.993	103.156	20.223	10.944	0.491
646.000	406.884	80.005	19.994	103.153	20.231	10.373	0.463
648.000	407.892	80.006	19.994	103.146	20.224	10.826	0.520
650.000	408.896	80.006	19.995	103.142	20.225	10.799	0.500
652.000	409.942	80.007	19.995	103.147	20.222	10.996	0.524
654.000	410.936	79.998	19.997	103.139	20.224	10.861	0.505
656.000	411.946	80.003	19.997	103.159	20.227	10.683	0.490
658.000	412.951	80.005	19.998	103.158	20.230	10.437	0.527
660.000	413.954	80.004	19.997	103.152	20.230	10.461	0.502
662.001	414.955	80.002	19.995	103.156	20.232	10.332	0.501
664.000	415.950	80.001	19.990	103.141	20.235	10.116	0.477
666.000	416.956	80.010	19.987	103.139	20.236	10.055	0.492
668.000	417.960	80.006	19.994	103.143	20.236	10.022	0.522
670.000	419.005	80.006	19.995	103.141	20.234	10.193	0.500
672.001	420.030	80.008	19.997	103.140	20.237	9.945	0.521
674.000	421.014	80.014	19.989	103.135	20.238	9.903	0.504
676.000	422.041	80.004	19.993	103.144	20.241	9.702	0.522
678.000	423.052	80.004	19.994	103.137	20.242	9.597	0.529
680.000	423.987	80.005	19.994	103.137	20.241	9.670	0.478
682.000	425.047	80.016	19.994	103.145	20.240	9.774	0.479
684.001	426.048	80.001	19.992	103.157	20.243	9.560	0.495
686.000	427.077	80.002	19.995	103.143	20.243	9.526	0.494
688.000	428.089	80.003	19.993	103.138	20.247	9.275	0.505
690.000	429.095	79.998	19.993	103.141	20.248	9.220	0.545
692.000	430.072	80.007	19.993	103.143	20.248	9.202	0.473
694.000	431.077	80.001	19.994	103.141	20.252	8.950	0.462
696.000	432.132	80.003	19.996	103.135	20.250	9.095	0.485
698.000	433.120	80.001	19.995	103.138	20.253	8.847	0.509
700.000	434.206	80.004	19.992	103.142	20.250	9.068	0.539
702.000	435.192	79.992	20.002	103.140	20.253	8.899	0.515
704.000	436.197	80.000	19.993	103.138	20.253	8.849	0.513
706.000	437.211	80.013	19.994	103.143	20.258	8.534	0.518
708.000	438.194	79.993	20.002	103.140	20.261	8.344	0.500
710.000	439.238	80.004	19.994	103.133	20.259	8.458	0.502
712.001	440.244	80.001	19.995	103.139	20.257	8.578	0.492
714.000	441.251	79.999	19.997	103.134	20.256	8.655	0.523
716.000	442.275	80.003	19.995	103.135	20.256	8.649	0.495
718.001	443.291	80.011	19.994	103.137	20.259	8.480	0.536
720.001	444.280	80.000	19.998	103.143	20.261	8.344	0.479
722.001	445.333	80.009	19.996	103.127	20.262	8.258	0.511
724.000	446.348	80.001	19.995	103.130	20.262	8.262	0.510
726.000	447.326	80.003	19.996	103.132	20.264	8.109	0.492
728.000	448.306	80.001	19.994	103.128	20.265	8.066	0.489
730.000	449.369	80.008	19.996	103.134	20.266	7.998	0.520
732.000	450.340	80.009	19.995	103.130	20.266	7.975	0.500
734.000	451.365	80.001	19.996	103.137	20.265	8.071	0.525
736.000	452.401	80.005	19.992	103.129	20.266	7.994	0.539
738.000	453.446	79.999	19.996	103.132	20.270	7.737	0.544
740.000	454.447	80.004	19.994	103.134	20.268	7.828	0.520
742.000	455.374	80.003	19.995	103.134	20.273	7.503	0.457
744.001	456.435	80.004	19.993	103.134	20.274	7.430	0.485
746.000	457.472	80.000	19.995	103.140	20.276	7.268	0.538
748.001	458.493	80.005	19.994	103.133	20.280	7.028	0.514
750.000	459.517	80.008	19.996	103.133	20.277	7.204	0.536
752.000	460.523	80.013	19.992	103.132	20.280	7.051	0.498
754.000	461.531	80.009	19.993	103.138	20.278	7.183	0.523
756.000	462.548	80.004	19.995	103.142	20.276	7.278	0.505
758.000	463.543	80.007	19.995	103.136	20.280	7.025	0.499
760.000	464.536	80.009	19.995	103.135	20.278	7.153	0.457
762.000	465.550	80.011	19.993	103.142	20.280	6.999	0.510
764.000	466.605	80.001	19.992	103.148	20.282	6.875	0.517
766.000	467.611	79.999	19.998	103.141	20.281	6.981	0.504
768.001	468.579	80.011	19.993	103.133	20.287	6.535	0.476
770.000	469.613	80.010	19.998	103.141	20.283	6.829	0.496
772.000	470.642	80.016	19.993	103.142	20.285	6.685	0.528
774.000	471.610	79.981	19.998	103.137	20.284	6.724	0.471
776.000	472.628	79.998	19.994	103.131	20.286	6.632	0.503
778.000	473.670	80.020	19.992	103.130	20.287	6.552	0.527
780.001	474.713	80.005	19.995	103.141	20.285	6.667	0.505
782.000	475.748	80.016	19.994	103.127	20.285	6.706	0.512
784.000	476.727	80.001	19.997	103.127	20.291	6.300	0.483
786.000	477.751	80.002	19.995	103.126	20.288	6.454	0.515
788.000	478.803	80.006	19.995	103.130	20.293	6.170	0.522
790.000	479.763	80.003	19.996	103.134	20.290	6.351	0.489
792.000	480.774	80.006	19.996	103.133	20.290	6.330	0.516
794.000	481.807	80.005	19.996	103.133	20.288	6.460	0.510
796.000	482.836	80.005	19.997	103.132	20.294	6.041	0.507
798.000	483.832	80.009	19.996	103.126	20.293	6.142	0.479
800.000	484.869	80.010	19.996	103.127	20.289	6.441	0.514
802.000	485.881	80.013	19.995	103.129	20.290	6.373	0.532
804.000	486.929	79.999	19.995	103.132	20.296	5.913	0.524
806.000	487.928	79.997	19.996	103.128	20.293	6.124	0.492
808.000	488.956	79.999	19.994	103.132	20.295	5.993	0.516
810.000	489.984	79.993	19.996	103.130	20.293	6.138	0.498
812.000	490.986	80.019	19.995	103.130	20.293	6.114	0.515
814.000	492.008	79.995	19.997	103.141	20.290	6.323	0.508
816.000	493.033	80.005	19.994	103.130	20.295	5.976	0.521
818.000	494.066	80.013	19.995	103.130	20.294	6.056	0.528
820.000	495.071	80.005	19.996	103.132	20.296	5.947	0.504
822.000	496.146	80.011	19.994	103.133	20.292	6.194	0.551
824.001	497.121	80.007	19.993	103.134	20.293	6.163	0.524
826.000	498.120	80.001	19.999	103.133	20.297	5.840	0.493
828.000	499.122	80.004	19.996	103.124	20.293	6.166	0.488
830.000	500.178	80.006	19.993	103.131	20.291	6.258	0.525
832.001	501.169	80.008	19.996	103.136	20.290	6.358	0.484
834.000	502.196	80.008	19.995	103.133	20.289	6.388	0.530
836.000	503.156	79.999	19.996	103.129	20.296	5.934	0.504
838.001	504.212	79.999	19.995	103.121	20.295	6.008	0.550
840.000	505.218	80.015	19.994	103.130	20.295	5.991	0.523
842.000	506.205	79.992	19.995	103.135	20.294	6.096	0.528
844.001	507.213	80.003	19.995	103.127	20.297	5.850	0.488
846.000	508.199	80.003	19.998	103.137	20.294	6.097	0.506
848.000	509.246	80.000	19.993	103.137	20.295	5.979	0.529
850.000	510.289	80.001	19.995	103.131	20.297	5.885	0.518
852.000	511.305	80.014	19.995	103.136	20.293	6.137	0.521
854.000	512.319	80.008	19.994	103.138	20.291	6.301	0.505
856.000	513.312	79.999	19.997	103.127	20.299	5.751	0.532
858.000	514.371	79.997	19.997	103.134	20.296	5.924	0.513
860.000	515.393	79.999	19.996	103.132	20.294	6.055	0.503
862.000	516.491	80.011	19.995	103.127	20.295	6.003	0.514
864.000	517.488	80.006	19.996	103.139	20.298	5.829	0.532
866.000	518.520	80.003	19.994	103.132	20.294	6.097	0.511
868.000	519.562	80.003	19.995	103.132	20.293	6.107	0.496
870.000	520.638	80.019	19.993	103.131	20.293	6.122	0.526
872.000	521.675	80.004	19.995	103.134	20.293	6.134	0.511
874.000	522.734	79.997	19.995	103.133	20.297	5.861	0.545
876.000	523.723	80.013	19.994	103.133	20.295	5.983	0.512
878.000	524.753	80.005	19.996	103.137	20.297	5.860	0.536
880.000	525.786	79.999	19.995	103.141	20.295	5.995	0.494
882.000	526.811	79.998	19.995	103.121	20.296	5.948	0.500
884.000	527.836	80.003	19.994	103.127	20.293	6.159	0.508
886.000	528.861	80.009	19.995	103.140	20.297	5.869	0.516
888.000	529.940	80.009	19.994	103.144	20.297	5.874	0.520
890.000	530.962	80.004	19.995	103.132	20.293	6.152	0.534
892.000	531.978	80.015	19.994	103.126	20.295	6.005	0.534
894.000	532.995	80.009	19.995	103.136	20.297	5.862	0.502
896.000	534.033	80.007	19.995	103.139	20.296	5.957	0.495
898.000	535.014	80.001	19.996	103.131	20.297	5.840	0.464
900.000	536.056	80.001	19.994	103.130	20.294	6.067	0.519
902.000	537.103	80.003	19.995	103.127	20.289	6.433	0.509
904.001	538.049	79.995	19.996	103.111	20.287	6.530	0.500
906.000	539.103	79.998	19.995	103.120	20.295	6.009	0.505
908.000	540.141	80.011	19.995	103.126	20.295	5.977	0.484
910.000	541.134	80.002	19.996	103.110	20.295	5.987	0.484
912.000	542.166	80.008	19.995	103.122	20.296	5.909	0.519
914.000	543.161	79.999	19.997	103.109	20.297	5.845	0.485
916.000	544.157	79.999	19.996	103.111	20.299	5.698	0.487
918.000	545.110	79.997	19.997	103.114	20.295	5.983	0.499
920.000	546.198	80.016	19.993	103.109	20.297	5.888	0.562
922.000	547.202	80.003	19.993	103.132	20.299	5.747	0.539
924.000	548.252	80.011	19.995	103.124	20.297	5.833	0.529
926.000	549.246	80.005	19.995	103.122	20.296	5.943	0.524
928.000	550.256	80.005	19.995	103.123	20.298	5.765	0.488
930.000	551.315	80.002	19.995	103.119	20.293	6.143	0.500
932.000	552.309	80.007	19.995	103.128	20.298	5.825	0.493
934.000	553.309	79.994	19.997	103.135	20.294	6.104	0.495
936.000	554.372	80.015	19.995	103.129	20.295	6.018	0.510
938.000	555.385	79.994	19.996	103.124	20.295	6.025	0.511
940.000	556.419	80.006	19.996	103.109	20.290	6.333	0.511
942.000	557.439	80.010	19.994	103.115	20.292	6.217	0.494
944.000	558.421	79.999	19.993	103.123	20.290	6.331	0.498
946.000	559.484	79.999	19.997	103.131	20.291	6.283	0.512
948.000	560.469	80.006	19.995	103.129	20.291	6.285	0.514
950.000	561.511	80.006	19.994	103.120	20.290	6.325	0.519
952.001	562.489	80.009	19.996	103.134	20.290	6.365	0.492
954.000	563.507	80.009	19.995	103.122	20.289	6.412	0.501
956.000	564.560	80.016	19.994	103.128	20.289	6.439	0.503
958.001	565.550	80.011	19.993	103.126	20.289	6.413	0.495
960.001	566.568	80.001	19.995	103.131	20.287	6.555	0.510
962.000	567.577	80.002	19.996	103.140	20.289	6.411	0.504
964.000	568.591	80.014	19.995	103.128	20.289	6.444	0.508
966.000	569.609	80.010	19.995	103.127	20.286	6.587	0.529
968.000	570.633	80.010	19.996	103.126	20.291	6.243	0.493
970.000	571.649	80.004	19.994	103.122	20.290	6.345	0.490
972.000	572.669	80.000	19.996	103.119	20.293	6.149	0.491
974.000	573.723	80.005	19.996	103.120	20.294	6.084	0.522
976.000	574.802	80.004	19.996	103.114	20.292	6.235	0.561
978.000	575.881	79.999	19.996	103.113	20.287	6.533	0.520
980.000	576.862	79.996	19.996	103.124	20.289	6.423	0.499
982.000	577.897	80.007	19.994	103.126	20.289	6.386	0.539
984.000	578.920	80.006	19.994	103.129	20.286	6.608	0.512
986.000	579.987	80.021	19.994	103.128	20.293	6.132	0.518
988.001	581.015	80.008	19.995	103.123	20.292	6.197	0.512
990.000	582.006	80.010	19.994	103.128	20.290	6.339	0.480
992.000	583.029	80.002	19.996	103.124	20.285	6.692	0.523
994.000	584.057	80.009	19.994	103.104	20.292	6.231	0.525
996.000	585.054	80.004	19.996	103.123	20.292	6.209	0.492
998.000	586.087	79.999	19.995	103.127	20.293	6.164	0.518
1000.000	587.157	80.012	19.995	103.126	20.291	6.303	0.542
1002.000	588.191	79.990	19.998	103.123	20.290	6.336	0.527
1004.000	589.257	80.005	19.995	103.117	20.291	6.309	0.537
1006.000	590.231	79.997	19.999	103.128	20.287	6.515	0.515
1008.000	591.235	80.001	19.998	103.132	20.289	6.444	0.511
1010.000	592.300	80.002	19.997	103.123	20.290	6.356	0.542
1012.001	593.294	80.014	19.996	103.122	20.285	6.656	0.491
1014.000	594.313	80.009	19.995	103.134	20.287	6.518	0.526
1016.000	595.318	80.011	19.996	103.120	20.288	6.485	0.493
1018.000	596.345	80.011	19.992	103.128	20.287	6.572	0.509
1020.000	597.334	79.994	19.995	103.129	20.285	6.654	0.479
1022.000	598.364	79.990	19.994	103.129	20.289	6.422	0.488
1024.001	599.380	80.008	19.995	103.128	20.284	6.764	0.490
1026.000	600.404	80.003	19.995	103.122	20.283	6.803	0.507
1028.000	601.367	79.993	19.996	103.120	20.284	6.774	0.527
1030.000	602.402	79.996	19.996	103.124	20.283	6.789	0.517
1032.000	603.405	80.020	19.993	103.104	20.286	6.630	0.491
1034.001	604.433	80.016	19.996	103.117	20.285	6.699	0.514
1036.000	605.391	80.006	19.995	103.105	20.287	6.557	0.526
1038.000	606.404	80.005	19.997	103.115	20.285	6.712	0.489
1040.000	607.373	79.999	19.996	103.114	20.283	6.822	0.508
1042.000	608.381	80.016	19.994	103.118	20.282	6.877	0.496
1044.000	609.366	79.986	19.998	103.116	20.284	6.776	0.505
1046.001	610.436	80.009	19.996	103.121	20.282	6.913	0.513
1048.000	611.418	80.004	19.997	103.120	20.284	6.743	0.513
1050.000	612.391	80.014	19.995	103.116	20.284	6.784	0.472
1052.000	613.427	80.003	19.993	103.101	20.283	6.840	0.522
1054.001	614.451	80.001	19.995	103.114	20.282	6.890	0.515
1056.000	615.471	80.005	19.996	103.110	20.285	6.652	0.506
1058.001	616.475	80.002	19.996	103.119	20.284	6.731	0.534
1060.000	617.546	80.012	19.994	103.118	20.284	6.759	0.487
1062.000	618.548	79.993	19.997	103.111	20.283	6.843	0.504
1064.000	619.560	80.004	19.996	103.114	20.284	6.778	0.531
1066.000	620.621	80.007	19.998	103.133	20.282	6.897	0.513
1068.000	621.601	80.001	19.998	103.118	20.281	6.960	0.519
1070.000	622.728	80.009	19.995	103.119	20.278	7.169	0.541
1072.000	623.784	80.010	19.994	103.118	20.283	6.796	0.534
1074.000	624.781	80.005	19.996	103.117	20.283	6.796	0.489
1076.000	625.883	80.005	19.994	103.127	20.280	7.037	0.522
1078.000	626.832	80.001	19.994	103.108	20.282	6.914	0.509
1080.000	627.898	79.999	19.995	103.122	20.281	6.960	0.449
1082.000	628.971	80.003	19.995	103.112	20.280	6.995	0.373
1084.001	629.619	79.997	19.994	103.119	20.279	7.081	0.574
1086.000	630.944	80.002	19.995	103.117	20.281	6.978	-0.125
1088.000	632.347	80.001	19.995	103.125	20.277	7.227	0.603
1090.000	633.311	80.004	19.996	103.127	20.278	7.158	0.566
1092.001	634.494	80.003	19.996	103.117	20.282	6.868	0.526
1094.000	635.625	80.003	19.997	103.105	20.279	7.090	0.608
1096.000	636.638	80.006	19.996	103.113	20.281	6.989	0.571
1098.000	637.698	80.000	19.997	103.099	20.279	7.094	0.554
1100.000	638.811	80.008	19.996	103.104	20.283	6.792	0.528
1102.000	639.820	79.984	19.997	103.117	20.282	6.909	0.535
1104.000	640.966	79.991	19.995	103.114	20.280	7.006	0.576
1106.000	641.927	80.000	19.994	103.108	20.279	7.113	0.524
1108.000	643.100	80.005	19.995	103.097	20.276	7.287	0.529
1110.000	644.122	80.009	19.994	103.097	20.274	7.414	0.538
1112.000	645.148	80.003	19.994	103.103	20.276	7.315	0.505
1114.000	646.208	80.001	19.995	103.105	20.279	7.076	0.515
1116.000	647.253	80.001	19.996	103.096	20.273	7.494	0.521
1118.000	648.262	80.002	19.994	103.106	20.277	7.243	0.522
1120.001	649.366	80.004	19.995	103.111	20.277	7.242	0.521
1122.000	650.367	80.008	19.995	103.111	20.281	6.929	0.486
1124.000	651.426	79.999	19.995	103.105	20.275	7.366	0.485
1126.000	652.439	80.006	19.996	103.114	20.274	7.468	0.477
1128.000	653.613	80.012	19.996	103.117	20.278	7.196	0.553
1130.001	654.411	80.004	19.995	103.119	20.273	7.525	0.470
1132.001	655.746	80.009	19.994	103.100	20.274	7.438	1.082
1134.001	656.617	80.006	19.994	103.097	20.272	7.547	0.529
1136.001	657.693	80.008	19.996	103.107	20.270	7.679	0.493
1138.000	658.689	80.002	19.995	103.115	20.273	7.525	0.461
1140.000	659.725	79.991	19.996	103.110	20.273	7.473	0.504
1142.000	660.794	80.009	19.994	103.107	20.271	7.645	0.489
1144.000	661.830	80.003	19.994	103.103	20.273	7.525	0.518
1146.000	662.876	79.998	19.994	103.098	20.274	7.461	0.541
1148.000	663.894	80.003	19.994	103.098	20.275	7.342	0.520
1150.000	664.911	80.010	19.994	103.103	20.274	7.450	0.479
1152.000	665.959	80.008	19.993	103.113	20.273	7.513	0.494
1154.000	667.021	80.005	19.993	103.104	20.270	7.714	0.497
1156.000	667.994	80.005	19.996	103.098	20.271	7.624	0.489
1158.000	669.018	80.006	19.994	103.094	20.270	7.692	0.498
1160.000	670.071	80.006	19.995	103.095	20.276	7.331	0.534
1162.000	671.110	80.006	19.996	103.100	20.268	7.816	0.533
1164.000	672.089	79.997	19.997	103.096	20.269	7.764	0.507
1166.001	673.059	80.014	19.993	103.090	20.273	7.491	0.463
1168.000	674.113	80.001	19.997	103.098	20.276	7.331	0.515
1170.000	675.124	79.998	19.996	103.100	20.267	7.880	0.515
1172.000	676.145	79.997	19.995	103.093	20.269	7.771	0.490
1174.000	677.211	80.004	19.996	103.096	20.268	7.860	0.534
1176.000	678.214	79.999	19.996	103.098	20.271	7.664	0.512
1178.001	679.198	80.000	19.997	103.095	20.273	7.493	0.462
1180.001	680.208	79.994	19.997	103.093	20.271	7.646	0.475
1182.000	681.231	80.012	19.996	103.101	20.270	7.677	0.508
1184.000	682.219	79.999	19.995	103.113	20.268	7.830	0.499
1186.000	683.252	80.006	19.998	103.100	20.267	7.921	0.485
1188.000	684.278	79.984	19.999	103.102	20.271	7.627	0.454
1190.000	685.253	80.013	19.995	103.105	20.272	7.551	0.505
1192.000	686.219	80.002	19.996	103.111	20.267	7.897	0.478
1194.000	687.383	80.006	19.995	103.097	20.271	7.606	0.485
1196.000	688.333	80.011	19.996	103.102	20.270	7.706	0.566
1198.000	689.295	80.004	19.994	103.099	20.264	8.085	0.489
1200.000	690.320	79.990	19.997	103.102	20.267	7.916	0.501
1202.000	691.276	80.002	19.994	103.107	20.264	8.088	0.507
1204.000	692.331	80.005	19.993	103.098	20.264	8.116	0.507
1206.000	693.306	79.999	19.994	103.094	20.264	8.108	0.534
1208.000	694.298	80.016	19.993	103.097	20.264	8.096	0.510
1210.000	695.264	80.007	19.996	103.106	20.262	8.250	0.508
1212.001	696.286	80.008	19.993	103.100	20.263	8.211	0.509
1214.000	697.256	80.010	19.994	103.103	20.267	7.880	0.446
1216.000	698.270	80.008	19.994	103.097	20.266	7.997	0.510
1218.000	699.252	80.005	19.994	103.099	20.262	8.257	0.512
1220.000	700.260	80.009	19.995	103.103	20.266	8.001	0.515
1222.000	701.272	80.011	19.995	103.101	20.262	8.252	0.515
1224.000	702.253	80.005	19.994	103.098	20.265	8.036	0.487
1226.000	703.232	80.000	19.995	103.099	20.264	8.116	0.479
1228.000	704.276	79.986	19.998	103.096	20.265	8.083	0.524
1230.000	705.266	80.018	19.992	103.094	20.264	8.107	0.476
1232.000	706.268	80.002	19.993	103.100	20.266	7.949	0.519
1234.000	707.262	80.006	19.994	103.094	20.263	8.164	0.516
1236.000	708.285	80.005	19.994	103.098	20.264	8.151	0.493
1238.000	709.267	80.003	19.995	103.096	20.267	7.943	0.462
1240.000	710.260	80.003	19.995	103.104	20.265	8.058	0.486
1242.000	711.258	80.003	19.994	103.099	20.265	8.067	0.488
1244.000	712.243	80.003	19.994	103.100	20.262	8.220	0.498
1246.000	713.264	80.011	19.994	103.096	20.265	8.030	0.520
1248.000	714.204	79.999	19.996	103.097	20.263	8.209	0.433
1250.000	715.272	79.991	19.996	103.097	20.268	7.850	0.502
1252.000	716.279	80.001	19.997	103.091	20.267	7.912	0.494
1254.000	717.293	80.014	19.995	103.090	20.268	7.841	0.512
1256.000	718.338	80.021	19.993	103.095	20.267	7.945	0.529
1258.000	719.287	80.008	19.996	103.094	20.263	8.166	0.496
1260.000	720.312	80.003	19.995	103.097	20.264	8.110	0.484
1262.000	721.285	80.003	19.994	103.099	20.263	8.184	0.502
1264.000	722.281	80.004	19.995	103.100	20.265	8.081	0.491
1266.001	723.270	80.012	19.994	103.097	20.258	8.499	0.495
1268.000	724.276	79.996	19.998	103.094	20.263	8.194	0.497
1270.000	725.230	79.994	19.998	103.096	20.261	8.341	0.483
1272.000	726.206	79.995	19.996	103.091	20.259	8.446	0.501
1274.001	727.175	80.002	19.996	103.097	20.260	8.403	0.480
1276.000	728.116	79.993	19.997	103.098	20.254	8.806	0.472
1278.000	729.056	79.995	19.997	103.094	20.261	8.344	0.476
1280.000	729.984	79.995	19.997	103.096	20.259	8.445	0.469
1282.000	730.981	80.011	19.995	103.100	20.262	8.239	0.515
1284.001	731.948	79.994	19.996	103.109	20.258	8.524	0.507
1286.000	732.914	80.003	19.994	103.098	20.257	8.592	0.498
1288.000	733.891	80.002	19.996	103.098	20.258	8.555	0.507
1290.000	734.871	80.003	19.995	103.096	20.259	8.458	0.477
1292.000	735.829	80.022	19.994	103.101	20.259	8.468	0.483
1294.000	736.895	80.001	19.995	103.103	20.258	8.548	0.506
1296.000	737.894	80.017	19.995	103.095	20.255	8.727	0.485
1298.000	738.953	79.987	19.996	103.097	20.256	8.664	0.528
1300.000	739.968	80.007	19.996	103.095	20.258	8.512	0.487
1302.000	741.014	79.999	19.994	103.098	20.255	8.735	0.487
1304.000	742.052	80.009	19.993	103.095	20.256	8.685	0.540
1306.000	743.075	80.011	19.994	103.105	20.257	8.627	0.501
1307.000	743.553	79.995	19.996	103.102	20.258	8.531	0.498