File: 01_Data/Homasote/STA/N2/3K_min/Homasote_STA_N2_3KData_222204_R1.csv
##Temp./Â°C,Time/min,Mass loss(subtr.2)/mg,DSC(subtr.2)/(mW/mg),Sensit./(uV/mW)
50.355,10.0158,-0.01777,0.00327704,1.05029
51.055,11.1439,-0.022061,0.02380003,1.05017
51.755,11.54079,-0.02259768,0.03605811,1.05004
52.455,11.86305,-0.02401028,0.04418487,1.04992
53.155,12.15552,-0.02259764,0.05062967,1.04979
53.855,12.43411,-0.02402101,0.05436688,1.04966
54.555,12.70428,-0.0240103,0.05850297,1.04954
55.255,12.9681,-0.02312123,0.06298162,1.04941
55.955,13.2294,-0.02541218,0.06369841,1.04928
56.655,13.4877,-0.02474115,0.0643822,1.04915
57.355,13.74265,-0.02596435,0.06681578,1.04902
58.055,13.9939,-0.02469554,0.06743243,1.04889
58.755,14.2434,-0.02597207,0.06954915,1.04875
59.455,14.4917,-0.02730946,0.06907484,1.04862
60.155,14.73867,-0.0275819,0.07264316,1.04849
60.855,14.9831,-0.02732485,0.07023828,1.04835
61.555,15.22745,-0.02673143,0.07190295,1.04822
62.255,15.4693,-0.02730497,0.07098881,1.04808
62.955,15.71055,-0.02771068,0.07316869,1.04794
63.655,15.949,-0.029623,0.07152835,1.0478
64.355,16.1875,-0.02994,0.06995058,1.04767
65.055,16.4253,-0.02994049,0.07015593,1.04753
65.755,16.6632,-0.02862005,0.07003142,1.04739
66.455,16.90118,-0.03122953,0.06922845,1.04725
67.155,17.13779,-0.03135633,0.07102685,1.0471
67.855,17.3742,-0.03004246,0.07176514,1.04696
68.555,17.60985,-0.03079845,0.07153599,1.04682
69.255,17.84583,-0.03246313,0.07444228,1.04667
69.955,18.08137,-0.03101312,0.07241193,1.04653
70.655,18.31609,-0.03268069,0.07511593,1.04638
71.355,18.5509,-0.03267321,0.07533452,1.04624
72.055,18.78491,-0.03409095,0.07617251,1.04609
72.755,19.0202,-0.0339999,0.07803838,1.04594
73.455,19.25509,-0.03408004,0.07956255,1.04579
74.155,19.48984,-0.03555815,0.07935192,1.04564
74.855,19.72414,-0.03608076,0.07876613,1.04549
75.555,19.95894,-0.03662982,0.07907721,1.04534
76.255,20.19395,-0.03730408,0.07813092,1.04519
76.955,20.42858,-0.03729,0.07764227,1.04504
77.655,20.6631,-0.03797045,0.0771322,1.04488
78.355,20.8974,-0.03818224,0.0778215,1.04473
79.055,21.13269,-0.04025828,0.07944666,1.04457
79.755,21.3673,-0.03894015,0.07753186,1.04442
80.455,21.60175,-0.04156068,0.0770342,1.04426
81.155,21.83447,-0.04168681,0.08144522,1.04411
81.855,22.06759,-0.0421312,0.08036297,1.04395
82.555,22.29966,-0.04188928,0.07731649,1.04379
83.255,22.5329,-0.04189736,0.07791254,1.04363
83.955,22.76568,-0.04355027,0.07460561,1.04347
84.655,22.99944,-0.04453891,0.07238686,1.04331
85.355,23.23252,-0.04354046,0.07387062,1.04315
86.055,23.46552,-0.0453003,0.07428372,1.04298
86.755,23.69831,-0.04760452,0.07327901,1.04282
87.455,23.9318,-0.04693685,0.0715437,1.04265
88.155,24.16649,-0.0482544,0.07259796,1.04249
88.855,24.40069,-0.04660852,0.07208374,1.04232
89.555,24.63403,-0.04825353,0.07373283,1.04216
90.255,24.86721,-0.04824993,0.0729411,1.04199
90.955,25.09984,-0.04892,0.07319172,1.04182
91.655,25.33159,-0.05024004,0.07207223,1.04165
92.355,25.56299,-0.05024012,0.07308023,1.04148
93.055,25.7945,-0.04895609,0.07568596,1.04131
93.755,26.0263,-0.05109169,0.07402888,1.04114
94.455,26.2584,-0.05023001,0.07610606,1.04097
95.155,26.4909,-0.05009843,0.07442711,1.0408
95.855,26.7237,-0.05027714,0.07542658,1.04062
96.555,26.95614,-0.05286832,0.0752992,1.04045
97.255,27.18852,-0.05300566,0.07505498,1.04027
97.955,27.4214,-0.05046418,0.07459399,1.0401
98.655,27.6538,-0.05320715,0.07558498,1.03992
99.355,27.8857,-0.05287078,0.07627453,1.03974
100.055,28.1172,-0.05451229,0.07620161,1.03956
100.755,28.3483,-0.05352018,0.07405621,1.03938
101.455,28.5792,-0.05385465,0.075429,1.03921
102.155,28.80968,-0.05409642,0.07516921,1.03902
102.855,29.04,-0.05548935,0.07322163,1.03884
103.555,29.27107,-0.05550665,0.07541829,1.03866
104.255,29.50215,-0.05523737,0.07433797,1.03848
104.955,29.73293,-0.05879003,0.07460362,1.03829
105.655,29.96357,-0.05812999,0.07246371,1.03811
106.355,30.19502,-0.05812938,0.07100975,1.03792
107.055,30.42721,-0.05744646,0.06836,1.03774
107.755,30.6584,-0.06012945,0.06938208,1.03755
108.455,30.8894,-0.0594485,0.06599604,1.03736
109.155,31.12073,-0.05875995,0.06744494,1.03718
109.855,31.3524,-0.060761,0.06570878,1.03699
110.555,31.5835,-0.06077006,0.06797486,1.0368
111.255,31.8139,-0.06142998,0.06771638,1.03661
111.955,32.0442,-0.06140486,0.06696173,1.03641
112.655,32.27422,-0.06207988,0.06694739,1.03622
113.355,32.50481,-0.06220152,0.06816737,1.03603
114.055,32.73558,-0.06208188,0.06663106,1.03584
114.755,32.96595,-0.06274,0.06646406,1.03564
115.455,33.19664,-0.06273525,0.06775968,1.03545
116.155,33.42725,-0.06338831,0.06481946,1.03525
116.855,33.65882,-0.06437993,0.06482916,1.03505
117.555,33.89011,-0.06498202,0.06642821,1.03485
118.255,34.12109,-0.06372999,0.06752639,1.03466
118.955,34.35245,-0.06471802,0.067935,1.03446
119.655,34.58363,-0.06534698,0.06532155,1.03426
120.355,34.81442,-0.06532953,0.06452238,1.03406
121.055,35.0431,-0.06538896,0.06499341,1.03385
121.755,35.27262,-0.06582972,0.06617515,1.03365
122.455,35.50326,-0.0657079,0.06531812,1.03345
123.155,35.7348,-0.06602006,0.0660804,1.03325
123.855,35.96561,-0.06601999,0.06663915,1.03304
124.555,36.1957,-0.06536984,0.06766807,1.03284
125.255,36.42637,-0.06636694,0.06634447,1.03263
125.955,36.6569,-0.06630561,0.06692722,1.03242
126.655,36.8876,-0.06633051,0.06559349,1.03221
127.355,37.11862,-0.0660295,0.06566573,1.03201
128.055,37.34957,-0.06702834,0.06673485,1.0318
128.755,37.5807,-0.06702003,0.06752017,1.03159
129.455,37.81133,-0.06668757,0.06920154,1.03138
130.155,38.04173,-0.06638784,0.06611425,1.03116
130.855,38.27186,-0.06536981,0.06944602,1.03095
131.555,38.50222,-0.06668,0.06940356,1.03074
132.255,38.73267,-0.066677,0.07124193,1.03052
132.955,38.96215,-0.06673268,0.06789148,1.03031
133.655,39.19193,-0.06590546,0.06909608,1.03009
134.355,39.42155,-0.06668812,0.06796749,1.02988
135.055,39.6525,-0.06669819,0.0664887,1.02966
135.755,39.88329,-0.06668924,0.06932398,1.02944
136.455,40.11371,-0.06567799,0.07016963,1.02922
137.155,40.3439,-0.0666711,0.07136313,1.029
137.855,40.57371,-0.06602939,0.07128647,1.02878
138.555,40.80375,-0.0666897,0.07236524,1.02856
139.255,41.033,-0.06535089,0.07216143,1.02834
139.955,41.2625,-0.0652046,0.07005461,1.02812
140.655,41.49185,-0.06615958,0.06953807,1.0279
141.355,41.72096,-0.06602117,0.06878251,1.02767
142.055,41.94955,-0.06570233,0.06568244,1.02745
142.755,42.17776,-0.06603,0.06815408,1.02722
143.455,42.4069,-0.06603,0.06778894,1.027
144.155,42.63558,-0.06433992,0.0693637,1.02677
144.855,42.86403,-0.06569998,0.06671617,1.02654
145.555,43.092,-0.0657,0.06785779,1.02631
146.255,43.32029,-0.06571413,0.07084629,1.02608
146.955,43.54842,-0.06471003,0.0704355,1.02585
147.655,43.77661,-0.06404927,0.06820786,1.02562
148.355,44.0047,-0.06504252,0.07094303,1.02539
149.055,44.23253,-0.06470998,0.06994617,1.02516
149.755,44.4604,-0.06287295,0.07257194,1.02492
150.455,44.68828,-0.06404948,0.06987151,1.02469
151.155,44.91706,-0.06537005,0.07097135,1.02446
151.855,45.1457,-0.06471167,0.07231705,1.02422
152.555,45.3746,-0.06569004,0.07387013,1.02398
153.255,45.60275,-0.06355357,0.07249113,1.02375
153.955,45.8321,-0.06569088,0.0737765,1.02351
154.655,46.06105,-0.06504035,0.07212171,1.02327
155.355,46.29,-0.06601812,0.07417281,1.02303
156.055,46.51744,-0.06734636,0.07304215,1.02279
156.755,46.7455,-0.06701017,0.07339861,1.02255
157.455,46.97343,-0.06830587,0.07322703,1.02231
158.155,47.20213,-0.06603,0.07391858,1.02207
158.855,47.43107,-0.06603,0.07359305,1.02182
159.555,47.66115,-0.06860997,0.07481923,1.02158
160.255,47.89055,-0.06701043,0.07420273,1.02133
160.955,48.11943,-0.06898981,0.07348858,1.02109
161.655,48.34769,-0.06898995,0.07366008,1.02084
162.355,48.5766,-0.06914368,0.07263357,1.0206
163.055,48.80577,-0.06874965,0.07259274,1.02035
163.755,49.03481,-0.06929768,0.07250216,1.0201
164.455,49.26303,-0.06866733,0.07138567,1.01985
165.155,49.491,-0.0693159,0.07331017,1.0196
165.855,49.71928,-0.06930398,0.07308302,1.01935
166.555,49.9476,-0.06990138,0.07487731,1.0191
167.255,50.1759,-0.07171401,0.07629981,1.01884
167.955,50.4039,-0.07162853,0.07666314,1.01859
168.655,50.63214,-0.07195475,0.07568724,1.01834
169.355,50.8602,-0.0719713,0.07639071,1.01808
170.055,51.0874,-0.0719707,0.07783145,1.01783
170.755,51.31501,-0.07297935,0.07774786,1.01757
171.455,51.54193,-0.07427219,0.07873911,1.01731
172.155,51.7709,-0.07327052,0.07764852,1.01706
172.855,52.00013,-0.07327,0.07648132,1.0168
173.555,52.2299,-0.07327001,0.07444322,1.01654
174.255,52.4578,-0.07418885,0.07638511,1.01628
174.955,52.68489,-0.0729398,0.07633871,1.01602
175.655,52.91163,-0.07560076,0.07752373,1.01576
176.355,53.13906,-0.07589745,0.07732366,1.01549
177.055,53.3671,-0.07590026,0.07993299,1.01523
177.755,53.59544,-0.07688075,0.07965293,1.01497
178.455,53.82448,-0.07589999,0.07715354,1.0147
179.155,54.05293,-0.07624295,0.07924468,1.01444
179.855,54.28155,-0.07722003,0.07846309,1.01417
180.555,54.50909,-0.07758693,0.07923357,1.0139
181.255,54.73571,-0.07854189,0.08032152,1.01364
181.955,54.96265,-0.07725537,0.07870649,1.01337
182.655,55.18942,-0.07865968,0.07860438,1.0131
183.355,55.41763,-0.07854052,0.07998401,1.01283
184.055,55.64476,-0.0799838,0.07786487,1.01256
184.755,55.8729,-0.08082795,0.07638323,1.01229
185.455,56.1006,-0.08084043,0.07821786,1.01201
186.155,56.32839,-0.08148106,0.07675269,1.01174
186.855,56.55591,-0.08414829,0.07992791,1.01147
187.555,56.7842,-0.08281715,0.08048197,1.01119
188.255,57.0133,-0.082651,0.07968328,1.01092
188.955,57.24245,-0.08412572,0.08110212,1.01064
189.655,57.47084,-0.0854502,0.07919688,1.01036
190.355,57.6987,-0.08508875,0.07962837,1.01009
191.055,57.926,-0.08611075,0.08078288,1.00981
191.755,58.1533,-0.0867435,0.08469922,1.00953
192.455,58.37964,-0.08610818,0.08155357,1.00925
193.155,58.60686,-0.08741025,0.08127455,1.00897
193.855,58.8343,-0.08617447,0.08142578,1.00869
194.555,59.0628,-0.08854599,0.08361683,1.00841
195.255,59.29051,-0.09014464,0.08170347,1.00812
195.955,59.51817,-0.08960387,0.08382338,1.00784
196.655,59.74576,-0.09036973,0.08298164,1.00756
197.355,59.9729,-0.09136001,0.08242713,1.00727
198.055,60.19944,-0.09135981,0.08235615,1.00698
198.755,60.4247,-0.09268,0.08432237,1.0067
199.455,60.6508,-0.09398993,0.08350794,1.00641
200.155,60.8781,-0.0938993,0.08450848,1.00612
200.855,61.10689,-0.09432277,0.08249897,1.00583
201.555,61.33469,-0.09694072,0.08451553,1.00554
202.255,61.5623,-0.09664875,0.08593159,1.00525
202.955,61.78884,-0.09959004,0.08632885,1.00496
203.655,62.01733,-0.09990288,0.08498756,1.00467
204.355,62.2452,-0.10212,0.0842221,1.00438
205.055,62.47395,-0.10355,0.08204245,1.00408
205.755,62.70105,-0.10453,0.08164094,1.00379
206.455,62.9283,-0.10587,0.08613304,1.0035
207.155,63.155,-0.10561,0.08555982,1.0032
207.855,63.3822,-0.10716,0.08862311,1.0029
208.555,63.60886,-0.10979,0.0883478,1.00261
209.255,63.8358,-0.1098,0.08633863,1.00231
209.955,64.0622,-0.11041,0.0868099,1.00201
210.655,64.28851,-0.11309,0.08892621,1.00171
211.355,64.51426,-0.11433,0.09074339,1.00141
212.055,64.7415,-0.11569,0.09037921,1.00111
212.755,64.96813,-0.11868,0.08709857,1.00081
213.455,65.19633,-0.11754,0.08892123,1.0005
214.155,65.42321,-0.12119,0.09100863,1.0002
214.855,65.6508,-0.12263,0.09093912,0.9999
215.555,65.87715,-0.12526,0.09002519,0.99959
216.255,66.10472,-0.12657,0.09057856,0.99929
216.955,66.33236,-0.12888,0.09091722,0.99898
217.655,66.56015,-0.12914,0.09018682,0.99867
218.355,66.78692,-0.13179,0.08905963,0.99837
219.055,67.0133,-0.13306,0.08680391,0.99806
219.755,67.2401,-0.13426,0.08557124,0.99775
220.455,67.46705,-0.1371,0.08606162,0.99744
221.155,67.69449,-0.13973,0.08490208,0.99713
221.855,67.9209,-0.14237,0.08516292,0.99682
222.555,68.14703,-0.14503,0.08237368,0.99651
223.255,68.373,-0.14664,0.08543922,0.99619
223.955,68.59925,-0.14763,0.08506394,0.99588
224.655,68.82568,-0.15161,0.08799623,0.99556
225.355,69.0517,-0.15237,0.08585794,0.99525
226.055,69.27781,-0.15323,0.08521219,0.99493
226.755,69.50356,-0.15585,0.0845577,0.99462
227.455,69.7311,-0.15945,0.08201117,0.9943
228.155,69.95866,-0.16143,0.08410445,0.99398
228.855,70.18727,-0.16505,0.08509394,0.99366
229.555,70.41557,-0.16771,0.08506252,0.99334
230.255,70.64413,-0.16934,0.08434666,0.99302
230.955,70.87199,-0.1733,0.08653056,0.9927
231.655,71.0989,-0.17594,0.08593188,0.99238
232.355,71.32555,-0.17727,0.08666931,0.99206
233.055,71.55255,-0.17974,0.08571209,0.99173
233.755,71.7786,-0.18256,0.0856109,0.99141
234.455,72.00498,-0.18515,0.08359485,0.99109
235.155,72.2312,-0.18776,0.08543675,0.99076
235.855,72.4585,-0.19105,0.08375025,0.99043
236.555,72.6851,-0.19433,0.08755948,0.99011
237.255,72.91171,-0.19829,0.08595963,0.98978
237.955,73.13894,-0.20124,0.08288287,0.98945
238.655,73.36644,-0.20391,0.08584127,0.98912
239.355,73.5943,-0.20672,0.08240868,0.98879
240.055,73.8219,-0.21149,0.08221566,0.98846
240.755,74.04986,-0.21542,0.08205108,0.98813
241.455,74.27717,-0.21868,0.08352191,0.9878
242.155,74.50404,-0.22034,0.08265638,0.98747
242.855,74.7308,-0.22292,0.08485837,0.98713
243.555,74.95817,-0.22695,0.08688522,0.9868
244.255,75.18401,-0.23153,0.08815517,0.98646
244.955,75.41105,-0.23628,0.08628628,0.98613
245.655,75.6374,-0.23946,0.08696596,0.98579
246.355,75.8656,-0.24208,0.0886588,0.98545
247.055,76.092,-0.24731,0.09147054,0.98511
247.755,76.31899,-0.25121,0.08890092,0.98478
248.455,76.54549,-0.25524,0.08758767,0.98444
249.155,76.77289,-0.25914,0.08872201,0.9841
249.855,77,-0.26187,0.08746176,0.98376
250.555,77.2275,-0.26699,0.08609355,0.98341
251.255,77.45467,-0.27171,0.08779214,0.98307
251.955,77.68176,-0.27564,0.08932471,0.98273
252.655,77.9082,-0.27948,0.08988555,0.98238
253.355,78.13444,-0.28365,0.08882657,0.98204
254.055,78.35984,-0.28802,0.09025556,0.98169
254.755,78.58629,-0.29452,0.09101283,0.98135
255.455,78.81313,-0.29685,0.09205081,0.981
256.155,79.04049,-0.30239,0.08979295,0.98065
256.855,79.2664,-0.30689,0.09145936,0.98031
257.555,79.49299,-0.31024,0.0912887,0.97996
258.255,79.7195,-0.31634,0.09186404,0.97961
258.955,79.94725,-0.32152,0.09185139,0.97926
259.655,80.17419,-0.3262,0.08917711,0.97891
260.355,80.40162,-0.33299,0.08834925,0.97855
261.055,80.62869,-0.33796,0.09104552,0.9782
261.755,80.85576,-0.3422,0.09071725,0.97785
262.455,81.08274,-0.34618,0.09388531,0.97749
263.155,81.30945,-0.35417,0.09587428,0.97714
263.855,81.5368,-0.35972,0.09391804,0.97678
264.555,81.76389,-0.36636,0.09186779,0.97643
265.255,81.99133,-0.37102,0.09555895,0.97607
265.955,82.21836,-0.3778,0.09367118,0.97571
266.655,82.44586,-0.38539,0.0910517,0.97535
267.355,82.6729,-0.38992,0.09456953,0.975
268.055,82.90012,-0.39854,0.09640633,0.97464
268.755,83.12708,-0.40259,0.09470001,0.97428
269.455,83.35515,-0.41093,0.09383757,0.97391
270.155,83.5827,-0.41594,0.09406726,0.97355
270.855,83.81041,-0.42547,0.09701292,0.97319
271.555,84.03704,-0.4322,0.09565526,0.97283
272.255,84.26352,-0.43983,0.09880902,0.97246
272.955,84.49021,-0.4472,0.09717568,0.9721
273.655,84.71696,-0.45484,0.09621377,0.97173
274.355,84.9443,-0.46098,0.09703725,0.97137
275.055,85.17137,-0.46901,0.09896216,0.971
275.755,85.3996,-0.47724,0.09849322,0.97063
276.455,85.6277,-0.48623,0.09818205,0.97026
277.155,85.8553,-0.49325,0.09897022,0.96989
277.855,86.08266,-0.50105,0.09861532,0.96952
278.555,86.3109,-0.50949,0.09997797,0.96915
279.255,86.53976,-0.5195,0.09913707,0.96878
279.955,86.76823,-0.52975,0.10255,0.96841
280.655,86.99591,-0.53815,0.10061,0.96804
281.355,87.223,-0.54795,0.10448,0.96766
282.055,87.44966,-0.55603,0.10631,0.96729
282.755,87.67651,-0.5662,0.10603,0.96691
283.455,87.90394,-0.57718,0.10555,0.96654
284.155,88.13195,-0.58578,0.10114,0.96616
284.855,88.3595,-0.59542,0.10756,0.96579
285.555,88.58674,-0.60612,0.10485,0.96541
286.255,88.81445,-0.61683,0.10756,0.96503
286.955,89.04252,-0.62793,0.10899,0.96465
287.655,89.27085,-0.63989,0.11003,0.96427
288.355,89.49844,-0.65029,0.11285,0.96389
289.055,89.7255,-0.66129,0.11392,0.96351
289.755,89.95304,-0.67213,0.11189,0.96313
290.455,90.1807,-0.68501,0.11375,0.96274
291.155,90.40825,-0.69606,0.11311,0.96236
291.855,90.63468,-0.70774,0.11682,0.96198
292.555,90.8614,-0.71899,0.11784,0.96159
293.255,91.08796,-0.733,0.12348,0.96121
293.955,91.31541,-0.74387,0.12143,0.96082
294.655,91.54263,-0.75734,0.1206,0.96043
295.355,91.77002,-0.77158,0.12635,0.96005
296.055,91.99769,-0.78503,0.12299,0.95966
296.755,92.22515,-0.79615,0.12325,0.95927
297.455,92.45351,-0.81043,0.12522,0.95888
298.155,92.6819,-0.82503,0.12819,0.95849
298.855,92.9109,-0.83717,0.12803,0.9581
299.555,93.13863,-0.85217,0.12984,0.95771
300.255,93.36607,-0.86643,0.13142,0.95731
300.955,93.59388,-0.88184,0.13173,0.95692
301.655,93.822,-0.89506,0.13447,0.95653
302.355,94.04992,-0.91199,0.13426,0.95613
303.055,94.2766,-0.92763,0.13745,0.95574
303.755,94.50365,-0.943,0.13797,0.95534
304.455,94.731,-0.95808,0.13857,0.95495
305.155,94.95869,-0.97419,0.14011,0.95455
305.855,95.18733,-0.99287,0.14236,0.95415
306.555,95.41574,-1.01085,0.14636,0.95375
307.255,95.64486,-1.02703,0.14466,0.95335
307.955,95.87281,-1.04522,0.1481,0.95295
308.655,96.1019,-1.06355,0.15361,0.95255
309.355,96.3305,-1.08199,0.15094,0.95215
310.055,96.55988,-1.10027,0.15251,0.95175
310.755,96.7881,-1.11683,0.15515,0.95134
311.455,97.0168,-1.13611,0.1575,0.95094
312.155,97.24485,-1.15508,0.15852,0.95054
312.855,97.47269,-1.17492,0.16214,0.95013
313.555,97.70047,-1.19547,0.16326,0.94973
314.255,97.928,-1.2151,0.16559,0.94932
314.955,98.1561,-1.23574,0.16929,0.94891
315.655,98.3839,-1.25735,0.17248,0.94851
316.355,98.6126,-1.27873,0.16982,0.9481
317.055,98.8408,-1.30118,0.17893,0.94769
317.755,99.06918,-1.32141,0.18009,0.94728
318.455,99.29624,-1.34318,0.18447,0.94687
319.155,99.52384,-1.36618,0.18704,0.94646
319.855,99.75062,-1.38862,0.18961,0.94605
320.555,99.97842,-1.41414,0.19121,0.94563
321.255,100.206,-1.43651,0.19073,0.94522
321.955,100.435,-1.45993,0.19396,0.94481
322.655,100.6632,-1.48455,0.19683,0.94439
323.355,100.892,-1.51052,0.19853,0.94398
324.055,101.12,-1.53447,0.20066,0.94356
324.755,101.349,-1.56043,0.2025,0.94314
325.455,101.577,-1.5846,0.20359,0.94273
326.155,101.805,-1.61397,0.2055,0.94231
326.855,102.034,-1.63733,0.20694,0.94189
327.555,102.263,-1.66533,0.2087,0.94147
328.255,102.492,-1.69143,0.20941,0.94105
328.955,102.72,-1.71809,0.2096,0.94063
329.655,102.949,-1.74571,0.21309,0.94021
330.355,103.177,-1.77167,0.21298,0.93979
331.055,103.406,-1.80249,0.21206,0.93936
331.755,103.634,-1.82826,0.21383,0.93894
332.455,103.863,-1.85605,0.21411,0.93852
333.155,104.091,-1.88378,0.21342,0.93809
333.855,104.319,-1.91267,0.2115,0.93767
334.555,104.547,-1.94024,0.21164,0.93724
335.255,104.776,-1.96821,0.20992,0.93682
335.955,105.004,-1.99572,0.21071,0.93639
336.655,105.232,-2.02042,0.20772,0.93596
337.355,105.459,-2.04975,0.20809,0.93553
338.055,105.688,-2.07543,0.20093,0.9351
338.755,105.9163,-2.10262,0.19641,0.93467
339.455,106.145,-2.12722,0.19355,0.93424
340.155,106.373,-2.15373,0.18834,0.93381
340.855,106.602,-2.179,0.18291,0.93338
341.555,106.83,-2.20177,0.17678,0.93295
342.255,107.059,-2.22552,0.16795,0.93251
342.955,107.287,-2.24747,0.1632,0.93208
343.655,107.515,-2.2684,0.15258,0.93164
344.355,107.743,-2.28849,0.14247,0.93121
345.055,107.971,-2.30904,0.13643,0.93077
345.755,108.199,-2.32691,0.12721,0.93034
346.455,108.428,-2.3417,0.11529,0.9299
347.155,108.656,-2.35712,0.10496,0.92946
347.855,108.8832,-2.37255,0.09261934,0.92902
348.555,109.11,-2.38768,0.08436117,0.92858
349.255,109.337,-2.39774,0.0744282,0.92814
349.955,109.566,-2.40903,0.06803329,0.9277
350.655,109.7954,-2.41891,0.05641469,0.92726
351.355,110.026,-2.42762,0.0502579,0.92682
352.055,110.256,-2.43338,0.04119673,0.92638
352.755,110.486,-2.44136,0.03390771,0.92593
353.455,110.715,-2.44807,0.02853928,0.92549
354.155,110.944,-2.45326,0.02640226,0.92505
354.855,111.172,-2.45742,0.02344715,0.9246
355.555,111.4,-2.46269,0.01760845,0.92415
356.255,111.629,-2.4666,0.01581268,0.92371
356.955,111.857,-2.46924,0.01204439,0.92326
357.655,112.085,-2.4732,0.01117142,0.92281
358.355,112.313,-2.4772,0.00885061,0.92236
359.055,112.542,-2.4825,0.008621639,0.92192
359.755,112.772,-2.4819,0.004680591,0.92147
360.455,113,-2.48448,0.00349196,0.92102
361.155,113.229,-2.48789,0.002406642,0.92056
361.855,113.459,-2.48841,0.00185442,0.92011
362.555,113.69,-2.4925,0.00249797,0.91966
363.255,113.919,-2.49365,-0.0002120428,0.91921
363.955,114.149,-2.49768,0.000369986,0.91875
364.655,114.377,-2.50033,-0.000910539,0.9183
365.355,114.605,-2.50028,-0.0007322586,0.91785
366.055,114.833,-2.50293,-0.001071762,0.91739
366.755,115.062,-2.50475,0.0002725411,0.91693
367.455,115.292,-2.50687,-0.000378318,0.91648
368.155,115.521,-2.50817,-0.003214437,0.91602
368.855,115.75,-2.50983,-0.001117098,0.91556
369.555,115.979,-2.5124,-0.003468324,0.9151
370.255,116.21,-2.51513,-0.003872682,0.91464
370.955,116.441,-2.51649,-0.004104031,0.91418
371.655,116.672,-2.51909,-0.006542423,0.91372
372.355,116.902,-2.52116,-0.007428085,0.91326
373.055,117.131,-2.52226,-0.007725651,0.9128
373.755,117.36,-2.52563,-0.0063487,0.91234
374.455,117.589,-2.5276,-0.009224025,0.91187
375.155,117.818,-2.52931,-0.00687092,0.91141
375.855,118.047,-2.53159,-0.00597804,0.91095
376.555,118.275,-2.53287,-0.006827635,0.91048
377.255,118.505,-2.53531,-0.00594939,0.91002
377.955,118.7356,-2.53652,-0.006046197,0.90955
378.655,118.9657,-2.53781,-0.006505355,0.90908
379.355,119.195,-2.53899,-0.006678122,0.90862
380.055,119.425,-2.54175,-0.005237964,0.90815
380.755,119.655,-2.54307,-0.008285197,0.90768
381.455,119.886,-2.54541,-0.00738937,0.90721
382.155,120.116,-2.54537,-0.008492017,0.90674
382.855,120.347,-2.54695,-0.009994827,0.90627
383.555,120.578,-2.54965,-0.00828021,0.9058
384.255,120.809,-2.55193,-0.009932525,0.90533
384.955,121.038,-2.55456,-0.009500156,0.90485
385.655,121.268,-2.55458,-0.0102916,0.90438
386.355,121.498,-2.55753,-0.01124099,0.90391
387.055,121.728,-2.55959,-0.01087787,0.90343
387.755,121.959,-2.56084,-0.01167979,0.90296
388.455,122.189,-2.56119,-0.009290035,0.90248
389.155,122.419,-2.56379,-0.01263908,0.90201
389.855,122.649,-2.56511,-0.01163155,0.90153
390.555,122.879,-2.56742,-0.01068775,0.90105
391.255,123.1103,-2.56841,-0.01294306,0.90057
391.955,123.341,-2.57005,-0.01366636,0.90009
392.655,123.57,-2.57146,-0.01290169,0.89962
393.355,123.8,-2.57135,-0.0129823,0.89914
394.055,124.03,-2.57531,-0.01451759,0.89866
394.755,124.259,-2.57697,-0.0112657,0.89817
395.455,124.488,-2.57838,-0.01216496,0.89769
396.155,124.7161,-2.57894,-0.01191835,0.89721
396.855,124.945,-2.58095,-0.01317469,0.89673
397.555,125.175,-2.58396,-0.01252762,0.89624
398.255,125.405,-2.58519,-0.01254516,0.89576
398.955,125.637,-2.58783,-0.01360134,0.89528
399.655,125.868,-2.58849,-0.01448599,0.89479
400.355,126.099,-2.59013,-0.0143439,0.8943
401.055,126.328,-2.59276,-0.01415684,0.89382
401.755,126.558,-2.59374,-0.01579206,0.89333
402.455,126.7874,-2.59638,-0.01505062,0.89284
403.155,127.018,-2.59869,-0.014629,0.89235
403.855,127.248,-2.6006,-0.01502458,0.89187
404.555,127.479,-2.60112,-0.01507786,0.89138
405.255,127.71,-2.60296,-0.01657219,0.89089
405.955,127.94,-2.60427,-0.01628066,0.8904
406.655,128.171,-2.60559,-0.01674691,0.8899
407.355,128.401,-2.60819,-0.01739585,0.88941
408.055,128.632,-2.60954,-0.01639242,0.88892
408.755,128.861,-2.61215,-0.01145934,0.88843
409.455,129.091,-2.61218,-0.01643376,0.88793
410.155,129.32,-2.61319,-0.01617801,0.88744
410.855,129.55,-2.61448,-0.01778953,0.88694
411.555,129.78,-2.61713,-0.01701647,0.88645
412.255,130.01,-2.61974,-0.01718969,0.88595
412.955,130.24,-2.61974,-0.0183456,0.88546
413.655,130.471,-2.62105,-0.01738506,0.88496
414.355,130.702,-2.62245,-0.01876217,0.88446
415.055,130.933,-2.62567,-0.01753013,0.88396
415.755,131.164,-2.62501,-0.01839951,0.88346
416.455,131.395,-2.62863,-0.01643883,0.88296
417.155,131.6262,-2.63035,-0.01698527,0.88246
417.855,131.857,-2.63103,-0.01627027,0.88196
418.555,132.089,-2.63126,-0.01373534,0.88146
419.255,132.32,-2.63489,-0.0134862,0.88096
419.955,132.55,-2.63554,-0.01290605,0.88046
420.655,132.78,-2.63685,-0.01432348,0.87995
421.355,133.011,-2.63817,-0.0151588,0.87945
422.055,133.241,-2.64081,-0.01479181,0.87895
422.755,133.472,-2.64181,-0.01420071,0.87844
423.455,133.703,-2.64373,-0.0145185,0.87794
424.155,133.934,-2.64451,-0.01762562,0.87743
424.855,134.166,-2.6474,-0.01635963,0.87692
425.555,134.398,-2.64771,-0.0169818,0.87642
426.255,134.628,-2.64903,-0.01654832,0.87591
426.955,134.859,-2.65128,-0.01496178,0.8754
427.655,135.09,-2.65265,-0.01539118,0.87489
428.355,135.322,-2.65492,-0.01481584,0.87438
429.055,135.552,-2.65655,-0.01642055,0.87387
429.755,135.783,-2.65693,-0.01533229,0.87336
430.455,136.013,-2.65885,-0.01392919,0.87285
431.155,136.245,-2.66154,-0.01584366,0.87234
431.855,136.476,-2.66085,-0.01689199,0.87183
432.555,136.707,-2.66426,-0.01769217,0.87132
433.255,136.9388,-2.66548,-0.0194691,0.8708
433.955,137.17,-2.6668,-0.01506763,0.87029
434.655,137.401,-2.66951,-0.01753767,0.86977
435.355,137.632,-2.67074,-0.01618946,0.86926
436.055,137.861,-2.6717,-0.01811573,0.86874
436.755,138.091,-2.67276,-0.01659484,0.86823
437.455,138.321,-2.67434,-0.01717685,0.86771
438.155,138.552,-2.677,-0.01767266,0.86719
438.855,138.783,-2.67864,-0.01895061,0.86668
439.555,139.013,-2.67867,-0.01584959,0.86616
440.255,139.244,-2.67934,-0.01458298,0.86564
440.955,139.475,-2.68193,-0.01417888,0.86512
441.655,139.7061,-2.68347,-0.01489458,0.8646
442.355,139.938,-2.6839,-0.01622705,0.86408
443.055,140.1711,-2.68495,-0.01397042,0.86356
443.755,140.404,-2.68749,-0.01825369,0.86304
444.455,140.637,-2.68633,-0.01492518,0.86251
445.155,140.87,-2.68979,-0.01717545,0.86199
445.855,141.102,-2.68888,-0.01822514,0.86147
446.555,141.333,-2.69148,-0.01998955,0.86094
447.255,141.5635,-2.6922,-0.01677807,0.86042
447.955,141.794,-2.69345,-0.01575524,0.85989
448.655,142.024,-2.69476,-0.01645226,0.85937
449.355,142.255,-2.69606,-0.01667259,0.85884
450.055,142.485,-2.6979,-0.01912763,0.85832
450.755,142.716,-2.69807,-0.01740157,0.85779
451.455,142.947,-2.70023,-0.01785608,0.85726
452.155,143.1794,-2.70168,-0.02148255,0.85673
452.855,143.412,-2.70068,-0.02043762,0.85621
453.555,143.644,-2.70332,-0.02168555,0.85568
454.255,143.876,-2.70464,-0.02204257,0.85515
454.955,144.109,-2.70462,-0.02178772,0.85462
455.655,144.341,-2.70727,-0.0230868,0.85409
456.355,144.572,-2.70713,-0.02363597,0.85355
457.055,144.804,-2.70817,-0.02248343,0.85302
457.755,145.036,-2.7091,-0.02054211,0.85249
458.455,145.269,-2.70998,-0.02234593,0.85196
459.155,145.501,-2.71121,-0.02289656,0.85142
459.855,145.732,-2.71121,-0.0240945,0.85089
460.555,145.963,-2.71361,-0.02117899,0.85035
461.255,146.195,-2.71484,-0.02029719,0.84982
461.955,146.427,-2.71516,-0.0174681,0.84928
462.655,146.658,-2.71612,-0.0151711,0.84875
463.355,146.89,-2.71637,-0.01348941,0.84821
464.055,147.122,-2.71769,-0.01402849,0.84767
464.755,147.353,-2.71795,-0.01082361,0.84714
465.455,147.5842,-2.719,-0.01003748,0.8466
466.155,147.816,-2.72032,-0.01249288,0.84606
466.855,148.048,-2.72062,-0.009924994,0.84552
467.555,148.2795,-2.72295,-0.01302565,0.84498
468.255,148.511,-2.72295,-0.01194441,0.84444
468.955,148.7424,-2.7256,-0.01469423,0.8439
469.655,148.975,-2.72626,-0.01527913,0.84336
470.355,149.207,-2.72551,-0.01479986,0.84282
471.055,149.44,-2.72659,-0.01576679,0.84227
471.755,149.674,-2.72629,-0.02002545,0.84173
472.455,149.909,-2.72865,-0.02005444,0.84119
473.155,150.142,-2.72868,-0.02151781,0.84064
473.855,150.375,-2.72997,-0.02324122,0.8401
474.555,150.607,-2.73136,-0.02341082,0.83956
475.255,150.839,-2.73129,-0.02547391,0.83901
475.955,151.071,-2.73262,-0.02683489,0.83846
476.655,151.3035,-2.73359,-0.02646307,0.83792
477.355,151.536,-2.73524,-0.02785317,0.83737
478.055,151.767,-2.7359,-0.0287772,0.83682
478.755,151.999,-2.73524,-0.03311955,0.83628
479.455,152.231,-2.73652,-0.02997824,0.83573
480.155,152.463,-2.73721,-0.03438716,0.83518
480.855,152.695,-2.73791,-0.03372334,0.83463
481.555,152.927,-2.7405,-0.04066772,0.83408
482.255,153.16,-2.73919,-0.03925621,0.83353
482.955,153.392,-2.73928,-0.04096915,0.83298
483.655,153.625,-2.74017,-0.0440821,0.83243
484.355,153.856,-2.74116,-0.04259405,0.83188
485.055,154.088,-2.7429,-0.04202753,0.83132
485.755,154.32,-2.74411,-0.04439992,0.83077
486.455,154.553,-2.74429,-0.04574731,0.83022
487.155,154.785,-2.74543,-0.04540832,0.82966
487.855,155.017,-2.74479,-0.04729798,0.82911
488.555,155.251,-2.74633,-0.05012719,0.82855
489.255,155.485,-2.74742,-0.05214043,0.828
489.955,155.72,-2.74643,-0.04891527,0.82744
490.655,155.9531,-2.74842,-0.04915648,0.82689
491.355,156.187,-2.74913,-0.04980598,0.82633
492.055,156.42,-2.75037,-0.05171314,0.82577
492.755,156.6538,-2.75038,-0.05341487,0.82522
493.455,156.887,-2.75025,-0.05121832,0.82466
494.155,157.12,-2.75137,-0.05345693,0.8241
494.855,157.3519,-2.75399,-0.05353859,0.82354
495.555,157.584,-2.75268,-0.05503312,0.82298
496.255,157.816,-2.75268,-0.05402471,0.82242
496.955,158.048,-2.75529,-0.05392258,0.82186
497.655,158.279,-2.75596,-0.05999872,0.8213
498.355,158.511,-2.75599,-0.06193049,0.82074
499.055,158.744,-2.75601,-0.06562657,0.82018
499.755,158.977,-2.75631,-0.06568692,0.81961
500.455,159.2101,-2.75762,-0.06679388,0.81905
501.155,159.444,-2.75866,-0.06812467,0.81849
501.855,159.678,-2.75991,-0.07006873,0.81792
502.555,159.912,-2.76025,-0.07115492,0.81736
503.255,160.146,-2.76025,-0.07229068,0.81679
503.955,160.38,-2.76092,-0.07317348,0.81623
504.655,160.613,-2.76156,-0.07434594,0.81566
505.355,160.846,-2.76288,-0.07316977,0.8151
506.055,161.077,-2.76354,-0.07368287,0.81453
506.755,161.309,-2.7642,-0.07457026,0.81396
507.455,161.5416,-2.7655,-0.07628073,0.8134
508.155,161.775,-2.76552,-0.07310786,0.81283
508.855,162.01,-2.76487,-0.0776694,0.81226
509.555,162.244,-2.76617,-0.07675994,0.81169
510.255,162.477,-2.76746,-0.07780502,0.81112
510.955,162.71,-2.76749,-0.07782241,0.81055
511.655,162.944,-2.76749,-0.07572315,0.80998
512.355,163.177,-2.76847,-0.07861477,0.80941
513.055,163.411,-2.76782,-0.07972815,0.80884
513.755,163.644,-2.76943,-0.07856289,0.80827
514.455,163.8781,-2.76946,-0.07957955,0.8077
515.155,164.111,-2.76946,-0.07760006,0.80712
515.855,164.345,-2.77077,-0.07940156,0.80655
516.555,164.578,-2.77045,-0.07908017,0.80598
517.255,164.811,-2.77078,-0.07960391,0.8054
517.955,165.045,-2.77206,-0.07841907,0.80483
518.655,165.278,-2.77242,-0.08110375,0.80426
519.355,165.5103,-2.77341,-0.07884624,0.80368
520.055,165.743,-2.77341,-0.08058685,0.80311
520.755,165.976,-2.77473,-0.08032745,0.80253
521.455,166.21,-2.77601,-0.07886208,0.80195
522.155,166.443,-2.77607,-0.08004835,0.80138
522.855,166.6757,-2.77538,-0.08112243,0.8008
523.555,166.908,-2.77537,-0.07905031,0.80022
524.255,167.142,-2.77682,-0.07964652,0.79964
524.955,167.375,-2.7767,-0.08051801,0.79906
525.655,167.609,-2.77813,-0.07989287,0.79849
526.355,167.842,-2.77792,-0.07906296,0.79791
527.055,168.075,-2.77723,-0.08370278,0.79733
527.755,168.3078,-2.77999,-0.08583811,0.79675
528.455,168.542,-2.77867,-0.08448808,0.79617
529.155,168.776,-2.78065,-0.08378228,0.79558
529.855,169.01,-2.78009,-0.08597171,0.795
530.555,169.244,-2.78096,-0.08218479,0.79442
531.255,169.476,-2.782,-0.08207202,0.79384
531.955,169.71,-2.78328,-0.08188771,0.79326
532.655,169.943,-2.78163,-0.08470352,0.79267
533.355,170.176,-2.78429,-0.08388499,0.79209
534.055,170.4096,-2.78491,-0.08408722,0.79151
534.755,170.642,-2.78493,-0.08527391,0.79092
535.455,170.875,-2.78591,-0.08258051,0.79034
536.155,171.109,-2.78591,-0.08430905,0.78975
536.855,171.344,-2.78727,-0.08318864,0.78917
537.555,171.578,-2.78864,-0.08246484,0.78858
538.255,171.813,-2.78854,-0.08452463,0.78799
538.955,172.049,-2.78754,-0.08570739,0.78741
539.655,172.283,-2.78957,-0.08761572,0.78682
540.355,172.518,-2.78855,-0.08381588,0.78623
541.055,172.752,-2.78986,-0.08572119,0.78564
541.755,172.987,-2.78953,-0.08401018,0.78505
542.455,173.22,-2.78983,-0.07979251,0.78447
543.155,173.453,-2.79118,-0.08357098,0.78388
543.855,173.687,-2.79118,-0.08042185,0.78329
544.555,173.921,-2.79216,-0.08320807,0.7827
545.255,174.155,-2.79216,-0.08645644,0.78211
545.955,174.389,-2.79322,-0.08875726,0.78151
546.655,174.622,-2.79315,-0.08580424,0.78092
547.355,174.855,-2.79184,-0.08624982,0.78033
548.055,175.088,-2.79527,-0.08667648,0.77974
548.755,175.321,-2.79513,-0.08454996,0.77915
549.455,175.555,-2.79607,-0.08828211,0.77855
550.155,175.789,-2.79578,-0.0843717,0.77796
550.855,176.023,-2.7971,-0.08898756,0.77737
551.555,176.255,-2.7965,-0.08962603,0.77677
552.255,176.489,-2.79776,-0.08853316,0.77618
552.955,176.722,-2.79776,-0.08790805,0.77558
553.655,176.956,-2.79907,-0.08557707,0.77499
554.355,177.19,-2.80039,-0.08993643,0.77439
555.055,177.425,-2.80026,-0.09254128,0.7738
555.755,177.659,-2.80039,-0.08674218,0.7732
556.455,177.894,-2.80171,-0.08864705,0.77261
557.155,178.128,-2.80171,-0.09062669,0.77201
557.855,178.363,-2.80285,-0.09296296,0.77141
558.555,178.598,-2.80236,-0.08749948,0.77081
559.255,178.833,-2.80434,-0.08684134,0.77021
559.955,179.069,-2.80401,-0.08942378,0.76962
560.655,179.305,-2.80467,-0.08790088,0.76902
561.355,179.54,-2.80464,-0.08667337,0.76842
562.055,179.776,-2.80532,-0.0869088,0.76782
562.755,180.012,-2.80564,-0.08545472,0.76722
563.455,180.249,-2.80598,-0.08678802,0.76662
564.155,180.487,-2.80467,-0.08796353,0.76602
564.855,180.722,-2.80664,-0.08518125,0.76542
565.555,180.955,-2.8073,-0.08570008,0.76481
566.255,181.187,-2.80796,-0.08323434,0.76421
566.955,181.418,-2.80796,-0.08298577,0.76361
567.655,181.649,-2.80731,-0.08218224,0.76301
568.355,181.881,-2.80796,-0.08345684,0.76241
569.055,182.114,-2.80923,-0.08239352,0.7618
569.755,182.347,-2.80928,-0.08566051,0.7612
570.455,182.582,-2.80994,-0.08670523,0.76059
571.155,182.817,-2.80994,-0.0889593,0.75999
571.855,183.054,-2.81191,-0.08906711,0.75939
572.555,183.291,-2.81125,-0.08609834,0.75878
573.255,183.528,-2.81125,-0.08810408,0.75818
573.955,183.764,-2.81125,-0.08411347,0.75757
574.655,184.001,-2.81388,-0.08515472,0.75696
575.355,184.236,-2.81422,-0.0888028,0.75636
576.055,184.47,-2.81389,-0.08966654,0.75575
576.755,184.704,-2.8152,-0.09087476,0.75514
577.455,184.938,-2.81619,-0.08556425,0.75454
578.155,185.173,-2.81619,-0.08415345,0.75393
578.855,185.407,-2.81635,-0.08228857,0.75332
579.555,185.642,-2.81685,-0.08453215,0.75271
580.255,185.876,-2.81723,-0.08238669,0.7521
580.955,186.111,-2.81689,-0.08158936,0.75149
581.655,186.345,-2.81811,-0.07565719,0.75088
582.355,186.579,-2.81768,-0.08065871,0.75027
583.055,186.813,-2.81849,-0.07560672,0.74966
583.755,187.045,-2.8198,-0.07894276,0.74905
584.455,187.279,-2.81976,-0.07910575,0.74844
585.155,187.5135,-2.82077,-0.0807815,0.74783
585.855,187.749,-2.82212,-0.0785656,0.74722
586.555,187.984,-2.8208,-0.07799212,0.74661
587.255,188.22,-2.82211,-0.07716283,0.746
587.955,188.454,-2.8234,-0.07610558,0.74538
588.655,188.689,-2.82441,-0.07376033,0.74477
589.355,188.924,-2.82441,-0.07617474,0.74416
590.055,189.159,-2.82633,-0.07308674,0.74355
590.755,189.394,-2.82706,-0.07364187,0.74293
591.455,189.629,-2.82808,-0.07165575,0.74232
592.155,189.865,-2.82804,-0.07440903,0.7417
592.855,190.1,-2.82938,-0.07235138,0.74109
593.555,190.335,-2.82938,-0.0683421,0.74047
594.255,190.569,-2.8311,-0.06350384,0.73986
594.955,190.805,-2.83067,-0.06694809,0.73924
595.655,191.039,-2.83219,-0.06307425,0.73863
596.355,191.2747,-2.83329,-0.06406219,0.73801
597.055,191.51,-2.83461,-0.06124041,0.73739
597.755,191.746,-2.83456,-0.05976851,0.73678
598.455,191.982,-2.83692,-0.05764514,0.73616
599.155,192.2179,-2.83692,-0.05984881,0.73554
599.855,192.454,-2.83823,-0.05677585,0.73493
600.555,192.689,-2.83922,-0.05571496,0.73431
601.255,192.923,-2.84299,-0.0534562,0.73369
601.955,193.156,-2.83938,-0.05421746,0.73307
602.655,193.3894,-2.8414,-0.04960801,0.73245
603.355,193.624,-2.84273,-0.04976095,0.73183
604.055,193.858,-2.84505,-0.04979004,0.73121
604.755,194.093,-2.84507,-0.04634914,0.73059
605.455,194.328,-2.84635,-0.04361273,0.72997
606.155,194.563,-2.84668,-0.04263043,0.72935
606.855,194.799,-2.848,-0.04446264,0.72873
607.555,195.034,-2.85064,-0.03967181,0.72811
608.255,195.27,-2.85062,-0.03883402,0.72749
608.955,195.5063,-2.85196,-0.03560522,0.72687
609.655,195.7425,-2.85288,-0.03545613,0.72625
610.355,195.978,-2.85458,-0.03776611,0.72562
611.055,196.215,-2.85458,-0.03743853,0.725
611.755,196.451,-2.85719,-0.03615425,0.72438
612.455,196.6873,-2.85853,-0.03319522,0.72376
613.155,196.9224,-2.85887,-0.03535793,0.72313
613.855,197.1576,-2.85984,-0.02965357,0.72251
614.555,197.391,-2.86248,-0.03142741,0.72189
615.255,197.624,-2.86517,-0.02877421,0.72126
615.955,197.856,-2.86638,-0.02996143,0.72064
616.655,198.09,-2.86774,-0.02611396,0.72001
617.355,198.324,-2.8694,-0.02211862,0.71939
618.055,198.559,-2.86971,-0.02198465,0.71876
618.755,198.793,-2.87129,-0.01557594,0.71814
619.455,199.029,-2.87401,-0.01299975,0.71751
620.155,199.2647,-2.87399,-0.01193828,0.71689
620.855,199.5,-2.87705,-0.009579461,0.71626
621.555,199.736,-2.87926,-0.008755409,0.71563
622.255,199.971,-2.87983,-0.004050963,0.71501
622.955,200.206,-2.88255,-0.00663855,0.71438
623.655,200.439,-2.88422,-0.00170086,0.71375
624.355,200.673,-2.88484,0.002434988,0.71313
625.055,200.908,-2.88748,0.002349789,0.7125
625.755,201.144,-2.8888,0.00436269,0.71187
626.455,201.379,-2.89236,0.009973009,0.71124
627.155,201.615,-2.89373,0.01160942,0.71061
627.855,201.851,-2.89548,0.01399192,0.70999
628.555,202.087,-2.89637,0.01568109,0.70936
629.255,202.323,-2.89936,0.01390698,0.70873
629.955,202.558,-2.90095,0.01746195,0.7081
630.655,202.7937,-2.90294,0.01817867,0.70747
631.355,203.03,-2.90692,0.02314392,0.70684
632.055,203.2654,-2.90888,0.02166966,0.70621
632.755,203.501,-2.90963,0.02270222,0.70558
633.455,203.736,-2.91215,0.02173857,0.70495
634.155,203.971,-2.91388,0.02380502,0.70432
634.855,204.207,-2.91575,0.02417534,0.70368
635.555,204.442,-2.91883,0.02878942,0.70305
636.255,204.678,-2.92092,0.03025973,0.70242
636.955,204.914,-2.9236,0.03144304,0.70179
637.655,205.151,-2.9244,0.0308462,0.70116
638.355,205.387,-2.92626,0.0323471,0.70053
639.055,205.622,-2.93025,0.03853053,0.69989
639.755,205.857,-2.93157,0.03370107,0.69926
640.455,206.092,-2.93527,0.03414835,0.69863
641.155,206.3269,-2.93538,0.03516425,0.69799
641.855,206.5622,-2.93815,0.04125017,0.69736
642.555,206.798,-2.94079,0.03965674,0.69673
643.255,207.032,-2.94309,0.04340348,0.69609
643.955,207.267,-2.94607,0.04257096,0.69546
644.655,207.502,-2.9483,0.04374446,0.69482
645.355,207.7369,-2.95,0.04011528,0.69419
646.055,207.973,-2.95261,0.04116132,0.69356
646.755,208.209,-2.95469,0.04008623,0.69292
647.455,208.445,-2.95724,0.03932117,0.69229
648.155,208.681,-2.95886,0.03729915,0.69165
648.855,208.916,-2.96023,0.03821023,0.69101
649.555,209.152,-2.96299,0.03852294,0.69038
650.255,209.386,-2.96646,0.03515573,0.68974
650.955,209.621,-2.96925,0.02983607,0.68911
651.655,209.856,-2.96909,0.0311168,0.68847
652.355,210.091,-2.97039,0.03178443,0.68783
653.055,210.326,-2.9737,0.03324384,0.6872
653.755,210.562,-2.97496,0.02970351,0.68656
654.455,210.798,-2.97659,0.02673445,0.68592
655.155,211.033,-2.97897,0.02640359,0.68528
655.855,211.269,-2.98157,0.02331051,0.68465
656.555,211.504,-2.98292,0.02319596,0.68401
657.255,211.742,-2.98412,0.02099915,0.68337
657.955,211.978,-2.98521,0.01740772,0.68273
658.655,212.214,-2.98686,0.01562552,0.68209
659.355,212.45,-2.98818,0.01233469,0.68146
660.055,212.686,-2.98949,0.007061285,0.68082
660.755,212.923,-2.99213,0.0007798838,0.68018
661.455,213.159,-2.99341,-0.004684216,0.67954
662.155,213.395,-2.9941,-0.009452464,0.6789
662.855,213.63,-2.99541,-0.02526901,0.67826
663.555,213.865,-2.99806,-0.03749146,0.67762
664.255,214.101,-2.99812,-0.05480883,0.67698
664.955,214.338,-2.99808,-0.07090947,0.67634
665.655,214.575,-2.99805,-0.07812967,0.6757
666.355,214.813,-2.99943,-0.0842495,0.67506
667.055,215.05,-2.99936,-0.08515998,0.67442
667.755,215.285,-3.00068,-0.08826494,0.67378
668.455,215.52,-3.00084,-0.08771452,0.67314
669.155,215.755,-3.00101,-0.08797852,0.6725
669.855,215.99,-3.00266,-0.08585006,0.67185
670.555,216.226,-3.00265,-0.08494824,0.67121
671.255,216.4625,-3.00284,-0.08725024,0.67057
671.955,216.699,-3.00232,-0.08510377,0.66993
672.655,216.935,-3.00364,-0.08459761,0.66929
673.355,217.171,-3.00284,-0.08678799,0.66864
674.055,217.409,-3.00529,-0.08824844,0.668
674.755,217.6471,-3.00397,-0.08366896,0.66736
675.455,217.884,-3.00528,-0.0855304,0.66672
676.155,218.12,-3.00528,-0.08458774,0.66607
676.855,218.356,-3.00528,-0.08024456,0.66543
677.555,218.592,-3.00638,-0.07940865,0.66479
678.255,218.827,-3.00675,-0.080633,0.66414
678.955,219.062,-3.00644,-0.07896981,0.6635
679.655,219.296,-3.00723,-0.08427508,0.66286
680.355,219.53,-3.00726,-0.07942592,0.66221
681.055,219.764,-3.00848,-0.07899639,0.66157
681.755,219.998,-3.0089,-0.08375373,0.66093
682.455,220.233,-3.0089,-0.08486387,0.66028
683.155,220.469,-3.00892,-0.08229485,0.65964
683.855,220.706,-3.00952,-0.0814035,0.65899
684.555,220.944,-3.00986,-0.08152129,0.65835
685.255,221.182,-3.00989,-0.08347358,0.6577
685.955,221.419,-3.01121,-0.07647868,0.65706
686.655,221.657,-3.00989,-0.07715157,0.65641
687.355,221.894,-3.01121,-0.07693186,0.65577
688.055,222.13,-3.01253,-0.07728951,0.65512
688.755,222.366,-3.01154,-0.07397248,0.65448
689.455,222.601,-3.01285,-0.07411215,0.65383
690.155,222.836,-3.01234,-0.07055131,0.65319
690.855,223.071,-3.01302,-0.07003095,0.65254
691.555,223.306,-3.0128,-0.06816169,0.65189
692.255,223.542,-3.01389,-0.0738842,0.65125
692.955,223.777,-3.01451,-0.06669798,0.6506
693.655,224.013,-3.01384,-0.0674971,0.64996
694.355,224.249,-3.01483,-0.06735173,0.64931
695.055,224.485,-3.0156,-0.06517264,0.64866
695.755,224.721,-3.01481,-0.06410038,0.64802
696.455,224.958,-3.0158,-0.06695366,0.64737
697.155,225.195,-3.01581,-0.06257412,0.64672
697.855,225.433,-3.01647,-0.05976904,0.64607
698.555,225.67,-3.01634,-0.06209256,0.64543
699.255,225.9069,-3.01815,-0.05867871,0.64478
699.955,226.142,-3.01812,-0.0574295,0.64413
700.655,226.379,-3.01779,-0.05914531,0.64348
701.355,226.614,-3.01951,-0.05876267,0.64284
702.055,226.8498,-3.01877,-0.05426273,0.64219
702.755,227.084,-3.01943,-0.05376329,0.64154
703.455,227.32,-3.01944,-0.0584071,0.64089
704.155,227.5552,-3.01975,-0.05419634,0.64024
704.855,227.791,-3.01842,-0.0525437,0.6396
705.555,228.028,-3.01848,-0.05149035,0.63895
706.255,228.264,-3.01977,-0.0526723,0.6383
706.955,228.502,-3.02109,-0.05258464,0.63765
707.655,228.74,-3.02076,-0.04981042,0.637
708.355,228.978,-3.02107,-0.04972374,0.63635
709.055,229.215,-3.02207,-0.04921764,0.6357
709.755,229.451,-3.02041,-0.05024714,0.63506
710.455,229.687,-3.02197,-0.05027069,0.63441
711.155,229.922,-3.02074,-0.05287943,0.63376
711.855,230.157,-3.02305,-0.05559331,0.63311
712.555,230.394,-3.02239,-0.05261677,0.63246
713.255,230.63,-3.02206,-0.0529056,0.63181
713.955,230.867,-3.02338,-0.05486713,0.63116
714.655,231.103,-3.02338,-0.05007725,0.63051
715.355,231.341,-3.02205,-0.05021665,0.62986
716.055,231.578,-3.0224,-0.05225554,0.62921
716.755,231.817,-3.02373,-0.05366809,0.62856
717.455,232.055,-3.02273,-0.05341419,0.62791
718.155,232.292,-3.02273,-0.05224803,0.62726
718.855,232.5277,-3.02572,-0.05566991,0.62661
719.555,232.763,-3.02438,-0.05415827,0.62596
720.255,233,-3.02536,-0.05584738,0.62531
720.955,233.236,-3.02673,-0.05519485,0.62466
721.655,233.474,-3.02536,-0.05268819,0.62401
722.355,233.712,-3.02601,-0.04650223,0.62336
723.055,233.95,-3.02569,-0.04820725,0.62271
723.755,234.187,-3.02508,-0.048359,0.62206
724.455,234.423,-3.0269,-0.04730039,0.62141
725.155,234.658,-3.02635,-0.04506142,0.62076
725.855,234.894,-3.02734,-0.04454272,0.62011
726.555,235.13,-3.02733,-0.04089395,0.61946
727.255,235.368,-3.02767,-0.04155245,0.61881
727.955,235.606,-3.0273,-0.04019794,0.61815
728.655,235.844,-3.02766,-0.04310218,0.6175
729.355,236.081,-3.02964,-0.04560473,0.61685
730.055,236.318,-3.02731,-0.04425137,0.6162
730.755,236.555,-3.02865,-0.04877408,0.61555
731.455,236.791,-3.02851,-0.04597106,0.6149
732.155,237.028,-3.02966,-0.04502669,0.61425
732.855,237.264,-3.02963,-0.04389855,0.6136
733.555,237.501,-3.02961,-0.04003175,0.61294
734.255,237.7372,-3.02988,-0.04576551,0.61229
734.955,237.9744,-3.03095,-0.04651446,0.61164
735.655,238.212,-3.03261,-0.04706163,0.61099
736.355,238.45,-3.03162,-0.04768296,0.61034
737.055,238.688,-3.03262,-0.05014769,0.60969
737.755,238.923,-3.03219,-0.04890719,0.60903
738.455,239.159,-3.03123,-0.05374677,0.60838
739.155,239.394,-3.0326,-0.04778844,0.60773
739.855,239.629,-3.03259,-0.04727075,0.60708
740.555,239.865,-3.03257,-0.04866982,0.60643
741.255,240.1,-3.0339,-0.04587279,0.60578
741.955,240.338,-3.0326,-0.04768212,0.60512
742.655,240.575,-3.03384,-0.04711413,0.60447
743.355,240.8127,-3.0326,-0.05061853,0.60382
744.055,241.049,-3.03392,-0.04943988,0.60317
744.755,241.285,-3.03392,-0.04838363,0.60252
745.455,241.521,-3.03293,-0.04869837,0.60186
746.155,241.7591,-3.03266,-0.05120689,0.60121
746.855,241.998,-3.03522,-0.05043722,0.60056
747.555,242.235,-3.03527,-0.05296626,0.59991
748.255,242.472,-3.03556,-0.05066183,0.59926
748.955,242.709,-3.03556,-0.05277493,0.5986
749.655,242.945,-3.03655,-0.05222183,0.59795
750.355,243.181,-3.03554,-0.05731435,0.5973
751.055,243.417,-3.03556,-0.0546686,0.59665
751.755,243.653,-3.0242,-0.05710881,0.59599
752.455,243.89,-3.0334,-0.05779698,0.59534
753.155,244.128,-3.045,-0.05337671,0.59469
753.855,244.365,-3.04006,-0.0502315,0.59404
754.555,244.604,-3.0373,-0.05155605,0.59339
755.255,244.841,-3.03535,-0.05261177,0.59273
755.955,245.077,-3.03315,-0.05340012,0.59208
756.655,245.311,-3.03727,-0.04908846,0.59143
757.355,245.546,-3.04781,-0.04848851,0.59078
758.055,245.782,-3.04471,-0.04970146,0.59012
758.755,246.019,-3.03943,-0.05496299,0.58947
759.455,246.257,-3.03932,-0.05992989,0.58882
760.155,246.495,-3.03676,-0.05916783,0.58817
760.855,246.734,-3.03709,-0.05939044,0.58751
761.555,246.972,-3.03641,-0.06267168,0.58686
762.255,247.209,-3.037,-0.05734996,0.58621
762.955,247.447,-3.03711,-0.0634513,0.58556
763.655,247.684,-3.0371,-0.05567566,0.5849
764.355,247.919,-3.0371,-0.05854553,0.58425
765.055,248.153,-3.03841,-0.05529293,0.5836
765.755,248.387,-3.03842,-0.05720733,0.58295
766.455,248.6225,-3.03923,-0.05857683,0.5823
767.155,248.858,-3.03841,-0.06325506,0.58164
767.855,249.0961,-3.03842,-0.06653277,0.58099
768.555,249.334,-3.03817,-0.06437358,0.58034
769.255,249.572,-3.03874,-0.06665695,0.57969
769.955,249.809,-3.03802,-0.07192511,0.57903
770.655,250.046,-3.04063,-0.07084829,0.57838
771.355,250.283,-3.0394,-0.07153197,0.57773
772.055,250.52,-3.04077,-0.07360183,0.57708
772.755,250.756,-3.03943,-0.07460611,0.57643
773.455,250.991,-3.04203,-0.07539392,0.57577
774.155,251.227,-3.03973,-0.07773641,0.57512
774.855,251.4629,-3.04097,-0.0686645,0.57447
775.555,251.7,-3.04104,-0.07146044,0.57382
776.255,251.939,-3.04137,-0.0694578,0.57317
776.955,252.179,-3.04136,-0.06993733,0.57251
777.655,252.418,-3.04038,-0.07023234,0.57186
778.355,252.657,-3.04138,-0.06956107,0.57121
779.055,252.895,-3.04072,-0.07541849,0.57056
779.755,253.132,-3.04069,-0.07448389,0.56991
780.455,253.369,-3.04235,-0.07341893,0.56925
781.155,253.605,-3.04139,-0.07372074,0.5686
781.855,253.841,-3.04199,-0.07444678,0.56795
782.555,254.077,-3.0427,-0.08018397,0.5673
783.255,254.313,-3.04112,-0.08160648,0.56665
783.955,254.549,-3.04236,-0.0804177,0.566
784.655,254.784,-3.04138,-0.07697175,0.56534
785.355,255.021,-3.04269,-0.08274985,0.56469
786.055,255.258,-3.04269,-0.08170996,0.56404
786.755,255.496,-3.04368,-0.08326348,0.56339
787.455,255.735,-3.04335,-0.08547629,0.56274
788.155,255.974,-3.04203,-0.08073779,0.56209
788.855,256.213,-3.04204,-0.08204271,0.56144
789.555,256.452,-3.04237,-0.07761171,0.56079
790.255,256.6895,-3.04367,-0.08293261,0.56013
790.955,256.928,-3.04367,-0.08213008,0.55948
791.655,257.165,-3.04273,-0.08534401,0.55883
792.355,257.402,-3.04537,-0.08910009,0.55818
793.055,257.638,-3.04468,-0.08728926,0.55753
793.755,257.874,-3.044,-0.08659857,0.55688
794.455,258.109,-3.04484,-0.08842306,0.55623
795.155,258.344,-3.04465,-0.08647968,0.55558
795.855,258.58,-3.04466,-0.08962958,0.55493
796.555,258.815,-3.04532,-0.08931889,0.55428
797.255,259.051,-3.04474,-0.09258575,0.55363
797.955,259.288,-3.04631,-0.08571205,0.55298
798.655,259.526,-3.04632,-0.08891055,0.55233
799.355,259.765,-3.0463,-0.08579736,0.55168
799.955,259.97,-3.0463,-0.08565619,0.55112