File: 01_Data/Vinyl_Covering_82A/MCC/Vinyl_Covering_82A_MCC_30K_min_220302_R1.txt
Sample ID:	C:\MCC\MCC Cal\Test\Vinyl_Covering_81A_MCC_30K_min_220302_R1.txt
Sample Weight (mg):	4.6
Heating Rate (C/s):	0.5
Combustor Temp (C):	900
N2 Flow Rate (cc/min):	80
O2 Flow Rate (cc/min):	20
Calibration File:	C:\MCC\MCC Cal\Coeff1 JN10440_30_210304.txt.txt
T Correction Coefficients:	0	1.024463	0
Time Shift (s):	14
*
Time (s)	Temperature (C)	N2 flow rate (cc/min)	O2 flow rate (cc/min)	Flow Rate (cc/min)	Oxygen (%)	HRR (W/g)	Heating rate (C/s)
-0.001	115.463	80.005	19.994	103.597	19.915	0.465	-0.002
1.500	115.449	80.007	19.998	103.607	19.918	0.311	-0.047
2.999	115.457	80.004	19.996	103.610	19.917	0.356	0.021
4.499	115.426	80.004	19.995	103.603	19.917	0.342	-0.028
6.000	115.447	80.004	19.994	103.605	19.914	0.565	-0.001
7.499	115.439	80.004	19.994	103.606	19.916	0.452	0.003
9.000	115.487	80.004	19.994	103.621	19.918	0.288	0.012
10.499	115.454	80.005	19.994	103.626	19.918	0.265	-0.034
12.000	115.442	80.003	19.995	103.626	19.915	0.475	-0.003
13.500	115.416	80.005	19.994	103.628	19.913	0.655	-0.028
14.999	115.425	80.005	19.993	103.628	19.914	0.556	-0.020
16.499	115.438	80.004	19.992	103.624	19.910	0.870	0.002
17.999	115.416	80.005	19.993	103.641	19.907	1.057	-0.005
19.500	115.427	80.004	19.993	103.656	19.905	1.229	0.008
20.999	115.437	80.005	19.995	103.691	19.903	1.348	-0.008
22.499	115.490	80.005	19.995	103.724	19.899	1.599	0.052
23.999	115.543	80.005	19.994	103.757	19.893	2.065	0.045
25.499	115.585	80.004	19.993	103.785	19.893	2.030	0.033
26.999	115.708	80.004	19.994	103.790	19.890	2.252	0.100
28.500	115.797	80.004	19.994	103.794	19.888	2.381	0.035
29.999	115.936	80.004	19.994	103.797	19.886	2.561	0.085
31.499	116.085	80.003	19.993	103.813	19.883	2.753	0.093
32.999	116.210	80.004	19.994	103.829	19.877	3.170	0.097
34.500	116.403	80.004	19.993	103.831	19.881	2.916	0.148
35.999	116.641	80.004	19.994	103.825	19.879	3.009	0.173
37.499	116.878	80.004	19.994	103.830	19.878	3.115	0.147
38.999	117.116	80.005	19.993	103.831	19.875	3.310	0.192
40.500	117.352	80.005	19.993	103.807	19.874	3.379	0.172
41.999	117.652	80.005	19.993	103.765	19.877	3.175	0.194
43.499	117.934	80.007	19.993	103.809	19.872	3.548	0.200
44.999	118.202	80.006	19.994	103.834	19.878	3.136	0.175
46.499	118.527	80.006	19.993	103.869	19.872	3.544	0.225
48.000	118.837	80.006	19.994	103.920	19.877	3.178	0.218
49.500	119.204	80.006	19.993	103.858	19.875	3.308	0.227
50.999	119.542	80.007	19.992	103.845	19.876	3.256	0.230
52.499	119.956	80.006	19.993	103.837	19.880	2.965	0.263
54.000	120.296	80.006	19.993	103.836	19.876	3.217	0.216
55.500	120.704	80.006	19.992	103.835	19.876	3.246	0.267
56.999	121.110	80.005	19.993	103.822	19.878	3.077	0.260
58.499	121.537	80.005	19.994	103.829	19.877	3.160	0.281
60.000	121.937	80.005	19.993	103.840	19.873	3.474	0.269
61.499	122.369	80.005	19.994	103.862	19.874	3.408	0.268
63.000	122.832	80.005	19.993	103.858	19.873	3.435	0.300
64.500	123.241	80.006	19.993	103.843	19.872	3.534	0.282
65.999	123.749	80.006	19.994	103.845	19.871	3.613	0.328
67.499	124.198	80.005	19.994	103.848	19.871	3.576	0.295
68.999	124.665	80.006	19.995	103.860	19.868	3.825	0.317
70.499	125.182	80.007	19.994	103.864	19.870	3.646	0.346
72.000	125.690	80.006	19.993	103.857	19.871	3.584	0.338
73.499	126.171	80.006	19.994	103.860	19.870	3.638	0.326
74.999	126.639	80.009	19.993	103.864	19.871	3.626	0.341
76.499	127.172	80.007	19.993	103.863	19.872	3.495	0.347
77.999	127.707	80.008	19.994	103.868	19.873	3.490	0.361
79.499	128.231	80.007	19.993	103.861	19.870	3.649	0.352
80.999	128.756	80.006	19.995	103.864	19.870	3.682	0.361
82.499	129.366	80.005	19.993	103.869	19.864	4.083	0.427
83.999	129.924	80.004	19.993	103.867	19.867	3.862	0.373
85.499	130.520	80.004	19.994	103.868	19.865	4.014	0.391
86.999	131.069	80.005	19.993	103.868	19.865	3.993	0.370
88.500	131.683	80.004	19.994	103.867	19.864	4.085	0.408
89.999	132.277	80.004	19.994	103.867	19.868	3.781	0.399
91.500	132.887	80.005	19.994	103.869	19.867	3.873	0.401
92.999	133.462	80.003	19.995	103.869	19.869	3.746	0.379
94.499	134.071	80.003	19.994	103.870	19.865	4.022	0.411
96.000	134.679	80.003	19.994	103.871	19.866	3.926	0.430
97.499	135.299	80.005	19.995	103.876	19.866	3.978	0.445
98.999	135.943	80.004	19.994	103.875	19.862	4.217	0.422
100.500	136.582	80.004	19.993	103.871	19.866	3.951	0.400
101.999	137.239	80.006	19.994	103.874	19.862	4.209	0.447
103.500	137.882	80.005	19.993	103.878	19.858	4.494	0.406
104.999	138.560	80.005	19.993	103.878	19.861	4.313	0.454
106.500	139.261	80.005	19.993	103.882	19.861	4.315	0.485
107.999	139.838	80.003	19.993	103.889	19.861	4.315	0.395
109.499	140.611	80.005	19.992	103.883	19.861	4.307	0.524
111.000	141.341	80.005	19.993	103.883	19.860	4.384	0.463
112.500	141.956	80.004	19.993	103.888	19.863	4.166	0.407
113.999	142.706	80.004	19.994	103.888	19.857	4.569	0.516
115.499	143.395	80.006	19.994	103.884	19.861	4.296	0.485
117.000	144.071	80.005	19.992	103.889	19.858	4.509	0.446
118.501	144.796	80.004	19.993	103.892	19.855	4.715	0.489
120.000	145.533	80.004	19.994	103.888	19.857	4.600	0.479
121.500	146.284	80.005	19.993	103.890	19.856	4.681	0.498
122.999	146.983	80.005	19.993	103.878	19.853	4.866	0.478
124.499	147.735	80.006	19.993	103.876	19.856	4.692	0.509
126.000	148.429	80.006	19.995	103.884	19.853	4.892	0.481
127.500	149.220	80.006	19.993	103.883	19.851	4.977	0.537
129.000	149.930	80.007	19.993	103.873	19.852	4.914	0.473
130.500	150.700	80.006	19.993	103.873	19.852	4.954	0.521
132.000	151.448	80.008	19.993	103.874	19.851	5.029	0.490
133.500	152.161	80.007	19.993	103.875	19.850	5.077	0.468
135.000	152.949	80.006	19.993	103.878	19.853	4.898	0.509
136.500	153.662	80.006	19.994	103.875	19.845	5.449	0.485
138.000	154.461	80.006	19.993	103.875	19.846	5.330	0.493
139.500	155.148	80.005	19.993	103.875	19.850	5.072	0.466
141.000	155.911	80.006	19.996	103.869	19.843	5.546	0.499
142.501	156.689	80.006	19.995	103.870	19.849	5.183	0.509
143.999	157.458	80.005	19.993	103.870	19.844	5.501	0.511
145.500	158.226	80.006	19.995	103.870	19.842	5.619	0.526
146.999	158.986	80.006	19.992	103.869	19.846	5.378	0.481
148.499	159.718	80.006	19.993	103.867	19.844	5.484	0.501
150.000	160.520	80.005	19.993	103.869	19.843	5.588	0.519
151.499	161.315	80.006	19.994	103.869	19.843	5.548	0.539
152.999	162.053	80.007	19.993	103.869	19.841	5.748	0.527
154.499	162.833	80.007	19.993	103.868	19.837	6.002	0.540
156.000	163.618	80.006	19.993	103.867	19.839	5.821	0.506
157.499	164.347	80.006	19.994	103.868	19.833	6.293	0.490
158.999	165.205	80.006	19.994	103.867	19.832	6.320	0.567
160.499	165.955	80.006	19.994	103.863	19.829	6.528	0.507
161.999	166.735	80.006	19.994	103.869	19.832	6.323	0.531
163.499	167.513	80.005	19.993	103.869	19.831	6.411	0.523
164.999	168.243	80.003	19.994	103.869	19.824	6.879	0.490
166.499	169.030	80.004	19.994	103.865	19.825	6.874	0.519
167.999	169.801	80.004	19.993	103.859	19.827	6.701	0.538
169.500	170.581	80.003	19.995	103.862	19.823	6.951	0.525
170.999	171.345	80.004	19.995	103.857	19.822	7.047	0.521
172.500	172.084	80.005	19.994	103.854	19.817	7.402	0.500
173.999	172.843	80.003	19.993	103.840	19.816	7.461	0.527
175.500	173.611	80.004	19.994	103.842	19.816	7.473	0.517
176.999	174.347	80.002	19.993	103.853	19.814	7.638	0.480
178.499	175.166	80.003	19.993	103.859	19.813	7.675	0.533
180.000	175.930	80.005	19.994	103.859	19.809	7.958	0.515
181.499	176.641	80.004	19.994	103.852	19.808	8.026	0.472
182.999	177.431	80.003	19.993	103.845	19.806	8.190	0.528
184.499	178.158	80.003	19.994	103.847	19.805	8.222	0.493
186.000	178.887	80.004	19.995	103.845	19.804	8.330	0.478
187.499	179.673	80.005	19.994	103.843	19.801	8.504	0.533
188.999	180.377	80.004	19.994	103.849	19.796	8.851	0.462
190.499	181.160	80.004	19.994	103.845	19.793	9.070	0.527
191.999	181.882	80.002	19.996	103.844	19.792	9.171	0.479
193.499	182.656	80.004	19.996	103.852	19.790	9.300	0.516
194.999	183.418	80.002	19.994	103.846	19.795	8.946	0.507
196.499	184.156	80.004	19.994	103.855	19.789	9.367	0.489
197.999	184.943	80.004	19.994	103.841	19.790	9.328	0.508
199.499	185.679	80.004	19.992	103.837	19.787	9.500	0.495
200.999	186.491	80.004	19.995	103.845	19.788	9.416	0.538
202.499	187.155	80.003	19.994	103.856	19.783	9.806	0.446
203.999	187.883	80.005	19.994	103.841	19.781	9.922	0.499
205.499	188.600	80.005	19.993	103.840	19.780	10.003	0.472
206.999	189.340	80.006	19.993	103.850	19.775	10.370	0.512
208.499	190.106	80.006	19.993	103.845	19.774	10.457	0.513
209.999	190.819	80.004	19.993	103.833	19.773	10.507	0.461
211.500	191.615	80.005	19.993	103.837	19.768	10.827	0.532
212.999	192.321	80.006	19.994	103.836	19.763	11.187	0.475
214.499	193.044	80.006	19.993	103.830	19.760	11.450	0.497
216.000	193.774	80.006	19.994	103.831	19.756	11.678	0.462
217.499	194.555	80.005	19.993	103.831	19.757	11.642	0.516
218.999	195.243	80.006	19.993	103.833	19.753	11.931	0.473
220.500	195.975	80.006	19.994	103.830	19.748	12.270	0.501
221.999	196.721	80.005	19.993	103.826	19.749	12.165	0.510
223.500	197.457	80.005	19.993	103.832	19.744	12.545	0.497
224.999	198.133	80.006	19.994	103.824	19.748	12.297	0.454
226.499	198.860	80.004	19.994	103.826	19.741	12.753	0.475
227.999	199.554	80.006	19.994	103.832	19.738	12.952	0.474
229.499	200.285	80.006	19.992	103.832	19.735	13.169	0.482
230.999	201.002	80.004	19.993	103.830	19.732	13.416	0.481
232.499	201.819	80.007	19.994	103.825	19.731	13.491	0.531
233.999	202.485	80.005	19.993	103.829	19.726	13.814	0.460
235.499	203.202	80.006	19.992	103.833	19.727	13.764	0.481
236.999	203.982	80.007	19.993	103.833	19.719	14.310	0.515
238.499	204.666	80.007	19.993	103.820	19.713	14.707	0.469
239.999	205.446	80.006	19.993	103.821	19.713	14.706	0.541
241.499	206.164	80.005	19.992	103.832	19.711	14.893	0.449
242.999	206.911	80.006	19.992	103.830	19.708	15.109	0.503
244.499	207.634	80.005	19.992	103.827	19.701	15.575	0.476
245.999	208.384	80.006	19.994	103.830	19.702	15.516	0.472
247.499	209.103	80.003	19.993	103.834	19.694	16.039	0.476
248.999	209.850	80.003	19.993	103.828	19.696	15.887	0.482
250.499	210.561	80.004	19.994	103.826	19.687	16.580	0.473
251.999	211.325	80.004	19.994	103.828	19.684	16.769	0.513
253.499	211.997	80.004	19.995	103.829	19.679	17.137	0.473
254.999	212.773	80.006	19.995	103.822	19.676	17.364	0.531
256.500	213.521	80.003	19.994	103.820	19.674	17.456	0.510
258.000	214.261	80.004	19.995	103.820	19.665	18.129	0.495
259.500	214.979	80.004	19.995	103.806	19.658	18.575	0.484
261.000	215.725	80.003	19.994	103.812	19.651	19.062	0.501
262.500	216.481	80.005	19.996	103.820	19.651	19.104	0.512
264.000	217.222	80.005	19.994	103.819	19.641	19.795	0.491
265.500	218.001	80.006	19.995	103.821	19.636	20.119	0.532
267.000	218.720	80.004	19.994	103.813	19.633	20.391	0.465
268.500	219.435	80.005	19.994	103.817	19.625	20.900	0.492
270.000	220.182	80.003	19.993	103.821	19.616	21.570	0.520
271.500	220.881	80.006	19.993	103.814	19.614	21.664	0.478
273.000	221.584	80.003	19.994	103.821	19.608	22.121	0.469
274.500	222.367	80.005	19.994	103.819	19.603	22.505	0.528
276.000	223.151	80.005	19.994	103.819	19.594	23.086	0.522
277.500	223.888	80.005	19.995	103.829	19.590	23.356	0.494
279.000	224.551	80.002	19.994	103.821	19.584	23.819	0.455
280.500	225.321	80.004	19.994	103.815	19.572	24.651	0.526
282.000	226.030	80.003	19.995	103.821	19.571	24.701	0.481
283.500	226.748	80.004	19.995	103.825	19.566	25.102	0.482
285.000	227.527	80.004	19.995	103.825	19.556	25.808	0.518
286.500	228.298	80.003	19.995	103.817	19.553	26.006	0.502
288.000	229.024	80.004	19.995	103.825	19.541	26.814	0.478
289.500	229.792	80.004	19.995	103.832	19.535	27.233	0.491
291.000	230.538	80.005	19.993	103.826	19.525	27.943	0.502
292.500	231.239	80.005	19.994	103.815	19.518	28.466	0.475
294.000	231.978	80.006	19.993	103.817	19.514	28.768	0.470
295.500	232.735	80.005	19.994	103.815	19.506	29.331	0.515
297.000	233.495	80.005	19.993	103.808	19.497	29.919	0.519
298.500	234.263	80.007	19.994	103.814	19.491	30.373	0.524
300.000	234.974	80.006	19.993	103.822	19.485	30.796	0.498
301.500	235.736	80.006	19.994	103.811	19.477	31.366	0.510
303.000	236.495	80.005	19.993	103.811	19.469	31.922	0.513
304.500	237.173	80.005	19.992	103.827	19.461	32.483	0.456
306.000	237.961	80.005	19.993	103.828	19.450	33.212	0.517
307.500	238.741	80.005	19.993	103.818	19.444	33.663	0.508
309.000	239.483	80.004	19.994	103.823	19.431	34.563	0.493
310.500	240.216	80.005	19.995	103.821	19.424	35.065	0.494
312.000	240.978	80.005	19.993	103.818	19.413	35.821	0.516
313.500	241.690	80.005	19.994	103.820	19.405	36.399	0.475
315.000	242.479	80.007	19.993	103.823	19.391	37.381	0.557
316.500	243.181	80.007	19.993	103.828	19.381	38.088	0.494
318.000	243.969	80.007	19.993	103.829	19.372	38.779	0.525
319.500	244.709	80.007	19.994	103.830	19.361	39.506	0.478
321.000	245.483	80.006	19.997	103.833	19.347	40.484	0.512
322.500	246.229	80.008	19.994	103.831	19.337	41.220	0.493
324.000	246.981	80.006	19.994	103.830	19.321	42.343	0.509
325.500	247.693	80.006	19.994	103.829	19.302	43.681	0.474
327.000	248.448	80.006	19.993	103.837	19.282	45.112	0.491
328.500	249.195	80.006	19.994	103.850	19.269	45.990	0.504
330.000	249.979	80.005	19.994	103.854	19.255	46.990	0.509
331.500	250.729	80.005	19.993	103.841	19.253	47.158	0.503
333.000	251.513	80.006	19.993	103.830	19.240	48.027	0.512
334.500	252.294	80.007	19.994	103.820	19.235	48.406	0.511
336.000	252.997	80.005	19.993	103.819	19.229	48.857	0.449
337.500	253.760	80.005	19.994	103.834	19.217	49.704	0.489
339.000	254.505	80.005	19.993	103.853	19.203	50.690	0.502
340.500	255.250	80.004	19.994	103.867	19.195	51.200	0.480
342.000	255.993	80.004	19.994	103.872	19.183	52.106	0.525
343.500	256.778	80.006	19.994	103.871	19.172	52.860	0.530
345.000	257.500	80.006	19.994	103.871	19.159	53.795	0.473
346.500	258.294	80.004	19.994	103.867	19.145	54.787	0.526
348.000	259.057	80.005	19.995	103.863	19.132	55.677	0.511
349.500	259.808	80.005	19.995	103.866	19.120	56.518	0.487
351.000	260.516	80.005	19.995	103.871	19.108	57.357	0.500
352.500	261.256	80.005	19.994	103.872	19.095	58.270	0.496
354.000	262.044	80.005	19.993	103.880	19.078	59.480	0.509
355.500	262.795	80.004	19.994	103.886	19.068	60.185	0.500
357.000	263.548	80.005	19.994	103.878	19.058	60.914	0.510
358.500	264.266	80.004	19.994	103.875	19.046	61.710	0.463
360.000	264.996	80.003	19.994	103.875	19.035	62.535	0.500
361.500	265.728	80.006	19.993	103.881	19.021	63.497	0.490
363.000	266.456	80.003	19.995	103.885	19.006	64.553	0.483
364.500	267.240	80.004	19.994	103.883	18.994	65.376	0.529
366.000	267.975	80.004	19.994	103.878	18.983	66.162	0.508
367.500	268.738	80.003	19.994	103.884	18.972	66.919	0.493
369.000	269.480	80.003	19.993	103.891	18.957	68.002	0.494
370.500	270.226	80.003	19.993	103.891	18.947	68.720	0.520
372.000	271.054	80.004	19.995	103.888	18.937	69.420	0.549
373.500	271.818	80.005	19.994	103.890	18.929	69.948	0.520
375.000	272.579	80.005	19.994	103.883	18.916	70.891	0.526
376.500	273.317	80.004	19.995	103.874	18.906	71.563	0.495
378.000	274.008	80.005	19.995	103.874	18.900	72.004	0.456
379.500	274.834	80.006	19.994	103.874	18.890	72.764	0.550
381.000	275.592	80.005	19.997	103.879	18.882	73.320	0.528
382.500	276.305	80.006	19.994	103.880	18.875	73.762	0.474
384.000	277.114	80.005	19.995	103.876	18.875	73.782	0.557
385.500	277.862	80.005	19.993	103.875	18.865	74.498	0.503
387.000	278.588	80.006	19.994	103.875	18.853	75.308	0.490
388.500	279.330	80.006	19.995	103.882	18.836	76.481	0.484
390.000	280.076	80.005	19.994	103.899	18.821	77.588	0.492
391.500	280.796	80.005	19.993	103.909	18.805	78.733	0.495
393.000	281.585	80.007	19.994	103.897	18.790	79.785	0.508
394.500	282.354	80.007	19.994	103.875	18.781	80.417	0.505
396.000	283.092	80.006	19.992	103.867	18.774	80.902	0.497
397.500	283.846	80.007	19.993	103.850	18.764	81.631	0.535
399.000	284.637	80.007	19.993	103.851	18.760	81.902	0.550
400.500	285.322	80.006	19.993	103.867	18.763	81.659	0.469
402.000	286.107	80.007	19.993	103.878	18.761	81.783	0.531
403.500	286.878	80.007	19.995	103.887	18.756	82.141	0.503
405.000	287.582	80.007	19.994	103.898	18.750	82.608	0.475
406.500	288.334	80.007	19.994	103.903	18.748	82.747	0.490
408.000	289.043	80.006	19.993	103.900	18.742	83.176	0.486
409.500	289.825	80.006	19.994	103.896	18.747	82.860	0.520
411.000	290.547	80.005	19.994	103.889	18.750	82.619	0.487
412.500	291.275	80.004	19.993	103.872	18.753	82.386	0.487
414.000	292.009	80.005	19.994	103.869	18.759	81.920	0.467
415.500	292.778	80.004	19.994	103.880	18.765	81.473	0.520
417.000	293.508	80.004	19.993	103.902	18.766	81.396	0.464
418.500	294.264	80.004	19.994	103.927	18.772	80.942	0.510
420.000	295.011	80.003	19.994	103.966	18.776	80.680	0.502
421.500	295.778	80.004	19.995	103.959	18.790	79.704	0.481
423.000	296.469	80.005	19.994	103.917	18.807	78.532	0.490
424.500	297.201	80.006	19.993	103.867	18.828	77.044	0.497
426.000	297.932	80.004	19.994	103.816	18.864	74.496	0.494
427.500	298.655	80.005	19.994	103.796	18.898	72.136	0.497
429.000	299.371	80.004	19.994	103.792	18.941	69.116	0.504
430.500	300.127	80.004	19.992	103.799	18.974	66.767	0.522
432.000	300.878	80.005	19.993	103.803	19.021	63.486	0.516
433.500	301.610	80.007	19.993	103.805	19.067	60.232	0.479
435.000	302.321	80.006	19.994	103.814	19.112	57.022	0.459
436.500	303.106	80.004	19.993	103.812	19.147	54.560	0.548
438.000	303.795	80.003	19.993	103.804	19.191	51.515	0.456
439.500	304.507	80.002	19.994	103.820	19.233	48.526	0.474
441.000	305.260	80.003	19.997	103.831	19.271	45.845	0.483
442.500	306.016	80.004	19.995	103.836	19.309	43.178	0.510
444.000	306.758	80.003	19.994	103.835	19.344	40.698	0.506
445.500	307.473	80.003	19.995	103.833	19.379	38.220	0.473
447.000	308.208	80.003	19.994	103.828	19.410	36.048	0.493
448.500	308.985	80.005	19.995	103.827	19.440	33.962	0.520
450.000	309.691	80.005	19.994	103.819	19.469	31.925	0.462
451.500	310.455	80.004	19.994	103.819	19.498	29.851	0.498
453.000	311.228	80.005	19.995	103.812	19.522	28.137	0.501
454.500	312.018	80.006	19.994	103.808	19.550	26.188	0.522
456.000	312.770	80.007	19.993	103.814	19.570	24.769	0.500
457.500	313.553	80.005	19.992	103.800	19.588	23.496	0.493
459.000	314.350	80.006	19.993	103.800	19.610	21.966	0.519
460.500	315.084	80.006	19.993	103.800	19.625	20.916	0.489
462.000	315.866	80.005	19.994	103.793	19.642	19.710	0.520
463.500	316.631	80.004	19.994	103.793	19.665	18.074	0.518
465.000	317.396	80.006	19.993	103.791	19.681	16.997	0.522
466.500	318.147	80.005	19.994	103.791	19.692	16.232	0.511
468.000	318.944	80.005	19.994	103.788	19.707	15.142	0.557
469.500	319.669	80.004	19.995	103.790	19.715	14.574	0.477
471.000	320.490	80.004	19.994	103.790	19.730	13.510	0.547
472.500	321.204	80.005	19.994	103.789	19.743	12.637	0.490
474.000	322.008	80.004	19.995	103.791	19.748	12.291	0.529
475.500	322.786	80.004	19.995	103.788	19.756	11.691	0.543
477.000	323.533	80.006	19.994	103.781	19.764	11.114	0.504
478.500	324.326	80.005	19.993	103.783	19.772	10.591	0.522
480.000	325.101	80.006	19.994	103.782	19.778	10.155	0.504
481.500	325.885	80.007	19.993	103.787	19.783	9.798	0.508
483.000	326.682	80.007	19.994	103.780	19.791	9.203	0.535
484.500	327.418	80.008	19.993	103.777	19.796	8.843	0.507
486.000	328.187	80.006	19.992	103.790	19.802	8.472	0.491
487.500	328.975	80.007	19.994	103.784	19.805	8.242	0.513
489.000	329.719	80.006	19.993	103.769	19.806	8.166	0.526
490.500	330.519	80.005	19.992	103.771	19.811	7.853	0.548
492.000	331.315	80.004	19.993	103.769	19.812	7.757	0.501
493.500	332.085	80.004	19.993	103.767	19.819	7.261	0.542
495.000	332.856	80.005	19.993	103.765	19.814	7.580	0.486
496.500	333.638	80.005	19.994	103.763	19.818	7.315	0.533
498.000	334.433	80.004	19.993	103.764	19.818	7.319	0.552
499.500	335.176	80.005	19.994	103.762	19.825	6.856	0.497
501.000	335.972	80.004	19.996	103.772	19.823	7.004	0.530
502.500	336.689	80.004	19.993	103.784	19.824	6.908	0.467
504.000	337.500	80.004	19.995	103.768	19.824	6.932	0.533
505.500	338.247	80.004	19.994	103.759	19.826	6.733	0.508
507.000	339.033	80.004	19.996	103.768	19.830	6.508	0.520
508.500	339.763	80.005	19.994	103.767	19.826	6.798	0.504
510.000	340.494	80.005	19.994	103.757	19.830	6.485	0.490
511.500	341.279	80.005	19.993	103.756	19.831	6.402	0.545
513.000	342.053	80.005	19.995	103.755	19.833	6.302	0.519
514.500	342.781	80.005	19.993	103.769	19.834	6.235	0.492
516.000	343.529	80.003	19.994	103.768	19.830	6.473	0.476
517.500	344.288	80.005	19.994	103.754	19.832	6.329	0.520
519.000	345.050	80.004	19.992	103.754	19.836	6.094	0.505
520.500	345.825	80.004	19.993	103.757	19.833	6.304	0.530
522.000	346.555	80.005	19.992	103.759	19.837	5.981	0.498
523.500	347.365	80.004	19.993	103.762	19.834	6.230	0.537
525.000	348.133	80.005	19.994	103.771	19.837	5.960	0.528
526.500	348.894	80.004	19.994	103.761	19.836	6.050	0.505
528.000	349.658	80.005	19.994	103.757	19.835	6.148	0.502
529.500	350.443	80.006	19.996	103.759	19.841	5.695	0.523
531.000	351.209	80.005	19.996	103.763	19.836	6.049	0.512
532.500	351.947	80.004	19.995	103.761	19.836	6.053	0.502
534.000	352.742	80.005	19.995	103.769	19.834	6.167	0.511
535.500	353.563	80.005	19.994	103.773	19.833	6.271	0.557
537.000	354.327	80.007	19.996	103.770	19.836	6.052	0.517
538.500	355.101	80.005	19.994	103.772	19.835	6.098	0.520
540.000	355.869	80.008	19.995	103.762	19.838	5.927	0.508
541.500	356.640	80.007	19.994	103.755	19.838	5.885	0.528
543.000	357.396	80.006	19.994	103.754	19.838	5.923	0.522
544.500	358.180	80.004	19.993	103.756	19.834	6.198	0.513
546.000	358.961	80.005	19.994	103.755	19.830	6.500	0.516
547.500	359.693	80.005	19.994	103.759	19.836	6.094	0.492
549.000	360.483	80.005	19.994	103.760	19.833	6.287	0.533
550.500	361.252	80.004	19.994	103.758	19.831	6.400	0.513
552.000	362.045	80.006	19.994	103.761	19.832	6.358	0.524
553.500	362.796	80.004	19.994	103.762	19.830	6.485	0.497
555.000	363.560	80.005	19.994	103.758	19.829	6.525	0.507
556.500	364.375	80.005	19.994	103.758	19.829	6.529	0.532
558.000	365.112	80.006	19.994	103.757	19.827	6.689	0.497
559.500	365.852	80.005	19.995	103.767	19.829	6.571	0.508
561.000	366.679	80.006	19.997	103.765	19.822	7.018	0.551
562.500	367.469	80.006	19.997	103.759	19.822	7.029	0.518
564.000	368.264	80.006	19.995	103.764	19.820	7.195	0.529
565.500	369.026	80.006	19.994	103.757	19.823	6.956	0.521
567.000	369.786	80.005	19.994	103.755	19.818	7.343	0.517
568.500	370.538	80.006	19.995	103.755	19.818	7.306	0.481
570.000	371.340	80.005	19.993	103.754	19.818	7.303	0.531
571.500	372.108	80.004	19.993	103.754	19.815	7.514	0.503
573.000	372.889	80.004	19.994	103.756	19.816	7.481	0.542
574.500	373.685	80.006	19.994	103.756	19.811	7.805	0.546
576.000	374.434	80.004	19.993	103.756	19.808	7.999	0.506
577.500	375.210	80.005	19.993	103.754	19.806	8.186	0.515
579.000	376.005	80.004	19.994	103.755	19.807	8.132	0.518
580.500	376.757	80.005	19.993	103.755	19.805	8.255	0.506
582.000	377.513	80.006	19.994	103.755	19.802	8.482	0.517
583.500	378.282	80.007	19.993	103.754	19.801	8.544	0.491
585.000	379.016	80.004	19.994	103.752	19.801	8.546	0.473
586.500	379.793	80.005	19.993	103.753	19.801	8.521	0.514
588.000	380.583	80.005	19.993	103.754	19.796	8.846	0.523
589.500	381.360	80.004	19.994	103.754	19.801	8.550	0.514
591.000	382.090	80.006	19.994	103.754	19.793	9.120	0.465
592.500	382.842	80.005	19.994	103.754	19.791	9.254	0.484
594.000	383.627	80.005	19.994	103.753	19.784	9.749	0.519
595.500	384.404	80.004	19.993	103.754	19.780	9.970	0.525
597.000	385.129	80.004	19.993	103.755	19.778	10.153	0.481
598.500	385.913	80.005	19.994	103.754	19.779	10.061	0.526
600.000	386.702	80.005	19.993	103.752	19.776	10.289	0.523
601.500	387.439	80.004	19.994	103.755	19.775	10.325	0.488
603.000	388.231	80.005	19.993	103.755	19.773	10.500	0.538
604.500	388.957	80.005	19.993	103.754	19.769	10.741	0.477
606.000	389.710	80.004	19.994	103.756	19.772	10.554	0.522
607.500	390.465	80.004	19.993	103.757	19.765	11.025	0.482
609.000	391.216	80.006	19.994	103.759	19.767	10.887	0.488
610.500	391.940	80.006	19.993	103.759	19.762	11.284	0.492
612.000	392.719	80.005	19.994	103.761	19.758	11.563	0.514
613.500	393.497	80.004	19.993	103.758	19.754	11.811	0.511
615.000	394.275	80.007	19.993	103.757	19.751	12.040	0.505
616.500	395.056	80.007	19.994	103.761	19.753	11.913	0.512
618.000	395.803	80.006	19.993	103.760	19.742	12.657	0.503
619.500	396.587	80.006	19.993	103.760	19.741	12.778	0.504
621.000	397.339	80.007	19.996	103.763	19.741	12.736	0.474
622.500	398.077	80.007	19.994	103.764	19.737	13.034	0.506
624.000	398.840	80.006	19.994	103.758	19.734	13.256	0.497
625.500	399.605	80.006	19.995	103.759	19.733	13.316	0.498
627.000	400.397	80.004	19.994	103.762	19.728	13.671	0.531
628.500	401.104	80.005	19.994	103.767	19.725	13.891	0.473
630.000	401.853	80.004	19.995	103.766	19.725	13.870	0.498
631.500	402.610	80.005	19.994	103.760	19.718	14.349	0.502
633.000	403.355	80.006	19.994	103.768	19.717	14.405	0.499
634.500	404.077	80.006	19.995	103.760	19.714	14.676	0.484
636.000	404.845	80.005	19.994	103.757	19.712	14.801	0.522
637.500	405.590	80.006	19.994	103.756	19.707	15.123	0.499
639.000	406.331	80.005	19.994	103.769	19.707	15.109	0.496
640.500	407.098	80.007	19.994	103.760	19.699	15.707	0.516
642.000	407.913	80.007	19.993	103.754	19.698	15.801	0.554
643.500	408.628	80.007	19.994	103.755	19.693	16.152	0.494
645.000	409.340	80.007	19.993	103.755	19.691	16.259	0.473
646.500	410.140	80.007	19.994	103.754	19.690	16.324	0.529
648.000	410.873	80.006	19.994	103.760	19.687	16.546	0.489
649.500	411.621	80.005	19.993	103.775	19.684	16.759	0.514
651.000	412.371	80.006	19.995	103.765	19.680	17.065	0.497
652.500	413.127	80.004	19.993	103.761	19.680	17.067	0.511
654.000	413.905	80.003	19.995	103.762	19.674	17.485	0.508
655.500	414.620	80.003	19.996	103.769	19.670	17.729	0.475
657.000	415.328	80.003	19.995	103.769	19.670	17.756	0.462
658.500	416.098	80.004	19.995	103.758	19.663	18.234	0.508
660.000	416.901	80.004	19.995	103.763	19.663	18.213	0.512
661.500	417.660	80.004	19.995	103.778	19.661	18.362	0.493
663.000	418.412	80.006	19.995	103.763	19.655	18.781	0.505
664.500	419.194	80.004	19.995	103.755	19.654	18.839	0.526
666.000	419.956	80.005	19.996	103.766	19.655	18.834	0.505
667.500	420.701	80.004	19.994	103.769	19.650	19.162	0.506
669.000	421.472	80.006	19.994	103.760	19.648	19.297	0.524
670.500	422.228	80.006	19.994	103.757	19.644	19.551	0.495
672.000	422.963	80.005	19.994	103.758	19.641	19.797	0.493
673.500	423.748	80.005	19.994	103.761	19.636	20.157	0.509
675.000	424.513	80.005	19.993	103.762	19.635	20.237	0.519
676.500	425.307	80.005	19.993	103.766	19.630	20.545	0.548
678.000	426.071	80.004	19.995	103.766	19.626	20.861	0.509
679.500	426.874	80.007	19.995	103.766	19.621	21.174	0.539
681.000	427.618	80.005	19.997	103.763	19.621	21.192	0.506
682.500	428.374	80.004	19.995	103.770	19.620	21.261	0.518
684.000	429.155	80.006	19.993	103.766	19.614	21.658	0.516
685.500	429.902	80.004	19.994	103.758	19.612	21.807	0.515
687.000	430.672	80.002	19.993	103.753	19.607	22.142	0.500
688.500	431.391	80.005	19.993	103.756	19.606	22.241	0.498
690.000	432.180	80.004	19.993	103.755	19.602	22.502	0.522
691.500	432.916	80.003	19.994	103.756	19.598	22.778	0.492
693.000	433.678	80.004	19.995	103.757	19.594	23.104	0.527
694.500	434.464	80.004	19.994	103.759	19.591	23.303	0.526
696.000	435.265	80.005	19.992	103.760	19.586	23.666	0.529
697.500	435.967	80.005	19.994	103.760	19.581	23.974	0.473
699.000	436.762	80.005	19.993	103.757	19.582	23.945	0.540
700.500	437.542	80.007	19.993	103.755	19.583	23.872	0.521
702.000	438.274	80.007	19.993	103.755	19.576	24.345	0.501
703.500	439.054	80.007	19.993	103.756	19.574	24.483	0.493
705.000	439.786	80.006	19.993	103.756	19.572	24.637	0.487
706.500	440.598	80.007	19.993	103.752	19.568	24.943	0.538
708.000	441.325	80.006	19.993	103.751	19.569	24.870	0.472
709.500	442.120	80.005	19.993	103.751	19.563	25.296	0.516
711.000	442.891	80.006	19.992	103.753	19.558	25.606	0.513
712.500	443.646	80.006	19.993	103.752	19.559	25.539	0.497
714.000	444.413	80.006	19.994	103.744	19.556	25.745	0.513
715.500	445.176	80.004	19.993	103.730	19.558	25.642	0.499
717.000	445.925	80.006	19.994	103.735	19.554	25.927	0.496
718.500	446.652	80.005	19.994	103.745	19.553	25.944	0.467
720.000	447.436	80.006	19.994	103.747	19.552	26.014	0.537
721.500	448.215	80.007	19.994	103.743	19.549	26.282	0.531
723.000	448.957	80.006	19.994	103.740	19.554	25.892	0.495
724.500	449.745	80.007	19.995	103.734	19.554	25.909	0.523
726.000	450.482	80.007	19.994	103.728	19.553	25.945	0.508
727.500	451.250	80.008	19.994	103.746	19.554	25.869	0.521
729.000	452.026	80.006	19.993	103.748	19.555	25.865	0.521
730.500	452.790	80.008	19.994	103.749	19.558	25.631	0.514
732.000	453.545	80.007	19.993	103.745	19.558	25.618	0.517
733.500	454.272	80.006	19.995	103.742	19.559	25.567	0.494
735.000	455.036	80.003	19.994	103.733	19.561	25.399	0.504
736.500	455.781	80.005	19.994	103.732	19.564	25.210	0.512
738.000	456.599	80.004	19.993	103.734	19.561	25.397	0.546
739.500	457.358	80.003	19.993	103.742	19.565	25.139	0.520
741.000	458.143	80.003	19.995	103.742	19.566	25.021	0.528
742.500	458.899	80.004	19.995	103.747	19.567	24.964	0.483
744.000	459.690	80.003	19.995	103.738	19.566	25.051	0.513
745.500	460.427	80.003	19.995	103.727	19.569	24.873	0.492
747.000	461.199	80.005	19.994	103.730	19.572	24.596	0.521
748.500	461.905	80.004	19.995	103.725	19.575	24.417	0.456
750.000	462.701	80.004	19.994	103.723	19.578	24.199	0.542
751.500	463.466	80.005	19.995	103.733	19.581	23.969	0.473
753.000	464.218	80.003	19.995	103.737	19.585	23.707	0.515
754.500	464.927	80.004	19.994	103.737	19.586	23.624	0.457
756.000	465.690	80.005	19.994	103.732	19.590	23.354	0.514
757.500	466.396	80.004	19.995	103.721	19.598	22.814	0.499
759.000	467.169	80.004	19.994	103.720	19.604	22.380	0.497
760.500	467.951	80.003	19.994	103.723	19.606	22.213	0.517
762.000	468.668	80.003	19.994	103.727	19.608	22.100	0.483
763.500	469.393	80.003	19.994	103.722	19.613	21.770	0.463
765.000	470.178	80.004	19.993	103.720	19.620	21.289	0.507
766.500	470.950	80.005	19.993	103.721	19.623	21.062	0.522
768.000	471.710	80.004	19.994	103.728	19.628	20.671	0.510
769.500	472.471	80.005	19.993	103.739	19.628	20.709	0.507
771.000	473.234	80.005	19.993	103.729	19.637	20.053	0.508
772.500	474.035	80.004	19.993	103.721	19.645	19.497	0.533
774.000	474.802	80.004	19.995	103.721	19.646	19.455	0.497
775.500	475.556	80.005	19.994	103.726	19.654	18.872	0.512
777.000	476.343	80.005	19.994	103.733	19.656	18.701	0.526
778.500	477.091	80.005	19.993	103.732	19.658	18.548	0.503
780.000	477.858	80.007	19.994	103.730	19.666	18.002	0.519
781.500	478.657	80.008	19.994	103.721	19.676	17.321	0.545
783.000	479.479	80.006	19.993	103.720	19.682	16.921	0.524
784.500	480.231	80.007	19.994	103.720	19.684	16.735	0.499
786.000	481.018	80.007	19.993	103.719	19.689	16.426	0.515
787.500	481.814	80.007	19.993	103.721	19.695	15.985	0.539
789.000	482.552	80.005	19.994	103.721	19.695	15.978	0.491
790.500	483.385	80.006	19.993	103.720	19.700	15.606	0.556
792.000	484.161	80.005	19.993	103.719	19.706	15.218	0.512
793.500	484.993	80.006	19.994	103.717	19.710	14.927	0.543
795.000	485.795	80.006	19.993	103.726	19.713	14.686	0.529
796.500	486.620	80.006	19.993	103.723	19.722	14.061	0.580
798.000	487.377	80.006	19.994	103.717	19.726	13.830	0.493
799.500	488.142	80.006	19.993	103.718	19.728	13.663	0.528
801.000	488.992	80.007	19.996	103.726	19.735	13.172	0.558
802.500	489.727	80.007	19.993	103.724	19.741	12.754	0.488
804.000	490.508	80.006	19.994	103.716	19.742	12.667	0.518
805.500	491.302	80.006	19.992	103.716	19.749	12.190	0.533
807.000	492.092	80.007	19.994	103.717	19.751	12.035	0.543
808.500	492.860	80.007	19.993	103.718	19.755	11.781	0.506
810.000	493.687	80.008	19.994	103.718	19.760	11.427	0.538
811.500	494.492	80.006	19.993	103.718	19.764	11.132	0.533
813.000	495.253	80.005	19.993	103.716	19.768	10.834	0.518
814.500	496.017	80.007	19.994	103.716	19.771	10.646	0.509
816.000	496.825	80.005	19.994	103.725	19.773	10.477	0.541
817.500	497.602	80.005	19.993	103.718	19.775	10.315	0.529
819.000	498.355	80.004	19.994	103.717	19.780	10.016	0.499
820.500	499.138	80.005	19.994	103.719	19.783	9.780	0.523
822.000	499.875	80.003	19.994	103.715	19.791	9.208	0.501
823.500	500.658	80.004	19.993	103.715	19.793	9.104	0.525
825.000	501.441	80.004	19.993	103.717	19.797	8.785	0.521
826.500	502.171	80.004	19.994	103.718	19.798	8.744	0.493
828.000	502.983	80.004	19.993	103.718	19.801	8.516	0.512
829.500	503.693	80.004	19.993	103.715	19.805	8.269	0.498
831.000	504.438	80.005	19.995	103.713	19.807	8.113	0.499
832.500	505.208	80.005	19.993	103.714	19.806	8.175	0.497
834.000	505.941	80.006	19.993	103.714	19.812	7.725	0.485
835.500	506.737	80.005	19.994	103.709	19.815	7.500	0.523
837.000	507.510	80.005	19.994	103.710	19.816	7.454	0.503
838.500	508.261	80.006	19.994	103.713	19.817	7.396	0.514
840.000	509.012	80.004	19.995	103.713	19.817	7.403	0.512
841.500	509.757	80.004	19.994	103.713	19.818	7.342	0.487
843.000	510.546	80.005	19.995	103.713	19.820	7.202	0.533
844.500	511.271	80.004	19.995	103.712	19.820	7.157	0.505
846.000	511.982	80.003	19.995	103.713	19.819	7.242	0.468
847.500	512.763	80.003	19.994	103.713	19.825	6.861	0.520
849.000	513.501	80.003	19.995	103.713	19.824	6.884	0.501
850.500	514.238	80.004	19.996	103.713	19.826	6.761	0.507
852.000	515.000	80.003	19.995	103.713	19.827	6.684	0.509
853.500	515.771	80.003	19.994	103.713	19.829	6.557	0.526
855.000	516.544	80.005	19.994	103.715	19.828	6.607	0.530
856.500	517.309	80.006	19.994	103.715	19.831	6.428	0.513
858.000	518.032	80.006	19.994	103.714	19.830	6.446	0.489
859.500	518.771	80.007	19.995	103.715	19.831	6.424	0.513
861.000	519.535	80.008	19.996	103.716	19.834	6.223	0.502
862.500	520.301	80.007	19.994	103.718	19.836	6.054	0.483
864.000	521.036	80.007	19.994	103.718	19.838	5.886	0.493
865.500	521.752	80.008	19.994	103.715	19.835	6.096	0.485
867.000	522.563	80.008	19.993	103.715	19.836	6.048	0.528
868.500	523.312	80.007	19.994	103.716	19.838	5.909	0.503
870.000	524.061	80.007	19.994	103.717	19.838	5.945	0.519
871.500	524.804	80.006	19.994	103.724	19.840	5.784	0.508
873.000	525.572	80.006	19.993	103.726	19.840	5.784	0.512
874.500	526.355	80.007	19.993	103.719	19.838	5.890	0.509
876.000	527.117	80.006	19.993	103.719	19.843	5.593	0.519
877.500	527.922	80.006	19.992	103.719	19.841	5.680	0.532
879.000	528.685	80.005	19.994	103.720	19.844	5.480	0.518
880.500	529.434	80.007	19.993	103.718	19.843	5.582	0.497
882.000	530.240	80.006	19.993	103.726	19.843	5.574	0.523
883.500	530.977	80.007	19.994	103.724	19.843	5.534	0.519
885.000	531.763	80.007	19.994	103.717	19.846	5.370	0.521
886.500	532.549	80.008	19.993	103.717	19.849	5.164	0.522
888.000	533.302	80.008	19.993	103.717	19.850	5.079	0.504
889.500	534.081	80.009	19.992	103.720	19.851	5.010	0.519
891.000	534.839	80.008	19.993	103.718	19.849	5.124	0.529
892.500	535.603	80.008	19.993	103.718	19.850	5.093	0.503
894.000	536.382	80.007	19.992	103.717	19.850	5.105	0.528
895.500	537.180	80.006	19.993	103.715	19.848	5.212	0.507
897.000	537.891	80.006	19.994	103.716	19.850	5.093	0.478
898.500	538.666	80.006	19.994	103.714	19.847	5.318	0.554
900.000	539.486	80.005	19.994	103.714	19.848	5.197	0.542
901.500	540.235	80.005	19.993	103.716	19.847	5.295	0.480
903.000	540.994	80.003	19.995	103.716	19.846	5.335	0.514
904.500	541.774	80.006	19.994	103.717	19.849	5.143	0.515
906.000	542.545	80.004	19.993	103.718	19.848	5.228	0.516
907.500	543.301	80.004	19.995	103.716	19.849	5.164	0.502
909.000	544.098	80.004	19.995	103.716	19.850	5.079	0.540
910.500	544.859	80.006	19.994	103.715	19.847	5.283	0.516
912.000	545.620	80.005	19.993	103.718	19.848	5.237	0.502
913.500	546.375	80.006	19.995	103.719	19.847	5.270	0.492
915.000	547.167	80.007	19.993	103.717	19.848	5.188	0.531
916.500	547.898	80.006	19.993	103.717	19.849	5.128	0.486
918.000	548.674	80.006	19.994	103.716	19.846	5.364	0.515
919.500	549.476	80.005	19.994	103.716	19.849	5.157	0.517
921.000	550.293	80.006	19.995	103.715	19.848	5.232	0.546
922.500	551.030	80.005	19.995	103.717	19.842	5.634	0.496
924.000	551.823	80.005	19.994	103.719	19.845	5.392	0.543
925.500	552.572	80.007	19.995	103.720	19.846	5.345	0.525
927.000	553.318	80.005	19.995	103.722	19.839	5.857	0.497
928.500	554.157	80.003	19.994	103.716	19.840	5.763	0.548
930.000	554.935	80.005	19.994	103.718	19.838	5.901	0.522
931.500	555.747	80.005	19.995	103.719	19.841	5.707	0.524
933.000	556.527	80.004	19.995	103.717	19.834	6.167	0.540
934.500	557.265	80.004	19.994	103.722	19.838	5.937	0.482
936.000	558.009	80.005	19.993	103.725	19.836	6.032	0.509
937.500	558.825	80.006	19.994	103.719	19.837	5.996	0.524
939.000	559.586	80.006	19.994	103.718	19.836	6.076	0.511
940.500	560.353	80.006	19.993	103.717	19.838	5.928	0.487
942.000	561.106	80.005	19.994	103.717	19.837	6.000	0.505
943.500	561.885	80.007	19.994	103.717	19.833	6.247	0.536
945.000	562.639	80.007	19.994	103.731	19.836	6.061	0.506
946.500	563.409	80.005	19.994	103.731	19.836	6.079	0.547
948.000	564.197	80.006	19.993	103.720	19.835	6.158	0.505
949.500	564.959	80.006	19.995	103.719	19.836	6.067	0.526
951.000	565.760	80.006	19.994	103.721	19.832	6.331	0.534
952.500	566.551	80.005	19.994	103.729	19.832	6.348	0.531
954.000	567.323	80.006	19.993	103.740	19.833	6.271	0.504
955.500	568.081	80.006	19.994	103.729	19.833	6.270	0.512
957.000	568.864	80.006	19.992	103.726	19.832	6.321	0.554
958.500	569.689	80.005	19.992	103.730	19.828	6.611	0.555
960.000	570.482	80.007	19.993	103.729	19.826	6.729	0.503
961.500	571.213	80.006	19.993	103.726	19.830	6.475	0.476
963.000	572.026	80.007	19.993	103.724	19.829	6.558	0.519
964.500	572.744	80.009	19.993	103.726	19.828	6.654	0.491
966.000	573.523	80.006	19.993	103.719	19.825	6.848	0.518
967.500	574.366	80.008	19.993	103.716	19.826	6.756	0.559
969.000	575.146	80.008	19.994	103.718	19.827	6.686	0.512
970.500	575.911	80.009	19.994	103.716	19.827	6.723	0.517
972.000	576.680	80.008	19.993	103.727	19.826	6.731	0.491
973.500	577.379	80.007	19.994	103.727	19.826	6.741	0.491
975.000	578.191	80.007	19.994	103.726	19.827	6.720	0.538
976.500	578.944	80.006	19.993	103.720	19.827	6.724	0.519
978.000	579.726	80.005	19.995	103.718	19.824	6.874	0.536
979.500	580.505	80.009	19.993	103.721	19.827	6.726	0.507
981.000	581.248	80.006	19.994	103.727	19.827	6.672	0.507
982.500	582.039	80.006	19.994	103.732	19.829	6.522	0.523
984.000	582.789	80.004	19.994	103.734	19.829	6.524	0.491
985.500	583.565	80.003	19.994	103.736	19.832	6.350	0.513
987.000	584.319	80.006	19.993	103.737	19.832	6.335	0.507
988.500	585.047	80.005	19.995	103.739	19.831	6.413	0.484
990.000	585.862	80.004	19.993	103.741	19.833	6.244	0.527
991.500	586.567	80.006	19.993	103.733	19.834	6.226	0.472
993.000	587.286	80.006	19.995	103.736	19.838	5.950	0.479
994.500	588.114	80.007	19.993	103.745	19.836	6.088	0.553
996.000	588.879	80.005	19.994	103.728	19.839	5.819	0.523
997.500	589.645	80.004	19.993	103.726	19.840	5.811	0.520
999.000	590.411	80.003	19.993	103.726	19.842	5.603	0.509
1000.500	591.176	80.007	19.994	103.719	19.839	5.854	0.513
1002.000	591.926	80.006	19.994	103.720	19.843	5.565	0.494
1003.500	592.717	80.007	19.995	103.723	19.840	5.751	0.514
1005.000	593.480	80.004	19.994	103.726	19.844	5.474	0.515
1006.500	594.274	80.006	19.995	103.721	19.844	5.472	0.520
1008.000	595.041	80.004	19.994	103.723	19.849	5.172	0.504
1009.500	595.820	80.005	19.993	103.727	19.848	5.197	0.529
1011.000	596.578	80.006	19.995	103.728	19.846	5.322	0.488
1012.500	597.365	80.005	19.995	103.733	19.850	5.074	0.511
1014.000	598.154	80.004	19.995	103.720	19.850	5.066	0.534
1015.500	598.888	80.004	19.993	103.720	19.849	5.126	0.491
1017.000	599.623	80.004	19.994	103.720	19.856	4.645	0.505
1018.500	600.396	80.004	19.994	103.727	19.855	4.727	0.498
1020.000	601.160	80.003	19.995	103.725	19.858	4.489	0.507
1021.500	601.972	80.008	19.994	103.721	19.856	4.652	0.541
1023.000	602.730	80.007	19.995	103.721	19.855	4.737	0.500
1024.500	603.438	80.007	19.994	103.720	19.856	4.656	0.474
1025.999	604.245	80.007	19.995	103.715	19.854	4.779	0.521
1027.499	604.982	80.006	19.994	103.713	19.858	4.500	0.521
1028.999	605.769	80.007	19.994	103.715	19.856	4.631	0.515
1030.499	606.582	80.008	19.996	103.718	19.856	4.618	0.533
1031.999	607.369	80.007	19.994	103.715	19.857	4.608	0.523
1033.500	608.129	80.005	19.995	103.715	19.856	4.656	0.515
1034.999	608.918	80.009	19.994	103.720	19.855	4.723	0.516
1036.500	609.703	80.006	19.995	103.717	19.857	4.587	0.496
1037.999	610.457	80.008	19.995	103.713	19.856	4.633	0.509
1039.499	611.235	80.006	19.995	103.713	19.858	4.523	0.524
1040.999	612.068	80.007	19.996	103.718	19.861	4.306	0.527
1042.499	612.813	80.004	19.996	103.720	19.860	4.402	0.494
1043.999	613.589	80.005	19.993	103.717	19.854	4.818	0.501
1045.500	614.396	80.008	19.994	103.715	19.854	4.768	0.542
1046.999	615.197	80.008	19.993	103.713	19.859	4.448	0.542
1048.500	615.989	80.006	19.993	103.718	19.856	4.654	0.529
1049.999	616.711	80.007	19.993	103.715	19.861	4.312	0.482
1051.499	617.546	80.007	19.993	103.715	19.859	4.427	0.515
1052.999	618.286	80.010	19.993	103.714	19.857	4.549	0.492
1054.499	619.077	80.007	19.991	103.716	19.856	4.628	0.508
1055.999	619.867	80.004	19.995	103.714	19.858	4.527	0.515
1057.499	620.579	80.004	19.993	103.715	19.859	4.448	0.525
1059.001	621.374	80.005	19.994	103.715	19.859	4.458	0.539
1060.500	622.123	80.003	19.994	103.715	19.876	3.217	0.513
1061.999	622.891	80.005	19.995	103.712	19.860	4.377	0.474
1063.499	623.649	80.001	19.995	103.718	19.860	4.387	0.512
1064.999	624.390	80.004	19.994	103.721	19.860	4.381	0.457
1066.499	625.208	80.006	19.992	103.721	19.849	5.151	0.518
1067.999	625.918	80.002	19.993	103.719	19.858	4.512	0.474
1069.499	626.696	80.004	19.994	103.717	19.859	4.450	0.528
1070.999	627.498	80.002	19.993	103.717	19.861	4.273	0.501
1072.500	628.242	80.002	19.994	103.717	19.860	4.383	0.480
1073.999	628.939	80.005	19.994	103.718	19.855	4.687	0.398
1075.499	629.842	80.006	19.993	103.718	19.857	4.585	0.551
1077.000	630.582	80.007	19.993	103.717	19.861	4.296	0.488
1078.499	631.317	80.004	19.993	103.716	19.862	4.221	0.384
1079.999	632.144	80.002	19.993	103.717	19.862	4.252	0.434
1081.499	632.617	80.007	19.994	103.718	19.863	4.125	0.531
1082.999	633.537	80.006	19.993	103.718	19.862	4.250	0.707
1084.500	634.326	80.005	19.993	103.711	19.860	4.348	0.583
1086.000	635.169	80.006	19.993	103.710	19.866	3.967	0.553
1087.499	635.994	80.007	19.995	103.716	19.865	4.017	0.614
1088.999	636.746	80.005	19.994	103.716	19.866	3.964	0.456
1090.499	637.475	80.006	19.993	103.716	19.866	3.948	0.509
1091.999	638.282	80.004	19.994	103.719	19.868	3.839	0.573
1093.500	639.063	80.005	19.995	103.719	19.868	3.833	0.522
1094.999	639.918	80.006	19.994	103.716	19.863	4.163	0.532
1096.499	640.689	80.005	19.995	103.716	19.864	4.089	0.540
1097.999	641.467	80.006	19.994	103.717	19.869	3.763	0.534
1099.499	642.282	80.007	19.995	103.718	19.865	3.992	0.548
1100.999	643.054	80.006	19.996	103.720	19.864	4.098	0.527
1102.499	643.821	80.005	19.997	103.723	19.862	4.195	0.523
1103.999	644.624	80.009	19.994	103.715	19.860	4.352	0.533
1105.499	645.436	79.990	19.996	103.716	19.866	3.962	0.533
1106.999	646.188	80.002	19.995	103.716	19.862	4.237	0.498
1108.499	647.042	80.009	19.994	103.714	19.862	4.206	0.518
1109.999	647.802	80.000	19.994	103.712	19.864	4.077	0.518
1111.499	648.501	80.007	19.995	103.716	19.860	4.369	0.500
1112.999	649.360	80.009	19.996	103.714	19.864	4.100	0.554
1114.499	650.229	80.006	19.995	103.721	19.864	4.098	0.606
1116.000	650.991	80.006	19.994	103.716	19.864	4.081	0.526
1117.500	652.361	80.006	19.995	103.714	19.865	4.027	0.687
1119.000	652.542	80.007	19.994	103.715	19.863	4.171	0.589
1120.499	653.395	80.004	19.995	103.713	19.863	4.160	0.586
1122.000	654.040	80.005	19.995	103.713	19.863	4.148	0.451
1123.499	654.983	80.004	19.995	103.714	19.861	4.277	0.541
1124.999	655.703	80.008	19.995	103.714	19.866	3.971	0.472
1126.500	656.592	80.008	19.995	103.715	19.863	4.142	0.547
1128.000	657.368	80.005	19.995	103.717	19.862	4.233	0.544
1129.499	658.107	80.008	19.993	103.717	19.864	4.116	0.524
1131.000	658.902	80.008	19.994	103.715	19.861	4.308	0.541
1132.499	659.689	80.007	19.995	103.715	19.860	4.389	0.519
1134.000	660.447	80.005	19.995	103.716	19.859	4.452	0.474
1135.499	661.230	80.006	19.994	103.716	19.861	4.266	0.535
1136.999	662.016	80.006	19.993	103.715	19.859	4.414	0.507
1138.499	662.785	80.005	19.993	103.718	19.862	4.194	0.513
1139.999	663.566	80.004	19.993	103.721	19.857	4.562	0.537
1141.499	664.295	80.004	19.992	103.719	19.859	4.422	0.470
1143.000	665.120	80.006	19.993	103.719	19.861	4.273	0.542
1144.499	665.927	80.005	19.993	103.719	19.863	4.186	0.514
1145.999	666.671	80.006	19.993	103.717	19.862	4.254	0.499
1147.499	667.418	80.004	19.993	103.716	19.860	4.383	0.489
1148.999	668.182	80.005	19.995	103.715	19.862	4.215	0.521
1150.499	668.986	80.006	19.994	103.719	19.861	4.283	0.538
1151.999	669.764	80.005	19.995	103.718	19.862	4.264	0.501
1153.499	670.488	80.005	19.994	103.716	19.863	4.150	0.492
1154.999	671.267	80.004	19.993	103.714	19.862	4.237	0.525
1156.499	672.028	80.006	19.992	103.706	19.863	4.167	0.514
1157.999	672.794	80.004	19.993	103.717	19.864	4.087	0.494
1159.499	673.583	80.004	19.994	103.712	19.861	4.275	0.506
1160.999	674.338	80.004	19.994	103.709	19.863	4.133	0.500
1162.500	675.139	80.005	19.994	103.717	19.866	3.935	0.513
1163.999	675.906	80.007	19.995	103.715	19.867	3.867	0.537
1165.500	676.691	80.004	19.995	103.715	19.864	4.063	0.523
1167.000	677.517	80.006	19.994	103.714	19.861	4.265	0.527
1168.500	678.266	80.004	19.994	103.715	19.864	4.100	0.521
1169.999	679.035	80.005	19.994	103.714	19.864	4.102	0.508
1171.500	679.783	80.003	19.993	103.714	19.862	4.264	0.499
1172.999	680.608	80.005	19.993	103.715	19.861	4.271	0.546
1174.499	681.365	80.005	19.992	103.711	19.872	3.515	0.480
1175.999	682.115	80.005	19.994	103.711	19.860	4.381	0.512
1177.500	682.903	80.004	19.994	103.711	19.863	4.161	0.530
1179.000	683.658	80.004	19.994	103.711	19.860	4.350	0.488
1180.500	684.428	80.007	19.992	103.715	19.861	4.331	0.509
1182.000	685.181	80.006	19.993	103.715	19.859	4.444	0.522
1183.499	685.926	80.005	19.994	103.715	19.859	4.458	0.509
1184.999	686.670	80.006	19.994	103.715	19.860	4.383	0.502
1186.499	687.531	80.005	19.994	103.709	19.858	4.494	0.600
1187.999	688.256	80.002	19.995	103.706	19.857	4.571	0.524
1189.499	688.966	80.006	19.994	103.712	19.857	4.574	0.144
1190.999	689.648	80.007	19.994	103.711	19.855	4.743	0.528
1192.499	690.437	80.006	19.994	103.711	19.860	4.392	0.527
1193.999	691.233	80.007	19.994	103.712	19.855	4.702	0.525
1195.500	691.977	80.005	19.993	103.713	19.856	4.675	0.485
1196.999	692.719	80.005	19.994	103.713	19.855	4.712	0.498
1198.499	693.485	80.005	19.994	103.711	19.859	4.462	0.507
1199.999	694.215	80.004	19.994	103.715	19.859	4.437	0.496
1201.500	694.993	80.007	19.994	103.716	19.860	4.370	0.513
1202.999	695.752	80.005	19.993	103.714	19.861	4.296	0.503
1204.500	696.504	79.998	19.994	103.714	19.860	4.383	0.549
1205.999	697.273	80.003	19.994	103.714	19.859	4.412	0.524
1207.499	698.017	80.007	19.994	103.719	19.863	4.123	0.536
1208.999	698.827	80.007	19.994	103.722	19.858	4.496	0.537
1210.499	699.556	80.024	19.998	103.720	19.860	4.396	0.447
1211.999	700.297	80.016	20.000	103.730	19.860	4.366	0.493
1213.500	701.086	80.005	19.998	103.725	19.864	4.054	0.524
1215.000	701.859	80.005	19.995	103.715	19.865	4.034	0.521
1216.500	702.631	80.007	19.994	103.715	19.858	4.531	0.530
1217.999	703.390	80.003	19.995	103.714	19.859	4.450	0.480
1219.499	704.107	80.005	19.994	103.714	19.864	4.114	0.489
1221.000	704.908	80.008	19.995	103.712	19.859	4.469	0.524
1222.499	705.618	80.004	19.997	103.713	19.862	4.213	0.471
1223.999	706.352	80.005	19.995	103.710	19.862	4.254	0.498
1225.499	707.157	80.000	19.994	103.711	19.859	4.422	0.517
1226.999	707.907	80.006	19.995	103.711	19.859	4.473	0.496
1228.499	708.692	79.998	19.995	103.716	19.859	4.425	0.544
1229.999	709.440	80.003	19.996	103.718	19.864	4.121	0.517
1231.500	710.194	80.003	19.994	103.715	19.861	4.321	0.481
1233.000	710.973	79.996	19.995	103.714	19.859	4.452	0.512
1234.499	711.773	80.016	19.994	103.707	19.861	4.308	0.525
1235.999	712.523	80.005	19.993	103.714	19.860	4.400	0.522
1237.499	713.306	80.009	19.996	103.717	19.861	4.265	0.529
1239.000	714.095	80.004	19.994	103.708	19.858	4.496	0.521
1240.499	714.904	80.028	19.992	103.710	19.860	4.360	0.552
1242.000	715.710	79.995	19.995	103.719	19.858	4.514	0.543
1243.499	716.464	79.997	19.994	103.710	19.858	4.519	0.529
1244.999	717.217	80.012	19.994	103.710	19.858	4.521	0.504
1246.499	717.992	80.008	19.993	103.709	19.857	4.571	0.503
1247.999	718.770	80.002	19.994	103.701	19.857	4.584	0.517
1249.499	719.515	80.000	19.996	103.707	19.858	4.507	0.507
1250.999	720.326	79.998	19.995	103.711	19.856	4.662	0.521
1252.499	721.112	80.007	19.993	103.712	19.855	4.735	0.511
1254.000	721.872	80.005	19.995	103.710	19.854	4.785	0.501
1255.499	722.561	80.007	19.996	103.706	19.854	4.786	0.446
1257.000	723.370	80.006	19.993	103.712	19.852	4.946	0.530
1258.499	724.081	79.991	19.996	103.713	19.856	4.674	0.470
1259.999	724.848	80.008	19.994	103.705	19.856	4.675	0.493
1261.500	725.639	80.011	19.992	103.707	19.854	4.773	0.521
1262.999	726.403	80.003	19.994	103.709	19.855	4.693	0.516
1264.499	727.098	80.003	19.995	103.711	19.853	4.839	0.473
1265.999	727.911	80.007	19.993	103.707	19.857	4.573	0.526
1267.499	728.677	80.008	19.993	103.696	19.854	4.755	0.492
1268.999	729.433	80.006	19.994	103.691	19.856	4.635	0.520
1270.500	730.197	80.006	19.993	103.702	19.849	5.130	0.507
1271.999	730.983	80.006	19.993	103.712	19.850	5.104	0.546
1273.499	731.683	80.006	19.992	103.712	19.855	4.687	0.466
1275.000	732.499	80.009	19.995	103.716	19.853	4.829	0.541
1276.499	733.206	79.988	19.996	103.710	19.853	4.883	0.501
1277.999	734.013	80.009	19.992	103.694	19.852	4.942	0.538
1279.499	734.719	80.001	19.995	103.703	19.853	4.885	0.486
1280.999	735.525	80.009	19.995	103.714	19.852	4.921	0.510
1282.499	736.240	80.007	19.995	103.718	19.849	5.117	0.493
1283.999	737.013	80.008	19.993	103.716	19.854	4.771	0.524
1285.499	737.774	80.008	19.994	103.714	19.853	4.891	0.510
1287.000	738.534	80.003	19.994	103.708	19.850	5.067	0.520
1288.500	739.309	79.996	19.997	103.704	19.853	4.875	0.501
1290.000	740.120	80.027	19.992	103.705	19.851	5.024	0.541
1291.499	740.898	80.006	19.996	103.708	19.855	4.750	0.504
1292.999	741.650	80.007	19.993	103.701	19.847	5.267	0.502
1294.500	742.430	80.015	19.992	103.711	19.851	4.973	0.494
1295.999	743.208	80.006	19.994	103.709	19.848	5.229	0.538
1296.500	743.470	80.011	19.994	103.709	19.850	5.087	0.510