File: 01_Data/Bamboo_Rug_B/STA/N2/30K_min/Bamboo_Rug_B_STA_N2_30KData_220126_R2.csv
##Temp./Â°C,Time/min,Mass loss(subtr.2)/mg,DSC(subtr.2)/(mW/mg),Sensit./(uV/mW)
48.48,10.00583,0.00987,0.001981306,1.06964
49.18,10.5512,0.01147134,0.04769084,1.06958
49.88,10.67662,0.009365392,0.08503175,1.06951
50.58,10.76695,0.01050641,0.11756,1.06945
51.28,10.84035,0.01067988,0.14706,1.06938
51.98,10.90426,0.01099534,0.17656,1.06932
52.68,10.96016,0.01098492,0.20251,1.06925
53.38,11.01194,0.01085608,0.22595,1.06918
54.08,11.0593,0.0094367,0.24971,1.06911
54.78,11.10419,0.008955777,0.27027,1.06904
55.48,11.14655,0.00760599,0.29194,1.06896
56.18,11.1881,0.01065976,0.31064,1.06889
56.88,11.2274,0.01221739,0.32898,1.06881
57.58,11.26475,0.01339992,0.34712,1.06873
58.28,11.30054,0.01268292,0.36385,1.06866
58.98,11.33532,0.01196508,0.38075,1.06858
59.68,11.37003,0.0124651,0.39748,1.06849
60.38,11.40439,0.01186225,0.41305,1.06841
61.08,11.4371,0.01103105,0.42661,1.06833
61.78,11.46909,0.01096966,0.44075,1.06824
62.48,11.50052,0.01063086,0.45471,1.06815
63.18,11.53116,0.01101536,0.46601,1.06806
63.88,11.56119,0.01071118,0.48082,1.06798
64.58,11.59109,0.01099052,0.49292,1.06788
65.28,11.62026,0.01098616,0.50491,1.06779
65.98,11.6493,0.01104456,0.51748,1.0677
66.68,11.67804,0.01192899,0.53045,1.0676
67.38,11.7069,0.01205647,0.54262,1.06751
68.08,11.73507,0.01155765,0.55162,1.06741
68.78,11.76293,0.01085388,0.56274,1.06731
69.48,11.7906,0.00997407,0.57195,1.06721
70.18,11.81814,0.01067394,0.57928,1.06711
70.88,11.84534,0.01219006,0.58709,1.067
71.58,11.87224,0.01206887,0.593,1.0669
72.28,11.89894,0.01161055,0.599,1.06679
72.98,11.92561,0.01138204,0.60647,1.06668
73.68,11.9522,0.01150167,0.61212,1.06658
74.38,11.9785,0.01133238,0.61767,1.06647
75.08,12.00468,0.01047372,0.62027,1.06636
75.78,12.0307,0.01126681,0.62551,1.06624
76.48,12.05654,0.01143684,0.6298,1.06613
77.18,12.08245,0.01119304,0.63299,1.06601
77.88,12.10821,0.01131634,0.63952,1.0659
78.58,12.13382,0.0105429,0.64267,1.06578
79.28,12.1591,0.009649684,0.64596,1.06566
79.98,12.1845,0.008369419,0.65028,1.06554
80.68,12.20979,0.009656046,0.65631,1.06542
81.38,12.23506,0.01009309,0.65828,1.06529
82.08,12.26003,0.009402254,0.66196,1.06517
82.78,12.28495,0.009196115,0.66864,1.06504
83.48,12.30985,0.009493246,0.67201,1.06492
84.18,12.33469,0.01105067,0.67314,1.06479
84.88,12.35942,0.009749505,0.67924,1.06466
85.58,12.384,0.01056979,0.68488,1.06453
86.28,12.4086,0.00989935,0.68818,1.06439
86.98,12.4331,0.009742199,0.69293,1.06426
87.68,12.45753,0.00966428,0.69415,1.06413
88.38,12.48193,0.00838395,0.69941,1.06399
89.08,12.5062,0.009071056,0.70372,1.06385
89.78,12.53055,0.00801982,0.70988,1.06371
90.48,12.55475,0.009160593,0.70924,1.06357
91.18,12.57891,0.009325125,0.71459,1.06343
91.88,12.6029,0.009215539,0.71913,1.06329
92.58,12.62676,0.009333388,0.72249,1.06314
93.28,12.65077,0.007979483,0.72861,1.063
93.98,12.67465,0.00893298,0.73226,1.06285
94.68,12.69869,0.009330626,0.73382,1.0627
95.38,12.72257,0.009445641,0.73786,1.06255
96.08,12.7464,0.009907312,0.74203,1.0624
96.78,12.77022,0.009318893,0.74385,1.06225
97.48,12.79398,0.00885761,0.74707,1.0621
98.18,12.8177,0.007885908,0.74978,1.06194
98.88,12.8415,0.00768579,0.75263,1.06179
99.58,12.8653,0.007900404,0.75697,1.06163
100.28,12.8891,0.007917614,0.75984,1.06147
100.98,12.91277,0.006575789,0.76433,1.06131
101.68,12.93632,0.006529356,0.7662,1.06115
102.38,12.95998,0.007891916,0.77048,1.06099
103.08,12.9835,0.007900295,0.77393,1.06083
103.78,13.00707,0.007907124,0.77699,1.06066
104.48,13.0306,0.006547872,0.77909,1.0605
105.18,13.0542,0.006459151,0.78429,1.06033
105.88,13.07793,0.00688732,0.78745,1.06016
106.58,13.1015,0.00646729,0.79077,1.05999
107.28,13.12509,0.00674039,0.79195,1.05982
107.98,13.1485,0.007189856,0.79626,1.05965
108.68,13.1721,0.006470514,0.7972,1.05947
109.38,13.1957,0.00647003,0.79738,1.0593
110.08,13.21921,0.00647,0.80112,1.05912
110.78,13.24264,0.006471298,0.8059,1.05895
111.48,13.26612,0.006114876,0.80595,1.05877
112.18,13.2895,0.005164125,0.80923,1.05859
112.88,13.31294,0.005157878,0.81164,1.05841
113.58,13.33639,0.00639183,0.81265,1.05822
114.28,13.35984,0.006469831,0.81593,1.05804
114.98,13.3833,0.0064701,0.81855,1.05785
115.68,13.40664,0.006474263,0.8186,1.05767
116.38,13.43005,0.005218736,0.82011,1.05748
117.08,13.45345,0.00515031,0.82202,1.05729
117.78,13.47679,0.005136145,0.82342,1.0571
118.48,13.5002,0.003795275,0.82484,1.05691
119.18,13.5234,0.003830749,0.82729,1.05672
119.88,13.5467,0.00383001,0.83119,1.05653
120.58,13.56991,0.00382902,0.83199,1.05633
121.28,13.59322,0.003791902,0.83414,1.05613
121.98,13.61645,0.002531075,0.83595,1.05594
122.68,13.63972,0.002512445,0.83682,1.05574
123.38,13.66295,0.00388396,0.84023,1.05554
124.08,13.6862,0.003840503,0.84085,1.05534
124.78,13.70933,0.004516812,0.84198,1.05514
125.48,13.73233,0.005159797,0.84242,1.05493
126.18,13.7554,0.005159974,0.8442,1.05473
126.88,13.7784,0.00516001,0.84697,1.05452
127.58,13.8015,0.005162578,0.84911,1.05431
128.28,13.8243,0.00468687,0.85023,1.05411
128.98,13.8473,0.003836817,0.85429,1.0539
129.68,13.8703,0.003840047,0.8561,1.05369
130.38,13.8933,0.00384,0.85901,1.05347
131.08,13.91627,0.00384,0.85945,1.05326
131.78,13.9391,0.00384,0.86135,1.05305
132.48,13.9619,0.00384,0.86385,1.05283
133.18,13.98475,0.003839997,0.86486,1.05261
133.88,14.0076,0.003839526,0.86597,1.0524
134.58,14.03041,0.003884408,0.87041,1.05218
135.28,14.05316,0.002319456,0.87024,1.05196
135.98,14.07584,0.00241822,0.8725,1.05173
136.68,14.0986,0.003623038,0.87564,1.05151
137.38,14.1213,0.0036201,0.87902,1.05129
138.08,14.1439,0.00362,0.87828,1.05106
138.78,14.16654,0.003619927,0.88398,1.05084
139.48,14.18917,0.003638345,0.88622,1.05061
140.18,14.2118,0.002324362,0.88599,1.05038
140.88,14.23436,0.002310353,0.88898,1.05015
141.58,14.25685,0.002309988,0.89213,1.04992
142.28,14.2793,0.002309949,0.89386,1.04969
142.98,14.3018,0.002387128,0.89609,1.04945
143.68,14.3243,0.00362875,0.89794,1.04922
144.38,14.3465,0.00362005,0.90309,1.04898
145.08,14.36895,0.00362002,0.90429,1.04874
145.78,14.39132,0.00361924,0.90775,1.04851
146.48,14.4139,0.003534501,0.90951,1.04827
147.18,14.43636,0.002311799,0.90988,1.04803
147.88,14.4588,0.002299972,0.91448,1.04778
148.58,14.4812,0.002299983,0.91692,1.04754
149.28,14.5036,0.002301345,0.92073,1.0473
149.98,14.5259,0.002302737,0.92223,1.04705
150.68,14.548,0.002965003,0.92539,1.04681
151.38,14.57022,0.002963452,0.92902,1.04656
152.08,14.5924,0.002312705,0.92876,1.04631
152.78,14.61462,0.001957134,0.93176,1.04606
153.48,14.63694,0.00197017,0.93584,1.04581
154.18,14.65925,0.00197,0.94014,1.04556
154.88,14.68154,0.00197,0.94163,1.0453
155.58,14.7037,0.00197,0.94356,1.04505
156.28,14.72586,0.00197,0.94673,1.04479
156.98,14.748,0.00197,0.94946,1.04454
157.68,14.77019,0.00197,0.95282,1.04428
158.38,14.7923,0.00197,0.95353,1.04402
159.08,14.8143,0.00197,0.95663,1.04376
159.78,14.83642,0.001969995,0.9571,1.0435
160.48,14.85861,0.001970122,0.96249,1.04323
161.18,14.8808,0.001996159,0.96676,1.04297
161.88,14.9029,0.000300124,0.96849,1.0427
162.58,14.92491,-0.000656191,0.97385,1.04244
163.28,14.947,-0.0006599439,0.97619,1.04217
163.98,14.969,-0.0006600014,0.97926,1.0419
164.68,14.99111,-0.00066,0.9836,1.04163
165.38,15.0131,-0.00066,0.98455,1.04136
166.08,15.0351,-0.00066,0.98869,1.04109
166.78,15.05708,-0.0006599984,0.99143,1.04082
167.48,15.07908,-0.000660006,0.99499,1.04055
168.18,15.1011,-0.0006696523,0.99811,1.04027
168.88,15.1231,0.0003799799,1.00233,1.03999
169.58,15.14505,0.0003297457,1.00556,1.03972
170.28,15.16702,0.000329996,1.00765,1.03944
170.98,15.189,0.00033,1.01178,1.03916
171.68,15.2109,0.00033,1.01585,1.03888
172.38,15.2328,0.00033,1.0186,1.0386
173.08,15.2548,0.00033,1.02208,1.03831
173.78,15.2766,0.00033,1.02476,1.03803
174.48,15.29849,0.0003300065,1.02742,1.03775
175.18,15.32025,0.0003307954,1.02914,1.03746
175.88,15.3421,0.0001863763,1.03193,1.03717
176.58,15.36396,-1.438115e-06,1.03555,1.03688
177.28,15.3857,1.330522e-08,1.04023,1.03659
177.98,15.40715,7.587987e-06,1.0423,1.0363
178.68,15.42881,-0.001190184,1.04399,1.03601
179.38,15.45054,-0.001311903,1.04625,1.03572
180.08,15.4725,-0.00131141,1.05298,1.03543
180.78,15.4944,-0.002295674,1.05305,1.03513
181.48,15.5162,-0.002300076,1.05552,1.03484
182.18,15.53791,-0.002299999,1.05953,1.03454
182.88,15.55955,-0.0023,1.06165,1.03424
183.58,15.5812,-0.0023,1.06468,1.03394
184.28,15.60286,-0.0023,1.06677,1.03364
184.98,15.6245,-0.002299984,1.07063,1.03334
185.68,15.64611,-0.002299743,1.07214,1.03304
186.38,15.66775,-0.00242742,1.07581,1.03273
187.08,15.6894,-0.00360765,1.07777,1.03243
187.78,15.711,-0.003620117,1.08096,1.03212
188.48,15.73257,-0.00362,1.08297,1.03182
189.18,15.7541,-0.00362,1.08588,1.03151
189.88,15.77564,-0.00362,1.08897,1.0312
190.58,15.7972,-0.00362,1.08976,1.03089
191.28,15.8188,-0.00362,1.09326,1.03058
191.98,15.8404,-0.003620023,1.09514,1.03027
192.68,15.8619,-0.0036173,1.09827,1.02995
193.38,15.88335,-0.00395865,1.1023,1.02964
194.08,15.90482,-0.00623445,1.10576,1.02933
194.78,15.9262,-0.006259862,1.10955,1.02901
195.48,15.94774,-0.006260012,1.11068,1.02869
196.18,15.96921,-0.0062597,1.11299,1.02837
196.88,15.99075,-0.006275302,1.11707,1.02805
197.58,16.0122,-0.007233826,1.11838,1.02773
198.28,16.0337,-0.00692624,1.11925,1.02741
198.98,16.05493,-0.00622394,1.12432,1.02709
199.68,16.07626,-0.006250416,1.12857,1.02677
200.38,16.09771,-0.006250038,1.12885,1.02644
201.08,16.1193,-0.006250376,1.13275,1.02612
201.78,16.14109,-0.00661433,1.13427,1.02579
202.48,16.16254,-0.00658417,1.13707,1.02546
203.18,16.18395,-0.00739088,1.13989,1.02514
203.88,16.2053,-0.007899267,1.14329,1.02481
204.58,16.22672,-0.00789999,1.1448,1.02448
205.28,16.2481,-0.007899043,1.14909,1.02414
205.98,16.2696,-0.008028263,1.15316,1.02381
206.68,16.29092,-0.009228926,1.15386,1.02348
207.38,16.31242,-0.00921999,1.15617,1.02314
208.08,16.33393,-0.009219409,1.16219,1.02281
208.78,16.35543,-0.00930999,1.16595,1.02247
209.48,16.3768,-0.01054373,1.16714,1.02213
210.18,16.3981,-0.01053335,1.17019,1.02179
210.88,16.41948,-0.01154624,1.17566,1.02145
211.58,16.4409,-0.01185058,1.17656,1.02111
212.28,16.46228,-0.01194657,1.17946,1.02077
212.98,16.4836,-0.013172,1.18383,1.02043
213.68,16.50495,-0.01315992,1.18609,1.02009
214.38,16.5262,-0.01316037,1.18951,1.01974
215.08,16.54755,-0.01305342,1.18982,1.0194
215.78,16.56889,-0.01249535,1.1948,1.01905
216.48,16.59027,-0.01315291,1.19884,1.0187
217.18,16.61167,-0.0137161,1.20189,1.01835
217.88,16.63305,-0.01448158,1.2044,1.018
218.58,16.65449,-0.01447906,1.20889,1.01765
219.28,16.67577,-0.01458895,1.21227,1.0173
219.98,16.69712,-0.01659585,1.21525,1.01695
220.68,16.7184,-0.01710891,1.2188,1.0166
221.38,16.7397,-0.01711207,1.22429,1.01624
222.08,16.76106,-0.01800089,1.22837,1.01589
222.78,16.7823,-0.01842351,1.22875,1.01553
223.48,16.80361,-0.01841995,1.23386,1.01517
224.18,16.82488,-0.01842,1.23625,1.01481
224.88,16.84618,-0.01842009,1.24036,1.01445
225.58,16.86746,-0.01839483,1.24561,1.01409
226.28,16.88874,-0.0197908,1.25125,1.01373
226.98,16.90999,-0.01974466,1.25458,1.01337
227.68,16.93127,-0.02060764,1.25797,1.01301
228.38,16.9525,-0.02116969,1.26348,1.01264
229.08,16.9738,-0.0226964,1.26976,1.01228
229.78,16.9951,-0.02194098,1.27635,1.01191
230.48,17.01632,-0.02281854,1.28108,1.01155
231.18,17.0376,-0.02365401,1.28598,1.01118
231.88,17.05881,-0.02412951,1.29241,1.01081
232.58,17.08011,-0.02412631,1.29993,1.01044
233.28,17.10141,-0.02582882,1.30623,1.01007
233.98,17.12267,-0.02675785,1.31216,1.0097
234.68,17.14397,-0.02671129,1.323,1.00933
235.38,17.16522,-0.0280885,1.33289,1.00895
236.08,17.18648,-0.02807127,1.34213,1.00858
236.78,17.20769,-0.02943989,1.35234,1.0082
237.48,17.22887,-0.02939353,1.36483,1.00783
238.18,17.25009,-0.03014674,1.37819,1.00745
238.88,17.2714,-0.03070908,1.38992,1.00707
239.58,17.29273,-0.03072103,1.40452,1.00669
240.28,17.314,-0.03200685,1.42363,1.00631
240.98,17.33524,-0.03221365,1.4447,1.00593
241.68,17.35645,-0.03343713,1.46477,1.00555
242.38,17.37764,-0.03340536,1.48631,1.00517
243.08,17.39884,-0.03477447,1.51142,1.00478
243.78,17.42008,-0.03478917,1.53841,1.0044
244.48,17.4413,-0.03611315,1.56813,1.00402
245.18,17.46251,-0.03564707,1.59924,1.00363
245.88,17.48375,-0.03696242,1.63489,1.00324
246.58,17.505,-0.03788512,1.67067,1.00285
247.28,17.52619,-0.03827613,1.71172,1.00247
247.98,17.54753,-0.03989104,1.75087,1.00208
248.68,17.56881,-0.04047865,1.79051,1.00168
249.38,17.59001,-0.04130648,1.82436,1.00129
250.08,17.61122,-0.04279502,1.84726,1.0009
250.78,17.6325,-0.04474657,1.86112,1.00051
251.48,17.65372,-0.04517559,1.86139,1.00011
252.18,17.6751,-0.04677018,1.8492,0.99972
252.88,17.69637,-0.04787663,1.83142,0.99932
253.58,17.71751,-0.04868191,1.80005,0.99893
254.28,17.7387,-0.05021627,1.76273,0.99853
254.98,17.75977,-0.05061614,1.72413,0.99813
255.68,17.78086,-0.05090295,1.68163,0.99773
256.38,17.802,-0.05146371,1.64082,0.99733
257.08,17.8232,-0.05176593,1.60141,0.99693
257.78,17.84444,-0.05326636,1.56414,0.99653
258.48,17.86564,-0.05449487,1.53,0.99612
259.18,17.8868,-0.05550627,1.49884,0.99572
259.88,17.90791,-0.05691174,1.47361,0.99532
260.58,17.92896,-0.05984914,1.45185,0.99491
261.28,17.95014,-0.06125627,1.43173,0.9945
261.98,17.9712,-0.06201329,1.41566,0.9941
262.68,17.9923,-0.06307537,1.401,0.99369
263.38,18.01332,-0.06331077,1.38834,0.99328
264.08,18.0343,-0.06472005,1.37901,0.99287
264.78,18.05539,-0.06633433,1.37111,0.99246
265.48,18.0765,-0.06869966,1.36533,0.99205
266.18,18.09756,-0.07014251,1.36024,0.99164
266.88,18.1187,-0.07230067,1.35716,0.99122
267.58,18.13984,-0.0743951,1.35272,0.99081
268.28,18.16102,-0.07661952,1.34951,0.9904
268.98,18.18211,-0.07894003,1.35079,0.98998
269.68,18.20316,-0.08085615,1.35062,0.98956
270.38,18.2242,-0.08215957,1.35029,0.98915
271.08,18.24535,-0.08416929,1.34994,0.98873
271.78,18.26651,-0.08716237,1.35076,0.98831
272.48,18.28762,-0.08955212,1.35328,0.98789
273.18,18.30874,-0.09138572,1.35642,0.98747
273.88,18.32984,-0.09308734,1.35808,0.98705
274.58,18.351,-0.09509087,1.3616,0.98663
275.28,18.37207,-0.09793018,1.36393,0.9862
275.98,18.39316,-0.10175,1.36723,0.98578
276.68,18.41429,-0.10403,1.36963,0.98536
277.38,18.4354,-0.10595,1.37526,0.98493
278.08,18.45648,-0.1083,1.37801,0.98451
278.78,18.47759,-0.11138,1.38081,0.98408
279.48,18.49875,-0.11468,1.38446,0.98365
280.18,18.51988,-0.11789,1.38743,0.98322
280.88,18.54102,-0.12101,1.39316,0.98279
281.58,18.5622,-0.12443,1.39782,0.98236
282.28,18.5833,-0.12723,1.39893,0.98193
282.98,18.6044,-0.1301,1.40394,0.9815
283.68,18.6255,-0.13341,1.40801,0.98107
284.38,18.6466,-0.1375,1.41168,0.98064
285.08,18.6678,-0.14184,1.41505,0.9802
285.78,18.68905,-0.14544,1.41864,0.97977
286.48,18.7102,-0.14994,1.42151,0.97933
287.18,18.73134,-0.15463,1.42708,0.9789
287.88,18.75248,-0.15828,1.43011,0.97846
288.58,18.77365,-0.16217,1.43112,0.97802
289.28,18.79489,-0.16624,1.43861,0.97758
289.98,18.81606,-0.17025,1.43648,0.97714
290.68,18.8371,-0.17485,1.44425,0.9767
291.38,18.85819,-0.17975,1.44437,0.97626
292.08,18.87935,-0.18432,1.44978,0.97582
292.78,18.90055,-0.19003,1.45002,0.97538
293.48,18.92173,-0.19506,1.45097,0.97494
294.18,18.94288,-0.20018,1.45649,0.97449
294.88,18.964,-0.20523,1.46088,0.97405
295.58,18.9852,-0.2097,1.45756,0.9736
296.28,19.00648,-0.21534,1.46185,0.97316
296.98,19.02768,-0.22012,1.46214,0.97271
297.68,19.04883,-0.22612,1.46411,0.97226
298.38,19.07,-0.23216,1.46326,0.97181
299.08,19.09103,-0.2374,1.4666,0.97136
299.78,19.11216,-0.2433,1.46794,0.97091
300.48,19.1333,-0.24836,1.46902,0.97046
301.18,19.15448,-0.25499,1.46942,0.97001
301.88,19.1757,-0.26088,1.47059,0.96956
302.58,19.19686,-0.2671,1.47121,0.96911
303.28,19.21805,-0.27435,1.46974,0.96865
303.98,19.23923,-0.28027,1.47232,0.9682
304.68,19.26041,-0.28689,1.47502,0.96775
305.38,19.2816,-0.29271,1.47357,0.96729
306.08,19.30272,-0.29938,1.4732,0.96683
306.78,19.32387,-0.30556,1.47368,0.96638
307.48,19.34506,-0.31087,1.47594,0.96592
308.18,19.3662,-0.31821,1.47394,0.96546
308.88,19.38743,-0.32463,1.47635,0.965
309.58,19.40867,-0.33163,1.47586,0.96454
310.28,19.42989,-0.33801,1.47692,0.96408
310.98,19.45104,-0.34426,1.47756,0.96362
311.68,19.4723,-0.35179,1.47622,0.96316
312.38,19.49336,-0.35778,1.47771,0.9627
313.08,19.5143,-0.36517,1.4785,0.96223
313.78,19.5354,-0.37254,1.48031,0.96177
314.48,19.55658,-0.37992,1.48307,0.9613
315.18,19.57796,-0.38719,1.48349,0.96084
315.88,19.59933,-0.39338,1.48661,0.96037
316.58,19.62061,-0.40142,1.4901,0.95991
317.28,19.6418,-0.40858,1.48738,0.95944
317.98,19.66289,-0.41539,1.49441,0.95897
318.68,19.684,-0.42405,1.49723,0.9585
319.38,19.70514,-0.43107,1.49796,0.95803
320.08,19.7263,-0.43946,1.50324,0.95756
320.78,19.74756,-0.44591,1.50612,0.95709
321.48,19.76882,-0.4535,1.50757,0.95662
322.18,19.7901,-0.46141,1.51147,0.95615
322.88,19.8113,-0.4691,1.51606,0.95568
323.58,19.8326,-0.47795,1.52082,0.9552
324.28,19.8538,-0.48535,1.5239,0.95473
324.98,19.87508,-0.49429,1.52962,0.95425
325.68,19.8963,-0.50236,1.53487,0.95378
326.38,19.91747,-0.50957,1.54043,0.9533
327.08,19.9387,-0.51818,1.54838,0.95283
327.78,19.95991,-0.52563,1.55304,0.95235
328.48,19.98118,-0.53497,1.55893,0.95187
329.18,20.0025,-0.54298,1.56851,0.95139
329.88,20.02378,-0.55091,1.5766,0.95091
330.58,20.04486,-0.5596,1.5841,0.95043
331.28,20.06616,-0.56733,1.59316,0.94995
331.98,20.08744,-0.57693,1.60123,0.94947
332.68,20.10886,-0.58597,1.61239,0.94899
333.38,20.13032,-0.59513,1.62143,0.94851
334.08,20.15156,-0.6051,1.63289,0.94803
334.78,20.1729,-0.61512,1.64438,0.94754
335.48,20.19419,-0.6267,1.65699,0.94706
336.18,20.21552,-0.63693,1.67001,0.94657
336.88,20.2368,-0.64671,1.68258,0.94609
337.58,20.25814,-0.65725,1.69828,0.9456
338.28,20.27954,-0.66655,1.71267,0.94512
338.98,20.30094,-0.67881,1.72858,0.94463
339.68,20.32228,-0.68959,1.74652,0.94414
340.38,20.34355,-0.70057,1.76299,0.94365
341.08,20.36488,-0.71281,1.78188,0.94316
341.78,20.38624,-0.72352,1.80285,0.94267
342.48,20.40762,-0.73691,1.82245,0.94218
343.18,20.42899,-0.74861,1.84634,0.94169
343.88,20.45044,-0.76069,1.86888,0.9412
344.58,20.47189,-0.77569,1.8935,0.94071
345.28,20.49334,-0.78875,1.91911,0.94022
345.98,20.51476,-0.80398,1.94758,0.93972
346.68,20.53615,-0.81818,1.97525,0.93923
347.38,20.55761,-0.83251,2.00595,0.93873
348.08,20.57901,-0.84962,2.03843,0.93824
348.78,20.60043,-0.86416,2.06809,0.93774
349.48,20.62177,-0.88178,2.10358,0.93725
350.18,20.64321,-0.89881,2.13896,0.93675
350.88,20.66465,-0.91507,2.17482,0.93625
351.58,20.6862,-0.93471,2.21245,0.93575
352.28,20.7077,-0.95229,2.24954,0.93526
352.98,20.7292,-0.97299,2.29061,0.93476
353.68,20.75071,-0.99378,2.33234,0.93426
354.38,20.77225,-1.0125,2.37108,0.93376
355.08,20.79381,-1.03624,2.41254,0.93326
355.78,20.81541,-1.05748,2.45257,0.93275
356.48,20.83694,-1.08105,2.48749,0.93225
357.18,20.85845,-1.10832,2.52506,0.93175
357.88,20.87991,-1.1319,2.56091,0.93125
358.58,20.90147,-1.1611,2.59119,0.93074
359.28,20.92304,-1.1891,2.6167,0.93024
359.98,20.94464,-1.2151,2.63889,0.92973
360.68,20.96627,-1.24693,2.65553,0.92923
361.38,20.98788,-1.27474,2.6605,0.92872
362.08,21.00948,-1.30651,2.65854,0.92822
362.78,21.031,-1.33951,2.64437,0.92771
363.48,21.05256,-1.3682,2.61785,0.9272
364.18,21.0741,-1.40312,2.58045,0.9267
364.88,21.0957,-1.4347,2.52989,0.92619
365.58,21.11726,-1.46668,2.46447,0.92568
366.28,21.13874,-1.50105,2.38331,0.92517
366.98,21.16027,-1.52947,2.29489,0.92466
367.68,21.18171,-1.56324,2.19926,0.92415
368.38,21.20322,-1.59455,2.10032,0.92364
369.08,21.22474,-1.62288,1.99497,0.92313
369.78,21.2462,-1.65419,1.89356,0.92261
370.48,21.2677,-1.67894,1.7901,0.9221
371.18,21.2892,-1.70643,1.69145,0.92159
371.88,21.3107,-1.73304,1.59879,0.92107
372.58,21.33213,-1.75484,1.50749,0.92056
373.28,21.3536,-1.7795,1.42141,0.92004
373.98,21.37509,-1.79921,1.34084,0.91953
374.68,21.39661,-1.81901,1.26793,0.91901
375.38,21.41807,-1.8387,1.20224,0.9185
376.08,21.43958,-1.85392,1.13983,0.91798
376.78,21.461,-1.87058,1.08305,0.91746
377.48,21.48252,-1.88394,1.03119,0.91695
378.18,21.504,-1.89695,0.9842,0.91643
378.88,21.5254,-1.91122,0.94635,0.91591
379.58,21.5469,-1.92254,0.91292,0.91539
380.28,21.56833,-1.93514,0.87719,0.91487
380.98,21.58984,-1.94493,0.8487,0.91435
381.68,21.61141,-1.95385,0.82692,0.91383
382.38,21.6329,-1.96478,0.80498,0.91331
383.08,21.6545,-1.97357,0.78435,0.91279
383.78,21.67601,-1.98246,0.76896,0.91226
384.48,21.69751,-1.99104,0.75252,0.91174
385.18,21.7191,-1.99834,0.74363,0.91122
385.88,21.74065,-2.00692,0.73354,0.9107
386.58,21.76225,-2.01479,0.72405,0.91017
387.28,21.78381,-2.02281,0.71618,0.90965
387.98,21.80538,-2.03132,0.70986,0.90912
388.68,21.827,-2.03821,0.70635,0.9086
389.38,21.84853,-2.0463,0.69969,0.90807
390.08,21.87012,-2.05402,0.69663,0.90754
390.78,21.89172,-2.06045,0.69179,0.90702
391.48,21.91341,-2.06828,0.68833,0.90649
392.18,21.93506,-2.07492,0.68724,0.90596
392.88,21.95678,-2.08237,0.68539,0.90543
393.58,21.97842,-2.09024,0.6839,0.90491
394.28,22.00013,-2.09668,0.68134,0.90438
394.98,22.0218,-2.10415,0.67864,0.90385
395.68,22.04342,-2.11166,0.6768,0.90332
396.38,22.065,-2.11955,0.67563,0.90279
397.08,22.08664,-2.12926,0.67557,0.90226
397.78,22.10836,-2.13649,0.6733,0.90173
398.48,22.1302,-2.1436,0.67399,0.90119
399.18,22.152,-2.15142,0.67262,0.90066
399.88,22.17376,-2.15805,0.67048,0.90013
400.58,22.19555,-2.1658,0.67262,0.8996
401.28,22.21731,-2.17254,0.67154,0.89906
401.98,22.23909,-2.17965,0.66876,0.89853
402.68,22.2608,-2.18766,0.66787,0.89799
403.38,22.28262,-2.19459,0.66629,0.89746
404.08,22.30433,-2.20195,0.66664,0.89692
404.78,22.32605,-2.2108,0.66626,0.89639
405.48,22.34789,-2.21825,0.66368,0.89585
406.18,22.36969,-2.22601,0.66496,0.89532
406.88,22.39153,-2.23361,0.66527,0.89478
407.58,22.4133,-2.24044,0.66152,0.89424
408.28,22.43511,-2.24904,0.6601,0.89371
408.98,22.457,-2.2574,0.66034,0.89317
409.68,22.47885,-2.26513,0.65833,0.89263
410.38,22.50071,-2.27415,0.65843,0.89209
411.08,22.52255,-2.2821,0.65487,0.89155
411.78,22.5444,-2.28993,0.65583,0.89101
412.48,22.56622,-2.2986,0.65446,0.89047
413.18,22.58805,-2.30626,0.65369,0.88993
413.88,22.60985,-2.31478,0.65242,0.88939
414.58,22.63168,-2.32497,0.65279,0.88885
415.28,22.65362,-2.33266,0.65064,0.88831
415.98,22.6755,-2.34193,0.64983,0.88777
416.68,22.69745,-2.35044,0.64628,0.88722
417.38,22.71934,-2.35799,0.64769,0.88668
418.08,22.7412,-2.36731,0.64511,0.88614
418.78,22.76304,-2.37614,0.64176,0.88559
419.48,22.78493,-2.38459,0.63964,0.88505
420.18,22.80684,-2.39448,0.63833,0.88451
420.88,22.8288,-2.40324,0.63967,0.88396
421.58,22.85069,-2.41216,0.63828,0.88342
422.28,22.87262,-2.42247,0.63961,0.88287
422.98,22.89454,-2.4309,0.63565,0.88233
423.68,22.91646,-2.44025,0.63717,0.88178
424.38,22.93844,-2.45099,0.63489,0.88123
425.08,22.96035,-2.46011,0.63564,0.88069
425.78,22.98219,-2.47008,0.63613,0.88014
426.48,23.0042,-2.47968,0.63324,0.87959
427.18,23.02605,-2.48833,0.63322,0.87904
427.88,23.0482,-2.4991,0.63337,0.8785
428.58,23.07011,-2.50946,0.63407,0.87795
429.28,23.09212,-2.51911,0.63107,0.8774
429.98,23.11404,-2.52958,0.63315,0.87685
430.68,23.13605,-2.53944,0.63372,0.8763
431.38,23.15796,-2.54928,0.63541,0.87575
432.08,23.18008,-2.56122,0.63418,0.8752
432.78,23.20204,-2.57103,0.63459,0.87465
433.48,23.22413,-2.58136,0.63392,0.8741
434.18,23.2462,-2.59327,0.63603,0.87355
434.88,23.26829,-2.60301,0.63831,0.873
435.58,23.29036,-2.61309,0.63783,0.87244
436.28,23.31239,-2.6244,0.63837,0.87189
436.98,23.3344,-2.63403,0.63625,0.87134
437.68,23.3564,-2.64481,0.63596,0.87079
438.38,23.3784,-2.65632,0.63582,0.87023
439.08,23.40044,-2.66552,0.63978,0.86968
439.78,23.4224,-2.67633,0.63745,0.86913
440.48,23.4445,-2.68713,0.63489,0.86857
441.18,23.46649,-2.69584,0.63894,0.86802
441.88,23.48844,-2.7058,0.6392,0.86746
442.58,23.51043,-2.71584,0.63968,0.86691
443.28,23.53249,-2.72526,0.64179,0.86635
443.98,23.5546,-2.73593,0.63818,0.86579
444.68,23.5766,-2.74567,0.63934,0.86524
445.38,23.59866,-2.75436,0.63959,0.86468
446.08,23.62075,-2.7643,0.63667,0.86413
446.78,23.64291,-2.77329,0.64021,0.86357
447.48,23.66504,-2.78118,0.64092,0.86301
448.18,23.6872,-2.79028,0.63816,0.86245
448.88,23.70928,-2.79865,0.63885,0.8619
449.58,23.73143,-2.80708,0.63756,0.86134
450.28,23.75348,-2.81631,0.63391,0.86078
450.98,23.77559,-2.82525,0.63542,0.86022
451.68,23.7976,-2.83354,0.63347,0.85966
452.38,23.81972,-2.84204,0.63245,0.8591
453.08,23.8418,-2.84935,0.63189,0.85854
453.78,23.86394,-2.85675,0.63088,0.85798
454.48,23.886,-2.86462,0.62879,0.85742
455.18,23.9082,-2.87112,0.62739,0.85686
455.88,23.9303,-2.87789,0.62283,0.8563
456.58,23.95254,-2.88541,0.62161,0.85574
457.28,23.97465,-2.89197,0.61574,0.85518
457.98,23.99677,-2.89893,0.61255,0.85462
458.68,24.01888,-2.90615,0.61083,0.85406
459.38,24.04107,-2.91213,0.6038,0.85349
460.08,24.06325,-2.91847,0.60076,0.85293
460.78,24.08544,-2.92499,0.59423,0.85237
461.48,24.10758,-2.93064,0.58947,0.8518
462.18,24.1297,-2.93721,0.5834,0.85124
462.88,24.15194,-2.94349,0.57599,0.85068
463.58,24.1741,-2.94825,0.57169,0.85011
464.28,24.1963,-2.95275,0.56383,0.84955
464.98,24.21845,-2.95818,0.55397,0.84899
465.68,24.24063,-2.96258,0.54509,0.84842
466.38,24.26279,-2.96798,0.53694,0.84786
467.08,24.28497,-2.97479,0.52767,0.84729
467.78,24.3071,-2.9793,0.51996,0.84673
468.48,24.32935,-2.98435,0.5099,0.84616
469.18,24.35156,-2.9889,0.50058,0.8456
469.88,24.37377,-2.99394,0.48979,0.84503
470.58,24.39595,-2.99771,0.47813,0.84446
471.28,24.4181,-3.0025,0.46665,0.8439
471.98,24.44037,-3.00686,0.46035,0.84333
472.68,24.46256,-3.01012,0.44929,0.84276
473.38,24.48489,-3.01418,0.43737,0.8422
474.08,24.50711,-3.01803,0.42833,0.84163
474.78,24.52939,-3.02143,0.41841,0.84106
475.48,24.55157,-3.02581,0.4062,0.84049
476.18,24.57376,-3.02908,0.40036,0.83993
476.88,24.59595,-3.03164,0.39203,0.83936
477.58,24.6182,-3.03494,0.37978,0.83879
478.28,24.64043,-3.03831,0.37381,0.83822
478.98,24.6628,-3.04093,0.36892,0.83765
479.68,24.685,-3.0444,0.35791,0.83708
480.38,24.70721,-3.04737,0.35305,0.83651
481.08,24.72941,-3.04976,0.34239,0.83594
481.78,24.75167,-3.05213,0.33661,0.83537
482.48,24.77388,-3.05448,0.33248,0.8348
483.18,24.79609,-3.05678,0.32577,0.83423
483.88,24.81837,-3.05933,0.31884,0.83366
484.58,24.84071,-3.06122,0.31675,0.83309
485.28,24.86301,-3.06346,0.31231,0.83252
485.98,24.8853,-3.06565,0.30519,0.83195
486.68,24.90762,-3.06794,0.30389,0.83138
487.38,24.92997,-3.07085,0.29765,0.83081
488.08,24.95235,-3.07262,0.29637,0.83024
488.78,24.97466,-3.07478,0.29194,0.82966
489.48,24.99691,-3.07699,0.2907,0.82909
490.18,25.01918,-3.07911,0.29091,0.82852
490.88,25.0415,-3.08074,0.28587,0.82795
491.58,25.0639,-3.08211,0.28256,0.82737
492.28,25.08626,-3.08344,0.28194,0.8268
492.98,25.10857,-3.08424,0.27696,0.82623
493.68,25.13094,-3.0854,0.27611,0.82565
494.38,25.15326,-3.08643,0.27706,0.82508
495.08,25.1756,-3.08784,0.27542,0.82451
495.78,25.19799,-3.09052,0.27445,0.82393
496.48,25.22033,-3.09273,0.27032,0.82336
497.18,25.24267,-3.09423,0.26879,0.82279
497.88,25.2651,-3.09556,0.26831,0.82221
498.58,25.2875,-3.09672,0.26886,0.82164
499.28,25.3098,-3.09789,0.2669,0.82106
499.98,25.33221,-3.09929,0.27035,0.82049
500.68,25.35461,-3.10084,0.26281,0.81991
501.38,25.377,-3.10217,0.26388,0.81934
502.08,25.39941,-3.10227,0.2633,0.81876
502.78,25.42185,-3.10376,0.26113,0.81819
503.48,25.4443,-3.10549,0.26052,0.81761
504.18,25.46673,-3.10673,0.25828,0.81704
504.88,25.48914,-3.10717,0.25761,0.81646
505.58,25.51162,-3.10873,0.25697,0.81588
506.28,25.53402,-3.11049,0.25604,0.81531
506.98,25.55636,-3.11199,0.25814,0.81473
507.68,25.57873,-3.113,0.25467,0.81415
508.38,25.60108,-3.11304,0.25692,0.81358
509.08,25.62358,-3.11453,0.25394,0.813
509.78,25.646,-3.11607,0.25472,0.81242
510.48,25.66846,-3.11652,0.25076,0.81185
511.18,25.69085,-3.11675,0.25055,0.81127
511.88,25.71329,-3.11761,0.25088,0.81069
512.58,25.7357,-3.11766,0.2501,0.81011
513.28,25.75814,-3.12003,0.25225,0.80954
513.98,25.78056,-3.12011,0.25262,0.80896
514.68,25.80305,-3.12132,0.24941,0.80838
515.38,25.82559,-3.12251,0.24967,0.8078
516.08,25.84808,-3.12313,0.24884,0.80722
516.78,25.8706,-3.12437,0.25101,0.80665
517.48,25.89295,-3.12595,0.2481,0.80607
518.18,25.9153,-3.12615,0.24528,0.80549
518.88,25.9377,-3.12725,0.24378,0.80491
519.58,25.96019,-3.12728,0.24662,0.80433
520.28,25.98272,-3.12858,0.24727,0.80375
520.98,26.0052,-3.12915,0.24628,0.80317
521.68,26.0277,-3.12988,0.24368,0.80259
522.38,26.05017,-3.12957,0.24385,0.80201
523.08,26.07265,-3.13056,0.2461,0.80143
523.78,26.09515,-3.1304,0.24414,0.80085
524.48,26.11767,-3.1313,0.24557,0.80028
525.18,26.14016,-3.13265,0.24425,0.7997
525.88,26.16272,-3.13288,0.24373,0.79912
526.58,26.18524,-3.13527,0.23943,0.79854
527.28,26.20777,-3.13577,0.24193,0.79795
527.98,26.23027,-3.13667,0.24143,0.79737
528.68,26.25276,-3.13824,0.24103,0.79679
529.38,26.2753,-3.1393,0.24185,0.79621
530.08,26.29781,-3.13853,0.24165,0.79563
530.78,26.32037,-3.13889,0.2396,0.79505
531.48,26.34287,-3.13977,0.24056,0.79447
532.18,26.3654,-3.13977,0.24049,0.79389
532.88,26.388,-3.13983,0.23872,0.79331
533.58,26.4106,-3.14193,0.2395,0.79273
534.28,26.43311,-3.14206,0.23756,0.79215
534.98,26.4556,-3.14403,0.23533,0.79157
535.68,26.4782,-3.14418,0.23858,0.79098
536.38,26.50082,-3.14524,0.23941,0.7904
537.08,26.5235,-3.14562,0.23807,0.78982
537.78,26.54611,-3.14656,0.23568,0.78924
538.48,26.56867,-3.14756,0.24,0.78866
539.18,26.59117,-3.14788,0.23898,0.78808
539.88,26.6137,-3.14832,0.23873,0.78749
540.58,26.63632,-3.14918,0.23837,0.78691
541.28,26.65884,-3.15012,0.23335,0.78633
541.98,26.6814,-3.1513,0.2353,0.78575
542.68,26.7039,-3.15247,0.23431,0.78517
543.38,26.72652,-3.1526,0.23387,0.78458
544.08,26.74915,-3.1526,0.23565,0.784
544.78,26.7718,-3.15259,0.23601,0.78342
545.48,26.7945,-3.15393,0.23209,0.78284
546.18,26.8171,-3.15389,0.2335,0.78225
546.88,26.8397,-3.15524,0.23131,0.78167
547.58,26.86225,-3.15533,0.234,0.78109
548.28,26.8849,-3.15654,0.23403,0.78051
548.98,26.90751,-3.15652,0.232,0.77992
549.68,26.93017,-3.15665,0.2313,0.77934
550.38,26.9528,-3.15656,0.2327,0.77876
551.08,26.97547,-3.15801,0.23169,0.77817
551.78,26.9981,-3.1585,0.22975,0.77759
552.48,27.0207,-3.16065,0.2292,0.77701
553.18,27.04334,-3.1606,0.23088,0.77642
553.88,27.06598,-3.1606,0.22874,0.77584
554.58,27.08865,-3.16197,0.22889,0.77526
555.28,27.11138,-3.16242,0.22664,0.77467
555.98,27.1341,-3.16347,0.22761,0.77409
556.68,27.1568,-3.1646,0.22975,0.77351
557.38,27.17945,-3.16476,0.2308,0.77292
558.08,27.2021,-3.16348,0.22855,0.77234
558.78,27.2249,-3.16435,0.22614,0.77176
559.48,27.2476,-3.16488,0.22761,0.77117
560.18,27.27034,-3.16614,0.22581,0.77059
560.88,27.2931,-3.1662,0.22799,0.77001
561.58,27.31581,-3.16738,0.22766,0.76942
562.28,27.33845,-3.16882,0.22841,0.76884
562.98,27.36117,-3.16883,0.2261,0.76825
563.68,27.3838,-3.16923,0.22908,0.76767
564.38,27.4066,-3.17026,0.23079,0.76709
565.08,27.42928,-3.17026,0.23069,0.7665
565.78,27.45203,-3.17054,0.23291,0.76592
566.48,27.4748,-3.17156,0.23084,0.76533
567.18,27.49748,-3.17157,0.23248,0.76475
567.88,27.52021,-3.17157,0.23372,0.76417
568.58,27.54295,-3.17267,0.23232,0.76358
569.28,27.56573,-3.17289,0.22927,0.763
569.98,27.58848,-3.17347,0.23443,0.76241
570.68,27.61127,-3.17431,0.23405,0.76183
571.38,27.63407,-3.17479,0.23407,0.76125
572.08,27.65685,-3.17563,0.23591,0.76066
572.78,27.67955,-3.17599,0.23673,0.76008
573.48,27.70235,-3.17627,0.23437,0.75949
574.18,27.72519,-3.17596,0.23643,0.75891
574.88,27.74802,-3.1773,0.23446,0.75832
575.58,27.77078,-3.17728,0.23353,0.75774
576.28,27.7935,-3.17727,0.23482,0.75716
576.98,27.8163,-3.17864,0.23461,0.75657
577.68,27.8392,-3.1786,0.23675,0.75599
578.38,27.86202,-3.17869,0.23822,0.7554
579.08,27.8849,-3.17993,0.23725,0.75482
579.78,27.90768,-3.18127,0.2381,0.75423
580.48,27.9305,-3.18257,0.23846,0.75365
581.18,27.95327,-3.18265,0.23745,0.75307
581.88,27.97611,-3.18277,0.23803,0.75248
582.58,27.9989,-3.18397,0.2414,0.7519
583.28,28.0218,-3.18397,0.23758,0.75131
583.98,28.04467,-3.18397,0.23887,0.75073
584.68,28.0675,-3.18408,0.23767,0.75014
585.38,28.0904,-3.18527,0.24119,0.74956
586.08,28.11328,-3.18528,0.24132,0.74897
586.78,28.1362,-3.18637,0.24084,0.74839
587.48,28.159,-3.18596,0.24012,0.74781
588.18,28.18184,-3.18529,0.24135,0.74722
588.88,28.20468,-3.18553,0.24101,0.74664
589.58,28.2275,-3.18661,0.2429,0.74605
590.28,28.25027,-3.18661,0.23952,0.74547
590.98,28.27321,-3.18665,0.24282,0.74488
591.68,28.29617,-3.18792,0.24188,0.7443
592.38,28.319,-3.1889,0.24118,0.74372
593.08,28.3419,-3.19027,0.24291,0.74313
593.78,28.36484,-3.19021,0.2432,0.74255
594.48,28.38795,-3.19155,0.24614,0.74196
595.18,28.4109,-3.19153,0.24368,0.74138
595.88,28.43375,-3.19235,0.24474,0.74079
596.58,28.4567,-3.19285,0.24543,0.74021
597.28,28.47969,-3.19285,0.24895,0.73963
597.98,28.50258,-3.19391,0.24461,0.73904
598.68,28.5254,-3.19417,0.24755,0.73846
599.38,28.5483,-3.19473,0.24787,0.73787
600.08,28.5712,-3.19548,0.24868,0.73729
600.78,28.59416,-3.19548,0.25094,0.73671
601.48,28.6172,-3.19549,0.2513,0.73612
602.18,28.64013,-3.19655,0.25056,0.73554
602.88,28.6631,-3.19682,0.25036,0.73495
603.58,28.686,-3.1955,0.25166,0.73437
604.28,28.70905,-3.1968,0.25036,0.73379
604.98,28.73205,-3.19709,0.25274,0.7332
605.68,28.755,-3.19811,0.25189,0.73262
606.38,28.77794,-3.19861,0.2515,0.73204
607.08,28.80085,-3.20077,0.25138,0.73145
607.78,28.82377,-3.20075,0.25019,0.73087
608.48,28.84667,-3.20181,0.25122,0.73028
609.18,28.86968,-3.20206,0.24881,0.7297
609.88,28.89272,-3.20206,0.24672,0.72912
610.58,28.9158,-3.20343,0.24508,0.72853
611.28,28.9387,-3.20367,0.24411,0.72795
611.98,28.9617,-3.2048,0.24586,0.72737
612.68,28.9847,-3.20532,0.24551,0.72678
613.38,29.00765,-3.20612,0.24402,0.7262
614.08,29.0306,-3.2061,0.24331,0.72562
614.78,29.05365,-3.20745,0.2427,0.72503
615.48,29.0767,-3.20739,0.24357,0.72445
616.18,29.0997,-3.20875,0.24237,0.72387
616.88,29.1227,-3.20876,0.24177,0.72329
617.58,29.1458,-3.20876,0.23859,0.7227
618.28,29.16885,-3.21006,0.24029,0.72212
618.98,29.19186,-3.21007,0.23933,0.72154
619.68,29.2149,-3.21008,0.23907,0.72095
620.38,29.23787,-3.21131,0.23522,0.72037
621.08,29.2608,-3.21138,0.23957,0.71979
621.78,29.2838,-3.21265,0.23337,0.71921
622.48,29.30684,-3.21271,0.23565,0.71862
623.18,29.32995,-3.2117,0.23521,0.71804
623.88,29.35306,-3.21271,0.23128,0.71746
624.58,29.3761,-3.21338,0.23359,0.71688
625.28,29.39899,-3.21414,0.23214,0.71629
625.98,29.4218,-3.21531,0.23433,0.71571
626.68,29.44473,-3.2157,0.2337,0.71513
627.38,29.4679,-3.2179,0.23407,0.71455
628.08,29.49095,-3.21808,0.23519,0.71397
628.78,29.5141,-3.2181,0.23316,0.71338
629.48,29.53715,-3.21937,0.23748,0.7128
630.18,29.5602,-3.21939,0.23277,0.71222
630.88,29.5833,-3.21974,0.23698,0.71164
631.58,29.60635,-3.22071,0.23896,0.71106
632.28,29.62942,-3.221,0.23866,0.71048
632.98,29.65245,-3.22203,0.241,0.70989
633.68,29.6755,-3.22203,0.24,0.70931
634.38,29.69854,-3.22231,0.24392,0.70873
635.08,29.7216,-3.22277,0.24124,0.70815
635.78,29.7446,-3.22204,0.24444,0.70757
636.48,29.76772,-3.22316,0.24315,0.70699
637.18,29.7907,-3.22334,0.24338,0.70641
637.88,29.81372,-3.22449,0.24624,0.70583
638.58,29.83669,-3.22532,0.249,0.70525
639.28,29.85975,-3.22532,0.25009,0.70467
639.98,29.8828,-3.22544,0.25273,0.70408
640.68,29.90591,-3.22663,0.25279,0.7035
641.38,29.9289,-3.22663,0.25304,0.70292
642.08,29.952,-3.22661,0.25411,0.70234
642.78,29.975,-3.22794,0.25413,0.70176
643.48,29.99815,-3.22795,0.2603,0.70118
644.18,30.0213,-3.22795,0.25838,0.7006
644.88,30.0444,-3.22795,0.26316,0.70002
645.58,30.0674,-3.22804,0.26472,0.69944
646.28,30.0905,-3.22993,0.26176,0.69886
646.98,30.11355,-3.22992,0.26865,0.69828
647.68,30.13665,-3.23026,0.26845,0.6977
648.38,30.15977,-3.23135,0.26962,0.69713
649.08,30.18285,-3.23135,0.27175,0.69655
649.78,30.206,-3.23235,0.27383,0.69597
650.48,30.22904,-3.23267,0.27386,0.69539
651.18,30.25215,-3.23171,0.2781,0.69481
651.88,30.2752,-3.23169,0.27469,0.69423
652.58,30.29829,-3.23169,0.28106,0.69365
653.28,30.3213,-3.23223,0.28026,0.69307
653.98,30.34443,-3.233,0.28172,0.69249
654.68,30.36755,-3.233,0.28206,0.69191
655.38,30.3907,-3.233,0.28167,0.69134
656.08,30.41382,-3.23345,0.2861,0.69076
656.78,30.4369,-3.23432,0.28338,0.69018
657.48,30.46,-3.23431,0.28798,0.6896
658.18,30.48315,-3.23567,0.28604,0.68902
658.88,30.5063,-3.23563,0.28379,0.68845
659.58,30.52928,-3.23562,0.28505,0.68787
660.28,30.55248,-3.23531,0.28873,0.68729
660.98,30.57555,-3.23564,0.29089,0.68671
661.68,30.5988,-3.23564,0.28946,0.68614
662.38,30.62185,-3.2356,0.29063,0.68556
663.08,30.64505,-3.23696,0.29067,0.68498
663.78,30.6682,-3.23714,0.29233,0.6844
664.48,30.69125,-3.23793,0.28827,0.68383
665.18,30.71432,-3.23792,0.28891,0.68325
665.88,30.7375,-3.23921,0.29147,0.68267
666.58,30.7606,-3.23925,0.28942,0.6821
667.28,30.7838,-3.23925,0.2888,0.68152
667.98,30.80694,-3.23925,0.28867,0.68094
668.68,30.83012,-3.23811,0.28953,0.68037
669.38,30.8532,-3.23793,0.28688,0.67979
670.08,30.87629,-3.23929,0.29013,0.67922
670.78,30.89935,-3.23925,0.28979,0.67864
671.48,30.9225,-3.23988,0.28737,0.67807
672.18,30.9456,-3.2399,0.28917,0.67749
672.88,30.96875,-3.23999,0.29041,0.67691
673.58,30.99189,-3.24122,0.29025,0.67634
674.28,31.015,-3.24122,0.29057,0.67576
674.98,31.0382,-3.24122,0.29154,0.67519
675.68,31.06131,-3.24176,0.29198,0.67461
676.38,31.0845,-3.24254,0.28892,0.67404
677.08,31.10768,-3.24254,0.29117,0.67346
677.78,31.1308,-3.24255,0.28934,0.67289
678.48,31.1539,-3.24318,0.28996,0.67232
679.18,31.177,-3.24254,0.2944,0.67174
679.88,31.20018,-3.24254,0.28954,0.67117
680.58,31.2234,-3.24254,0.28906,0.67059
681.28,31.24656,-3.24329,0.29316,0.67002
681.98,31.26967,-3.2438,0.29129,0.66945
682.68,31.29284,-3.24517,0.29467,0.66887
683.38,31.31595,-3.24517,0.29509,0.6683
684.08,31.3391,-3.24517,0.2963,0.66773
684.78,31.36223,-3.24597,0.29871,0.66715
685.48,31.38535,-3.24518,0.29452,0.66658
686.18,31.4085,-3.24518,0.29554,0.66601
686.88,31.43165,-3.24518,0.29585,0.66543
687.58,31.45487,-3.24612,0.29573,0.66486
688.28,31.47812,-3.24649,0.29663,0.66429
688.98,31.50136,-3.24649,0.2991,0.66372
689.68,31.52457,-3.24649,0.30022,0.66315
690.38,31.5477,-3.24649,0.29568,0.66257
691.08,31.5708,-3.24694,0.29534,0.662
691.78,31.5939,-3.24781,0.29427,0.66143
692.48,31.6171,-3.24781,0.29526,0.66086
693.18,31.6403,-3.24781,0.29498,0.66029
693.88,31.6635,-3.24781,0.29525,0.65972
694.58,31.68683,-3.24781,0.29106,0.65914
695.28,31.71007,-3.24781,0.29239,0.65857
695.98,31.7332,-3.24781,0.2933,0.658
696.68,31.7564,-3.24859,0.29305,0.65743
697.38,31.7796,-3.2478,0.29196,0.65686
698.08,31.80289,-3.2478,0.28976,0.65629
698.78,31.82606,-3.2478,0.29145,0.65572
699.48,31.84927,-3.24807,0.29054,0.65515
700.18,31.87251,-3.24912,0.28902,0.65458
700.88,31.89578,-3.24912,0.28641,0.65401
701.58,31.91905,-3.24912,0.29219,0.65344
702.28,31.94224,-3.24912,0.28706,0.65287
702.98,31.9653,-3.24912,0.28766,0.65231
703.68,31.9885,-3.25011,0.28846,0.65174
704.38,32.01177,-3.25044,0.286,0.65117
705.08,32.0352,-3.2504,0.28685,0.6506
705.78,32.0585,-3.25177,0.29055,0.65003
706.48,32.0818,-3.25176,0.28905,0.64946
707.18,32.1051,-3.25174,0.2932,0.64889
707.88,32.12834,-3.25221,0.28527,0.64833
708.58,32.15155,-3.25209,0.28732,0.64776
709.28,32.17484,-3.25345,0.28171,0.64719
709.98,32.1981,-3.2534,0.28458,0.64662
710.68,32.22136,-3.2534,0.28247,0.64606
711.38,32.24456,-3.2539,0.28016,0.64549
712.08,32.2678,-3.25472,0.28049,0.64492
712.78,32.29104,-3.25472,0.27956,0.64435
713.48,32.31431,-3.25472,0.27868,0.64379
714.18,32.3376,-3.25446,0.27712,0.64322
714.88,32.3609,-3.25439,0.27789,0.64266
715.58,32.3842,-3.25437,0.27831,0.64209
716.28,32.40749,-3.25572,0.27408,0.64152
716.98,32.43077,-3.2557,0.27601,0.64096
717.68,32.454,-3.2557,0.27693,0.64039
718.38,32.47732,-3.25652,0.27459,0.63983
719.08,32.5006,-3.25702,0.27389,0.63926
719.78,32.52385,-3.25702,0.27222,0.6387
720.48,32.54714,-3.25702,0.26959,0.63813
721.18,32.57043,-3.257,0.27124,0.63757
721.88,32.5937,-3.25834,0.27202,0.637
722.58,32.61701,-3.25838,0.2701,0.63644
723.28,32.64035,-3.25703,0.26745,0.63587
723.98,32.66367,-3.25701,0.26576,0.63531
724.68,32.687,-3.25773,0.26707,0.63475
725.38,32.71032,-3.25768,0.2654,0.63418
726.08,32.7336,-3.25768,0.26419,0.63362
726.78,32.7569,-3.25765,0.26257,0.63306
727.48,32.78024,-3.25833,0.26082,0.63249
728.18,32.80359,-3.25959,0.25478,0.63193
728.88,32.82691,-3.25965,0.25833,0.63137
729.58,32.85027,-3.25966,0.25378,0.6308
730.28,32.87355,-3.26072,0.24997,0.63024
730.98,32.89689,-3.26097,0.24921,0.62968
731.68,32.92011,-3.26097,0.24726,0.62912
732.38,32.94344,-3.26096,0.2443,0.62856
733.08,32.9668,-3.25992,0.24283,0.62799
733.78,32.9901,-3.25966,0.23988,0.62743
734.48,33.01355,-3.26009,0.23616,0.62687
735.18,33.0369,-3.26097,0.23094,0.62631
735.88,33.06025,-3.26096,0.22743,0.62575
736.58,33.08354,-3.26223,0.22776,0.62519
737.28,33.1068,-3.26229,0.22956,0.62463
737.98,33.13017,-3.26229,0.22838,0.62407
738.68,33.15355,-3.26229,0.22212,0.62351
739.38,33.1769,-3.26229,0.22452,0.62295
740.08,33.20027,-3.26229,0.22196,0.62239
740.78,33.2237,-3.26227,0.2183,0.62183
741.48,33.24711,-3.26362,0.21882,0.62127
742.18,33.2705,-3.26361,0.21286,0.62071
742.88,33.29391,-3.26361,0.21602,0.62015
743.58,33.31732,-3.26361,0.21163,0.61959
744.28,33.3407,-3.26371,0.21037,0.61904
744.98,33.3641,-3.26491,0.20887,0.61848
745.68,33.38751,-3.26492,0.21208,0.61792
746.38,33.41095,-3.26492,0.20692,0.61736
747.08,33.43443,-3.26496,0.2052,0.6168
747.78,33.45786,-3.2659,0.20504,0.61625
748.48,33.48122,-3.26577,0.19904,0.61569
749.18,33.50465,-3.26459,0.19933,0.61513
749.88,33.52812,-3.26459,0.19487,0.61457
750.58,33.55157,-3.2646,0.19514,0.61402
751.28,33.57493,-3.26491,0.19468,0.61346
751.98,33.59832,-3.26492,0.19578,0.61291
752.68,33.62175,-3.26504,0.19146,0.61235
753.38,33.64517,-3.26525,0.19143,0.61179
754.08,33.66858,-3.26587,0.18907,0.61124
754.78,33.692,-3.26623,0.18764,0.61068
755.48,33.71544,-3.26618,0.18641,0.61013
756.18,33.7388,-3.26755,0.18451,0.60957
756.88,33.76222,-3.26755,0.18206,0.60902
757.58,33.78569,-3.26755,0.18112,0.60846
758.28,33.80923,-3.26755,0.18229,0.60791
758.98,33.8326,-3.26755,0.18367,0.60735
759.68,33.85602,-3.26755,0.1781,0.6068
760.38,33.8794,-3.26755,0.17884,0.60625
761.08,33.9028,-3.26785,0.17445,0.60569
761.78,33.92628,-3.26887,0.17189,0.60514
762.48,33.94978,-3.26887,0.17348,0.60459
763.18,33.9733,-3.26887,0.17127,0.60403
763.88,33.99678,-3.26888,0.16946,0.60348
764.58,34.02016,-3.26993,0.16813,0.60293
765.28,34.04359,-3.26941,0.16561,0.60237
765.98,34.06702,-3.26886,0.16675,0.60182
766.68,34.09045,-3.27004,0.16221,0.60127
767.38,34.1139,-3.27018,0.16088,0.60072
768.08,34.13731,-3.27018,0.15972,0.60017
768.78,34.16081,-3.27018,0.16118,0.59962
769.48,34.18434,-3.27018,0.15678,0.59906
770.18,34.20785,-3.27018,0.15566,0.59851
770.88,34.23129,-3.27018,0.15792,0.59796
771.58,34.2547,-3.27072,0.15404,0.59741
772.28,34.2782,-3.2715,0.15551,0.59686
772.98,34.3016,-3.27182,0.15366,0.59631
773.68,34.32513,-3.27183,0.15533,0.59576
774.38,34.34861,-3.27183,0.15348,0.59521
775.08,34.37215,-3.27183,0.15205,0.59466
775.78,34.3956,-3.27183,0.1535,0.59411
776.48,34.41905,-3.27183,0.14892,0.59356
777.18,34.44249,-3.27183,0.15274,0.59302
777.88,34.46587,-3.27183,0.1473,0.59247
778.58,34.48927,-3.27183,0.1489,0.59192
779.28,34.51277,-3.27183,0.1502,0.59137
779.98,34.53622,-3.27305,0.14583,0.59082
780.68,34.55976,-3.27314,0.14283,0.59028
781.38,34.58324,-3.27313,0.14394,0.58973
782.08,34.60668,-3.27209,0.14106,0.58918
782.78,34.63016,-3.27183,0.14327,0.58863
783.48,34.65359,-3.27183,0.14324,0.58809
784.18,34.67708,-3.27262,0.14003,0.58754
784.88,34.70057,-3.27315,0.14213,0.58699
785.58,34.7241,-3.27315,0.14253,0.58645
786.28,34.74754,-3.27316,0.1438,0.5859
786.98,34.771,-3.27383,0.1413,0.58536
787.68,34.79444,-3.27381,0.14287,0.58481
788.38,34.81793,-3.27504,0.1435,0.58427
789.08,34.84149,-3.27511,0.14681,0.58372
789.78,34.86499,-3.27511,0.14176,0.58318
790.48,34.88855,-3.27511,0.14054,0.58263
791.18,34.91202,-3.2751,0.14109,0.58209
791.88,34.93551,-3.27646,0.14061,0.58154
792.58,34.95899,-3.27512,0.14134,0.581
793.28,34.9825,-3.27512,0.1368,0.58046
793.68,34.99599,-3.27512,0.13782,0.58015