File: 01_Data/Bamboo_Rug_B/STA/N2/30K_min/Bamboo_Rug_B_STA_N2_30KData_220126_R3.csv
##Temp./Â°C,Time/min,Mass loss(subtr.2)/mg,DSC(subtr.2)/(mW/mg),Sensit./(uV/mW)
48.542,10.00667,-0.02292,0.0003593318,1.06963
49.242,10.55603,-0.02306564,0.04529618,1.06957
49.942,10.6792,-0.02226898,0.08641723,1.06951
50.642,10.7676,-0.02368047,0.1199,1.06944
51.342,10.84088,-0.02370355,0.14963,1.06938
52.042,10.90399,-0.02389065,0.17915,1.06931
52.742,10.96057,-0.02431363,0.20495,1.06924
53.442,11.01216,-0.02373506,0.22914,1.06917
54.142,11.0603,-0.02516267,0.25581,1.0691
54.842,11.1051,-0.02429222,0.27849,1.06903
55.542,11.14771,-0.02510487,0.29788,1.06896
56.242,11.1881,-0.02494988,0.32004,1.06888
56.942,11.22685,-0.0247633,0.3412,1.06881
57.642,11.26442,-0.02464035,0.35887,1.06873
58.342,11.30072,-0.02373216,0.3775,1.06865
59.042,11.33584,-0.02429825,0.39379,1.06857
59.742,11.37,-0.0252044,0.40904,1.06849
60.442,11.40311,-0.02541708,0.42448,1.0684
61.142,11.4356,-0.02551135,0.44001,1.06832
61.842,11.46751,-0.0253022,0.45454,1.06823
62.542,11.4986,-0.02501696,0.46954,1.06815
63.242,11.5287,-0.02445884,0.48184,1.06806
63.942,11.55911,-0.02411521,0.49702,1.06797
64.642,11.58963,-0.02505651,0.51075,1.06788
65.342,11.61939,-0.02507672,0.52518,1.06778
66.042,11.64841,-0.02561357,0.53787,1.06769
66.742,11.67709,-0.02434763,0.55076,1.06759
67.442,11.70565,-0.02413461,0.56103,1.0675
68.142,11.73374,-0.02413964,0.572,1.0674
68.842,11.7614,-0.02409959,0.58175,1.0673
69.542,11.78872,-0.02424854,0.59356,1.0672
70.242,11.81603,-0.02513461,0.6024,1.0671
70.942,11.84326,-0.0248191,0.60881,1.06699
71.642,11.87037,-0.02447108,0.61601,1.06689
72.342,11.8972,-0.02452104,0.62365,1.06678
73.042,11.92372,-0.02317653,0.6293,1.06668
73.742,11.95006,-0.02365068,0.63486,1.06657
74.442,11.97635,-0.02507408,0.63981,1.06646
75.142,12.00243,-0.02491925,0.64682,1.06635
75.842,12.0282,-0.02427905,0.6475,1.06623
76.542,12.0539,-0.02347474,0.65307,1.06612
77.242,12.07967,-0.0234142,0.65665,1.066
77.942,12.10554,-0.02413025,0.66124,1.06589
78.642,12.13108,-0.02524994,0.66706,1.06577
79.342,12.15648,-0.02502953,0.67153,1.06565
80.042,12.18177,-0.02493869,0.67621,1.06553
80.742,12.20703,-0.02530756,0.67965,1.06541
81.442,12.23202,-0.02691323,0.6853,1.06528
82.142,12.25698,-0.02554164,0.68946,1.06516
82.842,12.2819,-0.02594057,0.6948,1.06503
83.542,12.30695,-0.02554945,0.69795,1.0649
84.242,12.33184,-0.02554915,0.70491,1.06478
84.942,12.35645,-0.02556472,0.70928,1.06465
85.642,12.38113,-0.02664983,0.71434,1.06452
86.342,12.4056,-0.02569464,0.71826,1.06438
87.042,12.43016,-0.02697607,0.72229,1.06425
87.742,12.45452,-0.02737413,0.72732,1.06411
88.442,12.47899,-0.02707585,0.7317,1.06398
89.142,12.5033,-0.02818468,0.73651,1.06384
89.842,12.52759,-0.027034,0.74019,1.0637
90.542,12.55185,-0.02754421,0.74516,1.06356
91.242,12.5761,-0.02843421,0.74967,1.06342
91.942,12.60017,-0.02740669,0.75263,1.06328
92.642,12.6241,-0.02822565,0.75679,1.06313
93.342,12.6481,-0.02838903,0.76134,1.06299
94.042,12.67207,-0.02963318,0.76577,1.06284
94.742,12.696,-0.0286035,0.76957,1.06269
95.442,12.71992,-0.02984038,0.77246,1.06254
96.142,12.74376,-0.0298914,0.77796,1.06239
96.842,12.7676,-0.02851533,0.78125,1.06224
97.542,12.79134,-0.02986288,0.78764,1.06209
98.242,12.81516,-0.02933287,0.79248,1.06193
98.942,12.83897,-0.02941723,0.79451,1.06177
99.642,12.86271,-0.02984143,0.79831,1.06162
100.342,12.88635,-0.02984,0.8026,1.06146
101.042,12.9099,-0.02984,0.80582,1.0613
101.742,12.93362,-0.02984,0.81114,1.06114
102.442,12.95728,-0.02984107,0.81252,1.06098
103.142,12.98092,-0.02982995,0.81847,1.06081
103.842,13.0046,-0.02983035,0.82012,1.06065
104.542,13.0283,-0.02986966,0.82357,1.06048
105.242,13.05211,-0.03115683,0.82883,1.06031
105.942,13.07574,-0.03115015,0.83328,1.06015
106.642,13.09928,-0.03114806,0.83618,1.05998
107.342,13.1228,-0.03214443,0.83714,1.0598
108.042,13.14631,-0.03247035,0.83995,1.05963
108.742,13.16988,-0.03247036,0.8453,1.05946
109.442,13.19351,-0.03247313,0.84578,1.05928
110.142,13.21708,-0.03379689,0.85109,1.05911
110.842,13.24058,-0.03379119,0.85468,1.05893
111.542,13.264,-0.03511442,0.85673,1.05875
112.242,13.28744,-0.03508436,0.85838,1.05857
112.942,13.31088,-0.03376605,0.86035,1.05839
113.642,13.3342,-0.03377996,0.86452,1.05821
114.342,13.3576,-0.03377628,0.86603,1.05802
115.042,13.381,-0.03456994,0.86732,1.05784
115.742,13.40448,-0.0350889,0.87035,1.05765
116.442,13.428,-0.03374709,0.87313,1.05746
117.142,13.4514,-0.03379059,0.87383,1.05728
117.842,13.4747,-0.03379,0.87491,1.05709
118.542,13.49797,-0.03379,0.87638,1.05689
119.242,13.5212,-0.03379034,0.87667,1.0567
119.942,13.5445,-0.03374006,0.87986,1.05651
120.642,13.5679,-0.03508918,0.88156,1.05631
121.342,13.5912,-0.03510697,0.88448,1.05612
122.042,13.61447,-0.03577896,0.88539,1.05592
122.742,13.63766,-0.03575964,0.88693,1.05572
123.442,13.6608,-0.03575994,0.88963,1.05552
124.142,13.684,-0.03577396,0.89308,1.05532
124.842,13.70715,-0.03709935,0.89335,1.05512
125.542,13.7303,-0.03707911,0.89314,1.05491
126.242,13.75339,-0.03708,0.8941,1.05471
126.942,13.77645,-0.03708,0.89497,1.0545
127.642,13.7996,-0.03708003,0.89819,1.0543
128.342,13.82249,-0.03709048,0.8984,1.05409
129.042,13.84549,-0.03832478,0.89999,1.05388
129.742,13.86832,-0.03752381,0.90099,1.05367
130.442,13.89126,-0.03706767,0.90357,1.05346
131.142,13.9142,-0.03706998,0.90516,1.05324
131.842,13.9371,-0.03707098,0.90762,1.05303
132.542,13.96003,-0.03707138,0.90775,1.05281
133.242,13.98276,-0.03837616,0.90809,1.05259
133.942,14.0056,-0.03839008,0.91189,1.05238
134.642,14.0283,-0.03838981,0.91199,1.05216
135.342,14.0511,-0.03840944,0.91627,1.05194
136.042,14.0739,-0.03706147,0.91592,1.05171
136.742,14.0967,-0.03707033,0.9186,1.05149
137.442,14.11948,-0.03706999,0.92122,1.05127
138.142,14.14205,-0.03706728,0.9232,1.05104
138.842,14.16469,-0.03751937,0.92571,1.05082
139.542,14.1872,-0.03806049,0.9268,1.05059
140.242,14.20986,-0.03805998,0.92673,1.05036
140.942,14.2326,-0.03805999,0.9302,1.05013
141.642,14.2552,-0.03805857,0.93428,1.0499
142.342,14.2777,-0.03828644,0.93568,1.04967
143.042,14.30021,-0.03838989,0.93946,1.04943
143.742,14.32271,-0.03837676,0.94059,1.0492
144.442,14.3453,-0.03939327,0.94387,1.04896
145.142,14.36771,-0.03928958,0.94623,1.04872
145.842,14.3902,-0.03874889,0.9481,1.04849
146.542,14.41262,-0.03840995,0.94917,1.04825
147.242,14.435,-0.03804008,0.95393,1.048
147.942,14.45725,-0.03838226,0.95621,1.04776
148.642,14.47957,-0.03839035,0.95893,1.04752
149.342,14.5019,-0.0385172,0.95969,1.04728
150.042,14.52421,-0.03969973,0.96406,1.04703
150.742,14.5465,-0.03971001,0.96653,1.04678
151.442,14.5687,-0.03971,0.97004,1.04654
152.142,14.5911,-0.03971,0.97109,1.04629
152.842,14.6134,-0.03971,0.97556,1.04604
153.542,14.6356,-0.03971,0.9765,1.04579
154.242,14.65787,-0.03971,0.97975,1.04553
154.942,14.68005,-0.03971,0.98286,1.04528
155.642,14.70225,-0.03971,0.98304,1.04503
156.342,14.7244,-0.03971,0.98637,1.04477
157.042,14.7466,-0.03971,0.99018,1.04451
157.742,14.76876,-0.03971,0.99389,1.04425
158.442,14.79091,-0.03971,0.99684,1.04399
159.142,14.81311,-0.03970998,0.9983,1.04373
159.842,14.8353,-0.03969993,1.00091,1.04347
160.542,14.8575,-0.04074609,1.00351,1.04321
161.242,14.8796,-0.04069987,1.00738,1.04295
161.942,14.9017,-0.04069999,1.00882,1.04268
162.642,14.9238,-0.0407,1.01422,1.04242
163.342,14.9459,-0.0407,1.01735,1.04215
164.042,14.9679,-0.0407,1.02051,1.04188
164.742,14.9899,-0.0407,1.02672,1.04161
165.442,15.0119,-0.0407,1.02665,1.04134
166.142,15.03394,-0.0407,1.03045,1.04107
166.842,15.0559,-0.0407,1.03255,1.0408
167.542,15.07789,-0.0407,1.03702,1.04052
168.242,15.0998,-0.0407,1.03673,1.04025
168.942,15.122,-0.04069925,1.04117,1.03997
169.642,15.1441,-0.04083937,1.0435,1.03969
170.342,15.1661,-0.04201288,1.04786,1.03941
171.042,15.18805,-0.04201289,1.05132,1.03913
171.742,15.20989,-0.04253237,1.05338,1.03885
172.442,15.2318,-0.04267086,1.05718,1.03857
173.142,15.2536,-0.04267001,1.06095,1.03829
173.842,15.27547,-0.04266682,1.06413,1.03801
174.542,15.2971,-0.04305,1.06595,1.03772
175.242,15.31877,-0.04332257,1.06711,1.03743
175.942,15.3406,-0.043353,1.07183,1.03715
176.642,15.36253,-0.04462651,1.07264,1.03686
177.342,15.38456,-0.04464017,1.0776,1.03657
178.042,15.40655,-0.04464,1.08059,1.03628
178.742,15.4285,-0.04464,1.08338,1.03599
179.442,15.4503,-0.04463999,1.08521,1.03569
180.142,15.472,-0.04464054,1.09028,1.0354
180.842,15.49373,-0.04465356,1.09588,1.0351
181.542,15.5154,-0.04497292,1.09525,1.03481
182.242,15.53704,-0.04493519,1.09773,1.03451
182.942,15.5587,-0.04529633,1.09947,1.03421
183.642,15.5803,-0.04529999,1.10544,1.03391
184.342,15.60195,-0.0453,1.10785,1.03361
185.042,15.62362,-0.0453,1.10979,1.03331
185.742,15.6453,-0.04530006,1.1141,1.03301
186.442,15.66702,-0.04530131,1.1166,1.03271
187.142,15.6886,-0.04618652,1.11909,1.0324
187.842,15.71003,-0.04730748,1.12211,1.0321
188.542,15.73158,-0.0472797,1.12454,1.03179
189.242,15.7531,-0.04728,1.12491,1.03148
189.942,15.77471,-0.04728,1.13053,1.03117
190.642,15.79633,-0.04727991,1.13299,1.03086
191.342,15.81795,-0.04728505,1.13573,1.03055
192.042,15.8395,-0.04821623,1.14006,1.03024
192.742,15.86106,-0.04859305,1.14251,1.02993
193.442,15.8826,-0.04907665,1.14588,1.02961
194.142,15.9041,-0.04922641,1.1492,1.0293
194.842,15.92565,-0.04990758,1.15353,1.02898
195.542,15.94718,-0.04990005,1.15639,1.02866
196.242,15.9687,-0.0499,1.15994,1.02835
196.942,15.99017,-0.0499,1.16368,1.02803
197.642,16.01165,-0.0499,1.16581,1.02771
198.342,16.0331,-0.0499,1.16692,1.02738
199.042,16.05461,-0.0498999,1.16892,1.02706
199.742,16.0761,-0.04991128,1.17356,1.02674
200.442,16.09747,-0.05103743,1.17656,1.02641
201.142,16.11889,-0.05122117,1.17827,1.02609
201.842,16.14026,-0.05121976,1.18145,1.02576
202.542,16.16176,-0.05133425,1.18456,1.02543
203.242,16.18325,-0.05252678,1.18689,1.02511
203.942,16.20465,-0.05254016,1.19299,1.02478
204.642,16.22607,-0.05254,1.19842,1.02445
205.342,16.24747,-0.05254022,1.19833,1.02411
206.042,16.26885,-0.05250642,1.2015,1.02378
206.742,16.29027,-0.05389694,1.20511,1.02345
207.442,16.31161,-0.05383192,1.20699,1.02311
208.142,16.333,-0.05516396,1.2115,1.02278
208.842,16.35442,-0.05516976,1.21411,1.02244
209.542,16.3758,-0.05516725,1.21543,1.0221
210.242,16.3971,-0.0554856,1.22045,1.02176
210.942,16.41858,-0.05647427,1.22352,1.02142
211.642,16.43996,-0.05648,1.2256,1.02108
212.342,16.4613,-0.05647949,1.23207,1.02074
213.042,16.48262,-0.05655571,1.23479,1.0204
213.742,16.50391,-0.05781557,1.2366,1.02006
214.442,16.52528,-0.05779985,1.23966,1.01971
215.142,16.5466,-0.0578,1.24371,1.01937
215.842,16.56798,-0.05779857,1.24734,1.01902
216.542,16.5893,-0.05799285,1.2492,1.01867
217.242,16.61059,-0.05910861,1.2532,1.01832
217.942,16.6319,-0.05912012,1.25522,1.01797
218.642,16.65319,-0.05912,1.2581,1.01762
219.342,16.6745,-0.05912035,1.26308,1.01727
220.042,16.69594,-0.05907961,1.266,1.01692
220.742,16.71728,-0.06047115,1.27037,1.01656
221.442,16.73856,-0.0604295,1.2717,1.01621
222.142,16.7598,-0.06043071,1.27535,1.01585
222.842,16.78114,-0.06150997,1.28168,1.0155
223.542,16.80234,-0.06175128,1.28265,1.01514
224.242,16.82357,-0.06175493,1.28776,1.01478
224.942,16.84488,-0.06257054,1.29121,1.01442
225.642,16.86615,-0.06306783,1.29759,1.01406
226.342,16.88745,-0.06382863,1.29919,1.0137
227.042,16.90869,-0.06438175,1.30362,1.01334
227.742,16.92989,-0.06558606,1.31051,1.01298
228.442,16.95115,-0.06569957,1.31586,1.01261
229.142,16.97233,-0.06594997,1.32144,1.01225
229.842,16.99359,-0.06701891,1.32414,1.01188
230.542,17.01481,-0.06702004,1.33084,1.01151
231.242,17.03604,-0.06702407,1.33939,1.01115
231.942,17.05729,-0.06774707,1.34537,1.01078
232.642,17.0785,-0.06832785,1.35057,1.01041
233.342,17.09974,-0.06832998,1.35731,1.01004
234.042,17.12097,-0.06832452,1.36672,1.00967
234.742,17.14219,-0.06951305,1.37711,1.00929
235.442,17.16345,-0.0697753,1.38433,1.00892
236.142,17.1846,-0.07093906,1.39528,1.00855
236.842,17.2058,-0.07108117,1.40749,1.00817
237.542,17.22691,-0.07108449,1.41919,1.00779
238.242,17.24815,-0.07240602,1.4336,1.00742
238.942,17.26931,-0.07245922,1.447,1.00704
239.642,17.29054,-0.07395804,1.46081,1.00666
240.342,17.31178,-0.07476516,1.47831,1.00628
241.042,17.33299,-0.07534959,1.49829,1.0059
241.742,17.35424,-0.07540115,1.51746,1.00552
242.442,17.37546,-0.07665553,1.54286,1.00513
243.142,17.39663,-0.07677589,1.56521,1.00475
243.842,17.41788,-0.07800182,1.59279,1.00437
244.542,17.43911,-0.07800166,1.62171,1.00398
245.242,17.46035,-0.08033727,1.65709,1.00359
245.942,17.48157,-0.08076432,1.68743,1.00321
246.642,17.5028,-0.08229774,1.7259,1.00282
247.342,17.524,-0.08224999,1.76544,1.00243
248.042,17.54524,-0.0836393,1.80482,1.00204
248.742,17.5665,-0.08368728,1.84592,1.00165
249.442,17.58769,-0.08525018,1.87867,1.00126
250.142,17.60898,-0.08577293,1.90542,1.00087
250.842,17.6301,-0.08668299,1.92122,1.00047
251.542,17.65135,-0.08664688,1.92362,1.00008
252.242,17.67253,-0.08701591,1.91512,0.99968
252.942,17.69371,-0.08851204,1.89404,0.99929
253.642,17.71489,-0.08987476,1.86322,0.99889
254.342,17.73603,-0.08981286,1.82822,0.99849
255.042,17.75722,-0.09113048,1.78649,0.99809
255.742,17.77835,-0.09168502,1.7439,0.9977
256.442,17.79948,-0.09317288,1.70124,0.99729
257.142,17.82059,-0.09479366,1.6607,0.99689
257.842,17.84171,-0.09628924,1.62136,0.99649
258.542,17.86287,-0.09730833,1.58566,0.99609
259.242,17.88403,-0.09757806,1.55419,0.99568
259.942,17.90512,-0.09920608,1.52805,0.99528
260.642,17.92612,-0.10097,1.50337,0.99487
261.342,17.94719,-0.10242,1.48333,0.99447
262.042,17.9684,-0.10409,1.46508,0.99406
262.742,17.98963,-0.1051,1.4493,0.99365
263.442,18.01075,-0.10682,1.43671,0.99324
264.142,18.03182,-0.10882,1.42499,0.99283
264.842,18.05285,-0.11086,1.41651,0.99242
265.542,18.0739,-0.11276,1.41051,0.99201
266.242,18.09496,-0.11463,1.40289,0.9916
266.942,18.11601,-0.11667,1.39956,0.99119
267.642,18.13706,-0.1186,1.39632,0.99077
268.342,18.1581,-0.12101,1.39303,0.99036
269.042,18.17912,-0.12287,1.39174,0.98994
269.742,18.20026,-0.12472,1.39283,0.98953
270.442,18.2213,-0.12629,1.39225,0.98911
271.142,18.24236,-0.12806,1.39086,0.98869
271.842,18.26339,-0.12991,1.39374,0.98827
272.542,18.28441,-0.13175,1.39276,0.98785
273.242,18.30552,-0.13348,1.39366,0.98743
273.942,18.32668,-0.13579,1.39584,0.98701
274.642,18.3478,-0.13857,1.39897,0.98659
275.342,18.36897,-0.14162,1.39982,0.98617
276.042,18.39005,-0.14421,1.40317,0.98574
276.742,18.41113,-0.14642,1.40472,0.98532
277.442,18.43221,-0.14922,1.41028,0.98489
278.142,18.45329,-0.15235,1.41097,0.98447
278.842,18.47439,-0.15498,1.41535,0.98404
279.542,18.49541,-0.15802,1.41878,0.98361
280.242,18.5165,-0.16112,1.42192,0.98318
280.942,18.5377,-0.1637,1.42471,0.98276
281.642,18.55882,-0.16598,1.42975,0.98233
282.342,18.57998,-0.16903,1.43013,0.98189
283.042,18.60117,-0.17277,1.43371,0.98146
283.742,18.6223,-0.17671,1.43572,0.98103
284.442,18.64338,-0.17999,1.43972,0.9806
285.142,18.66456,-0.18259,1.44482,0.98016
285.842,18.6857,-0.18603,1.44812,0.97973
286.542,18.70685,-0.19056,1.44948,0.97929
287.242,18.728,-0.19411,1.45433,0.97886
287.942,18.74916,-0.1982,1.45569,0.97842
288.642,18.77028,-0.20232,1.45827,0.97798
289.342,18.79148,-0.20567,1.46224,0.97754
290.042,18.81265,-0.20931,1.46451,0.9771
290.742,18.83389,-0.21363,1.46598,0.97666
291.442,18.8551,-0.21822,1.46747,0.97622
292.142,18.87621,-0.22273,1.4694,0.97578
292.842,18.89733,-0.22698,1.46971,0.97534
293.542,18.9185,-0.23238,1.47233,0.9749
294.242,18.93966,-0.23861,1.47226,0.97445
294.942,18.9608,-0.24302,1.47195,0.97401
295.642,18.98191,-0.24805,1.47421,0.97356
296.342,19.00304,-0.25372,1.47578,0.97312
297.042,19.02413,-0.25914,1.47629,0.97267
297.742,19.04522,-0.26461,1.47684,0.97222
298.442,19.0664,-0.2702,1.47592,0.97177
299.142,19.08766,-0.27566,1.47897,0.97132
299.842,19.10889,-0.28123,1.47508,0.97087
300.542,19.13009,-0.2875,1.47592,0.97042
301.242,19.1513,-0.29441,1.4771,0.96997
301.942,19.17247,-0.30073,1.47605,0.96952
302.642,19.19368,-0.30689,1.47759,0.96907
303.342,19.21482,-0.31257,1.47546,0.96861
304.042,19.23599,-0.31965,1.47446,0.96816
304.742,19.25723,-0.32612,1.47742,0.96771
305.442,19.2784,-0.33293,1.47554,0.96725
306.142,19.29962,-0.33958,1.47576,0.96679
306.842,19.32082,-0.34657,1.47469,0.96634
307.542,19.34196,-0.35381,1.47403,0.96588
308.242,19.36306,-0.36062,1.47512,0.96542
308.942,19.38421,-0.36685,1.4761,0.96496
309.642,19.40543,-0.37303,1.47499,0.9645
310.342,19.42667,-0.37918,1.47355,0.96404
311.042,19.44799,-0.38586,1.47586,0.96358
311.742,19.4692,-0.39304,1.47618,0.96312
312.442,19.4904,-0.39946,1.47727,0.96266
313.142,19.51154,-0.40624,1.47623,0.96219
313.842,19.53271,-0.41318,1.47673,0.96173
314.542,19.5538,-0.4198,1.47848,0.96126
315.242,19.57508,-0.42651,1.47578,0.9608
315.942,19.59635,-0.43355,1.47872,0.96033
316.642,19.61766,-0.44157,1.48092,0.95987
317.342,19.63897,-0.44889,1.48209,0.9594
318.042,19.66016,-0.45679,1.48586,0.95893
318.742,19.6814,-0.46414,1.48681,0.95846
319.442,19.70262,-0.47138,1.48862,0.95799
320.142,19.72384,-0.4783,1.49154,0.95752
320.842,19.7451,-0.4854,1.49426,0.95705
321.542,19.7662,-0.49287,1.49959,0.95658
322.242,19.78745,-0.5008,1.50148,0.95611
322.942,19.8087,-0.50866,1.50693,0.95564
323.642,19.8299,-0.51616,1.51029,0.95516
324.342,19.851,-0.52397,1.51328,0.95469
325.042,19.87219,-0.5322,1.51575,0.95421
325.742,19.89358,-0.54041,1.52318,0.95374
326.442,19.915,-0.54896,1.52855,0.95326
327.142,19.93635,-0.5573,1.53295,0.95278
327.842,19.9575,-0.56546,1.54021,0.95231
328.542,19.9788,-0.57405,1.54914,0.95183
329.242,20.00029,-0.58244,1.55467,0.95135
329.942,20.02179,-0.59102,1.56237,0.95087
330.642,20.0431,-0.59933,1.57064,0.95039
331.342,20.06449,-0.60811,1.57774,0.94991
332.042,20.0858,-0.61717,1.58477,0.94943
332.742,20.10718,-0.62666,1.59625,0.94895
333.442,20.1285,-0.63647,1.60643,0.94847
334.142,20.1498,-0.64602,1.61852,0.94798
334.842,20.1711,-0.65551,1.62909,0.9475
335.542,20.1924,-0.66537,1.63866,0.94702
336.242,20.2137,-0.67543,1.65123,0.94653
336.942,20.23511,-0.6862,1.66623,0.94604
337.642,20.2564,-0.69709,1.67886,0.94556
338.342,20.27786,-0.70822,1.6921,0.94507
339.042,20.29919,-0.71976,1.71098,0.94458
339.742,20.32057,-0.73103,1.73008,0.9441
340.442,20.342,-0.74251,1.74347,0.94361
341.142,20.36345,-0.75396,1.76263,0.94312
341.842,20.38491,-0.76613,1.7831,0.94263
342.542,20.40632,-0.77835,1.80507,0.94214
343.242,20.42775,-0.79072,1.82877,0.94165
343.942,20.4492,-0.80363,1.85148,0.94116
344.642,20.4707,-0.81725,1.87708,0.94066
345.342,20.49221,-0.83125,1.90337,0.94017
346.042,20.51369,-0.84525,1.92759,0.93968
346.742,20.53509,-0.8592,1.95802,0.93918
347.442,20.5565,-0.87426,1.98703,0.93869
348.142,20.578,-0.89004,2.01938,0.93819
348.842,20.5995,-0.90628,2.05215,0.9377
349.542,20.621,-0.92381,2.08302,0.9372
350.242,20.64244,-0.94113,2.11956,0.93671
350.942,20.6638,-0.95915,2.15255,0.93621
351.642,20.68534,-0.97807,2.1911,0.93571
352.342,20.7069,-0.99715,2.2301,0.93521
353.042,20.72843,-1.01744,2.26649,0.93471
353.742,20.74994,-1.03816,2.30469,0.93421
354.442,20.77144,-1.06016,2.34301,0.93371
355.142,20.79301,-1.08378,2.37856,0.93321
355.842,20.81465,-1.10772,2.41568,0.93271
356.542,20.8363,-1.13262,2.4526,0.93221
357.242,20.85785,-1.15788,2.48459,0.93171
357.942,20.87937,-1.1833,2.50903,0.9312
358.642,20.90094,-1.21058,2.53538,0.9307
359.342,20.92251,-1.23826,2.54974,0.93019
360.042,20.9441,-1.26704,2.55819,0.92969
360.742,20.96569,-1.29636,2.56393,0.92918
361.442,20.98726,-1.3263,2.55781,0.92868
362.142,21.00887,-1.35824,2.53767,0.92817
362.842,21.03042,-1.39017,2.5105,0.92767
363.542,21.05191,-1.42115,2.46568,0.92716
364.242,21.07346,-1.45275,2.407,0.92665
364.942,21.09502,-1.48468,2.3337,0.92614
365.642,21.1166,-1.51711,2.25077,0.92563
366.342,21.13823,-1.54829,2.15488,0.92512
367.042,21.15973,-1.57844,2.05706,0.92461
367.742,21.18124,-1.60858,1.9527,0.9241
368.442,21.20269,-1.63731,1.85136,0.92359
369.142,21.2241,-1.66643,1.74805,0.92308
369.842,21.2456,-1.69335,1.64761,0.92257
370.542,21.2671,-1.71897,1.55022,0.92205
371.242,21.28858,-1.74419,1.45762,0.92154
371.942,21.31,-1.76735,1.36962,0.92103
372.642,21.33146,-1.78884,1.28867,0.92051
373.342,21.3529,-1.80917,1.21556,0.92
374.042,21.37429,-1.82808,1.14623,0.91948
374.742,21.3957,-1.84592,1.08318,0.91897
375.442,21.41712,-1.86283,1.02792,0.91845
376.142,21.4386,-1.8789,0.97947,0.91794
376.842,21.46002,-1.89385,0.93589,0.91742
377.542,21.48151,-1.90701,0.89682,0.9169
378.242,21.50305,-1.91902,0.86392,0.91638
378.942,21.52461,-1.93049,0.8355,0.91586
379.642,21.5461,-1.94118,0.80679,0.91534
380.342,21.56757,-1.95216,0.78501,0.91482
381.042,21.58904,-1.96209,0.76432,0.9143
381.742,21.6105,-1.97172,0.75082,0.91378
382.442,21.63204,-1.98113,0.73299,0.91326
383.142,21.65364,-1.99026,0.722,0.91274
383.842,21.67512,-1.99781,0.71215,0.91222
384.542,21.69667,-2.00562,0.70364,0.9117
385.242,21.71819,-2.01332,0.69791,0.91117
385.942,21.73976,-2.0211,0.69159,0.91065
386.642,21.76135,-2.02869,0.68952,0.91012
387.342,21.78296,-2.0362,0.68392,0.9096
388.042,21.80446,-2.04342,0.67694,0.90908
388.742,21.82603,-2.0508,0.67389,0.90855
389.442,21.8476,-2.05845,0.67337,0.90802
390.142,21.8692,-2.06528,0.67026,0.9075
390.842,21.8908,-2.0724,0.67089,0.90697
391.542,21.91231,-2.07932,0.66994,0.90644
392.242,21.93392,-2.08643,0.67071,0.90592
392.942,21.95551,-2.09396,0.66925,0.90539
393.642,21.97725,-2.10096,0.66582,0.90486
394.342,21.99887,-2.10781,0.66728,0.90433
395.042,22.02051,-2.1148,0.66702,0.9038
395.742,22.0422,-2.12196,0.66506,0.90327
396.442,22.0639,-2.12934,0.66453,0.90274
397.142,22.0856,-2.13741,0.6654,0.90221
397.842,22.10727,-2.14535,0.66458,0.90168
398.542,22.129,-2.1524,0.66515,0.90115
399.242,22.15054,-2.15924,0.66606,0.90061
399.942,22.17217,-2.16655,0.66477,0.90008
400.642,22.19383,-2.17426,0.66375,0.89955
401.342,22.21554,-2.18191,0.66555,0.89902
402.042,22.2374,-2.18955,0.66373,0.89848
402.742,22.2591,-2.19714,0.66248,0.89795
403.442,22.28086,-2.2045,0.66542,0.89741
404.142,22.30262,-2.21284,0.66479,0.89688
404.842,22.3243,-2.22065,0.66421,0.89634
405.542,22.346,-2.22859,0.66379,0.89581
406.242,22.36778,-2.23609,0.66623,0.89527
406.942,22.3896,-2.24316,0.66503,0.89473
407.642,22.41142,-2.25051,0.66438,0.8942
408.342,22.43316,-2.2588,0.66173,0.89366
409.042,22.45498,-2.26693,0.66278,0.89312
409.742,22.4767,-2.2748,0.66243,0.89258
410.442,22.49851,-2.28282,0.66033,0.89204
411.142,22.52034,-2.29223,0.6598,0.8915
411.842,22.54218,-2.30014,0.65981,0.89096
412.542,22.56397,-2.30832,0.65939,0.89042
413.242,22.5857,-2.31665,0.65661,0.88988
413.942,22.6075,-2.32517,0.65713,0.88934
414.642,22.6294,-2.33212,0.65629,0.8888
415.342,22.65119,-2.34053,0.65496,0.88826
416.042,22.67299,-2.34934,0.65294,0.88772
416.742,22.69484,-2.35823,0.65645,0.88718
417.442,22.71671,-2.36699,0.65213,0.88663
418.142,22.7386,-2.37567,0.65273,0.88609
418.842,22.76049,-2.38411,0.65213,0.88555
419.542,22.7823,-2.39297,0.65087,0.885
420.242,22.80421,-2.40298,0.65428,0.88446
420.942,22.82612,-2.41308,0.64953,0.88391
421.642,22.84795,-2.42254,0.64889,0.88337
422.342,22.8698,-2.43204,0.64909,0.88282
423.042,22.89165,-2.44166,0.64859,0.88228
423.742,22.9135,-2.45112,0.64907,0.88173
424.442,22.9354,-2.46051,0.64709,0.88119
425.142,22.95724,-2.47023,0.64751,0.88064
425.842,22.97916,-2.48038,0.64886,0.88009
426.542,23.0011,-2.49015,0.64985,0.87954
427.242,23.023,-2.4998,0.64948,0.879
427.942,23.0449,-2.51004,0.64805,0.87845
428.642,23.0668,-2.5202,0.65194,0.8779
429.342,23.08869,-2.53011,0.65309,0.87735
430.042,23.11062,-2.54014,0.65579,0.8768
430.742,23.13252,-2.55016,0.6537,0.87625
431.442,23.1544,-2.5611,0.65601,0.8757
432.142,23.17635,-2.57159,0.65949,0.87515
432.842,23.19829,-2.58227,0.65607,0.8746
433.542,23.22022,-2.59352,0.65831,0.87405
434.242,23.24214,-2.60426,0.65883,0.8735
434.942,23.2641,-2.61422,0.65916,0.87295
435.642,23.2861,-2.62418,0.65893,0.87239
436.342,23.30813,-2.63451,0.65962,0.87184
437.042,23.33018,-2.64533,0.66094,0.87129
437.742,23.35215,-2.65646,0.6605,0.87074
438.442,23.37412,-2.66666,0.66193,0.87018
439.142,23.39609,-2.6781,0.65861,0.86963
439.842,23.41801,-2.68823,0.66182,0.86908
440.542,23.44,-2.69827,0.65983,0.86852
441.242,23.462,-2.70889,0.66146,0.86797
441.942,23.4841,-2.71908,0.65962,0.86741
442.642,23.50602,-2.72872,0.66022,0.86686
443.342,23.52802,-2.73812,0.66016,0.8663
444.042,23.55,-2.74789,0.65984,0.86575
444.742,23.572,-2.75746,0.6579,0.86519
445.442,23.59403,-2.76735,0.65831,0.86463
446.142,23.61609,-2.77693,0.65731,0.86408
446.842,23.63815,-2.78654,0.6586,0.86352
447.542,23.66014,-2.79617,0.65512,0.86296
448.242,23.68219,-2.80548,0.65366,0.8624
448.942,23.70422,-2.81439,0.65358,0.86185
449.642,23.72625,-2.82272,0.65453,0.86129
450.342,23.74829,-2.83061,0.65441,0.86073
451.042,23.77034,-2.83863,0.65348,0.86017
451.742,23.7924,-2.84675,0.64963,0.85961
452.442,23.81446,-2.85454,0.64747,0.85905
453.142,23.8366,-2.86222,0.64871,0.85849
453.842,23.85866,-2.87018,0.64637,0.85793
454.542,23.88074,-2.87831,0.6416,0.85737
455.242,23.90278,-2.88584,0.63776,0.85681
455.942,23.92486,-2.89308,0.63649,0.85625
456.642,23.94693,-2.90073,0.63196,0.85569
457.342,23.9691,-2.90858,0.62857,0.85513
458.042,23.9912,-2.91582,0.62877,0.85457
458.742,24.0134,-2.92171,0.6195,0.85401
459.442,24.03545,-2.92892,0.61918,0.85344
460.142,24.0576,-2.93575,0.61163,0.85288
460.842,24.0797,-2.94247,0.60499,0.85232
461.542,24.10183,-2.94898,0.59968,0.85176
462.242,24.1239,-2.95463,0.59301,0.85119
462.942,24.1461,-2.95884,0.58845,0.85063
463.642,24.1682,-2.96478,0.58207,0.85006
464.342,24.19027,-2.97087,0.57415,0.8495
465.042,24.2124,-2.97643,0.56364,0.84894
465.742,24.2345,-2.98173,0.55311,0.84837
466.442,24.25654,-2.98655,0.54561,0.84781
467.142,24.27874,-2.99213,0.53325,0.84724
467.842,24.30092,-2.99807,0.52468,0.84668
468.542,24.32321,-3.00377,0.51371,0.84611
469.242,24.3454,-3.00948,0.50267,0.84555
469.942,24.36758,-3.01416,0.49447,0.84498
470.642,24.38974,-3.01907,0.48042,0.84441
471.342,24.4118,-3.023,0.47257,0.84385
472.042,24.43395,-3.02728,0.45978,0.84328
472.742,24.45616,-3.03172,0.44638,0.84271
473.442,24.47839,-3.03578,0.43697,0.84215
474.142,24.50067,-3.03876,0.42558,0.84158
474.842,24.52286,-3.04187,0.41751,0.84101
475.542,24.54506,-3.04559,0.40561,0.84044
476.242,24.5672,-3.04986,0.39557,0.83988
476.942,24.5894,-3.0535,0.38414,0.83931
477.642,24.61157,-3.05664,0.37524,0.83874
478.342,24.6338,-3.05922,0.36843,0.83817
479.042,24.65607,-3.06238,0.35999,0.8376
479.742,24.67831,-3.06559,0.34779,0.83703
480.442,24.70053,-3.06867,0.34369,0.83646
481.142,24.7228,-3.07172,0.33441,0.83589
481.842,24.74509,-3.07429,0.32565,0.83532
482.542,24.76736,-3.07704,0.32096,0.83475
483.242,24.7896,-3.07979,0.31429,0.83418
483.942,24.81192,-3.08223,0.30724,0.83361
484.642,24.8342,-3.08431,0.30491,0.83304
485.342,24.85652,-3.08607,0.29666,0.83247
486.042,24.8788,-3.08803,0.2929,0.8319
486.742,24.90107,-3.09124,0.28784,0.83133
487.442,24.9234,-3.09382,0.28121,0.83076
488.142,24.94568,-3.09554,0.27895,0.83018
488.842,24.968,-3.09753,0.27591,0.82961
489.542,24.9903,-3.09941,0.27059,0.82904
490.242,25.01259,-3.10092,0.27059,0.82847
490.942,25.03493,-3.09993,0.26443,0.8279
491.642,25.05729,-3.10149,0.26154,0.82732
492.342,25.0796,-3.10345,0.25823,0.82675
493.042,25.10187,-3.10552,0.25619,0.82618
493.742,25.1241,-3.10687,0.25398,0.8256
494.442,25.14629,-3.10802,0.25141,0.82503
495.142,25.16864,-3.10965,0.25204,0.82446
495.842,25.19105,-3.11132,0.24696,0.82388
496.542,25.21357,-3.11303,0.24511,0.82331
497.242,25.2359,-3.11404,0.24307,0.82274
497.942,25.25834,-3.11714,0.24476,0.82216
498.642,25.28078,-3.11884,0.23918,0.82159
499.342,25.30321,-3.12085,0.23783,0.82101
500.042,25.3256,-3.12245,0.23709,0.82044
500.742,25.3479,-3.12403,0.23628,0.81986
501.442,25.37034,-3.12425,0.23393,0.81929
502.142,25.39275,-3.12551,0.23129,0.81871
502.842,25.41517,-3.12722,0.23453,0.81814
503.542,25.43755,-3.12782,0.22811,0.81756
504.242,25.46,-3.1277,0.22887,0.81698
504.942,25.4824,-3.12917,0.22554,0.81641
505.642,25.50479,-3.13094,0.2234,0.81583
506.342,25.5273,-3.13255,0.22448,0.81526
507.042,25.54972,-3.13275,0.22314,0.81468
507.742,25.57218,-3.13384,0.223,0.8141
508.442,25.5946,-3.13519,0.22103,0.81353
509.142,25.61705,-3.13623,0.22059,0.81295
509.842,25.63951,-3.13731,0.21913,0.81237
510.542,25.66197,-3.13861,0.21635,0.8118
511.242,25.68447,-3.14118,0.21897,0.81122
511.942,25.70691,-3.14285,0.2179,0.81064
512.642,25.72935,-3.14306,0.21575,0.81006
513.342,25.7517,-3.14448,0.21487,0.80949
514.042,25.77412,-3.14594,0.21439,0.80891
514.742,25.79661,-3.14616,0.21243,0.80833
515.442,25.81915,-3.14733,0.21205,0.80775
516.142,25.8416,-3.14882,0.21047,0.80717
516.842,25.8641,-3.14876,0.21056,0.80659
517.542,25.88662,-3.14876,0.20864,0.80602
518.242,25.90908,-3.15008,0.2087,0.80544
518.942,25.93168,-3.15137,0.20644,0.80486
519.642,25.95421,-3.15192,0.2052,0.80428
520.342,25.9768,-3.15315,0.20431,0.8037
521.042,25.99929,-3.15447,0.20709,0.80312
521.742,26.02182,-3.15564,0.20382,0.80254
522.442,26.0443,-3.15468,0.20358,0.80196
523.142,26.06682,-3.15622,0.20094,0.80138
523.842,26.08931,-3.15743,0.20169,0.8008
524.542,26.1118,-3.15764,0.20074,0.80022
525.242,26.13435,-3.15844,0.20286,0.79964
525.942,26.15686,-3.15903,0.20173,0.79906
526.642,26.17936,-3.16061,0.20169,0.79848
527.342,26.20186,-3.16111,0.19974,0.7979
528.042,26.2244,-3.16193,0.2003,0.79732
528.742,26.247,-3.16347,0.19746,0.79674
529.442,26.26957,-3.16479,0.20041,0.79616
530.142,26.29209,-3.16679,0.19979,0.79558
530.842,26.31458,-3.16763,0.19737,0.795
531.542,26.33711,-3.16764,0.19814,0.79442
532.242,26.3596,-3.16892,0.19531,0.79384
532.942,26.38216,-3.16894,0.19644,0.79326
533.642,26.4048,-3.16975,0.1985,0.79268
534.342,26.42737,-3.17026,0.19445,0.7921
535.042,26.45,-3.17026,0.19673,0.79151
535.742,26.4726,-3.17082,0.19662,0.79093
536.442,26.49522,-3.17184,0.19493,0.79035
537.142,26.51772,-3.17335,0.19479,0.78977
537.842,26.54027,-3.17434,0.19496,0.78919
538.542,26.5628,-3.17465,0.19555,0.78861
539.242,26.5854,-3.17515,0.19555,0.78802
539.942,26.60806,-3.17596,0.19315,0.78744
540.642,26.63063,-3.17629,0.19362,0.78686
541.342,26.6532,-3.17728,0.19114,0.78628
542.042,26.6758,-3.17728,0.19121,0.7857
542.742,26.6985,-3.17728,0.19304,0.78511
543.442,26.7212,-3.17728,0.19092,0.78453
544.142,26.74379,-3.17741,0.1909,0.78395
544.842,26.7664,-3.1787,0.18712,0.78337
545.542,26.78906,-3.17842,0.19245,0.78278
546.242,26.81178,-3.17903,0.19166,0.7822
546.942,26.8344,-3.17906,0.19241,0.78162
547.642,26.85701,-3.18004,0.19151,0.78104
548.342,26.8796,-3.18031,0.18921,0.78045
549.042,26.90227,-3.18153,0.18575,0.77987
549.742,26.92493,-3.18291,0.18947,0.77929
550.442,26.9476,-3.18303,0.18865,0.77871
551.142,26.97028,-3.18438,0.18758,0.77812
551.842,26.99302,-3.18502,0.18894,0.77754
552.542,27.01564,-3.18572,0.18821,0.77696
553.242,27.03833,-3.1857,0.18908,0.77637
553.942,27.0609,-3.18783,0.1869,0.77579
554.642,27.08355,-3.18837,0.18839,0.77521
555.342,27.10619,-3.1893,0.18885,0.77462
556.042,27.1288,-3.18967,0.18825,0.77404
556.742,27.15155,-3.19049,0.1895,0.77346
557.442,27.1742,-3.19099,0.1888,0.77287
558.142,27.19694,-3.19111,0.18882,0.77229
558.842,27.2196,-3.19231,0.18895,0.7717
559.542,27.24237,-3.1923,0.18923,0.77112
560.242,27.26507,-3.19367,0.18932,0.77054
560.942,27.28775,-3.19454,0.19058,0.76995
561.642,27.31045,-3.19511,0.18769,0.76937
562.342,27.3332,-3.19647,0.1902,0.76879
563.042,27.35585,-3.19648,0.19104,0.7682
563.742,27.37848,-3.19772,0.19229,0.76762
564.442,27.4012,-3.19713,0.19096,0.76703
565.142,27.42387,-3.19713,0.19498,0.76645
565.842,27.4465,-3.19713,0.19398,0.76587
566.542,27.4693,-3.1985,0.19196,0.76528
567.242,27.49203,-3.19843,0.19217,0.7647
567.942,27.5147,-3.19978,0.19179,0.76411
568.642,27.5375,-3.19976,0.19445,0.76353
569.342,27.5603,-3.20011,0.19236,0.76295
570.042,27.5831,-3.20107,0.19094,0.76236
570.742,27.6058,-3.20163,0.19174,0.76178
571.442,27.6286,-3.20239,0.19302,0.76119
572.142,27.65138,-3.20282,0.19255,0.76061
572.842,27.67418,-3.20506,0.19216,0.76003
573.542,27.69693,-3.20503,0.19123,0.75944
574.242,27.71973,-3.20565,0.19017,0.75886
574.942,27.74247,-3.20646,0.18864,0.75827
575.642,27.76523,-3.20646,0.19017,0.75769
576.342,27.7879,-3.20645,0.19364,0.7571
577.042,27.81069,-3.20643,0.19076,0.75652
577.742,27.8335,-3.20788,0.18815,0.75594
578.442,27.85629,-3.20789,0.18818,0.75535
579.142,27.87913,-3.20915,0.19032,0.75477
579.842,27.9019,-3.2092,0.18883,0.75418
580.542,27.9247,-3.20915,0.19137,0.7536
581.242,27.94752,-3.2105,0.18973,0.75301
581.942,27.9703,-3.21051,0.18787,0.75243
582.642,27.99322,-3.21116,0.18764,0.75184
583.342,28.0161,-3.21183,0.19034,0.75126
584.042,28.03892,-3.21184,0.18745,0.75068
584.742,28.06172,-3.21319,0.18788,0.75009
585.442,28.0846,-3.21314,0.18629,0.74951
586.142,28.1074,-3.21314,0.1887,0.74892
586.842,28.13028,-3.21343,0.18933,0.74834
587.542,28.1531,-3.21446,0.18683,0.74775
588.242,28.17592,-3.21504,0.18779,0.74717
588.942,28.19878,-3.21578,0.18514,0.74659
589.642,28.2217,-3.21582,0.18807,0.746
590.342,28.24458,-3.2171,0.18442,0.74542
591.042,28.26748,-3.21709,0.1863,0.74483
591.742,28.29035,-3.21832,0.18461,0.74425
592.442,28.3133,-3.21841,0.18503,0.74366
593.142,28.3362,-3.21841,0.18547,0.74308
593.842,28.3591,-3.21841,0.18525,0.7425
594.542,28.382,-3.21955,0.18247,0.74191
595.242,28.40492,-3.21973,0.18169,0.74133
595.942,28.4278,-3.21973,0.18155,0.74074
596.642,28.4508,-3.21971,0.18295,0.74016
597.342,28.4736,-3.22104,0.18574,0.73957
598.042,28.49653,-3.22098,0.18535,0.73899
598.742,28.5194,-3.22202,0.18545,0.73841
599.442,28.5423,-3.22337,0.18697,0.73782
600.142,28.5652,-3.22335,0.18608,0.73724
600.842,28.58815,-3.22419,0.18468,0.73665
601.542,28.61103,-3.22466,0.18717,0.73607
602.242,28.6339,-3.22466,0.18983,0.73549
602.942,28.6569,-3.22464,0.18888,0.7349
603.642,28.6798,-3.22598,0.18999,0.73432
604.342,28.7028,-3.22599,0.19101,0.73374
605.042,28.72581,-3.2267,0.19059,0.73315
605.742,28.7488,-3.22598,0.18789,0.73257
606.442,28.7718,-3.22728,0.18956,0.73198
607.142,28.7948,-3.22743,0.19006,0.7314
607.842,28.81777,-3.22885,0.18604,0.73082
608.542,28.8407,-3.22887,0.18698,0.73023
609.242,28.8637,-3.23012,0.18175,0.72965
609.942,28.88659,-3.23079,0.18481,0.72907
610.642,28.90958,-3.23156,0.17975,0.72848
611.342,28.93253,-3.23288,0.17968,0.7279
612.042,28.95546,-3.23426,0.18023,0.72732
612.742,28.97843,-3.23467,0.17738,0.72673
613.442,29.0014,-3.23552,0.17919,0.72615
614.142,29.0245,-3.23568,0.17663,0.72557
614.842,29.0475,-3.23599,0.17751,0.72498
615.542,29.07045,-3.23697,0.17535,0.7244
616.242,29.09344,-3.23739,0.17334,0.72382
616.942,29.11638,-3.24001,0.17637,0.72323
617.642,29.13942,-3.24145,0.17235,0.72265
618.342,29.16243,-3.24261,0.17351,0.72207
619.042,29.18552,-3.24218,0.17065,0.72149
619.742,29.20859,-3.2399,0.17022,0.7209
620.442,29.23163,-3.23841,0.16357,0.72032
621.142,29.2546,-3.23874,0.16558,0.71974
621.842,29.2775,-3.23924,0.16598,0.71915
622.542,29.30054,-3.24079,0.16698,0.71857
623.242,29.32355,-3.2409,0.16759,0.71799
623.942,29.34662,-3.2421,0.16686,0.71741
624.642,29.3697,-3.2421,0.16721,0.71683
625.342,29.3927,-3.24238,0.16176,0.71624
626.042,29.4158,-3.24352,0.16693,0.71566
626.742,29.4388,-3.24477,0.1655,0.71508
627.442,29.46195,-3.24484,0.16493,0.7145
628.142,29.48494,-3.24504,0.16992,0.71391
628.842,29.508,-3.24615,0.16349,0.71333
629.542,29.53101,-3.24655,0.1677,0.71275
630.242,29.55405,-3.2478,0.16484,0.71217
630.942,29.57712,-3.24851,0.16717,0.71159
631.642,29.60012,-3.24912,0.16705,0.71101
632.342,29.6232,-3.24976,0.16581,0.71042
633.042,29.64625,-3.25044,0.16981,0.70984
633.742,29.6693,-3.25192,0.17047,0.70926
634.442,29.6923,-3.25184,0.17035,0.70868
635.142,29.71535,-3.25418,0.16948,0.7081
635.842,29.7384,-3.25543,0.17149,0.70752
636.542,29.76153,-3.2569,0.17444,0.70694
637.242,29.78459,-3.25648,0.17602,0.70636
637.942,29.80765,-3.25668,0.17637,0.70578
638.642,29.8308,-3.25544,0.17536,0.70519
639.342,29.85385,-3.25536,0.17948,0.70461
640.042,29.8769,-3.25674,0.18045,0.70403
640.742,29.8999,-3.25669,0.18386,0.70345
641.442,29.9228,-3.25669,0.18406,0.70287
642.142,29.9459,-3.2576,0.18413,0.70229
642.842,29.96909,-3.258,0.1857,0.70171
643.542,29.99235,-3.258,0.18602,0.70113
644.242,30.01548,-3.2579,0.1895,0.70055
644.942,30.03854,-3.25767,0.19289,0.69997
645.642,30.06158,-3.25765,0.18858,0.69939
646.342,30.08468,-3.25902,0.19366,0.69881
647.042,30.10785,-3.25899,0.19657,0.69823
647.742,30.131,-3.25899,0.19759,0.69765
648.442,30.1541,-3.25903,0.20014,0.69707
649.142,30.1769,-3.2603,0.20226,0.69649
649.842,30.1997,-3.26031,0.20357,0.69592
650.542,30.2225,-3.26036,0.20803,0.69534
651.242,30.24573,-3.26096,0.20917,0.69476
651.942,30.2691,-3.26097,0.21144,0.69418
652.642,30.29242,-3.26097,0.2144,0.6936
653.342,30.31555,-3.26097,0.21712,0.69302
654.042,30.33865,-3.26171,0.21516,0.69244
654.742,30.3617,-3.26331,0.21918,0.69186
655.442,30.3847,-3.26369,0.21875,0.69129
656.142,30.4077,-3.26458,0.22122,0.69071
656.842,30.4308,-3.26532,0.22234,0.69013
657.542,30.454,-3.2659,0.2223,0.68955
658.242,30.47713,-3.2659,0.22482,0.68897
658.942,30.5003,-3.2659,0.22396,0.68839
659.642,30.5234,-3.26592,0.22531,0.68782
660.342,30.5465,-3.26459,0.2295,0.68724
661.042,30.56955,-3.26459,0.22821,0.68666
661.742,30.5927,-3.26458,0.22955,0.68608
662.442,30.61577,-3.26593,0.22726,0.68551
663.142,30.63881,-3.26591,0.22831,0.68493
663.842,30.6619,-3.26591,0.23413,0.68435
664.542,30.6849,-3.26591,0.23434,0.68378
665.242,30.70805,-3.26637,0.23574,0.6832
665.942,30.73118,-3.2672,0.23684,0.68262
666.642,30.75436,-3.26854,0.23672,0.68205
667.342,30.7775,-3.26853,0.23549,0.68147
668.042,30.80061,-3.26853,0.23585,0.68089
668.742,30.82372,-3.26852,0.23836,0.68032
669.442,30.84685,-3.26754,0.23355,0.67974
670.142,30.8699,-3.26832,0.23509,0.67917
670.842,30.89303,-3.26864,0.23659,0.67859
671.542,30.9162,-3.27016,0.23429,0.67801
672.242,30.93935,-3.27076,0.23301,0.67744
672.942,30.9625,-3.2715,0.23332,0.67686
673.642,30.98568,-3.2715,0.23801,0.67629
674.342,31.00882,-3.2715,0.23635,0.67571
675.042,31.0319,-3.2715,0.23867,0.67514
675.742,31.0551,-3.2715,0.23823,0.67456
676.442,31.0781,-3.2715,0.23695,0.67399
677.142,31.1013,-3.2715,0.23632,0.67341
677.842,31.1244,-3.2715,0.23894,0.67284
678.542,31.1476,-3.2715,0.23774,0.67226
679.242,31.1708,-3.27149,0.23771,0.67169
679.942,31.19411,-3.27045,0.23901,0.67112
680.642,31.2173,-3.27018,0.23978,0.67054
681.342,31.2405,-3.27019,0.23786,0.66997
682.042,31.2636,-3.27152,0.23852,0.6694
682.742,31.28675,-3.2715,0.23821,0.66882
683.442,31.3099,-3.2715,0.24027,0.66825
684.142,31.33308,-3.2715,0.24009,0.66768
684.842,31.3563,-3.27211,0.24268,0.6671
685.542,31.37945,-3.27281,0.23772,0.66653
686.242,31.40263,-3.27281,0.24101,0.66596
686.942,31.4258,-3.27281,0.23769,0.66538
687.642,31.449,-3.27336,0.2406,0.66481
688.342,31.47213,-3.27413,0.24136,0.66424
689.042,31.49525,-3.27413,0.24372,0.66367
689.742,31.51847,-3.27413,0.24691,0.66309
690.442,31.54167,-3.27525,0.24384,0.66252
691.142,31.56488,-3.27589,0.24187,0.66195
691.842,31.588,-3.27678,0.24113,0.66138
692.542,31.6112,-3.27755,0.24239,0.66081
693.242,31.63445,-3.27808,0.24283,0.66024
693.942,31.65764,-3.27806,0.23842,0.65967
694.642,31.68083,-3.27865,0.23837,0.65909
695.342,31.70403,-3.27808,0.23971,0.65852
696.042,31.72734,-3.27847,0.23887,0.65795
696.742,31.7506,-3.27939,0.2393,0.65738
697.442,31.77388,-3.27939,0.23913,0.65681
698.142,31.79713,-3.27939,0.2394,0.65624
698.842,31.82031,-3.27939,0.23799,0.65567
699.542,31.84351,-3.27939,0.24081,0.6551
700.242,31.8667,-3.27939,0.23899,0.65453
700.942,31.8899,-3.2807,0.23457,0.65396
701.642,31.9132,-3.28071,0.23762,0.65339
702.342,31.93655,-3.28073,0.23662,0.65282
703.042,31.95985,-3.28137,0.2419,0.65225
703.742,31.98315,-3.28137,0.23758,0.65169
704.442,32.00638,-3.28137,0.23909,0.65112
705.142,32.02961,-3.28137,0.23401,0.65055
705.842,32.05283,-3.28137,0.23689,0.64998
706.542,32.07609,-3.28136,0.23665,0.64941
707.242,32.09937,-3.28039,0.23727,0.64884
707.942,32.12259,-3.28039,0.23113,0.64828
708.642,32.14585,-3.28102,0.2351,0.64771
709.342,32.1691,-3.28105,0.23395,0.64714
710.042,32.19238,-3.2823,0.23366,0.64657
710.742,32.21569,-3.28235,0.23564,0.64601
711.442,32.23892,-3.28235,0.23632,0.64544
712.142,32.26227,-3.28251,0.2329,0.64487
712.842,32.28548,-3.28367,0.2337,0.6443
713.542,32.3088,-3.28367,0.23171,0.64374
714.242,32.33209,-3.28367,0.23172,0.64317
714.942,32.35548,-3.28367,0.23124,0.64261
715.642,32.37879,-3.28367,0.23302,0.64204
716.342,32.40211,-3.2842,0.23312,0.64147
717.042,32.42542,-3.28499,0.22895,0.64091
717.742,32.44879,-3.28499,0.22956,0.64034
718.442,32.47215,-3.285,0.22853,0.63978
719.142,32.49548,-3.28635,0.22746,0.63921
719.842,32.51873,-3.2863,0.22748,0.63865
720.542,32.5419,-3.2863,0.23096,0.63808
721.242,32.5652,-3.2863,0.22707,0.63752
721.942,32.58856,-3.28743,0.22692,0.63695
722.642,32.61192,-3.28762,0.22805,0.63639
723.342,32.6352,-3.28762,0.2241,0.63582
724.042,32.65855,-3.28762,0.22438,0.63526
724.742,32.68187,-3.28762,0.22719,0.6347
725.442,32.7052,-3.28762,0.22663,0.63413
726.142,32.7285,-3.28812,0.22295,0.63357
726.842,32.75186,-3.28893,0.22322,0.63301
727.542,32.7752,-3.28892,0.22023,0.63244
728.242,32.79858,-3.28859,0.22199,0.63188
728.942,32.8219,-3.28859,0.21514,0.63132
729.642,32.84523,-3.28991,0.22116,0.63075
730.342,32.8686,-3.28928,0.21718,0.63019
731.042,32.89184,-3.28927,0.21801,0.62963
731.742,32.9152,-3.28927,0.21644,0.62907
732.442,32.9386,-3.28975,0.21688,0.62851
733.142,32.962,-3.29059,0.21583,0.62795
733.842,32.98535,-3.29059,0.21527,0.62738
734.542,33.00866,-3.29059,0.21255,0.62682
735.242,33.03201,-3.29058,0.21039,0.62626
735.942,33.05536,-3.2899,0.2088,0.6257
736.642,33.0787,-3.28994,0.21343,0.62514
737.342,33.10208,-3.29129,0.20773,0.62458
738.042,33.12539,-3.29124,0.20379,0.62402
738.742,33.1488,-3.29124,0.20317,0.62346
739.442,33.17216,-3.29124,0.20162,0.6229
740.142,33.1954,-3.29123,0.20248,0.62234
740.842,33.21884,-3.29253,0.19771,0.62178
741.542,33.24214,-3.29256,0.19589,0.62122
742.242,33.26554,-3.29256,0.19557,0.62066
742.942,33.28887,-3.29256,0.19476,0.6201
743.642,33.31225,-3.2926,0.19328,0.61954
744.342,33.3356,-3.29156,0.19273,0.61899
745.042,33.35904,-3.29297,0.19091,0.61843
745.742,33.38242,-3.293,0.1923,0.61787
746.442,33.40578,-3.2939,0.19067,0.61731
747.142,33.4292,-3.29431,0.18972,0.61675
747.842,33.45248,-3.29431,0.18496,0.6162
748.542,33.47582,-3.29427,0.18948,0.61564
749.242,33.49908,-3.29564,0.18592,0.61508
749.942,33.52252,-3.29666,0.18163,0.61453
750.642,33.54591,-3.29673,0.18081,0.61397
751.342,33.5694,-3.29809,0.18115,0.61341
752.042,33.59275,-3.29804,0.17759,0.61286
752.742,33.61613,-3.29754,0.17576,0.6123
753.442,33.63958,-3.29767,0.17819,0.61174
754.142,33.6631,-3.29869,0.17236,0.61119
754.842,33.68656,-3.2987,0.17156,0.61063
755.542,33.70993,-3.30006,0.17208,0.61008
756.242,33.7333,-3.30001,0.17184,0.60952
756.942,33.75669,-3.30001,0.16927,0.60897
757.642,33.78017,-3.30001,0.17095,0.60841
758.342,33.80358,-3.29933,0.16615,0.60786
759.042,33.82685,-3.2987,0.17063,0.6073
759.742,33.85029,-3.29872,0.16492,0.60675
760.442,33.87379,-3.29737,0.16513,0.6062
761.142,33.89744,-3.29738,0.1689,0.60564
761.842,33.92091,-3.29738,0.16574,0.60509
762.542,33.94435,-3.29738,0.16578,0.60454
763.242,33.96779,-3.29737,0.16134,0.60398
763.942,33.9912,-3.29864,0.15844,0.60343
764.642,34.01467,-3.2987,0.15637,0.60288
765.342,34.03817,-3.2987,0.16023,0.60233
766.042,34.0617,-3.2987,0.15709,0.60177
766.742,34.0851,-3.2987,0.15306,0.60122
767.442,34.10853,-3.2987,0.15696,0.60067
768.142,34.13194,-3.29918,0.15758,0.60012
768.842,34.15542,-3.29994,0.15594,0.59957
769.542,34.1789,-3.29936,0.15634,0.59902
770.242,34.20239,-3.29933,0.15447,0.59846
770.942,34.22591,-3.30013,0.154,0.59791
771.642,34.24938,-3.29936,0.15382,0.59736
772.342,34.2729,-3.29936,0.15235,0.59681
773.042,34.29634,-3.29936,0.14866,0.59626
773.742,34.31982,-3.29936,0.15507,0.59571
774.442,34.3433,-3.30002,0.14957,0.59516
775.142,34.36673,-3.30067,0.14961,0.59461
775.842,34.3902,-3.30067,0.14828,0.59407
776.542,34.41359,-3.30067,0.15201,0.59352
777.242,34.43703,-3.30065,0.15291,0.59297
777.942,34.46046,-3.302,0.14987,0.59242
778.642,34.48392,-3.30199,0.14963,0.59187
779.342,34.5074,-3.30199,0.1494,0.59132
780.042,34.53089,-3.30199,0.14629,0.59077
780.742,34.55433,-3.30199,0.14657,0.59023
781.442,34.57778,-3.30197,0.14559,0.58968
782.142,34.6013,-3.30333,0.14708,0.58913
782.842,34.6248,-3.30331,0.14646,0.58859
783.542,34.6483,-3.30331,0.14587,0.58804
784.242,34.67175,-3.30326,0.14582,0.58749
784.942,34.6952,-3.30461,0.14402,0.58695
785.642,34.71856,-3.30458,0.14576,0.5864
786.342,34.742,-3.30593,0.14532,0.58585
787.042,34.76531,-3.30594,0.14754,0.58531
787.742,34.7889,-3.30594,0.14267,0.58476
788.442,34.81239,-3.30594,0.14194,0.58422
789.142,34.83599,-3.30594,0.1431,0.58367
789.842,34.85955,-3.30594,0.14267,0.58313
790.542,34.8831,-3.30594,0.1418,0.58258
791.242,34.9066,-3.30594,0.143,0.58204
791.942,34.93008,-3.30594,0.13639,0.5815
792.642,34.95349,-3.30594,0.13728,0.58095
793.342,34.97694,-3.30594,0.13877,0.58041
793.942,34.99732,-3.30594,0.13747,0.57994