File: 01_Data/Vinyl_Chair_Polyester_Batting/MCC/Vinyl_Chair_Polyester_Batting_MCC_30K_min_220309_R2.txt
Sample ID:	C:\MCC\MCC Cal\Test\PE_batting_82B_MCC_30K_min_220309_R2.txt
Sample Weight (mg):	4.41
Heating Rate (C/s):	0.5
Combustor Temp (C):	900
N2 Flow Rate (cc/min):	80
O2 Flow Rate (cc/min):	20
Calibration File:	C:\MCC\MCC Cal\Coeff1 JN10440_30_210304.txt.txt
T Correction Coefficients:	0	1.024463	0
Time Shift (s):	14
*
Time (s)	Temperature (C)	N2 flow rate (cc/min)	O2 flow rate (cc/min)	Flow Rate (cc/min)	Oxygen (%)	HRR (W/g)	Heating rate (C/s)
0.000	108.195	80.007	19.993	103.709	19.951	-0.512	0.019
2.000	108.212	80.008	19.994	103.716	19.950	-0.441	0.002
4.000	108.199	80.008	19.994	103.718	19.950	-0.374	-0.022
6.000	108.208	80.008	19.994	103.715	19.949	-0.336	0.042
8.000	108.204	80.008	19.993	103.716	19.950	-0.415	0.027
10.000	108.200	80.008	19.993	103.727	19.951	-0.453	-0.003
12.001	108.197	80.008	19.992	103.723	19.951	-0.476	-0.034
14.001	108.237	80.008	19.993	103.723	19.949	-0.342	-0.006
16.000	108.258	80.008	19.996	103.722	19.951	-0.478	0.007
18.000	108.275	80.008	19.994	103.748	19.949	-0.302	0.029
20.000	108.263	80.006	19.994	103.747	19.945	-0.059	-0.016
22.000	108.295	80.006	19.994	103.755	19.941	0.215	0.019
24.000	108.331	80.006	19.995	103.775	19.937	0.537	0.038
26.000	108.401	80.006	19.994	103.803	19.936	0.642	0.038
28.000	108.430	80.007	19.994	103.815	19.930	1.025	0.044
30.000	108.534	80.006	19.994	103.832	19.928	1.175	0.068
32.000	108.681	80.007	19.994	103.845	19.923	1.599	0.055
34.000	108.815	80.008	19.993	103.873	19.924	1.508	0.092
36.000	108.986	80.006	19.993	103.869	19.920	1.787	0.082
38.000	109.167	80.008	19.993	103.881	19.921	1.727	0.094
40.000	109.422	80.007	19.994	103.891	19.917	2.045	0.141
42.000	109.694	80.006	19.993	103.904	19.912	2.414	0.164
44.001	109.962	80.008	19.993	103.905	19.916	2.104	0.156
46.000	110.265	80.008	19.993	103.889	19.914	2.218	0.129
48.001	110.553	80.007	19.993	103.902	19.916	2.078	0.161
50.000	110.922	80.007	19.994	103.903	19.913	2.311	0.157
52.000	111.278	80.006	19.994	103.905	19.910	2.559	0.210
54.001	111.655	80.007	19.993	103.924	19.910	2.531	0.164
56.000	112.070	80.007	19.994	103.928	19.907	2.719	0.162
58.000	112.478	80.007	19.992	103.933	19.910	2.517	0.226
60.000	112.921	80.007	19.994	103.941	19.909	2.594	0.210
62.000	113.409	80.007	19.993	103.947	19.907	2.720	0.239
64.000	113.939	80.008	19.993	103.940	19.907	2.778	0.251
66.000	114.447	80.010	19.994	103.958	19.906	2.813	0.259
68.000	115.020	80.009	19.994	103.956	19.906	2.791	0.294
70.000	115.554	80.008	19.993	103.967	19.906	2.813	0.288
72.000	116.182	80.009	19.992	103.963	19.906	2.813	0.304
74.001	116.832	80.009	19.992	103.971	19.904	3.006	0.340
76.001	117.445	80.008	19.993	103.970	19.903	3.035	0.310
78.000	118.108	80.008	19.993	103.980	19.902	3.152	0.318
80.000	118.790	80.007	19.993	103.981	19.901	3.205	0.354
82.000	119.522	80.006	19.994	103.990	19.900	3.247	0.350
84.001	120.222	80.007	19.994	103.988	19.902	3.140	0.377
86.001	120.981	80.007	19.994	103.989	19.902	3.113	0.341
88.000	121.732	80.007	19.994	103.990	19.903	3.079	0.380
90.001	122.519	80.008	19.994	103.989	19.902	3.122	0.419
92.000	123.304	80.009	19.995	103.988	19.901	3.164	0.440
94.000	124.101	80.009	19.993	103.973	19.901	3.166	0.424
96.000	124.878	80.009	19.994	103.984	19.902	3.097	0.390
98.000	125.694	80.009	19.993	103.979	19.901	3.223	0.398
100.000	126.574	80.008	19.994	103.984	19.903	3.032	0.422
102.001	127.398	80.009	19.994	103.984	19.903	3.028	0.401
104.000	128.267	80.009	19.994	103.985	19.901	3.193	0.416
106.001	129.176	80.006	19.995	103.985	19.899	3.365	0.436
108.001	130.031	80.007	19.995	103.984	19.901	3.198	0.453
110.000	130.949	80.007	19.994	103.987	19.900	3.247	0.469
112.000	131.845	80.007	19.994	103.986	19.903	3.061	0.436
114.001	132.783	80.007	19.994	103.984	19.901	3.223	0.446
116.000	133.679	80.006	19.995	103.984	19.901	3.215	0.455
118.001	134.633	80.006	19.995	103.966	19.899	3.336	0.468
120.001	135.526	80.008	19.994	103.981	19.900	3.280	0.452
122.001	136.524	80.005	19.994	103.983	19.905	2.923	0.477
124.000	137.454	80.008	19.994	103.982	19.900	3.253	0.484
126.000	138.416	80.006	19.995	103.976	19.901	3.190	0.470
128.000	139.389	80.005	19.994	103.977	19.900	3.257	0.505
130.000	140.350	80.007	19.993	103.978	19.903	3.075	0.493
132.000	141.349	80.005	19.993	103.978	19.902	3.129	0.496
134.000	142.325	80.006	19.993	103.976	19.903	3.023	0.470
136.000	143.306	80.007	19.994	103.982	19.903	3.017	0.486
138.000	144.311	80.008	19.994	103.971	19.898	3.421	0.498
140.000	145.311	80.007	19.994	103.981	19.903	3.034	0.515
142.000	146.306	80.006	19.994	103.978	19.905	2.922	0.497
144.000	147.315	80.005	19.993	103.963	19.902	3.109	0.514
146.000	148.317	80.006	19.993	103.957	19.904	2.954	0.475
148.000	149.346	80.007	19.993	103.953	19.904	2.950	0.519
150.000	150.377	80.007	19.993	103.958	19.906	2.822	0.497
152.000	151.358	80.008	19.994	103.956	19.907	2.786	0.505
154.001	152.396	80.009	19.993	103.960	19.906	2.792	0.501
156.000	153.437	80.008	19.994	103.952	19.902	3.104	0.522
158.000	154.398	80.008	19.994	103.949	19.908	2.642	0.474
160.000	155.389	80.008	19.994	103.948	19.905	2.883	0.523
162.000	156.412	80.007	19.993	103.953	19.907	2.764	0.523
164.001	157.427	80.007	19.993	103.947	19.906	2.796	0.488
166.000	158.422	80.008	19.992	103.943	19.908	2.705	0.510
168.000	159.430	80.008	19.993	103.945	19.909	2.583	0.512
170.000	160.431	80.011	19.992	103.948	19.909	2.569	0.504
172.000	161.488	80.008	19.994	103.945	19.908	2.660	0.539
174.000	162.467	80.009	19.993	103.945	19.906	2.848	0.482
176.000	163.496	80.010	19.993	103.943	19.910	2.508	0.486
178.000	164.480	80.009	19.993	103.945	19.907	2.733	0.498
180.000	165.515	80.009	19.993	103.946	19.907	2.743	0.496
182.000	166.556	80.009	19.994	103.935	19.908	2.678	0.486
184.000	167.543	80.009	19.993	103.932	19.912	2.416	0.491
186.000	168.538	80.007	19.993	103.929	19.910	2.498	0.501
188.000	169.540	80.007	19.993	103.938	19.911	2.475	0.508
190.000	170.562	80.007	19.994	103.939	19.910	2.502	0.475
192.000	171.568	80.007	19.993	103.939	19.911	2.445	0.465
194.000	172.533	80.006	19.995	103.926	19.912	2.360	0.502
196.000	173.541	80.006	19.994	103.931	19.908	2.660	0.507
198.001	174.585	80.007	19.993	103.937	19.911	2.422	0.539
200.000	175.565	80.006	19.994	103.925	19.911	2.483	0.492
202.000	176.535	80.007	19.994	103.922	19.908	2.662	0.487
204.000	177.521	80.006	19.994	103.913	19.909	2.585	0.481
206.000	178.541	80.007	19.994	103.927	19.911	2.443	0.511
208.000	179.519	80.006	19.994	103.918	19.911	2.430	0.487
210.000	180.532	80.005	19.994	103.923	19.910	2.550	0.474
212.000	181.514	80.006	19.994	103.913	19.910	2.530	0.497
214.000	182.468	80.005	19.994	103.919	19.910	2.558	0.465
216.000	183.433	80.006	19.995	103.920	19.910	2.538	0.461
218.000	184.478	80.006	19.994	103.919	19.912	2.412	0.501
220.000	185.452	80.006	19.993	103.913	19.910	2.550	0.495
222.000	186.515	80.007	19.995	103.910	19.908	2.708	0.531
224.000	187.502	80.007	19.994	103.910	19.908	2.688	0.516
226.000	188.464	80.006	19.993	103.910	19.907	2.740	0.479
228.000	189.437	80.007	19.994	103.910	19.907	2.777	0.498
230.001	190.400	80.008	19.993	103.909	19.908	2.655	0.502
232.000	191.395	80.008	19.993	103.911	19.907	2.781	0.485
234.000	192.365	80.007	19.993	103.910	19.909	2.570	0.498
236.000	193.304	80.008	19.993	103.910	19.906	2.850	0.446
238.000	194.334	80.008	19.993	103.909	19.904	2.951	0.497
240.000	195.333	80.008	19.994	103.910	19.902	3.150	0.514
242.000	196.321	80.008	19.993	103.908	19.902	3.140	0.524
244.000	197.258	80.009	19.993	103.910	19.901	3.182	0.490
246.000	198.243	80.008	19.993	103.909	19.897	3.460	0.495
248.000	199.267	80.008	19.993	103.909	19.896	3.541	0.509
250.000	200.221	80.007	19.993	103.910	19.898	3.442	0.462
252.000	201.200	80.008	19.994	103.910	19.896	3.571	0.475
254.000	202.170	80.009	19.993	103.906	19.893	3.756	0.469
256.000	203.205	80.009	19.993	103.915	19.890	3.991	0.518
258.000	204.188	80.009	19.994	103.921	19.890	3.997	0.498
260.000	205.163	80.009	19.993	103.912	19.885	4.348	0.521
262.000	206.162	80.009	19.992	103.910	19.888	4.127	0.497
264.000	207.177	80.010	19.993	103.912	19.882	4.574	0.538
266.000	208.158	80.009	19.993	103.909	19.879	4.828	0.486
268.000	209.155	80.010	19.993	103.907	19.881	4.674	0.489
270.000	210.161	80.009	19.994	103.910	19.878	4.879	0.531
272.000	211.111	80.007	19.994	103.911	19.873	5.226	0.477
274.000	212.109	80.006	19.993	103.908	19.870	5.447	0.478
276.000	213.132	80.006	19.993	103.897	19.866	5.763	0.507
278.000	214.111	80.008	19.994	103.912	19.867	5.688	0.500
280.000	215.095	80.006	19.994	103.913	19.865	5.852	0.496
282.000	216.090	80.006	19.995	103.914	19.860	6.212	0.461
284.000	217.086	80.006	19.994	103.913	19.857	6.433	0.511
286.000	218.106	80.007	19.994	103.914	19.856	6.472	0.504
288.000	219.109	80.006	19.994	103.913	19.850	6.975	0.503
290.000	220.073	80.008	19.994	103.910	19.844	7.407	0.487
292.000	221.072	80.007	19.993	103.908	19.841	7.597	0.462
294.000	222.106	80.007	19.993	103.908	19.837	7.920	0.528
296.000	223.060	80.006	19.994	103.909	19.833	8.181	0.457
298.000	224.086	80.006	19.994	103.910	19.828	8.550	0.478
300.000	225.070	80.006	19.993	103.914	19.822	9.010	0.482
302.000	226.059	80.007	19.995	103.914	19.815	9.544	0.497
304.000	227.090	80.006	19.994	103.921	19.807	10.099	0.511
306.000	228.059	80.005	19.995	103.915	19.804	10.327	0.496
308.000	229.089	80.005	19.993	103.912	19.796	10.889	0.515
310.000	230.130	80.007	19.995	103.912	19.787	11.603	0.510
312.000	231.153	80.007	19.995	103.915	19.778	12.248	0.541
314.000	232.098	80.007	19.994	103.924	19.770	12.808	0.510
316.000	233.064	80.008	19.996	103.917	19.763	13.305	0.488
318.000	234.078	80.009	19.995	103.929	19.754	13.999	0.485
320.000	235.106	80.009	19.994	103.919	19.743	14.793	0.511
322.000	236.096	80.009	19.993	103.922	19.730	15.781	0.509
324.000	237.090	80.009	19.993	103.926	19.722	16.341	0.493
326.000	238.092	80.007	19.993	103.939	19.714	16.943	0.499
328.000	239.069	80.008	19.994	103.943	19.701	17.904	0.488
330.000	240.037	80.008	19.994	103.948	19.690	18.712	0.449
332.000	241.051	80.008	19.994	103.946	19.680	19.480	0.510
334.000	242.046	80.008	19.994	103.948	19.671	20.101	0.491
336.000	243.057	80.007	19.994	103.953	19.658	21.092	0.502
338.000	244.086	80.007	19.994	103.949	19.649	21.742	0.493
340.000	245.031	80.008	19.993	103.951	19.638	22.541	0.481
342.000	246.021	80.009	19.992	103.949	19.627	23.349	0.496
344.000	247.053	80.007	19.993	103.951	19.614	24.274	0.496
346.000	248.051	80.008	19.993	103.951	19.602	25.176	0.489
348.000	249.069	80.009	19.993	103.951	19.589	26.118	0.495
350.000	250.121	80.010	19.993	103.956	19.576	27.117	0.553
352.000	251.114	80.009	19.993	103.951	19.560	28.267	0.522
354.000	252.125	80.008	19.993	103.954	19.545	29.400	0.510
356.000	253.149	80.008	19.994	103.953	19.530	30.495	0.516
358.000	254.114	80.008	19.992	103.968	19.514	31.633	0.482
360.000	255.137	80.008	19.994	103.974	19.495	33.058	0.513
362.000	256.111	80.008	19.993	103.980	19.480	34.167	0.482
364.000	257.121	80.007	19.994	103.978	19.464	35.344	0.477
366.000	258.095	80.007	19.993	103.984	19.446	36.678	0.506
368.000	259.109	80.009	19.993	103.985	19.426	38.168	0.521
370.000	260.049	80.007	19.994	103.990	19.405	39.690	0.487
372.000	261.086	80.007	19.993	103.989	19.388	40.945	0.517
374.000	262.038	80.007	19.994	103.991	19.365	42.623	0.469
376.000	263.048	80.007	19.995	103.993	19.345	44.110	0.508
378.001	264.089	80.006	19.995	104.016	19.323	45.713	0.538
380.001	265.033	80.007	19.994	104.017	19.299	47.535	0.492
382.000	266.037	80.006	19.994	104.019	19.276	49.227	0.490
384.000	267.046	80.006	19.994	104.024	19.251	51.033	0.506
386.000	268.083	80.005	19.994	104.026	19.225	52.933	0.517
388.000	269.010	80.005	19.994	104.025	19.201	54.726	0.468
390.000	270.014	80.006	19.995	104.033	19.175	56.679	0.477
392.000	271.057	80.006	19.994	104.043	19.146	58.782	0.516
394.000	272.066	80.005	19.994	104.049	19.118	60.871	0.495
396.000	273.079	80.008	19.993	104.053	19.088	63.035	0.492
398.000	274.069	80.008	19.994	104.044	19.061	65.083	0.471
400.000	275.076	80.006	19.994	104.057	19.031	67.297	0.494
402.000	276.067	80.008	19.995	104.062	18.998	69.731	0.490
404.000	277.103	80.007	19.994	104.068	18.965	72.134	0.541
406.000	278.053	80.009	19.994	104.067	18.928	74.848	0.494
408.000	279.038	80.006	19.994	104.077	18.891	77.593	0.459
410.000	280.078	80.006	19.994	104.102	18.856	80.200	0.505
412.000	281.062	80.007	19.994	104.106	18.818	82.985	0.478
414.000	282.080	80.007	19.994	104.106	18.784	85.472	0.490
416.000	283.087	80.008	19.994	104.106	18.754	87.661	0.496
418.000	284.113	80.008	19.994	104.116	18.725	89.756	0.486
420.000	285.111	80.009	19.993	104.105	18.706	91.134	0.501
422.000	286.083	80.009	19.994	104.103	18.705	91.219	0.478
424.000	287.129	80.010	19.993	104.093	18.725	89.783	0.516
426.000	288.119	80.009	19.993	104.073	18.771	86.422	0.476
428.000	289.135	80.010	19.993	104.057	18.835	81.657	0.534
430.000	290.108	80.009	19.993	104.038	18.905	76.504	0.507
432.000	291.168	80.009	19.993	104.057	18.981	70.891	0.531
434.000	292.176	80.007	19.994	104.064	19.057	65.282	0.501
436.000	293.147	80.007	19.995	104.066	19.126	60.195	0.496
438.000	294.151	80.008	19.994	104.056	19.190	55.465	0.511
440.000	295.181	80.008	19.993	104.037	19.245	51.465	0.529
442.000	296.157	80.007	19.994	104.026	19.294	47.841	0.456
444.000	297.136	80.007	19.993	104.022	19.332	45.033	0.458
446.000	298.182	80.007	19.994	103.997	19.366	42.529	0.523
448.000	299.199	80.007	19.993	103.988	19.393	40.554	0.529
450.000	300.186	80.007	19.994	103.984	19.419	38.627	0.512
452.000	301.184	80.007	19.992	103.975	19.437	37.283	0.494
454.000	302.180	80.007	19.993	103.958	19.454	36.052	0.503
456.000	303.173	80.007	19.993	103.962	19.467	35.117	0.476
458.000	304.208	80.008	19.993	103.953	19.489	33.502	0.523
460.000	305.241	80.008	19.994	103.951	19.503	32.438	0.529
462.000	306.243	80.006	19.993	103.949	19.515	31.585	0.522
464.000	307.254	80.006	19.994	103.949	19.534	30.164	0.508
466.000	308.310	80.005	19.994	103.947	19.545	29.364	0.503
468.000	309.331	80.006	19.993	103.947	19.559	28.341	0.504
470.000	310.371	80.005	19.994	103.945	19.572	27.352	0.514
472.000	311.413	80.006	19.994	103.933	19.586	26.379	0.530
474.000	312.451	80.006	19.994	103.921	19.601	25.258	0.531
476.000	313.527	80.006	19.995	103.916	19.616	24.149	0.513
478.000	314.570	80.007	19.995	103.926	19.632	22.936	0.535
480.000	315.583	80.007	19.994	103.916	19.643	22.131	0.518
482.000	316.591	80.009	19.994	103.914	19.659	20.970	0.510
484.000	317.610	80.009	19.994	103.913	19.670	20.189	0.490
486.000	318.607	80.008	19.993	103.901	19.682	19.284	0.507
488.000	319.638	80.007	19.994	103.900	19.690	18.684	0.481
490.000	320.687	80.007	19.995	103.906	19.698	18.085	0.519
492.000	321.741	80.007	19.993	103.893	19.710	17.236	0.550
494.000	322.731	80.007	19.994	103.901	19.721	16.451	0.509
496.000	323.767	80.006	19.996	103.885	19.731	15.664	0.516
498.000	324.752	80.006	19.994	103.878	19.736	15.285	0.492
500.000	325.790	80.008	19.995	103.881	19.746	14.590	0.523
502.000	326.768	80.009	19.996	103.878	19.752	14.156	0.514
504.000	327.804	80.009	19.994	103.870	19.757	13.755	0.482
506.000	328.791	80.009	19.993	103.873	19.765	13.167	0.467
508.000	329.841	80.009	19.993	103.869	19.767	13.016	0.527
510.000	330.803	80.009	19.993	103.869	19.771	12.746	0.497
512.000	331.827	80.010	19.993	103.868	19.781	12.033	0.509
514.000	332.854	80.009	19.993	103.868	19.780	12.084	0.526
516.000	333.865	80.007	19.993	103.868	19.781	11.987	0.503
518.000	334.861	80.007	19.993	103.868	19.782	11.901	0.496
520.000	335.938	80.007	19.994	103.867	19.783	11.876	0.525
522.001	336.867	80.008	19.993	103.862	19.786	11.648	0.476
524.000	337.854	80.007	19.994	103.870	19.789	11.428	0.464
526.000	338.842	80.008	19.993	103.867	19.794	11.083	0.502
528.000	339.872	80.007	19.994	103.846	19.791	11.271	0.517
530.000	340.810	80.007	19.993	103.847	19.791	11.298	0.473
532.000	341.854	80.007	19.993	103.850	19.789	11.432	0.521
534.000	342.802	80.007	19.994	103.846	19.789	11.410	0.487
536.000	343.805	80.007	19.993	103.847	19.785	11.744	0.487
538.000	344.808	80.007	19.993	103.859	19.783	11.843	0.492
540.000	345.859	80.005	19.993	103.848	19.777	12.321	0.528
542.000	346.841	80.006	19.993	103.852	19.775	12.463	0.499
544.000	347.803	80.007	19.994	103.841	19.773	12.613	0.484
546.000	348.819	80.007	19.992	103.842	19.763	13.365	0.493
548.000	349.842	80.006	19.993	103.844	19.755	13.909	0.522
550.000	350.799	80.006	19.993	103.855	19.751	14.227	0.467
552.000	351.801	80.007	19.993	103.852	19.744	14.691	0.500
554.000	352.814	80.007	19.993	103.856	19.733	15.497	0.507
556.000	353.800	80.007	19.994	103.856	19.721	16.393	0.495
558.000	354.836	80.009	19.993	103.860	19.713	17.004	0.506
560.000	355.809	80.008	19.993	103.852	19.698	18.073	0.478
562.000	356.829	80.008	19.994	103.853	19.686	19.013	0.518
564.000	357.786	80.008	19.995	103.856	19.665	20.504	0.512
566.000	358.813	80.009	19.995	103.848	19.652	21.477	0.516
568.000	359.800	80.009	19.995	103.849	19.633	22.899	0.488
570.000	360.789	80.008	19.993	103.849	19.608	24.743	0.513
572.000	361.797	80.009	19.994	103.863	19.585	26.431	0.473
574.000	362.793	80.009	19.994	103.867	19.558	28.394	0.489
576.000	363.784	80.008	19.994	103.867	19.529	30.541	0.494
578.000	364.754	80.008	19.994	103.869	19.496	32.942	0.482
580.000	365.773	80.007	19.994	103.870	19.457	35.808	0.495
582.000	366.771	80.009	19.993	103.871	19.422	38.396	0.505
584.000	367.754	80.009	19.994	103.881	19.378	41.655	0.504
586.000	368.765	80.009	19.994	103.877	19.333	44.962	0.482
588.000	369.731	80.010	19.993	103.890	19.284	48.558	0.499
590.000	370.701	80.009	19.994	103.906	19.222	53.100	0.504
592.000	371.723	80.010	19.996	103.906	19.165	57.310	0.476
594.000	372.737	80.008	19.994	103.914	19.100	62.110	0.499
596.000	373.771	80.007	19.994	103.909	19.029	67.315	0.509
598.000	374.787	80.006	19.995	103.914	18.949	73.169	0.537
600.000	375.749	80.006	19.994	103.913	18.861	79.658	0.470
602.000	376.726	80.006	19.995	103.924	18.770	86.374	0.498
604.000	377.714	80.006	19.994	103.944	18.669	93.783	0.480
606.000	378.714	80.007	19.994	103.927	18.571	101.017	0.508
608.000	379.726	80.007	19.994	103.938	18.461	109.075	0.532
610.000	380.700	80.007	19.994	103.946	18.355	116.845	0.500
612.000	381.707	80.007	19.993	103.947	18.244	125.050	0.507
614.000	382.697	80.006	19.994	103.935	18.122	134.008	0.496
616.000	383.662	80.007	19.995	103.948	18.005	142.605	0.480
618.000	384.663	80.007	19.994	103.945	17.887	151.264	0.487
620.000	385.624	80.006	19.993	103.942	17.768	159.934	0.513
622.000	386.619	80.008	19.995	103.942	17.649	168.587	0.492
624.000	387.637	80.006	19.993	103.922	17.527	177.564	0.496
626.000	388.588	80.005	19.994	103.943	17.408	186.297	0.489
628.000	389.576	80.006	19.994	103.931	17.307	193.733	0.504
630.000	390.541	80.006	19.994	103.887	17.221	199.979	0.466
632.000	391.554	80.006	19.994	103.845	17.150	205.212	0.504
634.000	392.579	80.006	19.993	103.833	17.086	209.836	0.504
636.000	393.596	80.007	19.993	103.836	17.041	213.096	0.525
638.000	394.597	80.007	19.993	103.830	17.014	215.134	0.517
640.000	395.595	80.007	19.994	103.803	16.998	216.282	0.485
642.000	396.571	80.007	19.993	103.792	17.000	216.179	0.530
644.000	397.550	80.008	19.993	103.781	17.021	214.655	0.493
646.000	398.543	80.008	19.994	103.751	17.061	211.732	0.487
648.000	399.563	80.008	19.993	103.749	17.105	208.519	0.496
650.000	400.514	80.008	19.993	103.762	17.167	204.031	0.501
652.000	401.520	80.007	19.992	103.777	17.237	198.834	0.478
654.000	402.525	80.007	19.993	103.783	17.316	193.061	0.506
656.000	403.552	80.007	19.994	103.789	17.392	187.419	0.499
658.000	404.542	80.006	19.994	103.797	17.474	181.457	0.507
660.000	405.543	80.006	19.993	103.811	17.559	175.212	0.485
662.000	406.561	80.007	19.994	103.826	17.639	169.265	0.501
664.000	407.573	80.008	19.993	103.822	17.724	163.079	0.519
666.000	408.589	80.006	19.993	103.810	17.805	157.134	0.549
668.000	409.633	80.008	19.992	103.807	17.880	151.624	0.509
670.000	410.630	80.009	19.993	103.811	17.969	145.087	0.496
672.000	411.650	80.009	19.993	103.805	18.057	138.661	0.514
674.000	412.682	80.008	19.993	103.794	18.151	131.772	0.518
676.000	413.684	80.007	19.996	103.800	18.250	124.487	0.493
678.001	414.762	80.007	19.994	103.819	18.337	118.093	0.523
680.000	415.755	80.007	19.994	103.826	18.425	111.642	0.527
682.000	416.816	80.006	19.994	103.829	18.511	105.298	0.525
684.000	417.850	80.006	19.995	103.830	18.591	99.387	0.530
686.000	418.858	80.005	19.996	103.831	18.671	93.530	0.484
688.000	419.871	80.006	19.995	103.831	18.757	87.252	0.527
690.000	420.908	80.007	19.995	103.830	18.835	81.521	0.512
692.000	421.915	80.006	19.995	103.831	18.909	76.093	0.477
694.000	422.941	80.006	19.994	103.831	18.979	70.945	0.525
696.000	423.961	80.006	19.996	103.832	19.048	65.840	0.511
698.000	424.963	80.007	19.995	103.845	19.109	61.363	0.509
700.000	425.975	80.007	19.994	103.855	19.175	56.514	0.495
702.000	426.987	80.007	19.994	103.837	19.235	52.137	0.502
704.000	428.030	80.007	19.994	103.844	19.294	47.747	0.525
706.000	429.030	80.007	19.994	103.855	19.350	43.696	0.499
708.000	430.068	80.006	19.995	103.846	19.402	39.856	0.484
710.000	431.081	80.006	19.994	103.840	19.451	36.273	0.512
712.000	432.092	80.006	19.994	103.838	19.497	32.846	0.535
714.000	433.100	80.005	19.994	103.840	19.542	29.545	0.520
716.000	434.130	80.004	19.994	103.834	19.582	26.630	0.514
718.000	435.140	80.006	19.993	103.834	19.622	23.698	0.495
720.000	436.175	80.006	19.993	103.834	19.659	20.991	0.493
722.000	437.144	80.008	19.993	103.828	19.690	18.722	0.512
724.000	438.183	80.008	19.992	103.825	19.722	16.356	0.466
726.000	439.206	80.007	19.994	103.822	19.751	14.176	0.523
728.000	440.194	80.008	19.993	103.825	19.778	12.250	0.504
730.001	441.214	80.008	19.994	103.829	19.803	10.405	0.479
732.000	442.267	80.008	19.994	103.823	19.824	8.831	0.533
734.000	443.242	80.007	19.992	103.831	19.841	7.560	0.504
736.000	444.267	80.007	19.994	103.827	19.864	5.934	0.509
738.000	445.278	80.008	19.995	103.836	19.877	4.958	0.505
740.000	446.278	80.008	19.993	103.833	19.890	4.026	0.518
742.000	447.268	80.008	19.994	103.835	19.902	3.127	0.496
744.000	448.298	80.008	19.994	103.831	19.913	2.288	0.504
746.000	449.320	80.009	19.993	103.826	19.921	1.713	0.478
748.000	450.373	80.009	19.994	103.827	19.930	1.033	0.512
750.000	451.333	80.008	19.993	103.818	19.936	0.609	0.525
752.000	452.360	80.009	19.993	103.811	19.943	0.132	0.488
754.000	453.367	80.008	19.994	103.817	19.949	-0.342	0.497
756.000	454.392	80.008	19.994	103.817	19.947	-0.211	0.494
758.000	455.422	80.008	19.994	103.813	19.952	-0.529	0.524
760.000	456.475	80.007	19.994	103.799	19.954	-0.701	0.540
762.000	457.507	80.007	19.994	103.811	19.956	-0.844	0.513
764.000	458.539	80.006	19.994	103.800	19.963	-1.337	0.531
766.001	459.529	80.006	19.994	103.802	19.961	-1.225	0.485
768.001	460.597	80.005	19.994	103.808	19.965	-1.521	0.513
770.000	461.617	80.006	19.994	103.810	19.966	-1.608	0.496
772.000	462.613	80.006	19.994	103.818	19.967	-1.669	0.488
774.000	463.634	80.007	19.994	103.814	19.967	-1.661	0.489
776.000	464.674	80.006	19.994	103.814	19.966	-1.606	0.525
778.000	465.670	80.005	19.996	103.807	19.968	-1.721	0.510
780.000	466.664	80.006	19.995	103.818	19.973	-2.084	0.495
782.000	467.694	80.006	19.995	103.809	19.972	-2.045	0.508
784.000	468.683	80.006	19.995	103.827	19.973	-2.126	0.492
786.000	469.746	80.006	19.993	103.817	19.971	-1.932	0.521
788.000	470.713	80.004	19.995	103.805	19.977	-2.426	0.496
790.000	471.739	80.005	19.995	103.822	19.970	-1.905	0.534
792.000	472.783	80.006	19.993	103.810	19.974	-2.163	0.526
794.000	473.805	80.005	19.993	103.808	19.974	-2.209	0.523
796.000	474.835	80.007	19.995	103.822	19.971	-1.976	0.522
798.000	475.880	80.005	19.993	103.821	19.977	-2.371	0.524
800.000	476.895	80.005	19.993	103.810	19.972	-2.041	0.509
802.000	477.911	80.006	19.993	103.802	19.975	-2.215	0.491
804.000	478.934	80.007	19.994	103.803	19.977	-2.410	0.478
806.000	479.995	80.007	19.995	103.804	19.977	-2.357	0.530
808.000	481.012	80.008	19.993	103.813	19.978	-2.464	0.524
810.000	482.063	80.009	19.994	103.805	19.978	-2.450	0.513
812.000	483.084	80.006	19.993	103.816	19.984	-2.928	0.537
814.000	484.051	80.007	19.992	103.812	19.978	-2.448	0.497
816.000	485.135	80.007	19.994	103.803	19.982	-2.727	0.543
818.000	486.147	80.007	19.993	103.809	19.982	-2.758	0.504
820.000	487.179	80.006	19.995	103.807	19.982	-2.731	0.539
822.000	488.171	80.008	19.994	103.801	19.982	-2.752	0.507
824.000	489.236	80.008	19.993	103.805	19.980	-2.636	0.528
826.000	490.248	80.007	19.993	103.803	19.981	-2.685	0.530
828.000	491.289	80.008	19.994	103.792	19.979	-2.557	0.513
830.000	492.287	80.009	19.994	103.797	19.985	-2.964	0.508
832.000	493.310	80.009	19.994	103.801	19.984	-2.871	0.503
834.000	494.326	80.009	19.993	103.796	19.984	-2.926	0.517
836.000	495.364	80.011	19.993	103.794	19.981	-2.699	0.516
838.000	496.366	80.009	19.993	103.791	19.983	-2.829	0.508
840.000	497.350	80.009	19.993	103.792	19.982	-2.736	0.539
842.000	498.369	80.007	19.994	103.797	19.984	-2.904	0.524
844.000	499.405	80.005	19.993	103.799	19.983	-2.798	0.509
846.000	500.432	80.006	19.993	103.807	19.984	-2.886	0.543
848.000	501.455	80.006	19.994	103.802	19.983	-2.827	0.539
850.000	502.532	80.006	19.994	103.803	19.982	-2.784	0.501
852.000	503.578	80.007	19.993	103.817	19.983	-2.849	0.505
854.000	504.613	80.007	19.995	103.803	19.987	-3.121	0.544
856.000	505.659	80.007	19.995	103.813	19.988	-3.169	0.546
858.000	506.701	80.006	19.995	103.815	19.991	-3.444	0.539
860.000	507.734	80.005	19.993	103.799	19.986	-3.072	0.546
862.000	508.825	80.006	19.993	103.796	19.987	-3.148	0.509
864.000	509.864	80.006	19.993	103.809	19.992	-3.464	0.558
866.000	510.871	80.006	19.994	103.817	19.988	-3.223	0.492
868.000	511.945	80.007	19.994	103.801	19.990	-3.318	0.515
870.000	513.002	80.006	19.994	103.800	19.984	-2.924	0.574
872.000	514.011	80.007	19.994	103.794	19.988	-3.169	0.556
874.000	514.990	80.007	19.995	103.794	19.990	-3.381	0.537
876.000	516.180	80.005	19.995	103.793	19.992	-3.468	0.436
878.000	517.264	80.005	19.994	103.793	19.990	-3.339	0.568
880.000	518.158	80.006	19.996	103.791	19.993	-3.539	0.476
882.000	519.205	80.006	19.994	103.800	19.994	-3.656	0.477
884.000	520.014	80.009	19.993	103.797	19.992	-3.531	0.536
886.000	521.497	80.007	19.994	103.795	19.994	-3.622	0.962
888.000	521.917	80.007	19.994	103.793	19.995	-3.721	0.294
890.000	523.647	80.008	19.994	103.791	19.995	-3.731	0.364
892.000	524.086	80.010	19.993	103.791	19.994	-3.671	0.401
894.000	525.297	80.009	19.994	103.798	19.996	-3.811	0.522
896.000	526.293	80.009	19.992	103.795	19.992	-3.474	0.459
898.000	527.122	80.007	19.994	103.793	19.996	-3.784	0.491
900.000	528.260	80.008	19.994	103.792	19.996	-3.778	0.430
902.000	529.291	80.007	19.994	103.795	19.996	-3.778	0.499
904.000	530.170	80.009	19.993	103.797	19.995	-3.699	0.461
906.000	531.283	80.008	19.993	103.801	19.996	-3.799	0.468
908.000	532.237	80.007	19.994	103.795	19.995	-3.704	0.547
910.000	533.196	80.008	19.994	103.798	19.995	-3.720	0.501
912.000	534.211	80.010	19.994	103.795	19.997	-3.882	0.490
914.000	535.202	80.009	19.993	103.795	19.993	-3.600	0.538
916.000	536.201	80.009	19.993	103.803	19.998	-3.922	0.520
918.000	537.215	80.009	19.993	103.808	19.998	-3.928	0.497
920.000	538.201	80.009	19.993	103.808	19.998	-3.938	0.523
922.000	539.246	80.008	19.992	103.805	19.996	-3.780	0.518
924.000	540.236	80.008	19.992	103.797	19.996	-3.802	0.489
926.000	541.245	80.006	19.993	103.797	19.999	-4.029	0.538
928.000	542.232	80.007	19.993	103.802	20.001	-4.144	0.485
930.000	543.255	80.006	19.993	103.804	19.995	-3.693	0.536
932.000	544.276	80.006	19.993	103.801	19.998	-3.906	0.478
934.000	545.305	80.008	19.993	103.799	20.001	-4.144	0.534
936.000	546.304	80.007	19.993	103.795	20.000	-4.070	0.525
938.000	547.342	80.008	19.993	103.794	20.000	-4.114	0.525
940.000	548.344	80.008	19.992	103.794	19.998	-3.900	0.494
942.000	549.446	80.008	19.993	103.792	19.998	-3.932	0.504
944.000	550.403	80.007	19.995	103.796	20.000	-4.096	0.499
946.000	551.513	80.008	19.993	103.794	20.001	-4.159	0.529
948.000	552.577	80.009	19.994	103.793	20.000	-4.094	0.561
950.000	553.591	80.007	19.994	103.794	20.003	-4.290	0.530
952.000	554.651	80.007	19.993	103.794	20.000	-4.080	0.542
954.000	555.656	80.007	19.994	103.792	20.003	-4.280	0.504
956.000	556.708	80.007	19.994	103.792	20.004	-4.347	0.501
958.000	557.844	80.007	19.994	103.798	20.003	-4.316	0.567
960.000	558.876	80.006	19.994	103.800	20.000	-4.090	0.536
962.000	559.876	80.005	19.994	103.795	20.004	-4.379	0.505
964.000	560.963	80.008	19.993	103.795	20.002	-4.264	0.540
966.001	562.016	80.008	19.994	103.798	20.002	-4.193	0.520
968.000	563.075	80.008	19.995	103.795	19.999	-4.005	0.543
970.000	564.107	80.008	19.994	103.794	19.999	-3.989	0.518
972.000	565.171	80.008	19.994	103.792	20.002	-4.209	0.527
974.000	566.203	80.008	19.994	103.792	20.004	-4.355	0.542
976.000	567.251	80.008	19.995	103.793	20.003	-4.296	0.532
978.000	568.231	80.007	19.993	103.795	20.003	-4.284	0.493
980.000	569.272	80.007	19.995	103.798	20.005	-4.442	0.514
982.000	570.283	80.006	19.993	103.794	20.005	-4.424	0.505
984.000	571.314	80.008	19.994	103.793	20.004	-4.365	0.506
986.000	572.311	80.008	19.993	103.794	20.001	-4.187	0.512
988.000	573.328	80.006	19.993	103.794	20.004	-4.397	0.506
990.000	574.409	80.008	19.992	103.795	20.008	-4.644	0.544
992.000	575.400	80.009	19.992	103.795	20.006	-4.503	0.503
994.000	576.411	80.009	19.993	103.793	20.006	-4.509	0.457
996.000	577.386	80.010	19.992	103.791	20.007	-4.570	0.494
998.000	578.340	80.009	19.993	103.790	20.008	-4.667	0.485
1000.000	579.302	80.009	19.993	103.789	20.009	-4.778	0.476
1002.000	580.318	80.007	19.993	103.789	20.009	-4.707	0.504
1004.000	581.273	80.008	19.993	103.788	20.007	-4.592	0.470
1006.000	582.284	80.007	19.994	103.791	20.008	-4.677	0.495
1008.000	583.181	80.007	19.993	103.793	20.008	-4.660	0.472
1010.000	584.160	80.007	19.993	103.791	20.008	-4.695	0.471
1012.000	585.100	80.007	19.993	103.788	20.012	-4.948	0.464
1014.000	586.086	80.007	19.993	103.787	20.010	-4.835	0.506
1016.000	587.014	80.007	19.993	103.791	20.010	-4.784	0.499
1018.001	587.935	80.008	19.994	103.788	20.009	-4.758	0.477
1020.000	588.921	80.008	19.993	103.792	20.013	-5.064	0.484
1022.001	589.849	80.008	19.993	103.792	20.011	-4.904	0.468
1024.000	590.825	80.009	19.994	103.789	20.013	-5.019	0.484
1026.001	591.802	80.009	19.993	103.791	20.013	-5.050	0.492
1028.000	592.800	80.007	19.992	103.789	20.010	-4.815	0.492
1030.001	593.739	80.006	19.993	103.795	20.010	-4.850	0.485
1032.000	594.763	80.006	19.993	103.791	20.009	-4.748	0.489
1034.001	595.770	80.006	19.994	103.793	20.006	-4.513	0.502
1036.000	596.788	80.007	19.994	103.800	20.009	-4.726	0.500
1038.000	597.830	80.006	19.995	103.805	20.009	-4.726	0.522
1040.001	598.849	80.005	19.995	103.807	20.006	-4.521	0.549
1042.000	599.827	80.005	19.994	103.805	20.010	-4.799	0.497
1044.001	600.857	80.007	19.994	103.800	20.008	-4.691	0.516
1046.000	601.856	80.006	19.995	103.797	20.014	-5.123	0.461
1048.001	602.888	80.008	19.993	103.796	20.010	-4.782	0.508
1050.000	603.943	80.008	19.993	103.797	20.010	-4.797	0.546
1052.000	604.946	80.007	19.993	103.796	20.009	-4.764	0.494
1054.000	606.021	80.007	19.993	103.795	20.014	-5.084	0.555
1056.000	607.059	80.006	19.993	103.802	20.010	-4.829	0.542
1058.000	608.103	80.007	19.993	103.793	20.013	-5.009	0.539
1060.000	609.201	80.007	19.994	103.796	20.009	-4.709	0.553
1062.000	610.273	80.006	19.994	103.797	20.008	-4.657	0.557
1064.000	611.273	80.006	19.994	103.795	20.009	-4.774	0.531
1066.000	612.331	80.007	19.994	103.794	20.010	-4.843	0.529
1068.000	613.397	80.006	19.993	103.791	20.009	-4.750	0.528
1070.001	614.464	80.008	19.994	103.795	20.007	-4.590	0.506
1072.001	615.487	80.006	19.994	103.791	20.009	-4.729	0.490
1074.001	616.548	80.007	19.993	103.791	20.009	-4.756	0.503
1076.000	617.550	80.009	19.994	103.790	20.007	-4.567	0.498
1078.001	618.601	80.008	19.994	103.790	20.011	-4.902	0.512
1080.000	619.610	80.009	19.993	103.800	20.012	-4.997	0.513
1082.001	620.656	80.008	19.993	103.793	20.009	-4.713	0.499
1084.000	621.712	80.008	19.994	103.792	20.013	-5.019	0.518
1086.000	622.731	80.006	19.993	103.792	20.016	-5.272	0.510
1088.000	623.762	80.006	19.993	103.792	20.015	-5.199	0.514
1090.001	624.826	80.007	19.994	103.817	20.013	-5.068	0.557
1092.000	625.864	80.007	19.993	103.783	20.017	-5.359	0.541
1094.001	626.928	80.007	19.993	103.789	20.017	-5.313	0.536
1096.001	627.923	80.006	19.994	103.793	20.015	-5.201	0.509
1098.001	628.978	80.007	19.994	103.791	20.017	-5.325	0.510
1100.001	630.026	80.006	19.994	103.791	20.019	-5.483	0.533
1102.000	631.035	80.007	19.993	103.794	20.019	-5.456	0.528
1104.000	632.013	80.006	19.993	103.798	20.018	-5.372	0.482
1106.001	633.097	80.007	19.994	103.801	20.020	-5.548	0.519
1108.000	634.140	80.006	19.993	103.796	20.016	-5.228	0.553
1110.000	635.192	80.009	19.993	103.796	20.018	-5.368	0.555
1112.000	636.203	80.007	19.993	103.795	20.019	-5.467	0.511
1114.000	637.228	80.007	19.994	103.797	20.019	-5.463	0.484
1116.000	638.296	80.007	19.993	103.798	20.020	-5.523	0.521
1118.000	639.283	80.005	19.993	103.798	20.016	-5.224	0.495
1120.000	640.343	80.007	19.993	103.797	20.017	-5.303	0.537
1122.001	641.300	80.007	19.993	103.798	20.014	-5.143	0.501
1124.000	642.334	80.006	19.993	103.798	20.016	-5.260	0.502
1126.000	643.339	80.008	19.994	103.798	20.019	-5.479	0.504
1128.000	644.325	80.009	19.993	103.795	20.018	-5.414	0.489
1130.000	645.329	80.008	19.995	103.805	20.017	-5.305	0.526
1132.000	646.281	80.008	19.994	103.793	20.017	-5.345	0.517
1134.001	647.321	80.009	19.994	103.796	20.016	-5.242	0.496
1136.000	648.292	80.007	19.993	103.799	20.016	-5.234	0.475
1138.001	649.281	80.008	19.994	103.795	20.013	-5.015	0.470
1140.000	650.275	80.007	19.994	103.808	20.014	-5.111	0.490
1142.000	651.304	80.008	19.993	103.800	20.015	-5.206	0.506
1144.000	652.266	80.009	19.994	103.796	20.016	-5.258	0.490
1146.000	653.302	80.007	19.994	103.794	20.015	-5.180	0.503
1148.000	654.236	80.007	19.994	103.792	20.016	-5.236	0.467
1150.000	655.305	80.008	19.995	103.801	20.014	-5.147	0.522
1152.000	656.250	80.007	19.993	103.801	20.014	-5.099	0.451
1154.001	657.258	80.008	19.994	103.796	20.016	-5.294	0.468
1156.000	658.260	80.008	19.995	103.800	20.022	-5.713	0.463
1158.000	659.307	80.009	19.994	103.805	20.020	-5.543	0.521
1160.001	660.283	80.008	19.994	103.797	20.011	-4.910	0.474
1162.001	661.310	80.008	19.995	103.801	20.020	-5.575	0.499
1164.000	662.341	80.007	19.993	103.814	20.026	-5.959	0.555
1166.000	663.274	80.007	19.994	103.813	20.016	-5.232	0.513
1168.000	664.288	80.005	19.994	103.820	20.019	-5.461	0.516
1170.000	665.962	80.008	19.994	103.807	20.017	-5.337	0.765
1172.001	666.404	80.006	19.994	103.811	20.017	-5.347	1.047
1174.000	667.247	80.006	19.993	103.809	20.009	-4.756	0.300
1176.001	668.439	80.006	19.993	103.799	20.021	-5.590	0.853
1178.001	669.692	80.007	19.994	103.797	20.017	-5.360	0.517
1180.001	670.645	80.006	19.993	103.799	20.010	-4.849	0.629
1182.000	671.385	80.004	19.993	103.799	20.022	-5.704	0.425
1184.000	672.988	80.007	19.994	103.797	20.019	-5.458	0.229
1186.001	673.614	80.006	19.994	103.796	20.023	-5.746	0.684
1188.001	674.595	80.007	19.992	103.804	20.020	-5.539	0.554
1190.000	675.616	80.006	19.994	103.799	20.019	-5.509	0.636
1192.000	676.264	80.008	19.994	103.801	20.022	-5.675	0.501
1194.001	677.229	80.008	19.993	103.789	20.022	-5.679	1.145
1196.000	678.419	80.007	19.993	103.791	20.021	-5.590	0.431
1198.001	679.364	80.007	19.993	103.790	20.022	-5.699	0.474
1200.000	680.341	80.006	19.993	103.792	20.021	-5.606	0.524
1202.000	681.306	80.006	19.994	103.795	20.023	-5.782	0.508
1204.000	682.251	80.006	19.993	103.796	20.022	-5.669	0.457
1206.001	683.196	80.007	19.994	103.796	20.021	-5.602	0.478
1208.000	684.198	80.007	19.994	103.793	20.020	-5.561	0.500
1210.000	685.137	80.008	19.993	103.793	20.024	-5.837	0.477
1212.000	686.119	80.008	19.993	103.794	20.023	-5.784	0.488
1214.000	687.084	80.010	19.993	103.790	20.027	-6.039	0.525
1216.000	688.021	80.009	19.995	103.790	20.026	-6.003	0.481
1218.001	689.016	80.008	19.994	103.789	20.024	-5.851	0.471
1220.000	689.990	80.008	19.993	103.793	20.023	-5.786	0.482
1222.000	690.984	80.008	19.994	103.784	20.028	-6.151	0.483
1224.000	692.012	80.007	19.995	103.791	20.030	-6.250	0.494
1226.000	693.024	80.007	19.994	103.789	20.027	-6.057	0.503
1228.001	694.063	80.006	19.994	103.792	20.027	-6.086	0.535
1230.000	695.071	80.007	19.994	103.795	20.026	-6.015	0.513
1232.001	696.121	80.008	19.993	103.792	20.028	-6.127	0.551
1234.000	697.174	80.009	19.993	103.793	20.025	-5.905	0.540
1236.000	698.182	80.008	19.994	103.782	20.026	-6.009	0.522
1238.000	699.235	80.009	19.994	103.788	20.025	-5.950	0.457
1240.000	700.277	80.009	19.993	103.792	20.026	-5.999	0.500
1242.002	701.316	80.010	19.993	103.791	20.028	-6.135	0.515
1244.000	702.369	80.009	19.995	103.783	20.026	-5.970	0.518
1246.000	703.408	80.007	19.993	103.782	20.026	-5.996	0.496
1248.000	704.452	80.005	19.993	103.784	20.024	-5.863	0.528
1250.000	705.483	80.006	19.994	103.790	20.024	-5.867	0.547
1252.000	706.511	80.006	19.993	103.791	20.023	-5.788	0.540
1254.000	707.529	80.006	19.994	103.791	20.025	-5.930	0.506
1256.000	708.557	80.005	19.994	103.779	20.026	-5.988	0.501
1258.000	709.566	80.006	19.995	103.784	20.024	-5.840	0.503
1260.000	710.633	80.006	19.994	103.788	20.025	-5.901	0.514
1262.000	711.600	80.008	19.994	103.784	20.026	-5.975	0.482
1264.000	712.661	80.008	19.993	103.784	20.028	-6.107	0.530
1266.000	713.663	80.007	19.993	103.786	20.028	-6.114	0.520
1268.000	714.703	80.007	19.993	103.773	20.026	-5.997	0.521
1270.000	715.740	80.007	19.993	103.783	20.029	-6.207	0.530
1272.000	716.808	80.007	19.994	103.790	20.029	-6.186	0.545
1274.000	717.834	80.008	19.993	103.784	20.030	-6.261	0.510
1276.000	718.810	80.007	19.993	103.780	20.029	-6.211	0.488
1278.000	719.835	80.007	19.995	103.791	20.030	-6.303	0.503
1280.000	720.862	80.006	19.993	103.785	20.030	-6.294	0.536
1282.000	721.835	80.006	19.994	103.774	20.029	-6.202	0.459
1284.000	722.837	80.006	19.994	103.775	20.031	-6.349	0.486
1286.000	723.871	80.005	19.993	103.786	20.031	-6.338	0.519
1288.000	724.857	80.006	19.994	103.776	20.030	-6.277	0.515
1290.000	725.867	80.008	19.993	103.775	20.030	-6.283	0.523
1292.000	726.840	80.008	19.993	103.771	20.032	-6.422	0.509
1294.000	727.832	80.009	19.993	103.766	20.031	-6.331	0.493
1296.000	728.824	80.008	19.993	103.774	20.030	-6.318	0.491
1298.000	729.832	80.007	19.993	103.780	20.028	-6.134	0.511
1300.000	730.821	80.007	19.993	103.774	20.026	-5.990	0.501
1302.000	731.855	80.009	19.992	103.787	20.028	-6.107	0.498
1304.000	732.792	80.007	19.993	103.785	20.029	-6.224	0.500
1306.000	733.812	80.008	19.993	103.785	20.026	-5.984	0.490
1308.000	734.835	80.007	19.993	103.774	20.025	-5.895	0.513
1310.000	735.825	80.007	19.993	103.788	20.023	-5.797	0.503
1312.001	736.826	80.005	19.994	103.773	20.024	-5.845	0.514
1314.000	737.779	80.007	19.994	103.762	20.024	-5.874	0.498
1316.000	738.770	80.007	19.994	103.768	20.023	-5.788	0.479
1318.000	739.746	80.008	19.994	103.781	20.024	-5.858	0.470
1320.000	740.750	80.010	19.994	103.778	20.025	-5.925	0.490
1322.000	741.762	80.008	19.993	103.764	20.021	-5.656	0.505
1324.000	742.689	80.009	19.994	103.759	20.027	-6.095	0.466
1325.500	743.471	80.009	19.994	103.776	20.028	-6.119	0.547