File: 01_Data/Black_PMMA/STA/N2/10K_min/Black_PMMA_STA_N2_10KData_220211_R2.csv
##Temp./Â°C,Time/min,Mass(subtr.2)/%,DSC(subtr.2)/(mW/mg),Sensit./(uV/mW)
49.805,10.01,99.33844,0.0008915217,1.0751
50.305,10.68167,99.3099,0.03069256,1.07484
50.805,10.85817,99.2988,0.05224886,1.07458
51.305,10.98813,99.31429,0.06839439,1.07432
51.805,11.09613,99.29258,0.08464206,1.07406
52.305,11.19183,99.25066,0.09831666,1.0738
52.805,11.27849,99.29338,0.1112,1.07354
53.305,11.3598,99.30821,0.12055,1.07328
53.805,11.43666,99.31098,0.13042,1.07302
54.305,11.51012,99.3027,0.13652,1.07276
54.805,11.58034,99.30587,0.14714,1.0725
55.305,11.64828,99.31862,0.15383,1.07224
55.805,11.71395,99.3065,0.15916,1.07198
56.305,11.77825,99.31379,0.16619,1.07172
56.805,11.84132,99.3455,0.17113,1.07146
57.305,11.9034,99.30619,0.17686,1.0712
57.805,11.96485,99.33934,0.18311,1.07094
58.305,12.02491,99.32424,0.18339,1.07068
58.805,12.08414,99.30972,0.19043,1.07042
59.305,12.1426,99.29262,0.19222,1.07016
59.805,12.20076,99.26696,0.19357,1.0699
60.305,12.25833,99.2674,0.19925,1.06964
60.805,12.31559,99.2553,0.20001,1.06938
61.305,12.37251,99.27238,0.20355,1.06912
61.805,12.42867,99.2584,0.20725,1.06886
62.305,12.48443,99.27019,0.20763,1.0686
62.805,12.54007,99.2724,0.2094,1.06834
63.305,12.5957,99.26581,0.21278,1.06808
63.805,12.65087,99.28186,0.21433,1.06782
64.305,12.70681,99.243,0.21695,1.06756
64.805,12.76213,99.25891,0.21914,1.0673
65.305,12.8172,99.2416,0.21925,1.06704
65.805,12.87227,99.2393,0.22196,1.06678
66.305,12.92658,99.2727,0.22253,1.06652
66.805,12.98063,99.23975,0.22327,1.06626
67.305,13.03483,99.2723,0.22491,1.066
67.805,13.08892,99.30587,0.22697,1.06574
68.305,13.14294,99.2782,0.22733,1.06548
68.805,13.19697,99.30144,0.22914,1.06522
69.305,13.2507,99.2724,0.23083,1.06496
69.805,13.30414,99.2735,0.23071,1.06471
70.305,13.3574,99.2728,0.23406,1.06445
70.805,13.41075,99.28113,0.23422,1.06419
71.305,13.4642,99.27263,0.23522,1.06393
71.805,13.5174,99.27257,0.23601,1.06367
72.305,13.57054,99.24861,0.23669,1.06341
72.805,13.6233,99.27238,0.23984,1.06315
73.305,13.67595,99.22909,0.24204,1.06289
73.805,13.7285,99.24387,0.2435,1.06263
74.305,13.7812,99.2334,0.24285,1.06238
74.805,13.83394,99.268,0.24374,1.06212
75.305,13.88655,99.2431,0.24453,1.06186
75.805,13.939,99.25262,0.24762,1.0616
76.305,13.99151,99.23391,0.24603,1.06134
76.805,14.04372,99.21594,0.24824,1.06108
77.305,14.09574,99.235,0.2491,1.06082
77.805,14.1475,99.234,0.25199,1.06057
78.305,14.1991,99.23385,0.25279,1.06031
78.805,14.2509,99.23366,0.25318,1.06005
79.305,14.30269,99.20137,0.25134,1.05979
79.805,14.35476,99.2193,0.25466,1.05953
80.305,14.40637,99.23396,0.25475,1.05927
80.805,14.45785,99.20065,0.25543,1.05902
81.305,14.5093,99.1918,0.25674,1.05876
81.805,14.56061,99.20075,0.25425,1.0585
82.305,14.612,99.20089,0.2555,1.05824
82.805,14.6633,99.23358,0.25458,1.05798
83.305,14.71449,99.21382,0.25432,1.05773
83.805,14.76542,99.20075,0.25358,1.05747
84.305,14.8164,99.22614,0.2535,1.05721
84.805,14.8672,99.21602,0.25345,1.05695
85.305,14.91784,99.20076,0.25507,1.05669
85.805,14.96871,99.20008,0.25329,1.05644
86.305,15.01932,99.2007,0.25215,1.05618
86.805,15.06981,99.16761,0.25071,1.05592
87.305,15.1202,99.20067,0.2504,1.05566
87.805,15.1706,99.20075,0.2525,1.0554
88.305,15.22079,99.21082,0.2509,1.05515
88.805,15.27094,99.23415,0.2516,1.05489
89.305,15.3213,99.2007,0.25244,1.05463
89.805,15.3715,99.20075,0.25204,1.05437
90.305,15.4217,99.2007,0.25412,1.05412
90.805,15.47205,99.22997,0.2535,1.05386
91.305,15.5223,99.20076,0.25265,1.0536
91.805,15.5723,99.2011,0.25417,1.05335
92.305,15.62227,99.2315,0.25274,1.05309
92.805,15.67205,99.2008,0.25281,1.05283
93.305,15.7217,99.20075,0.25445,1.05257
93.805,15.7718,99.20119,0.25345,1.05232
94.305,15.82117,99.16781,0.25536,1.05206
94.805,15.871,99.19251,0.25567,1.0518
95.305,15.92106,99.1927,0.25919,1.05154
95.805,15.9704,99.15969,0.25818,1.05129
96.305,16.0204,99.16753,0.25935,1.05103
96.805,16.07035,99.2012,0.26003,1.05077
97.305,16.12019,99.20075,0.2598,1.05052
97.805,16.17014,99.16739,0.25849,1.05026
98.305,16.22031,99.16759,0.26067,1.05
98.805,16.26965,99.16749,0.26238,1.04975
99.305,16.31899,99.16794,0.2625,1.04949
99.805,16.36821,99.1681,0.26373,1.04923
100.305,16.41747,99.14291,0.26429,1.04898
100.805,16.46676,99.14295,0.26656,1.04872
101.305,16.5163,99.13401,0.26548,1.04846
101.805,16.56567,99.14493,0.26404,1.04821
102.305,16.61501,99.13439,0.26656,1.04795
102.805,16.6644,99.13234,0.26834,1.04769
103.305,16.71368,99.16328,0.26838,1.04744
103.805,16.7629,99.1347,0.26934,1.04718
104.305,16.81214,99.13467,0.26897,1.04692
104.805,16.8612,99.13452,0.2729,1.04667
105.305,16.91029,99.10152,0.27334,1.04641
105.805,16.95956,99.1015,0.27523,1.04616
106.305,17.00879,99.13502,0.2747,1.0459
106.805,17.05798,99.10128,0.2761,1.04564
107.305,17.10714,99.13431,0.27699,1.04539
107.805,17.15619,99.1258,0.27964,1.04513
108.305,17.20513,99.1018,0.27969,1.04488
108.805,17.25412,99.134,0.27976,1.04462
109.305,17.30312,99.13427,0.28172,1.04436
109.805,17.3521,99.1019,0.27985,1.04411
110.305,17.4011,99.13465,0.283,1.04385
110.805,17.45014,99.12616,0.28194,1.0436
111.305,17.49935,99.1014,0.28772,1.04334
111.805,17.54853,99.13425,0.28816,1.04308
112.305,17.59755,99.1344,0.28843,1.04283
112.805,17.64667,99.13444,0.28781,1.04257
113.305,17.69546,99.09942,0.29123,1.04232
113.805,17.7442,99.10151,0.29259,1.04206
114.305,17.79317,99.10151,0.2949,1.04181
114.805,17.84219,99.1019,0.29438,1.04155
115.305,17.89109,99.13458,0.29726,1.04129
115.805,17.93993,99.10149,0.2985,1.04104
116.305,17.98886,99.10151,0.30156,1.04078
116.805,18.03773,99.10151,0.30101,1.04053
117.305,18.08673,99.10151,0.3032,1.04027
117.805,18.13587,99.1015,0.3043,1.04002
118.305,18.1848,99.07542,0.30573,1.03976
118.805,18.2336,99.0688,0.30951,1.03951
119.305,18.2824,99.10101,0.31259,1.03925
119.805,18.33106,99.06862,0.31333,1.039
120.305,18.3797,99.06859,0.31706,1.03874
120.805,18.42867,99.06859,0.32014,1.03849
121.305,18.47745,99.06844,0.3198,1.03823
121.805,18.52627,99.10165,0.32443,1.03798
122.305,18.57507,99.10151,0.32697,1.03772
122.805,18.62367,99.10152,0.32778,1.03747
123.305,18.67223,99.0663,0.32962,1.03721
123.805,18.72087,99.06835,0.33261,1.03696
124.305,18.76949,99.0921,0.33421,1.0367
124.805,18.81813,99.06883,0.3362,1.03645
125.305,18.86695,99.06859,0.33678,1.03619
125.805,18.9156,99.06859,0.33959,1.03594
126.305,18.9644,99.06859,0.33986,1.03568
126.805,19.01309,99.0694,0.34556,1.03543
127.305,19.06159,99.03556,0.34561,1.03517
127.805,19.11029,99.06859,0.34618,1.03492
128.305,19.1591,99.06859,0.34955,1.03466
128.805,19.20782,99.03952,0.35025,1.03441
129.305,19.25654,99.01083,0.35081,1.03415
129.805,19.3053,99.01055,0.35112,1.0339
130.305,19.35374,99.01055,0.35406,1.03364
130.805,19.40217,99.01051,0.35565,1.03339
131.305,19.45054,99.03555,0.35463,1.03314
131.805,19.499,99.03542,0.35573,1.03288
132.305,19.5475,99.01387,0.3575,1.03263
132.805,19.59606,99.0108,0.3562,1.03237
133.305,19.64454,99.0107,0.3571,1.03212
133.805,19.69291,99.045,0.35823,1.03186
134.305,19.7413,99.04281,0.36064,1.03161
134.805,19.78981,99.0024,0.35852,1.03136
135.305,19.83834,98.96936,0.35874,1.0311
135.805,19.8869,98.9725,0.36002,1.03085
136.305,19.9352,99.00231,0.36295,1.03059
136.805,19.9834,98.96809,0.36089,1.03034
137.305,20.03132,98.96935,0.36011,1.03008
137.805,20.0795,98.96935,0.36234,1.02983
138.305,20.12785,98.96939,0.36354,1.02958
138.805,20.1762,98.95227,0.36308,1.02932
139.305,20.22459,98.95273,0.36411,1.02907
139.805,20.27321,98.92025,0.36381,1.02882
140.305,20.3215,98.9196,0.36538,1.02856
140.805,20.3697,98.9196,0.36469,1.02831
141.305,20.41796,98.9196,0.36659,1.02805
141.805,20.46625,98.9196,0.36483,1.0278
142.305,20.51438,98.91959,0.36719,1.02755
142.805,20.56269,98.90494,0.36692,1.02729
143.305,20.61083,98.91957,0.36678,1.02704
143.805,20.65878,98.9196,0.3664,1.02678
144.305,20.70682,98.9196,0.36833,1.02653
144.805,20.75485,98.92102,0.37011,1.02628
145.305,20.8031,98.89469,0.37108,1.02602
145.805,20.85143,98.8947,0.37001,1.02577
146.305,20.89961,98.8947,0.37082,1.02552
146.805,20.94782,98.8862,0.37136,1.02526
147.305,20.9958,98.8783,0.37193,1.02501
147.805,21.04389,98.87839,0.37654,1.02476
148.305,21.09189,98.87839,0.37484,1.0245
148.805,21.13985,98.87839,0.37599,1.02425
149.305,21.1879,98.85428,0.37515,1.024
149.805,21.23593,98.8454,0.37586,1.02374
150.305,21.2839,98.84522,0.37611,1.02349
150.805,21.3321,98.83191,0.37931,1.02324
151.305,21.3801,98.81206,0.37927,1.02298
151.805,21.42833,98.81206,0.37927,1.02273
152.305,21.47663,98.81206,0.37914,1.02248
152.805,21.52486,98.81371,0.38127,1.02222
153.305,21.57304,98.79311,0.38032,1.02197
153.805,21.6211,98.7876,0.38354,1.02172
154.305,21.66927,98.78719,0.38269,1.02146
154.805,21.71728,98.78719,0.38336,1.02121
155.305,21.76545,98.7872,0.38345,1.02096
155.805,21.81371,98.77928,0.38509,1.0207
156.305,21.86195,98.7543,0.38443,1.02045
156.805,21.9101,98.7543,0.3865,1.0202
157.305,21.95826,98.72137,0.38941,1.01995
157.805,22.00633,98.72136,0.38945,1.01969
158.305,22.05436,98.71568,0.39105,1.01944
158.805,22.1025,98.7213,0.38985,1.01919
159.305,22.15082,98.72102,0.39438,1.01893
159.805,22.19888,98.68816,0.39294,1.01868
160.305,22.24696,98.68819,0.39317,1.01843
160.805,22.2951,98.68819,0.39657,1.01818
161.305,22.34318,98.68819,0.39624,1.01792
161.805,22.39132,98.68819,0.39975,1.01767
162.305,22.43964,98.68819,0.3998,1.01742
162.805,22.48753,98.68166,0.40305,1.01716
163.305,22.5354,98.67984,0.40399,1.01691
163.805,22.58349,98.63283,0.40693,1.01666
164.305,22.63154,98.62185,0.40944,1.01641
164.805,22.67964,98.62186,0.41069,1.01615
165.305,22.72769,98.61752,0.41199,1.0159
165.805,22.77585,98.5891,0.41437,1.01565
166.305,22.8238,98.55585,0.41557,1.0154
166.805,22.87177,98.55575,0.41628,1.01514
167.305,22.92,98.52287,0.41988,1.01489
167.805,22.96805,98.48963,0.42213,1.01464
168.305,23.016,98.4897,0.42312,1.01439
168.805,23.06407,98.48845,0.42662,1.01413
169.305,23.11212,98.51445,0.4265,1.01388
169.805,23.1601,98.48143,0.43044,1.01363
170.305,23.20806,98.48139,0.43192,1.01338
170.805,23.25594,98.4532,0.4323,1.01312
171.305,23.30387,98.4157,0.43712,1.01287
171.805,23.35187,98.41539,0.43812,1.01262
172.305,23.3998,98.38218,0.44006,1.01237
172.805,23.44802,98.38216,0.44129,1.01211
173.305,23.49599,98.3815,0.44478,1.01186
173.805,23.544,98.34904,0.44398,1.01161
174.305,23.5919,98.34875,0.44811,1.01136
174.805,23.63991,98.31608,0.4478,1.0111
175.305,23.6879,98.3114,0.45109,1.01085
175.805,23.7361,98.28296,0.45096,1.0106
176.305,23.78426,98.2735,0.45234,1.01035
176.805,23.83219,98.24848,0.45686,1.0101
177.305,23.88019,98.24175,0.45882,1.00984
177.805,23.92817,98.19544,0.45867,1.00959
178.305,23.97607,98.18351,0.46195,1.00934
178.805,24.02405,98.16025,0.46364,1.00909
179.305,24.07199,98.11777,0.46655,1.00883
179.805,24.11988,98.0847,0.46623,1.00858
180.305,24.1679,98.06487,0.46807,1.00833
180.805,24.21595,98.0515,0.46929,1.00808
181.305,24.26389,98.01897,0.46843,1.00783
181.805,24.31182,97.98569,0.47062,1.00757
182.305,24.35959,97.98529,0.46816,1.00732
182.805,24.4075,97.9435,0.47301,1.00707
183.305,24.45549,97.91237,0.47336,1.00682
183.805,24.50346,97.8781,0.47093,1.00657
184.305,24.5515,97.85276,0.47266,1.00631
184.805,24.59936,97.8199,0.47471,1.00606
185.305,24.6472,97.78321,0.47365,1.00581
185.805,24.69494,97.76592,0.47442,1.00556
186.305,24.7427,97.76738,0.47469,1.00531
186.805,24.7907,97.71677,0.47221,1.00505
187.305,24.83869,97.66983,0.47198,1.0048
187.805,24.88682,97.6519,0.47094,1.00455
188.305,24.93488,97.61926,0.47184,1.0043
188.805,24.98292,97.58655,0.47147,1.00405
189.305,25.03098,97.54867,0.46963,1.00379
189.805,25.07895,97.5164,0.4699,1.00354
190.305,25.1268,97.49053,0.46798,1.00329
190.805,25.17499,97.4723,0.46761,1.00304
191.305,25.223,97.43251,0.46651,1.00279
191.805,25.271,97.39843,0.46399,1.00253
192.305,25.3191,97.36542,0.46314,1.00228
192.805,25.36719,97.33527,0.46267,1.00203
193.305,25.41512,97.30768,0.46082,1.00178
193.805,25.4632,97.26603,0.45964,1.00153
194.305,25.51085,97.23321,0.45764,1.00127
194.805,25.55878,97.20111,0.45809,1.00102
195.305,25.60674,97.20009,0.45537,1.00077
195.805,25.65462,97.16551,0.45467,1.00052
196.305,25.70265,97.13753,0.45455,1.00027
196.805,25.75049,97.13364,0.45637,1.00001
197.305,25.79834,97.10034,0.45565,0.99976
197.805,25.8464,97.08076,0.45452,0.99951
198.305,25.89454,97.06671,0.45055,0.99926
198.805,25.94254,97.03222,0.45268,0.99901
199.305,25.99042,97.02531,0.44985,0.99875
199.805,26.03839,96.9687,0.4514,0.9985
200.305,26.08616,96.9599,0.4522,0.99825
200.805,26.13397,96.91837,0.45067,0.998
201.305,26.18178,96.8858,0.4497,0.99775
201.805,26.2295,96.86154,0.4542,0.9975
202.305,26.2774,96.85464,0.45271,0.99724
202.805,26.3253,96.83027,0.45329,0.99699
203.305,26.3733,96.81883,0.45443,0.99674
203.805,26.4214,96.78671,0.45333,0.99649
204.305,26.4693,96.78635,0.45737,0.99624
204.805,26.51714,96.74494,0.45805,0.99598
205.305,26.565,96.70535,0.45799,0.99573
205.805,26.61288,96.7045,0.46004,0.99548
206.305,26.6603,96.67084,0.4601,0.99523
206.805,26.7079,96.67101,0.46261,0.99498
207.305,26.7558,96.63754,0.45957,0.99472
207.805,26.8037,96.63956,0.46142,0.99447
208.305,26.85148,96.57053,0.46204,0.99422
208.805,26.8999,96.53845,0.46147,0.99397
209.305,26.9477,96.4855,0.4625,0.99372
209.805,26.99545,96.4452,0.46416,0.99346
210.305,27.0434,96.44034,0.4636,0.99321
210.805,27.09119,96.40621,0.46796,0.99296
211.305,27.13894,96.41456,0.46552,0.99271
211.805,27.1869,96.38162,0.46527,0.99246
212.305,27.2349,96.37994,0.46474,0.9922
212.805,27.28258,96.34851,0.46451,0.99195
213.305,27.3305,96.31551,0.46427,0.9917
213.805,27.3782,96.31533,0.46141,0.99145
214.305,27.42597,96.33184,0.46231,0.9912
214.805,27.47356,96.29852,0.46065,0.99095
215.305,27.52125,96.26586,0.45954,0.99069
215.805,27.5692,96.2658,0.45645,0.99044
216.305,27.6169,96.26578,0.45577,0.99019
216.805,27.6647,96.23329,0.45551,0.98994
217.305,27.7125,96.2333,0.45338,0.98969
217.805,27.7601,96.19974,0.44944,0.98943
218.305,27.8078,96.17081,0.44619,0.98918
218.805,27.85567,96.16623,0.44534,0.98893
219.305,27.90343,96.13377,0.44574,0.98868
219.805,27.95117,96.13334,0.44167,0.98842
220.305,27.9989,96.06866,0.44114,0.98817
220.805,28.0467,96.06725,0.43789,0.98792
221.305,28.0945,96.0339,0.43903,0.98767
221.805,28.1423,96.06846,0.43594,0.98742
222.305,28.19,96.06734,0.434,0.98716
222.805,28.23763,96.03876,0.4328,0.98691
223.305,28.2854,96.0343,0.43058,0.98666
223.805,28.3332,96.0008,0.43152,0.98641
224.305,28.38083,96.0003,0.42897,0.98616
224.805,28.4287,95.96807,0.42764,0.9859
225.305,28.476,95.96808,0.42719,0.98565
225.805,28.52352,95.9755,0.42775,0.9854
226.305,28.5711,96.001,0.42646,0.98515
226.805,28.61887,96.001,0.42646,0.98489
227.305,28.6667,96.001,0.42597,0.98464
227.805,28.7149,96.00109,0.42616,0.98439
228.305,28.76267,95.96688,0.42275,0.98414
228.805,28.81035,95.96809,0.42529,0.98388
229.305,28.858,95.96809,0.42596,0.98363
229.805,28.9057,95.96809,0.42259,0.98338
230.305,28.9534,95.96809,0.42361,0.98313
230.805,29.0011,95.96809,0.42237,0.98288
231.305,29.04894,95.96138,0.42397,0.98262
231.805,29.09664,95.94301,0.42207,0.98237
232.305,29.14428,95.93511,0.42336,0.98212
232.805,29.1921,95.93518,0.42416,0.98187
233.305,29.23963,95.93567,0.42302,0.98161
233.805,29.2872,95.90116,0.42452,0.98136
234.305,29.33507,95.91029,0.42261,0.98111
234.805,29.3829,95.9103,0.4247,0.98086
235.305,29.43054,95.9103,0.42305,0.9806
235.805,29.47857,95.9103,0.42333,0.98035
236.305,29.5263,95.93554,0.42244,0.9801
236.805,29.57418,95.94455,0.42452,0.97984
237.305,29.62217,95.91022,0.42183,0.97959
237.805,29.67,95.9103,0.42474,0.97934
238.305,29.71779,95.87656,0.42402,0.97909
238.805,29.76575,95.87714,0.4245,0.97883
239.305,29.8134,95.87714,0.42511,0.97858
239.805,29.8612,95.87714,0.42655,0.97833
240.305,29.909,95.8771,0.42726,0.97808
240.805,29.95672,95.84779,0.42744,0.97782
241.305,30.00453,95.83825,0.42841,0.97757
241.805,30.0525,95.81108,0.42864,0.97732
242.305,30.10053,95.81101,0.42934,0.97706
242.805,30.14852,95.7946,0.42794,0.97681
243.305,30.19645,95.7945,0.43075,0.97656
243.805,30.24442,95.7945,0.43124,0.9763
244.305,30.2923,95.79439,0.43185,0.97605
244.805,30.34017,95.7779,0.42901,0.9758
245.305,30.38812,95.77687,0.4307,0.97555
245.805,30.43589,95.8109,0.43008,0.97529
246.305,30.48375,95.80638,0.43347,0.97504
246.805,30.5315,95.7779,0.43507,0.97479
247.305,30.5793,95.77789,0.43445,0.97453
247.805,30.62712,95.77806,0.43533,0.97428
248.305,30.6749,95.7448,0.43703,0.97403
248.805,30.72273,95.74498,0.4373,0.97377
249.305,30.7706,95.744,0.43817,0.97352
249.805,30.8184,95.71181,0.43928,0.97327
250.305,30.8662,95.71181,0.4394,0.97301
250.805,30.9139,95.71181,0.44121,0.97276
251.305,30.96172,95.71181,0.44261,0.97251
251.805,31.00954,95.71181,0.4431,0.97225
252.305,31.0574,95.71181,0.44293,0.972
252.805,31.1053,95.68899,0.44352,0.97175
253.305,31.1531,95.65441,0.44546,0.97149
253.805,31.20099,95.64571,0.44725,0.97124
254.305,31.2488,95.61264,0.45203,0.97098
254.805,31.2965,95.61255,0.45456,0.97073
255.305,31.34413,95.62173,0.45756,0.97048
255.805,31.3917,95.64573,0.45962,0.97022
256.305,31.4395,95.64573,0.4618,0.96997
256.805,31.4872,95.64574,0.46369,0.96972
257.305,31.53485,95.63936,0.46518,0.96946
257.805,31.5826,95.61259,0.46866,0.96921
258.305,31.6303,95.61233,0.46588,0.96895
258.805,31.6779,95.57936,0.46968,0.9687
259.305,31.72575,95.5794,0.47198,0.96845
259.805,31.7733,95.5794,0.47295,0.96819
260.305,31.8208,95.57935,0.47463,0.96794
260.805,31.86828,95.54606,0.47469,0.96768
261.305,31.91587,95.54649,0.47688,0.96743
261.805,31.9635,95.54391,0.48113,0.96717
262.305,32.01144,95.54652,0.48036,0.96692
262.805,32.0593,95.54648,0.48065,0.96667
263.305,32.10698,95.55121,0.48495,0.96641
263.805,32.1547,95.48013,0.48639,0.96616
264.305,32.20251,95.47751,0.4869,0.9659
264.805,32.25013,95.4472,0.48759,0.96565
265.305,32.29784,95.44833,0.48944,0.96539
265.805,32.34558,95.41399,0.49113,0.96514
266.305,32.39328,95.41404,0.49232,0.96488
266.805,32.44089,95.3772,0.49358,0.96463
267.305,32.4886,95.348,0.49481,0.96437
267.805,32.5364,95.34533,0.49516,0.96412
268.305,32.58421,95.31512,0.49769,0.96387
268.805,32.63203,95.3151,0.49872,0.96361
269.305,32.67988,95.29875,0.49905,0.96336
269.805,32.72759,95.28192,0.50025,0.9631
270.305,32.77532,95.28421,0.50191,0.96285
270.805,32.82291,95.24866,0.50249,0.96259
271.305,32.8707,95.24031,0.50628,0.96234
271.805,32.91871,95.21858,0.50609,0.96208
272.305,32.96652,95.20721,0.5065,0.96182
272.805,33.0144,95.14969,0.50851,0.96157
273.305,33.06214,95.14143,0.5077,0.96131
273.805,33.10991,95.10826,0.50981,0.96106
274.305,33.15765,95.10845,0.51313,0.9608
274.805,33.2053,95.07497,0.51416,0.96055
275.305,33.25311,95.05926,0.51621,0.96029
275.805,33.30128,95.04,0.51523,0.96004
276.305,33.34942,95.0098,0.51789,0.95978
276.805,33.3977,94.94239,0.51884,0.95953
277.305,33.44592,94.929,0.52098,0.95927
277.805,33.49402,94.87139,0.52375,0.95901
278.305,33.54183,94.846,0.52546,0.95876
278.805,33.5899,94.82459,0.52819,0.9585
279.305,33.638,94.8018,0.53113,0.95825
279.805,33.68592,94.79143,0.53613,0.95799
280.305,33.73382,94.76566,0.53579,0.95773
280.805,33.78175,94.73318,0.53428,0.95748
281.305,33.82974,94.7009,0.53812,0.95722
281.805,33.87767,94.64829,0.54101,0.95697
282.305,33.92581,94.60212,0.54348,0.95671
282.805,33.9739,94.56761,0.54443,0.95645
283.305,34.02191,94.5663,0.54483,0.9562
283.805,34.07,94.53241,0.54724,0.95594
284.305,34.1181,94.50277,0.54975,0.95568
284.805,34.1661,94.47444,0.55335,0.95543
285.305,34.21416,94.43378,0.55711,0.95517
285.805,34.26212,94.39144,0.55781,0.95491
286.305,34.3102,94.35011,0.56006,0.95466
286.805,34.35815,94.3129,0.5646,0.9544
287.305,34.40623,94.2321,0.56425,0.95414
287.805,34.45425,94.19278,0.56655,0.95389
288.305,34.50241,94.1546,0.57011,0.95363
288.805,34.5505,94.1122,0.57202,0.95337
289.305,34.59836,94.08742,0.57616,0.95311
289.805,34.6462,94.03645,0.57656,0.95286
290.305,34.69402,93.9754,0.57862,0.9526
290.805,34.74197,93.94207,0.58068,0.95234
291.305,34.78982,93.9093,0.58369,0.95209
291.805,34.83778,93.85446,0.58406,0.95183
292.305,34.8855,93.80558,0.58562,0.95157
292.805,34.93314,93.76391,0.58656,0.95131
293.305,34.98106,93.70018,0.58855,0.95106
293.805,35.029,93.6391,0.59284,0.9508
294.305,35.0771,93.59731,0.59334,0.95054
294.805,35.12536,93.55395,0.59587,0.95028
295.305,35.17357,93.4896,0.59549,0.95002
295.805,35.22146,93.41416,0.59708,0.94977
296.305,35.26923,93.39358,0.5966,0.94951
296.805,35.31713,93.32122,0.60169,0.94925
297.305,35.36495,93.29264,0.6036,0.94899
297.805,35.41284,93.24279,0.60582,0.94873
298.305,35.4609,93.2043,0.60633,0.94848
298.805,35.50898,93.1436,0.60779,0.94822
299.305,35.55707,93.10476,0.60908,0.94796
299.805,35.60525,93.01115,0.61065,0.9477
300.305,35.65315,92.95531,0.61186,0.94744
300.805,35.70134,92.91575,0.61178,0.94718
301.305,35.74943,92.8552,0.61191,0.94692
301.805,35.79742,92.80122,0.61365,0.94666
302.305,35.84553,92.72234,0.61442,0.94641
302.805,35.89362,92.65061,0.61666,0.94615
303.305,35.94171,92.59185,0.6155,0.94589
303.805,35.9897,92.51796,0.61214,0.94563
304.305,36.03774,92.48176,0.6129,0.94537
304.805,36.08578,92.4405,0.61155,0.94511
305.305,36.13347,92.36605,0.60764,0.94485
305.805,36.18125,92.2882,0.6123,0.94459
306.305,36.22903,92.2007,0.60931,0.94433
306.805,36.27668,92.1251,0.61052,0.94407
307.305,36.3247,92.05277,0.61074,0.94381
307.805,36.3727,91.97001,0.61345,0.94355
308.305,36.42078,91.92804,0.61605,0.94329
308.805,36.46877,91.84905,0.62044,0.94303
309.305,36.51681,91.7689,0.62322,0.94277
309.805,36.56493,91.73139,0.62876,0.94251
310.305,36.61286,91.62249,0.63382,0.94225
310.805,36.66095,91.53489,0.64071,0.94199
311.305,36.70901,91.44654,0.64683,0.94173
311.805,36.757,91.3982,0.6514,0.94147
312.305,36.805,91.33243,0.65665,0.94121
312.805,36.85315,91.2551,0.66618,0.94095
313.305,36.90136,91.19346,0.67331,0.94069
313.805,36.9499,91.11235,0.68019,0.94043
314.305,36.99877,91.00894,0.69007,0.94017
314.805,37.04746,90.87018,0.69515,0.93991
315.305,37.09596,90.76745,0.7042,0.93965
315.805,37.14418,90.66844,0.71328,0.93939
316.305,37.19235,90.55545,0.72365,0.93912
316.805,37.24049,90.42739,0.72781,0.93886
317.305,37.28864,90.32641,0.73697,0.9386
317.805,37.3367,90.22072,0.75002,0.93834
318.305,37.38478,90.11775,0.75769,0.93808
318.805,37.43287,89.98605,0.76792,0.93782
319.305,37.4809,89.89171,0.7787,0.93756
319.805,37.5293,89.77733,0.78818,0.93729
320.305,37.5777,89.6716,0.79878,0.93703
320.805,37.62617,89.53182,0.81052,0.93677
321.305,37.67463,89.38254,0.82286,0.93651
321.805,37.7231,89.24471,0.83382,0.93625
322.305,37.7715,89.08551,0.84493,0.93598
322.805,37.81977,88.97928,0.85768,0.93572
323.305,37.8682,88.8092,0.87354,0.93546
323.805,37.9165,88.64267,0.88698,0.9352
324.305,37.96492,88.45707,0.90067,0.93493
324.805,38.01321,88.32903,0.91228,0.93467
325.305,38.06158,88.15802,0.93043,0.93441
325.805,38.10998,87.97874,0.94272,0.93415
326.305,38.1584,87.84436,0.96044,0.93388
326.805,38.2069,87.63789,0.97887,0.93362
327.305,38.25548,87.40396,0.99543,0.93336
327.805,38.30388,87.20241,1.01484,0.93309
328.305,38.35228,87.03028,1.03239,0.93283
328.805,38.40056,86.8219,1.04656,0.93257
329.305,38.4489,86.60731,1.06808,0.9323
329.805,38.49725,86.37891,1.08927,0.93204
330.305,38.5456,86.14574,1.10747,0.93178
330.805,38.59406,85.90133,1.12864,0.93151
331.305,38.64248,85.65621,1.15063,0.93125
331.805,38.69102,85.3892,1.17167,0.93099
332.305,38.7395,85.11842,1.19435,0.93072
332.805,38.78799,84.8361,1.21785,0.93046
333.305,38.83632,84.56355,1.24201,0.93019
333.805,38.8846,84.27707,1.26702,0.92993
334.305,38.93305,83.97515,1.29155,0.92966
334.805,38.98154,83.67256,1.31675,0.9294
335.305,39.0301,83.3339,1.3473,0.92913
335.805,39.0788,82.9747,1.37191,0.92887
336.305,39.12724,82.64635,1.3994,0.9286
336.805,39.17576,82.31562,1.42861,0.92834
337.305,39.2239,81.94928,1.45535,0.92807
337.805,39.27202,81.60517,1.48516,0.92781
338.305,39.32031,81.19924,1.51554,0.92754
338.805,39.3686,80.84178,1.54337,0.92728
339.305,39.41702,80.44803,1.5766,0.92701
339.805,39.4659,80.0354,1.60879,0.92675
340.305,39.51486,79.57079,1.63901,0.92648
340.805,39.56394,79.13395,1.67344,0.92622
341.305,39.61314,78.68522,1.70709,0.92595
341.805,39.66211,78.25652,1.74161,0.92568
342.305,39.71095,77.7834,1.77669,0.92542
342.805,39.75966,77.23979,1.81129,0.92515
343.305,39.8085,76.76825,1.8483,0.92489
343.805,39.85733,76.3,1.8807,0.92462
344.305,39.90609,75.76256,1.91635,0.92435
344.805,39.95497,75.19524,1.94992,0.92409
345.305,40.00339,74.63627,1.98397,0.92382
345.805,40.05223,74.10248,2.0239,0.92355
346.305,40.10113,73.53577,2.06039,0.92329
346.805,40.15013,72.9212,2.09561,0.92302
347.305,40.1993,72.29343,2.12911,0.92275
347.805,40.24845,71.68115,2.16805,0.92248
348.305,40.2973,71.05621,2.20468,0.92222
348.805,40.34616,70.4302,2.24014,0.92195
349.305,40.3949,69.752,2.2744,0.92168
349.805,40.44377,69.09043,2.30921,0.92141
350.305,40.49273,68.4413,2.34573,0.92115
350.805,40.5415,67.78429,2.38057,0.92088
351.305,40.59039,67.04625,2.41263,0.92061
351.805,40.63939,66.3099,2.44579,0.92034
352.305,40.68826,65.5938,2.48016,0.92007
352.805,40.73708,64.88314,2.51286,0.9198
353.305,40.78607,64.14435,2.54352,0.91954
353.805,40.8348,63.31135,2.57488,0.91927
354.305,40.88371,62.5335,2.60415,0.919
354.805,40.93264,61.812,2.63318,0.91873
355.305,40.98149,60.98986,2.66366,0.91846
355.805,41.0306,60.1745,2.68571,0.91819
356.305,41.07967,59.29784,2.71259,0.91792
356.805,41.1287,58.4594,2.73593,0.91765
357.305,41.17739,57.64176,2.76026,0.91738
357.805,41.22615,56.8133,2.77985,0.91711
358.305,41.27491,55.92063,2.79921,0.91684
358.805,41.3238,55.0322,2.81817,0.91657
359.305,41.37273,54.19871,2.83315,0.9163
359.805,41.4218,53.32996,2.84777,0.91603
360.305,41.4707,52.44842,2.86383,0.91576
360.805,41.51957,51.5287,2.87401,0.91549
361.305,41.56837,50.62707,2.87925,0.91522
361.805,41.6172,49.7432,2.88467,0.91495
362.305,41.6659,48.8548,2.88282,0.91468
362.805,41.7145,47.912,2.88399,0.91441
363.305,41.76311,46.99693,2.88041,0.91414
363.805,41.8118,46.15285,2.87219,0.91387
364.305,41.8604,45.2759,2.87174,0.9136
364.805,41.90918,44.35597,2.86387,0.91333
365.305,41.95767,43.41377,2.83737,0.91306
365.805,42.00613,42.54564,2.81698,0.91278
366.305,42.05473,41.67584,2.8139,0.91251
366.805,42.1034,40.74629,2.85174,0.91224
367.305,42.15215,39.80777,2.83646,0.91197
367.805,42.201,38.88382,2.82132,0.9117
368.305,42.24955,38.03423,2.81621,0.91142
368.805,42.29807,37.16146,2.79996,0.91115
369.305,42.34663,36.25092,2.79185,0.91088
369.805,42.39523,35.33409,2.80225,0.91061
370.305,42.44379,34.45346,2.77297,0.91033
370.805,42.49235,33.6112,2.77574,0.91006
371.305,42.54092,32.72508,2.74727,0.90979
371.805,42.58927,31.855,2.73739,0.90951
372.305,42.63771,30.96143,2.70261,0.90924
372.805,42.6862,30.1101,2.68537,0.90897
373.305,42.7344,29.2986,2.66171,0.90869
373.805,42.78288,28.45845,2.63067,0.90842
374.305,42.83122,27.59569,2.58955,0.90815
374.805,42.8795,26.72547,2.55673,0.90787
375.305,42.92781,25.94414,2.52495,0.9076
375.805,42.9761,25.14283,2.48689,0.90733
376.305,43.0244,24.36903,2.4517,0.90705
376.805,43.0727,23.56803,2.4143,0.90678
377.305,43.12108,22.7772,2.37424,0.9065
377.805,43.16972,22.06865,2.3288,0.90623
378.305,43.21796,21.35047,2.29649,0.90595
378.805,43.26614,20.6216,2.25819,0.90568
379.305,43.31432,19.8248,2.2153,0.9054
379.805,43.36231,19.11198,2.17341,0.90513
380.305,43.41049,18.44041,2.13134,0.90485
380.805,43.45855,17.76584,2.08592,0.90458
381.305,43.50663,17.09371,2.03879,0.9043
381.805,43.5548,16.43117,1.9955,0.90402
382.305,43.603,15.75295,1.9475,0.90375
382.805,43.65108,15.1415,1.90598,0.90347
383.305,43.69925,14.55295,1.86227,0.9032
383.805,43.74746,13.98205,1.8149,0.90292
384.305,43.79574,13.3493,1.77563,0.90264
384.805,43.84389,12.77057,1.7303,0.90237
385.305,43.8921,12.24371,1.68544,0.90209
385.805,43.94027,11.69164,1.64035,0.90181
386.305,43.98847,11.15601,1.59249,0.90154
386.805,44.03669,10.63013,1.55002,0.90126
387.305,44.0848,10.12268,1.5028,0.90098
387.805,44.13285,9.65873,1.45876,0.9007
388.305,44.18091,9.16743,1.41582,0.90043
388.805,44.22893,8.70438,1.37,0.90015
389.305,44.27704,8.27188,1.32021,0.89987
389.805,44.32528,7.8247,1.28053,0.89959
390.305,44.37343,7.42914,1.23748,0.89931
390.805,44.42174,7.04544,1.19674,0.89904
391.305,44.47,6.6561,1.15812,0.89876
391.805,44.51822,6.23901,1.11901,0.89848
392.305,44.56642,5.88656,1.07643,0.8982
392.805,44.61456,5.51847,1.03711,0.89792
393.305,44.66268,5.19683,1.00855,0.89764
393.805,44.71082,4.86482,0.97161,0.89736
394.305,44.7587,4.53573,0.93585,0.89708
394.805,44.80665,4.22214,0.9002,0.8968
395.305,44.85479,3.93894,0.86685,0.89652
395.805,44.90292,3.68959,0.83366,0.89624
396.305,44.95146,3.40592,0.80154,0.89596
396.805,45.00026,3.11356,0.77068,0.89568
397.305,45.04872,2.86661,0.73668,0.8954
397.805,45.09713,2.61996,0.70958,0.89512
398.305,45.1456,2.36986,0.68247,0.89484
398.805,45.19396,2.12685,0.65048,0.89456
399.305,45.24237,1.88683,0.62421,0.89428
399.805,45.29076,1.68819,0.59803,0.894
400.305,45.3392,1.46356,0.57395,0.89372
400.805,45.3876,1.3158,0.54636,0.89344
401.305,45.43605,1.11576,0.52339,0.89316
401.805,45.4846,0.94052,0.49829,0.89287
402.305,45.53309,0.78655,0.47438,0.89259
402.805,45.58167,0.64431,0.45154,0.89231
403.305,45.63017,0.51581,0.43274,0.89203
403.805,45.6787,0.34557,0.4104,0.89175
404.305,45.7272,0.18897,0.39218,0.89146
404.805,45.7758,0.07686348,0.37423,0.89118
405.305,45.82434,-0.01635746,0.35424,0.8909
405.805,45.87301,-0.16334,0.33737,0.89062
406.305,45.92151,-0.25427,0.31959,0.89033
406.805,45.97006,-0.34629,0.30345,0.89005
407.305,46.01867,-0.45597,0.2883,0.88977
407.805,46.06731,-0.57688,0.27428,0.88948
408.305,46.116,-0.64901,0.26055,0.8892
408.805,46.16472,-0.75964,0.24742,0.88892
409.305,46.21335,-0.87504,0.23409,0.88863
409.805,46.262,-0.91607,0.21939,0.88835
410.305,46.31067,-0.99548,0.21134,0.88806
410.805,46.35935,-1.04907,0.20004,0.88778
411.305,46.40801,-1.09083,0.18881,0.88749
411.805,46.45675,-1.13438,0.17757,0.88721
412.305,46.50538,-1.21297,0.17049,0.88692
412.805,46.5541,-1.26273,0.16012,0.88664
413.305,46.60293,-1.33637,0.15106,0.88635
413.805,46.65163,-1.40497,0.14263,0.88607
414.305,46.70033,-1.45145,0.13713,0.88578
414.805,46.74917,-1.51255,0.13082,0.8855
415.305,46.79788,-1.59893,0.1234,0.88521
415.805,46.84668,-1.63069,0.11554,0.88493
416.305,46.89547,-1.66366,0.10939,0.88464
416.805,46.94433,-1.70751,0.1031,0.88435
417.305,46.9932,-1.73589,0.09905397,0.88407
417.805,47.04207,-1.76022,0.09486322,0.88378
418.305,47.09106,-1.79289,0.09012569,0.88349
418.805,47.14,-1.80971,0.08573119,0.88321
419.305,47.18888,-1.84845,0.08439915,0.88292
419.805,47.2378,-1.88259,0.07997473,0.88263
420.305,47.28662,-1.89897,0.07810375,0.88234
420.805,47.33546,-1.90537,0.07635422,0.88206
421.305,47.38434,-1.93623,0.0759323,0.88177
421.805,47.43318,-1.96978,0.07365211,0.88148
422.305,47.48213,-1.96987,0.07491807,0.88119
422.805,47.53114,-2.00249,0.0726164,0.8809
423.305,47.57983,-2.02702,0.07506249,0.88061
423.805,47.62871,-2.05757,0.0760906,0.88033
424.305,47.6777,-2.06884,0.07496354,0.88004
424.805,47.7265,-2.06866,0.07337789,0.87975
425.305,47.7754,-2.10182,0.07730784,0.87946
425.805,47.82458,-2.13619,0.07639123,0.87917
426.305,47.87364,-2.13496,0.07301506,0.87888
426.805,47.92263,-2.16414,0.07366931,0.87859
427.305,47.97153,-2.16782,0.07092839,0.8783
427.805,48.02041,-2.13473,0.06943974,0.87801
428.305,48.06929,-2.16779,0.06999074,0.87772
428.805,48.11824,-2.16833,0.06812027,0.87743
429.305,48.16726,-2.20108,0.0671109,0.87714
429.805,48.21635,-2.22558,0.06350219,0.87685
430.305,48.26538,-2.22542,0.0628199,0.87656
430.805,48.31436,-2.25867,0.06186405,0.87627
431.305,48.36339,-2.25819,0.05474785,0.87597
431.805,48.41238,-2.26707,0.05654385,0.87568
432.305,48.46127,-2.26709,0.0524785,0.87539
432.805,48.5102,-2.26708,0.05014127,0.8751
433.305,48.55919,-2.29961,0.04605133,0.87481
433.805,48.60821,-2.3333,0.04168656,0.87451
434.305,48.65723,-2.30015,0.03593444,0.87422
434.805,48.70635,-2.30025,0.031046,0.87393
435.305,48.75543,-2.30025,0.02668445,0.87364
435.805,48.80441,-2.30025,0.01922962,0.87334
436.305,48.85342,-2.30022,0.007254297,0.87305
436.805,48.90245,-2.27122,0.0001314896,0.87276
437.305,48.95139,-2.26709,-0.007352905,0.87246
437.805,49.00039,-2.28427,-0.02146605,0.87217
438.305,49.0495,-2.29196,-0.02975848,0.87188
438.805,49.09855,-2.29196,-0.03279756,0.87158
439.305,49.1477,-2.29273,-0.03427613,0.87129
439.805,49.19709,-2.28368,-0.03413433,0.87099
440.305,49.24637,-2.28432,-0.03490227,0.8707
440.805,49.29558,-2.31679,-0.0298149,0.87041
441.305,49.3448,-2.31683,-0.02672336,0.87011
441.805,49.39397,-2.31683,-0.02021984,0.86982
442.305,49.44307,-2.31683,-0.01925691,0.86952
442.805,49.49236,-2.31682,-0.01463407,0.86923
443.305,49.54161,-2.31974,-0.01277934,0.86893
443.805,49.59088,-2.34975,-0.0105446,0.86863
444.305,49.64027,-2.34975,-0.007981224,0.86834
444.805,49.68952,-2.34975,-0.00444721,0.86804
445.305,49.73871,-2.33376,-0.003132764,0.86775
445.805,49.78788,-2.33301,-0.003930286,0.86745
446.305,49.83695,-2.31715,-0.005252998,0.86715
446.805,49.88616,-2.33326,-0.002897136,0.86686
447.305,49.9352,-2.33315,-0.001263229,0.86656
447.805,49.98411,-2.34228,-0.00102662,0.86626
448.305,50.03349,-2.36633,-0.000735399,0.86596
448.805,50.08274,-2.36768,0.0003586928,0.86567
449.305,50.13211,-2.33315,0.001787121,0.86537
449.805,50.18183,-2.33133,-0.00269812,0.86507
450.305,50.23101,-2.30026,0.001410875,0.86477
450.805,50.2802,-2.30025,0.00133677,0.86447
451.305,50.32951,-2.31556,0.001309443,0.86417
451.805,50.3786,-2.33315,0.00255119,0.86388
452.305,50.42795,-2.33316,0.004167898,0.86358
452.805,50.47745,-2.33316,0.00639677,0.86328
453.305,50.5268,-2.33316,0.004984545,0.86298
453.805,50.57622,-2.33316,0.005764169,0.86268
454.305,50.62529,-2.33317,0.00711702,0.86238
454.805,50.67431,-2.32237,0.006883903,0.86208
455.305,50.72341,-2.26743,0.008506131,0.86178
455.805,50.77257,-2.31034,0.01278898,0.86148
456.305,50.822,-2.31658,0.008880217,0.86118
456.805,50.87144,-2.31663,0.01018652,0.86088
457.305,50.92082,-2.28359,0.01080886,0.86058
457.805,50.97002,-2.28367,0.01247849,0.86028
458.305,51.01934,-2.28367,0.008908,0.85998
458.805,51.0685,-2.28367,0.009004976,0.85967
459.305,51.11781,-2.28367,0.01059678,0.85937
459.805,51.1674,-2.2839,0.0114656,0.85907
460.305,51.21685,-2.30578,0.01248423,0.85877
460.805,51.2663,-2.33219,0.01204762,0.85847
461.305,51.31581,-2.34145,0.01457824,0.85816
461.805,51.36499,-2.34146,0.01312766,0.85786
462.305,51.41438,-2.34126,0.01385252,0.85756
462.805,51.4638,-2.3331,0.01299628,0.85726
463.305,51.51307,-2.33316,0.01259003,0.85695
463.805,51.5623,-2.33316,0.01222066,0.85665
464.305,51.6113,-2.33316,0.01226859,0.85635
464.805,51.6601,-2.33316,0.01433298,0.85604
465.305,51.7091,-2.33316,0.01146397,0.85574
465.805,51.75825,-2.32603,0.01353306,0.85543
466.305,51.8076,-2.32487,0.01154103,0.85513
466.805,51.857,-2.32487,0.01316076,0.85483
467.305,51.90638,-2.32486,0.01259411,0.85452
467.805,51.9559,-2.36001,0.01310589,0.85422
468.305,52.00565,-2.35804,0.01084881,0.85391
468.805,52.05552,-2.35799,0.01404527,0.85361
469.305,52.10535,-2.33106,0.01459575,0.8533
469.805,52.15494,-2.33342,0.01431114,0.85299
470.305,52.2044,-2.33189,0.01631766,0.85269
470.805,52.2537,-2.34997,0.01521586,0.85238
471.305,52.30318,-2.3476,0.01696257,0.85208
471.805,52.35261,-2.34171,0.01761626,0.85177
472.305,52.402,-2.34171,0.01726733,0.85146
472.805,52.4513,-2.34171,0.01804571,0.85116
473.305,52.50049,-2.34171,0.01882825,0.85085
473.805,52.54976,-2.34171,0.01670753,0.85054
474.305,52.5992,-2.34171,0.0169434,0.85023
474.805,52.64855,-2.34215,0.01897799,0.84993
475.305,52.6979,-2.3251,0.01961895,0.84962
475.805,52.7473,-2.32513,0.01941629,0.84931
476.305,52.79661,-2.31549,0.02133092,0.849
476.805,52.84595,-2.29198,0.02056799,0.84869
477.305,52.89529,-2.29218,0.02001015,0.84839
477.805,52.94464,-2.28986,0.02069023,0.84808
478.305,52.99394,-2.29199,0.01912494,0.84777
478.805,53.04325,-2.32422,0.01839809,0.84746
479.305,53.09259,-2.32487,0.0207342,0.84715
479.805,53.1419,-2.32487,0.02134439,0.84684
480.305,53.1912,-2.32487,0.02185637,0.84653
480.805,53.24064,-2.32487,0.01948974,0.84622
481.305,53.2902,-2.32472,0.02085563,0.84591
481.805,53.3395,-2.29205,0.02147863,0.8456
482.305,53.38913,-2.32481,0.020849,0.84529
482.805,53.43844,-2.32479,0.02179219,0.84498
483.305,53.4877,-2.34994,0.02168263,0.84467
483.805,53.53702,-2.34975,0.02230736,0.84435
484.305,53.58631,-2.34975,0.02441153,0.84404
484.805,53.6357,-2.34975,0.0264787,0.84373
485.305,53.68506,-2.34975,0.02565759,0.84342
485.805,53.73451,-2.34975,0.02378229,0.84311
486.305,53.7839,-2.34975,0.0262262,0.84279
486.805,53.83339,-2.34987,0.02738932,0.84248
487.305,53.8828,-2.31641,0.02593338,0.84217
487.805,53.93225,-2.31653,0.02615554,0.84186
488.305,53.98177,-2.34191,0.02739052,0.84154
488.805,54.0311,-2.36627,0.02779651,0.84123
489.305,54.08039,-2.36633,0.02694813,0.84092
489.805,54.1297,-2.36633,0.02962828,0.8406
490.305,54.1791,-2.36633,0.03220714,0.84029
490.805,54.2285,-2.36633,0.02988226,0.83997
491.305,54.2779,-2.36633,0.02807763,0.83966
491.805,54.32739,-2.36629,0.03083774,0.83935
492.305,54.37673,-2.33359,0.03102161,0.83903
492.805,54.4261,-2.33316,0.03197079,0.83872
493.305,54.47557,-2.3355,0.03146449,0.8384
493.805,54.5249,-2.30024,0.03142031,0.83808
494.305,54.5743,-2.30025,0.0353666,0.83777
494.805,54.62373,-2.30018,0.03187136,0.83745
495.305,54.6732,-2.33448,0.03347061,0.83714
495.805,54.72255,-2.2988,0.03557992,0.83682
496.305,54.772,-2.30211,0.03410636,0.8365
496.805,54.82155,-2.30011,0.03394282,0.83619
497.305,54.87095,-2.30028,0.03329215,0.83587
497.805,54.9203,-2.3168,0.03534332,0.83555
498.305,54.9696,-2.31683,0.03609698,0.83524
498.805,55.01885,-2.31683,0.03833055,0.83492
499.305,55.06815,-2.31683,0.03777149,0.8346
499.805,55.1173,-2.31683,0.03791281,0.83428
500.305,55.1667,-2.31683,0.0353615,0.83396
500.805,55.2161,-2.31683,0.03667454,0.83365
501.305,55.26566,-2.31684,0.03764737,0.83333
501.805,55.315,-2.28142,0.03672033,0.83301
502.305,55.36478,-2.30461,0.03773952,0.83269
502.805,55.4143,-2.31684,0.04035517,0.83237
503.305,55.46376,-2.31781,0.03643385,0.83205
503.805,55.5134,-2.28296,0.04103096,0.83173
504.305,55.56293,-2.29157,0.03845948,0.83141
504.805,55.61237,-2.31765,0.04085007,0.83109
505.305,55.66206,-2.31676,0.0377556,0.83077
505.805,55.7117,-2.35013,0.03777536,0.83045
506.305,55.76101,-2.33129,0.04055039,0.83013
506.805,55.81041,-2.31683,0.04065783,0.82981
507.305,55.8598,-2.31683,0.042518,0.82949
507.805,55.90928,-2.31683,0.04033344,0.82917
508.305,55.9588,-2.31683,0.04085761,0.82884
508.805,56.0084,-2.31683,0.04250517,0.82852
509.305,56.0581,-2.31683,0.0407492,0.8282
509.805,56.1077,-2.31683,0.04208356,0.82788
510.305,56.15738,-2.31519,0.04171259,0.82756
510.805,56.20705,-2.33339,0.04093064,0.82723
511.305,56.25671,-2.33324,0.04107793,0.82691
511.805,56.3065,-2.31695,0.04345318,0.82659
512.305,56.35626,-2.31928,0.04131287,0.82626
512.805,56.40605,-2.28348,0.03923235,0.82594
513.305,56.4558,-2.31696,0.04567176,0.82562
513.805,56.50545,-2.33207,0.04176421,0.82529
514.305,56.55497,-2.31698,0.04210319,0.82497
514.805,56.6046,-2.2835,0.04376944,0.82464
515.305,56.65424,-2.28396,0.04191421,0.82432
515.805,56.70385,-2.31648,0.04264544,0.82399
516.305,56.75365,-2.31683,0.04728351,0.82367
516.805,56.8033,-2.31672,0.04473773,0.82334
517.305,56.85306,-2.34993,0.04789612,0.82302
517.805,56.90269,-2.34975,0.04520585,0.82269
518.305,56.9523,-2.34975,0.04668166,0.82237
518.805,57.0021,-2.34975,0.04906896,0.82204
519.305,57.0517,-2.34975,0.04906029,0.82171
519.805,57.1013,-2.34976,0.048091,0.82139
520.305,57.15096,-2.34888,0.04813585,0.82106
520.805,57.20061,-2.31659,0.0485099,0.82073
521.305,57.25023,-2.31658,0.050035,0.8204
521.805,57.29996,-2.31658,0.04979128,0.82008
522.305,57.34959,-2.31658,0.04980475,0.81975
522.805,57.3992,-2.3166,0.04642755,0.81942
523.305,57.44894,-2.30858,0.0508805,0.81909
523.805,57.4986,-2.29246,0.04983518,0.81876
524.305,57.5484,-2.28365,0.05163551,0.81844
524.805,57.59805,-2.28367,0.05128574,0.81811
525.305,57.64774,-2.28366,0.05224393,0.81778
525.805,57.6976,-2.30258,0.05371254,0.81745
526.305,57.74728,-2.31725,0.0553231,0.81712
526.805,57.79715,-2.34157,0.05303114,0.81679
527.305,57.84695,-2.34146,0.05454098,0.81646
527.805,57.89666,-2.34146,0.05268842,0.81613
528.305,57.94622,-2.34146,0.05233404,0.8158
528.805,57.99596,-2.34146,0.05466564,0.81547
529.305,58.0456,-2.34129,0.05427229,0.81514
529.805,58.09525,-2.32503,0.05391612,0.81481
530.305,58.14499,-2.32487,0.05226545,0.81448
530.805,58.19472,-2.32487,0.05372501,0.81414
531.305,58.2445,-2.32487,0.05460457,0.81381
531.805,58.2943,-2.32486,0.05312117,0.81348
532.305,58.34412,-2.33402,0.05374355,0.81315
532.805,58.39399,-2.35804,0.05394278,0.81282
533.305,58.44392,-2.33954,0.05269143,0.81248
533.805,58.49365,-2.32486,0.05418185,0.81215
534.305,58.54342,-2.32481,0.05637617,0.81182
534.805,58.5927,-2.32408,0.0573272,0.81148
535.305,58.6423,-2.32512,0.05634089,0.81115
535.805,58.6923,-2.32511,0.05591867,0.81082
536.305,58.7423,-2.36014,0.05875338,0.81048
536.805,58.79243,-2.35773,0.05817673,0.81015
537.305,58.8423,-2.32636,0.05946327,0.80981
537.805,58.892,-2.30022,0.05782825,0.80948
538.305,58.94171,-2.33327,0.05954954,0.80914
538.805,58.99145,-2.33316,0.05902031,0.80881
539.305,59.0413,-2.33334,0.05614881,0.80847
539.805,59.09106,-2.36631,0.05809345,0.80814
540.305,59.14095,-2.36623,0.05907677,0.8078
540.805,59.1909,-2.33343,0.05775403,0.80747
541.305,59.2407,-2.33339,0.05807591,0.80713
541.805,59.29067,-2.31582,0.05914994,0.80679
542.305,59.34066,-2.28339,0.05631064,0.80646
542.805,59.39037,-2.26766,0.05641335,0.80612
543.305,59.4404,-2.30025,0.05850118,0.80578
543.805,59.4903,-2.30024,0.06187883,0.80544
544.305,59.5401,-2.33342,0.05930452,0.80511
544.805,59.5901,-2.33341,0.05739897,0.80477
545.305,59.6399,-2.33355,0.06099844,0.80443
545.805,59.6897,-2.30025,0.06170676,0.80409
546.305,59.73952,-2.30025,0.05903297,0.80375
546.805,59.7893,-2.30018,0.05895398,0.80342
547.305,59.839,-2.33319,0.06054412,0.80308
547.805,59.8887,-2.33316,0.06150643,0.80274
548.305,59.9385,-2.33316,0.06182457,0.8024
548.805,59.9883,-2.33316,0.06125489,0.80206
548.905,59.9992,-2.33316,0.05947095,0.80199