File: 01_Data/Oak_Flooring/STA/N2/10K_min/Oak_Flooring_STA_N2_10KData_211207_R1.csv
##Temp./Â°C,Time/min,DSC(subtr.2)/(mW/mg),Mass loss(subtr.2)/mg,Sensit./(uV/mW)
49.36,10.01,0.01527769,-0.02204,1.07447
49.96,10.73596,0.04395795,-0.02195614,1.07442
50.56,10.9273,0.06921319,-0.02365034,1.07438
51.16,11.0699,0.08853429,-0.02510542,1.07434
51.76,11.1896,0.10479,-0.02686013,1.0743
52.36,11.2957,0.11936,-0.02069747,1.07425
52.96,11.3928,0.1306,-0.02354395,1.07421
53.56,11.48432,0.14158,-0.02397214,1.07416
54.16,11.57104,0.15008,-0.0228652,1.07411
54.76,11.65392,0.16089,-0.02763609,1.07406
55.36,11.73363,0.16822,-0.02771658,1.07401
55.96,11.81162,0.17767,-0.02335418,1.07396
56.56,11.88747,0.18126,-0.0242219,1.07391
57.16,11.96162,0.19026,-0.02489332,1.07386
57.76,12.03455,0.19336,-0.02683314,1.07381
58.36,12.106,0.19946,-0.02637299,1.07376
58.96,12.17652,0.20375,-0.0265278,1.0737
59.56,12.24615,0.20637,-0.02508391,1.07365
60.16,12.3157,0.21125,-0.02491961,1.07359
60.76,12.38447,0.21491,-0.02499645,1.07354
61.36,12.45243,0.21849,-0.02521822,1.07348
61.96,12.51962,0.22154,-0.02653705,1.07342
62.56,12.5867,0.22297,-0.02669754,1.07336
63.16,12.65368,0.22797,-0.02657505,1.0733
63.76,12.72032,0.22857,-0.02722879,1.07324
64.36,12.78631,0.23172,-0.02753716,1.07318
64.96,12.8519,0.23608,-0.02784032,1.07312
65.56,12.91734,0.24125,-0.02780707,1.07305
66.16,12.9826,0.24117,-0.02918077,1.07299
66.76,13.04773,0.24504,-0.03055772,1.07292
67.36,13.1127,0.24873,-0.02919841,1.07286
67.96,13.17785,0.25131,-0.02921116,1.07279
68.56,13.24281,0.25118,-0.03012043,1.07272
69.16,13.30737,0.25428,-0.02933647,1.07265
69.76,13.37169,0.25559,-0.03048982,1.07259
70.36,13.4358,0.25744,-0.03160725,1.07252
70.96,13.5001,0.26247,-0.03048998,1.07244
71.56,13.564,0.26379,-0.03049079,1.07237
72.16,13.62764,0.26616,-0.03183424,1.0723
72.76,13.6911,0.26945,-0.03305158,1.07223
73.36,13.7544,0.27175,-0.03179997,1.07215
73.96,13.8178,0.27329,-0.03179407,1.07208
74.56,13.881,0.27568,-0.03270966,1.072
75.16,13.9442,0.27701,-0.0318102,1.07193
75.76,14.00712,0.28125,-0.0322344,1.07185
76.36,14.06989,0.28196,-0.03311356,1.07177
76.96,14.13269,0.28418,-0.03444023,1.07169
77.56,14.19555,0.28618,-0.03371865,1.07161
78.16,14.25835,0.28434,-0.03377553,1.07153
78.76,14.321,0.2868,-0.03444919,1.07145
79.36,14.3833,0.28853,-0.03573589,1.07136
79.96,14.4452,0.29238,-0.03575176,1.07128
80.56,14.50724,0.29408,-0.03707217,1.0712
81.16,14.5693,0.29427,-0.03635838,1.07111
81.76,14.631,0.29487,-0.03706984,1.07103
82.36,14.6926,0.29858,-0.03675852,1.07094
82.96,14.754,0.29849,-0.03674535,1.07085
83.56,14.8155,0.29933,-0.03797704,1.07076
84.16,14.8768,0.30072,-0.03791401,1.07067
84.76,14.9381,0.30265,-0.03938246,1.07058
85.36,14.99935,0.29989,-0.03934663,1.07049
85.96,15.0603,0.30305,-0.04069,1.0704
86.56,15.121,0.30163,-0.03932046,1.07031
87.16,15.1817,0.3013,-0.03937031,1.07022
87.76,15.24231,0.30118,-0.04073572,1.07012
88.36,15.3027,0.30194,-0.04069002,1.07003
88.96,15.36341,0.3012,-0.04068966,1.06993
89.56,15.4238,0.30058,-0.04190477,1.06983
90.16,15.48435,0.30075,-0.04200999,1.06974
90.76,15.54475,0.30116,-0.04201002,1.06964
91.36,15.60505,0.29951,-0.04204747,1.06954
91.96,15.6652,0.30061,-0.04266557,1.06944
92.56,15.7255,0.29964,-0.04398627,1.06934
93.16,15.7856,0.29813,-0.04399474,1.06924
93.76,15.84544,0.29718,-0.04432841,1.06913
94.36,15.9056,0.29581,-0.04463186,1.06903
94.96,15.96566,0.29662,-0.04491953,1.06893
95.56,16.02582,0.29517,-0.04463979,1.06882
96.16,16.08595,0.2937,-0.04464,1.06872
96.76,16.14574,0.29307,-0.04464099,1.06861
97.36,16.20531,0.2909,-0.04600695,1.0685
97.96,16.2649,0.28654,-0.04596002,1.06839
98.56,16.32425,0.28577,-0.04595974,1.06828
99.16,16.38399,0.28679,-0.04490478,1.06817
99.76,16.4432,0.28491,-0.04626658,1.06806
100.36,16.5026,0.28541,-0.04686441,1.06795
100.96,16.56188,0.28556,-0.0475999,1.06784
101.56,16.62126,0.28538,-0.04759999,1.06773
102.16,16.68057,0.28613,-0.04758698,1.06761
102.76,16.73965,0.28514,-0.04727036,1.0675
103.36,16.79877,0.28731,-0.04859158,1.06738
103.96,16.85781,0.28493,-0.04859046,1.06727
104.56,16.917,0.2884,-0.04753677,1.06715
105.16,16.9764,0.289,-0.04758377,1.06703
105.76,17.03558,0.28865,-0.04858898,1.06691
106.36,17.09419,0.28753,-0.04859002,1.06679
106.96,17.15335,0.2883,-0.04863721,1.06667
107.56,17.21238,0.28845,-0.04792968,1.06655
108.16,17.2718,0.28597,-0.04793064,1.06643
108.76,17.33119,0.28494,-0.04925393,1.06631
109.36,17.39034,0.28426,-0.04925,1.06618
109.96,17.44935,0.28528,-0.04924951,1.06606
110.56,17.50829,0.28305,-0.04851934,1.06593
111.16,17.5672,0.28045,-0.04838399,1.06581
111.76,17.62613,0.28087,-0.04848467,1.06568
112.36,17.68515,0.28096,-0.04990987,1.06555
112.96,17.74397,0.28051,-0.04990977,1.06542
113.56,17.80261,0.27713,-0.04990002,1.06529
114.16,17.8615,0.27577,-0.04990004,1.06516
114.76,17.92047,0.27459,-0.05124483,1.06503
115.36,17.97934,0.27466,-0.05121998,1.0649
115.96,18.03826,0.2719,-0.05122,1.06477
116.56,18.09693,0.27,-0.05122,1.06463
117.16,18.1558,0.27271,-0.05121269,1.0645
117.76,18.21483,0.26971,-0.05252184,1.06436
118.36,18.2739,0.27152,-0.05186792,1.06423
118.96,18.33255,0.26837,-0.05274038,1.06409
119.56,18.39104,0.27018,-0.0525265,1.06395
120.16,18.44944,0.26968,-0.05254011,1.06381
120.76,18.50832,0.26757,-0.05185737,1.06368
121.36,18.5674,0.26741,-0.05203873,1.06354
121.96,18.6267,0.26759,-0.05320033,1.06339
122.56,18.6857,0.26862,-0.0532,1.06325
123.16,18.7445,0.26648,-0.05320002,1.06311
123.76,18.8035,0.26742,-0.05324943,1.06297
124.36,18.86215,0.26731,-0.05336682,1.06282
124.96,18.92075,0.26847,-0.05385094,1.06268
125.56,18.97926,0.26843,-0.0525291,1.06253
126.16,19.0377,0.26843,-0.05253105,1.06239
126.76,19.09633,0.26896,-0.05353216,1.06224
127.36,19.15496,0.26795,-0.05352004,1.06209
127.96,19.21339,0.26848,-0.05358631,1.06194
128.56,19.27196,0.26885,-0.05220016,1.06179
129.16,19.33041,0.26779,-0.05354174,1.06164
129.76,19.38874,0.26774,-0.05221672,1.06149
130.36,19.44683,0.26805,-0.05350321,1.06134
130.96,19.50512,0.26796,-0.05352999,1.06119
131.56,19.56355,0.2696,-0.05353,1.06103
132.16,19.62227,0.26908,-0.05352999,1.06088
132.76,19.68079,0.27157,-0.05352116,1.06072
133.36,19.7391,0.27075,-0.0525287,1.06057
133.96,19.79733,0.26901,-0.0516614,1.06041
134.56,19.85556,0.27206,-0.0525227,1.06025
135.16,19.9139,0.27294,-0.05352758,1.06009
135.76,19.9721,0.27284,-0.05399436,1.05993
136.36,20.0303,0.27231,-0.05451036,1.05977
136.96,20.08869,0.27347,-0.0531883,1.05961
137.56,20.14696,0.27459,-0.05319,1.05945
138.16,20.2052,0.27331,-0.05319904,1.05929
138.76,20.26333,0.27452,-0.05328428,1.05913
139.36,20.32152,0.27591,-0.05411103,1.05896
139.96,20.37961,0.27561,-0.05352998,1.0588
140.56,20.43767,0.277,-0.05353,1.05863
141.16,20.4959,0.27667,-0.05353,1.05847
141.76,20.55388,0.27642,-0.05353,1.0583
142.36,20.61205,0.27476,-0.0535302,1.05813
142.96,20.67002,0.27682,-0.05253807,1.05796
143.56,20.72803,0.27762,-0.05220959,1.05779
144.16,20.78598,0.27857,-0.05347664,1.05762
144.76,20.84396,0.2779,-0.05352396,1.05745
145.36,20.90203,0.27771,-0.05285584,1.05728
145.96,20.96003,0.27863,-0.05286,1.05711
146.56,21.0181,0.27828,-0.05335837,1.05693
147.16,21.0758,0.27885,-0.05418022,1.05676
147.76,21.13361,0.27977,-0.05418027,1.05658
148.36,21.19142,0.27937,-0.05347443,1.05641
148.96,21.2494,0.28178,-0.05352001,1.05623
149.56,21.30734,0.27943,-0.05352,1.05605
150.16,21.3654,0.28089,-0.05352,1.05588
150.76,21.42325,0.28063,-0.05352,1.0557
151.36,21.48114,0.27878,-0.05351968,1.05552
151.96,21.53894,0.28068,-0.0531603,1.05534
152.56,21.59671,0.2828,-0.05319977,1.05516
153.16,21.65468,0.28246,-0.05356443,1.05497
153.76,21.7124,0.2821,-0.05352882,1.05479
154.36,21.7703,0.28374,-0.05385045,1.05461
154.96,21.8281,0.28193,-0.05384957,1.05442
155.56,21.8858,0.28306,-0.05492713,1.05424
156.16,21.9436,0.28265,-0.05484004,1.05405
156.76,22.00113,0.28211,-0.05484001,1.05386
157.36,22.05911,0.28418,-0.05482931,1.05368
157.96,22.11681,0.28485,-0.05484412,1.05349
158.56,22.175,0.28361,-0.05637244,1.0533
159.16,22.2329,0.2855,-0.06212745,1.05311
159.76,22.29056,0.28502,-0.06514922,1.05292
160.36,22.34824,0.28654,-0.06515713,1.05273
160.96,22.40607,0.28893,-0.06220964,1.05254
161.56,22.4638,0.28711,-0.0606513,1.05234
162.16,22.5217,0.2887,-0.05933853,1.05215
162.76,22.57957,0.28898,-0.05802617,1.05195
163.36,22.63738,0.29015,-0.05734538,1.05176
163.96,22.69504,0.29019,-0.05688833,1.05156
164.56,22.75271,0.29113,-0.05647135,1.05137
165.16,22.81011,0.28819,-0.05295914,1.05117
165.76,22.8676,0.29078,-0.05250325,1.05097
166.36,22.92513,0.29285,-0.05222282,1.05077
166.96,22.98276,0.29226,-0.05353347,1.05057
167.56,23.0405,0.29227,-0.05353,1.05037
168.16,23.09799,0.2913,-0.05353005,1.05017
168.76,23.15558,0.29761,-0.05565156,1.04997
169.36,23.21305,0.29656,-0.05581995,1.04976
169.96,23.2706,0.29639,-0.05582,1.04956
170.56,23.32793,0.29952,-0.05582,1.04936
171.16,23.3855,0.30067,-0.05581996,1.04915
171.76,23.44295,0.30123,-0.05644536,1.04894
172.36,23.5004,0.30218,-0.05713997,1.04874
172.96,23.5578,0.30175,-0.05713562,1.04853
173.56,23.61511,0.30228,-0.0578047,1.04832
174.16,23.67231,0.30402,-0.05779992,1.04811
174.76,23.72962,0.3033,-0.05812079,1.0479
175.36,23.7869,0.30323,-0.05943771,1.04769
175.96,23.8442,0.30612,-0.06074681,1.04748
176.56,23.90149,0.30527,-0.06076,1.04727
177.16,23.9589,0.30361,-0.06075999,1.04706
177.76,24.0161,0.30564,-0.06073423,1.04684
178.36,24.07343,0.30647,-0.0614545,1.04663
178.96,24.13082,0.30611,-0.06010921,1.04641
179.56,24.18802,0.30517,-0.05977654,1.0462
180.16,24.24532,0.30782,-0.06008584,1.04598
180.76,24.3026,0.30527,-0.0585891,1.04576
181.36,24.35971,0.30662,-0.05604122,1.04554
181.96,24.41706,0.30622,-0.05604001,1.04533
182.56,24.47433,0.30672,-0.0560399,1.04511
183.16,24.53175,0.30601,-0.05605236,1.04489
183.76,24.58916,0.30807,-0.05476913,1.04466
184.36,24.64622,0.30857,-0.0521727,1.04444
184.96,24.7032,0.30684,-0.05263871,1.04422
185.56,24.76056,0.30797,-0.05466768,1.044
186.16,24.818,0.30809,-0.05746707,1.04377
186.76,24.87585,0.30575,-0.0588689,1.04355
187.36,24.93334,0.30779,-0.05879001,1.04332
187.96,24.99057,0.309,-0.05917012,1.0431
188.56,25.04788,0.30909,-0.06011338,1.04287
189.16,25.10475,0.30887,-0.0623901,1.04264
189.76,25.16217,0.30928,-0.06240999,1.04241
190.36,25.21956,0.31019,-0.06241,1.04218
190.96,25.27712,0.31249,-0.06241,1.04195
191.56,25.3349,0.31089,-0.06241,1.04172
192.16,25.3924,0.31067,-0.06240998,1.04149
192.76,25.44979,0.30995,-0.06241308,1.04126
193.36,25.50721,0.31253,-0.06368716,1.04102
193.96,25.56469,0.31197,-0.06406499,1.04079
194.56,25.62205,0.31206,-0.06504097,1.04056
195.16,25.6796,0.31434,-0.0650394,1.04032
195.76,25.73699,0.31399,-0.06537156,1.04009
196.36,25.7944,0.31563,-0.06537,1.03985
196.96,25.85172,0.31691,-0.06536991,1.03961
197.56,25.90905,0.31666,-0.06595112,1.03937
198.16,25.96666,0.31694,-0.06666177,1.03913
198.76,26.02378,0.31689,-0.06603133,1.03889
199.36,26.08116,0.31914,-0.06603,1.03865
199.96,26.13857,0.3197,-0.06603,1.03841
200.56,26.1959,0.31966,-0.06603007,1.03817
201.16,26.2536,0.32037,-0.06619747,1.03793
201.76,26.3108,0.32104,-0.06799206,1.03768
202.36,26.36818,0.32304,-0.06800528,1.03744
202.96,26.4253,0.32066,-0.06866166,1.0372
203.56,26.48268,0.32186,-0.06866,1.03695
204.16,26.54015,0.32354,-0.06866004,1.0367
204.76,26.5976,0.32495,-0.06996768,1.03646
205.36,26.65472,0.32623,-0.06997999,1.03621
205.96,26.71208,0.32707,-0.06998056,1.03596
206.56,26.76932,0.32867,-0.07064934,1.03571
207.16,26.82647,0.32697,-0.0722785,1.03546
207.76,26.88389,0.33088,-0.07228,1.03521
208.36,26.9412,0.33164,-0.07227993,1.03496
208.96,26.9984,0.33351,-0.07283166,1.03471
209.56,27.0557,0.3325,-0.07327007,1.03445
210.16,27.1129,0.33483,-0.07327,1.0342
210.76,27.1701,0.33647,-0.07327,1.03395
211.36,27.22727,0.33707,-0.07327005,1.03369
211.96,27.2848,0.33767,-0.07342447,1.03343
212.56,27.3424,0.33802,-0.07491574,1.03318
213.16,27.39988,0.33913,-0.07555967,1.03292
213.76,27.4575,0.33792,-0.07623076,1.03266
214.36,27.5149,0.33939,-0.07657501,1.0324
214.96,27.5723,0.34145,-0.07788043,1.03215
215.56,27.6293,0.34122,-0.07788036,1.03189
216.16,27.6868,0.34097,-0.07922282,1.03162
216.76,27.7442,0.34208,-0.07918412,1.03136
217.36,27.80207,0.3392,-0.08054086,1.0311
217.96,27.8597,0.34128,-0.0818086,1.03084
218.56,27.91708,0.3408,-0.08181309,1.03057
219.16,27.9744,0.34059,-0.08173404,1.03031
219.76,28.03185,0.34393,-0.08233478,1.03004
220.36,28.08905,0.34254,-0.08314008,1.02978
220.96,28.14667,0.34436,-0.08314013,1.02951
221.56,28.2041,0.34229,-0.0834973,1.02925
222.16,28.26148,0.34607,-0.0845066,1.02898
222.76,28.3189,0.34351,-0.08552083,1.02871
223.36,28.3764,0.34505,-0.08448209,1.02844
223.96,28.4339,0.34664,-0.08708035,1.02817
224.56,28.49157,0.34594,-0.0870779,1.0279
225.16,28.54931,0.34688,-0.0883994,1.02763
225.76,28.6069,0.3459,-0.08971132,1.02736
226.36,28.66463,0.34581,-0.09054839,1.02708
226.96,28.7219,0.34531,-0.09235283,1.02681
227.56,28.77935,0.34671,-0.09204788,1.02653
228.16,28.83682,0.3484,-0.09303885,1.02626
228.76,28.89408,0.34787,-0.09463927,1.02598
229.36,28.9515,0.35022,-0.09575074,1.02571
229.96,29.009,0.34849,-0.09677785,1.02543
230.56,29.06672,0.34927,-0.09772396,1.02515
231.16,29.1243,0.34794,-0.09763374,1.02487
231.76,29.1818,0.34924,-0.10037,1.0246
232.36,29.2391,0.35051,-0.10168,1.02432
232.96,29.2965,0.35036,-0.10298,1.02404
233.56,29.3541,0.35033,-0.10431,1.02375
234.16,29.4115,0.34925,-0.10564,1.02347
234.76,29.46899,0.35276,-0.10692,1.02319
235.36,29.5263,0.35156,-0.10827,1.02291
235.96,29.58353,0.35335,-0.10998,1.02262
236.56,29.641,0.35561,-0.11133,1.02234
237.16,29.6983,0.35471,-0.11315,1.02205
237.76,29.75576,0.35518,-0.11497,1.02177
238.36,29.8129,0.35641,-0.11629,1.02148
238.96,29.87019,0.35475,-0.11902,1.02119
239.56,29.9278,0.35673,-0.119,1.0209
240.16,29.9854,0.35653,-0.1213,1.02061
240.76,30.0435,0.35645,-0.12297,1.02033
241.36,30.1014,0.35607,-0.12433,1.02004
241.96,30.15883,0.35524,-0.12626,1.01974
242.56,30.2163,0.35419,-0.12816,1.01945
243.16,30.27392,0.35497,-0.1297,1.01916
243.76,30.3313,0.35447,-0.13095,1.01887
244.36,30.3888,0.35527,-0.13295,1.01857
244.96,30.4462,0.35773,-0.13499,1.01828
245.56,30.50345,0.35844,-0.13644,1.01798
246.16,30.56111,0.35853,-0.13933,1.01769
246.76,30.61883,0.36157,-0.14066,1.01739
247.36,30.67653,0.36066,-0.14257,1.0171
247.96,30.7342,0.35779,-0.14453,1.0168
248.56,30.79167,0.3608,-0.14652,1.0165
249.16,30.84931,0.35918,-0.14899,1.0162
249.76,30.90703,0.36285,-0.15091,1.0159
250.36,30.96459,0.36307,-0.15221,1.0156
250.96,31.0221,0.36458,-0.15661,1.0153
251.56,31.07981,0.36316,-0.15782,1.015
252.16,31.1375,0.36549,-0.16071,1.0147
252.76,31.19505,0.36385,-0.16251,1.01439
253.36,31.2527,0.36447,-0.16516,1.01409
253.96,31.31015,0.36528,-0.16792,1.01378
254.56,31.36737,0.36558,-0.16979,1.01348
255.16,31.42482,0.36402,-0.17207,1.01317
255.76,31.4825,0.36647,-0.17518,1.01287
256.36,31.53988,0.36809,-0.17823,1.01256
256.96,31.5976,0.368,-0.1828,1.01225
257.56,31.6554,0.36736,-0.18563,1.01194
258.16,31.713,0.36727,-0.18865,1.01163
258.76,31.7707,0.36806,-0.19418,1.01132
259.36,31.82805,0.36849,-0.19701,1.01101
259.96,31.88557,0.36827,-0.20052,1.0107
260.56,31.9432,0.37145,-0.2034,1.01039
261.16,32.00073,0.36923,-0.20717,1.01008
261.76,32.0583,0.36972,-0.2121,1.00977
262.36,32.11569,0.37141,-0.21493,1.00945
262.96,32.173,0.37369,-0.21843,1.00914
263.56,32.23004,0.37111,-0.2231,1.00882
264.16,32.28719,0.37088,-0.22748,1.00851
264.76,32.3442,0.37172,-0.23186,1.00819
265.36,32.40115,0.37123,-0.23803,1.00787
265.96,32.45888,0.37258,-0.24263,1.00756
266.56,32.51627,0.3709,-0.24809,1.00724
267.16,32.57424,0.36953,-0.25224,1.00692
267.76,32.63191,0.36782,-0.25783,1.0066
268.36,32.6894,0.36925,-0.26253,1.00628
268.96,32.74678,0.36772,-0.26738,1.00596
269.56,32.804,0.36884,-0.27366,1.00564
270.16,32.86161,0.3666,-0.27922,1.00531
270.76,32.91932,0.36798,-0.285,1.00499
271.36,32.97699,0.36716,-0.2911,1.00467
271.96,33.03453,0.36685,-0.29647,1.00434
272.56,33.09192,0.36415,-0.30484,1.00402
273.16,33.14935,0.36339,-0.31233,1.00369
273.76,33.20675,0.36005,-0.3189,1.00337
274.36,33.2642,0.35881,-0.32397,1.00304
274.96,33.32162,0.35777,-0.33346,1.00271
275.56,33.37905,0.35806,-0.34203,1.00239
276.16,33.4365,0.35538,-0.34521,1.00206
276.76,33.494,0.3534,-0.35277,1.00173
277.36,33.5514,0.35149,-0.36179,1.0014
277.96,33.6089,0.34919,-0.37072,1.00107
278.56,33.66643,0.34695,-0.37877,1.00074
279.16,33.72403,0.34801,-0.38756,1.0004
279.76,33.78153,0.34306,-0.39592,1.00007
280.36,33.83895,0.34244,-0.40387,0.99974
280.96,33.89622,0.33989,-0.41276,0.9994
281.56,33.95365,0.33897,-0.42187,0.99907
282.16,34.01126,0.33655,-0.43252,0.99873
282.76,34.06878,0.33333,-0.44065,0.9984
283.36,34.1263,0.33056,-0.45069,0.99806
283.96,34.1838,0.32905,-0.4611,0.99773
284.56,34.24127,0.32537,-0.46985,0.99739
285.16,34.2989,0.32264,-0.47943,0.99705
285.76,34.35641,0.31908,-0.49,0.99671
286.36,34.41387,0.31595,-0.50007,0.99637
286.96,34.47161,0.3137,-0.51104,0.99603
287.56,34.52919,0.3124,-0.52249,0.99569
288.16,34.58678,0.30958,-0.53288,0.99535
288.76,34.64452,0.3074,-0.54233,0.99501
289.36,34.70192,0.30368,-0.55577,0.99467
289.96,34.75967,0.30257,-0.56625,0.99432
290.56,34.81733,0.30154,-0.57768,0.99398
291.16,34.87505,0.29713,-0.58878,0.99363
291.76,34.933,0.2937,-0.6009,0.99329
292.36,34.9908,0.29244,-0.61161,0.99294
292.96,35.0486,0.28899,-0.62386,0.9926
293.56,35.10644,0.28567,-0.63705,0.99225
294.16,35.16428,0.28494,-0.64755,0.9919
294.76,35.2219,0.28452,-0.6599,0.99156
295.36,35.27952,0.2802,-0.67413,0.99121
295.96,35.33728,0.27942,-0.68586,0.99086
296.56,35.3949,0.27805,-0.6977,0.99051
297.16,35.4527,0.27861,-0.7098,0.99016
297.76,35.51057,0.27757,-0.72259,0.98981
298.36,35.56848,0.27382,-0.73582,0.98945
298.96,35.62643,0.2756,-0.74811,0.9891
299.56,35.68438,0.27274,-0.76112,0.98875
300.16,35.74211,0.27313,-0.77466,0.98839
300.76,35.80004,0.27168,-0.78777,0.98804
301.36,35.85788,0.27141,-0.80054,0.98769
301.96,35.9159,0.26966,-0.81456,0.98733
302.56,35.97384,0.26993,-0.82732,0.98697
303.16,36.0313,0.27089,-0.84027,0.98662
303.76,36.08902,0.26926,-0.85333,0.98626
304.36,36.14678,0.27411,-0.8672,0.9859
304.96,36.20492,0.27152,-0.87996,0.98554
305.56,36.263,0.27349,-0.89395,0.98519
306.16,36.32062,0.27647,-0.90678,0.98483
306.76,36.37838,0.27628,-0.91951,0.98447
307.36,36.4362,0.27849,-0.93322,0.9841
307.96,36.4941,0.27837,-0.9456,0.98374
308.56,36.552,0.28163,-0.95987,0.98338
309.16,36.60972,0.28505,-0.97219,0.98302
309.76,36.66769,0.28589,-0.98655,0.98266
310.36,36.7256,0.29053,-0.99853,0.98229
310.96,36.7835,0.29127,-1.01259,0.98193
311.56,36.84153,0.29549,-1.02628,0.98156
312.16,36.89945,0.29893,-1.03981,0.9812
312.76,36.95688,0.29884,-1.05358,0.98083
313.36,37.0148,0.30288,-1.06649,0.98046
313.96,37.07249,0.30399,-1.08021,0.9801
314.56,37.1306,0.30815,-1.09467,0.97973
315.16,37.18851,0.31214,-1.10763,0.97936
315.76,37.24633,0.3151,-1.12194,0.97899
316.36,37.30409,0.31811,-1.13465,0.97862
316.96,37.362,0.32199,-1.15068,0.97825
317.56,37.41987,0.32525,-1.16352,0.97788
318.16,37.4778,0.32977,-1.17855,0.97751
318.76,37.53572,0.33162,-1.19201,0.97714
319.36,37.59364,0.33606,-1.20698,0.97676
319.96,37.6517,0.33812,-1.22171,0.97639
320.56,37.70971,0.3417,-1.23465,0.97602
321.16,37.7675,0.34644,-1.24924,0.97564
321.76,37.8254,0.34788,-1.26378,0.97527
322.36,37.88327,0.35369,-1.27858,0.97489
322.96,37.94149,0.35551,-1.29444,0.97452
323.56,37.99958,0.35866,-1.31031,0.97414
324.16,38.0578,0.36564,-1.32495,0.97376
324.76,38.11593,0.36559,-1.34055,0.97339
325.36,38.174,0.37209,-1.35618,0.97301
325.96,38.23207,0.37473,-1.37234,0.97263
326.56,38.29014,0.3795,-1.38756,0.97225
327.16,38.34807,0.38331,-1.40466,0.97187
327.76,38.40615,0.38614,-1.42118,0.97149
328.36,38.46423,0.39119,-1.43621,0.97111
328.96,38.52233,0.39329,-1.45387,0.97073
329.56,38.58056,0.40148,-1.47148,0.97034
330.16,38.6387,0.40139,-1.48922,0.96996
330.76,38.69693,0.40646,-1.50575,0.96958
331.36,38.75504,0.40749,-1.52187,0.96919
331.96,38.8132,0.41347,-1.53997,0.96881
332.56,38.87124,0.41928,-1.5581,0.96842
333.16,38.92945,0.42369,-1.57638,0.96804
333.76,38.98722,0.42692,-1.59393,0.96765
334.36,39.04523,0.42914,-1.61374,0.96727
334.96,39.1032,0.43563,-1.6325,0.96688
335.56,39.16111,0.44219,-1.65232,0.96649
336.16,39.21954,0.44223,-1.67137,0.9661
336.76,39.27763,0.44656,-1.69075,0.96571
337.36,39.3357,0.45094,-1.70961,0.96532
337.96,39.39375,0.45631,-1.73157,0.96493
338.56,39.45172,0.46084,-1.75105,0.96454
339.16,39.50979,0.46551,-1.77287,0.96415
339.76,39.56801,0.46952,-1.79444,0.96376
340.36,39.62635,0.47181,-1.8144,0.96337
340.96,39.68432,0.47586,-1.83602,0.96297
341.56,39.74238,0.47903,-1.85636,0.96258
342.16,39.8005,0.48134,-1.8788,0.96219
342.76,39.85862,0.48202,-1.89998,0.96179
343.36,39.9169,0.48242,-1.92417,0.9614
343.96,39.9752,0.48519,-1.94685,0.961
344.56,40.03346,0.48656,-1.9699,0.96061
345.16,40.09168,0.48945,-1.99331,0.96021
345.76,40.14998,0.49015,-2.01449,0.95981
346.36,40.20844,0.48886,-2.0376,0.95941
346.96,40.26696,0.49011,-2.06123,0.95902
347.56,40.3254,0.49112,-2.0855,0.95862
348.16,40.3838,0.49268,-2.10814,0.95822
348.76,40.442,0.49083,-2.13293,0.95782
349.36,40.50032,0.49069,-2.15603,0.95742
349.96,40.55862,0.48807,-2.18193,0.95702
350.56,40.6169,0.48724,-2.20516,0.95662
351.16,40.67522,0.48531,-2.22995,0.95621
351.76,40.7337,0.48078,-2.25406,0.95581
352.36,40.79217,0.47856,-2.27907,0.95541
352.96,40.85053,0.47582,-2.30402,0.955
353.56,40.9088,0.46877,-2.32741,0.9546
354.16,40.96699,0.46488,-2.35265,0.9542
354.76,41.02519,0.45852,-2.37359,0.95379
355.36,41.08323,0.45123,-2.39875,0.95338
355.96,41.1414,0.44659,-2.42113,0.95298
356.56,41.1997,0.43608,-2.44566,0.95257
357.16,41.25805,0.42932,-2.4684,0.95216
357.76,41.31655,0.42026,-2.49215,0.95176
358.36,41.37489,0.411,-2.51448,0.95135
358.96,41.4333,0.40075,-2.53558,0.95094
359.56,41.49142,0.38836,-2.5581,0.95053
360.16,41.54929,0.37977,-2.57909,0.95012
360.76,41.6074,0.3632,-2.59997,0.94971
361.36,41.66551,0.35083,-2.61906,0.9493
361.96,41.72363,0.33548,-2.64024,0.94889
362.56,41.7819,0.31958,-2.65822,0.94848
363.16,41.8399,0.30559,-2.67708,0.94806
363.76,41.89829,0.28834,-2.69204,0.94765
364.36,41.95642,0.27183,-2.70992,0.94724
364.96,42.01464,0.25672,-2.72465,0.94682
365.56,42.07275,0.24074,-2.73914,0.94641
366.16,42.131,0.22321,-2.75219,0.94599
366.76,42.18925,0.20787,-2.76529,0.94558
367.36,42.24749,0.19559,-2.77855,0.94516
367.96,42.30567,0.17901,-2.78914,0.94475
368.56,42.36371,0.16672,-2.79963,0.94433
369.16,42.42197,0.15407,-2.80838,0.94391
369.76,42.48028,0.14387,-2.81777,0.94349
370.36,42.53843,0.13014,-2.82445,0.94307
370.96,42.59672,0.12306,-2.83052,0.94266
371.56,42.65494,0.11326,-2.83688,0.94224
372.16,42.7132,0.10467,-2.84254,0.94182
372.76,42.7716,0.09811749,-2.84625,0.9414
373.36,42.83005,0.09713422,-2.85306,0.94097
373.96,42.8883,0.08697977,-2.85813,0.94055
374.56,42.9465,0.08365489,-2.86155,0.94013
375.16,43.00473,0.07960608,-2.86516,0.93971
375.76,43.06286,0.07483314,-2.86845,0.93929
376.36,43.1211,0.07115123,-2.87312,0.93886
376.96,43.17933,0.06976608,-2.87723,0.93844
377.56,43.23773,0.0656524,-2.88023,0.93801
378.16,43.2962,0.06297798,-2.88327,0.93759
378.76,43.35468,0.06005477,-2.88491,0.93716
379.36,43.4131,0.05704177,-2.88862,0.93674
379.96,43.4717,0.05486048,-2.89035,0.93631
380.56,43.53,0.05441499,-2.89319,0.93588
381.16,43.58827,0.05018288,-2.89739,0.93546
381.76,43.64656,0.04872574,-2.89948,0.93503
382.36,43.70496,0.04823241,-2.90211,0.9346
382.96,43.76307,0.04568127,-2.90476,0.93417
383.56,43.8214,0.04484007,-2.90769,0.93374
384.16,43.87965,0.04681333,-2.9105,0.93331
384.76,43.93851,0.04218402,-2.91182,0.93288
385.36,43.99716,0.04013771,-2.91443,0.93245
385.96,44.05573,0.03710285,-2.91617,0.93202
386.56,44.11439,0.03566949,-2.91896,0.93159
387.16,44.1729,0.03431997,-2.92141,0.93116
387.76,44.23133,0.03312986,-2.92394,0.93072
388.36,44.28965,0.02885386,-2.92665,0.93029
388.96,44.34813,0.02900155,-2.92796,0.92986
389.56,44.4067,0.03068336,-2.93101,0.92942
390.16,44.4653,0.02525365,-2.93242,0.92899
390.76,44.52401,0.02392545,-2.93488,0.92855
391.36,44.58267,0.02213704,-2.93661,0.92812
391.96,44.64137,0.02142233,-2.93927,0.92768
392.56,44.6999,0.01990406,-2.94034,0.92725
393.16,44.7584,0.01975739,-2.9427,0.92681
393.76,44.81678,0.01799568,-2.94463,0.92637
394.36,44.8752,0.01773106,-2.94815,0.92593
394.96,44.93383,0.0142523,-2.95117,0.9255
395.56,44.9925,0.01680012,-2.9518,0.92506
396.16,45.05122,0.01593051,-2.95365,0.92462
396.76,45.10974,0.0133453,-2.95603,0.92418
397.36,45.16825,0.01366207,-2.95809,0.92374
397.96,45.2267,0.01316907,-2.96035,0.9233
398.56,45.285,0.01175846,-2.96181,0.92286
399.16,45.34347,0.01148666,-2.96373,0.92241
399.76,45.40208,0.007159795,-2.96669,0.92197
400.36,45.46065,0.009769229,-2.96849,0.92153
400.96,45.51921,0.009373749,-2.97097,0.92109
401.56,45.5777,0.009779671,-2.9724,0.92064
402.16,45.63642,0.007754135,-2.97431,0.9202
402.76,45.69507,0.006548266,-2.97592,0.91976
403.36,45.75357,0.006674245,-2.97731,0.91931
403.96,45.8121,0.00463539,-2.97989,0.91887
404.56,45.8707,0.003084915,-2.98148,0.91842
405.16,45.92933,0.005165219,-2.9829,0.91797
405.76,45.9881,0.004727365,-2.98555,0.91753
406.36,46.04685,0.00647633,-2.98819,0.91708
406.96,46.10564,0.005662813,-2.98853,0.91663
407.56,46.16445,0.00234434,-2.99116,0.91619
408.16,46.2234,0.00118849,-2.9929,0.91574
408.76,46.28221,0.000174317,-2.99582,0.91529
409.36,46.34115,0.00343217,-2.997,0.91484
409.96,46.40007,0.001630455,-2.99738,0.91439
410.56,46.4589,0.001170851,-2.99865,0.91394
411.16,46.51789,0.003474347,-3.00122,0.91349
411.76,46.5768,0.00118514,-3.00279,0.91304
412.36,46.6357,0.001941255,-3.0045,0.91259
412.96,46.69447,0.001013088,-3.00693,0.91214
413.56,46.75307,-0.0004890545,-3.00751,0.91168
414.16,46.81179,0.003671148,-3.00861,0.91123
414.76,46.87064,0.00183149,-3.00969,0.91078
415.36,46.92945,0.005336684,-3.01241,0.91032
415.96,46.98827,0.005700809,-3.01235,0.90987
416.56,47.04694,0.004848133,-3.0153,0.90942
417.16,47.1055,0.00355644,-3.01585,0.90896
417.76,47.1642,0.00526674,-3.01802,0.90851
418.36,47.22307,0.00670448,-3.02168,0.90805
418.96,47.2819,0.006889162,-3.02164,0.90759
419.56,47.34105,0.008482109,-3.02191,0.90714
420.16,47.39992,0.01031032,-3.02348,0.90668
420.76,47.4589,0.01014274,-3.02704,0.90622
421.36,47.5179,0.01130696,-3.02714,0.90577
421.96,47.57687,0.01163835,-3.02845,0.90531
422.56,47.63581,0.01120485,-3.03104,0.90485
423.16,47.69468,0.01337968,-3.03273,0.90439
423.76,47.7536,0.0134272,-3.03298,0.90393
424.36,47.81264,0.01657665,-3.03562,0.90347
424.96,47.87153,0.0166469,-3.03685,0.90301
425.56,47.93051,0.01735616,-3.03841,0.90255
426.16,47.98958,0.01663199,-3.04034,0.90209
426.76,48.04885,0.01964707,-3.04192,0.90163
427.36,48.1079,0.01869925,-3.04366,0.90117
427.96,48.16685,0.02124086,-3.0425,0.9007
428.56,48.22583,0.02123156,-3.04517,0.90024
429.16,48.28476,0.02238606,-3.04771,0.89978
429.76,48.3437,0.02526556,-3.04811,0.89931
430.36,48.40274,0.02787352,-3.04905,0.89885
430.96,48.46162,0.02824545,-3.05035,0.89839
431.56,48.52074,0.02874868,-3.05083,0.89792
432.16,48.57973,0.03090134,-3.05309,0.89746
432.76,48.63881,0.02928664,-3.05501,0.89699
433.36,48.6978,0.03416588,-3.05723,0.89653
433.96,48.7569,0.0364008,-3.05806,0.89606
434.56,48.816,0.03440518,-3.05903,0.89559
435.16,48.87526,0.03631592,-3.06029,0.89513
435.76,48.93442,0.03715312,-3.06195,0.89466
436.36,48.99346,0.04137136,-3.06443,0.89419
436.96,49.0525,0.04261722,-3.06577,0.89372
437.56,49.1115,0.04076639,-3.06638,0.89325
438.16,49.17047,0.04571957,-3.06772,0.89278
438.76,49.2297,0.04411738,-3.06901,0.89231
439.36,49.28852,0.04548517,-3.06986,0.89184
439.96,49.3476,0.04697909,-3.07169,0.89137
440.56,49.40655,0.04701861,-3.0739,0.8909
441.16,49.46573,0.05152357,-3.07506,0.89043
441.76,49.5247,0.05174556,-3.07527,0.88996
442.36,49.58379,0.05411943,-3.07531,0.88949
442.96,49.64278,0.05547267,-3.07775,0.88902
443.56,49.70152,0.05955489,-3.07899,0.88854
444.16,49.7605,0.05880376,-3.08054,0.88807
444.76,49.8197,0.05993612,-3.08053,0.8876
445.36,49.879,0.0629155,-3.08196,0.88712
445.96,49.93844,0.06339777,-3.08448,0.88665
446.56,49.9977,0.06386343,-3.0859,0.88617
447.16,50.0566,0.06388061,-3.08655,0.8857
447.76,50.11565,0.06488356,-3.08725,0.88522
448.36,50.17488,0.06383654,-3.0888,0.88475
448.96,50.23424,0.06586301,-3.08886,0.88427
449.56,50.2935,0.06731039,-3.09022,0.8838
450.16,50.35259,0.07042755,-3.09147,0.88332
450.76,50.4116,0.06853155,-3.09279,0.88284
451.36,50.4703,0.07128568,-3.09413,0.88237
451.96,50.5294,0.07157155,-3.09639,0.88189
452.56,50.58852,0.07286593,-3.09676,0.88141
453.16,50.64762,0.07230025,-3.09822,0.88093
453.76,50.707,0.07448035,-3.09949,0.88045
454.36,50.76605,0.07561526,-3.10082,0.87997
454.96,50.8255,0.0762964,-3.10149,0.87949
455.56,50.88476,0.0775991,-3.10255,0.87901
456.16,50.9441,0.07476599,-3.10379,0.87853
456.76,51.0035,0.07842786,-3.10509,0.87805
457.36,51.06292,0.08100077,-3.10647,0.87757
457.96,51.12223,0.07963763,-3.10774,0.87709
458.56,51.18148,0.08031302,-3.10665,0.87661
459.16,51.24066,0.08345523,-3.10778,0.87612
459.76,51.2996,0.08351195,-3.10905,0.87564
460.36,51.35883,0.08359974,-3.11037,0.87516
460.96,51.418,0.08582539,-3.11169,0.87467
461.56,51.47717,0.08515929,-3.11169,0.87419
462.16,51.53626,0.08515905,-3.11301,0.87371
462.76,51.5955,0.08809292,-3.11308,0.87322
463.36,51.65452,0.09027874,-3.11455,0.87274
463.96,51.71383,0.09040504,-3.11564,0.87225
464.56,51.7731,0.09283167,-3.11695,0.87177
465.16,51.8325,0.09390491,-3.11827,0.87128
465.76,51.89159,0.0984752,-3.11958,0.87079
466.36,51.95081,0.09793732,-3.11958,0.87031
466.96,52.00991,0.10185,-3.1209,0.86982
467.56,52.0689,0.10305,-3.11959,0.86933
468.16,52.12792,0.10487,-3.12089,0.86885
468.76,52.18703,0.10708,-3.1222,0.86836
469.36,52.24633,0.10864,-3.12352,0.86787
469.96,52.3054,0.10813,-3.12348,0.86738
470.56,52.3648,0.11199,-3.12484,0.86689
471.16,52.42412,0.114,-3.12489,0.8664
471.76,52.48353,0.11472,-3.12616,0.86591
472.36,52.54265,0.11697,-3.12624,0.86542
472.96,52.6019,0.1204,-3.12767,0.86493
473.56,52.66114,0.12142,-3.1289,0.86444
474.16,52.72044,0.12332,-3.1289,0.86395
474.76,52.77969,0.12445,-3.13022,0.86346
475.36,52.83908,0.12693,-3.13151,0.86297
475.96,52.89849,0.12924,-3.13285,0.86248
476.56,52.95795,0.13041,-3.13287,0.86198
477.16,53.0173,0.13259,-3.13417,0.86149
477.76,53.0767,0.13409,-3.13482,0.861
478.36,53.1363,0.13485,-3.13416,0.86051
478.96,53.19574,0.13661,-3.13547,0.86001
479.56,53.25535,0.1384,-3.13549,0.85952
480.16,53.31459,0.13645,-3.1368,0.85902
480.76,53.37396,0.13767,-3.13811,0.85853
481.36,53.43359,0.13688,-3.13811,0.85803
481.96,53.4929,0.14247,-3.13941,0.85754
482.56,53.55268,0.13964,-3.13938,0.85704
483.16,53.6122,0.14223,-3.14074,0.85655
483.76,53.6719,0.13925,-3.13985,0.85605
484.36,53.7315,0.14019,-3.14108,0.85556
484.96,53.7911,0.14167,-3.14106,0.85506
485.56,53.85066,0.1463,-3.1424,0.85456
486.16,53.91,0.14678,-3.14371,0.85406
486.76,53.96971,0.14571,-3.14402,0.85357
487.36,54.02938,0.14859,-3.14503,0.85307
487.96,54.08895,0.14989,-3.14498,0.85257
488.56,54.1486,0.1487,-3.14635,0.85207
489.16,54.208,0.14777,-3.14683,0.85157
489.76,54.2673,0.14993,-3.14757,0.85107
490.36,54.3267,0.14814,-3.14898,0.85057
490.96,54.38593,0.15082,-3.1503,0.85007
491.56,54.44542,0.15289,-3.15029,0.84957
492.16,54.50473,0.15321,-3.15112,0.84907
492.76,54.56422,0.15115,-3.15198,0.84857
493.36,54.62385,0.15359,-3.15294,0.84807
493.96,54.6832,0.15303,-3.15424,0.84757
494.56,54.7428,0.15245,-3.15424,0.84707
495.16,54.80222,0.15238,-3.15424,0.84656
495.76,54.86152,0.15311,-3.15562,0.84606
496.36,54.92091,0.15228,-3.15689,0.84556
496.96,54.98025,0.15383,-3.15753,0.84506
497.56,55.0395,0.15194,-3.15753,0.84455
498.16,55.099,0.15221,-3.15786,0.84405
498.76,55.15855,0.15245,-3.15917,0.84355
499.36,55.218,0.15194,-3.15997,0.84304
499.96,55.2776,0.15092,-3.15983,0.84254
500.56,55.3369,0.15138,-3.16114,0.84203
501.16,55.3964,0.15303,-3.16249,0.84153
501.76,55.4556,0.15313,-3.16379,0.84102
502.36,55.515,0.15172,-3.16379,0.84052
502.96,55.57435,0.15178,-3.16516,0.84001
503.56,55.63389,0.15355,-3.165,0.8395
504.16,55.69327,0.15095,-3.16512,0.839
504.76,55.7527,0.15386,-3.16642,0.83849
505.36,55.8124,0.15181,-3.16642,0.83798
505.96,55.8718,0.15337,-3.16642,0.83748
506.56,55.9315,0.15087,-3.16773,0.83697
507.16,55.99105,0.15194,-3.16773,0.83646
507.76,56.0506,0.15171,-3.16905,0.83595
508.36,56.11023,0.15166,-3.16905,0.83544
508.96,56.17,0.15103,-3.17102,0.83494
509.56,56.2297,0.15336,-3.17166,0.83443
510.16,56.28945,0.15186,-3.17267,0.83392
510.76,56.3491,0.15203,-3.17358,0.83341
511.36,56.40866,0.15253,-3.17399,0.8329
511.96,56.4683,0.15321,-3.17398,0.83239
512.56,56.528,0.15272,-3.1753,0.83188
513.16,56.5873,0.15316,-3.17526,0.83137
513.76,56.64695,0.15052,-3.17562,0.83085
514.36,56.7065,0.15551,-3.17563,0.83034
514.96,56.76665,0.15565,-3.17693,0.82983
515.56,56.8264,0.15311,-3.17694,0.82932
516.16,56.88626,0.15513,-3.17827,0.82881
516.76,56.9461,0.15343,-3.17959,0.8283
517.36,57.00557,0.15255,-3.17948,0.82778
517.96,57.06515,0.15357,-3.1809,0.82727
518.56,57.12469,0.15151,-3.18088,0.82676
519.16,57.18424,0.15335,-3.1807,0.82624
519.76,57.24394,0.1545,-3.18089,0.82573
520.36,57.30372,0.15332,-3.1822,0.82522
520.96,57.3636,0.15314,-3.18223,0.8247
521.56,57.42331,0.15194,-3.18381,0.82419
522.16,57.48294,0.15223,-3.18462,0.82367
522.76,57.54257,0.15285,-3.1849,0.82316
523.36,57.6022,0.15133,-3.18484,0.82264
523.96,57.66186,0.15296,-3.18616,0.82213
524.56,57.72153,0.15228,-3.18663,0.82161
525.16,57.78106,0.15362,-3.18746,0.8211
525.76,57.8408,0.15512,-3.18813,0.82058
526.36,57.90054,0.15295,-3.18851,0.82006
526.96,57.9604,0.15074,-3.18942,0.81955
527.56,58.02019,0.15057,-3.18912,0.81903
528.16,58.08019,0.15134,-3.19044,0.81851
528.76,58.14,0.15074,-3.19077,0.818
529.36,58.1998,0.14945,-3.19173,0.81748
529.96,58.2599,0.14955,-3.19076,0.81696
530.56,58.3196,0.15007,-3.19208,0.81644
531.16,58.3796,0.15084,-3.19274,0.81592
531.76,58.43962,0.14949,-3.19404,0.8154
532.36,58.4995,0.14714,-3.19472,0.81489
532.96,58.55933,0.14508,-3.19604,0.81437
533.56,58.61936,0.1474,-3.19599,0.81385
534.16,58.6792,0.1438,-3.19602,0.81333
534.76,58.73911,0.14471,-3.19603,0.81281
535.36,58.799,0.14278,-3.19734,0.81229
535.96,58.8591,0.14378,-3.19734,0.81177
536.56,58.9191,0.14259,-3.19734,0.81125
537.16,58.97894,0.14364,-3.19865,0.81073
537.76,59.03886,0.14304,-3.19866,0.8102
538.36,59.09862,0.14291,-3.19866,0.80968
538.96,59.15855,0.13834,-3.19998,0.80916
539.56,59.21839,0.14124,-3.19998,0.80864
540.16,59.2781,0.14208,-3.19994,0.80812
540.76,59.3379,0.13944,-3.2008,0.8076
541.36,59.39768,0.14205,-3.19998,0.80707
541.96,59.4574,0.14286,-3.20133,0.80655
542.56,59.51712,0.14165,-3.20172,0.80603
543.16,59.57695,0.14095,-3.20396,0.80551
543.76,59.63661,0.14088,-3.20522,0.80498
544.36,59.6965,0.14019,-3.20524,0.80446
544.96,59.7563,0.14173,-3.20652,0.80393
545.56,59.8161,0.14152,-3.20656,0.80341
546.16,59.8759,0.13866,-3.20559,0.80289
546.76,59.9355,0.13631,-3.20556,0.80236
547.36,59.99519,0.13659,-3.20695,0.80184
547.96,60.05491,0.13801,-3.20688,0.80131
548.56,60.11475,0.13613,-3.20716,0.80079
549.16,60.17468,0.13686,-3.20788,0.80026
549.76,60.2346,0.13771,-3.20787,0.79974
550.36,60.2944,0.13931,-3.2092,0.79921
550.96,60.35402,0.13975,-3.2082,0.79868
551.56,60.41378,0.14016,-3.20917,0.79816
552.16,60.47368,0.13856,-3.20952,0.79763
552.76,60.53363,0.13804,-3.20952,0.79711
553.36,60.5935,0.13621,-3.21115,0.79658
553.96,60.65339,0.13697,-3.21218,0.79605
554.56,60.71323,0.13509,-3.21177,0.79553
555.16,60.77299,0.13627,-3.21216,0.795
555.76,60.83269,0.13785,-3.21217,0.79447
556.36,60.8926,0.13736,-3.21347,0.79394
556.96,60.95256,0.13941,-3.21352,0.79341
557.56,61.01243,0.13963,-3.21347,0.79289
558.16,61.0722,0.13986,-3.21479,0.79236
558.76,61.13171,0.137,-3.21595,0.79183
559.36,61.19141,0.13872,-3.21511,0.7913
559.96,61.25134,0.13601,-3.21511,0.79077
560.56,61.31139,0.13784,-3.21588,0.79024
561.16,61.37144,0.13835,-3.21643,0.78971
561.76,61.4314,0.13393,-3.21775,0.78918
562.36,61.49126,0.13768,-3.21775,0.78865
562.96,61.5512,0.14068,-3.21775,0.78812
563.56,61.6111,0.13883,-3.21782,0.78759
564.16,61.6711,0.13901,-3.21874,0.78706
564.76,61.7311,0.13863,-3.21872,0.78653
565.36,61.79116,0.14108,-3.21874,0.786
565.96,61.85111,0.13965,-3.22005,0.78547
566.56,61.91118,0.13958,-3.22005,0.78494
567.16,61.9712,0.13736,-3.22049,0.78441
567.76,62.03111,0.13969,-3.22137,0.78388
568.36,62.0911,0.14001,-3.22273,0.78335
568.96,62.1509,0.14327,-3.22268,0.78281
569.56,62.2109,0.14326,-3.22268,0.78228
570.16,62.271,0.13922,-3.22244,0.78175
570.76,62.3311,0.14406,-3.22334,0.78122
571.36,62.391,0.13868,-3.22376,0.78068
571.96,62.45095,0.14466,-3.22465,0.78015
572.56,62.5111,0.14138,-3.22465,0.77962
573.16,62.5711,0.13983,-3.224,0.77909
573.76,62.63136,0.14183,-3.22532,0.77855
574.36,62.69149,0.14179,-3.22529,0.77802
574.96,62.75147,0.1427,-3.22664,0.77749
575.56,62.8115,0.14139,-3.22664,0.77695
576.16,62.8716,0.14095,-3.22664,0.77642
576.76,62.93147,0.14312,-3.2267,0.77588
577.36,62.9914,0.14403,-3.22795,0.77535
577.96,63.0514,0.14735,-3.22795,0.77481
578.56,63.1114,0.14838,-3.22927,0.77428
579.16,63.17131,0.15092,-3.22927,0.77374
579.76,63.23117,0.1483,-3.22927,0.77321
580.36,63.29107,0.1496,-3.22927,0.77267
580.96,63.35097,0.14842,-3.22922,0.77214
581.56,63.4109,0.14978,-3.22927,0.7716
582.16,63.47065,0.14946,-3.23058,0.77107
582.76,63.53063,0.15352,-3.23058,0.77053
583.36,63.59066,0.15186,-3.23058,0.77
583.96,63.6508,0.15171,-3.23058,0.76946
584.56,63.71095,0.15385,-3.23058,0.76892
585.16,63.7709,0.15434,-3.2319,0.76839
585.76,63.831,0.15509,-3.2319,0.76785
586.36,63.8911,0.15715,-3.23287,0.76731
586.96,63.9513,0.15731,-3.23321,0.76678
587.56,64.01165,0.16032,-3.23452,0.76624
588.16,64.07186,0.15854,-3.23453,0.7657
588.76,64.13214,0.1624,-3.23453,0.76517
589.36,64.1923,0.16086,-3.23449,0.76463
589.96,64.25245,0.15916,-3.23485,0.76409
590.56,64.3125,0.16038,-3.23486,0.76355
591.16,64.3727,0.16471,-3.23616,0.76301
591.76,64.43279,0.16354,-3.23617,0.76248
592.36,64.4931,0.16517,-3.23617,0.76194
592.96,64.5534,0.1629,-3.23617,0.7614
593.56,64.61366,0.1651,-3.23738,0.76086
594.16,64.67385,0.16576,-3.23741,0.76032
594.76,64.73388,0.167,-3.23881,0.75978
595.36,64.79378,0.16756,-3.23881,0.75924
595.96,64.8539,0.16988,-3.23881,0.75871
596.56,64.91405,0.17185,-3.23881,0.75817
597.16,64.97437,0.17295,-3.24011,0.75763
597.76,65.0346,0.17284,-3.24012,0.75709
598.36,65.09478,0.17585,-3.24043,0.75655
598.96,65.15467,0.17527,-3.24078,0.75601
599.56,65.215,0.17915,-3.24078,0.75547
600.16,65.2751,0.17746,-3.24049,0.75493
600.76,65.33545,0.18021,-3.24097,0.75439
601.36,65.39567,0.18052,-3.24177,0.75385
601.96,65.45595,0.18353,-3.24234,0.75331
602.56,65.5163,0.18472,-3.24309,0.75277
603.16,65.57675,0.18353,-3.2444,0.75222
603.76,65.6371,0.18411,-3.24441,0.75168
604.36,65.6975,0.18601,-3.24376,0.75114
604.96,65.75775,0.18597,-3.2437,0.7506
605.56,65.81825,0.18709,-3.24506,0.75006
606.16,65.87856,0.18711,-3.24502,0.74952
606.76,65.93885,0.18911,-3.2467,0.74898
607.36,65.99908,0.18962,-3.2467,0.74844
607.96,66.05928,0.19222,-3.24605,0.74789
608.56,66.11954,0.19283,-3.24605,0.74735
609.16,66.17998,0.19208,-3.24737,0.74681
609.76,66.24036,0.19365,-3.24737,0.74627
610.36,66.3006,0.19918,-3.24871,0.74573
610.96,66.36077,0.19767,-3.24868,0.74518
611.56,66.42112,0.20031,-3.24868,0.74464
612.16,66.4816,0.19875,-3.25,0.7441
612.76,66.54233,0.19874,-3.24867,0.74355
613.36,66.60239,0.20337,-3.24967,0.74301
613.96,66.66285,0.20584,-3.24964,0.74247
614.56,66.72332,0.20613,-3.24999,0.74193
615.16,66.7841,0.20947,-3.25001,0.74138
615.76,66.84425,0.21082,-3.25131,0.74084
616.36,66.90451,0.21197,-3.25131,0.7403
616.96,66.96465,0.21239,-3.25234,0.73975
617.56,67.0249,0.2164,-3.25263,0.73921
618.16,67.08502,0.21949,-3.25177,0.73866
618.76,67.14523,0.22225,-3.25165,0.73812
619.36,67.20558,0.2209,-3.25168,0.73758
619.96,67.266,0.22213,-3.25264,0.73703
620.56,67.3262,0.22383,-3.25395,0.73649
621.16,67.38634,0.2246,-3.25395,0.73594
621.76,67.44643,0.22412,-3.25398,0.7354
622.36,67.50666,0.22465,-3.25527,0.73486
622.96,67.567,0.22286,-3.25534,0.73431
623.56,67.62724,0.2248,-3.25395,0.73377
624.16,67.68774,0.22197,-3.25471,0.73322
624.76,67.748,0.22445,-3.25526,0.73268
625.36,67.8081,0.21907,-3.25526,0.73213
625.96,67.8683,0.22574,-3.25543,0.73159
626.56,67.9284,0.22108,-3.2579,0.73104
627.16,67.98859,0.21681,-3.25713,0.7305
627.76,68.0488,0.21957,-3.25789,0.72995
628.36,68.109,0.21769,-3.25789,0.7294
628.96,68.16897,0.21832,-3.25792,0.72886
629.56,68.22926,0.21348,-3.25855,0.72831
630.16,68.28954,0.21148,-3.25855,0.72777
630.76,68.35004,0.21136,-3.25855,0.72722
631.36,68.4104,0.21328,-3.25921,0.72668
631.96,68.47076,0.20796,-3.25987,0.72613
632.56,68.53105,0.20883,-3.25987,0.72558
633.16,68.59134,0.20611,-3.26118,0.72504
633.76,68.65176,0.20821,-3.26118,0.72449
634.36,68.7122,0.20432,-3.26118,0.72394
634.96,68.7727,0.20527,-3.26046,0.7234
635.56,68.83315,0.20704,-3.26183,0.72285
636.16,68.8934,0.20458,-3.26119,0.7223
636.76,68.95376,0.20193,-3.26119,0.72176
637.36,69.01411,0.20356,-3.26142,0.72121
637.96,69.07446,0.20074,-3.26354,0.72066
638.56,69.13481,0.1986,-3.26349,0.72012
639.16,69.19516,0.19987,-3.26349,0.71957
639.76,69.2554,0.19707,-3.26349,0.71902
640.36,69.31579,0.19716,-3.26443,0.71848
640.96,69.3763,0.19662,-3.2648,0.71793
641.56,69.43687,0.20061,-3.2648,0.71738
642.16,69.4974,0.19782,-3.26478,0.71683
642.76,69.55784,0.19916,-3.26414,0.71629
643.36,69.61827,0.19568,-3.2641,0.71574
643.96,69.67883,0.19814,-3.26546,0.71519
644.56,69.7394,0.19781,-3.26546,0.71464
645.16,69.79988,0.19723,-3.26481,0.7141
645.76,69.8604,0.1971,-3.26481,0.71355
646.36,69.92066,0.19516,-3.26546,0.713
646.96,69.9812,0.19635,-3.26684,0.71245
647.56,70.04154,0.19362,-3.26743,0.7119
648.16,70.1022,0.19228,-3.26611,0.71136
648.76,70.16261,0.19301,-3.26742,0.71081
649.36,70.22296,0.19845,-3.26744,0.71026
649.96,70.28325,0.19839,-3.26744,0.70971
650.56,70.3437,0.19446,-3.26744,0.70916
651.16,70.40419,0.19269,-3.2674,0.70861
651.76,70.46477,0.1944,-3.26876,0.70807
652.36,70.52531,0.19353,-3.26876,0.70752
652.96,70.58564,0.19288,-3.26876,0.70697
653.56,70.6461,0.19106,-3.26973,0.70642
654.16,70.7061,0.19126,-3.27007,0.70587
654.76,70.76674,0.19206,-3.27007,0.70532
655.36,70.82709,0.19229,-3.27007,0.70477
655.96,70.8874,0.19038,-3.27007,0.70422
656.56,70.94781,0.19225,-3.27106,0.70368
657.16,71.00803,0.19121,-3.26974,0.70313
657.76,71.06845,0.19457,-3.26993,0.70258
658.36,71.12892,0.19119,-3.27139,0.70203
658.96,71.18884,0.19309,-3.27139,0.70148
659.56,71.2492,0.19235,-3.2727,0.70093
660.16,71.3095,0.19352,-3.27138,0.70038
660.76,71.3699,0.19593,-3.27138,0.69983
661.36,71.43041,0.19337,-3.27204,0.69928
661.96,71.49076,0.19407,-3.2727,0.69873
662.56,71.55115,0.19263,-3.2727,0.69818
663.16,71.61145,0.19436,-3.27316,0.69763
663.76,71.67149,0.19439,-3.27402,0.69708
664.36,71.73164,0.19506,-3.27396,0.69653
664.96,71.7919,0.1912,-3.2727,0.69598
665.56,71.8523,0.18976,-3.2728,0.69544
666.16,71.91271,0.19194,-3.27402,0.69489
666.76,71.97281,0.19549,-3.27407,0.69434
667.36,72.03313,0.19355,-3.27264,0.69379
667.96,72.09335,0.1942,-3.27401,0.69324
668.56,72.15385,0.19185,-3.27401,0.69269
669.16,72.21421,0.19273,-3.27401,0.69214
669.76,72.27472,0.19268,-3.2741,0.69159
670.36,72.33535,0.19416,-3.275,0.69104
670.96,72.39573,0.19448,-3.27533,0.69049
671.56,72.45614,0.19377,-3.2763,0.68994
672.16,72.5164,0.1947,-3.27632,0.68939
672.76,72.57652,0.19181,-3.27632,0.68884
673.36,72.63675,0.18984,-3.27667,0.68829
673.96,72.69676,0.18997,-3.27763,0.68774
674.56,72.7569,0.19153,-3.27626,0.68719
675.16,72.8173,0.1915,-3.27632,0.68664
675.76,72.87796,0.19273,-3.27632,0.68609
676.36,72.93822,0.18922,-3.27762,0.68554
676.96,72.99889,0.19153,-3.2767,0.68499
677.56,73.0595,0.19022,-3.27665,0.68443
678.16,73.12006,0.18683,-3.27665,0.68388
678.76,73.18079,0.18677,-3.27764,0.68333
679.36,73.24144,0.18959,-3.27764,0.68278
679.96,73.30212,0.18516,-3.278,0.68223
680.56,73.36273,0.1836,-3.27797,0.68168
681.16,73.42315,0.18689,-3.27796,0.68113
681.76,73.4837,0.18303,-3.27796,0.68058
682.36,73.54427,0.18544,-3.27796,0.68003
682.96,73.605,0.18657,-3.27796,0.67948
683.56,73.6655,0.18399,-3.27905,0.67893
684.16,73.7262,0.18489,-3.27928,0.67838
684.76,73.78695,0.18574,-3.27928,0.67783
685.36,73.84755,0.18517,-3.27929,0.67728
685.96,73.90816,0.1854,-3.2806,0.67673
686.56,73.96865,0.18365,-3.2806,0.67618
687.16,74.02938,0.1832,-3.27999,0.67563
687.76,74.09011,0.18595,-3.27929,0.67508
688.36,74.1508,0.1842,-3.27929,0.67453
688.96,74.2115,0.18486,-3.2806,0.67398
689.56,74.27201,0.18176,-3.2806,0.67343
690.16,74.33256,0.18107,-3.28062,0.67287
690.76,74.393,0.18169,-3.28027,0.67232
691.36,74.45344,0.17936,-3.2802,0.67177
691.96,74.51396,0.18192,-3.28159,0.67122
692.56,74.57466,0.18115,-3.28159,0.67067
693.16,74.63534,0.17963,-3.28154,0.67012
693.76,74.69609,0.18153,-3.28291,0.66957
694.36,74.7569,0.17864,-3.28291,0.66902
694.96,74.81792,0.17636,-3.2819,0.66847
695.56,74.8789,0.17707,-3.28192,0.66792
696.16,74.94,0.17917,-3.28192,0.66737
696.76,75.00098,0.17735,-3.28192,0.66682
697.36,75.06161,0.17832,-3.28323,0.66627
697.96,75.12241,0.1737,-3.28223,0.66572
698.56,75.1831,0.17316,-3.28224,0.66517
699.16,75.24395,0.17509,-3.28361,0.66461
699.76,75.30492,0.17272,-3.28356,0.66406
700.36,75.36577,0.17154,-3.28356,0.66351
700.96,75.42635,0.1729,-3.28356,0.66296
701.56,75.48675,0.17081,-3.28356,0.66241
702.16,75.54724,0.17142,-3.28486,0.66186
702.76,75.60778,0.1703,-3.2849,0.66131
703.36,75.66856,0.16836,-3.28457,0.66076
703.96,75.7294,0.16644,-3.28323,0.66021
704.56,75.7901,0.16652,-3.28422,0.65966
705.16,75.8508,0.16455,-3.28454,0.65911
705.76,75.9116,0.16783,-3.28521,0.65856
706.36,75.97232,0.1635,-3.2852,0.65801
706.96,76.03301,0.16448,-3.2852,0.65746
707.56,76.0937,0.15977,-3.2852,0.65691
708.16,76.15423,0.15959,-3.2862,0.65636
708.76,76.21489,0.16196,-3.28652,0.65581
709.36,76.27569,0.16129,-3.28652,0.65526
709.96,76.3365,0.1622,-3.28581,0.6547
710.56,76.39731,0.1589,-3.28592,0.65415
711.16,76.458,0.15826,-3.28521,0.6536
711.76,76.51863,0.15847,-3.28524,0.65305
712.36,76.57943,0.15892,-3.28521,0.6525
712.96,76.6402,0.15935,-3.28522,0.65195
713.56,76.7012,0.15814,-3.28652,0.6514
714.16,76.76193,0.15954,-3.28784,0.65085
714.76,76.82266,0.15718,-3.28784,0.6503
715.36,76.88328,0.1586,-3.28918,0.64975
715.96,76.9439,0.15424,-3.29065,0.6492
716.56,77.00466,0.15543,-3.28779,0.64865
717.16,77.06555,0.15943,-3.28784,0.6481
717.76,77.12637,0.15857,-3.28784,0.64755
718.36,77.18711,0.15854,-3.28784,0.647
718.96,77.2477,0.15386,-3.28784,0.64645
719.56,77.3082,0.15976,-3.28784,0.6459
720.16,77.36861,0.16005,-3.28916,0.64535
720.76,77.4292,0.15723,-3.28915,0.6448
721.36,77.48983,0.15863,-3.29014,0.64425
721.96,77.55056,0.16035,-3.29014,0.6437
722.56,77.6114,0.15978,-3.29014,0.64315
723.16,77.67205,0.16297,-3.29022,0.6426
723.76,77.73283,0.16348,-3.29146,0.64205
724.36,77.79348,0.15956,-3.29138,0.6415
724.96,77.85419,0.16141,-3.29076,0.64095
725.56,77.91485,0.15772,-3.29212,0.6404
726.16,77.97545,0.16029,-3.29212,0.63985
726.76,78.03605,0.15909,-3.29212,0.6393
727.36,78.0966,0.16095,-3.29212,0.63875
727.96,78.15714,0.16365,-3.29163,0.6382
728.56,78.21777,0.15707,-3.29193,0.63766
729.16,78.27848,0.15834,-3.29277,0.63711
729.76,78.33941,0.15964,-3.29277,0.63656
730.36,78.4002,0.15984,-3.29409,0.63601
730.96,78.46105,0.15583,-3.29409,0.63546
731.56,78.5218,0.15927,-3.29409,0.63491
732.16,78.5826,0.16198,-3.29424,0.63436
732.76,78.64345,0.16148,-3.29443,0.63381
733.36,78.7043,0.1611,-3.29345,0.63326
733.96,78.76523,0.161,-3.29344,0.63271
734.56,78.8262,0.15853,-3.29361,0.63216
735.16,78.8871,0.15964,-3.2941,0.63161
735.76,78.94781,0.1632,-3.2961,0.63107
736.36,79.00867,0.16482,-3.29606,0.63052
736.96,79.0696,0.16017,-3.29608,0.62997
737.56,79.13036,0.15913,-3.29606,0.62942
738.16,79.1913,0.15702,-3.29673,0.62887
738.76,79.25235,0.16035,-3.29673,0.62832
739.36,79.3135,0.1606,-3.29673,0.62777
739.96,79.37416,0.16017,-3.29673,0.62722
740.56,79.435,0.15648,-3.29673,0.62668
741.16,79.4957,0.15873,-3.29673,0.62613
741.76,79.55643,0.15394,-3.29673,0.62558
742.36,79.61757,0.15902,-3.29691,0.62503
742.96,79.6784,0.16046,-3.29672,0.62448
743.56,79.7393,0.15689,-3.29672,0.62393
744.16,79.80003,0.15561,-3.29738,0.62339
744.76,79.8608,0.15767,-3.29941,0.62284
745.36,79.92171,0.15596,-3.29929,0.62229
745.96,79.9827,0.15957,-3.29804,0.62174
746.06,79.99303,0.15856,-3.29804,0.62165