File: 01_Data/Oak_Flooring/STA/N2/10K_min/Oak_Flooring_STA_N2_10KData_211208_R3.csv
##Temp./Â°C,Time/min,Mass loss(subtr.2)/mg,DSC(subtr.2)/(mW/mg),Sensit./(uV/mW)
49.281,10.01,-0.04398,0.02523498,1.07447
49.881,10.73606,-0.04607857,0.0587018,1.07443
50.481,10.9262,-0.04754734,0.08292149,1.07439
51.081,11.06798,-0.04757936,0.10294,1.07434
51.681,11.1873,-0.04755758,0.12091,1.0743
52.281,11.2941,-0.0479939,0.13897,1.07426
52.881,11.39205,-0.04884843,0.15114,1.07421
53.481,11.48301,-0.04752743,0.16396,1.07416
54.081,11.5694,-0.04831543,0.17606,1.07412
54.681,11.65195,-0.04962749,0.1852,1.07407
55.281,11.73128,-0.04893091,0.19315,1.07402
55.881,11.8088,-0.04937922,0.20058,1.07397
56.481,11.88488,-0.04919069,0.2102,1.07392
57.081,11.95942,-0.05098987,0.21452,1.07387
57.681,12.0318,-0.05059309,0.2228,1.07382
58.281,12.1031,-0.05141505,0.22805,1.07376
58.881,12.17335,-0.05063895,0.23426,1.07371
59.481,12.24317,-0.04999166,0.23855,1.07365
60.081,12.31197,-0.0510097,0.24191,1.0736
60.681,12.3809,-0.05071646,0.24682,1.07354
61.281,12.44933,-0.05097037,0.2496,1.07349
61.881,12.5174,-0.0524724,0.25329,1.07343
62.481,12.58455,-0.05238096,0.25569,1.07337
63.081,12.65123,-0.05243261,0.25918,1.07331
63.681,12.718,-0.05237996,0.26469,1.07325
64.281,12.7844,-0.05241047,0.26819,1.07319
64.881,12.85055,-0.05374141,0.26938,1.07312
65.481,12.91643,-0.0550354,0.27389,1.07306
66.081,12.98179,-0.05506611,0.27595,1.073
66.681,13.04689,-0.05375421,0.27821,1.07293
67.281,13.11161,-0.05516342,0.28296,1.07287
67.881,13.17639,-0.05505955,0.28476,1.0728
68.481,13.24115,-0.05440277,0.28775,1.07273
69.081,13.30595,-0.05604477,0.2901,1.07266
69.681,13.3702,-0.05669966,0.29286,1.07259
70.281,13.4347,-0.05637069,0.29646,1.07252
70.881,13.4985,-0.05643477,0.29845,1.07245
71.481,13.5622,-0.05637584,0.30345,1.07238
72.081,13.62584,-0.05721598,0.30676,1.07231
72.681,13.68956,-0.05766305,0.30788,1.07224
73.281,13.75336,-0.05769127,0.30933,1.07216
73.881,13.81679,-0.05901453,0.31177,1.07209
74.481,13.8805,-0.06032732,0.31416,1.07201
75.081,13.9435,-0.05901097,0.31536,1.07194
75.681,14.0068,-0.05901,0.31745,1.07186
76.281,14.0698,-0.05901,0.31982,1.07178
76.881,14.1326,-0.05900027,0.32077,1.0717
77.481,14.19529,-0.0590184,0.32294,1.07162
78.081,14.25769,-0.06163942,0.32525,1.07154
78.681,14.32001,-0.06164004,0.32758,1.07146
79.281,14.38241,-0.06158451,0.32996,1.07138
79.881,14.44476,-0.06158355,0.33274,1.07129
80.481,14.5069,-0.06165526,0.33253,1.07121
81.081,14.5686,-0.06295223,0.33573,1.07112
81.681,14.63018,-0.0629604,0.33559,1.07104
82.281,14.6918,-0.06427281,0.33839,1.07095
82.881,14.7539,-0.06428069,0.33743,1.07086
83.481,14.81538,-0.06559295,0.33875,1.07078
84.081,14.87698,-0.0645622,0.33941,1.07069
84.681,14.9381,-0.06460007,0.34156,1.0706
85.281,14.9993,-0.06522909,0.34318,1.07051
85.881,15.0606,-0.06591137,0.3415,1.07041
86.481,15.1214,-0.06723236,0.34292,1.07032
87.081,15.182,-0.06758858,0.34206,1.07023
87.681,15.24269,-0.06757305,0.34276,1.07013
88.281,15.3034,-0.06755391,0.34289,1.07004
88.881,15.36418,-0.06756,0.34363,1.06994
89.481,15.42504,-0.06756013,0.34252,1.06985
90.081,15.48541,-0.06895494,0.34409,1.06975
90.681,15.54565,-0.0693985,0.34321,1.06965
91.281,15.60566,-0.0715065,0.34457,1.06955
91.881,15.66595,-0.07018629,0.34304,1.06945
92.481,15.726,-0.07151528,0.34154,1.06935
93.081,15.7861,-0.07151,0.34108,1.06925
93.681,15.8456,-0.07150314,0.34056,1.06915
94.281,15.9053,-0.07281858,0.33951,1.06904
94.881,15.96485,-0.07179438,0.33989,1.06894
95.481,16.02433,-0.07183943,0.33795,1.06884
96.081,16.08398,-0.07190867,0.33949,1.06873
96.681,16.14345,-0.07283162,0.33836,1.06862
97.281,16.20286,-0.07414145,0.33757,1.06852
97.881,16.26227,-0.07548186,0.3368,1.06841
98.481,16.3219,-0.07406265,0.3358,1.0683
99.081,16.38127,-0.07417064,0.33635,1.06819
99.681,16.44055,-0.07414001,0.33812,1.06808
100.281,16.49982,-0.07413472,0.33616,1.06797
100.881,16.559,-0.07545982,0.33674,1.06786
101.481,16.61829,-0.07546003,0.33963,1.06774
102.081,16.67755,-0.07554993,0.3403,1.06763
102.681,16.73637,-0.07576971,0.34084,1.06751
103.281,16.7955,-0.07586015,0.34044,1.0674
103.881,16.8544,-0.07709989,0.34218,1.06728
104.481,16.91382,-0.07677975,0.34148,1.06716
105.081,16.97298,-0.07676947,0.34093,1.06705
105.681,17.03209,-0.07550395,0.3401,1.06693
106.281,17.09122,-0.07679474,0.33974,1.06681
106.881,17.15002,-0.07842154,0.34044,1.06669
107.481,17.20884,-0.07908006,0.3402,1.06657
108.081,17.26785,-0.07908309,0.33837,1.06644
108.681,17.3266,-0.07880458,0.33747,1.06632
109.281,17.3857,-0.07907982,0.33415,1.0662
109.881,17.44455,-0.07884754,0.33519,1.06607
110.481,17.5034,-0.07916556,0.33372,1.06595
111.081,17.56231,-0.07752937,0.33218,1.06582
111.681,17.62114,-0.07884773,0.33316,1.0657
112.281,17.67999,-0.08017001,0.33202,1.06557
112.881,17.73885,-0.08017,0.33161,1.06544
113.481,17.7977,-0.08017,0.33012,1.06531
114.081,17.8566,-0.08016314,0.32831,1.06518
114.681,17.9152,-0.08148872,0.32686,1.06505
115.281,17.97396,-0.08020593,0.32604,1.06492
115.881,18.03272,-0.08017953,0.32587,1.06478
116.481,18.09143,-0.08170952,0.32365,1.06465
117.081,18.1503,-0.08039213,0.3227,1.06452
117.681,18.20908,-0.08009857,0.32343,1.06438
118.281,18.2679,-0.07972994,0.32161,1.06425
118.881,18.32687,-0.07972996,0.32267,1.06411
119.481,18.38551,-0.08064395,0.32192,1.06397
120.081,18.4439,-0.08166304,0.32232,1.06383
120.681,18.50233,-0.08204428,0.3229,1.06369
121.281,18.5607,-0.08102649,0.3235,1.06355
121.881,18.6193,-0.08106002,0.32555,1.06341
122.481,18.6778,-0.08105989,0.32471,1.06327
123.081,18.73634,-0.08165175,0.32495,1.06313
123.681,18.7949,-0.08236868,0.32616,1.06299
124.281,18.85332,-0.08236864,0.3256,1.06284
124.881,18.91177,-0.08140131,0.32721,1.0627
125.481,18.97017,-0.08138099,0.32771,1.06255
126.081,19.02879,-0.08105023,0.32967,1.06241
126.681,19.08708,-0.08242661,0.33375,1.06226
127.281,19.1455,-0.0823737,0.33227,1.06211
127.881,19.204,-0.08106381,0.33152,1.06196
128.481,19.26235,-0.08104989,0.33436,1.06181
129.081,19.32046,-0.08174891,0.33208,1.06166
129.681,19.37876,-0.08204183,0.33295,1.06151
130.281,19.43714,-0.0817067,0.33574,1.06136
130.881,19.4955,-0.08139071,0.33531,1.06121
131.481,19.55415,-0.08175313,0.33507,1.06105
132.081,19.61254,-0.08270003,0.33617,1.0609
132.681,19.67073,-0.08269879,0.33715,1.06074
133.281,19.7289,-0.08236926,0.33698,1.06059
133.881,19.78714,-0.08367334,0.33722,1.06043
134.481,19.8455,-0.08236391,0.33858,1.06027
135.081,19.90374,-0.08236958,0.3401,1.06011
135.681,19.96207,-0.08344696,0.33987,1.05996
136.281,20.02038,-0.0833578,0.34046,1.0598
136.881,20.07864,-0.08490509,0.34135,1.05964
137.481,20.13701,-0.08456933,0.34055,1.05947
138.081,20.1952,-0.08268873,0.34242,1.05931
138.681,20.2534,-0.08269,0.34283,1.05915
139.281,20.31152,-0.08269074,0.34294,1.05898
139.881,20.36958,-0.0823596,0.34548,1.05882
140.481,20.4279,-0.08369299,0.34489,1.05865
141.081,20.4862,-0.08368001,0.34477,1.05849
141.681,20.54437,-0.08368011,0.34559,1.05832
142.281,20.60254,-0.08508819,0.34761,1.05815
142.881,20.66059,-0.08430106,0.3489,1.05798
143.481,20.7186,-0.08369002,0.34841,1.05781
144.081,20.77669,-0.08433754,0.34919,1.05764
144.681,20.83461,-0.08500004,0.352,1.05747
145.281,20.8925,-0.085,0.35051,1.0573
145.881,20.9506,-0.085,0.35021,1.05713
146.481,21.00873,-0.08499955,0.351,1.05696
147.081,21.06689,-0.08502835,0.35292,1.05678
147.681,21.12489,-0.08500002,0.3553,1.05661
148.281,21.1829,-0.08499971,0.35468,1.05643
148.881,21.2408,-0.08605262,0.35601,1.05625
149.481,21.2988,-0.08544091,0.35593,1.05608
150.081,21.35675,-0.08500573,0.3585,1.0559
150.681,21.41471,-0.08598563,0.36035,1.05572
151.281,21.47264,-0.08597042,0.36077,1.05554
151.881,21.53067,-0.08467982,0.36111,1.05536
152.481,21.5885,-0.08468007,0.36099,1.05518
153.081,21.64624,-0.08606284,0.36221,1.055
153.681,21.70402,-0.08599028,0.3617,1.05481
154.281,21.76171,-0.08523306,0.36393,1.05463
154.881,21.81962,-0.08500002,0.36385,1.05445
155.481,21.8776,-0.08636601,0.3656,1.05426
156.081,21.93538,-0.08632035,0.36521,1.05408
156.681,21.99329,-0.08739294,0.3673,1.05389
157.281,22.05111,-0.08730452,0.36633,1.0537
157.881,22.10899,-0.0863266,0.36956,1.05351
158.481,22.16679,-0.08597988,0.36747,1.05332
159.081,22.2245,-0.08598,0.36911,1.05313
159.681,22.28229,-0.08598003,0.3714,1.05294
160.281,22.34039,-0.08599261,0.371,1.05275
160.881,22.39829,-0.08729968,0.37185,1.05256
161.481,22.45603,-0.08732503,0.37259,1.05237
162.081,22.51365,-0.08466746,0.37349,1.05217
162.681,22.5715,-0.0882175,0.37445,1.05198
163.281,22.62941,-0.0870999,0.37278,1.05178
163.881,22.6875,-0.08708004,0.37392,1.05159
164.481,22.74535,-0.08707843,0.37632,1.05139
165.081,22.80309,-0.08576299,0.37816,1.05119
165.681,22.86082,-0.08682364,0.37591,1.051
166.281,22.91865,-0.08709001,0.38048,1.0508
166.881,22.97635,-0.08708974,0.37767,1.0506
167.481,23.03395,-0.08805883,0.38015,1.0504
168.081,23.0917,-0.08839995,0.38306,1.0502
168.681,23.14944,-0.08840112,0.38456,1.04999
169.281,23.2072,-0.08708768,0.38479,1.04979
169.881,23.2652,-0.08699648,0.38298,1.04959
170.481,23.3231,-0.08872924,0.38487,1.04938
171.081,23.38111,-0.08875744,0.38618,1.04918
171.681,23.43881,-0.08906004,0.38752,1.04897
172.281,23.49648,-0.08906003,0.38668,1.04876
172.881,23.55425,-0.08911886,0.38717,1.04856
173.481,23.6119,-0.08844199,0.38723,1.04835
174.081,23.6697,-0.08939009,0.38821,1.04814
174.681,23.7273,-0.08939,0.3884,1.04793
175.281,23.78499,-0.08938763,0.38827,1.04772
175.881,23.8424,-0.08971895,0.38847,1.04751
176.481,23.89994,-0.09103105,0.3921,1.0473
177.081,23.95727,-0.09037027,0.39206,1.04708
177.681,24.01424,-0.09036945,0.39246,1.04687
178.281,24.0718,-0.09005847,0.39544,1.04666
178.881,24.1294,-0.09103803,0.39535,1.04644
179.481,24.18698,-0.09103999,0.39551,1.04623
180.081,24.2449,-0.09102238,0.39463,1.04601
180.681,24.3023,-0.09038119,0.39565,1.04579
181.281,24.35988,-0.09037991,0.39667,1.04557
181.881,24.4174,-0.09135817,0.39719,1.04535
182.481,24.4749,-0.09266753,0.39543,1.04514
183.081,24.5323,-0.09153141,0.39871,1.04492
183.681,24.58955,-0.09136,0.39921,1.04469
184.281,24.64678,-0.09136,0.40093,1.04447
184.881,24.70425,-0.09134857,0.39986,1.04425
185.481,24.7619,-0.0919795,0.40102,1.04403
186.081,24.81924,-0.09137008,0.40011,1.0438
186.681,24.87664,-0.09268034,0.40154,1.04358
187.281,24.93395,-0.09268,0.40348,1.04335
187.881,24.99132,-0.09268,0.40239,1.04313
188.481,25.0488,-0.09268,0.40314,1.0429
189.081,25.10614,-0.09268,0.40389,1.04267
189.681,25.16356,-0.09268,0.40455,1.04244
190.281,25.22087,-0.09268106,0.40543,1.04221
190.881,25.27818,-0.09135907,0.40661,1.04198
191.481,25.33548,-0.0940909,0.40762,1.04175
192.081,25.39271,-0.09400767,0.40909,1.04152
192.681,25.45006,-0.09532012,0.4089,1.04129
193.281,25.50744,-0.09401899,0.40748,1.04106
193.881,25.56485,-0.09399976,0.41059,1.04082
194.481,25.62229,-0.0948381,0.41053,1.04059
195.081,25.67953,-0.09532819,0.40974,1.04035
195.681,25.73692,-0.09464977,0.41399,1.04012
196.281,25.79417,-0.09465,0.41438,1.03988
196.881,25.8516,-0.09465,0.41319,1.03964
197.481,25.909,-0.09465,0.41311,1.0394
198.081,25.96623,-0.09464951,0.41601,1.03916
198.681,26.02356,-0.09589263,0.41566,1.03893
199.281,26.08084,-0.09608105,0.4147,1.03868
199.881,26.1381,-0.09475725,0.4175,1.03844
200.481,26.1955,-0.09585124,0.4206,1.0382
201.081,26.2529,-0.09610372,0.42194,1.03796
201.681,26.31018,-0.09740005,0.42256,1.03772
202.281,26.36732,-0.09740001,0.42343,1.03747
202.881,26.42438,-0.09744121,0.42673,1.03723
203.481,26.4816,-0.09982201,0.42653,1.03698
204.081,26.53898,-0.09923502,0.42604,1.03674
204.681,26.59641,-0.09849999,0.42886,1.03649
205.281,26.6538,-0.09813409,0.43039,1.03624
205.881,26.71115,-0.09816999,0.43163,1.03599
206.481,26.7685,-0.09817,0.4322,1.03574
207.081,26.8257,-0.0982603,0.43434,1.03549
207.681,26.883,-0.1008,0.43528,1.03524
208.281,26.9402,-0.10079,0.43816,1.03499
208.881,26.9974,-0.10079,0.43952,1.03474
209.481,27.05473,-0.10079,0.43955,1.03449
210.081,27.1119,-0.10093,0.44093,1.03423
210.681,27.1693,-0.10211,0.4426,1.03398
211.281,27.2266,-0.10211,0.44361,1.03372
211.881,27.2838,-0.10308,0.44553,1.03347
212.481,27.34093,-0.10343,0.4458,1.03321
213.081,27.398,-0.10343,0.45057,1.03296
213.681,27.45525,-0.10278,0.45081,1.0327
214.281,27.51251,-0.10408,0.45377,1.03244
214.881,27.5696,-0.10409,0.45318,1.03218
215.481,27.62695,-0.10547,0.4537,1.03192
216.081,27.68425,-0.10541,0.45647,1.03166
216.681,27.7417,-0.10671,0.45721,1.0314
217.281,27.7994,-0.10766,0.45734,1.03114
217.881,27.8568,-0.10804,0.45874,1.03087
218.481,27.9138,-0.10707,0.45815,1.03061
219.081,27.97108,-0.10807,0.46131,1.03034
219.681,28.0282,-0.10888,0.4624,1.03008
220.281,28.08557,-0.11052,0.46344,1.02981
220.881,28.14313,-0.11198,0.46314,1.02955
221.481,28.20035,-0.11198,0.46439,1.02928
222.081,28.25767,-0.11276,0.46522,1.02901
222.681,28.3149,-0.11429,0.46698,1.02874
223.281,28.37213,-0.11482,0.4673,1.02848
223.881,28.42963,-0.1156,0.4665,1.02821
224.481,28.48715,-0.11562,0.46961,1.02793
225.081,28.5447,-0.11707,0.46965,1.02766
225.681,28.60223,-0.11858,0.47083,1.02739
226.281,28.65986,-0.11857,0.46973,1.02712
226.881,28.7175,-0.11988,0.46734,1.02685
227.481,28.7751,-0.1226,0.46839,1.02657
228.081,28.83245,-0.12392,0.46768,1.0263
228.681,28.88989,-0.12383,0.46822,1.02602
229.281,28.9472,-0.12512,0.46723,1.02574
229.881,29.00468,-0.12645,0.46877,1.02547
230.481,29.06216,-0.1276,0.46759,1.02519
231.081,29.11958,-0.12872,0.46544,1.02491
231.681,29.17717,-0.13039,0.46682,1.02463
232.281,29.23459,-0.13064,0.46641,1.02435
232.881,29.2919,-0.13312,0.46743,1.02407
233.481,29.34915,-0.13436,0.46715,1.02379
234.081,29.40638,-0.13426,0.46754,1.02351
234.681,29.46363,-0.13633,0.46958,1.02323
235.281,29.521,-0.13765,0.46923,1.02294
235.881,29.57848,-0.13898,0.46972,1.02266
236.481,29.63594,-0.14097,0.47019,1.02237
237.081,29.6933,-0.14229,0.47134,1.02209
237.681,29.7507,-0.14461,0.47292,1.0218
238.281,29.80807,-0.14613,0.47387,1.02152
238.881,29.8656,-0.14756,0.47354,1.02123
239.481,29.9231,-0.14997,0.47417,1.02094
240.081,29.98064,-0.15141,0.47774,1.02065
240.681,30.03821,-0.15304,0.47516,1.02036
241.281,30.0956,-0.15427,0.47862,1.02007
241.881,30.1531,-0.15684,0.47772,1.01978
242.481,30.2106,-0.15848,0.48184,1.01949
243.081,30.26803,-0.15846,0.48139,1.0192
243.681,30.3256,-0.15989,0.481,1.01891
244.281,30.38317,-0.16116,0.48364,1.01861
244.881,30.4406,-0.16448,0.48449,1.01832
245.481,30.49786,-0.16674,0.48468,1.01802
246.081,30.5551,-0.16937,0.48506,1.01773
246.681,30.6125,-0.171,0.48602,1.01743
247.281,30.66988,-0.17318,0.48497,1.01713
247.881,30.7273,-0.17542,0.48763,1.01684
248.481,30.7848,-0.17834,0.48541,1.01654
249.081,30.8422,-0.17977,0.48609,1.01624
249.681,30.8997,-0.1827,0.48884,1.01594
250.281,30.95703,-0.18519,0.48907,1.01564
250.881,31.01463,-0.18512,0.48894,1.01534
251.481,31.0722,-0.18808,0.49027,1.01504
252.081,31.12973,-0.19084,0.49111,1.01473
252.681,31.1874,-0.19421,0.49132,1.01443
253.281,31.2447,-0.19545,0.49286,1.01413
253.881,31.30208,-0.19869,0.49207,1.01382
254.481,31.35953,-0.20255,0.49333,1.01352
255.081,31.41698,-0.20597,0.49546,1.01321
255.681,31.47457,-0.20883,0.49597,1.01291
256.281,31.5321,-0.21155,0.49747,1.0126
256.881,31.58963,-0.21364,0.49813,1.01229
257.481,31.64725,-0.21712,0.4973,1.01198
258.081,31.70467,-0.21969,0.49768,1.01167
258.681,31.76215,-0.22315,0.49693,1.01137
259.281,31.81962,-0.22777,0.49774,1.01105
259.881,31.87701,-0.23142,0.49823,1.01074
260.481,31.93453,-0.23423,0.49881,1.01043
261.081,31.99202,-0.23882,0.49851,1.01012
261.681,32.0497,-0.24217,0.50017,1.00981
262.281,32.1068,-0.2467,0.50006,1.00949
262.881,32.16427,-0.25099,0.50016,1.00918
263.481,32.22177,-0.25512,0.50019,1.00886
264.081,32.27956,-0.25971,0.50028,1.00855
264.681,32.33723,-0.26262,0.50056,1.00823
265.281,32.39481,-0.26775,0.49979,1.00792
265.881,32.45239,-0.27257,0.4976,1.0076
266.481,32.50977,-0.2777,0.5001,1.00728
267.081,32.56734,-0.2859,0.50028,1.00696
267.681,32.62466,-0.28848,0.49771,1.00664
268.281,32.68221,-0.29439,0.49957,1.00632
268.881,32.7398,-0.30019,0.49577,1.006
269.481,32.79732,-0.30553,0.49589,1.00568
270.081,32.85502,-0.31034,0.49747,1.00536
270.681,32.9125,-0.31565,0.49479,1.00503
271.281,32.96998,-0.32236,0.49489,1.00471
271.881,33.02737,-0.3282,0.49386,1.00439
272.481,33.0848,-0.3354,0.49204,1.00406
273.081,33.1422,-0.34247,0.49212,1.00374
273.681,33.19977,-0.34932,0.4909,1.00341
274.281,33.25714,-0.35567,0.49202,1.00308
274.881,33.31442,-0.36369,0.4884,1.00276
275.481,33.37168,-0.37123,0.48744,1.00243
276.081,33.42899,-0.37767,0.48824,1.0021
276.681,33.48632,-0.38344,0.48494,1.00177
277.281,33.54394,-0.39104,0.48479,1.00144
277.881,33.60145,-0.39893,0.48209,1.00111
278.481,33.65885,-0.40739,0.48197,1.00078
279.081,33.71646,-0.41659,0.47882,1.00045
279.681,33.7738,-0.42511,0.47707,1.00011
280.281,33.83119,-0.43252,0.47582,0.99978
280.881,33.88865,-0.44158,0.47422,0.99945
281.481,33.94598,-0.45115,0.47244,0.99911
282.081,34.00342,-0.45967,0.46947,0.99878
282.681,34.06092,-0.4689,0.46482,0.99844
283.281,34.11847,-0.47914,0.46433,0.99811
283.881,34.17621,-0.48804,0.46201,0.99777
284.481,34.23381,-0.49718,0.46145,0.99743
285.081,34.29122,-0.50748,0.45925,0.99709
285.681,34.34881,-0.51906,0.45701,0.99676
286.281,34.40633,-0.52841,0.45353,0.99642
286.881,34.46399,-0.53914,0.45226,0.99608
287.481,34.52166,-0.54944,0.44977,0.99574
288.081,34.57917,-0.55985,0.44693,0.9954
288.681,34.6365,-0.5709,0.44318,0.99505
289.281,34.69401,-0.58156,0.44154,0.99471
289.881,34.75147,-0.59325,0.44067,0.99437
290.481,34.8091,-0.60477,0.43678,0.99402
291.081,34.8665,-0.61681,0.43742,0.99368
291.681,34.924,-0.62916,0.43307,0.99333
292.281,34.98155,-0.63753,0.43355,0.99299
292.881,35.03921,-0.65067,0.429,0.99264
293.481,35.09667,-0.66237,0.42786,0.9923
294.081,35.15423,-0.67333,0.42384,0.99195
294.681,35.21176,-0.68491,0.42296,0.9916
295.281,35.26928,-0.69786,0.42133,0.99125
295.881,35.32692,-0.71122,0.42006,0.9909
296.481,35.38456,-0.72389,0.41709,0.99055
297.081,35.4422,-0.73588,0.41574,0.9902
297.681,35.49968,-0.74767,0.41642,0.98985
298.281,35.5572,-0.76065,0.41425,0.9895
298.881,35.6147,-0.77392,0.41106,0.98915
299.481,35.6722,-0.78854,0.41338,0.98879
300.081,35.72992,-0.80037,0.40921,0.98844
300.681,35.78757,-0.81371,0.411,0.98809
301.281,35.84547,-0.82582,0.41168,0.98773
301.881,35.90313,-0.8388,0.40979,0.98738
302.481,35.96087,-0.85109,0.40888,0.98702
303.081,36.0186,-0.86299,0.41074,0.98666
303.681,36.07635,-0.87724,0.4115,0.98631
304.281,36.13409,-0.89005,0.41109,0.98595
304.881,36.19181,-0.90287,0.41174,0.98559
305.481,36.2494,-0.91726,0.41204,0.98523
306.081,36.3072,-0.93004,0.41287,0.98487
306.681,36.36493,-0.94398,0.41438,0.98451
307.281,36.42257,-0.95702,0.41591,0.98415
307.881,36.48017,-0.96955,0.41761,0.98379
308.481,36.53778,-0.98308,0.41914,0.98343
309.081,36.5955,-0.99641,0.42034,0.98307
309.681,36.65291,-1.01069,0.42237,0.9827
310.281,36.71058,-1.02315,0.4268,0.98234
310.881,36.76801,-1.03585,0.42608,0.98198
311.481,36.8258,-1.04991,0.43068,0.98161
312.081,36.88362,-1.06324,0.43361,0.98125
312.681,36.94153,-1.07798,0.43475,0.98088
313.281,36.99951,-1.09105,0.43876,0.98051
313.881,37.05749,-1.1041,0.44037,0.98015
314.481,37.1154,-1.11857,0.44469,0.97978
315.081,37.17322,-1.13165,0.44709,0.97941
315.681,37.2309,-1.14566,0.45228,0.97904
316.281,37.28864,-1.15818,0.45526,0.97867
316.881,37.34646,-1.1732,0.45867,0.9783
317.481,37.40433,-1.18594,0.46005,0.97793
318.081,37.46233,-1.20096,0.46189,0.97756
318.681,37.52022,-1.21306,0.46518,0.97719
319.281,37.5781,-1.22764,0.46918,0.97681
319.881,37.63601,-1.24237,0.47261,0.97644
320.481,37.6937,-1.25858,0.47646,0.97607
321.081,37.75161,-1.27368,0.47842,0.97569
321.681,37.80955,-1.28788,0.48138,0.97532
322.281,37.86765,-1.30413,0.4886,0.97494
322.881,37.92569,-1.32051,0.49041,0.97457
323.481,37.98345,-1.33517,0.49386,0.97419
324.081,38.04148,-1.34841,0.49417,0.97381
324.681,38.09935,-1.3642,0.50197,0.97344
325.281,38.15749,-1.37811,0.50388,0.97306
325.881,38.21561,-1.3939,0.50837,0.97268
326.481,38.2737,-1.41219,0.51007,0.9723
327.081,38.3316,-1.42689,0.51497,0.97192
327.681,38.38958,-1.44431,0.51758,0.97154
328.281,38.44777,-1.46023,0.52107,0.97116
328.881,38.50598,-1.47684,0.523,0.97078
329.481,38.5642,-1.4937,0.52861,0.97039
330.081,38.6223,-1.5119,0.53344,0.97001
330.681,38.68037,-1.529,0.5356,0.96963
331.281,38.73847,-1.54627,0.54095,0.96924
331.881,38.79638,-1.5647,0.54411,0.96886
332.481,38.85436,-1.58147,0.54833,0.96847
333.081,38.9123,-1.60086,0.55218,0.96809
333.681,38.97023,-1.61804,0.55533,0.9677
334.281,39.02833,-1.63665,0.55803,0.96732
334.881,39.08643,-1.65601,0.56182,0.96693
335.481,39.1447,-1.67475,0.56422,0.96654
336.081,39.20295,-1.69406,0.56915,0.96615
336.681,39.2611,-1.71405,0.57262,0.96576
337.281,39.31907,-1.73396,0.57919,0.96537
337.881,39.37705,-1.75437,0.58244,0.96498
338.481,39.4352,-1.77572,0.58886,0.96459
339.081,39.49333,-1.79485,0.59231,0.9642
339.681,39.55158,-1.81609,0.59658,0.96381
340.281,39.60969,-1.83603,0.59865,0.96342
340.881,39.66758,-1.85849,0.59978,0.96303
341.481,39.72572,-1.87938,0.60443,0.96263
342.081,39.78394,-1.90083,0.60909,0.96224
342.681,39.84248,-1.92209,0.61039,0.96184
343.281,39.9009,-1.9447,0.61184,0.96145
343.881,39.95904,-1.96713,0.6151,0.96105
344.481,40.01727,-1.99123,0.61542,0.96066
345.081,40.07523,-2.01439,0.61416,0.96026
345.681,40.13321,-2.03686,0.61512,0.95986
346.281,40.19121,-2.06127,0.61665,0.95947
346.881,40.24925,-2.08429,0.61504,0.95907
347.481,40.30758,-2.10897,0.61867,0.95867
348.081,40.36588,-2.1299,0.61683,0.95827
348.681,40.42434,-2.15417,0.61495,0.95787
349.281,40.48263,-2.17853,0.6166,0.95747
349.881,40.5409,-2.20327,0.61472,0.95707
350.481,40.599,-2.22751,0.61146,0.95667
351.081,40.65713,-2.25139,0.61072,0.95627
351.681,40.71515,-2.27633,0.60622,0.95586
352.281,40.77326,-2.2998,0.6021,0.95546
352.881,40.83155,-2.32614,0.6009,0.95506
353.481,40.88994,-2.34856,0.59448,0.95465
354.081,40.94843,-2.37273,0.59268,0.95425
354.681,41.0068,-2.39446,0.58556,0.95384
355.281,41.06494,-2.41923,0.57623,0.95344
355.881,41.1233,-2.44313,0.57078,0.95303
356.481,41.1815,-2.46726,0.56455,0.95263
357.081,41.23982,-2.48992,0.55889,0.95222
357.681,41.29826,-2.51484,0.54952,0.95181
358.281,41.3565,-2.53728,0.54102,0.9514
358.881,41.4148,-2.5591,0.5271,0.95099
359.481,41.4726,-2.58035,0.51857,0.95058
360.081,41.53072,-2.60092,0.50463,0.95017
360.681,41.58892,-2.62101,0.4911,0.94976
361.281,41.64719,-2.64092,0.47987,0.94935
361.881,41.70585,-2.66096,0.46677,0.94894
362.481,41.76424,-2.67869,0.45203,0.94853
363.081,41.82226,-2.69712,0.43728,0.94812
363.681,41.8804,-2.71461,0.42316,0.94771
364.281,41.93846,-2.73136,0.40824,0.94729
364.881,41.99669,-2.74512,0.39355,0.94688
365.481,42.0548,-2.75943,0.37605,0.94646
366.081,42.11309,-2.77467,0.36125,0.94605
366.681,42.17113,-2.78509,0.3456,0.94563
367.281,42.22909,-2.79699,0.33192,0.94522
367.881,42.28712,-2.80843,0.31411,0.9448
368.481,42.3451,-2.8186,0.29963,0.94438
369.081,42.40327,-2.82721,0.28652,0.94397
369.681,42.46156,-2.8373,0.27226,0.94355
370.281,42.51961,-2.84346,0.26124,0.94313
370.881,42.5777,-2.85059,0.24931,0.94271
371.481,42.6357,-2.85618,0.24051,0.94229
372.081,42.69383,-2.86194,0.23063,0.94187
372.681,42.75206,-2.86667,0.22394,0.94145
373.281,42.8103,-2.87205,0.21516,0.94103
373.881,42.86862,-2.87514,0.20871,0.94061
374.481,42.92686,-2.88061,0.20445,0.94019
375.081,42.98523,-2.88428,0.19634,0.93976
375.681,43.04353,-2.8877,0.19066,0.93934
376.281,43.10197,-2.89194,0.18415,0.93892
376.881,43.16032,-2.89398,0.18135,0.93849
377.481,43.21847,-2.89762,0.17656,0.93807
378.081,43.27669,-2.90112,0.17314,0.93764
378.681,43.33489,-2.90601,0.16884,0.93722
379.281,43.3932,-2.90677,0.16638,0.93679
379.881,43.45158,-2.90911,0.1608,0.93637
380.481,43.51005,-2.91194,0.15844,0.93594
381.081,43.5685,-2.91477,0.15658,0.93551
381.681,43.6269,-2.91701,0.15428,0.93509
382.281,43.68537,-2.91955,0.15204,0.93466
382.881,43.74373,-2.922,0.14658,0.93423
383.481,43.80226,-2.9251,0.14422,0.9338
384.081,43.86088,-2.92835,0.14052,0.93337
384.681,43.91938,-2.92958,0.13754,0.93294
385.281,43.9776,-2.93348,0.13234,0.93251
385.881,44.03598,-2.93561,0.12933,0.93208
386.481,44.0943,-2.93745,0.12868,0.93165
387.081,44.1527,-2.93935,0.12593,0.93121
387.681,44.21119,-2.94201,0.12172,0.93078
388.281,44.26984,-2.94396,0.12243,0.93035
388.881,44.32816,-2.94635,0.11846,0.92991
389.481,44.3865,-2.94788,0.11737,0.92948
390.081,44.44477,-2.94936,0.11495,0.92905
390.681,44.50332,-2.95187,0.11317,0.92861
391.281,44.56178,-2.95379,0.11032,0.92818
391.881,44.6203,-2.95592,0.1068,0.92774
392.481,44.67893,-2.9588,0.1053,0.9273
393.081,44.73748,-2.96053,0.10535,0.92687
393.681,44.79609,-2.96288,0.10064,0.92643
394.281,44.85445,-2.96527,0.09948124,0.92599
394.881,44.91278,-2.96745,0.0969777,0.92555
395.481,44.97125,-2.96899,0.0947277,0.92511
396.081,45.02967,-2.97092,0.09310729,0.92468
396.681,45.08835,-2.97312,0.09185465,0.92424
397.281,45.14695,-2.97498,0.0918623,0.9238
397.881,45.2055,-2.97589,0.0911564,0.92335
398.481,45.2641,-2.97757,0.08936711,0.92291
399.081,45.32248,-2.98056,0.08777664,0.92247
399.681,45.38112,-2.98357,0.08508326,0.92203
400.281,45.4398,-2.98488,0.08341695,0.92159
400.881,45.4985,-2.98683,0.08093665,0.92115
401.481,45.55727,-2.98928,0.08092523,0.9207
402.081,45.61603,-2.99178,0.07866292,0.92026
402.681,45.67442,-2.99442,0.07781593,0.91981
403.281,45.73323,-2.99576,0.07739963,0.91937
403.881,45.79193,-2.9977,0.07350791,0.91892
404.481,45.85052,-3.00001,0.07206945,0.91848
405.081,45.9093,-3.00283,0.07061949,0.91803
405.681,45.9681,-3.00421,0.07352105,0.91759
406.281,46.0267,-3.00554,0.07012853,0.91714
406.881,46.08545,-3.00558,0.06985738,0.91669
407.481,46.14407,-3.00781,0.0695987,0.91624
408.081,46.20267,-3.0095,0.06588892,0.9158
408.681,46.2613,-3.01229,0.0683976,0.91535
409.281,46.31997,-3.01494,0.06826633,0.9149
409.881,46.37862,-3.01658,0.06648993,0.91445
410.481,46.43757,-3.01927,0.06639476,0.914
411.081,46.49648,-3.01921,0.06803969,0.91355
411.681,46.55525,-3.02089,0.0661203,0.9131
412.281,46.61376,-3.02264,0.06884575,0.91265
412.881,46.67222,-3.02544,0.06377558,0.9122
413.481,46.73103,-3.0274,0.06436462,0.91174
414.081,46.7898,-3.02931,0.06459845,0.91129
414.681,46.84898,-3.03063,0.06461071,0.91084
415.281,46.90783,-3.03242,0.06249388,0.91038
415.881,46.96674,-3.03339,0.06415466,0.90993
416.481,47.02562,-3.03556,0.06682433,0.90948
417.081,47.08425,-3.03602,0.06692673,0.90902
417.681,47.143,-3.03742,0.0662901,0.90857
418.281,47.20172,-3.03971,0.06630489,0.90811
418.881,47.26059,-3.04104,0.06435641,0.90765
419.481,47.31966,-3.0431,0.06636471,0.9072
420.081,47.37856,-3.04555,0.0660485,0.90674
420.681,47.4375,-3.04684,0.06767133,0.90628
421.281,47.4963,-3.04832,0.06772481,0.90583
421.881,47.5554,-3.05011,0.06723093,0.90537
422.481,47.61444,-3.05171,0.06913205,0.90491
423.081,47.67327,-3.05346,0.06915099,0.90445
423.681,47.73226,-3.05388,0.0701517,0.90399
424.281,47.79126,-3.0567,0.07240862,0.90353
424.881,47.8503,-3.05805,0.07264518,0.90307
425.481,47.9093,-3.05804,0.07031184,0.90261
426.081,47.96816,-3.05956,0.07131426,0.90215
426.681,48.02709,-3.06165,0.07159786,0.90169
427.281,48.08593,-3.06494,0.0717828,0.90123
427.881,48.14499,-3.06486,0.07461637,0.90077
428.481,48.20385,-3.06699,0.07422634,0.9003
429.081,48.26279,-3.06759,0.0748706,0.89984
429.681,48.32177,-3.06938,0.07493552,0.89938
430.281,48.381,-3.06933,0.0793967,0.89891
430.881,48.44,-3.07197,0.07701096,0.89845
431.481,48.4989,-3.07454,0.07938296,0.89798
432.081,48.5578,-3.07596,0.07961371,0.89752
432.681,48.61687,-3.07724,0.08249606,0.89705
433.281,48.6759,-3.0778,0.08291578,0.89659
433.881,48.73516,-3.07997,0.08401125,0.89612
434.481,48.79424,-3.08141,0.08387302,0.89565
435.081,48.85334,-3.08273,0.08653616,0.89519
435.681,48.91236,-3.08402,0.08687218,0.89472
436.281,48.97145,-3.08546,0.08814331,0.89425
436.881,49.03065,-3.08706,0.0919421,0.89378
437.481,49.0899,-3.08864,0.09127876,0.89331
438.081,49.14897,-3.0893,0.09267036,0.89285
438.681,49.20797,-3.09063,0.0927977,0.89238
439.281,49.26712,-3.09152,0.09497534,0.89191
439.881,49.32618,-3.09295,0.09793724,0.89144
440.481,49.38525,-3.09563,0.09478948,0.89096
441.081,49.44445,-3.09688,0.09911951,0.89049
441.681,49.50365,-3.09816,0.10128,0.89002
442.281,49.56273,-3.09954,0.10007,0.88955
442.881,49.6219,-3.09954,0.10274,0.88908
443.481,49.681,-3.10064,0.10455,0.88861
444.081,49.7403,-3.10346,0.10399,0.88813
444.681,49.79947,-3.10477,0.10377,0.88766
445.281,49.85833,-3.10525,0.10576,0.88719
445.881,49.9176,-3.10591,0.1079,0.88671
446.481,49.97683,-3.10648,0.10666,0.88624
447.081,50.0362,-3.1074,0.1084,0.88576
447.681,50.095,-3.10873,0.10883,0.88529
448.281,50.15415,-3.11004,0.11118,0.88481
448.881,50.21327,-3.11018,0.11237,0.88434
449.481,50.27272,-3.11147,0.1107,0.88386
450.081,50.33186,-3.11267,0.11128,0.88338
450.681,50.391,-3.11397,0.11726,0.88291
451.281,50.45009,-3.1153,0.1174,0.88243
451.881,50.5092,-3.11663,0.12018,0.88195
452.481,50.5683,-3.11786,0.11952,0.88147
453.081,50.62728,-3.11903,0.12257,0.88099
453.681,50.68627,-3.11924,0.1227,0.88051
454.281,50.7454,-3.12056,0.12394,0.88003
454.881,50.80446,-3.12158,0.12308,0.87956
455.481,50.86367,-3.12188,0.12488,0.87908
456.081,50.92281,-3.12191,0.12593,0.87859
456.681,50.98187,-3.12317,0.12779,0.87811
457.281,51.0409,-3.12492,0.12736,0.87763
457.881,51.10005,-3.12714,0.12813,0.87715
458.481,51.15919,-3.12806,0.12971,0.87667
459.081,51.2184,-3.12846,0.13227,0.87619
459.681,51.27745,-3.12846,0.13374,0.8757
460.281,51.3364,-3.12978,0.13607,0.87522
460.881,51.39552,-3.12977,0.139,0.87474
461.481,51.4545,-3.1311,0.14106,0.87425
462.081,51.51362,-3.13246,0.14161,0.87377
462.681,51.57261,-3.13241,0.14547,0.87329
463.281,51.6316,-3.1337,0.1456,0.8728
463.881,51.6905,-3.13504,0.15111,0.87232
464.481,51.74955,-3.13504,0.15133,0.87183
465.081,51.8087,-3.13635,0.15316,0.87135
465.681,51.86777,-3.13767,0.15497,0.87086
466.281,51.92686,-3.13821,0.15629,0.87037
466.881,51.98603,-3.13963,0.16127,0.86989
467.481,52.04517,-3.13901,0.16207,0.8694
468.081,52.10434,-3.13899,0.16441,0.86891
468.681,52.16356,-3.14156,0.16885,0.86842
469.281,52.22274,-3.14307,0.16847,0.86793
469.881,52.2819,-3.14436,0.17438,0.86745
470.481,52.34115,-3.14436,0.17456,0.86696
471.081,52.40037,-3.14437,0.17464,0.86647
471.681,52.4596,-3.14437,0.17518,0.86598
472.281,52.5189,-3.14569,0.17761,0.86549
472.881,52.57826,-3.14701,0.18006,0.865
473.481,52.63755,-3.14832,0.1823,0.86451
474.081,52.6968,-3.14823,0.1848,0.86402
474.681,52.7562,-3.14953,0.1856,0.86353
475.281,52.8154,-3.15235,0.18969,0.86303
475.881,52.87466,-3.15224,0.18843,0.86254
476.481,52.93381,-3.15357,0.19097,0.86205
477.081,52.993,-3.15421,0.19094,0.86156
477.681,53.0523,-3.1549,0.19231,0.86106
478.281,53.11178,-3.15571,0.19585,0.86057
478.881,53.1713,-3.1562,0.19756,0.86008
479.481,53.2306,-3.1572,0.20194,0.85958
480.081,53.29,-3.15753,0.20112,0.85909
480.681,53.34941,-3.15886,0.19943,0.85859
481.281,53.409,-3.16016,0.20247,0.8581
481.881,53.46853,-3.15875,0.20247,0.8576
482.481,53.5277,-3.16011,0.20219,0.85711
483.081,53.58716,-3.1628,0.20401,0.85661
483.681,53.64668,-3.16282,0.20568,0.85612
484.281,53.70609,-3.16279,0.20268,0.85562
484.881,53.7657,-3.16412,0.20452,0.85512
485.481,53.8251,-3.16415,0.20523,0.85463
486.081,53.8845,-3.16674,0.20635,0.85413
486.681,53.944,-3.16708,0.20337,0.85363
487.281,54.00335,-3.16673,0.20486,0.85313
487.881,54.0627,-3.16674,0.20652,0.85264
488.481,54.1219,-3.16806,0.20548,0.85214
489.081,54.1812,-3.16937,0.20633,0.85164
489.681,54.24057,-3.17069,0.20829,0.85114
490.281,54.3,-3.17201,0.2062,0.85064
490.881,54.35943,-3.17201,0.20752,0.85014
491.481,54.419,-3.17334,0.20781,0.84964
492.081,54.4782,-3.17383,0.20736,0.84914
492.681,54.5375,-3.17464,0.20649,0.84864
493.281,54.59672,-3.1746,0.20826,0.84814
493.881,54.65594,-3.17694,0.20468,0.84763
494.481,54.7152,-3.17696,0.20878,0.84713
495.081,54.77462,-3.17827,0.20731,0.84663
495.681,54.83407,-3.17859,0.21063,0.84613
496.281,54.89369,-3.17876,0.20972,0.84563
496.881,54.95318,-3.1799,0.21056,0.84512
497.481,55.01263,-3.17985,0.20635,0.84462
498.081,55.0719,-3.18122,0.20918,0.84412
498.681,55.13139,-3.18254,0.20821,0.84361
499.281,55.1906,-3.18353,0.20771,0.84311
499.881,55.24989,-3.18352,0.2055,0.8426
500.481,55.30924,-3.18484,0.20733,0.8421
501.081,55.3686,-3.18484,0.20602,0.84159
501.681,55.4278,-3.18486,0.20868,0.84109
502.281,55.48737,-3.18495,0.20764,0.84058
502.881,55.5468,-3.18631,0.20767,0.84008
503.481,55.6064,-3.18752,0.2066,0.83957
504.081,55.6659,-3.1889,0.20328,0.83906
504.681,55.72531,-3.19022,0.19819,0.83856
505.281,55.7848,-3.19021,0.19542,0.83805
505.881,55.84421,-3.19024,0.1957,0.83754
506.481,55.9036,-3.19153,0.19014,0.83704
507.081,55.96323,-3.19153,0.18844,0.83653
507.681,56.023,-3.19162,0.1837,0.83602
508.281,56.08265,-3.19255,0.17966,0.83551
508.881,56.14246,-3.19285,0.17563,0.835
509.481,56.202,-3.19417,0.17129,0.83449
510.081,56.26161,-3.19417,0.17021,0.83398
510.681,56.3214,-3.19418,0.16682,0.83347
511.281,56.381,-3.19548,0.16493,0.83296
511.881,56.4407,-3.1968,0.16306,0.83245
512.481,56.50026,-3.1968,0.16114,0.83194
513.081,56.55975,-3.19812,0.16012,0.83143
513.681,56.61942,-3.1981,0.15642,0.83092
514.281,56.67896,-3.19943,0.15483,0.83041
514.881,56.73881,-3.19943,0.15459,0.8299
515.481,56.7986,-3.20075,0.15216,0.82939
516.081,56.8584,-3.20159,0.15382,0.82888
516.681,56.9182,-3.20206,0.14794,0.82836
517.281,56.9778,-3.20209,0.15032,0.82785
517.881,57.0375,-3.20247,0.15202,0.82734
518.481,57.09712,-3.20239,0.14697,0.82683
519.081,57.1567,-3.20371,0.14633,0.82631
519.681,57.2164,-3.20365,0.1431,0.8258
520.281,57.2761,-3.20634,0.14229,0.82528
520.881,57.33582,-3.20635,0.14196,0.82477
521.481,57.39564,-3.20639,0.13972,0.82426
522.081,57.45531,-3.20634,0.13851,0.82374
522.681,57.51477,-3.20634,0.13771,0.82323
523.281,57.57453,-3.20771,0.13749,0.82271
523.881,57.6342,-3.20864,0.13443,0.8222
524.481,57.69392,-3.20897,0.13386,0.82168
525.081,57.7539,-3.20897,0.1337,0.82116
525.681,57.8136,-3.20893,0.13293,0.82065
526.281,57.87353,-3.21029,0.12867,0.82013
526.881,57.93346,-3.21158,0.1306,0.81962
527.481,57.99324,-3.21291,0.1259,0.8191
528.081,58.05308,-3.2116,0.12754,0.81858
528.681,58.11254,-3.21247,0.12874,0.81806
529.281,58.17219,-3.21425,0.12774,0.81755
529.881,58.2318,-3.21321,0.1252,0.81703
530.481,58.29166,-3.21456,0.12367,0.81651
531.081,58.35145,-3.21588,0.12368,0.81599
531.681,58.4114,-3.21454,0.12436,0.81547
532.281,58.4713,-3.21588,0.12389,0.81495
532.881,58.531,-3.21587,0.12329,0.81443
533.481,58.591,-3.2172,0.12103,0.81392
534.081,58.65087,-3.2172,0.1206,0.8134
534.681,58.71076,-3.21818,0.11749,0.81288
535.281,58.7704,-3.21818,0.11565,0.81236
535.881,58.8301,-3.21818,0.11378,0.81184
536.481,58.88985,-3.21851,0.112,0.81132
537.081,58.94959,-3.21983,0.1072,0.81079
537.681,59.00949,-3.22111,0.11082,0.81027
538.281,59.0692,-3.22114,0.10712,0.80975
538.881,59.12907,-3.22115,0.1059,0.80923
539.481,59.18889,-3.22246,0.10676,0.80871
540.081,59.24869,-3.22246,0.10545,0.80819
540.681,59.30846,-3.22246,0.10523,0.80766
541.281,59.36824,-3.22266,0.10474,0.80714
541.881,59.428,-3.22378,0.1032,0.80662
542.481,59.4878,-3.225,0.10326,0.8061
543.081,59.54765,-3.22509,0.10274,0.80557
543.681,59.6075,-3.22644,0.10298,0.80505
544.281,59.6673,-3.22632,0.09995775,0.80453
544.881,59.72725,-3.22773,0.09552332,0.804
545.481,59.7867,-3.22773,0.09701285,0.80348
546.081,59.84641,-3.22772,0.09524025,0.80296
546.681,59.90625,-3.22904,0.09509666,0.80243
547.281,59.96606,-3.22904,0.09581837,0.80191
547.881,60.02606,-3.23037,0.09357035,0.80138
548.481,60.08595,-3.23036,0.0958733,0.80086
549.081,60.1456,-3.23036,0.09628423,0.80033
549.681,60.2055,-3.22906,0.09323151,0.79981
550.281,60.26546,-3.23013,0.09139972,0.79928
550.881,60.32572,-3.23132,0.0938566,0.79875
551.481,60.3857,-3.23299,0.09125125,0.79823
552.081,60.4459,-3.23242,0.08845238,0.7977
552.681,60.5057,-3.23299,0.0888926,0.79718
553.281,60.5656,-3.23527,0.08837682,0.79665
553.881,60.6255,-3.2355,0.08821991,0.79612
554.481,60.6854,-3.23463,0.08924042,0.79559
555.081,60.7453,-3.23462,0.08636589,0.79507
555.681,60.805,-3.23595,0.08714057,0.79454
556.281,60.8651,-3.23595,0.08593448,0.79401
556.881,60.92535,-3.23732,0.08404188,0.79348
557.481,60.9854,-3.23727,0.08285133,0.79296
558.081,61.0455,-3.23867,0.08368595,0.79243
558.681,61.1055,-3.23858,0.08381925,0.7919
559.281,61.16555,-3.23892,0.07906862,0.79137
559.881,61.2255,-3.23989,0.07757759,0.79084
560.481,61.2858,-3.24047,0.07703866,0.79031
561.081,61.3458,-3.24187,0.07897148,0.78978
561.681,61.40571,-3.24165,0.07848438,0.78925
562.281,61.4657,-3.24188,0.07969213,0.78872
562.881,61.5256,-3.24188,0.07874359,0.78819
563.481,61.58557,-3.24223,0.07936335,0.78766
564.081,61.6456,-3.24353,0.07906057,0.78713
564.681,61.70556,-3.24353,0.0796641,0.7866
565.281,61.76543,-3.24485,0.07842087,0.78607
565.881,61.8253,-3.24484,0.07648189,0.78554
566.481,61.8851,-3.24511,0.07631084,0.78501
567.081,61.9453,-3.24615,0.0755157,0.78448
567.681,62.00551,-3.24593,0.07705774,0.78395
568.281,62.0658,-3.24609,0.07605837,0.78342
568.881,62.12594,-3.24682,0.07430114,0.78288
569.481,62.1859,-3.24682,0.07391546,0.78235
570.081,62.2458,-3.24814,0.07421289,0.78182
570.681,62.3057,-3.24813,0.0711706,0.78129
571.281,62.3657,-3.24906,0.07305788,0.78075
571.881,62.4256,-3.24945,0.07246152,0.78022
572.481,62.48568,-3.25038,0.07199695,0.77969
573.081,62.5457,-3.25076,0.07512905,0.77916
573.681,62.60579,-3.25076,0.07645759,0.77862
574.281,62.66591,-3.25076,0.0748822,0.77809
574.881,62.726,-3.25208,0.07379711,0.77756
575.481,62.786,-3.25076,0.07437446,0.77702
576.081,62.8461,-3.25208,0.07451475,0.77649
576.681,62.9062,-3.25339,0.07370244,0.77595
577.281,62.96634,-3.2534,0.07361836,0.77542
577.881,63.0264,-3.25471,0.07220653,0.77488
578.481,63.0866,-3.25471,0.07334081,0.77435
579.081,63.1469,-3.25471,0.07430277,0.77382
579.681,63.2071,-3.25471,0.07227225,0.77328
580.281,63.26712,-3.25601,0.07200737,0.77275
580.881,63.32736,-3.25668,0.07008482,0.77221
581.481,63.3875,-3.25669,0.07504567,0.77167
582.081,63.44771,-3.25666,0.07548722,0.77114
582.681,63.50787,-3.25866,0.07482143,0.7706
583.281,63.56795,-3.25865,0.07495151,0.77007
583.881,63.62806,-3.25733,0.07516746,0.76953
584.481,63.6883,-3.25866,0.07478626,0.76899
585.081,63.7485,-3.25863,0.07583608,0.76846
585.681,63.8087,-3.25997,0.07722549,0.76792
586.281,63.86877,-3.25994,0.07386344,0.76738
586.881,63.9289,-3.26129,0.07273489,0.76685
587.481,63.98914,-3.26004,0.07610155,0.76631
588.081,64.04943,-3.25998,0.07434862,0.76577
588.681,64.10953,-3.26128,0.07593011,0.76524
589.281,64.16977,-3.2613,0.07655547,0.7647
589.881,64.22991,-3.2613,0.07634808,0.76416
590.481,64.29008,-3.26359,0.07814148,0.76362
591.081,64.35025,-3.26359,0.07620753,0.76309
591.681,64.41039,-3.26229,0.07701793,0.76255
592.281,64.47052,-3.26331,0.07974021,0.76201
592.881,64.53067,-3.26393,0.08214839,0.76147
593.481,64.5907,-3.26464,0.08274457,0.76093
594.081,64.65082,-3.26589,0.08293625,0.76039
594.681,64.71119,-3.26589,0.08351427,0.75985
595.281,64.77131,-3.26627,0.08344793,0.75932
595.881,64.83145,-3.26525,0.08321843,0.75878
596.481,64.89157,-3.2659,0.08372145,0.75824
597.081,64.95189,-3.26702,0.08593695,0.7577
597.681,65.0121,-3.26722,0.08924434,0.75716
598.281,65.0723,-3.26754,0.09004597,0.75662
598.881,65.13246,-3.26755,0.0930005,0.75608
599.481,65.19261,-3.26754,0.092245,0.75554
600.081,65.25288,-3.26819,0.09717775,0.755
600.681,65.31312,-3.26949,0.09690376,0.75446
601.281,65.37323,-3.26952,0.09881804,0.75392
601.881,65.43333,-3.26952,0.09824517,0.75338
602.481,65.49334,-3.26972,0.09548738,0.75284
603.081,65.55341,-3.27096,0.10123,0.7523
603.681,65.6135,-3.27018,0.10282,0.75175
604.281,65.67371,-3.27114,0.10584,0.75121
604.881,65.734,-3.27149,0.10727,0.75067
605.481,65.79428,-3.27149,0.10945,0.75013
606.081,65.85446,-3.27149,0.11304,0.74959
606.681,65.91462,-3.27279,0.11415,0.74905
607.281,65.9747,-3.27149,0.11783,0.74851
607.881,66.03471,-3.27273,0.11937,0.74796
608.481,66.09488,-3.2728,0.11944,0.74742
609.081,66.15505,-3.2728,0.12267,0.74688
609.681,66.2153,-3.27406,0.12621,0.74634
610.281,66.2754,-3.27476,0.12656,0.7458
610.881,66.3356,-3.27478,0.1286,0.74525
611.481,66.39583,-3.27609,0.12856,0.74471
612.081,66.45605,-3.2761,0.13505,0.74417
612.681,66.51624,-3.27611,0.13473,0.74363
613.281,66.5766,-3.27478,0.14045,0.74308
613.881,66.63684,-3.27707,0.13933,0.74254
614.481,66.6972,-3.27733,0.14406,0.742
615.081,66.75755,-3.27732,0.1451,0.74145
615.681,66.8177,-3.27743,0.14688,0.74091
616.281,66.878,-3.27744,0.14671,0.74037
616.881,66.93821,-3.27873,0.14814,0.73982
617.481,66.9985,-3.27838,0.1512,0.73928
618.081,67.05895,-3.27874,0.1518,0.73874
618.681,67.11928,-3.27875,0.15702,0.73819
619.281,67.17975,-3.27873,0.15558,0.73765
619.881,67.2401,-3.27906,0.15778,0.7371
620.481,67.30043,-3.28038,0.15825,0.73656
621.081,67.36064,-3.28038,0.16013,0.73602
621.681,67.4208,-3.28038,0.16351,0.73547
622.281,67.48101,-3.28174,0.16199,0.73493
622.881,67.5414,-3.283,0.16407,0.73438
623.481,67.60181,-3.28169,0.16377,0.73384
624.081,67.6623,-3.28302,0.1631,0.73329
624.681,67.7225,-3.28301,0.16507,0.73275
625.281,67.7826,-3.28301,0.16441,0.7322
625.881,67.84273,-3.28432,0.16558,0.73166
626.481,67.9027,-3.28301,0.1681,0.73111
627.081,67.96299,-3.28303,0.16566,0.73057
627.681,68.02295,-3.28434,0.1682,0.73002
628.281,68.0831,-3.28551,0.16902,0.72948
628.881,68.14325,-3.28437,0.17149,0.72893
629.481,68.20358,-3.28663,0.17607,0.72838
630.081,68.26387,-3.28663,0.17835,0.72784
630.681,68.32422,-3.2866,0.17758,0.72729
631.281,68.3844,-3.28695,0.1823,0.72675
631.881,68.44452,-3.28828,0.18218,0.7262
632.481,68.50474,-3.28826,0.17975,0.72566
633.081,68.5652,-3.28762,0.18153,0.72511
633.681,68.62562,-3.28901,0.17801,0.72456
634.281,68.6862,-3.28904,0.17816,0.72402
634.881,68.74656,-3.28794,0.17672,0.72347
635.481,68.80695,-3.28912,0.1777,0.72292
636.081,68.86749,-3.28917,0.17614,0.72238
636.681,68.92788,-3.29058,0.17817,0.72183
637.281,68.98815,-3.29002,0.17637,0.72128
637.881,69.04853,-3.28992,0.17826,0.72074
638.481,69.10893,-3.28992,0.17748,0.72019
639.081,69.16956,-3.29123,0.17712,0.71964
639.681,69.23012,-3.29123,0.17916,0.7191
640.281,69.2906,-3.29122,0.17933,0.71855
640.881,69.35109,-3.29255,0.17579,0.718
641.481,69.41159,-3.29149,0.17921,0.71745
642.081,69.47197,-3.29288,0.17946,0.71691
642.681,69.53233,-3.29288,0.17985,0.71636
643.281,69.59265,-3.29158,0.18002,0.71581
643.881,69.6529,-3.29288,0.17838,0.71526
644.481,69.71336,-3.29288,0.17871,0.71472
645.081,69.7737,-3.29288,0.18004,0.71417
645.681,69.83402,-3.29288,0.18038,0.71362
646.281,69.89464,-3.29311,0.17936,0.71307
646.881,69.9551,-3.29419,0.18098,0.71252
647.481,70.01496,-3.29419,0.18036,0.71198
648.081,70.0754,-3.29419,0.18122,0.71143
648.681,70.1357,-3.29514,0.18163,0.71088
649.281,70.1966,-3.29551,0.18366,0.71033
649.881,70.2573,-3.29551,0.18248,0.70978
650.481,70.31786,-3.29551,0.18422,0.70923
651.081,70.3783,-3.29682,0.18549,0.70869
651.681,70.43887,-3.29682,0.18399,0.70814
652.281,70.49936,-3.29682,0.18412,0.70759
652.881,70.55988,-3.2965,0.18462,0.70704
653.481,70.62055,-3.29712,0.18178,0.70649
654.081,70.68109,-3.29683,0.18135,0.70594
654.681,70.7416,-3.29685,0.1845,0.70539
655.281,70.80211,-3.29551,0.18324,0.70485
655.881,70.86235,-3.29666,0.1815,0.7043
656.481,70.92273,-3.29691,0.18291,0.70375
657.081,70.98312,-3.29718,0.18336,0.7032
657.681,71.04355,-3.29815,0.17764,0.70265
658.281,71.10393,-3.29815,0.18323,0.7021
658.881,71.16431,-3.29815,0.18432,0.70155
659.481,71.22485,-3.29783,0.18287,0.701
660.081,71.2854,-3.29696,0.18228,0.70045
660.681,71.3459,-3.29818,0.18412,0.6999
661.281,71.40647,-3.29814,0.18338,0.69935
661.881,71.46706,-3.29933,0.18273,0.6988
662.481,71.52753,-3.29809,0.18244,0.69826
663.081,71.58807,-3.29946,0.18186,0.69771
663.681,71.6486,-3.29946,0.18401,0.69716
664.281,71.70902,-3.29946,0.18284,0.69661
664.881,71.76954,-3.29946,0.18391,0.69606
665.481,71.82989,-3.29946,0.18579,0.69551
666.081,71.8903,-3.29946,0.18572,0.69496
666.681,71.95089,-3.30078,0.18349,0.69441
667.281,72.0115,-3.30078,0.18359,0.69386
667.881,72.07217,-3.30209,0.18627,0.69331
668.481,72.1326,-3.30209,0.18599,0.69276
669.081,72.19291,-3.30209,0.18619,0.69221
669.681,72.25321,-3.30209,0.18601,0.69166
670.281,72.31345,-3.30209,0.18692,0.69111
670.881,72.37387,-3.30209,0.18838,0.69056
671.481,72.43428,-3.30209,0.18718,0.69001
672.081,72.4948,-3.30204,0.18692,0.68946
672.681,72.55526,-3.3027,0.18759,0.68891
673.281,72.61579,-3.30243,0.18434,0.68836
673.881,72.6764,-3.30378,0.18563,0.68781
674.481,72.73703,-3.30372,0.18832,0.68726
675.081,72.7976,-3.30243,0.18811,0.68671
675.681,72.8582,-3.30374,0.18469,0.68616
676.281,72.91871,-3.30506,0.18683,0.68561
676.881,72.97905,-3.30506,0.18597,0.68506
677.481,73.0394,-3.30506,0.19009,0.68451
678.081,73.0999,-3.30506,0.18702,0.68396
678.681,73.16033,-3.30506,0.18586,0.68341
679.281,73.22112,-3.30506,0.18912,0.68286
679.881,73.28161,-3.30506,0.186,0.68231
680.481,73.34222,-3.30575,0.18679,0.68176
681.081,73.4027,-3.30572,0.18323,0.68121
681.681,73.46325,-3.3054,0.18754,0.68065
682.281,73.5236,-3.30539,0.18249,0.6801
682.881,73.58406,-3.30605,0.18364,0.67955
683.481,73.64461,-3.30605,0.18582,0.679
684.081,73.70522,-3.30769,0.1786,0.67845
684.681,73.76603,-3.30766,0.17903,0.6779
685.281,73.82682,-3.30637,0.17735,0.67735
685.881,73.88755,-3.30637,0.17894,0.6768
686.481,73.9482,-3.30762,0.18034,0.67625
687.081,74.00868,-3.30769,0.17807,0.6757
687.681,74.06942,-3.30769,0.17816,0.67515
688.281,74.1302,-3.30769,0.17802,0.6746
688.881,74.19102,-3.30769,0.17691,0.67405
689.481,74.2517,-3.30834,0.17644,0.6735
690.081,74.31245,-3.30835,0.18078,0.67295
690.681,74.3728,-3.30775,0.17741,0.6724
691.281,74.43375,-3.30834,0.17912,0.67185
691.881,74.49457,-3.30966,0.17657,0.6713
692.481,74.5555,-3.30966,0.17708,0.67074
693.081,74.6165,-3.30966,0.17923,0.67019
693.681,74.67729,-3.30966,0.175,0.66964
694.281,74.7379,-3.30966,0.17506,0.66909
694.881,74.7989,-3.30961,0.17987,0.66854
695.481,74.85976,-3.31098,0.17411,0.66799
696.081,74.92066,-3.31098,0.17176,0.66744
696.681,74.9816,-3.31228,0.17616,0.66689
697.281,75.0424,-3.31163,0.17407,0.66634
697.881,75.10319,-3.31163,0.17091,0.66579
698.481,75.16444,-3.31163,0.17166,0.66524
699.081,75.2255,-3.31163,0.16839,0.66469
699.681,75.2865,-3.31295,0.16922,0.66414
700.281,75.34747,-3.31295,0.168,0.66359
700.881,75.4084,-3.31296,0.1651,0.66304
701.481,75.46938,-3.31098,0.16827,0.66248
702.081,75.53035,-3.31098,0.16265,0.66193
702.681,75.59145,-3.31101,0.16598,0.66138
703.281,75.6525,-3.31164,0.16383,0.66083
703.881,75.7136,-3.31164,0.16054,0.66028
704.481,75.7744,-3.31164,0.1595,0.65973
705.081,75.8352,-3.31273,0.15878,0.65918
705.681,75.8962,-3.31259,0.15905,0.65863
706.281,75.9572,-3.31296,0.15893,0.65808
706.881,76.01821,-3.31427,0.15701,0.65753
707.481,76.07908,-3.31427,0.15319,0.65698
708.081,76.13986,-3.31427,0.15323,0.65643
708.681,76.20051,-3.31427,0.15356,0.65588
709.281,76.26125,-3.31357,0.15251,0.65533
709.881,76.32196,-3.3136,0.1521,0.65478
710.481,76.3827,-3.31429,0.1516,0.65423
711.081,76.4436,-3.31493,0.15312,0.65368
711.681,76.5045,-3.31493,0.15042,0.65313
712.281,76.5653,-3.31495,0.14779,0.65258
712.881,76.62606,-3.31624,0.14696,0.65203
713.481,76.68686,-3.31621,0.14531,0.65148
714.081,76.74765,-3.31523,0.14323,0.65093
714.681,76.8086,-3.31427,0.14028,0.65037
715.281,76.86946,-3.31426,0.14158,0.64982
715.881,76.93049,-3.31558,0.13774,0.64927
716.481,76.99136,-3.31656,0.13713,0.64872
717.081,77.05239,-3.3169,0.1332,0.64817
717.681,77.1135,-3.3169,0.13762,0.64762
718.281,77.17451,-3.3169,0.13749,0.64707
718.881,77.2355,-3.31798,0.1372,0.64652
719.481,77.29638,-3.31753,0.13318,0.64597
720.081,77.35713,-3.31757,0.13819,0.64542
720.681,77.41785,-3.31625,0.13706,0.64487
721.281,77.47875,-3.31655,0.13587,0.64432
721.881,77.53966,-3.31658,0.13301,0.64377
722.481,77.60059,-3.31793,0.13814,0.64322
723.081,77.6616,-3.31822,0.13745,0.64267
723.681,77.72234,-3.31822,0.13554,0.64212
724.281,77.7831,-3.31808,0.13361,0.64157
724.881,77.84368,-3.3169,0.13265,0.64103
725.481,77.90437,-3.3169,0.12774,0.64048
726.081,77.96514,-3.3169,0.13151,0.63993
726.681,78.02598,-3.31751,0.13048,0.63938
727.281,78.08673,-3.31919,0.12717,0.63883
727.881,78.14751,-3.31921,0.12928,0.63828
728.481,78.208,-3.31894,0.1262,0.63773
729.081,78.26878,-3.31951,0.12456,0.63718
729.681,78.3296,-3.31953,0.12693,0.63663
730.281,78.39061,-3.31953,0.12641,0.63608
730.881,78.45145,-3.31953,0.12172,0.63553
731.481,78.5124,-3.31953,0.12687,0.63498
732.081,78.57326,-3.31953,0.12433,0.63443
732.681,78.63405,-3.31952,0.12413,0.63388
733.281,78.69484,-3.32085,0.12224,0.63333
733.881,78.75574,-3.32085,0.12091,0.63278
734.481,78.81673,-3.32084,0.12079,0.63224
735.081,78.87764,-3.32052,0.12119,0.63169
735.681,78.93845,-3.32052,0.12042,0.63114
736.281,78.99929,-3.31981,0.11773,0.63059
736.881,79.05994,-3.32053,0.11606,0.63004
737.481,79.12091,-3.32053,0.11333,0.62949
738.081,79.1815,-3.32053,0.11378,0.62894
738.681,79.24226,-3.32053,0.10958,0.62839
739.281,79.30291,-3.32053,0.11328,0.62785
739.881,79.3635,-3.32053,0.10916,0.6273
740.481,79.4242,-3.32189,0.11099,0.62675
741.081,79.48509,-3.32184,0.11013,0.6262
741.681,79.54618,-3.32184,0.10752,0.62565
742.281,79.60718,-3.32184,0.10529,0.6251
742.881,79.66808,-3.32315,0.10602,0.62455
743.481,79.72896,-3.32316,0.10448,0.62401
744.081,79.78989,-3.32316,0.10408,0.62346
744.681,79.85075,-3.32211,0.10398,0.62291
745.281,79.91152,-3.32184,0.10597,0.62236
745.881,79.97231,-3.32181,0.10004,0.62181
746.081,79.9924,-3.32257,0.09794291,0.62163