File: 01_Data/Oak_Flooring/STA/N2/10K_min/Oak_Flooring_STA_N2_10KData_211208_R2.csv
##Temp./Â°C,Time/min,Mass loss(subtr.2)/mg,DSC(subtr.2)/(mW/mg),Sensit./(uV/mW)
49.438,10.00917,-0.04486,0.02523532,1.07446
50.038,10.73455,-0.04538642,0.06368942,1.07442
50.638,10.92515,-0.04618738,0.09141553,1.07438
51.238,11.06723,-0.04621774,0.11943,1.07433
51.838,11.18684,-0.04834185,0.13618,1.07429
52.438,11.2935,-0.04813611,0.15375,1.07424
53.038,11.39134,-0.04648588,0.16688,1.0742
53.638,11.4825,-0.04634571,0.18133,1.07415
54.238,11.56901,-0.04795691,0.19357,1.0741
54.838,11.65208,-0.04874143,0.20246,1.07406
55.438,11.73183,-0.04907247,0.21413,1.07401
56.038,11.80977,-0.04830664,0.22291,1.07396
56.638,11.88589,-0.04828455,0.2305,1.07391
57.238,11.9602,-0.04872807,0.23766,1.07386
57.838,12.03278,-0.04889914,0.24343,1.0738
58.438,12.10465,-0.04878817,0.2518,1.07375
59.038,12.1758,-0.04986238,0.25692,1.0737
59.638,12.24593,-0.05024863,0.26253,1.07364
60.238,12.3149,-0.05028819,0.26557,1.07358
60.838,12.3833,-0.05157031,0.27226,1.07353
61.438,12.45134,-0.05165511,0.27576,1.07347
62.038,12.51937,-0.05167263,0.27998,1.07341
62.638,12.58653,-0.05168483,0.28414,1.07335
63.238,12.65322,-0.05169495,0.28739,1.07329
63.838,12.7196,-0.05298263,0.29163,1.07323
64.438,12.78544,-0.05297715,0.29794,1.07317
65.038,12.8517,-0.05430506,0.30198,1.07311
65.638,12.91757,-0.05298851,0.3022,1.07304
66.238,12.984,-0.05299176,0.30683,1.07298
66.838,13.0494,-0.05429674,0.31093,1.07291
67.438,13.1149,-0.05422273,0.31323,1.07285
68.038,13.1788,-0.0542934,0.31826,1.07278
68.638,13.24355,-0.05430071,0.31765,1.07271
69.238,13.3079,-0.05485072,0.32317,1.07265
69.838,13.3727,-0.05429633,0.32671,1.07258
70.438,13.43738,-0.05561069,0.32966,1.07251
71.038,13.5015,-0.05695697,0.33198,1.07244
71.638,13.56577,-0.05588815,0.33455,1.07236
72.238,13.62991,-0.0572601,0.33758,1.07229
72.838,13.69431,-0.05711381,0.3402,1.07222
73.438,13.75826,-0.0576652,0.34451,1.07214
74.038,13.82201,-0.05822531,0.34654,1.07207
74.638,13.8853,-0.05937931,0.35071,1.07199
75.238,13.9482,-0.05956992,0.35302,1.07192
75.838,14.01135,-0.05842917,0.35643,1.07184
76.438,14.07445,-0.05964813,0.35801,1.07176
77.038,14.1374,-0.06014151,0.36142,1.07168
77.638,14.2,-0.06022001,0.36353,1.0716
78.238,14.2625,-0.06021964,0.36418,1.07152
78.838,14.32485,-0.06150528,0.36848,1.07144
79.438,14.3873,-0.06216883,0.37204,1.07135
80.038,14.4493,-0.06220004,0.37511,1.07127
80.638,14.5113,-0.06352556,0.37742,1.07119
81.238,14.57296,-0.06480421,0.37691,1.0711
81.838,14.6348,-0.0639027,0.37869,1.07101
82.438,14.69665,-0.06351007,0.38017,1.07093
83.038,14.7583,-0.06351,0.38282,1.07084
83.638,14.8198,-0.06351281,0.38349,1.07075
84.238,14.88119,-0.06481759,0.38402,1.07066
84.838,14.94258,-0.06350697,0.38653,1.07057
85.438,15.0038,-0.0648166,0.38548,1.07048
86.038,15.06504,-0.06482634,0.38855,1.07039
86.638,15.12592,-0.06613092,0.38927,1.0703
87.238,15.18679,-0.06613998,0.39007,1.0702
87.838,15.24756,-0.06736403,0.39102,1.07011
88.438,15.30821,-0.06878019,0.39021,1.07001
89.038,15.3688,-0.06747211,0.38907,1.06992
89.638,15.4293,-0.06746025,0.38929,1.06982
90.238,15.48981,-0.06877123,0.39134,1.06972
90.838,15.55061,-0.06877004,0.39063,1.06963
91.438,15.6112,-0.06892143,0.38944,1.06953
92.038,15.6715,-0.07009003,0.39025,1.06943
92.638,15.73151,-0.07009001,0.39053,1.06933
93.238,15.7913,-0.07009601,0.38945,1.06922
93.838,15.85105,-0.07143204,0.3908,1.06912
94.438,15.9107,-0.07010066,0.38836,1.06902
95.038,15.97035,-0.07009994,0.38901,1.06891
95.638,16.0301,-0.07082755,0.38872,1.06881
96.238,16.08973,-0.07140506,0.3867,1.0687
96.838,16.14951,-0.07338458,0.38887,1.0686
97.438,16.2092,-0.07338,0.38765,1.06849
98.038,16.26894,-0.07402115,0.38877,1.06838
98.638,16.32859,-0.07337926,0.38826,1.06827
99.238,16.3883,-0.07337999,0.38624,1.06816
99.838,16.4479,-0.0733492,0.38489,1.06805
100.438,16.50724,-0.07469963,0.38386,1.06794
101.038,16.56622,-0.0747,0.38508,1.06783
101.638,16.62559,-0.07469948,0.38621,1.06771
102.238,16.68504,-0.07597458,0.38649,1.0676
102.838,16.74457,-0.07601644,0.38565,1.06748
103.438,16.80371,-0.07597873,0.38788,1.06737
104.038,16.86279,-0.07634018,0.39166,1.06725
104.638,16.9219,-0.07633995,0.38923,1.06713
105.238,16.98095,-0.07679154,0.39328,1.06702
105.838,17.04031,-0.07733,0.39186,1.0669
106.438,17.0993,-0.07665525,0.39122,1.06678
107.038,17.1583,-0.077328,0.39208,1.06666
107.638,17.21716,-0.07798982,0.39067,1.06653
108.238,17.27609,-0.07798907,0.39007,1.06641
108.838,17.33551,-0.07664017,0.3902,1.06629
109.438,17.39471,-0.076763,0.38985,1.06617
110.038,17.45378,-0.07799885,0.38794,1.06604
110.638,17.51276,-0.07831935,0.38702,1.06592
111.238,17.57143,-0.07837496,0.38822,1.06579
111.838,17.63032,-0.07799546,0.38749,1.06566
112.438,17.68917,-0.07929993,0.38819,1.06553
113.038,17.7482,-0.07929952,0.386,1.06541
113.638,17.80706,-0.07796923,0.38654,1.06528
114.238,17.86603,-0.0779918,0.38838,1.06515
114.838,17.9248,-0.07931575,0.38802,1.06501
115.438,17.9835,-0.07931,0.38632,1.06488
116.038,18.04205,-0.07930789,0.3867,1.06475
116.638,18.10071,-0.08062117,0.38489,1.06462
117.238,18.15924,-0.08160879,0.38508,1.06448
117.838,18.21791,-0.08160993,0.38561,1.06435
118.438,18.27662,-0.08025124,0.38601,1.06421
119.038,18.33515,-0.0802928,0.38376,1.06407
119.638,18.3937,-0.0816066,0.38494,1.06394
120.238,18.45228,-0.0802832,0.38405,1.0638
120.838,18.51075,-0.08028991,0.38607,1.06366
121.438,18.56939,-0.08096864,0.38629,1.06352
122.038,18.62772,-0.08161007,0.38868,1.06338
122.638,18.68611,-0.08159674,0.38351,1.06323
123.238,18.74438,-0.08025181,0.38536,1.06309
123.838,18.80286,-0.08159369,0.38707,1.06295
124.438,18.86134,-0.08161,0.3867,1.0628
125.038,18.92006,-0.08161001,0.38856,1.06266
125.638,18.97861,-0.08159376,0.38752,1.06251
126.238,19.0371,-0.08128062,0.38815,1.06237
126.838,19.0957,-0.08128068,0.38954,1.06222
127.438,19.1544,-0.0816013,0.38888,1.06207
128.038,19.21304,-0.08161,0.38895,1.06192
128.638,19.2715,-0.08161012,0.3878,1.06177
129.238,19.32961,-0.08091252,0.39071,1.06162
129.838,19.3876,-0.08161191,0.39145,1.06147
130.438,19.44598,-0.08160997,0.39181,1.06132
131.038,19.50437,-0.08151621,0.39313,1.06117
131.638,19.5635,-0.08291988,0.39321,1.06101
132.238,19.62184,-0.08292,0.3925,1.06086
132.838,19.68037,-0.08291985,0.39344,1.0607
133.438,19.73869,-0.08258714,0.39462,1.06055
134.038,19.79691,-0.08262014,0.39733,1.06039
134.638,19.85512,-0.08259217,0.39828,1.06023
135.238,19.91348,-0.08324948,0.39734,1.06007
135.838,19.97208,-0.08318925,0.39942,1.05991
136.438,20.03014,-0.08425091,0.4001,1.05975
137.038,20.08839,-0.08292286,0.40145,1.05959
137.638,20.14624,-0.08292999,0.40232,1.05943
138.238,20.20437,-0.08293,0.40289,1.05927
138.838,20.26266,-0.08293,0.40285,1.05911
139.438,20.32085,-0.08293065,0.40422,1.05894
140.038,20.37901,-0.0839126,0.40531,1.05878
140.638,20.43705,-0.08391002,0.40727,1.05861
141.238,20.4945,-0.08390748,0.40753,1.05844
141.838,20.5524,-0.08424245,0.4115,1.05828
142.438,20.61037,-0.08418415,0.41031,1.05811
143.038,20.66846,-0.08424058,0.41126,1.05794
143.638,20.72697,-0.08424,0.41087,1.05777
144.238,20.78456,-0.08423999,0.41422,1.0576
144.838,20.84242,-0.08423567,0.41403,1.05743
145.438,20.9004,-0.08658429,0.41518,1.05726
146.038,20.95841,-0.08527916,0.41548,1.05708
146.638,21.0166,-0.08523007,0.41669,1.05691
147.238,21.0744,-0.08523,0.41885,1.05674
147.838,21.13214,-0.08522989,0.42025,1.05656
148.438,21.19011,-0.08557656,0.41956,1.05639
149.038,21.24805,-0.08561748,0.41929,1.05621
149.638,21.306,-0.0858942,0.41835,1.05603
150.238,21.3639,-0.08589001,0.42096,1.05585
150.838,21.42163,-0.08589019,0.42311,1.05567
151.438,21.47968,-0.08521354,0.42439,1.05549
152.038,21.53746,-0.08488118,0.42371,1.05531
152.638,21.5952,-0.08367914,0.42582,1.05513
153.238,21.65297,-0.08490541,0.4261,1.05495
153.838,21.71067,-0.08666123,0.42578,1.05477
154.438,21.7685,-0.08687995,0.42569,1.05458
155.038,21.82657,-0.08611403,0.42832,1.0544
155.638,21.88424,-0.08589014,0.42864,1.05421
156.238,21.9421,-0.08589,0.43065,1.05403
156.838,21.99994,-0.08589035,0.43079,1.05384
157.438,22.05785,-0.08556232,0.4305,1.05365
158.038,22.11609,-0.0855597,0.42947,1.05346
158.638,22.17419,-0.08644124,0.43398,1.05327
159.238,22.2319,-0.08653998,0.43289,1.05308
159.838,22.2896,-0.08653995,0.43283,1.05289
160.438,22.34743,-0.08618416,0.43675,1.0527
161.038,22.40523,-0.08551571,0.43427,1.05251
161.638,22.46345,-0.08588178,0.43732,1.05232
162.238,22.52129,-0.08720551,0.4386,1.05212
162.838,22.5791,-0.0872,0.43641,1.05193
163.438,22.637,-0.0872,0.43847,1.05173
164.038,22.6949,-0.08719995,0.43932,1.05154
164.638,22.75283,-0.08708656,0.43994,1.05134
165.238,22.81065,-0.08687002,0.44085,1.05114
165.838,22.8686,-0.08688092,0.44263,1.05094
166.438,22.92641,-0.08650101,0.44304,1.05075
167.038,22.98445,-0.08679276,0.44445,1.05055
167.638,23.04225,-0.08655007,0.44504,1.05034
168.238,23.09989,-0.08654999,0.4471,1.05014
168.838,23.15768,-0.08677219,0.44818,1.04994
169.438,23.2153,-0.08786038,0.44953,1.04974
170.038,23.27311,-0.08786,0.45111,1.04953
170.638,23.33069,-0.0878587,0.44968,1.04933
171.238,23.3884,-0.08687231,0.453,1.04912
171.838,23.44599,-0.08680942,0.45467,1.04892
172.438,23.50386,-0.0878597,0.45349,1.04871
173.038,23.56147,-0.08786,0.45498,1.0485
173.638,23.61908,-0.08786,0.45521,1.04829
174.238,23.67679,-0.08782862,0.45697,1.04809
174.838,23.7344,-0.08819016,0.45604,1.04788
175.438,23.79204,-0.08819,0.45842,1.04766
176.038,23.8496,-0.08819,0.45737,1.04745
176.638,23.90709,-0.08818177,0.4591,1.04724
177.238,23.96445,-0.0891172,0.45967,1.04703
177.838,24.02194,-0.08856653,0.45992,1.04681
178.438,24.07937,-0.08786008,0.46223,1.0466
179.038,24.1368,-0.08915238,0.46333,1.04639
179.638,24.19416,-0.09006047,0.46456,1.04617
180.238,24.2516,-0.09016128,0.46507,1.04595
180.838,24.3091,-0.08951182,0.46547,1.04573
181.438,24.36655,-0.08884736,0.46497,1.04552
182.038,24.42403,-0.08885,0.46704,1.0453
182.638,24.4813,-0.08884992,0.46883,1.04508
183.238,24.53857,-0.08916638,0.46814,1.04486
183.838,24.596,-0.08917996,0.47002,1.04464
184.438,24.6537,-0.08916858,0.46968,1.04441
185.038,24.71094,-0.08921599,0.47074,1.04419
185.638,24.76836,-0.08917999,0.46941,1.04397
186.238,24.8259,-0.08918187,0.4727,1.04374
186.838,24.88307,-0.0905069,0.4734,1.04352
187.438,24.9404,-0.0905,0.47234,1.04329
188.038,24.99758,-0.09050006,0.47122,1.04307
188.638,25.0549,-0.08975488,0.47507,1.04284
189.238,25.11219,-0.08951008,0.4766,1.04261
189.838,25.16951,-0.08951,0.4761,1.04238
190.438,25.22671,-0.08951001,0.4771,1.04215
191.038,25.28402,-0.0895226,0.47833,1.04192
191.638,25.3414,-0.09082316,0.4781,1.04169
192.238,25.39871,-0.09082,0.47857,1.04146
192.838,25.45587,-0.09082,0.48009,1.04123
193.438,25.51314,-0.09082,0.47801,1.04099
194.038,25.5705,-0.09082,0.48089,1.04076
194.638,25.6279,-0.09081981,0.48116,1.04053
195.238,25.68525,-0.09174206,0.48171,1.04029
195.838,25.7427,-0.09179846,0.48195,1.04005
196.438,25.79995,-0.09279953,0.48463,1.03982
197.038,25.85737,-0.09280527,0.4849,1.03958
197.638,25.9147,-0.0914465,0.48716,1.03934
198.238,25.97229,-0.09179394,0.48682,1.0391
198.838,26.02958,-0.09246626,0.48597,1.03886
199.438,26.08705,-0.09379157,0.48783,1.03862
200.038,26.14442,-0.09379,0.49014,1.03838
200.638,26.20164,-0.09378995,0.49024,1.03814
201.238,26.25907,-0.09379413,0.49348,1.0379
201.838,26.3164,-0.09312626,0.49386,1.03765
202.438,26.37391,-0.09443257,0.49272,1.03741
203.038,26.43137,-0.09542614,0.49263,1.03716
203.638,26.4888,-0.09543,0.49335,1.03692
204.238,26.5465,-0.09543,0.49617,1.03667
204.838,26.60405,-0.09541265,0.49603,1.03642
205.438,26.66163,-0.09477592,0.49705,1.03618
206.038,26.71903,-0.09510013,0.49839,1.03593
206.638,26.77634,-0.0967335,0.49912,1.03568
207.238,26.8338,-0.09902082,0.49951,1.03543
207.838,26.8914,-0.0966771,0.50108,1.03518
208.438,26.94912,-0.09619999,0.50231,1.03493
209.038,27.00668,-0.0962,0.50505,1.03467
209.638,27.0643,-0.09620093,0.50525,1.03442
210.238,27.12183,-0.09755815,0.50497,1.03417
210.838,27.1795,-0.09785985,0.50772,1.03391
211.438,27.2371,-0.09850024,0.50987,1.03366
212.038,27.2944,-0.0999081,0.51169,1.0334
212.638,27.35183,-0.09970493,0.5115,1.03315
213.238,27.40908,-0.09850068,0.51325,1.03289
213.838,27.46661,-0.09982189,0.51593,1.03263
214.438,27.52415,-0.09982,0.51642,1.03237
215.038,27.5815,-0.09981649,0.51756,1.03211
215.638,27.63898,-0.1008,0.51864,1.03185
216.238,27.69649,-0.10112,0.52028,1.03159
216.838,27.75385,-0.10245,0.52156,1.03133
217.438,27.81128,-0.10378,0.52189,1.03107
218.038,27.86872,-0.10377,0.52156,1.0308
218.638,27.9259,-0.10378,0.52247,1.03054
219.238,27.9834,-0.10509,0.52379,1.03028
219.838,28.0408,-0.10647,0.52441,1.03001
220.438,28.0982,-0.1064,0.52529,1.02974
221.038,28.1557,-0.1064,0.52626,1.02948
221.638,28.2128,-0.10633,0.52601,1.02921
222.238,28.27,-0.10772,0.52347,1.02894
222.838,28.3275,-0.10805,0.52915,1.02867
223.438,28.38498,-0.1094,0.52968,1.0284
224.038,28.44255,-0.11065,0.53116,1.02813
224.638,28.4998,-0.11331,0.53052,1.02786
225.238,28.55726,-0.11331,0.53222,1.02759
225.838,28.61481,-0.11331,0.53196,1.02732
226.438,28.67248,-0.11459,0.53241,1.02705
227.038,28.73005,-0.11593,0.53257,1.02677
227.638,28.7875,-0.11725,0.53297,1.0265
228.238,28.84502,-0.11858,0.5347,1.02622
228.838,28.9025,-0.11989,0.53327,1.02595
229.438,28.9599,-0.11956,0.53385,1.02567
230.038,29.01738,-0.12088,0.53327,1.02539
230.638,29.07478,-0.12221,0.53628,1.02512
231.238,29.1323,-0.12351,0.53578,1.02484
231.838,29.18985,-0.12485,0.53685,1.02456
232.438,29.24728,-0.12712,0.53857,1.02428
233.038,29.30467,-0.1284,0.53992,1.024
233.638,29.36212,-0.12986,0.53706,1.02372
234.238,29.4195,-0.13108,0.53915,1.02344
234.838,29.47713,-0.13244,0.53964,1.02315
235.438,29.53417,-0.13376,0.54011,1.02287
236.038,29.59153,-0.13427,0.5408,1.02259
236.638,29.64899,-0.13502,0.54322,1.0223
237.238,29.70627,-0.13796,0.54329,1.02201
237.838,29.76378,-0.13939,0.54385,1.02173
238.438,29.8211,-0.14062,0.54628,1.02144
239.038,29.8785,-0.14338,0.54724,1.02115
239.638,29.93593,-0.14533,0.5485,1.02087
240.238,29.9934,-0.14741,0.54792,1.02058
240.838,30.05087,-0.14741,0.54942,1.02029
241.438,30.1082,-0.14869,0.55359,1.02
242.038,30.16569,-0.15141,0.55132,1.01971
242.638,30.22314,-0.15262,0.55283,1.01941
243.238,30.2805,-0.15268,0.55372,1.01912
243.838,30.33782,-0.15531,0.55459,1.01883
244.438,30.3948,-0.15805,0.55393,1.01854
245.038,30.45195,-0.15972,0.55528,1.01824
245.638,30.5093,-0.16191,0.55494,1.01795
246.238,30.56672,-0.16373,0.55501,1.01765
246.838,30.6242,-0.16525,0.55378,1.01735
247.438,30.68153,-0.1689,0.55595,1.01706
248.038,30.73907,-0.17013,0.55599,1.01676
248.638,30.79645,-0.17135,0.55849,1.01646
249.238,30.8537,-0.17429,0.55879,1.01616
249.838,30.91106,-0.17644,0.55851,1.01586
250.438,30.96834,-0.17911,0.56082,1.01556
251.038,31.0259,-0.18034,0.5607,1.01526
251.638,31.0832,-0.18283,0.56233,1.01496
252.238,31.14043,-0.18519,0.56145,1.01466
252.838,31.1976,-0.18804,0.56213,1.01435
253.438,31.25477,-0.19125,0.56237,1.01405
254.038,31.3122,-0.19354,0.562,1.01374
254.638,31.3695,-0.19548,0.56351,1.01344
255.238,31.42698,-0.19844,0.56434,1.01313
255.838,31.4843,-0.20209,0.56231,1.01283
256.438,31.5418,-0.20491,0.5647,1.01252
257.038,31.59918,-0.20807,0.56253,1.01221
257.638,31.65665,-0.21146,0.56321,1.0119
258.238,31.71423,-0.2152,0.56356,1.01159
258.838,31.7718,-0.21799,0.56435,1.01128
259.438,31.8293,-0.22092,0.56599,1.01097
260.038,31.88713,-0.22566,0.56549,1.01066
260.638,31.9448,-0.22864,0.56261,1.01035
261.238,32.00243,-0.23447,0.5635,1.01004
261.838,32.06006,-0.23627,0.56302,1.00973
262.438,32.11763,-0.241,0.56331,1.00941
263.038,32.1751,-0.24468,0.56272,1.0091
263.638,32.23277,-0.2492,0.56342,1.00878
264.238,32.29029,-0.2532,0.56437,1.00847
264.838,32.34779,-0.25654,0.56302,1.00815
265.438,32.40525,-0.26157,0.56118,1.00783
266.038,32.46281,-0.26669,0.5607,1.00751
266.638,32.52044,-0.27182,0.55969,1.0072
267.238,32.5779,-0.27726,0.55861,1.00688
267.838,32.63551,-0.28211,0.55847,1.00656
268.438,32.69325,-0.28812,0.55667,1.00624
269.038,32.75087,-0.29425,0.55498,1.00592
269.638,32.8085,-0.29983,0.5551,1.00559
270.238,32.86615,-0.30547,0.55499,1.00527
270.838,32.92369,-0.31124,0.55472,1.00495
271.438,32.98117,-0.31747,0.55395,1.00463
272.038,33.03888,-0.32311,0.55296,1.0043
272.638,33.09628,-0.33083,0.5507,1.00398
273.238,33.15379,-0.33729,0.54916,1.00365
273.838,33.21139,-0.34354,0.54733,1.00332
274.438,33.26893,-0.34966,0.54812,1.003
275.038,33.32652,-0.35797,0.54416,1.00267
275.638,33.38402,-0.36523,0.54353,1.00234
276.238,33.4415,-0.37202,0.53871,1.00201
276.838,33.49888,-0.3784,0.53783,1.00168
277.438,33.5563,-0.38781,0.53795,1.00135
278.038,33.61394,-0.39633,0.53417,1.00102
278.638,33.6715,-0.40458,0.53264,1.00069
279.238,33.7291,-0.4123,0.53013,1.00036
279.838,33.78692,-0.42074,0.53045,1.00003
280.438,33.84442,-0.43016,0.52812,0.99969
281.038,33.90208,-0.4377,0.52314,0.99936
281.638,33.95967,-0.44672,0.5219,0.99903
282.238,34.0174,-0.45608,0.5186,0.99869
282.838,34.07498,-0.46571,0.51623,0.99836
283.438,34.13231,-0.47516,0.51454,0.99802
284.038,34.1898,-0.48466,0.51148,0.99768
284.638,34.24743,-0.49443,0.50868,0.99734
285.238,34.30514,-0.50465,0.50679,0.99701
285.838,34.36296,-0.51428,0.50318,0.99667
286.438,34.42046,-0.52446,0.5028,0.99633
287.038,34.47795,-0.53511,0.49921,0.99599
287.638,34.53555,-0.54591,0.49649,0.99565
288.238,34.593,-0.55608,0.4932,0.99531
288.838,34.65064,-0.56607,0.49152,0.99496
289.438,34.70833,-0.57714,0.48829,0.99462
290.038,34.76612,-0.58944,0.48633,0.99428
290.638,34.82397,-0.60147,0.48685,0.99393
291.238,34.8816,-0.6112,0.48345,0.99359
291.838,34.93928,-0.62216,0.48232,0.99324
292.438,34.9968,-0.63323,0.47709,0.9929
293.038,35.05445,-0.64526,0.47607,0.99255
293.638,35.11195,-0.66047,0.47561,0.99221
294.238,35.1696,-0.6726,0.47522,0.99186
294.838,35.22723,-0.68529,0.47199,0.99151
295.438,35.2849,-0.69448,0.47224,0.99116
296.038,35.34271,-0.70779,0.4688,0.99081
296.638,35.4002,-0.71938,0.46903,0.99046
297.238,35.45794,-0.73274,0.46813,0.99011
297.838,35.51563,-0.7453,0.4678,0.98976
298.438,35.5735,-0.75692,0.46487,0.98941
299.038,35.63091,-0.76991,0.46478,0.98906
299.638,35.6887,-0.78254,0.46507,0.9887
300.238,35.74633,-0.79516,0.46164,0.98835
300.838,35.80383,-0.80831,0.46103,0.98799
301.438,35.8617,-0.82182,0.46193,0.98764
302.038,35.9193,-0.83387,0.46157,0.98728
302.638,35.97715,-0.84729,0.46084,0.98693
303.238,36.03517,-0.86052,0.46083,0.98657
303.838,36.09312,-0.87307,0.45875,0.98621
304.438,36.1509,-0.88622,0.4607,0.98586
305.038,36.20857,-0.89895,0.46187,0.9855
305.638,36.26597,-0.91234,0.46195,0.98514
306.238,36.3236,-0.92728,0.46332,0.98478
306.838,36.38138,-0.94027,0.46692,0.98442
307.438,36.43945,-0.95423,0.46769,0.98406
308.038,36.4974,-0.9644,0.46855,0.9837
308.638,36.55512,-0.97847,0.47074,0.98333
309.238,36.61282,-0.99391,0.47366,0.98297
309.838,36.67046,-1.00628,0.47489,0.98261
310.438,36.72829,-1.01901,0.47795,0.98224
311.038,36.78617,-1.03249,0.48131,0.98188
311.638,36.84405,-1.04626,0.48252,0.98151
312.238,36.90191,-1.06052,0.4844,0.98115
312.838,36.95966,-1.07459,0.48766,0.98078
313.438,37.0174,-1.08745,0.48973,0.98042
314.038,37.07525,-1.0997,0.49359,0.98005
314.638,37.13329,-1.11378,0.49636,0.97968
315.238,37.19126,-1.12644,0.49796,0.97931
315.838,37.24922,-1.14141,0.50296,0.97894
316.438,37.30706,-1.15566,0.50724,0.97857
317.038,37.36503,-1.16871,0.51096,0.9782
317.638,37.42302,-1.18218,0.51362,0.97783
318.238,37.48102,-1.19664,0.51908,0.97746
318.838,37.53886,-1.21031,0.52364,0.97709
319.438,37.5966,-1.22393,0.52556,0.97672
320.038,37.65433,-1.23865,0.52766,0.97634
320.638,37.71209,-1.25487,0.53158,0.97597
321.238,37.7699,-1.26792,0.53843,0.97559
321.838,37.82778,-1.28303,0.53907,0.97522
322.438,37.8857,-1.29744,0.54404,0.97484
323.038,37.94383,-1.31259,0.55004,0.97447
323.638,38.0019,-1.32672,0.55125,0.97409
324.238,38.05996,-1.34224,0.55508,0.97371
324.838,38.1179,-1.35665,0.55754,0.97334
325.438,38.17597,-1.37263,0.56227,0.97296
326.038,38.23379,-1.38852,0.56561,0.97258
326.638,38.29182,-1.4039,0.56916,0.9722
327.238,38.34988,-1.41956,0.57349,0.97182
327.838,38.408,-1.43442,0.57536,0.97144
328.438,38.466,-1.45304,0.57973,0.97106
329.038,38.52397,-1.47066,0.58315,0.97068
329.638,38.582,-1.48737,0.58647,0.97029
330.238,38.64,-1.50429,0.5891,0.96991
330.838,38.6982,-1.51928,0.59172,0.96953
331.438,38.75627,-1.53716,0.59711,0.96914
332.038,38.8144,-1.55483,0.60156,0.96876
332.638,38.87253,-1.57265,0.60522,0.96837
333.238,38.93075,-1.59213,0.6086,0.96799
333.838,38.98876,-1.61029,0.61207,0.9676
334.438,39.0469,-1.63049,0.61513,0.96721
335.038,39.10499,-1.6471,0.61929,0.96683
335.638,39.16308,-1.66605,0.62071,0.96644
336.238,39.2211,-1.68469,0.62726,0.96605
336.838,39.27906,-1.70382,0.62799,0.96566
337.438,39.33703,-1.72397,0.63345,0.96527
338.038,39.3949,-1.74381,0.63654,0.96488
338.638,39.45302,-1.76491,0.63977,0.96449
339.238,39.51113,-1.78467,0.64206,0.9641
339.838,39.56953,-1.80588,0.64536,0.96371
340.438,39.6277,-1.82682,0.64679,0.96332
341.038,39.6858,-1.8483,0.65161,0.96292
341.638,39.7438,-1.86972,0.653,0.96253
342.238,39.8018,-1.8911,0.65457,0.96214
342.838,39.85989,-1.91315,0.65626,0.96174
343.438,39.9181,-1.93547,0.65671,0.96135
344.038,39.97618,-1.95805,0.66063,0.96095
344.638,40.0342,-1.98073,0.66452,0.96055
345.238,40.09257,-2.0044,0.66222,0.96016
345.838,40.15088,-2.0266,0.66352,0.95976
346.438,40.20935,-2.05066,0.66352,0.95936
347.038,40.26771,-2.07309,0.66095,0.95896
347.638,40.32587,-2.09953,0.66343,0.95857
348.238,40.38397,-2.12291,0.66635,0.95817
348.838,40.44223,-2.14528,0.66426,0.95777
349.438,40.5004,-2.16922,0.66303,0.95737
350.038,40.55875,-2.19264,0.65818,0.95696
350.638,40.61707,-2.21824,0.66033,0.95656
351.238,40.67548,-2.2409,0.65433,0.95616
351.838,40.73384,-2.26638,0.65132,0.95576
352.438,40.7922,-2.29002,0.64898,0.95536
353.038,40.8505,-2.31568,0.6414,0.95495
353.638,40.90875,-2.33813,0.63699,0.95455
354.238,40.96692,-2.36335,0.63344,0.95414
354.838,41.0251,-2.38606,0.62835,0.95374
355.438,41.08331,-2.40862,0.62106,0.95333
356.038,41.14143,-2.43228,0.61114,0.95293
356.638,41.1997,-2.45469,0.60598,0.95252
357.238,41.25805,-2.47923,0.59428,0.95211
357.838,41.31653,-2.50077,0.58358,0.9517
358.438,41.3748,-2.52477,0.57503,0.9513
359.038,41.433,-2.54764,0.56416,0.95089
359.638,41.49105,-2.5686,0.55218,0.95048
360.238,41.54918,-2.58805,0.53733,0.95007
360.838,41.6073,-2.60992,0.52475,0.94966
361.438,41.66482,-2.62907,0.51283,0.94925
362.038,41.7228,-2.64608,0.49745,0.94883
362.638,41.78107,-2.66534,0.48132,0.94842
363.238,41.83961,-2.6833,0.46739,0.94801
363.838,41.89839,-2.70034,0.45369,0.9476
364.438,41.9565,-2.71582,0.43686,0.94718
365.038,42.01485,-2.73196,0.41946,0.94677
365.638,42.07322,-2.74477,0.40388,0.94635
366.238,42.13146,-2.75899,0.38843,0.94594
366.838,42.1896,-2.77242,0.37399,0.94552
367.438,42.2478,-2.78345,0.35819,0.94511
368.038,42.30595,-2.79402,0.34393,0.94469
368.638,42.36427,-2.80195,0.33434,0.94427
369.238,42.42243,-2.81076,0.32267,0.94386
369.838,42.48082,-2.8188,0.31015,0.94344
370.438,42.53925,-2.82629,0.30002,0.94302
371.038,42.59744,-2.83271,0.29407,0.9426
371.638,42.65565,-2.83841,0.28479,0.94218
372.238,42.71389,-2.8454,0.2816,0.94176
372.838,42.77197,-2.85078,0.27503,0.94134
373.438,42.83036,-2.85356,0.26764,0.94092
374.038,42.88865,-2.85805,0.26487,0.9405
374.638,42.94696,-2.86092,0.26077,0.94008
375.238,43.0052,-2.86528,0.25339,0.93965
375.838,43.06351,-2.86993,0.25322,0.93923
376.438,43.12172,-2.87295,0.24794,0.93881
377.038,43.18014,-2.87552,0.24841,0.93838
377.638,43.2385,-2.87722,0.24407,0.93796
378.238,43.29697,-2.88096,0.24479,0.93753
378.838,43.35538,-2.88397,0.23808,0.93711
379.438,43.41373,-2.88832,0.23408,0.93668
380.038,43.47217,-2.8898,0.23341,0.93626
380.638,43.53065,-2.89304,0.2296,0.93583
381.238,43.5892,-2.89637,0.2293,0.9354
381.838,43.6477,-2.89897,0.22712,0.93497
382.438,43.70608,-2.90151,0.22465,0.93454
383.038,43.76455,-2.90405,0.22224,0.93412
383.638,43.823,-2.90601,0.22066,0.93369
384.238,43.88132,-2.9079,0.2165,0.93326
384.838,43.9396,-2.911,0.21525,0.93283
385.438,43.9981,-2.91284,0.21528,0.9324
386.038,44.05669,-2.91657,0.21338,0.93196
386.638,44.1152,-2.91915,0.20936,0.93153
387.238,44.1738,-2.92089,0.20795,0.9311
387.838,44.23231,-2.92209,0.20505,0.93067
388.438,44.29091,-2.92359,0.20559,0.93023
389.038,44.3495,-2.9256,0.20319,0.9298
389.638,44.40804,-2.92821,0.19937,0.92937
390.238,44.46655,-2.93057,0.20182,0.92893
390.838,44.52507,-2.93248,0.19833,0.9285
391.438,44.5836,-2.93426,0.19484,0.92806
392.038,44.64199,-2.93692,0.19622,0.92763
392.638,44.7005,-2.94001,0.19196,0.92719
393.238,44.75906,-2.94134,0.19126,0.92675
393.838,44.81769,-2.94412,0.18736,0.92631
394.438,44.87614,-2.94537,0.18691,0.92588
395.038,44.93466,-2.94774,0.18802,0.92544
395.638,44.99317,-2.94981,0.18394,0.925
396.238,45.05162,-2.95229,0.18371,0.92456
396.838,45.1102,-2.95466,0.18161,0.92412
397.438,45.16885,-2.95604,0.1816,0.92368
398.038,45.22755,-2.95888,0.18018,0.92324
398.638,45.2862,-2.95889,0.17933,0.9228
399.238,45.3448,-2.96049,0.1783,0.92236
399.838,45.40333,-2.96183,0.1767,0.92191
400.438,45.4621,-2.96439,0.17562,0.92147
401.038,45.5208,-2.96732,0.17651,0.92103
401.638,45.57936,-2.96878,0.17469,0.92059
402.238,45.638,-2.97154,0.1718,0.92014
402.838,45.69673,-2.973,0.17479,0.9197
403.438,45.7553,-2.97432,0.17071,0.91925
404.038,45.814,-2.97684,0.16913,0.91881
404.638,45.8727,-2.9782,0.168,0.91836
405.238,45.93139,-2.97952,0.1698,0.91792
405.838,45.9901,-2.98196,0.17132,0.91747
406.438,46.04906,-2.98425,0.16414,0.91702
407.038,46.1078,-2.98226,0.1693,0.91658
407.638,46.1667,-2.98794,0.1701,0.91613
408.238,46.2254,-2.99163,0.16944,0.91568
408.838,46.28409,-2.9916,0.17023,0.91523
409.438,46.3431,-2.99299,0.16936,0.91478
410.038,46.40169,-2.99428,0.16928,0.91433
410.638,46.46042,-2.99695,0.16874,0.91388
411.238,46.5191,-2.99828,0.17319,0.91343
411.838,46.57782,-2.99967,0.1682,0.91298
412.438,46.6369,-3.00109,0.16895,0.91253
413.038,46.69583,-3.00124,0.16831,0.91208
413.638,46.7549,-3.00364,0.16765,0.91163
414.238,46.8137,-3.00585,0.16804,0.91117
414.838,46.87259,-3.00889,0.16765,0.91072
415.438,46.9315,-3.0101,0.17004,0.91027
416.038,46.99053,-3.01153,0.16956,0.90981
416.638,47.04957,-3.01407,0.1676,0.90936
417.238,47.10859,-3.01539,0.16942,0.9089
417.838,47.16746,-3.01673,0.16788,0.90845
418.438,47.22648,-3.01812,0.17175,0.90799
419.038,47.2853,-3.01989,0.17117,0.90754
419.638,47.34425,-3.0223,0.17021,0.90708
420.238,47.40317,-3.02355,0.17193,0.90662
420.838,47.46196,-3.02559,0.1725,0.90616
421.438,47.5207,-3.02569,0.17381,0.90571
422.038,47.57963,-3.027,0.17414,0.90525
422.638,47.63858,-3.02948,0.17531,0.90479
423.238,47.69774,-3.03262,0.17652,0.90433
423.838,47.75685,-3.03374,0.17589,0.90387
424.438,47.81568,-3.03493,0.17398,0.90341
425.038,47.87469,-3.03524,0.17364,0.90295
425.638,47.93355,-3.03655,0.17132,0.90249
426.238,47.99258,-3.03787,0.17206,0.90203
426.838,48.0515,-3.03918,0.17723,0.90157
427.438,48.11034,-3.04181,0.178,0.90111
428.038,48.16943,-3.04312,0.18078,0.90064
428.638,48.22845,-3.04313,0.18461,0.90018
429.238,48.28738,-3.04445,0.18349,0.89972
429.838,48.34619,-3.04616,0.18803,0.89925
430.438,48.40505,-3.04858,0.18776,0.89879
431.038,48.4641,-3.05095,0.18974,0.89833
431.638,48.52316,-3.05151,0.19153,0.89786
432.238,48.58213,-3.05279,0.19318,0.8974
432.838,48.64116,-3.0541,0.19342,0.89693
433.438,48.6999,-3.05542,0.19324,0.89646
434.038,48.7589,-3.05673,0.19954,0.896
434.638,48.81771,-3.05804,0.19707,0.89553
435.238,48.8767,-3.05911,0.19767,0.89506
435.838,48.93567,-3.05934,0.19928,0.8946
436.438,48.9947,-3.0617,0.20197,0.89413
437.038,49.05364,-3.06233,0.20103,0.89366
437.638,49.11247,-3.0653,0.20345,0.89319
438.238,49.17138,-3.06653,0.20452,0.89272
438.838,49.2301,-3.06638,0.20499,0.89225
439.438,49.289,-3.06803,0.20632,0.89178
440.038,49.348,-3.06834,0.21012,0.89131
440.638,49.40692,-3.07098,0.21103,0.89084
441.238,49.4658,-3.07232,0.21152,0.89037
441.838,49.52472,-3.07276,0.21391,0.8899
442.438,49.58374,-3.07364,0.21418,0.88943
443.038,49.6427,-3.07356,0.21543,0.88895
443.638,49.70174,-3.07621,0.21751,0.88848
444.238,49.76043,-3.07714,0.22224,0.88801
444.838,49.8193,-3.07902,0.22312,0.88754
445.438,49.8784,-3.08032,0.22359,0.88706
446.038,49.9375,-3.08032,0.22446,0.88659
446.638,49.99662,-3.08203,0.22524,0.88611
447.238,50.05574,-3.08329,0.22514,0.88564
447.838,50.1148,-3.08454,0.22944,0.88516
448.438,50.17386,-3.08591,0.22625,0.88469
449.038,50.23297,-3.08595,0.2279,0.88421
449.638,50.29205,-3.08724,0.23214,0.88373
450.238,50.35115,-3.08854,0.2337,0.88326
450.838,50.4103,-3.08986,0.23244,0.88278
451.438,50.4693,-3.09151,0.23315,0.8823
452.038,50.5284,-3.09177,0.23745,0.88182
452.638,50.58764,-3.09282,0.23682,0.88135
453.238,50.64699,-3.0933,0.23605,0.88087
453.838,50.70619,-3.09543,0.23817,0.88039
454.438,50.76547,-3.09679,0.23953,0.87991
455.038,50.82475,-3.09631,0.24296,0.87943
455.638,50.88412,-3.09709,0.2435,0.87895
456.238,50.94343,-3.09842,0.24085,0.87847
456.838,51.00281,-3.09979,0.24614,0.87799
457.438,51.06215,-3.10102,0.24667,0.87751
458.038,51.1216,-3.11131,0.24775,0.87703
458.638,51.18101,-3.10843,0.25053,0.87654
459.238,51.24049,-3.10666,0.24994,0.87606
459.838,51.29977,-3.10643,0.25087,0.87558
460.438,51.35902,-3.10774,0.2573,0.8751
461.038,51.41789,-3.10905,0.2564,0.87461
461.638,51.4771,-3.10843,0.26087,0.87413
462.238,51.5364,-3.10495,0.26516,0.87364
462.838,51.59559,-3.10902,0.26657,0.87316
463.438,51.65513,-3.11048,0.2703,0.87267
464.038,51.7145,-3.11181,0.27226,0.87219
464.638,51.77388,-3.11099,0.2756,0.8717
465.238,51.83334,-3.11172,0.2757,0.87122
465.838,51.89269,-3.11443,0.28222,0.87073
466.438,51.95179,-3.11559,0.28582,0.87025
467.038,52.01095,-3.11575,0.28665,0.86976
467.638,52.07,-3.11706,0.28885,0.86927
468.238,52.1293,-3.11838,0.2893,0.86878
468.838,52.1883,-3.11838,0.29305,0.8683
469.438,52.24754,-3.11696,0.29351,0.86781
470.038,52.30665,-3.11826,0.29759,0.86732
470.638,52.3658,-3.12057,0.29836,0.86683
471.238,52.4249,-3.12021,0.30207,0.86634
471.838,52.4839,-3.12165,0.30259,0.86585
472.438,52.54297,-3.12292,0.30285,0.86536
473.038,52.602,-3.12354,0.30213,0.86487
473.638,52.6612,-3.12486,0.30707,0.86438
474.238,52.7202,-3.12486,0.30609,0.86389
474.838,52.7793,-3.12517,0.30953,0.8634
475.438,52.8383,-3.12613,0.31334,0.86291
476.038,52.8973,-3.12697,0.3104,0.86241
476.638,52.95636,-3.12862,0.31563,0.86192
477.238,53.01551,-3.13012,0.31296,0.86143
477.838,53.0746,-3.13011,0.31514,0.86094
478.438,53.13364,-3.13142,0.31712,0.86044
479.038,53.19265,-3.13105,0.31642,0.85995
479.638,53.2517,-3.13143,0.31824,0.85945
480.238,53.31085,-3.13272,0.32043,0.85896
480.838,53.37,-3.1338,0.32309,0.85847
481.438,53.42921,-3.13406,0.32256,0.85797
482.038,53.48839,-3.13632,0.32222,0.85748
482.638,53.54752,-3.13638,0.32322,0.85698
483.238,53.60671,-3.13768,0.32624,0.85648
483.838,53.66594,-3.13781,0.32731,0.85599
484.438,53.72525,-3.1389,0.32715,0.85549
485.038,53.78461,-3.13901,0.32555,0.85499
485.638,53.84412,-3.14149,0.32597,0.8545
486.238,53.90353,-3.1413,0.32822,0.854
486.838,53.96297,-3.14263,0.32717,0.8535
487.438,54.02241,-3.14262,0.32529,0.853
488.038,54.0817,-3.14393,0.32574,0.8525
488.638,54.14125,-3.14395,0.32605,0.85201
489.238,54.20075,-3.14259,0.32321,0.85151
489.838,54.2601,-3.14593,0.32418,0.85101
490.438,54.3195,-3.14813,0.32168,0.85051
491.038,54.37899,-3.14876,0.32556,0.85001
491.638,54.4385,-3.15014,0.32605,0.84951
492.238,54.49807,-3.15448,0.32611,0.84901
492.838,54.5578,-3.1537,0.32211,0.84851
493.438,54.61704,-3.1526,0.3234,0.848
494.038,54.6766,-3.15392,0.32403,0.8475
494.638,54.7361,-3.15531,0.31914,0.847
495.238,54.79555,-3.15666,0.32063,0.8465
495.838,54.855,-3.1557,0.32105,0.846
496.438,54.91454,-3.15568,0.3212,0.84549
497.038,54.974,-3.15568,0.31922,0.84499
497.638,55.03386,-3.15568,0.32113,0.84449
498.238,55.0934,-3.15568,0.32058,0.84398
498.838,55.1531,-3.15709,0.322,0.84348
499.438,55.21241,-3.15824,0.31857,0.84298
500.038,55.272,-3.15953,0.32287,0.84247
500.638,55.33141,-3.16083,0.3231,0.84197
501.238,55.39094,-3.16083,0.3238,0.84146
501.838,55.4506,-3.16082,0.32446,0.84096
502.438,55.5101,-3.16214,0.324,0.84045
503.038,55.5698,-3.16346,0.32457,0.83994
503.638,55.62936,-3.16346,0.32505,0.83944
504.238,55.6889,-3.16478,0.32406,0.83893
504.838,55.74875,-3.16379,0.32416,0.83842
505.438,55.8085,-3.16511,0.32568,0.83792
506.038,55.86812,-3.16512,0.32411,0.83741
506.638,55.92785,-3.16642,0.32367,0.8369
507.238,55.98738,-3.16892,0.3202,0.83639
507.838,56.04695,-3.16874,0.32173,0.83589
508.438,56.1068,-3.1612,0.32234,0.83538
509.038,56.1663,-3.16685,0.32398,0.83487
509.638,56.2259,-3.1687,0.32335,0.83436
510.238,56.28549,-3.17092,0.32194,0.83385
510.838,56.3451,-3.17036,0.32252,0.83334
511.438,56.4048,-3.17096,0.32052,0.83283
512.038,56.4644,-3.17092,0.32239,0.83232
512.638,56.5241,-3.17092,0.31787,0.83181
513.238,56.5839,-3.17135,0.32139,0.8313
513.838,56.64356,-3.17224,0.32047,0.83079
514.438,56.70338,-3.17362,0.31705,0.83028
515.038,56.763,-3.17225,0.31644,0.82977
515.638,56.82271,-3.17355,0.31608,0.82925
516.238,56.88222,-3.17355,0.31517,0.82874
516.838,56.94194,-3.17498,0.31476,0.82823
517.438,57.00141,-3.17618,0.31474,0.82772
518.038,57.06095,-3.17625,0.31402,0.8272
518.638,57.1206,-3.1775,0.31255,0.82669
519.238,57.1802,-3.17591,0.31351,0.82618
519.838,57.24,-3.17645,0.31108,0.82566
520.438,57.2996,-3.17863,0.30977,0.82515
521.038,57.3593,-3.17925,0.3086,0.82464
521.638,57.41895,-3.17925,0.30882,0.82412
522.238,57.4786,-3.18057,0.31002,0.82361
522.838,57.53807,-3.18057,0.30968,0.82309
523.438,57.5977,-3.18156,0.30581,0.82258
524.038,57.6575,-3.18188,0.30658,0.82206
524.638,57.71735,-3.1832,0.30716,0.82155
525.238,57.77706,-3.1832,0.30501,0.82103
525.838,57.83687,-3.1845,0.30546,0.82051
526.438,57.8966,-3.18456,0.30593,0.82
527.038,57.9565,-3.18309,0.30271,0.81948
527.638,58.01622,-3.18611,0.30293,0.81896
528.238,58.0758,-3.18608,0.29653,0.81845
528.838,58.13548,-3.18737,0.29817,0.81793
529.438,58.19505,-3.18737,0.29415,0.81741
530.038,58.25498,-3.18774,0.29362,0.81689
530.638,58.3148,-3.18771,0.29001,0.81637
531.238,58.37463,-3.18771,0.29048,0.81586
531.838,58.4344,-3.18772,0.28776,0.81534
532.438,58.4941,-3.18902,0.28562,0.81482
533.038,58.5538,-3.18902,0.28359,0.8143
533.638,58.6134,-3.19027,0.28115,0.81378
534.238,58.67325,-3.19165,0.28143,0.81326
534.838,58.73293,-3.19295,0.28141,0.81274
535.438,58.7926,-3.19168,0.27916,0.81222
536.038,58.85207,-3.19165,0.27711,0.8117
536.638,58.9119,-3.19297,0.27716,0.81118
537.238,58.9715,-3.19297,0.27591,0.81066
537.838,59.0313,-3.19428,0.27531,0.81014
538.438,59.0911,-3.19429,0.27101,0.80962
539.038,59.151,-3.19364,0.27278,0.80909
539.638,59.2109,-3.19494,0.26882,0.80857
540.238,59.27097,-3.19575,0.268,0.80805
540.838,59.3309,-3.19626,0.26823,0.80753
541.438,59.3908,-3.19758,0.26882,0.80701
542.038,59.45066,-3.19758,0.26798,0.80648
542.638,59.51039,-3.19758,0.26415,0.80596
543.238,59.57029,-3.19758,0.2637,0.80544
543.838,59.63021,-3.19888,0.26092,0.80491
544.438,59.69025,-3.1989,0.25914,0.80439
545.038,59.7504,-3.20021,0.26195,0.80387
545.638,59.8104,-3.19956,0.2597,0.80334
546.238,59.87025,-3.20086,0.25951,0.80282
546.838,59.9303,-3.20086,0.26009,0.80229
547.438,59.9902,-3.20217,0.25719,0.80177
548.038,60.05008,-3.20119,0.25536,0.80124
548.638,60.11005,-3.20184,0.25643,0.80072
549.238,60.17011,-3.2025,0.25665,0.80019
549.838,60.23035,-3.2026,0.25403,0.79967
550.438,60.29055,-3.19962,0.25073,0.79914
551.038,60.35055,-3.20889,0.25307,0.79862
551.638,60.4106,-3.20666,0.2488,0.79809
552.238,60.47061,-3.2054,0.2536,0.79756
552.838,60.53057,-3.20646,0.25081,0.79704
553.438,60.5907,-3.20614,0.25157,0.79651
554.038,60.6508,-3.20613,0.24873,0.79598
554.638,60.71091,-3.20613,0.24977,0.79546
555.238,60.7712,-3.20744,0.24556,0.79493
555.838,60.8313,-3.20744,0.24555,0.7944
556.438,60.8915,-3.20745,0.24692,0.79387
557.038,60.95156,-3.20745,0.24821,0.79335
557.638,61.0115,-3.20891,0.24601,0.79282
558.238,61.0714,-3.21006,0.24459,0.79229
558.838,61.13151,-3.21002,0.24525,0.79176
559.438,61.19161,-3.21139,0.24723,0.79123
560.038,61.25147,-3.21067,0.24539,0.7907
560.638,61.3114,-3.2121,0.24635,0.79017
561.238,61.37141,-3.21214,0.24727,0.78964
561.838,61.4314,-3.21336,0.24844,0.78911
562.438,61.4913,-3.21333,0.2458,0.78858
563.038,61.5512,-3.21403,0.24704,0.78805
563.638,61.61119,-3.21403,0.24676,0.78752
564.238,61.6711,-3.21403,0.24478,0.78699
564.838,61.7311,-3.21403,0.24583,0.78646
565.438,61.791,-3.21531,0.24811,0.78593
566.038,61.85085,-3.21633,0.24767,0.7854
566.638,61.91049,-3.21632,0.24775,0.78487
567.238,61.9703,-3.21506,0.2455,0.78434
567.838,62.0304,-3.21633,0.24947,0.78381
568.438,62.09039,-3.21772,0.25065,0.78328
569.038,62.15045,-3.22072,0.25002,0.78274
569.638,62.2105,-3.2201,0.25289,0.78221
570.238,62.27036,-3.22248,0.24884,0.78168
570.838,62.33024,-3.22116,0.24884,0.78115
571.438,62.3902,-3.2238,0.24876,0.78062
572.038,62.4502,-3.21848,0.24914,0.78008
572.638,62.51008,-3.21907,0.25258,0.77955
573.238,62.5701,-3.22129,0.25005,0.77902
573.838,62.6301,-3.22102,0.25238,0.77848
574.438,62.69007,-3.22157,0.25286,0.77795
575.038,62.75,-3.2226,0.25061,0.77742
575.638,62.80985,-3.22291,0.2538,0.77688
576.238,62.86987,-3.22257,0.2554,0.77635
576.838,62.92985,-3.2239,0.25291,0.77581
577.438,62.98984,-3.2239,0.25499,0.77528
578.038,63.05,-3.22258,0.25548,0.77474
578.638,63.1099,-3.22392,0.25619,0.77421
579.238,63.16995,-3.22521,0.25664,0.77368
579.838,63.22988,-3.22521,0.2545,0.77314
580.438,63.29022,-3.22521,0.25908,0.77261
581.038,63.35041,-3.22653,0.25965,0.77207
581.638,63.41065,-3.22654,0.2606,0.77153
582.238,63.47064,-3.22828,0.25855,0.771
582.838,63.5306,-3.22645,0.26053,0.77046
583.438,63.5906,-3.22653,0.26089,0.76993
584.038,63.65068,-3.22523,0.26136,0.76939
584.638,63.7108,-3.22522,0.26389,0.76885
585.238,63.77094,-3.22654,0.26615,0.76832
585.838,63.8311,-3.22661,0.26628,0.76778
586.438,63.8914,-3.22784,0.26499,0.76724
587.038,63.9514,-3.22843,0.27254,0.76671
587.638,64.0115,-3.22818,0.26995,0.76617
588.238,64.07177,-3.22779,0.27239,0.76563
588.838,64.13221,-3.22916,0.27244,0.7651
589.438,64.19256,-3.22916,0.27311,0.76456
590.038,64.25288,-3.22987,0.27256,0.76402
590.638,64.3128,-3.23047,0.27124,0.76348
591.238,64.37306,-3.2318,0.27317,0.76294
591.838,64.43311,-3.23047,0.27553,0.76241
592.438,64.49336,-3.23048,0.27422,0.76187
593.038,64.55368,-3.23177,0.27924,0.76133
593.638,64.61398,-3.23166,0.27739,0.76079
594.238,64.67424,-3.23278,0.28025,0.76025
594.838,64.7347,-3.23465,0.27883,0.75971
595.438,64.79495,-3.23418,0.28084,0.75917
596.038,64.8552,-3.23306,0.28592,0.75864
596.638,64.91532,-3.23311,0.28564,0.7581
597.238,64.9756,-3.23374,0.28577,0.75756
597.838,65.03563,-3.23488,0.28486,0.75702
598.438,65.09576,-3.23366,0.28818,0.75648
599.038,65.15595,-3.23482,0.29075,0.75594
599.638,65.21627,-3.23497,0.28986,0.7554
600.238,65.27671,-3.23497,0.2911,0.75486
600.838,65.3369,-3.23497,0.29161,0.75432
601.438,65.39737,-3.23496,0.29404,0.75378
602.038,65.45756,-3.23725,0.29616,0.75324
602.638,65.5179,-3.23724,0.29905,0.7527
603.238,65.57815,-3.23794,0.29876,0.75215
603.838,65.63838,-3.23855,0.29577,0.75161
604.438,65.6985,-3.23859,0.30054,0.75107
605.038,65.7586,-3.23925,0.30091,0.75053
605.638,65.81883,-3.23925,0.30266,0.74999
606.238,65.8789,-3.23991,0.30608,0.74945
606.838,65.9392,-3.23991,0.31012,0.74891
607.438,65.99939,-3.24168,0.30832,0.74836
608.038,66.05975,-3.24084,0.30875,0.74782
608.638,66.12013,-3.2397,0.31173,0.74728
609.238,66.1807,-3.24068,0.31248,0.74674
609.838,66.24093,-3.24068,0.3121,0.7462
610.438,66.30119,-3.24068,0.31574,0.74565
611.038,66.36118,-3.24068,0.31861,0.74511
611.638,66.42111,-3.24204,0.3168,0.74457
612.238,66.48135,-3.24303,0.31779,0.74403
612.838,66.54149,-3.24354,0.32166,0.74348
613.438,66.60178,-3.2443,0.32565,0.74294
614.038,66.66206,-3.24566,0.32728,0.7424
614.638,66.72219,-3.24561,0.32578,0.74186
615.238,66.7824,-3.24561,0.32842,0.74131
615.838,66.8426,-3.24694,0.33014,0.74077
616.438,66.90286,-3.24693,0.33255,0.74022
617.038,66.96311,-3.24692,0.33353,0.73968
617.638,67.023,-3.2479,0.33105,0.73914
618.238,67.08331,-3.24791,0.33508,0.73859
618.838,67.1435,-3.24933,0.33763,0.73805
619.438,67.2036,-3.24921,0.33512,0.73751
620.038,67.26384,-3.24825,0.33532,0.73696
620.638,67.32424,-3.24951,0.33678,0.73642
621.238,67.3846,-3.24957,0.33668,0.73587
621.838,67.44485,-3.24957,0.33716,0.73533
622.438,67.50487,-3.25092,0.33518,0.73478
623.038,67.56494,-3.25088,0.33848,0.73424
623.638,67.62518,-3.24952,0.33499,0.73369
624.238,67.68554,-3.25089,0.33335,0.73315
624.838,67.74571,-3.25088,0.33589,0.73261
625.438,67.8057,-3.25088,0.33508,0.73206
626.038,67.86584,-3.25089,0.3353,0.73151
626.638,67.92591,-3.2522,0.33289,0.73097
627.238,67.98617,-3.2522,0.33467,0.73042
627.838,68.04643,-3.2522,0.33577,0.72988
628.438,68.1066,-3.25331,0.33516,0.72933
629.038,68.16669,-3.25351,0.33692,0.72879
629.638,68.22685,-3.25351,0.33576,0.72824
630.238,68.2869,-3.25466,0.33518,0.7277
630.838,68.34698,-3.25485,0.33728,0.72715
631.438,68.4071,-3.25417,0.33763,0.7266
632.038,68.46726,-3.25351,0.33664,0.72606
632.638,68.52755,-3.25352,0.33964,0.72551
633.238,68.5877,-3.25476,0.33987,0.72497
633.838,68.64795,-3.25614,0.34027,0.72442
634.438,68.7081,-3.25612,0.34485,0.72387
635.038,68.7684,-3.25588,0.3459,0.72333
635.638,68.8286,-3.25326,0.34629,0.72278
636.238,68.88863,-3.25614,0.34618,0.72223
636.838,68.94892,-3.25878,0.34594,0.72169
637.438,69.00931,-3.25746,0.34337,0.72114
638.038,69.0698,-3.25746,0.34404,0.72059
638.638,69.13025,-3.2564,0.34419,0.72005
639.238,69.19082,-3.25746,0.34442,0.7195
639.838,69.25148,-3.25746,0.34316,0.71895
640.438,69.31198,-3.25807,0.34463,0.7184
641.038,69.37258,-3.25874,0.34567,0.71786
641.638,69.43311,-3.25911,0.34595,0.71731
642.238,69.49369,-3.2591,0.34541,0.71676
642.838,69.55422,-3.25878,0.34701,0.71621
643.438,69.61477,-3.25876,0.34727,0.71567
644.038,69.67498,-3.25977,0.34695,0.71512
644.638,69.73554,-3.25898,0.34696,0.71457
645.238,69.79584,-3.25878,0.34919,0.71402
645.838,69.8563,-3.25913,0.35019,0.71348
646.438,69.91665,-3.25911,0.34821,0.71293
647.038,69.97705,-3.25903,0.3515,0.71238
647.638,70.03748,-3.26034,0.34862,0.71183
648.238,70.09795,-3.26196,0.34929,0.71128
648.838,70.15855,-3.26186,0.34869,0.71074
649.438,70.21899,-3.26119,0.34649,0.71019
650.038,70.27937,-3.26053,0.34836,0.70964
650.638,70.33966,-3.26053,0.34757,0.70909
651.238,70.39981,-3.26053,0.34609,0.70854
651.838,70.4601,-3.26185,0.34708,0.70799
652.438,70.52038,-3.26308,0.34735,0.70745
653.038,70.5808,-3.26184,0.3469,0.7069
653.638,70.6413,-3.26315,0.34622,0.70635
654.238,70.70164,-3.26374,0.34771,0.7058
654.838,70.7619,-3.26316,0.34824,0.70525
655.438,70.82215,-3.26342,0.34852,0.7047
656.038,70.88244,-3.26415,0.34748,0.70415
656.638,70.9427,-3.26415,0.34919,0.7036
657.238,71.003,-3.26417,0.34974,0.70305
657.838,71.06331,-3.26514,0.34914,0.70251
658.438,71.12358,-3.26383,0.34888,0.70196
659.038,71.18411,-3.26665,0.3492,0.70141
659.638,71.24464,-3.26516,0.3486,0.70086
660.238,71.30544,-3.26255,0.35149,0.70031
660.838,71.36593,-3.26251,0.35044,0.69976
661.438,71.42651,-3.26248,0.35046,0.69921
662.038,71.4871,-3.26284,0.34995,0.69866
662.638,71.54767,-3.26409,0.35132,0.69811
663.238,71.60804,-3.26415,0.35075,0.69756
663.838,71.66858,-3.26415,0.35272,0.69701
664.438,71.7291,-3.26547,0.35068,0.69646
665.038,71.78959,-3.26416,0.35002,0.69591
665.638,71.8501,-3.26417,0.35388,0.69536
666.238,71.91059,-3.26415,0.35272,0.69481
666.838,71.97116,-3.26415,0.35087,0.69426
667.438,72.03163,-3.26415,0.34967,0.69371
668.038,72.0921,-3.2646,0.34875,0.69316
668.638,72.15273,-3.26614,0.35219,0.69261
669.238,72.21343,-3.26615,0.35114,0.69207
669.838,72.27413,-3.26653,0.35044,0.69152
670.438,72.33474,-3.26547,0.34839,0.69097
671.038,72.39527,-3.26547,0.34873,0.69042
671.638,72.4558,-3.26677,0.34847,0.68987
672.238,72.51632,-3.2666,0.3475,0.68932
672.838,72.57691,-3.2658,0.35074,0.68877
673.438,72.6375,-3.2658,0.34962,0.68821
674.038,72.6981,-3.2658,0.34792,0.68766
674.638,72.7587,-3.26712,0.348,0.68711
675.238,72.8193,-3.26712,0.3489,0.68656
675.838,72.87993,-3.26712,0.34864,0.68601
676.438,72.94032,-3.26788,0.34742,0.68546
677.038,73.00086,-3.26843,0.34811,0.68491
677.638,73.06132,-3.26843,0.34621,0.68436
678.238,73.12212,-3.26843,0.34904,0.68381
678.838,73.18274,-3.26839,0.34696,0.68326
679.438,73.24335,-3.26943,0.34185,0.68271
680.038,73.304,-3.2694,0.34713,0.68216
680.638,73.36449,-3.2681,0.34645,0.68161
681.238,73.42503,-3.2681,0.34222,0.68106
681.838,73.48546,-3.2681,0.34388,0.68051
682.438,73.54581,-3.2681,0.34272,0.67996
683.038,73.60627,-3.2681,0.34259,0.67941
683.638,73.66685,-3.2681,0.34155,0.67886
684.238,73.72748,-3.26815,0.34001,0.67831
684.838,73.788,-3.26876,0.33988,0.67776
685.438,73.8484,-3.26876,0.33644,0.67721
686.038,73.90886,-3.26938,0.33608,0.67666
686.638,73.96939,-3.27007,0.34042,0.67611
687.238,74.02978,-3.27007,0.33797,0.67556
687.838,74.09036,-3.27073,0.34133,0.67501
688.438,74.15085,-3.27069,0.33816,0.67445
689.038,74.21136,-3.2693,0.33365,0.6739
689.638,74.27184,-3.27007,0.3354,0.67335
690.238,74.33215,-3.27125,0.33861,0.6728
690.838,74.39282,-3.2707,0.33624,0.67225
691.438,74.45326,-3.27008,0.33779,0.6717
692.038,74.51389,-3.27137,0.33829,0.67115
692.638,74.5745,-3.27139,0.33794,0.6706
693.238,74.635,-3.27139,0.33568,0.67005
693.838,74.6955,-3.27236,0.33626,0.6695
694.438,74.75604,-3.27237,0.33635,0.66895
695.038,74.81687,-3.27237,0.33409,0.6684
695.638,74.87772,-3.2727,0.33353,0.66785
696.238,74.93861,-3.27206,0.33524,0.6673
696.838,74.99944,-3.27338,0.33206,0.66675
697.438,75.06004,-3.27338,0.33432,0.6662
698.038,75.12054,-3.2727,0.3348,0.66564
698.638,75.1811,-3.27403,0.33492,0.66509
699.238,75.24171,-3.27403,0.33488,0.66454
699.838,75.30233,-3.27403,0.33567,0.66399
700.438,75.3631,-3.27403,0.33324,0.66344
701.038,75.42385,-3.27498,0.3325,0.66289
701.638,75.48461,-3.27501,0.33012,0.66234
702.238,75.54536,-3.27511,0.33237,0.66179
702.838,75.6063,-3.27369,0.32968,0.66124
703.438,75.66704,-3.27402,0.33088,0.66069
704.038,75.72787,-3.27396,0.33078,0.66014
704.638,75.7886,-3.27534,0.33164,0.65959
705.238,75.8492,-3.27534,0.3297,0.65904
705.838,75.91011,-3.27534,0.33234,0.65849
706.438,75.97089,-3.27534,0.33107,0.65794
707.038,76.0316,-3.27534,0.32891,0.65739
707.638,76.09209,-3.27534,0.32889,0.65684
708.238,76.15268,-3.27654,0.32886,0.65628
708.838,76.21338,-3.27665,0.32991,0.65573
709.438,76.2739,-3.27665,0.33118,0.65518
710.038,76.33453,-3.27557,0.32601,0.65463
710.638,76.3952,-3.27534,0.3301,0.65408
711.238,76.45604,-3.27559,0.32847,0.65353
711.838,76.51689,-3.27698,0.32818,0.65298
712.438,76.57759,-3.27698,0.33023,0.65243
713.038,76.6382,-3.27698,0.32936,0.65188
713.638,76.6989,-3.2783,0.32936,0.65133
714.238,76.75954,-3.2783,0.3313,0.65078
714.838,76.8202,-3.2783,0.32875,0.65023
715.438,76.88084,-3.2783,0.33122,0.64968
716.038,76.94163,-3.27715,0.33154,0.64913
716.638,77.00228,-3.27699,0.3312,0.64858
717.238,77.06302,-3.27803,0.32996,0.64803
717.838,77.12393,-3.27797,0.33254,0.64748
718.438,77.18471,-3.27795,0.33151,0.64693
719.038,77.24555,-3.27687,0.33031,0.64638
719.638,77.3061,-3.277,0.33409,0.64583
720.238,77.36639,-3.27833,0.33336,0.64528
720.838,77.4272,-3.27916,0.33203,0.64473
721.438,77.48805,-3.27962,0.33235,0.64418
722.038,77.54936,-3.27961,0.3339,0.64363
722.638,77.61036,-3.27895,0.33452,0.64308
723.238,77.6713,-3.27994,0.33617,0.64253
723.838,77.73209,-3.27929,0.33375,0.64198
724.438,77.7928,-3.27929,0.33734,0.64143
725.038,77.8535,-3.27961,0.34015,0.64088
725.638,77.91427,-3.27964,0.34002,0.64033
726.238,77.97502,-3.28027,0.33712,0.63978
726.838,78.0359,-3.28027,0.33841,0.63923
727.438,78.09692,-3.28025,0.336,0.63868
728.038,78.1578,-3.27962,0.33732,0.63813
728.638,78.21889,-3.27962,0.33603,0.63758
729.238,78.27967,-3.28094,0.33647,0.63703
729.838,78.34061,-3.28094,0.3356,0.63649
730.438,78.40148,-3.28094,0.33584,0.63594
731.038,78.46235,-3.28094,0.33877,0.63539
731.638,78.52317,-3.28094,0.33881,0.63484
732.238,78.58404,-3.28094,0.33864,0.63429
732.838,78.64501,-3.28094,0.33715,0.63374
733.438,78.7059,-3.28133,0.33768,0.63319
734.038,78.76677,-3.2816,0.34125,0.63264
734.638,78.82743,-3.28159,0.33653,0.63209
735.238,78.88825,-3.28159,0.3417,0.63154
735.838,78.94904,-3.28291,0.34023,0.63099
736.438,79.0098,-3.28291,0.3377,0.63045
737.038,79.07059,-3.28225,0.3393,0.6299
737.638,79.13136,-3.28225,0.34013,0.62935
738.238,79.192,-3.28225,0.34094,0.6288
738.838,79.25264,-3.28319,0.3398,0.62825
739.438,79.31344,-3.28357,0.34115,0.6277
740.038,79.37424,-3.28357,0.33608,0.62715
740.638,79.43515,-3.28357,0.34217,0.6266
741.238,79.4961,-3.28357,0.33895,0.62606
741.838,79.55686,-3.28357,0.33774,0.62551
742.438,79.61769,-3.28491,0.34207,0.62496
743.038,79.6785,-3.28488,0.33999,0.62441
743.638,79.73931,-3.28356,0.33928,0.62386
744.238,79.80019,-3.28357,0.33555,0.62332
744.838,79.86108,-3.28488,0.33761,0.62277
745.438,79.92195,-3.28488,0.33877,0.62222
746.038,79.98264,-3.28488,0.34148,0.62167
746.138,79.9926,-3.28488,0.33767,0.62158