File: 01_Data/Pressure_Treated_Deck/STA/N2/3K_min/Pressure_Treated_Deck_STA_N2_3KData_212106_R1.csv
##Temp./Â°C,Time/min,Mass loss(subtr.2)/mg,DSC(subtr.2)/mW,Sensit./(uV/mW)
48.871,10.01,-0.04048,0.18287,0.58408
49.471,12.06665,-0.04124448,0.23987,0.58436
50.071,12.6693,-0.04244636,0.27957,0.58465
50.671,13.1411,-0.04245986,0.29599,0.58493
51.271,13.54677,-0.04146639,0.32391,0.58521
51.871,13.9182,-0.04362329,0.33683,0.58549
52.471,14.26609,-0.04354431,0.35861,0.58577
53.071,14.5952,-0.04217409,0.35845,0.58605
53.671,14.9086,-0.04487155,0.37473,0.58633
54.271,15.2087,-0.04453721,0.38906,0.5866
54.871,15.49819,-0.04552997,0.39493,0.58688
55.471,15.77935,-0.04420932,0.41308,0.58715
56.071,16.05292,-0.04298738,0.4182,0.58743
56.671,16.31898,-0.04421,0.42209,0.5877
57.271,16.58012,-0.04420997,0.43214,0.58797
57.871,16.8362,-0.04419571,0.44665,0.58825
58.471,17.0878,-0.04692986,0.44806,0.58852
59.071,17.33492,-0.04665028,0.46306,0.58878
59.671,17.57824,-0.04981714,0.45781,0.58905
60.271,17.81804,-0.04717019,0.45492,0.58932
60.871,18.05507,-0.04841094,0.46633,0.58959
61.471,18.29027,-0.04848515,0.48486,0.58985
62.071,18.52205,-0.04972696,0.47527,0.59012
62.671,18.75155,-0.04880996,0.48464,0.59038
63.271,18.97803,-0.0493676,0.49008,0.59064
63.871,19.2031,-0.04946951,0.49288,0.59091
64.471,19.427,-0.05046,0.49509,0.59117
65.071,19.65028,-0.04948008,0.49141,0.59143
65.671,19.8722,-0.0521,0.48737,0.59169
66.271,20.0923,-0.05221486,0.50874,0.59194
66.871,20.3113,-0.05178,0.48546,0.5922
67.471,20.52885,-0.05310255,0.48541,0.59246
68.071,20.74534,-0.05307836,0.50287,0.59271
68.671,20.95958,-0.05189045,0.51591,0.59297
69.271,21.17341,-0.05331136,0.50797,0.59322
69.871,21.3858,-0.05342782,0.52033,0.59347
70.471,21.59831,-0.05539328,0.52042,0.59372
71.071,21.81,-0.05376008,0.51633,0.59397
71.671,22.0207,-0.05309578,0.51441,0.59422
72.271,22.23116,-0.05276587,0.50977,0.59447
72.871,22.44068,-0.04853943,0.50833,0.59472
73.471,22.64968,-0.06004183,0.51783,0.59497
74.071,22.8586,-0.05627026,0.52191,0.59521
74.671,23.06674,-0.05759,0.52781,0.59546
75.271,23.27469,-0.05615997,0.53243,0.5957
75.871,23.4821,-0.05535201,0.53419,0.59594
76.471,23.6886,-0.05617,0.516,0.59619
77.071,23.8955,-0.05747864,0.52154,0.59643
77.671,24.10203,-0.05879,0.52583,0.59667
78.271,24.30856,-0.05726166,0.51162,0.59691
78.871,24.51367,-0.05725578,0.52049,0.59714
79.471,24.71861,-0.04951463,0.51257,0.59738
80.071,24.92362,-0.05781542,0.512,0.59762
80.671,25.12712,-0.05911699,0.50425,0.59785
81.271,25.33099,-0.05912,0.49571,0.59809
81.871,25.5339,-0.05933354,0.48519,0.59832
82.471,25.73701,-0.05976878,0.48423,0.59855
83.071,25.9393,-0.06033001,0.47939,0.59879
83.671,26.1414,-0.06030756,0.48067,0.59902
84.271,26.344,-0.06165,0.48125,0.59925
84.871,26.54604,-0.05904692,0.49016,0.59947
85.471,26.7474,-0.0585165,0.48226,0.5997
86.071,26.94762,-0.06088969,0.46885,0.59993
86.671,27.14795,-0.0607689,0.48016,0.60015
87.271,27.34755,-0.06217625,0.46579,0.60038
87.871,27.54792,-0.06076999,0.47152,0.6006
88.471,27.7477,-0.0607832,0.47229,0.60083
89.071,27.94756,-0.05946067,0.46822,0.60105
89.671,28.1473,-0.06141957,0.46842,0.60127
90.271,28.34644,-0.06080779,0.46279,0.60149
90.871,28.54478,-0.05952168,0.46973,0.60171
91.471,28.74342,-0.0620967,0.46788,0.60193
92.071,28.94155,-0.05946032,0.46569,0.60214
92.671,29.1392,-0.06306529,0.44937,0.60236
93.271,29.3366,-0.06154,0.47114,0.60258
93.871,29.5328,-0.06023007,0.46306,0.60279
94.471,29.72963,-0.06089939,0.46849,0.603
95.071,29.92669,-0.05935,0.46941,0.60322
95.671,30.12367,-0.06065981,0.46802,0.60343
96.271,30.3207,-0.06231032,0.46222,0.60364
96.871,30.51697,-0.05966581,0.45564,0.60385
97.471,30.713,-0.06099,0.45698,0.60406
98.071,30.9088,-0.05835628,0.44848,0.60426
98.671,31.1045,-0.05967902,0.46922,0.60447
99.271,31.2999,-0.06098949,0.46179,0.60468
99.871,31.496,-0.05939533,0.46539,0.60488
100.471,31.6922,-0.0613658,0.45729,0.60509
101.071,31.888,-0.06081149,0.46535,0.60529
101.671,32.08337,-0.06077178,0.45675,0.60549
102.271,32.27809,-0.06147812,0.4512,0.60569
102.871,32.4732,-0.06113933,0.46065,0.60589
103.471,32.66818,-0.06011998,0.46176,0.60609
104.071,32.86329,-0.05892352,0.47367,0.60629
104.671,33.05874,-0.06022998,0.46343,0.60649
105.271,33.25335,-0.05869631,0.45424,0.60668
105.871,33.44781,-0.05998818,0.46567,0.60688
106.471,33.64155,-0.05999971,0.46537,0.60707
107.071,33.8352,-0.05929185,0.47124,0.60726
107.671,34.02921,-0.05780721,0.46577,0.60746
108.271,34.22333,-0.06054933,0.4694,0.60765
108.871,34.4174,-0.05913,0.47469,0.60784
109.471,34.6111,-0.06043893,0.45702,0.60803
110.071,34.8047,-0.06186165,0.46628,0.60822
110.671,34.99824,-0.06054861,0.47295,0.6084
111.271,35.1922,-0.05925273,0.4542,0.60859
111.871,35.38552,-0.06052933,0.45607,0.60878
112.471,35.57898,-0.05868899,0.45681,0.60896
113.071,35.7725,-0.05846933,0.45135,0.60915
113.671,35.96569,-0.05989,0.44795,0.60933
114.271,36.16016,-0.05934954,0.46561,0.60951
114.871,36.35386,-0.05879493,0.46504,0.60969
115.471,36.5479,-0.0601259,0.46958,0.60987
116.071,36.7414,-0.05873901,0.4516,0.61005
116.671,36.93458,-0.05865519,0.43778,0.61023
117.271,37.12761,-0.05856863,0.44045,0.6104
117.871,37.3198,-0.0578099,0.46848,0.61058
118.471,37.51275,-0.0590106,0.46749,0.61076
119.071,37.70547,-0.05967002,0.46372,0.61093
119.671,37.89884,-0.05835101,0.47034,0.6111
120.271,38.09189,-0.05907318,0.47149,0.61128
120.871,38.28451,-0.05977934,0.46726,0.61145
121.471,38.4773,-0.05715184,0.46702,0.61162
122.071,38.67046,-0.05977993,0.46233,0.61179
122.671,38.86288,-0.0585799,0.4666,0.61196
123.271,39.0559,-0.0579241,0.46365,0.61212
123.871,39.24863,-0.05659895,0.45356,0.61229
124.471,39.44109,-0.05792284,0.46533,0.61245
125.071,39.63303,-0.05692533,0.45718,0.61262
125.671,39.82423,-0.05956423,0.46732,0.61278
126.271,40.01592,-0.05595475,0.4685,0.61295
126.871,40.20786,-0.05813706,0.46978,0.61311
127.471,40.39979,-0.05835914,0.47162,0.61327
128.071,40.59168,-0.05791918,0.46659,0.61343
128.671,40.78376,-0.05824042,0.47653,0.61359
129.271,40.9756,-0.05661006,0.4733,0.61374
129.871,41.16762,-0.05662227,0.46653,0.6139
130.471,41.3594,-0.05792,0.47772,0.61406
131.071,41.5509,-0.05857104,0.47188,0.61421
131.671,41.74237,-0.05856777,0.48031,0.61437
132.271,41.93377,-0.05789885,0.47324,0.61452
132.871,42.12511,-0.0585731,0.47493,0.61467
133.471,42.31604,-0.05858,0.475,0.61482
134.071,42.5074,-0.05987276,0.47817,0.61497
134.671,42.69843,-0.05770053,0.47379,0.61512
135.271,42.88985,-0.05902002,0.47981,0.61527
135.871,43.08112,-0.05836,0.47223,0.61542
136.471,43.27169,-0.05935037,0.48971,0.61556
137.071,43.46223,-0.05790284,0.48502,0.61571
137.671,43.65256,-0.05764984,0.48421,0.61585
138.271,43.8427,-0.05890518,0.47351,0.616
138.871,44.03284,-0.05814998,0.48483,0.61614
139.471,44.22272,-0.05786218,0.49599,0.61628
140.071,44.41292,-0.05641457,0.48821,0.61642
140.671,44.6036,-0.0577,0.48471,0.61656
141.271,44.79438,-0.05863103,0.48059,0.6167
141.871,44.98506,-0.05750164,0.49228,0.61684
142.471,45.1745,-0.05531818,0.49107,0.61698
143.071,45.36391,-0.0545075,0.51379,0.61711
143.671,45.55392,-0.05563059,0.50243,0.61725
144.271,45.74355,-0.05589874,0.51707,0.61738
144.871,45.93358,-0.05747626,0.51711,0.61751
145.471,46.1228,-0.05794956,0.51571,0.61765
146.071,46.31207,-0.0566,0.52604,0.61778
146.671,46.5013,-0.05791754,0.518,0.61791
147.271,46.69041,-0.05662534,0.52211,0.61804
147.871,46.87972,-0.05639005,0.51457,0.61816
148.471,47.06879,-0.05787091,0.52425,0.61829
149.071,47.25819,-0.05708252,0.53181,0.61842
149.671,47.4471,-0.0577164,0.54032,0.61854
150.271,47.63572,-0.05171336,0.52854,0.61867
150.871,47.82431,-0.056771,0.52179,0.61879
151.471,48.01283,-0.05671651,0.53184,0.61891
152.071,48.20193,-0.05535402,0.51586,0.61904
152.671,48.39096,-0.05798982,0.51906,0.61916
153.271,48.58024,-0.05539615,0.52717,0.61928
153.871,48.76961,-0.0580322,0.53225,0.61939
154.471,48.95884,-0.0571069,0.52435,0.61951
155.071,49.14778,-0.05702803,0.52784,0.61963
155.671,49.33645,-0.05967002,0.54944,0.61975
156.271,49.52453,-0.05774581,0.54288,0.61986
156.871,49.71262,-0.05512566,0.54781,0.61997
157.471,49.9017,-0.05750659,0.55346,0.62009
158.071,50.0907,-0.05707595,0.56053,0.6202
158.671,50.28005,-0.0578102,0.55717,0.62031
159.271,50.4688,-0.05912,0.54824,0.62042
159.871,50.65733,-0.05946875,0.54592,0.62053
160.471,50.84594,-0.06043823,0.54768,0.62064
161.071,51.0349,-0.06044,0.54976,0.62075
161.671,51.22387,-0.05902312,0.54918,0.62085
162.271,51.4123,-0.05912001,0.5513,0.62096
162.871,51.60096,-0.05714998,0.5517,0.62106
163.471,51.78887,-0.05803718,0.55035,0.62117
164.071,51.97701,-0.05879215,0.56628,0.62127
164.671,52.16507,-0.06109812,0.55555,0.62137
165.271,52.35335,-0.06076352,0.56515,0.62147
165.871,52.54185,-0.05972378,0.56698,0.62157
166.471,52.72985,-0.06076724,0.55963,0.62167
167.071,52.91814,-0.06077093,0.56533,0.62177
167.671,53.10686,-0.05978,0.56256,0.62186
168.271,53.2951,-0.06110675,0.55959,0.62196
168.871,53.4836,-0.0586614,0.55802,0.62205
169.471,53.67246,-0.05963849,0.55589,0.62215
170.071,53.8616,-0.06143091,0.55466,0.62224
170.671,54.05055,-0.06012824,0.56548,0.62233
171.271,54.23925,-0.06270153,0.56173,0.62242
171.871,54.42729,-0.06291854,0.55409,0.62251
172.471,54.61534,-0.06288352,0.55435,0.6226
173.071,54.80373,-0.06206376,0.5702,0.62269
173.671,54.99119,-0.06310162,0.56886,0.62278
174.271,55.1789,-0.06230645,0.55941,0.62287
174.871,55.36645,-0.06293709,0.56378,0.62295
175.471,55.5547,-0.06231001,0.56147,0.62304
176.071,55.7434,-0.06369673,0.5684,0.62312
176.671,55.932,-0.06361366,0.5813,0.6232
177.271,56.1211,-0.06502355,0.56576,0.62328
177.871,56.3094,-0.06527,0.58851,0.62337
178.471,56.4979,-0.06374059,0.57638,0.62345
179.071,56.6861,-0.06434467,0.57238,0.62352
179.671,56.87356,-0.06593101,0.57724,0.6236
180.271,57.06139,-0.06580882,0.58135,0.62368
180.871,57.24873,-0.06547842,0.57965,0.62376
181.471,57.43636,-0.06828801,0.57619,0.62383
182.071,57.62398,-0.06264762,0.57076,0.6239
182.671,57.8116,-0.06649578,0.56173,0.62398
183.271,57.99896,-0.06811775,0.56513,0.62405
183.871,58.18623,-0.06397494,0.55618,0.62412
184.471,58.3736,-0.06619138,0.55783,0.62419
185.071,58.5604,-0.0675805,0.56106,0.62426
185.671,58.748,-0.06822801,0.56249,0.62433
186.271,58.93545,-0.06854999,0.58109,0.6244
186.871,59.12308,-0.06723977,0.56764,0.62446
187.471,59.3103,-0.06724986,0.5756,0.62453
188.071,59.49836,-0.07127177,0.57766,0.6246
188.671,59.6867,-0.06865401,0.56993,0.62466
189.271,59.8753,-0.06868343,0.57646,0.62472
189.871,60.06371,-0.07130693,0.5871,0.62478
190.471,60.25156,-0.06998943,0.58391,0.62485
191.071,60.4394,-0.0705594,0.58117,0.62491
191.671,60.62705,-0.07108319,0.58143,0.62497
192.271,60.8148,-0.07087167,0.58327,0.62502
192.871,61.002,-0.07481042,0.58504,0.62508
193.471,61.1882,-0.07026719,0.58335,0.62514
194.071,61.37452,-0.07195388,0.59229,0.62519
194.671,61.561,-0.07590781,0.60074,0.62525
195.271,61.7481,-0.07532043,0.58944,0.6253
195.871,61.9359,-0.07457039,0.58549,0.62535
196.471,62.12315,-0.07602003,0.58839,0.62541
197.071,62.3104,-0.0760195,0.57325,0.62546
197.671,62.4978,-0.0804738,0.58644,0.62551
198.271,62.6847,-0.07701498,0.58709,0.62556
198.871,62.8718,-0.07854216,0.60342,0.6256
199.471,63.0582,-0.0795512,0.59682,0.62565
200.071,63.24499,-0.07953,0.5917,0.6257
200.671,63.43199,-0.08256301,0.58987,0.62574
201.271,63.6193,-0.08193846,0.59511,0.62579
201.871,63.80699,-0.08327587,0.6048,0.62583
202.471,63.9951,-0.08367937,0.6024,0.62587
203.071,64.18336,-0.08357625,0.60265,0.62591
203.671,64.3716,-0.08424002,0.60037,0.62596
204.271,64.5595,-0.08586139,0.59706,0.62599
204.871,64.74739,-0.08735884,0.60097,0.62603
205.471,64.93521,-0.08831608,0.59761,0.62607
206.071,65.12244,-0.08830822,0.60329,0.62611
206.671,65.30932,-0.08830081,0.61177,0.62614
207.271,65.49596,-0.09004865,0.5964,0.62618
207.871,65.6824,-0.08977651,0.60046,0.62621
208.471,65.8694,-0.09236212,0.60102,0.62625
209.071,66.05631,-0.093672,0.61078,0.62628
209.671,66.24329,-0.09465471,0.60944,0.62631
210.271,66.43092,-0.09242072,0.61542,0.62634
210.871,66.6183,-0.09747194,0.62219,0.62637
211.471,66.8056,-0.09759088,0.62536,0.6264
212.071,66.99335,-0.097662,0.63517,0.62643
212.671,67.18103,-0.09993,0.62757,0.62645
213.271,67.36873,-0.10017,0.63179,0.62648
213.871,67.5563,-0.10366,0.64121,0.62651
214.471,67.74359,-0.10344,0.63834,0.62653
215.071,67.93051,-0.10368,0.64165,0.62655
215.671,68.11761,-0.1052,0.63402,0.62658
216.271,68.30388,-0.10759,0.6434,0.6266
216.871,68.49025,-0.10717,0.66247,0.62662
217.471,68.67703,-0.11132,0.63535,0.62664
218.071,68.86341,-0.11147,0.63855,0.62666
218.671,69.0506,-0.11408,0.64768,0.62667
219.271,69.23756,-0.11318,0.62996,0.62669
219.871,69.42415,-0.11492,0.63651,0.62671
220.471,69.61095,-0.11689,0.64273,0.62672
221.071,69.7977,-0.11957,0.65094,0.62673
221.671,69.98491,-0.11946,0.63975,0.62675
222.271,70.17238,-0.12231,0.63602,0.62676
222.871,70.3594,-0.12229,0.61473,0.62677
223.471,70.54644,-0.12649,0.62633,0.62678
224.071,70.73346,-0.12783,0.64758,0.62679
224.671,70.9217,-0.12877,0.64528,0.6268
225.271,71.10977,-0.13185,0.63427,0.62681
225.871,71.2983,-0.13454,0.63163,0.62681
226.471,71.48536,-0.13537,0.62348,0.62682
227.071,71.67234,-0.13831,0.63297,0.62683
227.671,71.8597,-0.1407,0.6304,0.62683
228.271,72.0471,-0.14238,0.62194,0.62683
228.871,72.2351,-0.14096,0.61806,0.62684
229.471,72.4229,-0.14534,0.61709,0.62684
230.071,72.61098,-0.15015,0.63308,0.62684
230.671,72.79775,-0.14892,0.61971,0.62684
231.271,72.98565,-0.15507,0.62498,0.62684
231.871,73.17356,-0.15348,0.6259,0.62683
232.471,73.36145,-0.15565,0.62573,0.62683
233.071,73.54944,-0.15861,0.62087,0.62683
233.671,73.73696,-0.16121,0.63182,0.62682
234.271,73.92421,-0.16358,0.61613,0.62682
234.871,74.1118,-0.16333,0.62798,0.62681
235.471,74.2989,-0.16736,0.61945,0.6268
236.071,74.48629,-0.1697,0.61465,0.62679
236.671,74.67353,-0.17383,0.607,0.62678
237.271,74.8605,-0.17409,0.62202,0.62677
237.871,75.04763,-0.1767,0.61139,0.62676
238.471,75.23424,-0.17803,0.61555,0.62675
239.071,75.42141,-0.18072,0.63131,0.62674
239.671,75.6083,-0.18464,0.61537,0.62672
240.271,75.79562,-0.1869,0.61871,0.62671
240.871,75.9828,-0.1901,0.62619,0.62669
241.471,76.1699,-0.19175,0.62577,0.62668
242.071,76.3572,-0.19584,0.62709,0.62666
242.671,76.54425,-0.19741,0.62998,0.62664
243.271,76.73136,-0.19975,0.63266,0.62662
243.871,76.91872,-0.20269,0.64329,0.6266
244.471,77.10632,-0.20449,0.63091,0.62658
245.071,77.29442,-0.20831,0.64013,0.62656
245.671,77.48209,-0.21093,0.64024,0.62654
246.271,77.6701,-0.21268,0.64669,0.62651
246.871,77.8582,-0.21709,0.65383,0.62649
247.471,78.0458,-0.21963,0.64385,0.62646
248.071,78.23354,-0.22333,0.63097,0.62644
248.671,78.42059,-0.22904,0.64917,0.62641
249.271,78.60794,-0.22951,0.64528,0.62638
249.871,78.79525,-0.23392,0.65007,0.62635
250.471,78.9829,-0.23715,0.6368,0.62632
251.071,79.17048,-0.24119,0.63948,0.62629
251.671,79.35754,-0.24459,0.63023,0.62626
252.271,79.54486,-0.25026,0.64501,0.62623
252.871,79.73199,-0.25508,0.64203,0.6262
253.471,79.9196,-0.25822,0.64196,0.62616
254.071,80.10707,-0.26069,0.64773,0.62613
254.671,80.29515,-0.26643,0.65031,0.62609
255.271,80.48261,-0.27071,0.65332,0.62605
255.871,80.66915,-0.27532,0.64358,0.62602
256.471,80.8567,-0.27927,0.64078,0.62598
257.071,81.04423,-0.28465,0.63269,0.62594
257.671,81.23187,-0.29046,0.63763,0.6259
258.271,81.4192,-0.29316,0.6303,0.62586
258.871,81.60624,-0.29891,0.62422,0.62582
259.471,81.7936,-0.30348,0.61871,0.62577
260.071,81.98056,-0.30943,0.62063,0.62573
260.671,82.1682,-0.31602,0.63257,0.62568
261.271,82.35579,-0.32061,0.63477,0.62564
261.871,82.54389,-0.32542,0.6218,0.62559
262.471,82.732,-0.33302,0.62809,0.62554
263.071,82.9207,-0.33707,0.63323,0.6255
263.671,83.10892,-0.34321,0.63485,0.62545
264.271,83.2971,-0.35157,0.63635,0.6254
264.871,83.48522,-0.3556,0.62513,0.62535
265.471,83.67305,-0.36326,0.62801,0.6253
266.071,83.86101,-0.37239,0.63673,0.62524
266.671,84.0486,-0.37655,0.62713,0.62519
267.271,84.23635,-0.38399,0.63039,0.62514
267.871,84.42433,-0.39192,0.63798,0.62508
268.471,84.61248,-0.39855,0.62814,0.62503
269.071,84.79961,-0.40428,0.63144,0.62497
269.671,84.98625,-0.41325,0.63753,0.62491
270.271,85.1738,-0.41946,0.63804,0.62485
270.871,85.36192,-0.42832,0.6367,0.62479
271.471,85.5509,-0.43421,0.63775,0.62473
272.071,85.73965,-0.44294,0.62542,0.62467
272.671,85.92726,-0.45123,0.62967,0.62461
273.271,86.11484,-0.45898,0.61887,0.62455
273.871,86.30256,-0.46841,0.62641,0.62449
274.471,86.48997,-0.47418,0.63292,0.62442
275.071,86.6769,-0.48345,0.62983,0.62436
275.671,86.864,-0.49608,0.6378,0.62429
276.271,87.05099,-0.49834,0.63148,0.62422
276.871,87.2383,-0.50793,0.63882,0.62416
277.471,87.42556,-0.51929,0.64597,0.62409
278.071,87.61363,-0.52874,0.64137,0.62402
278.671,87.80179,-0.53747,0.6402,0.62395
279.271,87.9901,-0.54779,0.64448,0.62388
279.871,88.17745,-0.55808,0.65983,0.6238
280.471,88.36407,-0.56702,0.65134,0.62373
281.071,88.55163,-0.57457,0.65685,0.62366
281.671,88.73951,-0.58549,0.65361,0.62358
282.271,88.9281,-0.59337,0.66683,0.62351
282.871,89.1168,-0.60591,0.67212,0.62343
283.471,89.30527,-0.61384,0.67487,0.62336
284.071,89.49376,-0.62602,0.68602,0.62328
284.671,89.68225,-0.63593,0.68351,0.6232
285.271,89.87012,-0.64781,0.68201,0.62312
285.871,90.05807,-0.65518,0.69022,0.62304
286.471,90.24565,-0.66816,0.67646,0.62296
287.071,90.43336,-0.67816,0.68286,0.62288
287.671,90.6207,-0.6874,0.68753,0.62279
288.271,90.8075,-0.70069,0.68593,0.62271
288.871,90.99585,-0.71316,0.69483,0.62263
289.471,91.1838,-0.72476,0.68347,0.62254
290.071,91.37227,-0.73332,0.68021,0.62245
290.671,91.56143,-0.74458,0.70865,0.62237
291.271,91.75035,-0.76134,0.70015,0.62228
291.871,91.93984,-0.76946,0.69523,0.62219
292.471,92.1288,-0.78148,0.7007,0.6221
293.071,92.3178,-0.79432,0.70841,0.62201
293.671,92.5068,-0.80568,0.70315,0.62192
294.271,92.6955,-0.81622,0.69946,0.62183
294.871,92.88427,-0.83019,0.71771,0.62174
295.471,93.07274,-0.843,0.71424,0.62164
296.071,93.26136,-0.85625,0.72762,0.62155
296.671,93.45057,-0.86805,0.7305,0.62145
297.271,93.6395,-0.88283,0.73655,0.62136
297.871,93.8284,-0.89428,0.74509,0.62126
298.471,94.01714,-0.90595,0.72763,0.62116
299.071,94.2058,-0.92282,0.73523,0.62106
299.671,94.39445,-0.93332,0.74184,0.62096
300.271,94.58274,-0.94917,0.74418,0.62086
300.871,94.77108,-0.96185,0.73293,0.62076
301.471,94.95895,-0.97638,0.7268,0.62066
302.071,95.14667,-0.98755,0.7173,0.62056
302.671,95.33496,-1.0018,0.72158,0.62046
303.271,95.5239,-1.01559,0.73909,0.62035
303.871,95.7126,-1.03132,0.71897,0.62025
304.471,95.90235,-1.04591,0.73742,0.62014
305.071,96.09175,-1.06332,0.74766,0.62004
305.671,96.28079,-1.07584,0.74698,0.61993
306.271,96.47,-1.09127,0.74716,0.61982
306.871,96.6593,-1.10623,0.75996,0.61971
307.471,96.84871,-1.1236,0.76302,0.6196
308.071,97.03843,-1.1367,0.77485,0.61949
308.671,97.22824,-1.15277,0.77433,0.61938
309.271,97.41787,-1.16479,0.77141,0.61927
309.871,97.60731,-1.18472,0.7786,0.61915
310.471,97.7963,-1.20047,0.78738,0.61904
311.071,97.9854,-1.21577,0.78163,0.61893
311.671,98.1747,-1.23157,0.77215,0.61881
312.271,98.36414,-1.24655,0.77577,0.6187
312.871,98.55303,-1.26257,0.78562,0.61858
313.471,98.7419,-1.28027,0.78022,0.61846
314.071,98.9305,-1.30117,0.78474,0.61834
314.671,99.11873,-1.31496,0.79424,0.61822
315.271,99.30753,-1.34058,0.79869,0.6181
315.871,99.49631,-1.34885,0.81757,0.61798
316.471,99.68522,-1.36432,0.81966,0.61786
317.071,99.87478,-1.38247,0.83738,0.61774
317.671,100.064,-1.40221,0.84125,0.61762
318.271,100.255,-1.4205,0.84059,0.61749
318.871,100.445,-1.43844,0.85039,0.61737
319.471,100.635,-1.45784,0.85275,0.61724
320.071,100.825,-1.47841,0.87318,0.61711
320.671,101.0137,-1.49776,0.87357,0.61699
321.271,101.203,-1.51507,0.86854,0.61686
321.871,101.392,-1.53151,0.86924,0.61673
322.471,101.582,-1.55126,0.88588,0.6166
323.071,101.771,-1.57004,0.88866,0.61647
323.671,101.961,-1.58855,0.90723,0.61634
324.271,102.15,-1.61027,0.90249,0.61621
324.871,102.339,-1.62951,0.89769,0.61608
325.471,102.5288,-1.65116,0.91089,0.61594
326.071,102.719,-1.67076,0.91205,0.61581
326.671,102.909,-1.69074,0.90345,0.61567
327.271,103.1,-1.70907,0.90131,0.61554
327.871,103.289,-1.73143,0.90268,0.6154
328.471,103.479,-1.75219,0.91158,0.61526
329.071,103.67,-1.77445,0.91904,0.61513
329.671,103.86,-1.79778,0.92307,0.61499
330.271,104.051,-1.81653,0.93674,0.61485
330.871,104.241,-1.83733,0.9384,0.61471
331.471,104.4313,-1.86106,0.94308,0.61457
332.071,104.622,-1.87994,0.93561,0.61443
332.671,104.8123,-1.90362,0.93106,0.61428
333.271,105.003,-1.92407,0.93898,0.61414
333.871,105.193,-1.95041,0.94659,0.614
334.471,105.383,-1.96932,0.94597,0.61385
335.071,105.573,-1.99361,0.94287,0.61371
335.671,105.764,-2.01208,0.9457,0.61356
336.271,105.955,-2.03928,0.96305,0.61341
336.871,106.145,-2.06048,0.94379,0.61326
337.471,106.3357,-2.08366,0.94381,0.61312
338.071,106.526,-2.10754,0.92676,0.61297
338.671,106.717,-2.12765,0.91413,0.61282
339.271,106.907,-2.14699,0.89897,0.61267
339.871,107.097,-2.16642,0.8921,0.61251
340.471,107.286,-2.19348,0.88225,0.61236
341.071,107.4759,-2.21174,0.8499,0.61221
341.671,107.666,-2.23887,0.84053,0.61206
342.271,107.856,-2.25428,0.8263,0.6119
342.871,108.046,-2.27589,0.81546,0.61175
343.471,108.236,-2.29606,0.7802,0.61159
344.071,108.427,-2.31412,0.75928,0.61143
344.671,108.617,-2.33458,0.73164,0.61128
345.271,108.808,-2.35442,0.70007,0.61112
345.871,108.999,-2.36582,0.66937,0.61096
346.471,109.191,-2.3847,0.64793,0.6108
347.071,109.382,-2.39828,0.59875,0.61064
347.671,109.573,-2.41517,0.55773,0.61048
348.271,109.763,-2.42921,0.52012,0.61032
348.871,109.953,-2.44454,0.49078,0.61015
349.471,110.144,-2.45279,0.44203,0.60999
350.071,110.334,-2.46586,0.41466,0.60983
350.671,110.524,-2.47127,0.36912,0.60966
351.271,110.714,-2.47978,0.3472,0.6095
351.871,110.904,-2.48953,0.31572,0.60933
352.471,111.095,-2.4956,0.29719,0.60916
353.071,111.285,-2.50339,0.27027,0.60899
353.671,111.476,-2.50753,0.25828,0.60883
354.271,111.667,-2.51466,0.24716,0.60866
354.871,111.857,-2.5203,0.22921,0.60849
355.471,112.047,-2.52552,0.21336,0.60832
356.071,112.238,-2.52925,0.19474,0.60814
356.671,112.429,-2.53189,0.18343,0.60797
357.271,112.62,-2.53445,0.18186,0.6078
357.871,112.812,-2.53617,0.18183,0.60763
358.471,113.004,-2.54209,0.17432,0.60745
359.071,113.195,-2.54483,0.16497,0.60728
359.671,113.387,-2.5478,0.15299,0.6071
360.271,113.579,-2.55119,0.16348,0.60693
360.871,113.771,-2.55459,0.14544,0.60675
361.471,113.963,-2.55503,0.15558,0.60657
362.071,114.155,-2.55915,0.14749,0.60639
362.671,114.347,-2.56157,0.14169,0.60621
363.271,114.539,-2.56393,0.13346,0.60603
363.871,114.731,-2.56809,0.13594,0.60585
364.471,114.9233,-2.5695,0.14836,0.60567
365.071,115.1152,-2.57141,0.13005,0.60549
365.671,115.308,-2.57247,0.14058,0.60531
366.271,115.5003,-2.5728,0.13108,0.60512
366.871,115.693,-2.57719,0.11895,0.60494
367.471,115.8851,-2.57692,0.11723,0.60475
368.071,116.077,-2.58322,0.11618,0.60457
368.671,116.269,-2.58304,0.11383,0.60438
369.271,116.461,-2.58444,0.10608,0.6042
369.871,116.652,-2.58673,0.10038,0.60401
370.471,116.8424,-2.59106,0.09083155,0.60382
371.071,117.033,-2.59266,0.10482,0.60363
371.671,117.227,-2.59397,0.10179,0.60344
372.271,117.421,-2.59803,0.08480017,0.60325
372.871,117.615,-2.59803,0.10057,0.60306
373.471,117.807,-2.60258,0.09059491,0.60287
374.071,118,-2.59701,0.09494539,0.60268
374.671,118.191,-2.60628,0.08780011,0.60248
375.271,118.382,-2.60593,0.08962372,0.60229
375.871,118.573,-2.61145,0.08470589,0.60209
376.471,118.7664,-2.61397,0.08607681,0.6019
377.071,118.9602,-2.61404,0.07095002,0.6017
377.671,119.1538,-2.61172,0.06578445,0.60151
378.271,119.346,-2.61656,0.06388819,0.60131
378.871,119.5374,-2.619,0.0464274,0.60111
379.471,119.729,-2.62304,0.0341744,0.60091
380.071,119.921,-2.62236,0.03700045,0.60071
380.671,120.114,-2.66458,0.04207181,0.60051
381.271,120.3072,-2.62929,0.03932016,0.60031
381.871,120.501,-2.63235,0.04182001,0.60011
382.471,120.695,-2.62295,0.05301119,0.59991
383.071,120.888,-2.6349,0.03534298,0.59971
383.671,121.08,-2.63986,0.03821123,0.5995
384.271,121.274,-2.6444,0.03381131,0.5993
384.871,121.468,-2.64343,0.03453295,0.5991
385.471,121.663,-2.63521,0.02665925,0.59889
386.071,121.857,-2.62372,0.01467498,0.59869
386.671,122.0507,-2.64344,0.02156272,0.59848
387.271,122.243,-2.64916,0.01994096,0.59827
387.871,122.435,-2.65074,0.02249332,0.59806
388.471,122.628,-2.65216,0.00470225,0.59785
389.071,122.822,-2.65346,0.01803576,0.59765
389.671,123.016,-2.65649,0.01421149,0.59744
390.271,123.209,-2.65893,0.01447756,0.59723
390.871,123.4038,-2.65955,0.02074076,0.59701
391.471,123.5975,-2.66352,0.02054452,0.5968
392.071,123.792,-2.66351,0.02026221,0.59659
392.671,123.986,-2.66614,0.01143823,0.59638
393.271,124.18,-2.66483,0.003932975,0.59616
393.871,124.374,-2.67019,0.01529705,0.59595
394.471,124.567,-2.67152,0.02242046,0.59573
395.071,124.761,-2.67415,0.02060892,0.59552
395.671,124.954,-2.67511,0.02985402,0.5953
396.271,125.148,-2.67681,0.02646386,0.59508
396.871,125.342,-2.6781,0.01019253,0.59487
397.471,125.537,-2.67937,0.02553428,0.59465
398.071,125.731,-2.68205,0.03524062,0.59443
398.671,125.925,-2.68282,0.01899113,0.59421
399.271,126.119,-2.68677,0.01348179,0.59399
399.871,126.313,-2.68678,0.01351531,0.59377
400.471,126.508,-2.68808,-0.00375025,0.59355
401.071,126.703,-2.68937,0.00330545,0.59333
401.671,126.898,-2.69203,0.009044296,0.5931
402.271,127.094,-2.69466,0.0212688,0.59288
402.871,127.289,-2.69368,0.01255305,0.59266
403.471,127.483,-2.6976,0.01460605,0.59243
404.071,127.677,-2.70006,0.03351487,0.59221
404.671,127.871,-2.70169,0.01426435,0.59198
405.271,128.066,-2.70395,0.02784665,0.59175
405.871,128.261,-2.70562,0.03042355,0.59153
406.471,128.456,-2.70629,0.03168164,0.5913
407.071,128.651,-2.70914,0.03703004,0.59107
407.671,128.845,-2.70952,0.01489194,0.59084
408.271,129.0384,-2.71266,0.03149282,0.59061
408.871,129.232,-2.71353,0.03868886,0.59038
409.471,129.425,-2.7175,0.03797034,0.59015
410.071,129.619,-2.71616,0.04405439,0.58992
410.671,129.813,-2.71894,0.04912803,0.58969
411.271,130.007,-2.72022,0.05484235,0.58945
411.871,130.2011,-2.72154,0.05652267,0.58922
412.471,130.397,-2.72215,0.05423532,0.58899
413.071,130.592,-2.72293,0.05834192,0.58875
413.671,130.788,-2.72544,0.05917454,0.58852
414.271,130.983,-2.72702,0.06379167,0.58828
414.871,131.178,-2.73096,0.06621051,0.58805
415.471,131.373,-2.73119,0.05713842,0.58781
416.071,131.569,-2.7336,0.05816085,0.58757
416.671,131.765,-2.73458,0.05028021,0.58733
417.271,131.9602,-2.73492,0.05327604,0.58709
417.871,132.155,-2.7396,0.06878943,0.58685
418.471,132.35,-2.73996,0.06632252,0.58661
419.071,132.545,-2.74043,0.07460757,0.58637
419.671,132.741,-2.74099,0.08874193,0.58613
420.271,132.936,-2.74172,0.08913138,0.58589
420.871,133.132,-2.74136,0.09337202,0.58565
421.471,133.328,-2.7457,0.09614498,0.58541
422.071,133.523,-2.74675,0.07114757,0.58516
422.671,133.719,-2.74939,0.07048064,0.58492
423.271,133.914,-2.74874,0.08909287,0.58467
423.871,134.11,-2.75137,0.08486842,0.58443
424.471,134.306,-2.75273,0.09747584,0.58418
425.071,134.502,-2.754,0.10697,0.58394
425.671,134.697,-2.75806,0.1175,0.58369
426.271,134.893,-2.75876,0.12183,0.58344
426.871,135.088,-2.75857,0.12644,0.58319
427.471,135.283,-2.76129,0.12629,0.58294
428.071,135.478,-2.76182,0.13475,0.58269
428.671,135.673,-2.76322,0.12663,0.58244
429.271,135.867,-2.76387,0.12021,0.58219
429.871,136.063,-2.76387,0.12501,0.58194
430.471,136.258,-2.76793,0.14116,0.58169
431.071,136.454,-2.76662,0.13067,0.58144
431.671,136.65,-2.76925,0.1327,0.58119
432.271,136.845,-2.77056,0.1419,0.58093
432.871,137.041,-2.7732,0.14888,0.58068
433.471,137.237,-2.77331,0.15524,0.58042
434.071,137.433,-2.77376,0.16704,0.58017
434.671,137.629,-2.77618,0.15646,0.57991
435.271,137.824,-2.77682,0.16647,0.57966
435.871,138.021,-2.77882,0.17273,0.5794
436.471,138.217,-2.77747,0.18066,0.57914
437.071,138.413,-2.77988,0.17689,0.57888
437.671,138.6097,-2.78109,0.17143,0.57863
438.271,138.806,-2.78274,0.16244,0.57837
438.871,139.003,-2.78305,0.1619,0.57811
439.471,139.2,-2.78537,0.15817,0.57785
440.071,139.398,-2.78407,0.16177,0.57759
440.671,139.595,-2.7881,0.1499,0.57733
441.271,139.792,-2.78799,0.16603,0.57706
441.871,139.988,-2.78934,0.17407,0.5768
442.471,140.186,-2.78938,0.17522,0.57654
443.071,140.382,-2.79081,0.17904,0.57627
443.671,140.578,-2.792,0.17257,0.57601
444.271,140.773,-2.7924,0.16141,0.57575
444.871,140.969,-2.79372,0.18149,0.57548
445.471,141.1645,-2.79599,0.18615,0.57522
446.071,141.3602,-2.79274,0.21355,0.57495
446.671,141.556,-2.79622,0.22068,0.57468
447.271,141.752,-2.79755,0.20298,0.57441
447.871,141.9492,-2.79623,0.22037,0.57415
448.471,142.146,-2.79885,0.2104,0.57388
449.071,142.343,-2.79952,0.18953,0.57361
449.671,142.54,-2.80186,0.18894,0.57334
450.271,142.737,-2.80084,0.19455,0.57307
450.871,142.934,-2.80216,0.19819,0.5728
451.471,143.132,-2.80356,0.19161,0.57253
452.071,143.329,-2.80369,0.18847,0.57226
452.671,143.526,-2.80579,0.18539,0.57199
453.271,143.723,-2.80514,0.17019,0.57171
453.871,143.92,-2.80644,0.18023,0.57144
454.471,144.1173,-2.80774,0.17442,0.57117
455.071,144.314,-2.8078,0.17645,0.57089
455.671,144.512,-2.80906,0.17372,0.57062
456.271,144.71,-2.81038,0.16851,0.57034
456.871,144.9073,-2.80939,0.16647,0.57007
457.471,145.1049,-2.81038,0.16977,0.56979
458.071,145.303,-2.81267,0.15558,0.56951
458.671,145.501,-2.814,0.15398,0.56924
459.271,145.698,-2.8123,0.14868,0.56896
459.871,145.896,-2.81305,0.14468,0.56868
460.471,146.094,-2.81434,0.13925,0.5684
461.071,146.291,-2.813,0.13767,0.56812
461.671,146.4884,-2.81554,0.14225,0.56784
462.271,146.685,-2.8132,0.14033,0.56756
462.871,146.881,-2.81766,0.13643,0.56728
463.471,147.077,-2.81765,0.14181,0.567
464.071,147.274,-2.8183,0.13062,0.56672
464.671,147.471,-2.80945,0.1222,0.56643
465.271,147.668,-2.81826,0.10624,0.56615
465.871,147.866,-2.8196,0.11204,0.56587
466.471,148.063,-2.82225,0.12428,0.56558
467.071,148.2611,-2.82233,0.13487,0.5653
467.671,148.4588,-2.82169,0.12888,0.56501
468.271,148.656,-2.82458,0.14282,0.56473
468.871,148.855,-2.82475,0.14546,0.56444
469.471,149.053,-2.82448,0.14556,0.56416
470.071,149.251,-2.82818,0.14547,0.56387
470.671,149.449,-2.82562,0.13054,0.56358
471.271,149.647,-2.82694,0.11445,0.5633
471.871,149.845,-2.82694,0.13611,0.56301
472.471,150.0425,-2.82837,0.12934,0.56272
473.071,150.24,-2.82934,0.11791,0.56243
473.671,150.438,-2.82837,0.12107,0.56214
474.271,150.636,-2.8287,0.12942,0.56185
474.871,150.8362,-2.83109,0.12446,0.56156
475.471,151.035,-2.83067,0.11405,0.56127
476.071,151.2346,-2.82987,0.1227,0.56097
476.671,151.433,-2.83183,0.1193,0.56068
477.271,151.6317,-2.83298,0.10529,0.56039
477.871,151.829,-2.83232,0.07772832,0.5601
478.471,152.026,-2.83329,0.07533237,0.5598
479.071,152.224,-2.83528,0.1042,0.55951
479.671,152.4217,-2.834,0.09107193,0.55921
480.271,152.62,-2.83396,0.10368,0.55892
480.871,152.817,-2.83835,0.08179712,0.55862
481.471,153.0148,-2.83571,0.09118449,0.55833
482.071,153.212,-2.83857,0.08967031,0.55803
482.671,153.409,-2.8389,0.09251764,0.55773
483.271,153.608,-2.8389,0.09683333,0.55744
483.871,153.808,-2.8412,0.08153916,0.55714
484.471,154.0077,-2.84219,0.0752251,0.55684
485.071,154.206,-2.84124,0.06913466,0.55654
485.671,154.4047,-2.84023,0.05809358,0.55624
486.271,154.603,-2.84586,0.05986432,0.55594
486.871,154.802,-2.84601,0.07757303,0.55564
487.471,155,-2.84483,0.0646252,0.55534
488.071,155.198,-2.84483,0.06339315,0.55504
488.671,155.3967,-2.84746,0.05389333,0.55474
489.271,155.596,-2.84746,0.05823161,0.55444
489.871,155.795,-2.84746,0.04963988,0.55414
490.471,155.994,-2.84877,0.05317403,0.55383
491.071,156.194,-2.84873,0.04342913,0.55353
491.671,156.3928,-2.84899,0.03291877,0.55323
492.271,156.5912,-2.84898,0.04572363,0.55292
492.871,156.789,-2.84939,0.04957408,0.55262
493.471,156.988,-2.85164,0.05767257,0.55231
494.071,157.1869,-2.85097,0.0545506,0.55201
494.671,157.386,-2.85131,0.05863317,0.5517
495.271,157.584,-2.85228,0.04827888,0.55139
495.871,157.782,-2.85361,0.03444203,0.55109
496.471,157.981,-2.85362,0.02831041,0.55078
497.071,158.18,-2.85294,0.04157908,0.55047
497.671,158.38,-2.85359,0.02719683,0.55016
498.271,158.578,-2.85441,0.03452952,0.54986
498.871,158.777,-2.85494,0.02157217,0.54955
499.471,158.977,-2.85375,0.0310527,0.54924
500.071,159.178,-2.85438,0.01655503,0.54893
500.671,159.378,-2.85623,0.00632484,0.54862
501.271,159.579,-2.85625,0.008381031,0.54831
501.871,159.779,-2.85623,0.01473667,0.548
502.471,159.979,-2.85744,-0.00397213,0.54768
503.071,160.178,-2.85645,-0.00600472,0.54737
503.671,160.378,-2.85907,-0.01296672,0.54706
504.271,160.576,-2.85759,-0.01432812,0.54675
504.871,160.775,-2.86007,0.001722284,0.54643
505.471,160.973,-2.8593,-0.003005834,0.54612
506.071,161.172,-2.86066,-0.004110193,0.54581
506.671,161.371,-2.85963,-0.004225223,0.54549
507.271,161.57,-2.86194,-0.00699629,0.54518
507.871,161.77,-2.86204,-0.002805732,0.54486
508.471,161.969,-2.86468,-0.007196656,0.54455
509.071,162.169,-2.86336,0.009536847,0.54423
509.671,162.37,-2.86479,0.009838504,0.54391
510.271,162.571,-2.8674,0.01508348,0.5436
510.871,162.7715,-2.86643,0.01741744,0.54328
511.471,162.972,-2.87548,0.00710206,0.54296
512.071,163.171,-2.86381,0.00548733,0.54264
512.671,163.371,-2.86796,0.00857824,0.54232
513.271,163.57,-2.86534,0.0168998,0.542
513.871,163.769,-2.86864,0.00363106,0.54169
514.471,163.968,-2.86873,-0.01412828,0.54137
515.071,164.168,-2.86873,-0.01415322,0.54105
515.671,164.369,-2.86297,-0.02290093,0.54073
516.271,164.569,-2.86973,-0.02566558,0.5404
516.871,164.77,-2.86972,-0.00281665,0.54008
517.471,164.971,-2.86972,-0.002028205,0.53976
518.071,165.171,-2.87235,-0.0065265,0.53944
518.671,165.372,-2.87052,-0.01511517,0.53912
519.271,165.572,-2.87237,-0.02360008,0.53879
519.871,165.771,-2.87335,-0.02175289,0.53847
520.471,165.97,-2.87104,-0.03514582,0.53815
521.071,166.17,-2.87235,-0.03691423,0.53782
521.671,166.37,-2.874,-0.03114269,0.5375
522.271,166.571,-2.87334,-0.04464452,0.53717
522.871,166.772,-2.87202,-0.02344706,0.53685
523.471,166.973,-2.87334,-0.03971868,0.53652
524.071,167.173,-2.87369,-0.04258786,0.5362
524.671,167.374,-2.874,-0.06049599,0.53587
525.271,167.575,-2.8748,-0.03826457,0.53554
525.871,167.776,-2.87401,-0.04027294,0.53522
526.471,167.978,-2.87414,-0.05706096,0.53489
527.071,168.18,-2.87503,-0.05870777,0.53456
527.671,168.38,-2.8763,-0.05626872,0.53423
528.271,168.581,-2.87758,-0.05173449,0.5339
528.871,168.782,-2.87795,-0.0642174,0.53358
529.471,168.983,-2.87792,-0.05560977,0.53325
530.071,169.185,-2.87567,-0.05742178,0.53292
530.671,169.388,-2.87795,-0.05873177,0.53259
531.271,169.589,-2.87762,-0.05361559,0.53226
531.871,169.789,-2.87961,-0.0599388,0.53193
532.471,169.9899,-2.87729,-0.06882036,0.53159
533.071,170.191,-2.8773,-0.07585599,0.53126
533.671,170.393,-2.87872,-0.07610695,0.53093
534.271,170.594,-2.87872,-0.07534284,0.5306
534.871,170.794,-2.87872,-0.07548398,0.53027
535.471,170.994,-2.87739,-0.07027975,0.52993
536.071,171.1945,-2.87872,-0.07389233,0.5296
536.671,171.395,-2.87739,-0.08069238,0.52927
537.271,171.597,-2.87873,-0.07203886,0.52893
537.871,171.799,-2.8774,-0.08174911,0.5286
538.471,172,-2.8774,-0.07947484,0.52826
539.071,172.201,-2.8774,-0.09403424,0.52793
539.671,172.402,-2.87792,-0.09258158,0.52759
540.271,172.603,-2.88159,-0.10142,0.52726
540.871,172.805,-2.88004,-0.10038,0.52692
541.471,173.007,-2.88138,-0.10725,0.52659
542.071,173.21,-2.88464,-0.11163,0.52625
542.671,173.413,-2.87014,-0.08918822,0.52591
543.271,173.614,-2.84632,-0.08060171,0.52558
543.871,173.8145,-2.89735,-0.11934,0.52524
544.471,174.013,-2.84724,-0.10543,0.5249
545.071,174.213,-2.90724,-0.1382,0.52456
545.671,174.414,-2.86675,-0.11815,0.52422
546.271,174.617,-2.87655,-0.11988,0.52388
546.871,174.819,-2.88005,-0.11442,0.52354
547.471,175.0209,-2.88928,-0.12187,0.52321
548.071,175.223,-2.90508,-0.13606,0.52287
548.671,175.424,-2.88944,-0.11901,0.52252
549.271,175.627,-2.89004,-0.12477,0.52218
549.871,175.831,-2.88675,-0.11108,0.52184
550.471,176.034,-2.88562,-0.11757,0.5215
551.071,176.236,-2.88365,-0.11073,0.52116
551.671,176.438,-2.89539,-0.12871,0.52082
552.271,176.6394,-2.88534,-0.14354,0.52048
552.871,176.84,-2.88692,-0.12615,0.52013
553.471,177.04,-2.89438,-0.15097,0.51979
554.071,177.241,-2.91007,-0.14662,0.51945
554.671,177.443,-2.88671,-0.16712,0.5191
555.271,177.646,-2.89004,-0.13651,0.51876
555.871,177.847,-2.89299,-0.17511,0.51842
556.471,178.05,-2.89858,-0.1752,0.51807
557.071,178.252,-2.89318,-0.16929,0.51773
557.671,178.455,-2.89571,-0.18394,0.51738
558.271,178.656,-2.90337,-0.17787,0.51704
558.871,178.857,-2.90102,-0.16425,0.51669
559.471,179.0588,-2.89024,-0.15144,0.51635
560.071,179.261,-2.89649,-0.1509,0.516
560.671,179.462,-2.89056,-0.14001,0.51565
561.271,179.664,-2.89121,-0.14516,0.51531
561.871,179.865,-2.90635,-0.15044,0.51496
562.471,180.068,-2.90714,-0.14377,0.51461
563.071,180.271,-2.89383,-0.11842,0.51426
563.671,180.473,-2.89728,-0.10302,0.51392
564.271,180.676,-2.89896,-0.10509,0.51357
564.871,180.8776,-2.90099,-0.1236,0.51322
565.471,181.079,-2.89826,-0.11937,0.51287
566.071,181.2806,-2.89743,-0.12734,0.51252
566.671,181.482,-2.90144,-0.12557,0.51217
567.271,181.685,-2.90316,-0.11895,0.51182
567.871,181.888,-2.90334,-0.13475,0.51147
568.471,182.092,-2.90472,-0.13264,0.51112
569.071,182.296,-2.89134,-0.10965,0.51077
569.671,182.499,-2.90736,-0.12473,0.51042
570.271,182.7018,-2.90488,-0.13491,0.51007
570.871,182.905,-2.9152,-0.15923,0.50972
571.471,183.108,-2.90085,-0.14573,0.50937
572.071,183.31,-2.90404,-0.14438,0.50901
572.671,183.512,-2.88524,-0.10252,0.50866
573.271,183.713,-2.92317,-0.16158,0.50831
573.871,183.914,-2.9079,-0.13776,0.50796
574.471,184.119,-2.90774,-0.13017,0.5076
575.071,184.3242,-2.90275,-0.13927,0.50725
575.671,184.53,-2.90418,-0.11611,0.5069
576.271,184.736,-2.90548,-0.07783361,0.50654
576.871,184.941,-2.90395,-0.07370382,0.50619
577.471,185.145,-2.90983,-0.08152813,0.50583
578.071,185.348,-2.91555,-0.0943999,0.50548
578.671,185.552,-2.90753,-0.05942787,0.50512
579.271,185.756,-2.91143,-0.05942058,0.50477
579.871,185.959,-2.9084,-0.03939417,0.50441
580.471,186.162,-2.91254,-0.04708551,0.50406
581.071,186.365,-2.90797,-0.03932211,0.5037
581.671,186.568,-2.91106,-0.05507501,0.50334
582.271,186.77,-2.90954,-0.06373629,0.50299
582.871,186.973,-2.91074,-0.07677144,0.50263
583.471,187.176,-2.91268,-0.09470601,0.50227
584.071,187.378,-2.91053,-0.10603,0.50192
584.671,187.581,-2.91012,-0.12504,0.50156
585.271,187.782,-2.91139,-0.11361,0.5012
585.871,187.984,-2.91403,-0.09607607,0.50084
586.471,188.1868,-2.90562,-0.0887499,0.50049
587.071,188.39,-2.90867,-0.09907214,0.50013
587.671,188.593,-2.91569,-0.11043,0.49977
588.271,188.796,-2.91773,-0.12381,0.49941
588.871,188.9997,-2.92496,-0.13303,0.49905
589.471,189.204,-2.91841,-0.12141,0.49869
590.071,189.408,-2.92114,-0.11867,0.49833
590.671,189.613,-2.92011,-0.12115,0.49797
591.271,189.8166,-2.92125,-0.12015,0.49761
591.871,190.021,-2.92127,-0.11761,0.49725
592.471,190.224,-2.92061,-0.14051,0.49689
593.071,190.427,-2.91969,-0.12644,0.49653
593.671,190.629,-2.92193,-0.13534,0.49617
594.271,190.832,-2.92193,-0.10816,0.49581
594.871,191.0356,-2.92193,-0.11263,0.49545
595.471,191.24,-2.92061,-0.10016,0.49508
596.071,191.445,-2.92032,-0.08580913,0.49472
596.671,191.649,-2.91967,-0.08540198,0.49436
597.271,191.853,-2.91704,-0.0618342,0.494
597.871,192.055,-2.91968,-0.06007642,0.49363
598.471,192.258,-2.91997,-0.06138112,0.49327
599.071,192.46,-2.92236,-0.04161223,0.49291
599.671,192.663,-2.92202,-0.04502661,0.49254
600.271,192.867,-2.92344,-0.03983653,0.49218
600.871,193.07,-2.92436,-0.03401168,0.49182
601.471,193.274,-2.92424,-0.02653092,0.49145
602.071,193.477,-2.92389,-0.004262519,0.49109
602.671,193.68,-2.92259,-0.01085344,0.49072
603.271,193.883,-2.92389,-0.008339276,0.49036
603.871,194.087,-2.92523,-0.009878723,0.49
604.471,194.291,-2.92654,0.001923367,0.48963
605.071,194.494,-2.92523,-0.006003889,0.48926
605.671,194.698,-2.92502,-0.00450765,0.4889
606.271,194.9007,-2.92523,-0.03093946,0.48853
606.871,195.105,-2.92621,-0.01674725,0.48817
607.471,195.309,-2.92358,-0.0126223,0.4878
608.071,195.515,-2.92487,-0.009073471,0.48744
608.671,195.721,-2.92391,-0.02014556,0.48707
609.271,195.928,-2.92523,-0.0105712,0.4867
609.871,196.134,-2.92512,-0.00489736,0.48634
610.471,196.339,-2.92687,-0.0127314,0.48597
611.071,196.5431,-2.92753,-0.02331952,0.4856
611.671,196.747,-2.92662,-0.01826023,0.48523
612.271,196.951,-2.92885,-0.001303763,0.48487
612.871,197.155,-2.92623,-0.01326696,0.4845
613.471,197.361,-2.92487,-0.000219504,0.48413
614.071,197.566,-2.92489,-0.002161215,0.48376
614.671,197.773,-2.92687,0.003398295,0.48339
615.271,197.978,-2.92556,0.0100446,0.48302
615.871,198.184,-2.92426,0.003976942,0.48266
616.471,198.389,-2.92412,0.02061877,0.48229
617.071,198.594,-2.92677,0.01848647,0.48192
617.671,198.798,-2.92678,0.0008745259,0.48155
618.271,199.0016,-2.92807,0.01191729,0.48118
618.871,199.205,-2.92841,-0.004311372,0.48081
619.471,199.409,-2.92972,0.02941464,0.48044
620.071,199.613,-2.92939,0.02732752,0.48007
620.671,199.818,-2.92972,0.03103665,0.4797
621.271,200.021,-2.92907,0.01305846,0.47933
621.871,200.224,-2.93042,0.02552634,0.47896
622.471,200.427,-2.93137,0.01468796,0.47859
623.071,200.631,-2.93039,0.01207265,0.47821
623.671,200.8353,-2.93137,0.01943457,0.47784
624.271,201.041,-2.9327,0.02088143,0.47747
624.871,201.2474,-2.93167,0.002823951,0.4771
625.471,201.454,-2.93235,0.01534523,0.47673
626.071,201.66,-2.93433,0.01604816,0.47636
626.671,201.866,-2.93205,0.02300936,0.47599
627.271,202.072,-2.93301,0.01861149,0.47561
627.871,202.277,-2.93268,0.02140784,0.47524
628.471,202.4811,-2.93206,0.03865453,0.47487
629.071,202.686,-2.9331,0.01718218,0.4745
629.671,202.891,-2.93049,0.00815382,0.47412
630.271,203.096,-2.92984,0.009790376,0.47375
630.871,203.302,-2.93119,0.009199894,0.47338
631.471,203.508,-2.93247,0.01031964,0.473
632.071,203.715,-2.93013,0.008077443,0.47263
632.671,203.921,-2.9318,-0.02077501,0.47226
633.271,204.126,-2.93277,-0.008460057,0.47188
633.871,204.331,-2.93312,0.00110902,0.47151
634.471,204.535,-2.93312,-0.01521503,0.47113
635.071,204.738,-2.93305,-0.009294304,0.47076
635.671,204.941,-2.93279,0.000247652,0.47039
636.271,205.144,-2.93312,-0.00486732,0.47001
636.871,205.348,-2.93312,0.007850298,0.46964
637.471,205.553,-2.93443,-0.01613448,0.46926
638.071,205.759,-2.93443,-0.009150378,0.46889
638.671,205.966,-2.93509,-0.001748878,0.46851
639.271,206.174,-2.93377,-0.007355995,0.46814
639.871,206.381,-2.93773,-0.02282718,0.46776
640.471,206.588,-2.93904,-0.03905576,0.46739
641.071,206.794,-2.93769,-0.05849686,0.46701
641.671,207,-2.93902,-0.06845003,0.46663
642.271,207.205,-2.94178,-0.0515868,0.46626
642.871,207.412,-2.9359,-0.04254074,0.46588
643.471,207.618,-2.93605,-0.04411782,0.46551
644.071,207.824,-2.93992,-0.03390879,0.46513
644.671,208.03,-2.93729,-0.0525399,0.46475
645.271,208.236,-2.93992,-0.05570981,0.46438
645.871,208.441,-2.93861,-0.08239844,0.464
646.471,208.646,-2.93762,-0.08535433,0.46362
647.071,208.8514,-2.93894,-0.09969359,0.46325
647.671,209.057,-2.94187,-0.12511,0.46287
648.271,209.263,-2.93795,-0.12764,0.46249
648.871,209.468,-2.94044,-0.16454,0.46211
649.471,209.675,-2.9396,-0.15141,0.46174
650.071,209.881,-2.93828,-0.17624,0.46136
650.671,210.087,-2.93795,-0.17989,0.46098
651.271,210.292,-2.9407,-0.15608,0.4606
651.871,210.497,-2.94046,-0.16545,0.46022
652.471,210.703,-2.93756,-0.17795,0.45985
653.071,210.909,-2.93902,-0.18757,0.45947
653.671,211.115,-2.93971,-0.19951,0.45909
654.271,211.321,-2.94035,-0.19164,0.45871
654.871,211.527,-2.9408,-0.21546,0.45833
655.471,211.734,-2.92797,-0.19964,0.45795
656.071,211.94,-2.94234,-0.22019,0.45758
656.671,212.147,-2.93971,-0.21996,0.4572
657.271,212.354,-2.93433,-0.23996,0.45682
657.871,212.56,-2.94036,-0.23736,0.45644
658.471,212.765,-2.94262,-0.24062,0.45606
659.071,212.97,-2.93948,-0.21935,0.45568
659.671,213.176,-2.93948,-0.21815,0.4553
660.271,213.381,-2.94108,-0.22186,0.45492
660.871,213.586,-2.9396,-0.20846,0.45454
661.471,213.792,-2.93946,-0.20252,0.45416
662.071,213.999,-2.94202,-0.19265,0.45378
662.671,214.206,-2.93949,-0.19703,0.4534
663.271,214.413,-2.93948,-0.19623,0.45302
663.871,214.6203,-2.94127,-0.20525,0.45264
664.471,214.828,-2.94091,-0.20526,0.45226
665.071,215.035,-2.93961,-0.19989,0.45188
665.671,215.242,-2.93992,-0.20545,0.4515
666.271,215.449,-2.94126,-0.18689,0.45112
666.871,215.6554,-2.93997,-0.19715,0.45074
667.471,215.862,-2.94124,-0.19685,0.45036
668.071,216.068,-2.94075,-0.16274,0.44998
668.671,216.275,-2.93798,-0.1693,0.4496
669.271,216.48,-2.94003,-0.1816,0.44922
669.871,216.687,-2.94135,-0.17212,0.44884
670.471,216.893,-2.94375,-0.18138,0.44845
671.071,217.101,-2.942,-0.15619,0.44807
671.671,217.308,-2.942,-0.18418,0.44769
672.271,217.514,-2.94199,-0.16426,0.44731
672.871,217.721,-2.94199,-0.16191,0.44693
673.471,217.928,-2.9407,-0.15259,0.44655
674.071,218.134,-2.94159,-0.16531,0.44617
674.671,218.341,-2.94201,-0.15942,0.44578
675.271,218.547,-2.94069,-0.13346,0.4454
675.871,218.7545,-2.94223,-0.12491,0.44502
676.471,218.962,-2.94018,-0.10946,0.44464
677.071,219.169,-2.94223,-0.1116,0.44426
677.671,219.377,-2.94157,-0.10334,0.44387
678.271,219.584,-2.94032,-0.07243905,0.44349
678.871,219.791,-2.94157,-0.05146636,0.44311
679.471,219.996,-2.94223,-0.04489138,0.44273
680.071,220.201,-2.94358,-0.03823046,0.44235
680.671,220.406,-2.94344,-0.01894136,0.44196
681.271,220.612,-2.94223,-0.02650085,0.44158
681.871,220.82,-2.94322,-0.06397277,0.4412
682.471,221.028,-2.94417,-0.04911293,0.44082
683.071,221.237,-2.94407,-0.03358946,0.44043
683.671,221.4449,-2.94342,-0.03595743,0.44005
684.271,221.653,-2.94519,-0.03108389,0.43967
684.871,221.8608,-2.94387,-0.03856087,0.43928
685.471,222.069,-2.94519,-0.03253695,0.4389
686.071,222.277,-2.94519,-0.0386838,0.43852
686.671,222.484,-2.9465,-0.09576692,0.43814
687.271,222.69,-2.9465,-0.06458157,0.43775
687.871,222.897,-2.94465,-0.0653123,0.43737
688.471,223.105,-2.94717,-0.01517185,0.43699
689.071,223.312,-2.94716,0.004612644,0.4366
689.671,223.52,-2.94979,-0.06122827,0.43622
690.271,223.727,-2.94617,-0.05769719,0.43584
690.871,223.934,-2.94889,-0.05543782,0.43545
691.471,224.142,-2.94902,-0.03640961,0.43507
692.071,224.35,-2.94639,-0.06653203,0.43469
692.671,224.557,-2.9473,-0.05413127,0.4343
693.271,224.764,-2.9492,-0.05537088,0.43392
693.871,224.969,-2.95079,-0.05703347,0.43353
694.471,225.174,-2.94947,-0.04338944,0.43315
695.071,225.381,-2.9498,-0.00834776,0.43277
695.671,225.587,-2.9498,1.280195e-06,0.43238
696.271,225.794,-2.95022,0.02309415,0.432
696.871,226.001,-2.95017,0.02972511,0.43162
697.471,226.207,-2.95012,0.0593196,0.43123
698.071,226.414,-2.95012,0.05770991,0.43085
698.671,226.621,-2.94987,0.04224064,0.43046
699.271,226.829,-2.95012,0.05495414,0.43008
699.871,227.038,-2.95012,0.06244926,0.4297
700.471,227.247,-2.9514,0.06281014,0.42931
701.071,227.455,-2.9521,0.03642598,0.42893
701.671,227.662,-2.9539,0.07695109,0.42854
702.271,227.869,-2.95268,0.06414296,0.42816
702.871,228.076,-2.95238,0.07587244,0.42778
703.471,228.285,-2.95276,0.08009882,0.42739
704.071,228.493,-2.95275,0.10196,0.42701
704.671,228.7,-2.95407,0.10365,0.42662
705.271,228.907,-2.95257,0.11154,0.42624
705.871,229.114,-2.9544,0.11776,0.42585
706.471,229.32,-2.95177,0.12194,0.42547
707.071,229.526,-2.95368,0.09986622,0.42509
707.671,229.731,-2.95177,0.11814,0.4247
708.271,229.936,-2.95451,0.12694,0.42432
708.871,230.143,-2.9532,0.11674,0.42393
709.471,230.35,-2.95188,0.13691,0.42355
710.071,230.557,-2.95254,0.15222,0.42316
710.671,230.765,-2.95319,0.16864,0.42278
711.271,230.973,-2.95215,0.18335,0.42239
711.871,231.182,-2.9533,0.21413,0.42201
712.471,231.392,-2.95248,0.21578,0.42163
713.071,231.6008,-2.95462,0.21596,0.42124
713.671,231.8098,-2.95233,0.22135,0.42086
714.271,232.018,-2.95279,0.22128,0.42047
714.871,232.226,-2.9532,0.25213,0.42009
715.471,232.434,-2.95203,0.26987,0.4197
716.071,232.641,-2.95464,0.25528,0.41932
716.671,232.848,-2.9533,0.26138,0.41893
717.271,233.056,-2.95469,0.25114,0.41855
717.871,233.264,-2.9543,0.28546,0.41816
718.471,233.472,-2.95529,0.31038,0.41778
719.071,233.68,-2.9566,0.29249,0.4174
719.671,233.888,-2.95659,0.31273,0.41701
720.271,234.097,-2.9566,0.35837,0.41663
720.871,234.305,-2.95632,0.33516,0.41624
721.471,234.514,-2.95655,0.34869,0.41586
722.071,234.722,-2.95758,0.32299,0.41547
722.671,234.9307,-2.95699,0.34635,0.41509
723.271,235.139,-2.95702,0.34482,0.4147
723.871,235.347,-2.9566,0.34586,0.41432
724.471,235.555,-2.95791,0.3552,0.41393
725.071,235.764,-2.95659,0.33889,0.41355
725.671,235.973,-2.95791,0.34638,0.41316
726.271,236.183,-2.95758,0.34976,0.41278
726.871,236.391,-2.95824,0.3908,0.4124
727.471,236.599,-2.95758,0.39257,0.41201
728.071,236.808,-2.95856,0.42183,0.41163
728.671,237.016,-2.95857,0.40002,0.41124
729.271,237.225,-2.95625,0.39211,0.41086
729.871,237.434,-2.95846,0.41117,0.41047
730.471,237.643,-2.95847,0.41269,0.41009
731.071,237.852,-2.95989,0.43271,0.4097
731.671,238.061,-2.95986,0.42994,0.40932
732.271,238.2695,-2.95966,0.44776,0.40894
732.871,238.477,-2.96107,0.43522,0.40855
733.471,238.684,-2.96098,0.40941,0.40817
734.071,238.89,-2.95999,0.39828,0.40778
734.671,239.0965,-2.95999,0.41679,0.4074
735.271,239.305,-2.96,0.43418,0.40701
735.871,239.514,-2.95968,0.44042,0.40663
736.471,239.724,-2.96073,0.45244,0.40624
737.071,239.9342,-2.96068,0.47397,0.40586
737.671,240.1432,-2.96132,0.48103,0.40548
738.271,240.352,-2.96057,0.51141,0.40509
738.871,240.562,-2.96197,0.52179,0.40471
739.471,240.7722,-2.96065,0.52769,0.40432
740.071,240.9819,-2.96197,0.55678,0.40394
740.671,241.191,-2.96263,0.5514,0.40356
741.271,241.4,-2.96131,0.57545,0.40317
741.871,241.609,-2.96142,0.60131,0.40279
742.471,241.818,-2.96165,0.63923,0.4024
743.071,242.028,-2.96113,0.64608,0.40202
743.671,242.237,-2.96231,0.67509,0.40164
744.271,242.444,-2.96138,0.71218,0.40125
744.871,242.65,-2.96263,0.73072,0.40087
745.471,242.8571,-2.96262,0.74093,0.40048
746.071,243.0652,-2.96394,0.76098,0.4001
746.671,243.274,-2.96317,0.75469,0.39972
746.771,243.31,-2.96427,0.76706,0.39965