File: 01_Data/Mineral_Wool_Insulation/Cone/Mineral_Wool_Insulation_Cone_HF50Scan_220426_R2.csv
Names,Time,Stack TC,Smoke TC,Exh Press,Smoke Comp,Smoke Meas,CO Meter,CO2 Meter,O2 Meter,Sample Mass,Ext Coeff,Start Test,Flame Verif
Chan Gain,,500,500,1,1,1,1,1,1,1,1,1.0,1.0
Offset,,0,0,0.135223,0,0,0,0,0,0,0,0.0,0.0
Gain,,1,1,25.011,13.0939,14.0471,1,1,1,1.00088,1.00971,1.0,1.0
Units,sec,C,C,Pa,%,%,%,%,%,g,/m,,
Baseline,,33.3652,34.5397,144.685,99.0611,96.0695,0.000785869,0.0467779,21.0097,-834.385,0.271624,,
7,1.5,32.5069,34.1975,147.301,98.7713,94.8282,0.000773053,0.0550614,21.0001,-318.791,0.360846,0.0,0.0
14,3.25,33.0206,34.4731,141.738,98.7318,95.1201,0.000969267,0.0547062,21.0005,-318.781,0.330072,0.0,0.0
21,5,33.2875,34.0161,141.958,98.7454,96.1048,0.00126671,0.0544108,21.0008,-318.771,0.240072,0.0,0.0
28,6.75,33.2561,34.5118,144.004,98.7565,95.7687,0.00157779,0.0545776,21.0008,-318.811,0.272106,0.0,0.0
35,8.5,32.9639,34.4689,144.334,98.7657,95.7794,0.00180727,0.0550293,20.9999,-318.821,0.271938,0.0,0.0
42,10.25,33.2394,34.6359,139.677,98.7625,96.1609,0.00199915,0.0552945,20.9992,-318.831,0.23644,0.0,0.0
49,12,33.8169,35.1005,142.323,98.7629,95.9565,0.00217409,0.0552682,21.0001,-318.841,0.255331,0.0,0.0
56,13.75,33.6178,35.008,141.949,98.7749,96.3539,0.00226768,0.0550277,21.0005,-318.871,0.219801,0.0,0.0
63,15.5,33.7599,34.6202,144.586,98.7805,95.6752,0.00227208,0.0545266,21.0007,-318.891,0.282902,0.0,0.0
70,17.25,33.9148,35.0917,142.493,98.7801,95.9539,0.00224666,0.0538073,21.0018,-318.901,0.257109,0.0,0.0
77,19,33.5821,34.6121,143.887,98.7709,95.7378,0.0022539,0.0530234,21.0026,-318.881,0.276251,0.0,0.0
84,20.75,34.5077,35.5507,142.645,98.7837,96.0645,0.00232191,0.0525428,21.0039,-318.901,0.247228,0.0,0.0
91,22.5,34.1508,35.1443,142.835,98.7865,95.9672,0.00237861,0.0521835,21.0047,-318.921,0.256456,0.0,0.0
98,24.25,34.369,35.7751,144.821,98.7769,95.6564,0.00239594,0.0518233,21.0051,-318.921,0.284326,0.0,0.0
105,26,34.2794,35.4112,141.221,98.7721,96.4246,0.00237937,0.0514243,21.0054,-318.921,0.21305,0.0,0.0
112,27.75,34.3794,35.3937,142.615,98.7777,96.1901,0.00233062,0.0509332,21.0055,-318.931,0.235118,0.0,0.0
119,29.5,34.3366,36.062,141.771,98.7861,95.9758,0.00222374,0.0506879,21.005,-318.951,0.255628,0.0,0.0
126,31.25,34.3111,35.5986,143.977,98.7793,95.9556,0.00202994,0.0505676,21.0055,-318.951,0.256879,0.0,0.0
133,33,34.7283,36.0875,140.293,98.7689,95.8309,0.00190128,0.0503512,21.0057,-318.951,0.267469,0.0,0.0
140,34.75,34.493,35.4969,143.3,98.7705,96.266,0.00188101,0.0500957,21.0058,-318.951,0.227489,0.0,0.0
147,36.5,34.9196,35.8843,145.356,98.7821,96.1266,0.00188056,0.049982,21.0059,-318.951,0.241356,0.0,0.0
154,38.25,35.2938,35.5458,140.223,98.7877,96.29,0.00186442,0.049817,21.0059,-318.951,0.226821,0.0,0.0
161,40,35.054,35.8671,144.716,98.7889,95.9646,0.00186632,0.0496209,21.0071,-318.961,0.256907,0.0,0.0
168,41.75,34.56,36.351,143.055,98.7709,95.9728,0.00193656,0.0494662,21.0077,-318.981,0.254543,0.0,0.0
175,43.5,35.1272,36.1816,143.593,98.7757,95.5938,0.00205715,0.0494036,21.008,-319.001,0.290016,0.0,0.0
182,45.25,34.5887,36.3601,145.499,98.7965,96.0992,0.00210854,0.0493924,21.0081,-319.001,0.245173,0.0,0.0
189,47,34.8238,36.5558,145.551,98.7877,96.2921,0.00205514,0.0492152,21.0082,-319.011,0.226623,0.0,0.0
196,48.75,34.8329,36.5159,143.822,98.7797,95.8549,0.00192596,0.0490388,21.0082,-319.011,0.266218,0.0,0.0
203,50.5,35.0445,36.3132,139.372,98.7825,96.1288,0.0018104,0.048935,21.0082,-319.011,0.241194,0.0,0.0
210,52.25,35.0656,36.7242,145.096,98.8021,96.01,0.00172169,0.0489629,21.0095,-319.011,0.253897,0.0,0.0
217,54,34.9654,36.3166,142.697,98.7949,96.0461,0.00172259,0.049031,21.0107,-319.031,0.249931,0.0,0.0
224,55.75,34.9166,36.031,143.106,98.7733,96.2278,0.00175824,0.0490762,21.0113,-319.041,0.23125,0.0,0.0
231,57.5,34.7265,36.7193,143.438,98.7809,95.992,0.00178274,0.0491361,21.011,-319.001,0.253659,0.0,0.0
238,59.25,34.9492,36.3891,148.188,98.7813,96.0448,0.00180934,0.0492277,21.0115,-319.031,0.248832,0.0,0.0
245,61,35.5812,36.869,143.316,98.8049,96.0383,0.00181766,0.0494023,21.0117,-319.041,0.251537,0.0,0.0
252,62.75,35.1895,36.6081,144.425,98.7869,95.8579,0.00173373,0.0496008,21.0118,-319.061,0.266586,0.0,0.0
259,64.5,35.1333,36.9776,142.244,98.7785,96.0156,0.0016625,0.0494816,21.0118,-319.051,0.251268,0.0,0.0
266,66.25,35.5004,37.1539,142.892,98.7769,96.3526,0.00174638,0.0493027,21.0119,-319.071,0.220098,0.0,0.0
273,68,35.6313,36.9685,145.615,98.7957,96.2437,0.00191117,0.0491933,21.0119,-319.081,0.231797,0.0,0.0
280,69.75,35.6226,36.6691,147.785,98.7941,95.9942,0.00200131,0.0490853,21.0119,-319.081,0.254643,0.0,0.0
287,71.5,35.4359,36.8332,137.245,98.7861,95.6199,0.00192238,0.0489272,21.0119,-319.111,0.288525,0.0,0.0
294,73.25,35.7469,37.1875,143.689,98.7777,95.788,0.0017184,0.0487386,21.0131,-319.121,0.27222,0.0,0.0
301,75,35.6853,36.9849,143.086,98.7845,95.8686,0.00155622,0.0487557,21.0131,-319.111,0.26538,0.0,0.0
308,76.75,35.2859,37.3516,143.258,98.7977,95.9136,0.00149277,0.048918,21.0119,-319.132,0.262405,0.0,0.0
315,78.5,35.8991,37.0516,140.404,98.7793,95.9295,0.00140904,0.0488743,21.0109,-319.142,0.259293,0.0,0.0
322,80.25,35.6146,36.8559,143.514,98.7701,96.3286,0.00131574,0.0488715,21.0106,-319.132,0.221696,0.0,0.0
329,82,36.011,37.3404,142.687,98.7793,96.0559,0.00127466,0.048912,21.0104,-319.142,0.247624,0.0,0.0
336,83.75,35.5546,37.1389,144.677,98.7789,95.9685,0.0013528,0.0489113,21.0103,-319.142,0.255656,0.0,0.0
343,85.5,36.164,37.2924,140.61,98.7769,96.2707,0.00144462,0.0490783,21.0103,-319.152,0.227628,0.0,0.0
350,87.25,36.1335,37.4312,148.678,98.7577,96.1146,0.00148677,0.0490925,21.0101,-319.152,0.240276,0.0,0.0
357,89,36.3453,37.5993,142.69,98.7482,95.7751,0.00144016,0.0492407,21.0097,-319.142,0.270758,0.0,0.0
364,90.75,35.7265,37.2235,145.772,98.7422,96.0799,0.00134289,0.0494653,21.0084,-319.142,0.242078,0.0,0.0
371,92.5,35.9683,36.9607,142.51,98.7537,96.0371,0.00134141,0.0497033,21.0077,-319.162,0.24707,0.0,0.0
378,94.25,35.8166,37.257,142.717,98.7458,95.8904,0.00139114,0.0497733,21.0073,-319.152,0.259885,0.0,0.0
385,96,36.1206,37.3839,150.039,98.7382,96.0161,0.00145392,0.0497503,21.0072,-319.162,0.24761,0.0,0.0
392,97.75,35.9228,37.1998,144.468,98.7613,95.7486,0.00152763,0.0497184,21.0073,-319.152,0.274399,0.0,0.0
399,99.5,36.214,37.5699,144.839,98.7853,96.3406,0.00162525,0.0495892,21.0081,-319.172,0.221955,0.0,0.0
406,101.25,36.302,37.3719,140.24,98.8173,96.0062,0.00165286,0.0494238,21.0085,-319.172,0.255615,0.0,0.0
413,103,36.3072,38.169,139.762,98.8177,96.0954,0.00158993,0.0494947,21.0087,-319.192,0.247427,0.0,0.0
420,104.75,35.8155,37.4925,143.043,98.8401,95.7113,0.0014586,0.0496035,21.0088,-319.182,0.284906,0.0,0.0
427,106.5,36.0663,37.5377,142.274,98.8536,96.1305,0.00140692,0.0495291,21.0089,-319.192,0.247411,0.0,0.0
434,108.25,36.2555,37.7463,140.468,98.8676,95.9959,0.00143563,0.049427,21.0089,-319.182,0.261075,0.0,0.0
441,110,36.6499,37.9379,141.228,98.8672,96.3907,0.00143603,0.0493365,21.0089,-319.182,0.224686,0.0,0.0
448,111.75,36.26,37.6953,140.175,98.8632,95.9972,0.00141138,0.049073,21.0089,-319.192,0.260563,0.0,0.0
455,113.5,35.9881,37.6571,144.311,98.862,96.1918,0.00146363,0.048903,21.0089,-319.202,0.242517,0.0,0.0
462,115.25,36.0557,37.7819,142.369,98.8552,96.2938,0.00156642,0.0488767,21.0089,-319.202,0.232518,0.0,0.0
469,117,36.0079,38.2112,149.462,98.858,95.953,0.00163388,0.0488784,21.0089,-319.192,0.264172,0.0,0.0
476,118.75,36.2015,37.7072,142.477,98.8317,96.215,0.00164086,0.0488865,21.0089,-319.212,0.237663,0.0,0.0
483,120.5,35.816,37.9719,142.06,98.8101,96.5322,0.00160849,0.0486871,21.0097,-319.202,0.206576,0.0,0.0
490,122.25,35.8569,37.3598,145.203,98.8021,96.2685,0.00155099,0.0484486,21.0107,-319.212,0.230083,0.0,0.0
497,124,36.1796,37.6359,143.025,98.7933,96.3929,0.00147327,0.0483495,21.0111,-319.212,0.217864,0.0,0.0
504,125.75,35.819,38.1932,140.827,98.739,95.9556,0.00141561,0.0482249,21.0113,-319.212,0.253259,0.0,0.0
511,127.5,36.538,37.7184,143.564,98.7374,96.2402,0.00139051,0.0480536,21.0114,-319.222,0.226881,0.0,0.0
518,129.25,36.3125,37.9015,142.746,98.7474,95.6551,0.00135099,0.0481575,21.0115,-319.212,0.281794,0.0,0.0
525,131,36.3682,37.4827,142.031,98.7482,96.2347,0.001315,0.0480643,21.012,-319.232,0.228361,0.0,0.0
532,132.75,36.6572,37.8271,144.317,98.7514,95.9908,0.00135778,0.0479016,21.0122,-319.212,0.251126,0.0,0.0
539,134.5,36.3958,37.5537,143.361,98.7553,95.779,0.0014539,0.0477646,21.0123,-319.212,0.271046,0.0,0.0
546,136.25,36.7214,37.8642,145.43,98.7577,96.4344,0.0014424,0.0477683,21.0123,-319.232,0.210855,0.0,0.0
553,138,37.0537,38.2245,139.127,98.7713,96.1652,0.00136773,0.0478611,21.0124,-319.252,0.236834,0.0,0.0
560,139.75,36.1948,38.3201,145.145,98.7809,96.7924,0.00131328,0.0480088,21.0124,-319.232,0.180119,0.0,0.0
567,141.5,36.2144,37.6556,148.227,98.7649,96.0491,0.00131017,0.0482766,21.0107,-319.232,0.246967,0.0,0.0
574,143.25,36.9288,38.269,141.92,98.7637,96.3693,0.00133355,0.0485282,21.0099,-319.242,0.217379,0.0,0.0
581,145,36.7722,38.2652,142.997,98.7773,96.1164,0.00138615,0.0487117,21.0099,-319.252,0.241874,0.0,0.0
588,146.75,36.5778,38.0428,143.119,98.7809,96.5228,0.00142433,0.0488603,21.0099,-319.242,0.204826,0.0,0.0
595,148.5,36.465,38.3024,140.812,98.7845,96.1297,0.00141323,0.0488768,21.0099,-319.262,0.241293,0.0,0.0
602,150.25,36.5876,38.0491,142.585,98.7809,96.0735,0.00137989,0.0487074,21.0099,-319.242,0.246148,0.0,0.0
609,152,36.6203,37.9907,140.552,98.7801,95.9963,0.00134553,0.0485209,21.0099,-319.272,0.253193,0.0,0.0
616,153.75,36.2001,38.0209,143.121,98.7969,96.2497,0.00133172,0.0484441,21.0107,-319.262,0.231353,0.0,0.0
623,155.5,36.5787,38.0314,141.131,98.8001,95.7987,0.00132783,0.0482991,21.0115,-319.252,0.273236,0.0,0.0
630,157.25,36.7377,38.5566,143.527,98.7889,96.2818,0.00135991,0.0481632,21.0109,-319.262,0.227677,0.0,0.0
637,159,36.5466,37.9048,143.011,98.7797,96.5686,0.00136704,0.048084,21.0104,-319.252,0.200511,0.0,0.0
644,160.75,36.5162,37.9669,143.757,98.7957,96.6484,0.00131076,0.0478923,21.0101,-319.282,0.194633,0.0,0.0
651,162.5,36.3897,38.1074,141.917,98.7949,96.1322,0.00118788,0.0477569,21.0111,-319.282,0.241989,0.0,0.0
658,164.25,36.5422,38.2489,143.556,98.7885,96.0443,0.00111459,0.0477679,21.0117,-319.272,0.249516,0.0,0.0
665,166,36.4313,38.58,142.747,98.7809,96.6325,0.00113575,0.047835,21.0119,-319.292,0.194761,0.0,0.0
672,167.75,36.924,38.1862,141.551,98.8009,96.0662,0.00121561,0.0478236,21.0131,-319.272,0.248611,0.0,0.0
679,169.5,36.393,38.1318,143.591,98.7921,95.7515,0.0013014,0.0478033,21.0142,-319.282,0.27688,0.0,0.0
686,171.25,37.0192,38.753,144.356,98.7905,95.9646,0.00129408,0.0479116,21.0148,-319.292,0.257051,0.0,0.0
693,173,36.4338,38.2714,139.412,98.7773,96.6008,0.00118345,0.0481152,21.015,-319.282,0.197347,0.0,0.0
700,174.75,36.5622,38.133,146.106,98.7785,95.5908,0.00103826,0.0481806,21.0143,-319.282,0.290544,0.0,0.0
707,176.5,36.4248,38.7423,142.49,98.7921,96.1481,0.000987731,0.048181,21.0146,-319.282,0.240276,0.0,0.0
714,178.25,36.8682,38.3236,143.529,98.7849,96.197,0.00102494,0.0480818,21.0154,-319.292,0.23513,0.0,0.0
721,180,36.8285,38.4548,144.923,98.7813,96.1211,0.00105184,0.0480485,21.0157,-319.282,0.241798,0.0,0.0
728,181.75,37.3472,38.3712,143.954,98.7733,95.8712,0.00101853,0.0480146,21.0159,-319.292,0.26414,0.0,0.0
735,183.5,36.6847,38.3589,144.969,98.7841,96.1224,0.000937326,0.0481153,21.0152,-319.292,0.24193,0.0,0.0
742,185.25,36.8836,38.1667,141.777,98.7925,96.3539,0.00085414,0.0481907,21.0144,-319.282,0.221378,0.0,0.0
749,187,36.1974,38.4048,144.195,98.8017,95.956,0.000802127,0.0483096,21.014,-319.302,0.258846,0.0,0.0
756,188.75,36.8937,38.699,144.222,98.7817,95.9878,0.000885386,0.0483689,21.0139,-319.322,0.254126,0.0,0.0
763,190.5,37.2634,38.8802,141.807,98.7893,96.1755,0.00106868,0.0484229,21.0132,-319.312,0.237499,0.0,0.0
770,192.25,36.6051,38.4499,145.186,98.8069,96.4897,0.00122995,0.0485494,21.0113,-319.312,0.210184,0.0,0.0
777,194,37.1042,38.5536,140.656,98.8153,96.5836,0.00121317,0.0485903,21.0098,-319.302,0.202323,0.0,0.0
784,195.75,36.6017,38.2731,140.925,98.8185,95.9235,0.00114704,0.0486575,21.0091,-319.292,0.263357,0.0,0.0
791,197.5,36.9497,38.4214,141.873,98.8241,95.887,0.00116251,0.0485719,21.0087,-319.292,0.267223,0.0,0.0
798,199.25,36.8724,38.8968,144.853,98.854,95.8026,0.00118393,0.0485507,21.0096,-319.292,0.277714,0.0,0.0
805,201,37.2118,38.8361,143.227,98.8592,96.2921,0.00107938,0.0484967,21.0102,-319.282,0.233034,0.0,0.0
812,202.75,36.7536,38.6808,144.368,98.8768,96.2664,0.000912322,0.0483575,21.0104,-319.302,0.236976,0.0,0.0
819,204.5,37.2978,38.7873,142.3,98.8728,96.4859,0.000821642,0.0482662,21.0106,-319.302,0.216447,0.0,0.0
826,206.25,36.864,38.9915,140.503,98.89,96.5305,0.000792482,0.0482848,21.0106,-319.302,0.213893,0.0,0.0
833,208,36.7122,38.3011,140.52,98.9248,95.9466,0.000795099,0.0483224,21.0096,-319.302,0.270742,0.0,0.0
840,209.75,36.9073,38.3525,140.172,98.926,96.3551,0.000789622,0.0486349,21.0089,-319.302,0.233217,0.0,0.0
847,211.5,36.5945,38.5744,149.097,98.9264,96.9051,0.0007462,0.0488667,21.0086,-319.292,0.182839,0.0,0.0
854,213.25,36.6472,38.9083,146.443,98.9468,96.3076,0.00070202,0.0489369,21.0079,-319.292,0.239452,0.0,0.0
861,215,37.3138,39.14,145.573,98.9743,96.5832,0.00068273,0.0489967,21.007,-319.302,0.216606,0.0,0.0
868,216.75,36.9368,38.6466,143.622,98.9919,96.0083,0.000706849,0.0488934,21.0066,-319.312,0.271054,0.0,0.0
875,218.5,37.2323,38.6248,141.888,99.0015,96.0619,0.000808939,0.0487476,21.0064,-319.312,0.266969,0.0,0.0
882,220.25,37.0398,38.7585,142.684,99.0271,96.4979,0.000942306,0.0486666,21.0063,-319.302,0.229151,0.0,0.0
889,222,36.9425,38.6734,144.515,99.0522,96.4606,0.00105287,0.0486165,21.0063,-319.322,0.234827,0.0,0.0
896,223.75,36.9577,38.377,145.412,99.0746,96.1897,0.00111107,0.0485401,21.0063,-319.312,0.261739,0.0,0.0
903,225.5,36.8784,38.8294,142.502,99.081,96.5592,0.00105059,0.0484234,21.0066,-319.302,0.228351,0.0,0.0
910,227.25,37.2553,38.6924,143.458,99.1134,96.7341,0.000920862,0.0484108,21.0069,-319.322,0.215215,0.0,0.0
917,229,37.3095,38.4969,144.206,99.1242,96.1841,0.000788204,0.0483772,21.0079,-319.322,0.266681,0.0,0.0
924,230.75,37.1764,38.5045,139.278,99.1422,96.3187,0.000735646,0.0484022,21.0087,-319.302,0.2559,0.0,0.0
931,232.5,36.9782,38.5593,144.839,99.1765,96.5245,0.000777445,0.0483321,21.0091,-319.322,0.240069,0.0,0.0
938,234.25,36.779,38.796,141.182,99.1897,96.0148,0.000835592,0.0482655,21.0093,-319.312,0.288141,0.0,0.0
945,236,36.8324,38.7907,142.869,99.2161,96.3723,0.000827908,0.0480878,21.0097,-319.312,0.257577,0.0,0.0
952,237.75,37.4336,38.6418,147.088,99.2476,96.2874,0.000789148,0.0478678,21.0107,-319.292,0.268198,0.0,0.0
959,239.5,37.1556,38.9536,148.735,99.2712,96.9527,0.000737464,0.0476734,21.0108,-319.312,0.209313,0.0,0.0
966,241.25,36.5729,39.0781,142.053,99.28,96.6449,0.000692239,0.0475213,21.0108,-319.302,0.238261,0.0,0.0
973,243,36.8079,38.3473,143.074,99.2972,96.6449,0.00064722,0.0474086,21.0109,-319.312,0.239793,0.0,0.0
980,244.75,37.0123,38.1055,139.34,99.3316,96.5335,0.000684623,0.0474224,21.0109,-319.292,0.253078,0.0,0.0
987,246.5,36.6501,38.706,141.323,99.3499,96.4769,0.000781521,0.0474026,21.0119,-319.322,0.259911,0.0,0.0
994,248.25,36.9906,37.8683,140.762,99.3631,97.1688,0.000820089,0.0475326,21.0118,-319.302,0.197793,0.0,0.0
1001,250,37.0862,38.4907,145.372,99.3723,96.2587,0.000736604,0.0476338,21.0118,-319.302,0.28196,0.0,0.0
1008,251.75,36.7063,38.5842,144.143,99.3983,96.5095,0.000618234,0.0475349,21.0118,-319.302,0.261229,0.0,0.0
1015,253.5,36.6437,38.2822,147.295,99.4323,96.4529,0.000568112,0.0474668,21.0126,-319.312,0.26945,0.0,0.0
1022,255.25,37.0771,38.4503,141.813,99.4438,96.4486,0.000601121,0.0473986,21.0133,-319.302,0.270876,0.0,0.0
1029,257,36.6646,38.7458,143.66,99.4546,96.2857,0.00074397,0.0473574,21.0137,-319.322,0.286809,0.0,0.0
1036,258.75,36.7291,38.6488,141.623,99.469,96.9026,0.000889554,0.0471777,21.0139,-319.322,0.231527,0.0,0.0
1043,260.5,36.6805,38.5523,146.981,99.4966,96.227,0.000993491,0.047221,21.0139,-319.312,0.295949,0.0,0.0
1050,262.25,37.1284,37.8278,145.218,99.511,97.2802,0.000982046,0.0472349,21.0139,-319.302,0.200809,0.0,0.0
1057,264,36.8517,38.2878,145.23,99.5186,96.9746,0.000880321,0.0471163,21.0139,-319.312,0.229357,0.0,0.0
1064,265.75,37.148,38.1394,141.519,99.5182,96.6989,0.000757242,0.0469665,21.0139,-319.312,0.254533,0.0,0.0
1071,267.5,37.1551,38.742,146.996,99.5382,96.4585,0.000745396,0.0469053,21.0139,-319.312,0.278367,0.0,0.0
1078,269.25,37.0213,39.0261,143.177,99.5577,96.5133,0.000836021,0.046859,21.0139,-319.332,0.275072,0.0,0.0
1085,271,37.2809,38.2886,143.619,99.5485,96.3903,0.000945334,0.0467293,21.0139,-319.322,0.285552,0.0,0.0
1092,272.75,36.8603,38.8939,148.008,99.5541,96.4966,0.000915369,0.0465461,21.0139,-319.322,0.276285,0.0,0.0
1099,274.5,36.7867,38.5838,144.548,99.5677,96.8678,0.000840675,0.04651,21.0139,-319.322,0.243485,0.0,0.0
1106,276.25,37.2168,38.6049,141.643,99.5605,96.9896,0.000821554,0.0466196,21.0139,-319.332,0.23172,0.0,0.0
1113,278,37.1268,38.8756,142.471,99.5773,97.1139,0.000839951,0.0466473,21.0139,-319.322,0.221867,0.0,0.0
1120,279.75,37.4254,38.8043,141.841,99.5801,96.7924,0.000835627,0.0465467,21.0139,-319.322,0.251488,0.0,0.0
1127,281.5,36.9214,38.4415,145.524,99.5761,97.0217,0.000774684,0.0465349,21.0139,-319.322,0.23017,0.0,0.0
1134,283.25,36.9693,38.4774,146.286,99.5821,96.6544,0.000675329,0.0463869,21.0135,-319.312,0.264306,0.0,0.0
1141,285,37.2388,38.784,139.078,99.5929,96.6796,0.000558864,0.046329,21.0131,-319.312,0.262948,0.0,0.0
1148,286.75,36.8988,38.8395,145.229,99.5929,96.6093,0.000458148,0.0463958,21.013,-319.312,0.269391,0.0,0.0
1155,288.5,37.2344,38.4475,143.493,99.5737,96.9399,0.000421262,0.0462603,21.0129,-319.312,0.237435,0.0,0.0
1162,290.25,37.1641,38.6449,144.815,99.5809,96.9411,0.000407235,0.046225,21.0129,-319.322,0.237958,0.0,0.0
1169,292,36.9746,38.4571,144.844,99.6013,96.8786,0.00035473,0.0461264,21.0129,-319.332,0.24549,0.0,0.0
1176,293.75,37.1379,38.8628,142.431,99.6061,96.8078,0.000374103,0.0460023,21.0129,-319.322,0.252385,0.0,0.0
1183,295.5,36.8429,38.8733,143.269,99.5749,97.2755,0.000451358,0.0461172,21.0129,-319.332,0.206927,0.0,0.0
1190,297.25,37.2141,38.2922,154.729,99.5689,96.5896,0.00051575,0.0462959,21.0129,-319.342,0.269066,0.0,0.0
1197,299,36.6695,38.4321,142.254,99.5901,97.0659,0.000514625,0.0463672,21.0129,-319.322,0.227385,0.0,0.0
1204,300.75,37.2181,38.6959,140.586,99.5837,96.7114,0.00048953,0.0463131,21.0129,-319.342,0.259225,0.0,0.0
1211,302.5,36.608,38.8738,144.438,99.5945,96.8537,0.000499237,0.0463769,21.0129,-319.342,0.24716,0.0,0.0
1218,304.25,37.0516,38.4564,143.874,99.5645,96.548,0.000530432,0.0465445,21.0129,-319.332,0.27249,0.0,0.0
1225,306,36.9916,38.3875,142.64,99.5761,96.5849,0.000538074,0.0466655,21.0119,-319.362,0.270139,0.0,0.0
1232,307.75,37.3438,38.2572,142.874,99.5769,96.6531,0.000504219,0.046769,21.0115,-319.342,0.263961,0.0,0.0
1239,309.5,37.2753,38.3505,144.368,99.5697,96.7551,0.000479656,0.0468722,21.0113,-319.342,0.253977,0.0,0.0
1246,311.25,36.6648,38.8839,143.614,99.5557,96.7791,0.000507002,0.0469348,21.0113,-319.342,0.250536,0.0,0.0
1253,313,37.2534,38.6338,142.668,99.5533,96.6938,0.000667061,0.0470327,21.0112,-319.342,0.258133,0.0,0.0
1260,314.75,37.2377,38.6076,140.577,99.5581,96.7864,0.000769234,0.0471991,21.0112,-319.352,0.250082,0.0,0.0
1267,316.5,37.0018,38.6056,144.884,99.5473,96.5922,0.000742385,0.0473227,21.0112,-319.342,0.266911,0.0,0.0
1274,318.25,37.2759,38.8941,144.195,99.5445,96.6582,0.000638221,0.0471891,21.01,-319.342,0.260611,0.0,0.0
1281,320,36.8796,38.5986,141.761,99.525,96.9231,0.000574428,0.0470322,21.0102,-319.342,0.234626,0.0,0.0
1288,321.75,37.3719,38.6159,140.518,99.5162,96.6994,0.000630361,0.0471465,21.0107,-319.352,0.254316,0.0,0.0
1295,323.5,36.9007,38.6928,141.468,99.5154,96.8023,0.000641171,0.0471993,21.011,-319.342,0.244826,0.0,0.0
1302,325.25,37.5516,38.7431,144.096,99.511,96.9892,0.00058204,0.0472313,21.0111,-319.322,0.227351,0.0,0.0
1309,327,37.5036,38.8268,143.928,99.4882,96.7277,0.000554841,0.0472044,21.0111,-319.342,0.249235,0.0,0.0
1316,328.75,36.6,38.2711,143.971,99.4794,96.6402,0.000585537,0.0472727,21.0119,-319.352,0.256463,0.0,0.0
1323,330.5,36.6055,38.8723,143.165,99.4802,96.5986,0.000651545,0.0473257,21.0117,-319.332,0.260347,0.0,0.0
1330,332.25,36.9647,38.6881,142.645,99.4734,96.5879,0.000707108,0.0472054,21.0116,-319.342,0.260725,0.0,0.0
1337,334,36.8876,38.3715,141.652,99.4526,96.8473,0.000743263,0.0472011,21.0116,-319.342,0.235123,0.0,0.0
1344,335.75,37.0558,38.607,145.141,99.4175,96.4975,0.000699431,0.0472623,21.0111,-319.352,0.26404,0.0,0.0
1351,337.5,36.9223,38.4839,142.424,99.4263,96.371,0.000582009,0.0472291,21.0101,-319.352,0.276438,0.0,0.0
1358,339.25,36.9559,38.3337,144.689,99.4083,96.7594,0.000485711,0.0471886,21.0096,-319.352,0.239212,0.0,0.0
1365,341,37.0315,39.0032,142.173,99.3911,96.3971,0.000512888,0.0471597,21.0094,-319.342,0.270903,0.0,0.0
1372,342.75,37.1672,38.7976,144.727,99.3619,96.771,0.000623318,0.0469873,21.0093,-319.352,0.234023,0.0,0.0
1379,344.5,37.4605,38.5625,147.095,99.3603,96.6256,0.000658368,0.0468876,21.0093,-319.342,0.24719,0.0,0.0
1386,346.25,37.5072,39.0203,145.146,99.3515,96.3757,0.00059849,0.0468038,21.0092,-319.352,0.269346,0.0,0.0
1393,348,37.161,38.7929,142.804,99.3396,96.8113,0.000564173,0.0467226,21.0092,-319.352,0.228341,0.0,0.0
1400,349.75,37.4667,38.7512,142.231,99.32,96.4627,0.000641193,0.0466683,21.0092,-319.342,0.258537,0.0,0.0
1407,351.5,37.5022,38.9004,143.193,99.2936,96.5978,0.000721318,0.046573,21.01,-319.322,0.243796,0.0,0.0
1414,353.25,37.2615,39.2391,139.635,99.2856,96.9857,0.000768119,0.0464703,21.0121,-319.352,0.207581,0.0,0.0
1421,355,36.8728,38.7909,141.052,99.2812,96.3118,0.000825859,0.0462402,21.0134,-319.352,0.268945,0.0,0.0
1428,356.75,36.9359,39.1366,142.683,99.2552,96.3337,0.000884006,0.0460142,21.0139,-319.352,0.264619,0.0,0.0
1435,358.5,37.2906,38.1964,143.01,99.2241,96.2951,0.000823637,0.0459798,21.0142,-319.332,0.265384,0.0,0.0
1442,360.25,37.0587,38.7657,143.178,99.2045,96.4023,0.000685854,0.0459536,21.0144,-319.342,0.253785,0.0,0.0
1449,362,36.9068,38.5836,141.026,99.2001,96.2887,0.000552139,0.0458113,21.0144,-319.332,0.263835,0.0,0.0
1456,363.75,36.8611,38.8897,143.064,99.1789,96.9214,0.000507971,0.0456106,21.0145,-319.332,0.203933,0.0,0.0
1463,365.5,36.7973,39.034,143.057,99.1497,97.1709,0.000468633,0.0454558,21.0145,-319.332,0.178556,0.0,0.0
1470,367.25,37.7557,38.8678,141.291,99.1334,96.2866,0.000449117,0.0453267,21.0145,-319.342,0.258072,0.0,0.0
1477,369,37.4674,38.804,142.446,99.1282,96.6934,0.000500263,0.04518,21.0145,-319.342,0.220265,0.0,0.0
1484,370.75,36.8201,38.7967,142.471,99.1142,96.1892,0.000592305,0.0451422,21.0145,-319.342,0.265315,0.0,0.0
1491,372.5,37.4582,39.0135,140.221,99.0882,96.251,0.000682603,0.0451566,21.0147,-319.332,0.257311,0.0,0.0
1498,374.25,37.3398,39.2944,142.945,99.0786,96.0581,0.000682151,0.0449985,21.0153,-319.352,0.274223,0.0,0.0
1505,376,37.4966,38.9067,140.571,99.0646,96.4357,0.000608777,0.0449981,21.0164,-319.342,0.238217,0.0,0.0
1512,377.75,36.9322,38.8002,139.719,99.0578,96.5558,0.000502893,0.0450913,21.0166,-319.332,0.226592,0.0,0.0
1519,379.5,37.4126,39.1351,139.037,99.0367,96.395,0.000465468,0.0452852,21.0165,-319.352,0.239457,0.0,0.0
1526,381.25,37.6067,38.5766,142.704,99.0039,96.0435,0.000511553,0.045466,21.0165,-319.362,0.268884,0.0,0.0
1533,383,37.0166,38.7218,145.079,98.9895,96.7517,0.000597377,0.0454809,21.0165,-319.352,0.202528,0.0,0.0
1540,384.75,37.1799,38.7473,146.01,98.9879,96.5549,0.000576209,0.0455116,21.0169,-319.362,0.220416,0.0,0.0
1547,386.5,36.9302,38.3392,144.761,98.9691,96.389,0.00049668,0.0454673,21.0171,-319.352,0.233967,0.0,0.0
1554,388.25,37.5246,39.0153,143.497,98.9611,96.3701,0.00051291,0.0455483,21.0172,-319.352,0.234985,0.0,0.0
1561,390,37.418,38.786,142.444,98.9356,96.4747,0.000716925,0.0454877,21.0173,-319.352,0.223088,0.0,0.0
1568,391.75,38.0391,39.0223,139.548,98.9248,96.3046,0.000908941,0.0453434,21.0173,-319.352,0.237761,0.0,0.0
1575,393.5,37.3324,38.9457,139.608,98.904,96.2042,0.000973252,0.0452143,21.0174,-319.342,0.24513,0.0,0.0
1582,395.25,37.6773,38.9615,142.977,98.8744,95.7816,0.00090572,0.0452493,21.0178,-319.332,0.281482,0.0,0.0
1589,397,37.3983,38.8923,137.486,98.8417,96.831,0.000705572,0.0452708,21.018,-319.342,0.182032,0.0,0.0
1596,398.75,37.5972,39.0235,145.557,98.8177,95.914,0.000520175,0.0452611,21.0178,-319.332,0.264157,0.0,0.0
1603,400.5,37.0758,39.2297,147.582,98.8201,96.1125,0.000392811,0.0451863,21.0166,-319.342,0.246062,0.0,0.0
1610,402.25,37.0481,38.9866,142.107,98.7977,96.1545,0.000378569,0.0452409,21.016,-319.332,0.240186,0.0,0.0
1617,404,37.0175,38.7962,143.416,98.7649,95.6525,0.000417478,0.0451846,21.0157,-319.332,0.283609,0.0,0.0
1624,405.75,37.1226,39.1715,144.616,98.7502,96.0053,0.000447043,0.0450671,21.0152,-319.322,0.249674,0.0,0.0
1631,407.5,37.8344,38.7953,137.735,98.725,96.2625,0.00040751,0.0449349,21.0149,-319.322,0.223718,0.0,0.0
1638,409.25,37.7643,38.8644,146.581,98.6986,96.0366,0.000352408,0.0449082,21.0147,-319.332,0.242162,0.0,0.0
1645,411,37.6017,39.1133,145.982,98.6718,96.1464,0.000385802,0.0447604,21.0147,-319.322,0.229644,0.0,0.0
1652,412.75,37.4934,38.9453,141.242,98.6499,96.5943,0.000590166,0.0447077,21.0156,-319.322,0.1865,0.0,0.0
1659,414.5,37.5282,38.9501,145.267,98.6335,95.9115,0.000722195,0.0448226,21.0164,-319.322,0.247868,0.0,0.0
1666,416.25,37.607,39.3953,144.798,98.6207,96.3264,0.000676614,0.044854,21.0166,-319.302,0.208482,0.0,0.0
1673,418,37.2457,39.1704,147.289,98.6135,96.0928,0.000531504,0.0448083,21.0168,-319.302,0.229344,0.0,0.0
1680,419.75,37.8279,39.3108,142.621,98.5779,95.7863,0.000454798,0.0447561,21.0169,-319.282,0.254445,0.0,0.0
1687,421.5,37.3051,39.2476,143.698,98.5691,95.4892,0.0004532,0.0448645,21.0166,-319.312,0.281169,0.0,0.0
1694,423.25,37.5273,39.1692,148.673,98.5699,95.6457,0.000497078,0.0450377,21.0153,-319.312,0.266739,0.0,0.0
1701,425,37.2873,38.9294,142.116,98.5587,95.7721,0.000490848,0.0450609,21.0147,-319.342,0.25403,0.0,0.0
1708,426.75,37.5778,38.7468,144.302,98.5408,96.0473,0.000445439,0.0451032,21.0144,-319.362,0.226999,0.0,0.0
1715,428.5,37.3629,39.0707,139.777,98.5132,95.5351,0.000461424,0.0451739,21.0143,-319.342,0.271887,0.0,0.0
1722,430.25,37.4349,38.7881,143.373,98.5188,96.1991,0.000518712,0.0452488,21.0136,-319.312,0.21104,0.0,0.0
1729,432,37.6204,38.9853,144.548,98.5176,95.908,0.000561856,0.0454493,21.0127,-319.322,0.237772,0.0,0.0
1736,433.75,37.4978,38.9138,141.078,98.4916,95.8291,0.000594288,0.045547,21.0122,-319.302,0.242724,0.0,0.0
1743,435.5,37.4586,38.8491,143.992,98.504,96.1674,0.000626007,0.0456427,21.012,-319.332,0.212632,0.0,0.0
1750,437.25,37.5523,39.1852,140.756,98.4928,96.1061,0.000610377,0.0457021,21.0119,-319.322,0.217273,0.0,0.0
1757,439,37.5354,38.8572,146.325,98.4956,95.6418,0.000514351,0.0456947,21.0119,-319.322,0.260415,0.0,0.0
1764,440.75,37.198,39.295,143.249,98.494,95.8189,0.00045073,0.0455438,21.0127,-319.342,0.243891,0.0,0.0
1771,442.5,37.194,39.5872,142.658,98.4872,96.1211,0.000495512,0.0452816,21.0134,-319.352,0.215388,0.0,0.0
1778,444.25,37.1389,39.0565,141.034,98.49,95.8008,0.000650109,0.0451986,21.0138,-319.352,0.245196,0.0,0.0
1785,446,37.751,39.2641,143.775,98.5012,95.6958,0.000769341,0.0452231,21.0152,-319.332,0.255917,0.0,0.0
1792,447.75,37.1891,39.394,140.269,98.4948,95.5788,0.000810861,0.0452558,21.0156,-319.352,0.266181,0.0,0.0
1799,449.5,37.0989,38.8223,141.628,98.4992,96.1678,0.000791901,0.0453075,21.0152,-319.342,0.212162,0.0,0.0
1806,451.25,37.6428,39.0319,144.084,98.4852,96.0473,0.00072548,0.0453074,21.0158,-319.332,0.222005,0.0,0.0
1813,453,36.853,39.2454,144.279,98.5032,95.6855,0.000665913,0.0453322,21.0164,-319.332,0.25705,0.0,0.0
1820,454.75,37.8503,39.0805,142.837,98.5184,95.7936,0.000727283,0.0452192,21.0168,-319.332,0.248421,0.0,0.0
1827,456.5,37.3132,39.6088,148.342,98.5168,95.7906,0.000845736,0.0450067,21.017,-319.342,0.248554,0.0,0.0
1834,458.25,37.4843,38.6444,142.164,98.4988,95.5449,0.000848435,0.044872,21.0174,-319.342,0.269679,0.0,0.0
1841,460,37.736,38.8959,144.231,98.5292,96.1579,0.000700084,0.0449543,21.0177,-319.342,0.215764,0.0,0.0
1848,461.75,37.3473,39.395,142.929,98.5328,95.929,0.000529298,0.0451412,21.0179,-319.292,0.237198,0.0,0.0
1855,463.5,37.0998,38.5266,141.323,98.5236,96.1369,0.000443993,0.0453296,21.0179,-319.312,0.217196,0.0,0.0
1862,465.25,37.8213,38.827,142.126,98.5344,95.9037,0.000454452,0.045522,21.0169,-319.292,0.239677,0.0,0.0
1869,467,36.9921,38.9741,141.759,98.5328,95.9333,0.000504411,0.0457358,21.0163,-319.292,0.236802,0.0,0.0
1876,468.75,37.3199,38.5175,140.993,98.5496,95.2877,0.000538434,0.0458691,21.0157,-319.292,0.298117,0.0,0.0
1883,470.5,37.6304,39.0504,143.87,98.5428,95.8429,0.000560236,0.0458504,21.0152,-319.322,0.246054,0.0,0.0
1890,472.25,36.6752,38.5502,142.003,98.5571,95.6761,0.000598332,0.0457051,21.015,-319.312,0.262772,0.0,0.0
1897,474,37.1244,38.6873,146.505,98.5575,95.9256,0.000656529,0.0455374,21.0149,-319.312,0.239742,0.0,0.0
1904,475.75,37.3282,39.0091,143.953,98.5519,96.0045,0.000663271,0.0452495,21.0149,-319.332,0.231958,0.0,0.0
1911,477.5,37.1747,39.0847,148.951,98.5651,95.8236,0.000612065,0.0451545,21.0148,-319.332,0.249849,0.0,0.0
1918,479.25,37.1875,39.2899,143.982,98.5655,95.8656,0.000569523,0.0450716,21.0152,-319.342,0.246002,0.0,0.0
1925,481,36.8484,39.2238,143.404,98.5715,95.6238,0.000593493,0.0449746,21.0154,-319.342,0.268908,0.0,0.0
1932,482.75,36.9257,39.0049,145.126,98.5851,95.9072,0.000612877,0.044764,21.016,-319.342,0.243921,0.0,0.0
1939,484.5,37.3512,38.7538,142.761,98.6147,96.0551,0.000568625,0.0448485,21.0171,-319.362,0.232929,0.0,0.0
1946,486.25,37.1977,39.3498,140.553,98.6243,95.731,0.000524022,0.0447875,21.0175,-319.342,0.263724,0.0,0.0
1953,488,37.3898,38.6935,140.104,98.6239,96.2145,0.000541906,0.0448872,21.0178,-319.332,0.219063,0.0,0.0
1960,489.75,37.1862,38.9377,146.627,98.6311,95.7134,0.00059531,0.0449545,21.0175,-319.342,0.26596,0.0,0.0
1967,491.5,37.7044,38.9287,140.233,98.6215,95.8982,0.000613836,0.0450237,21.0162,-319.322,0.248019,0.0,0.0
1974,493.25,37.5901,38.623,143.892,98.6443,95.869,0.000592329,0.0452394,21.0157,-319.332,0.252756,0.0,0.0
1981,495,37.3045,39.2052,141.579,98.6487,96.2034,0.000551382,0.0451579,21.0158,-319.332,0.222313,0.0,0.0
1988,496.75,37.3559,38.5593,141.923,98.6666,95.6727,0.000529225,0.0450762,21.0167,-319.342,0.272923,0.0,0.0
1995,498.5,37.3249,39.0371,142.351,98.6802,95.7914,0.000553819,0.0450618,21.0171,-319.362,0.263156,0.0,0.0
2002,500.25,37.1817,38.623,139.001,98.7014,96.0675,0.000607432,0.0450567,21.0173,-319.332,0.239568,0.0,0.0
2009,502,37.2397,38.476,141.459,98.7222,95.7087,0.000664267,0.0448893,21.0174,-319.362,0.274575,0.0,0.0
2016,503.75,37.0344,38.4505,141.059,98.729,95.8969,0.0007039,0.0448893,21.017,-319.342,0.257786,0.0,0.0
2023,505.5,37.4164,38.5178,142.559,98.7342,96.2248,0.000638885,0.0450009,21.017,-319.312,0.228014,0.0,0.0
2030,507.25,37.03,38.2994,138.35,98.7517,96.0499,0.000551816,0.0450811,21.0172,-319.312,0.245705,0.0,0.0
2037,509,37.2507,38.4319,141.153,98.7797,96.5236,0.000517991,0.0449961,21.0173,-319.322,0.204641,0.0,0.0
2044,510.75,37.2546,38.7137,144.129,98.7821,95.6041,0.000567591,0.0447658,21.0174,-319.332,0.289636,0.0,0.0
2051,512.5,36.7868,38.7686,141.507,98.7685,95.8334,0.000700588,0.0446424,21.0174,-319.332,0.267196,0.0,0.0
2058,514.25,37.0092,38.8218,144.018,98.7985,96.443,0.000774771,0.0448204,21.0174,-319.322,0.213722,0.0,0.0
2065,516,37.4461,38.3263,144.64,98.8213,96.467,0.000785976,0.0447979,21.0171,-319.322,0.21356,0.0,0.0
2072,517.75,36.8871,38.9676,141.835,98.8293,96.1699,0.000785805,0.0447317,21.0169,-319.352,0.241594,0.0,0.0
2079,519.5,37.1184,38.5779,145.042,98.8433,96.5168,0.000758183,0.044879,21.0164,-319.342,0.210964,0.0,0.0
2086,521.25,37.2433,39.0556,139.289,98.8608,96.2377,0.000667282,0.0450898,21.0154,-319.342,0.238187,0.0,0.0
2093,523,37.4363,38.7639,139.892,98.876,96.2364,0.000507583,0.0453317,21.0143,-319.362,0.239665,0.0,0.0
2100,524.75,36.6405,38.425,144.683,98.9036,96.1399,0.000397809,0.0455687,21.0132,-319.362,0.251016,0.0,0.0
2107,526.5,37.131,38.7758,139.137,98.9252,96.7315,0.000389522,0.0458219,21.0124,-319.352,0.198614,0.0,0.0
2114,528.25,37.3521,38.6317,146.344,98.9108,96.5352,0.000451381,0.0460579,21.0111,-319.342,0.215323,0.0,0.0
2121,530,37.3705,38.309,140.049,98.9356,96.6651,0.000509663,0.0462031,21.0104,-319.342,0.205631,0.0,0.0
2128,531.75,37.224,39.1063,142.245,98.9599,96.0491,0.000589972,0.046299,21.0101,-319.362,0.264438,0.0,0.0
2135,533.5,36.7651,38.1888,139.727,98.9739,96.7324,0.000693082,0.0463393,21.01,-319.342,0.2029,0.0,0.0
2142,535.25,37.2311,38.4375,142.312,98.9783,96.6312,0.000779587,0.0462891,21.0099,-319.352,0.212562,0.0,0.0
2149,537,37.2341,38.4913,143.466,98.9951,96.5416,0.00079722,0.0463184,21.0099,-319.352,0.222279,0.0,0.0
2156,538.75,37.1081,38.6286,142.083,99.0123,96.431,0.000744458,0.046339,21.0102,-319.362,0.233969,0.0,0.0
2163,540.5,37.1654,38.4751,140.792,99.0351,96.1858,0.000634686,0.0463908,21.0103,-319.372,0.258557,0.0,0.0
2170,542.25,36.9793,38.732,141.866,99.0522,96.6496,0.000498837,0.0464666,21.0104,-319.372,0.217486,0.0,0.0
2177,544,37.0071,38.8195,144.283,99.0526,96.1665,0.000394007,0.046523,21.0104,-319.372,0.261906,0.0,0.0
2184,545.75,36.9345,38.6096,144.199,99.089,96.9523,0.000424116,0.0465726,21.0105,-319.382,0.19308,0.0,0.0
2191,547.5,36.9568,38.7305,144.818,99.0998,96.1901,0.000518507,0.0468115,21.0105,-319.372,0.26395,0.0,0.0
2198,549.25,36.9268,38.3847,144.161,99.1038,96.3346,0.00058023,0.0471072,21.0097,-319.382,0.251014,0.0,0.0
2205,551,36.6315,38.4131,140.898,99.0986,96.359,0.000559932,0.0475106,21.0089,-319.382,0.248304,0.0,0.0
2212,552.75,37.3617,38.384,145.031,99.1038,95.9427,0.000465839,0.0477358,21.0085,-319.362,0.287112,0.0,0.0
2219,554.5,37.2408,38.9035,142.371,99.1106,96.1434,0.0004243,0.0477623,21.0083,-319.372,0.269218,0.0,0.0
2226,556.25,37.1216,38.9042,144.974,99.1222,96.2968,0.000452812,0.0478591,21.0074,-319.362,0.256127,0.0,0.0
2233,558,36.8108,38.9378,143.346,99.1322,96.2874,0.000466561,0.0480364,21.0066,-319.362,0.257887,0.0,0.0
2240,559.75,36.9346,38.1876,143.344,99.1246,96.284,0.000433651,0.0482138,21.0062,-319.362,0.257524,0.0,0.0
2247,561.5,37.808,38.5771,142.754,99.1242,96.7097,0.000384679,0.0484295,21.0057,-319.372,0.218415,0.0,0.0
2254,563.25,36.922,38.5834,144.325,99.1461,96.4657,0.00042663,0.048506,21.0054,-319.352,0.242747,0.0,0.0
2261,565,37.3494,38.2805,148.754,99.1441,96.7341,0.000603828,0.0484489,21.0053,-319.362,0.217964,0.0,0.0
2268,566.75,36.7319,38.4384,143.42,99.1453,96.1987,0.000816444,0.0484034,21.0052,-319.342,0.267231,0.0,0.0
2275,568.5,36.795,38.5838,143.796,99.139,95.791,0.000941999,0.0483376,21.0052,-319.342,0.304275,0.0,0.0
2282,570.25,37.0308,38.5803,139.643,99.1541,96.5635,0.00092803,0.0483053,21.0052,-319.352,0.234492,0.0,0.0
2289,572,36.6809,38.3141,139.584,99.1465,96.3071,0.000850545,0.0482659,21.0052,-319.342,0.257358,0.0,0.0
2296,573.75,37.0526,38.6078,142.415,99.1573,96.2917,0.000797241,0.048394,21.0052,-319.342,0.259741,0.0,0.0
2303,575.5,37.0995,38.0308,142.381,99.1505,96.5013,0.000839858,0.0489407,21.0042,-319.332,0.239873,0.0,0.0
2310,577.25,36.8463,38.7187,142.347,99.1781,96.5995,0.000905649,0.0497407,21.0035,-319.362,0.233331,0.0,0.0
2317,579,37.1441,37.9899,142.091,99.1757,96.4619,0.000904488,0.0504512,21.0032,-319.372,0.245742,0.0,0.0
2324,580.75,36.8921,38.0895,142.332,99.1681,96.7478,0.000913675,0.0510207,21.003,-319.362,0.21885,0.0,0.0
2331,582.5,36.5366,38.454,143.742,99.1789,96.6231,0.000942094,0.0512343,21.0036,-319.362,0.231241,0.0,0.0
2338,584.25,37.2382,38.0359,140.936,99.1845,96.8396,0.000911647,0.0511632,21.0051,-319.372,0.211917,0.0,0.0
2345,586,37.1145,38.2968,145.16,99.2021,96.3616,0.000782911,0.0507136,21.007,-319.382,0.257312,0.0,0.0
2352,587.75,36.7592,37.8744,141.478,99.1973,96.7371,0.000656344,0.0501166,21.008,-319.382,0.222434,0.0,0.0
2359,589.5,36.7263,37.6514,141.707,99.1989,96.6428,0.000540663,0.0496299,21.0084,-319.372,0.231217,0.0,0.0
2366,591.25,36.5224,38.278,144.426,99.1901,96.8018,0.000450354,0.0492628,21.0086,-319.372,0.215868,0.0,0.0
2373,593,36.8065,38.4092,141.425,99.2017,96.6706,0.00045136,0.0490063,21.0087,-319.362,0.228914,0.0,0.0
2380,594.75,36.4671,37.8606,139.157,99.2205,96.6063,0.000481872,0.0487889,21.0088,-319.372,0.236483,0.0,0.0
2387,596.5,36.7287,38.0952,145.141,99.2121,96.1982,0.000509398,0.0485091,21.0088,-319.382,0.27323,0.0,0.0
2394,598.25,36.5323,38.3299,147.666,99.2005,96.2561,0.000472891,0.0482295,21.0088,-319.372,0.266868,0.0,0.0
2401,600,36.638,37.9805,142.565,99.2053,96.0876,0.000435567,0.0479432,21.0088,-319.372,0.282812,0.0,0.0
2408,601.75,36.3711,37.9308,143.661,99.2173,97.0998,0.000501149,0.0477713,21.0088,-319.382,0.191076,0.0,0.0
2415,603.5,34.8866,36.331,144.199,99.2089,96.4062,0.000585574,0.0477224,21.0088,-319.372,0.253823,0.0,0.0
2422,605.25,34.7606,36.051,141.588,99.2037,96.0675,0.000660504,0.0477996,21.0082,-319.382,0.284527,0.0,0.0
2429,607,34.3429,36.2724,141.13,99.2065,96.512,0.000693635,0.0478437,21.007,-319.372,0.243886,0.0,0.0
2436,608.75,34.7459,36.7575,142.213,99.2129,96.317,0.000650427,0.0478256,21.0064,-319.372,0.262375,0.0,0.0
2443,610.5,33.9222,35.8582,143.533,99.2117,96.3067,0.000543238,0.0478876,21.0061,-319.372,0.263215,0.0,0.0
2450,612.25,34.2078,36.03,138.18,99.2049,96.7744,0.000444274,0.04805,21.006,-319.352,0.219699,0.0,0.0
2457,614,34.7688,36.1998,143.299,99.1917,96.5172,0.000417342,0.0482087,21.0053,-319.362,0.242094,0.0,0.0
2464,615.75,34.2278,35.9329,144.444,99.2081,96.2008,0.000480695,0.0482957,21.0044,-319.352,0.272636,0.0,0.0
2471,617.5,34.4709,36.1415,143.171,99.2141,96.1738,0.000560467,0.0482404,21.0039,-319.342,0.275658,0.0,0.0
2478,619.25,34.0193,35.6037,143.535,99.2137,96.6484,0.00058294,0.0480516,21.0047,-319.342,0.232027,0.0,0.0
2485,621,34.7679,36.169,142.193,99.2033,96.3967,0.000547057,0.0478805,21.0053,-319.312,0.25419,0.0,0.0
2492,622.75,34.5191,36.3272,141.81,99.1865,96.3847,0.00048244,0.04779,21.0056,-319.332,0.253794,0.0,0.0
2499,624.5,34.4713,36.1092,145.878,99.2041,96.2986,0.000408223,0.0476917,21.0057,-319.302,0.263286,0.0,0.0
2506,626.25,34.7605,35.738,146.942,99.1989,96.2857,0.000399631,0.0474624,21.007,-319.312,0.264005,0.0,0.0
2513,628,34.7313,35.8331,144.143,99.1889,96.3869,0.000472206,0.0470939,21.0079,-319.332,0.25381,0.0,0.0
2520,629.75,34.2893,35.7581,139.888,99.1849,96.3723,0.000586405,0.0467505,21.009,-319.362,0.254793,0.0,0.0
2527,631.5,34.5485,36.2057,142.313,99.1841,96.1082,0.000653246,0.04641,21.0103,-319.352,0.279025,0.0,0.0
2534,633.25,34.4427,35.9278,144.905,99.1865,96.2998,0.000670615,0.0461075,21.012,-319.352,0.261597,0.0,0.0
2541,635,34.5234,35.9185,141.688,99.1869,96.3526,0.000673102,0.0458633,21.0129,-319.342,0.256784,0.0,0.0
2548,636.75,34.6818,36.3566,143.677,99.1697,96.6376,0.00060392,0.0455358,21.0136,-319.352,0.229084,0.0,0.0
2555,638.5,34.2197,36.1598,141.365,99.1853,96.1254,0.000537031,0.0453558,21.0141,-319.322,0.277551,0.0,0.0
2562,640.25,34.2967,36.0064,143.255,99.2013,96.32,0.000594615,0.0451539,21.0144,-319.362,0.261064,0.0,0.0
2569,642,34.5654,36.0907,140.23,99.2145,97.11,0.00071457,0.0451678,21.0146,-319.352,0.189888,0.0,0.0
2576,643.75,34.6638,36.3417,142.9,99.1973,96.2424,0.000765594,0.0451924,21.0146,-319.312,0.267845,0.0,0.0
2583,645.5,34.1301,35.7518,142.735,99.1985,96.9587,0.000668316,0.0452336,21.0146,-319.342,0.202273,0.0,0.0
2590,647.25,34.7069,36.2443,143.048,99.2245,96.4147,0.000520001,0.0452366,21.0144,-319.342,0.254426,0.0,0.0
2597,649,34.8833,36.1178,141.42,99.2197,96.3663,0.000511687,0.0452109,21.0141,-319.342,0.258449,0.0,0.0
2604,650.75,34.6525,36.2466,139.972,99.2149,96.377,0.000588052,0.0452477,21.0133,-319.342,0.257036,0.0,0.0
2611,652.5,34.2655,36.1055,142.134,99.2185,96.7851,0.000663059,0.045416,21.0124,-319.352,0.219931,0.0,0.0
2618,654.25,34.7684,36.1783,142.029,99.2345,96.5125,0.00064915,0.0454381,21.0119,-319.342,0.246343,0.0,0.0
2625,656,34.1161,36.1104,142.8,99.2452,96.3586,0.000563958,0.0454679,21.0117,-319.342,0.261441,0.0,0.0
2632,657.75,34.8533,35.7201,139.065,99.2672,96.7101,0.000460102,0.0454847,21.0116,-319.362,0.231149,0.0,0.0
2639,659.5,34.7667,36.1408,142.761,99.2604,96.1627,0.000370681,0.0454954,21.0115,-319.342,0.280821,0.0,0.0
2646,661.25,34.2139,35.9564,141.408,99.286,96.6878,0.000330109,0.0456304,21.0115,-319.362,0.234867,0.0,0.0
2653,663,34.7457,36.1708,144.022,99.31,96.401,0.000394091,0.0456313,21.0115,-319.352,0.263316,0.0,0.0
2660,664.75,34.5531,35.625,142.084,99.316,96.6252,0.000519324,0.0456489,21.0107,-319.342,0.243276,0.0,0.0
2667,666.5,34.4316,35.5739,144.424,99.3124,96.254,0.000694378,0.0457229,21.01,-319.342,0.27705,0.0,0.0
2674,668.25,34.5399,35.6851,140.375,99.32,96.7418,0.000800031,0.0457966,21.0098,-319.322,0.232949,0.0,0.0
2681,670,34.6719,35.6406,141.681,99.3419,96.4512,0.000722877,0.0457213,21.0104,-319.332,0.261559,0.0,0.0
2688,671.75,34.6368,35.9407,138.993,99.3575,96.6934,0.000638112,0.0455568,21.0114,-319.352,0.240735,0.0,0.0
2695,673.5,34.4439,35.7852,143.569,99.3603,96.4147,0.000621478,0.0454519,21.0119,-319.362,0.266545,0.0,0.0
2702,675.25,34.7422,35.8679,143.77,99.3651,97.1812,0.000678273,0.0453364,21.0127,-319.362,0.196838,0.0,0.0
2709,677,34.6655,35.9603,142.452,99.3879,96.5288,0.000794926,0.045273,21.0131,-319.362,0.258533,0.0,0.0
2716,678.75,34.8913,36.0242,141.363,99.3927,96.8387,0.000860882,0.0451686,21.0133,-319.352,0.230568,0.0,0.0
2723,680.5,34.7511,36.1147,142.74,99.4139,96.296,0.000766478,0.044854,21.0143,-319.342,0.282232,0.0,0.0
2730,682.25,34.5538,35.9353,146.07,99.4007,96.4482,0.000606405,0.0447255,21.0151,-319.352,0.267071,0.0,0.0
2737,684,34.5574,35.9361,143.45,99.3915,96.9707,0.000505909,0.044701,21.0155,-319.332,0.218393,0.0,0.0
2744,685.75,34.4048,36.1398,143.983,99.4155,96.287,0.000493634,0.0445811,21.0156,-319.332,0.283202,0.0,0.0
2751,687.5,34.8981,36.1359,143.944,99.4279,96.4152,0.000559939,0.0445243,21.0157,-319.322,0.272524,0.0,0.0
2758,689.25,34.7847,36.4712,141.612,99.4319,96.5763,0.000644096,0.0445701,21.0154,-319.352,0.258085,0.0,0.0
2765,691,34.7927,36.2938,142.875,99.4323,96.783,0.000572847,0.0445514,21.0152,-319.342,0.239191,0.0,0.0
2772,692.75,34.8323,35.8411,143.772,99.4526,96.7744,0.000407703,0.0444969,21.015,-319.402,0.24179,0.0,0.0
2779,694.5,34.7992,35.8798,141.409,99.4558,96.7885,0.000286969,0.0445308,21.0143,-319.372,0.24078,0.0,0.0
2786,696.25,34.5829,36.0993,145.403,99.4498,97.1066,0.000219248,0.0445404,21.0134,-319.382,0.211188,0.0,0.0
2793,698,34.4798,36.1624,143.129,99.4634,96.6582,0.000190053,0.0446309,21.014,-319.372,0.25339,0.0,0.0
2800,699.75,34.1687,35.9204,142.007,99.455,96.6762,0.000136847,0.0447462,21.0147,-319.342,0.250993,0.0,0.0
2807,701.5,34.4626,36.0133,141.282,99.4738,96.7697,4.05604e-05,0.0449317,21.0152,-319.342,0.244108,0.0,0.0
2814,703.25,34.1429,35.7388,140.694,99.4794,97.0809,-2.61166e-06,0.0451169,21.0154,-319.342,0.216166,0.0,0.0
2821,705,34.3705,35.8527,144.564,99.475,96.5875,-4.99547e-06,0.0452665,21.0155,-319.362,0.260905,0.0,0.0
2828,706.75,34.7246,36.2481,139.795,99.4798,96.5549,7.49785e-05,0.0454089,21.0156,-319.382,0.264321,0.0,0.0
2835,708.5,34.2009,35.9074,143.984,99.4846,96.8121,0.000150854,0.0456067,21.0156,-319.362,0.241184,0.0,0.0
2842,710.25,34.2345,35.998,141.629,99.4806,96.6912,,0.0456916,,-319.362,0.251897,0.0,0.0
2849,712,34.3478,35.8433,143.094,99.4806,96.6175,,0.0457252,,-319.352,0.258653,0.0,0.0
2856,713.75,33.9723,35.6014,141.605,99.469,96.6951,,,,-319.352,0.250511,0.0,0.0
2863,715.5,34.3751,36.137,147.633,99.483,96.7384,,,,-319.352,0.247792,0.0,0.0
2870,717.25,34.3906,35.859,140.791,99.4826,96.7954,,,,-319.362,0.242536,0.0,0.0
2877,719,34.8485,36.2702,144.715,99.4846,97.2288,,,,-319.352,0.203145,0.0,0.0
2884,720.75,34.849,36.1107,144.354,99.4806,96.5579,,,,-319.322,0.264117,0.0,0.0
2885,721,34.7329,35.9229,141.836,99.4934,96.957,,,,-319.322,0.228721,0.0,0.0