File: 01_Data/Mineral_Wool_Insulation/Cone/Mineral_Wool_Insulation_Cone_HF75Scan_220426_R1.csv
Names,Time,Stack TC,Smoke TC,Exh Press,Smoke Comp,Smoke Meas,CO Meter,CO2 Meter,O2 Meter,Sample Mass,Ext Coeff,Start Test,Flame Verif
Chan Gain,,500,500,1,1,1,1,1,1,1,1,1.0,1.0
Offset,,0,0,0.135223,0,0,0,0,0,0,0,0.0,0.0
Gain,,1,1,25.011,13.0939,14.0471,1,1,1,1.00088,1.00971,1.0,1.0
Units,sec,C,C,Pa,%,%,%,%,%,g,/m,,
Baseline,,40.355,42.1338,140.988,98.756,97.0136,0.000783147,0.0477765,21.0066,-834.708,0.157731,,
17,4,39.041,40.303,144.726,98.6758,96.7877,0.0022664,0.0561022,20.9973,-316.489,0.171121,0.0,0.0
34,8.25,38.996,41.2398,138.89,98.6678,96.5429,0.00277278,0.0592099,20.9919,-316.529,0.192832,0.0,0.0
51,12.5,38.9611,40.7417,141.944,98.6439,97.3917,0.00280438,0.0602559,20.9906,-316.599,0.113149,0.0,0.0
68,16.75,39.8049,41.4177,137.461,98.6279,97.4564,0.00253343,0.0602279,20.9894,-316.609,0.105829,0.0,0.0
85,21,40.047,42.1237,137.405,98.6011,96.6235,0.0023517,0.0597974,20.9898,-316.649,0.179449,0.0,0.0
102,25.25,40.612,42.1804,136.795,98.6015,97.3081,0.00257109,0.0578614,20.9912,-316.619,0.116951,0.0,0.0
119,29.5,40.284,42.4765,135.861,98.5783,97.492,0.00251102,0.0566661,20.9925,-316.669,0.0981452,0.0,0.0
136,33.75,40.8339,42.5211,138.663,98.5508,96.9081,0.00215801,0.0556964,20.9906,-316.719,0.148871,0.0,0.0
153,38,40.9795,42.9923,139.381,98.5583,96.798,0.00185348,0.0555261,20.9914,-316.719,0.159629,0.0,0.0
170,42.25,40.8299,42.9798,136.106,98.5272,97.3248,0.00182592,0.0550705,20.9939,-316.709,0.10875,0.0,0.0
187,46.5,41.3334,43.1746,142.152,98.5176,96.7778,0.00189251,0.0547564,20.9958,-316.759,0.157809,0.0,0.0
204,50.75,41.921,43.507,140.715,98.5595,98.183,0.00193117,0.0547931,20.9966,-316.789,0.0338995,0.0,0.0
221,55,41.6406,43.9749,138.314,98.6279,96.6552,0.00194424,0.0546707,20.9968,-316.819,0.178946,0.0,0.0
238,59.25,41.8887,43.741,137.83,98.6766,97.5897,0.00189035,0.0545726,20.9968,-316.829,0.0980982,0.0,0.0
255,63.5,42.0695,44.0864,139.724,98.7609,96.7388,0.00207428,0.0543606,20.9968,-316.839,0.183231,0.0,0.0
272,67.75,42.06,44.1469,139.532,98.8736,96.8816,0.00179484,0.0540436,20.9968,-316.87,0.180271,0.0,0.0
289,72,42.3775,44.1829,140.166,98.9739,97.5876,0.00182939,0.0534883,20.9975,-316.87,0.124938,0.0,0.0
306,76.25,42.2454,44.1952,138.16,99.0662,97.8508,0.00185506,0.0527538,21.0002,-316.88,0.109337,0.0,0.0
323,80.5,42.329,44.1345,140.478,99.1677,97.4521,0.0016065,0.0519858,21.0007,-316.88,0.154567,0.0,0.0
340,84.75,42.5449,44.5136,141.769,99.2129,97.8097,0.00138893,0.0517566,21.0012,-316.91,0.126165,0.0,0.0
357,89,42.2813,44.7511,140.936,99.252,98.0609,0.00142311,0.0511204,21.0028,-316.91,0.106941,0.0,0.0
374,93.25,42.737,44.793,138.011,99.2516,98.5238,0.00149513,0.0510515,21.0046,-316.91,0.0651861,0.0,0.0
391,97.5,43.2199,44.8787,142.029,99.2608,97.4959,0.00135312,0.0511886,21.0055,-316.94,0.158906,0.0,0.0
408,101.75,43.0303,44.9628,135.952,99.2964,97.6725,0.00140885,0.0513104,21.0057,-316.92,0.146048,0.0,0.0
425,106,42.9664,45.2181,140.182,99.314,97.6288,0.00134996,0.05073,21.0057,-316.96,0.151583,0.0,0.0
442,110.25,43.1633,45.2901,140.528,99.3264,97.7659,0.00139237,0.0502076,21.0057,-316.94,0.14025,0.0,0.0
459,114.5,43.8461,45.2799,135.256,99.3396,98.0077,0.00148543,0.0496711,21.0072,-316.97,0.11955,0.0,0.0
476,118.75,43.5302,45.5375,140.627,99.3511,98.1329,0.00153302,0.0493189,21.0071,-316.95,0.109278,0.0,0.0
493,123,43.7307,45.6918,141.079,99.3471,98.5646,0.00145792,0.049025,21.0079,-316.97,0.0700448,0.0,0.0
510,127.25,43.9371,45.978,139.929,99.3451,97.7745,0.00161711,0.0486878,21.0098,-317,0.141149,0.0,0.0
527,131.5,43.5885,45.961,136.701,99.3423,97.6703,0.0017448,0.0483445,21.0102,-316.96,0.15034,0.0,0.0
544,135.75,44.2531,46.1422,140.628,99.3555,97.9991,0.00161887,0.048108,21.0097,-317.01,0.121749,0.0,0.0
561,140,44.2481,46.6711,137.544,99.334,97.8324,0.00132762,0.0480752,21.0109,-317,0.13491,0.0,0.0
578,144.25,44.3262,46.4956,138.322,99.3248,97.7295,0.00144767,0.0479851,21.0134,-317,0.14341,0.0,0.0
595,148.5,44.3368,46.7612,137.331,99.3204,97.9623,0.00141673,0.0477049,21.0139,-317.01,0.121947,0.0,0.0
612,152.75,44.3487,46.0003,138.688,99.3084,97.4577,0.00115852,0.0472502,21.0121,-317.04,0.166615,0.0,0.0
629,157,44.3396,46.6915,138.969,99.2788,98.0956,0.00131105,0.0470613,21.013,-316.96,0.106195,0.0,0.0
646,161.25,44.2689,46.6358,138.076,99.2564,97.4984,0.00135255,0.0469461,21.0136,-317,0.15828,0.0,0.0
663,165.5,44.7421,47.0012,137.11,99.2389,96.9982,0.00121035,0.0466743,21.0134,-317.01,0.202274,0.0,0.0
680,169.75,44.4185,46.7983,138.268,99.2081,96.9686,0.00116307,0.0471163,21.0118,-317.06,0.202229,0.0,0.0
697,174,44.5586,46.8435,141.833,99.1797,97.4706,0.00100507,0.0477644,21.0101,-317.08,0.153963,0.0,0.0
714,178.25,45.0143,46.5997,137.211,99.1513,97.8551,0.00103136,0.0479613,21.0107,-317.06,0.116555,0.0,0.0
731,182.5,44.8788,46.6157,139.892,99.1102,98.6242,0.00113539,0.047919,21.0097,-317.07,0.0435404,0.0,0.0
748,186.75,44.5721,46.9027,137.361,99.0946,98.2336,0.00103812,0.0477905,21.0094,-317.08,0.0772908,0.0,0.0
765,191,44.7835,47.0605,140.544,99.0762,98.078,0.00115186,0.04776,21.0094,-317.1,0.0896883,0.0,0.0
782,195.25,44.9908,46.3715,133.213,99.0247,98.1325,0.00110486,0.0480712,21.0082,-317.1,0.0801645,0.0,0.0
799,199.5,44.7382,47.3001,137.747,98.9879,97.9764,0.00109481,0.0484726,21.0072,-317.09,0.0909696,0.0,0.0
816,203.75,45.1326,47.4622,137.464,98.9663,98.0519,0.000820544,0.0485344,21.0071,-317.1,0.0822213,0.0,0.0
833,208,44.6303,47.2191,136.529,98.9136,97.9717,0.000977112,0.0490164,21.006,-317.11,0.0847431,0.0,0.0
850,212.25,44.8848,47.0341,141.065,98.8976,96.8644,0.000904763,0.0496978,21.0034,-317.05,0.183986,0.0,0.0
867,216.5,44.6721,47.1214,138.892,98.8956,97.0496,0.000824763,0.0502841,21.0026,-317.06,0.16689,0.0,0.0
884,220.75,44.6755,47.3428,139.424,98.896,97.8675,0.000940119,0.0500522,21.0024,-317.06,0.0925914,0.0,0.0
901,225,44.9647,47.6257,138.765,98.9076,97.324,0.00112315,0.0492951,21.0041,-317.06,0.142961,0.0,0.0
918,229.25,44.9955,47.2307,136.558,98.9248,98.0784,0.0010209,0.0484868,21.0066,-317.11,0.0761006,0.0,0.0
935,233.5,44.4298,47.2905,137.077,98.9424,97.3368,0.000897546,0.0480275,21.0095,-317.12,0.144902,0.0,0.0
952,237.75,45.061,47.75,142.49,98.938,97.5066,0.00108157,0.0478831,21.0099,-317.11,0.129075,0.0,0.0
969,242,45.1809,47.4397,140.298,98.9428,98.0244,0.000917672,0.0476479,21.01,-317.12,0.0825895,0.0,0.0
986,246.25,45.5319,47.4076,135.962,98.948,97.886,0.000873662,0.0473489,21.01,-317.12,0.095575,0.0,0.0
1003,250.5,45.3585,47.5281,141.196,98.9404,97.2489,0.000922366,0.0470661,21.01,-317.11,0.152725,0.0,0.0
1020,254.75,45.3939,47.6181,138.258,98.9236,97.558,0.000769264,0.0469907,21.0109,-317.12,0.123116,0.0,0.0
1037,259,45.5318,48.0404,138.525,98.9452,97.4466,0.000539435,0.047122,21.0113,-317.11,0.135173,0.0,0.0
1054,263.25,45.7089,47.5145,137.008,98.9384,97.5379,0.000772895,0.0468558,21.0122,-317.1,0.126269,0.0,0.0
1071,267.5,45.548,47.8031,141.814,98.944,97.7857,0.000540007,0.0463076,21.0143,-317.15,0.104299,0.0,0.0
1088,271.75,45.278,47.44,138.427,98.9623,97.5713,0.00031942,0.0459437,21.015,-317.14,0.125379,0.0,0.0
1105,276,45.2261,47.6376,139.473,98.9615,97.4521,0.000473457,0.045684,21.0151,-317.13,0.136132,0.0,0.0
1122,280.25,45.0113,47.58,138.526,98.9675,97.3154,0.00058414,0.0454574,21.0147,-317.14,0.149106,0.0,0.0
1139,284.5,45.2311,47.7893,139.418,99.0047,97.8825,0.000516306,0.0455791,21.0138,-317.11,0.100962,0.0,0.0
1156,288.75,45.2343,47.9302,136.76,99.0223,97.6643,0.000627726,0.0455415,21.0133,-317.1,0.122302,0.0,0.0
1173,293,45.415,47.8838,144.498,99.0494,97.7514,0.000595308,0.0453197,21.013,-317.13,0.116843,0.0,0.0
1190,297.25,45.6099,48.1629,136.571,99.0914,97.6185,0.000645558,0.0454401,21.0125,-317.16,0.132643,0.0,0.0
1207,301.5,45.6907,48.4527,136.271,99.135,98.141,0.000604174,0.0455891,21.0134,-317.14,0.0892503,0.0,0.0
1224,305.75,45.5082,47.5233,141.064,99.1537,97.4839,0.000488373,0.0456302,21.0143,-317.16,0.150435,0.0,0.0
1241,310,45.5316,47.8045,136.767,99.1889,97.5182,0.000478161,0.0456713,21.0139,-317.16,0.15046,0.0,0.0
1258,314.25,45.46,47.9154,136.875,99.2349,97.6069,0.000616995,0.0459728,21.0125,-317.16,0.146506,0.0,0.0
1275,318.5,45.5064,47.7185,135.433,99.2608,97.8654,0.000691505,0.0462881,21.0123,-317.15,0.1254,0.0,0.0
1292,322.75,45.2358,47.8295,139.302,99.2904,98.0673,0.000606825,0.0465315,21.0121,-317.16,0.109784,0.0,0.0
1309,327,45.4532,47.8553,138.916,99.3439,97.6549,0.000741171,0.0466525,21.012,-317.17,0.151883,0.0,0.0
1326,331.25,46.028,47.9179,135.734,99.3695,98.3687,0.000871857,0.0468411,21.0101,-317.17,0.0896611,0.0,0.0
1343,335.5,45.7712,47.7193,138.053,99.3955,98.0772,0.0006132,0.0466654,21.0121,-317.16,0.118262,0.0,0.0
1360,339.75,45.7606,47.6568,136.935,99.443,97.2862,0.000573356,0.0466258,21.0111,-317.17,0.194214,0.0,0.0
1377,344,45.8119,47.7288,138.304,99.4914,98.6957,0.000721701,0.0470814,21.0106,-317.17,0.0711164,0.0,0.0
1394,348.25,45.7469,47.9781,137.329,99.495,97.6022,0.000697517,0.0471837,21.0108,-317.17,0.170123,0.0,0.0
1411,352.5,45.6813,47.5701,137.229,99.5378,98.0866,0.000459327,0.0470534,21.0108,-317.17,0.130078,0.0,0.0
1428,356.75,45.6881,47.8126,136.234,99.6013,98.6066,0.000685561,0.0469626,21.0124,-317.16,0.0888991,0.0,0.0
1445,361,45.8949,48.0655,137.257,99.652,98.2413,0.000622638,0.0467768,21.0124,-317.18,0.126279,0.0,0.0
1462,365.25,45.574,47.85,134.281,99.6932,97.6292,0.000699851,0.0466882,21.011,-317.16,0.185298,0.0,0.0
1479,369.5,45.871,47.8353,139.687,99.7359,98.4085,0.000506349,0.046498,21.0121,-317.19,0.118673,0.0,0.0
1496,373.75,45.7331,47.5686,141.854,99.7591,99.0203,0.000243758,0.0464598,21.014,-317.16,0.0658432,0.0,0.0
1513,378,45.3141,47.8603,137.108,99.7683,98.4613,0.000154056,0.0465686,21.0143,-317.16,0.116803,0.0,0.0
1530,382.25,45.5269,47.5422,138.695,99.7855,98.2538,0.000153737,0.0465833,21.0129,-317.17,0.137012,0.0,0.0
1547,386.5,45.6191,47.9306,136.141,99.7811,98.4501,0.000507681,0.0465539,21.0122,-317.17,0.118941,0.0,0.0
1564,390.75,45.9694,47.7392,140.9,99.726,98.1946,0.000905755,0.0469475,21.0123,-317.18,0.13706,0.0,0.0
1581,395,45.5107,47.8387,135.732,99.6852,98.7682,0.000912678,0.04745,21.0107,-317.17,0.0818541,0.0,0.0
1598,399.25,45.6868,47.927,138.85,99.6253,98.2431,0.00101927,0.0474757,21.0099,-317.19,0.123744,0.0,0.0
1615,403.5,45.9314,48.3152,139.888,99.5773,98.4201,0.000981144,0.0476076,21.0096,-317.16,0.103533,0.0,0.0
1632,407.75,46.0209,48.068,138.55,99.5278,98.012,0.000889477,0.0476004,21.0095,-317.17,0.135927,0.0,0.0
1649,412,45.6461,48.18,140.498,99.4862,97.7171,0.000885241,0.047748,21.0085,-317.18,0.158921,0.0,0.0
1666,416.25,45.8867,48.0497,134.373,99.4239,98.2872,0.00069864,0.0476841,21.0095,-317.17,0.101841,0.0,0.0
1683,420.5,45.7824,47.9172,138.965,99.3503,97.498,0.000731135,0.0477164,21.009,-317.15,0.166694,0.0,0.0
1700,424.75,46.2088,47.8301,138.412,99.28,98.0129,0.000584019,0.0474033,21.0097,-317.17,0.113775,0.0,0.0
1717,429,46.1163,48.3455,138.248,99.2137,97.4611,0.000268626,0.0469111,21.0102,-317.16,0.157852,0.0,0.0
1734,433.25,45.4496,48.2433,137.677,99.1613,97.9293,0.00036467,0.046476,21.0127,-317.15,0.110738,0.0,0.0
1751,437.5,46.1867,48.2187,138.708,99.105,97.8169,0.000425861,0.0462295,21.014,-317.17,0.115868,0.0,0.0
1768,441.75,46.4711,48.5147,141.696,99.0479,97.9584,0.000757959,0.0458983,21.0145,-317.11,0.0979593,0.0,0.0
1785,446,46.3155,48.749,137.241,98.9951,97.9507,0.000825196,0.0454887,21.0164,-317.11,0.0939392,0.0,0.0
1802,450.25,46.2776,48.7452,138.243,98.9244,97.7239,0.00088447,0.0450812,21.0169,-317.14,0.108139,0.0,0.0
1819,454.5,45.8408,48.1819,135.749,98.864,97.4328,0.000801538,0.0449258,21.017,-317.19,0.129155,0.0,0.0
1836,458.75,46.4288,48.5493,139.547,98.7945,96.8631,0.000511755,0.0452031,21.017,-317.22,0.174865,0.0,0.0
1853,463,46.1613,48.5845,135.075,98.7438,97.2845,0.000600396,0.0453878,21.017,-317.18,0.131866,0.0,0.0
1870,467.25,45.958,48.2839,134.566,98.6958,97.2408,0.000338546,0.0456205,21.0155,-317.2,0.131546,0.0,0.0
1887,471.5,46.3198,48.4524,137.442,98.6526,96.6582,0.000277823,0.0457659,21.0154,-317.2,0.180895,0.0,0.0
1904,475.75,46.3046,47.9822,137.788,98.6003,97.0492,0.000512521,0.045829,21.0174,-317.18,0.140442,0.0,0.0
1921,480,45.9644,48.6769,133.949,98.5675,96.9737,0.000594201,0.0457047,21.0175,-317.2,0.144386,0.0,0.0
1938,484.25,46.1169,48.6217,135.921,98.4916,96.6389,0.000538332,0.0457714,21.0161,-317.18,0.168194,0.0,0.0
1955,488.5,45.1618,48.641,139.892,98.4145,96.9626,0.000596629,0.0456902,21.0154,-317.2,0.131642,0.0,0.0
1972,492.75,46.6435,48.7256,135.997,98.3586,97.0826,0.00058933,0.0456743,21.0149,-317.21,0.115649,0.0,0.0
1989,497,46.2809,48.378,140.433,98.273,97.4311,0.000530497,0.0457108,21.0145,-317.21,0.0762042,0.0,0.0
2006,501.25,46.3815,48.554,137.799,98.2083,97.2108,0.000599386,0.0462189,21.0135,-317.19,0.090422,0.0,0.0
2023,505.5,46.5875,48.5879,138.863,98.1504,96.9789,0.000549695,0.0465084,21.012,-317.19,0.106351,0.0,0.0
2040,509.75,46.6217,48.5433,139.424,98.12,97.0243,0.000440015,0.0467637,21.0112,-317.2,0.0994608,0.0,0.0
2057,514,46.1686,48.2689,138.437,98.0784,96.8717,0.000643972,0.0467789,21.0104,-317.2,0.10965,0.0,0.0
2074,518.25,46.3344,49.1648,142.756,98.0525,96.2368,0.000798279,0.0472705,21.009,-317.17,0.165544,0.0,0.0
2091,522.5,46.1316,48.3593,137.238,98.0589,96.5163,0.000776463,0.0478208,21.0069,-317.19,0.140435,0.0,0.0
2108,526.75,46.1368,47.9866,137.381,98.0485,96.1901,0.000482118,0.0482668,21.0064,-317.19,0.169485,0.0,0.0
2125,531,46.3215,48.4986,135.417,98.0513,96.3136,0.000169136,0.0483509,21.0099,-317.19,0.158377,0.0,0.0
2142,535.25,46.7448,48.3717,137.729,98.0724,96.0126,0.000500814,0.0481665,21.0103,-317.19,0.188007,0.0,0.0
2159,539.5,46.142,48.3045,139.428,98.0636,96.0156,0.000728662,0.0483354,21.0092,-317.19,0.186936,0.0,0.0
2176,543.75,45.9154,48.2311,144.454,98.0756,96.3967,0.000667404,0.0487879,21.0086,-317.18,0.152933,0.0,0.0
2193,548,45.5102,48.2921,138.238,98.0908,97.3501,0.000411759,0.0490236,21.007,-317.18,0.0671354,0.0,0.0
2210,552.25,46.2624,48.2706,133.528,98.1232,97.3968,0.000186158,0.0487571,21.0081,-317.18,0.0658076,0.0,0.0
2227,556.5,46.0193,48.8562,139.532,98.1552,96.5129,0.000446982,0.0484205,21.0099,-317.18,0.149444,0.0,0.0
2244,560.75,46.3088,47.9138,140.157,98.1979,96.6814,0.00049484,0.0478633,21.0105,-317.18,0.137854,0.0,0.0
2261,565,46.2929,48.7338,139.386,98.2387,96.9639,0.000425705,0.0472171,21.0117,-317.17,0.115687,0.0,0.0
2278,569.25,46.3376,48.5992,138.241,98.2403,96.6132,0.000579642,0.046299,21.013,-317.14,0.147919,0.0,0.0
2295,573.5,46.1847,49.3682,137.283,98.2559,97.7029,0.000820364,0.0457662,21.0146,-317.15,0.0499839,0.0,0.0
2312,577.75,46.6332,48.8632,135.981,98.3126,96.7024,0.000846735,0.0452234,21.0147,-317.16,0.146267,0.0,0.0
2329,582,46.3396,48.5094,141.22,98.3258,96.6771,0.00079942,0.0447998,21.0158,-317.17,0.149773,0.0,0.0
2346,586.25,46.4722,48.8996,138.439,98.3601,97.5293,0.000830684,0.0446803,21.0159,-317.18,0.0751333,0.0,0.0
2363,590.5,46.5475,48.8773,136.274,98.4121,97.2729,0.000523635,0.0445675,21.0159,-317.15,0.103121,0.0,0.0
2380,594.75,46.585,48.7604,135.438,98.4361,97.898,0.000219719,0.0446429,21.0159,-317.17,0.0485497,0.0,0.0
2397,599,46.7445,48.6928,138.37,98.4576,97.2588,0.000286767,0.0444011,21.0164,-317.17,0.108508,0.0,0.0
2414,603.25,46.7926,48.483,137.359,98.502,97.4693,0.000219972,0.0444045,21.016,-317.16,0.09335,0.0,0.0
2431,607.5,46.8274,48.8142,135.959,98.5336,97.2532,0.000370561,0.0446775,21.016,-317.16,0.115843,0.0,0.0
2448,611.75,46.8771,48.8652,142.568,98.5731,96.7272,0.000587467,0.0450848,21.016,-317.14,0.167432,0.0,0.0
2465,616,46.7815,48.7148,137.893,98.6119,97.7166,0.000759562,0.0451172,21.016,-317.13,0.0807765,0.0,0.0
2482,620.25,47.0226,49.3615,136.169,98.7014,96.7448,0.000789847,0.0449237,21.0162,-317.17,0.17734,0.0,0.0
2499,624.5,46.487,48.735,135.481,98.7514,98.1265,0.000694516,0.0445483,21.016,-317.17,0.0562255,0.0,0.0
2516,628.75,46.6579,48.6892,137.801,98.8085,97.7128,0.000513116,0.0444704,21.0168,-317.16,0.0987675,0.0,0.0
2533,633,46.7628,48.6947,138.605,98.868,98.0862,0.000393419,0.0444825,21.0154,-317.15,0.0703224,0.0,0.0
2550,637.25,47.0381,48.8437,138.096,98.904,97.0878,0.000380993,0.0444533,21.0147,-317.16,0.16416,0.0,0.0
2567,641.5,46.6981,48.6168,139.997,98.9388,97.5169,0.000495452,0.0446467,21.0159,-317.14,0.128212,0.0,0.0
2584,645.75,46.7656,48.6117,135.6,98.9891,97.7694,0.000642909,0.0451178,21.0153,-317.2,0.109815,0.0,0.0
2601,650,46.6154,48.3506,135.349,99.0003,97.8187,0.000572769,0.0457481,21.0143,-317.15,0.106351,0.0,0.0
2618,654.25,46.2625,48.7879,136.32,99.0199,97.8967,0.000499613,0.0458925,21.0143,-317.16,0.10104,0.0,0.0
2635,658.5,46.7727,48.832,136.856,99.0522,97.7243,0.00063467,0.0458801,21.0137,-317.15,0.119541,0.0,0.0
2652,662.75,46.8437,48.3443,134.594,99.073,97.582,0.000614405,0.045699,21.0135,-317.16,0.134306,0.0,0.0
2669,667,46.7174,48.7978,137.688,99.0718,97.4959,0.000629967,0.045516,21.0156,-317.18,0.142024,0.0,0.0
2686,671.25,46.701,48.9427,135.288,99.0826,97.2164,0.000577701,0.045614,21.0154,-317.17,0.168417,0.0,0.0
2703,675.5,47.0818,49.1318,140.104,99.133,97.6553,0.000620825,0.0456004,21.0166,-317.16,0.133014,0.0,0.0
2720,679.75,46.8204,48.739,137.037,99.1446,97.8834,0.000815131,0.0457237,21.0156,-317.17,0.113389,0.0,0.0
2737,684,46.6485,49.0266,138.604,99.1693,98.2362,0.000711309,0.0463396,21.0137,-317.17,0.0837349,0.0,0.0
2754,688.25,46.8423,48.9491,137.922,99.2113,97.6622,0.000504701,0.0469446,21.0128,-317.14,0.139386,0.0,0.0
2771,692.5,46.7668,48.7551,137.562,99.1993,97.9443,0.000379088,0.0472055,21.0102,-317.17,0.112771,0.0,0.0
2788,696.75,46.7312,48.8293,134.327,99.2093,97.8564,0.000255973,0.0474523,21.0095,-317.14,0.121613,0.0,0.0
2805,701,46.7072,49.1236,141.035,99.2341,97.7912,0.000254859,0.0472092,21.0094,-317.17,0.129724,0.0,0.0
2822,705.25,47.0439,48.8748,134.207,99.2405,97.862,0.000312814,0.0470765,21.0093,-317.18,0.123891,0.0,0.0
2839,709.5,46.9972,49.1393,136.148,99.2512,98.5663,0.000629514,0.0475714,21.0076,-317.16,0.0613366,0.0,0.0
2856,713.75,47.0587,48.7726,137.796,99.2652,98.0836,0.000653099,0.0472468,21.0103,-317.21,0.106066,0.0,0.0
2873,718,46.5236,48.991,133.798,99.2804,98.1582,0.000509086,0.0467035,21.0117,-317.2,0.100688,0.0,0.0
2890,722.25,46.8486,49.1183,133.14,99.2848,97.4547,0.000540523,0.0462235,21.0129,-317.19,0.164784,0.0,0.0
2907,726.5,46.6729,49.0748,135.627,99.2948,97.5087,0.000914309,0.0463674,21.0141,-317.19,0.160768,0.0,0.0
2924,730.75,46.9546,49.0582,134.015,99.3144,97.9258,0.00075594,0.0468083,21.0114,-317.19,0.124708,0.0,0.0
2941,735,46.8506,48.9365,134.813,99.2808,99.1892,0.000539683,0.0474608,21.01,-317.2,0.00818009,0.0,0.0
2958,739.25,47.0098,50.4429,139.674,99.2732,98.1839,0.000586484,0.0477401,21.0102,-317.2,0.0977254,0.0,0.0
2975,743.5,47.0814,49.5225,136.932,99.282,98.4608,0.000654748,0.0479863,21.0104,-317.2,0.0735638,0.0,0.0
2992,747.75,47.3305,49.3866,136.968,99.2608,97.8105,0.00056088,0.0480305,21.011,-317.2,0.130367,0.0,0.0
3009,752,47.5549,48.9038,137.444,99.2504,97.2837,0.000811573,0.0481922,21.0111,-317.21,0.177277,0.0,0.0
3026,756.25,47.2627,49.2208,138.27,99.2468,97.6125,0.000911931,0.04862,21.0088,-317.19,0.147072,0.0,0.0
3043,760.5,47.1164,49.1012,139.814,99.2237,97.5675,0.000913244,0.0482755,21.0086,-317.19,0.149089,0.0,0.0
3060,764.75,46.8242,49.1075,139.107,99.2133,97.9828,0.000608128,0.0476544,21.0109,-317.21,0.110531,0.0,0.0
3077,769,46.9926,49.148,137.786,99.2101,98.8968,0.000355891,0.0473403,21.0107,-317.19,0.0280127,0.0,0.0
3094,773.25,47.1777,49.3506,140.665,99.1893,98.138,0.000572381,0.0474393,21.01,-317.2,0.0943748,0.0,0.0
3111,777.5,46.7162,49.6259,135.404,99.1637,97.0672,0.000718028,0.0481118,21.0093,-317.2,0.189267,0.0,0.0
3128,781.75,46.9175,49.3235,138.515,99.1569,97.5876,0.000984636,0.0485096,21.009,-317.2,0.141301,0.0,0.0
3145,786,47.2981,48.9865,137.909,99.131,97.8753,0.000590777,0.0483859,21.0085,-317.2,0.112912,0.0,0.0
3162,790.25,46.8285,49.1294,135.046,99.1018,97.8838,0.000395006,0.0484889,21.0083,-317.2,0.109529,0.0,0.0
3179,794.5,46.8201,49.1181,136.277,99.0714,98.5594,0.000349615,0.048743,21.0083,-317.21,0.0458926,0.0,0.0
3196,798.75,47.4344,49.001,138.562,99.0658,97.456,0.0007417,0.0492899,21.0083,-317.23,0.145111,0.0,0.0
3213,803,47.486,49.3223,141.897,99.0339,97.7685,0.000849012,0.0494664,21.0083,-317.22,0.113896,0.0,0.0
3230,807.25,47.7283,49.548,142.048,99.0059,97.7462,0.000711821,0.0496369,21.0068,-317.21,0.113414,0.0,0.0
3247,811.5,47.6669,49.4409,138.716,98.9959,98.4698,0.000472044,0.0490891,21.0053,-317.2,0.0471929,0.0,0.0
3264,815.75,47.1782,49.5807,138.693,98.9775,97.8285,0.000283477,0.0488356,21.005,-317.19,0.103421,0.0,0.0
3281,820,46.9492,49.6706,139.653,98.944,97.6189,0.000248641,0.0486648,21.005,-317.19,0.119415,0.0,0.0
3298,824.25,47.7363,48.7368,137.012,98.9304,97.7556,0.000483301,0.0484204,21.0062,-317.21,0.1058,0.0,0.0
3315,828.5,47.0354,48.9731,135.326,98.888,97.7432,0.000323561,0.0476734,21.0087,-317.24,0.103133,0.0,0.0
3332,832.75,47.2855,49.7457,139.031,98.8453,97.925,0.00046445,0.0470989,21.0127,-317.19,0.0828479,0.0,0.0
3349,837,47.5278,49.4025,138.826,98.8105,98.0716,0.000510291,0.0466648,21.0135,-317.18,0.0664825,0.0,0.0
3366,841.25,47.1552,49.0304,140.615,98.7897,97.5975,0.000545726,0.046209,21.0129,-317.18,0.107542,0.0,0.0
3383,845.5,47.0911,49.7786,141.223,98.7497,98.192,0.00054049,0.045834,21.0128,-317.18,0.0501635,0.0,0.0
3400,849.75,47.8545,49.5541,138.268,98.7262,97.6485,0.000376033,0.0455815,21.0141,-317.2,0.0972158,0.0,0.0
3417,854,47.2802,49.7195,140.695,98.7206,97.7608,0.000549779,0.0453513,21.0154,-317.19,0.0865323,0.0,0.0
3434,858.25,47.7762,49.4818,136.919,98.7038,97.8307,0.000614183,0.0452377,21.0159,-317.2,0.0786984,0.0,0.0
3451,862.5,47.6988,49.4163,138.151,98.6878,97.6283,0.000676403,0.0449242,21.0153,-317.19,0.0956012,0.0,0.0
3468,866.75,47.6398,49.9174,137.012,98.6986,97.5584,0.000568664,0.0447254,21.0139,-317.16,0.102911,0.0,0.0
3485,871,47.4269,49.5654,139.698,98.6866,97.471,0.0004157,0.0445064,21.0137,-317.16,0.109778,0.0,0.0
3502,875.25,47.5076,49.7156,136.027,98.6986,97.1718,0.000308727,0.0445693,21.0137,-317.19,0.138085,0.0,0.0
3519,879.5,47.4671,49.2457,138.612,98.6806,97.7947,0.000391804,0.0445572,21.015,-317.19,0.0798788,0.0,0.0
3536,883.75,47.4196,49.613,137.316,98.6718,97.51,0.000294337,0.0445162,21.0163,-317.21,0.104907,0.0,0.0
3553,888,47.2146,49.4483,136.187,98.6622,97.7261,0.000495056,0.0444829,21.0166,-317.2,0.0844429,0.0,0.0
3570,892.25,47.6452,49.3834,134.537,98.6634,98.1423,0.000622486,0.0446159,21.0166,-317.16,0.0469051,0.0,0.0
3587,896.5,47.5238,49.6578,138.12,98.6578,97.1752,0.000622181,0.0448634,21.0151,-317.19,0.134115,0.0,0.0
3604,900.75,47.5657,49.2967,136.945,98.6419,97.4436,0.000773695,0.0449842,21.0147,-317.19,0.108254,0.0,0.0
3621,905,47.3533,48.9983,136.781,98.6291,97.5932,0.000775156,0.0455235,21.0135,-317.2,0.0935171,0.0,0.0
3638,909.25,47.8209,49.162,141.771,98.6403,97.7312,0.00069949,0.0460087,21.0118,-317.21,0.0820037,0.0,0.0
3655,913.5,47.5796,49.9976,138.178,98.6191,97.4731,0.000831445,0.0463337,21.0111,-317.22,0.103521,0.0,0.0
3672,917.75,47.6079,49.518,137.247,98.6111,97.4967,0.000658266,0.0461412,21.011,-317.19,0.10066,0.0,0.0
3689,922,47.7238,49.7317,136.532,98.6095,97.7869,0.000611116,0.0465762,21.0113,-317.21,0.0741921,0.0,0.0
3706,926.25,47.4389,50.2214,138.438,98.6303,96.897,0.000483476,0.0470512,21.0116,-317.22,0.157034,0.0,0.0
3723,930.5,47.6328,49.9382,135.409,98.6586,97.6648,0.000399729,0.0470531,21.0116,-317.19,0.0896778,0.0,0.0
3740,934.75,47.802,49.7476,138.812,98.7182,97.3278,0.000700497,0.0468981,21.0116,-317.21,0.125632,0.0,0.0
3757,939,47.9165,49.8279,136.518,98.7202,98.156,0.000645566,0.0470962,21.0116,-317.2,0.0507598,0.0,0.0
3774,943.25,47.6149,49.879,135.869,98.7418,97.8152,0.00048168,0.0470895,21.0115,-317.22,0.0835016,0.0,0.0
3791,947.5,47.6894,49.5492,137.952,98.7693,97.0882,0.000480393,0.0468298,21.0105,-317.2,0.152053,0.0,0.0
3808,951.75,47.2833,49.7597,137.918,98.7961,97.8169,0.000436256,0.0465862,21.0103,-317.21,0.0882197,0.0,0.0
3825,956,47.6508,49.6396,137.586,98.7881,97.6125,0.000451578,0.0467005,21.0103,-317.2,0.106037,0.0,0.0
3842,960.25,47.4017,50.0276,137.613,98.8121,97.4959,0.000674931,0.0465938,21.0103,-317.19,0.118774,0.0,0.0
3859,964.5,47.8106,50.0567,136.267,98.8153,97.8692,0.000805673,0.0461611,21.0116,-317.13,0.0852043,0.0,0.0
3876,968.75,47.2016,49.4914,140.047,98.8137,97.8079,0.000614211,0.0460426,21.0115,-317.16,0.0906112,0.0,0.0
3893,973,47.7463,49.8888,135.9,98.8249,97.7003,0.000693795,0.0457429,21.011,-317.15,0.101363,0.0,0.0
3910,977.25,47.4131,49.6153,140.112,98.8612,97.9498,0.00061972,0.0455164,21.0116,-317.16,0.082032,0.0,0.0
3927,981.5,47.3138,49.4644,139.5,98.8856,97.4393,0.000438259,0.0454659,21.0111,-317.18,0.130504,0.0,0.0
3944,985.75,47.436,49.194,138.627,98.9072,97.8821,0.000284388,0.0455858,21.011,-317.19,0.0922738,0.0,0.0
3961,990,47.7494,49.8431,139.479,98.9475,97.6206,0.000242184,0.0457877,21.011,-317.2,0.119581,0.0,0.0
3978,994.25,47.7114,49.5564,144.943,98.9831,97.2322,0.000486747,0.0463899,21.0115,-317.2,0.158073,0.0,0.0
3995,998.5,47.3513,49.6218,135.981,99.0283,97.4389,0.000823185,0.0473398,21.0097,-317.22,0.14331,0.0,0.0
4012,1002.75,47.9293,49.6186,139.002,99.085,97.2952,0.000746978,0.0480944,21.0094,-317.21,0.161448,0.0,0.0
4029,1007,47.6168,49.7817,136.432,99.1493,97.7196,0.000909541,0.0484592,21.0074,-317.2,0.128647,0.0,0.0
4046,1011.25,47.8728,49.6628,137.108,99.2093,97.3424,0.000805663,0.048669,21.0066,-317.21,0.168257,0.0,0.0
4063,1015.5,47.9654,48.911,140.979,99.2572,97.432,0.000714355,0.04858,21.0065,-317.23,0.164389,0.0,0.0
4080,1019.75,47.7601,49.3724,136.293,99.3092,97.9563,0.000506048,0.0487357,21.0063,-317.21,0.121491,0.0,0.0
4097,1024,47.5517,49.7613,140.863,99.3475,98.1856,0.000321848,0.0483912,21.0069,-317.21,0.1042,0.0,0.0
4114,1028.25,47.8347,49.262,137.255,99.3416,97.5177,0.000437129,0.0479171,21.0083,-317.2,0.16412,0.0,0.0
4131,1032.5,47.359,49.3689,136.474,99.3683,98.0004,0.000626351,0.0473098,21.0095,-317.19,0.122773,0.0,0.0
4148,1036.75,47.6735,49.193,136.532,99.3835,98.3455,0.000754452,0.0467897,21.0107,-317.18,0.0929926,0.0,0.0
4165,1041,47.5229,49.5001,133.275,99.3947,97.8182,0.000716765,0.0465359,21.0109,-317.18,0.141605,0.0,0.0
4182,1045.25,47.5394,49.6264,141.916,99.4063,97.9378,0.00045321,0.0462873,21.0111,-317.18,0.131814,0.0,0.0
4199,1049.5,47.2842,49.429,137.385,99.4087,98.3489,0.000310868,0.0460331,21.0122,-317.19,0.0949274,0.0,0.0
4216,1053.75,47.3709,49.6059,139.527,99.4323,97.2609,0.000378887,0.0456979,21.014,-317.18,0.195556,0.0,0.0
4233,1058,47.4298,49.5759,143.413,99.4231,97.642,0.000427261,0.0450638,21.0153,-317.19,0.1601,0.0,0.0
4250,1062.25,47.409,49.5241,134.12,99.4123,98.628,0.000313972,0.0446968,21.0164,-317.19,0.0701506,0.0,0.0
4267,1066.5,47.4997,49.6042,138.746,99.3971,97.8444,0.000305113,0.044287,21.0168,-317.17,0.139451,0.0,0.0
4284,1070.75,47.5346,49.6836,138.334,99.3907,98.3425,0.000453869,0.0443517,21.0169,-317.17,0.0939037,0.0,0.0
4301,1075,47.586,49.825,137.77,99.4123,97.9005,0.000407919,0.0443615,21.0169,-317.16,0.135722,0.0,0.0
4318,1079.25,47.8707,49.655,135.644,99.3687,97.7839,0.000553368,0.0440077,21.0189,-317.18,0.142396,0.0,0.0
4335,1083.5,47.5914,49.3937,136.239,99.3619,98.4411,0.000726478,0.0439873,21.0192,-317.18,0.082464,0.0,0.0
4352,1087.75,47.4366,49.8848,142.35,99.3475,98.1226,0.000738581,0.0439119,21.0192,-317.18,0.109886,0.0,0.0
4369,1092,47.5031,49.9941,137.264,99.3072,97.9323,0.000688767,0.0441132,21.0192,-317.2,0.123484,0.0,0.0
4386,1096.25,48.3211,49.8842,136.311,99.276,98.2705,0.000608863,0.0443265,21.0173,-317.21,0.090167,0.0,0.0
4403,1100.5,47.9769,49.6617,135.981,99.2532,97.8654,0.000633633,0.0444788,21.017,-317.21,0.124722,0.0,0.0
4420,1104.75,47.3899,49.5553,140.347,99.2225,98.051,0.000237735,0.0446634,21.0169,-317.22,0.105193,0.0,0.0
4437,1109,48.0184,50.0619,135.424,99.1781,97.6039,5.6633e-05,0.0450819,21.0158,-317.22,0.141714,0.0,0.0
4454,1113.25,47.9847,50.1255,138.957,99.1426,97.3711,0.000296599,0.0452047,21.0153,-317.21,0.159686,0.0,0.0
4471,1117.5,47.5431,50.0235,139.971,99.1158,97.9717,0.000619975,0.0453687,21.0142,-317.21,0.10283,0.0,0.0
4488,1121.75,47.6141,49.7674,140.443,99.0698,97.7651,0.000660257,0.0453319,21.0142,-317.23,0.117422,0.0,0.0
4505,1126,47.7246,50.0391,135.68,99.0319,97.1812,0.000486444,0.0449807,21.0157,-317.2,0.167082,0.0,0.0
4522,1130.25,47.9242,49.6757,135.342,98.9987,97.9143,0.000449199,0.0449504,21.0173,-317.22,0.0975563,0.0,0.0
4539,1134.5,48.0426,49.5066,138.3,98.9867,98.1882,0.000485136,0.0448905,21.0187,-317.2,0.0717396,0.0,0.0
4556,1138.75,48.0563,49.9114,136.113,99.0003,98.6533,0.000477826,0.044654,21.0184,-317.21,0.0310981,0.0,0.0
4573,1143,47.7581,49.9954,139.144,99.0323,97.9451,0.000493865,0.0446276,21.0184,-317.23,0.0977672,0.0,0.0
4590,1147.25,47.6656,50.1728,140.508,99.0574,98.0317,0.000675233,0.0446719,21.0184,-317.23,0.0921923,0.0,0.0
4607,1151.5,47.9734,49.6523,136.861,99.0898,97.3913,0.000725442,0.0446129,21.0184,-317.21,0.153139,0.0,0.0
4624,1155.75,47.8928,49.9892,141.825,99.1282,98.2992,0.000569967,0.0445509,21.0183,-317.19,0.0743774,0.0,0.0
4641,1160,48.2721,49.7582,137.608,99.1565,98.1055,0.000453956,0.0445461,21.0182,-317.21,0.0943884,0.0,0.0
4658,1164.25,47.8255,49.8926,136.472,99.1781,97.4226,0.000649179,0.0444079,21.0182,-317.22,0.158184,0.0,0.0
4675,1168.5,47.8844,49.7871,142.285,99.2253,97.0976,0.000689386,0.0445093,21.0189,-317.19,0.191985,0.0,0.0
4692,1172.75,48.1163,49.6914,136.922,99.2668,97.9837,0.000558611,0.0450449,21.0176,-317.21,0.115233,0.0,0.0
4709,1177,47.5687,49.4956,134.409,99.2968,97.8187,0.000496879,0.0455524,21.0172,-317.19,0.132838,0.0,0.0
4726,1181.25,47.3801,49.8743,134.725,99.3463,97.5936,0.000387644,0.0456837,21.0149,-317.21,0.157658,0.0,0.0
4743,1185.5,47.5025,49.7699,136.93,99.4151,98.4167,0.000337989,0.0457249,21.0145,-317.17,0.0893988,0.0,0.0
4760,1189.75,47.4261,49.5797,135.1,99.451,98.0617,0.000515518,0.045545,21.0144,-317.2,0.124605,0.0,0.0
4777,1194,47.473,49.6147,141.919,99.5126,98.7228,0.000506549,0.0457492,21.016,-317.18,0.070578,0.0,0.0
4794,1198.25,47.5582,49.8507,139.024,99.5725,98.5882,0.000527404,0.0459671,21.0147,-317.2,0.0879959,0.0,0.0
4811,1202.5,47.7871,49.5952,136.756,99.6385,98.2568,0.000539253,0.045999,21.0143,-317.17,0.12368,0.0,0.0
4828,1206.75,47.1392,49.5835,137.197,99.6776,98.3935,0.000427845,0.0455914,21.0143,-317.16,0.114842,0.0,0.0
4845,1211,48.0872,49.959,137.948,99.73,98.406,0.000247192,0.0452948,21.0143,-317.17,0.118372,0.0,0.0
4862,1215.25,47.9625,49.3616,134.926,99.7535,98.1449,0.000297869,0.0450734,21.0162,-317.18,0.143995,0.0,0.0
4879,1219.5,47.5705,49.327,133.469,99.7775,98.6859,0.00047308,0.0451975,21.0165,-317.19,0.0974351,0.0,0.0
4896,1223.75,47.6913,49.6861,138.355,99.8015,97.8864,0.000466079,0.0454533,21.0162,-317.15,0.17161,0.0,0.0
4913,1228,47.6579,49.7549,137.997,99.8299,98.6092,0.000655167,0.0453581,21.0143,-317.21,0.10897,0.0,0.0
4930,1232.25,47.4516,49.9458,137.896,99.8339,98.8762,0.00058121,0.0450554,21.0156,-317.17,0.0853695,0.0,0.0
4947,1236.5,47.9106,49.8696,135.444,99.8394,98.6409,0.000558383,0.0449063,21.0159,-317.16,0.106973,0.0,0.0
4964,1240.75,47.6908,49.8086,138.446,99.8662,98.6988,0.000558159,0.0447575,21.0159,-317.16,0.104152,0.0,0.0
4981,1245,47.6831,49.8808,137.274,99.8642,98.5123,0.000544025,0.0444198,21.016,-317.17,0.120725,0.0,0.0
4998,1249.25,47.5966,49.981,137.857,99.867,99.3049,0.000363794,0.0443923,21.017,-317.19,0.0499934,0.0,0.0
5015,1253.5,47.6551,49.8084,136.486,99.8746,98.8415,0.000549372,0.0442227,21.0172,-317.2,0.0920951,0.0,0.0
5032,1257.75,47.7984,49.7011,134.526,99.8758,98.7163,0.000575173,0.0441863,21.019,-317.16,0.103425,0.0,0.0
5049,1262,47.4568,50.1153,137.057,99.8638,99.0691,0.000537265,0.0439494,21.0195,-317.15,0.0707645,0.0,0.0
5066,1266.25,47.5466,49.8362,139.917,99.8834,98.9641,0.0007578,0.0437677,21.0195,-317.17,0.0818949,0.0,0.0
5083,1270.5,47.7655,49.7424,137.808,99.8702,98.49,0.000553079,0.0438902,21.0206,-317.18,0.123261,0.0,0.0
5100,1274.75,47.4641,49.705,137.034,99.851,98.5984,0.000606763,0.0439109,21.0208,-317.19,0.111812,0.0,0.0
5117,1279,47.6316,49.9538,138.693,99.8522,98.1097,0.000642201,0.0440625,21.0194,-317.18,0.155927,0.0,0.0
5134,1283.25,48.2825,50.09,137.291,99.8374,98.6782,0.000546395,0.0445843,21.0193,-317.19,0.103446,0.0,0.0
5151,1287.5,47.9687,49.8238,136.669,99.8179,98.7511,0.000530096,0.0450921,21.019,-317.17,0.0951698,0.0,0.0
5168,1291.75,47.964,50.1286,138.305,99.7647,98.604,0.000740288,0.0450646,21.0175,-317.21,0.103652,0.0,0.0
5185,1296,47.8799,50.1438,138.031,99.7403,98.4557,0.00062811,0.0452025,21.0167,-317.24,0.11482,0.0,0.0
5202,1300.25,47.8728,49.9531,137.125,99.6904,98.4891,0.000510267,0.0455857,21.0155,-317.19,0.107376,0.0,0.0
5219,1304.5,48.1122,49.9909,137.383,99.6368,98.7365,0.000454584,0.0456394,21.015,-317.2,0.080402,0.0,0.0
5236,1308.75,48.5513,49.8891,138.392,99.6117,98.0617,0.000519877,0.0455699,21.0151,-317.19,0.138899,0.0,0.0
5253,1313,47.9831,50.1624,136.244,99.5753,98.2714,0.000471503,0.045568,21.0154,-317.2,0.116751,0.0,0.0
5270,1317.25,47.9946,50.3578,137.335,99.5318,97.8041,0.000764205,0.0455868,21.0154,-317.22,0.155092,0.0,0.0
5287,1321.5,48.1838,49.8684,137.077,99.5174,98.1329,0.000879162,0.0453216,21.0154,-317.21,0.124085,0.0,0.0
5304,1325.75,47.8803,49.9162,140.401,99.467,98.5371,0.000739691,0.0453783,21.0154,-317.21,0.083192,0.0,0.0
5321,1330,47.7015,49.8236,137.857,99.4039,98.6473,0.00067757,0.0453775,21.0151,-317.2,0.0676708,0.0,0.0
5338,1334.25,47.9372,49.9582,137.973,99.3487,98.4295,0.00073056,0.0455553,21.0134,-317.21,0.0823301,0.0,0.0
5355,1338.5,48.5358,49.8498,133.513,99.2932,98.0922,0.000621711,0.0457001,21.0139,-317.21,0.107787,0.0,0.0
5372,1342.75,48.0206,50.0238,136.708,99.2289,98.3567,0.000540238,0.0455386,21.0142,-317.25,0.0781971,0.0,0.0
5389,1347,48.013,49.9351,136.453,99.1837,98.0403,0.000426829,0.0454017,21.0142,-317.2,0.1027,0.0,0.0
5406,1351.25,47.9525,49.9484,138.189,99.1422,97.5019,0.00047289,0.0454515,21.0142,-317.22,0.147764,0.0,0.0
5423,1355.5,48.0817,50.1544,136.783,99.1066,97.6969,0.00038548,0.0455236,21.0142,-317.21,0.126886,0.0,0.0
5440,1359.75,47.7145,50.1135,137.103,99.0347,97.6622,0.000460621,0.0458598,21.0141,-317.21,0.123604,0.0,0.0
5457,1364,48.5475,50.3341,137.477,99.0363,97.3733,0.000510342,0.0463757,21.0137,-317.2,0.14999,0.0,0.0
5474,1368.25,47.4109,50.1866,134.52,98.9975,97.7509,0.000538926,0.0464161,21.0125,-317.21,0.112236,0.0,0.0
5491,1372.5,48.0021,49.8321,133.666,98.9535,97.7818,0.000649403,0.0464781,21.0116,-317.2,0.105506,0.0,0.0
5508,1376.75,47.722,49.6028,137.717,98.9248,97.6811,0.000972807,0.0469171,21.0101,-317.21,0.112061,0.0,0.0
5525,1381,47.7415,49.5719,141.103,98.8752,97.2022,0.000613719,0.0471024,21.0094,-317.19,0.151147,0.0,0.0
5542,1385.25,47.4868,50.1825,138.211,98.7789,97.9344,0.000391919,0.0465666,21.011,-317.16,0.0760493,0.0,0.0
5559,1389.5,47.6204,49.9411,136.428,98.7046,97.8302,0.000447156,0.046088,21.0115,-317.17,0.0788083,0.0,0.0
5576,1393.75,47.3898,50.0514,138.43,98.6207,97.5623,0.000603062,0.0455133,21.0133,-317.18,0.0955656,0.0,0.0
5593,1398,47.65,49.9129,136.825,98.54,97.3098,0.000757176,0.045354,21.0134,-317.18,0.111265,0.0,0.0
5610,1402.25,47.5093,49.2778,138.505,98.4744,97.3613,0.00041933,0.0454066,21.0114,-317.16,0.100693,0.0,0.0
5627,1406.5,47.9767,50.2542,136.547,98.4113,97.5469,0.000435123,0.0451255,21.0121,-317.15,0.0781417,0.0,0.0
5644,1410.75,48.1359,49.9969,137.986,98.3466,97.66,0.000459862,0.0446452,21.0154,-317.15,0.0620433,0.0,0.0
5661,1415,48.1255,49.8518,133.29,98.2794,97.579,0.000572307,0.0442444,21.016,-317.17,0.0633465,0.0,0.0
5678,1419.25,48.2563,50.1556,144.867,98.2555,96.804,0.000780941,0.0443134,21.016,-317.16,0.131818,0.0,0.0
5695,1423.5,48.2004,49.777,138.162,98.2083,96.7272,0.000791493,0.0440148,21.0169,-317.12,0.134589,0.0,0.0
5712,1427.75,48.1773,49.4295,136.957,98.1923,96.4777,0.000646997,0.0439783,21.0181,-317.17,0.156022,0.0,0.0
5729,1432,47.5736,49.8618,137.513,98.1811,98.0416,0.000641971,0.0436619,21.0172,-317.18,0.0125978,0.0,0.0
5746,1436.25,48.0804,50.0465,136.01,98.2023,97.0663,0.000573138,0.0434291,21.0189,-317.25,0.103055,0.0,0.0
5763,1440.5,47.6421,49.6815,140.287,98.1971,97.4959,0.000460147,0.0437195,21.0191,-317.15,0.0634775,0.0,0.0
5780,1444.75,47.7537,49.8595,134.525,98.2007,96.9986,0.000632641,0.0446085,21.017,-317.13,0.109092,0.0,0.0
5797,1449,47.5734,49.9446,137.459,98.2219,97.2301,0.000610494,0.0451692,21.0149,-317.12,0.08989,0.0,0.0
5814,1453.25,47.7257,49.9115,137.965,98.2295,96.7855,0.00052435,0.0451177,21.0158,-317.14,0.131162,0.0,0.0
5831,1457.5,47.9155,50.224,140.793,98.2359,96.7907,0.000651134,0.0449705,21.0171,-317.15,0.131268,0.0,0.0
5848,1461.75,47.334,49.7722,137.692,98.2678,97.1619,0.000534757,0.0444308,21.0169,-317.14,0.100244,0.0,0.0
5865,1466,47.9375,49.8135,137.021,98.2766,97.7072,0.000231185,0.0445782,21.0169,-317.14,0.0514684,0.0,0.0
5882,1470.25,47.0873,49.9836,139.195,98.3026,98.514,0.000579289,0.0447065,21.0169,-317.17,-0.0190251,0.0,0.0
5899,1474.5,47.6366,49.6168,136.419,98.337,96.7002,0.000920881,0.0452396,21.0154,-317.19,0.14866,0.0,0.0
5916,1478.75,48.0021,49.6471,137.884,98.3546,97.5867,0.000886354,0.0458261,21.013,-317.15,0.0694142,0.0,0.0
5933,1483,47.6978,49.598,141.9,98.3637,97.7857,0.000492211,0.0462528,21.011,-317.22,0.0522074,0.0,0.0
5950,1487.25,47.7991,49.7718,137.891,98.3905,97.4967,0.000554045,0.0463574,21.0106,-317.2,0.0808268,0.0,0.0
5967,1491.5,47.6524,50.0176,137.343,98.4345,97.5889,0.000558797,0.0466224,21.0106,-317.19,0.0764136,0.0,0.0
5984,1495.75,47.6917,49.6882,137.867,98.4445,98.0184,0.000736549,0.0468749,21.0093,-317.19,0.0384127,0.0,0.0
6001,1500,47.9153,50.0031,137.593,98.4812,97.2284,0.000768446,0.0468848,21.0084,-317.19,0.113402,0.0,0.0
6018,1504.25,48.0458,49.8521,135.978,98.5316,96.7105,0.000904898,0.0466878,21.0099,-317.2,0.165228,0.0,0.0
6035,1508.5,48.2848,49.7844,137.925,98.5715,97.8988,0.000834471,0.0467051,21.0112,-317.21,0.0606529,0.0,0.0
6052,1512.75,47.9531,50.1714,136.405,98.6271,97.5619,0.000664605,0.0467707,21.0098,-317.17,0.0961788,0.0,0.0
6069,1517,48.1617,49.9102,138.057,98.685,97.1533,0.000736022,0.0469774,21.0097,-317.18,0.138547,0.0,0.0
6086,1521.25,47.6631,49.627,132.497,98.7474,97.0518,0.00086725,0.0475245,21.0093,-317.21,0.153407,0.0,0.0
6103,1525.5,47.8528,49.5141,135.684,98.7741,97.6858,0.000770507,0.0478951,21.0089,-317.2,0.0981348,0.0,0.0
6120,1529.75,47.8212,49.8559,138.346,98.8357,97.4882,0.000578457,0.0477807,21.0091,-317.22,0.121587,0.0,0.0
6137,1534,48.2123,49.9033,143.696,98.9044,98.3228,0.000527496,0.0472827,21.0101,-317.21,0.0522378,0.0,0.0
6154,1538.25,47.7802,49.6595,139.268,98.9547,97.0157,0.000396216,0.0466616,21.0107,-317.16,0.175276,0.0,0.0
6171,1542.5,47.9127,49.6438,142.376,99.0251,97.9696,0.000343176,0.0459947,21.0125,-317.17,0.0949149,0.0,0.0
6188,1546.75,47.1134,49.7299,139.617,99.0742,97.7068,0.000471727,0.045673,21.0139,-317.14,0.123098,0.0,0.0
6205,1551,47.3679,49.5529,136.435,99.0982,97.3578,0.000396898,0.0453832,21.0143,-317.13,0.156931,0.0,0.0
6222,1555.25,47.5053,49.6398,136.709,99.1322,98.1376,0.000664035,0.0452133,21.0158,-317.18,0.0893089,0.0,0.0
6239,1559.5,47.8842,49.6671,137.46,99.1725,98.0617,0.000766247,0.0450201,21.0159,-317.18,0.0997647,0.0,0.0
6256,1563.75,47.6371,49.6766,138.82,99.1885,98.4553,0.000597128,0.0448129,21.0159,-317.15,0.0657185,0.0,0.0
6273,1568,48.0382,49.9231,136.858,99.2129,98.0493,0.00050471,0.0442643,21.0169,-317.15,0.104492,0.0,0.0
6290,1572.25,47.4815,49.2442,135.939,99.2341,97.6571,0.000469922,0.0440809,21.0175,-317.15,0.141886,0.0,0.0
6307,1576.5,47.6538,49.1586,137.292,99.244,98.5946,0.000469727,0.0438676,21.0172,-317.17,0.0581526,0.0,0.0
6324,1580.75,47.3713,49.4453,139.708,99.2608,98.0557,0.000572651,0.043804,21.0191,-317.2,0.10819,0.0,0.0
6341,1585,47.6806,50.3288,134.374,99.2976,97.5357,0.000535223,0.0436575,21.0195,-317.12,0.158563,0.0,0.0
6358,1589.25,48.1025,49.5742,137.921,99.3108,98.8282,0.000775966,0.0437482,21.0205,-317.16,0.0431433,0.0,0.0
6375,1593.5,47.8632,49.556,138.142,99.33,97.958,0.000574691,0.0435104,21.02,-317.14,0.12319,0.0,0.0
6392,1597.75,47.7902,49.9599,136.989,99.3487,98.3121,0.000324213,0.0432254,21.019,-317.15,0.0929049,0.0,0.0
6409,1602,47.5544,49.6399,137.577,99.3775,98.9705,0.000383212,0.0432766,21.0181,-317.18,0.0363467,0.0,0.0
6426,1606.25,48.1216,49.8705,136.329,99.3739,98.1723,0.000579756,0.043188,21.0197,-317.13,0.107749,0.0,0.0
6443,1610.5,47.7411,49.6873,139.208,99.3751,97.9931,0.000420884,0.043308,21.0198,-317.15,0.124036,0.0,0.0
6460,1614.75,47.6992,49.8276,139.182,99.4115,97.6729,0.000190042,0.0435334,21.0184,-317.17,0.156268,0.0,0.0
6477,1619,47.3154,49.7777,138.251,99.4091,98.0257,0.000317821,0.0434631,21.0189,-317.17,0.124119,0.0,0.0
6494,1623.25,47.7264,49.8815,134.741,99.4283,98.3258,0.000349744,0.0432939,21.0202,-317.16,0.0987561,0.0,0.0
6511,1627.5,47.4982,49.6625,135.253,99.4327,98.0407,0.000656984,0.0430268,21.0205,-317.16,0.124865,0.0,0.0
6528,1631.75,47.6242,49.6787,136.945,99.4195,97.6322,0.00074372,0.0428743,21.021,-317.19,0.160674,0.0,0.0
6545,1636,47.3204,50.0523,138.636,99.4275,98.5877,0.000449587,0.0430885,21.0197,-317.18,0.0751218,0.0,0.0
6562,1640.25,47.7879,49.8333,137.892,99.4335,97.7312,0.00033169,0.0429015,21.0215,-317.14,0.152942,0.0,0.0
6579,1644.5,48.0236,49.8792,139.805,99.4231,99.1866,0.000669659,0.0428676,21.0195,-317.11,0.0210907,0.0,0.0
6596,1648.75,47.8172,49.9426,137.806,99.4191,98.5616,0.000497791,0.0430601,21.0188,-317.12,0.0767255,0.0,0.0
6613,1653,47.9293,49.9153,135.046,99.4247,99.0811,0.000375523,0.0431869,21.0193,-317.16,0.0306562,0.0,0.0
6630,1657.25,47.7638,49.9395,132.994,99.4219,98.61,0.000163397,0.0432065,21.0195,-317.18,0.0726214,0.0,0.0
6647,1661.5,48.0275,50.0931,138.499,99.4151,98.4613,0.000138953,0.0434001,21.019,-317.17,0.0853883,0.0,0.0
6664,1665.75,47.7679,49.9022,137.151,99.4207,97.7595,0.000411507,0.0433683,21.0181,-317.17,0.149238,0.0,0.0
6681,1670,47.9477,49.9795,135.709,99.4283,97.7475,0.000368506,0.0432358,21.018,-317.18,0.151002,0.0,0.0
6698,1674.25,47.9888,49.9967,142.723,99.3839,98.6177,0.00049752,0.0432711,21.018,-317.16,0.0685467,0.0,0.0
6715,1678.5,48.2176,50.0638,136.38,99.3863,98.5024,0.00057432,0.0433711,21.018,-317.08,0.0791233,0.0,0.0
6732,1682.75,47.8588,49.6182,137.986,99.3895,98.4844,0.000732757,0.0435615,21.019,-317.13,0.0810276,0.0,0.0
6749,1687,47.6811,49.7075,137.691,99.3799,98.0099,0.000674418,0.0435823,21.022,-317.11,0.122953,0.0,0.0
6766,1691.25,47.8633,50.1101,138.946,99.3591,98.0514,0.000620587,0.0437503,21.0219,-317.15,0.117344,0.0,0.0
6783,1695.5,47.7281,49.7957,136.707,99.3791,98.3374,0.000433638,0.0438526,21.0219,-317.15,0.0933343,0.0,0.0
6800,1699.75,48.4156,50.0041,135.937,99.3695,98.6044,0.000102405,0.0439607,21.0203,-317.17,0.0684577,0.0,0.0
6817,1704,47.5847,49.8792,137.748,99.3443,98.3837,8.17559e-05,0.0439034,21.0216,-317.15,0.0860659,0.0,0.0
6834,1708.25,47.6756,49.6618,138.846,99.3587,98.0176,0.00035648,0.0439636,21.0205,-317.13,0.120368,0.0,0.0
6851,1712.5,47.2841,49.948,134.61,99.3751,98.6687,0.000366259,0.0439856,21.0194,-317.19,0.063183,0.0,0.0
6868,1716.75,47.8541,50.465,136.039,99.3611,97.8967,0.000483898,0.0438883,21.0181,-317.18,0.131513,0.0,0.0
6885,1721,47.9206,49.6859,137.232,99.3791,98.5659,0.000261285,0.0441191,21.0179,-317.16,0.0727785,0.0,0.0
6902,1725.25,47.7948,50.0491,135.352,99.3975,98.9217,0.000292649,0.0441075,21.0178,-317.13,0.0425013,0.0,0.0
6919,1729.5,47.6331,50.0891,134.604,99.4107,98.6379,0.000170822,0.0441608,21.0178,-317.19,0.069123,0.0,0.0
6936,1733.75,48.109,49.6311,136.487,99.4051,97.865,0.000346564,0.0440226,21.0178,-317.19,0.1383,0.0,0.0
6953,1738,48.2315,49.6735,136.077,99.4235,98.5316,0.000850684,0.0439141,21.0178,-317.18,0.0798139,0.0,0.0
6970,1742.25,48.2375,49.7758,138.04,99.4219,98.6006,0.00079145,0.0437588,21.0197,-317.18,0.0734696,0.0,0.0
6987,1746.5,48.2627,50.2378,136.089,99.4231,97.7741,0.000688975,0.0437207,21.0182,-317.17,0.148131,0.0,0.0
7004,1750.75,48.3144,49.971,133.574,99.4359,98.2958,0.000518071,0.0437831,21.0172,-317.19,0.102136,0.0,0.0
7021,1755,48.083,50.3072,134.782,99.4351,98.4175,0.000675379,0.0438933,21.017,-317.14,0.0911024,0.0,0.0
7038,1759.25,48.3704,50.3572,139.308,99.4271,98.4634,0.000511207,0.0444934,21.0184,-317.14,0.0862625,0.0,0.0
7055,1763.5,47.7767,49.8591,138.395,99.4363,99.3533,0.000575668,0.044938,21.0169,-317.13,0.00738784,0.0,0.0
7072,1767.75,47.761,49.6478,136.367,99.4355,98.4518,0.000730818,0.0451772,21.0165,-317.15,0.0880513,0.0,0.0
7089,1772,47.821,50.084,133.391,99.4243,98.5483,0.000570519,0.0454775,21.0164,-317.12,0.0783813,0.0,0.0
7106,1776.25,47.9862,49.9838,138.596,99.4283,98.8389,0.000296725,0.0451574,21.0144,-317.15,0.0526545,0.0,0.0
7123,1780.5,48.0583,49.8382,136.667,99.4351,98.8972,0.000547885,0.0449276,21.0137,-317.14,0.0480362,0.0,0.0
7140,1784.75,47.8788,49.7359,137.955,99.4231,98.5573,0.000539619,0.045331,21.0136,-317.19,0.0774656,0.0,0.0
7157,1789,48.1016,49.9095,138.396,99.4235,98.3721,0.000347775,0.0457891,21.0131,-317.17,0.0941596,0.0,0.0
7174,1793.25,47.857,49.988,140.083,99.4458,97.3634,0.00047971,0.0463408,21.0123,-317.19,0.187441,0.0,0.0
7191,1797.5,48.0068,49.8269,135.198,99.451,98.448,0.000562627,0.0469307,21.0114,-317.2,0.0897876,0.0,0.0
7208,1801.75,48.0246,50.0651,137.215,99.4327,98.1693,0.000475407,0.0470574,21.0119,-317.19,0.113254,0.0,0.0
7225,1806,47.6955,50.0016,141.63,99.4347,97.8452,0.000510194,0.0471454,21.0121,-317.19,0.142719,0.0,0.0
7242,1810.25,46.182,47.9888,136.801,99.4299,97.7724,0.000516617,0.0471692,21.0121,-317.19,0.148892,0.0,0.0
7259,1814.5,46.0811,48.0567,141.063,99.4295,97.3973,0.000436758,0.046738,21.0137,-317.18,0.182901,0.0,0.0
7276,1818.75,45.9258,47.9416,136.426,99.4351,98.9109,0.000454395,0.0464959,21.0143,-317.16,0.0468085,0.0,0.0
7293,1823,45.8956,48.2403,137.399,99.457,98.682,0.000588368,0.0463571,21.0138,-317.2,0.0692874,0.0,0.0
7310,1827.25,45.873,47.9779,137.92,99.4351,98.5281,0.00039337,0.0462495,21.0152,-317.17,0.0811542,0.0,0.0
7327,1831.5,46.1754,48.4,143.754,99.4407,98.5603,0.000320085,0.0460096,21.0141,-317.19,0.0787623,0.0,0.0
7344,1835.75,45.8319,47.5235,140.965,99.4538,99.0863,0.000361366,0.0460542,21.0156,-317.18,0.032794,0.0,0.0
7361,1840,45.6898,48.1357,142.863,99.4454,97.7351,0.000483782,0.0457995,21.0158,-317.17,0.153659,0.0,0.0
7378,1844.25,46.0081,47.9248,140.278,99.4335,97.8071,0.000259604,0.045635,21.0142,-317.19,0.146067,0.0,0.0
7395,1848.5,46.1065,48.3755,140.917,99.4542,98.1093,0.000178643,0.0453267,21.0141,-317.16,0.120592,0.0,0.0
7412,1852.75,46.0243,48.5141,137.999,99.443,98.367,0.000647973,0.0448887,21.0145,-317.16,0.0963667,0.0,0.0
7429,1857,45.9609,48.1177,137.464,99.4279,98.5376,0.00103602,0.0446781,21.0149,-317.16,0.0796654,0.0,0.0
7446,1861.25,45.9602,47.8429,135.013,99.4398,98.5504,0.000422036,0.0445089,21.0148,-317.17,0.0795775,0.0,0.0
7463,1865.5,46.1915,48.0918,134.992,99.4343,98.8389,0.000300225,0.0442698,21.0152,-317.15,0.0531877,0.0,0.0
7480,1869.75,46.0406,48.3616,137.066,99.4263,98.8171,0.000562952,0.044012,21.0162,-317.19,0.0544344,0.0,0.0
7497,1874,45.3651,48.1213,138.817,99.4215,97.8247,0.000528983,0.0441513,21.0176,-317.16,0.143409,0.0,0.0
7514,1878.25,46.1062,48.1206,139.576,99.4482,97.7226,0.000444238,0.0444368,21.0177,-317.19,0.155035,0.0,0.0
7531,1882.5,45.7605,48.1146,137.621,99.4279,97.4877,0.000543561,0.0444642,21.0189,-317.21,0.174538,0.0,0.0
7548,1886.75,45.9463,48.2823,139.259,99.4087,97.7977,0.000578178,0.0444785,21.0196,-317.18,0.144714,0.0,0.0
7565,1891,45.9825,48.8279,137.402,99.4167,98.7961,0.000734394,0.0443519,21.0188,-317.18,0.0554638,0.0,0.0
7582,1895.25,46.2468,48.4773,140.614,99.3895,98.2658,0.000761338,0.0443458,21.0183,-317.18,0.100712,0.0,0.0
7599,1899.5,46.3112,47.9446,139.856,99.3675,97.9751,0.000497915,0.0440656,21.0182,-317.17,0.124988,0.0,0.0
7616,1903.75,46.2957,48.3068,143.168,99.3583,98.6053,0.000361376,0.0438966,21.0196,-317.18,0.0673837,0.0,0.0
7633,1908,46.3998,47.7339,141.007,99.3336,98.487,0.00051311,0.0436859,21.0184,-317.14,0.0758086,0.0,0.0
7650,1912.25,46.1031,48.3026,135.524,99.3004,98.4707,0.00052426,0.0435342,21.0185,-317.16,0.0743167,0.0,0.0
7667,1916.5,46.0109,48.3541,139.992,99.2876,98.3172,0.00054641,0.0430483,21.0187,-317.18,0.0869902,0.0,0.0
7684,1920.75,45.7886,48.5219,139.858,99.2333,97.9494,,,,-317.15,0.115338,0.0,0.0
7701,1925,46.0259,48.3545,141.789,99.1697,98.066,,,,-317.15,0.0991278,0.0,0.0
7711,1927.5,46.2381,48.3633,135.942,99.1653,97.8191,,,,-317.15,0.121064,0.0,0.0