File: 01_Data/Mineral_Wool_Insulation/Cone/Mineral_Wool_Insulation_Cone_HF50Scan_220426_R1.csv
Names,Time,Stack TC,Smoke TC,Exh Press,Smoke Comp,Smoke Meas,CO Meter,CO2 Meter,O2 Meter,Sample Mass,Ext Coeff,Start Test,Flame Verif
Chan Gain,,500,500,1,1,1,1,1,1,1,1,1.0,1.0
Offset,,0,0,0.135223,0,0,0,0,0,0,0,0.0,0.0
Gain,,1,1,25.011,13.0939,14.0471,1,1,1,1.00088,1.00971,1.0,1.0
Units,sec,C,C,Pa,%,%,%,%,%,g,/m,,
Baseline,,31.1354,32.4429,145.467,97.6954,94.4143,0.00107725,0.0485128,21.0053,-834.345,0.302581,,
17,4,29.2938,30.6267,141.432,97.8894,94.5718,0.00138274,0.0597633,20.9948,-318.821,0.305383,0.0,0.0
34,8.25,29.5405,31.016,144.336,97.9122,94.7939,0.0018436,0.06047,20.994,-318.881,0.286671,0.0,0.0
51,12.5,29.9071,30.9177,144.486,97.9246,95.3426,0.00208612,0.0603965,20.9955,-318.911,0.23667,0.0,0.0
68,16.75,30.092,31.5546,147.864,97.9294,94.769,0.00199886,0.0588094,20.9976,-318.931,0.290549,0.0,0.0
85,21,30.395,31.7777,146.938,97.9458,94.7583,0.00190973,0.0549091,21.003,-319.001,0.293033,0.0,0.0
102,25.25,30.8226,31.6926,144.864,97.9542,94.7994,0.0016637,0.0518813,21.0069,-319.011,0.289946,0.0,0.0
119,29.5,30.8624,32.2804,142.343,97.9669,94.7982,0.00159755,0.0497575,21.0097,-319.011,0.291222,0.0,0.0
136,33.75,30.6569,32.2344,143.532,97.9613,94.772,0.00160938,0.0490199,21.0103,-319.051,0.29316,0.0,0.0
153,38,31.4506,32.4462,143.829,98.0033,94.9306,0.00182204,0.0485139,21.0098,-319.001,0.282142,0.0,0.0
170,42.25,31.5997,32.7317,143.574,98.0077,95.0742,0.00171574,0.048492,21.011,-319.011,0.26915,0.0,0.0
187,46.5,31.229,32.7728,143.318,98.0149,95.1355,0.00171286,0.0491802,21.01,-319.061,0.264091,0.0,0.0
204,50.75,31.7494,32.4026,148.992,98.0353,95.2118,0.00159593,0.0500363,21.0098,-319.111,0.258831,0.0,0.0
221,55,31.5128,33.0261,144.886,98.0684,95.1467,0.00123567,0.0500625,21.0098,-319.101,0.26789,0.0,0.0
238,59.25,31.6865,32.8905,145.83,98.0557,95.13,0.00119668,0.0496109,21.009,-319.121,0.268292,0.0,0.0
255,63.5,31.8222,33.173,142.943,98.0477,95.1647,0.00165976,0.04947,21.0093,-319.111,0.264337,0.0,0.0
272,67.75,32.1018,33.2663,142.704,98.0964,94.9765,0.0017032,0.0491396,21.0097,-319.132,0.286273,0.0,0.0
289,72,32.2509,33.4647,142.664,98.076,94.9542,0.0014929,0.0486711,21.0102,-319.152,0.286512,0.0,0.0
306,76.25,32.4906,33.7206,145.384,98.0848,95.5968,0.00155715,0.0483099,21.0117,-319.172,0.227568,0.0,0.0
323,80.5,32.5445,33.8704,144.383,98.1396,94.9696,0.00146699,0.0483629,21.0121,-319.172,0.290809,0.0,0.0
340,84.75,32.155,33.6494,143.64,98.1436,95.2457,0.00158226,0.0482243,21.0107,-319.182,0.26546,0.0,0.0
357,89,32.7714,34.0941,142.001,98.1671,94.9971,0.00154409,0.0480644,21.0105,-319.202,0.290739,0.0,0.0
374,93.25,32.7473,34.1269,142.181,98.2179,95.5364,0.00171784,0.0479675,21.0112,-319.192,0.245177,0.0,0.0
391,97.5,32.6911,33.9823,144.083,98.2487,95.0129,0.00167162,0.0476141,21.0119,-319.182,0.296611,0.0,0.0
408,101.75,32.4995,33.8061,143.845,98.2782,95.3602,0.001386,0.0475843,21.0128,-319.202,0.266966,0.0,0.0
425,106,32.804,33.9962,146.011,98.3222,95.1853,0.00131417,0.0475365,21.0115,-319.222,0.287186,0.0,0.0
442,110.25,32.7778,33.6882,144.131,98.3605,95.256,0.00162219,0.0473886,21.0118,-319.242,0.284063,0.0,0.0
459,114.5,32.7517,34.3771,142.019,98.4133,95.2903,0.00149469,0.0472377,21.0136,-319.222,0.285622,0.0,0.0
476,118.75,32.8373,34.7278,142.186,98.4053,95.5389,0.00129835,0.0471868,21.0142,-319.192,0.261824,0.0,0.0
493,123,32.8588,34.6863,142.358,98.4489,95.4009,0.00124663,0.0472194,21.0139,-319.222,0.27855,0.0,0.0
510,127.25,33.2548,34.5844,148.34,98.464,95.2727,0.00135567,0.0468624,21.0126,-319.232,0.291823,0.0,0.0
527,131.5,33.0115,34.4268,143.177,98.4756,95.328,0.00130514,0.0467951,21.0131,-319.262,0.287726,0.0,0.0
544,135.75,32.887,34.5227,143.226,98.508,95.5175,0.00105933,0.0466702,21.0137,-319.282,0.273049,0.0,0.0
561,140,33.0322,34.3756,141.663,98.5228,95.5231,0.000750611,0.046634,21.0144,-319.302,0.273862,0.0,0.0
578,144.25,33.5555,35.2022,141.578,98.5096,95.5196,0.000903716,0.046801,21.0146,-319.292,0.272994,0.0,0.0
595,148.5,32.5849,34.8159,143.348,98.5108,95.5119,0.00108232,0.0472103,21.0113,-319.312,0.273818,0.0,0.0
612,152.75,33.3624,35.0634,141.572,98.5248,95.2629,0.00100617,0.0475419,21.0106,-319.302,0.298201,0.0,0.0
629,157,33.0968,35.1771,142.348,98.5136,95.439,0.00111846,0.0477519,21.0102,-319.282,0.280829,0.0,0.0
646,161.25,33.186,34.7045,144.821,98.5132,95.6037,0.00119968,0.0477349,21.0106,-319.312,0.26553,0.0,0.0
663,165.5,33.6156,34.798,142.632,98.5196,95.2226,0.00109223,0.047664,21.0118,-319.292,0.301482,0.0,0.0
680,169.75,33.3828,35.2484,142.484,98.5216,95.6907,0.00116042,0.0476425,21.012,-319.312,0.258226,0.0,0.0
697,174,33.5173,34.9379,142.748,98.5296,95.4562,0.00135793,0.0475616,21.0124,-319.312,0.280675,0.0,0.0
714,178.25,33.6084,34.8762,147.704,98.5599,95.7185,0.00131819,0.0473173,21.0137,-319.302,0.259095,0.0,0.0
731,182.5,33.7206,35.0452,143.996,98.5603,95.4017,0.001349,0.0469343,21.0142,-319.322,0.288494,0.0,0.0
748,186.75,33.9059,35.0999,145.466,98.5587,95.5522,0.00139261,0.0468142,21.0134,-319.322,0.274392,0.0,0.0
765,191,33.6191,35.3796,142.957,98.5923,95.7936,0.0016168,0.0464559,21.0128,-319.332,0.255064,0.0,0.0
782,195.25,33.6124,35.3279,141.039,98.6119,95.899,0.00149901,0.0464342,21.0121,-319.342,0.247078,0.0,0.0
799,199.5,33.5703,35.256,141.16,98.6207,95.5689,0.00104361,0.0462913,21.0119,-319.332,0.278407,0.0,0.0
816,203.75,33.5864,35.2674,143.622,98.6495,95.6804,0.000915827,0.0462674,21.0118,-319.342,0.270666,0.0,0.0
833,208,33.9062,35.0134,146.382,98.6858,95.7318,0.000792143,0.046601,21.0124,-319.362,0.26917,0.0,0.0
850,212.25,33.6295,35.4318,143.6,98.7158,95.4678,0.000765613,0.0470126,21.0146,-319.372,0.296324,0.0,0.0
867,216.5,33.7008,35.5195,145.074,98.7561,95.6894,0.000591486,0.0468175,21.0149,-319.372,0.279407,0.0,0.0
884,220.75,33.9317,35.2246,141.179,98.7713,95.7871,0.000730942,0.0463962,21.015,-319.352,0.271727,0.0,0.0
901,225,33.6835,35.628,139.479,98.7909,95.8716,0.00078185,0.046337,21.0153,-319.342,0.265676,0.0,0.0
918,229.25,33.9179,35.2333,145.456,98.8089,95.8077,0.000737743,0.0463451,21.0147,-319.362,0.273192,0.0,0.0
935,233.5,33.7669,35.5556,147.74,98.8281,95.764,0.000805036,0.0460915,21.0155,-319.362,0.278954,0.0,0.0
952,237.75,34.1525,35.5035,141.363,98.8349,95.8922,0.000893985,0.0460658,21.0133,-319.362,0.267716,0.0,0.0
969,242,34.178,35.7371,144.903,98.8269,95.8411,0.000969372,0.045948,21.0126,-319.362,0.271713,0.0,0.0
986,246.25,33.8945,35.5049,145.403,98.8532,95.6092,0.000942208,0.0456988,21.0129,-319.372,0.295534,0.0,0.0
1003,250.5,34.0405,35.6162,143.447,98.8524,95.7931,0.00100478,0.0458742,21.0145,-319.372,0.278442,0.0,0.0
1020,254.75,33.6662,35.4131,148.18,98.8405,95.8874,0.000812535,0.0462613,21.0151,-319.352,0.268654,0.0,0.0
1037,259,34.2319,35.6487,142.799,98.8528,95.6307,0.00065826,0.046362,21.0144,-319.362,0.293513,0.0,0.0
1054,263.25,33.7985,35.4899,144.786,98.862,95.7979,0.000782318,0.0463458,21.0142,-319.362,0.278866,0.0,0.0
1071,267.5,33.9604,35.1724,144.37,98.8552,95.8416,0.00100568,0.0463085,21.0138,-319.362,0.274216,0.0,0.0
1088,271.75,33.8912,35.2575,141.235,98.8521,96.0928,0.000657863,0.0461776,21.0134,-319.372,0.250745,0.0,0.0
1105,276,33.9091,35.473,141.856,98.8836,96.2827,0.00069591,0.0463275,21.0134,-319.372,0.236085,0.0,0.0
1122,280.25,34.1055,35.6391,141.856,98.8588,95.9033,0.000717741,0.0468368,21.011,-319.392,0.268835,0.0,0.0
1139,284.5,33.9515,35.222,143.047,98.8716,95.767,0.000653416,0.0479929,21.0086,-319.382,0.282579,0.0,0.0
1156,288.75,34.1335,35.76,141.815,98.8648,95.9595,0.00069668,0.0485551,21.0062,-319.402,0.264187,0.0,0.0
1173,293,33.9096,35.5739,145.433,98.8708,95.686,0.000790864,0.0485527,21.0064,-319.402,0.290004,0.0,0.0
1190,297.25,34.3617,35.6527,144.546,98.8508,95.812,0.000761015,0.0481833,21.0078,-319.382,0.276556,0.0,0.0
1207,301.5,34.1571,35.6773,144.058,98.86,96.1541,0.000817054,0.0480918,21.008,-319.382,0.245812,0.0,0.0
1224,305.75,34.1098,35.5178,144.962,98.8704,95.8493,0.000990216,0.0478024,21.0085,-319.372,0.274863,0.0,0.0
1241,310,34.386,36.054,142.489,98.862,95.7563,0.000910114,0.0470582,21.01,-319.392,0.282711,0.0,0.0
1258,314.25,34.2754,35.9286,138.97,98.858,95.7357,0.000618909,0.0469364,21.0103,-319.412,0.284256,0.0,0.0
1275,318.5,34.1004,35.9678,141.813,98.8692,95.8639,0.000614498,0.0466309,21.0104,-319.412,0.273409,0.0,0.0
1292,322.75,34.1933,35.9125,145.813,98.858,95.9376,0.000542532,0.0463933,21.0104,-319.412,0.265596,0.0,0.0
1309,327,33.9367,36.1008,146.077,98.8568,95.8081,0.000343507,0.0459981,21.0134,-319.392,0.277449,0.0,0.0
1326,331.25,34.4121,36.0099,141.583,98.8704,95.9042,0.000481011,0.0457215,21.014,-319.402,0.269794,0.0,0.0
1343,335.5,34.5827,36.1457,141.404,98.8588,96.542,0.000412871,0.0456413,21.0142,-319.362,0.21004,0.0,0.0
1360,339.75,33.9262,35.9646,146.766,98.8528,95.7091,0.000484471,0.0454965,21.0151,-319.392,0.28625,0.0,0.0
1377,344,34.5322,35.832,143.97,98.8688,95.9599,0.000510015,0.0455368,21.0132,-319.392,0.264505,0.0,0.0
1394,348.25,34.6683,35.6567,142.101,98.8604,95.9333,0.000667797,0.0458703,21.0129,-319.392,0.266207,0.0,0.0
1411,352.5,34.2325,36.1088,144.329,98.8429,96.1485,0.000737076,0.0456867,21.0144,-319.382,0.244786,0.0,0.0
1428,356.75,34.384,35.9997,144.525,98.8521,95.9672,0.000753283,0.0455085,21.0163,-319.392,0.262329,0.0,0.0
1445,361,34.3991,36.0597,143.364,98.86,95.5818,0.000743209,0.0454886,21.0169,-319.412,0.298685,0.0,0.0
1462,365.25,34.604,36.1221,145.252,98.8373,95.9565,0.000931371,0.045679,21.0154,-319.402,0.261993,0.0,0.0
1479,369.5,34.3165,35.9967,141.017,98.8405,96.007,0.000620371,0.0463567,21.013,-319.422,0.257612,0.0,0.0
1496,373.75,34.3907,35.243,144.696,98.8496,96.0358,0.000576388,0.0465492,21.013,-319.392,0.255786,0.0,0.0
1513,378,34.3451,36.1015,143.577,98.8381,95.9595,0.000511132,0.0467296,21.013,-319.402,0.261788,0.0,0.0
1530,382.25,34.2743,35.745,143.388,98.8241,95.8712,0.000464711,0.0467654,21.013,-319.422,0.268689,0.0,0.0
1547,386.5,34.3557,36.1167,140.629,98.8349,95.8514,0.0005745,0.047095,21.0118,-319.432,0.271478,0.0,0.0
1564,390.75,34.7184,36.0645,142.552,98.8201,95.5719,0.000890175,0.0476571,21.0108,-319.392,0.296018,0.0,0.0
1581,395,34.1424,35.992,145.359,98.8061,95.6367,0.000868934,0.0479584,21.0107,-319.412,0.288767,0.0,0.0
1598,399.25,34.1956,36.1828,144.992,98.8161,95.8853,0.000604987,0.0481295,21.0088,-319.422,0.266666,0.0,0.0
1615,403.5,34.4935,35.6646,146.215,98.7925,95.4588,0.000566997,0.0479899,21.0084,-319.412,0.304041,0.0,0.0
1632,407.75,34.5526,36.0739,145.173,98.7809,96.0439,0.000519231,0.0479121,21.0084,-319.402,0.248875,0.0,0.0
1649,412,34.4031,36.0428,142.688,98.7781,95.7233,0.000561125,0.0476888,21.0083,-319.432,0.278244,0.0,0.0
1666,416.25,34.1302,35.4155,138.746,98.7777,95.7837,0.000538354,0.0475565,21.0099,-319.422,0.272617,0.0,0.0
1683,420.5,34.2647,36.0992,143.554,98.7482,96.0422,0.000561612,0.0474707,21.0105,-319.412,0.246094,0.0,0.0
1700,424.75,34.4071,35.9689,142.383,98.7494,95.7666,0.000440524,0.0472065,21.0106,-319.442,0.271658,0.0,0.0
1717,429,34.2197,36.1336,143.812,98.7458,95.7949,0.00051872,0.0471362,21.0107,-319.402,0.268719,0.0,0.0
1734,433.25,34.1796,35.8421,144.512,98.7234,95.6933,0.000643387,0.0471794,21.0107,-319.422,0.27611,0.0,0.0
1751,437.5,34.5759,35.753,142.272,98.703,95.409,0.000759227,0.0472437,21.0111,-319.412,0.300627,0.0,0.0
1768,441.75,34.1923,35.2215,142.128,98.6838,95.3314,0.000721057,0.0470628,21.0125,-319.422,0.306112,0.0,0.0
1785,446,34.3506,36.0143,141.374,98.6471,95.7181,0.000648373,0.0463445,21.014,-319.392,0.266959,0.0,0.0
1802,450.25,33.9712,35.9738,142.908,98.6151,95.9659,0.000571358,0.0458163,21.0151,-319.382,0.24119,0.0,0.0
1819,454.5,34.1878,35.7561,144.911,98.5955,95.7691,0.000529252,0.0455956,21.0157,-319.402,0.257611,0.0,0.0
1836,458.75,34.245,36.2187,142.868,98.5787,95.5432,0.000392535,0.0457254,21.0152,-319.432,0.277021,0.0,0.0
1853,463,34.4474,35.8462,139.649,98.5376,95.6277,0.000491708,0.0455554,21.016,-319.402,0.265497,0.0,0.0
1870,467.25,34.4606,35.6543,146.869,98.5308,95.4952,0.000761338,0.045407,21.017,-319.422,0.277164,0.0,0.0
1887,471.5,34.4283,35.4319,141.923,98.4936,95.3121,0.000659354,0.0453412,21.0172,-319.422,0.290817,0.0,0.0
1904,475.75,33.6056,36.0384,141.683,98.4668,95.9277,0.000611029,0.0449914,21.0191,-319.442,0.231387,0.0,0.0
1921,480,34.2376,36.2172,145.79,98.4529,95.3602,0.000638739,0.0447513,21.0189,-319.452,0.28269,0.0,0.0
1938,484.25,34.2794,35.9852,143.3,98.4373,95.3615,0.000578953,0.0443766,21.0188,-319.442,0.281169,0.0,0.0
1955,488.5,34.3453,35.8609,146.626,98.3941,95.947,0.000768961,0.0441157,21.0194,-319.452,0.223063,0.0,0.0
1972,492.75,34.1841,36.0996,141.004,98.3685,95.2307,0.00104163,0.0442516,21.0196,-319.412,0.287134,0.0,0.0
1989,497,34.592,35.9846,140.936,98.3665,95.454,0.00106423,0.0440904,21.0196,-319.402,0.266206,0.0,0.0
2006,501.25,34.5852,36.0916,146.797,98.3422,95.2637,0.000841147,0.0440551,21.0196,-319.422,0.281689,0.0,0.0
2023,505.5,34.4035,35.919,142.218,98.3134,95.8394,0.000622889,0.043997,21.0196,-319.432,0.225732,0.0,0.0
2040,509.75,34.6396,35.8735,144.703,98.3002,95.2354,0.000631539,0.0439297,21.0198,-319.412,0.280541,0.0,0.0
2057,514,34.3515,36.6944,141.877,98.2922,95.1668,0.000537234,0.0438981,21.0209,-319.402,0.286202,0.0,0.0
2074,518.25,34.3158,36.0499,142.456,98.3458,95.5767,0.000544335,0.0437275,21.0224,-319.412,0.252966,0.0,0.0
2091,522.5,34.1349,36.0714,143.581,98.4784,95.3769,0.000559311,0.0437901,21.0228,-319.432,0.283437,0.0,0.0
2108,526.75,34.3933,35.9747,144.141,98.5939,95.4746,0.00081122,0.0437202,21.0214,-319.442,0.284746,0.0,0.0
2125,531,34.3325,35.8645,141.277,98.6786,95.9916,0.000738808,0.0437917,21.0205,-319.432,0.244522,0.0,0.0
2142,535.25,34.5898,36.1844,146.685,98.7961,95.8,0.000560589,0.0438941,21.0203,-319.422,0.272759,0.0,0.0
2159,539.5,34.8407,36.0984,143.789,98.902,95.7721,0.000296453,0.0439617,21.0198,-319.422,0.284824,0.0,0.0
2176,543.75,34.4804,36.4404,149.626,98.9503,95.6997,0.00031725,0.0439572,21.0199,-319.432,0.295855,0.0,0.0
2193,548,34.1356,36.1155,144.401,99.0095,96.482,0.000549797,0.044065,21.0183,-319.432,0.229035,0.0,0.0
2210,552.25,34.4905,35.991,145.247,99.067,96.293,0.000605446,0.043837,21.0188,-319.442,0.251553,0.0,0.0
2227,556.5,34.438,36.1407,145.625,99.0994,96.0782,0.000691893,0.0439151,21.0185,-319.432,0.274222,0.0,0.0
2244,560.75,34.4819,36.4478,145.501,99.1485,95.9187,0.000777712,0.0439221,21.018,-319.432,0.293327,0.0,0.0
2261,565,34.7407,36.1271,146.408,99.1689,96.3899,0.000800693,0.0440016,21.0172,-319.422,0.251751,0.0,0.0
2278,569.25,34.5058,36.2023,143.657,99.1737,96.242,0.00075932,0.0442597,21.0155,-319.422,0.26578,0.0,0.0
2295,573.5,34.944,36.1926,146.217,99.1625,96.0611,0.000819337,0.0442579,21.0151,-319.392,0.281444,0.0,0.0
2312,577.75,34.5135,35.9811,143.629,99.1701,96.0366,0.000766966,0.044468,21.017,-319.412,0.284376,0.0,0.0
2329,582,34.3654,35.6894,143.704,99.1481,96.0212,0.000671506,0.0445579,21.0186,-319.412,0.283836,0.0,0.0
2346,586.25,35.3031,35.7463,146.769,99.1138,96.5776,0.000712576,0.0445828,21.0178,-319.422,0.229589,0.0,0.0
2363,590.5,34.7867,35.8185,142.689,99.1146,96.3294,0.000561128,0.0447,21.0188,-319.412,0.252452,0.0,0.0
2380,594.75,34.5459,36.2215,143.788,99.0658,96.0743,0.000505226,0.0443659,21.0197,-319.432,0.271578,0.0,0.0
2397,599,34.226,36.1999,145.766,99.0267,95.7327,0.000594039,0.044268,21.0206,-319.402,0.299629,0.0,0.0
2414,603.25,34.5727,36.2543,143.5,98.9615,95.9882,0.000588451,0.0443659,21.0206,-319.402,0.270196,0.0,0.0
2431,607.5,34.6151,35.7683,146.333,98.9244,96.0028,0.000514279,0.044352,21.0196,-319.412,0.265524,0.0,0.0
2448,611.75,34.2655,36.4278,141.923,98.8548,95.8561,0.000714595,0.0442577,21.0185,-319.422,0.272833,0.0,0.0
2465,616,34.8004,35.9145,142.293,98.7853,95.8351,0.000703603,0.0441764,21.0201,-319.412,0.268542,0.0,0.0
2482,620.25,34.3016,36.0404,142.737,98.7206,95.9089,0.000483282,0.0439194,21.0198,-319.422,0.255924,0.0,0.0
2499,624.5,34.7789,36.2327,144.674,98.667,95.7528,0.000492346,0.0439867,21.0196,-319.422,0.265541,0.0,0.0
2516,628.75,34.8714,35.7953,142.099,98.6842,95.6512,0.000618175,0.0439969,21.0199,-319.422,0.276486,0.0,0.0
2533,633,34.7173,36.4988,142.486,98.7142,95.8583,0.000617628,0.0440489,21.0194,-319.442,0.260024,0.0,0.0
2550,637.25,35.2567,36.3853,145.109,98.7294,96.0469,0.00061665,0.0439022,21.0182,-319.442,0.243974,0.0,0.0
2567,641.5,34.8529,36.1824,144.989,98.7374,95.7143,0.000444959,0.0439806,21.0179,-319.442,0.275422,0.0,0.0
2584,645.75,35.1684,36.3031,142.198,98.7641,95.7584,0.000589346,0.0440929,21.0178,-319.452,0.273738,0.0,0.0
2601,650,34.9712,36.097,144.665,98.7953,96.1232,0.000493118,0.0444407,21.0177,-319.452,0.242854,0.0,0.0
2618,654.25,34.4603,36.3484,140.907,98.8133,95.9307,0.0003378,0.0443682,21.0176,-319.442,0.26222,0.0,0.0
2635,658.5,34.676,36.0596,142.82,98.8449,96.1498,0.000507081,0.0442833,21.0182,-319.442,0.244846,0.0,0.0
2652,662.75,34.6977,36.3236,143.587,98.8756,95.8767,0.000536896,0.0443036,21.0196,-319.452,0.272793,0.0,0.0
2669,667,34.7796,36.3426,142.079,98.89,95.9783,0.000529984,0.0443698,21.018,-319.452,0.264701,0.0,0.0
2686,671.25,35.0459,36.1582,143.151,98.9008,96.4117,0.000441258,0.0444774,21.0187,-319.442,0.225762,0.0,0.0
2703,675.5,34.696,36.2337,142.626,98.934,96.1005,0.000561811,0.0443689,21.0202,-319.442,0.25737,0.0,0.0
2720,679.75,35.0278,35.9831,139.849,98.9643,95.899,0.00058732,0.0442942,21.0187,-319.452,0.278677,0.0,0.0
2737,684,34.9079,36.6143,142.945,98.9819,96.3028,0.00048803,0.044227,21.0176,-319.432,0.243033,0.0,0.0
2754,688.25,34.5062,36.3045,147.584,99.0267,95.959,0.000743357,0.0445318,21.018,-319.442,0.278713,0.0,0.0
2771,692.5,34.4509,36.571,143.568,99.0522,95.9084,0.000780749,0.0446091,21.0178,-319.412,0.285671,0.0,0.0
2788,696.75,35.1411,36.1845,147.865,99.0758,96.2257,0.000474078,0.0447588,21.0165,-319.402,0.258531,0.0,0.0
2805,701,35.2883,36.3062,144.196,99.1022,95.9843,0.000671674,0.0448592,21.0164,-319.402,0.283131,0.0,0.0
2822,705.25,35.0858,36.056,145.462,99.1202,96.1554,0.000655735,0.0448137,21.0167,-319.422,0.268969,0.0,0.0
2839,709.5,35.0537,36.5626,139.003,99.123,96.5202,0.000685204,0.0445571,21.017,-319.412,0.235679,0.0,0.0
2856,713.75,35.0414,36.2031,145.064,99.1358,96.2943,0.00061084,0.0444669,21.0187,-319.422,0.257577,0.0,0.0
2873,718,34.6691,36.2442,143.933,99.1541,96.3346,0.00035793,0.0444384,21.02,-319.432,0.255513,0.0,0.0
2890,722.25,35.082,36.3932,145.079,99.1689,96.1541,0.00052053,0.0447338,21.0182,-319.422,0.273443,0.0,0.0
2907,726.5,34.5376,36.3209,143.048,99.1757,96.5982,0.000679012,0.0448877,21.0168,-319.442,0.233234,0.0,0.0
2924,730.75,35.1293,36.3373,145.68,99.1909,96.2,0.000737618,0.0452281,21.0152,-319.452,0.27118,0.0,0.0
2941,735,34.7266,36.728,145.516,99.1893,95.9084,0.000548548,0.0454711,21.015,-319.432,0.297919,0.0,0.0
2958,739.25,35.1028,36.1867,143.258,99.1829,96.4439,0.000408994,0.0455863,21.0149,-319.442,0.248038,0.0,0.0
2975,743.5,35.2939,36.5795,146.985,99.1937,96.2145,0.00055605,0.0457755,21.0136,-319.432,0.270089,0.0,0.0
2992,747.75,35.0841,36.1829,139.34,99.1969,96.2994,0.000556376,0.0457724,21.0133,-319.442,0.262564,0.0,0.0
3009,752,34.8661,37.2006,142.549,99.1861,96.4825,0.000327883,0.0458353,21.0133,-319.432,0.244781,0.0,0.0
3026,756.25,34.7298,36.5697,143.88,99.1761,96.6265,0.000590111,0.0456054,21.0133,-319.442,0.230676,0.0,0.0
3043,760.5,34.9171,36.7521,141.165,99.1965,96.221,0.000543196,0.0457806,21.0133,-319.452,0.269746,0.0,0.0
3060,764.75,34.7151,36.4428,149.241,99.1949,96.1699,0.000368736,0.0459586,21.0145,-319.412,0.274302,0.0,0.0
3077,769,35.2591,36.615,142.782,99.1977,96.5746,0.00062099,0.0457863,21.0154,-319.442,0.237359,0.0,0.0
3094,773.25,35.0074,36.1423,146.002,99.2185,96.245,0.000812311,0.0458376,21.0139,-319.432,0.2695,0.0,0.0
3111,777.5,35.2312,36.5155,148.165,99.2325,95.8754,0.000626008,0.0462293,21.0134,-319.432,0.304819,0.0,0.0
3128,781.75,35.0887,36.3955,144.776,99.244,96.2055,0.000562963,0.0464846,21.0133,-319.452,0.275412,0.0,0.0
3145,786,34.6309,36.6384,142.811,99.2824,95.8746,0.000766513,0.0464561,21.0129,-319.432,0.309356,0.0,0.0
3162,790.25,34.575,36.2446,147.216,99.2924,96.0756,0.000747493,0.0466923,21.0118,-319.432,0.291693,0.0,0.0
3179,794.5,35.0601,36.5166,138.924,99.2996,96.4546,0.000687863,0.0469883,21.0116,-319.422,0.257467,0.0,0.0
3196,798.75,34.8776,36.1518,144.402,99.3288,96.1417,0.000782663,0.0470277,21.0116,-319.422,0.288852,0.0,0.0
3213,803,34.4405,35.8349,141.94,99.3643,96.6008,0.000575448,0.0472128,21.0116,-319.432,0.249826,0.0,0.0
3230,807.25,35.1757,36.27,143.914,99.3835,96.4876,0.000860076,0.0472611,21.0098,-319.412,0.261918,0.0,0.0
3247,811.5,34.7312,36.1702,145.268,99.3935,95.9582,0.000873624,0.0473166,21.011,-319.422,0.311542,0.0,0.0
3264,815.75,34.4941,36.701,144.505,99.4295,96.1704,0.000760393,0.0471499,21.0106,-319.432,0.29518,0.0,0.0
3281,820,34.2296,36.5103,144.742,99.4295,96.5202,0.000604693,0.047057,21.0122,-319.442,0.263023,0.0,0.0
3298,824.25,35.1299,36.3485,146.424,99.4458,96.5498,0.000535589,0.0463913,21.0146,-319.432,0.261769,0.0,0.0
3315,828.5,34.4736,36.3514,141.897,99.475,96.3448,0.000475541,0.0460549,21.0156,-319.422,0.283184,0.0,0.0
3332,832.75,35.1534,36.3749,142.161,99.483,96.5956,0.000549958,0.0455448,21.0174,-319.422,0.260872,0.0,0.0
3349,837,35.0784,36.2177,140.929,99.4778,96.7988,0.000725266,0.0452635,21.017,-319.422,0.241796,0.0,0.0
3366,841.25,35.333,35.9394,144.791,99.499,96.1447,0.000758087,0.0452912,21.0162,-319.422,0.303742,0.0,0.0
3383,845.5,34.4241,36.2242,141.406,99.5066,96.4263,0.000725585,0.0451688,21.016,-319.442,0.278509,0.0,0.0
3400,849.75,34.9749,36.8385,141.897,99.4898,96.4494,0.000477591,0.0453406,21.0145,-319.422,0.274889,0.0,0.0
3417,854,34.5835,36.5644,142.776,99.4854,96.945,0.000522397,0.0455715,21.0138,-319.422,0.229106,0.0,0.0
3434,858.25,34.9302,36.6755,142.585,99.4822,96.3568,0.000532153,0.045703,21.0143,-319.432,0.282721,0.0,0.0
3451,862.5,34.8964,36.4638,141.606,99.4482,96.239,0.000678352,0.0455697,21.0152,-319.432,0.290538,0.0,0.0
3468,866.75,34.9903,36.6399,142.045,99.4267,96.2415,0.0008878,0.0452943,21.0154,-319.442,0.28838,0.0,0.0
3485,871,34.3961,36.3504,145.196,99.4219,96.3243,0.000904528,0.0452517,21.016,-319.442,0.280342,0.0,0.0
3502,875.25,35.0919,36.4391,142.639,99.3795,96.6046,0.000827901,0.045074,21.0157,-319.412,0.250826,0.0,0.0
3519,879.5,34.6904,36.6277,145.408,99.3348,96.1236,0.000858589,0.0447398,21.017,-319.402,0.291045,0.0,0.0
3536,883.75,34.9935,36.3125,144.908,99.3128,96.3003,0.000708722,0.044919,21.0185,-319.412,0.272827,0.0,0.0
3553,888,34.976,36.4716,146.653,99.2784,96.3513,0.000664232,0.0449272,21.0188,-319.412,0.26507,0.0,0.0
3570,892.25,35.1536,36.3467,144.037,99.2261,96.1018,0.000465449,0.0450222,21.0189,-319.472,0.283364,0.0,0.0
3587,896.5,35.2251,36.484,143.825,99.1941,96.1112,0.000314816,0.0458699,21.0166,-319.392,0.27964,0.0,0.0
3604,900.75,34.9462,36.548,143.982,99.1346,96.2042,0.0004969,0.0479422,21.0146,-319.412,0.265754,0.0,0.0
3621,905,35.2395,36.5821,142.969,99.0714,96.182,0.000610171,0.0486628,21.0143,-319.432,0.262163,0.0,0.0
3638,909.25,35.3807,36.0948,141.678,99.0387,95.839,0.000626886,0.0480316,21.0142,-319.432,0.290871,0.0,0.0
3655,913.5,34.714,36.4135,142.856,98.9935,96.5849,0.000581253,0.0469526,21.0173,-319.432,0.218164,0.0,0.0
3672,917.75,35.0039,36.8136,147.101,98.9452,95.998,0.000401908,0.0460295,21.0175,-319.432,0.267819,0.0,0.0
3689,922,34.6959,36.3128,144.409,98.888,96.1327,0.000687618,0.0454466,21.0181,-319.432,0.250291,0.0,0.0
3706,926.25,34.7851,36.4107,140.887,98.8173,96.1519,0.000666429,0.0451945,21.0187,-319.422,0.242178,0.0,0.0
3723,930.5,34.764,36.4945,141.718,98.719,95.9715,0.000626644,0.0452855,21.0188,-319.422,0.250003,0.0,0.0
3740,934.75,34.6917,36.2472,141.46,98.6187,95.644,0.000673659,0.045421,21.0177,-319.412,0.271277,0.0,0.0
3757,939,35.01,36.3483,143.503,98.5248,95.8536,0.000696102,0.0458475,21.016,-319.432,0.243449,0.0,0.0
3774,943.25,34.9692,36.5378,141.936,98.4437,95.4631,0.000432303,0.0462396,21.0158,-319.422,0.272313,0.0,0.0
3791,947.5,35.3563,36.5968,143.567,98.3454,95.5925,0.000310104,0.0460339,21.0164,-319.422,0.25146,0.0,0.0
3808,951.75,35.0857,35.9107,143.493,98.2738,95.2689,0.000548477,0.0455841,21.0165,-319.442,0.275056,0.0,0.0
3825,956,35.1403,36.3916,143.571,98.2095,95.2924,0.00065136,0.04519,21.0165,-319.412,0.267064,0.0,0.0
3842,960.25,34.9894,36.4114,146.135,98.1388,95.0819,0.000672894,0.0448773,21.0165,-319.432,0.280268,0.0,0.0
3859,964.5,35.0159,36.4827,143.403,98.1,95.3044,0.000462327,0.0450901,21.0162,-319.432,0.256068,0.0,0.0
3876,968.75,34.8405,36.5439,143.725,98.0565,95.433,0.000347026,0.0450934,21.0158,-319.422,0.240191,0.0,0.0
3893,973,35.0009,36.2404,142.539,98.0009,95.1034,0.000303278,0.0451916,21.0168,-319.432,0.26582,0.0,0.0
3910,977.25,35.0773,36.1461,144.103,97.9598,95.0618,0.000557394,0.0450986,21.0191,-319.442,0.265975,0.0,0.0
3927,981.5,34.9737,36.2611,141.4,97.9282,94.9199,0.000546611,0.0449428,21.0177,-319.452,0.27635,0.0,0.0
3944,985.75,34.488,36.4583,139.529,97.885,95.0232,0.00041591,0.0449905,21.0175,-319.422,0.262811,0.0,0.0
3961,990,34.8878,36.3997,145.442,97.8627,95.4815,0.000405706,0.0449572,21.0174,-319.432,0.218174,0.0,0.0
3978,994.25,35.1766,36.4249,146.579,97.8439,94.7587,0.000462613,0.0448918,21.0173,-319.422,0.283774,0.0,0.0
3995,998.5,34.6782,36.3519,144.145,97.8263,95.0189,0.000450602,0.0448745,21.0172,-319.422,0.257893,0.0,0.0
4012,1002.75,35.2515,36.4607,143.042,97.7811,95.2813,0.00049943,0.045085,21.0159,-319.442,0.229383,0.0,0.0
4029,1007,34.9745,36.407,144.25,97.7743,94.9606,0.000625769,0.0451023,21.0153,-319.412,0.258625,0.0,0.0
4046,1011.25,34.927,36.5674,144.008,97.7532,94.8282,0.000841902,0.0452283,21.0142,-319.402,0.269069,0.0,0.0
4063,1015.5,35.0065,36.2834,143.094,97.7292,94.5868,0.000931255,0.045119,21.014,-319.432,0.289467,0.0,0.0
4080,1019.75,34.857,36.131,143.219,97.7096,94.7351,0.000647373,0.0453191,21.0159,-319.412,0.273816,0.0,0.0
4097,1024,34.9368,36.0313,147.155,97.6872,94.7827,0.000671821,0.0455754,21.0164,-319.412,0.267339,0.0,0.0
4114,1028.25,34.5066,36.7236,143.624,97.6513,94.5924,0.000521824,0.0456808,21.0165,-319.422,0.281882,0.0,0.0
4131,1032.5,34.7647,36.3725,145.142,97.6237,94.559,0.000651384,0.0458578,21.0165,-319.422,0.282513,0.0,0.0
4148,1036.75,34.8547,36.2365,140.902,97.6229,94.8106,0.000605258,0.046052,21.0165,-319.432,0.258901,0.0,0.0
4165,1041,35.2034,36.4366,143.474,97.6009,95.0605,0.000500365,0.0462861,21.0147,-319.432,0.233589,0.0,0.0
4182,1045.25,34.7967,36.2129,142.416,97.5941,95.0434,0.000536703,0.0464723,21.0129,-319.422,0.234571,0.0,0.0
4199,1049.5,34.8672,36.6917,144.225,97.5981,95.1154,0.000545914,0.0466426,21.0126,-319.432,0.228224,0.0,0.0
4216,1053.75,34.4159,36.5808,142.614,97.6137,94.7677,0.000719922,0.0468254,21.0107,-319.432,0.262073,0.0,0.0
4233,1058,35.01,36.9779,144.135,97.6225,94.3935,0.000559718,0.0470559,21.0107,-319.442,0.297916,0.0,0.0
4250,1062.25,34.8247,36.392,145.524,97.6696,94.853,0.000707692,0.0468088,21.0111,-319.422,0.259177,0.0,0.0
4267,1066.5,34.7455,36.3458,142.527,97.7144,94.5744,0.000648366,0.0467166,21.0104,-319.432,0.289293,0.0,0.0
4284,1070.75,34.3141,35.9793,144.078,97.7516,94.8102,0.000538564,0.0465256,21.0104,-319.432,0.270607,0.0,0.0
4301,1075,34.7022,36.0572,147.949,97.8507,94.73,0.00036989,0.0470522,21.011,-319.432,0.287073,0.0,0.0
4318,1079.25,35.0711,36.3869,143.967,97.9294,94.9705,0.000374888,0.0473241,21.0111,-319.432,0.271739,0.0,0.0
4335,1083.5,35.0767,36.4298,144.641,98.0117,94.7437,0.000561522,0.0473449,21.0094,-319.432,0.300355,0.0,0.0
4352,1087.75,34.7135,36.0506,141.649,98.1148,95.3516,0.000583446,0.0476883,21.0092,-319.422,0.253022,0.0,0.0
4369,1092,34.7708,36.2964,142.423,98.2179,95.184,0.000503557,0.0481751,21.0076,-319.452,0.277906,0.0,0.0
4386,1096.25,34.6523,36.1735,144.074,98.3138,94.9962,0.000385953,0.0483841,21.0074,-319.452,0.30404,0.0,0.0
4403,1100.5,34.8093,36.6325,145.621,98.4069,95.1797,0.000502002,0.0483423,21.0059,-319.422,0.295333,0.0,0.0
4420,1104.75,35.1937,36.4943,146.331,98.4888,95.641,0.000414874,0.0484635,21.006,-319.432,0.259883,0.0,0.0
4437,1109,34.9149,36.533,138.638,98.5687,95.4703,0.000440128,0.0481325,21.006,-319.432,0.282882,0.0,0.0
4454,1113.25,34.5135,35.978,144.08,98.6307,95.9607,0.000402694,0.0482604,21.0056,-319.412,0.243065,0.0,0.0
4471,1117.5,34.6847,36.3989,142.743,98.7242,95.6615,0.000394797,0.0483139,21.0051,-319.402,0.279119,0.0,0.0
4488,1121.75,35.0008,36.4513,142.726,98.7717,95.5882,0.000449988,0.0482608,21.0067,-319.412,0.290174,0.0,0.0
4505,1126,35.5201,36.27,144.33,98.7949,96.0988,0.000497393,0.048075,21.0092,-319.402,0.245069,0.0,0.0
4522,1130.25,34.9735,36.249,144.47,98.8385,95.6427,0.000546107,0.04804,21.01,-319.432,0.291113,0.0,0.0
4539,1134.5,34.7447,35.9861,143.665,98.8556,95.6727,0.000523116,0.0477165,21.0119,-319.432,0.289874,0.0,0.0
4556,1138.75,34.8617,36.1238,144.116,98.8504,96.1717,0.000520636,0.0472258,21.0138,-319.412,0.243334,0.0,0.0
4573,1143,34.7485,36.3608,143.47,98.8508,95.8411,0.000488352,0.0470654,21.0133,-319.402,0.273861,0.0,0.0
4590,1147.25,34.5447,36.1858,144.294,98.8668,95.9689,0.000592372,0.0467861,21.0132,-319.422,0.263495,0.0,0.0
4607,1151.5,34.9093,36.11,141.026,98.87,95.671,0.00060872,0.0465568,21.0141,-319.432,0.291321,0.0,0.0
4624,1155.75,35.1876,36.3865,144.47,98.8552,95.7078,0.00059964,0.0465142,21.0138,-319.412,0.286585,0.0,0.0
4641,1160,34.9394,36.3795,143.958,98.8556,96.1288,0.000662382,0.0463842,21.0133,-319.402,0.247748,0.0,0.0
4658,1164.25,35.2395,36.4579,147.171,98.8425,96.0461,0.000575767,0.0462883,21.0146,-319.412,0.254193,0.0,0.0
4675,1168.5,34.2504,36.4395,144.178,98.8145,95.8862,0.000513352,0.0460405,21.0161,-319.402,0.266443,0.0,0.0
4692,1172.75,34.6318,35.9331,145.544,98.8041,95.7293,0.000421592,0.0461181,21.0163,-319.412,0.280017,0.0,0.0
4709,1177,34.6215,36.2895,142.433,98.7821,95.5261,0.000567149,0.0457318,21.0162,-319.392,0.296867,0.0,0.0
4726,1181.25,34.7233,36.0365,146.33,98.7466,95.6504,0.000734857,0.0454524,21.0172,-319.402,0.282158,0.0,0.0
4743,1185.5,35.0136,36.3818,140.803,98.7214,95.8454,0.000760876,0.0456328,21.0175,-319.402,0.261857,0.0,0.0
4760,1189.75,34.521,36.023,144.193,98.699,95.899,0.000647123,0.0457007,21.0174,-319.372,0.254899,0.0,0.0
4777,1194,34.4966,36.2247,142.439,98.6602,95.7083,0.000754945,0.0456855,21.0163,-319.402,0.269056,0.0,0.0
4794,1198.25,34.7197,35.8324,142.51,98.6279,95.8017,0.000740603,0.0454866,21.0167,-319.352,0.257505,0.0,0.0
4811,1202.5,34.8656,36.2564,143.078,98.6031,95.4699,0.000576591,0.0456072,21.0152,-319.372,0.28601,0.0,0.0
4828,1206.75,35.1194,36.0641,139.343,98.5691,95.4815,0.000438472,0.0460854,21.0141,-319.382,0.281885,0.0,0.0
4845,1211,34.8897,36.5259,144.057,98.5424,95.8223,0.000448647,0.0463573,21.0121,-319.442,0.24792,0.0,0.0
4862,1215.25,35.0858,36.258,145.225,98.5348,95.316,0.000343176,0.0470149,21.0116,-319.392,0.294159,0.0,0.0
4879,1219.5,34.8322,36.398,145.382,98.5092,95.5668,0.000356486,0.0473822,21.012,-319.402,0.268587,0.0,0.0
4896,1223.75,34.8744,36.2743,142.443,98.4756,95.382,0.000452266,0.0476313,21.0135,-319.412,0.282709,0.0,0.0
4913,1228,34.9518,36.5446,145.661,98.4429,95.5964,0.00048875,0.047032,21.0147,-319.422,0.25988,0.0,0.0
4930,1232.25,35.2635,36.5268,142.513,98.4217,95.2174,0.000446065,0.0464938,21.0162,-319.442,0.293155,0.0,0.0
4947,1236.5,34.8733,36.0412,143.742,98.3717,95.1844,0.000528753,0.0461794,21.0166,-319.432,0.29173,0.0,0.0
4964,1240.75,35.0365,36.7667,140.892,98.343,95.4862,0.000577548,0.0459597,21.0171,-319.432,0.2611,0.0,0.0
4981,1245,35.0623,36.5487,143.87,98.3306,95.0091,0.000668377,0.0461054,21.0174,-319.422,0.304352,0.0,0.0
4998,1249.25,34.7294,36.4377,147.566,98.3054,95.3443,0.000651147,0.0461075,21.0168,-319.422,0.270888,0.0,0.0
5015,1253.5,35.2063,36.6805,143.813,98.2718,95.6602,0.000234185,0.0459503,21.0169,-319.442,0.238563,0.0,0.0
5032,1257.75,35.2175,36.5092,141.593,98.3581,95.5565,0.000214115,0.0459761,21.0176,-319.432,0.255949,0.0,0.0
5049,1262,35.4562,36.7595,145.386,98.488,95.3332,0.000334659,0.0456969,21.0182,-319.402,0.288362,0.0,0.0
5066,1266.25,35.1413,36.8025,141.741,98.5707,95.5904,0.000135223,0.0456403,21.0183,-319.412,0.271933,0.0,0.0
5083,1270.5,35.122,36.8281,145.059,98.6758,95.4682,0.000163922,0.0456528,21.0183,-319.412,0.292699,0.0,0.0
5100,1274.75,35.1804,36.5035,145.048,98.7805,95.6242,0.000313903,0.0455215,21.0171,-319.402,0.287626,0.0,0.0
5117,1279,34.7936,36.6213,144.588,98.884,95.827,0.000495315,0.0457295,21.0156,-319.412,0.27814,0.0,0.0
5134,1283.25,35.2129,36.6108,146.291,98.9779,95.7863,0.000601747,0.0460488,21.0151,-319.412,0.290311,0.0,0.0
5151,1287.5,34.7893,36.5004,143.546,99.0542,96.4443,0.000666107,0.0458299,21.0153,-319.402,0.236501,0.0,0.0
5168,1291.75,35.3588,36.5771,144.351,99.1018,96.8228,0.000702987,0.0457515,21.0154,-319.412,0.206057,0.0,0.0
5185,1296,34.9154,36.5471,145.508,99.1382,96.0182,0.000674143,0.0457238,21.0173,-319.412,0.28322,0.0,0.0
5202,1300.25,34.9335,36.3811,142.626,99.1725,96.0782,0.000583922,0.0454096,21.0186,-319.402,0.280756,0.0,0.0
5219,1304.5,35.3323,36.4548,143.538,99.1633,96.3431,0.000751862,0.0454081,21.0175,-319.422,0.255546,0.0,0.0
5236,1308.75,34.6602,36.2473,146.137,99.1354,96.1061,0.000632956,0.045338,21.0186,-319.412,0.274868,0.0,0.0
5253,1313,34.9398,36.5145,144.021,99.1418,96.1498,0.000645276,0.045201,21.0184,-319.422,0.271411,0.0,0.0
5270,1317.25,35.2663,36.5834,144.711,99.1074,96.5841,0.000672169,0.0448836,21.0178,-319.402,0.228427,0.0,0.0
5287,1321.5,34.933,36.8368,142.324,99.0654,96.0979,0.000471672,0.0449565,21.0183,-319.432,0.269368,0.0,0.0
5304,1325.75,35.2948,36.368,140.442,99.0195,95.9543,0.000440721,0.0448484,21.0187,-319.422,0.278505,0.0,0.0
5321,1330,34.919,36.4205,143.961,98.9691,95.8776,0.00057666,0.0448975,21.0186,-319.422,0.281086,0.0,0.0
5338,1334.25,34.8119,36.4468,144.826,98.8884,96.0191,0.000847772,0.0448037,21.0168,-319.412,0.260801,0.0,0.0
5355,1338.5,35.1874,36.4417,143.467,98.8237,96.0812,0.000497821,0.0445039,21.0191,-319.412,0.249269,0.0,0.0
5372,1342.75,35.1512,36.7511,142.638,98.7522,95.9685,0.000768569,0.0446189,21.0173,-319.432,0.253255,0.0,0.0
5389,1347,35.4857,36.8205,141.825,98.6598,95.7198,0.000742752,0.0445664,21.0164,-319.452,0.267949,0.0,0.0
5406,1351.25,35.1235,36.8026,144.903,98.6838,96.1159,0.000986604,0.0445853,21.0163,-319.432,0.233524,0.0,0.0
5423,1355.5,35.2753,36.5236,144.517,98.7142,95.5792,0.00114258,0.0446812,21.0157,-319.432,0.285846,0.0,0.0
5440,1359.75,35.3219,36.9111,142.251,98.715,96.0118,0.000562506,0.0446388,21.0149,-319.432,0.245926,0.0,0.0
5457,1364,35.1655,36.6128,140.794,98.7362,95.9247,0.000563423,0.0447371,21.0165,-319.422,0.255858,0.0,0.0
5474,1368.25,35.5428,36.4273,142,98.7737,95.7798,0.000599374,0.0445853,21.0176,-319.432,0.272616,0.0,0.0
5491,1372.5,35.0082,36.6517,146.618,98.7881,95.7177,0.000527039,0.0446735,21.0178,-319.432,0.279655,0.0,0.0
5508,1376.75,34.785,36.8671,143.852,98.7989,95.7417,0.000456523,0.0445466,21.0178,-319.422,0.278402,0.0,0.0
5525,1381,35.4459,36.8511,141.399,98.8333,95.9187,0.000496903,0.0444456,21.0178,-319.422,0.265118,0.0,0.0
5542,1385.25,35.414,36.5843,142.595,98.8588,95.8789,0.000445378,0.0443775,21.0187,-319.432,0.271092,0.0,0.0
5559,1389.5,35.4539,37.0893,145.04,98.8908,96.0821,0.000477372,0.0443441,21.0174,-319.412,0.255204,0.0,0.0
5576,1393.75,34.9336,36.9048,143.719,98.924,96.2158,0.000728204,0.0444271,21.0178,-319.422,0.245853,0.0,0.0
5593,1398,35.3986,36.4134,144.645,98.9751,96.0122,0.000913006,0.0444512,21.0173,-319.422,0.269196,0.0,0.0
5610,1402.25,35.3602,37.217,145.112,99.0015,96.0799,0.000857105,0.0442802,21.0171,-319.422,0.26531,0.0,0.0
5627,1406.5,35.5273,36.0707,141.748,99.0363,95.8454,0.000834438,0.0444351,21.0164,-319.412,0.290062,0.0,0.0
5644,1410.75,35.0989,36.8499,142.439,99.0874,95.9753,0.000774836,0.0446683,21.0179,-319.412,0.282641,0.0,0.0
5661,1415,35.1328,36.2765,144.397,99.111,96.4224,0.000812998,0.0445865,21.0184,-319.402,0.243581,0.0,0.0
5678,1419.25,35.285,36.7501,143.999,99.1374,95.8784,0.000794085,0.0445338,21.0184,-319.412,0.29605,0.0,0.0
5695,1423.5,35.15,37.1147,146.508,99.1801,96.2475,0.000695958,0.0447069,21.0191,-319.422,0.265838,0.0,0.0
5712,1427.75,35.2156,36.7975,141.449,99.2041,95.9762,0.000763779,0.0447481,21.0193,-319.412,0.292985,0.0,0.0
5729,1432,35.3492,36.916,143.228,99.2209,96.2548,0.000762033,0.0446011,21.0188,-319.422,0.268806,0.0,0.0
5746,1436.25,35.3486,36.3021,144.572,99.2604,96.5035,0.000426881,0.0448019,21.0185,-319.432,0.249488,0.0,0.0
5763,1440.5,35.2099,36.6348,141.606,99.304,96.5005,0.000411494,0.044737,21.0185,-319.422,0.253648,0.0,0.0
5780,1444.75,35.2741,36.66,142.657,99.3439,96.416,0.00049656,0.0448724,21.0185,-319.412,0.264966,0.0,0.0
5797,1449,35.3361,36.4931,141.776,99.3875,96.5125,0.000747989,0.0450214,21.0178,-319.392,0.259993,0.0,0.0
5814,1453.25,35.1409,36.4806,145.054,99.4335,96.4229,0.000595391,0.0451283,21.0163,-319.382,0.272314,0.0,0.0
5831,1457.5,35.0509,36.6152,143.551,99.4578,96.2814,0.000399068,0.0451589,21.0156,-319.392,0.287488,0.0,0.0
5848,1461.75,34.9368,36.8184,144.575,99.4806,96.3856,0.000424973,0.0449957,21.0156,-319.402,0.279938,0.0,0.0
5865,1466,34.7567,36.6984,143.834,99.5094,96.8923,0.000581397,0.0450842,21.0162,-319.392,0.236059,0.0,0.0
5882,1470.25,34.7337,36.7173,143.419,99.5126,96.8297,0.000689198,0.0449181,21.0161,-319.392,0.242067,0.0,0.0
5899,1474.5,35.0953,36.4531,143.759,99.511,96.5168,0.000575213,0.0450737,21.0144,-319.412,0.270596,0.0,0.0
5916,1478.75,35.288,36.8774,145.093,99.5258,96.2827,0.000680373,0.0450627,21.0144,-319.422,0.293417,0.0,0.0
5933,1483,35.0612,36.5028,146.259,99.5266,96.7967,0.000710363,0.0448871,21.0144,-319.392,0.246332,0.0,0.0
5950,1487.25,35.1085,36.4842,143.937,99.513,96.7127,0.000651626,0.0453224,21.0139,-319.392,0.252814,0.0,0.0
5967,1491.5,35.3611,36.3835,143.605,99.531,96.3174,0.00064625,0.0451578,21.0148,-319.402,0.290686,0.0,0.0
5984,1495.75,35.2911,36.7085,142.964,99.5262,96.8863,0.000470557,0.0445519,21.0155,-319.402,0.238102,0.0,0.0
6001,1500,35.6202,36.8009,146.836,99.5134,96.8023,0.000482768,0.0445441,21.0164,-319.392,0.244648,0.0,0.0
6018,1504.25,34.9942,36.8743,143.558,99.5102,96.2643,0.000565038,0.0449682,21.0181,-319.392,0.293726,0.0,0.0
6035,1508.5,35.0158,36.6371,143.513,99.513,96.777,0.000584319,0.0448873,21.0191,-319.402,0.246927,0.0,0.0
6052,1512.75,35.2174,36.6782,144.63,99.5018,96.6153,0.000386639,0.0448143,21.0205,-319.402,0.260734,0.0,0.0
6069,1517,34.8264,37.0058,141.365,99.489,96.2694,0.000294215,0.0449053,21.0212,-319.372,0.291367,0.0,0.0
6086,1521.25,35.0918,36.5588,141.313,99.4942,96.5382,0.000374677,0.0447715,21.0216,-319.412,0.267135,0.0,0.0
6103,1525.5,35.0597,36.4714,144.022,99.4774,96.3839,0.000483527,0.0445847,21.0187,-319.392,0.279811,0.0,0.0
6120,1529.75,34.8761,36.6008,143.655,99.4614,96.2493,0.000567896,0.0446393,21.0179,-319.372,0.290766,0.0,0.0
6137,1534,35.0573,36.3702,144.035,99.4422,96.4087,0.000574335,0.0444589,21.0178,-319.382,0.274396,0.0,0.0
6154,1538.25,34.9142,36.5116,140.819,99.4239,96.3624,0.000496326,0.0445115,21.0178,-319.392,0.277013,0.0,0.0
6171,1542.5,35.0086,36.6538,140.997,99.3839,96.4709,0.000530364,0.0447653,21.0174,-319.392,0.26349,0.0,0.0
6188,1546.75,34.9694,36.453,143.683,99.3515,96.5588,0.0005719,0.0448633,21.0165,-319.402,0.252539,0.0,0.0
6205,1551,35.0889,36.3929,144.566,99.3184,95.7876,0.000819958,0.0450682,21.0175,-319.412,0.320607,0.0,0.0
6222,1555.25,35.0237,36.8094,144.13,99.2852,96.4006,0.00059499,0.0450823,21.0165,-319.392,0.261145,0.0,0.0
6239,1559.5,35.0762,36.5357,143.5,99.2349,96.2681,0.000590359,0.045041,21.0183,-319.382,0.268832,0.0,0.0
6256,1563.75,35.1827,36.805,148.493,99.1913,96.1331,0.000643296,0.0448186,21.0193,-319.382,0.277375,0.0,0.0
6273,1568,35.049,36.3381,143.238,99.1382,96.2218,0.000417785,0.0447325,21.0191,-319.382,0.264458,0.0,0.0
6290,1572.25,35.0277,36.6714,140.348,99.101,96.0435,0.000516192,0.0444383,21.018,-319.402,0.277567,0.0,0.0
6307,1576.5,35.2942,36.8282,140.759,99.0938,96.1125,0.000651571,0.0444462,21.0164,-319.392,0.270562,0.0,0.0
6324,1580.75,34.803,36.5621,145.209,99.0287,95.8476,0.000405977,0.0443592,21.016,-319.392,0.289185,0.0,0.0
6341,1585,35.2249,36.3925,142.352,98.9855,95.875,0.000528542,0.044611,21.0153,-319.392,0.28279,0.0,0.0
6358,1589.25,34.9138,36.5456,141.31,98.9675,96.1571,0.000683155,0.0451464,21.0132,-319.422,0.25516,0.0,0.0
6375,1593.5,34.865,36.8618,142.658,98.9388,96.0152,0.000572964,0.0459981,21.0134,-319.402,0.265665,0.0,0.0
6392,1597.75,35.8061,36.7653,142.706,98.8652,96.1657,0.000583329,0.0469647,21.0138,-319.392,0.245211,0.0,0.0
6409,1602,34.7009,36.4319,143.168,98.8357,96.0002,0.000611796,0.0471451,21.0144,-319.422,0.257815,0.0,0.0
6426,1606.25,35.1058,36.9288,142.21,98.8069,95.9466,0.000589942,0.0469587,21.017,-319.382,0.260182,0.0,0.0
6443,1610.5,35.0919,36.8775,144.189,98.7342,95.6487,0.000304765,0.0463951,21.0189,-319.372,0.281207,0.0,0.0
6460,1614.75,34.9976,36.378,142.901,98.6838,95.6435,0.000482595,0.0460026,21.0186,-319.402,0.277164,0.0,0.0
6477,1619,35.5563,36.5814,142.663,98.6263,95.4528,0.000685913,0.0459886,21.0154,-319.392,0.289682,0.0,0.0
6494,1623.25,35.3191,36.4433,140.927,98.5667,95.2624,0.000622132,0.0463343,21.0138,-319.392,0.302012,0.0,0.0
6511,1627.5,34.8926,36.9642,147.101,98.5164,95.8489,0.000781595,0.0467048,21.0131,-319.392,0.24313,0.0,0.0
6528,1631.75,34.6883,36.1439,140.387,98.4884,96.1164,0.00076152,0.0466163,21.0142,-319.412,0.21593,0.0,0.0
6545,1636,35.5537,36.9693,140.579,98.4417,95.5599,0.000547838,0.0459343,21.016,-319.392,0.263149,0.0,0.0
6562,1640.25,35.0718,36.5898,142.017,98.4013,95.7481,0.000448989,0.0455307,21.0184,-319.412,0.242092,0.0,0.0
6579,1644.5,35.5119,36.5806,143.388,98.3717,95.6534,0.000602233,0.0456763,21.019,-319.412,0.248197,0.0,0.0
6596,1648.75,35.2825,36.7313,143.794,98.3681,95.3927,0.000420533,0.0460858,21.0191,-319.402,0.27204,0.0,0.0
6613,1653,35.7368,36.8754,143.205,98.327,95.5625,0.000336431,0.046159,21.0188,-319.422,0.252586,0.0,0.0
6630,1657.25,35.2576,37.2852,143.225,98.3202,94.9748,0.000405745,0.046384,21.017,-319.402,0.306615,0.0,0.0
6647,1661.5,35.6347,37.258,143.633,98.297,95.367,0.000405426,0.0467022,21.0158,-319.402,0.268022,0.0,0.0
6664,1665.75,35.5445,36.7626,146.275,98.2459,95.6084,0.000584644,0.0467823,21.0159,-319.412,0.241025,0.0,0.0
6681,1670,35.4631,36.629,138.732,98.2127,95.1484,0.000661462,0.0468524,21.016,-319.402,0.28075,0.0,0.0
6698,1674.25,35.1872,36.5539,139.155,98.1827,95.0185,0.000492263,0.0469906,21.0147,-319.412,0.290146,0.0,0.0
6715,1678.5,35.5214,36.8951,144.264,98.1204,95.2247,0.000758227,0.046864,21.0138,-319.392,0.265321,0.0,0.0
6732,1682.75,35.2356,36.8475,148.378,98.0477,94.9838,0.00097936,0.0469656,21.0137,-319.382,0.28119,0.0,0.0
6749,1687,35.5841,36.4327,148.364,97.9957,95.0339,0.000746643,0.0467121,21.0119,-319.412,0.271822,0.0,0.0
6766,1691.25,35.1339,36.6892,141.286,97.9362,95.0982,0.00081547,0.0466932,21.0122,-319.402,0.260448,0.0,0.0
6783,1695.5,35.2167,37.0411,142.03,97.8615,95.1244,0.000805322,0.0464139,21.0129,-319.402,0.251252,0.0,0.0
6800,1699.75,35.2376,37.0155,142.41,97.8439,94.8076,0.000472467,0.0465585,21.0116,-319.392,0.279207,0.0,0.0
6817,1704,35.0612,36.9202,141.071,97.8123,94.8655,0.000683446,0.0466816,21.0113,-319.402,0.270944,0.0,0.0
6834,1708.25,35.4858,36.8267,140.85,97.7727,94.8406,0.000783414,0.0467017,21.0132,-319.402,0.269683,0.0,0.0
6851,1712.5,35.5939,36.9736,142.726,97.7616,94.8762,0.00060652,0.0466377,21.0145,-319.392,0.265346,0.0,0.0
6868,1716.75,35.404,36.6193,143.719,97.7544,94.6305,0.0004911,0.0466658,21.0165,-319.402,0.287656,0.0,0.0
6885,1721,35.1678,36.2293,142.649,97.7212,94.6833,0.000617593,0.0464268,21.0157,-319.382,0.279717,0.0,0.0
6902,1725.25,35.2973,36.7222,141.885,97.7196,94.4891,0.000583537,0.0464361,21.0166,-319.372,0.297756,0.0,0.0
6919,1729.5,35.5073,37.0993,145.663,97.716,94.7497,0.00061211,0.0465526,21.017,-319.382,0.273032,0.0,0.0
6936,1733.75,35.4442,36.6176,144.455,97.6936,94.5727,0.000783731,0.0463753,21.016,-319.382,0.28757,0.0,0.0
6953,1738,35.1578,36.9718,142.419,97.684,94.6044,0.000654114,0.0461645,21.0142,-319.372,0.28373,0.0,0.0
6970,1742.25,35.1543,36.7754,146.111,97.6988,94.6164,0.000885427,0.0460065,21.0151,-319.362,0.283946,0.0,0.0
6987,1746.5,35.2931,36.6701,147.608,97.696,94.8492,0.00066576,0.0456518,21.0157,-319.372,0.26193,0.0,0.0
7004,1750.75,35.135,37.3258,143.213,97.6904,95.3092,0.000630587,0.0452715,21.0177,-319.392,0.218573,0.0,0.0
7021,1755,35.1556,36.8319,143.519,97.6868,94.8826,0.000476843,0.0450916,21.0167,-319.382,0.257974,0.0,0.0
7038,1759.25,35.4617,36.7488,140.904,97.6968,95.1921,0.000677839,0.0448351,21.0162,-319.392,0.230034,0.0,0.0
7055,1763.5,35.2326,36.9029,145.067,97.7052,94.8355,0.000628909,0.0451227,21.0162,-319.382,0.264044,0.0,0.0
7072,1767.75,35.5254,36.8692,142.166,97.7072,94.8715,0.000501906,0.0451645,21.0155,-319.402,0.260861,0.0,0.0
7089,1772,35.5601,36.7603,141.778,97.7132,95.1145,0.00045315,0.0454886,21.0136,-319.392,0.238742,0.0,0.0
7106,1776.25,35.4751,36.8429,146.502,97.7068,94.5354,0.000328124,0.0455785,21.0137,-319.412,0.292258,0.0,0.0
7123,1780.5,35.6193,37.0318,144.48,97.7096,94.7591,0.000501153,0.0456861,21.0154,-319.322,0.271571,0.0,0.0
7140,1784.75,35.2294,36.9864,143.782,97.7196,94.9666,0.000704256,0.0457341,21.0148,-319.342,0.253104,0.0,0.0
7157,1789,35.3162,36.7351,145.816,97.7092,94.8775,0.000793465,0.046177,21.0141,-319.352,0.260483,0.0,0.0
7174,1793.25,35.8984,36.6018,143.748,97.724,94.8097,0.000778273,0.0473167,21.0137,-319.382,0.268147,0.0,0.0
7191,1797.5,35.6206,36.7893,141.437,97.736,94.9388,0.000723771,0.0482717,21.0129,-319.382,0.257188,0.0,0.0
7208,1801.75,35.8224,37.0582,143.281,97.73,94.9019,0.000668923,0.0482542,21.013,-319.372,0.260085,0.0,0.0
7225,1806,34.7171,36.7609,142.583,97.7364,94.9199,0.000429195,0.0475858,21.0128,-319.382,0.258985,0.0,0.0
7242,1810.25,34.5359,36.0223,141.453,97.7492,94.7454,0.000625406,0.046817,21.0128,-319.352,0.276439,0.0,0.0
7259,1814.5,34.7558,36.0429,146.526,97.7532,95.1381,0.000693893,0.0463764,21.0128,-319.362,0.240168,0.0,0.0
7276,1818.75,35.0851,36.2986,143.123,97.7256,94.664,0.000702178,0.0459314,21.0157,-319.372,0.28192,0.0,0.0
7293,1823,34.7727,36.2721,143.369,97.7564,94.7742,0.000466811,0.045641,21.0158,-319.372,0.274406,0.0,0.0
7310,1827.25,34.7901,35.9111,140.853,97.7655,94.7369,0.000177403,0.0457073,21.0166,-319.392,0.278724,0.0,0.0
7327,1831.5,34.5176,35.6404,142.067,97.7596,94.7544,0.00036973,0.0458854,21.0168,-319.392,0.276539,0.0,0.0
7344,1835.75,34.718,36.0605,143.445,97.7799,94.9165,0.000540432,0.0460947,21.0168,-319.392,0.263251,0.0,0.0
7361,1840,34.5,35.5375,142.218,97.7987,94.9838,0.000442485,0.0459734,21.0149,-319.392,0.258673,0.0,0.0
7378,1844.25,34.4333,35.9646,142.757,97.8039,94.6897,0.00067229,0.0458828,21.0155,-319.382,0.286609,0.0,0.0
7395,1848.5,34.9688,36.163,142.786,97.8131,95.0074,0.000763968,0.0458481,21.0149,-319.372,0.257779,0.0,0.0
7412,1852.75,34.6747,35.9605,143.3,97.8451,94.724,0.000822107,0.0458412,21.0145,-319.392,0.287128,0.0,0.0
7429,1857,34.3192,35.9075,144.717,97.8463,94.8989,0.000759994,0.046172,21.0132,-319.352,0.270897,0.0,0.0
7446,1861.25,34.4011,36.124,141.418,97.8523,95.0575,0.000540709,0.0465135,21.0106,-319.342,0.256649,0.0,0.0
7463,1865.5,34.6265,35.9182,143.513,97.9014,94.9353,0.00059201,0.0463821,21.0104,-319.372,0.272488,0.0,0.0
7480,1869.75,34.4011,35.5659,145.556,97.9026,95.0532,0.000656872,0.0460463,21.0121,-319.382,0.261605,0.0,0.0
7497,1874,34.6294,35.8718,142.439,97.9042,94.7819,0.000336807,0.0458211,21.0139,-319.372,0.287071,0.0,0.0
7514,1878.25,34.9645,36.1512,142.797,97.9382,95.0807,0.000341391,0.0458124,21.0138,-319.382,0.262266,0.0,0.0
7531,1882.5,34.954,36.1078,143.658,97.9394,94.8856,0.000508278,0.0460027,21.013,-319.382,0.280562,0.0,0.0
7548,1886.75,34.6053,35.8612,144.951,97.9657,95.2221,0.0006629,0.0464632,21.0116,-319.412,0.25159,0.0,0.0
7565,1891,34.5448,35.7709,144.358,98.0061,95.2697,0.000856822,0.0465297,21.0107,-319.412,0.250813,0.0,0.0
7582,1895.25,34.5267,36.1656,143.727,98.0656,95.2093,0.000701802,0.046589,21.0127,-319.402,0.261814,0.0,0.0
7599,1899.5,34.3501,36.408,144.768,98.1028,95.1432,0.000443326,0.0467701,21.0133,-319.412,0.271313,0.0,0.0
7616,1903.75,34.6553,35.7196,139.572,98.1528,95.2942,0.000395538,0.0471891,21.0119,-319.402,0.261785,0.0,0.0
7633,1908,34.3845,36.0714,143.413,98.2263,95.0738,0.000326212,0.0474258,21.0101,-319.402,0.288921,0.0,0.0
7650,1912.25,35.0354,36.0919,140.912,98.2726,96.1211,,0.0476018,,-319.402,0.196069,0.0,0.0
7667,1916.5,34.9934,35.9557,143.804,98.3569,95.3576,,,,-319.402,0.274298,0.0,0.0
7684,1920.75,34.6641,35.893,141.891,98.4125,95.2191,,,,-319.352,0.292167,0.0,0.0
7688,1921.75,34.3061,36.098,141.584,98.4213,95.322,,,,-319.372,0.283394,0.0,0.0