File: 01_Data/Mineral_Wool_Insulation/Cone/Mineral_Wool_Insulation_Cone_HF25Scan_220426_R3.csv
Names,Time,Stack TC,Smoke TC,Exh Press,Smoke Comp,Smoke Meas,CO Meter,CO2 Meter,O2 Meter,Sample Mass,Ext Coeff,Start Test,Flame Verif
Chan Gain,,500,500,1,1,1,1,1,1,1,1,1.0,1.0
Offset,,0,0,0.135223,0,0,0,0,0,0,0,0.0,0.0
Gain,,1,1,25.011,13.0939,14.0471,1,1,1,1.00088,1.00971,1.0,1.0
Units,sec,C,C,Pa,%,%,%,%,%,g,/m,,
Baseline,,20.681,21.3772,151.738,98.9385,94.9113,0.000922962,0.0440352,21.0197,-834.047,0.368072,,
7,1.5,18.7148,19.5565,151.45,98.6431,94.4814,0.000955727,0.0513446,21.0094,-302.086,0.381787,0.0,0.0
14,3.25,18.7987,19.604,149.669,98.6203,94.3875,0.000891039,0.0506675,21.0097,-302.167,0.388547,0.0,0.0
21,5,18.7421,19.201,149.845,98.5691,94.1899,0.000753109,0.0498921,21.0099,-302.157,0.402516,0.0,0.0
28,6.75,18.4569,19.1439,153.919,98.5188,94.2503,0.000691833,0.0489373,21.0111,-302.197,0.392309,0.0,0.0
35,8.5,19.1282,19.5718,152.844,98.4952,94.3202,0.000770905,0.0479301,21.0127,-302.167,0.383624,0.0,0.0
42,10.25,19.1626,19.2826,148.599,98.4493,94.1971,0.000868417,0.0471183,21.014,-302.157,0.391053,0.0,0.0
49,12,18.5818,20.0858,150.406,98.4065,94.3035,0.000986964,0.046116,21.0154,-302.167,0.377214,0.0,0.0
56,13.75,19.2386,19.7641,152.75,98.4117,94.3588,0.00111568,0.0454613,21.017,-302.167,0.372489,0.0,0.0
63,15.5,19.196,19.6881,148.854,98.4265,94.3883,0.00118676,0.0449549,21.0181,-302.177,0.371045,0.0,0.0
70,17.25,18.8084,20.0568,152.444,98.4385,94.4046,0.00119017,0.0444801,21.0196,-302.177,0.370594,0.0,0.0
77,19,19.0886,19.842,154.176,98.4533,94.3918,0.00107907,0.0440363,21.02,-302.157,0.373131,0.0,0.0
84,20.75,18.8681,19.5259,150.833,98.4545,94.3558,0.000875487,0.0437826,21.0202,-302.177,0.376618,0.0,0.0
91,22.5,19.3946,20.0278,150.052,98.4676,94.2867,0.000772861,0.0436633,21.0197,-302.207,0.384285,0.0,0.0
98,24.25,19.4382,20.1033,151.91,98.4912,94.4518,0.000798915,0.0436431,21.0194,-302.197,0.370915,0.0,0.0
105,26,19.4063,20.0456,153.398,98.5024,94.5718,0.000876233,0.0436419,21.0193,-302.217,0.360673,0.0,0.0
112,27.75,19.4616,19.9795,150.89,98.5032,94.5542,0.000966552,0.0435696,21.0192,-302.237,0.362391,0.0,0.0
119,29.5,19.3946,20.172,153.119,98.5164,94.5384,0.00105166,0.0434429,21.0201,-302.237,0.365063,0.0,0.0
126,31.25,19.5411,20.0012,152.263,98.5276,94.5465,0.00109709,0.0433527,21.0211,-302.227,0.365306,0.0,0.0
133,33,19.8356,20.1029,151.548,98.546,94.5808,0.00108365,0.0433204,21.0218,-302.247,0.363745,0.0,0.0
140,34.75,19.6068,20.2901,149.297,98.5647,94.5714,0.00102355,0.0432339,21.0228,-302.217,0.366317,0.0,0.0
147,36.5,19.3118,20.0241,152.312,98.5583,94.673,0.00097506,0.0431221,21.0235,-302.247,0.356231,0.0,0.0
154,38.25,19.6293,20.5068,150.214,98.5779,94.6563,0.00100455,0.0429762,21.0226,-302.267,0.359556,0.0,0.0
161,40,19.4552,20.2539,155.067,98.6031,94.4801,0.00106094,0.0428438,21.0222,-302.277,0.378319,0.0,0.0
168,41.75,19.3283,19.992,149.131,98.6087,94.5585,0.00109575,0.0428981,21.0216,-302.247,0.37147,0.0,0.0
175,43.5,19.6622,20.312,149.732,98.6219,94.7,0.00108577,0.0429541,21.0222,-302.247,0.359413,0.0,0.0
182,45.25,19.4991,20.0882,152.512,98.6415,94.6074,0.00109453,0.0430237,21.0227,-302.227,0.369837,0.0,0.0
189,47,19.8213,20.2495,153.029,98.6598,94.6597,0.00108478,0.0430327,21.0218,-302.247,0.366591,0.0,0.0
196,48.75,20.0479,20.2088,149.694,98.669,94.7707,0.00102554,0.0431197,21.0213,-302.217,0.357034,0.0,0.0
203,50.5,19.7306,20.6491,151.1,98.6794,94.7116,0.000968829,0.0432496,21.0211,-302.247,0.363497,0.0,0.0
210,52.25,19.7731,20.0555,150.53,98.6874,94.7249,0.000937959,0.0431598,21.021,-302.257,0.362972,0.0,0.0
217,54,19.4298,20.1784,150.017,98.7214,94.8985,0.000945062,0.0431451,21.021,-302.257,0.349801,0.0,0.0
224,55.75,19.4512,20.7112,146.734,98.7262,94.7647,0.000998463,0.0432341,21.021,-302.257,0.362723,0.0,0.0
231,57.5,19.7937,20.3462,146.749,98.7414,94.8698,0.00107853,0.0432422,21.0224,-302.257,0.354275,0.0,0.0
238,59.25,19.8418,20.4839,148.71,98.7494,94.8582,0.00117379,0.0432048,21.0233,-302.237,0.356072,0.0,0.0
245,61,19.3816,20.5719,153.078,98.7653,94.8933,0.00126532,0.043148,21.0237,-302.247,0.354224,0.0,0.0
252,62.75,20.2604,20.2604,151.141,98.7909,94.814,0.00132603,0.0431929,21.0239,-302.257,0.363922,0.0,0.0
259,64.5,19.7772,20.5787,149.64,98.8037,94.7853,0.00131058,0.043257,21.024,-302.287,0.367752,0.0,0.0
266,66.25,19.7775,20.6746,150.833,98.8073,94.8556,0.00124363,0.0433559,21.0241,-302.277,0.361508,0.0,0.0
273,68,19.9751,20.7765,152.715,98.8129,94.9311,0.00114882,0.0433242,21.0241,-302.277,0.354966,0.0,0.0
280,69.75,19.8986,20.9216,147.175,98.8313,94.9816,0.00104714,0.043233,21.0241,-302.277,0.351896,0.0,0.0
287,71.5,20.0471,20.4858,153.298,98.8528,94.9671,0.00104386,0.0431975,21.0241,-302.277,0.355188,0.0,0.0
294,73.25,20.3246,20.9893,151.347,98.87,94.8873,0.00113985,0.0433307,21.0241,-302.277,0.364167,0.0,0.0
301,75,20.3598,21.2201,150.907,98.8832,94.9666,0.00123674,0.0433357,21.0241,-302.277,0.357949,0.0,0.0
308,76.75,20.2805,20.587,151.141,98.8892,94.9949,0.00120792,0.0434263,21.0241,-302.277,0.355848,0.0,0.0
315,78.5,20.4513,20.8504,150.068,98.9072,94.8792,0.00109869,0.0434937,21.0241,-302.277,0.368257,0.0,0.0
322,80.25,20.3401,20.9167,148.991,98.914,94.9516,0.00094355,0.0435045,21.0241,-302.287,0.362105,0.0,0.0
329,82,20.4006,20.8331,146.646,98.928,94.8427,0.000825751,0.0433972,21.0241,-302.277,0.373519,0.0,0.0
336,83.75,20.1128,20.77,150.858,98.9324,94.8762,0.000716319,0.0433135,21.0241,-302.287,0.370791,0.0,0.0
343,85.5,19.8612,20.5351,149.818,98.9487,94.8565,0.000647043,0.0433768,21.0241,-302.287,0.374098,0.0,0.0
350,87.25,20.7213,21.4646,150.225,98.9779,95.0361,0.000637059,0.0435075,21.0241,-302.297,0.359954,0.0,0.0
357,89,20.2319,21.2622,150.535,98.9707,94.9233,0.000696717,0.0435028,21.0241,-302.317,0.369823,0.0,0.0
364,90.75,19.7077,21.4225,148.813,98.9719,94.9786,0.000792964,0.0434188,21.0241,-302.317,0.364772,0.0,0.0
371,92.5,20.3603,21.3222,150.646,98.9731,94.9885,0.000850705,0.0432959,21.0241,-302.317,0.36396,0.0,0.0
378,94.25,20.2528,20.9721,153.922,98.9923,94.9688,0.000857634,0.043331,21.0241,-302.307,0.367514,0.0,0.0
385,96,20.5859,20.994,150.954,99.0007,94.9443,0.000868806,0.0433869,21.0241,-302.327,0.370544,0.0,0.0
392,97.75,20.1961,21.1096,154.018,99.0015,94.9662,0.000871152,0.0434621,21.0241,-302.317,0.368578,0.0,0.0
399,99.5,20.3937,20.9263,148.862,99.0075,94.9705,0.000885133,0.0435645,21.0241,-302.317,0.368715,0.0,0.0
406,101.25,20.1706,21.2297,147.414,99.0167,95.0391,0.000948719,0.0435607,21.0241,-302.327,0.363141,0.0,0.0
413,103,20.6491,21.5547,149.184,99.0331,95.1047,0.00107645,0.0435947,21.0233,-302.317,0.358497,0.0,0.0
420,104.75,20.8304,21.2961,150.43,99.0307,95.0832,0.0011583,0.043748,21.0229,-302.327,0.360278,0.0,0.0
427,106.5,20.4716,21.0724,152.547,99.0295,95.0387,0.0011418,0.0438172,21.0227,-302.337,0.364325,0.0,0.0
434,108.25,20.362,21.0979,150.314,99.0459,94.9242,0.00104824,0.0437556,21.0225,-302.337,0.376464,0.0,0.0
441,110,20.4281,21.2596,152.171,99.0474,95.1128,0.000950579,0.0437622,21.0225,-302.337,0.359024,0.0,0.0
448,111.75,20.6686,21.4301,150.467,99.0698,95.1287,0.000961081,0.0437293,21.0225,-302.337,0.359548,0.0,0.0
455,113.5,20.8026,21.7293,151.019,99.0634,95.1454,0.00099553,0.0437472,21.0225,-302.337,0.35742,0.0,0.0
462,115.25,20.1941,21.0136,157.681,99.0686,95.1728,0.00100927,0.0437668,21.0215,-302.337,0.355332,0.0,0.0
469,117,20.2504,21.1229,149.235,99.0858,95.1248,0.00100597,0.0438219,21.0208,-302.337,0.361336,0.0,0.0
476,118.75,20.3108,21.4441,153.031,99.0962,95.0639,0.000989819,0.0438996,21.0213,-302.347,0.367935,0.0,0.0
483,120.5,20.2546,20.845,149.529,99.0946,95.0031,0.000982795,0.0438894,21.0215,-302.337,0.373465,0.0,0.0
490,122.25,20.7071,20.924,151.718,99.0958,95.2101,0.000969627,0.0439298,21.0208,-302.337,0.35429,0.0,0.0
497,124,20.1087,21.2906,150.172,99.1138,95.0772,0.000945984,0.0439968,21.0205,-302.347,0.368269,0.0,0.0
504,125.75,20.2811,21.0747,148.333,99.1158,95.2033,0.000882022,0.0439539,21.0201,-302.347,0.356713,0.0,0.0
511,127.5,20.2973,21.3776,146.906,99.119,95.265,0.000795868,0.043957,21.0198,-302.357,0.351258,0.0,0.0
518,129.25,20.0262,21.2599,151.624,99.1122,95.1454,0.00076301,0.0440226,21.0196,-302.347,0.361778,0.0,0.0
525,131,20.0646,21.4378,147.92,99.1258,95.1488,0.000818103,0.0440211,21.0195,-302.347,0.362672,0.0,0.0
532,132.75,20.5628,21.6413,153.605,99.1458,95.2744,0.00090678,0.0440699,21.0195,-302.347,0.352774,0.0,0.0
539,134.5,20.5522,21.3304,145.866,99.1469,95.2346,0.000941466,0.0440203,21.0195,-302.357,0.356588,0.0,0.0
546,136.25,20.5538,21.7339,147.495,99.1553,95.2148,0.000880851,0.0440089,21.0195,-302.347,0.359171,0.0,0.0
553,138,20.6552,21.3106,148.101,99.1617,95.2354,0.000776002,0.0440332,21.0195,-302.347,0.357828,0.0,0.0
560,139.75,20.6814,21.276,154.364,99.1701,95.175,0.000743793,0.0440088,21.0195,-302.357,0.364201,0.0,0.0
567,141.5,20.559,21.642,149.83,99.1701,95.1707,0.000793601,0.044054,21.0195,-302.357,0.364601,0.0,0.0
574,143.25,20.9301,21.1925,153.934,99.1685,95.1583,0.000824246,0.0441057,21.0195,-302.367,0.365614,0.0,0.0
581,145,20.537,21.4746,151.618,99.1817,95.2213,0.000787341,0.0440188,21.0195,-302.367,0.360929,0.0,0.0
588,146.75,20.8741,21.4929,149.023,99.1773,95.1638,0.000727924,0.0439915,21.0195,-302.377,0.365881,0.0,0.0
595,148.5,20.6465,21.3747,147.954,99.1849,95.0832,0.000703894,0.0441378,21.0195,-302.377,0.374063,0.0,0.0
602,150.25,20.5087,21.2794,149.772,99.1913,95.3302,0.000762126,0.0441712,21.0195,-302.377,0.351663,0.0,0.0
609,152,20.5509,21.6112,147.73,99.1973,95.211,0.000893745,0.0441108,21.0195,-302.387,0.363277,0.0,0.0
616,153.75,20.6911,21.2176,151.348,99.1893,95.2247,0.000970102,0.0440753,21.0204,-302.387,0.361288,0.0,0.0
623,155.5,20.7416,21.6274,154.088,99.1973,95.2693,0.000992232,0.04412,21.0211,-302.387,0.357855,0.0,0.0
630,157.25,20.9041,21.4122,150.216,99.2049,95.3173,0.000936938,0.0440514,21.0215,-302.377,0.354071,0.0,0.0
637,159,20.3638,21.0784,151.203,99.1989,95.1964,0.000859044,0.0440796,21.0216,-302.387,0.364776,0.0,0.0
644,160.75,20.8308,21.2509,147.341,99.1841,95.3079,0.000821171,0.0441732,21.0217,-302.387,0.353092,0.0,0.0
651,162.5,20.722,20.7266,146.402,99.2001,95.3349,0.000782563,0.0440534,21.0218,-302.377,0.35201,0.0,0.0
658,164.25,20.6649,21.0897,147.682,99.2017,95.1883,0.000696491,0.0440117,21.0218,-302.387,0.365783,0.0,0.0
665,166,20.3129,21.111,151.575,99.2121,95.2243,0.000577264,0.0440815,21.0218,-302.397,0.363361,0.0,0.0
672,167.75,20.3622,21.5879,151.009,99.1965,95.253,0.000546433,0.0441341,21.0218,-302.387,0.359299,0.0,0.0
679,169.5,20.7353,21.2556,144.27,99.2061,95.2783,0.000679756,0.0441997,21.0218,-302.397,0.357803,0.0,0.0
686,171.25,20.6204,21.3319,148.302,99.2097,95.301,0.000820514,0.0441761,21.0218,-302.387,0.356012,0.0,0.0
693,173,20.7828,21.7823,148.842,99.2137,95.2736,0.000968901,0.0441146,21.0209,-302.387,0.35892,0.0,0.0
700,174.75,20.793,21.8303,150.209,99.2197,95.3297,0.0010047,0.0441083,21.0205,-302.397,0.354236,0.0,0.0
707,176.5,20.6814,20.9727,152.17,99.1969,95.1437,0.000951643,0.0440447,21.0203,-302.387,0.369506,0.0,0.0
714,178.25,20.6292,21.1799,153.06,99.2097,95.2148,0.000874025,0.0439666,21.0202,-302.407,0.364024,0.0,0.0
721,180,20.5245,21.5105,151.712,99.2129,95.2067,0.000796377,0.044051,21.0202,-302.407,0.365068,0.0,0.0
728,181.75,20.415,21.2358,149.539,99.2117,95.325,0.000748108,0.0440767,21.0201,-302.397,0.353961,0.0,0.0
735,183.5,20.459,21.3268,150.474,99.2109,95.1754,0.000759726,0.0440432,21.0193,-302.417,0.367801,0.0,0.0
742,185.25,20.4698,21.4392,150.09,99.2101,95.2067,0.000821285,0.0439285,21.0193,-302.407,0.364817,0.0,0.0
749,187,20.3917,21.1184,148.719,99.2137,95.2774,0.000912681,0.04402,21.0193,-302.407,0.358562,0.0,0.0
756,188.75,20.8627,21.7409,151.234,99.2153,95.2268,0.000953166,0.0441114,21.0192,-302.397,0.363407,0.0,0.0
763,190.5,20.1729,21.6885,151.58,99.2029,95.3902,0.000867975,0.0440614,21.0197,-302.417,0.347123,0.0,0.0
770,192.25,20.3405,21.5724,151.161,99.2209,95.2067,0.000735424,0.0439856,21.0199,-302.407,0.365781,0.0,0.0
777,194,21.0376,21.3956,152.961,99.2093,95.2238,0.000656972,0.0440133,21.02,-302.407,0.363151,0.0,0.0
784,195.75,21.1324,21.8997,150.548,99.2173,95.3516,0.000712858,0.0440989,21.0204,-302.407,0.351991,0.0,0.0
791,197.5,20.4667,21.2798,148.281,99.2137,95.2054,0.000838588,0.0441915,21.0197,-302.417,0.365258,0.0,0.0
798,199.25,20.6479,21.652,151.615,99.2105,95.1368,0.000872103,0.04425,21.0194,-302.407,0.371357,0.0,0.0
805,201,20.9828,21.1451,153.988,99.2133,95.3572,0.000812365,0.0442917,21.0193,-302.427,0.351116,0.0,0.0
812,202.75,20.5471,21.6605,146.735,99.2161,95.2041,0.000786883,0.0443134,21.0192,-302.417,0.365593,0.0,0.0
819,204.5,20.7305,21.454,156.555,99.2089,95.0567,0.000866741,0.0443923,21.0201,-302.417,0.37868,0.0,0.0
826,206.25,20.7038,21.3712,149.452,99.2125,95.2508,0.00096315,0.0443806,21.0202,-302.427,0.360925,0.0,0.0
833,208,20.4993,21.7083,149.891,99.1905,95.1947,0.000961549,0.0443887,21.0196,-302.417,0.364186,0.0,0.0
840,209.75,20.5824,21.5275,150.691,99.1977,95.1733,0.000817992,0.0443661,21.0207,-302.407,0.366823,0.0,0.0
847,211.5,20.6172,21.5425,151.112,99.1909,95.1583,0.000729794,0.0443407,21.0204,-302.407,0.367613,0.0,0.0
854,213.25,20.8414,21.8394,150.287,99.2029,95.1968,0.000699577,0.0443586,21.0209,-302.397,0.365092,0.0,0.0
861,215,20.4281,20.9319,152.015,99.1785,95.0661,0.000677568,0.0445147,21.021,-302.397,0.37509,0.0,0.0
868,216.75,20.9647,21.6745,151.9,99.1945,95.2196,0.000637662,0.04457,21.02,-302.407,0.362229,0.0,0.0
875,218.5,20.4456,21.2558,148.258,99.1953,95.175,0.000636516,0.0445891,21.0196,-302.417,0.36645,0.0,0.0
882,220.25,20.7233,21.4438,148.713,99.1665,95.2466,0.000656303,0.0445354,21.0193,-302.417,0.35722,0.0,0.0
889,222,20.6164,21.7313,149.799,99.1525,95.1394,0.000574778,0.0444444,21.0192,-302.427,0.365943,0.0,0.0
896,223.75,20.7,21.6616,149.753,99.1481,95.1098,0.000471307,0.0443826,21.0192,-302.427,0.368303,0.0,0.0
903,225.5,20.8843,21.6987,151.144,99.1581,95.1926,0.000517773,0.04445,21.0191,-302.427,0.361494,0.0,0.0
910,227.25,20.6468,21.6662,151.283,99.1358,95.3113,0.000684723,0.0444091,21.0191,-302.427,0.348454,0.0,0.0
917,229,20.5917,21.602,151.451,99.1218,95.2341,0.000841852,0.0444133,21.0191,-302.417,0.354378,0.0,0.0
924,230.75,20.8591,21.8115,150.412,99.0994,95.0279,0.000897258,0.0444543,21.0195,-302.427,0.371576,0.0,0.0
931,232.5,20.2536,21.528,151.297,99.0922,95.1,0.000928743,0.0444129,21.0195,-302.417,0.364224,0.0,0.0
938,234.25,21.0301,21.517,150.647,99.079,95.0464,0.000938124,0.0442875,21.0189,-302.417,0.368037,0.0,0.0
945,236,20.462,21.2721,150.229,99.0614,95.2286,0.000932381,0.0443465,21.0186,-302.417,0.349503,0.0,0.0
952,237.75,20.8014,21.5218,147.882,99.0351,95.1342,0.000912633,0.0445432,21.0184,-302.407,0.355922,0.0,0.0
959,239.5,21.0225,21.7216,152.051,99.0231,95.0399,0.000884282,0.044501,21.0183,-302.407,0.363633,0.0,0.0
966,241.25,20.5934,21.6309,151.393,99.0127,94.9503,0.000871788,0.0444623,21.0185,-302.417,0.371059,0.0,0.0
973,243,20.7094,21.483,146.632,99.0031,95.0502,0.000899076,0.0443993,21.0188,-302.417,0.360888,0.0,0.0
980,244.75,20.6163,21.7281,149.267,98.9871,95.0811,0.000926478,0.0443372,21.0202,-302.417,0.356582,0.0,0.0
987,246.5,20.8814,22.0218,149.274,98.9675,95.0515,0.000920944,0.0443273,21.0208,-302.427,0.357585,0.0,0.0
994,248.25,21.0078,21.1352,150.384,98.9639,94.9722,0.000878231,0.0442978,21.0212,-302.437,0.364656,0.0,0.0
1001,250,20.6533,21.8953,150.587,98.9468,95.0459,0.000802558,0.0442284,21.0213,-302.437,0.356245,0.0,0.0
1008,251.75,20.6917,21.3091,150.88,98.9284,94.9924,0.000699827,0.0442131,21.0219,-302.437,0.359594,0.0,0.0
1015,253.5,20.6687,21.7335,149.112,98.9028,95.0588,0.000691353,0.0441754,21.0224,-302.427,0.351111,0.0,0.0
1022,255.25,20.7728,21.5085,150.849,98.9096,94.8299,0.000779906,0.0441378,21.0227,-302.427,0.373075,0.0,0.0
1029,257,20.8885,21.6544,152.442,98.8816,94.8809,0.000903208,0.0440092,21.0228,-302.427,0.365805,0.0,0.0
1036,258.75,20.4686,21.2014,148.001,98.8588,94.9311,0.000951381,0.0439953,21.0229,-302.427,0.359085,0.0,0.0
1043,260.5,20.6841,22.0717,150.105,98.8421,94.9568,0.000925262,0.044036,21.0229,-302.427,0.355181,0.0,0.0
1050,262.25,20.7331,21.8372,148.751,98.8265,94.8698,0.000877442,0.0440242,21.0232,-302.417,0.361906,0.0,0.0
1057,264,20.7037,21.7109,151.23,98.8209,94.8539,0.000796671,0.0439841,21.0233,-302.447,0.362885,0.0,0.0
1064,265.75,20.891,21.9101,147.858,98.7953,94.8672,0.000683926,0.0439478,21.0228,-302.447,0.359351,0.0,0.0
1071,267.5,21.092,21.7865,148.704,98.7585,94.7776,0.000626457,0.0438367,21.0224,-302.437,0.364424,0.0,0.0
1078,269.25,20.8274,21.5448,152.131,98.733,94.8989,0.000663206,0.0438448,21.0216,-302.447,0.3508,0.0,0.0
1085,271,20.7101,21.6065,148.836,98.715,94.8376,0.000765861,0.043922,21.0207,-302.447,0.354911,0.0,0.0
1092,272.75,21.1471,21.8477,149,98.7038,94.664,0.000828605,0.0440514,21.0202,-302.447,0.370135,0.0,0.0
1099,274.5,20.9232,21.6815,150.725,98.6814,94.7441,0.000799647,0.0441164,21.02,-302.437,0.36063,0.0,0.0
1106,276.25,20.8507,21.7849,150.977,98.6622,94.7613,0.000720727,0.0440733,21.0199,-302.457,0.357306,0.0,0.0
1113,278,20.6498,21.4144,149.456,98.6475,94.7073,0.000671983,0.0441238,21.0198,-302.457,0.361028,0.0,0.0
1120,279.75,20.8327,21.4788,151.593,98.6439,94.598,0.000688352,0.0442019,21.0194,-302.457,0.370934,0.0,0.0
1127,281.5,20.3198,21.6987,149.673,98.6259,94.6571,0.000658537,0.0442782,21.0184,-302.447,0.363783,0.0,0.0
1134,283.25,20.9639,21.6388,148.651,98.6107,94.7673,0.000589514,0.0443444,21.0178,-302.437,0.352117,0.0,0.0
1141,285,20.6563,21.8605,151.819,98.5827,94.544,0.000624456,0.044468,21.018,-302.437,0.370502,0.0,0.0
1148,286.75,20.573,21.6698,150.054,98.5779,94.6254,0.000717487,0.0445447,21.0185,-302.447,0.362444,0.0,0.0
1155,288.5,21.1572,21.4894,153.237,98.5635,94.6275,0.000829053,0.0446006,21.02,-302.457,0.36095,0.0,0.0
1162,290.25,21.0699,21.8054,149.306,98.5452,94.7013,0.000899904,0.0446234,21.0202,-302.457,0.352401,0.0,0.0
1169,292,20.9557,21.6655,150.742,98.518,94.5371,0.000869342,0.0446796,21.0206,-302.457,0.365327,0.0,0.0
1176,293.75,20.8341,21.6878,148.92,98.5024,94.6481,0.000804223,0.0446712,21.0223,-302.457,0.353529,0.0,0.0
1183,295.5,20.6147,21.8282,150.859,98.4968,94.6361,0.000800557,0.0447852,21.0228,-302.457,0.354151,0.0,0.0
1190,297.25,20.4681,21.3267,147.591,98.478,94.643,0.000817094,0.0448058,21.0225,-302.457,0.351819,0.0,0.0
1197,299,20.6546,21.7285,151.538,98.4548,94.4934,0.000835675,0.0448883,21.0223,-302.467,0.363746,0.0,0.0
1204,300.75,20.7425,21.9982,154.972,98.4517,94.4814,0.000918923,0.0450262,21.0222,-302.457,0.364584,0.0,0.0
1211,302.5,20.7974,21.7255,150.755,98.4297,94.4295,0.000974996,0.045023,21.0222,-302.467,0.367471,0.0,0.0
1218,304.25,20.8675,21.6394,149.975,98.4189,94.568,0.000935907,0.0450477,21.022,-302.467,0.353522,0.0,0.0
1225,306,20.7276,21.7968,152.75,98.4261,94.5722,0.000902068,0.045066,21.0216,-302.457,0.353767,0.0,0.0
1232,307.75,20.4783,21.6613,149.133,98.3977,94.5174,0.000926548,0.0450513,21.0215,-302.457,0.356354,0.0,0.0
1239,309.5,20.9292,22.0725,146.752,98.3849,94.4822,0.000951833,0.0450569,21.0214,-302.457,0.358498,0.0,0.0
1246,311.25,20.5637,21.6831,145.679,98.3889,94.4754,0.000968651,0.0450979,21.0202,-302.457,0.3595,0.0,0.0
1253,313,20.801,21.5412,151.488,98.3773,94.4063,0.000918879,0.0451175,21.0191,-302.467,0.36493,0.0,0.0
1260,314.75,20.8955,21.8039,151.467,98.3653,94.4822,0.000775044,0.0451563,21.0186,-302.467,0.356735,0.0,0.0
1267,316.5,20.9544,21.6111,151.973,98.3534,94.4509,0.000695767,0.0452169,21.0184,-302.457,0.35859,0.0,0.0
1274,318.25,20.5932,21.9734,154.108,98.3593,94.4394,0.000722235,0.0451672,21.019,-302.477,0.360215,0.0,0.0
1281,320,20.7053,21.6624,151.693,98.3378,94.3429,0.000790697,0.0450353,21.0198,-302.467,0.367322,0.0,0.0
1288,321.75,20.5954,21.363,149.232,98.3442,94.4689,0.000819609,0.0449002,21.0201,-302.467,0.356074,0.0,0.0
1295,323.5,20.8103,21.9644,148.326,98.3298,94.5169,0.000843796,0.044891,21.0203,-302.477,0.350278,0.0,0.0
1302,325.25,20.7393,21.3825,152.062,98.3418,94.3703,0.00089739,0.0448615,21.0201,-302.487,0.365106,0.0,0.0
1309,327,20.5697,21.4466,149.442,98.331,94.3322,0.000963125,0.044858,21.0191,-302.467,0.367717,0.0,0.0
1316,328.75,20.7898,21.3587,149.598,98.313,94.4312,0.000983085,0.0449772,21.0186,-302.467,0.356804,0.0,0.0
1323,330.5,20.9971,21.7858,151.077,98.2878,94.4089,0.000963472,0.0450238,21.0183,-302.477,0.356627,0.0,0.0
1330,332.25,20.9458,21.7435,150.344,98.2882,94.4162,0.000925169,0.0450291,21.017,-302.477,0.35598,0.0,0.0
1337,334,21.055,21.751,149.194,98.2902,94.3845,0.000870102,0.0451235,21.0163,-302.477,0.359135,0.0,0.0
1344,335.75,20.9321,21.9026,149.514,98.271,94.3635,0.000789409,0.0452047,21.0158,-302.477,0.359378,0.0,0.0
1351,337.5,20.5043,21.6435,149.562,98.281,94.5993,0.000718204,0.0452386,21.0156,-302.477,0.338176,0.0,0.0
1358,339.25,21.0506,21.7391,151.643,98.2638,94.33,0.000698655,0.0454463,21.0155,-302.477,0.361869,0.0,0.0
1365,341,20.8512,21.8582,151.248,98.2555,94.36,0.000659052,0.0455556,21.0155,-302.477,0.358296,0.0,0.0
1372,342.75,20.6361,21.9677,146.657,98.2467,94.3176,0.00062236,0.0455024,21.0155,-302.477,0.361488,0.0,0.0
1379,344.5,20.9517,21.6189,149.603,98.2319,94.3588,0.000610694,0.0454882,21.0155,-302.477,0.356291,0.0,0.0
1386,346.25,21.22,21.5385,151.55,98.2115,94.2576,0.000536006,0.045478,21.0155,-302.477,0.363954,0.0,0.0
1393,348,20.7921,21.7628,153.811,98.2199,94.3228,0.000416514,0.0453937,21.0155,-302.497,0.35859,0.0,0.0
1400,349.75,21.1964,21.8045,151.152,98.2127,94.2807,0.000332595,0.045342,21.0155,-302.487,0.361888,0.0,0.0
1407,351.5,20.7212,22.3482,153.64,98.1995,94.2349,0.000304354,0.0451921,21.0164,-302.457,0.365008,0.0,0.0
1414,353.25,21.2268,21.5635,149.187,98.1827,94.2212,0.000365271,0.0450661,21.0171,-302.477,0.364784,0.0,0.0
1421,355,20.6317,21.7525,148.576,98.1695,94.195,0.000498416,0.0449344,21.0175,-302.487,0.366053,0.0,0.0
1428,356.75,21.1253,21.9381,150.745,98.1759,94.2272,0.000611035,0.0448894,21.0177,-302.477,0.363607,0.0,0.0
1435,358.5,20.6929,21.4393,150.284,98.1564,94.2443,0.000701126,0.0448289,21.0183,-302.477,0.360229,0.0,0.0
1442,360.25,20.9094,21.9967,153.437,98.1412,94.204,0.000735146,0.0447146,21.0195,-302.477,0.362647,0.0,0.0
1449,362,21.1142,21.9513,150.382,98.118,94.129,0.000713817,0.0446138,21.0203,-302.487,0.367611,0.0,0.0
1456,363.75,21.3149,21.8229,151.359,98.126,94.237,0.000684028,0.0444116,21.0195,-302.487,0.358173,0.0,0.0
1463,365.5,21.3465,22.2061,146.169,98.1204,94.132,0.000688681,0.0443216,21.0192,-302.467,0.367545,0.0,0.0
1470,367.25,20.5942,21.9863,153.885,98.1076,94.207,0.000703472,0.0442234,21.0201,-302.467,0.359334,0.0,0.0
1477,369,20.606,21.5116,151.423,98.0956,94.2683,0.000667425,0.0441123,21.0206,-302.467,0.352491,0.0,0.0
1484,370.75,20.2338,21.4643,150.163,98.0908,94.1624,0.000600352,0.0440466,21.0209,-302.477,0.362012,0.0,0.0
1491,372.5,21.1272,22.193,151.432,98.0756,94.3163,0.000549064,0.0439957,21.021,-302.467,0.346177,0.0,0.0
1498,374.25,21.0346,21.5669,149.747,98.0864,94.1461,0.000541818,0.0439828,21.0206,-302.487,0.363147,0.0,0.0
1505,376,20.8971,21.8161,149.944,98.0692,94.2203,0.000549986,0.0439068,21.0196,-302.487,0.354621,0.0,0.0
1512,377.75,21.2531,21.8611,150.513,98.062,94.3699,0.000515078,0.0437985,21.0192,-302.497,0.33992,0.0,0.0
1519,379.5,21.3122,22.0218,153.337,98.0644,94.1264,0.000511345,0.0437856,21.019,-302.477,0.363018,0.0,0.0
1526,381.25,20.566,21.9356,152.045,98.0581,94.0523,0.000620115,0.0437745,21.0206,-302.477,0.369421,0.0,0.0
1533,383,20.5933,21.8157,146.927,98.0513,94.051,0.000735944,0.0437114,21.0215,-302.487,0.368929,0.0,0.0
1540,384.75,21.1099,21.489,154.033,98.0361,94.1616,0.000747303,0.0436556,21.022,-302.487,0.357148,0.0,0.0
1547,386.5,20.4663,21.9406,153.636,98.0349,94.1058,0.000731174,0.0435971,21.0222,-302.497,0.362283,0.0,0.0
1554,388.25,20.6705,21.8156,153.064,98.0381,94.12,0.000732662,0.0435326,21.0223,-302.507,0.36124,0.0,0.0
1561,390,20.9481,21.6761,151.937,98.0289,94.0197,0.000727376,0.043463,21.0224,-302.477,0.369856,0.0,0.0
1568,391.75,20.7004,21.606,148.408,98.0077,94.0617,0.000764714,0.0434994,21.0224,-302.487,0.363985,0.0,0.0
1575,393.5,21.2301,21.92,149.279,98.0053,94.0737,0.000820488,0.0434567,21.0224,-302.487,0.362638,0.0,0.0
1582,395.25,20.9061,21.8539,149.158,98.0073,94.0201,0.000873113,0.0434603,21.0224,-302.467,0.367865,0.0,0.0
1589,397,21.0652,21.9402,152.083,98.0009,94.1564,0.00092814,0.0434313,21.0224,-302.487,0.354454,0.0,0.0
1596,398.75,20.6947,21.8899,148.815,97.9817,94.0818,0.000980241,0.043434,21.0224,-302.467,0.35974,0.0,0.0
1603,400.5,20.3868,21.9809,148.397,97.965,94.0595,0.00104951,0.0433987,21.0224,-302.487,0.360322,0.0,0.0
1610,402.25,20.4862,22.0604,153.734,97.9613,94.1924,0.00104123,0.0434351,21.0224,-302.477,0.347491,0.0,0.0
1617,404,20.6165,21.7056,149.586,97.9534,94.1303,0.000903409,0.0434129,21.0226,-302.477,0.352616,0.0,0.0
1624,405.75,21.2188,22.5711,148.311,97.939,93.9365,0.000674861,0.0434252,21.0232,-302.497,0.369565,0.0,0.0
1631,407.5,20.7843,21.8884,156.687,97.9266,94.0077,0.000566407,0.0434183,21.0235,-302.497,0.361739,0.0,0.0
1638,409.25,20.7749,21.8108,148.649,97.915,93.9464,0.0005484,0.0434763,21.0236,-302.477,0.366468,0.0,0.0
1645,411,21.4233,21.6538,149.252,97.9062,94.0951,0.000578864,0.0435926,21.0237,-302.477,0.351659,0.0,0.0
1652,412.75,20.7275,21.8862,151.509,97.899,94.018,0.000618591,0.0436093,21.0237,-302.477,0.358275,0.0,0.0
1659,414.5,21.3015,21.7094,152.229,97.8906,93.9447,0.000644415,0.0435302,21.0237,-302.467,0.364424,0.0,0.0
1666,416.25,21.2988,21.7052,149.912,97.8706,94.0741,0.000671767,0.0435158,21.0237,-302.497,0.35042,0.0,0.0
1673,418,20.925,21.75,147.455,97.8639,93.8842,0.000710376,0.0434782,21.0237,-302.487,0.367703,0.0,0.0
1680,419.75,20.9682,22.1721,151.306,97.8722,93.8598,0.000792195,0.0433768,21.0237,-302.487,0.370767,0.0,0.0
1687,421.5,20.7887,21.7018,150.349,97.8662,93.9404,0.000892313,0.0433696,21.0237,-302.497,0.362623,0.0,0.0
1694,423.25,20.9039,21.9957,150.412,97.8523,94.0222,0.000947784,0.0433854,21.0237,-302.487,0.35364,0.0,0.0
1701,425,20.9121,21.5764,149.331,97.8475,93.9751,0.000918782,0.0434315,21.0237,-302.497,0.357649,0.0,0.0
1708,426.75,21.2453,22.1065,148.695,97.8595,93.9991,0.000784515,0.0434882,21.0227,-302.487,0.356473,0.0,0.0
1715,428.5,21.1142,21.8724,153.024,97.8539,93.9609,0.000655663,0.0434628,21.0226,-302.487,0.359561,0.0,0.0
1722,430.25,21.0907,21.8034,150.257,97.8575,94.0158,0.000651556,0.0434723,21.0235,-302.487,0.354717,0.0,0.0
1729,432,21.3468,21.7805,150.066,97.8311,93.8422,0.000741467,0.0434624,21.0239,-302.487,0.3687,0.0,0.0
1736,433.75,21.0746,21.7964,149.299,97.8303,94.024,0.000796094,0.0435261,21.0242,-302.487,0.351489,0.0,0.0
1743,435.5,21.1565,21.7888,155.552,97.8223,93.8675,0.000819353,0.0436024,21.0243,-302.497,0.365518,0.0,0.0
1750,437.25,21.3092,21.5457,147.69,97.8055,93.9961,0.000820063,0.0435139,21.0243,-302.487,0.351872,0.0,0.0
1757,439,21.0434,22.2579,148.655,97.7943,93.8992,0.000793606,0.0433655,21.0244,-302.497,0.359991,0.0,0.0
1764,440.75,21.3691,21.9225,148.958,97.7907,94,0.000731998,0.0435132,21.0244,-302.517,0.350169,0.0,0.0
1771,442.5,21.2237,21.6483,149.961,97.7835,93.7762,0.000663358,0.043634,21.0244,-302.507,0.370628,0.0,0.0
1778,444.25,21.151,21.9623,151.077,97.7687,93.9772,0.000583919,0.0435949,21.0244,-302.507,0.350318,0.0,0.0
1785,446,20.7916,22.067,148.805,97.7672,93.8598,0.0005852,0.0434995,21.0244,-302.507,0.361251,0.0,0.0
1792,447.75,21.1392,21.9792,152.742,97.7532,93.8383,0.000688458,0.043461,21.0244,-302.507,0.362007,0.0,0.0
1799,449.5,21.6653,22.2428,150.532,97.7632,93.9434,0.000790274,0.0433988,21.0241,-302.497,0.353004,0.0,0.0
1806,451.25,21.5438,21.8349,149.77,97.7548,93.9357,0.000851587,0.0433644,21.0234,-302.497,0.352972,0.0,0.0
1813,453,21.1608,21.7962,147.539,97.7448,93.8242,0.000890408,0.043328,21.0221,-302.507,0.362582,0.0,0.0
1820,454.75,21.4489,22.4357,150.586,97.72,93.8426,0.000840605,0.0433726,21.0212,-302.507,0.358596,0.0,0.0
1827,456.5,21.1405,22.0776,148.722,97.7364,93.9138,0.000703342,0.043397,21.0208,-302.497,0.353368,0.0,0.0
1834,458.25,21.2184,22.3554,148.73,97.7192,93.8053,0.00059911,0.0435074,21.0206,-302.507,0.362046,0.0,0.0
1841,460,21.2286,22.3611,153.061,97.7188,93.8641,0.000610261,0.0436449,21.0205,-302.507,0.356465,0.0,0.0
1848,461.75,21.0422,22.0794,151.977,97.7052,93.8696,0.000669127,0.0437623,21.0204,-302.497,0.354708,0.0,0.0
1855,463.5,21.1358,21.7712,151.404,97.698,93.7505,0.000715728,0.0437654,21.0204,-302.497,0.365308,0.0,0.0
1862,465.25,21.3792,21.8705,151.409,97.6992,93.6763,0.000740627,0.0438254,21.0204,-302.507,0.372426,0.0,0.0
1869,467,20.9774,21.8222,146.642,97.6868,93.7192,0.000721389,0.0438847,21.0204,-302.517,0.367251,0.0,0.0
1876,468.75,21.5685,21.8187,151.731,97.6633,93.9104,0.000674927,0.0438477,21.0204,-302.517,0.347062,0.0,0.0
1883,470.5,21.3237,22.2136,151.234,97.6505,93.7616,0.000623749,0.0437328,21.0204,-302.507,0.359942,0.0,0.0
1890,472.25,21.4272,22.1579,149.377,97.6537,93.7685,0.000560255,0.0437527,21.0204,-302.497,0.359585,0.0,0.0
1897,474,21.1446,22.2726,153.021,97.6617,93.7517,0.00054974,0.0437034,21.0217,-302.507,0.361889,0.0,0.0
1904,475.75,21.0623,21.8903,147.427,97.6293,93.8306,0.000487434,0.0437131,21.0224,-302.497,0.351505,0.0,0.0
1911,477.5,21.0011,21.7215,151.797,97.6305,93.6034,0.000386726,0.0437944,21.0227,-302.497,0.373086,0.0,0.0
1918,479.25,21.0594,22.0602,154.596,97.6101,93.6459,0.000262361,0.0438643,21.0229,-302.507,0.367222,0.0,0.0
1925,481,21.5797,21.7981,149.25,97.6145,93.7603,0.000208564,0.043928,21.0224,-302.517,0.356801,0.0,0.0
1932,482.75,21.435,21.7792,156.293,97.6009,93.8083,0.000254639,0.0440467,21.0222,-302.487,0.351034,0.0,0.0
1939,484.5,21.1641,22.5769,151.104,97.5941,93.7183,0.000322817,0.0441029,21.0215,-302.497,0.358921,0.0,0.0
1946,486.25,21.225,22.2104,148.498,97.5689,93.6261,0.0004151,0.0442316,21.0211,-302.497,0.365351,0.0,0.0
1953,488,21.3608,22.0219,150.019,97.5705,93.6514,0.000501441,0.0443531,21.0209,-302.487,0.363104,0.0,0.0
1960,489.75,20.8581,21.9772,149.578,97.5674,93.6467,0.000531883,0.0443904,21.0208,-302.497,0.36326,0.0,0.0
1967,491.5,20.8626,22.5424,152.35,97.5306,93.6364,0.000500581,0.0444116,21.0208,-302.507,0.360895,0.0,0.0
1974,493.25,21.4604,22.2638,151.406,97.4986,93.5734,0.000470166,0.0444131,21.0208,-302.497,0.363955,0.0,0.0
1981,495,21.7053,21.8221,148.812,97.4794,93.6253,0.000493056,0.0444114,21.0208,-302.507,0.357303,0.0,0.0
1988,496.75,21.2023,21.5511,149.814,97.4706,93.7432,0.000507219,0.0443021,21.0203,-302.517,0.345359,0.0,0.0
1995,498.5,20.659,22.6635,148.711,97.4475,93.5537,0.000490733,0.0442991,21.02,-302.497,0.361173,0.0,0.0
2002,500.25,21.4015,21.8367,154.927,97.4295,93.6952,0.000511273,0.0443038,21.0199,-302.497,0.346156,0.0,0.0
2009,502,21.1764,22.0589,154.965,97.4011,93.5065,0.000620668,0.0441893,21.0198,-302.507,0.361426,0.0,0.0
2016,503.75,20.8244,22.1103,152.444,97.3979,93.5018,0.000777392,0.0441444,21.0198,-302.497,0.361582,0.0,0.0
2023,505.5,21.4883,21.8552,147.006,97.3891,93.5224,0.000862521,0.0441743,21.0197,-302.497,0.358832,0.0,0.0
2030,507.25,21.1736,21.8984,150.084,97.3684,93.5773,0.000915445,0.0441541,21.0197,-302.497,0.351748,0.0,0.0
2037,509,21.0517,21.7114,148.459,97.3584,93.4641,0.000922066,0.0441576,21.0197,-302.497,0.361557,0.0,0.0
2044,510.75,20.7809,21.5257,151.224,97.3508,93.4757,0.000846082,0.0442765,21.0197,-302.507,0.35977,0.0,0.0
2051,512.5,20.8708,21.9187,156.304,97.3528,93.5314,0.000754725,0.0443065,21.0197,-302.517,0.354672,0.0,0.0
2058,514.25,20.815,21.9039,150.092,97.3432,93.3514,0.000741272,0.0443187,21.0197,-302.507,0.370865,0.0,0.0
2065,516,21.1952,22.0427,150.522,97.3096,93.468,0.000816432,0.0444076,21.0193,-302.507,0.356756,0.0,0.0
2072,517.75,20.9219,22.0092,148.823,97.312,93.4812,0.000839333,0.0444708,21.0191,-302.507,0.355714,0.0,0.0
2079,519.5,21.1373,22.1622,150.668,97.3044,93.4825,0.000763425,0.0444978,21.0189,-302.497,0.354902,0.0,0.0
2086,521.25,20.9402,22.6957,146.585,97.2984,93.5185,0.000733113,0.0445092,21.0188,-302.507,0.350944,0.0,0.0
2093,523,21.4496,22.1546,153.021,97.2896,93.3981,0.000762979,0.0444379,21.0188,-302.527,0.361561,0.0,0.0
2100,524.75,21.3002,22.2977,150.242,97.276,93.2823,0.00079189,0.0444763,21.0188,-302.517,0.371307,0.0,0.0
2107,526.5,21.6701,21.7929,154.458,97.2832,93.5194,0.000839955,0.0445776,21.0191,-302.507,0.349481,0.0,0.0
2114,528.25,20.9702,21.9029,151.925,97.2745,93.3569,0.000974912,0.0446507,21.0189,-302.507,0.364082,0.0,0.0
2121,530,20.8653,22.0799,150.277,97.2649,93.4384,0.00106789,0.0447162,21.0181,-302.517,0.355485,0.0,0.0
2128,531.75,20.9933,22.2231,148.716,97.2557,93.2669,0.00105549,0.0447714,21.0183,-302.507,0.370916,0.0,0.0
2135,533.5,20.9663,22.1081,148.165,97.2629,93.3869,0.000969251,0.0447883,21.019,-302.507,0.360181,0.0,0.0
2142,535.25,21.1251,21.8075,151.063,97.2601,93.4937,0.000868965,0.0448076,21.0193,-302.497,0.349808,0.0,0.0
2149,537,21.1034,21.7736,150.809,97.2541,93.3754,0.000868594,0.0446903,21.0194,-302.507,0.360477,0.0,0.0
2156,538.75,20.8298,21.8778,146.979,97.2361,93.3788,0.000921676,0.0445673,21.0195,-302.497,0.358514,0.0,0.0
2163,540.5,21.0931,22.1499,147.299,97.2297,93.2853,0.000906677,0.0445474,21.0196,-302.507,0.3668,0.0,0.0
2170,542.25,20.9903,21.6772,150.563,97.2385,93.4662,0.000814508,0.0446294,21.0195,-302.507,0.350442,0.0,0.0
2177,544,20.8401,21.8107,146.805,97.2301,93.4637,0.000737127,0.044534,21.0195,-302.527,0.349921,0.0,0.0
2184,545.75,20.9597,21.9543,151.074,97.2277,93.4727,0.000674673,0.0443994,21.0194,-302.507,0.34885,0.0,0.0
2191,547.5,20.9916,22.0986,150.002,97.2285,93.3621,0.00061609,0.0443719,21.0185,-302.517,0.359408,0.0,0.0
2198,549.25,20.9434,21.6441,154.128,97.2405,93.3771,0.000568853,0.0442457,21.019,-302.517,0.359078,0.0,0.0
2205,551,20.78,22.2812,152.621,97.2281,93.4109,0.000605506,0.0442333,21.0192,-302.507,0.354737,0.0,0.0
2212,552.75,21.0219,21.677,149.865,97.2317,93.4127,0.000697358,0.0442918,21.0193,-302.507,0.354901,0.0,0.0
2219,554.5,20.8204,21.9047,153.644,97.2205,93.3882,0.000808105,0.0442461,21.0193,-302.517,0.3562,0.0,0.0
2226,556.25,21.1881,21.493,156.06,97.2205,93.3998,0.000931838,0.0442526,21.0194,-302.507,0.355102,0.0,0.0
2233,558,21.1397,22.2374,153.366,97.2269,93.3398,0.000887669,0.0443226,21.0182,-302.507,0.361378,0.0,0.0
2240,559.75,20.8699,21.8572,150.76,97.2505,93.4547,0.000757533,0.0443098,21.0176,-302.507,0.35263,0.0,0.0
2247,561.5,21.557,22.0618,149.362,97.2237,93.4834,0.000660108,0.0443464,21.0173,-302.497,0.34747,0.0,0.0
2254,563.25,21.5575,21.8062,152.154,97.2321,93.3857,0.000582333,0.0443602,21.017,-302.477,0.3575,0.0,0.0
2261,565,20.9323,21.8984,152.56,97.2365,93.4131,0.000587525,0.044408,21.0172,-302.477,0.355298,0.0,0.0
2268,566.75,20.6715,21.6407,151.038,97.2381,93.3758,0.000621207,0.0445138,21.0183,-302.477,0.35898,0.0,0.0
2275,568.5,21.3545,21.9822,150.659,97.2389,93.4508,0.000689741,0.0446473,21.018,-302.467,0.351941,0.0,0.0
2282,570.25,20.7677,22.0248,151.536,97.2429,93.3535,0.000822717,0.0446102,21.0179,-302.477,0.361532,0.0,0.0
2289,572,21.5061,21.7699,151.105,97.2537,93.2811,0.000896401,0.0445198,21.0178,-302.477,0.369391,0.0,0.0
2296,573.75,21.0383,21.7359,150.28,97.2613,93.4414,0.000932,0.0444814,21.0178,-302.477,0.354872,0.0,0.0
2303,575.5,21.1747,22.3708,151.554,97.2697,93.3878,0.000936822,0.0446014,21.0187,-302.477,0.360717,0.0,0.0
2310,577.25,21.7826,21.8099,147.64,97.2589,93.3977,0.000904632,0.0446058,21.0182,-302.477,0.3588,0.0,0.0
2317,579,20.6108,21.7575,153.938,97.2677,93.4474,0.000864995,0.0444859,21.018,-302.477,0.354885,0.0,0.0
2324,580.75,20.9451,21.3258,149.021,97.2848,93.54,0.000817862,0.0442987,21.0178,-302.497,0.347678,0.0,0.0
2331,582.5,21.2607,21.7838,150.685,97.3028,93.4208,0.000808555,0.0442005,21.0178,-302.467,0.360606,0.0,0.0
2338,584.25,20.9126,21.6421,149.923,97.2896,93.4169,0.000825312,0.0443188,21.0177,-302.477,0.359772,0.0,0.0
2345,586,21.0632,21.9442,153.543,97.2992,93.5721,0.000789577,0.0444791,21.0177,-302.507,0.345944,0.0,0.0
2352,587.75,21.0248,21.8133,151.188,97.3092,93.4602,0.00072112,0.0444349,21.0184,-302.497,0.35745,0.0,0.0
2359,589.5,21.2838,22.2843,151.595,97.3272,93.5657,0.000616958,0.0443867,21.0194,-302.507,0.349098,0.0,0.0
2366,591.25,21.0894,22.0447,152.123,97.3448,93.4319,0.000564654,0.0445734,21.0199,-302.507,0.363368,0.0,0.0
2373,593,20.7836,21.9999,152.372,97.3272,93.5614,0.000521902,0.0447749,21.0201,-302.507,0.349504,0.0,0.0
2380,594.75,20.8824,21.7984,152.779,97.3432,93.4212,0.00047272,0.0450394,21.0202,-302.517,0.364239,0.0,0.0
2387,596.5,20.7291,21.6423,149.027,97.3644,93.516,0.000453305,0.0451265,21.0192,-302.517,0.357189,0.0,0.0
2394,598.25,20.7951,21.4913,152.566,97.3576,93.5091,0.000476239,0.0451687,21.0186,-302.507,0.35722,0.0,0.0
2401,600,21.1044,21.999,150.297,97.3727,93.447,0.000520635,0.0453114,21.0183,-302.517,0.364491,0.0,0.0
2408,601.75,20.9989,21.5753,149.827,97.3795,93.5044,0.000542906,0.0455014,21.0182,-302.517,0.359666,0.0,0.0
2415,603.5,21.2298,22.2638,152.705,97.3731,93.558,0.000565509,0.045624,21.0179,-302.517,0.35401,0.0,0.0
2422,605.25,21.5411,22.2384,149.682,97.3887,93.5704,0.000589153,0.045677,21.0167,-302.517,0.35425,0.0,0.0
2429,607,21.3726,22.07,149.048,97.3995,93.522,0.000543025,0.0457832,21.0162,-302.507,0.359818,0.0,0.0
2436,608.75,20.876,21.8466,151.086,97.3867,93.528,0.000461019,0.0459914,21.0159,-302.507,0.358087,0.0,0.0
2443,610.5,20.6095,21.6562,148.504,97.4027,93.5014,0.000442784,0.0459917,21.0158,-302.517,0.362057,0.0,0.0
2450,612.25,20.8476,21.6621,151.895,97.4195,93.5288,0.000584206,0.0459198,21.0145,-302.517,0.360986,0.0,0.0
2457,614,20.9896,21.6175,151.071,97.4211,93.7342,0.000730291,0.0458495,21.0139,-302.507,0.341706,0.0,0.0
2464,615.75,20.9575,21.7901,152.812,97.4263,93.5404,0.000803173,0.0456449,21.0145,-302.527,0.360506,0.0,0.0
2471,617.5,20.9179,22.0673,154.399,97.4247,93.4122,0.000759322,0.0454257,21.0151,-302.527,0.372507,0.0,0.0
2478,619.25,21.3605,22.267,149.963,97.4419,93.5477,0.000628881,0.0453493,21.0154,-302.517,0.361234,0.0,0.0
2485,621,21.4173,22.3647,152.225,97.4447,93.7693,0.000532871,0.0452444,21.0156,-302.517,0.340529,0.0,0.0
2492,622.75,21.3822,22.0023,149.633,97.4511,93.6227,0.00049912,0.0450999,21.0156,-302.517,0.354969,0.0,0.0
2499,624.5,21.23,21.3135,151.079,97.4419,93.5074,0.000493697,0.0450435,21.0157,-302.507,0.365049,0.0,0.0
2506,626.25,21.1367,21.7069,151.72,97.4794,93.7462,0.000526923,0.0450753,21.0157,-302.507,0.345875,0.0,0.0
2513,628,20.5647,21.4731,148.638,97.4683,93.6193,0.000569366,0.0450521,21.0157,-302.517,0.356855,0.0,0.0
2520,629.75,20.6364,20.8639,151.635,97.4715,93.6051,0.00058063,0.0449751,21.0157,-302.507,0.358485,0.0,0.0
2527,631.5,20.7904,21.6621,148.275,97.4758,93.6943,0.000550953,0.0450018,21.0155,-302.507,0.35045,0.0,0.0
2534,633.25,20.5795,21.4697,150.558,97.481,93.7565,0.000519362,0.0449662,21.0152,-302.507,0.345048,0.0,0.0
2541,635,20.3223,21.5963,150.38,97.5066,93.6673,0.000602434,0.0450252,21.0156,-302.497,0.355799,0.0,0.0
2548,636.75,20.5918,21.3758,150.841,97.509,93.7445,0.000742044,0.0449669,21.016,-302.497,0.348723,0.0,0.0
2555,638.5,20.4006,21.3243,150.725,97.5258,93.6287,0.000836597,0.0448168,21.0162,-302.517,0.361189,0.0,0.0
2562,640.25,20.4616,21.6095,148.864,97.5242,93.6386,0.000950794,0.0447445,21.0163,-302.517,0.360112,0.0,0.0
2569,642,20.7777,21.4676,149.275,97.5562,93.7007,0.0010363,0.0447409,21.0167,-302.537,0.357137,0.0,0.0
2576,643.75,20.1539,21.4172,149.629,97.5773,93.5734,0.00106089,0.0447365,21.017,-302.537,0.371103,0.0,0.0
2583,645.5,20.4867,21.3193,147.225,97.6125,93.7453,0.00101317,0.0447411,21.0171,-302.527,0.358037,0.0,0.0
2590,647.25,20.7794,21.7104,149.297,97.6045,93.7479,0.000925677,0.0447842,21.0172,-302.517,0.35707,0.0,0.0
2597,649,20.3142,21.2136,149.687,97.6269,93.8641,0.000820259,0.0447767,21.0172,-302.537,0.348131,0.0,0.0
2604,650.75,20.6937,21.5655,147.23,97.6613,93.723,0.000743307,0.0447001,21.0172,-302.527,0.364567,0.0,0.0
2611,652.5,20.3055,21.6203,149.638,97.6645,93.8688,0.000667975,0.0446364,21.0172,-302.547,0.351094,0.0,0.0
2618,654.25,20.9335,21.6976,153.524,97.6964,93.7642,0.000557543,0.0445595,21.0172,-302.517,0.363867,0.0,0.0
2625,656,20.5103,21.1533,152.027,97.6968,93.9288,0.000447784,0.0443831,21.0172,-302.497,0.348367,0.0,0.0
2632,657.75,20.5678,21.5202,149.123,97.722,93.8563,0.000375248,0.0441334,21.0178,-302.527,0.357483,0.0,0.0
2639,659.5,20.4932,21.2363,150.874,97.7332,93.9399,0.000377728,0.043989,21.0197,-302.547,0.350613,0.0,0.0
2646,661.25,21.0394,21.7368,151.319,97.7572,93.9168,0.000381974,0.0438761,21.0207,-302.537,0.354967,0.0,0.0
2653,663,20.2206,21.1125,149.853,97.7628,93.9031,0.00029518,0.043743,21.0212,-302.517,0.356769,0.0,0.0
2660,664.75,20.7917,20.9085,151.906,97.7767,93.9678,0.000204447,0.0436824,21.0214,-302.527,0.351932,0.0,0.0
2667,666.5,20.9376,21.3667,147.497,97.7935,93.828,0.000181527,0.043699,21.0215,-302.547,0.366635,0.0,0.0
2674,668.25,20.4439,21.5235,153.35,97.8039,94.0008,0.000247451,0.043536,21.0216,-302.527,0.351282,0.0,0.0
2681,670,21.0111,20.8625,152.016,97.8151,93.9558,0.000332319,0.0435083,21.0212,-302.547,0.356538,0.0,0.0
2688,671.75,20.8939,21.5277,151.238,97.8267,93.7839,0.000400765,0.0435524,21.0202,-302.537,0.373806,0.0,0.0
2695,673.5,20.1134,20.9765,150.053,97.8531,94.0261,0.000467874,0.0435706,21.0198,-302.537,0.35335,0.0,0.0
2702,675.25,20.5848,21.2157,151.28,97.8858,93.9232,0.000602334,0.0434879,21.0195,-302.527,0.366011,0.0,0.0
2709,677,20.3128,21.6655,150.255,97.8898,93.9254,0.000715532,0.0434108,21.0199,-302.527,0.366171,0.0,0.0
2716,678.75,20.2261,21.5316,150.01,97.8798,93.8906,0.000766034,0.0435504,21.0208,-302.517,0.368542,0.0,0.0
2723,680.5,20.2029,21.4193,150.409,97.9118,93.9837,0.000789712,0.0435682,21.0213,-302.527,0.362663,0.0,0.0
2730,682.25,20.0424,21.3075,148.638,97.9178,94.0347,0.000777559,0.0433858,21.0216,-302.517,0.358399,0.0,0.0
2737,684,20.3097,21.6821,149.804,97.9478,94.033,0.000733265,0.0432607,21.0216,-302.527,0.361271,0.0,0.0
2744,685.75,20.9104,21.3228,152.626,97.931,93.9472,0.000691413,0.0431689,21.0214,-302.517,0.367832,0.0,0.0
2751,687.5,20.426,21.2435,147.86,97.9566,93.9935,0.000653361,0.043112,21.0217,-302.517,0.365782,0.0,0.0
2758,689.25,20.7366,21.1082,152.593,97.9622,94.1911,0.00063537,0.0431855,21.021,-302.537,0.347684,0.0,0.0
2765,691,20.7915,21.1509,148.981,97.9809,94.0703,0.000645773,0.0432431,21.021,-302.537,0.360757,0.0,0.0
2772,692.75,20.3635,21.0718,150.992,97.9829,94.1727,0.000636915,0.0433066,21.0203,-302.507,0.351297,0.0,0.0
2779,694.5,20.7063,21.5282,148.72,97.9857,93.9914,0.000612799,0.0433061,21.0206,-302.517,0.36862,0.0,0.0
2786,696.25,20.4416,21.6502,149.075,98.0105,94.0458,0.000569986,0.0432508,21.0213,-302.497,0.365731,0.0,0.0
2793,698,21.0358,21.5195,148.678,98.0113,94.0625,0.000511456,0.0431476,21.0217,-302.517,0.364229,0.0,0.0
2800,699.75,20.6932,21.5636,152.39,98.0233,94.2143,0.000473249,0.043031,21.0218,-302.507,0.351035,0.0,0.0
2807,701.5,20.5216,21.1101,150.909,98.0385,94.0754,0.000434893,0.042943,21.0219,-302.497,0.365473,0.0,0.0
2814,703.25,20.4145,21.2957,152.794,98.0617,94.0535,0.000390031,0.0428405,21.0219,-302.507,0.369626,0.0,0.0
2821,705,20.6755,21.5611,149.046,98.0672,94.219,0.000474684,0.0428975,21.0206,-302.497,0.354562,0.0,0.0
2828,706.75,20.7741,21.1078,148.869,98.0884,94.2666,0.000559178,0.0429787,21.0191,-302.497,0.352003,0.0,0.0
2835,708.5,20.8262,21.8207,146.958,98.0956,94.2615,0.000520524,0.0430744,21.0183,-302.507,0.353135,0.0,0.0
2842,710.25,20.4685,21.5589,150.029,98.1056,94.1946,0.000480242,0.0431045,21.0188,-302.507,0.360324,0.0,0.0
2849,712,20.5266,21.3575,148.774,98.128,94.2782,0.000532426,0.0431428,21.0194,-302.517,0.354487,0.0,0.0
2856,713.75,20.5472,21.5223,150.066,98.14,94.231,0.000567775,0.043195,21.0197,-302.517,0.359999,0.0,0.0
2863,715.5,20.512,21.6795,152.322,98.1536,94.2027,0.000592106,0.0431894,21.0199,-302.517,0.363885,0.0,0.0
2870,717.25,20.9848,21.4624,152.5,98.156,94.1779,0.000619597,0.0432643,21.0199,-302.517,0.366439,0.0,0.0
2877,719,20.5794,21.415,149.584,98.1811,94.3455,0.000632698,0.0433448,21.0188,-302.517,0.352961,0.0,0.0
2884,720.75,20.8854,21.225,149.512,98.1939,94.3931,0.000659821,0.043396,21.0182,-302.517,0.349648,0.0,0.0
2891,722.5,20.721,21.4019,152.958,98.2099,94.2314,0.000678604,0.043292,21.0179,-302.527,0.366267,0.0,0.0
2898,724.25,20.3781,21.3685,152.442,98.2211,94.2006,0.000676092,0.0433647,21.0178,-302.527,0.370178,0.0,0.0
2905,726,20.741,21.9645,150.248,98.2259,94.186,0.000616487,0.0434771,21.0177,-302.517,0.371981,0.0,0.0
2912,727.75,20.5986,21.5328,151.152,98.2479,94.3549,0.000574867,0.0435252,21.0184,-302.527,0.358094,0.0,0.0
2919,729.5,20.7038,21.4848,149.107,98.2527,94.4021,0.000591678,0.043557,21.019,-302.517,0.354101,0.0,0.0
2926,731.25,20.5643,21.3423,149.156,98.2698,94.4333,0.00068558,0.0435801,21.0194,-302.517,0.352714,0.0,0.0
2933,733,20.6696,21.2625,151.734,98.2678,94.2872,0.000796653,0.0437095,21.0195,-302.527,0.366255,0.0,0.0
2940,734.75,20.6556,21.5624,149.625,98.2862,94.3446,0.000835243,0.043716,21.0196,-302.517,0.362518,0.0,0.0
2947,736.5,20.7208,21.5442,150.399,98.291,94.4929,,0.0437447,,-302.527,0.349035,0.0,0.0
2954,738.25,20.5984,21.5022,149.773,98.3102,94.4368,,,,-302.537,0.356029,0.0,0.0
2961,740,20.5578,21.2798,151.353,98.305,94.4509,,,,-302.537,0.354234,0.0,0.0
2968,741.75,20.7657,21.8664,150.371,98.319,94.4638,,,,-302.527,0.354288,0.0,0.0
2975,743.5,20.7401,21.4831,147.559,98.323,94.3283,,,,-302.537,0.367359,0.0,0.0
2982,745.25,20.452,21.5106,149.134,98.3258,94.3558,,,,-302.537,0.365035,0.0,0.0
2985,746,20.3364,21.6542,153.647,98.327,94.4076,,,,-302.527,0.360276,0.0,0.0