File: 01_Data/Mineral_Wool_Insulation/Cone/Mineral_Wool_Insulation_Cone_HF75Scan_220426_R3.csv
Names,Time,Stack TC,Smoke TC,Exh Press,Smoke Comp,Smoke Meas,CO Meter,CO2 Meter,O2 Meter,Sample Mass,Ext Coeff,Start Test,Flame Verif
Chan Gain,,500,500,1,1,1,1,1,1,1,1,1.0,1.0
Offset,,0,0,0.135223,0,0,0,0,0,0,0,0.0,0.0
Gain,,1,1,25.011,13.0939,14.0471,1,1,1,1.00088,1.00971,1.0,1.0
Units,sec,C,C,Pa,%,%,%,%,%,g,/m,,
Baseline,,45.3208,46.9483,139.432,98.5635,97.1113,0.000596509,0.0459073,21.0135,-835.111,0.131531,,
7,1.5,43.0709,44.6629,135.788,98.4744,96.6758,0.00116073,0.0539351,21.0021,-307.321,0.163271,0.0,0.0
14,3.25,42.6996,44.4465,138.586,98.4888,97.7685,0.0015481,0.0540059,21.0008,-307.321,0.0650153,0.0,0.0
21,5,42.8278,44.5611,137.261,98.4724,97.2365,0.00186723,0.0547022,20.9989,-307.351,0.111868,0.0,0.0
28,6.75,43.049,44.6782,138.231,98.4537,97.6965,0.00215834,0.0550726,20.9981,-307.371,0.0683791,0.0,0.0
35,8.5,43.3975,45.0023,141.312,98.4596,97.2631,0.0023564,0.0550765,20.9976,-307.381,0.108297,0.0,0.0
42,10.25,43.671,44.8222,136.833,98.4724,96.9947,0.00240294,0.0550399,20.9977,-307.431,0.133919,0.0,0.0
49,12,43.4493,45.1788,138.168,98.474,97.2871,0.00233629,0.0548205,20.9981,-307.441,0.107406,0.0,0.0
56,13.75,43.6439,45.3658,140.576,98.4525,97.8847,0.00224705,0.0545645,20.9992,-307.441,0.0512259,0.0,0.0
63,15.5,43.8961,45.4557,137.7,98.4529,96.8777,0.0022059,0.054144,21.0001,-307.461,0.142851,0.0,0.0
70,17.25,43.9236,46.0581,136.951,98.4744,97.038,0.00219531,0.0537157,21.0005,-307.481,0.130146,0.0,0.0
77,19,43.9752,45.9255,139.605,98.494,97.6815,0.00220467,0.0534685,21.0007,-307.531,0.0733691,0.0,0.0
84,20.75,43.2977,45.6042,138.996,98.4708,97.5679,0.00221928,0.0531913,21.0008,-307.521,0.0815915,0.0,0.0
91,22.5,44.3433,46.6376,143.6,98.4509,97.3518,0.00223489,0.0528224,21.0008,-307.511,0.0994285,0.0,0.0
98,24.25,44.256,46.2534,141.259,98.4748,97.6463,0.00218748,0.0525977,21.0011,-307.541,0.0748328,0.0,0.0
105,26,44.3996,46.2514,140.159,98.484,96.9013,0.00202552,0.0524452,21.0022,-307.541,0.143499,0.0,0.0
112,27.75,44.7284,46.5232,135.802,98.482,97.288,0.00189168,0.0524305,21.0027,-307.551,0.108046,0.0,0.0
119,29.5,44.6685,47.1493,135.99,98.4664,96.9021,0.00187508,0.0523027,21.003,-307.571,0.141839,0.0,0.0
126,31.25,44.4328,46.2489,133.214,98.4812,97.4607,0.0019337,0.052148,21.0031,-307.591,0.0922602,0.0,0.0
133,33,44.2566,46.4978,139.257,98.4816,97.976,0.00205319,0.0521474,21.0035,-307.581,0.0455922,0.0,0.0
140,34.75,44.9029,46.7198,134.53,98.484,97.1551,0.00215479,0.0520384,21.0037,-307.591,0.120333,0.0,0.0
147,36.5,45.108,46.4852,133.166,98.4796,96.8884,0.00220427,0.0518366,21.0038,-307.601,0.144278,0.0,0.0
154,38.25,44.9282,46.2789,140.459,98.4764,96.8888,0.00213585,0.0517885,21.0038,-307.581,0.143952,0.0,0.0
161,40,44.2373,46.5854,135.396,98.482,97.6,0.00205388,0.0518132,21.0038,-307.601,0.07968,0.0,0.0
168,41.75,44.8529,46.9713,143.726,98.4976,97.4633,0.00205806,0.0518387,21.0039,-307.581,0.0934994,0.0,0.0
175,43.5,44.9553,47.0111,136.865,98.4908,97.6871,0.00209808,0.0517496,21.0039,-307.631,0.0725764,0.0,0.0
182,45.25,45.174,47.1746,138.675,98.4732,97.7149,0.00207767,0.0515663,21.0039,-307.631,0.0684692,0.0,0.0
189,47,45.2626,47.0686,137.681,98.49,96.9343,0.00196594,0.0512885,21.0048,-307.601,0.141021,0.0,0.0
196,48.75,45.5536,45.87,134.841,98.4988,97.5314,0.00187414,0.0511728,21.0055,-307.641,0.0874157,0.0,0.0
203,50.5,45.442,48.1363,140.34,98.5248,97.2279,0.0018521,0.051047,21.0059,-307.671,0.117357,0.0,0.0
210,52.25,45.6091,47.4117,135.746,98.5116,98.1307,0.0018845,0.0508832,21.0061,-307.631,0.0343087,0.0,0.0
217,54,46.2626,47.9204,135.716,98.5156,97.7552,0.00194772,0.0506829,21.0061,-307.631,0.0686264,0.0,0.0
224,55.75,45.5708,47.4373,138.325,98.5384,97.9743,0.00204331,0.0505964,21.0065,-307.641,0.050849,0.0,0.0
231,57.5,45.6317,47.8171,137.238,98.5599,97.4221,0.00206442,0.0505717,21.0067,-307.661,0.102844,0.0,0.0
238,59.25,45.3067,47.4882,134.03,98.5679,97.9297,0.00201799,0.0504771,21.0074,-307.681,0.0575379,0.0,0.0
245,61,45.8379,47.8465,138.499,98.5555,98.4373,0.00188277,0.0501829,21.0084,-307.691,0.0106376,0.0,0.0
252,62.75,45.7061,47.4077,136.078,98.5907,98.436,0.00185193,0.0499562,21.0088,-307.681,0.0139125,0.0,0.0
259,64.5,46.3218,47.9797,138.131,98.6051,97.4941,0.00190814,0.0498189,21.009,-307.681,0.100356,0.0,0.0
266,66.25,45.6065,47.8855,139.941,98.6155,97.369,0.00193654,0.0495577,21.0091,-307.691,0.112669,0.0,0.0
273,68,45.9055,47.5698,135.703,98.6167,97.8431,0.00190072,0.0493944,21.0091,-307.721,0.0697515,0.0,0.0
280,69.75,45.8855,48.0424,138.338,98.6331,98.2696,0.00182096,0.0493386,21.0092,-307.741,0.0326962,0.0,0.0
287,71.5,45.9538,48.0111,135.912,98.6435,97.7565,0.00162446,0.0492154,21.0092,-307.731,0.0799991,0.0,0.0
294,73.25,46.1434,48.0314,138.728,98.6622,97.9065,0.00148796,0.049177,21.0092,-307.761,0.0681015,0.0,0.0
301,75,46.0847,47.7591,135.897,98.6662,97.8114,0.00150652,0.0491547,21.0092,-307.771,0.0770731,0.0,0.0
308,76.75,46.1031,47.8859,139.198,98.6738,97.7051,0.00157299,0.0491275,21.0101,-307.761,0.0873875,0.0,0.0
315,78.5,46.2462,48.0985,138.71,98.6878,97.8221,0.00154706,0.0490265,21.0118,-307.731,0.0780402,0.0,0.0
322,80.25,46.3631,48.7979,134.939,98.703,97.5555,0.00149959,0.0488537,21.0127,-307.751,0.103578,0.0,0.0
329,82,46.2998,48.585,140.64,98.7182,97.5597,0.00152708,0.0485915,21.0129,-307.731,0.104551,0.0,0.0
336,83.75,46.4778,48.5715,135.631,98.7294,97.4148,0.00159828,0.0484069,21.012,-307.751,0.118719,0.0,0.0
343,85.5,46.5168,48.3866,134.62,98.7422,97.3128,0.00157869,0.0483322,21.0126,-307.812,0.129147,0.0,0.0
350,87.25,46.4842,48.5587,139.795,98.7677,97.2335,0.00149639,0.0483204,21.0131,-307.781,0.138662,0.0,0.0
357,89,46.4366,48.3985,138.558,98.7909,97.2631,0.00142888,0.0482473,21.0133,-307.761,0.138046,0.0,0.0
364,90.75,46.2918,48.7891,139.23,98.7897,97.7668,0.00136752,0.0482542,21.0134,-307.781,0.0921891,0.0,0.0
371,92.5,46.9227,48.4049,139.145,98.8149,97.8804,0.00136319,0.0482232,21.0134,-307.791,0.0841606,0.0,0.0
378,94.25,47.0062,48.7671,136.409,98.8333,97.7111,0.00144568,0.0481182,21.0135,-307.832,0.101143,0.0,0.0
385,96,46.6809,48.7922,136.423,98.8568,97.901,0.00156255,0.0480069,21.0135,-307.822,0.0860575,0.0,0.0
392,97.75,47.2933,49.1013,139.979,98.8708,97.3968,0.00164192,0.0479905,21.0135,-307.802,0.133038,0.0,0.0
399,99.5,46.4506,49.1405,133.972,98.8932,98.2465,0.00161448,0.0480459,21.0135,-307.802,0.0581117,0.0,0.0
406,101.25,46.7589,48.6877,137.738,98.9196,97.5002,0.0015035,0.0479906,21.0134,-307.812,0.128014,0.0,0.0
413,103,46.8683,49.0075,138.855,98.9452,97.7402,0.00137396,0.0478497,21.0131,-307.802,0.108523,0.0,0.0
420,104.75,46.7752,49.1459,142.359,98.9727,97.847,0.00134533,0.0478104,21.013,-307.822,0.101322,0.0,0.0
427,106.5,46.7011,49.1754,139.386,98.9767,97.91,0.00134272,0.0478163,21.0129,-307.822,0.0959782,0.0,0.0
434,108.25,46.8535,49.1144,138.996,99.0019,98.475,0.00129406,0.047811,21.0129,-307.832,0.0472653,0.0,0.0
441,110,46.7839,49.233,140.511,99.0367,97.9601,0.00125871,0.0478451,21.0128,-307.832,0.0968033,0.0,0.0
448,111.75,47.1309,49.0828,135.821,99.0626,99.1506,0.00126342,0.0478998,21.0128,-307.832,-0.00785951,0.0,0.0
455,113.5,46.3368,49.0046,139.598,99.0638,98.4222,0.00126499,0.0478449,21.0128,-307.822,0.0575495,0.0,0.0
462,115.25,47.0562,48.9905,138.776,99.0862,97.9524,0.0012632,0.0478119,21.0128,-307.822,0.101932,0.0,0.0
469,117,46.7776,49.2237,137.865,99.1034,97.9134,0.00128688,0.0477723,21.0128,-307.822,0.106996,0.0,0.0
476,118.75,45.8764,48.9529,138.141,99.129,98.4853,0.00130725,0.0477149,21.0128,-307.842,0.0577016,0.0,0.0
483,120.5,47.1793,49.1653,137.415,99.1497,97.8461,0.00127488,0.047668,21.0128,-307.852,0.117227,0.0,0.0
490,122.25,46.9663,49.3218,138.172,99.1585,97.9421,0.00121142,0.0476276,21.0128,-307.832,0.109325,0.0,0.0
497,124,47.9187,49.0487,137.249,99.1729,98.4004,0.00118815,0.0475902,21.0126,-307.842,0.0692654,0.0,0.0
504,125.75,47.0645,49.1396,136.507,99.1949,98.1007,0.0012288,0.0475211,21.0115,-307.872,0.0982402,0.0,0.0
511,127.5,47.4903,48.9409,137.832,99.2057,97.9884,0.00129643,0.0475162,21.011,-307.892,0.10935,0.0,0.0
518,129.25,47.2069,49.3604,137.859,99.2077,98.1818,0.00137501,0.0476655,21.0107,-307.872,0.09207,0.0,0.0
525,131,47.2472,49.1858,137.92,99.2341,98.8642,0.00145544,0.0476341,21.0106,-307.892,0.0330717,0.0,0.0
532,132.75,47.2517,49.392,136.064,99.2588,98.6713,0.00150792,0.0475343,21.0106,-307.892,0.052581,0.0,0.0
539,134.5,47.2883,49.716,133.863,99.2808,98.3575,0.00147865,0.047506,21.0106,-307.872,0.0827548,0.0,0.0
546,136.25,46.9624,49.552,139.413,99.2968,98.3455,0.001415,0.0475119,21.011,-307.892,0.0852618,0.0,0.0
553,138,47.3973,49.2276,133.711,99.3104,98.3922,0.00135422,0.0476381,21.0112,-307.902,0.0822653,0.0,0.0
560,139.75,47.4648,49.5277,140.369,99.3372,98.1187,0.00131571,0.0475991,21.0113,-307.902,0.109308,0.0,0.0
567,141.5,47.5888,49.8679,141.859,99.3687,98.6392,0.00131078,0.0475698,21.0113,-307.912,0.0652679,0.0,0.0
574,143.25,47.4059,49.417,138.743,99.3919,98.6465,0.00138826,0.0475094,21.0114,-307.902,0.0666785,0.0,0.0
581,145,46.9514,48.926,140.405,99.3899,98.2109,0.00145698,0.0474272,21.0114,-307.922,0.105694,0.0,0.0
588,146.75,47.3693,49.548,135.735,99.4263,98.162,0.00147162,0.0472873,21.0114,-307.942,0.113341,0.0,0.0
595,148.5,47.07,49.5039,137.415,99.4418,98.9688,0.00149505,0.0472204,21.0121,-307.922,0.0422323,0.0,0.0
602,150.25,47.3124,49.7829,137.609,99.4682,98.577,0.00150779,0.0472767,21.0125,-307.922,0.0797156,0.0,0.0
609,152,47.6413,49.6135,140.388,99.4798,98.6837,0.00142284,0.0471598,21.0127,-307.922,0.0711625,0.0,0.0
616,153.75,47.7211,49.379,138.604,99.4922,98.6237,0.00128129,0.0471559,21.0128,-307.922,0.0776519,0.0,0.0
623,155.5,47.6296,50.0033,138.28,99.5122,98.9268,0.00114896,0.0471192,21.0128,-307.912,0.0522546,0.0,0.0
630,157.25,47.5301,49.7973,139.776,99.5286,98.1183,0.00111824,0.0471063,21.0128,-307.912,0.126396,0.0,0.0
637,159,47.68,49.9766,136.266,99.5453,98.1822,0.00116496,0.0469989,21.0128,-307.932,0.122125,0.0,0.0
644,160.75,48.3123,50.1561,136.508,99.5414,98.5551,0.00121215,0.0467901,21.0128,-307.922,0.0881893,0.0,0.0
651,162.5,47.974,49.8924,135.793,99.5473,98.2906,0.0012321,0.0468003,21.0128,-307.952,0.112525,0.0,0.0
658,164.25,47.6851,49.7224,133.978,99.5625,98.7811,0.00124799,0.0467488,21.0128,-307.932,0.0697934,0.0,0.0
665,166,47.7743,49.9508,137.735,99.5761,98.8938,0.00125426,0.0467887,21.0133,-307.952,0.0608994,0.0,0.0
672,167.75,48.1806,49.7624,138.801,99.5589,98.6357,0.00122652,0.04678,21.0138,-307.942,0.0825132,0.0,0.0
679,169.5,47.7381,50.0747,137.646,99.5617,99.6247,0.00117635,0.0466766,21.0138,-307.952,-0.0056004,0.0,0.0
686,171.25,47.7973,49.3381,141.655,99.5625,98.1449,0.00105279,0.0466153,21.0142,-307.962,0.127019,0.0,0.0
693,173,48.0852,50.1353,134.33,99.5905,98.0874,0.000888651,0.0465731,21.015,-307.972,0.134693,0.0,0.0
700,174.75,47.6316,50.1255,138.621,99.5725,99.3079,0.000783093,0.0465991,21.0154,-307.962,0.0235689,0.0,0.0
707,176.5,48.0919,50.3538,138.092,99.5689,98.385,0.000745307,0.0465151,21.0157,-307.972,0.105949,0.0,0.0
714,178.25,48.0746,50.2625,135.118,99.5621,98.03,0.00070116,0.0466049,21.0162,-307.982,0.137357,0.0,0.0
721,180,47.7018,50.2621,138.336,99.5593,98.9718,0.000764776,0.0465156,21.0165,-307.942,0.0524204,0.0,0.0
728,181.75,48.4157,49.618,139.198,99.5749,98.0351,0.000905953,0.046313,21.0166,-307.892,0.138031,0.0,0.0
735,183.5,48.1174,50.1201,137.569,99.5561,98.8454,0.00104617,0.0462414,21.0166,-307.882,0.0634608,0.0,0.0
742,185.25,48.2657,49.8874,135.606,99.5713,97.9511,0.00114963,0.0461338,21.0167,-307.902,0.145305,0.0,0.0
749,187,47.6628,50.1461,136.845,99.5549,98.676,0.00119649,0.0460815,21.0167,-307.932,0.0785404,0.0,0.0
756,188.75,47.9106,50.1788,139.202,99.5665,98.619,0.00113171,0.0460452,21.0167,-307.932,0.0846897,0.0,0.0
763,190.5,47.9713,50.1179,134.851,99.5693,98.0609,0.00099949,0.046005,21.0167,-307.942,0.13521,0.0,0.0
770,192.25,48.1234,50.052,136.169,99.5633,98.2945,0.000896138,0.0458368,21.0167,-307.902,0.113599,0.0,0.0
777,194,48.165,50.3958,138.06,99.5577,98.6147,0.000848627,0.0459113,21.0161,-307.912,0.0842934,0.0,0.0
784,195.75,48.3653,49.9396,135.094,99.5609,98.2255,0.000864678,0.0458362,21.0156,-307.922,0.119607,0.0,0.0
791,197.5,48.2916,50.2111,138.676,99.5617,98.3378,0.000918389,0.0457392,21.0154,-307.952,0.109556,0.0,0.0
798,199.25,48.0129,50.1313,139.778,99.525,98.0484,0.00100116,0.0457539,21.0153,-307.922,0.132385,0.0,0.0
805,201,48.1806,49.7284,132.983,99.5374,98.694,0.00104986,0.0457124,21.0152,-307.952,0.0753605,0.0,0.0
812,202.75,47.8127,50.3182,140.967,99.5214,98.4587,0.00101001,0.0456603,21.0152,-307.912,0.0950841,0.0,0.0
819,204.5,47.7917,50.3356,137.161,99.5154,99.0966,0.000864065,0.0455807,21.0154,-307.922,0.037353,0.0,0.0
826,206.25,48.0166,50.4639,138.118,99.4974,98.5847,0.000727543,0.0454848,21.0157,-307.962,0.0816198,0.0,0.0
833,208,48.0609,50.2533,134.788,99.4758,97.9083,0.000663111,0.0452927,21.0154,-307.972,0.140683,0.0,0.0
840,209.75,48.2394,50.4079,139.286,99.4658,98.7172,0.000694458,0.0451417,21.0153,-307.992,0.0669164,0.0,0.0
847,211.5,48.419,50.3472,140.582,99.453,98.6134,0.00079575,0.045032,21.0157,-307.982,0.0750904,0.0,0.0
854,213.25,48.0191,50.3433,136.277,99.4231,97.9721,0.000893686,0.0450042,21.0166,-307.982,0.130209,0.0,0.0
861,215,48.0909,50.4846,138.93,99.3871,98.2928,0.00094684,0.0450952,21.0171,-307.982,0.0980638,0.0,0.0
868,216.75,48.0407,50.2257,137.993,99.3767,98.8334,0.000937819,0.0451184,21.0168,-308.002,0.0485602,0.0,0.0
875,218.5,48.115,50.411,134.654,99.3595,98.3768,0.000932032,0.0451045,21.0163,-307.992,0.0880378,0.0,0.0
882,220.25,47.9611,50.3344,136.779,99.3487,98.3571,0.000996842,0.0449767,21.0161,-307.982,0.088851,0.0,0.0
889,222,48.2698,50.7625,136.841,99.322,97.895,0.001053,0.0449522,21.0159,-308.002,0.128177,0.0,0.0
896,223.75,48.2993,50.3285,140.145,99.2872,98.6216,0.00106403,0.0449047,21.0152,-307.992,0.059578,0.0,0.0
903,225.5,48.4334,50.3764,137.848,99.2556,97.9396,0.00106375,0.0448199,21.0143,-308.002,0.118227,0.0,0.0
910,227.25,48.4742,50.7119,135.621,99.2524,98.6207,0.00107774,0.0448031,21.0139,-307.992,0.0565529,0.0,0.0
917,229,48.1107,50.2409,136.284,99.2504,98.6134,0.00107794,0.0447614,21.0137,-308.012,0.0570292,0.0,0.0
924,230.75,48.469,50.4491,135.975,99.3092,98.7433,0.00101517,0.044704,21.0136,-308.012,0.0506107,0.0,0.0
931,232.5,48.4522,50.5389,135.129,99.3835,98.0819,0.000907011,0.0446489,21.0135,-308.012,0.116768,0.0,0.0
938,234.25,48.6121,50.669,136.745,99.3995,98.3991,0.000805107,0.0445723,21.0135,-307.982,0.0895921,0.0,0.0
945,236,48.2744,50.791,140.325,99.3715,98.7339,0.000688803,0.0446056,21.0147,-307.992,0.0570145,0.0,0.0
952,237.75,48.897,50.804,141.439,99.3523,98.0111,0.000578062,0.0446863,21.0153,-308.002,0.12038,0.0,0.0
959,239.5,48.4876,50.5136,137.915,99.3344,98.1393,0.000494375,0.0446837,21.0156,-308.002,0.107201,0.0,0.0
966,241.25,48.3512,50.5996,141.122,99.3212,97.8362,0.000442632,0.0446417,21.016,-308.012,0.13342,0.0,0.0
973,243,48.3723,50.8873,133.552,99.302,97.8431,0.000423629,0.0446549,21.0162,-308.012,0.131089,0.0,0.0
980,244.75,48.2129,50.5222,140.585,99.2772,98.4304,0.0004619,0.0446594,21.0164,-308.002,0.0758735,0.0,0.0
987,246.5,48.2579,50.6234,143.842,99.258,98.7832,0.000622402,0.0445892,21.0164,-308.012,0.0424718,0.0,0.0
994,248.25,48.0839,50.586,137.105,99.2293,98.1702,0.00078772,0.0445429,21.0165,-308.012,0.0950402,0.0,0.0
1001,250,47.9016,50.6187,140.743,99.2249,98.2542,0.000859342,0.0445744,21.0165,-308.012,0.0870707,0.0,0.0
1008,251.75,47.9942,50.8281,138.632,99.2077,98.1342,0.000850385,0.0444262,21.0165,-308.022,0.0963636,0.0,0.0
1015,253.5,48.4874,50.8808,134.236,99.1861,99.4627,0.000751579,0.044292,21.0155,-308.012,-0.0246609,0.0,0.0
1022,255.25,48.659,50.7187,136.289,99.1721,98.4797,0.000636534,0.0443273,21.0148,-308.032,0.062058,0.0,0.0
1029,257,48.5107,50.7173,138.686,99.1653,98.0394,0.000577741,0.0443401,21.0151,-308.012,0.101135,0.0,0.0
1036,258.75,48.0808,50.6747,138.941,99.145,98.3927,0.000572986,0.0443719,21.0158,-308.002,0.0674612,0.0,0.0
1043,260.5,48.3963,50.7423,138.344,99.1278,98.4904,0.00060632,0.044346,21.0161,-308.002,0.057132,0.0,0.0
1050,262.25,48.4564,50.3092,135.405,99.1134,98.2906,0.000637092,0.0443517,21.0163,-307.982,0.0738298,0.0,0.0
1057,264,48.4098,50.7558,138.299,99.1018,98.6109,0.000748715,0.0443814,21.0168,-307.982,0.0439849,0.0,0.0
1064,265.75,48.7936,50.8281,137.894,99.1162,98.2225,0.000894517,0.0444435,21.0163,-307.942,0.0802241,0.0,0.0
1071,267.5,48.6185,50.8028,134.305,99.1066,98.397,0.00100605,0.0444876,21.0161,-307.932,0.0636474,0.0,0.0
1078,269.25,48.8592,50.9469,137.353,99.0958,97.4804,0.00106241,0.0445939,21.0159,-307.942,0.14557,0.0,0.0
1085,271,48.7153,50.9927,137.736,99.0918,98.3502,0.00103657,0.0446021,21.0165,-307.982,0.0665339,0.0,0.0
1092,272.75,48.7187,51.0553,135.044,99.0798,98.0304,0.000968525,0.0446146,21.0174,-307.992,0.094308,0.0,0.0
1099,274.5,48.6679,50.9499,140.624,99.0846,98.7493,0.000953914,0.044429,21.0178,-307.962,0.0300206,0.0,0.0
1106,276.25,48.6087,50.5028,137.907,99.0818,98.3798,0.000986792,0.0443164,21.0179,-307.972,0.0629775,0.0,0.0
1113,278,48.5393,50.9193,135.088,99.0694,98.0296,0.00100785,0.0443015,21.018,-307.992,0.0934565,0.0,0.0
1120,279.75,48.7498,51.0139,137.228,99.0778,99.2256,0.000971433,0.0443202,21.0169,-307.952,-0.013201,0.0,0.0
1127,281.5,48.5502,50.9152,136.99,99.0946,99.0301,0.000877199,0.0443213,21.0164,-307.982,0.00576516,0.0,0.0
1134,283.25,48.6167,51.1328,138.514,99.0738,98.2825,0.000802143,0.0444869,21.0161,-307.962,0.0710274,0.0,0.0
1141,285,48.3579,50.716,137.859,99.059,97.8315,0.000769925,0.0446215,21.0159,-307.952,0.110441,0.0,0.0
1148,286.75,48.3334,50.7997,137.115,99.0622,98.4853,0.000791875,0.0447951,21.0166,-307.972,0.0517371,0.0,0.0
1155,288.5,48.4702,50.8369,137.429,99.0674,98.3052,0.000824893,0.044786,21.0169,-308.002,0.0684084,0.0,0.0
1162,290.25,48.5279,50.927,142.504,99.0598,97.8645,0.000767277,0.0448994,21.017,-308.012,0.107524,0.0,0.0
1169,292,48.2278,50.3223,138.654,99.0626,98.3245,0.000629118,0.0448072,21.0171,-308.032,0.0662425,0.0,0.0
1176,293.75,48.8151,50.8378,136.741,99.0586,98.1993,0.000545431,0.044585,21.0171,-308.042,0.0771683,0.0,0.0
1183,295.5,48.2076,50.905,131.574,99.0666,98.4595,0.000571559,0.0445496,21.0171,-308.052,0.0544439,0.0,0.0
1190,297.25,48.4959,50.7248,141.98,99.0646,98.2118,0.000689813,0.0444116,21.0171,-308.042,0.0765821,0.0,0.0
1197,299,48.6332,50.3969,138.411,99.0618,97.5915,0.000825435,0.0443728,21.0171,-308.052,0.132451,0.0,0.0
1204,300.75,48.5855,50.59375,138.03,99.049,97.8658,0.000847007,0.0443725,21.0171,-308.052,0.106443,0.0,0.0
1211,302.5,48.6038,50.5661,138.087,99.0614,98.3172,0.000718812,0.0443678,21.017,-308.052,0.0667906,0.0,0.0
1218,304.25,48.8804,50.8201,137.257,99.0618,97.8332,0.000627864,0.0443782,21.0166,-308.042,0.110536,0.0,0.0
1225,306,48.719,50.8307,137.028,99.0658,98.1449,0.00061155,0.0443889,21.0165,-308.052,0.0827234,0.0,0.0
1232,307.75,48.6339,51.1381,138.639,99.059,98.5479,0.000607945,0.0443208,21.0164,-308.042,0.0458243,0.0,0.0
1239,309.5,48.6652,50.9251,133.667,99.0642,98.9281,0.000623628,0.0442626,21.0157,-308.032,0.0121803,0.0,0.0
1246,311.25,48.6057,50.8732,136.928,99.0602,98.0574,0.000671319,0.0442932,21.0152,-308.052,0.0901179,0.0,0.0
1253,313,48.6647,50.609,136.792,99.0814,98.2272,0.000623113,0.0443354,21.0151,-308.022,0.076691,0.0,0.0
1260,314.75,48.5241,50.867,135.974,99.0486,98.1196,0.000541181,0.0443327,21.0154,-308.022,0.0834692,0.0,0.0
1267,316.5,48.8808,50.8248,136.059,99.0482,98.2272,0.000490894,0.0441925,21.0155,-308.032,0.0737261,0.0,0.0
1274,318.25,48.866,50.9936,136.512,99.0542,97.8632,0.000484469,0.0442169,21.0156,-308.022,0.107141,0.0,0.0
1281,320,48.9031,50.9197,141.255,99.0506,98.3078,0.000508192,0.0442159,21.0156,-308.052,0.0666764,0.0,0.0
1288,321.75,48.686,51.113,137.209,99.0462,97.6828,0.000577974,0.0441985,21.0157,-308.032,0.122774,0.0,0.0
1295,323.5,48.719,51.2112,137.939,99.0327,97.9648,0.000685794,0.0442422,21.0157,-308.022,0.09602,0.0,0.0
1302,325.25,49.0481,50.8454,135.357,99.0323,98.9885,0.000702931,0.0443011,21.0157,-308.022,0.00391105,0.0,0.0
1309,327,48.6327,50.8675,140.965,99.0395,99.016,0.000634984,0.0444324,21.0145,-308.022,0.00209983,0.0,0.0
1316,328.75,48.5375,51.3601,139.497,99.0371,97.7209,0.000561344,0.044617,21.0139,-308.042,0.118493,0.0,0.0
1323,330.5,48.1609,51.6712,135.437,99.0295,98.2401,0.000589188,0.0447435,21.0138,-308.042,0.070886,0.0,0.0
1330,332.25,48.7224,50.7793,137.593,99.0299,98.0622,0.000680099,0.0448041,21.0143,-308.042,0.0869766,0.0,0.0
1337,334,48.8991,50.9216,138.006,99.0207,98.0652,0.000731576,0.0449742,21.0131,-308.062,0.0858829,0.0,0.0
1344,335.75,48.6005,51.0974,139.93,99.0331,97.9777,0.000674185,0.0451273,21.0124,-308.052,0.0948929,0.0,0.0
1351,337.5,48.6146,50.611,139.134,99.0203,98.3001,0.000532704,0.0452302,21.0122,-308.052,0.0646558,0.0,0.0
1358,339.25,49.1388,50.3747,141.244,99.0111,98.2221,0.00035248,0.0453547,21.012,-308.042,0.070866,0.0,0.0
1365,341,48.6214,50.8251,134.902,98.9903,97.6862,0.000232252,0.0454436,21.0119,-308.042,0.11746,0.0,0.0
1372,342.75,48.9974,51.0006,143.146,99.0015,98.2323,0.000222469,0.0455009,21.0111,-308.022,0.06908,0.0,0.0
1379,344.5,48.3396,50.9493,137.525,98.9911,97.8054,0.000248969,0.0455548,21.0102,-308.032,0.106732,0.0,0.0
1386,346.25,48.5653,50.4567,136.052,98.9899,97.6836,0.000261147,0.0456632,21.0098,-308.042,0.117657,0.0,0.0
1393,348,49.0299,50.5177,141.128,98.9811,97.7535,0.000266256,0.0457448,21.0103,-308.022,0.110537,0.0,0.0
1400,349.75,48.9164,50.6103,140.014,98.9731,97.8131,0.000296489,0.0457927,21.0111,-308.022,0.104424,0.0,0.0
1407,351.5,48.714,50.509,135.016,98.9683,98.3665,0.000427836,0.0458486,21.0108,-308.002,0.0540231,0.0,0.0
1414,353.25,48.5346,50.3,142.258,98.9651,97.9413,0.000621514,0.0458423,21.0101,-308.042,0.0921097,0.0,0.0
1421,355,48.6242,50.8427,137.415,98.9571,97.8885,0.000712722,0.0459165,21.0104,-308.032,0.0961641,0.0,0.0
1428,356.75,48.4327,50.7744,136.543,98.942,98.5727,0.000707942,0.0460773,21.0121,-308.012,0.0331159,0.0,0.0
1435,358.5,48.2287,50.7202,137.798,98.9571,98.1565,0.000661222,0.0461167,21.0131,-308.032,0.0719553,0.0,0.0
1442,360.25,47.817,50.9356,140.227,98.9308,99.0567,0.000627775,0.0460614,21.0128,-308.052,-0.0112672,0.0,0.0
1449,362,49.2642,50.996,132.522,98.928,99.0516,0.000538733,0.0459903,21.0126,-308.032,-0.0110579,0.0,0.0
1456,363.75,48.614,50.9658,138.691,98.9292,98.4831,0.000356044,0.0460063,21.0126,-308.042,0.0400242,0.0,0.0
1463,365.5,47.9498,51.0565,136.019,98.9384,98.376,0.000211513,0.0460258,21.0125,-308.062,0.050491,0.0,0.0
1470,367.25,48.6874,50.9606,136.774,98.936,97.9018,0.000129901,0.0460465,21.0127,-308.042,0.0930668,0.0,0.0
1477,369,48.0488,51.0192,139.512,98.9212,97.9357,0.0001526,0.0459895,21.0138,-308.052,0.0886796,0.0,0.0
1484,370.75,48.6057,50.8449,134.792,98.914,97.8877,0.000313148,0.0459149,21.0143,-308.042,0.0923793,0.0,0.0
1491,372.5,48.6468,50.8432,136.76,98.9244,98.4094,0.000472321,0.0458269,21.0146,-308.062,0.0462297,0.0,0.0
1498,374.25,48.9774,50.8045,138.633,98.9284,97.922,0.000528497,0.0457247,21.0147,-308.032,0.0905641,0.0,0.0
1505,376,48.0508,51.2744,136.686,98.918,98.7322,0.000483771,0.0456998,21.0148,-308.062,0.0166519,0.0,0.0
1512,377.75,49.2852,51.2926,136.627,98.9168,98.9594,0.000452966,0.0456542,21.0148,-308.082,-0.00381454,0.0,0.0
1519,379.5,49.0621,51.2697,141.825,98.9112,97.5302,0.000483206,0.0456392,21.0141,-308.072,0.124537,0.0,0.0
1526,381.25,48.6635,51.0389,138.054,98.9128,98.0437,0.000539189,0.0455953,21.0138,-308.042,0.0781637,0.0,0.0
1533,383,49.1312,50.8929,139.395,98.9176,97.5949,0.000569379,0.0454363,21.0136,-308.052,0.119232,0.0,0.0
1540,384.75,48.2959,50.2692,135.384,98.9096,98.2251,0.000550451,0.0453057,21.0136,-308.052,0.0615117,0.0,0.0
1547,386.5,48.9751,51.2806,139.445,98.9296,98.4651,0.00050031,0.0451973,21.0135,-308.042,0.0416795,0.0,0.0
1554,388.25,48.3647,50.905,135.421,98.9136,98.4497,0.000431897,0.0450551,21.0135,-308.042,0.0416364,0.0,0.0
1561,390,48.7332,50.9858,137.44,98.924,97.4941,0.000376236,0.0449156,21.0144,-308.062,0.128952,0.0,0.0
1568,391.75,48.2973,51.0436,137.239,98.9176,97.9756,0.000348698,0.0449808,21.0152,-308.032,0.0847525,0.0,0.0
1575,393.5,49.1876,50.6665,139.714,98.904,98.0879,0.000429721,0.0449711,21.0155,-308.072,0.0733879,0.0,0.0
1582,395.25,48.9985,50.91,139.93,98.906,97.9846,0.000524994,0.0449981,21.0157,-308.042,0.0829012,0.0,0.0
1589,397,48.737,50.5126,137.785,98.918,98.1119,0.000558418,0.0450907,21.0147,-308.052,0.0724737,0.0,0.0
1596,398.75,49.1259,50.6611,137.576,98.9212,97.5859,0.000549461,0.04512,21.014,-308.062,0.120372,0.0,0.0
1603,400.5,48.7892,50.5973,137.426,98.9024,98.1856,0.000516706,0.0449658,21.0138,-308.062,0.0644241,0.0,0.0
1610,402.25,48.3335,50.7835,139.598,98.8948,98.171,0.000479405,0.0450257,21.014,-308.052,0.0650593,0.0,0.0
1617,404,48.7416,50.9185,136.777,98.9036,98.0716,0.000490515,0.0451264,21.0141,-308.082,0.0748234,0.0,0.0
1624,405.75,48.6827,50.6939,136.863,98.9068,98.0489,0.000532532,0.0451941,21.0141,-308.062,0.077162,0.0,0.0
1631,407.5,48.5786,51.2681,136.724,98.89,97.9991,0.000596221,0.0452006,21.0141,-308.062,0.0801519,0.0,0.0
1638,409.25,48.9249,50.989,138.244,98.9036,98.4012,0.000604343,0.0451691,21.0141,-308.042,0.0451016,0.0,0.0
1645,411,48.5193,50.7442,140.555,98.8852,98.2251,0.000545902,0.0453055,21.0141,-308.062,0.0593284,0.0,0.0
1652,412.75,48.4646,50.8791,136.182,98.896,97.9854,0.00048565,0.045348,21.0141,-308.052,0.0819295,0.0,0.0
1659,414.5,48.4901,51.1533,137.074,98.8904,97.6635,0.000504512,0.0452545,21.0151,-308.072,0.110577,0.0,0.0
1666,416.25,49.0342,50.5889,135.602,98.8616,97.1838,0.000548871,0.0451984,21.0158,-308.052,0.15161,0.0,0.0
1673,418,48.5145,50.914,139.041,98.868,98.0253,0.000562651,0.045036,21.0162,-308.062,0.0758211,0.0,0.0
1680,419.75,48.6791,50.6858,137.754,98.8904,97.2387,0.000612972,0.0448822,21.0168,-308.072,0.149188,0.0,0.0
1687,421.5,48.8946,51.1142,134.099,98.918,98.4553,0.000694277,0.0447761,21.0166,-308.042,0.0415292,0.0,0.0
1694,423.25,48.2957,50.4364,136.341,98.9108,97.8328,0.000691396,0.0446912,21.0158,-308.042,0.0970592,0.0,0.0
1701,425,48.5699,50.7945,138.203,98.9312,97.6943,0.00049451,0.0446886,21.0148,-308.062,0.111428,0.0,0.0
1708,426.75,48.6011,50.8538,136.695,98.9507,98.177,0.000227268,0.0446674,21.0141,-308.062,0.0695263,0.0,0.0
1715,428.5,48.7545,50.5967,138.17,98.9603,97.7419,0.000140688,0.0446866,21.0135,-308.052,0.109726,0.0,0.0
1722,430.25,48.6243,50.5689,135.771,98.9571,98.1037,0.000247905,0.0446419,21.0137,-308.042,0.076714,0.0,0.0
1729,432,48.796,50.256,139.205,98.9599,98.2375,0.000349917,0.0445398,21.0143,-308.052,0.0648979,0.0,0.0
1736,433.75,48.8554,51.053,139.63,98.9583,97.3137,0.000365507,0.0445582,21.0147,-307.992,0.14844,0.0,0.0
1743,435.5,48.5708,50.6015,137.883,98.9747,98.4072,0.000359847,0.044603,21.0148,-307.982,0.0509288,0.0,0.0
1750,437.25,48.3298,51.0392,133.587,98.9895,98.7639,0.000387607,0.0444746,21.0149,-308.002,0.0202091,0.0,0.0
1757,439,49.2523,50.9503,137.112,98.9867,98.0793,0.000443854,0.0443146,21.0149,-308.042,0.0815675,0.0,0.0
1764,440.75,49.0429,51.2135,137.016,98.9979,98.5256,0.000538499,0.0443178,21.0154,-308.052,0.0423605,0.0,0.0
1771,442.5,49.1605,51.1208,139.505,99.0099,97.6039,0.00061032,0.0444656,21.0156,-308.062,0.126677,0.0,0.0
1778,444.25,49.0173,51.1347,136.955,99.0227,97.8761,0.000665098,0.0445352,21.0157,-308.082,0.103153,0.0,0.0
1785,446,48.7079,50.8168,137.7,99.0103,99.0691,0.000692423,0.0444621,21.0158,-308.062,-0.00526232,0.0,0.0
1792,447.75,48.5805,51.0022,137.158,99.0223,98.3022,0.000708677,0.0444307,21.0155,-308.062,0.0646411,0.0,0.0
1799,449.5,48.6988,51.2831,135.046,99.0335,97.9811,0.000657233,0.0444922,21.0151,-308.072,0.0946193,0.0,0.0
1806,451.25,48.9,51.0013,134.881,99.0391,98.018,0.000520741,0.0445194,21.015,-308.072,0.0917868,0.0,0.0
1813,453,49.2105,51.4743,133.534,99.0474,97.6819,0.00038773,0.0446466,21.0149,-308.052,0.122958,0.0,0.0
1820,454.75,48.5335,50.3969,136.495,99.0522,98.0892,0.000288029,0.0446353,21.0148,-308.072,0.0865385,0.0,0.0
1827,456.5,49.3148,51.0364,137.052,99.0534,97.6558,0.000297249,0.0445942,21.0148,-308.072,0.125867,0.0,0.0
1834,458.25,49.2931,51.348,140.173,99.0566,98.5457,0.000414731,0.0446811,21.0148,-308.102,0.0458033,0.0,0.0
1841,460,48.9364,51.2182,137.493,99.0626,98.0489,0.000524696,0.0445513,21.0135,-308.102,0.0911076,0.0,0.0
1848,461.75,48.7968,51.2684,136.203,99.0626,99.4044,0.000633117,0.0446221,21.0125,-308.072,-0.030501,0.0,0.0
1855,463.5,49.292,51.0181,139.039,99.0694,97.9357,0.000682903,0.0446507,21.0121,-308.082,0.101943,0.0,0.0
1862,465.25,49.0098,51.3137,134.773,99.0702,98.9654,0.00069431,0.0448623,21.0118,-308.052,0.00937728,0.0,0.0
1869,467,48.9972,50.9578,136.711,99.0902,98.6615,0.000672392,0.0450483,21.0117,-308.082,0.0384064,0.0,0.0
1876,468.75,49.2176,50.7217,135.852,99.085,98.2478,0.000584753,0.0450782,21.0117,-308.072,0.0751584,0.0,0.0
1883,470.5,49.5738,51.378,134.687,99.0698,98.0956,0.000461163,0.0450405,21.0117,-308.082,0.0875297,0.0,0.0
1890,472.25,48.7566,51.3555,137.622,99.077,97.7591,0.000295499,0.0450291,21.0117,-308.052,0.118609,0.0,0.0
1897,474,49.1795,50.8703,138.2,99.0686,97.1645,0.000215299,0.0450895,21.0118,-308.062,0.171894,0.0,0.0
1904,475.75,48.6033,51.0442,137.361,99.0814,98.7798,0.000242183,0.0450573,21.0118,-308.082,0.0270053,0.0,0.0
1911,477.5,49.5282,51.3888,137.412,99.0642,98.2795,0.000287387,0.04507,21.0118,-308.062,0.0704408,0.0,0.0
1918,479.25,49.2859,51.1038,140.979,99.0682,98.3275,0.000373654,0.0451723,21.0118,-308.032,0.066472,0.0,0.0
1925,481,49.1687,51.4531,137.855,99.0662,98.3254,0.000487458,0.0452895,21.0118,-308.032,0.0664867,0.0,0.0
1932,482.75,49.1642,51.2001,140.831,99.077,98.7228,0.00056102,0.0452687,21.0118,-308.052,0.0317262,0.0,0.0
1939,484.5,49.0314,51.4657,133.054,99.0726,98.556,0.000565377,0.0453449,21.0118,-308.052,0.0463075,0.0,0.0
1946,486.25,48.6775,50.3911,136.654,99.0502,98.3014,0.000494897,0.0454537,21.0118,-308.052,0.0672202,0.0,0.0
1953,488,49.2113,51.4099,137.377,99.0419,97.8071,0.00044474,0.045445,21.0118,-308.042,0.111116,0.0,0.0
1960,489.75,48.5532,50.6995,137.908,99.0506,98.1792,0.000449301,0.0454848,21.0118,-308.062,0.0782704,0.0,0.0
1967,491.5,49.0362,51.2277,137.669,99.0447,98.5041,0.00047689,0.0454015,21.012,-308.062,0.0484688,0.0,0.0
1974,493.25,49.3874,50.9978,136.446,99.0251,97.4954,0.000486333,0.0453746,21.0124,-308.052,0.137882,0.0,0.0
1981,495,48.9363,50.7058,136.514,99.0179,97.892,0.00050446,0.0454272,21.013,-308.072,0.101289,0.0,0.0
1988,496.75,48.9962,51.2306,137.41,99.0243,97.6528,0.000545267,0.0455198,21.0132,-308.042,0.12353,0.0,0.0
1995,498.5,48.9945,50.8232,137.342,99.0359,97.4033,0.000557984,0.045636,21.0134,-308.042,0.147225,0.0,0.0
2002,500.25,49.3295,50.8808,138.032,99.0207,98.1736,0.000512865,0.0455783,21.0134,-308.022,0.0760933,0.0,0.0
2009,502,49.3409,50.7753,139.963,99.0339,98.0039,0.000449858,0.0455217,21.0134,-308.052,0.0926008,0.0,0.0
2016,503.75,49.1085,50.6157,136.264,99.0435,97.8148,0.000392494,0.0454979,21.013,-308.052,0.110561,0.0,0.0
2023,505.5,48.982,51.178,137.623,99.0654,98.8454,0.000388752,0.0454647,21.0116,-308.042,0.0196971,0.0,0.0
2030,507.25,48.3488,51.1633,137.453,99.0814,97.7608,0.000473073,0.045441,21.0109,-308.052,0.118848,0.0,0.0
2037,509,48.4555,51.3173,137.056,99.0902,97.7016,0.000581134,0.0455371,21.0106,-308.062,0.124994,0.0,0.0
2044,510.75,48.8099,51.3674,137.041,99.0646,97.7415,0.00067283,0.04548,21.0104,-308.042,0.119094,0.0,0.0
2051,512.5,48.637,50.9817,140.166,99.0918,97.8722,0.000750879,0.0454106,21.0104,-308.042,0.109684,0.0,0.0
2058,514.25,48.7782,50.8309,138.122,99.0918,97.6133,0.000801617,0.0453956,21.0103,-308.022,0.133146,0.0,0.0
2065,516,49.0525,51.0944,140.365,99.0826,98.592,0.000755098,0.0453464,21.0108,-308.042,0.0439638,0.0,0.0
2072,517.75,49.2011,51.3184,137.88,99.0758,97.6583,0.000606817,0.0452627,21.0117,-308.062,0.127635,0.0,0.0
2079,519.5,48.4598,51.0135,138.266,99.0918,98.1989,0.000403839,0.0450727,21.0121,-308.052,0.0801718,0.0,0.0
2086,521.25,48.8105,50.9491,136.321,99.1222,97.9833,0.000281684,0.0448572,21.0123,-308.032,0.102356,0.0,0.0
2093,523,48.8209,50.4781,138.442,99.117,98.4484,0.000258321,0.0447954,21.0127,-308.042,0.0599461,0.0,0.0
2100,524.75,48.922,50.7745,137.064,99.1162,97.9447,0.000300771,0.0448365,21.013,-308.032,0.105309,0.0,0.0
2107,526.5,48.5492,50.6749,133.846,99.1394,98.3438,0.000329488,0.0449373,21.0132,-307.982,0.0713615,0.0,0.0
2114,528.25,48.9692,50.7668,140.069,99.1557,98.5054,0.000328639,0.0450725,21.0133,-308.022,0.0582816,0.0,0.0
2121,530,49.1759,51.0058,136.01,99.1725,98.9277,0.000380897,0.0449153,21.0145,-308.032,0.0218955,0.0,0.0
2128,531.75,48.9788,51.3035,137.432,99.1741,98.1269,0.000510078,0.0447145,21.0151,-308.042,0.0940238,0.0,0.0
2135,533.5,49.0671,51.3236,136.191,99.1741,98.0849,0.000619276,0.044554,21.0153,-308.022,0.0978163,0.0,0.0
2142,535.25,49.2147,51.4578,134.017,99.1929,99.0627,0.00070767,0.0443502,21.0151,-308.032,0.0116341,0.0,0.0
2149,537,49.3626,50.7348,136.058,99.2129,97.5036,0.000725533,0.0442038,21.0149,-307.972,0.153925,0.0,0.0
2156,538.75,49.4953,51.4878,137.869,99.2025,97.8812,0.000688223,0.0442483,21.0149,-308.012,0.118757,0.0,0.0
2163,540.5,49.1622,51.093,135.077,99.2185,98.1749,0.000646856,0.0442061,21.0152,-307.982,0.0936519,0.0,0.0
2170,542.25,49.1593,51.1167,138.934,99.2025,98.1976,0.000613405,0.0441685,21.0155,-308.012,0.0901754,0.0,0.0
2177,544,49.1498,50.6615,135.291,99.2165,97.8722,0.000563204,0.0441724,21.0157,-308.002,0.12082,0.0,0.0
2184,545.75,48.9057,50.9567,137.657,99.2157,98.1119,0.000433411,0.0441562,21.0157,-307.992,0.0990891,0.0,0.0
2191,547.5,49.0144,51.3437,136.207,99.2105,97.7184,0.000301702,0.0440762,21.0158,-308.022,0.134223,0.0,0.0
2198,549.25,49.2182,51.368,138.297,99.2085,98.3061,0.00025681,0.0441724,21.0158,-308.012,0.0809335,0.0,0.0
2205,551,49.0144,50.8951,134.935,99.2237,98.1007,0.00030394,0.0441937,21.0158,-308.052,0.100809,0.0,0.0
2212,552.75,48.6715,50.8044,134.173,99.2253,98.8724,0.000392602,0.0441294,21.0158,-308.042,0.0315568,0.0,0.0
2219,554.5,48.515,51.4419,136.557,99.2221,98.3176,0.000438964,0.0440854,21.0166,-308.052,0.081103,0.0,0.0
2226,556.25,48.4739,50.9165,139.908,99.2273,98.4047,0.000484619,0.0440987,21.0174,-308.082,0.0737314,0.0,0.0
2233,558,49.2419,51.5381,136.696,99.2241,99.5523,0.000518016,0.0441471,21.0178,-308.082,-0.0292471,0.0,0.0
2240,559.75,49.0115,50.9616,139.342,99.2421,98.5611,0.000549932,0.0440851,21.018,-308.082,0.0609791,0.0,0.0
2247,561.5,48.9995,51.1066,136.102,99.2417,98.7138,0.000581772,0.0439257,21.0181,-308.062,0.0472401,0.0,0.0
2254,563.25,48.6658,50.492,137.477,99.2345,98.2941,0.00061068,0.043928,21.0181,-308.062,0.0843331,0.0,0.0
2261,565,49.3681,51.0942,138.019,99.2353,98.6863,0.000621397,0.0439056,21.0181,-308.062,0.0491314,0.0,0.0
2268,566.75,49.1582,51.0772,134.796,99.2337,97.943,0.000564168,0.0438199,21.0181,-308.062,0.115955,0.0,0.0
2275,568.5,49.3479,51.1051,139.877,99.248,99.028,0.000466923,0.043722,21.0181,-308.062,0.0196612,0.0,0.0
2282,570.25,49.3929,51.3618,138.355,99.2349,97.375,0.000403394,0.0436586,21.0181,-308.052,0.167577,0.0,0.0
2289,572,49.0459,51.3055,134.695,99.2377,99.9878,0.000434682,0.0436602,21.0181,-308.052,-0.0666997,0.0,0.0
2296,573.75,49.1126,51.1782,137.87,99.2321,98.1599,0.000558097,0.0436353,21.0181,-308.072,0.0962184,0.0,0.0
2303,575.5,48.7682,51.2178,138.768,99.2369,98.177,0.000636783,0.0435503,21.0181,-308.062,0.0950987,0.0,0.0
2310,577.25,48.7755,50.9749,137.819,99.2357,99.0931,0.000641224,0.0435597,21.0185,-308.072,0.0127296,0.0,0.0
2317,579,49.424,50.891,137.95,99.2313,99.5334,0.000580924,0.0435654,21.0196,-308.062,-0.0269264,0.0,0.0
2324,580.75,49.1231,51.2879,140.454,99.2305,98.1479,0.000459323,0.0435682,21.0198,-308.062,0.0971584,0.0,0.0
2331,582.5,49.4548,51.1748,138.108,99.2504,98.5414,0.000325884,0.043693,21.0204,-308.082,0.0634995,0.0,0.0
2338,584.25,49.3097,51.4668,138.555,99.2381,98.7536,0.000249697,0.0439678,21.0197,-308.082,0.0433419,0.0,0.0
2345,586,48.9871,50.7656,135.071,99.2393,98.2834,0.000229827,0.0441825,21.0193,-308.042,0.0857271,0.0,0.0
2352,587.75,48.9848,51.2755,138.716,99.2273,98.1548,0.000269565,0.0442388,21.0178,-308.062,0.096254,0.0,0.0
2359,589.5,49.394,51.123,135.516,99.2245,98.9637,0.000339251,0.0442949,21.0168,-308.042,0.0233098,0.0,0.0
2366,591.25,49.3089,51.1224,140.182,99.2417,98.1702,0.000446458,0.0445207,21.0163,-308.072,0.0961464,0.0,0.0
2373,593,49.132,50.8807,136.702,99.2161,98.3074,0.000515372,0.0446957,21.016,-308.082,0.0814953,0.0,0.0
2380,594.75,48.4919,51.13,139.008,99.2093,97.9134,0.000512368,0.0448756,21.0153,-308.052,0.116454,0.0,0.0
2387,596.5,48.8861,51.1253,136.961,99.2177,99.2719,0.000442521,0.0450012,21.0145,-308.052,-0.00483921,0.0,0.0
2394,598.25,48.7165,51.1916,136.14,99.2097,98.0729,0.000424465,0.0451769,21.0144,-308.072,0.102076,0.0,0.0
2401,600,48.7311,50.5514,136.75,99.1973,99.1017,0.000492656,0.0452418,21.0144,-308.062,0.00853874,0.0,0.0
2408,601.75,48.8489,51.0274,139.175,99.1849,98.3065,0.000588506,0.0453471,21.0144,-308.082,0.0787895,0.0,0.0
2415,603.5,49.1475,51.373,134.939,99.1837,98.0579,0.000657317,0.0454695,21.0144,-308.082,0.101112,0.0,0.0
2422,605.25,49.1133,50.4813,140.038,99.2029,98.2263,0.000673654,0.0454412,21.0144,-308.082,0.0876206,0.0,0.0
2429,607,49.1593,51.2781,138.084,99.1909,97.9087,0.000575932,0.0453841,21.0143,-308.072,0.11524,0.0,0.0
2436,608.75,48.7474,50.8532,140.532,99.1917,98.1912,0.000493357,0.0453748,21.0139,-308.062,0.0897918,0.0,0.0
2443,610.5,49.2505,51.224,138.441,99.1905,97.7608,0.000545014,0.0453349,21.0126,-308.072,0.128594,0.0,0.0
2450,612.25,47.2001,49.0307,137.673,99.2121,98.1835,0.000694748,0.0453527,21.0115,-308.072,0.0923072,0.0,0.0
2457,614,47.003,49.284,138.93,99.2285,98.5937,0.000821528,0.0453445,21.011,-308.062,0.0568393,0.0,0.0
2464,615.75,47.0398,49.2038,141.4,99.2137,98.1719,0.000880994,0.0453928,21.0107,-308.062,0.0934952,0.0,0.0
2471,617.5,47.2072,49.288,138.35,99.2185,98.5689,0.000833442,0.0454766,21.0106,-308.092,0.058181,0.0,0.0
2478,619.25,46.937,49.2063,136.023,99.2137,97.9404,0.000759925,0.0453976,21.0106,-308.082,0.114404,0.0,0.0
2485,621,46.8833,49.0283,135.873,99.2353,98.415,0.000730561,0.0454427,21.0105,-308.082,0.0735188,0.0,0.0
2492,622.75,46.825,49.4751,136.747,99.248,98.7815,0.000707382,0.0454563,21.0105,-308.082,0.0417352,0.0,0.0
2499,624.5,47.1502,49.354,134.886,99.2337,98.4733,0.000619465,0.045452,21.0105,-308.062,0.0681308,0.0,0.0
2506,626.25,47.1268,49.2179,136.719,99.2397,98.0544,0.000477013,0.0454802,21.0105,-308.072,0.106417,0.0,0.0
2513,628,47.0602,49.39,142.262,99.2544,98.7609,0.000390083,0.0455147,21.0104,-308.092,0.0441509,0.0,0.0
2520,629.75,47.0609,49.4381,137.59,99.2648,97.9653,0.000450829,0.0455638,21.01,-308.092,0.116721,0.0,0.0
2527,631.5,47.2222,49.3133,136.34,99.2604,98.4171,0.00059885,0.0454748,21.0098,-308.062,0.075572,0.0,0.0
2534,633.25,47.0622,49.4632,137.008,99.2608,98.5393,0.000645954,0.0454499,21.0108,-308.082,0.0646201,0.0,0.0
2541,635,47.0866,49.2831,137.568,99.2784,99.0618,0.000561017,0.0455363,21.0119,-308.092,0.019342,0.0,0.0
2548,636.75,46.5914,49.0848,134.48,99.2964,98.1277,0.0004772,0.0456191,21.0124,-308.072,0.10486,0.0,0.0
2555,638.5,46.6139,49.3711,135.84,99.308,98.8419,0.000515365,0.0454985,21.012,-308.082,0.0416648,0.0,0.0
2562,640.25,47.0303,49.4357,138.875,99.3108,98.4107,0.000566283,0.0454549,21.0129,-308.082,0.0806426,0.0,0.0
2569,642,47.3266,49.0118,139.356,99.3132,99.2698,0.000602562,0.0454067,21.0133,-308.092,0.00387411,0.0,0.0
2576,643.75,47.4153,49.5284,138.647,99.312,98.4064,0.000603251,0.0453612,21.0135,-308.092,0.0811354,0.0,0.0
2583,645.5,46.8742,49.3317,135.799,99.3264,98.3121,0.000523446,0.0452707,21.0136,-308.062,0.0909101,0.0,0.0
2590,647.25,46.6333,49.4956,138.035,99.3348,98.5697,0.000468751,0.0451848,21.0137,-308.082,0.0684776,0.0,0.0
2597,649,47.2309,49.7841,136.551,99.3423,99.0563,0.000463799,0.0450654,21.0137,-308.082,0.0255421,0.0,0.0
2604,650.75,47.2398,49.4184,135.852,99.3539,97.8581,0.000522076,0.0451301,21.014,-308.072,0.134363,0.0,0.0
2611,652.5,47.2741,49.8568,135.982,99.3635,97.841,0.000641813,0.0453838,21.0143,-308.062,0.13677,0.0,0.0
2618,654.25,47.2167,49.1405,136.7,99.3703,98.7412,0.000757025,0.0454282,21.0144,-308.082,0.0562539,0.0,0.0
2625,656,47.3199,49.7263,135.905,99.3807,98.9753,0.00079211,0.0454334,21.014,-308.062,0.03621,0.0,0.0
2632,657.75,47.4634,49.2507,136.648,99.3863,98.1157,0.000768182,0.0454733,21.0129,-308.052,0.11396,0.0,0.0
2639,659.5,47.1844,49.717,138.335,99.4095,99.022,0.00071616,0.0453305,21.0123,-308.032,0.0345926,0.0,0.0
2646,661.25,47.1764,49.3181,136.474,99.4267,98.2491,0.000586643,0.0450227,21.0121,-308.032,0.105529,0.0,0.0
2653,663,47.2319,48.9795,134.946,99.4279,97.6751,0.000441893,0.0448272,21.0119,-308.042,0.157534,0.0,0.0
2660,664.75,47.086,49.4201,141.195,99.4415,98.5256,0.000402929,0.0446348,21.0127,-308.052,0.0819546,0.0,0.0
2667,666.5,46.6927,48.875,136.621,99.4442,98.7163,0.000420275,0.0443972,21.0134,-308.022,0.0650708,0.0,0.0
2674,668.25,47.3514,49.284,135.384,99.4602,98.7266,0.000433253,0.0441916,21.0138,-308.052,0.0655718,0.0,0.0
2681,670,47.3726,49.3302,135.549,99.4702,98.7806,0.00045189,0.044055,21.014,-308.052,0.0616166,0.0,0.0
2688,671.75,47.1195,49.1546,138.067,99.4678,99.1266,0.00050638,0.0438887,21.0137,-308.052,0.0304384,0.0,0.0
2695,673.5,47.1461,49.4832,137.754,99.4802,98.4081,0.000556801,0.0439014,21.0135,-308.072,0.0959719,0.0,0.0
2702,675.25,47.3551,49.5497,136.6,99.5034,98.8977,0.000526846,0.0439312,21.0142,-308.072,0.0540829,0.0,0.0
2709,677,47.5379,49.5546,138.541,99.5086,98.9101,0.000404981,0.0439204,21.0149,-308.072,0.0534322,0.0,0.0
2716,678.75,47.1213,49.7828,140.366,99.5118,98.5924,0.000319011,0.0439679,21.0153,-308.072,0.0822067,0.0,0.0
2723,680.5,47.4027,49.6298,137.254,99.5222,98.1235,0.00039295,0.0440456,21.0145,-308.042,0.125362,0.0,0.0
2730,682.25,46.955,49.4154,139.389,99.533,98.977,0.000559991,0.0440462,21.014,-308.042,0.0496144,0.0,0.0
2737,684,47.5478,49.3825,134.926,99.5513,99.0683,0.000674115,0.0439809,21.0137,-308.042,0.0430823,0.0,0.0
2744,685.75,47.7909,49.3661,140.874,99.5425,97.8903,0.000709001,0.0439897,21.0136,-308.062,0.148252,0.0,0.0
2751,687.5,47.0574,49.7146,138.671,99.5421,98.2941,0.000744592,0.0441164,21.0135,-308.052,0.111753,0.0,0.0
2758,689.25,47.198,49.5394,139.955,99.5473,98.9332,0.000709962,0.0442728,21.0135,-308.062,0.054808,0.0,0.0
2765,691,47.3715,49.267,136.983,99.5713,99.8519,0.000568209,0.0442289,21.0135,-308.062,-0.0249234,0.0,0.0
2772,692.75,47.0309,49.4185,134.157,99.5789,99.5124,0.00038375,0.044336,21.0135,-308.072,0.00591921,0.0,0.0
2779,694.5,46.9681,49.3144,137.541,99.5597,98.526,0.000268303,0.0444398,21.0135,-308.062,0.0924441,0.0,0.0
2786,696.25,47.0914,49.3767,137.405,99.5729,98.9311,0.00022433,0.0444042,21.0135,-308.062,0.0572746,0.0,0.0
2793,698,47.2348,49.0786,139.517,99.5873,98.8732,0.000219618,0.0444089,21.0135,-308.072,0.0637375,0.0,0.0
2800,699.75,47.3994,49.8236,137.035,99.5977,100.05,0.000285875,0.0443408,21.0147,-308.042,-0.0401279,0.0,0.0
2807,701.5,47.5672,49.1306,135.079,99.6005,98.4763,0.000391249,0.0442073,21.0153,-308.082,0.100541,0.0,0.0
2814,703.25,47.5476,49.7345,136.249,99.5925,98.7086,0.000480541,0.0440358,21.0168,-308.062,0.078958,0.0,0.0
2821,705,47.5088,49.1552,139.405,99.5993,98.7879,0.000569511,0.0439163,21.0167,-308.062,0.0724486,0.0,0.0
2828,706.75,47.0251,49.4986,135.431,99.6113,98.3717,0.000606611,0.0438758,21.0166,-308.072,0.110913,0.0,0.0
2835,708.5,47.6718,49.8644,141.74,99.6133,98.7575,0.000622542,0.0439258,21.0165,-308.052,0.076422,0.0,0.0
2842,710.25,47.1494,49.2007,137.339,99.6053,98.3382,0.000619193,0.0438821,21.0165,-308.072,0.113392,0.0,0.0
2849,712,46.8316,49.344,138.64,99.6157,98.2156,0.000574491,0.0437632,21.0165,-308.082,0.125365,0.0,0.0
2856,713.75,47.3536,48.9781,136.342,99.6149,99.0721,0.000566713,0.0436839,21.0165,-308.082,0.048389,0.0,0.0
2863,715.5,47.0634,49.4185,137.166,99.6348,98.5569,0.000619987,0.0436348,21.0165,-308.072,0.0963511,0.0,0.0
2870,717.25,47.1908,49.442,138.559,99.6161,99.3671,0.000682751,0.0436441,21.0165,-308.082,0.0221672,0.0,0.0
2877,719,47.1885,49.1228,137.151,99.6177,98.7339,0.000696971,0.0436868,21.0165,-308.062,0.0789266,0.0,0.0
2884,720.75,47.6283,49.4967,136.646,99.6121,99.301,,0.0437061,,-308.072,0.027699,0.0,0.0
2891,722.5,47.7115,49.2808,134.02,99.6337,99.4442,,0.0439759,,-308.042,0.0168553,0.0,0.0
2898,724.25,47.2239,49.0944,136.807,99.6221,98.3099,,,,-308.052,0.117432,0.0,0.0
2905,726,47.0438,49.6241,140.443,99.6145,98.6443,,,,-308.032,0.0866839,0.0,0.0
2912,727.75,46.8537,49.7139,142.118,99.6161,98.2109,,,,-308.032,0.125826,0.0,0.0
2919,729.5,47.4192,49.5457,138.31,99.6177,98.3781,,,,-308.062,0.110903,0.0,0.0
2924,730.75,47.3474,49.3866,138.786,99.6101,98.3927,,,,-308.072,0.108916,0.0,0.0