File: 01_Data/Mineral_Wool_Insulation/Cone/Mineral_Wool_Insulation_Cone_HF75Scan_220426_R2.csv
Names,Time,Stack TC,Smoke TC,Exh Press,Smoke Comp,Smoke Meas,CO Meter,CO2 Meter,O2 Meter,Sample Mass,Ext Coeff,Start Test,Flame Verif
Chan Gain,,500,500,1,1,1,1,1,1,1,1,1.0,1.0
Offset,,0,0,0.135223,0,0,0,0,0,0,0,0.0,0.0
Gain,,1,1,25.011,13.0939,14.0471,1,1,1,1.00088,1.00971,1.0,1.0
Units,sec,C,C,Pa,%,%,%,%,%,g,/m,,
Baseline,,44.9154,46.659,139.427,99.3024,97.9929,0.000792662,0.0451079,21.0124,-834.956,0.117661,,
7,1.5,42.7393,44.3029,136.5,99.4375,97.6815,0.00143621,0.0519227,21.0028,-307.982,0.157804,0.0,0.0
14,3.25,43.3734,44.4337,138.795,99.4291,98.382,0.00194742,0.0540963,20.9995,-308.012,0.093771,0.0,0.0
21,5,42.6479,44.2324,138.468,99.4291,98.3065,0.00253411,0.0564489,20.9959,-308.042,0.100565,0.0,0.0
28,6.75,42.4418,44.6524,135.979,99.4387,98.7228,0.00292264,0.057866,20.9942,-308.072,0.0639964,0.0,0.0
35,8.5,43.5997,44.3998,138.17,99.4438,98.5504,0.00320343,0.058733,20.9923,-308.072,0.0799332,0.0,0.0
42,10.25,43.4555,45.1133,138.386,99.4371,98.8672,0.00335604,0.0589535,20.9913,-308.092,0.0509026,0.0,0.0
49,12,43.5389,45.0152,143.426,99.4343,99.019,0.00338534,0.0586155,20.9919,-308.102,0.0370691,0.0,0.0
56,13.75,43.5038,45.1451,138.92,99.4438,97.9335,0.00334359,0.0580771,20.9923,-308.122,0.135548,0.0,0.0
63,15.5,43.904,45.2389,136.913,99.453,98.3237,0.00333341,0.0574978,20.9925,-308.162,0.101156,0.0,0.0
70,17.25,43.409,45.306,137.419,99.4578,98.5453,0.00333321,0.0570018,20.9934,-308.152,0.0816407,0.0,0.0
77,19,44.0049,44.821,137.066,99.449,98.3417,0.00325791,0.0564632,20.9942,-308.152,0.0991789,0.0,0.0
84,20.75,43.8741,45.3338,137.04,99.4478,98.2855,0.00315793,0.0560426,20.9956,-308.142,0.104132,0.0,0.0
91,22.5,44.1124,46.246,136.325,99.4522,98.7468,0.00309948,0.055669,20.9952,-308.172,0.063053,0.0,0.0
98,24.25,44.2069,46.0018,140.649,99.467,98.7408,0.00314536,0.0553604,20.9958,-308.212,0.0649073,0.0,0.0
105,26,44.0961,46.0766,140.812,99.459,98.7935,0.00318058,0.0553103,20.9963,-308.212,0.0594679,0.0,0.0
112,27.75,44.5226,46.1048,137.164,99.469,98.3785,0.00309469,0.0551149,20.9972,-308.232,0.0976377,0.0,0.0
119,29.5,44.479,46.131,137.025,99.4674,98.5376,0.00289653,0.0546123,20.9976,-308.242,0.0831889,0.0,0.0
126,31.25,44.2409,46.1829,137.386,99.4818,99.103,0.00275639,0.0542922,20.9984,-308.272,0.0337912,0.0,0.0
133,33,44.569,46.1838,134.576,99.5002,98.3691,0.00275859,0.0540957,20.9994,-308.292,0.101262,0.0,0.0
140,34.75,44.4077,46.3434,137.505,99.4794,98.3074,0.00282372,0.0539294,20.9999,-308.262,0.104972,0.0,0.0
147,36.5,44.9114,46.7276,137.792,99.4878,98.2238,0.00283439,0.0536756,21.0001,-308.262,0.113254,0.0,0.0
154,38.25,44.8271,46.4208,137.087,99.495,98.7223,0.00277771,0.0535781,21.0002,-308.272,0.0690517,0.0,0.0
161,40,44.7736,47.1169,137.352,99.5074,98.6379,0.00266963,0.0534165,21.0014,-308.322,0.0777345,0.0,0.0
168,41.75,45.214,46.9408,139.133,99.5126,98.3592,0.00259093,0.0532858,21.0021,-308.322,0.103252,0.0,0.0
175,43.5,45.0113,47.3541,139.974,99.5098,99.0438,0.00263277,0.0531551,21.0023,-308.312,0.0415692,0.0,0.0
182,45.25,44.9037,46.8906,136.11,99.5397,98.8569,0.00272312,0.0529024,21.0025,-308.332,0.0609665,0.0,0.0
189,47,45.7115,46.8398,136.341,99.5409,98.4574,0.00269294,0.0525932,21.0025,-308.372,0.0969412,0.0,0.0
196,48.75,45.0983,46.9291,135.596,99.5417,98.0883,0.00259398,0.0524733,21.0026,-308.382,0.130279,0.0,0.0
203,50.5,45.121,47.1745,134.03,99.535,98.4304,0.00251894,0.0523769,21.0023,-308.382,0.0988386,0.0,0.0
210,52.25,45.3659,47.3092,136.958,99.5537,98.376,0.00256914,0.052318,21.0021,-308.392,0.105409,0.0,0.0
217,54,45.0021,47.0588,137.792,99.5661,98.5337,0.00261131,0.0522087,21.0029,-308.422,0.0923197,0.0,0.0
224,55.75,45.615,47.374,140.627,99.5757,98.2199,0.00256469,0.0521014,21.004,-308.412,0.121425,0.0,0.0
231,57.5,45.6924,47.4291,135.848,99.5713,98.3905,0.00239846,0.0519043,21.0046,-308.432,0.105661,0.0,0.0
238,59.25,45.1729,47.4473,137.052,99.5769,98.8771,0.00228375,0.051672,21.0049,-308.442,0.062468,0.0,0.0
245,61,45.3873,47.5947,139.331,99.5813,98.3922,0.0022723,0.0515184,21.005,-308.422,0.106396,0.0,0.0
252,62.75,45.8236,47.5408,136.693,99.5945,99.2578,0.00228769,0.0513664,21.0051,-308.442,0.0299985,0.0,0.0
259,64.5,45.4487,47.4185,139.952,99.5881,98.8381,0.00228365,0.0511391,21.0047,-308.432,0.0669572,0.0,0.0
266,66.25,45.7984,47.9487,133.473,99.5925,98.1835,0.00222502,0.0509133,21.0045,-308.462,0.126205,0.0,0.0
273,68,45.7296,47.8102,136.94,99.5957,98.2015,0.0021388,0.0509072,21.005,-308.452,0.124865,0.0,0.0
280,69.75,45.6418,47.7821,137.101,99.6121,98.5444,0.00208633,0.0508067,21.0046,-308.492,0.0954434,0.0,0.0
287,71.5,45.339,47.628,138.538,99.6313,98.7095,0.00210679,0.0507262,21.0052,-308.502,0.082327,0.0,0.0
294,73.25,45.8541,47.6869,142.413,99.6089,98.1132,0.00216668,0.0506465,21.0066,-308.492,0.134005,0.0,0.0
301,75,45.8443,47.8909,138.275,99.6305,98.3176,0.00219545,0.0506654,21.0073,-308.512,0.117483,0.0,0.0
308,76.75,46.037,47.8978,139.511,99.6309,98.1282,0.00219891,0.0507443,21.0076,-308.502,0.134605,0.0,0.0
315,78.5,45.9905,47.7934,135.08,99.6408,98.5414,0.00215841,0.0507116,21.0078,-308.502,0.0982716,0.0,0.0
322,80.25,46.0977,48.1081,134.704,99.6484,98.2512,0.00211658,0.0507034,21.0079,-308.502,0.12507,0.0,0.0
329,82,46.1411,48.3206,135.145,99.6368,99.3864,0.00210029,0.0506904,21.0079,-308.502,0.0222946,0.0,0.0
336,83.75,46.2727,48.0012,140.655,99.642,98.6447,0.00203703,0.0508381,21.0079,-308.502,0.0890967,0.0,0.0
343,85.5,46.0057,48.0742,139.569,99.664,98.4132,0.00184848,0.0509279,21.0067,-308.512,0.11186,0.0,0.0
350,87.25,45.9266,48.3939,137.876,99.6684,98.8638,0.00165428,0.0509849,21.0061,-308.522,0.071794,0.0,0.0
357,89,46.146,48.3107,140.485,99.67,98.7373,0.00157427,0.0509465,21.0058,-308.542,0.0832715,0.0,0.0
364,90.75,45.9525,48.2154,137.187,99.6612,98.2473,0.00155217,0.0510192,21.0057,-308.552,0.126554,0.0,0.0
371,92.5,46.7358,48.5883,137.024,99.666,98.8964,0.00157864,0.0511028,21.0057,-308.552,0.068663,0.0,0.0
378,94.25,46.8636,48.2267,139.194,99.6592,99.0074,0.00161961,0.0510339,21.0056,-308.572,0.0581201,0.0,0.0
385,96,46.1694,48.4736,139.38,99.6504,98.4921,0.0016497,0.0509143,21.0067,-308.572,0.103556,0.0,0.0
392,97.75,46.174,48.0881,140.128,99.648,98.6383,0.00167385,0.0507833,21.0073,-308.572,0.0902067,0.0,0.0
399,99.5,46.3711,47.8638,141.358,99.6564,98.2504,0.00174454,0.0508616,21.0076,-308.582,0.125857,0.0,0.0
406,101.25,45.9696,48.5187,138.879,99.6592,99.0983,0.00182278,0.051052,21.0078,-308.572,0.0499944,0.0,0.0
413,103,46.094,48.1846,138.309,99.6516,98.5564,0.00185199,0.0510841,21.0066,-308.592,0.097881,0.0,0.0
420,104.75,46.0019,48.4826,136.203,99.6472,98.2559,0.00189854,0.0509859,21.0061,-308.592,0.124538,0.0,0.0
427,106.5,46.1185,48.4759,137.265,99.6476,98.4973,0.00202731,0.0508234,21.0058,-308.582,0.102844,0.0,0.0
434,108.25,46.4364,48.6214,136.174,99.6536,98.7952,0.00208985,0.0506735,21.0057,-308.592,0.0766261,0.0,0.0
441,110,46.3819,48.6173,138.092,99.6648,99.0923,0.00199818,0.0505055,21.0056,-308.592,0.0510285,0.0,0.0
448,111.75,46.5221,48.8759,139.057,99.6528,99.4202,0.0018326,0.0502219,21.0067,-308.592,0.0206978,0.0,0.0
455,113.5,46.5607,48.3527,137.73,99.6648,98.4715,0.00167212,0.0499626,21.0073,-308.622,0.106685,0.0,0.0
462,115.25,46.8388,48.3472,139.405,99.6724,98.9662,0.00160336,0.0498863,21.0081,-308.612,0.0629754,0.0,0.0
469,117,46.2382,49.1053,138.225,99.6852,98.183,0.00154645,0.0497884,21.0092,-308.612,0.134483,0.0,0.0
476,118.75,46.8093,48.7284,140.512,99.702,98.6404,0.00149249,0.0496993,21.0098,-308.592,0.0948083,0.0,0.0
483,120.5,46.7673,48.7992,135.9,99.6896,99.0237,0.00153434,0.0496102,21.0089,-308.622,0.059362,0.0,0.0
490,122.25,46.5878,48.7504,138.225,99.6888,98.6593,0.00164876,0.0496802,21.0084,-308.622,0.0919425,0.0,0.0
497,124,46.7513,48.7891,138.772,99.7064,98.6657,0.00172474,0.0496699,21.0082,-308.622,0.0929279,0.0,0.0
504,125.75,47.0449,48.4999,139.685,99.7208,98.9302,0.00173379,0.0495466,21.008,-308.612,0.0704932,0.0,0.0
511,127.5,46.655,48.9107,136.954,99.7112,99.0541,0.0016921,0.0494925,21.0088,-308.612,0.0585565,0.0,0.0
518,129.25,46.6855,48.7814,139.824,99.716,99.1844,0.00160771,0.0493867,21.0095,-308.612,0.0473378,0.0,0.0
525,131,46.696,49.1991,140.133,99.7288,98.9195,0.00148905,0.049232,21.0099,-308.612,0.0721627,0.0,0.0
532,132.75,46.5867,48.5522,136.09,99.73,98.6392,0.00142426,0.0490865,21.0105,-308.582,0.097408,0.0,0.0
539,134.5,47.0118,48.7543,138.232,99.7359,98.7618,0.00135422,0.0488097,21.0116,-308.552,0.0869379,0.0,0.0
546,136.25,47.002,48.9149,134.263,99.7403,99.3199,0.00132048,0.0485422,21.0121,-308.542,0.037414,0.0,0.0
553,138,46.9953,48.9173,135.072,99.7423,98.6482,0.00139437,0.0482882,21.0124,-308.552,0.0976993,0.0,0.0
560,139.75,47.0767,49.4104,138.513,99.7711,100.316,0.00158746,0.0482113,21.0125,-308.542,-0.0482546,0.0,0.0
567,141.5,46.7901,48.9375,139.601,99.7627,99.0336,0.00181115,0.0480985,21.0123,-308.532,0.0649744,0.0,0.0
574,143.25,47.1426,49.4554,135.626,99.7655,99.1557,0.00186657,0.0478842,21.0121,-308.582,0.0543032,0.0,0.0
581,145,46.7095,49.2439,135.914,99.7735,99.6526,0.00172932,0.0477196,21.012,-308.602,0.0107431,0.0,0.0
588,146.75,46.8103,49.7001,141.029,99.7823,98.3674,0.00150126,0.0476127,21.0122,-308.592,0.126493,0.0,0.0
595,148.5,47.3831,48.9756,137.854,99.7915,99.0018,0.00134233,0.0474865,21.0133,-308.602,0.0703664,0.0,0.0
602,150.25,46.7781,49.2042,137.948,99.7831,98.748,0.00136903,0.0474509,21.0138,-308.612,0.0923553,0.0,0.0
609,152,46.7958,49.2042,138.293,99.7939,98.628,0.00150267,0.0474705,21.014,-308.602,0.104085,0.0,0.0
616,153.75,47.4375,49.0818,136.797,99.8123,98.1535,0.0016212,0.0475444,21.0141,-308.612,0.148435,0.0,0.0
623,155.5,46.9012,49.0575,136.519,99.8223,99.7036,0.00173508,0.0475844,21.0142,-308.632,0.0105364,0.0,0.0
630,157.25,46.5603,49.0135,138.702,99.8255,98.3297,0.00173356,0.0475855,21.0142,-308.622,0.133721,0.0,0.0
637,159,46.976,49.4167,133.155,99.8247,98.5744,0.00168443,0.0475797,21.0151,-308.632,0.111629,0.0,0.0
644,160.75,46.8867,49.4638,135.552,99.8422,99.3594,0.00166995,0.0474909,21.0156,-308.632,0.0429415,0.0,0.0
651,162.5,47.1812,49.4527,141.684,99.8706,99.3949,0.00165201,0.0474323,21.0158,-308.622,0.0422869,0.0,0.0
658,164.25,46.737,49.073,137.136,99.8786,98.9688,0.00159241,0.0474043,21.0152,-308.632,0.0810486,0.0,0.0
665,166,46.5699,48.6512,139.135,99.8626,98.8372,0.00147463,0.0473534,21.0144,-308.632,0.0914169,0.0,0.0
672,167.75,47.0406,49.1153,139.742,99.8686,99.2209,0.00136431,0.0475166,21.014,-308.642,0.0576323,0.0,0.0
679,169.5,47.3914,48.7305,139.016,99.8786,98.9015,0.00130802,0.0475674,21.0128,-308.632,0.0870738,0.0,0.0
686,171.25,46.8289,49.6254,134.778,99.9018,99.3152,0.00138688,0.0476344,21.0111,-308.652,0.0521591,0.0,0.0
693,173,47.0719,49.228,138.415,99.9042,98.9864,0.0015368,0.0476701,21.0103,-308.632,0.0817432,0.0,0.0
700,174.75,46.652,49.0399,137.814,99.8926,98.5852,0.0016602,0.047747,21.0099,-308.682,0.116691,0.0,0.0
707,176.5,47.1452,49.7472,139.429,99.9126,99.0121,0.00168953,0.0479649,21.0097,-308.662,0.0801864,0.0,0.0
714,178.25,47.1723,49.509,137.524,99.9246,99.1373,0.00160498,0.047973,21.0097,-308.632,0.0700584,0.0,0.0
721,180,47.463,49.4334,138.764,99.9318,98.4398,0.0014967,0.0479087,21.0101,-308.672,0.133229,0.0,0.0
728,181.75,46.9465,49.1265,138.052,99.917,99.4502,0.00147187,0.0478534,21.0102,-308.642,0.0414704,0.0,0.0
735,183.5,47.0778,49.4473,136.328,99.9182,99.1412,0.00151828,0.0477913,21.0103,-308.652,0.069146,0.0,0.0
742,185.25,46.9844,49.1377,135.986,99.927,97.8988,0.00154952,0.0476653,21.0104,-308.632,0.181613,0.0,0.0
749,187,47.2712,49.0729,137.256,99.9477,98.2225,0.00149702,0.047639,21.011,-308.662,0.154222,0.0,0.0
756,188.75,47.0264,49.0952,137.949,99.9425,98.9307,0.0013918,0.0476209,21.0104,-308.662,0.0901315,0.0,0.0
763,190.5,47.4207,49.5229,139.914,99.9353,99.2385,0.00131453,0.047662,21.0097,-308.682,0.0619794,0.0,0.0
770,192.25,47.3618,49.4197,140.127,99.9489,98.9341,0.00134795,0.0476984,21.0092,-308.652,0.0903906,0.0,0.0
777,194,47.4043,49.1036,138.586,99.9649,98.8805,0.00140347,0.0477936,21.0089,-308.692,0.0966059,0.0,0.0
784,195.75,47.0819,49.1565,135.4,99.9633,98.4793,0.00144475,0.0479682,21.0076,-308.672,0.132478,0.0,0.0
791,197.5,47.1429,49.1329,140.627,99.9625,99.5411,0.00145897,0.0483333,21.007,-308.682,0.0374171,0.0,0.0
798,199.25,47.5837,48.9568,138.477,99.9641,98.9495,0.00139668,0.0484995,21.0067,-308.692,0.0903541,0.0,0.0
805,201,47.0224,49.6174,139.286,99.9801,98.7095,0.00127647,0.0487472,21.0058,-308.722,0.113285,0.0,0.0
812,202.75,47.2303,49.3893,137.922,99.9733,98.2178,0.00114897,0.0489315,21.0054,-308.752,0.156913,0.0,0.0
819,204.5,47.4433,49.5589,138.118,99.9597,98.7742,0.00107411,0.0490198,21.0051,-308.762,0.105673,0.0,0.0
826,206.25,47.2287,49.244,137.801,99.9613,98.6186,0.0010536,0.0490542,21.005,-308.762,0.11978,0.0,0.0
833,208,47.3125,49.4848,135.408,99.9709,98.4883,0.00105385,0.0492773,21.005,-308.762,0.132341,0.0,0.0
840,209.75,47.3876,49.401,134.446,99.9849,100.193,0.00110524,0.0493714,21.005,-308.792,-0.0184278,0.0,0.0
847,211.5,47.3654,49.3241,137.185,99.9741,98.8668,0.00126879,0.0493803,21.0049,-308.772,0.0986485,0.0,0.0
854,213.25,47.5542,49.0266,136.248,99.9657,98.8557,0.00144441,0.0493846,21.0049,-308.772,0.0989033,0.0,0.0
861,215,47.6066,49.9411,138.707,99.9885,99.4194,0.00151123,0.0494105,21.0049,-308.782,0.0505582,0.0,0.0
868,216.75,47.0496,49.5289,137.642,99.9757,99.247,0.0014524,0.049333,21.0049,-308.772,0.064792,0.0,0.0
875,218.5,47.5439,49.5792,136.835,99.9861,98.583,0.00133215,0.0491714,21.0049,-308.772,0.125171,0.0,0.0
882,220.25,46.9761,49.1679,136.688,99.9849,99.2492,0.00124775,0.049073,21.0049,-308.792,0.0654135,0.0,0.0
889,222,47.6831,49.3969,140.232,99.9749,99.3491,0.00123146,0.0491003,21.0049,-308.792,0.0556201,0.0,0.0
896,223.75,46.9839,49.4957,135.536,99.9757,99.8545,0.00127785,0.0490938,21.0049,-308.772,0.0107462,0.0,0.0
903,225.5,47.696,49.1727,137.042,99.9805,99.1317,0.00131618,0.0492685,21.0049,-308.772,0.0755123,0.0,0.0
910,227.25,47.3956,50.1157,141.582,99.9873,98.9294,0.00129894,0.0493815,21.0049,-308.762,0.0942119,0.0,0.0
917,229,47.7445,49.5219,140.988,99.9737,99.5844,0.00125221,0.0494422,21.0049,-308.782,0.0345569,0.0,0.0
924,230.75,47.5425,50.0402,136.993,99.9733,99.4597,0.00114777,0.0494355,21.0049,-308.772,0.0456237,0.0,0.0
931,232.5,47.6671,49.9943,139.994,99.9937,98.2529,0.00105683,0.0494191,21.0052,-308.782,0.155549,0.0,0.0
938,234.25,47.7343,49.4066,138.781,99.9793,99.8618,0.000973138,0.0492906,21.0063,-308.772,0.0104182,0.0,0.0
945,236,47.5326,50.1785,140.886,99.9773,99.4828,0.000934637,0.0492733,21.0068,-308.772,0.0439166,0.0,0.0
952,237.75,47.3835,49.7465,137.649,99.9797,99.2556,0.00094921,0.0490727,21.007,-308.792,0.0643801,0.0,0.0
959,239.5,47.7722,49.8947,136.997,99.9821,99.1424,0.000999279,0.0488601,21.0071,-308.782,0.0746967,0.0,0.0
966,241.25,47.3685,49.8471,136.859,99.9849,98.6344,0.0011122,0.0488109,21.0083,-308.792,0.120443,0.0,0.0
973,243,47.9539,50.2183,133.356,99.9765,99.1857,0.00120415,0.0485763,21.0093,-308.782,0.070334,0.0,0.0
980,244.75,47.6039,50.3324,139.027,99.9805,99.3148,0.00125096,0.0483131,21.0099,-308.792,0.0591732,0.0,0.0
987,246.5,47.5937,49.5536,136.511,99.9881,99.1587,0.00125476,0.0481972,21.0102,-308.752,0.0737722,0.0,0.0
994,248.25,47.7616,50.1167,140.418,99.9929,99.1763,0.00128051,0.0480325,21.0103,-308.732,0.0726277,0.0,0.0
1001,250,47.8878,49.7037,137.706,99.9833,99.3293,0.00128284,0.0479016,21.0108,-308.732,0.0581212,0.0,0.0
1008,251.75,47.4834,50.3692,138.19,99.9797,98.3147,0.00116671,0.0476614,21.0118,-308.742,0.148747,0.0,0.0
1015,253.5,47.5153,49.9316,137.891,99.9841,99.3323,0.00102714,0.0473271,21.0123,-308.762,0.057925,0.0,0.0
1022,255.25,48.286,50.4329,137.322,99.9841,99.4134,0.000907448,0.0470996,21.0122,-308.752,0.0507031,0.0,0.0
1029,257,48.0826,49.9738,137.326,99.9869,98.4565,0.000812979,0.046869,21.0119,-308.732,0.136611,0.0,0.0
1036,258.75,48.0555,49.5867,134.595,99.9801,98.7836,0.00081948,0.0466248,21.0117,-308.722,0.106633,0.0,0.0
1043,260.5,48.3453,49.931,142.571,99.9781,99.5767,0.000885456,0.0464341,21.0123,-308.702,0.0356327,0.0,0.0
1050,262.25,47.9385,50.0787,136.79,99.9857,99.0546,0.000922931,0.0462754,21.0131,-308.732,0.0828699,0.0,0.0
1057,264,47.7798,49.9557,135.308,100.009,99.6697,0.000871421,0.0462129,21.0135,-308.732,0.030088,0.0,0.0
1064,265.75,47.8214,50.3706,133.791,99.9865,99.6303,0.00079029,0.0461373,21.0137,-308.742,0.0316105,0.0,0.0
1071,267.5,47.8634,50.3457,138.064,99.9797,99.1034,0.00075061,0.046022,21.0138,-308.702,0.0779711,0.0,0.0
1078,269.25,47.8584,50.2891,139.776,99.9813,98.7721,0.000707582,0.0459395,21.0138,-308.712,0.107777,0.0,0.0
1085,271,47.9213,50.1549,138.792,99.9869,99.0065,0.000705744,0.045972,21.0139,-308.742,0.0872704,0.0,0.0
1092,272.75,47.8204,50.1696,135.597,99.9921,98.9242,0.000756325,0.0460064,21.0139,-308.752,0.0950966,0.0,0.0
1099,274.5,47.4012,50.0594,134.259,99.9805,99.1193,0.00076386,0.0459314,21.0139,-308.792,0.076624,0.0,0.0
1106,276.25,47.822,50.4066,137.515,99.9765,98.6765,0.000755989,0.0458716,21.0139,-308.792,0.115929,0.0,0.0
1113,278,47.9533,50.1733,137.296,99.9765,99.2243,0.000807414,0.0457364,21.0136,-308.772,0.0668902,0.0,0.0
1120,279.75,47.7207,49.996,136.651,99.9893,98.3297,0.00086628,0.0455361,21.0131,-308.732,0.148245,0.0,0.0
1127,281.5,47.9742,50.0669,141.702,99.9785,98.6713,0.000811126,0.045388,21.0128,-308.742,0.116567,0.0,0.0
1134,283.25,48.2035,50.0012,135.866,99.9781,99.6474,0.000743693,0.0453372,21.0129,-308.752,0.029344,0.0,0.0
1141,285,47.779,50.3771,137.8,99.9813,98.649,0.000733369,0.0452455,21.014,-308.732,0.118816,0.0,0.0
1148,286.75,47.6857,49.9537,133.477,99.9961,99.7482,0.000775041,0.045283,21.0144,-308.712,0.021986,0.0,0.0
1155,288.5,47.6087,50.1819,138.952,99.9829,99.83,0.000840707,0.045302,21.0147,-308.752,0.0135509,0.0,0.0
1162,290.25,47.8529,49.8125,133.849,99.9837,99.5801,0.000899722,0.0451623,21.0148,-308.772,0.0358231,0.0,0.0
1169,292,47.7466,49.6769,140.52,99.9989,98.7429,0.000879666,0.044964,21.0148,-308.772,0.111949,0.0,0.0
1176,293.75,47.9143,49.6087,138.192,99.9845,99.5475,0.0007696,0.0448451,21.0149,-308.772,0.0387922,0.0,0.0
1183,295.5,47.7876,49.7978,135.302,100.007,98.7095,0.000683226,0.0448916,21.0149,-308.802,0.115693,0.0,0.0
1190,297.25,47.5441,50.0287,137.721,99.9753,98.682,0.000704277,0.0449498,21.0149,-308.812,0.115323,0.0,0.0
1197,299,47.7386,50.1695,140.771,99.9825,98.8398,0.000728155,0.0449777,21.0149,-308.792,0.101811,0.0,0.0
1204,300.75,47.5574,50.2937,141.903,99.9813,99.3332,0.000703969,0.0449688,21.0149,-308.782,0.0576009,0.0,0.0
1211,302.5,47.677,49.7717,136.811,100,99.0417,0.000720333,0.0450257,21.0155,-308.782,0.0853298,0.0,0.0
1218,304.25,47.9448,50.0748,139.679,99.9897,99.0974,0.0007723,0.0450616,21.016,-308.772,0.0793912,0.0,0.0
1225,306,47.2571,49.8074,139.95,99.9745,99.1086,0.000722576,0.0450979,21.0163,-308.772,0.07705,0.0,0.0
1232,307.75,48.2222,49.8732,136.245,100.006,99.6166,0.000556763,0.0450485,21.0165,-308.792,0.0345295,0.0,0.0
1239,309.5,47.8444,50.4633,140.178,99.9849,98.7005,0.000460258,0.0450249,21.0165,-308.762,0.114518,0.0,0.0
1246,311.25,47.7136,49.9934,140.285,99.9897,99.28,0.000494417,0.0450307,21.0165,-308.802,0.0630844,0.0,0.0
1253,313,47.6942,50.3356,137.552,99.9789,99.0957,0.000524563,0.0451001,21.0166,-308.812,0.0785896,0.0,0.0
1260,314.75,47.6278,50.0959,135.94,99.9789,98.7999,0.00057154,0.0450368,21.0166,-308.812,0.105067,0.0,0.0
1267,316.5,47.4837,50.1979,137.322,99.9781,99.3864,0.000658269,0.0452749,21.0165,-308.822,0.0525789,0.0,0.0
1274,318.25,48.0684,50.0857,135.202,99.9885,99.3422,0.000762935,0.0455327,21.0161,-308.802,0.0574351,0.0,0.0
1281,320,47.8095,49.787,135.8,99.9829,99.7705,0.000808744,0.0455645,21.0159,-308.802,0.0188395,0.0,0.0
1288,321.75,47.9585,50.115,138.587,99.9741,99.2929,0.00075521,0.0454732,21.0148,-308.832,0.0605565,0.0,0.0
1295,323.5,47.9122,49.7088,138.796,99.9785,98.3189,0.000695935,0.045394,21.0141,-308.822,0.148254,0.0,0.0
1302,325.25,48.1385,50.5628,139.571,99.9941,99.0704,0.000706837,0.0453524,21.014,-308.842,0.0821952,0.0,0.0
1309,327,47.7912,49.9598,136.506,99.9881,99.3349,0.00070132,0.0453931,21.0143,-308.842,0.0580488,0.0,0.0
1316,328.75,48.3892,50.4829,136.038,99.9697,99.1382,0.000642494,0.0454126,21.0147,-308.832,0.0739827,0.0,0.0
1323,330.5,48.2654,50.0735,135.571,99.9597,99.6153,0.000605537,0.0456041,21.0149,-308.852,0.030573,0.0,0.0
1330,332.25,47.6665,50.4379,140.745,99.9653,99.2603,0.000654475,0.0456849,21.015,-308.822,0.062685,0.0,0.0
1337,334,48.2928,49.9661,136.302,99.9733,98.9778,0.000677074,0.0458633,21.0151,-308.832,0.0886368,0.0,0.0
1344,335.75,48.3023,50.2334,137.638,99.9597,98.9311,0.000601751,0.0459681,21.0151,-308.832,0.0916155,0.0,0.0
1351,337.5,48.1392,50.7679,136.525,99.9541,99.2333,0.000509343,0.0461357,21.0149,-308.862,0.0641044,0.0,0.0
1358,339.25,47.8755,50.8705,139.951,99.9561,99.6761,0.000491067,0.0463807,21.0138,-308.822,0.024843,0.0,0.0
1365,341,48.5914,50.0955,137.947,99.9641,98.8196,0.000494917,0.0467912,21.012,-308.802,0.101989,0.0,0.0
1372,342.75,48.2943,50.0092,135.216,99.9565,98.6859,0.000510786,0.0470828,21.0112,-308.842,0.113312,0.0,0.0
1379,344.5,48.0272,49.9334,135.416,99.9457,99.2119,0.000600462,0.0472921,21.0108,-308.832,0.0652731,0.0,0.0
1386,346.25,47.8688,50.1395,139.581,99.9457,98.4908,0.000737312,0.0475092,21.0106,-308.822,0.129879,0.0,0.0
1393,348,47.7641,50.2808,134.757,99.9537,99.0138,0.000806262,0.0477406,21.0106,-308.842,0.0836794,0.0,0.0
1400,349.75,48.1327,50.1587,136.77,99.9461,100.195,0.000797621,0.0479547,21.0103,-308.832,-0.0220513,0.0,0.0
1407,351.5,47.9548,50.3632,136.732,99.9397,98.5856,0.000769172,0.048036,21.0096,-308.842,0.120832,0.0,0.0
1414,353.25,47.5642,49.6236,136.792,99.9425,98.7,0.000800409,0.0478757,21.0103,-308.842,0.110803,0.0,0.0
1421,355,48.0722,50.2286,138.36,99.9397,99.2299,0.000823631,0.0478343,21.0106,-308.822,0.0631347,0.0,0.0
1428,356.75,48.3622,50.385,135.249,99.9465,98.7828,0.000783229,0.0476354,21.0108,-308.802,0.103736,0.0,0.0
1435,358.5,48.3602,50.4808,143.683,99.9333,98.6079,0.000754161,0.0474996,21.0108,-308.842,0.118263,0.0,0.0
1442,360.25,47.9869,49.8873,140.064,99.9266,99.3821,0.000734656,0.0473675,21.0109,-308.832,0.0483932,0.0,0.0
1449,362,48.1869,50.0559,138.707,99.9314,98.8724,0.000740851,0.0472143,21.0109,-308.812,0.0943602,0.0,0.0
1456,363.75,47.7789,49.9551,139.247,99.9385,98.8466,0.000737256,0.0468682,21.0109,-308.822,0.0973025,0.0,0.0
1463,365.5,48.2442,50.1546,137.205,99.9373,98.6597,0.000677124,0.0465205,21.0109,-308.832,0.11396,0.0,0.0
1470,367.25,48.2224,50.5165,139.713,99.9266,99.7469,0.000626488,0.0463143,21.0109,-308.832,0.0159405,0.0,0.0
1477,369,47.8478,50.1159,138.805,99.9266,99.148,0.000576547,0.0460562,21.0117,-308.832,0.069278,0.0,0.0
1484,370.75,48.367,50.4859,137.012,99.9305,98.9517,0.000538155,0.0458067,21.0125,-308.842,0.0871878,0.0,0.0
1491,372.5,48.3165,50.2713,138.394,99.9441,99.8751,0.000534265,0.0456874,21.0121,-308.822,0.0061239,0.0,0.0
1498,374.25,47.9384,50.1766,136.712,99.9437,99.3628,0.000534015,0.0456556,21.0118,-308.832,0.0516353,0.0,0.0
1505,376,47.8432,50.1394,137.314,99.9417,99.4824,0.000563448,0.0455538,21.0117,-308.852,0.040803,0.0,0.0
1512,377.75,47.9992,50.4224,135.815,99.9449,98.7708,0.000614157,0.0455217,21.0119,-308.872,0.10467,0.0,0.0
1519,379.5,47.8468,50.4716,136.172,99.9465,99.0486,0.000657336,0.0454177,21.0127,-308.862,0.0799374,0.0,0.0
1526,381.25,48.0705,50.2507,140.818,99.9565,99.1917,0.000670933,0.0453472,21.0129,-308.842,0.0680281,0.0,0.0
1533,383,48.107,50.2368,136.054,99.9342,98.2058,0.00063627,0.0453546,21.0129,-308.842,0.154525,0.0,0.0
1540,384.75,47.7359,50.3388,138.397,99.9477,98.9564,0.000593405,0.0454551,21.0125,-308.862,0.0882887,0.0,0.0
1547,386.5,48.4891,50.3059,135.79,99.9621,99.635,0.000579062,0.0454457,21.0125,-308.852,0.0290325,0.0,0.0
1554,388.25,48.348,50.744,139.853,99.9541,98.9405,0.000579077,0.0453193,21.012,-308.842,0.0902757,0.0,0.0
1561,390,48.2917,50.5145,138.088,99.9445,98.977,0.000521276,0.0451607,21.0113,-308.862,0.0861642,0.0,0.0
1568,391.75,47.9789,50.8893,137.107,99.9533,99.6084,0.000446182,0.0451904,21.0114,-308.862,0.0306172,0.0,0.0
1575,393.5,48.1912,50.3106,136.977,99.9633,99.1231,0.000407359,0.0453161,21.0115,-308.852,0.0747564,0.0,0.0
1582,395.25,48.7236,50.1269,136.821,99.9593,98.9817,0.00039268,0.0453403,21.0107,-308.842,0.0870519,0.0,0.0
1589,397,48.4157,50.397,136.305,99.9701,99.2766,0.000418962,0.0453024,21.0103,-308.842,0.0616564,0.0,0.0
1596,398.75,48.2097,50.7273,136.439,99.9725,99.1,0.000518531,0.0453172,21.0112,-308.812,0.0776393,0.0,0.0
1603,400.5,48.0974,51.0388,140.062,99.9701,99.5986,0.000608903,0.0453783,21.0117,-308.782,0.0329802,0.0,0.0
1610,402.25,48.6859,50.701,135.745,99.9645,99.5613,0.000588022,0.045169,21.012,-308.752,0.035801,0.0,0.0
1617,404,48.1751,50.7611,138.398,99.9785,98.6923,0.000537461,0.0451686,21.0121,-308.752,0.114682,0.0,0.0
1624,405.75,48.0271,50.372,138.371,99.9661,98.3597,0.000563929,0.0451918,21.0122,-308.762,0.143489,0.0,0.0
1631,407.5,48.1697,50.141,139.085,99.9665,98.6323,0.000612955,0.0451309,21.0133,-308.752,0.119008,0.0,0.0
1638,409.25,48.0109,50.7999,137.102,99.9709,99.2397,0.000579169,0.0450823,21.0139,-308.772,0.0650163,0.0,0.0
1645,411,48.6489,50.4716,139.122,99.9809,99.2878,0.000464564,0.0448719,21.0142,-308.802,0.0616176,0.0,0.0
1652,412.75,48.2749,50.1305,136.272,99.9753,99.7113,0.000380277,0.0446393,21.0139,-308.792,0.0234194,0.0,0.0
1659,414.5,48.4177,50.5381,136.621,99.9665,99.172,0.000348967,0.0444121,21.0138,-308.792,0.0706733,0.0,0.0
1666,416.25,48.1108,50.5057,137.322,99.9621,99.3345,0.00034849,0.0441573,21.0144,-308.782,0.0557859,0.0,0.0
1673,418,48.6279,50.215,136.708,99.9809,99.4974,0.000375311,0.0441354,21.0165,-308.802,0.0429373,0.0,0.0
1680,419.75,48.5584,50.8535,137.266,99.9893,99.0271,0.00039566,0.0441336,21.0179,-308.812,0.0856424,0.0,0.0
1687,421.5,48.3987,50.6554,139.213,99.9741,99.1866,0.000361583,0.0440019,21.0186,-308.842,0.0700448,0.0,0.0
1694,423.25,47.841,50.3979,141.139,99.9761,98.9405,0.0003091,0.0439807,21.0189,-308.802,0.0922226,0.0,0.0
1701,425,48.7587,49.8717,138.001,99.9781,99.0383,0.000269896,0.0438752,21.019,-308.782,0.0836544,0.0,0.0
1708,426.75,48.1726,50.0876,133.807,99.9889,99.2037,0.000252851,0.043812,21.0191,-308.772,0.0698238,0.0,0.0
1715,428.5,48.2555,50.3007,137.195,99.9717,99.3645,0.000299913,0.0437963,21.0192,-308.782,0.0539611,0.0,0.0
1722,430.25,48.8192,50.2373,138.15,99.9741,99.5004,0.000346068,0.0437705,21.0192,-308.782,0.0420683,0.0,0.0
1729,432,48.0876,50.5567,138.689,99.9829,99.2346,0.000339924,0.043667,21.0194,-308.792,0.0665381,0.0,0.0
1736,433.75,48.4715,50.7401,138.692,99.9881,99.6208,0.000302596,0.0436277,21.0198,-308.812,0.032591,0.0,0.0
1743,435.5,48.5164,50.3229,138.862,99.9877,99.3071,0.000397874,0.0436214,21.0199,-308.832,0.0604988,0.0,0.0
1750,437.25,48.524,50.1454,138.008,99.9793,98.6572,0.000580083,0.0437053,21.02,-308.792,0.117908,0.0,0.0
1757,439,48.3596,50.4269,134.944,99.9817,99.2003,0.000705293,0.0437255,21.02,-308.812,0.0694928,0.0,0.0
1764,440.75,48.4174,50.427,140.446,99.9889,98.9011,0.000669967,0.0437257,21.0198,-308.782,0.0968869,0.0,0.0
1771,442.5,48.1264,50.5526,136.806,99.9945,98.9315,0.000592973,0.0437106,21.0195,-308.802,0.0946569,0.0,0.0
1778,444.25,48.3777,50.5443,137.767,99.9845,99.1167,0.000509506,0.0436926,21.0203,-308.782,0.0772081,0.0,0.0
1785,446,48.337,50.7183,137.311,99.9785,99.5008,0.000430652,0.0435994,21.0203,-308.862,0.0424193,0.0,0.0
1792,447.75,48.4718,50.6219,137.161,99.9889,99.4309,0.000349673,0.043509,21.0207,-308.822,0.0495619,0.0,0.0
1799,449.5,48.5539,50.4004,137.415,99.9917,98.8162,0.000329468,0.0433816,21.0203,-308.852,0.104739,0.0,0.0
1806,451.25,48.6439,50.5466,140.01,99.9817,98.6284,0.000462324,0.0433659,21.0197,-308.842,0.120699,0.0,0.0
1813,453,48.32,50.4925,137.898,99.9793,99.3409,0.000664856,0.0432835,21.0198,-308.832,0.0567354,0.0,0.0
1820,454.75,48.377,50.6412,137.238,99.9817,99.2097,0.000784878,0.0433323,21.0199,-308.792,0.0686505,0.0,0.0
1827,456.5,48.1618,51.0631,136.347,99.9873,98.8625,0.000721676,0.0434601,21.02,-308.822,0.100201,0.0,0.0
1834,458.25,48.3886,50.2944,139.353,100.001,99.7495,0.000631216,0.043533,21.02,-308.832,0.0223325,0.0,0.0
1841,460,48.3909,50.553,134.784,99.9693,100.274,0.00061471,0.0435654,21.02,-308.832,-0.0269301,0.0,0.0
1848,461.75,48.4645,50.7464,134.375,99.9721,98.9744,0.000639539,0.0435615,21.0201,-308.802,0.0888364,0.0,0.0
1855,463.5,48.5639,50.4533,135.289,99.9729,100.041,0.000621068,0.043776,21.0189,-308.782,-0.00606527,0.0,0.0
1862,465.25,48.5532,50.8631,135.072,99.9829,98.6812,0.000480482,0.0440259,21.017,-308.772,0.116072,0.0,0.0
1869,467,48.6031,50.4392,135.206,99.9701,98.7545,0.000353904,0.0443277,21.0157,-308.762,0.108362,0.0,0.0
1876,468.75,47.832,50.238,139.204,99.9785,98.8235,0.000345568,0.0446174,21.015,-308.762,0.102917,0.0,0.0
1883,470.5,48.6066,50.7241,138.263,99.9641,99.4987,0.00040648,0.0446984,21.0147,-308.732,0.0413359,0.0,0.0
1890,472.25,48.5909,51.1643,136.282,99.9741,98.8921,0.000407664,0.0448319,21.0145,-308.762,0.0963824,0.0,0.0
1897,474,48.9431,50.5833,132.022,99.9629,99.9312,0.000373072,0.0447879,21.0144,-308.772,0.00281022,0.0,0.0
1904,475.75,48.781,50.876,134.619,99.9529,100.073,0.000361939,0.0447423,21.0144,-308.772,-0.0106049,0.0,0.0
1911,477.5,48.8322,50.7761,140.537,99.9617,98.9337,0.000391915,0.0447963,21.0144,-308.782,0.0915622,0.0,0.0
1918,479.25,48.825,51.2901,136.564,99.9605,99.5591,0.000455809,0.0447177,21.0144,-308.762,0.035638,0.0,0.0
1925,481,48.8193,50.6565,136.741,99.9837,99.521,0.000507959,0.0445669,21.0144,-308.762,0.0410857,0.0,0.0
1932,482.75,48.1043,50.0017,140.993,99.9621,98.9868,0.000526633,0.0444475,21.0144,-308.782,0.0868396,0.0,0.0
1939,484.5,48.3099,50.5877,138.131,99.9633,99.5643,0.000553306,0.0444368,21.0145,-308.782,0.0354287,0.0,0.0
1946,486.25,47.8121,50.6875,141.771,99.9741,98.989,0.00057565,0.0444364,21.0152,-308.772,0.0877095,0.0,0.0
1953,488,48.6991,50.6313,140.587,99.9829,99.1416,0.000595639,0.0442959,21.0156,-308.772,0.0748444,0.0,0.0
1960,489.75,48.2228,50.1704,140.907,99.9729,99.1827,0.000658685,0.0441839,21.0157,-308.782,0.0702837,0.0,0.0
1967,491.5,48.6993,50.7958,134.724,99.9609,99.193,0.000738585,0.0440848,21.0158,-308.772,0.0683026,0.0,0.0
1974,493.25,48.4335,50.6163,139.334,99.9597,99.62,0.000775891,0.0441328,21.0158,-308.792,0.0301543,0.0,0.0
1981,495,48.8234,50.0712,135.861,99.9813,99.7876,0.000781868,0.0442102,21.016,-308.782,0.0171757,0.0,0.0
1988,496.75,48.3053,50.74,135.75,100.003,100.654,0.000674371,0.0444119,21.0164,-308.792,-0.0574423,0.0,0.0
1995,498.5,48.5042,50.6352,137.36,99.9709,99.2162,0.000547227,0.0445295,21.0166,-308.832,0.0671207,0.0,0.0
2002,500.25,48.3842,50.7181,141.969,99.9789,99.046,0.000535865,0.0445144,21.0167,-308.822,0.0830351,0.0,0.0
2009,502,48.7401,50.2028,137.013,99.9857,99.7932,0.000623758,0.0445071,21.0167,-308.842,0.0170703,0.0,0.0
2016,503.75,48.5575,50.4278,136.441,99.9845,99.7525,0.000756758,0.0445036,21.0167,-308.812,0.0205788,0.0,0.0
2023,505.5,48.528,50.4516,136.86,99.9805,99.4048,0.000888425,0.0445693,21.0158,-308.832,0.0511482,0.0,0.0
2030,507.25,48.4954,50.4738,134.675,99.9677,99.4777,0.000910977,0.0446278,21.016,-308.832,0.0435247,0.0,0.0
2037,509,48.597,50.6582,138.313,99.9725,99.2535,0.000807468,0.0445855,21.0178,-308.832,0.0639346,0.0,0.0
2044,510.75,48.2696,50.8405,143.049,99.9877,99.0781,0.000686842,0.0446228,21.0187,-308.802,0.0809387,0.0,0.0
2051,512.5,48.2469,50.5278,138.636,99.9777,98.7395,0.000585775,0.0447673,21.0191,-308.802,0.110381,0.0,0.0
2058,514.25,48.2563,50.7414,141.267,99.9789,99.1292,0.000543715,0.044904,21.0193,-308.842,0.0756013,0.0,0.0
2065,516,48.3628,50.4672,137.178,99.9853,100.632,0.000603723,0.0450593,21.0194,-308.832,-0.0571123,0.0,0.0
2072,517.75,48.4747,51.1387,138.947,99.9821,98.8085,0.000693944,0.0451605,21.0188,-308.812,0.10458,0.0,0.0
2079,519.5,48.6266,50.202,136.883,99.9877,99.5968,0.000747365,0.0451758,21.018,-308.842,0.0346904,0.0,0.0
2086,521.25,48.3018,50.5216,136.122,99.9861,99.1399,0.00071341,0.0451968,21.0168,-308.852,0.0752809,0.0,0.0
2093,523,48.6089,50.4464,136.747,99.9897,99.6624,0.000649166,0.0453063,21.0158,-308.852,0.0290367,0.0,0.0
2100,524.75,48.3292,50.3612,134.646,99.9769,100.041,0.000662439,0.0454608,21.0161,-308.862,-0.0057108,0.0,0.0
2107,526.5,48.5894,50.3722,137.371,99.9885,99.5763,0.000728394,0.0454883,21.0159,-308.852,0.0365917,0.0,0.0
2114,528.25,48.2674,50.7334,137.557,100,99.7923,0.000761648,0.0454976,21.0166,-308.862,0.0184212,0.0,0.0
2121,530,48.5949,50.8026,137.825,99.9837,98.9684,0.000759837,0.0455215,21.0159,-308.862,0.0904011,0.0,0.0
2128,531.75,48.6198,51.0911,137.257,99.9745,98.6563,0.000697067,0.045551,21.0154,-308.852,0.117561,0.0,0.0
2135,533.5,48.5198,50.7189,137.584,99.9745,99.2256,0.00065641,0.0455866,21.0151,-308.892,0.0665978,0.0,0.0
2142,535.25,49.0238,50.1708,139.328,99.9777,98.7999,0.000656736,0.0456946,21.015,-308.852,0.10496,0.0,0.0
2149,537,48.416,50.759,135.689,99.9793,99.172,0.000584735,0.0461089,21.0149,-308.862,0.0718066,0.0,0.0
2156,538.75,48.843,50.8239,140.989,99.9633,99.8811,0.000379684,0.0465435,21.0137,-308.862,0.00729184,0.0,0.0
2163,540.5,48.5372,51.0088,138.653,99.9573,99.2406,0.000161165,0.0470094,21.0131,-308.842,0.0637365,0.0,0.0
2170,542.25,48.1157,51.0676,137.372,99.9777,99.1124,6.35329e-05,0.0475368,21.0128,-308.862,0.0769893,0.0,0.0
2177,544,48.3432,50.4301,140.354,99.9697,99.2089,0.000121685,0.0477509,21.0114,-308.852,0.0676656,0.0,0.0
2184,545.75,48.5167,50.9956,134.332,99.9533,99.725,0.000280344,0.0479645,21.0108,-308.862,0.0202544,0.0,0.0
2191,547.5,48.9013,50.2824,136.919,99.9585,98.9637,0.000427103,0.0482751,21.0105,-308.862,0.0885928,0.0,0.0
2198,549.25,47.8089,50.9122,132.218,99.9809,98.7549,0.000501463,0.048494,21.0094,-308.862,0.10928,0.0,0.0
2205,551,48.4535,50.5519,139.038,99.9621,100.008,0.000530874,0.0486994,21.0086,-308.872,-0.0040221,0.0,0.0
2212,552.75,48.3128,50.2354,136.547,99.9421,98.7725,0.000538749,0.0488337,21.0082,-308.862,0.104268,0.0,0.0
2219,554.5,48.3486,50.4783,137.747,99.9465,100.272,0.000534897,0.048802,21.0073,-308.872,-0.0288345,0.0,0.0
2226,556.25,48.7814,50.1139,136.139,99.9449,98.7099,0.00048898,0.0487327,21.0067,-308.862,0.110131,0.0,0.0
2233,558,48.4136,50.5535,138.769,99.9481,99.0001,0.000440924,0.0486859,21.0064,-308.852,0.0844116,0.0,0.0
2240,559.75,48.4235,50.4051,143.967,99.9369,99.2783,0.00039232,0.0486201,21.0063,-308.852,0.0585638,0.0,0.0
2247,561.5,48.51,50.4188,137.251,99.929,99.2102,0.000359069,0.0484895,21.0063,-308.852,0.0639388,0.0,0.0
2254,563.25,48.2155,50.6461,139.711,99.9342,98.9165,0.000333305,0.0483837,21.0072,-308.842,0.090654,0.0,0.0
2261,565,48.3049,50.3607,138.251,99.9337,99.085,0.000264055,0.0482191,21.0079,-308.852,0.0755458,0.0,0.0
2268,566.75,48.6374,50.2499,134.875,99.9314,99.8918,0.000252283,0.0479917,21.0082,-308.842,0.00350788,0.0,0.0
2275,568.5,48.3363,50.3802,137.602,99.9214,99.184,0.000326921,0.0478365,21.0082,-308.842,0.0656011,0.0,0.0
2282,570.25,48.3187,50.4619,137.623,99.9357,98.6756,0.000445496,0.0476198,21.008,-308.852,0.112395,0.0,0.0
2289,572,48.2078,50.5097,137.408,99.935,98.9838,0.000574232,0.0473161,21.0088,-308.852,0.0847002,0.0,0.0
2296,573.75,48.4392,50.5955,138.653,99.9353,99.4387,0.000653912,0.0470694,21.0094,-308.842,0.0441298,0.0,0.0
2303,575.5,48.1169,50.1553,133.706,99.925,98.8376,0.000714016,0.0468421,21.0097,-308.832,0.0969046,0.0,0.0
2310,577.25,48.7153,50.227,138.61,99.9266,98.5761,0.000775452,0.0467182,21.0102,-308.802,0.120511,0.0,0.0
2317,579,48.4376,50.5184,136.364,99.9298,98.8089,0.000848569,0.0464228,21.0113,-308.812,0.0999045,0.0,0.0
2324,580.75,48.4196,50.4886,137.78,99.9294,98.947,0.000842811,0.0461034,21.0125,-308.792,0.0875035,0.0,0.0
2331,582.5,48.7505,50.5866,134.886,99.933,98.6482,0.000779551,0.0459043,21.0138,-308.792,0.11461,0.0,0.0
2338,584.25,48.5823,50.032,136.209,99.9286,98.4994,0.000719603,0.0456521,21.0145,-308.772,0.127586,0.0,0.0
2345,586,48.5545,50.7789,136.093,99.9345,99.5947,0.000713109,0.0454108,21.0148,-308.792,0.0301722,0.0,0.0
2352,587.75,48.7372,50.2562,136.322,99.9325,100.202,0.000738647,0.0451953,21.0149,-308.832,-0.023862,0.0,0.0
2359,589.5,48.3658,50.8538,138.594,99.9489,99.575,0.000677824,0.0449968,21.0154,-308.852,0.0332,0.0,0.0
2366,591.25,48.7411,50.6644,135.935,99.9397,99.0974,0.000539907,0.0448256,21.0165,-308.842,0.0749658,0.0,0.0
2373,593,48.7121,50.6281,135.174,99.9421,98.616,0.000357305,0.044782,21.0169,-308.842,0.118311,0.0,0.0
2380,594.75,48.6724,50.7261,136.351,99.9365,98.9024,0.00019011,0.0448144,21.0162,-308.852,0.0921327,0.0,0.0
2387,596.5,48.7307,50.6851,139.272,99.9693,99.8202,7.92576e-05,0.0447119,21.0156,-308.872,0.013223,0.0,0.0
2394,598.25,48.7084,50.2408,132.856,99.9489,99.112,6.6772e-05,0.0446685,21.0153,-308.882,0.0744779,0.0,0.0
2401,600,48.1269,50.6406,138.089,99.9445,98.8921,0.000125623,0.0447146,21.0152,-308.882,0.0937626,0.0,0.0
2408,601.75,48.4724,51.0387,137.183,99.9557,99.1223,0.00026721,0.0447528,21.015,-308.892,0.0741607,0.0,0.0
2415,603.5,46.8606,49.2301,138.659,99.9565,99.7109,0.000410581,0.0445902,21.016,-308.872,0.0217943,0.0,0.0
2422,605.25,46.6518,48.5503,133.301,99.9649,99.3413,0.000480627,0.0443588,21.0166,-308.842,0.0554229,0.0,0.0
2429,607,46.3453,49.0396,139.009,99.9589,99.761,0.000522783,0.0443238,21.0169,-308.852,0.0175529,0.0,0.0
2436,608.75,46.2955,48.8404,141.379,99.9493,98.6503,0.000547795,0.0443136,21.017,-308.872,0.115869,0.0,0.0
2443,610.5,46.5323,49.176,136.161,99.9585,99.7897,0.000513644,0.0442062,21.0169,-308.862,0.0149677,0.0,0.0
2450,612.25,46.5401,48.608,137.815,99.9653,98.6302,0.000452302,0.0441029,21.0166,-308.872,0.119094,0.0,0.0
2457,614,46.5379,48.5804,136.284,99.9541,98.6263,0.000430747,0.0439987,21.0158,-308.862,0.11845,0.0,0.0
2464,615.75,46.2455,48.2364,138.287,99.9645,98.9504,0.000469321,0.0440314,21.0149,-308.852,0.0903133,0.0,0.0
2471,617.5,46.3895,48.472,137.311,99.9625,99.3936,0.000501122,0.0440888,21.0153,-308.852,0.0505477,0.0,0.0
2478,619.25,47.0021,48.779,139.345,99.9721,98.8616,0.000561186,0.0441062,21.0158,-308.852,0.0989325,0.0,0.0
2485,621,46.7138,48.8627,137.714,99.9633,99.3744,0.000691264,0.0440577,21.0161,-308.862,0.0523386,0.0,0.0
2492,622.75,46.6469,48.6923,138.515,99.9573,99.3251,0.000809583,0.0441691,21.0154,-308.862,0.0562024,0.0,0.0
2499,624.5,46.4537,48.883,136.251,99.9745,99.3679,0.000795425,0.0442894,21.0158,-308.872,0.0539034,0.0,0.0
2506,626.25,46.7929,48.9921,139.831,99.9641,99.4635,0.00071431,0.0444864,21.016,-308.882,0.044465,0.0,0.0
2513,628,46.5722,48.0709,135.872,99.9725,98.4848,0.000655981,0.0448144,21.0161,-308.882,0.132791,0.0,0.0
2520,629.75,46.7055,49.004,135.595,99.9693,99.3289,0.000651253,0.0449228,21.015,-308.852,0.0569211,0.0,0.0
2527,631.5,46.8557,48.692,135.701,99.9641,98.9495,0.000603403,0.0449145,21.0144,-308.832,0.0903541,0.0,0.0
2534,633.25,46.6018,48.7167,136.868,99.9813,98.7052,0.000492855,0.0450027,21.0143,-308.852,0.113776,0.0,0.0
2541,635,46.6845,49.1667,134.463,99.9853,98.709,0.000390795,0.0449655,21.0153,-308.842,0.113784,0.0,0.0
2548,636.75,46.2652,48.6682,136.732,99.9749,98.8424,0.000344751,0.0450294,21.0158,-308.852,0.100908,0.0,0.0
2555,638.5,46.8759,48.6218,133.585,99.9685,100.152,0.000373316,0.0450788,21.016,-308.862,-0.0162406,0.0,0.0
2562,640.25,46.4897,49.2625,137.738,99.9757,99.6869,0.000404164,0.0450588,21.0161,-308.862,0.0256263,0.0,0.0
2569,642,47.0913,48.4934,136.831,99.9913,99.8048,0.000409665,0.0449134,21.0161,-308.862,0.0165392,0.0,0.0
2576,643.75,46.6433,48.9554,136.194,99.9821,98.5457,0.000389546,0.0449243,21.0149,-308.852,0.128169,0.0,0.0
2583,645.5,46.6329,48.8621,139.224,99.9701,99.5595,0.000376528,0.0449318,21.0144,-308.852,0.0364498,0.0,0.0
2590,647.25,46.7203,48.8766,138.727,99.9817,99.5415,0.000427375,0.0449563,21.0144,-308.892,0.0390782,0.0,0.0
2597,649,47.0979,48.8437,143.063,99.9809,97.8808,0.000496095,0.0449314,21.0145,-308.882,0.188023,0.0,0.0
2604,650.75,47.1944,49.1843,136.342,99.9837,99.0867,0.000499283,0.044911,21.0145,-308.852,0.0798181,0.0,0.0
2611,652.5,46.8476,48.949,136.464,99.9701,99.037,0.000423236,0.0450555,21.0145,-308.862,0.0830613,0.0,0.0
2618,654.25,46.4582,48.9069,138.772,99.9737,98.9744,0.000338937,0.044926,21.0145,-308.862,0.0889786,0.0,0.0
2625,656,46.8691,48.7985,135.588,99.9673,99.9111,0.000296655,0.044934,21.0145,-308.882,0.00498536,0.0,0.0
2632,657.75,47.1067,48.9856,137.019,99.9953,99.3585,0.000305171,0.0449327,21.0145,-308.882,0.0565843,0.0,0.0
2639,659.5,47.0519,48.9175,134.838,99.9713,98.472,0.00040325,0.0449686,21.0145,-308.862,0.133842,0.0,0.0
2646,661.25,46.5911,48.6055,136.783,99.9681,99.157,0.000511367,0.0451477,21.0137,-308.842,0.0721564,0.0,0.0
2653,663,46.8667,48.9858,134.972,99.9525,99.8751,0.000581777,0.0452289,21.0131,-308.872,0.00686773,0.0,0.0
2660,664.75,46.9043,48.8739,140.882,99.9693,99.2449,0.000563429,0.0451981,21.013,-308.862,0.0644157,0.0,0.0
2667,666.5,46.9148,49.1508,135.651,99.9597,99.4862,0.000481471,0.045185,21.0134,-308.852,0.0420536,0.0,0.0
2674,668.25,46.6179,49.2011,139.822,99.9433,99.7975,0.000392678,0.0451294,21.014,-308.852,0.0129373,0.0,0.0
2681,670,46.9395,49.0867,137.719,99.9361,99.2295,0.000398476,0.0450508,21.0146,-308.862,0.0628548,0.0,0.0
2688,671.75,46.6101,48.9933,137.267,99.9294,98.6606,0.000478105,0.0449272,21.0149,-308.852,0.113174,0.0,0.0
2695,673.5,46.4991,49.5236,136.76,99.923,99.0151,0.000553153,0.0447297,21.015,-308.872,0.0808372,0.0,0.0
2702,675.25,47.0222,49.0315,135.099,99.9146,99.0867,0.000564887,0.0447064,21.0151,-308.842,0.0736926,0.0,0.0
2709,677,46.7084,49.4765,136.155,99.9038,99.2299,0.000503489,0.0447114,21.0151,-308.852,0.0599472,0.0,0.0
2716,678.75,47.1885,49.1103,138.16,99.8914,99.1201,0.000467471,0.0447137,21.0151,-308.872,0.0686494,0.0,0.0
2723,680.5,46.8827,48.7383,138.512,99.8798,98.6606,0.000512251,0.0446812,21.0152,-308.872,0.108781,0.0,0.0
2730,682.25,46.8509,49.2292,140.814,99.8626,98.4205,0.000622885,0.0446762,21.0152,-308.862,0.128836,0.0,0.0
2737,684,46.8571,48.8327,136.122,99.8358,99.2749,0.000739083,0.0447149,21.0152,-308.862,0.0499052,0.0,0.0
2744,685.75,46.9275,49.1637,139.105,99.8179,99.1579,0.000847489,0.0447226,21.0152,-308.832,0.0587578,0.0,0.0
2751,687.5,46.4273,48.8791,140.011,99.7947,98.2988,0.000860338,0.0447668,21.0152,-308.842,0.133771,0.0,0.0
2758,689.25,46.4768,48.7923,135.863,99.7899,99.0271,0.000732297,0.0445447,21.0152,-308.842,0.0679621,0.0,0.0
2765,691,46.4901,48.8644,138.586,99.7663,99.4588,0.000536523,0.0441874,21.0152,-308.872,0.0273422,0.0,0.0
2772,692.75,46.5765,48.5778,134.471,99.7136,98.733,0.000417629,0.0443309,21.0156,-308.872,0.0875265,0.0,0.0
2779,694.5,47.0029,48.7724,137.393,99.6948,98.2868,0.000457691,0.0444509,21.0161,-308.882,0.125982,0.0,0.0
2786,696.25,46.5396,49.2679,137.92,99.6472,98.156,0.000568119,0.0444993,21.0171,-308.872,0.133546,0.0,0.0
2793,698,46.4948,48.5954,139.47,99.6201,98.9881,0.000637493,0.0444261,21.018,-308.872,0.0563651,0.0,0.0
2800,699.75,46.6508,48.7614,140.097,99.5825,99.6736,0.000567999,0.0442224,21.0184,-308.862,-0.00809623,0.0,0.0
2807,701.5,46.447,49.3102,134.795,99.5513,99.5981,0.000442752,0.0440677,21.0186,-308.832,-0.00416207,0.0,0.0
2814,703.25,46.7947,49.2013,138.676,99.5174,99.031,0.000379043,0.0439265,21.0185,-308.812,0.0433954,0.0,0.0
2821,705,46.4737,48.7387,137.679,99.4962,98.3245,0.000427425,0.0437772,21.0174,-308.852,0.104922,0.0,0.0
2828,706.75,46.7096,49.1474,137.312,99.4466,99.3272,0.000479761,0.0438694,21.0169,-308.872,0.010645,0.0,0.0
2835,708.5,46.6839,48.5842,138.167,99.3931,98.6113,0.000413143,0.0439117,21.0167,-308.882,0.0699432,0.0,0.0
2842,710.25,46.3947,48.6317,138.071,99.3775,98.3001,,0.0439328,,-308.852,0.0965527,0.0,0.0
2849,712,47.0875,49.2464,137.254,99.3543,97.9087,,0.0439079,,-308.842,0.129822,0.0,0.0
2856,713.75,46.4595,48.7231,135.626,99.3216,98.7215,,,,-308.872,0.0536767,0.0,0.0
2863,715.5,46.7866,48.6247,138.128,99.282,99.3834,,,,-308.852,-0.00903632,0.0,0.0
2870,717.25,46.3974,48.7706,135.642,99.2544,97.8898,,,,-308.842,0.122618,0.0,0.0
2877,719,47.2107,48.9918,138.209,99.2401,98.2533,,,,-308.832,0.088503,0.0,0.0
2884,720.75,46.586,49.1797,134.948,99.2357,98.4968,,,,-308.862,0.066188,0.0,0.0
2885,721,46.7822,49.4008,138.537,99.2229,97.958,,,,-308.862,0.113635,0.0,0.0