File: 01_Data/Mineral_Wool_Insulation/Cone/Mineral_Wool_Insulation_Cone_HF50Scan_220426_R3.csv
Names,Time,Stack TC,Smoke TC,Exh Press,Smoke Comp,Smoke Meas,CO Meter,CO2 Meter,O2 Meter,Sample Mass,Ext Coeff,Start Test,Flame Verif
Chan Gain,,500,500,1,1,1,1,1,1,1,1,1.0,1.0
Offset,,0,0,0.135223,0,0,0,0,0,0,0,0.0,0.0
Gain,,1,1,25.011,13.0939,14.0471,1,1,1,1.00088,1.00971,1.0,1.0
Units,sec,C,C,Pa,%,%,%,%,%,g,/m,,
Baseline,,34.9574,36.0627,144.942,99.0858,96.0058,0.000688556,0.0478473,21.009,-834.454,0.279698,,
7,1.5,31.4267,32.3031,145.142,99.2712,95.4682,0.00066579,0.0531452,21.0037,-312.606,0.345981,0.0,0.0
14,3.25,31.5121,32.4334,145.671,99.282,95.7494,0.000813986,0.051777,21.0042,-312.626,0.320891,0.0,0.0
21,5,31.164,32.562,145.976,99.2964,95.9166,0.00103935,0.0510799,21.0044,-312.676,0.306723,0.0,0.0
28,6.75,31.7418,32.4136,140.212,99.3296,96.2831,0.00132315,0.0508672,21.004,-312.696,0.2759,0.0,0.0
35,8.5,31.5796,32.8088,144.112,99.3324,96.4336,0.0015529,0.051626,21.0023,-312.716,0.262319,0.0,0.0
42,10.25,31.8402,32.4338,143.742,99.3603,96.3097,0.0017013,0.0526041,21.0011,-312.716,0.276198,0.0,0.0
49,12,31.7028,32.6991,147.085,99.3587,96.6012,0.00177168,0.0533379,21.0009,-312.746,0.249288,0.0,0.0
56,13.75,32.0114,32.9519,145.956,99.3919,96.2158,0.00180432,0.0536067,21.0008,-312.776,0.287649,0.0,0.0
63,15.5,32.1459,33.0967,142.583,99.4055,97.008,0.00182617,0.0536191,21.0008,-312.786,0.216233,0.0,0.0
70,17.25,31.7017,33.2475,140.285,99.4103,96.6561,0.00183476,0.0532634,21.0008,-312.816,0.248852,0.0,0.0
77,19,32.3599,33.1469,144.359,99.4147,96.4233,0.00184047,0.052944,21.0018,-312.816,0.270599,0.0,0.0
84,20.75,32.22,33.6345,148.894,99.4415,96.5841,0.00187757,0.052736,21.0025,-312.826,0.258231,0.0,0.0
91,22.5,32.7912,33.2972,144.51,99.4586,96.6132,0.00193291,0.0523706,21.0028,-312.846,0.257089,0.0,0.0
98,24.25,32.4212,34.1386,140.722,99.467,97.1306,0.0019433,0.0521498,21.0029,-312.856,0.210529,0.0,0.0
105,26,32.8936,33.4071,144.286,99.4642,97.2571,0.00194437,0.052122,21.0018,-312.856,0.198755,0.0,0.0
112,27.75,32.9113,33.9965,145.953,99.475,96.5588,0.00198258,0.0521565,21.0024,-312.866,0.26354,0.0,0.0
119,29.5,32.5826,34.2996,142.744,99.4974,96.5137,0.00204588,0.0520906,21.0039,-312.876,0.269662,0.0,0.0
126,31.25,32.9177,34.0029,140.989,99.507,96.5438,0.00206538,0.052004,21.0045,-312.876,0.267762,0.0,0.0
133,33,33.3574,34.1931,142.207,99.5058,96.4829,0.00197251,0.0519403,21.0049,-312.896,0.273242,0.0,0.0
140,34.75,33.4887,34.5149,142.744,99.5066,96.795,0.0018281,0.0517509,21.005,-312.916,0.244711,0.0,0.0
147,36.5,33.1859,34.4988,143.764,99.517,96.6839,0.00171873,0.051766,21.0051,-312.906,0.2558,0.0,0.0
154,38.25,33.4278,34.3011,144.177,99.5358,96.8593,0.00165274,0.0517112,21.0051,-312.916,0.241425,0.0,0.0
161,40,33.3894,34.4607,144.624,99.5318,96.3273,0.00166099,0.0516219,21.0052,-312.926,0.289851,0.0,0.0
168,41.75,33.4172,34.7763,146.553,99.5338,96.4717,0.00172113,0.0515544,21.0052,-312.926,0.276754,0.0,0.0
175,43.5,33.7013,34.5789,144.058,99.5318,96.5686,0.00176983,0.0514717,21.0052,-312.946,0.267687,0.0,0.0
182,45.25,34.0535,35.1916,144.435,99.5573,96.7727,0.00179709,0.0514617,21.0052,-312.936,0.251267,0.0,0.0
189,47,33.2416,34.9171,142.771,99.5545,96.8846,0.00181307,0.0514376,21.0052,-312.926,0.240784,0.0,0.0
196,48.75,34.1836,34.902,150.171,99.5553,97.411,0.00176983,0.0513049,21.0052,-312.936,0.19286,0.0,0.0
203,50.5,33.7024,34.5874,139.859,99.5537,96.5888,0.00172658,0.0512141,21.0052,-312.946,0.267794,0.0,0.0
210,52.25,33.6719,35.0037,144.722,99.5717,96.5918,0.00163638,0.05123,21.0041,-312.946,0.269119,0.0,0.0
217,54,33.9553,35.4801,143.734,99.5829,96.4897,0.00155148,0.0512752,21.0039,-312.966,0.279475,0.0,0.0
224,55.75,33.9651,35.268,142.083,99.5841,97.1298,0.00149962,0.0512174,21.0038,-312.956,0.221026,0.0,0.0
231,57.5,33.9115,34.9822,147.601,99.5885,96.6796,0.00148927,0.0512231,21.0038,-312.976,0.262557,0.0,0.0
238,59.25,33.643,35.1711,144.08,99.5893,96.7045,0.00149755,0.0511403,21.0037,-312.976,0.260351,0.0,0.0
245,61,34.1244,34.9117,145.71,99.6085,97.2768,0.00144209,0.0509897,21.0037,-312.996,0.209795,0.0,0.0
252,62.75,33.9751,35.3455,144.624,99.6181,96.8867,0.00139607,0.0509536,21.0036,-313.016,0.246238,0.0,0.0
259,64.5,34.371,35.1223,147.639,99.6093,97.2657,0.00141188,0.0509449,21.0033,-312.976,0.21088,0.0,0.0
266,66.25,33.7085,34.67,142.456,99.6125,96.4404,0.00147318,0.0511392,21.003,-313.006,0.28663,0.0,0.0
273,68,34.4129,35.7382,145.318,99.6269,96.5943,0.00152524,0.0511455,21.0029,-313.036,0.273787,0.0,0.0
280,69.75,34.0771,35.7185,146.337,99.6301,97.005,0.00150674,0.0510908,21.0029,-313.016,0.236495,0.0,0.0
287,71.5,34.3964,35.6059,141.228,99.6265,96.8751,0.0014794,0.0508992,21.0033,-313.036,0.248043,0.0,0.0
294,73.25,33.8725,35.5652,141.688,99.6444,96.5656,0.00142445,0.0509161,21.0043,-313.026,0.277984,0.0,0.0
301,75,34.0952,36.0047,142.387,99.6321,97.0689,0.00137444,0.0510401,21.0051,-313.016,0.230842,0.0,0.0
308,76.75,34.421,35.6217,142.156,99.6472,97.0629,0.00133646,0.0509585,21.0051,-313.016,0.232738,0.0,0.0
315,78.5,34.1985,35.9521,141.243,99.6468,96.6544,0.00124814,0.0507011,21.0057,-313.026,0.270062,0.0,0.0
322,80.25,34.1615,35.8255,141.74,99.638,96.7242,0.00118329,0.0504628,21.0059,-312.996,0.262879,0.0,0.0
329,82,34.2683,35.7326,140.956,99.6388,96.5622,0.00121254,0.0503488,21.0061,-312.986,0.277801,0.0,0.0
336,83.75,34.936,35.6194,141.655,99.6572,96.7474,0.00132926,0.0502942,21.0061,-313.006,0.262465,0.0,0.0
343,85.5,34.9185,35.9853,142.222,99.654,97.0719,0.00144552,0.0503764,21.0066,-312.986,0.232521,0.0,0.0
350,87.25,34.5872,35.9839,141.052,99.6564,96.9231,0.00151169,0.0503256,21.0068,-313.016,0.246318,0.0,0.0
357,89,34.5592,36.0848,146.51,99.6512,97.384,0.00152668,0.0501503,21.0069,-313.006,0.203843,0.0,0.0
364,90.75,35.1347,36.1401,146.841,99.6572,96.6364,0.00150812,0.0499275,21.007,-313.046,0.272635,0.0,0.0
371,92.5,34.3402,36.0081,143.806,99.6644,96.972,0.00150244,0.0497208,21.0076,-313.036,0.242563,0.0,0.0
378,94.25,34.1861,36.052,143.967,99.6584,96.8824,0.00148451,0.0497061,21.0085,-313.056,0.250218,0.0,0.0
385,96,34.8369,36.0999,143.062,99.6488,96.9536,0.00142952,0.0497363,21.0085,-313.046,0.242862,0.0,0.0
392,97.75,34.8731,35.9998,144.802,99.6684,96.8837,0.00142602,0.049689,21.0093,-313.066,0.250987,0.0,0.0
399,99.5,34.2375,35.946,143.553,99.6784,96.9652,0.00149581,0.0497261,21.0099,-313.046,0.244432,0.0,0.0
406,101.25,34.9179,36.2617,141.274,99.6816,96.5613,0.00155843,0.0496666,21.0102,-313.046,0.281679,0.0,0.0
413,103,34.8363,36.3509,141.484,99.672,96.9896,0.00153805,0.0496481,21.0103,-313.046,0.241632,0.0,0.0
420,104.75,34.7324,35.8772,140.674,99.6712,96.6767,0.00148895,0.0496134,21.0104,-313.046,0.270186,0.0,0.0
427,106.5,35.3089,36.2241,145.051,99.6912,97.0235,0.00145425,0.0497292,21.0104,-313.056,0.240245,0.0,0.0
434,108.25,33.4797,35.8532,142.136,99.6888,96.9446,0.00140328,0.0497008,21.0105,-313.056,0.247235,0.0,0.0
441,110,34.8406,36.5482,141.839,99.6936,97.0462,0.00127382,0.0497113,21.0105,-313.076,0.238385,0.0,0.0
448,111.75,35.063,36.2494,142.733,99.6824,96.9107,0.00114135,0.0497706,21.0105,-313.056,0.249762,0.0,0.0
455,113.5,34.9759,36.8331,141.128,99.6896,97.2832,0.00114378,0.0499621,21.0105,-313.056,0.216419,0.0,0.0
462,115.25,34.8129,36.8649,144.688,99.678,96.8503,0.00135894,0.0500991,21.0102,-313.066,0.254898,0.0,0.0
469,117,35.0033,36.7557,144.678,99.69,96.7457,0.00156068,0.0501134,21.0092,-313.066,0.265533,0.0,0.0
476,118.75,34.8811,36.4359,144.615,99.6764,96.5318,0.00163082,0.0501171,21.0086,-313.076,0.283932,0.0,0.0
483,120.5,35.0473,36.2082,143.607,99.6732,96.8404,0.0016405,0.0501339,21.0084,-313.096,0.255373,0.0,0.0
490,122.25,35.1652,36.3155,145.857,99.6924,96.7337,0.00160232,0.050229,21.0083,-313.096,0.266845,0.0,0.0
497,124,35.2064,36.3104,142.825,99.6832,96.7705,0.0016001,0.0503496,21.0082,-313.106,0.262654,0.0,0.0
504,125.75,35.1689,36.1127,143.642,99.6644,96.9296,0.0016807,0.0504367,21.0082,-313.116,0.24644,0.0,0.0
511,127.5,35.3977,36.0852,143.799,99.678,96.8023,0.0017375,0.0504122,21.0082,-313.106,0.25929,0.0,0.0
518,129.25,35.3074,36.1357,141.265,99.6656,96.8979,0.0016946,0.0503356,21.0082,-313.116,0.249446,0.0,0.0
525,131,34.6622,36.8103,143.908,99.6668,97.0693,0.00158564,0.050306,21.0082,-313.126,0.233892,0.0,0.0
532,132.75,34.4117,36.5184,146.898,99.6768,97.859,0.00148221,0.0502666,21.0091,-313.106,0.163022,0.0,0.0
539,134.5,35.3181,36.8171,140.874,99.6468,96.8588,0.00143054,0.0502396,21.0086,-313.106,0.251343,0.0,0.0
546,136.25,35.2521,36.3979,143.981,99.6396,97.0908,0.00143669,0.050146,21.0085,-313.116,0.229522,0.0,0.0
553,138,35.4734,36.9318,142.602,99.6568,96.9343,0.00142441,0.0500223,21.0088,-313.126,0.245334,0.0,0.0
560,139.75,35.4462,36.713,141.526,99.6424,97.0646,0.0014211,0.0500043,21.0089,-313.126,0.232157,0.0,0.0
567,141.5,35.5146,36.3698,141.99,99.6285,96.9193,0.00144624,0.0499608,21.009,-313.106,0.244183,0.0,0.0
574,143.25,35.718,37.0624,144.76,99.6289,96.8666,0.00143592,0.0499245,21.0089,-313.136,0.24904,0.0,0.0
581,145,35.4051,37.0059,140.843,99.6301,96.6565,0.00136997,0.0500602,21.0089,-313.146,0.268374,0.0,0.0
588,146.75,35.5036,36.6149,144.381,99.6313,96.5733,0.00129692,0.0501888,21.0087,-313.136,0.276103,0.0,0.0
595,148.5,35.2517,37.6587,141.403,99.6201,96.8824,0.00122978,0.0502949,21.0083,-313.146,0.246808,0.0,0.0
602,150.25,35.7886,37.5908,142.765,99.6317,97.4226,0.00116707,0.0504274,21.0081,-313.136,0.198595,0.0,0.0
609,152,36.0469,36.7342,144.012,99.6129,97.0024,0.0011825,0.0503109,21.008,-313.146,0.235201,0.0,0.0
616,153.75,35.9991,36.6968,143.108,99.6229,97.0779,0.00128263,0.0501472,21.008,-313.156,0.229203,0.0,0.0
623,155.5,35.1149,37.1424,143.313,99.6309,97.1744,0.00129936,0.0500708,21.008,-313.146,0.221118,0.0,0.0
630,157.25,35.5982,36.8783,141.411,99.6077,96.9497,0.00127592,0.0498761,21.008,-313.156,0.239556,0.0,0.0
637,159,35.5009,37.2285,144.58,99.6093,96.8957,0.00121074,0.0496482,21.008,-313.156,0.244633,0.0,0.0
644,160.75,35.5756,36.7091,145.791,99.6181,96.8503,0.0010963,0.0495837,21.008,-313.156,0.24957,0.0,0.0
651,162.5,35.9871,37.2505,142.659,99.6157,96.5103,0.000999531,0.0494855,21.008,-313.156,0.2805,0.0,0.0
658,164.25,35.5839,37.2755,143.993,99.6065,97.1109,0.00097744,0.0494603,21.008,-313.156,0.224735,0.0,0.0
665,166,35.8594,36.7337,139.851,99.6017,96.7885,0.00105837,0.0492492,21.0075,-313.156,0.25376,0.0,0.0
672,167.75,35.5719,37.1245,145.42,99.6137,96.8846,0.00114756,0.0491302,21.008,-313.156,0.246044,0.0,0.0
679,169.5,35.631,37.2044,138.741,99.6005,96.8863,0.00109152,0.049107,21.0086,-313.146,0.244714,0.0,0.0
686,171.25,35.59,38.3762,142.052,99.6029,97.3415,0.000979518,0.0490412,21.0089,-313.156,0.203405,0.0,0.0
693,173,35.6295,37.2765,144.582,99.5877,96.831,0.000866034,0.04897,21.009,-313.176,0.248634,0.0,0.0
700,174.75,35.0704,37.1625,142.265,99.5901,97.0406,0.000759589,0.0491001,21.0085,-313.136,0.229693,0.0,0.0
707,176.5,35.4941,37.2503,144.52,99.5977,96.7079,0.000739319,0.0491339,21.0076,-313.146,0.260783,0.0,0.0
714,178.25,35.7344,37.9389,143.443,99.6001,96.7054,0.000847799,0.0492823,21.0072,-313.156,0.261231,0.0,0.0
721,180,35.3165,37.3962,141.749,99.5893,96.867,0.000995601,0.0494853,21.0062,-313.176,0.245482,0.0,0.0
728,181.75,35.6932,37.1425,142.278,99.5925,96.8353,0.0010549,0.0496791,21.0053,-313.166,0.248667,0.0,0.0
735,183.5,36.159,36.9406,140.437,99.5941,96.8314,0.00103622,0.049886,21.0049,-313.156,0.249163,0.0,0.0
742,185.25,35.5536,37.1632,143,99.6017,96.984,0.00105724,0.0500365,21.0047,-313.176,0.23589,0.0,0.0
749,187,35.514,37.176,142.174,99.5949,96.9137,0.00108051,0.0499699,21.0046,-313.156,0.241708,0.0,0.0
756,188.75,35.6264,37.2911,144.899,99.5865,97.0822,0.001058,0.0498551,21.0063,-313.176,0.225578,0.0,0.0
763,190.5,35.9389,37.5824,144.919,99.6009,96.7401,0.00103673,0.0497202,21.0071,-313.156,0.258124,0.0,0.0
770,192.25,35.6395,37.4418,140.036,99.5953,96.8567,0.00103553,0.04973,21.0075,-313.156,0.246956,0.0,0.0
777,194,35.6441,37.3075,144.57,99.5929,96.9339,0.0010715,0.0496925,21.0076,-313.166,0.23969,0.0,0.0
784,195.75,35.6954,37.1687,143.051,99.5869,96.759,0.00106347,0.0494932,21.0077,-313.176,0.255152,0.0,0.0
791,197.5,35.7297,37.39,142.315,99.5873,96.7984,0.000980738,0.0493609,21.0078,-313.156,0.251578,0.0,0.0
798,199.25,35.6829,37.3865,141.489,99.5957,96.9484,0.00084476,0.0493927,21.0078,-313.146,0.238607,0.0,0.0
805,201,35.6028,37.3214,145.225,99.5917,96.8773,0.000723635,0.0493655,21.0078,-313.136,0.244755,0.0,0.0
812,202.75,35.6439,37.5255,144.391,99.5973,96.8588,0.000703106,0.0492323,21.0078,-313.146,0.246938,0.0,0.0
819,204.5,35.5794,37.1485,138.795,99.5813,96.927,0.000793068,0.0491468,21.0078,-313.156,0.239285,0.0,0.0
826,206.25,35.8796,37.1297,144.091,99.5865,97.2399,0.00091472,0.0493432,21.0078,-313.176,0.211198,0.0,0.0
833,208,35.7938,37.8233,142.414,99.6077,96.4739,0.00096068,0.0493261,21.0078,-313.156,0.283134,0.0,0.0
840,209.75,35.6389,37.6073,142.287,99.6081,96.6865,0.000974593,0.0491655,21.0078,-313.176,0.26367,0.0,0.0
847,211.5,35.9866,37.3383,144.539,99.5957,96.6912,0.000969172,0.0490526,21.01,-313.176,0.262137,0.0,0.0
854,213.25,35.3984,37.4676,144.111,99.6065,97.1298,0.000934387,0.0489691,21.0113,-313.176,0.223015,0.0,0.0
861,215,36.2741,37.2216,142.449,99.6692,96.8168,0.000893137,0.0488201,21.0119,-313.196,0.257174,0.0,0.0
868,216.75,35.8709,37.2497,139.527,99.6181,97.3214,0.000848342,0.0486856,21.0122,-313.156,0.206589,0.0,0.0
875,218.5,35.7701,37.5005,141.745,99.6185,97.4144,0.000795352,0.0486354,21.0123,-313.146,0.198163,0.0,0.0
882,220.25,35.8614,37.1879,142.655,99.6133,96.557,0.000756794,0.0484888,21.0124,-313.166,0.276,0.0,0.0
889,222,35.5918,37.1939,142.48,99.6225,96.6132,0.000771201,0.0483162,21.0124,-313.146,0.271667,0.0,0.0
896,223.75,35.5999,37.0581,143.029,99.6329,97.2875,0.000822328,0.0481977,21.0124,-313.146,0.210987,0.0,0.0
903,225.5,35.7502,37.2951,141.232,99.6273,96.7152,0.000863961,0.0479504,21.0124,-313.146,0.262744,0.0,0.0
910,227.25,35.72,37.5417,145.449,99.6153,96.9291,0.000876788,0.0478442,21.0124,-313.156,0.24211,0.0,0.0
917,229,35.8412,37.0734,143.399,99.6265,96.747,0.000883439,0.0478773,21.0124,-313.146,0.259769,0.0,0.0
924,230.75,35.822,37.3505,146.979,99.6217,96.7058,0.000820399,0.0478347,21.0137,-313.136,0.26311,0.0,0.0
931,232.5,35.6974,37.4234,143.784,99.6305,97.0865,0.00069598,0.0477446,21.0144,-313.146,0.229096,0.0,0.0
938,234.25,35.8929,37.3045,143.712,99.6193,96.4739,0.000574568,0.0477133,21.0135,-313.146,0.284164,0.0,0.0
945,236,35.7595,37.3523,144.863,99.6085,96.5836,0.000513972,0.0477086,21.0126,-313.166,0.273136,0.0,0.0
952,237.75,36.0638,37.3913,143.171,99.6281,96.9557,0.000504233,0.0476014,21.0122,-313.156,0.240819,0.0,0.0
959,239.5,35.8522,37.4853,140.759,99.6193,97.0085,0.000485016,0.0475681,21.012,-313.176,0.235222,0.0,0.0
966,241.25,35.3451,37.2242,143.689,99.6049,96.7577,0.000428546,0.0474993,21.0117,-313.156,0.256868,0.0,0.0
973,243,36.0111,37.617,143.061,99.5925,97.2597,0.000458979,0.0473359,21.0115,-313.196,0.209936,0.0,0.0
980,244.75,35.8342,37.2593,140.741,99.5917,97.2798,0.000542073,0.0470896,21.0124,-313.206,0.208029,0.0,0.0
987,246.5,35.9754,37.4618,144.399,99.5949,96.5682,0.000597602,0.0469424,21.0129,-313.186,0.273343,0.0,0.0
994,248.25,35.7332,37.5341,142.893,99.5825,96.8554,0.000615549,0.0468834,21.0131,-313.206,0.245936,0.0,0.0
1001,250,36.0793,37.4727,141.71,99.5681,96.9643,0.000603883,0.0468732,21.0132,-313.206,0.234706,0.0,0.0
1008,251.75,35.6284,37.625,142.131,99.5637,97.315,0.000592211,0.0468441,21.0132,-313.196,0.202342,0.0,0.0
1015,253.5,36.0026,37.4126,141.697,99.5769,97.0007,0.000638225,0.0467582,21.0137,-313.186,0.23216,0.0,0.0
1022,255.25,35.864,37.1201,145.491,99.5529,96.8211,0.00071426,0.0466863,21.0139,-313.196,0.246443,0.0,0.0
1029,257,36.1578,37.5167,141.905,99.5254,96.7208,0.000754766,0.046721,21.0138,-313.186,0.253171,0.0,0.0
1036,258.75,36.0168,37.3504,143.074,99.5042,96.4773,0.000740273,0.046644,21.0138,-313.196,0.273612,0.0,0.0
1043,260.5,36.0172,37.7922,141.928,99.4906,96.7251,0.000734187,0.0466561,21.0131,-313.186,0.249684,0.0,0.0
1050,262.25,36.3059,37.4493,143.974,99.4754,96.3899,0.000751509,0.0466165,21.0122,-313.196,0.279082,0.0,0.0
1057,264,35.9389,37.7648,141.489,99.4578,96.9274,0.000782626,0.0466789,21.0113,-313.186,0.228257,0.0,0.0
1064,265.75,35.9978,37.4453,145.326,99.4363,96.6989,0.000840017,0.0467754,21.011,-313.186,0.247239,0.0,0.0
1071,267.5,36.0657,37.341,141.004,99.4099,96.6098,0.000949729,0.0467903,21.0108,-313.176,0.25306,0.0,0.0
1078,269.25,36.1993,37.7198,140.698,99.3979,96.401,0.00096749,0.0468092,21.0107,-313.186,0.271153,0.0,0.0
1085,271,36.0212,38.0563,141.655,99.3763,97.0239,0.000826165,0.0466864,21.0106,-313.206,0.212185,0.0,0.0
1092,272.75,35.738,38.0144,142.831,99.3408,96.4936,0.000708976,0.0467629,21.0106,-313.206,0.257556,0.0,0.0
1099,274.5,36.5458,37.7024,143.758,99.3264,96.5296,0.00071434,0.0468155,21.0108,-313.186,0.252969,0.0,0.0
1106,276.25,35.8673,37.635,138.687,99.3112,96.5819,0.000811696,0.0468197,21.0111,-313.196,0.246817,0.0,0.0
1113,278,36.3414,37.606,143.82,99.2968,96.8117,0.000880001,0.046942,21.0109,-313.166,0.224488,0.0,0.0
1120,279.75,36.1521,37.7206,143.309,99.2744,97.0835,0.000857747,0.046949,21.0101,-313.166,0.197661,0.0,0.0
1127,281.5,35.934,37.8781,140.391,99.2437,96.5763,0.000732514,0.0470191,21.0098,-313.186,0.241303,0.0,0.0
1134,283.25,36.3345,37.8818,142.942,99.246,96.5862,0.000599675,0.0472387,21.0106,-313.206,0.240614,0.0,0.0
1141,285,36.5388,37.4187,140.826,99.2289,96.4349,0.000539654,0.0474015,21.0112,-313.196,0.252968,0.0,0.0
1148,286.75,35.9182,37.3866,139.558,99.2085,96.8481,0.000586396,0.04748,21.0111,-313.196,0.213275,0.0,0.0
1155,288.5,36.0812,37.8291,138.125,99.1909,96.4357,0.000751091,0.0474826,21.0102,-313.216,0.2495,0.0,0.0
1162,290.25,35.8902,37.1387,146.252,99.1613,96.4499,0.000947217,0.0475642,21.0098,-313.216,0.24556,0.0,0.0
1169,292,36.0695,37.9342,141.107,99.1641,96.497,0.00109847,0.0475697,21.0096,-313.216,0.24148,0.0,0.0
1176,293.75,36.4601,37.6766,144.06,99.1601,97.0406,0.00113979,0.0475538,21.0096,-313.216,0.191371,0.0,0.0
1183,295.5,36.1527,37.3636,144.531,99.1461,96.7165,0.00102811,0.047547,21.0095,-313.206,0.219751,0.0,0.0
1190,297.25,35.7965,37.2845,144.259,99.135,96.2724,0.000855816,0.0476171,21.0095,-313.206,0.259517,0.0,0.0
1197,299,36.5869,37.5834,144.127,99.1334,96.7084,0.000673482,0.0476689,21.0095,-313.196,0.219355,0.0,0.0
1204,300.75,36.2448,37.4466,141.966,99.1406,96.8876,0.000498252,0.0475893,21.0095,-313.206,0.203602,0.0,0.0
1211,302.5,35.9158,37.2735,143.591,99.129,96.3221,0.000429106,0.0474934,21.01,-313.196,0.254407,0.0,0.0
1218,304.25,36.0763,37.8707,139.398,99.129,96.7581,0.000506912,0.0475074,21.0104,-313.206,0.214409,0.0,0.0
1225,306,35.9115,37.389,144.33,99.1326,96.5022,0.00065183,0.0476063,21.0106,-313.216,0.238189,0.0,0.0
1232,307.75,36.1795,37.5415,143.929,99.129,96.5682,0.000777396,0.0476582,21.0107,-313.216,0.23181,0.0,0.0
1239,309.5,36.4351,37.4602,140.787,99.1414,96.3894,0.000788355,0.0477709,21.0107,-313.206,0.249327,0.0,0.0
1246,311.25,35.9498,37.9223,142.811,99.1354,96.305,0.000684158,0.0477259,21.0108,-313.226,0.256555,0.0,0.0
1253,313,35.8,37.3256,143.401,99.1334,96.1695,0.000631662,0.0476869,21.0108,-313.216,0.268844,0.0,0.0
1260,314.75,36.1533,37.4974,144.428,99.1422,96.248,0.000667277,0.0476936,21.0108,-313.216,0.262407,0.0,0.0
1267,316.5,35.8292,37.6509,140.427,99.1593,96.9231,0.000763101,0.0478463,21.0108,-313.216,0.202027,0.0,0.0
1274,318.25,36.3988,38.1328,139.194,99.1657,96.1489,0.000818193,0.0479239,21.0108,-313.206,0.27363,0.0,0.0
1281,320,36.3379,37.7072,145.109,99.1593,96.194,0.00076707,0.0478535,21.0108,-313.196,0.268914,0.0,0.0
1288,321.75,36.4177,37.3801,145.8,99.1777,96.1798,0.000620305,0.0476179,21.0108,-313.236,0.271859,0.0,0.0
1295,323.5,36.391,37.7139,142.381,99.1857,96.3714,0.00048623,0.047489,21.0108,-313.216,0.254944,0.0,0.0
1302,325.25,35.9126,37.4901,144.14,99.1897,96.4743,0.000439498,0.0473578,21.011,-313.206,0.24585,0.0,0.0
1309,327,36.3918,37.3497,143.767,99.1885,96.5463,0.000470293,0.0470713,21.0112,-313.176,0.239133,0.0,0.0
1316,328.75,36.2951,38.2504,141.974,99.1793,96.6038,0.000504003,0.0468398,21.0113,-313.206,0.233044,0.0,0.0
1323,330.5,36.6026,37.4467,141.472,99.1849,96.266,0.000545792,0.0465847,21.0118,-313.176,0.264569,0.0,0.0
1330,332.25,35.864,37.7827,144.663,99.1873,96.3277,0.000551303,0.0464324,21.0128,-313.176,0.259106,0.0,0.0
1337,334,36.3303,37.8312,142.9,99.1861,96.7229,0.000538434,0.0463984,21.0133,-313.176,0.222732,0.0,0.0
1344,335.75,36.3871,36.9918,150.606,99.1805,96.0418,0.000559834,0.046391,21.0138,-313.176,0.284829,0.0,0.0
1351,337.5,36.4237,37.9349,138.628,99.1829,96.2848,0.000544914,0.0461914,21.015,-313.206,0.262656,0.0,0.0
1358,339.25,36.1294,37.7292,140.811,99.1869,96.6269,0.000544159,0.0462429,21.0156,-313.226,0.2316,0.0,0.0
1365,341,36.2252,37.7262,146.699,99.1825,96.6505,0.000612396,0.0463319,21.0159,-313.216,0.229047,0.0,0.0
1372,342.75,35.7736,37.9573,142.094,99.1641,96.8357,0.00070802,0.0464099,21.0157,-313.156,0.21045,0.0,0.0
1379,344.5,36.4489,37.8183,140.94,99.1729,96.6569,0.00079317,0.0465729,21.0147,-313.156,0.227601,0.0,0.0
1386,346.25,36.3858,37.8642,141.088,99.1717,96.4409,0.000834018,0.0467292,21.0152,-313.156,0.247314,0.0,0.0
1393,348,35.9843,37.6727,144.914,99.1605,96.3479,0.00084611,0.0467135,21.0148,-313.166,0.254863,0.0,0.0
1400,349.75,36.3199,37.8494,143.868,99.1493,96.3054,0.000817186,0.0467395,21.015,-313.156,0.257766,0.0,0.0
1407,351.5,36.0184,37.1099,143.393,99.1458,96.5969,0.000732792,0.0468808,21.015,-313.166,0.230675,0.0,0.0
1414,353.25,35.9289,37.7566,146.531,99.1565,96.1082,0.000660271,0.0469845,21.0155,-313.176,0.276563,0.0,0.0
1421,355,36.5787,38.0389,144.049,99.1621,96.6565,0.000596844,0.047091,21.0165,-313.156,0.226677,0.0,0.0
1428,356.75,36.5548,37.6921,144.14,99.1565,96.7945,0.000488621,0.0471063,21.017,-313.156,0.213537,0.0,0.0
1435,358.5,35.7164,37.5352,144.638,99.1418,96.4662,0.000442667,0.0471004,21.0167,-313.166,0.242314,0.0,0.0
1442,360.25,35.7989,37.4428,143.797,99.1461,96.4426,0.000466878,0.0469629,21.0163,-313.176,0.244873,0.0,0.0
1449,362,36.0836,37.552,141.518,99.1649,96.5107,0.000578593,0.0468509,21.0161,-313.186,0.240293,0.0,0.0
1456,363.75,35.8091,37.9806,141.231,99.1717,96.5142,0.000695901,0.0467457,21.016,-313.176,0.240584,0.0,0.0
1463,365.5,36.4109,37.3104,141.835,99.1645,96.6196,0.000744302,0.04666,21.016,-313.176,0.23027,0.0,0.0
1470,367.25,35.93,37.3808,143.438,99.1422,96.6462,0.000698822,0.0465216,21.016,-313.186,0.225835,0.0,0.0
1477,369,36.3675,37.5931,143.503,99.1697,96.7538,0.000706593,0.0465502,21.016,-313.146,0.218443,0.0,0.0
1484,370.75,35.718,37.1778,143.186,99.1749,96.5305,0.000852898,0.0465269,21.0157,-313.146,0.239375,0.0,0.0
1491,372.5,36.2827,37.2781,141.563,99.1525,96.455,0.000983079,0.046446,21.0154,-313.186,0.244302,0.0,0.0
1498,374.25,36.3439,37.9539,138.75,99.1577,96.2463,0.0010277,0.0462492,21.0158,-313.176,0.263957,0.0,0.0
1505,376,36.2899,37.6802,147.382,99.1577,96.4713,0.000981442,0.0461012,21.0159,-313.166,0.24327,0.0,0.0
1512,377.75,36.4832,37.7507,141.723,99.1717,96.308,0.000851122,0.0459538,21.016,-313.176,0.259527,0.0,0.0
1519,379.5,36.1999,37.5469,142.552,99.1721,96.1258,0.000705409,0.0457344,21.0157,-313.186,0.276334,0.0,0.0
1526,381.25,36.1553,37.9586,142.313,99.1561,97.1615,0.00068993,0.045725,21.0155,-313.186,0.179987,0.0,0.0
1533,383,36.001,37.8045,142.47,99.1801,96.834,0.000731736,0.0456514,21.0153,-313.196,0.212035,0.0,0.0
1540,384.75,36.0454,37.7217,142.959,99.1941,97.2374,0.000767247,0.0456134,21.0153,-313.216,0.176464,0.0,0.0
1547,386.5,36.1205,37.9599,142.139,99.2033,96.7148,0.000751924,0.0456132,21.0153,-313.206,0.225011,0.0,0.0
1554,388.25,36.2332,38.2712,143.435,99.2061,96.5866,0.000720124,0.0456103,21.0152,-313.196,0.237008,0.0,0.0
1561,390,36.7807,38.0838,142.455,99.2057,96.7538,0.00069794,0.045566,21.0156,-313.206,0.221654,0.0,0.0
1568,391.75,36.4297,37.6434,143.729,99.2301,96.2051,0.000666896,0.0454948,21.017,-313.206,0.274204,0.0,0.0
1575,393.5,36.2855,37.8044,143.729,99.2472,96.5047,0.000625515,0.0454987,21.0179,-313.216,0.248193,0.0,0.0
1582,395.25,36.1005,37.2399,142.191,99.266,96.6664,0.000571284,0.0454759,21.0188,-313.196,0.235049,0.0,0.0
1589,397,35.9224,37.8306,145.352,99.2596,96.5823,0.000482571,0.0455627,21.0191,-313.186,0.24218,0.0,0.0
1596,398.75,36.5476,37.5055,140.775,99.2728,97.1752,0.00038912,0.0454826,21.0182,-313.216,0.189153,0.0,0.0
1603,400.5,36.2228,37.83,142.754,99.3092,96.557,0.000329983,0.0454589,21.0178,-313.206,0.24892,0.0,0.0
1610,402.25,36.0232,37.9328,142.753,99.3216,96.4739,0.000286558,0.0454943,21.0176,-313.206,0.257656,0.0,0.0
1617,404,35.9761,37.081,145.798,99.3324,96.5678,0.000197569,0.0455598,21.0175,-313.206,0.250004,0.0,0.0
1624,405.75,36.3839,37.991,141.147,99.3471,96.3796,0.000156467,0.0456556,21.0174,-313.216,0.268599,0.0,0.0
1631,407.5,36.3818,37.8229,140.788,99.3583,97.1761,0.000285512,0.0455245,21.0174,-313.226,0.196702,0.0,0.0
1638,409.25,36.0671,38.0275,144.46,99.3779,96.6136,0.000385259,0.0455478,21.0174,-313.236,0.249859,0.0,0.0
1645,411,35.8882,37.5154,142.239,99.3863,96.7787,0.000378499,0.0457234,21.0174,-313.226,0.235489,0.0,0.0
1652,412.75,36.4354,37.7627,145.799,99.4159,96.7392,0.000282496,0.0458594,21.0172,-313.226,0.241734,0.0,0.0
1659,414.5,36.4602,37.5871,144.772,99.4155,96.8747,0.000189261,0.0459722,21.0161,-313.216,0.229304,0.0,0.0
1666,416.25,36.2507,37.6934,141.833,99.4466,97.1649,0.000142987,0.0462207,21.0156,-313.206,0.205587,0.0,0.0
1673,418,36.7205,38.2808,145.75,99.461,97.0359,0.000146546,0.046594,21.0157,-313.216,0.218637,0.0,0.0
1680,419.75,35.66,37.998,144.11,99.473,96.3033,0.000256405,0.0470848,21.0133,-313.226,0.286829,0.0,0.0
1687,421.5,36.3976,37.9957,142.458,99.4806,96.9296,0.000419868,0.0479638,21.0101,-313.216,0.23009,0.0,0.0
1694,423.25,36.7557,38.0035,143.946,99.5194,97.0209,0.000531988,0.0491022,21.0069,-313.216,0.225201,0.0,0.0
1701,425,36.3204,37.7362,139.751,99.5397,97.014,0.000612151,0.0500974,21.0038,-313.226,0.22764,0.0,0.0
1708,426.75,36.7273,37.6461,142.468,99.5374,97.1799,0.000641042,0.0508978,21.0015,-313.206,0.212294,0.0,0.0
1715,428.5,35.9415,37.9203,144.052,99.5473,96.8696,0.000576452,0.0516085,21,-313.216,0.241515,0.0,0.0
1722,430.25,36.1853,37.6744,145.213,99.5609,96.7384,0.000490373,0.0520443,20.999,-313.226,0.254725,0.0,0.0
1729,432,36.4706,37.9848,142.049,99.5841,96.6488,0.000468637,0.0524319,20.9978,-313.226,0.264994,0.0,0.0
1736,433.75,36.1365,38.0463,144.325,99.5945,97.2159,0.000528415,0.0527388,20.9975,-313.206,0.214095,0.0,0.0
1743,435.5,36.5414,38.1063,145.5,99.5889,96.5956,0.00056832,0.0529255,20.9973,-313.216,0.270293,0.0,0.0
1750,437.25,36.0435,37.6884,144.425,99.6105,96.9373,0.000557851,0.0533345,20.9972,-313.236,0.24094,0.0,0.0
1757,439,36.3579,37.8439,144.091,99.6193,96.8708,0.000531824,0.0536396,20.9967,-313.226,0.247795,0.0,0.0
1764,440.75,36.0842,37.8951,142.855,99.6265,97.0175,0.000583118,0.0538377,20.9944,-313.216,0.23504,0.0,0.0
1771,442.5,36.0886,37.1965,147.388,99.6309,97.3205,0.000725523,0.0539369,20.9923,-313.206,0.207804,0.0,0.0
1778,444.25,36.0612,37.6404,145.757,99.6229,96.5931,0.000869951,0.0538688,20.9922,-313.226,0.273549,0.0,0.0
1785,446,36.2012,37.6081,140.684,99.6388,96.8683,0.000879064,0.0536573,20.9924,-313.226,0.249771,0.0,0.0
1792,447.75,36.0601,37.6109,143.303,99.6564,96.7101,0.00070476,0.0532319,20.9928,-313.216,0.265809,0.0,0.0
1799,449.5,35.7114,37.6443,141.325,99.6636,97.1006,0.000544897,0.0526454,20.9947,-313.256,0.230753,0.0,0.0
1806,451.25,35.9009,37.6479,144.499,99.6524,96.9133,0.000512227,0.0521098,20.9962,-313.226,0.246863,0.0,0.0
1813,453,35.7848,37.538,139.872,99.6552,96.801,0.000565942,0.0514522,20.9982,-313.206,0.257383,0.0,0.0
1820,454.75,36.12,37.6333,142.369,99.6652,96.9201,0.00063716,0.0506763,20.9996,-313.206,0.247373,0.0,0.0
1827,456.5,36.4949,37.2389,141.519,99.674,96.8348,0.00062708,0.0499815,21.0021,-313.206,0.255953,0.0,0.0
1834,458.25,36.3229,38.0484,142.445,99.6644,97.0475,0.00057036,0.0493318,21.0037,-313.266,0.235674,0.0,0.0
1841,460,35.8662,38.1922,139.746,99.6516,97.606,0.000511123,0.0487921,21.0054,-313.206,0.183706,0.0,0.0
1848,461.75,35.8842,37.6224,144.954,99.67,96.813,0.000459352,0.0484243,21.0065,-313.216,0.257599,0.0,0.0
1855,463.5,36.2511,37.5459,144.341,99.672,97.369,0.00047039,0.0481024,21.0078,-313.236,0.207054,0.0,0.0
1862,465.25,36.0382,37.3256,141.619,99.662,96.9776,0.00051791,0.0477758,21.0091,-313.266,0.241841,0.0,0.0
1869,467,36.2251,37.1668,147.256,99.6584,96.8121,0.000536999,0.0474018,21.0106,-313.216,0.256647,0.0,0.0
1876,468.75,36.106,37.5909,144.142,99.6632,96.9442,0.000513418,0.0472478,21.0114,-313.266,0.245002,0.0,0.0
1883,470.5,36.5527,37.8847,142.119,99.6676,97.4016,0.000521262,0.047087,21.0118,-313.206,0.203701,0.0,0.0
1890,472.25,36.3455,38.0918,143.751,99.6708,97.3527,0.000525276,0.046861,21.0119,-313.246,0.20843,0.0,0.0
1897,474,36.426,37.9255,144.667,99.6504,97.1066,0.000496236,0.046677,21.012,-313.246,0.229034,0.0,0.0
1904,475.75,36.152,37.3392,140.984,99.6388,96.9296,0.000548573,0.0464867,21.0125,-313.236,0.244168,0.0,0.0
1911,477.5,36.0058,37.5866,143.113,99.6544,96.945,0.000675272,0.0462986,21.0135,-313.246,0.244142,0.0,0.0
1918,479.25,36.2733,37.188,144.361,99.646,96.741,0.000755838,0.0461015,21.014,-313.236,0.262059,0.0,0.0
1925,481,36.0589,37.7265,143.154,99.638,96.7251,0.000702202,0.0459262,21.0144,-313.206,0.262801,0.0,0.0
1932,482.75,35.8662,38.0232,143.281,99.6329,96.7448,0.000612866,0.0456856,21.0156,-313.236,0.260533,0.0,0.0
1939,484.5,36.2659,37.7029,145.389,99.6361,96.885,0.000599735,0.0453842,21.0166,-313.196,0.247993,0.0,0.0
1946,486.25,35.6866,37.7154,141.822,99.6357,97.3192,0.000596008,0.0452716,21.017,-313.216,0.208348,0.0,0.0
1953,488,35.7316,37.337,144.554,99.6329,96.8593,0.000586298,0.0451691,21.0169,-313.226,0.250061,0.0,0.0
1960,489.75,36.3612,37.5003,142.292,99.6125,97.6515,0.000612087,0.0451302,21.0168,-313.196,0.176102,0.0,0.0
1967,491.5,36.497,37.8395,144.515,99.6077,97.3488,0.000649775,0.045064,21.0168,-313.206,0.203169,0.0,0.0
1974,493.25,35.9268,37.6857,145.501,99.6137,96.7607,0.000630109,0.0450323,21.0168,-313.236,0.257376,0.0,0.0
1981,495,36.1264,37.3826,140.743,99.6061,97.1469,0.00051595,0.0449498,21.0165,-313.216,0.221416,0.0,0.0
1988,496.75,35.9555,37.6651,146.173,99.5941,96.9729,0.00040808,0.0449017,21.0162,-313.236,0.236233,0.0,0.0
1995,498.5,36.5217,37.8345,143.261,99.5861,97.0367,0.000348314,0.0448777,21.016,-313.216,0.229691,0.0,0.0
2002,500.25,36.1123,37.702,146.311,99.5833,96.8516,0.000324115,0.0449787,21.0159,-313.216,0.24636,0.0,0.0
2009,502,36.144,37.635,144.062,99.5817,97.1118,0.000314985,0.0449124,21.0159,-313.196,0.222454,0.0,0.0
2016,503.75,36.3805,37.6408,144.067,99.5761,96.9557,0.000332474,0.0448701,21.0167,-313.226,0.2362,0.0,0.0
2023,505.5,36.6093,37.5373,139.869,99.5673,97.0067,0.000326327,0.04474,21.0163,-313.216,0.230758,0.0,0.0
2030,507.25,36.4381,38.1251,147.633,99.5561,96.7873,0.000284206,0.0448287,21.0161,-313.236,0.249825,0.0,0.0
2037,509,36.3438,37.7104,147.037,99.5493,97.2472,0.000250927,0.0448005,21.016,-313.236,0.207228,0.0,0.0
2044,510.75,35.857,37.712,148.856,99.5417,96.9973,0.00029061,0.0447169,21.0163,-313.226,0.229345,0.0,0.0
2051,512.5,36.1527,37.7738,140.672,99.5142,96.6488,0.000339701,0.044751,21.0166,-313.226,0.258773,0.0,0.0
2058,514.25,36.4059,37.9683,141.679,99.5058,96.8576,0.000356418,0.0449376,21.0167,-313.236,0.238914,0.0,0.0
2065,516,36.4663,38.132,142.868,99.5162,96.8014,0.000355606,0.0449896,21.0164,-313.206,0.244976,0.0,0.0
2072,517.75,35.9645,37.734,141.636,99.5102,97.1023,0.000352917,0.0450161,21.0161,-313.216,0.21695,0.0,0.0
2079,519.5,36.3472,37.6764,145.017,99.491,97.3844,0.000414729,0.0450884,21.0149,-313.216,0.189551,0.0,0.0
2086,521.25,36.1598,37.618,145.021,99.479,97.0029,0.000496613,0.0451344,21.0142,-313.216,0.223252,0.0,0.0
2093,523,36.086,37.7073,145.287,99.4858,96.4795,0.000459161,0.0452314,21.0139,-313.206,0.271778,0.0,0.0
2100,524.75,36.1536,37.9885,143.271,99.4866,96.8181,0.000340896,0.0453633,21.0137,-313.206,0.240814,0.0,0.0
2107,526.5,36.4347,37.6172,145.318,99.4778,96.9789,0.000235145,0.0453903,21.0126,-313.226,0.225338,0.0,0.0
2114,528.25,36.4926,37.7978,136.564,99.4642,96.6972,0.000206058,0.0454459,21.0128,-313.216,0.249888,0.0,0.0
2121,530,35.8775,38.0391,146.776,99.4578,96.9266,0.000330584,0.0454733,21.0132,-313.206,0.228336,0.0,0.0
2128,531.75,35.9436,38.1366,140.528,99.469,96.9124,0.000516236,0.0455747,21.0134,-313.206,0.230625,0.0,0.0
2135,533.5,36.0433,37.4297,145.602,99.467,96.7937,0.000688978,0.0456114,21.0143,-313.216,0.241307,0.0,0.0
2142,535.25,36.5249,37.9841,143.186,99.4482,96.8168,0.000794127,0.0457391,21.0138,-313.226,0.237515,0.0,0.0
2149,537,35.9067,37.8498,144.38,99.4315,96.7975,0.000851519,0.0458623,21.014,-313.226,0.237786,0.0,0.0
2156,538.75,36.3416,38.0689,144.695,99.4387,97.1178,0.000851211,0.045874,21.0148,-313.246,0.209174,0.0,0.0
2163,540.5,36.3565,37.3027,143.686,99.4482,96.7007,0.000820012,0.0458675,21.0157,-313.246,0.24815,0.0,0.0
2170,542.25,36.4081,37.8538,144.603,99.4398,97.1478,0.000800281,0.0457903,21.0162,-313.216,0.206544,0.0,0.0
2177,544,36.1848,37.8791,137.886,99.4267,96.6029,0.000778846,0.0456386,21.0164,-313.236,0.255185,0.0,0.0
2184,545.75,36.123,37.9491,142.862,99.4371,96.8996,0.000707347,0.0455594,21.0165,-313.226,0.228954,0.0,0.0
2191,547.5,36.229,37.6107,140.636,99.4574,96.6458,0.0005816,0.0455851,21.0161,-313.226,0.253996,0.0,0.0
2198,549.25,36.188,37.9766,140.392,99.4474,96.7054,0.000416213,0.0456517,21.0159,-313.226,0.247647,0.0,0.0
2205,551,36.3201,37.9619,145.557,99.4494,96.6959,0.00022763,0.0455883,21.0158,-313.216,0.248689,0.0,0.0
2212,552.75,36.0898,37.521,144.589,99.4415,96.9604,0.00022159,0.0455628,21.0158,-313.196,0.223783,0.0,0.0
2219,554.5,36.2355,37.9597,140.156,99.4494,96.9017,0.000342384,0.0455653,21.0158,-313.216,0.22986,0.0,0.0
2226,556.25,36.1466,37.838,143.57,99.4602,97.0016,0.000546963,0.0455304,21.0155,-313.196,0.221696,0.0,0.0
2233,558,36.3186,37.8797,139.274,99.467,97.2794,0.000745784,0.0455137,21.0155,-313.196,0.196974,0.0,0.0
2240,559.75,36.172,38.0399,142.049,99.4574,97.1966,0.000779047,0.0454564,21.0165,-313.216,0.203655,0.0,0.0
2247,561.5,36.4656,37.9981,145.113,99.4662,96.5485,0.000629666,0.0453625,21.017,-313.216,0.263701,0.0,0.0
2254,563.25,36.4984,37.603,142.394,99.4698,96.9874,0.000530677,0.0452341,21.0172,-313.236,0.223842,0.0,0.0
2261,565,36.2761,37.5007,145.23,99.477,97.0333,0.000489001,0.045282,21.0173,-313.246,0.220295,0.0,0.0
2268,566.75,36.4067,38.1427,142.576,99.4714,96.6359,0.000419457,0.0453361,21.0174,-313.236,0.256145,0.0,0.0
2275,568.5,36.5969,38.011,144.128,99.4782,97.2061,0.000357678,0.0453084,21.0179,-313.236,0.204647,0.0,0.0
2282,570.25,36.5386,38.1383,143.164,99.4966,97.1842,0.000335188,0.0452228,21.0181,-313.236,0.208276,0.0,0.0
2289,572,36.4794,37.6483,141.503,99.5066,96.8588,0.000301532,0.0452386,21.017,-313.236,0.238868,0.0,0.0
2296,573.75,36.5322,37.7848,143.087,99.4954,96.9386,0.000244037,0.0452637,21.0164,-313.236,0.230584,0.0,0.0
2303,575.5,36.0794,37.5091,139.081,99.4854,96.8743,0.000191026,0.0453341,21.0162,-313.246,0.235571,0.0,0.0
2310,577.25,36.6723,38.1268,141.276,99.4866,97.4779,0.000176563,0.0453609,21.0161,-313.236,0.180665,0.0,0.0
2317,579,36.342,37.864,145.471,99.5018,97.0355,0.000145217,0.0453517,21.0158,-313.216,0.222305,0.0,0.0
2324,580.75,36.2877,37.9115,141.898,99.4974,97.0835,8.90201e-05,0.0454677,21.0154,-313.226,0.217532,0.0,0.0
2331,582.5,36.6926,37.6788,142.334,99.477,96.8829,7.09958e-05,0.0455997,21.0153,-313.236,0.23404,0.0,0.0
2338,584.25,36.1082,37.6755,142.212,99.4794,96.4885,9.16558e-05,0.0457354,21.0141,-313.226,0.270382,0.0,0.0
2345,586,36.4943,38.2136,141.874,99.4878,97.0599,0.000123241,0.0458777,21.0134,-313.226,0.21883,0.0,0.0
2352,587.75,36.2358,38.1424,142.979,99.4926,97.2811,0.000195721,0.0458614,21.0131,-313.236,0.199094,0.0,0.0
2359,589.5,36.1729,37.5742,140.92,99.4774,96.7397,0.000241306,0.0459237,21.0137,-313.236,0.247175,0.0,0.0
2366,591.25,36.4792,37.901,143.781,99.4842,96.5875,0.000263074,0.0459399,21.0144,-313.226,0.261725,0.0,0.0
2373,593,36.1402,37.7762,142.044,99.495,96.8601,0.000303801,0.0460703,21.0148,-313.236,0.237718,0.0,0.0
2380,594.75,36.4249,38.0053,148.506,99.5122,96.8314,0.000411013,0.0459011,21.0149,-313.246,0.241875,0.0,0.0
2387,596.5,36.5234,37.7103,142.735,99.5082,96.8134,0.000528064,0.0458804,21.0144,-313.236,0.243166,0.0,0.0
2394,598.25,36.2543,37.965,143.184,99.4982,97.3171,0.000615377,0.0457832,21.0135,-313.226,0.196315,0.0,0.0
2401,600,36.1505,37.9136,143.419,99.5098,97.1671,0.000642462,0.0457773,21.0131,-313.206,0.211012,0.0,0.0
2408,601.75,36.5071,37.1433,145.009,99.5326,97.1645,0.000660989,0.0457164,21.0129,-313.226,0.213274,0.0,0.0
2415,603.5,35.0193,36.0369,141.048,99.5254,96.8554,0.000692685,0.0456602,21.0138,-313.216,0.240852,0.0,0.0
2422,605.25,34.7298,36.0811,140.501,99.513,97.1165,0.000662735,0.0455764,21.0135,-313.226,0.215909,0.0,0.0
2429,607,34.6168,35.8877,144.673,99.513,96.7354,0.000539417,0.0454802,21.0129,-313.236,0.250734,0.0,0.0
2436,608.75,34.6408,36.0641,144.726,99.5382,96.6076,0.000415565,0.0455531,21.0127,-313.246,0.264678,0.0,0.0
2443,610.5,34.5678,36.1918,143.275,99.5374,96.7903,0.000374659,0.0456508,21.0121,-313.226,0.24788,0.0,0.0
2450,612.25,34.2139,35.7006,142.896,99.5338,96.4803,0.000397798,0.0456335,21.0118,-313.216,0.275967,0.0,0.0
2457,614,34.6039,36.3563,144.58,99.5258,96.6471,0.000373859,0.0458426,21.0117,-313.236,0.259961,0.0,0.0
2464,615.75,34.9692,36.0766,141.795,99.5362,97.083,0.000335763,0.0460379,21.0116,-313.236,0.221022,0.0,0.0
2471,617.5,34.5999,36.0713,144.894,99.5477,97.098,0.000396169,0.0461587,21.0116,-313.226,0.220684,0.0,0.0
2478,619.25,34.9824,36.2694,141.913,99.5338,96.7804,0.000504793,0.0463135,21.0116,-313.206,0.248462,0.0,0.0
2485,621,34.3313,35.9423,143.92,99.531,97.0788,0.000616685,0.0465466,21.012,-313.236,0.220951,0.0,0.0
2492,622.75,34.707,36.2022,146.402,99.5382,96.9176,0.000674651,0.0466842,21.0122,-313.236,0.236309,0.0,0.0
2499,624.5,34.8904,35.7855,146.909,99.5473,96.7757,0.00066422,0.046516,21.0123,-313.226,0.250102,0.0,0.0
2506,626.25,34.9027,36.3351,144.357,99.5489,96.8897,0.000643628,0.0464217,21.0125,-313.236,0.239816,0.0,0.0
2513,628,34.7192,36.2191,142.087,99.5406,97.1756,0.000648766,0.0463616,21.012,-313.226,0.212969,0.0,0.0
2520,629.75,34.1193,35.9655,144.957,99.5378,97.0492,0.00067355,0.0464411,21.0123,-313.236,0.224254,0.0,0.0
2527,631.5,34.5932,36.1409,140.409,99.5429,97.1804,0.000699833,0.0465511,21.0113,-313.226,0.212752,0.0,0.0
2534,633.25,34.6143,36.7081,141.924,99.5597,97.0359,0.000747293,0.0466213,21.0112,-313.216,0.227422,0.0,0.0
2541,635,34.482,36.1661,145.765,99.5465,97.0625,0.000761066,0.0466118,21.0109,-313.226,0.223822,0.0,0.0
2548,636.75,34.6762,36.055,147.079,99.5389,97.053,0.000668384,0.0464779,21.0104,-313.256,0.224009,0.0,0.0
2555,638.5,34.3824,36.2668,143.839,99.5429,96.7521,0.000569248,0.0463856,21.0112,-313.216,0.25187,0.0,0.0
2562,640.25,34.8496,35.9319,143.745,99.5601,96.7577,0.000479274,0.0463517,21.0117,-313.236,0.252888,0.0,0.0
2569,642,34.7759,35.9165,145.286,99.5557,96.8327,0.000371777,0.0462814,21.0123,-313.236,0.245633,0.0,0.0
2576,643.75,34.6399,36.1561,142.323,99.5549,96.7071,0.000308307,0.0462244,21.0127,-313.236,0.257058,0.0,0.0
2583,645.5,33.9269,35.6477,142.075,99.5481,96.6085,0.000295846,0.0462734,21.0125,-313.236,0.265489,0.0,0.0
2590,647.25,34.529,36.5225,146.819,99.5509,97.2121,0.000302046,0.0462962,21.0116,-313.236,0.210573,0.0,0.0
2597,649,34.4584,35.9854,141.8,99.5605,96.9429,0.000351294,0.0462389,21.0111,-313.246,0.235989,0.0,0.0
2604,650.75,34.549,35.9038,144.238,99.5505,96.927,0.000458474,0.0462789,21.012,-313.236,0.236548,0.0,0.0
2611,652.5,34.7217,35.608,141.942,99.5501,97.2365,0.000486349,0.0461753,21.0126,-313.246,0.208276,0.0,0.0
2618,654.25,34.6957,35.8903,142.136,99.5557,96.8074,0.000379056,0.0461022,21.0128,-313.246,0.247947,0.0,0.0
2625,656,35.1943,35.9142,139.539,99.5601,96.8837,0.000255587,0.0460891,21.0129,-313.246,0.241359,0.0,0.0
2632,657.75,34.2431,35.9096,141.066,99.5593,96.8584,0.000226965,0.046157,21.013,-313.246,0.243601,0.0,0.0
2639,659.5,34.473,35.9999,140.391,99.5473,96.7212,0.000279019,0.0462788,21.013,-313.236,0.255087,0.0,0.0
2646,661.25,34.8592,36.1119,145.979,99.5557,96.5116,0.000336243,0.0464113,21.013,-313.266,0.275051,0.0,0.0
2653,663,34.6472,36.2817,143.908,99.5517,96.5592,0.00038242,0.0465549,21.0131,-313.236,0.270329,0.0,0.0
2660,664.75,34.5742,35.7284,146.668,99.5541,96.6351,0.000409682,0.0466056,21.0131,-313.236,0.263586,0.0,0.0
2667,666.5,34.8818,35.6737,142.723,99.5378,97.1739,0.000416356,0.0467436,21.0118,-313.226,0.212876,0.0,0.0
2674,668.25,34.617,36.1243,143.101,99.5378,96.8674,0.000408569,0.0467111,21.0113,-313.246,0.240858,0.0,0.0
2681,670,34.9355,35.6584,145.868,99.5406,96.9802,0.000421199,0.0468414,21.011,-313.256,0.230804,0.0,0.0
2688,671.75,34.3614,36.1937,144.517,99.5473,96.7234,0.000450857,0.0469971,21.0109,-313.256,0.254891,0.0,0.0
2695,673.5,34.8836,35.9314,145.472,99.5457,96.7898,0.000571536,0.0471575,21.0102,-313.246,0.248666,0.0,0.0
2702,675.25,34.444,35.2691,143.529,99.5314,96.7362,0.000668562,0.0472816,21.0098,-313.236,0.252291,0.0,0.0
2709,677,34.6489,35.4469,144.437,99.5421,96.4109,0.000631986,0.0472462,21.0096,-313.236,0.283092,0.0,0.0
2716,678.75,34.6294,36.1382,142.163,99.5565,97.0822,0.000563594,0.047111,21.0095,-313.226,0.222913,0.0,0.0
2723,680.5,34.6617,35.822,144.048,99.5469,96.8816,0.000475581,0.0471526,21.0095,-313.236,0.240382,0.0,0.0
2730,682.25,34.4493,35.7923,145.009,99.5358,97.2455,0.000441311,0.0473646,21.009,-313.236,0.206176,0.0,0.0
2737,684,34.6941,36.3031,145.108,99.5322,96.9124,0.000432997,0.047782,21.008,-313.246,0.236245,0.0,0.0
2744,685.75,34.7824,35.712,141.978,99.5394,96.8507,0.000388786,0.0480766,21.0075,-313.226,0.242529,0.0,0.0
2751,687.5,34.3508,36.2833,141.292,99.5369,97.0462,0.000335342,0.0483642,21.0073,-313.236,0.224456,0.0,0.0
2758,689.25,34.6473,35.9183,139.914,99.5449,96.8726,0.00032104,0.0483594,21.0072,-313.246,0.241027,0.0,0.0
2765,691,34.4165,35.5051,141.185,99.531,96.8884,0.000349375,0.0482555,21.0071,-313.236,0.238333,0.0,0.0
2772,692.75,34.8627,36.2351,140.995,99.5406,96.6878,0.000403996,0.0484463,21.0062,-313.236,0.257545,0.0,0.0
2779,694.5,34.6486,36.1095,144.325,99.535,97.047,0.000447994,0.0486537,21.0054,-313.246,0.224201,0.0,0.0
2786,696.25,34.205,36.1183,140.893,99.5322,96.987,0.000448128,0.0486337,21.0049,-313.226,0.229431,0.0,0.0
2793,698,34.6636,35.9973,141.884,99.5246,96.87,0.000395198,0.0486336,21.0046,-313.256,0.239449,0.0,0.0
2800,699.75,34.6143,35.9915,144.216,99.5274,96.8224,0.000398873,0.0487499,21.0053,-313.256,0.244049,0.0,0.0
2807,701.5,34.7793,35.9334,141.539,99.523,96.6844,0.000481811,0.0486595,21.0049,-313.276,0.256295,0.0,0.0
2814,703.25,34.9424,36.1039,141.688,99.5346,96.7435,0.000595606,0.0485419,21.0046,-313.256,0.251909,0.0,0.0
2821,705,34.6049,36.0615,144.845,99.5342,96.5798,0.000689468,0.0486633,21.0041,-313.246,0.266878,0.0,0.0
2828,706.75,34.4667,35.853,141.658,99.5202,96.6685,0.000668761,0.048738,21.0038,-313.246,0.257499,0.0,0.0
2835,708.5,34.5681,36.2236,140.844,99.5218,96.4756,0.000563068,0.0486857,21.0037,-313.256,0.275334,0.0,0.0
2842,710.25,34.1865,35.5896,142.381,99.5374,97.1902,,0.0487225,,-313.236,0.211356,0.0,0.0
2849,712,34.5765,35.5887,140.227,99.5302,96.5039,,0.0488017,,-313.236,0.273484,0.0,0.0
2856,713.75,34.3793,35.9047,143.072,99.5118,96.5125,,,,-313.246,0.27106,0.0,0.0
2863,715.5,34.9406,36.1574,141.653,99.5226,96.9416,,,,-313.226,0.232728,0.0,0.0
2870,717.25,34.4779,35.7311,141.797,99.5302,97.1722,,,,-313.236,0.212357,0.0,0.0
2877,719,34.6346,36.133,137.683,99.531,97.1143,,,,-313.226,0.217705,0.0,0.0
2884,720.75,34.648,36.1329,142.087,99.5342,96.6955,,,,-313.246,0.25627,0.0,0.0
2885,721,34.5326,35.9174,141.393,99.5481,96.7791,,,,-313.226,0.24986,0.0,0.0