File: 01_Data/Hemp_Sheets/MCC/Hemp_Sheets_MCC_30K_min_220112_R2.txt
Sample ID:	C:\MCC\MCC Cal\Test\Hemp_Sheets_MCC_30K_min_220112_R2.txt
Sample Weight (mg):	4.6
Heating Rate (C/s):	0.5
Combustor Temp (C):	900
N2 Flow Rate (cc/min):	80
O2 Flow Rate (cc/min):	20
Calibration File:	C:\MCC\MCC Cal\Coeff1 JN10440_30_210304.txt.txt
T Correction Coefficients:	0	1.024463	0
Time Shift (s):	14
*
Time (s)	Temperature (C)	N2 flow rate (cc/min)	O2 flow rate (cc/min)	Flow Rate (cc/min)	Oxygen (%)	HRR (W/g)	Heating rate (C/s)
-0.001	111.107	80.007	19.995	104.169	20.257	-0.078	-0.033
2.000	111.154	80.016	19.995	104.176	20.258	-0.107	0.007
4.000	111.122	80.009	19.994	104.180	20.257	-0.056	-0.001
6.000	111.143	80.010	19.992	104.175	20.259	-0.192	0.013
8.000	111.112	80.012	19.994	104.171	20.261	-0.346	0.009
10.000	111.134	79.980	19.994	104.169	20.257	-0.027	0.005
11.999	111.121	80.017	19.992	104.169	20.258	-0.101	-0.018
14.000	111.102	80.003	19.995	104.177	20.260	-0.288	-0.021
16.001	111.118	80.008	19.993	104.176	20.256	0.025	-0.002
18.000	111.118	80.005	19.996	104.192	20.252	0.332	-0.015
20.000	111.170	80.005	19.993	104.203	20.251	0.338	0.001
22.000	111.174	80.003	19.994	104.218	20.251	0.381	0.005
24.000	111.247	80.020	19.993	104.247	20.251	0.385	0.041
26.000	111.260	80.006	19.995	104.244	20.249	0.514	0.022
28.000	111.364	80.014	19.996	104.254	20.244	0.899	0.040
30.001	111.383	80.021	19.992	104.261	20.242	1.031	0.009
32.000	111.551	80.013	19.995	104.286	20.243	0.934	0.057
34.001	111.622	80.018	19.992	104.320	20.235	1.495	0.046
36.000	111.787	80.003	19.992	104.336	20.229	1.958	0.063
38.001	111.982	80.002	19.996	104.363	20.228	1.981	0.073
39.999	112.207	80.010	19.991	104.345	20.227	2.034	0.099
42.000	112.441	80.013	19.993	104.364	20.228	2.013	0.128
43.999	112.726	80.006	19.995	104.366	20.222	2.451	0.152
46.001	112.984	80.009	19.995	104.365	20.220	2.566	0.117
48.000	113.327	80.002	19.996	104.363	20.223	2.326	0.169
50.001	113.663	80.004	19.996	104.368	20.223	2.373	0.174
51.999	114.009	80.016	19.993	104.362	20.223	2.328	0.177
53.999	114.430	80.010	19.992	104.373	20.222	2.445	0.176
56.001	114.830	80.028	19.991	104.373	20.217	2.809	0.204
58.000	115.227	80.004	19.994	104.378	20.222	2.425	0.188
59.999	115.646	79.999	19.997	104.379	20.215	2.907	0.196
62.001	116.120	80.003	19.993	104.373	20.214	2.964	0.247
64.001	116.611	80.004	19.993	104.376	20.218	2.729	0.249
66.000	117.136	80.004	19.995	104.371	20.215	2.934	0.260
68.000	117.621	80.014	19.992	104.370	20.217	2.786	0.261
70.001	118.171	80.011	19.994	104.376	20.215	2.906	0.256
72.000	118.698	80.011	19.995	104.321	20.217	2.758	0.265
74.000	119.223	80.007	19.995	104.416	20.220	2.593	0.235
76.000	119.818	80.012	19.995	104.411	20.217	2.802	0.284
78.000	120.415	80.008	19.995	104.373	20.217	2.767	0.321
80.000	120.995	80.003	19.999	104.374	20.218	2.695	0.322
82.000	121.567	80.018	19.995	104.375	20.219	2.668	0.296
84.000	122.199	79.997	19.994	104.382	20.217	2.775	0.319
86.000	122.845	80.008	19.995	104.395	20.215	2.946	0.334
88.001	123.448	80.001	19.998	104.400	20.215	2.915	0.312
90.001	124.112	80.010	19.994	104.394	20.213	3.088	0.306
92.001	124.773	80.013	19.994	104.404	20.212	3.114	0.306
94.000	125.453	80.016	19.989	104.407	20.213	3.036	0.322
96.000	126.137	79.996	19.995	104.401	20.214	3.004	0.361
98.001	126.844	80.002	19.996	104.407	20.212	3.149	0.344
100.000	127.525	79.999	19.996	104.412	20.216	2.835	0.335
102.000	128.308	80.009	19.994	104.401	20.211	3.186	0.384
104.000	129.027	80.011	19.992	104.411	20.215	2.929	0.387
106.000	129.796	80.003	19.993	104.407	20.209	3.318	0.399
108.000	130.527	80.003	19.993	104.408	20.211	3.194	0.344
110.000	131.334	80.021	19.993	104.411	20.212	3.149	0.401
112.000	132.097	80.013	19.991	104.415	20.211	3.191	0.398
114.000	132.792	80.010	19.996	104.417	20.215	2.916	0.362
116.000	133.645	80.010	19.991	104.420	20.210	3.241	0.408
118.000	134.464	80.011	19.993	104.420	20.212	3.132	0.393
120.000	135.283	80.002	19.993	104.420	20.209	3.341	0.421
122.000	136.139	80.008	19.994	104.449	20.206	3.578	0.438
124.001	136.946	80.005	19.993	104.448	20.206	3.582	0.444
126.001	137.804	80.013	19.994	104.452	20.206	3.590	0.444
128.000	138.710	80.010	19.991	104.444	20.208	3.414	0.452
130.000	139.579	80.008	19.993	104.447	20.208	3.430	0.431
132.000	140.479	80.020	19.991	104.444	20.211	3.221	0.458
134.000	141.385	80.005	19.992	104.447	20.211	3.200	0.412
136.000	142.304	80.020	19.991	104.436	20.210	3.299	0.499
138.000	143.207	80.000	19.993	104.439	20.211	3.169	0.471
140.000	144.192	80.011	19.994	104.434	20.205	3.608	0.507
142.000	145.170	80.010	19.994	104.424	20.207	3.508	0.503
144.000	146.104	80.019	19.995	104.430	20.209	3.318	0.473
146.000	147.048	80.001	19.996	104.442	20.203	3.794	0.486
148.000	148.009	80.005	19.995	104.420	20.207	3.510	0.488
150.000	149.015	80.017	19.993	104.440	20.209	3.339	0.490
152.000	149.966	80.014	19.995	104.442	20.204	3.688	0.516
154.000	150.934	80.005	19.996	104.427	20.211	3.197	0.477
156.000	151.908	80.003	19.992	104.429	20.207	3.499	0.467
158.000	152.949	80.020	19.988	104.436	20.212	3.131	0.522
160.000	153.873	79.999	19.990	104.428	20.211	3.225	0.475
162.000	154.859	79.994	19.995	104.413	20.213	3.036	0.491
164.000	155.843	80.012	19.995	104.424	20.210	3.265	0.490
166.001	156.892	80.011	19.991	104.413	20.215	2.913	0.536
168.000	157.852	80.009	19.994	104.412	20.208	3.397	0.463
170.000	158.836	79.998	19.995	104.416	20.209	3.363	0.521
172.000	159.838	79.997	19.994	104.416	20.211	3.236	0.506
174.000	160.800	80.004	19.995	104.408	20.211	3.221	0.508
176.000	161.815	80.006	19.994	104.408	20.210	3.289	0.470
178.000	162.828	80.008	19.994	104.412	20.211	3.189	0.493
180.000	163.849	80.009	19.993	104.368	20.216	2.866	0.536
182.000	164.784	80.002	19.994	104.442	20.217	2.781	0.478
184.000	165.822	80.012	19.990	104.423	20.216	2.829	0.495
186.000	166.870	80.013	19.991	104.411	20.214	3.022	0.558
188.000	167.836	80.005	19.993	104.408	20.215	2.938	0.506
190.000	168.784	80.009	19.994	104.409	20.212	3.145	0.483
192.000	169.830	80.009	19.992	104.414	20.216	2.841	0.473
194.000	170.829	80.013	19.997	104.410	20.213	3.090	0.475
196.001	171.841	80.005	19.995	104.404	20.212	3.100	0.484
198.000	172.842	80.011	19.993	104.404	20.207	3.474	0.499
200.000	173.855	80.007	19.998	104.406	20.209	3.338	0.505
202.001	174.871	80.009	19.993	104.405	20.207	3.473	0.500
204.000	175.880	80.014	19.994	104.410	20.205	3.625	0.508
206.000	176.862	80.010	19.992	104.413	20.207	3.464	0.513
208.000	177.892	80.012	19.992	104.407	20.205	3.625	0.508
210.000	178.867	80.006	19.993	104.412	20.206	3.588	0.473
212.001	179.840	79.989	19.995	104.399	20.204	3.697	0.506
214.000	180.840	80.009	19.997	104.391	20.204	3.680	0.473
216.000	181.868	80.008	19.991	104.397	20.206	3.525	0.502
218.000	182.828	79.998	19.991	104.404	20.206	3.588	0.508
220.000	183.781	80.006	19.994	104.390	20.205	3.598	0.500
222.000	184.836	80.005	19.990	104.396	20.207	3.504	0.519
224.001	185.865	80.019	19.993	104.392	20.207	3.520	0.496
226.000	186.893	80.010	19.992	104.386	20.211	3.220	0.514
228.001	187.888	80.004	19.990	104.383	20.205	3.650	0.515
230.000	188.894	80.009	19.991	104.388	20.206	3.588	0.504
232.000	189.869	80.007	19.994	104.388	20.205	3.649	0.486
234.000	190.920	80.009	19.995	104.392	20.204	3.675	0.517
236.000	191.912	79.996	19.994	104.377	20.208	3.409	0.523
238.000	192.891	79.995	19.996	104.377	20.208	3.385	0.493
240.000	193.873	80.030	19.994	104.371	20.209	3.356	0.482
242.001	194.897	79.996	19.996	104.383	20.205	3.631	0.502
244.000	195.896	80.003	19.994	104.384	20.206	3.556	0.489
246.000	196.860	80.004	19.994	104.371	20.208	3.389	0.472
248.000	197.911	80.004	19.994	104.381	20.208	3.386	0.542
250.000	198.919	80.003	19.992	104.376	20.205	3.630	0.506
252.000	199.883	80.015	19.991	104.380	20.208	3.385	0.535
254.000	200.880	80.013	19.992	104.375	20.204	3.728	0.471
256.000	201.868	80.001	19.996	104.370	20.204	3.687	0.537
258.000	202.853	80.010	19.992	104.386	20.207	3.486	0.548
260.000	203.836	80.004	19.997	104.378	20.207	3.461	0.491
262.000	204.875	80.005	19.998	104.370	20.207	3.490	0.515
264.000	205.841	80.006	19.990	104.372	20.207	3.496	0.472
266.000	206.859	80.004	19.995	104.373	20.207	3.490	0.504
268.000	207.810	80.007	19.991	104.374	20.209	3.321	0.515
270.000	208.799	80.002	19.995	104.368	20.208	3.433	0.463
272.000	209.838	80.008	19.995	104.363	20.207	3.484	0.507
274.000	210.798	80.007	19.997	104.365	20.208	3.437	0.498
276.000	211.769	80.012	19.994	104.367	20.205	3.593	0.510
278.000	212.751	80.009	19.995	104.370	20.207	3.492	0.501
280.000	213.792	80.007	19.994	104.365	20.208	3.383	0.516
282.000	214.774	80.009	19.993	104.358	20.206	3.521	0.513
284.000	215.703	80.010	19.992	104.364	20.203	3.741	0.480
286.000	216.681	80.006	19.994	104.369	20.206	3.543	0.499
288.000	217.696	80.010	19.990	104.366	20.204	3.708	0.477
290.000	218.669	80.006	19.994	104.364	20.202	3.819	0.496
292.000	219.637	80.007	19.993	104.360	20.204	3.696	0.494
294.000	220.598	80.010	19.994	104.369	20.203	3.749	0.461
296.000	221.664	80.009	19.992	104.371	20.206	3.550	0.518
298.000	222.583	80.002	19.997	104.370	20.209	3.321	0.471
300.000	223.575	80.011	19.988	104.369	20.200	3.957	0.465
302.000	224.549	80.010	19.993	104.365	20.205	3.638	0.506
304.000	225.517	80.010	19.993	104.358	20.204	3.698	0.481
306.000	226.527	80.005	19.999	104.363	20.205	3.626	0.479
308.000	227.475	80.012	19.991	104.368	20.202	3.870	0.487
310.000	228.482	80.004	19.992	104.372	20.205	3.601	0.500
312.000	229.554	80.005	19.992	104.367	20.203	3.784	0.531
314.000	230.509	80.000	19.997	104.366	20.203	3.790	0.500
316.000	231.466	80.002	19.997	104.373	20.203	3.786	0.496
318.000	232.452	80.004	19.996	104.372	20.204	3.692	0.484
320.000	233.455	80.010	19.993	104.371	20.203	3.761	0.508
322.000	234.395	80.007	19.995	104.368	20.201	3.875	0.514
324.000	235.386	80.008	19.995	104.365	20.202	3.852	0.471
326.001	236.358	80.002	19.997	104.369	20.202	3.811	0.453
328.000	237.402	80.008	19.993	104.366	20.199	4.051	0.486
330.000	238.383	80.006	19.995	104.368	20.199	4.078	0.488
332.000	239.422	80.006	19.995	104.367	20.198	4.102	0.507
334.000	240.414	80.006	19.994	104.369	20.199	4.039	0.481
336.000	241.411	80.005	19.995	104.371	20.200	4.010	0.509
338.000	242.427	80.007	19.995	104.368	20.197	4.200	0.495
340.000	243.465	80.006	19.991	104.367	20.196	4.267	0.512
342.000	244.452	80.004	19.993	104.360	20.198	4.144	0.504
344.000	245.454	80.005	19.993	104.354	20.199	4.072	0.498
346.000	246.477	80.005	19.995	104.367	20.194	4.372	0.504
348.000	247.453	80.003	19.996	104.368	20.194	4.403	0.470
350.001	248.497	80.006	19.994	104.367	20.194	4.411	0.510
352.000	249.515	80.008	19.994	104.365	20.196	4.267	0.498
354.000	250.583	80.009	19.995	104.366	20.192	4.541	0.517
356.000	251.593	80.008	19.994	104.366	20.193	4.446	0.508
358.000	252.584	80.005	19.995	104.363	20.189	4.774	0.479
360.000	253.632	80.005	19.995	104.363	20.189	4.770	0.522
362.000	254.637	80.007	19.994	104.368	20.189	4.726	0.502
364.000	255.686	80.008	19.994	104.368	20.188	4.813	0.503
366.000	256.655	80.007	19.994	104.369	20.186	4.958	0.485
368.000	257.672	80.008	19.999	104.366	20.189	4.775	0.490
370.000	258.703	80.007	19.993	104.356	20.186	4.938	0.521
372.000	259.725	80.008	19.992	104.366	20.185	5.030	0.523
374.000	260.682	80.006	19.991	104.363	20.185	5.069	0.502
376.000	261.741	80.005	19.994	104.363	20.183	5.204	0.533
378.000	262.741	80.007	19.992	104.369	20.185	5.059	0.496
380.000	263.697	80.007	19.996	104.365	20.179	5.497	0.504
382.000	264.742	80.009	19.993	104.367	20.180	5.399	0.498
384.000	265.732	80.009	19.993	104.372	20.179	5.442	0.494
386.000	266.707	80.008	19.994	104.361	20.179	5.458	0.481
388.000	267.746	80.009	19.993	104.366	20.178	5.528	0.492
390.000	268.756	80.007	19.994	104.364	20.178	5.524	0.477
392.000	269.794	80.008	19.993	104.364	20.177	5.623	0.518
394.000	270.820	80.006	19.991	104.367	20.176	5.683	0.518
396.000	271.802	80.005	19.997	104.370	20.170	6.133	0.513
398.000	272.815	80.006	19.994	104.362	20.166	6.353	0.500
400.000	273.810	80.007	19.995	104.360	20.167	6.348	0.490
402.000	274.791	80.007	19.994	104.368	20.163	6.563	0.467
404.000	275.840	80.008	19.993	104.363	20.161	6.758	0.511
406.000	276.825	80.008	19.993	104.366	20.158	6.925	0.478
408.000	277.798	80.006	19.998	104.371	20.154	7.260	0.481
410.000	278.800	80.006	19.996	104.369	20.154	7.249	0.485
412.000	279.800	80.007	19.993	104.367	20.154	7.239	0.486
414.000	280.741	80.007	19.995	104.368	20.151	7.432	0.460
416.000	281.779	80.007	19.994	104.366	20.148	7.638	0.491
418.000	282.789	80.007	19.994	104.368	20.146	7.808	0.518
420.000	283.759	80.004	19.995	104.367	20.144	7.955	0.502
422.000	284.746	80.006	19.993	104.368	20.141	8.183	0.476
424.000	285.761	80.006	19.995	104.371	20.143	8.032	0.509
426.000	286.807	80.005	19.994	104.372	20.137	8.439	0.541
428.000	287.791	80.007	19.995	104.371	20.137	8.470	0.506
430.000	288.788	80.006	19.993	104.371	20.132	8.805	0.508
432.001	289.789	80.006	19.994	104.370	20.131	8.832	0.498
434.000	290.783	80.006	19.993	104.377	20.128	9.095	0.485
436.000	291.812	80.005	19.996	104.377	20.125	9.290	0.496
438.000	292.795	80.008	19.994	104.382	20.120	9.675	0.483
440.000	293.822	80.009	19.994	104.379	20.120	9.628	0.511
442.000	294.829	80.009	19.994	104.377	20.110	10.362	0.486
444.000	295.809	80.006	19.995	104.375	20.108	10.484	0.501
446.000	296.868	80.008	19.994	104.388	20.109	10.391	0.518
448.000	297.874	80.008	19.996	104.384	20.103	10.875	0.531
450.000	298.844	80.007	19.995	104.374	20.097	11.284	0.490
452.000	299.816	80.006	19.994	104.385	20.090	11.799	0.500
454.000	300.836	80.008	19.995	104.393	20.086	12.035	0.494
456.000	301.845	80.007	19.996	104.386	20.082	12.347	0.521
458.000	302.803	80.007	19.995	104.400	20.077	12.690	0.480
460.000	303.831	80.008	19.995	104.404	20.070	13.175	0.495
462.000	304.800	80.008	19.995	104.399	20.067	13.420	0.489
464.000	305.805	80.009	19.994	104.396	20.057	14.127	0.483
466.000	306.799	80.010	19.993	104.401	20.055	14.252	0.496
468.000	307.814	80.010	19.994	104.405	20.045	14.953	0.525
470.000	308.826	80.009	19.993	104.405	20.045	14.982	0.509
472.000	309.801	80.010	19.993	104.410	20.037	15.534	0.514
474.000	310.807	80.009	19.994	104.407	20.027	16.247	0.530
476.000	311.807	80.008	19.994	104.410	20.017	16.923	0.526
478.000	312.810	80.007	19.994	104.413	20.009	17.529	0.504
480.000	313.800	80.006	19.994	104.438	20.006	17.725	0.483
482.000	314.842	80.007	19.994	104.434	19.997	18.391	0.524
484.000	315.849	80.008	19.994	104.441	19.988	18.984	0.466
486.000	316.874	80.007	19.995	104.440	19.978	19.724	0.526
488.000	317.858	80.006	19.995	104.444	19.969	20.349	0.497
490.000	318.889	80.006	19.994	104.446	19.956	21.307	0.532
492.000	319.889	80.007	19.994	104.450	19.947	21.927	0.513
494.000	320.926	80.008	19.994	104.450	19.931	23.031	0.515
496.000	321.918	80.006	19.994	104.454	19.921	23.748	0.519
498.000	322.945	80.007	19.993	104.469	19.910	24.534	0.515
500.001	323.918	80.007	19.994	104.471	19.894	25.707	0.474
502.000	324.955	80.008	19.994	104.485	19.882	26.507	0.521
504.000	325.950	80.007	19.993	104.490	19.862	27.938	0.499
506.000	326.947	80.008	19.995	104.490	19.845	29.161	0.491
508.000	327.991	80.007	19.994	104.468	19.830	30.233	0.506
510.000	329.015	80.006	19.994	104.464	19.811	31.566	0.504
512.000	330.047	80.007	19.993	104.560	19.794	32.793	0.472
514.000	331.059	80.007	19.993	104.529	19.773	34.253	0.486
516.000	332.090	80.008	19.994	104.530	19.752	35.733	0.504
518.000	333.145	80.007	19.996	104.534	19.733	37.133	0.519
520.000	334.165	80.007	19.996	104.537	19.709	38.828	0.519
522.000	335.218	80.010	19.994	104.561	19.683	40.681	0.540
524.000	336.217	80.009	19.994	104.563	19.657	42.527	0.493
526.000	337.233	80.008	19.994	104.566	19.634	44.154	0.522
528.000	338.239	80.009	19.993	104.590	19.602	46.411	0.528
530.000	339.255	80.009	19.995	104.601	19.575	48.379	0.515
532.000	340.254	80.008	19.994	104.615	19.540	50.846	0.511
534.000	341.285	80.008	19.995	104.622	19.508	53.125	0.495
536.000	342.298	80.008	19.995	104.639	19.471	55.754	0.508
538.000	343.299	80.007	19.994	104.650	19.435	58.352	0.516
540.000	344.302	80.009	19.994	104.664	19.397	61.021	0.509
542.000	345.306	80.008	19.994	104.681	19.359	63.783	0.484
544.000	346.297	80.009	19.995	104.688	19.319	66.588	0.517
546.000	347.332	80.010	19.996	104.708	19.274	69.793	0.501
548.000	348.315	80.009	19.996	104.732	19.230	72.991	0.486
550.000	349.347	80.009	19.996	104.743	19.182	76.371	0.526
552.000	350.337	80.009	19.995	104.758	19.136	79.678	0.481
554.000	351.329	80.007	19.996	104.783	19.087	83.198	0.477
556.000	352.317	80.007	19.995	104.806	19.041	86.451	0.486
558.000	353.355	80.006	19.996	104.810	18.990	90.100	0.513
560.000	354.365	80.006	19.995	104.836	18.937	93.870	0.538
562.000	355.307	80.008	19.993	104.851	18.887	97.443	0.496
564.000	356.312	80.007	19.993	104.871	18.836	101.121	0.504
566.000	357.311	80.007	19.994	104.886	18.781	105.005	0.525
568.000	358.287	80.006	19.994	104.904	18.730	108.652	0.479
570.000	359.312	80.006	19.993	104.914	18.671	112.855	0.481
572.000	360.309	80.006	19.994	104.937	18.624	116.253	0.499
574.000	361.301	80.006	19.994	104.950	18.572	119.943	0.523
576.000	362.273	80.007	19.994	104.954	18.525	123.315	0.477
578.000	363.296	80.007	19.994	104.976	18.476	126.778	0.531
580.000	364.277	80.007	19.993	104.985	18.434	129.786	0.520
582.000	365.251	80.007	19.994	104.993	18.395	132.549	0.479
584.000	366.225	80.008	19.994	104.993	18.356	135.271	0.525
586.000	367.238	80.008	19.994	104.996	18.322	137.709	0.514
588.000	368.196	80.006	19.995	104.994	18.296	139.544	0.508
590.000	369.187	80.007	19.995	104.996	18.275	140.985	0.513
592.000	370.161	80.007	19.995	104.992	18.260	142.013	0.456
594.000	371.181	80.007	19.995	104.982	18.254	142.482	0.487
596.000	372.191	80.008	19.994	104.973	18.255	142.360	0.504
598.000	373.183	80.008	19.994	104.961	18.265	141.580	0.510
600.000	374.209	80.006	19.995	104.948	18.286	140.094	0.516
602.000	375.260	80.008	19.996	104.918	18.313	138.115	0.543
604.000	376.264	80.009	19.994	104.910	18.354	135.132	0.480
606.000	377.254	80.010	19.995	104.882	18.400	131.804	0.488
608.000	378.300	80.008	19.994	104.854	18.460	127.543	0.537
610.000	379.331	80.009	19.994	104.827	18.529	122.602	0.500
612.000	380.356	80.008	19.995	104.794	18.604	117.219	0.521
614.000	381.392	80.007	19.995	104.754	18.698	110.529	0.528
616.000	382.442	80.009	19.995	104.723	18.790	103.973	0.517
618.000	383.424	80.007	19.995	104.694	18.893	96.667	0.501
620.001	384.439	80.006	19.994	104.654	18.999	89.145	0.518
622.000	385.487	80.009	19.994	104.630	19.105	81.613	0.505
624.000	386.536	80.008	19.994	104.599	19.215	73.769	0.522
626.000	387.581	80.007	19.994	104.571	19.324	66.088	0.514
628.000	388.644	80.009	19.995	104.549	19.427	58.729	0.506
630.000	389.646	80.009	19.995	104.527	19.526	51.722	0.466
632.000	390.687	80.010	19.995	104.526	19.619	45.124	0.513
634.000	391.726	80.010	19.993	104.497	19.705	39.087	0.526
636.000	392.763	80.008	19.994	104.489	19.783	33.536	0.524
638.000	393.818	80.008	19.995	104.489	19.855	28.426	0.515
640.000	394.913	80.008	19.994	104.482	19.922	23.675	0.549
642.000	395.911	80.007	19.997	104.476	19.970	20.299	0.481
644.000	397.017	80.006	19.996	104.467	20.021	16.659	0.568
646.000	397.954	80.007	19.996	104.474	20.052	14.470	0.466
648.000	399.023	80.006	19.996	104.477	20.082	12.359	0.487
650.000	400.079	80.007	19.996	104.463	20.105	10.692	0.518
652.000	401.067	80.008	19.995	104.473	20.125	9.291	0.484
654.001	402.167	80.008	19.994	104.468	20.138	8.406	0.554
656.000	403.224	80.008	19.996	104.456	20.147	7.733	0.541
658.000	404.277	80.009	19.993	104.472	20.156	7.131	0.540
660.000	405.277	80.008	19.994	104.464	20.163	6.627	0.507
662.000	406.367	80.007	19.995	104.469	20.165	6.486	0.526
664.001	407.387	80.007	19.994	104.452	20.171	6.047	0.518
666.000	408.441	80.007	19.995	104.457	20.171	6.056	0.537
668.000	409.471	80.008	19.993	104.461	20.174	5.793	0.523
670.000	410.508	80.007	19.994	104.472	20.172	5.962	0.539
672.000	411.560	80.006	19.994	104.468	20.173	5.927	0.505
674.000	412.569	80.008	19.994	104.464	20.174	5.847	0.517
676.000	413.598	80.005	19.995	104.476	20.175	5.783	0.528
678.000	414.615	80.006	19.994	104.474	20.176	5.715	0.521
680.000	415.598	80.006	19.993	104.471	20.175	5.785	0.494
682.000	416.647	80.007	19.994	104.469	20.174	5.826	0.547
684.000	417.650	80.008	19.995	104.480	20.176	5.715	0.497
686.000	418.672	80.007	19.995	104.479	20.176	5.697	0.502
688.000	419.690	80.008	19.994	104.478	20.177	5.593	0.512
690.001	420.707	80.008	19.994	104.479	20.179	5.446	0.506
692.000	421.733	80.008	19.993	104.474	20.179	5.473	0.496
694.000	422.770	80.008	19.993	104.482	20.183	5.208	0.520
696.000	423.814	80.007	19.993	104.473	20.180	5.400	0.536
698.000	424.827	80.007	19.994	104.478	20.177	5.587	0.537
700.000	425.842	80.007	19.994	104.482	20.177	5.585	0.555
702.000	426.830	80.008	19.994	104.467	20.176	5.716	0.501
704.000	427.882	80.007	19.994	104.478	20.178	5.566	0.514
706.000	428.936	80.008	19.993	104.479	20.174	5.804	0.522
708.000	429.942	80.009	19.993	104.486	20.178	5.569	0.534
710.000	430.963	80.010	19.994	104.482	20.175	5.740	0.488
712.000	431.978	80.011	19.994	104.465	20.175	5.762	0.511
714.000	433.003	80.009	19.995	104.449	20.173	5.900	0.547
716.000	433.989	80.011	19.994	104.468	20.178	5.512	0.488
718.000	435.049	80.010	19.995	104.473	20.176	5.684	0.518
720.000	436.049	80.010	19.995	104.422	20.176	5.676	0.483
722.000	437.050	80.009	19.994	104.504	20.178	5.534	0.511
724.000	438.126	80.007	19.994	104.483	20.178	5.538	0.520
726.000	439.095	80.007	19.995	104.463	20.173	5.865	0.509
728.000	440.090	80.006	19.995	104.472	20.175	5.762	0.516
730.000	441.140	80.007	19.996	104.482	20.176	5.700	0.509
732.000	442.117	80.007	19.995	104.477	20.175	5.770	0.503
734.000	443.126	80.007	19.996	104.479	20.178	5.522	0.507
736.000	444.167	80.007	19.995	104.481	20.177	5.605	0.489
738.000	445.158	80.007	19.995	104.481	20.177	5.587	0.484
740.000	446.118	80.008	19.995	104.481	20.173	5.864	0.502
742.001	447.140	80.008	19.996	104.469	20.177	5.607	0.520
744.000	448.151	80.007	19.996	104.469	20.177	5.619	0.529
746.000	449.167	80.007	19.995	104.469	20.174	5.811	0.490
748.000	450.168	80.006	19.994	104.452	20.175	5.748	0.509
750.000	451.192	80.008	19.994	104.463	20.173	5.897	0.518
752.000	452.209	80.009	19.994	104.462	20.174	5.832	0.493
754.000	453.210	80.007	19.994	104.460	20.177	5.638	0.483
756.000	454.217	80.008	19.993	104.469	20.177	5.644	0.495
758.000	455.279	80.008	19.994	104.481	20.175	5.739	0.545
760.000	456.259	80.007	19.994	104.468	20.175	5.722	0.511
762.000	457.254	80.006	19.995	104.454	20.172	5.934	0.520
764.001	458.286	80.007	19.995	104.452	20.174	5.856	0.528
766.000	459.280	80.006	19.995	104.453	20.174	5.848	0.482
768.000	460.357	80.008	19.994	104.453	20.175	5.755	0.537
770.000	461.332	80.008	19.995	104.455	20.173	5.909	0.486
772.000	462.365	80.009	19.995	104.464	20.173	5.892	0.509
774.000	463.336	80.008	19.994	104.461	20.173	5.871	0.504
776.000	464.350	80.009	19.994	104.461	20.174	5.846	0.480
778.000	465.314	80.008	19.995	104.454	20.173	5.931	0.503
780.000	466.298	80.008	19.994	104.461	20.176	5.678	0.489
782.000	467.318	80.008	19.994	104.465	20.178	5.565	0.491
784.000	468.312	80.008	19.996	104.479	20.176	5.687	0.527
786.000	469.279	80.009	19.994	104.463	20.181	5.305	0.470
788.000	470.307	80.010	19.995	104.468	20.175	5.732	0.508
790.000	471.311	80.007	19.994	104.469	20.174	5.831	0.486
792.000	472.266	80.009	19.993	104.476	20.172	5.950	0.471
794.000	473.306	80.010	19.993	104.476	20.176	5.673	0.504
796.000	474.378	80.010	19.993	104.472	20.172	5.934	0.525
798.000	475.369	80.011	19.994	104.470	20.179	5.467	0.504
800.000	476.424	80.009	19.995	104.464	20.181	5.309	0.524
802.000	477.394	80.010	19.994	104.459	20.179	5.506	0.490
804.000	478.366	80.008	19.993	104.458	20.178	5.529	0.529
806.000	479.417	80.008	19.994	104.466	20.181	5.343	0.489
808.000	480.428	80.007	19.995	104.458	20.178	5.568	0.515
810.000	481.432	80.008	19.995	104.466	20.178	5.554	0.504
812.000	482.447	80.007	19.994	104.463	20.185	5.026	0.512
814.000	483.432	80.008	19.995	104.460	20.168	6.242	0.511
816.000	484.476	80.007	19.995	104.466	20.169	6.156	0.494
818.000	485.487	80.007	19.994	104.468	20.179	5.498	0.552
820.000	486.517	80.007	19.993	104.457	20.181	5.356	0.472
822.000	487.526	80.008	19.994	104.454	20.178	5.529	0.493
824.000	488.329	80.008	19.995	104.456	20.179	5.502	0.446
826.000	489.542	80.007	19.993	104.456	20.182	5.287	0.606
828.000	490.161	80.008	19.993	104.464	20.182	5.242	0.467
830.000	490.971	80.008	19.994	104.473	20.180	5.383	0.095
832.000	492.393	80.005	19.995	104.457	20.179	5.478	0.632
834.000	493.453	80.006	19.994	104.468	20.178	5.529	0.420
836.000	494.450	80.006	19.994	104.455	20.176	5.688	0.489
838.000	495.494	80.005	19.995	104.457	20.176	5.681	0.473
840.000	496.516	80.007	19.995	104.465	20.175	5.731	0.548
842.000	497.604	80.007	19.995	104.459	20.175	5.759	0.511
844.000	498.587	80.008	19.994	104.461	20.180	5.373	0.541
846.000	499.569	80.007	19.994	104.471	20.180	5.416	0.531
848.000	500.588	80.008	19.994	104.465	20.180	5.416	0.487
850.000	501.583	80.008	19.993	104.452	20.180	5.429	0.466
852.000	502.673	80.009	19.994	104.455	20.179	5.470	0.544
854.000	503.669	80.009	19.994	104.472	20.180	5.406	0.516
856.000	504.697	80.011	19.993	104.462	20.179	5.450	0.517
858.000	505.751	80.009	19.994	104.455	20.180	5.413	0.523
860.000	506.809	80.009	19.994	104.450	20.179	5.489	0.530
862.000	507.831	80.009	19.995	104.447	20.178	5.531	0.538
864.000	508.877	80.008	19.995	104.450	20.181	5.344	0.524
866.000	509.875	80.009	19.995	104.448	20.179	5.441	0.485
868.000	510.905	80.008	19.994	104.446	20.182	5.262	0.483
870.000	511.958	80.007	19.994	104.447	20.182	5.252	0.536
872.000	512.892	80.009	19.994	104.449	20.186	4.956	0.543
874.000	513.917	80.010	19.993	104.457	20.183	5.186	0.515
876.000	514.974	80.010	19.993	104.449	20.182	5.277	0.468
878.000	516.037	80.009	19.994	104.451	20.181	5.345	0.555
880.000	517.067	80.010	19.994	104.451	20.181	5.341	0.507
882.000	518.098	80.011	19.992	104.455	20.183	5.213	0.500
884.000	519.126	80.009	19.993	104.463	20.178	5.515	0.511
886.000	520.179	80.009	19.994	104.450	20.180	5.418	0.548
888.000	521.186	80.008	19.994	104.454	20.179	5.506	0.476
890.000	522.233	80.006	19.993	104.449	20.181	5.318	0.545
892.000	523.244	80.008	19.993	104.449	20.183	5.198	0.505
894.001	524.261	80.009	19.995	104.453	20.179	5.453	0.504
896.000	525.287	80.008	19.994	104.454	20.179	5.447	0.545
898.000	526.290	80.007	19.994	104.458	20.182	5.278	0.476
900.000	527.349	80.008	19.994	104.461	20.181	5.316	0.504
902.000	528.379	80.007	19.993	104.457	20.180	5.422	0.533
904.000	529.408	80.007	19.993	104.458	20.177	5.603	0.501
906.000	530.475	80.007	19.994	104.457	20.183	5.159	0.542
908.000	531.465	80.008	19.995	104.451	20.180	5.372	0.510
910.000	532.502	80.008	19.994	104.459	20.180	5.410	0.505
912.000	533.577	80.008	19.994	104.454	20.180	5.431	0.571
914.000	534.555	80.008	19.994	104.461	20.180	5.433	0.508
916.000	535.606	80.006	19.996	104.462	20.180	5.402	0.530
918.000	536.636	80.008	19.994	104.455	20.179	5.452	0.514
920.000	537.680	80.007	19.995	104.447	20.179	5.456	0.511
922.000	538.725	80.008	19.995	104.454	20.179	5.483	0.523
924.000	539.728	80.008	19.995	104.452	20.180	5.413	0.518
926.000	540.745	80.006	19.995	104.454	20.180	5.417	0.503
928.000	541.792	80.008	19.995	104.450	20.179	5.495	0.525
930.000	542.752	80.006	19.995	104.448	20.177	5.642	0.484
932.000	543.775	80.008	19.996	104.447	20.177	5.579	0.477
934.000	544.812	80.009	19.995	104.445	20.177	5.581	0.522
936.000	545.806	80.008	19.994	104.448	20.177	5.595	0.498
938.000	546.818	80.010	19.996	104.449	20.178	5.551	0.514
940.000	547.835	80.009	19.995	104.447	20.177	5.633	0.495
942.000	548.826	80.009	19.993	104.459	20.176	5.664	0.486
944.000	549.842	80.009	19.993	104.457	20.175	5.740	0.482
946.000	550.837	80.010	19.993	104.452	20.179	5.440	0.503
948.000	551.869	80.008	19.993	104.459	20.176	5.683	0.497
950.000	552.854	80.008	19.993	104.468	20.175	5.735	0.511
952.000	553.869	80.009	19.996	104.464	20.178	5.507	0.494
954.000	554.909	80.010	19.993	104.468	20.177	5.626	0.501
956.000	555.928	80.010	19.993	104.467	20.175	5.762	0.519
958.000	556.925	80.010	19.994	104.461	20.174	5.797	0.497
960.000	557.991	80.011	19.992	104.454	20.176	5.675	0.497
962.000	559.035	80.011	19.994	104.454	20.176	5.714	0.532
964.000	560.040	80.010	19.994	104.452	20.172	5.936	0.525
966.000	561.021	80.010	19.993	104.452	20.173	5.868	0.490
968.001	562.076	80.009	19.993	104.450	20.170	6.089	0.515
970.000	563.128	80.008	19.993	104.455	20.169	6.154	0.506
972.000	564.147	80.008	19.994	104.454	20.171	6.025	0.509
974.000	565.178	80.008	19.993	104.454	20.172	5.986	0.506
976.000	566.238	80.008	19.994	104.466	20.172	5.990	0.530
978.000	567.281	80.008	19.994	104.449	20.172	5.984	0.515
980.000	568.292	80.007	19.995	104.453	20.171	6.064	0.505
982.000	569.340	80.009	19.994	104.454	20.173	5.924	0.520
984.000	570.361	80.010	19.993	104.449	20.174	5.819	0.509
986.000	571.378	80.008	19.993	104.449	20.174	5.842	0.491
988.000	572.400	80.007	19.995	104.439	20.172	5.938	0.484
990.000	573.427	80.008	19.996	104.454	20.174	5.848	0.514
992.000	574.473	80.007	19.994	104.447	20.174	5.791	0.513
994.000	575.504	80.007	19.994	104.451	20.172	5.999	0.517
996.000	576.560	80.008	19.994	104.451	20.173	5.893	0.521
998.000	577.577	80.008	19.997	104.452	20.170	6.141	0.527
1000.000	578.606	80.007	19.995	104.457	20.170	6.096	0.515
1002.000	579.693	80.007	19.994	104.449	20.172	5.977	0.543
1004.000	580.745	80.007	19.994	104.452	20.172	5.975	0.545
1006.000	581.829	80.008	19.995	104.468	20.171	6.041	0.539
1008.000	582.866	80.007	19.994	104.465	20.171	6.056	0.506
1010.000	583.970	80.007	19.994	104.457	20.173	5.861	0.530
1012.000	585.047	80.008	19.994	104.464	20.171	6.039	0.559
1014.000	586.092	80.008	19.993	104.464	20.169	6.175	0.533
1016.000	587.249	80.008	19.996	104.452	20.169	6.163	0.546
1018.000	588.325	80.009	19.995	104.449	20.169	6.181	0.522
1020.000	589.419	80.009	19.994	104.449	20.168	6.253	0.560
1022.000	590.535	80.010	19.995	104.449	20.163	6.580	0.564
1024.001	591.642	80.008	19.995	104.447	20.165	6.465	0.545
1025.999	592.744	80.007	19.995	104.447	20.165	6.465	0.562
1028.000	593.853	80.008	19.995	104.449	20.169	6.152	0.559
1030.000	594.976	80.008	19.994	104.449	20.165	6.450	0.545
1032.000	596.074	80.009	19.994	104.448	20.162	6.682	0.539
1034.000	597.168	80.008	19.995	104.449	20.165	6.477	0.537
1036.000	598.249	80.011	19.993	104.451	20.166	6.360	0.542
1038.000	599.325	80.010	19.993	104.448	20.163	6.614	0.544
1040.000	600.439	80.010	19.994	104.448	20.164	6.547	0.535
1042.000	601.560	80.008	19.992	104.452	20.163	6.588	0.545
1044.000	602.618	80.011	19.993	104.451	20.164	6.551	0.547
1046.000	603.678	80.009	19.994	104.451	20.164	6.506	0.555
1048.000	604.762	80.010	19.994	104.455	20.168	6.261	0.540
1050.000	605.830	80.009	19.994	104.448	20.166	6.411	0.517
1052.001	606.921	80.010	19.995	104.447	20.166	6.424	0.521
1054.000	607.983	80.008	19.994	104.448	20.164	6.522	0.520
1055.999	609.090	80.007	19.994	104.448	20.163	6.582	0.552
1058.000	610.083	80.008	19.996	104.447	20.165	6.454	0.491
1060.000	611.197	80.007	19.995	104.447	20.168	6.235	0.523
1061.999	612.268	80.009	19.995	104.446	20.167	6.319	0.538
1064.000	613.349	80.009	19.994	104.447	20.161	6.713	0.540
1066.000	614.373	80.008	19.993	104.447	20.165	6.471	0.538
1068.000	615.417	80.008	19.994	104.449	20.163	6.618	0.534
1070.000	616.503	80.009	19.993	104.449	20.164	6.557	0.547
1072.000	617.505	80.009	19.994	104.450	20.162	6.689	0.492
1074.000	618.566	80.009	19.994	104.449	20.159	6.874	0.534
1076.000	619.621	80.009	19.993	104.449	20.162	6.699	0.537
1078.000	620.606	80.009	19.994	104.455	20.164	6.536	0.487
1080.000	621.646	80.007	19.994	104.451	20.162	6.646	0.498
1082.001	622.614	80.009	19.994	104.448	20.162	6.657	0.483
1083.999	623.662	80.008	19.995	104.448	20.161	6.758	0.522
1086.001	624.661	80.008	19.994	104.443	20.160	6.816	0.490
1088.000	625.638	80.007	19.994	104.439	20.159	6.900	0.485
1089.999	626.609	80.007	19.993	104.435	20.158	6.984	0.465
1092.001	627.592	80.008	19.994	104.436	20.157	7.042	0.479
1094.000	628.602	80.008	19.994	104.443	20.158	6.931	0.471
1096.001	629.628	80.009	19.994	104.450	20.157	7.016	0.531
1098.000	630.566	80.007	19.993	104.449	20.157	7.022	0.475
1099.999	631.590	80.010	19.994	104.451	20.153	7.299	0.515
1102.000	632.576	80.009	19.992	104.449	20.154	7.235	0.525
1104.000	633.613	80.010	19.994	104.448	20.156	7.074	0.524
1106.000	634.656	80.010	19.993	104.449	20.155	7.166	0.546
1108.001	635.721	80.008	19.994	104.446	20.153	7.291	0.564
1109.999	636.750	80.008	19.993	104.447	20.153	7.322	0.509
1112.001	637.783	80.008	19.994	104.452	20.153	7.320	0.523
1114.000	638.866	80.008	19.995	104.446	20.150	7.560	0.569
1116.000	639.872	80.009	19.995	104.437	20.152	7.363	0.523
1118.001	640.946	80.009	19.995	104.447	20.155	7.168	0.536
1120.001	641.982	80.009	19.994	104.444	20.156	7.074	0.509
1121.999	642.987	80.008	19.996	104.443	20.158	6.952	0.482
1124.000	644.044	80.010	19.996	104.443	20.153	7.303	0.487
1125.999	645.033	80.010	19.994	104.442	20.154	7.207	0.511
1127.999	646.025	80.011	19.994	104.439	20.153	7.278	0.514
1130.000	647.052	80.009	19.995	104.438	20.153	7.326	0.494
1132.000	648.016	80.010	19.995	104.438	20.153	7.285	0.476
1134.000	648.977	80.009	19.993	104.445	20.153	7.322	0.457
1136.000	649.927	80.009	19.993	104.444	20.150	7.499	0.447
1138.000	650.910	80.007	19.993	104.447	20.154	7.268	0.509
1139.999	651.875	80.008	19.994	104.450	20.150	7.525	0.500
1142.000	652.846	80.007	19.993	104.449	20.153	7.326	0.490
1144.000	653.804	80.006	19.993	104.449	20.151	7.427	0.496
1146.000	654.847	80.009	19.994	104.446	20.152	7.389	0.508
1148.000	655.868	80.008	19.995	104.444	20.152	7.348	0.511
1150.000	656.839	80.006	19.994	104.445	20.150	7.543	0.498
1152.000	657.843	80.007	19.994	104.448	20.152	7.385	0.510
1153.999	658.854	80.008	19.993	104.443	20.148	7.662	0.478
1155.999	659.870	80.009	19.993	104.449	20.151	7.484	0.514
1158.000	660.918	80.008	19.994	104.449	20.150	7.529	0.530
1160.000	661.882	80.009	19.993	104.450	20.151	7.476	0.501
1162.000	662.901	80.007	19.994	104.450	20.150	7.550	0.489
1164.000	663.950	80.008	19.994	104.450	20.147	7.714	0.524
1165.999	664.932	80.007	19.994	104.452	20.148	7.696	0.506
1168.000	665.952	80.008	19.993	104.454	20.147	7.732	0.501
1169.999	666.959	80.007	19.993	104.449	20.149	7.607	0.507
1172.000	668.028	80.007	19.994	104.445	20.149	7.562	0.486
1173.999	669.071	80.008	19.993	104.449	20.149	7.583	0.526
1176.000	670.052	80.008	19.994	104.446	20.148	7.680	0.493
1178.000	671.079	80.010	19.994	104.447	20.146	7.788	0.540
1180.000	672.076	80.009	19.994	104.448	20.144	7.967	0.501
1182.000	673.100	80.010	19.995	104.447	20.145	7.865	0.527
1184.000	674.116	80.010	19.995	104.442	20.144	7.960	0.491
1186.001	675.127	80.010	19.995	104.445	20.145	7.874	0.516
1188.000	676.145	80.010	19.995	104.441	20.144	7.945	0.497
1190.000	677.155	80.009	19.996	104.445	20.145	7.877	0.556
1192.000	678.156	80.007	19.994	104.445	20.144	7.981	0.504
1194.000	679.147	80.009	19.995	104.437	20.144	7.965	0.505
1196.000	680.104	80.008	19.995	104.442	20.144	7.957	0.494
1198.001	681.132	80.009	19.994	104.446	20.139	8.302	0.505
1200.000	682.090	80.009	19.994	104.444	20.142	8.113	0.482
1202.000	683.060	80.009	19.993	104.447	20.141	8.165	0.476
1204.000	684.048	80.009	19.993	104.447	20.139	8.288	0.488
1206.000	685.059	80.010	19.994	104.446	20.144	7.985	0.503
1208.000	686.034	80.011	19.995	104.447	20.146	7.842	0.510
1210.000	687.019	80.011	19.994	104.446	20.144	7.967	0.507
1212.000	687.961	80.011	19.994	104.442	20.143	8.049	0.480
1213.999	688.938	80.009	19.994	104.441	20.141	8.178	0.489
1215.999	689.896	80.007	19.994	104.444	20.141	8.145	0.415
1218.000	690.913	80.009	19.994	104.447	20.139	8.289	0.513
1220.000	691.858	80.008	19.995	104.447	20.144	7.930	0.461
1222.000	692.876	80.007	19.993	104.449	20.141	8.150	0.497
1223.999	693.858	80.009	19.994	104.448	20.141	8.179	0.500
1226.000	694.869	80.008	19.994	104.450	20.143	8.022	0.496
1228.000	695.889	80.008	19.994	104.448	20.136	8.484	0.506
1230.000	696.898	80.007	19.994	104.449	20.134	8.627	0.487
1232.000	697.955	80.008	19.994	104.449	20.137	8.450	0.480
1234.000	698.953	80.008	19.994	104.448	20.133	8.693	0.526
1236.000	700.014	80.009	19.994	104.445	20.132	8.812	0.500
1237.999	701.072	80.008	19.995	104.454	20.134	8.684	0.550
1240.000	702.083	80.008	19.994	104.446	20.133	8.754	0.479
1242.000	703.129	80.008	19.995	104.448	20.132	8.776	0.491
1244.001	704.146	80.008	19.994	104.450	20.135	8.567	0.515
1246.000	705.168	80.008	19.994	104.439	20.134	8.662	0.520
1247.999	706.203	80.007	19.995	104.448	20.136	8.493	0.512
1250.000	707.280	80.009	19.995	104.449	20.134	8.682	0.524
1252.000	708.279	80.006	19.994	104.447	20.135	8.571	0.475
1254.000	709.346	80.008	19.995	104.449	20.134	8.674	0.549
1256.000	710.423	80.009	19.994	104.447	20.129	9.017	0.528
1258.000	711.466	80.010	19.994	104.447	20.132	8.777	0.512
1260.000	712.548	80.009	19.994	104.442	20.132	8.834	0.526
1262.000	713.627	80.011	19.993	104.446	20.129	9.025	0.566
1264.000	714.706	80.012	19.994	104.447	20.131	8.869	0.540
1266.000	715.776	80.010	19.993	104.448	20.129	8.982	0.542
1268.000	716.845	80.010	19.993	104.448	20.129	8.996	0.536
1270.000	717.823	80.010	19.994	104.445	20.129	9.017	0.506
1272.000	718.906	80.009	19.993	104.447	20.126	9.224	0.531
1274.000	719.897	80.009	19.994	104.446	20.127	9.130	0.491
1276.000	720.935	80.009	19.993	104.443	20.130	8.935	0.536
1278.000	721.948	80.008	19.994	104.447	20.129	8.997	0.500
1280.001	722.960	80.009	19.994	104.448	20.130	8.923	0.512
1282.000	723.974	80.010	19.994	104.447	20.130	8.968	0.511
1284.000	724.965	80.009	19.994	104.448	20.126	9.216	0.478
1286.000	725.964	80.010	19.993	104.450	20.126	9.255	0.495
1288.000	726.976	80.011	19.993	104.446	20.129	9.011	0.483
1290.000	728.045	80.011	19.994	104.445	20.125	9.274	0.525
1292.000	729.068	80.011	19.995	104.443	20.124	9.371	0.532
1294.000	730.101	80.011	19.994	104.448	20.122	9.529	0.525
1296.000	731.118	80.009	19.994	104.447	20.124	9.394	0.527
1298.000	732.160	80.009	19.994	104.444	20.126	9.217	0.542
1300.000	733.240	80.008	19.994	104.440	20.126	9.252	0.541
1302.000	734.235	80.008	19.995	104.445	20.127	9.147	0.499
1304.000	735.275	80.007	19.994	104.444	20.126	9.227	0.513
1306.000	736.359	80.009	19.995	104.446	20.126	9.223	0.567
1308.000	737.381	80.007	19.994	104.442	20.125	9.300	0.522
1310.000	738.457	80.007	19.995	104.440	20.124	9.387	0.537
1312.000	739.507	80.008	19.995	104.441	20.120	9.642	0.548
1314.000	740.547	80.008	19.994	104.440	20.121	9.558	0.526
1315.999	741.599	80.008	19.994	104.446	20.117	9.863	0.516
1318.000	742.695	80.009	19.994	104.435	20.120	9.631	0.516
1319.500	743.444	80.009	19.994	104.436	20.121	9.593	0.500