File: 01_Data/Hemp_Sheets/MCC/Hemp_Sheets_MCC_30K_min_220112_R3.txt
Sample ID:	C:\MCC\MCC Cal\Test\Hemp_Sheets_MCC_30K_min_220112_R3.txt
Sample Weight (mg):	4.89
Heating Rate (C/s):	0.5
Combustor Temp (C):	900
N2 Flow Rate (cc/min):	80
O2 Flow Rate (cc/min):	20
Calibration File:	C:\MCC\MCC Cal\Coeff1 JN10440_30_210304.txt.txt
T Correction Coefficients:	0	1.024463	0
Time Shift (s):	14
*
Time (s)	Temperature (C)	N2 flow rate (cc/min)	O2 flow rate (cc/min)	Flow Rate (cc/min)	Oxygen (%)	HRR (W/g)	Heating rate (C/s)
-0.001	110.814	80.006	19.995	104.290	20.222	-0.135	-0.009
2.000	110.751	80.008	19.994	104.289	20.221	-0.053	-0.007
4.000	110.797	80.008	19.995	104.290	20.224	-0.284	0.022
6.000	110.797	80.008	19.994	104.292	20.219	0.055	0.006
8.001	110.769	80.010	19.994	104.295	20.218	0.097	-0.008
10.001	110.807	80.009	19.995	104.326	20.221	-0.059	0.024
12.000	110.858	80.010	19.994	104.339	20.217	0.181	0.051
14.000	110.844	80.011	19.994	104.352	20.211	0.599	0.033
16.000	110.862	80.011	19.993	104.365	20.213	0.438	-0.010
18.000	110.946	80.010	19.994	104.367	20.213	0.484	0.027
20.000	111.024	80.009	19.993	104.377	20.202	1.184	0.042
22.000	111.148	80.007	19.995	104.421	20.203	1.098	0.079
24.001	111.306	80.008	19.995	104.444	20.201	1.281	0.074
26.000	111.462	80.006	19.994	104.446	20.196	1.591	0.089
28.000	111.622	80.007	19.996	104.466	20.196	1.557	0.080
30.001	111.844	80.008	19.994	104.480	20.195	1.685	0.111
32.000	112.073	80.008	19.996	104.475	20.193	1.756	0.129
34.000	112.297	80.008	19.995	104.485	20.191	1.911	0.125
36.000	112.599	80.008	19.994	104.500	20.185	2.292	0.141
38.000	112.927	80.009	19.994	104.497	20.187	2.175	0.165
40.001	113.279	80.007	19.995	104.506	20.188	2.118	0.184
42.000	113.654	80.008	19.993	104.514	20.189	2.039	0.173
44.000	114.072	80.008	19.994	104.508	20.182	2.541	0.189
46.001	114.505	80.009	19.994	104.527	20.185	2.329	0.217
48.000	114.945	80.007	19.994	104.525	20.185	2.323	0.256
50.001	115.394	80.007	19.993	104.525	20.188	2.122	0.257
52.000	115.847	80.007	19.994	104.504	20.187	2.208	0.231
54.000	116.390	80.007	19.993	104.493	20.185	2.336	0.271
56.000	116.900	80.008	19.994	104.505	20.186	2.259	0.285
58.000	117.417	80.007	19.994	104.502	20.182	2.510	0.284
60.000	117.947	80.006	19.994	104.510	20.186	2.267	0.269
62.001	118.502	80.009	19.993	104.519	20.185	2.326	0.295
64.001	119.074	80.007	19.993	104.524	20.185	2.294	0.271
66.001	119.621	80.009	19.993	104.523	20.184	2.415	0.276
68.000	120.227	80.010	19.993	104.523	20.182	2.556	0.270
70.001	120.867	80.009	19.993	104.526	20.182	2.514	0.318
72.001	121.453	80.009	19.993	104.538	20.178	2.804	0.311
74.001	122.118	80.009	19.993	104.537	20.181	2.582	0.300
76.000	122.813	80.011	19.993	104.527	20.180	2.665	0.362
78.001	123.449	80.008	19.994	104.522	20.179	2.738	0.331
80.001	124.134	80.009	19.994	104.526	20.182	2.549	0.316
82.001	124.781	80.010	19.993	104.519	20.178	2.760	0.290
84.001	125.510	80.008	19.994	104.533	20.179	2.712	0.354
86.000	126.199	80.007	19.992	104.527	20.181	2.619	0.340
88.000	126.921	80.009	19.996	104.535	20.181	2.592	0.365
90.000	127.691	80.009	19.993	104.527	20.184	2.368	0.377
92.000	128.396	80.011	19.993	104.532	20.183	2.430	0.399
94.001	129.131	80.011	19.993	104.534	20.186	2.271	0.325
96.001	129.906	80.009	19.994	104.537	20.181	2.579	0.359
98.000	130.730	80.009	19.994	104.542	20.184	2.392	0.402
100.000	131.474	80.008	19.995	104.543	20.180	2.685	0.367
102.000	132.328	80.007	19.993	104.550	20.181	2.573	0.386
104.001	133.131	80.007	19.994	104.541	20.180	2.678	0.401
106.000	133.957	80.008	19.993	104.547	20.180	2.628	0.397
108.000	134.810	80.007	19.994	104.548	20.181	2.577	0.405
110.001	135.579	80.008	19.992	104.563	20.181	2.608	0.389
112.001	136.455	80.007	19.994	104.549	20.181	2.596	0.409
114.000	137.309	80.007	19.994	104.547	20.180	2.660	0.392
116.001	138.206	80.007	19.995	104.553	20.179	2.727	0.420
118.000	139.083	80.007	19.994	104.550	20.176	2.904	0.448
120.001	139.928	80.005	19.994	104.541	20.180	2.629	0.454
122.000	140.827	80.008	19.994	104.550	20.179	2.726	0.417
124.001	141.742	80.007	19.995	104.556	20.181	2.592	0.428
126.001	142.641	80.008	19.994	104.553	20.180	2.682	0.427
128.000	143.568	80.008	19.996	104.550	20.179	2.705	0.477
130.001	144.477	80.007	19.994	104.564	20.181	2.575	0.447
132.001	145.399	80.005	19.994	104.557	20.179	2.706	0.453
134.000	146.315	80.009	19.993	104.551	20.181	2.577	0.449
136.001	147.216	80.008	19.994	104.554	20.179	2.704	0.429
138.001	148.176	80.006	19.994	104.547	20.181	2.573	0.459
140.000	149.181	80.006	19.993	104.549	20.182	2.533	0.523
142.000	150.157	80.009	19.993	104.558	20.184	2.423	0.475
144.001	151.097	80.008	19.993	104.557	20.176	2.940	0.447
146.000	152.015	80.007	19.992	104.552	20.178	2.770	0.482
148.000	153.002	80.010	19.992	104.548	20.183	2.454	0.476
150.000	153.975	80.011	19.995	104.541	20.184	2.380	0.486
152.000	154.967	80.010	19.994	104.546	20.184	2.358	0.489
154.000	155.926	80.009	19.995	104.543	20.184	2.377	0.472
156.000	156.952	80.009	19.995	104.546	20.182	2.520	0.525
158.000	157.873	80.008	19.994	104.554	20.183	2.481	0.467
160.000	158.836	80.008	19.994	104.540	20.181	2.558	0.471
162.000	159.861	80.009	19.993	104.531	20.181	2.613	0.498
164.001	160.870	80.008	19.994	104.537	20.182	2.494	0.490
166.001	161.840	80.008	19.994	104.545	20.184	2.379	0.499
168.000	162.855	80.009	19.993	104.529	20.187	2.177	0.491
170.000	163.834	80.010	19.994	104.529	20.182	2.542	0.505
172.000	164.847	80.008	19.994	104.530	20.184	2.404	0.522
174.001	165.869	80.009	19.994	104.530	20.184	2.369	0.510
176.001	166.841	80.009	19.994	104.528	20.180	2.681	0.498
178.000	167.839	80.009	19.994	104.527	20.184	2.400	0.485
180.000	168.822	80.007	19.994	104.527	20.183	2.453	0.483
182.000	169.859	80.007	19.993	104.528	20.181	2.622	0.515
184.000	170.871	80.007	19.995	104.527	20.182	2.536	0.525
186.001	171.844	80.007	19.994	104.528	20.182	2.521	0.512
188.001	172.833	80.007	19.995	104.521	20.184	2.415	0.516
190.000	173.822	80.008	19.994	104.517	20.183	2.446	0.493
192.000	174.838	80.008	19.995	104.519	20.184	2.408	0.487
194.000	175.818	80.007	19.994	104.521	20.182	2.490	0.461
196.000	176.803	80.007	19.995	104.520	20.185	2.312	0.518
198.000	177.800	80.009	19.995	104.514	20.183	2.450	0.478
200.001	178.814	80.008	19.994	104.515	20.184	2.361	0.532
202.000	179.821	80.007	19.995	104.521	20.181	2.567	0.526
204.000	180.798	80.008	19.994	104.511	20.183	2.479	0.501
206.000	181.835	80.006	19.993	104.519	20.183	2.435	0.517
208.000	182.801	80.007	19.997	104.520	20.184	2.361	0.502
210.000	183.819	80.008	19.996	104.503	20.183	2.484	0.505
212.000	184.789	80.007	19.996	104.504	20.185	2.336	0.499
214.001	185.795	80.007	19.996	104.502	20.183	2.442	0.487
216.000	186.800	80.007	19.995	104.503	20.184	2.413	0.520
218.001	187.775	80.007	19.995	104.500	20.182	2.543	0.473
220.000	188.742	80.008	19.994	104.500	20.185	2.290	0.493
222.001	189.748	80.007	19.994	104.502	20.184	2.402	0.479
224.001	190.741	80.008	19.994	104.500	20.184	2.403	0.515
226.000	191.727	80.008	19.994	104.502	20.181	2.589	0.489
228.001	192.704	80.010	19.993	104.514	20.184	2.383	0.500
230.000	193.695	80.009	19.994	104.519	20.185	2.295	0.475
232.000	194.665	80.009	19.992	104.500	20.182	2.554	0.488
234.000	195.612	80.009	19.993	104.493	20.183	2.462	0.453
236.001	196.596	80.009	19.994	104.493	20.182	2.543	0.468
238.000	197.592	80.008	19.993	104.498	20.181	2.618	0.486
240.000	198.570	80.008	19.992	104.498	20.182	2.532	0.491
242.000	199.524	80.007	19.994	104.502	20.180	2.667	0.483
244.000	200.518	80.007	19.993	104.493	20.182	2.524	0.457
246.001	201.475	80.009	19.995	104.505	20.180	2.688	0.474
248.001	202.459	80.009	19.995	104.495	20.182	2.508	0.495
250.001	203.408	80.009	19.994	104.491	20.182	2.508	0.468
252.001	204.413	80.011	19.994	104.491	20.183	2.473	0.509
254.000	205.378	80.011	19.994	104.491	20.182	2.539	0.494
256.000	206.350	80.011	19.993	104.492	20.183	2.431	0.477
258.000	207.372	80.010	19.994	104.492	20.186	2.246	0.510
260.000	208.347	80.010	19.993	104.488	20.179	2.693	0.482
262.001	209.314	80.008	19.993	104.487	20.181	2.607	0.478
264.000	210.347	80.008	19.994	104.488	20.181	2.576	0.507
266.000	211.329	80.006	19.993	104.494	20.177	2.858	0.512
268.000	212.287	80.007	19.995	104.492	20.179	2.713	0.473
270.000	213.291	80.008	19.995	104.488	20.181	2.609	0.478
272.000	214.271	80.008	19.994	104.493	20.180	2.643	0.501
274.000	215.265	80.006	19.995	104.488	20.182	2.535	0.477
276.002	216.197	80.008	19.995	104.488	20.183	2.436	0.474
278.000	217.234	80.008	19.997	104.488	20.183	2.424	0.498
280.001	218.212	80.007	19.994	104.498	20.182	2.537	0.503
282.000	219.163	80.007	19.993	104.491	20.179	2.711	0.490
284.000	220.222	80.006	19.994	104.495	20.181	2.574	0.498
286.000	221.230	80.007	19.995	104.491	20.181	2.579	0.538
288.000	222.246	80.007	19.995	104.495	20.180	2.667	0.512
290.001	223.252	80.007	19.995	104.494	20.177	2.865	0.526
292.001	224.188	80.008	19.994	104.491	20.181	2.583	0.495
294.000	225.285	80.007	19.995	104.493	20.180	2.684	0.534
296.000	226.227	80.006	19.994	104.489	20.180	2.673	0.486
298.001	227.268	80.007	19.995	104.492	20.179	2.706	0.520
300.001	228.310	80.006	19.994	104.496	20.178	2.770	0.523
302.000	229.372	80.007	19.995	104.490	20.179	2.726	0.541
304.001	230.367	80.007	19.996	104.489	20.176	2.911	0.533
306.000	231.395	80.008	19.995	104.487	20.177	2.863	0.491
308.001	232.384	80.007	19.994	104.488	20.178	2.808	0.504
310.000	233.428	80.008	19.994	104.489	20.176	2.891	0.515
312.000	234.465	80.007	19.995	104.488	20.176	2.895	0.495
314.001	235.470	80.009	19.995	104.486	20.173	3.129	0.499
316.000	236.482	80.008	19.995	104.486	20.177	2.885	0.501
318.001	237.543	80.009	19.995	104.483	20.175	2.986	0.513
320.001	238.515	80.007	19.995	104.486	20.171	3.245	0.467
322.001	239.500	80.008	19.994	104.487	20.173	3.127	0.487
324.000	240.501	80.010	19.994	104.486	20.175	3.019	0.510
326.001	241.539	80.008	19.993	104.485	20.172	3.202	0.488
328.001	242.530	80.008	19.993	104.484	20.175	2.984	0.504
330.000	243.548	80.011	19.995	104.486	20.170	3.318	0.513
332.001	244.557	80.010	19.993	104.481	20.173	3.114	0.511
334.000	245.595	80.010	19.994	104.485	20.168	3.466	0.551
336.000	246.606	80.010	19.995	104.486	20.170	3.351	0.516
338.000	247.605	80.010	19.993	104.485	20.169	3.406	0.526
340.001	248.620	80.009	19.996	104.485	20.168	3.474	0.517
342.000	249.670	80.009	19.994	104.485	20.167	3.538	0.557
344.001	250.678	80.008	19.994	104.484	20.165	3.628	0.494
346.000	251.696	80.008	19.994	104.486	20.171	3.287	0.546
348.000	252.725	80.009	19.994	104.487	20.165	3.681	0.504
350.001	253.720	80.007	19.994	104.484	20.165	3.657	0.492
352.000	254.724	80.009	19.996	104.486	20.165	3.652	0.506
354.000	255.715	80.007	19.994	104.487	20.163	3.778	0.495
356.001	256.768	80.006	19.994	104.491	20.163	3.818	0.512
358.000	257.773	80.007	19.994	104.482	20.165	3.641	0.507
360.001	258.757	80.008	19.993	104.488	20.164	3.705	0.514
362.001	259.810	80.006	19.995	104.487	20.163	3.776	0.497
364.001	260.788	80.006	19.995	104.487	20.166	3.584	0.504
366.000	261.809	80.006	19.994	104.489	20.162	3.851	0.507
368.001	262.744	80.006	19.996	104.490	20.160	3.976	0.488
370.000	263.790	80.006	19.994	104.491	20.157	4.170	0.510
372.001	264.773	80.007	19.993	104.488	20.157	4.178	0.520
374.001	265.767	80.006	19.995	104.488	20.158	4.115	0.495
376.001	266.767	80.008	19.993	104.487	20.153	4.462	0.491
378.000	267.781	80.009	19.994	104.487	20.152	4.497	0.515
380.000	268.743	80.008	19.993	104.486	20.154	4.385	0.463
382.000	269.789	80.008	19.994	104.487	20.150	4.663	0.528
384.000	270.791	80.009	19.995	104.486	20.150	4.660	0.525
386.001	271.802	80.008	19.993	104.487	20.151	4.621	0.514
388.001	272.785	80.009	19.994	104.486	20.141	5.248	0.502
390.000	273.801	80.009	19.996	104.483	20.145	5.010	0.489
392.000	274.779	80.010	19.995	104.485	20.140	5.309	0.504
394.000	275.815	80.008	19.996	104.484	20.136	5.564	0.516
396.000	276.776	80.007	19.995	104.484	20.138	5.488	0.478
398.000	277.776	80.007	19.996	104.486	20.134	5.710	0.524
400.000	278.763	80.007	19.995	104.484	20.129	6.061	0.508
402.000	279.769	80.008	19.995	104.483	20.131	5.908	0.505
404.001	280.744	80.009	19.993	104.489	20.129	6.053	0.519
406.001	281.708	80.010	19.993	104.493	20.127	6.173	0.478
408.000	282.735	80.010	19.994	104.487	20.123	6.435	0.508
410.001	283.744	80.010	19.994	104.491	20.121	6.582	0.490
412.000	284.792	80.010	19.994	104.495	20.119	6.744	0.519
414.000	285.779	80.009	19.994	104.489	20.116	6.921	0.548
416.001	286.771	80.009	19.993	104.500	20.114	7.090	0.498
418.000	287.801	80.008	19.994	104.500	20.112	7.207	0.503
420.001	288.774	80.011	19.994	104.503	20.111	7.253	0.500
422.000	289.817	80.007	19.994	104.498	20.105	7.668	0.517
424.000	290.854	80.008	19.994	104.494	20.100	7.973	0.530
426.001	291.857	80.008	19.993	104.510	20.099	8.089	0.502
428.001	292.887	80.007	19.996	104.512	20.098	8.158	0.529
430.001	293.923	80.008	19.995	104.504	20.093	8.475	0.524
432.000	294.972	80.008	19.995	104.512	20.089	8.756	0.540
434.000	295.939	80.007	19.995	104.515	20.087	8.884	0.512
436.000	297.010	80.008	19.995	104.524	20.082	9.178	0.523
438.000	298.032	80.006	19.994	104.525	20.076	9.563	0.526
440.000	299.030	80.010	19.993	104.516	20.073	9.816	0.548
442.000	300.011	80.008	19.995	104.519	20.064	10.368	0.515
444.000	301.093	80.008	19.994	104.516	20.060	10.642	0.493
446.000	302.054	80.007	19.994	104.515	20.056	10.946	0.512
448.001	303.106	80.008	19.996	104.522	20.053	11.124	0.531
450.000	304.087	80.009	19.994	104.524	20.045	11.684	0.497
452.001	305.091	80.008	19.995	104.525	20.038	12.108	0.501
454.000	306.111	80.005	19.995	104.526	20.030	12.645	0.531
456.001	307.113	80.008	19.994	104.526	20.023	13.146	0.483
458.001	308.106	80.007	19.996	104.531	20.018	13.486	0.480
460.000	309.105	80.008	19.994	104.527	20.010	14.029	0.496
462.000	310.132	80.007	19.995	104.529	20.004	14.382	0.508
464.000	311.111	80.009	19.995	104.532	19.997	14.843	0.487
466.000	312.121	80.009	19.995	104.533	19.987	15.515	0.502
468.000	313.167	80.009	19.995	104.542	19.979	16.088	0.528
470.000	314.171	80.008	19.995	104.553	19.970	16.673	0.486
472.000	315.145	80.009	19.993	104.561	19.962	17.172	0.502
474.000	316.205	80.009	19.994	104.564	19.952	17.844	0.497
476.000	317.190	80.009	19.994	104.565	19.939	18.742	0.510
478.000	318.208	80.006	19.995	104.572	19.928	19.484	0.526
480.000	319.222	80.006	19.995	104.572	19.917	20.238	0.493
482.001	320.230	80.008	19.995	104.575	19.906	20.941	0.492
484.000	321.228	80.007	19.996	104.592	19.896	21.636	0.508
486.001	322.288	80.007	19.994	104.597	19.881	22.591	0.515
488.000	323.267	80.007	19.996	104.602	19.871	23.262	0.512
490.000	324.315	80.007	19.995	104.607	19.854	24.406	0.506
492.000	325.268	80.009	19.995	104.610	19.840	25.382	0.476
494.000	326.332	80.010	19.994	104.614	19.820	26.723	0.536
496.000	327.327	80.009	19.995	104.628	19.805	27.712	0.503
498.000	328.331	80.009	19.993	104.643	19.786	28.989	0.505
500.000	329.415	80.008	19.993	104.642	19.765	30.353	0.524
502.000	330.371	80.009	19.994	104.645	19.752	31.245	0.519
504.000	331.333	80.007	19.994	104.650	19.728	32.851	0.501
506.001	332.353	80.007	19.993	104.667	19.704	34.446	0.488
508.000	333.366	80.006	19.995	104.680	19.686	35.676	0.503
510.000	334.408	80.008	19.994	104.680	19.660	37.424	0.501
512.000	335.399	80.008	19.994	104.682	19.631	39.341	0.512
514.000	336.393	80.008	19.994	104.690	19.604	41.140	0.481
516.000	337.427	80.008	19.995	104.714	19.577	42.959	0.532
518.000	338.418	80.008	19.994	104.720	19.550	44.774	0.528
520.000	339.414	80.009	19.994	104.745	19.524	46.567	0.505
522.000	340.446	80.010	19.994	104.751	19.487	49.008	0.508
524.000	341.414	80.008	19.994	104.765	19.457	51.064	0.474
526.000	342.422	80.007	19.995	104.781	19.420	53.539	0.482
528.000	343.400	80.008	19.995	104.798	19.382	56.107	0.490
530.000	344.413	80.007	19.994	104.811	19.341	58.848	0.499
532.000	345.457	80.008	19.993	104.833	19.304	61.300	0.541
534.000	346.462	80.009	19.995	104.850	19.256	64.540	0.504
536.000	347.459	80.007	19.994	104.876	19.215	67.284	0.496
538.000	348.471	80.006	19.995	104.886	19.168	70.473	0.486
540.000	349.509	80.008	19.995	104.901	19.121	73.615	0.524
542.000	350.542	80.008	19.994	104.915	19.073	76.848	0.526
544.000	351.531	80.008	19.994	104.939	19.021	80.357	0.506
546.000	352.540	80.006	19.995	104.957	18.970	83.758	0.502
548.000	353.552	80.009	19.994	104.975	18.917	87.325	0.491
550.000	354.608	80.008	19.994	104.997	18.864	90.926	0.517
552.000	355.581	80.010	19.994	105.020	18.804	94.949	0.530
554.000	356.592	80.008	19.994	105.033	18.750	98.590	0.541
556.000	357.630	80.007	19.994	105.049	18.691	102.568	0.524
558.000	358.631	80.007	19.994	105.069	18.634	106.428	0.542
560.000	359.593	80.008	19.994	105.080	18.578	110.166	0.504
562.000	360.604	80.008	19.994	105.104	18.523	113.890	0.493
564.000	361.615	80.008	19.994	105.115	18.471	117.350	0.507
566.000	362.567	80.008	19.994	105.136	18.418	120.907	0.505
568.000	363.553	80.008	19.994	105.150	18.365	124.502	0.498
570.000	364.552	80.008	19.993	105.153	18.320	127.508	0.490
572.000	365.539	80.009	19.995	105.162	18.275	130.522	0.471
574.000	366.529	80.009	19.995	105.170	18.234	133.250	0.485
576.000	367.604	80.010	19.995	105.183	18.195	135.852	0.508
578.000	368.561	80.009	19.995	105.187	18.167	137.706	0.504
580.000	369.576	80.009	19.994	105.187	18.142	139.400	0.504
582.000	370.547	80.009	19.995	105.183	18.127	140.363	0.507
584.000	371.579	80.007	19.996	105.179	18.117	141.017	0.507
586.000	372.582	80.007	19.994	105.178	18.117	140.956	0.511
588.000	373.657	80.007	19.995	105.168	18.126	140.340	0.502
590.000	374.663	80.007	19.994	105.155	18.143	139.150	0.501
592.000	375.659	80.008	19.995	105.138	18.174	137.057	0.509
594.000	376.684	80.008	19.994	105.114	18.211	134.544	0.498
596.000	377.745	80.008	19.995	105.087	18.261	131.137	0.539
598.000	378.757	80.008	19.994	105.074	18.320	127.153	0.500
600.000	379.794	80.008	19.993	105.055	18.392	122.271	0.500
602.000	380.820	80.007	19.993	105.019	18.472	116.868	0.546
604.000	381.873	80.007	19.994	104.991	18.565	110.606	0.524
606.000	382.929	80.008	19.994	104.958	18.666	103.876	0.540
608.000	383.908	80.006	19.995	104.926	18.776	96.530	0.485
610.000	384.960	80.006	19.995	104.884	18.888	88.975	0.516
612.000	385.983	80.007	19.994	104.846	19.004	81.229	0.499
614.000	387.018	80.006	19.994	104.808	19.120	73.458	0.518
616.000	388.068	80.007	19.994	104.769	19.237	65.650	0.498
618.000	389.087	80.006	19.995	104.761	19.351	58.048	0.516
620.000	390.110	80.007	19.993	104.739	19.460	50.753	0.524
622.000	391.114	80.008	19.994	104.720	19.560	44.061	0.520
624.000	392.192	80.006	19.994	104.709	19.659	37.477	0.498
626.000	393.262	80.006	19.993	104.704	19.744	31.797	0.536
628.000	394.308	80.009	19.995	104.702	19.821	26.648	0.553
630.000	395.367	80.009	19.994	104.700	19.888	22.177	0.541
632.000	396.394	80.010	19.994	104.689	19.944	18.444	0.510
634.000	397.422	80.009	19.994	104.686	19.992	15.250	0.494
636.000	398.444	80.008	19.993	104.681	20.035	12.376	0.518
638.000	399.563	80.008	19.994	104.681	20.067	10.216	0.538
640.000	400.595	80.008	19.995	104.678	20.092	8.516	0.530
642.000	401.581	80.006	19.994	104.676	20.109	7.414	0.491
644.001	402.638	80.008	19.994	104.680	20.129	6.097	0.519
646.000	403.625	80.006	19.995	104.682	20.140	5.337	0.513
648.000	404.636	80.010	19.996	104.681	20.150	4.670	0.507
650.000	405.676	80.010	19.995	104.680	20.155	4.351	0.526
652.000	406.694	80.010	19.993	104.680	20.159	4.086	0.529
654.000	407.676	80.010	19.994	104.675	20.164	3.754	0.505
656.000	408.723	80.009	19.994	104.679	20.164	3.710	0.503
658.000	409.715	80.009	19.995	104.679	20.168	3.467	0.502
660.000	410.737	80.009	19.995	104.676	20.173	3.137	0.492
662.000	411.749	80.009	19.993	104.679	20.170	3.355	0.511
664.000	412.774	80.006	19.995	104.678	20.172	3.223	0.514
666.000	413.766	80.006	19.995	104.681	20.175	3.023	0.518
668.000	414.757	80.007	19.995	104.677	20.173	3.137	0.497
670.001	415.746	80.006	19.994	104.682	20.172	3.170	0.517
672.000	416.721	80.007	19.996	104.683	20.174	3.045	0.489
674.000	417.725	80.006	19.995	104.683	20.177	2.885	0.475
676.000	418.786	80.006	19.996	104.683	20.173	3.098	0.501
678.000	419.761	80.007	19.996	104.686	20.173	3.126	0.516
680.000	420.775	80.007	19.993	104.684	20.177	2.887	0.484
682.001	421.765	80.007	19.994	104.685	20.175	3.001	0.499
684.000	422.743	80.008	19.994	104.687	20.175	3.021	0.492
686.000	423.750	80.006	19.993	104.684	20.178	2.805	0.486
688.000	424.754	80.007	19.995	104.682	20.180	2.680	0.505
690.000	425.763	80.008	19.993	104.684	20.178	2.808	0.512
692.000	426.779	80.007	19.994	104.688	20.177	2.836	0.506
694.000	427.782	80.006	19.993	104.688	20.177	2.884	0.507
696.000	428.771	80.007	19.993	104.689	20.177	2.865	0.478
698.000	429.798	80.006	19.995	104.687	20.178	2.810	0.512
700.000	430.836	80.007	19.995	104.686	20.178	2.771	0.511
702.001	431.865	80.007	19.994	104.683	20.178	2.790	0.512
704.000	432.856	80.008	19.994	104.696	20.180	2.646	0.506
706.000	433.906	80.007	19.994	104.688	20.178	2.766	0.513
708.000	434.943	80.007	19.995	104.681	20.179	2.696	0.497
710.000	435.992	80.008	19.995	104.678	20.180	2.628	0.546
712.000	436.999	80.009	19.993	104.680	20.179	2.711	0.508
714.000	437.979	80.010	19.994	104.680	20.183	2.483	0.511
716.000	439.009	80.008	19.992	104.679	20.181	2.593	0.499
718.000	440.034	80.009	19.993	104.681	20.180	2.661	0.523
720.000	440.986	80.009	19.993	104.677	20.178	2.812	0.474
722.000	442.016	80.008	19.994	104.678	20.182	2.547	0.493
724.000	443.024	80.009	19.995	104.679	20.182	2.542	0.493
726.000	444.033	80.008	19.993	104.681	20.183	2.463	0.505
728.000	445.077	80.009	19.994	104.681	20.185	2.356	0.514
730.000	446.057	80.009	19.995	104.681	20.181	2.571	0.511
732.000	447.036	80.010	19.994	104.678	20.185	2.318	0.474
734.000	448.049	80.009	19.994	104.682	20.182	2.516	0.488
736.000	449.046	80.009	19.994	104.680	20.184	2.375	0.509
738.000	450.088	80.009	19.994	104.680	20.185	2.294	0.502
740.000	451.064	80.008	19.994	104.680	20.187	2.186	0.494
742.000	452.054	80.008	19.994	104.680	20.184	2.409	0.500
744.001	453.044	80.006	19.995	104.680	20.186	2.250	0.485
746.000	454.055	80.006	19.992	104.673	20.189	2.066	0.479
748.000	455.072	80.006	19.995	104.682	20.188	2.134	0.532
750.000	456.090	80.006	19.994	104.683	20.190	2.020	0.529
752.000	457.110	80.006	19.994	104.683	20.189	2.048	0.525
754.000	458.119	80.006	19.995	104.675	20.187	2.191	0.505
756.000	459.128	80.007	19.994	104.685	20.187	2.209	0.503
758.000	460.146	80.006	19.994	104.673	20.189	2.035	0.514
760.000	461.172	80.008	19.994	104.674	20.184	2.406	0.497
762.000	462.188	80.007	19.995	104.675	20.188	2.093	0.526
764.000	463.178	80.008	19.994	104.667	20.185	2.305	0.488
766.000	464.187	80.006	19.994	104.671	20.187	2.213	0.526
768.000	465.187	80.007	19.995	104.677	20.191	1.910	0.510
770.000	466.165	80.009	19.996	104.675	20.190	1.971	0.488
772.000	467.203	80.009	19.995	104.676	20.189	2.090	0.517
774.000	468.218	80.007	19.995	104.670	20.190	1.996	0.474
776.000	469.232	80.006	19.994	104.678	20.192	1.890	0.507
778.000	470.277	80.006	19.995	104.674	20.194	1.745	0.532
780.000	471.307	80.007	19.995	104.677	20.191	1.935	0.535
782.000	472.317	80.007	19.994	104.677	20.189	2.033	0.509
784.000	473.393	80.007	19.995	104.675	20.189	2.064	0.534
786.000	474.447	80.008	19.994	104.672	20.188	2.160	0.531
788.000	475.503	80.009	19.994	104.675	20.190	1.970	0.532
790.000	476.542	80.008	19.994	104.672	20.190	2.016	0.534
792.000	477.565	80.010	19.994	104.670	20.194	1.737	0.505
794.000	478.581	80.009	19.994	104.669	20.193	1.796	0.508
796.000	479.624	80.008	19.994	104.670	20.192	1.829	0.519
798.000	480.617	80.009	19.994	104.675	20.192	1.855	0.500
800.001	481.688	80.007	19.994	104.668	20.195	1.680	0.541
802.000	482.720	80.008	19.993	104.673	20.192	1.847	0.545
804.000	483.783	80.008	19.994	104.672	20.195	1.636	0.528
806.000	484.792	80.008	19.993	104.667	20.193	1.801	0.511
808.001	485.836	80.009	19.994	104.672	20.192	1.838	0.538
810.000	486.888	80.010	19.995	104.675	20.194	1.750	0.520
812.000	487.884	80.009	19.994	104.674	20.200	1.309	0.508
814.000	488.929	80.010	19.993	104.662	20.198	1.463	0.526
816.000	489.991	80.010	19.994	104.668	20.199	1.403	0.510
818.000	490.989	80.011	19.992	104.663	20.197	1.539	0.498
820.000	492.016	80.008	19.993	104.669	20.197	1.497	0.528
822.000	493.032	80.009	19.994	104.674	20.201	1.280	0.517
824.000	494.081	80.007	19.994	104.666	20.199	1.379	0.524
826.000	495.129	80.009	19.994	104.655	20.199	1.377	0.533
828.000	496.143	80.008	19.994	104.659	20.200	1.298	0.513
830.000	497.172	80.007	19.994	104.651	20.199	1.366	0.543
832.000	498.191	80.007	19.996	104.671	20.201	1.269	0.538
834.000	499.204	80.009	19.993	104.666	20.201	1.272	0.514
836.000	500.235	80.009	19.993	104.660	20.200	1.346	0.535
838.000	501.200	80.007	19.994	104.666	20.201	1.271	0.494
840.000	502.239	80.007	19.994	104.661	20.200	1.298	0.518
842.000	503.249	80.008	19.993	104.677	20.199	1.397	0.498
844.000	504.254	80.007	19.994	104.662	20.200	1.296	0.529
846.000	505.240	80.008	19.994	104.664	20.201	1.271	0.489
848.000	506.294	80.009	19.994	104.673	20.203	1.135	0.490
850.000	507.289	80.007	19.995	104.675	20.203	1.111	0.508
852.000	508.332	80.007	19.995	104.671	20.200	1.300	0.512
854.000	509.370	80.006	19.995	104.669	20.205	0.993	0.522
856.000	510.375	80.007	19.995	104.669	20.200	1.353	0.522
858.000	511.387	80.006	19.995	104.662	20.202	1.192	0.516
860.000	512.387	80.007	19.995	104.665	20.203	1.151	0.505
862.000	513.442	80.006	19.995	104.671	20.204	1.056	0.522
864.000	514.471	80.008	19.995	104.671	20.202	1.179	0.507
866.000	515.509	80.006	19.994	104.663	20.204	1.085	0.524
868.000	516.569	80.009	19.994	104.668	20.204	1.082	0.532
870.000	517.580	80.010	19.993	104.661	20.202	1.199	0.500
872.000	518.606	80.009	19.995	104.652	20.201	1.284	0.525
874.000	519.621	80.009	19.993	104.665	20.202	1.186	0.491
876.000	520.647	80.009	19.993	104.666	20.204	1.087	0.514
878.000	521.712	80.008	19.994	104.663	20.203	1.113	0.537
880.000	522.707	80.008	19.994	104.668	20.204	1.043	0.507
882.000	523.742	80.008	19.994	104.678	20.204	1.083	0.510
884.000	524.777	80.007	19.994	104.667	20.202	1.159	0.491
886.000	525.827	80.009	19.995	104.674	20.204	1.065	0.523
888.000	526.880	80.009	19.993	104.677	20.203	1.146	0.532
890.000	527.888	80.010	19.994	104.653	20.202	1.199	0.514
892.000	528.940	80.009	19.994	104.655	20.203	1.155	0.521
894.000	529.957	80.010	19.993	104.664	20.201	1.225	0.526
896.000	531.005	80.010	19.993	104.665	20.202	1.166	0.495
898.000	532.048	80.011	19.993	104.666	20.201	1.256	0.556
900.000	533.044	80.011	19.993	104.668	20.202	1.175	0.511
902.000	534.086	80.010	19.993	104.663	20.204	1.058	0.534
904.000	535.120	80.009	19.994	104.657	20.202	1.160	0.507
906.001	536.164	80.008	19.993	104.656	20.200	1.304	0.499
908.000	537.197	80.007	19.994	104.654	20.200	1.320	0.505
910.000	538.206	80.007	19.993	104.658	20.204	1.032	0.511
912.000	539.233	80.008	19.994	104.645	20.202	1.214	0.497
914.000	540.239	80.007	19.994	104.655	20.201	1.265	0.505
916.000	541.239	80.007	19.994	104.664	20.205	1.006	0.482
918.000	542.269	80.006	19.994	104.656	20.208	0.812	0.496
920.000	543.294	80.008	19.994	104.650	20.203	1.138	0.499
922.000	544.259	80.008	19.994	104.656	20.205	0.995	0.488
924.000	545.291	80.007	19.994	104.657	20.209	0.727	0.513
926.000	546.264	80.006	19.994	104.661	20.204	1.030	0.494
928.000	547.307	80.007	19.996	104.672	20.206	0.947	0.487
930.000	548.285	80.007	19.994	104.665	20.204	1.026	0.491
932.000	549.300	80.009	19.994	104.659	20.204	1.067	0.494
934.000	550.295	80.007	19.993	104.653	20.206	0.947	0.484
936.000	551.319	80.008	19.994	104.655	20.205	1.002	0.503
938.000	552.308	80.006	19.995	104.655	20.203	1.102	0.527
940.000	553.297	80.008	19.995	104.654	20.205	0.990	0.498
942.000	554.332	80.008	19.995	104.655	20.204	1.032	0.515
944.000	555.333	80.006	19.995	104.650	20.204	1.091	0.478
946.000	556.316	80.006	19.994	104.654	20.203	1.151	0.489
948.000	557.309	80.008	19.995	104.656	20.201	1.247	0.485
950.000	558.270	80.009	19.994	104.649	20.204	1.083	0.499
952.000	559.272	80.009	19.995	104.659	20.202	1.186	0.518
954.000	560.281	80.009	19.995	104.654	20.204	1.074	0.473
956.000	561.287	80.009	19.995	104.658	20.203	1.144	0.476
958.000	562.292	80.009	19.994	104.643	20.203	1.146	0.516
960.000	563.299	80.009	19.994	104.643	20.204	1.052	0.517
962.000	564.297	80.008	19.994	104.651	20.207	0.867	0.492
964.000	565.296	80.011	19.995	104.647	20.202	1.217	0.513
966.000	566.281	80.009	19.994	104.655	20.201	1.274	0.485
968.000	567.274	80.010	19.994	104.646	20.202	1.208	0.526
970.000	568.253	80.009	19.994	104.643	20.202	1.179	0.503
972.000	569.241	80.010	19.995	104.648	20.203	1.120	0.504
974.000	570.260	80.011	19.994	104.660	20.202	1.221	0.488
976.000	571.294	80.011	19.993	104.646	20.202	1.208	0.518
978.000	572.247	80.012	19.994	104.666	20.200	1.320	0.492
980.000	573.312	80.011	19.993	104.665	20.200	1.300	0.529
982.000	574.327	80.010	19.993	104.649	20.200	1.348	0.542
984.000	575.385	80.009	19.996	104.649	20.203	1.138	0.475
986.000	576.402	80.008	19.993	104.659	20.206	0.896	0.507
988.000	577.424	80.009	19.995	104.660	20.201	1.291	0.530
990.000	578.403	80.007	19.993	104.658	20.201	1.269	0.484
992.000	579.279	80.008	19.993	104.672	20.201	1.274	0.515
994.000	580.395	80.008	19.994	104.666	20.199	1.379	0.457
996.000	581.482	80.009	19.994	104.655	20.199	1.417	0.477
998.000	582.151	80.006	19.993	104.676	20.202	1.212	0.075
1000.000	583.818	80.010	19.993	104.657	20.197	1.495	0.404
1002.000	584.383	80.008	19.994	104.661	20.201	1.228	0.421
1004.000	585.489	80.007	19.994	104.660	20.197	1.511	0.489
1006.000	586.430	80.008	19.993	104.657	20.200	1.320	0.522
1008.000	587.575	80.007	19.994	104.648	20.199	1.416	0.474
1010.000	588.565	80.006	19.994	104.653	20.198	1.471	0.543
1012.000	589.570	80.006	19.994	104.655	20.199	1.359	0.513
1014.001	590.594	80.008	19.994	104.658	20.199	1.372	0.538
1016.000	591.620	80.007	19.994	104.659	20.200	1.315	0.518
1018.000	592.621	80.007	19.996	104.654	20.198	1.452	0.550
1020.000	593.666	80.008	19.994	104.645	20.201	1.280	0.506
1022.000	594.673	80.008	19.994	104.657	20.199	1.360	0.509
1024.000	595.719	80.008	19.994	104.671	20.200	1.316	0.539
1025.999	596.700	80.007	19.994	104.666	20.201	1.239	0.523
1028.000	597.739	80.009	19.994	104.650	20.202	1.213	0.483
1030.001	598.765	80.010	19.994	104.645	20.199	1.360	0.513
1032.000	599.806	80.010	19.994	104.649	20.200	1.346	0.505
1034.001	600.798	80.009	19.995	104.650	20.201	1.258	0.466
1036.001	601.772	80.008	19.994	104.646	20.202	1.193	0.485
1037.999	602.804	80.009	19.995	104.642	20.202	1.203	0.523
1040.000	603.803	80.010	19.995	104.640	20.202	1.158	0.487
1042.000	604.779	80.009	19.995	104.645	20.205	1.010	0.485
1044.001	605.804	80.008	19.995	104.644	20.205	0.984	0.517
1046.000	606.814	80.008	19.993	104.654	20.205	0.982	0.511
1048.000	607.785	80.010	19.996	104.657	20.209	0.699	0.510
1050.000	608.812	80.008	19.993	104.642	20.205	1.004	0.495
1051.999	609.807	80.010	19.995	104.642	20.203	1.138	0.503
1054.000	610.789	80.010	19.993	104.644	20.204	1.067	0.502
1056.000	611.828	80.011	19.994	104.646	20.201	1.287	0.517
1058.000	612.833	80.011	19.993	104.647	20.204	1.024	0.517
1060.000	613.853	80.011	19.994	104.648	20.205	1.021	0.507
1062.000	614.843	80.010	19.993	104.648	20.203	1.140	0.508
1064.000	615.846	80.010	19.994	104.647	20.203	1.138	0.511
1065.999	616.830	80.007	19.993	104.648	20.201	1.258	0.509
1068.000	617.832	80.008	19.993	104.649	20.202	1.197	0.500
1069.999	618.761	80.008	19.992	104.650	20.202	1.181	0.456
1072.000	619.778	80.006	19.993	104.656	20.199	1.399	0.483
1074.001	620.834	80.007	19.994	104.655	20.200	1.340	0.506
1076.000	621.856	80.007	19.994	104.650	20.198	1.451	0.516
1078.001	622.846	80.007	19.993	104.656	20.198	1.489	0.524
1080.000	623.888	80.008	19.994	104.668	20.201	1.250	0.498
1082.000	624.906	80.007	19.993	104.656	20.201	1.251	0.493
1084.000	625.971	80.008	19.993	104.654	20.198	1.476	0.519
1086.000	626.979	80.009	19.994	104.658	20.195	1.669	0.523
1088.000	628.058	80.007	19.994	104.667	20.196	1.599	0.517
1090.000	629.136	80.010	19.994	104.665	20.193	1.761	0.521
1092.001	630.260	80.008	19.994	104.668	20.197	1.546	0.561
1094.000	631.325	80.007	19.995	104.664	20.197	1.526	0.549
1096.000	632.437	80.007	19.994	104.650	20.197	1.507	0.536
1098.000	633.522	80.008	19.995	104.656	20.198	1.436	0.545
1100.001	634.618	80.008	19.995	104.654	20.198	1.483	0.543
1102.000	635.737	80.007	19.994	104.649	20.197	1.524	0.538
1103.999	636.819	80.009	19.994	104.650	20.199	1.386	0.547
1106.001	637.901	80.007	19.993	104.648	20.198	1.450	0.522
1108.001	639.031	80.009	19.996	104.656	20.197	1.505	0.522
1110.000	640.127	80.010	19.994	104.646	20.197	1.535	0.550
1111.999	641.249	80.010	19.994	104.652	20.195	1.682	0.547
1113.999	642.318	80.009	19.994	104.644	20.197	1.533	0.564
1116.001	643.370	80.009	19.993	104.643	20.195	1.689	0.538
1118.001	644.484	80.009	19.995	104.643	20.199	1.405	0.526
1120.000	645.492	80.008	19.995	104.646	20.199	1.416	0.493
1122.000	646.594	80.009	19.994	104.650	20.199	1.362	0.546
1124.001	647.617	80.008	19.994	104.647	20.197	1.496	0.535
1126.000	648.692	80.008	19.994	104.649	20.199	1.370	0.493
1128.000	649.791	80.008	19.995	104.647	20.198	1.452	0.538
1130.000	650.805	80.008	19.996	104.655	20.195	1.687	0.533
1132.001	651.904	80.009	19.996	104.648	20.194	1.737	0.549
1134.001	652.953	80.009	19.995	104.648	20.193	1.790	0.527
1136.000	654.009	80.011	19.995	104.646	20.194	1.744	0.521
1138.000	655.048	80.009	19.994	104.648	20.194	1.709	0.505
1140.000	656.120	80.011	19.994	104.646	20.194	1.696	0.536
1142.001	657.185	80.010	19.994	104.644	20.192	1.838	0.528
1144.001	658.209	80.011	19.995	104.643	20.189	2.060	0.540
1146.001	659.219	80.010	19.995	104.642	20.191	1.953	0.506
1148.000	660.260	80.009	19.993	104.639	20.194	1.696	0.544
1150.000	661.307	80.009	19.993	104.643	20.193	1.786	0.515
1152.001	662.286	80.008	19.993	104.657	20.194	1.724	0.477
1154.001	663.537	80.007	19.994	104.656	20.192	1.856	0.478
1156.000	664.447	80.009	19.993	104.645	20.189	2.047	0.539
1158.001	665.316	80.007	19.993	104.644	20.196	1.581	0.441
1160.001	666.391	80.008	19.994	104.647	20.195	1.649	0.488
1162.000	667.487	80.008	19.995	104.648	20.195	1.663	0.545
1164.000	668.461	80.009	19.994	104.644	20.195	1.684	0.542
1166.001	669.502	80.007	19.993	104.642	20.198	1.469	0.539
1168.000	670.518	80.008	19.995	104.644	20.186	2.253	0.541
1170.001	671.551	80.009	19.995	104.643	20.196	1.617	0.492
1172.000	672.595	80.009	19.995	104.649	20.190	1.997	0.536
1174.000	673.635	80.010	19.995	104.648	20.191	1.931	0.524
1176.001	674.666	80.009	19.995	104.646	20.194	1.709	0.495
1178.000	675.710	80.008	19.994	104.647	20.191	1.928	0.519
1180.001	676.936	80.009	19.993	104.646	20.191	1.935	0.631
1182.000	677.304	80.008	19.994	104.644	20.191	1.924	0.397
1184.001	678.846	80.008	19.994	104.646	20.191	1.902	0.448
1186.000	679.841	80.009	19.995	104.651	20.189	2.062	0.515
1188.001	680.796	80.009	19.994	104.651	20.188	2.098	0.489
1190.001	681.844	80.010	19.995	104.647	20.190	2.012	0.477
1192.000	682.923	80.011	19.993	104.645	20.186	2.264	0.535
1194.000	683.939	80.009	19.994	104.645	20.186	2.267	0.509
1196.001	684.965	80.009	19.995	104.647	20.188	2.121	0.549
1198.000	685.951	80.008	19.992	104.646	20.190	1.988	0.543
1200.001	687.008	80.007	19.995	104.647	20.189	2.045	0.500
1202.001	688.042	80.008	19.994	104.646	20.190	2.019	0.564
1204.000	689.052	80.009	19.994	104.645	20.188	2.144	0.530
1206.000	690.097	80.008	19.994	104.647	20.187	2.214	0.541
1208.001	691.109	80.008	19.994	104.650	20.190	2.012	0.535
1210.001	692.147	80.009	19.994	104.646	20.187	2.203	0.521
1212.000	693.184	80.010	19.995	104.642	20.188	2.137	0.537
1214.001	694.241	80.011	19.995	104.641	20.186	2.276	0.527
1216.000	695.302	80.009	19.995	104.640	20.186	2.229	0.530
1218.001	696.284	80.010	19.994	104.638	20.186	2.253	0.500
1219.999	697.309	80.011	19.993	104.640	20.186	2.291	0.498
1221.999	698.343	80.011	19.995	104.640	20.187	2.164	0.505
1223.999	699.402	80.009	19.996	104.641	20.181	2.570	0.513
1226.000	700.429	80.009	19.994	104.635	20.184	2.399	0.519
1228.001	701.437	80.009	19.995	104.639	20.186	2.232	0.516
1230.000	702.443	80.008	19.996	104.638	20.185	2.337	0.524
1232.000	703.474	80.008	19.996	104.642	20.184	2.385	0.497
1234.000	704.529	80.009	19.995	104.638	20.187	2.181	0.535
1235.999	705.577	80.010	19.995	104.633	20.189	2.067	0.560
1238.001	706.597	80.009	19.994	104.640	20.188	2.155	0.533
1240.000	707.581	80.007	19.996	104.640	20.190	2.016	0.502
1242.000	708.654	80.009	19.994	104.642	20.190	1.984	0.512
1244.000	709.647	80.009	19.993	104.643	20.188	2.157	0.490
1246.000	710.654	80.009	19.993	104.645	20.188	2.139	0.480
1247.999	711.681	80.008	19.994	104.650	20.189	2.058	0.516
1250.001	712.725	80.009	19.994	104.645	20.188	2.108	0.504
1251.999	713.683	80.009	19.994	104.645	20.186	2.254	0.489
1253.999	714.722	80.009	19.994	104.638	20.190	2.003	0.522
1256.000	715.732	80.008	19.994	104.642	20.187	2.188	0.518
1258.001	716.737	80.009	19.994	104.643	20.187	2.216	0.487
1259.999	717.688	80.008	19.994	104.639	20.187	2.216	0.469
1261.999	718.669	80.007	19.995	104.644	20.187	2.212	0.501
1263.999	719.619	80.008	19.995	104.644	20.184	2.372	0.459
1265.999	720.593	80.007	19.994	104.645	20.187	2.199	0.488
1267.999	721.562	80.010	19.994	104.644	20.185	2.308	0.481
1270.000	722.561	80.009	19.993	104.647	20.185	2.343	0.488
1272.000	723.542	80.011	19.994	104.644	20.187	2.179	0.492
1274.000	724.468	80.010	19.993	104.632	20.182	2.506	0.472
1276.001	725.478	80.010	19.994	104.637	20.184	2.398	0.484
1277.999	726.390	80.011	19.993	104.638	20.184	2.370	0.460
1280.000	727.396	80.009	19.995	104.638	20.184	2.372	0.511
1282.000	728.356	80.010	19.994	104.646	20.183	2.456	0.488
1284.000	729.312	80.010	19.994	104.640	20.180	2.653	0.493
1286.000	730.292	80.008	19.994	104.639	20.179	2.702	0.518
1287.999	731.277	80.008	19.997	104.647	20.177	2.842	0.500
1289.999	732.275	80.009	19.995	104.640	20.176	2.913	0.475
1292.000	733.300	80.008	19.995	104.647	20.181	2.590	0.507
1294.000	734.297	80.010	19.994	104.643	20.177	2.856	0.510
1296.001	735.279	80.012	19.996	104.637	20.181	2.594	0.489
1298.000	736.252	80.013	19.996	104.640	20.180	2.642	0.450
1300.001	737.269	80.011	19.995	104.638	20.180	2.686	0.524
1302.000	738.268	80.011	19.995	104.639	20.180	2.664	0.499
1304.001	739.270	80.010	19.994	104.634	20.181	2.609	0.529
1306.000	740.263	80.010	19.995	104.640	20.184	2.396	0.507
1308.000	741.264	80.009	19.994	104.640	20.182	2.559	0.524
1310.000	742.276	80.009	19.995	104.642	20.177	2.836	0.526
1312.000	743.332	80.009	19.993	104.643	20.174	3.057	0.537
1312.500	743.579	80.009	19.995	104.643	20.179	2.710	0.505