File: 01_Data/Oak_Flooring/MCC/Oak_Flooring_MCC_30K_min_211105_R2.txt
Sample ID:	C:\MCC\MCC Cal\Test\Oak_HWF_MCC_30K_min_211105_R2.txt
Sample Weight (mg):	4.81
Heating Rate (C/s):	0.5
Combustor Temp (C):	900
N2 Flow Rate (cc/min):	80
O2 Flow Rate (cc/min):	20
Calibration File:	C:\MCC\MCC Cal\Coeff1 JN10440_30_210304.txt.txt
T Correction Coefficients:	0	1.024463	0
Time Shift (s):	14
*
Time (s)	Temperature (C)	N2 flow rate (cc/min)	O2 flow rate (cc/min)	Flow Rate (cc/min)	Oxygen (%)	HRR (W/g)	Heating rate (C/s)
0.000	106.032	80.027	19.997	103.019	20.203	-0.011	0.037
2.000	106.039	80.027	19.996	103.017	20.202	0.065	-0.015
4.000	106.031	80.025	19.995	103.022	20.206	-0.197	-0.019
6.000	106.021	80.027	19.996	103.026	20.200	0.207	-0.001
8.000	105.985	80.029	19.994	103.019	20.206	-0.215	-0.035
10.001	106.039	80.026	19.995	103.020	20.205	-0.126	0.016
12.000	105.982	80.026	19.996	103.020	20.200	0.204	0.009
14.001	106.038	80.020	19.997	103.059	20.192	0.710	0.002
16.000	106.072	80.012	19.994	103.091	20.190	0.891	-0.003
18.000	106.084	80.024	19.998	103.103	20.184	1.241	0.041
20.000	106.132	80.025	19.998	103.143	20.183	1.343	0.001
22.000	106.240	80.020	19.997	103.168	20.176	1.798	0.045
24.000	106.338	80.013	19.996	103.181	20.174	1.941	0.041
26.000	106.476	80.007	19.995	103.177	20.169	2.287	0.082
28.000	106.614	80.009	19.996	103.201	20.170	2.205	0.085
30.000	106.832	80.009	19.996	103.205	20.169	2.264	0.074
32.000	107.086	80.009	19.995	103.224	20.164	2.639	0.125
34.000	107.311	80.010	19.995	103.230	20.165	2.559	0.110
36.000	107.615	80.023	19.998	103.252	20.166	2.475	0.137
38.000	107.981	80.025	19.995	103.260	20.161	2.817	0.174
40.000	108.297	80.024	19.995	103.255	20.156	3.134	0.163
42.000	108.703	80.026	19.996	103.263	20.155	3.205	0.198
44.000	109.105	80.024	19.996	103.265	20.151	3.500	0.200
46.000	109.541	80.021	19.998	103.264	20.148	3.648	0.183
48.000	110.031	80.023	19.996	103.286	20.159	2.972	0.240
50.000	110.511	80.024	19.997	103.283	20.149	3.592	0.240
52.000	111.041	80.026	19.998	103.284	20.147	3.768	0.253
54.001	111.547	80.024	19.996	103.287	20.152	3.389	0.271
56.000	112.112	80.026	19.996	103.290	20.149	3.625	0.258
58.000	112.709	80.026	19.996	103.295	20.147	3.776	0.330
60.000	113.276	80.016	19.995	103.292	20.141	4.176	0.304
62.000	113.901	80.018	19.996	103.293	20.144	3.922	0.282
64.000	114.582	80.017	19.995	103.292	20.147	3.732	0.316
66.000	115.247	80.012	19.994	103.309	20.150	3.525	0.320
68.000	115.934	80.013	19.996	103.318	20.143	4.012	0.355
70.001	116.642	80.016	19.996	103.307	20.135	4.520	0.335
72.000	117.371	80.017	19.997	103.305	20.147	3.720	0.383
74.000	118.073	80.012	19.996	103.313	20.138	4.323	0.382
76.000	118.854	80.022	19.997	103.302	20.146	3.794	0.382
78.000	119.639	80.020	19.997	103.319	20.141	4.117	0.411
80.000	120.395	80.023	19.998	103.312	20.144	3.980	0.382
82.000	121.174	80.025	19.996	103.302	20.147	3.729	0.378
84.000	122.011	80.024	19.995	103.300	20.148	3.684	0.419
86.000	122.838	80.025	19.997	103.308	20.144	3.935	0.440
88.000	123.650	80.027	19.994	103.302	20.143	4.019	0.417
90.000	124.474	80.028	19.996	103.296	20.146	3.800	0.424
92.000	125.310	80.029	19.996	103.302	20.143	3.990	0.387
94.000	126.208	80.025	19.996	103.312	20.137	4.390	0.434
96.000	127.054	80.028	19.998	103.311	20.141	4.183	0.421
98.000	127.949	80.027	19.999	103.300	20.146	3.784	0.443
100.000	128.808	80.028	19.998	103.313	20.141	4.134	0.424
102.001	129.719	80.026	19.996	103.305	20.140	4.196	0.475
104.000	130.565	80.027	19.997	103.315	20.143	4.038	0.416
106.000	131.519	80.026	19.997	103.317	20.137	4.396	0.461
108.000	132.408	80.025	19.996	103.317	20.142	4.078	0.424
110.001	133.348	80.025	19.996	103.313	20.141	4.130	0.436
112.001	134.255	80.029	19.999	103.321	20.145	3.893	0.456
114.001	135.228	80.028	19.997	103.319	20.144	3.980	0.481
116.000	136.184	80.027	19.998	103.317	20.133	4.690	0.454
118.000	137.151	80.030	19.998	103.312	20.138	4.333	0.472
120.001	138.103	80.018	19.998	103.315	20.136	4.473	0.493
122.000	139.070	80.010	19.996	103.299	20.141	4.143	0.486
124.000	140.053	80.011	19.993	103.305	20.140	4.221	0.502
126.000	141.009	80.011	19.995	103.303	20.135	4.572	0.482
128.000	141.997	80.011	19.996	103.306	20.135	4.522	0.496
130.000	142.979	80.009	19.994	103.313	20.140	4.184	0.516
132.000	144.026	80.010	19.993	103.309	20.141	4.135	0.512
134.000	144.988	80.009	19.995	103.302	20.144	3.934	0.487
136.000	146.001	80.010	19.996	103.290	20.142	4.065	0.514
138.000	146.988	80.009	19.995	103.293	20.136	4.468	0.520
140.000	148.010	80.010	19.994	103.294	20.144	3.958	0.499
142.000	149.012	80.011	19.993	103.290	20.138	4.352	0.526
144.000	150.010	80.013	19.994	103.292	20.142	4.111	0.456
146.000	150.973	80.013	19.995	103.291	20.140	4.213	0.476
148.000	152.015	80.009	19.994	103.290	20.145	3.849	0.499
150.000	153.031	80.009	19.994	103.291	20.141	4.124	0.517
152.000	154.072	80.011	19.993	103.288	20.139	4.273	0.518
154.000	155.002	80.008	19.994	103.292	20.145	3.891	0.497
156.000	155.997	80.009	19.994	103.293	20.143	4.040	0.509
158.000	157.033	80.009	19.996	103.291	20.146	3.840	0.533
160.000	158.071	80.006	19.995	103.292	20.135	4.572	0.562
162.000	159.043	80.008	19.994	103.284	20.141	4.131	0.530
164.000	160.000	80.009	19.994	103.291	20.146	3.797	0.475
166.000	160.994	80.006	19.994	103.291	20.142	4.080	0.510
168.000	162.031	80.010	19.995	103.291	20.143	4.019	0.493
170.000	163.002	80.007	19.995	103.292	20.143	4.021	0.502
172.000	164.021	80.006	19.994	103.291	20.147	3.729	0.516
174.000	165.087	80.008	19.993	103.285	20.143	4.039	0.515
176.000	166.048	80.007	19.996	103.276	20.144	3.926	0.515
178.000	167.045	80.007	19.995	103.278	20.147	3.744	0.508
180.000	168.049	80.009	19.994	103.268	20.146	3.782	0.503
182.000	168.910	80.010	19.995	103.271	20.145	3.862	0.467
184.000	169.957	80.008	19.994	103.268	20.139	4.288	0.414
186.000	170.988	80.009	19.995	103.255	20.146	3.836	0.503
188.000	171.972	80.009	19.995	103.261	20.145	3.911	0.487
190.000	173.002	80.010	19.996	103.262	20.142	4.052	0.525
192.000	174.000	80.008	19.995	103.271	20.142	4.083	0.538
194.000	174.930	80.009	19.995	103.260	20.147	3.773	0.484
196.000	175.970	80.013	19.997	103.260	20.147	3.766	0.494
198.000	176.939	80.010	19.994	103.222	20.146	3.783	0.515
200.000	177.887	80.009	19.995	103.242	20.149	3.611	0.485
202.000	178.898	80.010	19.995	103.316	20.143	3.995	0.531
204.000	179.848	80.010	19.996	103.261	20.146	3.836	0.481
206.000	180.860	80.010	19.996	103.268	20.144	3.927	0.495
208.000	181.886	80.011	19.995	103.281	20.148	3.700	0.529
210.000	182.830	80.009	19.995	103.277	20.144	3.968	0.496
212.000	183.827	80.009	19.996	103.256	20.141	4.163	0.523
214.000	184.799	80.010	19.997	103.266	20.146	3.793	0.517
216.000	185.856	80.011	19.997	103.253	20.143	4.037	0.517
218.000	186.798	80.008	19.996	103.254	20.144	3.946	0.494
220.000	187.794	80.009	19.995	103.263	20.144	3.935	0.510
222.000	188.712	80.012	19.995	103.274	20.147	3.722	0.478
224.000	189.699	80.011	19.994	103.278	20.145	3.899	0.466
226.000	190.729	80.012	19.993	103.265	20.141	4.130	0.488
228.000	191.687	80.013	19.994	103.270	20.140	4.217	0.498
230.000	192.690	80.012	19.993	103.268	20.146	3.831	0.498
232.000	193.683	80.011	19.994	103.258	20.140	4.243	0.504
234.000	194.655	80.011	19.994	103.266	20.138	4.321	0.488
236.000	195.680	80.011	19.994	103.258	20.135	4.553	0.507
238.000	196.630	80.008	19.995	103.256	20.134	4.598	0.488
240.000	197.635	80.009	19.994	103.255	20.139	4.308	0.496
242.000	198.634	80.008	19.996	103.254	20.135	4.565	0.486
244.000	199.629	80.009	19.995	103.259	20.139	4.301	0.516
246.000	200.594	80.010	19.995	103.263	20.135	4.553	0.493
248.000	201.562	80.009	19.994	103.259	20.134	4.598	0.518
250.000	202.570	80.009	19.995	103.255	20.136	4.469	0.505
252.000	203.562	80.008	19.994	103.256	20.136	4.476	0.501
254.000	204.560	80.009	19.994	103.250	20.138	4.347	0.465
256.000	205.566	80.009	19.994	103.256	20.136	4.480	0.489
258.000	206.563	80.009	19.994	103.254	20.131	4.819	0.483
260.000	207.592	80.008	19.994	103.260	20.132	4.779	0.490
262.000	208.562	80.009	19.994	103.255	20.131	4.790	0.488
264.000	209.568	80.010	19.994	103.255	20.131	4.806	0.492
266.000	210.588	80.009	19.995	103.258	20.129	4.939	0.493
268.000	211.589	80.009	19.995	103.259	20.129	4.934	0.498
270.000	212.571	80.009	19.995	103.265	20.126	5.183	0.495
272.000	213.590	80.009	19.994	103.261	20.122	5.400	0.510
274.000	214.602	80.009	19.996	103.262	20.123	5.339	0.499
276.000	215.651	80.008	19.995	103.263	20.119	5.632	0.510
278.000	216.620	80.008	19.995	103.253	20.116	5.836	0.499
280.000	217.656	80.010	19.994	103.262	20.117	5.789	0.521
282.000	218.667	80.009	19.994	103.253	20.114	5.976	0.506
284.000	219.639	80.008	19.994	103.260	20.112	6.095	0.476
286.000	220.654	80.009	19.995	103.268	20.106	6.525	0.501
288.000	221.647	80.010	19.994	103.257	20.107	6.426	0.487
290.001	222.664	80.010	19.995	103.261	20.102	6.776	0.512
292.000	223.682	80.009	19.995	103.256	20.103	6.689	0.492
294.000	224.764	80.010	19.994	103.262	20.101	6.857	0.540
296.000	225.717	80.009	19.995	103.254	20.100	6.920	0.499
298.000	226.702	80.009	19.994	103.262	20.099	6.964	0.487
300.000	227.721	80.008	19.994	103.254	20.099	6.983	0.513
302.000	228.773	80.008	19.995	103.264	20.096	7.148	0.529
304.000	229.756	80.008	19.995	103.266	20.095	7.204	0.532
306.000	230.759	80.008	19.994	103.266	20.092	7.414	0.507
308.000	231.774	80.008	19.995	103.256	20.090	7.537	0.495
310.000	232.787	80.010	19.997	103.263	20.090	7.593	0.530
312.000	233.810	80.010	19.995	103.260	20.087	7.791	0.523
314.000	234.812	80.011	19.994	103.254	20.087	7.753	0.497
316.000	235.782	80.010	19.994	103.257	20.079	8.329	0.490
318.000	236.840	80.011	19.995	103.250	20.081	8.147	0.532
320.000	237.824	80.010	19.995	103.251	20.081	8.187	0.485
322.000	238.816	80.009	19.994	103.252	20.073	8.706	0.499
324.000	239.828	80.008	19.994	103.249	20.070	8.900	0.491
326.000	240.778	80.010	19.994	103.250	20.064	9.277	0.489
328.000	241.803	80.010	19.994	103.255	20.067	9.116	0.485
330.000	242.773	80.010	19.995	103.259	20.063	9.392	0.523
332.000	243.786	80.009	19.995	103.251	20.060	9.573	0.503
334.000	244.723	80.010	19.995	103.255	20.058	9.741	0.496
336.000	245.725	80.010	19.995	103.261	20.048	10.377	0.500
338.000	246.712	80.008	19.994	103.257	20.046	10.541	0.459
340.000	247.659	80.009	19.994	103.251	20.048	10.389	0.469
342.000	248.665	80.009	19.994	103.260	20.043	10.736	0.530
344.000	249.645	80.008	19.995	103.270	20.029	11.625	0.529
346.000	250.682	80.010	19.995	103.286	20.029	11.655	0.528
348.000	251.649	80.008	19.995	103.289	20.021	12.177	0.503
350.000	252.600	80.009	19.994	103.286	20.012	12.781	0.482
352.000	253.581	80.008	19.995	103.274	20.016	12.541	0.496
354.000	254.566	80.009	19.994	103.282	20.002	13.430	0.490
356.000	255.549	80.009	19.995	103.289	19.996	13.838	0.485
358.000	256.541	80.008	19.994	103.290	19.989	14.321	0.480
360.000	257.488	80.008	19.995	103.294	19.983	14.722	0.466
362.000	258.522	80.008	19.996	103.273	19.975	15.302	0.518
364.000	259.523	80.010	19.995	103.287	19.964	16.035	0.519
366.000	260.486	80.008	19.993	103.300	19.961	16.242	0.508
368.000	261.482	80.010	19.995	103.313	19.951	16.881	0.509
370.000	262.448	80.009	19.995	103.304	19.944	17.379	0.470
372.000	263.461	80.010	19.995	103.318	19.934	18.024	0.519
374.000	264.391	80.009	19.994	103.296	19.926	18.549	0.465
376.000	265.455	80.009	19.995	103.323	19.915	19.292	0.541
378.000	266.443	80.010	19.997	103.318	19.911	19.578	0.490
380.000	267.437	80.009	19.994	103.295	19.900	20.306	0.522
382.000	268.415	80.008	19.995	103.309	19.894	20.738	0.461
384.000	269.407	80.009	19.995	103.309	19.883	21.442	0.491
386.000	270.465	80.009	19.994	103.318	19.875	21.954	0.508
388.000	271.484	80.010	19.995	103.325	19.867	22.548	0.516
390.000	272.508	80.010	19.994	103.315	19.856	23.258	0.505
392.000	273.431	80.010	19.995	103.325	19.847	23.833	0.479
394.000	274.438	80.010	19.995	103.329	19.832	24.856	0.481
396.000	275.436	80.010	19.995	103.330	19.821	25.568	0.509
398.000	276.388	80.010	19.994	103.340	19.812	26.186	0.473
400.000	277.445	80.010	19.995	103.339	19.799	27.044	0.531
402.000	278.454	80.011	19.994	103.332	19.795	27.339	0.522
404.000	279.459	80.008	19.996	103.334	19.781	28.301	0.491
406.000	280.457	80.007	19.996	103.336	19.771	28.944	0.513
408.000	281.416	80.007	19.996	103.340	19.762	29.586	0.464
410.000	282.406	80.008	19.996	103.337	19.750	30.357	0.491
412.000	283.410	80.009	19.997	103.346	19.745	30.725	0.516
414.000	284.391	80.009	19.995	103.356	19.732	31.576	0.513
416.000	285.403	80.008	19.994	103.351	19.719	32.422	0.511
418.000	286.381	80.009	19.994	103.364	19.713	32.829	0.501
420.000	287.408	80.009	19.995	103.367	19.700	33.740	0.545
422.000	288.378	80.010	19.994	103.370	19.693	34.199	0.495
424.000	289.404	80.011	19.994	103.375	19.679	35.157	0.501
426.000	290.425	80.009	19.994	103.379	19.671	35.660	0.524
428.000	291.439	80.010	19.995	103.371	19.666	35.992	0.533
430.000	292.462	80.009	19.994	103.372	19.654	36.796	0.491
432.000	293.402	80.007	19.995	103.375	19.642	37.629	0.475
434.000	294.433	80.009	19.994	103.390	19.635	38.095	0.499
436.000	295.457	80.009	19.995	103.383	19.623	38.891	0.490
438.000	296.474	80.008	19.994	103.396	19.617	39.326	0.522
440.000	297.503	80.009	19.995	103.397	19.607	39.990	0.494
442.000	298.502	80.007	19.995	103.416	19.597	40.672	0.515
444.000	299.538	80.009	19.995	103.393	19.592	40.971	0.476
446.000	300.520	80.009	19.995	103.390	19.586	41.358	0.504
448.000	301.542	80.010	19.994	103.403	19.577	41.981	0.498
450.000	302.574	80.010	19.994	103.399	19.569	42.510	0.492
452.000	303.569	80.012	19.994	103.399	19.561	43.035	0.498
454.000	304.579	80.011	19.994	103.404	19.554	43.506	0.503
456.000	305.588	80.010	19.996	103.396	19.546	44.063	0.508
458.000	306.670	80.012	19.995	103.404	19.540	44.456	0.546
460.000	307.629	80.011	19.994	103.404	19.533	44.919	0.502
462.000	308.669	80.011	19.995	103.405	19.528	45.299	0.526
464.000	309.670	80.010	19.994	103.405	19.516	46.098	0.517
466.000	310.715	80.010	19.996	103.406	19.511	46.402	0.534
468.000	311.718	80.009	19.994	103.407	19.501	47.103	0.517
470.000	312.766	80.011	19.996	103.407	19.488	47.992	0.487
472.000	313.813	80.009	19.996	103.407	19.485	48.177	0.491
474.000	314.855	80.011	19.995	103.407	19.480	48.536	0.547
476.000	315.859	80.010	19.996	103.410	19.468	49.288	0.482
478.000	316.853	80.012	19.995	103.414	19.459	49.947	0.530
480.000	317.895	80.011	19.994	103.419	19.447	50.701	0.519
482.000	318.883	80.012	19.994	103.426	19.439	51.259	0.500
484.000	319.922	80.010	19.993	103.439	19.432	51.746	0.513
486.000	320.929	80.011	19.994	103.441	19.417	52.750	0.519
488.000	321.981	80.009	19.995	103.447	19.406	53.485	0.527
490.000	323.002	80.009	19.994	103.448	19.391	54.509	0.494
492.000	324.027	80.009	19.995	103.447	19.380	55.240	0.523
494.000	325.017	80.009	19.995	103.451	19.369	55.977	0.474
496.000	326.023	80.008	19.996	103.455	19.354	56.979	0.505
498.000	327.062	80.009	19.996	103.459	19.339	58.017	0.511
500.000	328.043	80.007	19.996	103.471	19.321	59.199	0.479
502.000	329.058	80.008	19.995	103.479	19.308	60.097	0.511
504.000	330.064	80.008	19.995	103.483	19.291	61.250	0.527
506.000	331.087	80.007	19.995	103.487	19.276	62.238	0.509
508.000	332.065	80.008	19.995	103.489	19.261	63.242	0.490
510.000	333.101	80.007	19.995	103.492	19.238	64.792	0.518
512.000	334.135	80.009	19.996	103.489	19.227	65.558	0.528
514.000	335.144	80.010	19.995	103.497	19.210	66.664	0.503
516.000	336.127	80.009	19.995	103.520	19.193	67.790	0.483
518.000	337.134	80.008	19.996	103.518	19.177	68.883	0.497
520.000	338.140	80.009	19.996	103.525	19.163	69.833	0.495
522.000	339.169	80.009	19.995	103.524	19.145	71.054	0.506
524.000	340.147	80.009	19.995	103.526	19.130	72.079	0.493
526.000	341.151	80.008	19.994	103.526	19.118	72.847	0.500
528.000	342.114	80.009	19.994	103.530	19.104	73.812	0.493
530.000	343.114	80.010	19.995	103.533	19.090	74.719	0.471
532.000	344.137	80.009	19.995	103.534	19.077	75.583	0.509
534.000	345.100	80.010	19.995	103.534	19.071	75.982	0.491
536.000	346.140	80.009	19.995	103.529	19.063	76.535	0.531
538.000	347.121	80.010	19.994	103.529	19.056	77.009	0.491
540.000	348.111	80.011	19.994	103.528	19.050	77.418	0.504
542.000	349.129	80.012	19.994	103.524	19.050	77.412	0.508
544.000	350.140	80.010	19.994	103.526	19.053	77.209	0.480
546.000	351.063	80.010	19.995	103.525	19.055	77.055	0.478
548.000	352.106	80.012	19.994	103.513	19.055	77.022	0.506
550.000	353.093	80.010	19.995	103.510	19.063	76.500	0.517
552.000	354.099	80.010	19.993	103.493	19.074	75.748	0.501
554.000	355.066	80.009	19.994	103.480	19.084	75.082	0.491
556.000	356.080	80.011	19.994	103.467	19.101	73.913	0.511
558.000	357.078	80.011	19.993	103.454	19.123	72.410	0.496
560.000	358.061	80.011	19.994	103.448	19.147	70.767	0.465
562.000	359.059	80.011	19.994	103.427	19.178	68.682	0.488
564.000	360.044	80.011	19.994	103.413	19.207	66.746	0.488
566.000	361.019	80.012	19.994	103.396	19.242	64.395	0.470
568.000	361.971	80.010	19.993	103.371	19.282	61.723	0.474
570.000	362.927	80.011	19.994	103.367	19.318	59.272	0.477
572.000	363.915	80.009	19.994	103.353	19.361	56.389	0.497
574.000	364.948	80.009	19.995	103.336	19.400	53.779	0.532
576.000	365.957	80.009	19.995	103.333	19.443	50.857	0.500
578.000	366.970	80.010	19.994	103.311	19.489	47.837	0.519
580.000	367.958	80.010	19.995	103.290	19.535	44.704	0.509
582.000	369.006	80.010	19.995	103.271	19.582	41.563	0.511
584.000	370.063	80.009	19.995	103.257	19.628	38.468	0.519
586.000	371.106	80.010	19.994	103.250	19.671	35.583	0.511
588.000	372.134	80.009	19.995	103.236	19.719	32.379	0.529
590.000	373.243	80.007	19.996	103.217	19.764	29.417	0.534
592.000	374.327	80.008	19.995	103.213	19.801	26.939	0.556
594.000	375.382	80.009	19.995	103.214	19.836	24.594	0.558
596.000	376.447	80.009	19.995	103.202	19.865	22.621	0.521
598.000	377.504	80.009	19.995	103.197	19.896	20.548	0.545
600.000	378.601	80.009	19.996	103.210	19.919	18.974	0.535
602.000	379.744	80.008	19.995	103.209	19.944	17.355	0.550
604.000	380.806	80.008	19.995	103.198	19.959	16.337	0.552
606.000	381.859	80.009	19.996	103.192	19.976	15.213	0.528
608.000	382.954	80.009	19.996	103.179	19.990	14.226	0.527
610.000	384.026	80.010	19.995	103.192	19.999	13.629	0.523
612.000	385.086	80.009	19.995	103.187	20.010	12.911	0.557
614.000	386.172	80.010	19.994	103.186	20.020	12.234	0.527
616.000	387.220	80.011	19.995	103.179	20.027	11.779	0.530
618.000	388.258	80.010	19.994	103.177	20.029	11.629	0.549
620.000	389.328	80.011	19.995	103.177	20.031	11.526	0.507
622.000	390.401	80.010	19.994	103.175	20.039	10.939	0.545
624.000	391.404	80.010	19.994	103.176	20.044	10.641	0.531
626.000	392.479	80.010	19.994	103.176	20.045	10.542	0.532
628.000	393.516	80.010	19.993	103.175	20.053	10.047	0.481
630.000	394.577	80.010	19.995	103.176	20.051	10.194	0.525
632.000	395.576	80.009	19.994	103.174	20.054	9.956	0.460
634.000	396.602	80.009	19.993	103.178	20.057	9.787	0.512
636.000	397.627	80.010	19.995	103.178	20.058	9.666	0.539
638.000	398.621	80.010	19.994	103.177	20.063	9.356	0.513
640.000	399.624	80.010	19.995	103.183	20.059	9.655	0.519
642.000	400.615	80.009	19.994	103.126	20.064	9.294	0.515
644.000	401.566	80.011	19.995	103.206	20.064	9.264	0.473
646.000	402.533	80.012	19.994	103.175	20.071	8.838	0.506
648.000	403.511	80.010	19.994	103.168	20.072	8.740	0.499
650.000	404.529	80.013	19.994	103.165	20.074	8.635	0.482
652.000	405.437	80.011	19.995	103.165	20.072	8.768	0.464
654.000	406.380	80.010	19.994	103.159	20.076	8.467	0.438
656.000	407.333	80.008	19.994	103.152	20.075	8.559	0.477
658.000	408.277	80.009	19.994	103.162	20.079	8.305	0.459
660.000	409.187	80.009	19.994	103.162	20.079	8.262	0.447
662.000	410.153	80.008	19.995	103.170	20.084	7.929	0.455
664.000	411.073	80.009	19.995	103.165	20.083	8.041	0.461
666.000	411.985	80.009	19.995	103.167	20.085	7.896	0.446
668.000	412.909	80.009	19.995	103.154	20.084	7.934	0.461
670.000	413.805	80.008	19.996	103.159	20.087	7.761	0.446
672.000	414.673	80.009	19.995	103.142	20.090	7.544	0.422
674.000	415.597	80.009	19.995	103.158	20.085	7.913	0.446
676.000	416.533	80.009	19.995	103.161	20.090	7.550	0.468
678.000	417.425	80.009	19.996	103.171	20.090	7.587	0.438
680.000	418.345	80.007	19.995	103.171	20.089	7.641	0.454
682.000	419.237	80.010	19.993	103.167	20.091	7.465	0.436
684.000	420.197	80.008	19.995	103.169	20.089	7.643	0.458
686.000	421.140	80.008	19.995	103.179	20.088	7.683	0.462
688.000	422.104	80.009	19.995	103.176	20.091	7.466	0.446
690.000	423.101	80.008	19.995	103.176	20.087	7.752	0.488
692.000	424.071	80.008	19.995	103.175	20.090	7.537	0.459
694.001	425.066	80.007	19.996	103.175	20.091	7.503	0.523
696.000	426.065	80.006	19.995	103.176	20.091	7.459	0.494
698.000	427.051	80.009	19.996	103.175	20.090	7.532	0.477
700.000	428.098	80.008	19.995	103.175	20.096	7.189	0.557
702.000	429.105	80.009	19.995	103.172	20.092	7.440	0.516
704.000	430.100	80.010	19.996	103.173	20.094	7.289	0.502
706.000	431.102	80.011	19.994	103.172	20.092	7.399	0.495
708.000	432.148	80.010	19.994	103.174	20.094	7.311	0.502
710.000	433.158	80.010	19.994	103.175	20.095	7.233	0.524
712.000	434.179	80.012	19.995	103.164	20.096	7.160	0.487
714.000	435.248	80.010	19.994	103.168	20.093	7.346	0.494
716.000	436.298	80.011	19.994	103.172	20.095	7.240	0.556
718.000	437.328	80.010	19.995	103.173	20.097	7.074	0.531
720.000	438.307	80.011	19.995	103.172	20.098	7.041	0.478
722.000	439.389	80.010	19.995	103.172	20.098	7.040	0.534
724.000	440.399	80.010	19.995	103.172	20.095	7.227	0.521
726.000	441.462	80.011	19.994	103.172	20.094	7.264	0.531
728.000	442.500	80.010	19.995	103.166	20.096	7.158	0.545
730.000	443.506	80.012	19.995	103.160	20.101	6.796	0.512
732.000	444.536	80.011	19.995	103.163	20.102	6.754	0.495
734.000	445.547	80.010	19.994	103.169	20.102	6.783	0.531
736.000	446.567	80.012	19.995	103.166	20.104	6.625	0.485
738.000	447.567	80.010	19.994	103.171	20.104	6.629	0.468
740.000	448.655	80.010	19.995	103.163	20.103	6.703	0.545
742.000	449.663	80.010	19.994	103.153	20.103	6.720	0.501
744.000	450.742	80.010	19.995	103.169	20.107	6.423	0.550
746.000	451.773	80.010	19.994	103.167	20.105	6.543	0.525
748.000	452.817	80.009	19.994	103.175	20.107	6.421	0.506
750.000	453.901	80.010	19.994	103.172	20.113	6.006	0.560
752.000	454.925	80.010	19.993	103.173	20.112	6.071	0.532
754.000	455.967	80.009	19.994	103.173	20.112	6.073	0.532
756.000	457.021	80.011	19.994	103.176	20.112	6.066	0.526
758.000	458.094	80.009	19.995	103.176	20.115	5.891	0.522
760.000	459.140	80.010	19.994	103.175	20.116	5.831	0.534
762.000	460.240	80.009	19.995	103.174	20.119	5.634	0.542
764.000	461.199	80.008	19.995	103.172	20.115	5.889	0.493
766.000	462.300	80.010	19.995	103.173	20.117	5.720	0.544
768.000	463.373	80.009	19.995	103.173	20.122	5.419	0.520
770.000	464.392	80.008	19.995	103.173	20.124	5.295	0.519
772.000	465.455	80.009	19.995	103.175	20.123	5.341	0.528
774.000	466.544	80.007	19.995	103.172	20.129	4.942	0.567
776.000	467.577	80.008	19.995	103.173	20.127	5.070	0.521
778.000	468.649	80.009	19.994	103.165	20.129	4.928	0.515
780.000	469.673	80.010	19.994	103.171	20.131	4.800	0.514
782.000	470.748	80.009	19.995	103.168	20.128	4.989	0.519
784.000	471.809	80.009	19.994	103.169	20.130	4.878	0.494
786.000	472.852	80.009	19.994	103.171	20.134	4.583	0.525
788.000	473.971	80.009	19.995	103.165	20.133	4.673	0.565
790.000	475.035	80.010	19.995	103.169	20.136	4.472	0.543
792.000	476.109	80.011	19.995	103.168	20.135	4.518	0.511
794.000	477.185	80.010	19.996	103.164	20.138	4.345	0.527
796.000	478.251	80.009	19.995	103.169	20.135	4.539	0.537
798.000	479.290	80.007	19.995	103.171	20.130	4.871	0.532
800.000	480.373	80.011	19.995	103.170	20.135	4.538	0.519
802.000	481.404	80.009	19.996	103.169	20.133	4.669	0.541
804.000	482.453	80.010	19.995	103.168	20.137	4.385	0.517
806.000	483.523	80.010	19.994	103.164	20.137	4.391	0.528
808.000	484.600	80.012	19.994	103.171	20.139	4.287	0.551
810.000	485.608	80.010	19.994	103.173	20.137	4.383	0.537
812.000	486.646	80.010	19.994	103.173	20.138	4.360	0.524
814.000	487.752	80.011	19.993	103.171	20.139	4.276	0.572
816.000	488.784	80.010	19.995	103.172	20.142	4.055	0.535
818.000	489.851	80.010	19.995	103.174	20.145	3.906	0.528
820.000	490.865	80.010	19.994	103.173	20.141	4.166	0.497
822.000	491.927	80.010	19.994	103.173	20.139	4.281	0.498
824.000	492.985	80.007	19.995	103.175	20.140	4.245	0.561
826.000	494.042	80.008	19.995	103.167	20.141	4.123	0.544
828.000	495.099	80.008	19.994	103.173	20.142	4.086	0.549
830.000	496.124	80.008	19.995	103.171	20.142	4.077	0.483
832.000	497.161	80.008	19.994	103.168	20.142	4.077	0.529
834.000	498.171	80.007	19.994	103.176	20.141	4.128	0.528
836.000	499.155	80.008	19.994	103.176	20.141	4.152	0.481
838.000	500.206	80.008	19.994	103.171	20.139	4.267	0.508
840.000	501.223	80.009	19.995	103.171	20.138	4.354	0.498
842.000	502.229	80.010	19.995	103.167	20.139	4.292	0.477
844.000	503.291	80.010	19.994	103.174	20.138	4.339	0.514
846.000	504.307	80.009	19.994	103.176	20.140	4.230	0.523
848.000	505.283	80.009	19.995	103.174	20.139	4.310	0.488
850.000	506.309	80.010	19.996	103.174	20.138	4.334	0.488
852.000	507.335	80.008	19.996	103.174	20.140	4.237	0.515
854.000	508.327	80.009	19.994	103.173	20.137	4.398	0.511
856.000	509.376	80.008	19.995	103.168	20.140	4.208	0.515
858.000	510.370	80.009	19.995	103.170	20.141	4.137	0.510
860.000	511.426	80.009	19.996	103.170	20.135	4.522	0.526
862.000	512.378	80.009	19.996	103.171	20.142	4.068	0.491
864.000	513.430	80.008	19.995	103.171	20.143	4.034	0.512
866.000	514.520	80.009	19.995	103.166	20.139	4.263	0.518
868.000	515.605	80.011	19.995	103.165	20.145	3.880	0.539
870.000	516.639	80.011	19.995	103.170	20.141	4.150	0.544
872.000	517.668	80.010	19.995	103.170	20.139	4.258	0.532
874.000	518.731	80.010	19.995	103.173	20.137	4.380	0.536
876.000	519.774	80.010	19.995	103.172	20.140	4.245	0.547
878.000	520.852	80.010	19.994	103.167	20.140	4.182	0.528
880.000	521.886	80.010	19.996	103.168	20.142	4.052	0.520
882.000	522.942	80.010	19.995	103.171	20.141	4.112	0.536
884.000	523.974	80.009	19.996	103.173	20.146	3.835	0.520
886.000	525.002	80.008	19.996	103.174	20.143	4.036	0.484
888.000	526.013	80.009	19.995	103.168	20.144	3.913	0.518
890.000	527.046	80.010	19.996	103.162	20.146	3.814	0.500
892.000	528.106	80.010	19.996	103.166	20.141	4.115	0.536
894.000	529.177	80.011	19.995	103.167	20.143	4.031	0.532
896.000	530.182	80.010	19.995	103.149	20.142	4.084	0.507
898.000	531.198	80.011	19.994	103.157	20.140	4.195	0.523
900.000	532.268	80.012	19.995	103.153	20.141	4.126	0.559
902.000	533.240	80.011	19.995	103.145	20.139	4.290	0.521
904.000	534.309	80.010	19.994	103.155	20.137	4.384	0.519
906.000	535.340	80.008	19.994	103.159	20.138	4.350	0.517
908.000	536.362	80.010	19.994	103.155	20.137	4.399	0.521
910.000	537.319	80.009	19.995	103.160	20.142	4.095	0.473
912.000	538.338	80.010	19.995	103.152	20.143	4.026	0.485
914.000	539.333	80.009	19.994	103.157	20.143	3.993	0.504
916.000	540.339	80.010	19.995	103.158	20.141	4.174	0.489
918.000	541.336	80.009	19.994	103.155	20.143	3.987	0.491
920.000	542.371	80.011	19.994	103.157	20.139	4.251	0.508
922.000	543.400	80.009	19.995	103.160	20.143	3.984	0.503
924.000	544.356	80.008	19.995	103.159	20.141	4.134	0.509
926.000	545.363	80.007	19.995	103.145	20.141	4.142	0.479
928.000	546.356	80.008	19.995	103.141	20.142	4.066	0.503
930.000	547.383	80.009	19.995	103.157	20.143	4.001	0.528
932.000	548.380	80.009	19.994	103.154	20.135	4.560	0.512
934.000	549.339	80.010	19.995	103.168	20.139	4.268	0.499
936.000	550.358	80.011	19.994	103.164	20.142	4.085	0.516
938.000	551.351	80.009	19.995	103.161	20.145	3.873	0.494
940.000	552.383	80.010	19.994	103.179	20.144	3.962	0.538
942.000	553.387	80.010	19.994	103.180	20.147	3.727	0.502
944.000	554.422	80.009	19.994	103.169	20.142	4.063	0.499
946.000	555.466	80.009	19.994	103.172	20.144	3.940	0.482
948.000	556.479	80.011	19.994	103.173	20.140	4.179	0.493
950.000	557.512	80.010	19.994	103.168	20.144	3.968	0.500
952.000	558.527	80.011	19.995	103.163	20.140	4.199	0.497
954.000	559.597	80.009	19.995	103.142	20.142	4.057	0.504
956.000	560.637	80.011	19.995	103.141	20.140	4.241	0.497
958.000	561.651	80.010	19.995	103.162	20.141	4.124	0.509
960.000	562.620	80.010	19.995	103.153	20.142	4.051	0.466
962.000	563.653	80.011	19.995	103.166	20.141	4.150	0.482
964.000	564.678	80.009	19.995	103.161	20.140	4.225	0.519
966.000	565.692	80.011	19.994	103.161	20.142	4.059	0.512
968.000	566.740	80.009	19.994	103.163	20.143	4.013	0.537
970.000	567.755	80.010	19.994	103.159	20.141	4.174	0.503
972.000	568.768	80.011	19.994	103.169	20.142	4.090	0.502
974.000	569.823	80.010	19.995	103.172	20.141	4.157	0.515
976.000	570.838	80.011	19.994	103.167	20.138	4.335	0.509
978.000	571.906	80.011	19.995	103.162	20.141	4.137	0.510
980.000	572.964	80.012	19.995	103.165	20.139	4.264	0.506
982.000	573.997	80.010	19.995	103.169	20.143	4.037	0.520
984.000	575.040	80.010	19.996	103.162	20.141	4.167	0.534
986.000	576.067	80.010	19.995	103.163	20.141	4.126	0.499
988.000	577.106	80.010	19.995	103.155	20.140	4.181	0.499
990.000	578.123	80.009	19.996	103.158	20.140	4.237	0.540
992.000	579.180	80.009	19.996	103.162	20.144	3.964	0.492
994.000	580.185	80.009	19.994	103.150	20.144	3.936	0.517
996.000	581.238	80.009	19.995	103.155	20.142	4.048	0.544
998.000	582.261	80.009	19.995	103.163	20.145	3.880	0.543
1000.000	583.310	80.010	19.995	103.154	20.148	3.701	0.523
1002.000	584.356	80.010	19.994	103.152	20.142	4.044	0.518
1004.000	585.340	80.009	19.995	103.156	20.143	4.042	0.515
1006.000	586.390	80.009	19.994	103.150	20.142	4.103	0.539
1008.000	587.450	80.010	19.994	103.157	20.144	3.967	0.504
1010.000	588.414	80.011	19.994	103.152	20.147	3.739	0.505
1012.000	589.456	80.009	19.994	103.144	20.147	3.744	0.515
1014.000	590.506	80.010	19.995	103.157	20.145	3.906	0.521
1016.000	591.512	80.010	19.994	103.146	20.143	4.033	0.501
1018.000	592.524	80.009	19.994	103.149	20.144	3.933	0.502
1020.000	593.545	80.008	19.994	103.150	20.147	3.767	0.498
1022.000	594.593	80.008	19.995	103.155	20.142	4.099	0.509
1024.000	595.651	80.009	19.995	103.167	20.145	3.866	0.536
1026.000	596.680	80.008	19.995	103.161	20.144	3.929	0.516
1028.000	597.649	80.009	19.995	103.161	20.142	4.053	0.491
1030.000	598.633	80.009	19.994	103.150	20.147	3.773	0.504
1032.000	599.706	80.009	19.994	103.168	20.146	3.793	0.542
1034.000	600.707	80.010	19.994	103.167	20.144	3.957	0.514
1036.000	601.710	80.010	19.994	103.154	20.145	3.867	0.514
1038.001	602.697	80.011	19.994	103.150	20.141	4.134	0.513
1040.000	603.755	80.012	19.993	103.159	20.143	4.020	0.529
1042.001	604.720	80.011	19.994	103.170	20.143	4.014	0.498
1044.000	605.735	80.010	19.995	103.161	20.144	3.923	0.518
1046.000	606.758	80.011	19.994	103.153	20.147	3.752	0.513
1048.001	607.751	80.011	19.994	103.141	20.145	3.896	0.480
1050.000	608.745	80.010	19.994	103.142	20.144	3.936	0.504
1052.000	609.731	80.009	19.995	103.146	20.143	4.029	0.507
1054.001	610.696	80.010	19.995	103.136	20.143	4.036	0.480
1056.000	611.667	80.011	19.996	103.152	20.147	3.759	0.505
1058.000	612.691	80.011	19.995	103.137	20.148	3.685	0.500
1060.000	613.676	80.012	19.995	103.139	20.146	3.795	0.514
1062.000	614.668	80.012	19.994	103.152	20.144	3.939	0.484
1064.000	615.658	80.013	19.994	103.149	20.142	4.067	0.507
1066.000	616.669	80.012	19.994	103.137	20.143	4.011	0.479
1068.000	617.630	80.011	19.995	103.142	20.144	3.952	0.498
1070.000	618.677	80.011	19.995	103.137	20.143	4.038	0.512
1072.000	619.617	80.009	19.994	103.138	20.141	4.119	0.440
1074.001	620.585	80.010	19.995	103.138	20.143	3.979	0.475
1076.000	621.555	80.009	19.995	103.139	20.142	4.050	0.482
1078.000	622.492	80.008	19.995	103.144	20.147	3.765	0.454
1080.000	623.502	80.008	19.995	103.138	20.142	4.078	0.471
1082.000	624.446	80.008	19.996	103.136	20.144	3.970	0.477
1084.000	625.379	80.008	19.996	103.134	20.146	3.779	0.487
1086.000	626.271	80.009	19.996	103.135	20.145	3.899	0.445
1088.000	627.260	80.008	19.995	103.144	20.144	3.922	0.457
1090.000	628.174	80.009	19.995	103.145	20.144	3.943	0.491
1092.000	629.150	80.009	19.994	103.138	20.147	3.736	0.503
1094.000	630.063	80.011	19.994	103.139	20.142	4.106	0.478
1096.001	630.955	80.009	19.994	103.138	20.146	3.830	0.455
1098.000	631.930	80.008	19.994	103.148	20.148	3.652	0.459
1100.000	632.876	80.010	19.994	103.151	20.145	3.901	0.429
1102.000	633.838	80.009	19.995	103.154	20.145	3.896	0.471
1104.000	634.806	80.008	19.993	103.165	20.143	3.998	0.476
1106.000	635.823	80.010	19.994	103.150	20.148	3.703	0.518
1108.000	636.813	80.008	19.995	103.147	20.143	4.034	0.492
1110.000	637.796	80.009	19.994	103.144	20.144	3.967	0.501
1112.001	638.840	80.010	19.994	103.145	20.142	4.103	0.529
1114.000	639.811	80.009	19.995	103.155	20.141	4.169	0.514
1116.000	640.846	80.012	19.995	103.149	20.146	3.828	0.495
1118.000	641.922	80.009	19.994	103.147	20.144	3.952	0.526
1120.000	642.989	80.011	19.995	103.140	20.141	4.175	0.531
1122.000	643.985	80.011	19.995	103.139	20.145	3.854	0.530
1124.000	645.066	80.011	19.994	103.149	20.145	3.850	0.527
1126.000	646.044	80.011	19.994	103.145	20.142	4.052	0.507
1128.000	647.103	80.012	19.994	103.138	20.143	4.012	0.558
1130.000	648.121	80.009	19.994	103.140	20.140	4.232	0.473
1132.000	649.162	80.011	19.994	103.149	20.143	4.005	0.510
1134.000	650.241	80.011	19.994	103.138	20.139	4.303	0.539
1136.001	651.297	80.010	19.994	103.143	20.140	4.231	0.508
1138.000	652.324	80.012	19.994	103.137	20.142	4.049	0.517
1140.000	653.332	80.012	19.993	103.135	20.142	4.109	0.499
1142.000	654.435	80.012	19.994	103.131	20.141	4.138	0.562
1144.000	655.453	80.012	19.994	103.133	20.139	4.309	0.531
1146.000	656.500	80.012	19.994	103.142	20.140	4.242	0.491
1148.000	657.492	80.012	19.994	103.141	20.143	4.032	0.509
1150.000	658.476	80.012	19.995	103.134	20.141	4.147	0.433
1152.000	659.580	80.010	19.994	103.132	20.144	3.947	0.508
1154.000	660.544	80.010	19.994	103.136	20.143	4.027	0.500
1156.000	661.536	80.009	19.995	103.137	20.140	4.218	0.471
1158.000	662.587	80.010	19.995	103.137	20.142	4.061	0.515
1160.000	663.546	80.008	19.995	103.138	20.147	3.743	0.496
1162.000	664.556	80.009	19.994	103.140	20.144	3.943	0.504
1164.000	665.590	80.008	19.995	103.137	20.144	3.967	0.507
1166.000	666.590	80.009	19.995	103.140	20.145	3.850	0.518
1168.000	667.573	80.009	19.993	103.141	20.146	3.817	0.476
1170.000	668.572	80.009	19.995	103.136	20.144	3.926	0.501
1172.000	669.569	80.008	19.995	103.137	20.145	3.899	0.497
1174.000	670.586	80.010	19.994	103.136	20.142	4.043	0.510
1176.000	671.557	80.012	19.996	103.134	20.142	4.107	0.485
1178.000	672.495	80.009	19.996	103.134	20.141	4.149	0.460
1180.001	673.531	80.009	19.996	103.132	20.141	4.110	0.482
1182.000	674.503	80.010	19.995	103.132	20.143	4.001	0.491
1184.001	675.479	80.009	19.995	103.134	20.142	4.043	0.475
1186.000	676.482	80.010	19.995	103.142	20.143	4.030	0.503
1188.000	677.410	80.010	19.995	103.143	20.140	4.200	0.461
1190.000	678.388	80.011	19.995	103.132	20.140	4.210	0.482
1192.000	679.363	80.010	19.995	103.132	20.140	4.196	0.494
1194.000	680.360	80.009	19.994	103.133	20.142	4.056	0.526
1196.000	681.348	80.009	19.995	103.134	20.141	4.128	0.482
1198.000	682.282	80.010	19.995	103.134	20.143	4.008	0.487
1200.000	683.262	80.012	19.995	103.133	20.141	4.164	0.485
1202.000	684.195	80.011	19.994	103.132	20.141	4.162	0.459
1204.000	685.169	80.011	19.994	103.130	20.142	4.058	0.495
1206.000	686.158	80.012	19.995	103.132	20.141	4.176	0.511
1208.000	687.146	80.012	19.994	103.132	20.145	3.870	0.463
1210.001	688.095	80.011	19.995	103.135	20.142	4.052	0.466
1212.000	689.119	80.011	19.995	103.156	20.141	4.136	0.506
1214.000	690.122	80.011	19.994	103.142	20.141	4.145	0.494
1216.000	691.099	80.011	19.995	103.144	20.141	4.160	0.498
1218.000	692.066	80.011	19.995	103.143	20.140	4.214	0.480
1220.000	693.078	80.010	19.994	103.136	20.142	4.048	0.513
1222.000	694.079	80.011	19.995	103.146	20.140	4.207	0.480
1224.000	695.097	80.012	19.994	103.134	20.145	3.877	0.490
1226.000	696.081	80.012	19.994	103.139	20.142	4.069	0.501
1228.000	697.063	80.012	19.994	103.138	20.142	4.105	0.491
1230.000	698.077	80.012	19.993	103.132	20.142	4.094	0.505
1232.000	699.066	80.012	19.994	103.130	20.140	4.181	0.522
1234.000	700.077	80.011	19.993	103.134	20.142	4.085	0.504
1236.000	701.103	80.011	19.994	103.137	20.142	4.068	0.491
1238.000	702.090	80.010	19.994	103.135	20.141	4.127	0.492
1240.001	703.113	80.009	19.994	103.133	20.141	4.114	0.462
1242.000	704.143	80.009	19.995	103.135	20.142	4.067	0.509
1244.000	705.138	80.009	19.995	103.133	20.141	4.176	0.504
1246.000	706.175	80.010	19.994	103.134	20.141	4.116	0.492
1248.000	707.213	80.008	19.994	103.122	20.139	4.270	0.511
1250.000	708.253	80.010	19.995	103.134	20.139	4.261	0.510
1252.001	709.274	80.008	19.995	103.132	20.138	4.314	0.544
1254.000	710.360	80.010	19.995	103.130	20.139	4.294	0.544
1256.000	711.395	80.012	19.995	103.131	20.140	4.207	0.512
1258.000	712.473	80.011	19.994	103.128	20.141	4.168	0.559
1260.000	713.514	80.011	19.995	103.130	20.139	4.307	0.543
1262.000	714.602	80.010	19.995	103.133	20.135	4.514	0.546
1264.000	715.675	80.011	19.994	103.130	20.139	4.285	0.554
1266.001	716.731	80.010	19.995	103.131	20.139	4.272	0.534
1268.001	717.780	80.010	19.995	103.129	20.139	4.289	0.524
1270.000	718.813	80.009	19.996	103.132	20.138	4.338	0.514
1272.001	719.950	80.009	19.996	103.130	20.140	4.199	0.556
1274.000	720.993	80.009	19.995	103.129	20.144	3.915	0.512
1276.001	722.051	80.008	19.996	103.133	20.142	4.109	0.531
1278.000	723.125	80.010	19.996	103.132	20.140	4.231	0.565
1280.000	724.226	80.009	19.995	103.135	20.144	3.925	0.566
1282.000	725.265	80.011	19.996	103.132	20.142	4.105	0.523
1284.000	726.316	80.010	19.995	103.129	20.146	3.810	0.502
1286.000	727.398	80.011	19.994	103.135	20.143	4.008	0.523
1288.000	728.455	80.012	19.994	103.133	20.140	4.199	0.511
1290.000	729.504	80.011	19.994	103.136	20.142	4.072	0.522
1292.000	730.521	80.011	19.994	103.134	20.145	3.872	0.564
1294.000	731.565	80.011	19.995	103.135	20.143	4.028	0.516
1296.000	732.580	80.011	19.995	103.134	20.138	4.327	0.515
1298.000	733.640	80.010	19.994	103.136	20.142	4.085	0.520
1300.000	734.627	80.011	19.993	103.132	20.143	3.986	0.468
1302.001	735.662	80.010	19.994	103.135	20.144	3.919	0.524
1304.000	736.640	80.011	19.994	103.133	20.143	3.990	0.477
1306.000	737.667	80.011	19.994	103.132	20.142	4.046	0.504
1308.000	738.648	80.011	19.995	103.133	20.143	4.010	0.485
1310.000	739.698	80.012	19.994	103.134	20.147	3.750	0.516
1312.000	740.687	80.014	19.994	103.131	20.145	3.852	0.517
1314.000	741.705	80.011	19.995	103.127	20.144	3.917	0.498
1316.000	742.727	80.013	19.994	103.125	20.141	4.138	0.507
1318.000	743.704	80.013	19.994	103.119	20.147	3.772	0.500