File: 01_Data/PE_Foam_Pipe_Insulation/MCC/PE_Foam_Pipe_Insulation_MCC_30K_min_220128_R3.txt
Sample ID:	C:\MCC\MCC Cal\Test\PE_Foam_Pipe_Insulation_MCC_30K_min_220128_R3.txt
Sample Weight (mg):	4.58
Heating Rate (C/s):	0.5
Combustor Temp (C):	900
N2 Flow Rate (cc/min):	80
O2 Flow Rate (cc/min):	20
Calibration File:	C:\MCC\MCC Cal\Coeff1 JN10440_30_210304.txt.txt
T Correction Coefficients:	0	1.024463	0
Time Shift (s):	14
*
Time (s)	Temperature (C)	N2 flow rate (cc/min)	O2 flow rate (cc/min)	Flow Rate (cc/min)	Oxygen (%)	HRR (W/g)	Heating rate (C/s)
0.000	111.085	80.010	19.992	103.741	20.048	0.091	0.003
2.000	111.082	80.020	19.996	103.742	20.049	0.021	-0.010
4.000	111.069	80.011	19.995	103.740	20.049	0.076	-0.018
6.000	111.088	80.013	19.993	103.741	20.048	0.115	0.037
8.000	111.091	80.012	19.994	103.743	20.046	0.294	0.017
10.001	111.055	80.010	19.995	103.753	20.042	0.533	0.029
12.001	111.097	80.009	19.994	103.773	20.043	0.494	0.017
14.001	111.093	80.008	19.995	103.780	20.042	0.545	-0.002
16.000	111.168	80.008	19.994	103.778	20.039	0.757	0.040
18.000	111.149	80.009	19.996	103.797	20.038	0.802	0.005
20.000	111.217	80.009	19.995	103.802	20.033	1.154	0.029
22.000	111.282	80.008	19.995	103.834	20.032	1.247	0.041
24.000	111.392	80.009	19.994	103.861	20.032	1.272	0.033
26.000	111.526	80.011	19.993	103.873	20.027	1.634	0.086
28.000	111.662	80.009	19.993	103.898	20.024	1.799	0.077
30.000	111.811	80.011	19.993	103.898	20.022	1.941	0.079
32.000	112.012	80.010	19.993	103.862	20.018	2.276	0.105
34.000	112.245	80.010	19.993	103.887	20.015	2.446	0.108
36.000	112.499	80.009	19.993	104.000	20.014	2.553	0.167
38.001	112.801	80.011	19.993	103.939	20.012	2.646	0.171
40.000	113.079	80.011	19.994	103.954	20.010	2.794	0.159
42.001	113.425	80.010	19.994	103.969	20.013	2.588	0.166
44.001	113.812	80.009	19.994	103.964	20.011	2.755	0.213
46.000	114.235	80.009	19.994	103.975	20.009	2.853	0.191
48.000	114.673	80.010	19.994	103.972	20.012	2.703	0.220
50.000	115.123	80.008	19.994	103.976	20.009	2.914	0.233
52.001	115.586	80.010	19.993	103.976	20.010	2.826	0.241
54.000	116.111	80.010	19.994	103.976	20.008	2.983	0.245
56.000	116.639	80.011	19.994	103.978	20.004	3.268	0.265
58.001	117.188	80.011	19.995	103.988	20.004	3.264	0.281
60.000	117.729	80.011	19.993	104.005	20.002	3.414	0.278
62.001	118.362	80.011	19.993	103.999	20.001	3.474	0.311
64.000	118.953	80.011	19.994	103.986	19.998	3.663	0.287
66.000	119.580	80.011	19.994	104.001	19.999	3.608	0.295
68.001	120.220	80.010	19.993	103.998	19.998	3.698	0.314
70.001	120.868	80.011	19.994	104.005	20.001	3.459	0.361
72.000	121.550	80.012	19.994	103.996	20.001	3.429	0.310
74.000	122.251	80.010	19.993	103.990	20.000	3.503	0.332
76.000	123.004	80.009	19.993	103.993	20.000	3.507	0.389
78.000	123.705	80.010	19.993	103.983	20.000	3.519	0.359
80.001	124.433	80.011	19.994	103.998	20.001	3.459	0.344
82.001	125.242	80.010	19.995	103.996	20.001	3.479	0.383
84.001	125.985	80.011	19.992	103.982	20.000	3.514	0.378
86.001	126.768	80.012	19.994	103.987	19.997	3.721	0.405
88.000	127.545	80.012	19.993	104.010	19.998	3.636	0.400
90.000	128.342	80.012	19.994	103.995	19.996	3.833	0.387
92.000	129.178	80.010	19.994	104.013	19.998	3.669	0.402
94.000	129.951	80.012	19.993	104.010	19.998	3.663	0.415
96.000	130.777	80.010	19.993	104.000	19.997	3.711	0.399
98.000	131.624	80.010	19.994	103.989	19.999	3.573	0.416
100.000	132.471	80.010	19.993	104.000	20.001	3.476	0.405
102.000	133.350	80.010	19.993	103.997	19.999	3.575	0.428
104.000	134.182	80.009	19.994	103.983	20.000	3.525	0.426
106.000	135.072	80.008	19.993	103.989	20.001	3.463	0.411
108.000	135.942	80.007	19.995	103.981	20.001	3.488	0.431
110.000	136.882	80.009	19.995	103.981	20.001	3.424	0.470
112.001	137.766	80.009	19.995	103.984	20.001	3.470	0.439
114.001	138.630	80.010	19.995	103.990	20.000	3.538	0.446
116.000	139.541	80.010	19.994	103.991	20.000	3.499	0.445
118.000	140.419	80.011	19.995	103.998	19.998	3.682	0.446
120.000	141.360	80.009	19.996	104.004	19.998	3.639	0.463
122.000	142.305	80.009	19.994	103.988	19.999	3.565	0.452
124.000	143.192	80.010	19.993	103.979	20.000	3.509	0.475
126.000	144.079	80.009	19.994	103.981	20.000	3.532	0.440
128.000	145.065	80.009	19.995	103.983	20.001	3.478	0.498
130.000	145.988	80.010	19.994	103.988	20.000	3.519	0.495
132.000	146.897	80.008	19.993	103.981	20.001	3.449	0.440
134.000	147.875	80.010	19.995	103.980	20.004	3.237	0.453
136.000	148.800	80.009	19.994	103.980	20.004	3.258	0.477
138.000	149.761	80.011	19.993	103.990	20.001	3.454	0.484
140.000	150.695	80.010	19.994	103.983	20.002	3.390	0.474
142.000	151.625	80.011	19.993	103.981	19.999	3.591	0.475
144.000	152.618	80.010	19.992	103.992	19.999	3.585	0.482
146.000	153.537	80.011	19.993	103.989	19.997	3.711	0.483
148.000	154.516	80.012	19.993	103.983	20.001	3.431	0.481
150.000	155.440	80.010	19.994	103.982	19.998	3.696	0.504
152.000	156.384	80.009	19.993	103.979	19.998	3.651	0.487
154.000	157.345	80.011	19.994	103.980	19.999	3.606	0.520
156.000	158.306	80.011	19.993	103.978	20.001	3.466	0.504
158.000	159.252	80.012	19.994	103.977	19.998	3.641	0.477
160.000	160.214	80.010	19.994	103.976	20.000	3.532	0.472
162.000	161.213	80.010	19.994	103.978	19.997	3.727	0.486
164.000	162.168	80.010	19.993	103.976	19.996	3.838	0.440
166.000	163.139	80.011	19.993	103.980	20.002	3.388	0.471
168.000	164.115	80.012	19.994	103.983	19.999	3.598	0.471
170.001	165.118	80.013	19.993	103.975	19.997	3.709	0.512
172.000	166.137	80.012	19.995	103.974	19.999	3.569	0.503
174.000	167.073	80.011	19.995	103.972	20.000	3.493	0.458
176.000	168.083	80.011	19.994	103.972	20.000	3.536	0.500
178.000	169.112	80.010	19.994	103.970	20.002	3.356	0.527
180.000	170.082	80.009	19.994	103.961	20.003	3.314	0.487
182.000	171.059	80.008	19.996	103.964	20.001	3.436	0.447
184.000	172.033	80.009	19.994	103.972	20.000	3.519	0.483
186.000	173.027	80.009	19.994	103.975	20.000	3.554	0.481
188.000	174.051	80.009	19.994	103.973	20.000	3.498	0.517
190.000	175.025	80.011	19.993	103.965	19.998	3.693	0.464
192.000	176.005	80.011	19.995	103.973	19.997	3.764	0.523
194.000	176.952	80.010	19.994	103.948	19.996	3.825	0.460
196.000	177.963	80.011	19.994	103.945	19.997	3.770	0.491
198.000	178.912	80.010	19.994	103.941	19.994	3.930	0.457
200.000	179.929	80.009	19.995	103.950	19.996	3.827	0.480
202.000	180.921	80.009	19.994	103.946	19.992	4.084	0.499
204.000	181.879	80.010	19.994	103.945	19.992	4.063	0.495
206.000	182.867	80.009	19.995	103.947	19.991	4.151	0.513
208.000	183.807	80.008	19.994	103.943	19.992	4.076	0.467
210.000	184.761	80.008	19.996	103.945	19.996	3.839	0.457
212.000	185.771	80.007	19.995	103.942	19.994	3.934	0.498
214.000	186.750	80.009	19.994	103.961	19.991	4.173	0.456
216.000	187.723	80.009	19.995	103.964	19.989	4.287	0.493
218.000	188.716	80.008	19.993	103.965	19.987	4.424	0.488
220.000	189.698	80.010	19.993	103.952	19.988	4.378	0.485
222.000	190.677	80.010	19.994	103.959	19.987	4.471	0.489
224.000	191.706	80.011	19.993	103.925	19.985	4.602	0.466
226.001	192.628	80.010	19.993	103.887	19.987	4.454	0.457
228.000	193.621	80.010	19.995	104.017	19.984	4.679	0.487
230.000	194.602	80.012	19.993	103.955	19.983	4.693	0.490
232.000	195.592	80.011	19.994	103.941	19.985	4.596	0.479
234.000	196.625	80.011	19.994	103.948	19.980	4.934	0.512
236.000	197.575	80.011	19.994	103.951	19.981	4.891	0.511
238.000	198.597	80.010	19.994	103.944	19.983	4.716	0.518
240.000	199.575	80.011	19.994	103.937	19.981	4.874	0.499
242.000	200.547	80.010	19.993	103.942	19.979	5.026	0.458
244.000	201.576	80.010	19.994	103.942	19.980	4.951	0.491
246.000	202.564	80.011	19.994	103.937	19.982	4.817	0.506
248.000	203.536	80.012	19.993	103.936	19.981	4.841	0.472
250.000	204.528	80.011	19.994	103.939	19.980	4.973	0.491
252.000	205.562	80.013	19.993	103.937	19.983	4.722	0.499
254.000	206.619	80.011	19.992	103.937	19.980	4.918	0.530
256.000	207.602	80.012	19.994	103.932	19.984	4.677	0.512
258.000	208.621	80.012	19.993	103.932	19.983	4.747	0.508
260.000	209.583	80.010	19.993	103.938	19.983	4.737	0.484
262.000	210.588	80.009	19.995	103.935	19.981	4.854	0.506
264.000	211.545	80.010	19.994	103.938	19.979	5.016	0.483
266.000	212.604	80.009	19.995	103.938	19.980	4.907	0.539
268.000	213.613	80.009	19.995	103.940	19.977	5.144	0.538
270.000	214.596	80.010	19.994	103.936	19.976	5.242	0.477
272.000	215.582	80.009	19.994	103.937	19.977	5.183	0.478
274.000	216.561	80.007	19.994	103.939	19.975	5.323	0.472
276.000	217.552	80.009	19.995	103.934	19.975	5.274	0.488
278.000	218.587	80.009	19.993	103.933	19.976	5.222	0.497
280.000	219.565	80.009	19.993	103.938	19.974	5.344	0.503
282.000	220.532	80.010	19.994	103.941	19.974	5.368	0.486
284.000	221.490	80.010	19.993	103.937	19.977	5.175	0.485
286.000	222.488	80.010	19.994	103.938	19.974	5.391	0.484
288.000	223.489	80.010	19.994	103.933	19.975	5.307	0.492
290.000	224.494	80.010	19.993	103.937	19.970	5.638	0.497
292.000	225.482	80.009	19.996	103.933	19.969	5.690	0.491
294.000	226.487	80.010	19.995	103.935	19.973	5.459	0.494
296.000	227.476	80.008	19.994	103.926	19.972	5.518	0.506
298.000	228.541	80.009	19.995	103.922	19.974	5.378	0.508
300.000	229.505	80.009	19.994	103.923	19.970	5.680	0.469
302.000	230.554	80.009	19.995	103.926	19.972	5.496	0.481
304.000	231.561	80.009	19.995	103.927	19.971	5.555	0.533
306.000	232.531	80.010	19.995	103.928	19.971	5.554	0.510
308.000	233.570	80.012	19.993	103.931	19.972	5.523	0.520
310.000	234.559	80.011	19.994	103.929	19.973	5.404	0.513
312.000	235.565	80.011	19.993	103.919	19.975	5.311	0.540
314.000	236.553	80.011	19.993	103.936	19.973	5.412	0.491
316.000	237.579	80.011	19.994	103.931	19.972	5.482	0.518
318.000	238.547	80.011	19.992	103.930	19.969	5.698	0.499
320.000	239.543	80.010	19.993	103.913	19.970	5.622	0.507
322.000	240.571	80.011	19.994	103.927	19.975	5.316	0.493
324.000	241.560	80.011	19.993	103.920	19.974	5.396	0.509
326.000	242.615	80.010	19.994	103.921	19.973	5.464	0.494
328.000	243.598	80.010	19.994	103.914	19.974	5.369	0.492
330.000	244.627	80.012	19.993	103.912	19.973	5.451	0.491
332.000	245.614	80.014	19.994	103.912	19.972	5.523	0.501
334.000	246.608	80.012	19.993	103.911	19.975	5.261	0.487
336.000	247.632	80.012	19.993	103.913	19.976	5.211	0.504
338.000	248.656	80.013	19.994	103.905	19.975	5.297	0.498
340.000	249.647	80.011	19.993	103.912	19.977	5.120	0.526
342.000	250.692	80.009	19.993	103.922	19.975	5.307	0.502
344.000	251.684	80.008	19.993	103.911	19.976	5.211	0.504
346.000	252.679	80.008	19.993	103.908	19.978	5.100	0.502
348.000	253.674	80.010	19.994	103.912	19.976	5.234	0.458
350.000	254.691	80.009	19.994	103.919	19.978	5.070	0.527
352.000	255.714	80.010	19.993	103.914	19.979	5.016	0.514
354.000	256.662	80.009	19.993	103.920	19.979	4.975	0.523
356.000	257.686	80.008	19.994	103.911	19.977	5.147	0.521
358.000	258.695	80.011	19.993	103.906	19.980	4.942	0.513
360.000	259.666	80.009	19.994	103.901	19.980	4.968	0.493
362.000	260.606	80.010	19.993	103.900	19.977	5.123	0.498
364.000	261.600	80.010	19.993	103.898	19.980	4.925	0.484
366.000	262.624	80.010	19.993	103.904	19.981	4.898	0.508
368.000	263.578	80.010	19.994	103.906	19.980	4.944	0.451
370.000	264.591	80.009	19.994	103.902	19.982	4.828	0.466
372.000	265.587	80.009	19.994	103.911	19.982	4.777	0.501
374.000	266.604	80.009	19.995	103.908	19.980	4.919	0.517
376.000	267.587	80.009	19.993	103.898	19.984	4.652	0.493
378.000	268.657	80.010	19.995	103.909	19.985	4.594	0.532
380.001	269.595	80.008	19.994	103.900	19.983	4.756	0.527
382.000	270.618	80.009	19.994	103.913	19.985	4.586	0.502
384.000	271.677	80.009	19.994	103.900	19.985	4.610	0.521
386.000	272.699	80.010	19.993	103.899	19.984	4.639	0.496
388.000	273.721	80.010	19.995	103.900	19.986	4.524	0.477
390.000	274.707	80.010	19.994	103.907	19.987	4.448	0.504
392.000	275.716	80.009	19.995	103.910	19.985	4.582	0.487
394.000	276.727	80.010	19.995	103.906	19.985	4.605	0.500
396.000	277.772	80.009	19.995	103.918	19.988	4.401	0.509
398.000	278.787	80.009	19.996	103.903	19.989	4.325	0.511
400.000	279.764	80.011	19.995	103.900	19.989	4.308	0.505
402.000	280.779	80.009	19.995	103.899	19.989	4.312	0.509
404.000	281.781	80.010	19.993	103.899	19.985	4.582	0.483
406.000	282.793	80.010	19.994	103.900	19.990	4.243	0.503
408.000	283.813	80.009	19.994	103.902	19.991	4.127	0.515
410.000	284.803	80.011	19.993	103.901	19.988	4.387	0.495
412.000	285.816	80.011	19.994	103.901	19.991	4.187	0.512
414.000	286.868	80.011	19.995	103.901	19.992	4.119	0.518
416.000	287.872	80.013	19.993	103.898	19.995	3.903	0.502
418.000	288.866	80.011	19.994	103.899	19.994	3.928	0.521
420.000	289.904	80.011	19.993	103.897	19.992	4.123	0.496
422.000	290.921	80.011	19.993	103.896	19.992	4.060	0.520
424.000	291.932	80.011	19.993	103.898	19.992	4.088	0.529
426.000	292.955	80.009	19.993	103.897	19.993	4.025	0.498
428.000	293.956	80.010	19.994	103.894	19.991	4.128	0.509
430.000	294.983	80.009	19.994	103.894	19.994	3.916	0.534
432.000	295.953	80.009	19.993	103.896	19.996	3.788	0.502
434.000	296.925	80.009	19.993	103.897	19.994	3.943	0.496
436.000	297.934	80.010	19.994	103.896	19.993	4.012	0.498
438.000	298.971	80.009	19.993	103.885	19.996	3.809	0.520
440.000	299.961	80.009	19.994	103.890	19.996	3.774	0.503
442.000	300.953	80.010	19.993	103.894	19.997	3.753	0.468
444.000	301.929	80.009	19.994	103.884	19.994	3.922	0.499
446.000	302.967	80.011	19.993	103.895	19.998	3.654	0.504
448.000	303.963	80.010	19.994	103.891	19.996	3.782	0.490
450.000	304.951	80.010	19.993	103.890	19.994	3.951	0.506
452.000	305.955	80.009	19.994	103.888	19.998	3.695	0.482
454.000	306.980	80.009	19.994	103.893	19.999	3.620	0.523
456.000	307.916	80.007	19.995	103.894	19.999	3.595	0.503
458.000	308.933	80.008	19.994	103.898	19.997	3.724	0.492
460.000	309.903	80.009	19.995	103.887	19.996	3.790	0.508
462.000	310.919	80.009	19.994	103.892	19.996	3.802	0.496
464.000	311.943	80.009	19.994	103.898	19.994	3.975	0.506
466.000	312.973	80.009	19.994	103.876	19.995	3.854	0.540
468.001	313.929	80.010	19.993	103.883	19.997	3.731	0.504
470.000	314.922	80.011	19.993	103.896	19.996	3.782	0.516
472.000	315.889	80.011	19.994	103.895	19.996	3.780	0.485
474.000	316.833	80.010	19.994	103.892	19.994	3.926	0.473
476.000	317.816	80.010	19.993	103.890	19.992	4.054	0.504
478.000	318.791	80.011	19.995	103.878	19.997	3.722	0.457
480.000	319.756	80.009	19.995	103.889	19.996	3.796	0.501
482.000	320.730	80.010	19.994	103.880	19.990	4.243	0.513
484.000	321.661	80.009	19.995	103.894	19.993	4.006	0.479
486.000	322.614	80.008	19.996	103.883	19.990	4.257	0.465
488.000	323.607	80.009	19.995	103.894	19.988	4.337	0.493
490.000	324.597	80.009	19.996	103.891	19.985	4.559	0.532
492.000	325.577	80.012	19.995	103.893	19.985	4.574	0.511
494.000	326.588	80.011	19.994	103.894	19.984	4.621	0.508
496.000	327.526	80.010	19.994	103.894	19.982	4.817	0.481
498.000	328.512	80.012	19.994	103.895	19.983	4.724	0.489
500.000	329.528	80.011	19.994	103.896	19.977	5.145	0.506
502.000	330.511	80.012	19.993	103.894	19.976	5.208	0.472
504.000	331.501	80.011	19.993	103.894	19.975	5.264	0.465
506.000	332.524	80.009	19.994	103.895	19.968	5.774	0.505
508.000	333.560	80.010	19.994	103.894	19.966	5.938	0.545
510.000	334.553	80.009	19.994	103.897	19.963	6.137	0.514
512.000	335.622	80.008	19.995	103.877	19.965	5.981	0.517
514.000	336.570	80.009	19.994	103.888	19.964	6.078	0.485
516.000	337.629	80.008	19.994	103.890	19.963	6.170	0.542
518.000	338.638	80.007	19.993	103.894	19.959	6.428	0.528
520.000	339.670	80.008	19.994	103.899	19.961	6.274	0.505
522.000	340.652	80.009	19.995	103.899	19.960	6.376	0.500
524.000	341.705	80.007	19.994	103.898	19.960	6.386	0.513
526.000	342.715	80.009	19.993	103.898	19.958	6.483	0.498
528.000	343.740	80.010	19.993	103.897	19.957	6.536	0.495
530.000	344.816	80.009	19.994	103.893	19.960	6.317	0.526
532.000	345.839	80.009	19.994	103.904	19.959	6.420	0.514
534.000	346.854	80.009	19.994	103.906	19.959	6.430	0.524
536.000	347.936	80.010	19.993	103.901	19.960	6.384	0.543
538.000	348.970	80.010	19.994	103.901	19.957	6.590	0.512
540.000	349.999	80.009	19.993	103.898	19.957	6.541	0.514
542.000	351.073	80.009	19.995	103.900	19.955	6.688	0.512
544.000	352.117	80.009	19.994	103.895	19.958	6.468	0.532
546.000	353.167	80.010	19.993	103.902	19.954	6.762	0.501
548.000	354.240	80.009	19.994	103.902	19.955	6.673	0.530
550.000	355.277	80.011	19.994	103.884	19.956	6.642	0.535
552.000	356.308	80.010	19.994	103.871	19.959	6.409	0.518
554.001	357.343	80.011	19.994	103.876	19.956	6.610	0.513
556.000	358.377	80.010	19.995	103.876	19.962	6.198	0.536
558.000	359.378	80.010	19.994	103.886	19.963	6.116	0.506
560.000	360.428	80.011	19.994	103.892	19.961	6.274	0.497
562.000	361.460	80.010	19.994	103.896	19.957	6.581	0.493
564.000	362.473	80.010	19.994	103.886	19.954	6.776	0.487
566.000	363.550	80.010	19.994	103.883	19.952	6.926	0.567
568.000	364.521	80.011	19.994	103.881	19.955	6.719	0.526
570.000	365.583	80.010	19.995	103.886	19.954	6.754	0.527
572.000	366.560	80.010	19.995	103.895	19.953	6.864	0.464
574.000	367.630	80.010	19.995	103.885	19.950	7.023	0.506
576.000	368.587	80.009	19.994	103.887	19.950	7.024	0.480
578.000	369.623	80.011	19.994	103.883	19.953	6.828	0.508
580.000	370.624	80.011	19.994	103.870	19.954	6.742	0.486
582.000	371.682	80.012	19.995	103.878	19.955	6.676	0.497
584.000	372.706	80.011	19.994	103.862	19.955	6.676	0.493
586.000	373.788	80.011	19.994	103.860	19.958	6.464	0.533
588.000	374.776	80.010	19.994	103.878	19.960	6.378	0.498
590.000	375.841	80.009	19.995	103.872	19.967	5.842	0.509
592.000	376.869	80.008	19.996	103.882	19.965	5.970	0.522
594.000	377.880	80.009	19.994	103.873	19.966	5.960	0.500
596.000	378.906	80.008	19.994	103.883	19.970	5.641	0.512
598.000	379.921	80.010	19.994	103.875	19.973	5.453	0.482
600.000	380.978	80.008	19.994	103.879	19.973	5.438	0.519
602.000	381.974	80.009	19.993	103.888	19.973	5.440	0.518
604.000	382.988	80.009	19.994	103.879	19.969	5.707	0.494
606.000	383.995	80.009	19.993	103.879	19.972	5.487	0.498
608.001	385.030	80.009	19.993	103.873	19.974	5.370	0.484
610.000	386.030	80.009	19.993	103.875	19.973	5.440	0.519
612.001	387.087	80.008	19.994	103.865	19.973	5.399	0.509
614.000	388.035	80.010	19.994	103.869	19.968	5.767	0.487
616.000	389.091	80.009	19.994	103.867	19.969	5.710	0.524
618.000	390.068	80.010	19.993	103.862	19.967	5.846	0.500
620.000	391.093	80.009	19.995	103.859	19.966	5.930	0.509
622.000	392.122	80.008	19.994	103.861	19.967	5.877	0.490
624.000	393.186	80.010	19.994	103.860	19.966	5.909	0.521
626.000	394.194	80.009	19.993	103.861	19.965	5.975	0.530
628.000	395.211	80.008	19.994	103.861	19.961	6.273	0.506
630.000	396.248	80.011	19.993	103.861	19.958	6.457	0.542
632.000	397.216	80.011	19.993	103.859	19.960	6.360	0.455
634.000	398.238	80.011	19.993	103.858	19.958	6.475	0.495
636.000	399.279	80.012	19.995	103.866	19.957	6.531	0.524
638.000	400.256	80.011	19.994	103.863	19.955	6.698	0.501
640.000	401.291	80.011	19.994	103.796	19.956	6.607	0.505
642.000	402.320	80.010	19.994	103.905	19.950	7.023	0.523
644.000	403.367	80.010	19.994	103.907	19.950	7.027	0.527
646.000	404.330	80.011	19.995	103.857	19.950	7.044	0.518
648.000	405.392	80.009	19.995	103.861	19.939	7.846	0.499
650.000	406.398	80.010	19.994	103.860	19.937	8.011	0.518
652.000	407.409	80.009	19.996	103.861	19.934	8.180	0.505
654.000	408.418	80.009	19.995	103.861	19.927	8.709	0.513
656.000	409.450	80.010	19.993	103.860	19.920	9.158	0.483
658.000	410.485	80.011	19.993	103.860	19.916	9.491	0.511
660.001	411.534	80.012	19.994	103.859	19.909	9.922	0.542
662.000	412.569	80.010	19.994	103.858	19.902	10.459	0.526
664.000	413.582	80.012	19.993	103.858	19.896	10.909	0.520
666.001	414.548	80.010	19.994	103.859	19.887	11.522	0.513
668.000	415.517	80.010	19.993	103.855	19.875	12.391	0.489
670.000	416.582	80.008	19.995	103.853	19.868	12.853	0.533
672.000	417.558	80.008	19.994	103.846	19.860	13.446	0.489
674.000	418.566	80.007	19.995	103.859	19.845	14.459	0.500
676.000	419.615	80.008	19.995	103.855	19.836	15.142	0.476
678.001	420.598	80.007	19.995	103.843	19.824	15.971	0.522
680.000	421.677	80.008	19.996	103.845	19.812	16.804	0.541
682.000	422.643	80.009	19.996	103.847	19.798	17.799	0.484
684.000	423.657	80.009	19.995	103.825	19.784	18.802	0.484
686.000	424.671	80.008	19.995	103.837	19.769	19.872	0.529
688.000	425.696	80.010	19.994	103.839	19.752	21.036	0.519
690.000	426.665	80.010	19.994	103.827	19.734	22.335	0.511
692.000	427.681	80.011	19.994	103.830	19.709	24.068	0.501
694.000	428.673	80.010	19.994	103.829	19.690	25.430	0.506
696.000	429.667	80.011	19.995	103.821	19.665	27.222	0.500
698.000	430.640	80.010	19.993	103.827	19.635	29.313	0.492
700.000	431.693	80.009	19.994	103.826	19.605	31.425	0.496
702.000	432.696	80.008	19.995	103.819	19.576	33.538	0.529
704.000	433.712	80.008	19.993	103.816	19.542	35.924	0.509
706.000	434.735	80.009	19.995	103.815	19.503	38.633	0.531
708.000	435.776	80.009	19.995	103.810	19.460	41.689	0.539
710.000	436.761	80.009	19.994	103.815	19.410	45.250	0.516
712.000	437.731	80.009	19.995	103.820	19.359	48.809	0.506
714.000	438.737	80.010	19.994	103.804	19.308	52.458	0.510
716.000	439.741	80.011	19.993	103.787	19.255	56.197	0.509
718.000	440.778	80.011	19.994	103.783	19.197	60.250	0.488
720.000	441.774	80.012	19.993	103.782	19.138	64.434	0.491
722.000	442.748	80.011	19.994	103.782	19.074	68.974	0.494
724.000	443.742	80.012	19.994	103.770	19.008	73.628	0.497
726.000	444.727	80.009	19.994	103.768	18.940	78.432	0.489
728.000	445.682	80.010	19.994	103.749	18.866	83.628	0.437
730.000	446.714	80.011	19.993	103.754	18.786	89.232	0.458
732.000	447.727	80.009	19.993	103.744	18.702	95.204	0.529
734.000	448.716	80.010	19.994	103.730	18.608	101.802	0.488
736.000	449.742	80.011	19.994	103.728	18.516	108.272	0.505
738.000	450.726	80.010	19.995	103.719	18.412	115.649	0.502
740.000	451.689	80.011	19.993	103.694	18.309	122.905	0.499
742.000	452.706	80.012	19.994	103.676	18.202	130.404	0.499
744.000	453.712	80.012	19.993	103.664	18.087	138.525	0.479
746.000	454.708	80.011	19.993	103.663	17.957	147.645	0.516
748.000	455.731	80.011	19.993	103.658	17.823	157.072	0.490
750.000	456.684	80.011	19.994	103.637	17.690	166.379	0.490
752.000	457.712	80.010	19.994	103.622	17.539	176.994	0.489
754.000	458.671	80.009	19.994	103.596	17.386	187.774	0.497
756.000	459.666	80.008	19.995	103.579	17.225	199.052	0.477
758.000	460.683	80.008	19.994	103.566	17.051	211.235	0.496
760.000	461.746	80.009	19.995	103.536	16.870	223.856	0.506
762.001	462.714	80.009	19.994	103.511	16.685	236.802	0.534
764.000	463.688	80.011	19.995	103.477	16.482	250.993	0.508
766.000	464.676	80.009	19.995	103.462	16.270	265.836	0.487
768.000	465.676	80.010	19.995	103.433	16.055	280.821	0.507
770.000	466.685	80.010	19.995	103.378	15.838	296.027	0.515
772.000	467.726	80.009	19.997	103.329	15.606	312.265	0.506
774.000	468.689	80.009	19.997	103.298	15.362	329.021	0.498
776.000	469.722	80.009	19.996	103.264	15.110	346.410	0.517
778.000	470.741	80.009	19.996	103.219	14.843	365.200	0.512
780.000	471.744	80.008	19.993	103.164	14.580	383.560	0.508
782.000	472.771	80.009	19.995	103.187	14.317	401.665	0.505
784.000	473.818	80.010	19.995	103.069	14.053	420.042	0.524
786.001	474.848	80.009	19.994	102.985	13.788	438.439	0.550
788.000	475.846	80.009	19.993	102.909	13.531	456.087	0.518
790.000	476.811	80.009	19.993	102.965	13.275	473.692	0.481
792.000	477.821	80.010	19.994	102.869	13.026	491.149	0.478
794.000	478.831	80.009	19.994	102.835	12.796	507.672	0.482
796.000	479.873	80.011	19.994	102.807	12.597	522.003	0.473
798.000	480.897	80.011	19.994	102.751	12.452	531.930	0.500
800.000	481.937	80.011	19.993	102.668	12.344	539.035	0.494
802.000	482.916	80.012	19.994	102.627	12.252	545.254	0.492
804.000	483.932	80.012	19.993	102.686	12.174	550.691	0.520
806.000	484.885	80.030	19.997	102.794	12.112	555.178	0.497
808.000	485.855	80.029	19.997	102.816	12.080	557.713	0.434
810.000	486.979	80.010	19.995	102.733	12.100	556.611	0.526
812.000	488.097	80.011	19.995	102.662	12.166	552.295	0.520
814.000	488.556	80.009	19.995	102.648	12.300	543.200	0.412
816.000	489.687	80.010	19.995	102.656	12.500	529.464	0.366
818.000	490.807	80.010	19.994	102.696	12.758	511.637	0.449
820.000	491.852	80.012	19.994	102.759	13.072	490.323	0.485
822.000	492.774	80.012	19.993	102.811	13.450	464.329	0.580
824.000	493.816	80.012	19.994	102.867	13.885	434.064	0.449
826.000	494.817	80.012	19.994	102.929	14.368	400.523	0.462
828.000	495.906	80.012	19.993	102.960	14.880	364.723	0.544
830.000	496.924	80.011	19.993	103.088	15.419	327.014	0.528
832.000	498.070	80.010	19.995	103.216	15.957	289.209	0.514
834.000	499.091	80.010	19.995	103.323	16.481	252.316	0.534
836.000	500.165	80.009	19.995	103.416	16.981	217.024	0.535
838.000	501.237	80.009	19.994	103.525	17.446	184.210	0.529
840.000	502.304	80.009	19.994	103.615	17.866	154.509	0.512
842.000	503.442	80.009	19.995	103.703	18.239	128.143	0.541
844.000	504.518	80.008	19.995	103.759	18.565	105.090	0.558
846.000	505.605	80.009	19.994	103.799	18.853	84.661	0.516
848.000	506.681	80.009	19.994	103.829	19.093	67.672	0.509
850.000	507.769	80.008	19.994	103.863	19.297	53.256	0.529
852.000	508.885	80.008	19.994	103.870	19.465	41.345	0.558
854.000	509.971	80.010	19.994	103.881	19.599	31.918	0.544
856.000	511.054	80.008	19.994	103.886	19.707	24.233	0.538
858.000	512.115	80.008	19.995	103.882	19.795	18.048	0.527
860.000	513.217	80.008	19.996	103.886	19.859	13.481	0.564
862.000	514.325	80.007	19.994	103.884	19.909	9.987	0.524
864.000	515.411	80.007	19.995	103.862	19.942	7.642	0.541
866.000	516.480	80.006	19.995	103.859	19.965	6.002	0.553
868.000	517.559	80.007	19.995	103.844	19.980	4.905	0.552
870.000	518.628	80.007	19.994	103.827	19.992	4.099	0.584
872.000	519.718	80.007	19.995	103.821	20.001	3.450	0.565
874.000	520.737	80.008	19.994	103.814	20.005	3.140	0.557
876.001	521.807	80.008	19.995	103.797	20.010	2.840	0.517
878.000	522.865	80.009	19.994	103.765	20.015	2.475	0.545
880.000	523.917	80.010	19.994	103.717	20.015	2.439	0.510
882.000	524.969	80.010	19.993	103.644	20.015	2.457	0.520
884.000	526.064	80.010	19.994	103.615	20.020	2.076	0.547
886.000	527.059	80.010	19.993	103.643	20.019	2.199	0.520
888.000	528.099	80.010	19.994	103.700	20.019	2.146	0.481
890.000	529.127	80.010	19.994	103.745	20.022	1.960	0.513
892.000	530.161	80.010	19.995	103.776	20.023	1.874	0.519
894.000	531.157	80.010	19.994	103.795	20.023	1.896	0.508
896.000	532.213	80.010	19.993	103.815	20.023	1.886	0.526
898.000	533.199	80.010	19.993	103.817	20.022	1.946	0.489
900.000	534.171	80.011	19.994	103.828	20.022	1.985	0.483
902.000	535.161	80.012	19.993	103.820	20.023	1.872	0.514
904.000	536.200	80.011	19.992	103.822	20.024	1.808	0.493
906.000	537.141	80.012	19.992	103.821	20.024	1.799	0.470
908.000	538.136	80.012	19.993	103.832	20.024	1.830	0.478
910.000	539.136	80.011	19.993	103.840	20.025	1.783	0.479
912.000	540.114	80.010	19.993	103.840	20.023	1.911	0.480
914.000	541.128	80.010	19.993	103.841	20.027	1.612	0.485
916.000	542.103	80.010	19.992	103.841	20.024	1.851	0.509
918.000	543.144	80.010	19.994	103.833	20.024	1.818	0.488
920.000	544.172	80.008	19.993	103.842	20.025	1.767	0.524
922.000	545.202	80.009	19.992	103.830	20.027	1.587	0.497
924.000	546.242	80.008	19.994	103.831	20.026	1.662	0.519
926.000	547.352	80.008	19.994	103.832	20.025	1.725	0.527
928.000	548.374	80.009	19.993	103.832	20.026	1.658	0.538
930.000	549.457	80.009	19.994	103.827	20.026	1.693	0.541
932.000	550.506	80.008	19.994	103.830	20.026	1.682	0.515
934.000	551.579	80.009	19.995	103.831	20.029	1.481	0.539
936.000	552.642	80.009	19.994	103.824	20.026	1.709	0.516
938.000	553.693	80.009	19.994	103.823	20.026	1.656	0.526
940.001	554.778	80.010	19.994	103.820	20.025	1.760	0.543
942.000	555.858	80.009	19.994	103.820	20.026	1.647	0.525
944.000	556.884	80.009	19.995	103.819	20.027	1.596	0.514
946.000	557.989	80.009	19.993	103.821	20.026	1.701	0.507
948.000	559.051	80.009	19.993	103.820	20.028	1.520	0.542
950.000	560.101	80.008	19.994	103.825	20.028	1.544	0.536
952.000	561.156	80.009	19.994	103.820	20.028	1.557	0.532
954.000	562.224	80.009	19.995	103.819	20.031	1.322	0.535
956.000	563.268	80.008	19.994	103.823	20.030	1.379	0.517
958.000	564.295	80.009	19.994	103.825	20.030	1.385	0.516
960.000	565.373	80.010	19.996	103.824	20.033	1.196	0.525
962.000	566.407	80.010	19.995	103.828	20.031	1.347	0.511
964.000	567.456	80.011	19.994	103.834	20.028	1.517	0.506
966.001	568.518	80.010	19.995	103.838	20.030	1.373	0.548
968.000	569.601	80.011	19.995	103.832	20.031	1.299	0.560
970.000	570.652	80.011	19.994	103.841	20.031	1.291	0.561
972.000	571.689	80.010	19.993	103.824	20.034	1.130	0.522
974.000	572.758	80.011	19.993	103.828	20.028	1.515	0.544
976.001	573.833	80.010	19.994	103.836	20.026	1.678	0.547
978.000	574.917	80.010	19.994	103.834	20.029	1.464	0.525
980.000	575.992	80.010	19.994	103.838	20.030	1.400	0.565
982.000	577.034	80.010	19.993	103.844	20.030	1.375	0.530
984.000	578.122	80.011	19.993	103.841	20.033	1.209	0.513
986.000	579.131	80.011	19.994	103.829	20.030	1.367	0.511
988.000	580.192	80.011	19.992	103.833	20.033	1.184	0.541
990.000	581.207	80.012	19.992	103.834	20.035	1.071	0.523
992.000	582.286	80.011	19.994	103.824	20.031	1.336	0.517
994.001	583.309	80.010	19.993	103.825	20.030	1.423	0.521
996.000	584.358	80.009	19.993	103.828	20.032	1.270	0.530
998.000	585.376	80.009	19.993	103.826	20.031	1.359	0.504
1000.000	586.414	80.010	19.993	103.827	20.030	1.386	0.518
1002.000	587.463	80.010	19.992	103.833	20.033	1.163	0.527
1004.000	588.470	80.010	19.993	103.833	20.033	1.186	0.528
1006.001	589.500	80.010	19.993	103.832	20.034	1.130	0.532
1008.000	590.530	80.009	19.994	103.830	20.032	1.231	0.544
1010.000	591.549	80.010	19.993	103.827	20.032	1.268	0.511
1012.001	592.556	80.009	19.993	103.826	20.031	1.303	0.501
1014.000	593.605	80.011	19.993	103.836	20.031	1.340	0.529
1016.000	594.626	80.009	19.994	103.828	20.035	1.032	0.508
1018.000	595.650	80.010	19.994	103.824	20.030	1.404	0.475
1020.000	596.654	80.009	19.994	103.830	20.033	1.198	0.532
1022.000	597.688	80.010	19.993	103.826	20.030	1.388	0.523
1024.001	598.720	80.009	19.994	103.821	20.034	1.087	0.514
1026.000	599.733	80.009	19.995	103.821	20.031	1.359	0.521
1028.000	600.721	80.008	19.994	103.821	20.031	1.324	0.488
1030.000	601.740	80.009	19.995	103.823	20.035	1.017	0.487
1032.000	602.715	80.008	19.995	103.823	20.035	1.054	0.498
1034.000	603.726	80.009	19.994	103.823	20.032	1.227	0.498
1036.000	604.733	80.009	19.994	103.823	20.034	1.106	0.489
1038.000	605.741	80.011	19.993	103.820	20.031	1.320	0.523
1040.001	606.708	80.010	19.994	103.820	20.032	1.289	0.461
1042.000	607.714	80.010	19.994	103.823	20.035	1.030	0.499
1044.000	608.761	80.010	19.993	103.825	20.035	1.030	0.486
1046.000	609.739	80.011	19.994	103.827	20.035	1.071	0.491
1048.000	610.729	80.011	19.994	103.839	20.035	1.011	0.482
1050.000	611.729	80.009	19.993	103.828	20.034	1.124	0.495
1052.000	612.752	80.010	19.993	103.832	20.035	1.060	0.494
1054.001	613.769	80.009	19.994	103.820	20.033	1.215	0.511
1056.000	614.773	80.008	19.994	103.824	20.032	1.260	0.516
1058.000	615.802	80.010	19.994	103.822	20.031	1.308	0.516
1060.001	616.867	80.009	19.994	103.824	20.031	1.349	0.534
1062.000	617.813	80.009	19.993	103.824	20.032	1.262	0.486
1064.001	618.837	80.011	19.993	103.830	20.033	1.184	0.532
1066.001	619.878	80.011	19.992	103.824	20.032	1.252	0.542
1068.001	620.838	80.012	19.994	103.824	20.033	1.172	0.477
1070.001	621.838	80.012	19.993	103.824	20.032	1.248	0.479
1072.000	622.861	80.012	19.994	103.821	20.030	1.386	0.485
1074.000	623.870	80.012	19.993	103.818	20.030	1.398	0.510
1076.000	624.862	80.012	19.993	103.819	20.036	0.943	0.508
1078.000	625.881	80.010	19.993	103.820	20.031	1.314	0.508
1080.000	626.874	80.010	19.994	103.823	20.031	1.355	0.483
1082.000	627.914	80.009	19.994	103.820	20.035	1.052	0.510
1084.000	628.923	80.010	19.994	103.826	20.028	1.507	0.538
1086.001	629.899	80.010	19.994	103.829	20.034	1.083	0.479
1088.001	630.917	80.008	19.994	103.824	20.035	1.056	0.515
1090.000	631.940	80.009	19.993	103.829	20.034	1.104	0.536
1092.000	632.937	80.010	19.993	103.823	20.035	1.015	0.480
1094.000	633.940	80.010	19.994	103.820	20.036	0.984	0.502
1096.000	634.958	80.011	19.993	103.833	20.029	1.447	0.511
1098.000	635.986	80.010	19.994	103.823	20.033	1.182	0.484
1100.000	637.029	80.011	19.993	103.833	20.036	0.959	0.494
1102.000	638.022	80.011	19.993	103.828	20.034	1.087	0.496
1104.000	639.007	80.010	19.993	103.833	20.034	1.116	0.509
1106.000	640.036	80.011	19.993	103.839	20.035	1.054	0.488
1108.000	641.023	80.010	19.993	103.825	20.035	1.044	0.480
1110.001	642.005	80.009	19.993	103.827	20.034	1.118	0.503
1112.000	643.005	80.010	19.994	103.826	20.031	1.336	0.499
1114.000	644.011	80.009	19.993	103.828	20.034	1.101	0.489
1116.001	644.971	80.010	19.993	103.831	20.030	1.381	0.439
1118.000	645.995	80.010	19.994	103.828	20.036	0.976	0.505
1120.001	646.997	80.009	19.992	103.836	20.034	1.116	0.524
1122.001	647.987	80.010	19.994	103.831	20.037	0.914	0.485
1124.000	648.961	80.010	19.994	103.832	20.034	1.122	0.484
1126.000	649.991	80.011	19.993	103.834	20.033	1.153	0.504
1128.000	650.957	80.011	19.995	103.840	20.034	1.135	0.493
1130.000	651.970	80.011	19.994	103.835	20.036	0.960	0.503
1132.000	652.945	80.011	19.994	103.832	20.036	0.953	0.468
1134.000	653.975	80.009	19.994	103.840	20.033	1.182	0.530
1136.000	654.957	80.012	19.994	103.829	20.035	1.038	0.515
1138.000	655.968	80.010	19.994	103.828	20.036	0.988	0.518
1140.001	656.934	80.011	19.994	103.830	20.034	1.081	0.515
1142.000	657.886	80.011	19.994	103.824	20.038	0.852	0.459
1144.000	658.886	80.010	19.995	103.827	20.036	0.955	0.505
1146.001	659.863	80.011	19.995	103.833	20.035	1.044	0.488
1148.000	660.840	80.011	19.994	103.830	20.034	1.093	0.494
1150.001	661.839	80.011	19.994	103.832	20.035	1.065	0.482
1152.000	662.805	80.011	19.994	103.825	20.038	0.824	0.474
1154.000	663.823	80.012	19.994	103.825	20.036	1.007	0.536
1156.000	664.849	80.011	19.993	103.831	20.035	1.054	0.537
1158.001	665.797	80.012	19.995	103.826	20.036	0.939	0.497
1160.000	666.846	80.009	19.994	103.822	20.038	0.803	0.508
1162.000	667.851	80.010	19.994	103.823	20.037	0.896	0.536
1164.000	668.872	80.010	19.994	103.825	20.032	1.268	0.499
1166.000	669.890	80.010	19.993	103.827	20.033	1.163	0.526
1168.000	670.896	80.009	19.993	103.835	20.035	1.027	0.502
1170.001	671.919	80.010	19.994	103.834	20.036	0.962	0.481
1172.001	672.958	80.011	19.993	103.835	20.034	1.095	0.485
1174.000	674.043	80.010	19.994	103.832	20.033	1.161	0.514
1176.001	675.092	80.010	19.994	103.829	20.036	1.003	0.667
1178.001	676.109	80.009	19.994	103.841	20.037	0.906	0.490
1180.000	677.149	80.010	19.994	103.832	20.034	1.134	0.517
1182.000	678.149	80.010	19.994	103.838	20.034	1.079	0.527
1184.000	679.245	80.010	19.993	103.835	20.035	1.009	0.523
1186.000	680.226	80.010	19.993	103.833	20.031	1.316	0.497
1188.000	681.292	80.009	19.993	103.835	20.035	1.015	0.531
1190.000	682.329	80.009	19.993	103.834	20.034	1.138	0.507
1192.001	683.359	80.009	19.995	103.839	20.034	1.118	0.486
1194.001	684.384	80.008	19.994	103.841	20.036	0.982	0.504
1196.000	685.440	80.010	19.993	103.840	20.031	1.334	0.527
1198.000	686.461	80.011	19.993	103.836	20.032	1.262	0.506
1200.001	687.489	80.010	19.992	103.846	20.034	1.145	0.521
1202.000	688.512	80.009	19.993	103.835	20.035	1.052	0.512
1204.001	689.583	80.012	19.994	103.827	20.032	1.272	0.550
1206.000	690.615	80.013	19.993	103.836	20.032	1.268	0.539
1208.000	691.635	80.012	19.993	103.838	20.037	0.935	0.517
1210.000	692.647	80.011	19.994	103.835	20.037	0.904	0.492
1212.000	693.718	80.011	19.994	103.823	20.034	1.099	0.531
1214.001	694.726	80.011	19.994	103.825	20.037	0.894	0.568
1216.001	695.756	80.011	19.994	103.825	20.038	0.807	0.515
1218.000	696.744	80.010	19.993	103.823	20.036	0.959	0.532
1220.000	697.756	80.011	19.994	103.823	20.038	0.817	0.491
1222.001	698.783	80.011	19.993	103.828	20.038	0.813	0.482
1224.000	699.864	80.012	19.994	103.832	20.035	1.011	0.517
1226.000	700.807	80.010	19.993	103.820	20.034	1.141	0.486
1228.000	701.864	80.012	19.995	103.826	20.034	1.089	0.527
1230.000	702.897	80.011	19.994	103.824	20.033	1.170	0.520
1232.000	703.866	80.010	19.993	103.828	20.034	1.095	0.503
1234.000	704.910	80.013	19.993	103.835	20.037	0.887	0.520
1236.000	705.913	80.012	19.993	103.838	20.034	1.091	0.485
1238.001	706.908	80.011	19.994	103.835	20.033	1.200	0.521
1240.000	707.878	80.011	19.993	103.824	20.034	1.126	0.513
1242.000	708.882	80.010	19.993	103.829	20.032	1.270	0.493
1244.001	709.894	80.008	19.994	103.830	20.034	1.145	0.507
1246.000	710.892	80.008	19.994	103.829	20.033	1.157	0.507
1248.001	711.910	80.009	19.993	103.829	20.037	0.918	0.505
1250.000	712.897	80.009	19.993	103.825	20.031	1.295	0.507
1252.001	713.892	80.009	19.995	103.838	20.033	1.163	0.483
1254.001	714.900	80.010	19.993	103.852	20.033	1.182	0.492
1256.001	715.945	80.009	19.993	103.836	20.033	1.161	0.512
1258.000	716.944	80.009	19.993	103.840	20.035	1.025	0.488
1260.000	717.959	80.010	19.994	103.834	20.032	1.281	0.528
1262.000	718.936	80.010	19.995	103.828	20.032	1.264	0.523
1264.001	719.918	80.010	19.993	103.822	20.033	1.157	0.513
1266.001	720.911	80.010	19.994	103.822	20.031	1.291	0.498
1268.000	721.908	80.011	19.994	103.829	20.032	1.283	0.504
1270.000	722.881	80.010	19.993	103.842	20.030	1.425	0.504
1272.001	723.938	80.010	19.993	103.831	20.030	1.416	0.524
1274.001	724.961	80.010	19.993	103.831	20.029	1.455	0.522
1276.000	725.986	80.009	19.994	103.844	20.033	1.190	0.505
1278.000	727.072	80.008	19.993	103.842	20.031	1.318	0.532
1280.001	728.173	80.009	19.993	103.830	20.031	1.301	0.539
1282.000	729.252	80.009	19.995	103.827	20.032	1.275	0.574
1284.001	730.352	80.010	19.993	103.846	20.028	1.524	0.564
1286.001	731.438	80.010	19.993	103.838	20.032	1.254	0.564
1288.001	732.609	80.011	19.994	103.837	20.033	1.173	0.560
1290.001	733.716	80.011	19.993	103.847	20.033	1.180	0.585
1292.000	734.855	80.012	19.993	103.840	20.029	1.487	0.567
1294.000	735.962	80.011	19.993	103.829	20.029	1.464	0.555
1296.000	737.056	80.011	19.993	103.837	20.029	1.447	0.571
1298.000	738.184	80.010	19.993	103.849	20.027	1.625	0.558
1300.000	739.307	80.009	19.993	103.844	20.027	1.592	0.561
1302.000	740.488	80.011	19.993	103.832	20.031	1.295	0.580
1304.000	741.583	80.010	19.994	103.826	20.028	1.550	0.575
1306.000	742.727	80.009	19.993	103.834	20.028	1.559	0.575
1306.500	742.992	80.011	19.993	103.834	20.027	1.625	0.558