File: 01_Data/PE_Foam_Pipe_Insulation/MCC/PE_Foam_Pipe_Insulation_MCC_30K_min_220127_R1.txt
Sample ID:	C:\MCC\MCC Cal\Test\PE_Foam_Pipe_Insulation_MCC_30K_min_220127_R1.txt
Sample Weight (mg):	4.17
Heating Rate (C/s):	0.5
Combustor Temp (C):	900
N2 Flow Rate (cc/min):	80
O2 Flow Rate (cc/min):	20
Calibration File:	C:\MCC\MCC Cal\Coeff1 JN10440_30_210304.txt.txt
T Correction Coefficients:	0	1.024463	0
Time Shift (s):	14
*
Time (s)	Temperature (C)	N2 flow rate (cc/min)	O2 flow rate (cc/min)	Flow Rate (cc/min)	Oxygen (%)	HRR (W/g)	Heating rate (C/s)
0.000	113.571	80.009	19.994	103.769	20.170	-0.435	0.005
1.500	113.568	80.007	19.994	103.761	20.169	-0.359	-0.000
3.000	113.543	80.007	19.993	103.764	20.170	-0.446	-0.016
4.500	113.547	80.008	19.994	103.768	20.168	-0.234	0.001
6.000	113.550	80.008	19.993	103.765	20.169	-0.325	0.011
7.500	113.532	80.008	19.994	103.767	20.170	-0.414	-0.000
9.000	113.515	80.009	19.993	103.773	20.169	-0.357	-0.011
10.500	113.545	80.008	19.994	103.770	20.170	-0.448	0.018
12.001	113.503	80.009	19.994	103.772	20.166	-0.145	-0.027
13.500	113.498	80.008	19.993	103.772	20.169	-0.376	0.001
15.000	113.490	80.011	19.993	103.781	20.166	-0.119	0.009
16.500	113.502	80.009	19.993	103.800	20.161	0.291	-0.003
18.000	113.513	80.010	19.992	103.832	20.161	0.311	0.007
19.500	113.545	80.010	19.992	103.834	20.158	0.472	0.019
21.000	113.543	80.010	19.993	103.871	20.152	0.962	0.013
22.500	113.621	80.011	19.993	103.885	20.153	0.879	0.048
24.000	113.667	80.009	19.992	103.888	20.148	1.249	0.025
25.500	113.759	80.010	19.994	103.920	20.147	1.340	0.065
27.000	113.852	80.009	19.993	103.938	20.142	1.713	0.058
28.500	113.964	80.010	19.992	103.957	20.139	1.949	0.073
30.000	114.141	80.010	19.993	103.981	20.139	2.013	0.107
31.500	114.284	80.009	19.992	103.986	20.131	2.585	0.091
33.000	114.473	80.010	19.993	103.980	20.134	2.368	0.120
34.500	114.654	80.009	19.994	103.980	20.132	2.547	0.121
36.000	114.947	80.010	19.993	103.978	20.133	2.462	0.186
37.500	115.140	80.010	19.994	103.977	20.131	2.624	0.148
39.000	115.416	80.010	19.994	103.990	20.128	2.833	0.191
40.501	115.679	80.010	19.994	104.007	20.130	2.666	0.184
42.000	115.983	80.011	19.993	104.003	20.128	2.845	0.197
43.500	116.326	80.012	19.994	103.996	20.125	3.048	0.210
45.000	116.619	80.011	19.994	103.997	20.124	3.132	0.206
46.500	116.942	80.012	19.994	104.005	20.121	3.358	0.242
48.000	117.306	80.010	19.993	104.009	20.120	3.498	0.237
49.500	117.670	80.009	19.993	104.012	20.119	3.519	0.245
51.000	118.050	80.009	19.994	104.010	20.120	3.451	0.257
52.500	118.474	80.008	19.993	104.009	20.121	3.371	0.297
54.000	118.907	80.008	19.993	104.011	20.120	3.473	0.294
55.500	119.293	80.009	19.993	104.005	20.122	3.311	0.266
57.000	119.765	80.008	19.994	104.002	20.124	3.126	0.294
58.500	120.150	80.009	19.994	104.002	20.126	3.029	0.263
60.001	120.628	80.009	19.993	103.998	20.124	3.186	0.318
61.500	121.061	80.009	19.993	103.998	20.120	3.469	0.292
63.000	121.560	80.009	19.995	104.000	20.123	3.261	0.324
64.500	122.085	80.008	19.995	104.009	20.124	3.122	0.355
66.000	122.579	80.008	19.993	104.013	20.124	3.171	0.337
67.500	123.065	80.007	19.995	104.014	20.123	3.199	0.333
69.001	123.594	80.008	19.994	104.017	20.120	3.444	0.333
70.500	124.145	80.008	19.994	104.020	20.121	3.363	0.372
72.000	124.718	80.009	19.995	104.020	20.122	3.288	0.373
73.500	125.198	80.008	19.995	104.020	20.123	3.265	0.337
75.000	125.778	80.009	19.995	104.014	20.122	3.321	0.395
76.501	126.307	80.007	19.994	104.019	20.121	3.410	0.347
78.001	126.880	80.009	19.996	104.022	20.121	3.401	0.399
79.500	127.497	80.008	19.995	104.020	20.120	3.497	0.391
81.000	128.024	80.008	19.994	104.024	20.121	3.397	0.354
82.500	128.624	80.009	19.994	104.019	20.122	3.329	0.399
84.000	129.251	80.008	19.994	104.022	20.118	3.653	0.417
85.500	129.847	80.008	19.994	104.032	20.119	3.521	0.392
87.000	130.466	80.007	19.993	104.030	20.121	3.399	0.402
88.501	131.073	80.007	19.993	104.019	20.121	3.365	0.397
90.000	131.688	80.008	19.993	104.019	20.120	3.493	0.393
91.500	132.351	80.008	19.993	104.032	20.121	3.388	0.421
93.000	132.934	80.007	19.994	104.035	20.120	3.488	0.382
94.500	133.615	80.007	19.992	104.038	20.117	3.701	0.459
96.000	134.253	80.008	19.995	104.040	20.119	3.554	0.410
97.501	134.891	80.009	19.995	104.027	20.118	3.623	0.445
99.000	135.578	80.009	19.993	104.022	20.117	3.678	0.449
100.501	136.237	80.010	19.993	104.029	20.120	3.502	0.423
102.000	136.942	80.010	19.993	104.026	20.118	3.602	0.474
103.500	137.628	80.011	19.993	104.025	20.120	3.463	0.481
105.000	138.290	80.011	19.993	104.019	20.119	3.576	0.464
106.500	138.985	80.011	19.994	104.023	20.116	3.748	0.446
108.000	139.710	80.009	19.994	104.027	20.117	3.697	0.466
109.501	140.421	80.009	19.993	104.028	20.120	3.497	0.484
111.000	141.075	80.009	19.993	104.043	20.123	3.205	0.437
112.500	141.755	80.008	19.993	104.044	20.121	3.391	0.460
114.000	142.489	80.009	19.993	104.025	20.121	3.375	0.485
115.500	143.234	80.010	19.994	104.026	20.121	3.354	0.494
117.000	143.982	80.010	19.994	104.034	20.125	3.078	0.511
118.500	144.682	80.009	19.994	104.032	20.122	3.303	0.479
120.000	145.395	80.012	19.993	104.024	20.121	3.420	0.465
121.500	146.137	80.011	19.993	104.019	20.122	3.322	0.481
123.000	146.864	80.011	19.992	104.024	20.121	3.358	0.490
124.500	147.644	80.012	19.992	104.020	20.121	3.418	0.505
126.000	148.371	80.011	19.993	104.019	20.121	3.352	0.462
127.500	149.089	80.012	19.993	104.016	20.123	3.214	0.490
129.000	149.909	80.011	19.993	104.017	20.119	3.556	0.532
130.500	150.614	80.011	19.993	104.014	20.121	3.384	0.466
132.000	151.360	80.010	19.994	104.014	20.124	3.177	0.506
133.500	152.106	80.010	19.994	104.015	20.125	3.075	0.506
135.000	152.856	80.009	19.994	104.016	20.121	3.352	0.529
136.500	153.595	80.008	19.994	104.014	20.124	3.182	0.497
138.000	154.347	80.009	19.994	104.015	20.123	3.267	0.513
139.500	155.104	80.007	19.994	104.015	20.122	3.286	0.518
141.000	155.839	80.008	19.994	104.019	20.122	3.275	0.464
142.500	156.600	80.008	19.994	104.021	20.124	3.128	0.489
144.000	157.331	80.008	19.994	104.017	20.124	3.158	0.501
145.500	158.141	80.009	19.993	104.016	20.123	3.211	0.516
147.000	158.861	80.008	19.994	104.016	20.119	3.558	0.486
148.500	159.635	80.009	19.993	104.015	20.123	3.220	0.515
150.000	160.409	80.008	19.993	104.014	20.124	3.173	0.517
151.500	161.162	80.008	19.994	104.014	20.123	3.262	0.500
153.000	161.946	80.010	19.994	104.013	20.122	3.291	0.537
154.500	162.671	80.008	19.993	104.018	20.122	3.287	0.480
156.000	163.459	80.008	19.994	104.016	20.120	3.453	0.522
157.500	164.251	80.009	19.993	104.002	20.120	3.483	0.531
159.000	164.991	80.007	19.995	104.000	20.121	3.376	0.521
160.500	165.768	80.008	19.994	104.004	20.121	3.417	0.503
162.000	166.538	80.008	19.994	104.000	20.120	3.478	0.518
163.500	167.293	80.008	19.994	103.984	20.123	3.259	0.495
165.000	168.027	80.007	19.994	103.982	20.126	3.021	0.492
166.500	168.754	80.008	19.994	103.981	20.120	3.425	0.490
168.000	169.539	80.007	19.994	103.980	20.120	3.463	0.511
169.500	170.350	80.007	19.995	103.980	20.119	3.521	0.543
171.000	171.103	80.006	19.995	103.976	20.122	3.287	0.519
172.500	171.853	80.008	19.995	103.977	20.124	3.140	0.521
174.000	172.585	80.007	19.995	103.977	20.120	3.444	0.494
175.500	173.389	80.009	19.993	103.970	20.122	3.297	0.539
177.000	174.109	80.008	19.994	103.971	20.121	3.395	0.511
178.500	174.870	80.008	19.994	103.974	20.120	3.461	0.523
180.000	175.587	80.009	19.994	103.974	20.119	3.523	0.478
181.500	176.334	80.010	19.993	103.975	20.125	3.087	0.496
183.000	177.092	80.009	19.994	103.975	20.122	3.274	0.514
184.500	177.851	80.010	19.993	103.976	20.120	3.461	0.519
186.000	178.612	80.011	19.993	103.974	20.124	3.161	0.495
187.500	179.345	80.010	19.994	103.975	20.119	3.504	0.476
189.001	180.070	80.011	19.993	103.976	20.122	3.319	0.470
190.500	180.849	80.010	19.994	103.978	20.121	3.372	0.517
192.000	181.503	80.010	19.994	103.975	20.121	3.399	0.433
193.500	182.244	80.010	19.994	103.973	20.120	3.450	0.475
195.000	183.031	80.009	19.993	103.974	20.119	3.531	0.520
196.500	183.807	80.010	19.994	103.975	20.119	3.540	0.489
198.000	184.538	80.009	19.993	103.971	20.117	3.725	0.503
199.500	185.242	80.009	19.994	103.971	20.118	3.602	0.476
201.000	185.991	80.010	19.993	103.974	20.114	3.895	0.497
202.500	186.738	80.010	19.993	103.976	20.121	3.386	0.496
204.000	187.475	80.009	19.993	103.964	20.116	3.735	0.496
205.500	188.198	80.009	19.993	103.969	20.118	3.627	0.474
207.000	188.933	80.012	19.993	103.968	20.119	3.572	0.484
208.500	189.683	80.011	19.993	103.962	20.114	3.917	0.494
210.000	190.397	80.011	19.994	103.970	20.117	3.719	0.477
211.500	191.134	80.012	19.992	103.975	20.115	3.885	0.469
213.000	191.858	80.011	19.992	103.965	20.115	3.885	0.488
214.500	192.580	80.011	19.991	103.966	20.112	4.048	0.479
216.000	193.312	80.010	19.994	103.974	20.113	3.995	0.502
217.500	194.048	80.009	19.994	103.978	20.113	4.031	0.479
219.000	194.705	80.009	19.994	103.978	20.114	3.961	0.424
220.500	195.439	80.008	19.993	103.975	20.112	4.050	0.499
222.001	196.207	80.007	19.993	103.972	20.113	3.997	0.510
223.500	196.899	80.007	19.992	103.976	20.111	4.124	0.482
225.000	197.616	80.008	19.994	103.979	20.112	4.067	0.460
226.500	198.376	80.007	19.993	103.975	20.112	4.046	0.501
228.000	199.089	80.008	19.993	103.975	20.112	4.088	0.478
229.500	199.803	80.008	19.994	103.972	20.111	4.186	0.470
231.000	200.516	80.007	19.993	103.965	20.110	4.267	0.466
232.500	201.255	80.008	19.994	103.957	20.108	4.412	0.516
234.000	201.990	80.008	19.993	103.956	20.110	4.203	0.475
235.500	202.723	80.008	19.993	103.952	20.110	4.250	0.503
237.000	203.454	80.008	19.995	103.954	20.110	4.252	0.486
238.500	204.158	80.008	19.994	103.958	20.108	4.390	0.464
240.000	204.905	80.008	19.994	103.965	20.108	4.403	0.480
241.500	205.654	80.009	19.995	103.966	20.103	4.782	0.483
243.000	206.360	80.009	19.994	103.960	20.107	4.465	0.481
244.500	207.116	80.009	19.993	103.959	20.103	4.818	0.504
246.000	207.833	80.008	19.993	103.954	20.108	4.399	0.460
247.500	208.574	80.009	19.993	103.959	20.107	4.499	0.519
249.000	209.331	80.008	19.994	103.959	20.109	4.309	0.492
250.500	210.072	80.008	19.994	103.960	20.110	4.267	0.481
252.000	210.810	80.008	19.994	103.967	20.107	4.509	0.500
253.500	211.541	80.008	19.995	103.971	20.107	4.451	0.494
255.000	212.283	80.008	19.995	103.968	20.107	4.488	0.504
256.500	213.008	80.006	19.994	103.956	20.104	4.730	0.473
258.000	213.778	80.008	19.994	103.960	20.104	4.668	0.518
259.500	214.480	80.007	19.994	103.959	20.105	4.662	0.482
261.000	215.243	80.008	19.994	103.952	20.100	4.981	0.510
262.500	216.003	80.008	19.995	103.945	20.101	4.906	0.509
264.000	216.709	80.008	19.995	103.937	20.101	4.913	0.456
265.500	217.463	80.009	19.994	103.941	20.100	4.999	0.500
267.000	218.228	80.009	19.995	103.950	20.099	5.101	0.501
268.500	218.916	80.009	19.993	103.940	20.102	4.836	0.476
270.000	219.659	80.007	19.995	103.947	20.104	4.730	0.508
271.500	220.441	80.009	19.993	103.952	20.103	4.783	0.522
273.000	221.172	80.010	19.994	103.946	20.101	4.928	0.496
274.500	221.875	80.009	19.993	103.945	20.102	4.873	0.454
276.000	222.612	80.009	19.995	103.955	20.102	4.886	0.506
277.500	223.362	80.008	19.994	103.961	20.097	5.226	0.503
279.000	224.131	80.009	19.993	103.946	20.098	5.198	0.494
280.500	224.838	80.009	19.992	103.946	20.098	5.198	0.475
282.000	225.616	80.009	19.993	103.953	20.097	5.272	0.527
283.500	226.339	80.010	19.992	103.946	20.101	4.902	0.493
285.000	227.101	80.010	19.994	103.943	20.098	5.200	0.513
286.500	227.880	80.009	19.993	103.961	20.099	5.091	0.498
288.000	228.623	80.010	19.993	103.957	20.098	5.189	0.494
289.500	229.389	80.010	19.992	103.948	20.098	5.136	0.511
291.000	230.185	80.011	19.993	103.944	20.097	5.285	0.510
292.500	230.880	80.009	19.992	103.949	20.098	5.187	0.478
294.000	231.628	80.011	19.993	103.946	20.101	4.906	0.512
295.500	232.393	80.012	19.993	103.940	20.094	5.463	0.520
297.000	233.175	80.011	19.992	103.939	20.098	5.148	0.526
298.500	233.942	80.010	19.992	103.938	20.098	5.168	0.517
300.000	234.646	80.010	19.992	103.937	20.095	5.412	0.472
301.500	235.480	80.009	19.993	103.943	20.094	5.487	0.556
303.000	236.173	80.009	19.993	103.943	20.093	5.552	0.468
304.500	236.947	80.010	19.993	103.936	20.097	5.227	0.508
306.000	237.711	80.009	19.994	103.935	20.094	5.472	0.513
307.500	238.466	80.010	19.993	103.936	20.096	5.299	0.506
309.000	239.190	80.008	19.993	103.940	20.097	5.267	0.490
310.500	239.932	80.010	19.994	103.940	20.098	5.182	0.499
312.000	240.713	80.009	19.994	103.937	20.100	5.051	0.515
313.501	241.454	80.010	19.992	103.933	20.097	5.287	0.464
315.000	242.165	80.008	19.992	103.934	20.099	5.114	0.487
316.500	242.942	80.009	19.993	103.937	20.100	4.989	0.525
318.000	243.710	80.010	19.992	103.934	20.101	4.916	0.511
319.500	244.473	80.009	19.993	103.937	20.099	5.069	0.515
321.000	245.257	80.009	19.994	103.925	20.100	5.040	0.518
322.500	245.995	80.010	19.993	103.929	20.101	4.940	0.493
324.000	246.774	80.009	19.994	103.937	20.101	4.927	0.536
325.500	247.565	80.009	19.993	103.935	20.102	4.896	0.519
327.000	248.307	80.009	19.993	103.936	20.098	5.202	0.493
328.500	249.086	80.009	19.994	103.933	20.104	4.723	0.508
330.000	249.845	80.009	19.993	103.927	20.101	4.925	0.512
331.500	250.652	80.008	19.994	103.932	20.103	4.787	0.532
333.000	251.374	80.008	19.995	103.935	20.104	4.676	0.498
334.500	252.204	80.007	19.994	103.925	20.105	4.600	0.534
336.000	252.924	80.009	19.994	103.934	20.103	4.778	0.460
337.500	253.647	80.010	19.993	103.937	20.104	4.691	0.512
339.001	254.416	80.009	19.995	103.935	20.103	4.806	0.515
340.500	255.115	80.008	19.994	103.940	20.104	4.742	0.472
342.000	255.928	80.010	19.993	103.933	20.105	4.665	0.529
343.500	256.693	80.008	19.995	103.931	20.105	4.598	0.502
345.000	257.431	80.010	19.993	103.936	20.103	4.748	0.485
346.500	258.153	80.010	19.993	103.927	20.108	4.431	0.485
348.000	258.947	80.008	19.994	103.930	20.106	4.559	0.526
349.500	259.686	80.011	19.993	103.933	20.106	4.557	0.484
351.000	260.423	80.010	19.994	103.936	20.108	4.414	0.506
352.500	261.160	80.009	19.992	103.930	20.104	4.680	0.501
354.000	261.906	80.009	19.995	103.934	20.106	4.510	0.479
355.500	262.654	80.009	19.994	103.933	20.106	4.544	0.488
357.000	263.409	80.009	19.993	103.914	20.108	4.431	0.485
358.500	264.147	80.008	19.994	103.922	20.107	4.506	0.500
360.000	264.896	80.008	19.995	103.929	20.110	4.233	0.493
361.500	265.688	80.009	19.994	103.925	20.108	4.416	0.511
363.000	266.423	80.008	19.994	103.927	20.109	4.320	0.497
364.500	267.171	80.009	19.994	103.923	20.112	4.073	0.497
366.000	267.888	80.010	19.994	103.921	20.109	4.303	0.477
367.500	268.630	80.009	19.993	103.921	20.111	4.133	0.502
369.000	269.367	80.011	19.995	103.925	20.112	4.116	0.477
370.500	270.138	80.010	19.993	103.926	20.115	3.867	0.496
372.000	270.920	80.012	19.992	103.920	20.114	3.891	0.526
373.500	271.682	80.012	19.991	103.916	20.113	4.031	0.529
375.001	272.416	80.011	19.992	103.908	20.112	4.108	0.493
376.501	273.176	80.011	19.994	103.912	20.112	4.046	0.504
378.000	273.937	80.010	19.993	103.922	20.116	3.759	0.524
379.500	274.686	80.011	19.993	103.914	20.114	3.937	0.500
381.000	275.437	80.011	19.992	103.907	20.113	4.025	0.485
382.500	276.168	80.010	19.993	103.912	20.112	4.055	0.484
384.000	276.893	80.010	19.994	103.921	20.116	3.797	0.485
385.500	277.639	80.008	19.994	103.913	20.113	3.998	0.492
387.000	278.406	80.009	19.993	103.906	20.113	3.976	0.489
388.500	279.135	80.009	19.993	103.908	20.116	3.797	0.491
390.000	279.840	80.009	19.994	103.906	20.119	3.557	0.486
391.500	280.633	80.008	19.993	103.912	20.116	3.761	0.534
393.000	281.375	80.008	19.994	103.916	20.117	3.700	0.476
394.500	282.068	80.008	19.992	103.915	20.115	3.827	0.451
396.000	282.806	80.008	19.996	103.921	20.116	3.742	0.480
397.500	283.560	80.008	19.993	103.916	20.117	3.714	0.528
399.000	284.329	80.009	19.994	103.912	20.116	3.755	0.505
400.500	285.033	80.009	19.992	103.912	20.117	3.672	0.465
402.000	285.781	80.008	19.995	103.912	20.117	3.723	0.503
403.500	286.536	80.009	19.993	103.916	20.120	3.427	0.518
405.000	287.296	80.008	19.995	103.910	20.120	3.472	0.516
406.500	287.994	80.009	19.992	103.910	20.120	3.479	0.467
408.000	288.751	80.009	19.994	103.913	20.119	3.506	0.503
409.500	289.434	80.008	19.993	103.918	20.120	3.431	0.463
411.000	290.188	80.009	19.993	103.915	20.120	3.455	0.496
412.500	290.970	80.007	19.994	103.905	20.121	3.357	0.515
414.000	291.731	80.008	19.993	103.908	20.118	3.608	0.511
415.500	292.452	80.008	19.992	103.911	20.120	3.460	0.465
417.000	293.210	80.007	19.993	103.917	20.123	3.262	0.509
418.500	293.949	80.009	19.993	103.916	20.119	3.527	0.503
420.000	294.691	80.007	19.993	103.906	20.123	3.219	0.507
421.500	295.425	80.008	19.993	103.910	20.123	3.251	0.494
423.000	296.195	80.009	19.995	103.910	20.122	3.312	0.498
424.500	296.924	80.007	19.995	103.906	20.122	3.270	0.471
426.000	297.682	80.008	19.994	103.919	20.125	3.034	0.517
427.500	298.384	80.009	19.993	103.926	20.125	3.100	0.489
429.000	299.137	80.010	19.994	103.914	20.121	3.370	0.501
430.501	299.912	80.010	19.994	103.911	20.126	2.989	0.525
432.000	300.662	80.010	19.993	103.905	20.123	3.213	0.507
433.500	301.403	80.011	19.994	103.900	20.122	3.319	0.501
435.000	302.133	80.010	19.994	103.900	20.124	3.170	0.474
436.500	302.874	80.011	19.994	103.903	20.126	2.994	0.475
438.000	303.608	80.010	19.994	103.900	20.124	3.121	0.482
439.500	304.355	80.010	19.993	103.906	20.125	3.055	0.463
441.000	305.107	80.010	19.993	103.906	20.122	3.310	0.482
442.500	305.830	80.009	19.994	103.909	20.118	3.627	0.516
444.000	306.601	80.010	19.993	103.909	20.118	3.635	0.501
445.500	307.288	80.008	19.994	103.907	20.122	3.304	0.451
447.000	308.051	80.009	19.992	103.911	20.121	3.403	0.528
448.500	308.789	80.010	19.995	103.913	20.123	3.218	0.473
450.000	309.552	80.010	19.994	103.904	20.120	3.431	0.503
451.500	310.322	80.010	19.994	103.910	20.124	3.127	0.498
453.000	311.061	80.010	19.994	103.918	20.124	3.148	0.490
454.500	311.801	80.010	19.995	103.905	20.124	3.155	0.500
456.000	312.549	80.011	19.995	103.904	20.122	3.334	0.508
457.500	313.309	80.011	19.994	103.903	20.125	3.095	0.498
459.001	314.072	80.010	19.995	103.898	20.124	3.110	0.510
460.500	314.799	80.012	19.993	103.899	20.124	3.125	0.502
462.000	315.542	80.010	19.993	103.901	20.121	3.359	0.503
463.500	316.363	80.011	19.993	103.903	20.124	3.187	0.545
465.000	317.097	80.009	19.994	103.898	20.124	3.136	0.494
466.500	317.841	80.009	19.994	103.905	20.121	3.344	0.503
468.000	318.620	80.009	19.992	103.907	20.120	3.427	0.497
469.500	319.352	80.008	19.993	103.903	20.121	3.355	0.486
471.000	320.098	80.009	19.993	103.904	20.122	3.327	0.504
472.500	320.868	80.009	19.993	103.906	20.121	3.344	0.511
474.000	321.647	80.009	19.992	103.908	20.120	3.452	0.513
475.500	322.409	80.008	19.993	103.905	20.119	3.574	0.501
477.000	323.139	80.009	19.993	103.904	20.117	3.731	0.489
478.500	323.889	80.008	19.993	103.905	20.118	3.582	0.476
480.000	324.624	80.009	19.992	103.902	20.113	4.012	0.489
481.500	325.354	80.009	19.993	103.905	20.117	3.655	0.503
483.000	326.164	80.008	19.994	103.905	20.116	3.754	0.538
484.500	326.896	80.009	19.992	103.903	20.115	3.880	0.485
486.000	327.653	80.008	19.993	103.912	20.112	4.088	0.499
487.500	328.425	80.009	19.994	103.913	20.111	4.175	0.490
489.000	329.204	80.010	19.994	103.908	20.109	4.277	0.522
490.500	329.985	80.010	19.993	103.919	20.107	4.460	0.501
492.000	330.702	80.010	19.993	103.918	20.108	4.382	0.481
493.500	331.478	80.008	19.994	103.907	20.104	4.732	0.513
495.000	332.241	80.010	19.994	103.903	20.103	4.749	0.511
496.500	333.079	80.009	19.994	103.904	20.102	4.888	0.553
498.000	333.817	80.010	19.993	103.903	20.099	5.064	0.529
499.500	334.589	80.011	19.993	103.903	20.100	5.043	0.527
501.000	335.353	80.009	19.993	103.901	20.102	4.834	0.508
502.500	336.094	80.010	19.992	103.905	20.100	4.987	0.494
504.000	336.905	80.010	19.992	103.903	20.099	5.123	0.516
505.500	337.616	80.010	19.992	103.902	20.098	5.145	0.494
507.000	338.429	80.011	19.992	103.903	20.095	5.391	0.538
508.500	339.191	80.010	19.993	103.904	20.097	5.242	0.511
510.000	339.986	80.011	19.993	103.905	20.093	5.595	0.541
511.500	340.733	80.010	19.993	103.901	20.091	5.708	0.495
513.000	341.528	80.010	19.993	103.900	20.092	5.653	0.512
514.500	342.295	80.012	19.993	103.900	20.090	5.766	0.509
516.000	343.067	80.010	19.993	103.899	20.090	5.774	0.519
517.500	343.844	80.011	19.994	103.902	20.091	5.712	0.516
519.000	344.601	80.011	19.994	103.903	20.090	5.804	0.515
520.500	345.369	80.010	19.994	103.900	20.090	5.830	0.540
522.000	346.151	80.010	19.994	103.897	20.090	5.753	0.513
523.500	346.896	80.011	19.993	103.899	20.092	5.598	0.488
525.000	347.659	80.009	19.994	103.903	20.089	5.863	0.510
526.500	348.416	80.011	19.994	103.905	20.086	6.105	0.522
528.000	349.219	80.010	19.994	103.901	20.089	5.846	0.527
529.500	350.005	80.010	19.993	103.908	20.093	5.578	0.518
531.000	350.782	80.010	19.992	103.911	20.090	5.753	0.530
532.500	351.538	80.009	19.993	103.903	20.090	5.829	0.509
534.000	352.343	80.009	19.994	103.909	20.091	5.723	0.543
535.500	353.131	80.010	19.993	103.904	20.090	5.806	0.522
537.000	353.936	80.012	19.993	103.899	20.091	5.676	0.522
538.500	354.715	80.012	19.994	103.900	20.091	5.716	0.520
540.000	355.476	80.012	19.993	103.901	20.089	5.833	0.517
541.500	356.258	80.010	19.994	103.901	20.092	5.651	0.497
543.000	357.046	80.013	19.992	103.902	20.089	5.853	0.499
544.500	357.834	80.010	19.993	103.901	20.087	6.025	0.527
546.000	358.637	80.010	19.991	103.900	20.085	6.159	0.530
547.500	359.433	80.010	19.993	103.900	20.089	5.884	0.513
549.000	360.178	80.010	19.994	103.895	20.092	5.655	0.504
550.500	360.948	80.009	19.994	103.896	20.094	5.508	0.505
552.000	361.735	80.008	19.994	103.900	20.095	5.404	0.543
553.500	362.537	80.006	19.994	103.901	20.095	5.408	0.524
555.000	363.315	80.008	19.994	103.901	20.094	5.487	0.519
556.500	364.069	80.009	19.994	103.901	20.096	5.334	0.508
558.000	364.835	80.008	19.994	103.899	20.095	5.423	0.528
559.500	365.602	80.009	19.994	103.899	20.095	5.438	0.519
561.000	366.429	80.010	19.994	103.897	20.093	5.584	0.554
562.500	367.195	80.010	19.993	103.897	20.091	5.705	0.505
564.000	367.936	80.008	19.993	103.897	20.092	5.622	0.460
565.500	368.757	80.010	19.993	103.899	20.090	5.795	0.547
567.000	369.582	80.010	19.992	103.900	20.093	5.544	0.574
568.500	370.237	80.010	19.993	103.899	20.090	5.776	0.455
570.000	371.111	80.010	19.994	103.897	20.090	5.822	0.595
571.500	371.875	80.010	19.993	103.892	20.089	5.859	0.500
573.000	372.651	80.009	19.993	103.890	20.086	6.080	0.488
574.500	373.405	80.009	19.992	103.888	20.090	5.756	0.498
576.000	374.197	80.010	19.993	103.890	20.090	5.797	0.527
577.500	374.965	80.009	19.993	103.898	20.090	5.780	0.521
579.000	375.743	80.010	19.994	103.894	20.090	5.782	0.479
580.500	376.498	80.009	19.994	103.893	20.089	5.905	0.506
582.000	377.258	80.009	19.994	103.896	20.092	5.644	0.505
583.500	378.032	80.009	19.994	103.895	20.091	5.718	0.522
585.000	378.827	80.008	19.993	103.893	20.092	5.669	0.532
586.500	379.557	80.010	19.994	103.893	20.091	5.677	0.500
588.000	380.333	80.009	19.993	103.891	20.091	5.696	0.531
589.500	381.109	80.010	19.993	103.895	20.093	5.552	0.509
591.000	381.833	80.010	19.993	103.893	20.089	5.841	0.471
592.500	382.613	80.009	19.993	103.893	20.092	5.612	0.520
594.000	383.368	80.010	19.992	103.894	20.095	5.433	0.525
595.500	384.173	80.011	19.992	103.892	20.096	5.288	0.540
597.000	384.916	80.012	19.993	103.886	20.096	5.329	0.523
598.500	385.664	80.011	19.992	103.884	20.096	5.309	0.506
600.001	386.458	80.010	19.992	103.892	20.096	5.322	0.532
601.500	387.183	80.011	19.992	103.891	20.097	5.269	0.494
603.000	387.985	80.011	19.993	103.896	20.099	5.126	0.538
604.500	388.724	80.010	19.993	103.895	20.096	5.290	0.505
606.000	389.480	80.011	19.993	103.890	20.097	5.246	0.494
607.500	390.225	80.010	19.992	103.886	20.099	5.108	0.505
609.000	391.019	80.010	19.992	103.876	20.100	5.040	0.536
610.500	391.839	80.009	19.993	103.874	20.099	5.063	0.523
612.000	392.564	80.011	19.994	103.886	20.094	5.471	0.484
613.500	393.338	80.009	19.993	103.875	20.098	5.148	0.508
615.000	394.103	80.010	19.992	103.873	20.097	5.228	0.514
616.500	394.847	80.010	19.993	103.887	20.100	5.007	0.491
618.000	395.626	80.011	19.994	103.887	20.098	5.194	0.538
619.500	396.377	80.012	19.993	103.890	20.095	5.394	0.512
621.000	397.156	80.010	19.994	103.882	20.098	5.173	0.509
622.500	397.905	80.012	19.994	103.870	20.090	5.754	0.487
624.000	398.664	80.012	19.992	103.875	20.091	5.749	0.528
625.500	399.377	80.010	19.993	103.866	20.087	6.046	0.469
627.000	400.155	80.010	19.993	103.873	20.085	6.186	0.516
628.500	400.885	80.011	19.994	103.872	20.087	6.027	0.488
630.000	401.643	80.010	19.992	103.860	20.079	6.635	0.474
631.501	402.392	80.011	19.993	103.866	20.079	6.658	0.503
633.000	403.101	80.009	19.992	103.875	20.081	6.488	0.477
634.500	403.918	80.008	19.993	103.885	20.074	7.042	0.551
636.000	404.640	80.009	19.994	103.863	20.070	7.306	0.466
637.500	405.368	80.008	19.994	103.864	20.068	7.478	0.494
639.000	406.095	80.008	19.994	103.864	20.066	7.641	0.479
640.500	406.849	80.008	19.993	103.863	20.061	8.052	0.490
642.000	407.620	80.009	19.993	103.870	20.058	8.305	0.510
643.500	408.363	80.009	19.994	103.863	20.056	8.419	0.488
645.000	409.092	80.009	19.993	103.859	20.052	8.717	0.487
646.500	409.828	80.009	19.994	103.860	20.050	8.931	0.481
648.000	410.618	80.009	19.995	103.859	20.042	9.516	0.528
649.500	411.358	80.009	19.994	103.857	20.038	9.867	0.473
651.000	412.108	80.009	19.994	103.859	20.036	9.984	0.492
652.500	412.824	80.008	19.994	103.861	20.032	10.329	0.504
654.000	413.586	80.010	19.995	103.858	20.024	10.880	0.498
655.500	414.310	80.011	19.993	103.858	20.019	11.305	0.460
657.000	415.081	80.010	19.994	103.860	20.016	11.543	0.514
658.500	415.837	80.011	19.995	103.863	20.011	11.964	0.494
660.000	416.596	80.010	19.993	103.864	20.004	12.506	0.499
661.500	417.336	80.009	19.993	103.861	19.995	13.156	0.477
663.000	418.077	80.009	19.993	103.857	19.991	13.508	0.483
664.500	418.847	80.008	19.993	103.857	19.985	13.924	0.503
666.000	419.622	80.009	19.993	103.862	19.975	14.759	0.507
667.500	420.390	80.009	19.993	103.860	19.969	15.212	0.494
669.000	421.115	80.008	19.993	103.860	19.959	15.995	0.477
670.500	421.806	80.009	19.994	103.861	19.950	16.681	0.468
672.000	422.574	80.009	19.993	103.859	19.945	17.081	0.509
673.500	423.347	80.010	19.994	103.858	19.935	17.839	0.522
675.000	424.086	80.009	19.994	103.850	19.923	18.778	0.495
676.500	424.828	80.009	19.994	103.849	19.913	19.506	0.500
678.000	425.624	80.010	19.993	103.849	19.900	20.583	0.519
679.500	426.323	80.010	19.993	103.853	19.887	21.589	0.475
681.000	427.078	80.011	19.993	103.860	19.873	22.675	0.517
682.500	427.801	80.010	19.993	103.856	19.860	23.656	0.476
684.000	428.592	80.011	19.992	103.840	19.844	24.926	0.518
685.500	429.337	80.010	19.993	103.851	19.829	26.062	0.506
687.000	430.067	80.010	19.993	103.848	19.815	27.152	0.479
688.500	430.818	80.011	19.994	103.834	19.794	28.748	0.484
690.000	431.569	80.010	19.993	103.847	19.776	30.176	0.485
691.500	432.345	80.010	19.993	103.831	19.754	31.876	0.535
693.000	433.077	80.009	19.992	103.822	19.735	33.348	0.481
694.500	433.790	80.009	19.993	103.823	19.712	35.108	0.476
696.000	434.561	80.011	19.994	103.830	19.685	37.236	0.539
697.500	435.317	80.010	19.993	103.833	19.658	39.308	0.489
699.000	436.094	80.010	19.993	103.824	19.635	41.156	0.516
700.500	436.816	80.012	19.992	103.818	19.604	43.569	0.475
702.000	437.584	80.011	19.993	103.818	19.572	46.029	0.517
703.500	438.328	80.010	19.993	103.820	19.537	48.692	0.479
705.000	439.044	80.011	19.994	103.814	19.503	51.398	0.467
706.500	439.865	80.012	19.993	103.809	19.466	54.258	0.565
708.000	440.629	80.012	19.993	103.817	19.426	57.303	0.499
709.500	441.371	80.012	19.993	103.805	19.388	60.307	0.468
711.000	442.128	80.010	19.997	103.801	19.341	63.972	0.535
712.500	442.910	80.010	19.996	103.803	19.293	67.628	0.530
714.000	443.665	80.009	19.995	103.792	19.249	71.030	0.492
715.500	444.413	80.009	19.994	103.785	19.196	75.162	0.517
717.000	445.183	80.008	19.994	103.776	19.146	79.053	0.477
718.500	445.978	80.008	19.994	103.766	19.096	82.944	0.539
720.000	446.775	80.010	19.994	103.755	19.035	87.632	0.529
721.500	447.584	80.008	19.994	103.768	18.974	92.424	0.558
723.000	448.315	80.009	19.994	103.766	18.909	97.429	0.490
724.500	449.109	80.008	19.994	103.745	18.844	102.453	0.518
726.000	449.911	80.008	19.994	103.742	18.782	107.273	0.551
727.500	450.692	80.008	19.994	103.724	18.721	111.939	0.516
729.000	451.459	80.008	19.994	103.705	18.631	118.902	0.499
730.500	452.235	80.008	19.993	103.709	18.566	123.989	0.504
732.000	452.997	80.009	19.993	103.724	18.477	130.842	0.558
733.500	453.838	80.009	19.993	103.714	18.391	137.427	0.546
735.000	454.610	80.009	19.993	103.703	18.302	144.359	0.556
736.500	455.401	80.008	19.994	103.685	18.208	151.645	0.498
738.000	456.077	80.008	19.993	103.667	18.114	158.929	0.477
739.500	457.153	80.008	19.994	103.663	18.013	166.665	0.651
741.000	458.004	80.010	19.995	103.657	17.914	174.278	0.692
742.500	458.614	80.007	19.994	103.626	17.805	182.679	0.540
744.000	458.735	80.008	19.994	103.596	17.698	191.003	0.190
745.500	459.957	80.007	19.994	103.597	17.579	200.228	0.697
747.000	460.834	80.008	19.994	103.599	17.456	209.687	0.582
748.500	461.377	80.009	19.994	103.586	17.331	219.289	0.534
750.000	462.317	80.009	19.993	103.559	17.204	229.057	0.501
751.500	462.990	80.008	19.994	103.523	17.072	239.207	0.453
753.000	463.738	80.009	19.994	103.496	16.930	250.094	0.499
754.500	464.495	80.009	19.993	103.492	16.780	261.599	0.521
756.000	465.255	80.009	19.995	103.494	16.627	273.384	0.520
757.500	465.998	80.009	19.994	103.484	16.464	285.871	0.540
759.000	466.817	80.010	19.993	103.454	16.299	298.563	0.552
760.500	467.562	80.010	19.994	103.422	16.135	311.203	0.492
762.001	468.331	80.010	19.993	103.386	15.971	323.803	0.521
763.500	469.061	80.009	19.993	103.356	15.794	337.522	0.534
765.000	469.875	80.011	19.994	103.316	15.618	350.840	0.533
766.500	470.685	80.010	19.993	103.304	15.444	364.077	0.553
768.000	471.461	80.011	19.993	103.274	15.251	378.842	0.523
769.500	472.236	80.010	19.993	103.250	15.062	393.154	0.533
771.000	473.086	80.010	19.993	103.225	14.871	407.655	0.543
772.500	473.845	80.011	19.993	103.195	14.676	422.538	0.496
774.000	474.692	80.012	19.993	103.226	14.478	437.703	0.545
775.500	475.513	80.010	19.994	103.180	14.283	452.622	0.573
777.000	476.266	80.010	19.993	103.105	14.085	467.623	0.505
778.500	477.090	80.010	19.993	103.063	13.899	481.877	0.552
780.000	477.916	80.010	19.993	103.013	13.713	496.127	0.547
781.500	478.653	80.010	19.994	102.945	13.537	509.689	0.513
783.000	479.451	80.011	19.993	102.909	13.375	522.278	0.549
784.500	480.277	80.012	19.993	102.886	13.221	534.197	0.540
786.000	481.108	80.012	19.993	102.863	13.094	543.817	0.564
787.500	481.906	80.011	19.994	102.819	12.978	552.559	0.525
789.000	482.722	80.013	19.993	102.795	12.880	559.829	0.550
790.500	483.474	80.011	19.992	102.779	12.791	566.537	0.492
792.000	484.322	80.011	19.992	102.784	12.713	572.608	0.536
793.500	485.100	80.011	19.993	102.804	12.635	578.691	0.530
795.000	485.908	80.011	19.992	102.820	12.584	582.717	0.564
796.500	486.681	80.010	19.992	102.817	12.558	584.936	0.507
798.000	487.470	80.009	19.993	102.774	12.557	585.150	0.534
799.500	488.287	80.009	19.993	102.735	12.584	583.356	0.551
801.000	489.144	80.009	19.993	102.704	12.642	579.140	0.585
802.500	489.929	80.009	19.993	102.705	12.745	571.492	0.526
804.000	490.711	80.010	19.993	102.726	12.885	560.922	0.520
805.500	491.497	80.009	19.994	102.739	13.067	547.533	0.539
807.000	492.300	80.008	19.994	102.763	13.286	531.065	0.548
808.500	493.108	80.008	19.994	102.793	13.540	511.938	0.545
810.000	493.928	80.008	19.993	102.842	13.839	489.343	0.558
811.500	494.719	80.009	19.994	102.884	14.166	464.386	0.515
813.000	495.535	80.009	19.994	102.938	14.520	437.384	0.542
814.500	496.336	80.008	19.993	102.966	14.901	408.211	0.535
816.000	497.155	80.010	19.995	103.058	15.300	377.512	0.531
817.500	497.978	80.009	19.995	103.170	15.710	345.939	0.561
819.000	498.834	80.010	19.994	103.258	16.114	314.705	0.603
820.500	499.621	80.009	19.994	103.359	16.517	283.512	0.536
822.000	500.476	80.010	19.993	103.441	16.914	252.666	0.548
823.500	501.288	80.010	19.994	103.532	17.282	224.068	0.555
825.000	502.111	80.009	19.994	103.621	17.630	197.049	0.544
826.500	502.904	80.009	19.993	103.704	17.952	172.025	0.494
828.000	503.695	80.009	19.993	103.775	18.248	149.014	0.553
829.500	504.531	80.008	19.994	103.824	18.514	128.347	0.547
831.000	505.332	80.009	19.993	103.863	18.757	109.430	0.546
832.500	506.148	80.008	19.995	103.891	18.973	92.675	0.544
834.000	506.935	80.008	19.996	103.905	19.162	77.945	0.547
835.500	507.735	80.007	19.994	103.925	19.326	65.226	0.546
837.000	508.563	80.008	19.994	103.932	19.466	54.302	0.558
838.500	509.399	80.008	19.995	103.934	19.589	44.782	0.546
840.000	510.226	80.009	19.995	103.937	19.695	36.516	0.536
841.500	511.060	80.010	19.994	103.937	19.784	29.614	0.548
843.000	511.826	80.009	19.995	103.937	19.857	23.909	0.525
844.501	512.636	80.010	19.995	103.935	19.915	19.386	0.541
846.000	513.424	80.009	19.992	103.928	19.967	15.350	0.517
847.500	514.282	80.010	19.994	103.922	20.006	12.304	0.580
849.000	515.037	80.011	19.994	103.920	20.039	9.786	0.499
850.500	515.865	80.011	19.993	103.906	20.063	7.924	0.549
852.000	516.639	80.009	19.994	103.901	20.081	6.483	0.514
853.500	517.466	80.010	19.993	103.884	20.096	5.309	0.549
855.000	518.274	80.009	19.993	103.870	20.108	4.375	0.547
856.500	519.025	80.010	19.994	103.871	20.111	4.158	0.486
858.000	519.835	80.009	19.992	103.865	20.121	3.345	0.553
859.500	520.647	80.009	19.993	103.861	20.123	3.231	0.550
861.000	521.422	80.010	19.993	103.858	20.127	2.908	0.526
862.500	522.189	80.011	19.993	103.857	20.131	2.573	0.507
864.000	522.979	80.010	19.993	103.837	20.133	2.434	0.497
865.500	523.737	80.011	19.993	103.814	20.137	2.105	0.494
867.000	524.564	80.011	19.993	103.798	20.140	1.929	0.539
868.500	525.325	80.011	19.992	103.790	20.142	1.785	0.504
870.000	526.120	80.011	19.993	103.770	20.141	1.847	0.531
871.500	526.877	80.012	19.993	103.750	20.144	1.603	0.501
873.000	527.669	80.012	19.992	103.742	20.145	1.523	0.516
874.500	528.457	80.010	19.992	103.729	20.141	1.801	0.538
876.000	529.290	80.011	19.994	103.726	20.138	2.024	0.552
877.500	530.004	80.010	19.993	103.742	20.140	1.886	0.494
879.000	530.811	80.010	19.993	103.751	20.142	1.780	0.539
880.500	531.587	80.010	19.994	103.774	20.141	1.812	0.524
882.000	532.373	80.009	19.993	103.781	20.145	1.536	0.510
883.500	533.110	80.010	19.993	103.794	20.147	1.390	0.503
885.000	533.940	80.009	19.994	103.811	20.146	1.445	0.550
886.500	534.711	80.009	19.992	103.815	20.147	1.392	0.517
888.000	535.472	80.009	19.992	103.819	20.146	1.439	0.501
889.501	536.227	80.010	19.993	103.831	20.147	1.398	0.512
891.001	537.000	80.008	19.993	103.842	20.145	1.545	0.531
892.500	537.754	80.010	19.993	103.844	20.150	1.154	0.535
894.000	538.561	80.010	19.993	103.849	20.149	1.167	0.546
895.500	539.303	80.009	19.994	103.850	20.144	1.562	0.481
897.000	540.088	80.011	19.994	103.857	20.148	1.279	0.515
898.500	540.867	80.008	19.994	103.858	20.146	1.409	0.534
900.000	541.626	80.010	19.994	103.858	20.147	1.337	0.482
901.500	542.380	80.010	19.993	103.857	20.149	1.196	0.486
903.000	543.160	80.009	19.993	103.857	20.147	1.332	0.526
904.500	543.910	80.010	19.994	103.858	20.147	1.339	0.503
906.000	544.643	80.010	19.995	103.859	20.146	1.447	0.469
907.500	545.417	80.009	19.995	103.858	20.147	1.381	0.505
909.000	546.181	80.010	19.994	103.856	20.148	1.273	0.489
910.500	546.960	80.008	19.994	103.854	20.148	1.292	0.531
912.000	547.698	80.008	19.993	103.854	20.152	0.986	0.507
913.500	548.409	80.008	19.994	103.848	20.149	1.222	0.487
915.000	549.163	80.008	19.993	103.848	20.145	1.500	0.502
916.500	549.931	80.008	19.995	103.850	20.148	1.306	0.514
918.000	550.693	80.009	19.995	103.853	20.149	1.175	0.512
919.500	551.420	80.008	19.994	103.856	20.149	1.183	0.500
921.000	552.155	80.009	19.994	103.844	20.146	1.462	0.500
922.500	552.905	80.010	19.995	103.833	20.148	1.281	0.498
924.000	553.704	80.009	19.992	103.836	20.146	1.434	0.520
925.500	554.434	80.009	19.994	103.833	20.147	1.336	0.486
927.000	555.216	80.010	19.995	103.826	20.145	1.515	0.510
928.500	555.958	80.009	19.994	103.828	20.148	1.296	0.496
930.000	556.675	80.010	19.995	103.832	20.149	1.230	0.476
931.500	557.412	80.010	19.994	103.835	20.147	1.389	0.495
933.000	558.135	80.010	19.994	103.832	20.150	1.164	0.484
934.500	558.853	80.008	19.992	103.839	20.147	1.332	0.489
936.000	559.625	80.009	19.995	103.842	20.150	1.150	0.527
937.500	560.313	80.008	19.994	103.847	20.149	1.171	0.477
939.000	561.082	80.009	19.994	103.844	20.150	1.154	0.519
940.500	561.858	80.008	19.993	103.846	20.149	1.203	0.519
942.000	562.593	80.009	19.993	103.840	20.150	1.152	0.466
943.500	563.359	80.009	19.992	103.845	20.152	0.950	0.507
945.000	564.069	80.010	19.993	103.856	20.150	1.139	0.479
946.500	564.832	80.010	19.992	103.854	20.152	0.979	0.496
948.000	565.560	80.012	19.994	103.841	20.149	1.243	0.462
949.500	566.361	80.012	19.992	103.847	20.150	1.156	0.513
951.000	567.107	80.011	19.993	103.847	20.150	1.096	0.501
952.500	567.835	80.013	19.993	103.841	20.149	1.167	0.478
954.000	568.600	80.012	19.993	103.829	20.147	1.381	0.520
955.500	569.330	80.011	19.992	103.834	20.145	1.489	0.478
957.000	570.070	80.012	19.992	103.849	20.152	0.992	0.487
958.500	570.861	80.010	19.992	103.831	20.154	0.833	0.530
960.000	571.581	80.010	19.993	103.821	20.150	1.162	0.486
961.500	572.352	80.010	19.994	103.834	20.149	1.194	0.523
963.000	573.073	80.010	19.993	103.850	20.152	1.007	0.485
964.500	573.873	80.010	19.993	103.857	20.152	1.001	0.539
966.000	574.634	80.010	19.994	103.852	20.153	0.867	0.533
967.500	575.427	80.009	19.993	103.849	20.149	1.209	0.523
969.000	576.221	80.010	19.993	103.855	20.149	1.166	0.533
970.500	577.006	80.010	19.993	103.856	20.146	1.415	0.539
972.000	577.813	80.009	19.992	103.854	20.149	1.243	0.545
973.500	578.583	80.010	19.993	103.854	20.150	1.111	0.528
975.000	579.405	80.010	19.992	103.851	20.149	1.222	0.544
976.500	580.196	80.010	19.993	103.851	20.149	1.167	0.537
978.000	580.985	80.010	19.994	103.845	20.148	1.249	0.534
979.500	581.793	80.009	19.993	103.842	20.146	1.464	0.541
981.000	582.583	80.009	19.993	103.835	20.150	1.099	0.534
982.500	583.364	80.010	19.992	103.841	20.151	1.082	0.526
984.000	584.173	80.010	19.993	103.841	20.152	0.939	0.529
985.500	584.983	80.010	19.993	103.831	20.151	1.012	0.547
987.000	585.807	80.011	19.994	103.841	20.152	1.003	0.534
988.500	586.597	80.009	19.992	103.852	20.148	1.256	0.522
990.000	587.390	80.009	19.993	103.854	20.148	1.245	0.537
991.500	588.225	80.009	19.993	103.858	20.149	1.177	0.535
993.000	588.998	80.010	19.994	103.857	20.146	1.470	0.531
994.500	589.773	80.008	19.993	103.852	20.148	1.307	0.526
996.001	590.609	80.008	19.995	103.859	20.147	1.328	0.559
997.500	591.439	80.008	19.995	103.862	20.152	0.988	0.552
999.000	592.249	80.008	19.994	103.861	20.151	1.011	0.556
1000.500	593.029	80.009	19.993	103.856	20.152	0.977	0.517
1002.000	593.835	80.008	19.994	103.851	20.152	1.007	0.534
1003.500	594.650	80.008	19.994	103.840	20.152	1.005	0.537
1005.000	595.481	80.009	19.993	103.831	20.151	1.031	0.542
1006.500	596.293	80.008	19.993	103.848	20.153	0.858	0.531
1008.000	597.127	80.009	19.993	103.859	20.150	1.154	0.555
1009.500	597.892	80.010	19.993	103.854	20.153	0.873	0.511
1011.000	598.726	80.008	19.993	103.857	20.155	0.761	0.568
1012.500	599.551	80.010	19.994	103.857	20.155	0.703	0.550
1014.000	600.335	80.009	19.993	103.852	20.155	0.727	0.538
1015.500	601.129	80.011	19.994	103.852	20.155	0.752	0.550
1017.000	601.954	80.009	19.994	103.852	20.151	1.065	0.534
1018.500	602.769	80.009	19.994	103.834	20.150	1.115	0.525
1020.000	603.539	80.009	19.994	103.833	20.152	1.005	0.523
1021.500	604.324	80.009	19.994	103.843	20.152	0.971	0.526
1023.000	605.076	80.007	19.995	103.848	20.150	1.126	0.509
1024.500	605.930	80.010	19.994	103.836	20.151	1.026	0.550
1026.001	606.732	80.010	19.994	103.834	20.153	0.909	0.537
1027.501	607.504	80.008	19.994	103.844	20.149	1.166	0.500
1029.000	608.323	80.009	19.995	103.843	20.150	1.126	0.558
1030.500	609.102	80.009	19.994	103.839	20.149	1.236	0.528
1032.001	609.856	80.010	19.993	103.839	20.149	1.230	0.517
1033.500	610.634	80.010	19.993	103.833	20.148	1.271	0.523
1035.000	611.398	80.011	19.994	103.843	20.150	1.096	0.531
1036.500	612.201	80.011	19.993	103.835	20.151	1.084	0.523
1038.001	612.998	80.011	19.994	103.828	20.148	1.258	0.523
1039.500	613.772	80.012	19.994	103.836	20.145	1.517	0.509
1041.001	614.548	80.010	19.993	103.830	20.147	1.398	0.531
1042.500	615.268	80.010	19.994	103.836	20.148	1.302	0.470
1044.000	616.081	80.009	19.993	103.851	20.148	1.290	0.532
1045.500	616.876	80.009	19.993	103.844	20.149	1.239	0.515
1047.000	617.629	80.010	19.992	103.836	20.151	1.043	0.502
1048.501	618.377	80.007	19.993	103.835	20.151	1.067	0.503
1050.000	619.142	80.008	19.992	103.848	20.151	1.047	0.512
1051.500	619.949	80.009	19.992	103.851	20.151	1.062	0.523
1053.000	620.678	80.009	19.993	103.845	20.149	1.232	0.485
1054.500	621.435	80.008	19.992	103.845	20.148	1.311	0.512
1056.000	622.183	80.008	19.996	103.847	20.150	1.105	0.486
1057.500	623.003	80.008	19.994	103.856	20.152	0.990	0.544
1059.000	623.736	80.009	19.993	103.850	20.149	1.224	0.473
1060.500	624.537	80.009	19.993	103.837	20.151	1.077	0.540
1062.000	625.293	80.009	19.993	103.849	20.149	1.241	0.501
1063.500	626.063	80.009	19.993	103.852	20.148	1.307	0.499
1065.000	626.820	80.010	19.994	103.841	20.146	1.424	0.504
1066.500	627.550	80.008	19.994	103.835	20.150	1.124	0.474
1068.001	628.335	80.008	19.992	103.838	20.151	1.018	0.519
1069.501	629.054	80.009	19.994	103.847	20.148	1.300	0.466
1071.000	629.841	80.008	19.993	103.852	20.153	0.869	0.529
1072.500	630.621	80.008	19.994	103.850	20.152	0.999	0.502
1074.000	631.373	80.008	19.993	103.841	20.149	1.205	0.509
1075.500	632.133	80.007	19.991	103.855	20.151	1.037	0.498
1077.001	632.872	80.010	19.993	103.846	20.152	0.960	0.482
1078.500	633.649	80.008	19.994	103.834	20.149	1.188	0.499
1080.000	634.462	80.008	19.994	103.839	20.151	1.028	0.570
1081.500	635.195	80.009	19.992	103.845	20.152	0.994	0.496
1083.000	635.982	80.008	19.993	103.850	20.153	0.880	0.530
1084.500	636.737	80.009	19.992	103.846	20.151	1.054	0.495
1086.000	637.502	80.009	19.993	103.853	20.151	1.060	0.530
1087.500	638.277	80.009	19.993	103.856	20.151	1.045	0.519
1089.000	639.028	80.011	19.994	103.857	20.152	0.935	0.494
1090.500	639.743	80.010	19.994	103.857	20.151	1.079	0.486
1092.001	640.524	80.010	19.994	103.851	20.153	0.877	0.515
1093.500	641.275	80.010	19.994	103.841	20.153	0.926	0.508
1095.000	642.020	80.010	19.994	103.835	20.151	1.032	0.488
1096.500	642.805	80.010	19.994	103.851	20.151	1.022	0.536
1098.000	643.548	80.011	19.994	103.837	20.151	1.086	0.524
1099.501	644.301	80.010	19.993	103.829	20.151	1.075	0.485
1101.001	645.035	80.009	19.994	103.837	20.151	1.084	0.500
1102.500	645.803	80.009	19.994	103.827	20.152	0.986	0.498
1104.000	646.544	80.011	19.994	103.824	20.150	1.126	0.490
1105.500	647.317	80.010	19.993	103.832	20.152	0.943	0.527
1107.000	648.058	80.010	19.993	103.825	20.149	1.200	0.485
1108.500	648.808	80.009	19.993	103.828	20.152	1.007	0.519
1110.000	649.557	80.010	19.993	103.836	20.154	0.792	0.489
1111.500	650.306	80.011	19.993	103.838	20.153	0.882	0.516
1113.000	651.049	80.010	19.993	103.838	20.150	1.143	0.505
1114.500	651.792	80.008	19.993	103.849	20.153	0.909	0.483
1116.000	652.575	80.011	19.994	103.845	20.150	1.098	0.536
1117.500	653.305	80.011	19.993	103.832	20.149	1.194	0.477
1119.001	654.112	80.011	19.993	103.834	20.149	1.168	0.542
1120.500	654.942	80.011	19.993	103.840	20.151	1.041	0.549
1122.000	655.593	80.010	19.993	103.845	20.150	1.162	0.451
1123.500	656.331	80.010	19.994	103.846	20.151	1.077	0.502
1125.001	657.093	80.010	19.994	103.845	20.153	0.892	0.495
1126.500	657.865	80.011	19.994	103.837	20.152	0.967	0.482
1128.000	658.603	80.008	19.994	103.822	20.151	1.071	0.486
1129.500	659.365	80.008	19.993	103.828	20.151	1.086	0.508
1131.001	660.059	80.009	19.994	103.850	20.150	1.139	0.474
1132.501	660.833	80.008	19.994	103.852	20.150	1.090	0.510
1134.000	661.644	80.007	19.992	103.848	20.152	1.009	0.523
1135.500	662.357	80.008	19.993	103.852	20.151	1.064	0.510
1137.001	663.093	80.007	19.992	103.848	20.151	1.083	0.498
1138.500	663.856	80.008	19.992	103.852	20.150	1.154	0.517
1140.001	664.623	80.008	19.993	103.844	20.148	1.260	0.512
1141.501	665.375	80.009	19.992	103.844	20.148	1.249	0.512
1143.000	666.112	80.009	19.994	103.850	20.149	1.228	0.495
1144.500	666.893	80.010	19.992	103.854	20.148	1.249	0.499
1146.000	667.617	80.009	19.992	103.844	20.154	0.805	0.499
1147.500	668.374	80.009	19.992	103.836	20.149	1.203	0.511
1149.001	669.130	80.009	19.992	103.837	20.150	1.154	0.499
1150.500	669.863	80.009	19.993	103.837	20.146	1.415	0.502
1152.000	670.619	80.009	19.993	103.832	20.151	1.073	0.490
1153.501	671.365	80.009	19.993	103.842	20.150	1.132	0.501
1155.000	672.121	80.008	19.993	103.845	20.151	1.031	0.490
1156.500	672.881	80.008	19.993	103.840	20.149	1.213	0.508
1158.000	673.652	80.009	19.992	103.842	20.151	1.022	0.533
1159.500	674.451	80.008	19.993	103.849	20.148	1.252	0.525
1161.000	675.216	80.008	19.993	103.834	20.149	1.243	0.505
1162.500	675.970	80.008	19.993	103.838	20.150	1.147	0.511
1164.000	676.739	80.008	19.994	103.842	20.147	1.372	0.508
1165.500	677.502	80.009	19.992	103.851	20.145	1.553	0.503
1167.000	678.276	80.009	19.993	103.849	20.146	1.447	0.521
1168.501	679.036	80.008	19.993	103.838	20.148	1.283	0.514
1170.000	679.804	80.008	19.993	103.849	20.148	1.315	0.508
1171.500	680.544	80.009	19.992	103.849	20.146	1.473	0.454
1173.000	681.325	80.010	19.992	103.835	20.149	1.201	0.451
1174.500	682.102	80.010	19.992	103.833	20.145	1.485	0.498
1176.000	682.799	80.010	19.993	103.845	20.146	1.438	0.473
1177.500	683.568	80.011	19.993	103.838	20.145	1.500	0.518
1179.001	684.321	80.011	19.992	103.837	20.148	1.260	0.502
1180.500	685.030	80.010	19.992	103.841	20.146	1.411	0.489
1182.000	685.808	80.009	19.993	103.851	20.149	1.188	0.515
1183.500	686.549	80.010	19.992	103.849	20.147	1.339	0.496
1185.000	687.272	80.008	19.992	103.845	20.150	1.139	0.459
1186.500	688.028	80.010	19.993	103.838	20.149	1.209	0.481
1188.000	688.772	80.009	19.994	103.837	20.150	1.096	0.476
1189.501	689.538	80.008	19.993	103.840	20.149	1.222	0.516
1191.000	690.308	80.009	19.994	103.847	20.152	1.003	0.509
1192.500	691.051	80.009	19.993	103.846	20.150	1.101	0.489
1194.000	691.807	80.008	19.993	103.844	20.148	1.281	0.495
1195.501	692.566	80.011	19.993	103.842	20.149	1.228	0.490
1197.001	693.366	80.009	19.994	103.855	20.148	1.264	0.532
1198.500	694.071	80.012	19.993	103.857	20.151	1.081	0.489
1200.000	694.842	80.011	19.992	103.847	20.149	1.198	0.508
1201.500	695.599	80.012	19.993	103.848	20.150	1.132	0.515
1203.000	696.396	80.014	19.993	103.850	20.151	1.030	0.522
1204.501	697.153	80.012	19.993	103.838	20.148	1.245	0.498
1206.000	697.918	80.011	19.992	103.836	20.148	1.307	0.481
1207.501	698.631	80.010	19.993	103.840	20.146	1.436	0.463
1209.000	699.384	80.010	19.994	103.831	20.149	1.185	0.506
1210.500	700.136	80.010	19.995	103.826	20.147	1.330	0.485
1212.000	700.894	80.008	19.995	103.831	20.146	1.472	0.511
1213.501	701.638	80.008	19.994	103.839	20.147	1.328	0.497
1215.000	702.363	80.008	19.994	103.833	20.146	1.451	0.489
1216.500	703.107	80.008	19.994	103.829	20.147	1.377	0.507
1218.000	703.865	80.008	19.994	103.830	20.147	1.374	0.499
1219.500	704.561	80.007	19.994	103.820	20.144	1.563	0.465
1221.001	705.282	80.007	19.995	103.828	20.145	1.547	0.470
1222.500	706.002	80.008	19.994	103.832	20.145	1.513	0.492
1224.000	706.748	80.009	19.994	103.826	20.146	1.466	0.488
1225.501	707.409	80.008	19.994	103.826	20.145	1.542	0.470
1227.001	708.165	80.010	19.994	103.828	20.144	1.578	0.508
1228.500	708.888	80.009	19.993	103.827	20.146	1.447	0.479
1230.000	709.611	80.010	19.993	103.826	20.144	1.566	0.491
1231.500	710.257	80.010	19.994	103.826	20.148	1.304	0.445
1233.001	710.982	80.010	19.992	103.832	20.148	1.287	0.474
1234.501	711.628	80.009	19.993	103.827	20.148	1.270	0.446
1236.000	712.385	80.011	19.994	103.834	20.148	1.279	0.491
1237.501	713.082	80.010	19.993	103.832	20.151	1.086	0.481
1239.000	713.775	80.009	19.992	103.831	20.147	1.343	0.449
1240.501	714.532	80.007	19.992	103.836	20.149	1.228	0.488
1242.001	715.234	80.009	19.992	103.829	20.143	1.653	0.475
1243.500	715.998	80.009	19.994	103.835	20.148	1.311	0.515
1245.000	716.764	80.010	19.992	103.835	20.146	1.451	0.506
1246.500	717.496	80.008	19.993	103.840	20.146	1.407	0.493
1248.001	718.269	80.007	19.993	103.853	20.143	1.668	0.507
1249.501	719.025	80.010	19.993	103.857	20.143	1.670	0.494
1251.001	719.823	80.009	19.992	103.851	20.143	1.634	0.536
1252.500	720.578	80.010	19.993	103.850	20.144	1.602	0.517
1254.001	721.343	80.009	19.993	103.844	20.147	1.379	0.536
1255.501	722.180	80.010	19.992	103.835	20.142	1.776	0.554
1257.000	722.924	80.010	19.993	103.843	20.142	1.738	0.518
1258.500	723.712	80.012	19.993	103.838	20.145	1.492	0.530
1260.000	724.522	80.010	19.993	103.849	20.147	1.326	0.546
1261.500	725.295	80.010	19.993	103.852	20.145	1.543	0.507
1263.000	726.077	80.010	19.993	103.844	20.144	1.619	0.539
1264.501	726.900	80.011	19.993	103.840	20.144	1.606	0.562
1266.000	727.675	80.010	19.992	103.843	20.145	1.487	0.506
1267.500	728.445	80.010	19.992	103.835	20.145	1.530	0.509
1269.001	729.274	80.009	19.993	103.844	20.145	1.515	0.526
1270.500	730.089	80.010	19.993	103.855	20.146	1.432	0.557
1272.000	730.872	80.010	19.992	103.857	20.145	1.549	0.521
1273.500	731.659	80.010	19.993	103.848	20.142	1.729	0.533
1275.000	732.433	80.012	19.993	103.837	20.143	1.638	0.496
1276.500	733.242	80.010	19.992	103.841	20.142	1.757	0.528
1278.000	734.038	80.010	19.994	103.839	20.142	1.730	0.511
1279.500	734.841	80.010	19.993	103.842	20.140	1.876	0.536
1281.001	735.616	80.011	19.994	103.826	20.143	1.702	0.518
1282.500	736.368	80.012	19.993	103.825	20.145	1.553	0.500
1284.000	737.169	80.010	19.994	103.825	20.140	1.908	0.515
1285.500	737.914	80.011	19.993	103.834	20.142	1.721	0.501
1287.000	738.666	80.011	19.993	103.834	20.142	1.721	0.499
1288.500	739.443	80.010	19.993	103.840	20.144	1.578	0.497
1290.000	740.230	80.011	19.993	103.843	20.143	1.704	0.529
1291.500	741.016	80.010	19.993	103.827	20.138	2.078	0.533
1293.000	741.766	80.008	19.994	103.827	20.140	1.865	0.506
1294.500	742.557	80.008	19.994	103.827	20.139	1.955	0.528
1296.000	743.294	80.008	19.994	103.839	20.140	1.929	0.492
1296.500	743.557	80.008	19.994	103.845	20.141	1.853	0.511