File: 01_Data/PE_Foam_Pipe_Insulation/MCC/PE_Foam_Pipe_Insulation_MCC_30K_min_220127_R2.txt
Sample ID:	C:\MCC\MCC Cal\Test\PE_Foam_Pipe_Insulation_MCC_30K_min_220127_R2.txt
Sample Weight (mg):	4.1
Heating Rate (C/s):	0.5
Combustor Temp (C):	900
N2 Flow Rate (cc/min):	80
O2 Flow Rate (cc/min):	20
Calibration File:	C:\MCC\MCC Cal\Coeff1 JN10440_30_210304.txt.txt
T Correction Coefficients:	0	1.024463	0
Time Shift (s):	14
*
Time (s)	Temperature (C)	N2 flow rate (cc/min)	O2 flow rate (cc/min)	Flow Rate (cc/min)	Oxygen (%)	HRR (W/g)	Heating rate (C/s)
0.000	113.339	80.009	19.993	103.732	20.184	0.332	-0.030
2.000	113.350	80.008	19.993	103.734	20.185	0.300	-0.019
4.000	113.338	80.008	19.993	103.731	20.186	0.177	-0.002
6.000	113.357	80.009	19.993	103.733	20.186	0.220	0.005
8.000	113.338	80.006	19.993	103.736	20.189	-0.032	-0.009
10.001	113.328	80.006	19.994	103.731	20.185	0.270	-0.017
12.000	113.324	80.007	19.993	103.741	20.181	0.547	0.027
14.000	113.301	80.007	19.993	103.736	20.183	0.422	-0.005
16.001	113.278	80.007	19.993	103.745	20.181	0.575	-0.006
18.001	113.296	80.006	19.993	103.788	20.176	0.969	0.004
20.000	113.363	80.006	19.993	103.845	20.169	1.520	0.040
22.000	113.420	80.005	19.992	103.879	20.167	1.702	0.053
24.000	113.513	80.006	19.993	103.899	20.156	2.587	0.040
26.000	113.633	80.006	19.991	103.906	20.155	2.654	0.065
28.000	113.793	80.006	19.993	103.927	20.154	2.700	0.096
30.000	113.997	80.006	19.992	103.925	20.151	2.964	0.074
32.001	114.262	80.006	19.993	103.936	20.148	3.158	0.128
34.000	114.469	80.006	19.992	103.938	20.146	3.320	0.119
36.000	114.759	80.005	19.993	103.949	20.143	3.545	0.134
38.000	115.063	80.005	19.993	103.959	20.146	3.353	0.119
40.000	115.423	80.007	19.993	103.955	20.144	3.472	0.182
42.000	115.804	80.006	19.993	103.951	20.147	3.288	0.196
44.000	116.215	80.006	19.992	103.950	20.145	3.415	0.204
46.000	116.647	80.005	19.993	103.938	20.143	3.619	0.233
48.000	117.036	80.006	19.992	103.941	20.146	3.372	0.221
50.000	117.542	80.006	19.992	103.942	20.146	3.327	0.247
52.001	118.029	80.006	19.993	103.948	20.145	3.405	0.242
54.000	118.521	80.008	19.994	103.941	20.145	3.456	0.256
56.001	119.028	80.006	19.994	103.944	20.142	3.655	0.251
58.000	119.539	80.006	19.994	103.943	20.146	3.381	0.285
60.000	120.079	80.007	19.994	103.942	20.144	3.478	0.248
62.001	120.671	80.007	19.993	103.940	20.148	3.201	0.306
64.000	121.196	80.008	19.993	103.939	20.145	3.417	0.292
66.000	121.773	80.007	19.993	103.938	20.147	3.236	0.268
68.001	122.392	80.007	19.993	103.939	20.141	3.748	0.286
70.000	122.991	80.008	19.993	103.938	20.142	3.636	0.316
72.000	123.597	80.007	19.993	103.939	20.145	3.396	0.283
74.000	124.227	80.008	19.993	103.937	20.145	3.435	0.336
76.001	124.780	80.009	19.995	103.932	20.144	3.476	0.303
78.000	125.467	80.007	19.993	103.933	20.144	3.539	0.343
80.001	126.084	80.008	19.993	103.938	20.146	3.331	0.339
82.000	126.740	80.009	19.993	103.938	20.143	3.593	0.313
84.000	127.399	80.007	19.994	103.943	20.142	3.664	0.346
86.000	128.051	80.005	19.993	103.942	20.141	3.749	0.353
88.000	128.751	80.006	19.995	103.940	20.140	3.784	0.347
90.001	129.439	80.006	19.995	103.938	20.142	3.698	0.339
92.000	130.126	80.005	19.995	103.956	20.141	3.717	0.352
94.000	130.801	80.006	19.994	103.954	20.141	3.726	0.355
96.000	131.526	80.006	19.994	103.955	20.136	4.113	0.346
98.000	132.203	80.005	19.993	103.968	20.138	3.975	0.367
100.000	132.983	80.007	19.993	103.972	20.137	4.087	0.388
102.001	133.707	80.007	19.993	103.966	20.132	4.459	0.368
104.001	134.494	80.007	19.992	103.960	20.137	4.051	0.391
106.001	135.247	80.007	19.993	103.971	20.136	4.133	0.414
108.000	135.984	80.005	19.993	103.975	20.131	4.496	0.386
110.000	136.772	80.007	19.993	103.974	20.134	4.319	0.393
112.000	137.525	80.006	19.992	103.978	20.136	4.120	0.348
114.000	138.350	80.005	19.993	103.976	20.133	4.401	0.384
116.000	139.160	80.007	19.992	103.979	20.134	4.269	0.425
118.000	139.982	80.007	19.993	103.977	20.132	4.444	0.415
120.000	140.802	80.006	19.993	103.978	20.131	4.511	0.434
122.001	141.570	80.007	19.992	103.979	20.135	4.256	0.377
124.000	142.482	80.005	19.993	103.981	20.134	4.258	0.465
126.001	143.334	80.005	19.993	103.978	20.134	4.293	0.426
128.000	144.153	80.005	19.993	103.974	20.137	4.048	0.396
130.000	145.033	80.006	19.994	103.971	20.132	4.457	0.399
132.001	145.924	80.008	19.994	103.975	20.134	4.323	0.463
134.000	146.777	80.009	19.993	103.974	20.127	4.862	0.417
136.000	147.669	80.008	19.994	103.975	20.134	4.330	0.438
138.000	148.545	80.009	19.994	103.975	20.131	4.546	0.456
140.000	149.464	80.008	19.992	103.976	20.133	4.394	0.462
142.000	150.397	80.009	19.992	103.978	20.134	4.299	0.479
144.000	151.292	80.009	19.993	103.976	20.133	4.397	0.470
146.000	152.136	80.007	19.993	103.975	20.129	4.671	0.427
148.000	153.078	80.008	19.993	103.976	20.130	4.652	0.457
150.000	153.994	80.008	19.993	103.975	20.128	4.737	0.478
152.000	154.908	80.006	19.994	103.976	20.128	4.803	0.458
154.000	155.815	80.007	19.993	103.977	20.131	4.557	0.457
156.000	156.753	80.008	19.994	103.973	20.127	4.853	0.482
158.000	157.714	80.009	19.994	103.974	20.134	4.282	0.480
160.000	158.652	80.008	19.994	103.979	20.131	4.537	0.467
162.000	159.606	80.009	19.996	103.981	20.130	4.615	0.433
164.000	160.529	80.007	19.993	103.975	20.130	4.635	0.431
166.000	161.488	80.007	19.995	103.978	20.127	4.819	0.475
168.000	162.501	80.007	19.994	103.977	20.128	4.752	0.482
170.000	163.480	80.008	19.993	103.977	20.130	4.639	0.509
172.000	164.469	80.007	19.993	103.978	20.126	4.970	0.514
174.000	165.476	80.005	19.995	103.978	20.125	5.044	0.525
176.000	166.476	80.005	19.994	103.977	20.124	5.119	0.532
178.000	167.448	80.005	19.994	103.976	20.123	5.206	0.496
180.000	168.439	80.004	19.994	103.974	20.125	4.972	0.494
182.000	169.436	80.004	19.994	103.975	20.123	5.201	0.504
184.000	170.444	80.006	19.994	103.977	20.124	5.058	0.486
186.000	171.442	80.005	19.994	103.977	20.123	5.187	0.488
188.000	172.399	80.007	19.994	103.979	20.126	4.950	0.480
190.000	173.411	80.006	19.994	103.972	20.126	4.956	0.505
192.000	174.418	80.006	19.993	103.974	20.125	4.982	0.493
194.000	175.464	80.008	19.994	103.971	20.129	4.677	0.526
196.000	176.455	80.006	19.994	103.963	20.127	4.839	0.495
198.000	177.486	80.006	19.993	103.953	20.125	5.004	0.520
200.000	178.467	80.008	19.993	103.955	20.124	5.086	0.505
202.000	179.472	80.005	19.994	103.950	20.126	4.908	0.517
204.000	180.537	80.006	19.992	103.958	20.125	5.023	0.546
206.000	181.580	80.005	19.994	103.953	20.119	5.475	0.540
208.000	182.572	80.006	19.993	103.961	20.123	5.142	0.521
210.000	183.573	80.007	19.994	103.962	20.123	5.165	0.523
212.000	184.601	80.008	19.993	103.951	20.122	5.211	0.525
214.000	185.633	80.008	19.994	103.951	20.118	5.530	0.520
216.000	186.702	80.009	19.993	103.940	20.122	5.275	0.549
218.000	187.707	80.008	19.994	103.948	20.119	5.496	0.508
220.000	188.733	80.009	19.993	103.946	20.120	5.438	0.523
222.000	189.746	80.010	19.994	103.943	20.117	5.680	0.510
224.000	190.755	80.008	19.993	103.934	20.117	5.639	0.536
226.000	191.761	80.006	19.994	103.937	20.120	5.388	0.492
228.000	192.726	80.009	19.994	103.935	20.120	5.401	0.473
230.000	193.787	80.008	19.993	103.938	20.117	5.617	0.527
232.000	194.752	80.007	19.993	103.937	20.120	5.403	0.505
234.000	195.727	80.008	19.993	103.939	20.118	5.586	0.487
236.000	196.708	80.008	19.994	103.940	20.118	5.560	0.523
238.000	197.744	80.008	19.993	103.937	20.115	5.800	0.513
240.000	198.774	80.010	19.993	103.935	20.117	5.650	0.499
242.000	199.735	80.009	19.992	103.932	20.113	5.969	0.471
244.000	200.742	80.010	19.992	103.934	20.115	5.806	0.491
246.000	201.727	80.009	19.994	103.926	20.113	5.976	0.508
248.000	202.723	80.009	19.993	103.927	20.111	6.077	0.488
250.000	203.722	80.008	19.993	103.912	20.111	6.101	0.529
252.000	204.658	80.008	19.993	103.925	20.113	5.953	0.479
254.000	205.633	80.006	19.994	103.924	20.110	6.165	0.470
256.000	206.612	80.005	19.994	103.921	20.112	6.055	0.469
258.000	207.667	80.007	19.995	103.933	20.111	6.132	0.501
260.000	208.595	80.007	19.993	103.924	20.108	6.350	0.490
262.000	209.567	80.006	19.994	103.921	20.108	6.360	0.488
264.000	210.559	80.008	19.993	103.918	20.109	6.262	0.477
266.000	211.549	80.010	19.994	103.909	20.111	6.081	0.471
268.000	212.557	80.007	19.993	103.913	20.112	6.072	0.531
270.000	213.519	80.010	19.995	103.899	20.109	6.245	0.486
272.000	214.479	80.007	19.995	103.916	20.109	6.301	0.479
274.000	215.481	80.007	19.995	103.915	20.107	6.432	0.486
276.000	216.441	80.006	19.993	103.913	20.107	6.450	0.485
278.000	217.405	80.007	19.994	103.913	20.105	6.593	0.501
280.000	218.405	80.008	19.996	103.918	20.105	6.617	0.476
282.000	219.377	80.005	19.996	103.906	20.108	6.388	0.528
284.000	220.370	80.006	19.995	103.918	20.104	6.682	0.487
286.000	221.282	80.006	19.995	103.921	20.105	6.610	0.486
288.000	222.305	80.007	19.994	103.905	20.104	6.681	0.508
290.000	223.298	80.008	19.994	103.917	20.104	6.690	0.478
292.000	224.297	80.007	19.994	103.911	20.101	6.932	0.485
294.000	225.275	80.007	19.993	103.915	20.107	6.456	0.497
296.000	226.242	80.010	19.993	103.914	20.102	6.815	0.507
298.000	227.203	80.009	19.993	103.902	20.098	7.142	0.493
300.000	228.192	80.009	19.993	103.902	20.101	6.865	0.533
302.000	229.156	80.008	19.993	103.900	20.100	6.965	0.482
304.000	230.164	80.007	19.994	103.901	20.100	6.951	0.496
306.000	231.150	80.007	19.994	103.901	20.100	6.954	0.497
308.000	232.150	80.008	19.993	103.900	20.103	6.738	0.541
310.001	233.125	80.009	19.994	103.900	20.098	7.149	0.516
312.000	234.109	80.009	19.992	103.905	20.101	6.943	0.505
314.000	235.081	80.008	19.994	103.902	20.097	7.211	0.481
316.000	236.036	80.006	19.993	103.908	20.101	6.902	0.458
318.001	237.043	80.008	19.993	103.908	20.101	6.897	0.511
320.000	238.055	80.009	19.994	103.907	20.100	6.983	0.480
322.000	239.033	80.009	19.992	103.902	20.101	6.914	0.480
324.000	240.027	80.010	19.993	103.909	20.100	7.003	0.515
326.000	241.000	80.010	19.995	103.904	20.100	6.984	0.498
328.000	241.959	80.010	19.993	103.901	20.100	7.012	0.512
330.000	243.022	80.011	19.993	103.897	20.100	6.945	0.501
332.000	244.005	80.010	19.992	103.896	20.103	6.707	0.506
334.000	244.952	80.009	19.992	103.895	20.102	6.841	0.458
336.000	245.986	80.008	19.993	103.897	20.099	7.042	0.483
338.000	246.992	80.007	19.994	103.900	20.099	7.046	0.472
340.000	248.002	80.007	19.992	103.900	20.100	7.010	0.522
342.000	248.986	80.004	19.994	103.898	20.100	6.945	0.525
344.000	250.041	80.006	19.995	103.896	20.103	6.743	0.508
346.000	251.077	80.006	19.994	103.895	20.105	6.620	0.529
348.000	252.066	80.009	19.995	103.897	20.101	6.923	0.492
350.000	253.070	80.007	19.995	103.898	20.102	6.858	0.541
352.000	254.073	80.008	19.993	103.900	20.100	6.960	0.497
354.000	255.059	80.010	19.993	103.893	20.099	7.031	0.515
356.000	256.075	80.007	19.993	103.894	20.102	6.791	0.510
358.000	257.044	80.007	19.992	103.895	20.105	6.564	0.507
360.000	258.043	80.009	19.996	103.899	20.108	6.337	0.514
362.000	259.029	80.008	19.996	103.894	20.103	6.733	0.463
364.000	260.063	80.007	19.992	103.898	20.106	6.547	0.492
366.000	261.030	80.005	19.994	103.900	20.106	6.475	0.491
368.000	262.009	80.006	19.994	103.898	20.108	6.382	0.484
370.000	263.046	80.007	19.995	103.899	20.105	6.584	0.510
372.000	264.072	80.005	19.995	103.898	20.105	6.579	0.518
374.000	265.050	80.006	19.994	103.899	20.103	6.774	0.503
376.000	266.083	80.006	19.994	103.898	20.107	6.447	0.531
378.000	267.059	80.006	19.995	103.897	20.109	6.302	0.475
380.000	268.080	80.008	19.993	103.899	20.112	6.073	0.517
382.000	269.077	80.007	19.994	103.899	20.109	6.308	0.504
384.000	270.051	80.010	19.993	103.895	20.110	6.179	0.490
386.000	271.111	80.011	19.995	103.896	20.110	6.175	0.531
388.000	272.068	80.007	19.992	103.890	20.113	5.943	0.512
390.000	273.094	80.009	19.994	103.892	20.110	6.194	0.535
392.000	274.091	80.010	19.991	103.888	20.110	6.162	0.506
394.000	275.026	80.005	19.991	103.880	20.113	5.954	0.481
396.000	276.061	80.007	19.992	103.891	20.117	5.671	0.481
398.000	277.084	80.010	19.994	103.895	20.114	5.878	0.504
400.000	278.030	80.010	19.994	103.884	20.111	6.103	0.485
402.000	279.049	80.011	19.994	103.890	20.113	5.943	0.500
404.000	280.042	80.013	19.994	103.896	20.114	5.884	0.500
406.000	281.049	80.011	19.993	103.889	20.115	5.791	0.529
408.000	282.040	80.012	19.997	103.895	20.115	5.828	0.494
410.000	283.062	80.011	19.993	103.887	20.114	5.848	0.518
412.001	284.015	80.012	19.994	103.892	20.116	5.736	0.484
414.000	284.993	80.007	19.992	103.880	20.118	5.533	0.474
416.000	286.015	80.009	19.994	103.875	20.118	5.546	0.499
418.000	287.036	80.010	19.991	103.885	20.122	5.275	0.524
420.000	288.034	80.008	19.993	103.883	20.123	5.126	0.486
422.000	289.049	80.007	19.993	103.891	20.117	5.616	0.490
424.000	290.009	80.006	19.993	103.897	20.121	5.299	0.489
426.000	291.077	80.008	19.993	103.901	20.123	5.161	0.541
428.000	292.072	80.007	19.991	103.897	20.124	5.111	0.535
430.000	293.097	80.006	19.994	103.892	20.121	5.332	0.511
432.000	294.076	80.009	19.993	103.891	20.122	5.252	0.524
434.000	295.093	80.008	19.994	103.890	20.122	5.271	0.485
436.000	296.079	80.007	19.993	103.901	20.122	5.239	0.521
438.000	297.086	80.007	19.995	103.899	20.124	5.100	0.512
440.001	298.080	80.008	19.992	103.889	20.124	5.095	0.513
442.000	299.100	80.008	19.993	103.899	20.123	5.182	0.526
444.000	300.063	80.009	19.994	103.896	20.121	5.325	0.522
446.000	301.065	80.008	19.993	103.899	20.123	5.145	0.504
448.000	302.138	80.009	19.993	103.891	20.123	5.126	0.502
450.000	303.084	80.008	19.993	103.879	20.121	5.298	0.500
452.000	304.078	80.005	19.994	103.890	20.123	5.191	0.508
454.000	305.105	80.005	19.994	103.889	20.124	5.106	0.483
456.000	306.132	80.007	19.993	103.889	20.122	5.229	0.504
458.000	307.166	80.007	19.995	103.888	20.126	4.963	0.527
460.000	308.133	80.007	19.994	103.877	20.123	5.197	0.506
462.000	309.188	80.010	19.994	103.882	20.123	5.196	0.528
464.000	310.180	80.008	19.994	103.885	20.121	5.300	0.499
466.000	311.167	80.008	19.996	103.882	20.120	5.387	0.468
468.000	312.187	80.010	19.994	103.870	20.123	5.201	0.518
470.000	313.243	80.008	19.995	103.867	20.122	5.203	0.493
472.000	314.248	80.008	19.995	103.877	20.122	5.229	0.513
474.000	315.254	80.010	19.993	103.862	20.122	5.209	0.538
476.000	316.255	80.002	19.995	103.876	20.121	5.298	0.489
478.000	317.298	80.008	19.994	103.873	20.121	5.357	0.524
480.000	318.266	80.009	19.994	103.881	20.121	5.327	0.509
482.000	319.332	80.008	19.992	103.878	20.121	5.357	0.508
484.000	320.346	80.009	19.994	103.875	20.124	5.124	0.525
486.000	321.355	80.008	19.992	103.870	20.119	5.515	0.505
488.000	322.399	80.011	19.993	103.887	20.123	5.192	0.519
490.000	323.416	80.012	19.993	103.894	20.121	5.288	0.516
492.000	324.436	80.009	19.993	103.894	20.119	5.502	0.547
494.000	325.460	80.004	19.993	103.884	20.119	5.470	0.513
496.000	326.528	80.010	19.992	103.889	20.116	5.734	0.574
498.000	327.542	80.007	19.993	103.881	20.115	5.767	0.484
500.000	328.538	80.003	19.995	103.879	20.115	5.770	0.494
502.000	329.567	80.006	19.993	103.888	20.110	6.179	0.501
504.000	330.620	80.007	19.993	103.896	20.108	6.354	0.530
506.000	331.632	80.006	19.994	103.897	20.107	6.430	0.519
508.000	332.706	80.005	19.994	103.902	20.104	6.644	0.538
510.000	333.718	80.008	19.994	103.894	20.104	6.667	0.521
512.000	334.825	80.010	19.992	103.894	20.100	6.966	0.543
514.000	335.878	80.006	19.993	103.892	20.100	6.948	0.542
516.000	336.899	80.005	19.998	103.893	20.101	6.903	0.508
518.000	338.038	80.010	19.993	103.896	20.093	7.506	0.553
520.000	339.104	80.003	19.991	103.892	20.092	7.597	0.528
522.000	340.197	80.004	19.998	103.890	20.091	7.724	0.543
524.001	341.292	80.005	19.997	103.886	20.090	7.750	0.552
526.000	342.417	80.003	19.993	103.887	20.090	7.770	0.562
528.000	343.417	80.004	19.995	103.883	20.086	8.085	0.506
530.000	344.512	80.011	19.996	103.889	20.085	8.177	0.537
532.000	345.625	80.009	19.988	103.878	20.081	8.484	0.569
534.000	346.706	80.007	19.992	103.883	20.084	8.275	0.535
536.000	347.760	80.001	19.995	103.871	20.083	8.295	0.537
538.000	348.840	79.994	19.994	103.870	20.084	8.265	0.511
540.000	349.977	80.004	19.997	103.873	20.081	8.468	0.566
542.000	351.004	80.002	20.000	103.867	20.081	8.473	0.510
544.000	352.085	80.009	19.992	103.863	20.080	8.557	0.524
546.000	353.206	80.004	19.992	103.855	20.079	8.606	0.577
548.000	354.274	80.010	19.993	103.858	20.082	8.420	0.535
550.000	355.349	80.006	19.998	103.865	20.083	8.327	0.564
552.000	356.371	80.018	19.990	103.857	20.082	8.396	0.518
554.000	357.363	80.003	19.995	103.865	20.078	8.727	0.498
556.000	358.379	80.010	19.991	103.857	20.080	8.539	0.514
558.000	359.406	80.005	19.997	103.858	20.079	8.643	0.513
560.000	360.418	80.003	19.990	103.856	20.085	8.187	0.523
562.000	361.397	80.009	19.992	103.858	20.083	8.360	0.507
564.000	362.412	80.000	19.992	103.857	20.081	8.508	0.475
566.000	363.383	80.011	19.994	103.859	20.080	8.539	0.513
568.000	364.375	80.006	19.994	103.857	20.082	8.429	0.523
570.000	365.360	80.008	19.995	103.858	20.083	8.286	0.471
572.000	366.366	80.008	19.993	103.858	20.082	8.405	0.497
574.000	367.350	80.010	19.993	103.852	20.082	8.385	0.501
576.000	368.371	80.010	19.996	103.857	20.088	7.908	0.517
578.000	369.347	80.010	19.992	103.859	20.089	7.889	0.484
580.000	370.387	80.006	19.991	103.860	20.085	8.137	0.510
582.000	371.345	80.006	19.994	103.858	20.088	7.897	0.495
584.000	372.308	80.005	19.998	103.849	20.089	7.860	0.486
586.000	373.374	80.002	19.993	103.854	20.086	8.063	0.509
588.000	374.351	80.009	19.990	103.858	20.089	7.875	0.479
590.000	375.338	80.014	19.989	103.861	20.088	7.955	0.501
592.000	376.344	80.008	19.996	103.859	20.091	7.694	0.490
594.000	377.305	80.008	19.993	103.854	20.091	7.679	0.523
596.000	378.256	80.005	19.995	103.851	20.085	8.156	0.456
598.000	379.253	80.001	19.994	103.855	20.086	8.063	0.467
600.000	380.265	80.007	19.990	103.851	20.087	8.035	0.462
602.000	381.302	80.008	19.995	103.857	20.090	7.741	0.497
604.000	382.260	80.007	19.994	103.859	20.089	7.830	0.493
606.000	383.308	80.022	19.991	103.852	20.092	7.580	0.512
608.000	384.293	79.998	19.994	103.855	20.090	7.735	0.497
610.000	385.358	80.010	19.992	103.850	20.089	7.845	0.513
612.000	386.357	80.006	19.998	103.852	20.092	7.609	0.512
614.000	387.391	79.995	19.993	103.854	20.092	7.602	0.524
616.000	388.397	80.008	19.995	103.861	20.093	7.562	0.501
618.000	389.469	79.997	19.997	103.864	20.091	7.717	0.491
620.000	390.535	80.005	19.995	103.846	20.094	7.465	0.549
622.001	391.544	80.011	19.990	103.851	20.092	7.631	0.539
624.000	392.577	80.012	19.996	103.843	20.095	7.350	0.518
626.001	393.611	80.009	19.991	103.843	20.095	7.402	0.516
628.000	394.696	79.999	19.993	103.848	20.094	7.443	0.503
630.000	395.729	80.009	19.999	103.850	20.089	7.816	0.526
632.000	396.787	80.010	19.992	103.848	20.089	7.847	0.503
634.000	397.820	80.006	19.994	103.851	20.086	8.098	0.512
636.000	398.856	80.003	19.996	103.854	20.082	8.401	0.527
638.000	399.912	80.003	19.996	103.855	20.083	8.319	0.545
640.000	400.919	80.019	19.992	103.845	20.076	8.837	0.494
642.000	401.961	80.008	19.994	103.837	20.074	9.011	0.503
644.000	402.994	80.012	19.991	103.820	20.073	9.076	0.497
646.000	404.008	80.028	19.991	103.831	20.070	9.381	0.515
648.000	404.996	80.008	19.994	103.830	20.062	9.977	0.474
650.000	405.995	80.012	19.992	103.824	20.061	10.037	0.454
652.000	407.036	80.010	19.993	103.818	20.056	10.463	0.495
654.000	407.993	80.011	19.996	103.817	20.055	10.547	0.480
656.000	409.015	80.011	19.991	103.819	20.053	10.729	0.504
658.000	409.985	80.011	19.995	103.819	20.047	11.135	0.510
660.000	410.961	80.007	19.995	103.822	20.042	11.539	0.480
662.000	411.927	80.002	19.994	103.816	20.036	12.036	0.509
664.000	412.858	80.010	19.989	103.818	20.031	12.405	0.458
666.000	413.841	80.007	19.992	103.823	20.023	13.039	0.468
668.000	414.781	80.007	19.997	103.819	20.018	13.421	0.460
670.000	415.738	80.014	19.991	103.818	20.010	14.049	0.504
672.000	416.699	80.020	19.994	103.821	20.004	14.548	0.468
674.000	417.597	80.004	19.993	103.812	19.997	15.098	0.448
676.000	418.596	80.009	19.990	103.817	19.988	15.864	0.506
678.000	419.540	80.008	19.994	103.817	19.981	16.375	0.462
680.000	420.506	80.010	19.989	103.816	19.966	17.531	0.467
682.000	421.429	80.000	19.993	103.813	19.960	18.069	0.492
684.000	422.387	80.008	19.993	103.822	19.946	19.123	0.462
686.000	423.323	80.002	19.995	103.819	19.937	19.823	0.486
688.000	424.292	80.009	19.995	103.820	19.924	20.916	0.472
690.000	425.236	80.005	19.993	103.822	19.915	21.597	0.459
692.000	426.185	80.003	19.998	103.814	19.897	22.988	0.489
694.000	427.164	80.008	19.989	103.815	19.881	24.291	0.498
696.000	428.145	80.011	19.991	103.824	19.862	25.757	0.501
698.000	429.108	80.005	19.990	103.819	19.845	27.161	0.499
700.000	430.025	80.003	19.992	103.824	19.823	28.856	0.459
702.000	431.063	80.008	19.995	103.823	19.804	30.330	0.479
704.000	432.101	80.016	19.993	103.826	19.781	32.164	0.525
706.000	433.151	80.006	19.994	103.830	19.753	34.352	0.521
708.000	434.176	80.008	19.995	103.819	19.717	37.244	0.473
710.000	435.207	80.007	19.993	103.810	19.685	39.774	0.523
712.000	436.270	80.014	19.989	103.805	19.644	42.983	0.543
714.000	437.288	80.009	19.992	103.789	19.610	45.692	0.553
716.000	438.366	80.008	19.989	103.792	19.569	48.905	0.540
718.000	439.389	80.008	19.997	103.792	19.523	52.505	0.508
720.000	440.435	80.014	19.996	103.779	19.472	56.523	0.537
722.000	441.436	80.001	19.997	103.774	19.422	60.525	0.523
724.000	442.441	80.007	20.000	103.763	19.371	64.508	0.469
726.000	443.489	79.993	19.994	103.745	19.306	69.601	0.494
728.000	444.483	80.008	19.994	103.739	19.245	74.475	0.532
730.000	445.483	79.998	19.996	103.739	19.178	79.703	0.500
732.001	446.507	80.008	19.994	103.726	19.116	84.632	0.488
734.000	447.510	80.008	19.992	103.726	19.043	90.389	0.521
736.000	448.532	80.009	19.994	103.712	18.966	96.374	0.496
738.000	449.527	80.012	19.994	103.700	18.885	102.786	0.488
740.000	450.532	80.008	19.993	103.705	18.800	109.478	0.502
742.000	451.503	80.002	19.995	103.693	18.709	116.656	0.471
744.000	452.515	80.014	19.994	103.685	18.612	124.326	0.526
746.000	453.506	80.008	19.994	103.665	18.502	132.970	0.529
748.000	454.515	80.014	19.994	103.640	18.403	140.774	0.500
750.000	455.517	79.999	19.998	103.634	18.291	149.561	0.503
752.000	456.535	80.006	19.989	103.632	18.168	159.270	0.511
754.001	457.516	80.004	19.994	103.622	18.040	169.280	0.503
756.000	458.488	80.004	19.994	103.612	17.907	179.706	0.513
758.000	459.519	80.006	19.995	103.596	17.774	190.181	0.470
760.000	460.525	79.997	19.996	103.588	17.626	201.683	0.476
762.000	461.556	80.018	19.991	103.592	17.461	214.638	0.520
764.000	462.561	80.003	19.994	103.563	17.291	227.916	0.505
766.000	463.607	80.000	19.991	103.537	17.111	242.038	0.534
768.000	464.582	80.004	19.993	103.507	16.924	256.612	0.492
770.000	465.618	80.002	19.992	103.473	16.724	272.280	0.536
772.001	466.702	80.004	19.994	103.432	16.517	288.417	0.569
774.000	467.697	80.009	19.993	103.400	16.302	305.187	0.512
776.000	468.705	80.008	19.994	103.364	16.085	322.081	0.519
778.000	469.738	80.001	19.993	103.319	15.865	339.312	0.518
780.000	470.780	80.008	19.993	103.289	15.633	357.341	0.499
782.000	471.801	80.007	19.994	103.250	15.392	375.929	0.496
784.000	472.835	80.010	19.994	103.201	15.145	395.039	0.494
786.000	473.842	80.006	19.993	103.164	14.896	414.359	0.491
788.000	474.888	80.006	19.994	103.114	14.651	433.425	0.513
790.000	475.913	80.007	19.993	103.131	14.402	452.676	0.482
792.000	476.980	80.024	19.991	103.028	14.164	471.109	0.502
794.000	477.994	80.011	19.991	102.970	13.934	488.989	0.513
796.000	479.033	80.010	19.993	102.913	13.711	506.712	0.509
798.000	480.035	80.019	19.992	102.866	13.513	522.388	0.498
800.001	481.054	80.023	19.992	102.830	13.353	534.888	0.535
802.000	482.093	80.016	19.993	102.789	13.223	544.667	0.531
804.000	483.110	80.014	19.992	102.746	13.115	552.899	0.480
806.000	484.185	80.007	19.992	102.776	13.011	561.002	0.536
808.000	485.176	80.007	19.993	102.834	12.921	568.098	0.547
810.000	486.229	80.013	19.992	102.845	12.859	573.130	0.540
812.000	487.233	80.004	19.993	102.794	12.837	574.952	0.487
814.000	488.300	80.013	19.993	102.742	12.859	573.524	0.537
816.000	489.342	80.005	19.992	102.702	12.937	567.787	0.489
818.000	490.401	80.013	19.994	102.723	13.073	557.436	0.544
820.000	491.451	80.010	19.992	102.751	13.268	542.765	0.531
822.000	492.518	80.017	19.991	102.774	13.531	522.682	0.531
824.000	493.547	80.002	19.994	102.810	13.852	497.913	0.556
826.000	494.633	80.011	19.992	102.856	14.225	469.046	0.479
828.000	495.680	79.996	19.996	102.937	14.656	435.639	0.531
830.000	496.774	79.992	19.994	102.990	15.128	398.894	0.520
832.000	497.825	80.009	19.992	103.122	15.631	359.496	0.505
834.000	498.893	80.006	19.994	103.213	16.144	319.297	0.551
836.000	499.962	80.006	19.995	103.316	16.648	279.672	0.522
838.000	501.042	80.020	19.991	103.424	17.140	240.857	0.559
840.000	502.108	80.017	19.993	103.545	17.599	204.641	0.543
842.000	503.155	80.001	19.995	103.634	18.008	172.275	0.530
844.000	504.222	80.010	19.993	103.711	18.381	142.869	0.536
846.001	505.285	80.016	19.993	103.780	18.706	117.171	0.526
848.000	506.336	79.999	19.996	103.819	18.988	94.900	0.535
850.000	507.401	80.000	19.994	103.841	19.221	76.463	0.535
852.000	508.446	80.007	19.993	103.855	19.420	60.766	0.514
854.000	509.534	80.008	19.994	103.863	19.581	48.026	0.549
856.000	510.545	80.014	19.993	103.892	19.712	37.678	0.493
858.000	511.548	80.002	19.995	103.884	19.819	29.150	0.501
860.000	512.607	80.009	19.993	103.876	19.906	22.308	0.507
862.000	513.609	80.009	19.996	103.887	19.967	17.514	0.541
864.000	514.662	80.005	19.994	103.863	20.016	13.606	0.531
866.000	515.697	80.005	19.992	103.858	20.047	11.175	0.527
868.000	516.701	80.009	19.994	103.851	20.074	9.062	0.497
870.000	517.754	80.007	19.994	103.837	20.090	7.772	0.502
872.000	518.775	80.009	19.993	103.827	20.102	6.805	0.506
874.000	519.807	80.008	19.994	103.807	20.113	5.976	0.510
876.000	520.807	80.008	19.994	103.791	20.118	5.544	0.498
878.000	521.850	80.011	19.994	103.773	20.120	5.379	0.518
880.000	522.893	79.999	19.996	103.731	20.125	4.974	0.502
882.000	523.880	80.001	19.994	103.699	20.123	5.152	0.509
884.000	524.899	80.007	19.993	103.671	20.127	4.821	0.551
886.000	525.915	80.004	19.994	103.683	20.127	4.834	0.510
888.000	526.920	80.011	19.993	103.711	20.129	4.687	0.501
890.000	527.969	80.007	19.993	103.741	20.131	4.563	0.514
892.000	528.985	80.008	19.993	103.752	20.128	4.729	0.498
894.000	529.992	80.011	19.992	103.780	20.133	4.386	0.495
896.000	530.989	80.009	19.992	103.794	20.135	4.200	0.515
898.000	532.016	80.014	19.992	103.788	20.135	4.237	0.495
900.000	533.059	80.011	19.994	103.801	20.134	4.276	0.520
902.000	534.071	79.995	19.995	103.820	20.135	4.192	0.489
904.000	535.088	80.007	19.994	103.816	20.134	4.291	0.511
906.000	536.112	80.015	19.993	103.816	20.130	4.617	0.501
908.000	537.143	80.012	19.993	103.811	20.132	4.470	0.518
910.000	538.155	80.017	19.994	103.825	20.133	4.362	0.479
912.000	539.201	80.012	19.994	103.841	20.133	4.345	0.531
914.000	540.192	80.009	19.994	103.825	20.134	4.286	0.490
916.001	541.225	80.004	19.994	103.823	20.131	4.524	0.502
918.000	542.271	80.007	19.995	103.829	20.136	4.150	0.499
920.000	543.286	80.000	19.994	103.822	20.136	4.131	0.479
922.000	544.320	80.010	19.993	103.828	20.137	4.031	0.529
924.000	545.316	80.005	19.994	103.827	20.135	4.180	0.498
926.000	546.359	79.983	19.995	103.817	20.137	4.027	0.528
928.000	547.376	80.006	19.994	103.815	20.137	4.085	0.504
930.000	548.417	79.997	19.996	103.816	20.140	3.816	0.512
932.000	549.474	80.004	19.995	103.818	20.137	4.029	0.518
934.000	550.502	80.009	19.996	103.816	20.136	4.098	0.515
936.000	551.505	80.009	19.993	103.820	20.136	4.131	0.506
938.000	552.553	80.004	19.998	103.817	20.135	4.230	0.535
940.000	553.621	80.036	19.992	103.825	20.136	4.133	0.571
942.000	554.662	80.013	19.992	103.825	20.139	3.923	0.523
944.000	555.661	80.001	19.995	103.818	20.137	4.066	0.504
946.000	556.677	80.010	19.994	103.817	20.139	3.893	0.488
948.000	557.715	80.009	19.991	103.816	20.134	4.282	0.521
950.000	558.706	80.010	19.995	103.816	20.135	4.228	0.520
952.000	559.694	80.019	19.993	103.817	20.138	3.940	0.497
954.000	560.710	80.013	19.992	103.816	20.140	3.848	0.471
956.001	561.758	80.015	19.993	103.811	20.136	4.146	0.540
958.000	562.713	80.005	19.994	103.816	20.137	4.038	0.483
960.000	563.716	80.018	19.991	103.820	20.135	4.174	0.508
962.000	564.683	79.996	19.995	103.821	20.135	4.241	0.467
964.000	565.751	80.009	19.994	103.812	20.136	4.126	0.561
966.000	566.728	80.009	19.992	103.815	20.138	3.999	0.515
968.000	567.762	80.011	19.994	103.810	20.137	4.066	0.510
970.000	568.680	80.005	19.995	103.813	20.133	4.364	0.493
972.000	569.728	80.007	19.994	103.819	20.137	4.055	0.500
974.000	570.695	80.007	19.995	103.819	20.139	3.859	0.491
976.000	571.645	80.007	19.993	103.816	20.142	3.690	0.482
978.000	572.685	80.013	19.993	103.816	20.127	4.854	0.455
980.000	573.662	80.011	19.994	103.820	20.142	3.688	0.468
982.000	574.743	80.003	19.993	103.814	20.135	4.228	0.499
984.001	575.654	80.005	19.992	103.818	20.136	4.098	0.505
986.000	576.792	80.017	19.992	103.816	20.133	4.368	0.602
988.000	577.763	80.021	19.991	103.811	20.136	4.120	0.636
990.000	579.056	80.011	19.994	103.816	20.138	3.999	0.763
992.000	579.196	80.010	19.994	103.817	20.138	3.975	0.021
994.000	581.177	80.009	19.994	103.821	20.144	3.506	0.721
996.000	582.016	80.009	19.992	103.814	20.140	3.796	0.355
998.000	582.708	80.006	19.997	103.823	20.138	3.984	0.484
1000.000	583.646	80.006	19.993	103.821	20.143	3.548	0.513
1002.000	584.686	80.006	19.996	103.822	20.139	3.897	0.409
1004.000	585.669	80.004	19.995	103.818	20.136	4.135	0.426
1006.000	586.749	80.010	19.993	103.817	20.141	3.746	0.477
1008.000	587.743	80.011	19.994	103.816	20.140	3.818	0.504
1010.000	588.778	80.013	19.994	103.822	20.143	3.608	0.551
1012.000	589.737	80.008	19.994	103.818	20.142	3.673	0.546
1014.000	590.767	80.006	19.993	103.820	20.139	3.919	0.499
1016.000	591.737	80.009	19.993	103.821	20.140	3.822	0.483
1018.000	592.735	80.006	19.993	103.821	20.138	3.949	0.516
1020.000	593.809	80.010	19.993	103.824	20.137	4.049	0.551
1022.000	594.860	80.003	19.996	103.819	20.137	4.025	0.545
1024.000	595.913	80.007	19.996	103.820	20.139	3.858	0.544
1026.000	596.921	80.025	19.993	103.824	20.137	4.057	0.517
1028.000	597.926	80.001	19.996	103.827	20.136	4.172	0.488
1030.000	599.037	80.016	19.993	103.821	20.136	4.119	0.541
1032.000	600.016	80.008	19.995	103.819	20.135	4.187	0.533
1034.001	601.090	80.015	19.994	103.818	20.134	4.299	0.534
1036.000	602.015	80.008	19.995	103.805	20.136	4.122	0.508
1038.000	603.071	80.010	19.995	103.815	20.134	4.288	0.508
1040.000	604.094	80.007	19.995	103.810	20.138	3.990	0.496
1042.000	605.203	80.009	19.995	103.809	20.137	4.018	0.537
1044.000	606.165	80.000	19.995	103.813	20.138	3.938	0.490
1046.000	607.235	80.008	19.995	103.804	20.138	3.979	0.486
1048.000	608.272	80.006	19.994	103.813	20.137	4.016	0.531
1050.000	609.282	80.008	19.993	103.820	20.137	4.018	0.508
1052.001	610.275	80.009	19.992	103.816	20.136	4.133	0.487
1054.001	611.285	80.009	19.993	103.811	20.140	3.852	0.510
1056.001	612.356	80.008	19.992	103.796	20.137	4.083	0.514
1058.001	613.362	80.010	19.994	103.811	20.138	3.960	0.489
1060.000	614.380	80.010	19.994	103.815	20.137	4.083	0.495
1062.000	615.433	80.010	19.993	103.813	20.138	4.007	0.510
1064.000	616.435	80.009	19.992	103.811	20.139	3.891	0.515
1066.000	617.481	80.008	19.994	103.812	20.137	4.062	0.523
1068.001	618.513	80.008	19.993	103.819	20.136	4.144	0.514
1070.000	619.505	80.007	19.993	103.814	20.136	4.159	0.499
1072.000	620.566	80.006	19.992	103.808	20.138	4.001	0.497
1074.001	621.598	80.008	19.993	103.817	20.135	4.176	0.499
1076.000	622.661	80.007	19.993	103.816	20.136	4.107	0.531
1078.000	623.708	80.007	19.993	103.818	20.137	4.090	0.541
1080.000	624.724	80.007	19.993	103.821	20.137	4.029	0.489
1082.000	625.780	80.009	19.994	103.819	20.135	4.187	0.524
1084.000	626.816	80.006	19.993	103.815	20.134	4.282	0.536
1086.000	627.855	80.007	19.993	103.815	20.135	4.215	0.534
1088.000	628.907	80.006	19.993	103.824	20.136	4.167	0.561
1090.001	629.953	80.008	19.993	103.823	20.134	4.308	0.533
1092.000	631.020	80.009	19.994	103.821	20.136	4.137	0.511
1094.001	632.038	80.008	19.996	103.818	20.136	4.124	0.501
1096.000	633.096	80.008	19.994	103.819	20.137	4.070	0.497
1098.000	634.138	80.007	19.995	103.818	20.137	4.040	0.545
1100.000	635.202	80.008	19.994	103.820	20.135	4.189	0.519
1102.001	636.267	80.006	19.994	103.818	20.137	4.053	0.549
1104.001	637.345	80.009	19.993	103.817	20.138	3.984	0.524
1106.000	638.424	80.008	19.994	103.820	20.137	4.062	0.554
1108.000	639.479	80.006	19.995	103.818	20.136	4.155	0.545
1110.000	640.511	80.009	19.994	103.819	20.139	3.913	0.544
1112.000	641.555	80.010	19.994	103.819	20.140	3.850	0.517
1114.000	642.606	80.009	19.993	103.820	20.137	4.088	0.543
1116.000	643.672	80.008	19.992	103.821	20.134	4.258	0.536
1118.000	644.742	80.009	19.995	103.825	20.139	3.928	0.529
1120.001	645.759	80.009	19.995	103.820	20.138	3.997	0.498
1122.000	646.796	80.008	19.994	103.817	20.140	3.805	0.526
1124.000	647.822	80.008	19.995	103.817	20.135	4.202	0.503
1126.000	648.885	80.008	19.995	103.819	20.137	4.079	0.508
1128.000	649.927	80.009	19.994	103.821	20.136	4.105	0.524
1130.000	650.952	80.008	19.994	103.818	20.139	3.872	0.503
1132.000	652.001	80.007	19.994	103.821	20.128	4.755	0.532
1134.000	653.005	80.006	19.995	103.823	20.137	4.021	0.483
1136.000	654.072	80.008	19.993	103.818	20.138	3.937	0.522
1138.000	655.095	80.006	19.994	103.817	20.138	3.975	0.492
1140.000	656.176	80.008	19.994	103.818	20.138	3.941	0.538
1142.001	657.150	80.012	19.993	103.821	20.142	3.658	0.540
1144.000	658.154	80.010	19.993	103.821	20.139	3.889	0.508
1146.000	658.340	80.007	19.993	103.825	20.139	3.932	0.034
1148.000	660.185	80.010	19.993	103.825	20.139	3.904	0.530
1150.000	661.239	80.009	19.993	103.822	20.138	3.969	0.510
1152.000	662.246	80.007	19.994	103.822	20.140	3.789	0.506
1154.001	663.197	80.008	19.994	103.821	20.138	3.973	0.501
1156.001	664.259	80.010	19.993	103.820	20.139	3.895	0.504
1158.000	665.267	80.007	19.995	103.815	20.138	3.977	0.512
1160.001	666.262	80.009	19.994	103.818	20.138	3.939	0.491
1162.001	667.276	80.009	19.993	103.819	20.138	3.965	0.517
1164.001	668.323	80.009	19.993	103.820	20.140	3.785	0.524
1166.000	669.324	80.007	19.994	103.814	20.139	3.865	0.497
1168.001	670.357	80.008	19.993	103.820	20.139	3.906	0.534
1170.001	671.397	80.009	19.993	103.824	20.138	3.971	0.495
1172.000	672.429	80.008	19.993	103.824	20.138	3.990	0.551
1174.001	673.449	80.008	19.994	103.829	20.139	3.921	0.525
1176.000	674.456	80.008	19.993	103.824	20.140	3.783	0.506
1178.000	675.607	80.009	19.994	103.821	20.139	3.919	0.536
1180.000	676.571	80.008	19.993	103.820	20.139	3.917	0.466
1182.000	677.535	80.010	19.995	103.820	20.140	3.839	0.466
1184.001	678.571	80.008	19.994	103.821	20.136	4.115	0.512
1186.000	679.540	80.004	19.996	103.820	20.139	3.910	0.471
1188.000	680.588	80.005	19.994	103.819	20.138	3.964	0.484
1190.000	681.617	80.006	19.995	103.817	20.140	3.794	0.512
1192.000	682.615	80.006	19.994	103.819	20.137	4.068	0.502
1194.001	683.619	80.007	19.994	103.814	20.135	4.176	0.529
1196.000	684.619	80.009	19.993	103.817	20.139	3.908	0.512
1198.000	685.626	80.010	19.992	103.820	20.136	4.146	0.535
1200.000	686.652	80.010	19.993	103.820	20.141	3.737	0.535
1202.000	687.625	80.008	19.995	103.821	20.139	3.923	0.478
1204.001	688.651	80.008	19.993	103.821	20.139	3.900	0.541
1206.000	689.687	80.009	19.993	103.821	20.138	4.007	0.513
1208.000	690.645	80.007	19.993	103.821	20.138	3.994	0.496
1210.000	691.691	80.009	19.995	103.817	20.139	3.895	0.509
1212.000	692.670	80.005	19.994	103.804	20.137	4.039	0.507
1214.000	693.723	80.006	19.994	103.808	20.140	3.845	0.532
1216.000	694.675	80.008	19.993	103.819	20.139	3.876	0.479
1218.000	695.692	80.008	19.995	103.799	20.141	3.741	0.499
1220.000	696.699	80.010	19.993	103.812	20.138	3.953	0.512
1222.001	697.668	80.010	19.994	103.808	20.139	3.910	0.471
1224.000	698.723	80.009	19.995	103.805	20.142	3.655	0.540
1226.000	699.719	80.011	19.993	103.812	20.137	4.066	0.482
1228.001	700.756	80.011	19.993	103.809	20.139	3.863	0.516
1230.000	701.778	80.007	19.993	103.808	20.141	3.733	0.499
1232.001	702.790	80.009	19.993	103.810	20.141	3.718	0.516
1234.000	703.832	80.009	19.993	103.808	20.140	3.845	0.517
1236.000	704.839	80.007	19.993	103.811	20.142	3.699	0.492
1238.000	705.900	80.007	19.993	103.811	20.139	3.873	0.546
1240.001	706.892	80.009	19.994	103.819	20.139	3.912	0.521
1242.001	707.934	80.008	19.995	103.814	20.139	3.858	0.539
1244.000	708.966	80.008	19.994	103.809	20.142	3.696	0.493
1246.000	709.946	80.008	19.994	103.814	20.143	3.593	0.521
1248.000	710.948	80.008	19.994	103.815	20.141	3.709	0.543
1250.001	711.968	80.008	19.994	103.808	20.142	3.673	0.542
1252.000	712.960	80.009	19.995	103.812	20.140	3.833	0.511
1254.001	713.968	80.009	19.994	103.805	20.140	3.822	0.490
1256.001	715.005	80.007	19.993	103.817	20.140	3.857	0.559
1258.000	716.049	80.010	19.993	103.807	20.139	3.899	0.563
1260.000	717.049	80.008	19.992	103.812	20.140	3.806	0.435
1262.001	718.051	80.009	19.993	103.815	20.139	3.919	0.535
1264.000	719.066	80.007	19.994	103.817	20.139	3.934	0.505
1266.000	720.031	80.009	19.994	103.823	20.139	3.934	0.495
1268.000	721.076	80.008	19.993	103.817	20.140	3.780	0.505
1270.000	722.043	80.007	19.994	103.806	20.140	3.809	0.481
1272.000	723.050	80.006	19.993	103.818	20.138	4.009	0.503
1274.000	724.030	80.008	19.994	103.823	20.137	4.074	0.508
1276.001	725.040	80.007	19.994	103.817	20.136	4.098	0.512
1278.000	725.992	80.007	19.994	103.809	20.137	4.067	0.521
1280.001	726.995	80.008	19.994	103.810	20.139	3.921	0.507
1282.000	727.965	80.009	19.993	103.801	20.138	3.947	0.476
1284.001	728.963	80.010	19.994	103.808	20.136	4.109	0.488
1286.000	729.910	80.010	19.994	103.804	20.139	3.891	0.480
1288.000	730.882	80.009	19.993	103.801	20.139	3.884	0.480
1290.000	731.896	80.009	19.994	103.805	20.137	4.021	0.503
1292.001	732.834	80.010	19.994	103.813	20.139	3.867	0.482
1294.000	733.850	80.008	19.993	103.813	20.134	4.325	0.505
1296.000	734.847	80.010	19.993	103.809	20.136	4.130	0.533
1298.000	735.823	80.008	19.995	103.815	20.138	4.003	0.498
1300.001	736.794	80.009	19.995	103.814	20.136	4.143	0.469
1302.001	737.813	80.010	19.995	103.815	20.135	4.195	0.495
1304.001	738.844	80.010	19.995	103.811	20.136	4.120	0.515
1306.001	739.835	80.011	19.994	103.808	20.136	4.111	0.502
1308.000	740.796	80.011	19.995	103.809	20.136	4.161	0.490
1310.000	741.822	80.010	19.994	103.818	20.135	4.176	0.519
1312.000	742.863	80.011	19.995	103.807	20.134	4.301	0.491
1313.500	743.577	80.009	19.995	103.806	20.135	4.221	0.505