File: 01_Data/Lightweight_Gypsum_Wallboard_Unpainted_Paper/STA/N2/3K_min/Lightweight_Gypsum_Wallboard_Paper_STA_N2_3KData_220203_R1.csv
##Temp./Â°C,Time/min,Mass loss(subtr.2)/mg,DSC(subtr.2)/mW,Sensit./(uV/mW)
50.13,10.01667,-0.03422,0.08954324,1.04801
50.73,11.07777,-0.03703489,0.19614,1.04774
51.33,11.43528,-0.03784642,0.24817,1.04748
51.93,11.7224,-0.0369013,0.29312,1.04721
52.53,11.98093,-0.03862873,0.32503,1.04695
53.13,12.22541,-0.03853623,0.33542,1.04668
53.73,12.4618,-0.03915438,0.34504,1.04642
54.33,12.69426,-0.04011592,0.35097,1.04615
54.93,12.92148,-0.04110291,0.36186,1.04589
55.53,13.14678,-0.04145468,0.37074,1.04562
56.13,13.36941,-0.04141512,0.37505,1.04536
56.73,13.59136,-0.04375794,0.3974,1.04509
57.33,13.8116,-0.04268228,0.39483,1.04483
57.93,14.0304,-0.04405918,0.40116,1.04457
58.53,14.2469,-0.04520937,0.41978,1.0443
59.13,14.46006,-0.04409,0.41801,1.04404
59.73,14.67,-0.0442339,0.43195,1.04378
60.33,14.87875,-0.0455122,0.43112,1.04352
60.93,15.0867,-0.04593893,0.45012,1.04325
61.53,15.29449,-0.04556619,0.44033,1.04299
62.13,15.50182,-0.04661897,0.45083,1.04273
62.73,15.7079,-0.04789485,0.45153,1.04247
63.33,15.91368,-0.05022448,0.45445,1.04221
63.93,16.11882,-0.04989737,0.44805,1.04194
64.53,16.3236,-0.05026017,0.47105,1.04168
65.13,16.5274,-0.05119352,0.47622,1.04142
65.73,16.7305,-0.05123314,0.47831,1.04116
66.33,16.9325,-0.05250338,0.48187,1.0409
66.93,17.13481,-0.05384588,0.50287,1.04064
67.53,17.3375,-0.0525373,0.50162,1.04038
68.13,17.54026,-0.05244701,0.50767,1.04012
68.73,17.74267,-0.0532991,0.5088,1.03986
69.33,17.94387,-0.05460999,0.5231,1.0396
69.93,18.146,-0.05667132,0.52838,1.03934
70.53,18.34791,-0.05528879,0.54892,1.03908
71.13,18.55101,-0.05725267,0.54367,1.03882
71.73,18.75366,-0.05856,0.5464,1.03856
72.33,18.95562,-0.05856,0.55125,1.0383
72.93,19.15705,-0.06017168,0.55326,1.03804
73.53,19.3586,-0.06158042,0.56323,1.03779
74.13,19.56073,-0.06185752,0.56121,1.03753
74.73,19.7628,-0.06153155,0.55801,1.03727
75.33,19.96472,-0.06276001,0.55614,1.03701
75.93,20.16554,-0.06377096,0.56691,1.03675
76.53,20.36583,-0.06312919,0.5638,1.03649
77.13,20.56581,-0.06546669,0.5523,1.03624
77.73,20.76634,-0.06351392,0.56244,1.03598
78.33,20.967,-0.06416006,0.55614,1.03572
78.93,21.16692,-0.06679089,0.55688,1.03547
79.53,21.36696,-0.0681143,0.54984,1.03521
80.13,21.5678,-0.06679,0.54329,1.03495
80.73,21.76944,-0.06680174,0.54372,1.0347
81.33,21.97105,-0.06889986,0.54546,1.03444
81.93,22.17291,-0.06907273,0.52945,1.03418
82.53,22.3745,-0.07070339,0.52719,1.03393
83.13,22.57649,-0.07074014,0.52615,1.03367
83.73,22.77851,-0.07343697,0.5235,1.03341
84.33,22.9794,-0.0720943,0.51649,1.03316
84.93,23.18025,-0.0733787,0.51282,1.0329
85.53,23.3814,-0.0720226,0.51917,1.03265
86.13,23.58165,-0.07239675,0.51282,1.03239
86.73,23.78205,-0.07501796,0.50299,1.03214
87.33,23.98105,-0.07570491,0.50914,1.03188
87.93,24.17882,-0.07501999,0.5008,1.03163
88.53,24.37634,-0.07466541,0.51077,1.03137
89.13,24.57415,-0.0757541,0.50066,1.03112
89.73,24.77145,-0.07567275,0.50142,1.03087
90.33,24.96892,-0.07501931,0.50722,1.03061
90.93,25.16687,-0.07502047,0.49756,1.03036
91.53,25.36514,-0.07601008,0.48475,1.0301
92.13,25.56501,-0.07536823,0.48289,1.02985
92.73,25.76459,-0.0761042,0.47888,1.0296
93.33,25.96459,-0.0776535,0.46452,1.02934
93.93,26.16463,-0.07634186,0.47906,1.02909
94.53,26.36417,-0.07929459,0.46541,1.02884
95.13,26.5649,-0.07797996,0.47432,1.02858
95.73,26.7653,-0.079591,0.4611,1.02833
96.33,26.9662,-0.07831165,0.4624,1.02808
96.93,27.16654,-0.07963,0.45422,1.02783
97.53,27.3668,-0.08094987,0.46105,1.02757
98.13,27.56774,-0.08093975,0.45264,1.02732
98.73,27.7677,-0.08094,0.45105,1.02707
99.33,27.96805,-0.08094,0.45893,1.02682
99.93,28.16715,-0.08094213,0.45763,1.02657
100.53,28.3662,-0.08236953,0.46297,1.02631
101.13,28.56462,-0.08135976,0.46337,1.02606
101.73,28.7633,-0.0807865,0.46738,1.02581
102.33,28.9617,-0.08069918,0.46887,1.02556
102.93,29.1607,-0.08204155,0.46985,1.02531
103.53,29.35957,-0.08336042,0.46493,1.02506
104.13,29.5586,-0.08335996,0.46967,1.02481
104.73,29.7566,-0.08269829,0.46402,1.02456
105.33,29.95287,-0.08372153,0.46024,1.02431
105.93,30.1491,-0.08302908,0.47039,1.02406
106.53,30.3452,-0.08352157,0.47188,1.02381
107.13,30.54155,-0.08368954,0.46766,1.02356
107.73,30.73899,-0.08304943,0.47285,1.02331
108.33,30.93664,-0.0838047,0.46448,1.02306
108.93,31.1354,-0.0840183,0.4579,1.02281
109.53,31.3343,-0.08645733,0.45285,1.02256
110.13,31.53203,-0.08225991,0.46172,1.02231
110.73,31.72965,-0.08356956,0.45439,1.02206
111.33,31.92721,-0.08225963,0.45574,1.02181
111.93,32.1247,-0.08357082,0.44466,1.02156
112.53,32.3221,-0.08358124,0.4452,1.02131
113.13,32.51977,-0.08601113,0.44934,1.02106
113.73,32.71775,-0.08620994,0.44707,1.02081
114.33,32.916,-0.0868687,0.45255,1.02056
114.93,33.11437,-0.08295128,0.453,1.02031
115.53,33.31193,-0.08422147,0.449,1.02007
116.13,33.50994,-0.08363566,0.43859,1.01982
116.73,33.70902,-0.08424674,0.44138,1.01957
117.33,33.908,-0.08425808,0.43757,1.01932
117.93,34.1066,-0.08292,0.43281,1.01907
118.53,34.30467,-0.08291901,0.44191,1.01883
119.13,34.502,-0.08425855,0.44381,1.01858
119.73,34.6987,-0.08423,0.45388,1.01833
120.33,34.89536,-0.08555208,0.45191,1.01808
120.93,35.09173,-0.08555021,0.44766,1.01784
121.53,35.28828,-0.08532355,0.44526,1.01759
122.13,35.48503,-0.08463746,0.45999,1.01734
122.73,35.68136,-0.08324007,0.45795,1.01709
123.33,35.87865,-0.08454427,0.45085,1.01685
123.93,36.07593,-0.08555,0.45134,1.0166
124.53,36.2744,-0.0861998,0.44622,1.01635
125.13,36.47175,-0.08499996,0.44843,1.01611
125.73,36.66905,-0.08532208,0.45152,1.01586
126.33,36.86668,-0.08566001,0.45899,1.01561
126.93,37.0657,-0.08566,0.452,1.01537
127.53,37.26583,-0.08566,0.45245,1.01512
128.13,37.46492,-0.08666868,0.45333,1.01487
128.73,37.66365,-0.08657258,0.44496,1.01463
129.33,37.86125,-0.08494973,0.44406,1.01438
129.93,38.05958,-0.08619628,0.45177,1.01414
130.53,38.25705,-0.08534591,0.444,1.01389
131.13,38.4538,-0.08431005,0.45081,1.01364
131.73,38.65032,-0.08501322,0.44858,1.0134
132.33,38.84603,-0.08368546,0.46564,1.01315
132.93,39.04377,-0.08565991,0.45602,1.01291
133.53,39.24009,-0.08695976,0.45815,1.01266
134.13,39.43763,-0.08692161,0.4618,1.01242
134.73,39.63423,-0.08696779,0.45789,1.01217
135.33,39.83146,-0.08662925,0.45537,1.01193
135.93,40.0286,-0.08553155,0.45198,1.01168
136.53,40.22633,-0.08486244,0.46155,1.01144
137.13,40.4239,-0.08698871,0.46236,1.01119
137.73,40.62124,-0.08558168,0.45841,1.01095
138.33,40.81876,-0.08565997,0.47067,1.0107
138.93,41.016,-0.08566,0.46979,1.01046
139.53,41.2119,-0.08567773,0.4804,1.01021
140.13,41.40713,-0.08562758,0.48284,1.00997
140.73,41.60259,-0.08697962,0.48438,1.00972
141.33,41.79811,-0.08697996,0.48681,1.00948
141.93,41.99408,-0.08698,0.47866,1.00923
142.53,42.18996,-0.08698021,0.47216,1.00899
143.13,42.38558,-0.08563279,0.46628,1.00874
143.73,42.582,-0.08665,0.46819,1.0085
144.33,42.77908,-0.08604318,0.47246,1.00826
144.93,42.97671,-0.08564502,0.46866,1.00801
145.53,43.1753,-0.08565966,0.47379,1.00777
146.13,43.37363,-0.08595473,0.47006,1.00752
146.73,43.5717,-0.08623625,0.46536,1.00728
147.33,43.76924,-0.08614475,0.46999,1.00704
147.93,43.96654,-0.0859827,0.4676,1.00679
148.53,44.16305,-0.08660768,0.47925,1.00655
149.13,44.35993,-0.08631014,0.47438,1.00631
149.73,44.5557,-0.08631067,0.47123,1.00606
150.33,44.7506,-0.08632795,0.48996,1.00582
150.93,44.94474,-0.08633076,0.48148,1.00558
151.53,45.1384,-0.08766819,0.4905,1.00533
152.13,45.33255,-0.08631993,0.48235,1.00509
152.73,45.52562,-0.0859901,0.48729,1.00485
153.33,45.7184,-0.08599,0.48354,1.0046
153.93,45.91109,-0.08599,0.49217,1.00436
154.53,46.10394,-0.08599767,0.48919,1.00412
155.13,46.29825,-0.08698,0.49232,1.00387
155.73,46.494,-0.08698,0.48515,1.00363
156.33,46.69065,-0.08698,0.4833,1.00339
156.93,46.88793,-0.08698,0.49009,1.00315
157.53,47.08488,-0.08697999,0.48823,1.0029
158.13,47.28176,-0.08796094,0.48387,1.00266
158.73,47.47764,-0.08664996,0.49067,1.00242
159.33,47.6734,-0.08664999,0.49782,1.00217
159.93,47.86872,-0.08762931,0.49581,1.00193
160.53,48.0634,-0.0876074,0.49167,1.00169
161.13,48.2583,-0.08665235,0.50711,1.00145
161.73,48.45342,-0.08576376,0.50458,1.0012
162.33,48.64975,-0.08665001,0.5068,1.00096
162.93,48.8463,-0.08762846,0.49389,1.00072
163.53,49.04183,-0.08829963,0.49482,1.00048
164.13,49.23812,-0.08704138,0.50599,1.00023
164.73,49.4343,-0.08731115,0.49966,0.99999
165.33,49.6303,-0.08598516,0.50848,0.99975
165.93,49.82755,-0.08862051,0.49778,0.99951
166.53,50.02497,-0.08829405,0.50309,0.99927
167.13,50.2222,-0.08760502,0.49811,0.99902
167.73,50.4191,-0.08764013,0.50004,0.99878
168.33,50.6141,-0.08764197,0.49781,0.99854
168.93,50.80878,-0.08751059,0.50381,0.9983
169.53,51.00278,-0.08764,0.51721,0.99805
170.13,51.197,-0.08764,0.51958,0.99781
170.73,51.39148,-0.08759147,0.51989,0.99757
171.33,51.5856,-0.08751021,0.51381,0.99733
171.93,51.7804,-0.08782903,0.51509,0.99709
172.53,51.97506,-0.08774059,0.51357,0.99684
173.13,52.17072,-0.08729185,0.51984,0.9966
173.73,52.36652,-0.08764,0.50381,0.99636
174.33,52.563,-0.08764056,0.51219,0.99612
174.93,52.7595,-0.08795999,0.51532,0.99588
175.53,52.95556,-0.08879756,0.5139,0.99563
176.13,53.15201,-0.08924823,0.52881,0.99539
176.73,53.34808,-0.09060996,0.52768,0.99515
177.33,53.54396,-0.09092995,0.52754,0.99491
177.93,53.73899,-0.09233581,0.53047,0.99467
178.53,53.93331,-0.09092999,0.53474,0.99442
179.13,54.1276,-0.08993813,0.5389,0.99418
179.73,54.32161,-0.09077602,0.53831,0.99394
180.33,54.5158,-0.09191646,0.54217,0.9937
180.93,54.7093,-0.09191,0.53856,0.99346
181.53,54.90359,-0.0919077,0.54445,0.99322
182.13,55.09779,-0.09388751,0.54746,0.99297
182.73,55.29306,-0.09221016,0.54083,0.99273
183.33,55.48774,-0.09125761,0.53438,0.99249
183.93,55.6822,-0.09257085,0.53872,0.99225
184.53,55.8758,-0.09257071,0.5482,0.99201
185.13,56.0698,-0.09201493,0.54931,0.99176
185.73,56.26336,-0.09261031,0.54555,0.99152
186.33,56.4569,-0.09394174,0.55437,0.99128
186.93,56.6506,-0.09256963,0.54959,0.99104
187.53,56.84495,-0.09303637,0.56107,0.9908
188.13,57.0397,-0.09224008,0.56864,0.99055
188.73,57.2348,-0.09356584,0.56809,0.99031
189.33,57.43043,-0.09388834,0.55962,0.99007
189.93,57.6259,-0.09521335,0.56703,0.98983
190.53,57.82145,-0.09589637,0.5674,0.98959
191.13,58.01687,-0.09586,0.56382,0.98934
191.73,58.2114,-0.09611957,0.56123,0.9891
192.33,58.40605,-0.0946714,0.55291,0.98886
192.93,58.60103,-0.09455,0.55151,0.98862
193.53,58.7967,-0.09686271,0.55352,0.98838
194.13,58.99241,-0.09684013,0.55758,0.98813
194.73,59.1884,-0.0981515,0.55701,0.98789
195.33,59.3838,-0.09618924,0.5507,0.98765
195.93,59.5795,-0.09655924,0.55573,0.98741
196.53,59.7748,-0.09685,0.55772,0.98717
197.13,59.96989,-0.09679699,0.56806,0.98692
197.73,60.166,-0.09968135,0.55903,0.98668
198.33,60.362,-0.09960098,0.57114,0.98644
198.93,60.55865,-0.09834283,0.56224,0.9862
199.53,60.755,-0.09778427,0.5701,0.98595
200.13,60.951,-0.09893186,0.57315,0.98571
200.73,61.1464,-0.1007,0.57425,0.98547
201.33,61.34134,-0.09990789,0.58041,0.98523
201.93,61.536,-0.10048,0.56844,0.98499
202.53,61.72976,-0.10156,0.58287,0.98474
203.13,61.9244,-0.10302,0.57444,0.9845
203.73,62.11922,-0.10265,0.57816,0.98426
204.33,62.3135,-0.10387,0.58291,0.98402
204.93,62.50865,-0.10288,0.59303,0.98377
205.53,62.7032,-0.1042,0.58819,0.98353
206.13,62.8971,-0.10453,0.58245,0.98329
206.73,63.09066,-0.10453,0.5875,0.98304
207.33,63.2847,-0.10453,0.59028,0.9828
207.93,63.4792,-0.10716,0.58579,0.98256
208.53,63.6744,-0.10575,0.57986,0.98232
209.13,63.86945,-0.10683,0.58454,0.98207
209.73,64.06439,-0.1075,0.58403,0.98183
210.33,64.25963,-0.10694,0.59225,0.98159
210.93,64.4549,-0.10694,0.58909,0.98134
211.53,64.64873,-0.10913,0.57926,0.9811
212.13,64.8433,-0.10718,0.59523,0.98086
212.73,65.03793,-0.1099,0.59661,0.98061
213.33,65.23358,-0.10924,0.60923,0.98037
213.93,65.42951,-0.1112,0.59647,0.98013
214.53,65.62496,-0.11124,0.59698,0.97988
215.13,65.8195,-0.11115,0.60799,0.97964
215.73,66.01424,-0.11385,0.60625,0.9794
216.33,66.20862,-0.11385,0.61411,0.97915
216.93,66.4032,-0.1145,0.60275,0.97891
217.53,66.5977,-0.11578,0.61066,0.97867
218.13,66.792,-0.11565,0.61473,0.97842
218.73,66.98651,-0.11878,0.60313,0.97818
219.33,67.1807,-0.11845,0.60652,0.97793
219.93,67.37544,-0.1194,0.61416,0.97769
220.53,67.57122,-0.12109,0.61053,0.97745
221.13,67.76729,-0.12109,0.60564,0.9772
221.73,67.96372,-0.12062,0.6065,0.97696
222.33,68.15975,-0.12285,0.61051,0.97671
222.93,68.3553,-0.12427,0.61872,0.97647
223.53,68.5509,-0.12528,0.61922,0.97622
224.13,68.74629,-0.12657,0.62054,0.97598
224.73,68.94249,-0.12789,0.61514,0.97573
225.33,69.13899,-0.12954,0.61604,0.97549
225.93,69.33442,-0.13085,0.6249,0.97525
226.53,69.52969,-0.13152,0.62483,0.975
227.13,69.72434,-0.13312,0.63456,0.97476
227.73,69.9183,-0.13447,0.63666,0.97451
228.33,70.11286,-0.13579,0.63769,0.97426
228.93,70.3074,-0.13749,0.6453,0.97402
229.53,70.50176,-0.13883,0.6401,0.97377
230.13,70.69669,-0.1404,0.64816,0.97353
230.73,70.8917,-0.14171,0.63495,0.97328
231.33,71.0869,-0.14171,0.64189,0.97304
231.93,71.2826,-0.14562,0.64682,0.97279
232.53,71.47802,-0.1442,0.64288,0.97255
233.13,71.67325,-0.14793,0.64421,0.9723
233.73,71.86872,-0.14857,0.64673,0.97205
234.33,72.06381,-0.14984,0.65457,0.97181
234.93,72.25827,-0.15342,0.6512,0.97156
235.53,72.45335,-0.1567,0.64799,0.97132
236.13,72.6489,-0.15805,0.6466,0.97107
236.73,72.84406,-0.15935,0.64827,0.97082
237.33,73.04001,-0.16066,0.64752,0.97058
237.93,73.23437,-0.16206,0.65461,0.97033
238.53,73.42869,-0.16464,0.64856,0.97008
239.13,73.62289,-0.16726,0.65642,0.96984
239.73,73.81617,-0.16891,0.67508,0.96959
240.33,74.0095,-0.17121,0.67316,0.96934
240.93,74.20268,-0.17389,0.66454,0.96909
241.53,74.3964,-0.17517,0.67336,0.96885
242.13,74.59055,-0.17878,0.66492,0.9686
242.73,74.78448,-0.18141,0.67056,0.96835
243.33,74.9786,-0.18341,0.6714,0.9681
243.93,75.17282,-0.18536,0.67341,0.96786
244.53,75.36709,-0.18668,0.66721,0.96761
245.13,75.56194,-0.18931,0.65803,0.96736
245.73,75.75729,-0.19291,0.66307,0.96711
246.33,75.95265,-0.19519,0.65498,0.96686
246.93,76.14744,-0.19782,0.65503,0.96662
247.53,76.34212,-0.2019,0.66238,0.96637
248.13,76.53663,-0.2044,0.65619,0.96612
248.73,76.73063,-0.20698,0.6576,0.96587
249.33,76.92399,-0.21105,0.65507,0.96562
249.93,77.11711,-0.21399,0.65749,0.96537
250.53,77.31045,-0.21649,0.661,0.96512
251.13,77.50476,-0.22056,0.66443,0.96487
251.73,77.70052,-0.22552,0.64627,0.96462
252.33,77.8959,-0.22916,0.64789,0.96437
252.93,78.09212,-0.23241,0.6505,0.96413
253.53,78.28752,-0.23766,0.65424,0.96388
254.13,78.48371,-0.24164,0.6601,0.96363
254.73,78.67995,-0.24596,0.66141,0.96338
255.33,78.87505,-0.25053,0.65616,0.96313
255.93,79.0704,-0.25517,0.66109,0.96287
256.53,79.26571,-0.25931,0.6719,0.96262
257.13,79.46073,-0.26635,0.66821,0.96237
257.73,79.65606,-0.26744,0.6728,0.96212
258.33,79.85042,-0.27399,0.67575,0.96187
258.93,80.04457,-0.27934,0.67486,0.96162
259.53,80.23877,-0.28528,0.67916,0.96137
260.13,80.4328,-0.28851,0.67371,0.96112
260.73,80.62686,-0.2936,0.68338,0.96087
261.33,80.82112,-0.30047,0.69847,0.96062
261.93,81.0155,-0.3054,0.69416,0.96036
262.53,81.2102,-0.31235,0.70008,0.96011
263.13,81.40495,-0.31766,0.70068,0.95986
263.73,81.59979,-0.32268,0.70357,0.95961
264.33,81.79429,-0.3304,0.70907,0.95935
264.93,81.98963,-0.33637,0.7146,0.9591
265.53,82.18479,-0.34325,0.716,0.95885
266.13,82.38009,-0.34893,0.72101,0.9586
266.73,82.57539,-0.35684,0.73747,0.95834
267.33,82.76988,-0.36355,0.73005,0.95809
267.93,82.9653,-0.37031,0.74049,0.95784
268.53,83.16049,-0.37737,0.73313,0.95758
269.13,83.35582,-0.38608,0.74513,0.95733
269.73,83.55064,-0.39206,0.74847,0.95708
270.33,83.7448,-0.39931,0.76074,0.95682
270.93,83.9393,-0.4068,0.76064,0.95657
271.53,84.1343,-0.41654,0.77599,0.95631
272.13,84.3296,-0.42499,0.76578,0.95606
272.73,84.52588,-0.43251,0.77147,0.9558
273.33,84.72189,-0.4419,0.78092,0.95555
273.93,84.91855,-0.45035,0.76651,0.95529
274.53,85.11506,-0.45644,0.77589,0.95504
275.13,85.3112,-0.46711,0.77895,0.95478
275.73,85.50725,-0.47566,0.77381,0.95453
276.33,85.70342,-0.48444,0.78806,0.95427
276.93,85.8989,-0.4948,0.78449,0.95402
277.53,86.09433,-0.50389,0.81073,0.95376
278.13,86.2895,-0.51556,0.82067,0.9535
278.73,86.48476,-0.52474,0.83048,0.95325
279.33,86.67965,-0.5345,0.8399,0.95299
279.93,86.87504,-0.54363,0.85065,0.95273
280.53,87.06985,-0.55513,0.84469,0.95248
281.13,87.26528,-0.56581,0.85119,0.95222
281.73,87.46077,-0.57549,0.86154,0.95196
282.33,87.65664,-0.58664,0.85936,0.9517
282.93,87.8522,-0.5985,0.8661,0.95145
283.53,88.04732,-0.60822,0.87678,0.95119
284.13,88.24322,-0.62078,0.87806,0.95093
284.73,88.4383,-0.63169,0.8835,0.95067
285.33,88.63289,-0.64536,0.88459,0.95041
285.93,88.82762,-0.65778,0.89488,0.95015
286.53,89.02221,-0.66894,0.9019,0.9499
287.13,89.2179,-0.68019,0.90453,0.94964
287.73,89.41405,-0.69345,0.906,0.94938
288.33,89.60995,-0.7056,0.91216,0.94912
288.93,89.80565,-0.71834,0.91869,0.94886
289.53,90.0017,-0.73175,0.91812,0.9486
290.13,90.19705,-0.74393,0.93011,0.94834
290.73,90.3926,-0.75638,0.93256,0.94808
291.33,90.58788,-0.76967,0.94066,0.94782
291.93,90.7829,-0.78443,0.93484,0.94756
292.53,90.9781,-0.7974,0.94979,0.94729
293.13,91.17313,-0.81151,0.94747,0.94703
293.73,91.36785,-0.82621,0.95924,0.94677
294.33,91.56189,-0.83922,0.95628,0.94651
294.93,91.7561,-0.85375,0.96234,0.94625
295.53,91.9504,-0.86665,0.96959,0.94599
296.13,92.14545,-0.88173,0.97993,0.94572
296.73,92.3406,-0.89677,0.99057,0.94546
297.33,92.5359,-0.91132,0.99792,0.9452
297.93,92.7309,-0.92751,0.99525,0.94494
298.53,92.92576,-0.94055,0.99817,0.94467
299.13,93.1208,-0.95751,1.01036,0.94441
299.73,93.31572,-0.97252,1.00117,0.94415
300.33,93.51161,-0.98956,1.01068,0.94388
300.93,93.70798,-1.00377,1.01923,0.94362
301.53,93.90472,-1.02103,1.02469,0.94335
302.13,94.1019,-1.03767,1.02594,0.94309
302.73,94.2989,-1.05339,1.02533,0.94282
303.33,94.49597,-1.0707,1.03764,0.94256
303.93,94.69326,-1.08953,1.05019,0.94229
304.53,94.8898,-1.10512,1.06142,0.94203
305.13,95.08649,-1.12159,1.06627,0.94176
305.73,95.2828,-1.14057,1.08022,0.9415
306.33,95.4788,-1.15942,1.09203,0.94123
306.93,95.6747,-1.17477,1.10281,0.94096
307.53,95.8703,-1.19432,1.10633,0.9407
308.13,96.06616,-1.21331,1.11627,0.94043
308.73,96.2621,-1.23164,1.12601,0.94016
309.33,96.45791,-1.25093,1.13751,0.9399
309.93,96.65394,-1.27031,1.14294,0.93963
310.53,96.8503,-1.28916,1.13462,0.93936
311.13,97.04726,-1.3094,1.14314,0.93909
311.73,97.24462,-1.32888,1.15174,0.93883
312.33,97.44181,-1.34916,1.14879,0.93856
312.93,97.63938,-1.37022,1.16882,0.93829
313.53,97.83637,-1.39057,1.17635,0.93802
314.13,98.0333,-1.4144,1.18782,0.93775
314.73,98.2299,-1.43424,1.20125,0.93748
315.33,98.42668,-1.45731,1.21948,0.93721
315.93,98.62325,-1.47953,1.23387,0.93694
316.53,98.81867,-1.50165,1.25307,0.93667
317.13,99.01363,-1.52408,1.26188,0.9364
317.73,99.208,-1.54673,1.2761,0.93613
318.33,99.40258,-1.57055,1.29127,0.93586
318.93,99.59713,-1.59329,1.29304,0.93559
319.53,99.79173,-1.61816,1.30447,0.93532
320.13,99.98738,-1.64321,1.31872,0.93504
320.73,100.183,-1.66867,1.33117,0.93477
321.33,100.3797,-1.69387,1.34897,0.9345
321.93,100.576,-1.71984,1.35216,0.93423
322.53,100.773,-1.74546,1.35485,0.93395
323.13,100.969,-1.771,1.37292,0.93368
323.73,101.166,-1.79848,1.37558,0.93341
324.33,101.364,-1.82458,1.38377,0.93313
324.93,101.561,-1.8526,1.38275,0.93286
325.53,101.758,-1.87968,1.38219,0.93259
326.13,101.954,-1.90839,1.39091,0.93231
326.73,102.151,-1.93693,1.39728,0.93204
327.33,102.347,-1.96307,1.40523,0.93176
327.93,102.543,-1.99202,1.4134,0.93149
328.53,102.739,-2.01979,1.40975,0.93121
329.13,102.934,-2.04845,1.40642,0.93094
329.73,103.13,-2.07508,1.41078,0.93066
330.33,103.326,-2.10303,1.40468,0.93038
330.93,103.522,-2.13247,1.40391,0.93011
331.53,103.717,-2.15983,1.39511,0.92983
332.13,103.914,-2.18642,1.39152,0.92955
332.73,104.11,-2.21502,1.36333,0.92927
333.33,104.307,-2.24092,1.35441,0.929
333.93,104.503,-2.26752,1.32298,0.92872
334.53,104.699,-2.29375,1.30994,0.92844
335.13,104.895,-2.31942,1.28913,0.92816
335.73,105.092,-2.34396,1.26348,0.92788
336.33,105.289,-2.37018,1.23372,0.9276
336.93,105.487,-2.39279,1.20427,0.92732
337.53,105.684,-2.41605,1.17973,0.92704
338.13,105.881,-2.43874,1.15245,0.92676
338.73,106.077,-2.45835,1.11507,0.92648
339.33,106.273,-2.47902,1.08127,0.9262
339.93,106.469,-2.49892,1.04894,0.92592
340.53,106.665,-2.51672,1.00686,0.92564
341.13,106.861,-2.53499,0.96851,0.92536
341.73,107.056,-2.55284,0.92831,0.92508
342.33,107.252,-2.56797,0.89756,0.9248
342.93,107.447,-2.58283,0.85947,0.92451
343.53,107.643,-2.59782,0.82445,0.92423
344.13,107.84,-2.61099,0.77556,0.92395
344.73,108.037,-2.62247,0.74074,0.92367
345.33,108.234,-2.63458,0.7137,0.92338
345.93,108.432,-2.64673,0.67267,0.9231
346.53,108.628,-2.65739,0.65249,0.92281
347.13,108.824,-2.66569,0.62127,0.92253
347.73,109.019,-2.67408,0.59036,0.92224
348.33,109.215,-2.6818,0.55687,0.92196
348.93,109.412,-2.68871,0.53479,0.92167
349.53,109.609,-2.69565,0.50727,0.92139
350.13,109.806,-2.70249,0.4836,0.9211
350.73,110.003,-2.70711,0.45948,0.92082
351.33,110.2,-2.71056,0.44588,0.92053
351.93,110.396,-2.71669,0.42198,0.92024
352.53,110.592,-2.71883,0.42267,0.91995
353.13,110.787,-2.72409,0.40877,0.91967
353.73,110.983,-2.72811,0.38594,0.91938
354.33,111.179,-2.72937,0.37238,0.91909
354.93,111.375,-2.73459,0.34812,0.9188
355.53,111.572,-2.7371,0.33782,0.91851
356.13,111.768,-2.73972,0.34251,0.91822
356.73,111.964,-2.74118,0.3414,0.91794
357.33,112.161,-2.74372,0.34065,0.91765
357.93,112.358,-2.74636,0.32787,0.91736
358.53,112.556,-2.74786,0.33255,0.91706
359.13,112.753,-2.75043,0.32094,0.91677
359.73,112.9497,-2.75169,0.31614,0.91648
360.33,113.147,-2.75568,0.29902,0.91619
360.93,113.344,-2.75552,0.31236,0.9159
361.53,113.541,-2.75696,0.30706,0.91561
362.13,113.738,-2.76022,0.29355,0.91532
362.73,113.934,-2.76276,0.29272,0.91502
363.33,114.13,-2.76391,0.28693,0.91473
363.93,114.327,-2.76541,0.29318,0.91444
364.53,114.523,-2.7671,0.29351,0.91414
365.13,114.72,-2.77001,0.30277,0.91385
365.73,114.917,-2.77133,0.28799,0.91355
366.33,115.114,-2.77396,0.28811,0.91326
366.93,115.311,-2.77397,0.27658,0.91296
367.53,115.507,-2.77737,0.27587,0.91267
368.13,115.704,-2.77922,0.28895,0.91237
368.73,115.8999,-2.77988,0.28695,0.91208
369.33,116.097,-2.78284,0.28696,0.91178
369.93,116.294,-2.78418,0.27739,0.91148
370.53,116.491,-2.78745,0.28332,0.91119
371.13,116.688,-2.79094,0.27102,0.91089
371.73,116.8839,-2.79007,0.28495,0.91059
372.33,117.08,-2.79271,0.27375,0.91029
372.93,117.277,-2.79607,0.27952,0.90999
373.53,117.475,-2.79476,0.27794,0.9097
374.13,117.672,-2.79676,0.26661,0.9094
374.73,117.869,-2.80127,0.25718,0.9091
375.33,118.067,-2.79951,0.26941,0.9088
375.93,118.266,-2.80141,0.26067,0.9085
376.53,118.464,-2.80604,0.27009,0.9082
377.13,118.662,-2.80607,0.27075,0.9079
377.73,118.859,-2.80719,0.27437,0.90759
378.33,119.056,-2.80917,0.26785,0.90729
378.93,119.253,-2.81092,0.27241,0.90699
379.53,119.45,-2.81224,0.26904,0.90669
380.13,119.648,-2.81356,0.26079,0.90639
380.73,119.845,-2.81593,0.25339,0.90608
381.33,120.0416,-2.81625,0.26117,0.90578
381.93,120.238,-2.81946,0.25042,0.90548
382.53,120.435,-2.82122,0.23865,0.90517
383.13,120.631,-2.82343,0.25331,0.90487
383.73,120.827,-2.8241,0.26214,0.90456
384.33,121.023,-2.82534,0.25406,0.90426
384.93,121.22,-2.82808,0.24705,0.90395
385.53,121.417,-2.83068,0.23368,0.90365
386.13,121.6131,-2.83055,0.24081,0.90334
386.73,121.81,-2.8333,0.24258,0.90303
387.33,122.007,-2.8345,0.24431,0.90273
387.93,122.206,-2.83594,0.24435,0.90242
388.53,122.405,-2.83825,0.25474,0.90211
389.13,122.604,-2.83952,0.23989,0.9018
389.73,122.804,-2.84215,0.24363,0.90149
390.33,123.003,-2.84282,0.23968,0.90119
390.93,123.201,-2.84479,0.24044,0.90088
391.53,123.399,-2.84746,0.23837,0.90057
392.13,123.597,-2.85012,0.24108,0.90026
392.73,123.795,-2.85128,0.23857,0.89995
393.33,123.992,-2.85147,0.24098,0.89964
393.93,124.188,-2.85399,0.2441,0.89932
394.53,124.384,-2.85535,0.25087,0.89901
395.13,124.579,-2.85666,0.24539,0.8987
395.73,124.773,-2.85928,0.24254,0.89839
396.33,124.968,-2.85929,0.25202,0.89808
396.93,125.163,-2.86165,0.23882,0.89776
397.53,125.359,-2.86386,0.24864,0.89745
398.13,125.556,-2.86375,0.23662,0.89714
398.73,125.7535,-2.8653,0.22831,0.89682
399.33,125.952,-2.86686,0.23813,0.89651
399.93,126.15,-2.86905,0.23402,0.89619
400.53,126.349,-2.86937,0.23283,0.89588
401.13,126.547,-2.87058,0.2313,0.89556
401.73,126.744,-2.87169,0.2506,0.89525
402.33,126.941,-2.87504,0.2364,0.89493
402.93,127.139,-2.87509,0.24203,0.89461
403.53,127.3375,-2.87763,0.23865,0.8943
404.13,127.536,-2.87893,0.24065,0.89398
404.73,127.734,-2.88024,0.24317,0.89366
405.33,127.933,-2.88156,0.2367,0.89334
405.93,128.132,-2.88422,0.23042,0.89302
406.53,128.331,-2.88421,0.22802,0.8927
407.13,128.5314,-2.8869,0.2179,0.89238
407.73,128.732,-2.88815,0.22466,0.89206
408.33,128.931,-2.88915,0.22737,0.89174
408.93,129.131,-2.88936,0.22483,0.89142
409.53,129.329,-2.89213,0.22447,0.8911
410.13,129.527,-2.89407,0.22385,0.89078
410.73,129.724,-2.89617,0.22341,0.89046
411.33,129.92,-2.89541,0.24294,0.89014
411.93,130.116,-2.8967,0.23808,0.88981
412.53,130.3119,-2.89866,0.25341,0.88949
413.13,130.507,-2.9013,0.25504,0.88917
413.73,130.703,-2.9013,0.26214,0.88884
414.33,130.899,-2.90163,0.26798,0.88852
414.93,131.096,-2.90313,0.25862,0.88819
415.53,131.294,-2.90697,0.26114,0.88787
416.13,131.493,-2.90766,0.26036,0.88754
416.73,131.692,-2.90823,0.26078,0.88722
417.33,131.892,-2.90987,0.2597,0.88689
417.93,132.091,-2.91159,0.27087,0.88656
418.53,132.292,-2.91298,0.27325,0.88624
419.13,132.492,-2.91414,0.25646,0.88591
419.73,132.6909,-2.91446,0.25289,0.88558
420.33,132.8893,-2.91545,0.2539,0.88525
420.93,133.0875,-2.91722,0.25638,0.88492
421.53,133.286,-2.9181,0.2664,0.8846
422.13,133.484,-2.9194,0.25206,0.88427
422.73,133.682,-2.9194,0.26483,0.88394
423.33,133.881,-2.92071,0.25789,0.88361
423.93,134.078,-2.92071,0.25599,0.88327
424.53,134.275,-2.92216,0.26827,0.88294
425.13,134.471,-2.92374,0.27331,0.88261
425.73,134.668,-2.92567,0.27321,0.88228
426.33,134.865,-2.92697,0.26344,0.88195
426.93,135.063,-2.92568,0.27085,0.88161
427.53,135.259,-2.9284,0.26769,0.88128
428.13,135.455,-2.92958,0.2617,0.88095
428.73,135.651,-2.92828,0.26576,0.88061
429.33,135.846,-2.93041,0.25969,0.88028
429.93,136.043,-2.93157,0.2557,0.87994
430.53,136.24,-2.93094,0.2603,0.87961
431.13,136.438,-2.93355,0.25759,0.87927
431.73,136.637,-2.93355,0.26176,0.87894
432.33,136.836,-2.93486,0.26689,0.8786
432.93,137.0351,-2.93616,0.27237,0.87826
433.53,137.235,-2.93749,0.26411,0.87793
434.13,137.434,-2.93881,0.25299,0.87759
434.73,137.633,-2.94013,0.26178,0.87725
435.33,137.831,-2.94046,0.25883,0.87691
435.93,138.03,-2.9406,0.26744,0.87657
436.53,138.229,-2.94243,0.26046,0.87623
437.13,138.427,-2.94375,0.25865,0.87589
437.73,138.6263,-2.94493,0.26745,0.87555
438.33,138.825,-2.94492,0.25719,0.87521
438.93,139.025,-2.94638,0.25344,0.87487
439.53,139.224,-2.94771,0.25878,0.87453
440.13,139.423,-2.94836,0.25359,0.87418
440.73,139.621,-2.94984,0.25623,0.87384
441.33,139.8188,-2.94976,0.25535,0.8735
441.93,140.017,-2.94966,0.24383,0.87316
442.53,140.215,-2.95165,0.25424,0.87281
443.13,140.413,-2.95174,0.25331,0.87247
443.73,140.611,-2.95428,0.24594,0.87212
444.33,140.809,-2.95539,0.25891,0.87178
444.93,141.007,-2.95466,0.2482,0.87143
445.53,141.2049,-2.95593,0.25867,0.87109
446.13,141.403,-2.95725,0.26359,0.87074
446.73,141.601,-2.95724,0.26975,0.87039
447.33,141.8,-2.95757,0.26835,0.87004
447.93,141.999,-2.95889,0.28438,0.8697
448.53,142.198,-2.95887,0.28628,0.86935
449.13,142.398,-2.96137,0.28096,0.869
449.73,142.597,-2.96015,0.29449,0.86865
450.33,142.795,-2.9602,0.29144,0.8683
450.93,142.994,-2.96106,0.29062,0.86795
451.53,143.192,-2.96185,0.29545,0.8676
452.13,143.391,-2.96249,0.29629,0.86725
452.73,143.589,-2.96382,0.29898,0.8669
453.33,143.786,-2.96383,0.3019,0.86655
453.93,143.984,-2.96514,0.29505,0.86619
454.53,144.1809,-2.96744,0.30518,0.86584
455.13,144.379,-2.96708,0.28912,0.86549
455.73,144.579,-2.96796,0.30336,0.86513
456.33,144.779,-2.9694,0.29379,0.86478
456.93,144.979,-2.97028,0.29874,0.86443
457.53,145.18,-2.97096,0.28123,0.86407
458.13,145.38,-2.97229,0.28843,0.86372
458.73,145.581,-2.97325,0.30305,0.86336
459.33,145.78,-2.97358,0.29897,0.863
459.93,145.979,-2.97424,0.29031,0.86265
460.53,146.179,-2.97562,0.29901,0.86229
461.13,146.379,-2.97523,0.30344,0.86193
461.73,146.579,-2.97738,0.29573,0.86157
462.33,146.78,-2.97766,0.2968,0.86122
462.93,146.9805,-2.97753,0.29196,0.86086
463.53,147.182,-2.97907,0.29398,0.8605
464.13,147.382,-2.97918,0.29101,0.86014
464.73,147.582,-2.9795,0.28303,0.85978
465.33,147.782,-2.98049,0.28122,0.85942
465.93,147.982,-2.98148,0.26296,0.85906
466.53,148.18,-2.98181,0.2524,0.85869
467.13,148.379,-2.98378,0.24093,0.85833
467.73,148.5774,-2.98375,0.23476,0.85797
468.33,148.775,-2.9852,0.23677,0.85761
468.93,148.973,-2.9859,0.24474,0.85724
469.53,149.171,-2.98574,0.24356,0.85688
470.13,149.368,-2.9844,0.23936,0.85651
470.73,149.566,-2.98707,0.23793,0.85615
471.33,149.765,-2.9895,0.24913,0.85578
471.93,149.9648,-2.98736,0.2256,0.85542
472.53,150.165,-2.98735,0.2168,0.85505
473.13,150.364,-2.98862,0.21845,0.85469
473.73,150.564,-2.98993,0.21946,0.85432
474.33,150.7649,-2.99092,0.22265,0.85395
474.93,150.965,-2.99092,0.22307,0.85358
475.53,151.1658,-2.99122,0.20471,0.85321
476.13,151.365,-2.99256,0.21268,0.85285
476.73,151.564,-2.99388,0.21165,0.85248
477.33,151.763,-2.99388,0.21614,0.85211
477.93,151.961,-2.99488,0.20486,0.85174
478.53,152.159,-2.99487,0.19671,0.85137
479.13,152.3568,-2.9952,0.19126,0.85099
479.73,152.555,-2.99489,0.18299,0.85062
480.33,152.753,-2.99616,0.18157,0.85025
480.93,152.952,-2.99585,0.16687,0.84988
481.53,153.151,-2.99618,0.1715,0.8495
482.13,153.35,-2.9975,0.16537,0.84913
482.73,153.549,-2.9978,0.15929,0.84876
483.33,153.749,-2.99948,0.1522,0.84838
483.93,153.95,-3.00013,0.13809,0.84801
484.53,154.151,-2.99947,0.14254,0.84763
485.13,154.352,-3.00113,0.12784,0.84726
485.73,154.5525,-3.0015,0.12382,0.84688
486.33,154.753,-3.00009,0.10715,0.8465
486.93,154.954,-3.00276,0.10725,0.84612
487.53,155.156,-3.00144,0.09133893,0.84575
488.13,155.358,-3.00255,0.08965629,0.84537
488.73,155.559,-3.00336,0.09101577,0.84499
489.33,155.76,-3.00473,0.0887991,0.84461
489.93,155.961,-3.00605,0.09100519,0.84423
490.53,156.163,-3.00605,0.07601042,0.84385
491.13,156.364,-3.00737,0.08123351,0.84347
491.73,156.565,-3.00868,0.08598065,0.84309
492.33,156.766,-3.0077,0.07960723,0.84271
492.93,156.967,-3.00706,0.07250487,0.84233
493.53,157.167,-3.00934,0.0787484,0.84194
494.13,157.366,-3.01066,0.08103428,0.84156
494.73,157.564,-3.00922,0.07187624,0.84118
495.33,157.762,-3.01197,0.07589029,0.84079
495.93,157.96,-3.01102,0.07960354,0.84041
496.53,158.159,-3.01169,0.08244706,0.84002
497.13,158.357,-3.01278,0.07518413,0.83964
497.73,158.555,-3.01328,0.0771901,0.83925
498.33,158.754,-3.01291,0.08184226,0.83887
498.93,158.954,-3.01395,0.05948002,0.83848
499.53,159.154,-3.01593,0.07545891,0.83809
500.13,159.355,-3.01519,0.06043694,0.8377
500.73,159.555,-3.01622,0.0606873,0.83732
501.33,159.755,-3.01625,0.06432622,0.83693
501.93,159.954,-3.01658,0.0621585,0.83654
502.53,160.1539,-3.01836,0.07472006,0.83615
503.13,160.353,-3.0179,0.07783154,0.83576
503.73,160.552,-3.01921,0.07527215,0.83537
504.33,160.751,-3.01921,0.06969846,0.83498
504.93,160.95,-3.01888,0.07062488,0.83459
505.53,161.148,-3.01922,0.07352585,0.83419
506.13,161.348,-3.02053,0.08105294,0.8338
506.73,161.548,-3.02053,0.07152623,0.83341
507.33,161.7476,-3.02108,0.06710025,0.83302
507.93,161.949,-3.02217,0.07631504,0.83262
508.53,162.15,-3.02349,0.06603846,0.83223
509.13,162.351,-3.02316,0.07982247,0.83183
509.73,162.552,-3.02448,0.07129206,0.83144
510.33,162.753,-3.02547,0.05262907,0.83104
510.93,162.954,-3.02579,0.066167,0.83064
511.53,163.155,-3.02581,0.05379168,0.83025
512.13,163.355,-3.02678,0.07147811,0.82985
512.73,163.555,-3.02679,0.05714511,0.82945
513.33,163.755,-3.02696,0.06971388,0.82905
513.93,163.954,-3.02939,0.0669447,0.82866
514.53,164.153,-3.02875,0.06468314,0.82826
515.13,164.352,-3.03012,0.06122458,0.82786
515.73,164.551,-3.0304,0.06074277,0.82746
516.33,164.751,-3.02908,0.06840313,0.82706
516.93,164.952,-3.03038,0.06169098,0.82666
517.53,165.153,-3.03127,0.04831283,0.82625
518.13,165.3541,-3.03137,0.05994103,0.82585
518.73,165.555,-3.03166,0.05467837,0.82545
519.33,165.756,-3.03334,0.06729058,0.82505
519.93,165.956,-3.03334,0.05126678,0.82464
520.53,166.155,-3.03339,0.04945231,0.82424
521.13,166.354,-3.03443,0.05033164,0.82383
521.73,166.552,-3.03599,0.06897884,0.82343
522.33,166.7507,-3.03505,0.0543068,0.82302
522.93,166.95,-3.03731,0.05295014,0.82262
523.53,167.15,-3.03764,0.05492105,0.82221
524.13,167.35,-3.03731,0.04919514,0.8218
524.73,167.55,-3.03863,0.05108077,0.8214
525.33,167.751,-3.03858,0.04901731,0.82099
525.93,167.953,-3.04059,0.05127966,0.82058
526.53,168.155,-3.03929,0.04049791,0.82017
527.13,168.356,-3.04061,0.05214939,0.81976
527.73,168.5571,-3.04192,0.04640701,0.81935
528.33,168.757,-3.04192,0.04114677,0.81894
528.93,168.957,-3.04243,0.0341734,0.81853
529.53,169.156,-3.04293,0.04262393,0.81812
530.13,169.356,-3.04126,0.04248941,0.81771
530.73,169.5563,-3.04258,0.03850381,0.8173
531.33,169.757,-3.04324,0.04067356,0.81688
531.93,169.958,-3.04521,0.04422964,0.81647
532.53,170.158,-3.0462,0.0417618,0.81606
533.13,170.359,-3.04627,0.03671617,0.81564
533.73,170.56,-3.04554,0.04440582,0.81523
534.33,170.76,-3.04818,0.04878945,0.81481
534.93,170.96,-3.0462,0.05181097,0.8144
535.53,171.16,-3.04751,0.03062313,0.81398
536.13,171.36,-3.04731,0.04849821,0.81356
536.73,171.56,-3.04705,0.04568569,0.81315
537.33,171.761,-3.04784,0.0552348,0.81273
537.93,171.963,-3.04915,0.06026947,0.81231
538.53,172.164,-3.04982,0.04161584,0.81189
539.13,172.365,-3.05081,0.045177,0.81147
539.73,172.565,-3.05079,0.04213105,0.81105
540.33,172.7641,-3.05081,0.04692513,0.81063
540.93,172.963,-3.05219,0.04193694,0.81021
541.53,173.161,-3.05289,0.03498069,0.80979
542.13,173.36,-3.05278,0.03797298,0.80937
542.73,173.56,-3.05409,0.03982169,0.80895
543.33,173.762,-3.05411,0.03903296,0.80853
543.93,173.964,-3.05541,0.03993603,0.8081
544.53,174.166,-3.05475,0.04451286,0.80768
545.13,174.369,-3.05607,0.04561237,0.80726
545.73,174.57,-3.05746,0.02846935,0.80683
546.33,174.772,-3.05609,0.04170343,0.80641
546.93,174.975,-3.05819,0.03619902,0.80598
547.53,175.1772,-3.0567,0.02474422,0.80556
548.13,175.3785,-3.05606,0.0399014,0.80513
548.73,175.579,-3.05704,0.02517478,0.8047
549.33,175.7773,-3.05805,0.02968677,0.80428
549.93,175.976,-3.05737,0.04279658,0.80385
550.53,176.174,-3.05855,0.03272962,0.80342
551.13,176.373,-3.05837,0.03288778,0.80299
551.73,176.573,-3.0584,0.0322287,0.80256
552.33,176.773,-3.05969,0.03539112,0.80213
552.93,176.973,-3.05969,0.04105298,0.8017
553.53,177.174,-3.06114,0.04667409,0.80127
554.13,177.374,-3.061,0.04347556,0.80084
554.73,177.574,-3.06102,0.04109656,0.80041
555.33,177.775,-3.06166,0.04046906,0.79998
555.93,177.976,-3.0617,0.04451381,0.79954
556.53,178.176,-3.06165,0.03939473,0.79911
557.13,178.376,-3.06265,0.03068017,0.79868
557.73,178.576,-3.06265,0.04205313,0.79824
558.33,178.777,-3.06298,0.03933502,0.79781
558.93,178.978,-3.06331,0.02938904,0.79737
559.53,179.18,-3.06481,0.02956903,0.79694
560.13,179.383,-3.06396,0.01768378,0.7965
560.73,179.585,-3.06576,0.02318314,0.79606
561.33,179.787,-3.06499,0.02521236,0.79563
561.93,179.989,-3.06572,0.03282068,0.79519
562.53,180.19,-3.06572,0.02425612,0.79475
563.13,180.39,-3.06572,0.03349771,0.79431
563.73,180.588,-3.06703,0.02473666,0.79387
564.33,180.786,-3.06572,0.03072115,0.79344
564.93,180.985,-3.06703,0.03285021,0.793
565.53,181.184,-3.06835,0.04206061,0.79255
566.13,181.384,-3.06835,0.03749397,0.79211
566.73,181.586,-3.06835,0.03510954,0.79167
567.33,181.788,-3.06871,0.04476442,0.79123
567.93,181.991,-3.07131,0.03849,0.79079
568.53,182.1931,-3.07098,0.03633038,0.79034
569.13,182.394,-3.06979,0.04029013,0.7899
569.73,182.595,-3.07098,0.04418538,0.78946
570.33,182.795,-3.07217,0.04100605,0.78901
570.93,182.996,-3.0733,0.0498623,0.78857
571.53,183.197,-3.07329,0.04867347,0.78812
572.13,183.398,-3.07329,0.03248079,0.78768
572.73,183.598,-3.0746,0.06227293,0.78723
573.33,183.797,-3.07461,0.05414009,0.78678
573.93,183.996,-3.07448,0.04424119,0.78634
574.53,184.197,-3.07695,0.05629899,0.78589
575.13,184.397,-3.0772,0.04843677,0.78544
575.73,184.597,-3.07856,0.05011883,0.78499
576.33,184.798,-3.07792,0.05027153,0.78454
576.93,184.999,-3.07658,0.05352175,0.78409
577.53,185.2,-3.07954,0.05742399,0.78364
578.13,185.4015,-3.07855,0.06289167,0.78319
578.73,185.603,-3.08054,0.06392053,0.78274
579.33,185.8041,-3.08044,0.07300278,0.78229
579.93,186.005,-3.08119,0.07659469,0.78184
580.53,186.206,-3.08114,0.08212762,0.78139
581.13,186.406,-3.08217,0.0758759,0.78093
581.73,186.609,-3.08295,0.07470402,0.78048
582.33,186.811,-3.08287,0.07685361,0.78002
582.93,187.013,-3.08307,0.07046284,0.77957
583.53,187.216,-3.08448,0.0813566,0.77912
584.13,187.418,-3.08619,0.07495602,0.77866
584.73,187.62,-3.08612,0.07505834,0.7782
585.33,187.821,-3.08578,0.08173392,0.77775
585.93,188.021,-3.08587,0.08385831,0.77729
586.53,188.221,-3.08747,0.08558492,0.77683
587.13,188.421,-3.08634,0.0936553,0.77637
587.73,188.622,-3.09012,0.09825278,0.77592
588.33,188.8226,-3.08744,0.09007499,0.77546
588.93,189.024,-3.08875,0.07747641,0.775
589.53,189.226,-3.08875,0.08325774,0.77454
590.13,189.429,-3.08908,0.08820066,0.77408
590.73,189.6316,-3.09106,0.0853527,0.77362
591.33,189.834,-3.09095,0.09470547,0.77316
591.93,190.034,-3.09095,0.07195303,0.77269
592.53,190.235,-3.09184,0.07061408,0.77223
593.13,190.436,-3.09161,0.08163065,0.77177
593.73,190.636,-3.0916,0.07767277,0.77131
594.33,190.836,-3.09154,0.09555083,0.77084
594.93,191.036,-3.0931,0.08710892,0.77038
595.53,191.236,-3.09296,0.09567215,0.76991
596.13,191.437,-3.09425,0.09457683,0.76945
596.73,191.638,-3.09556,0.10285,0.76898
597.33,191.839,-3.09665,0.08495837,0.76852
597.93,192.04,-3.09509,0.0971033,0.76805
598.53,192.242,-3.09816,0.1113,0.76758
599.13,192.4442,-3.09853,0.10306,0.76712
599.73,192.646,-3.09957,0.10635,0.76665
600.33,192.848,-3.09894,0.10608,0.76618
600.93,193.049,-3.09983,0.10411,0.76571
601.53,193.25,-3.10248,0.10353,0.76524
602.13,193.4521,-3.10247,0.1127,0.76477
602.73,193.655,-3.10277,0.10898,0.7643
603.33,193.858,-3.10279,0.11292,0.76383
603.93,194.061,-3.10383,0.11288,0.76336
604.53,194.264,-3.10382,0.10473,0.76289
605.13,194.466,-3.10642,0.10633,0.76242
605.73,194.667,-3.10608,0.11219,0.76194
606.33,194.8665,-3.10872,0.12206,0.76147
606.93,195.0665,-3.10806,0.12443,0.761
607.53,195.266,-3.10971,0.13451,0.76052
608.13,195.467,-3.1097,0.13554,0.76005
608.73,195.668,-3.1107,0.13713,0.75957
609.33,195.87,-3.10998,0.13902,0.7591
609.93,196.073,-3.11077,0.14771,0.75862
610.53,196.275,-3.11268,0.13587,0.75814
611.13,196.4774,-3.11267,0.15418,0.75767
611.73,196.6791,-3.11267,0.14063,0.75719
612.33,196.881,-3.11366,0.15235,0.75671
612.93,197.083,-3.11496,0.14622,0.75623
613.53,197.286,-3.11635,0.15191,0.75576
614.13,197.488,-3.11695,0.14575,0.75528
614.73,197.69,-3.11727,0.16201,0.7548
615.33,197.892,-3.11865,0.16622,0.75432
615.93,198.0934,-3.11988,0.14733,0.75384
616.53,198.294,-3.12024,0.16289,0.75335
617.13,198.494,-3.12155,0.15586,0.75287
617.73,198.695,-3.12287,0.16655,0.75239
618.33,198.895,-3.12287,0.15052,0.75191
618.93,199.095,-3.12386,0.15804,0.75142
619.53,199.296,-3.12498,0.15439,0.75094
620.13,199.499,-3.12681,0.16277,0.75046
620.73,199.702,-3.1255,0.16274,0.74997
621.33,199.907,-3.12583,0.14405,0.74949
621.93,200.111,-3.12825,0.14286,0.749
622.53,200.313,-3.12943,0.14173,0.74852
623.13,200.516,-3.12976,0.14804,0.74803
623.73,200.717,-3.13106,0.14587,0.74754
624.33,200.9194,-3.13106,0.14741,0.74706
624.93,201.121,-3.13241,0.14377,0.74657
625.53,201.322,-3.13373,0.1638,0.74608
626.13,201.523,-3.13504,0.15549,0.74559
626.73,201.724,-3.13571,0.14846,0.7451
627.33,201.924,-3.13636,0.14567,0.74461
627.93,202.126,-3.13636,0.14799,0.74412
628.53,202.329,-3.13837,0.12207,0.74363
629.13,202.5325,-3.13932,0.1251,0.74314
629.73,202.737,-3.13935,0.1051,0.74265
630.33,202.94,-3.14004,0.10108,0.74216
630.93,203.143,-3.14228,0.08872711,0.74167
631.53,203.345,-3.1423,0.09071566,0.74117
632.13,203.547,-3.14359,0.09432255,0.74068
632.73,203.748,-3.14458,0.0901414,0.74019
633.33,203.95,-3.14621,0.08787081,0.73969
633.93,204.151,-3.14623,0.08924256,0.7392
634.53,204.352,-3.14789,0.07579542,0.7387
635.13,204.552,-3.14923,0.08194318,0.73821
635.73,204.753,-3.1492,0.07294281,0.73771
636.33,204.9534,-3.15051,0.07117283,0.73722
636.93,205.154,-3.15048,0.08394568,0.73672
637.53,205.355,-3.15182,0.07326603,0.73622
638.13,205.558,-3.1538,0.06902121,0.73572
638.73,205.762,-3.15446,0.06350835,0.73523
639.33,205.968,-3.1538,0.05855491,0.73473
639.93,206.173,-3.15519,0.06298273,0.73423
640.53,206.376,-3.1538,0.04261902,0.73373
641.13,206.578,-3.15652,0.03202568,0.73323
641.73,206.779,-3.15794,0.03691456,0.73273
642.33,206.98,-3.16057,0.02936846,0.73223
642.93,207.181,-3.15939,0.02583737,0.73173
643.53,207.383,-3.15939,0.01563908,0.73122
644.13,207.5849,-3.16071,-0.008955122,0.73072
644.73,207.786,-3.16202,-0.003468808,0.73022
645.33,207.985,-3.16336,-0.01592366,0.72972
645.93,208.186,-3.164,-0.01431152,0.72921
646.53,208.386,-3.164,-0.01628333,0.72871
647.13,208.588,-3.16593,-0.02412963,0.7282
647.73,208.79,-3.16631,-0.03492919,0.7277
648.33,208.993,-3.16759,-0.03300649,0.72719
648.93,209.195,-3.16895,-0.04865351,0.72669
649.53,209.398,-3.16893,-0.06065544,0.72618
650.13,209.6,-3.16893,-0.05784664,0.72568
650.73,209.803,-3.17024,-0.050697,0.72517
651.33,210.0059,-3.16927,-0.05371229,0.72466
651.93,210.209,-3.1705,-0.07703651,0.72415
652.53,210.411,-3.17026,-0.06389627,0.72364
653.13,210.613,-3.17313,-0.06444371,0.72314
653.73,210.815,-3.1719,-0.07563244,0.72263
654.33,211.018,-3.17322,-0.08840059,0.72212
654.93,211.22,-3.17327,-0.07454037,0.72161
655.53,211.422,-3.17311,-0.07870537,0.7211
656.13,211.624,-3.17326,-0.08258421,0.72058
656.73,211.827,-3.17457,-0.09483444,0.72007
657.33,212.03,-3.17545,-0.09803078,0.71956
657.93,212.2334,-3.17585,-0.09761498,0.71905
658.53,212.436,-3.17683,-0.09960509,0.71854
659.13,212.638,-3.17719,-0.09014607,0.71802
659.73,212.841,-3.17765,-0.09990399,0.71751
660.33,213.044,-3.17739,-0.1006,0.717
660.93,213.248,-3.17741,-0.1143,0.71648
661.53,213.451,-3.18012,-0.1091,0.71597
662.13,213.654,-3.1789,-0.11711,0.71545
662.73,213.8568,-3.18012,-0.10386,0.71493
663.33,214.059,-3.18064,-0.10501,0.71442
663.93,214.261,-3.18275,-0.09288619,0.7139
664.53,214.462,-3.18276,-0.10826,0.71338
665.13,214.663,-3.18111,-0.11355,0.71287
665.73,214.864,-3.18292,-0.1105,0.71235
666.33,215.0655,-3.18374,-0.09472946,0.71183
666.93,215.2685,-3.18374,-0.09889223,0.71131
667.53,215.4725,-3.18505,-0.1125,0.71079
668.13,215.677,-3.18373,-0.10881,0.71027
668.73,215.881,-3.18473,-0.10227,0.70975
669.33,216.084,-3.18473,-0.10961,0.70923
669.93,216.286,-3.18736,-0.10709,0.70871
670.53,216.488,-3.18618,-0.10767,0.70819
671.13,216.6896,-3.18485,-0.11287,0.70767
671.73,216.891,-3.18494,-0.11101,0.70715
672.33,217.093,-3.18781,-0.11009,0.70662
672.93,217.294,-3.18506,-0.11671,0.7061
673.53,217.497,-3.1864,-0.11198,0.70558
674.13,217.6987,-3.18835,-0.13057,0.70505
674.73,217.902,-3.18878,-0.12957,0.70453
675.33,218.105,-3.18967,-0.12556,0.704
675.93,218.3089,-3.18962,-0.12718,0.70348
676.53,218.512,-3.19098,-0.12056,0.70295
677.13,218.714,-3.19229,-0.13997,0.70243
677.73,218.917,-3.19361,-0.13046,0.7019
678.33,219.119,-3.19361,-0.12944,0.70137
678.93,219.321,-3.19308,-0.13448,0.70085
679.53,219.522,-3.19237,-0.12912,0.70032
680.13,219.723,-3.19395,-0.14271,0.69979
680.73,219.924,-3.19584,-0.11472,0.69926
681.33,220.126,-3.19592,-0.12691,0.69873
681.93,220.328,-3.19624,-0.12315,0.69821
682.53,220.532,-3.19755,-0.12106,0.69768
683.13,220.735,-3.1969,-0.1183,0.69715
683.73,220.9383,-3.2,-0.11862,0.69662
684.33,221.142,-3.19856,-0.12631,0.69608
684.93,221.344,-3.19921,-0.12473,0.69555
685.53,221.546,-3.19843,-0.12256,0.69502
686.13,221.748,-3.19804,-0.12765,0.69449
686.73,221.948,-3.20019,-0.13015,0.69396
687.33,222.149,-3.1991,-0.1335,0.69342
687.93,222.35,-3.20042,-0.13768,0.69289
688.53,222.551,-3.20173,-0.1364,0.69236
689.13,222.753,-3.2004,-0.14048,0.69182
689.73,222.955,-3.20034,-0.12306,0.69129
690.33,223.157,-3.20159,-0.12123,0.69075
690.93,223.359,-3.20066,-0.12452,0.69022
691.53,223.562,-3.19971,-0.1178,0.68968
692.13,223.766,-3.20239,-0.12689,0.68915
692.73,223.9709,-3.20239,-0.12013,0.68861
693.33,224.175,-3.20465,-0.13085,0.68807
693.93,224.3792,-3.20035,-0.13864,0.68754
694.53,224.582,-3.20102,-0.14785,0.687
695.13,224.784,-3.20558,-0.12763,0.68646
695.73,224.987,-3.20381,-0.12541,0.68592
696.33,225.188,-3.20382,-0.13085,0.68538
696.93,225.39,-3.20335,-0.12765,0.68484
697.53,225.592,-3.20513,-0.10707,0.6843
698.13,225.793,-3.20331,-0.11648,0.68376
698.73,225.995,-3.20579,-0.11958,0.68322
699.33,226.198,-3.20871,-0.12344,0.68268
699.93,226.403,-3.20416,-0.13247,0.68214
700.53,226.608,-3.20612,-0.12385,0.6816
701.13,226.813,-3.20612,-0.13723,0.68106
701.73,227.017,-3.20743,-0.13647,0.68052
702.33,227.22,-3.20722,-0.13966,0.67997
702.93,227.423,-3.20745,-0.13727,0.67943
703.53,227.624,-3.2081,-0.12527,0.67889
704.13,227.826,-3.20909,-0.12829,0.67834
704.73,228.028,-3.20941,-0.10104,0.6778
705.33,228.231,-3.20941,-0.1107,0.67725
705.93,228.434,-3.21072,-0.13199,0.67671
706.53,228.637,-3.21073,-0.12287,0.67616
707.13,228.841,-3.21205,-0.1219,0.67562
707.73,229.044,-3.21205,-0.12205,0.67507
708.33,229.248,-3.21205,-0.12074,0.67453
708.93,229.451,-3.21205,-0.1178,0.67398
709.53,229.653,-3.21333,-0.09975689,0.67343
710.13,229.856,-3.21077,-0.12167,0.67288
710.73,230.0582,-3.21305,-0.10478,0.67234
711.33,230.26,-3.21182,-0.11314,0.67179
711.93,230.462,-3.21299,-0.10505,0.67124
712.53,230.663,-3.21323,-0.10036,0.67069
713.13,230.866,-3.21411,-0.10172,0.67014
713.73,231.068,-3.21573,-0.07404266,0.66959
714.33,231.27,-3.21481,-0.09257215,0.66904
714.93,231.471,-3.21413,-0.09502969,0.66849
715.53,231.674,-3.21512,-0.08050404,0.66794
716.13,231.878,-3.21506,-0.08252316,0.66739
716.73,232.083,-3.21511,-0.07274067,0.66683
717.33,232.288,-3.21676,-0.08544385,0.66628
717.93,232.493,-3.2158,-0.08679356,0.66573
718.53,232.697,-3.21708,-0.08790896,0.66518
719.13,232.902,-3.21643,-0.08287049,0.66462
719.73,233.104,-3.21873,-0.09442564,0.66407
720.33,233.307,-3.21742,-0.07932261,0.66352
720.93,233.509,-3.21972,-0.08638208,0.66296
721.53,233.712,-3.2184,-0.08701446,0.66241
722.13,233.915,-3.21972,-0.07662824,0.66185
722.73,234.117,-3.21904,-0.07884097,0.6613
723.33,234.32,-3.219,-0.07198773,0.66074
723.93,234.522,-3.21864,-0.08170404,0.66019
724.53,234.725,-3.21862,-0.07688726,0.65963
725.13,234.929,-3.22165,-0.07731091,0.65907
725.73,235.131,-3.22027,-0.07459402,0.65852
726.33,235.3341,-3.22026,-0.06466518,0.65796
726.93,235.537,-3.22122,-0.06412802,0.6574
727.53,235.739,-3.22125,-0.0535046,0.65684
728.13,235.942,-3.22125,-0.05363458,0.65628
728.73,236.143,-3.2206,-0.04999724,0.65573
729.33,236.344,-3.22129,-0.05206161,0.65517
729.93,236.546,-3.22246,-0.03390467,0.65461
730.53,236.749,-3.22092,-0.05418326,0.65405
731.13,236.953,-3.22122,-0.02028394,0.65349
731.73,237.156,-3.22203,-0.03708438,0.65293
732.33,237.36,-3.22103,-0.03356576,0.65237
732.93,237.5624,-3.22301,-0.0358893,0.6518
733.53,237.766,-3.22301,-0.01845295,0.65124
734.13,237.97,-3.22505,-0.0279756,0.65068
734.73,238.173,-3.22367,-0.03850519,0.65012
735.33,238.376,-3.22501,-0.03994573,0.64956
735.93,238.5779,-3.2243,-0.04351315,0.64899
736.53,238.78,-3.22433,-0.04350445,0.64843
737.13,238.983,-3.22666,-0.03743417,0.64787
737.73,239.1848,-3.22433,-0.04678111,0.6473
738.33,239.386,-3.22428,-0.05010899,0.64674
738.93,239.5882,-3.22564,-0.0550043,0.64617
739.53,239.791,-3.2261,-0.05546403,0.64561
740.13,239.995,-3.22536,-0.05711279,0.64504
740.73,240.199,-3.2263,-0.05573311,0.64448
741.33,240.404,-3.22597,-0.05291569,0.64391
741.93,240.608,-3.2263,-0.06326116,0.64335
742.53,240.812,-3.227,-0.05832796,0.64278
743.13,241.015,-3.22796,-0.07495955,0.64221
743.73,241.217,-3.22762,-0.05462982,0.64165
744.33,241.419,-3.22768,-0.05774327,0.64108
744.93,241.621,-3.22893,-0.05116023,0.64051
745.53,241.823,-3.22893,-0.04903305,0.63994
746.13,242.025,-3.22893,-0.05915862,0.63937
746.73,242.228,-3.2286,-0.05368556,0.63881
747.33,242.432,-3.22763,-0.05850827,0.63824
747.93,242.635,-3.23025,-0.04763924,0.63767
748.53,242.837,-3.22797,-0.05854942,0.6371
749.13,243.04,-3.23021,-0.06651046,0.63653
749.73,243.242,-3.23025,-0.08002179,0.63596
749.93,243.31,-3.23025,-0.07539882,0.63577