File: 01_Data/Feather_PillowA_Cover/STA/N2/10K_min/Feather_Pillow_Cover_STA_N2_10KData_22315_R2.csv
##Temp./Â°C,Time/min,Mass loss(subtr.2)/mg,DSC(subtr.2)/(mW/mg),Sensit./(uV/mW)
49.649,10.01,-0.04018,0.02370262,1.07019
50.349,10.7766,-0.042689,0.05341673,1.07
51.049,10.97868,-0.04226003,0.07923529,1.06981
51.749,11.13066,-0.04240182,0.095892,1.06961
52.449,11.2607,-0.04277548,0.11118,1.06942
53.149,11.37545,-0.04532841,0.12709,1.06923
53.849,11.4812,-0.03996327,0.13923,1.06903
54.549,11.5811,-0.04360498,0.14898,1.06884
55.249,11.67609,-0.04548586,0.15897,1.06864
55.949,11.76697,-0.0452106,0.16731,1.06844
56.649,11.85542,-0.04517984,0.17596,1.06825
57.349,11.94177,-0.04540516,0.18268,1.06805
58.049,12.02593,-0.04631556,0.1884,1.06785
58.749,12.10839,-0.04701888,0.19636,1.06765
59.449,12.1896,-0.04567173,0.20071,1.06746
60.149,12.2699,-0.04577958,0.20475,1.06726
60.849,12.34908,-0.04620525,0.21028,1.06706
61.549,12.42786,-0.04831617,0.21571,1.06686
62.249,12.50584,-0.04832896,0.21967,1.06665
62.949,12.58359,-0.04943896,0.22361,1.06645
63.649,12.66083,-0.0483936,0.22539,1.06625
64.349,12.7377,-0.04845681,0.23001,1.06605
65.049,12.8142,-0.04842076,0.23505,1.06585
65.749,12.89038,-0.04812342,0.23883,1.06564
66.449,12.96542,-0.04968026,0.24033,1.06544
67.149,13.04033,-0.05069306,0.24368,1.06523
67.849,13.11519,-0.04973009,0.24585,1.06503
68.549,13.1903,-0.05105346,0.24944,1.06482
69.249,13.2655,-0.049807,0.25135,1.06462
69.949,13.3406,-0.0510792,0.25478,1.06441
70.649,13.41605,-0.05097562,0.25811,1.0642
71.349,13.49027,-0.05302569,0.26096,1.064
72.049,13.56429,-0.05302635,0.26406,1.06379
72.749,13.6381,-0.05431734,0.26703,1.06358
73.449,13.7118,-0.05302997,0.26829,1.06337
74.149,13.7853,-0.05302974,0.27315,1.06316
74.849,13.85904,-0.05434565,0.27466,1.06295
75.549,13.93242,-0.05565915,0.27702,1.06274
76.249,14.00562,-0.05567968,0.27752,1.06253
76.949,14.07846,-0.05697945,0.28149,1.06232
77.649,14.1511,-0.05697924,0.28464,1.06211
78.349,14.2234,-0.0582945,0.28594,1.06189
79.049,14.2957,-0.05959845,0.28769,1.06168
79.749,14.3679,-0.05960904,0.29013,1.06147
80.449,14.44029,-0.05863149,0.29401,1.06125
81.149,14.5124,-0.05830657,0.29387,1.06104
81.849,14.58438,-0.05961899,0.29571,1.06082
82.549,14.65594,-0.06101884,0.29644,1.06061
83.249,14.72727,-0.06094014,0.29653,1.06039
83.949,14.79845,-0.06139799,0.29751,1.06017
84.649,14.86946,-0.06191057,0.2986,1.05996
85.349,14.9405,-0.06291049,0.29814,1.05974
86.049,15.01109,-0.06290989,0.2973,1.05952
86.749,15.08169,-0.06423503,0.29897,1.0593
87.449,15.1518,-0.06435982,0.29862,1.05908
88.149,15.22224,-0.06554999,0.29889,1.05886
88.849,15.29251,-0.06555007,0.29977,1.05864
89.549,15.3632,-0.06673038,0.29866,1.05842
90.249,15.4332,-0.06686,0.29956,1.0582
90.949,15.5034,-0.06686,0.29754,1.05798
91.649,15.5734,-0.06753165,0.29543,1.05775
92.349,15.6432,-0.06818881,0.29632,1.05753
93.049,15.71202,-0.0686718,0.29494,1.05731
93.749,15.78099,-0.06818469,0.29274,1.05708
94.449,15.8502,-0.06948999,0.29208,1.05686
95.149,15.92,-0.07014918,0.29085,1.05663
95.849,15.98926,-0.07081466,0.28838,1.05641
96.549,16.05827,-0.07079808,0.28857,1.05618
97.249,16.12738,-0.07212518,0.28666,1.05596
97.949,16.1966,-0.07221809,0.28617,1.05573
98.649,16.26526,-0.07213046,0.28454,1.0555
99.349,16.33411,-0.07213,0.28186,1.05527
100.049,16.40273,-0.07211932,0.28127,1.05504
100.749,16.47204,-0.07141376,0.28026,1.05482
101.449,16.5408,-0.07120249,0.27696,1.05459
102.149,16.6095,-0.07147806,0.27443,1.05436
102.849,16.67788,-0.07279023,0.27415,1.05412
103.549,16.74599,-0.07279001,0.27291,1.05389
104.249,16.81455,-0.07270398,0.26983,1.05366
104.949,16.883,-0.07410945,0.26795,1.05343
105.649,16.95172,-0.07360296,0.26778,1.0532
106.349,17.02025,-0.07411,0.26687,1.05296
107.049,17.0886,-0.07411133,0.26387,1.05273
107.749,17.1572,-0.07620261,0.26315,1.05249
108.449,17.22523,-0.07695998,0.26181,1.05226
109.149,17.29363,-0.07696,0.25845,1.05202
109.849,17.36202,-0.076933,0.2573,1.05179
110.549,17.43073,-0.07597003,0.25629,1.05155
111.249,17.49926,-0.07596729,0.25543,1.05131
111.949,17.56741,-0.07728999,0.25475,1.05108
112.649,17.63552,-0.07829425,0.25246,1.05084
113.349,17.70365,-0.07796656,0.25196,1.0506
114.049,17.7719,-0.07825002,0.2509,1.05036
114.749,17.83987,-0.07827,0.25009,1.05012
115.449,17.90779,-0.07829241,0.24755,1.04988
116.149,17.97591,-0.07958796,0.246,1.04964
116.849,18.04415,-0.07826637,0.24435,1.0494
117.549,18.1124,-0.07761968,0.24435,1.04916
118.249,18.1807,-0.07761831,0.24131,1.04891
118.949,18.24877,-0.07771227,0.24497,1.04867
119.649,18.31689,-0.07773438,0.24276,1.04843
120.349,18.385,-0.07871891,0.24242,1.04818
121.049,18.45306,-0.07872001,0.24131,1.04794
121.749,18.5209,-0.07870976,0.2405,1.04769
122.449,18.5887,-0.07772993,0.24206,1.04745
123.149,18.65664,-0.07747559,0.24261,1.0472
123.849,18.72478,-0.07937555,0.24212,1.04695
124.549,18.79288,-0.07942615,0.23895,1.04671
125.249,18.86084,-0.07804999,0.2409,1.04646
125.949,18.92861,-0.07805,0.2408,1.04621
126.649,18.9965,-0.07805187,0.24137,1.04596
127.349,19.06419,-0.07936817,0.24054,1.04571
128.049,19.1319,-0.07938196,0.24,1.04546
128.749,19.19964,-0.07937418,0.2397,1.04521
129.449,19.2672,-0.0793806,0.24178,1.04496
130.149,19.33492,-0.07736896,0.2407,1.04471
130.849,19.40276,-0.07869876,0.2424,1.04446
131.549,19.47061,-0.07806328,0.24239,1.04421
132.249,19.5384,-0.07938015,0.24142,1.04395
132.949,19.60602,-0.07938,0.24151,1.0437
133.649,19.67373,-0.07937669,0.24203,1.04344
134.349,19.74121,-0.07992992,0.24274,1.04319
135.049,19.80883,-0.07905003,0.24457,1.04293
135.749,19.87624,-0.07905,0.24628,1.04268
136.449,19.94377,-0.07905695,0.24464,1.04242
137.149,20.01108,-0.07936874,0.24464,1.04217
137.849,20.07865,-0.08074928,0.24633,1.04191
138.549,20.14611,-0.07936997,0.24562,1.04165
139.249,20.2136,-0.07937,0.24777,1.04139
139.949,20.2811,-0.07937002,0.24697,1.04113
140.649,20.3483,-0.07991443,0.24858,1.04087
141.349,20.41561,-0.08033206,0.24837,1.04061
142.049,20.48285,-0.08074896,0.24633,1.04035
142.749,20.55026,-0.0807,0.24784,1.04009
143.449,20.61751,-0.08069996,0.24851,1.03983
144.149,20.6848,-0.08129665,0.24993,1.03957
144.849,20.752,-0.08036001,0.25015,1.0393
145.549,20.8194,-0.0803592,0.24925,1.03904
146.249,20.8867,-0.08075021,0.25013,1.03878
146.949,20.95392,-0.07969991,0.25245,1.03851
147.649,21.02129,-0.0797,0.25002,1.03825
148.349,21.08855,-0.0797,0.25016,1.03798
149.049,21.15599,-0.07970001,0.2522,1.03772
149.749,21.22329,-0.07963004,0.25107,1.03745
150.449,21.29029,-0.08068992,0.25212,1.03718
151.149,21.35734,-0.0793438,0.25476,1.03691
151.849,21.424,-0.08036766,0.25102,1.03665
152.549,21.49127,-0.08036,0.25295,1.03638
153.249,21.55838,-0.0803593,0.2549,1.03611
153.949,21.62578,-0.07906164,0.25481,1.03584
154.649,21.6929,-0.0790554,0.25618,1.03557
155.349,21.7601,-0.07938003,0.25785,1.0353
156.049,21.82725,-0.08070386,0.25686,1.03503
156.749,21.8946,-0.0807,0.25781,1.03475
157.449,21.96142,-0.0807,0.25744,1.03448
158.149,22.02832,-0.0807,0.25772,1.03421
158.849,22.09518,-0.08070001,0.2599,1.03393
159.549,22.16256,-0.08065048,0.25876,1.03366
160.249,22.22994,-0.08201,0.25888,1.03338
160.949,22.2971,-0.081866,0.25843,1.03311
161.649,22.36421,-0.08068915,0.26071,1.03283
162.349,22.43127,-0.08168262,0.26155,1.03256
163.049,22.4983,-0.08168004,0.26118,1.03228
163.749,22.5654,-0.08204164,0.26367,1.032
164.449,22.63256,-0.08201,0.26175,1.03172
165.149,22.69967,-0.08201009,0.26467,1.03144
165.849,22.76659,-0.08068501,0.26284,1.03117
166.549,22.83324,-0.08070701,0.26477,1.03089
167.249,22.89949,-0.08201005,0.26678,1.03061
167.949,22.96635,-0.08200936,0.26676,1.03032
168.649,23.03333,-0.08204234,0.2664,1.03004
169.349,23.10096,-0.08201275,0.26492,1.02976
170.049,23.16776,-0.08102052,0.26832,1.02948
170.749,23.23467,-0.08101831,0.26887,1.0292
171.449,23.30165,-0.08168074,0.26779,1.02891
172.149,23.36875,-0.08234247,0.26923,1.02863
172.849,23.43569,-0.08298084,0.269,1.02834
173.549,23.50275,-0.08166626,0.26865,1.02806
174.249,23.5696,-0.08299815,0.27168,1.02777
174.949,23.6362,-0.083,0.27156,1.02748
175.649,23.703,-0.083,0.27287,1.0272
176.349,23.76987,-0.08299996,0.27113,1.02691
177.049,23.83669,-0.08433974,0.27121,1.02662
177.749,23.90331,-0.08433337,0.27231,1.02633
178.449,23.97005,-0.08299978,0.27328,1.02604
179.149,24.037,-0.08302483,0.27303,1.02575
179.849,24.10405,-0.08432132,0.27177,1.02546
180.549,24.17077,-0.08563925,0.27351,1.02517
181.249,24.23761,-0.0856266,0.27213,1.02488
181.949,24.30438,-0.08365603,0.27406,1.02459
182.649,24.37111,-0.08366,0.27496,1.0243
183.349,24.43771,-0.08365976,0.27432,1.024
184.049,24.5044,-0.08503089,0.27632,1.02371
184.749,24.57104,-0.08494283,0.27725,1.02342
185.449,24.63766,-0.08370533,0.27881,1.02312
186.149,24.70431,-0.08236143,0.27776,1.02283
186.849,24.771,-0.08365993,0.27896,1.02253
187.549,24.83766,-0.08358157,0.27761,1.02223
188.249,24.9044,-0.08595007,0.27948,1.02194
188.949,24.97094,-0.08596,0.27713,1.02164
189.649,25.0376,-0.08596,0.27808,1.02134
190.349,25.1042,-0.08596,0.27938,1.02104
191.049,25.17098,-0.08595998,0.28158,1.02074
191.749,25.23781,-0.08459783,0.28181,1.02044
192.449,25.30452,-0.08478619,0.28269,1.02014
193.149,25.3712,-0.08529454,0.2836,1.01984
193.849,25.4373,-0.08529987,0.28392,1.01954
194.549,25.5039,-0.08598589,0.284,1.01924
195.249,25.57058,-0.08596018,0.28383,1.01893
195.949,25.63781,-0.08728291,0.28551,1.01863
196.649,25.70455,-0.08760064,0.28726,1.01833
197.349,25.77125,-0.08761003,0.28508,1.01802
198.049,25.83793,-0.08840103,0.28658,1.01772
198.749,25.90471,-0.08892999,0.28919,1.01741
199.449,25.97135,-0.08893004,0.28845,1.0171
200.149,26.03826,-0.09027218,0.28923,1.0168
200.849,26.1048,-0.09014686,0.2897,1.01649
201.549,26.17148,-0.08926005,0.2906,1.01618
202.249,26.23798,-0.08926,0.2902,1.01587
202.949,26.30465,-0.08925995,0.29109,1.01557
203.649,26.37115,-0.08891063,0.29297,1.01526
204.349,26.43784,-0.08893,0.29395,1.01495
205.049,26.50429,-0.08893,0.29262,1.01464
205.749,26.57102,-0.08892966,0.29432,1.01432
206.449,26.6378,-0.08762082,0.29528,1.01401
207.149,26.7047,-0.08859982,0.29669,1.0137
207.849,26.77157,-0.08970455,0.29779,1.01339
208.549,26.8379,-0.08993514,0.29833,1.01307
209.249,26.90435,-0.09058836,0.29909,1.01276
209.949,26.97076,-0.09094043,0.29887,1.01244
210.649,27.0375,-0.09143729,0.29944,1.01213
211.349,27.10418,-0.09200749,0.30079,1.01181
212.049,27.1709,-0.09320993,0.30172,1.0115
212.749,27.2375,-0.09321634,0.30361,1.01118
213.449,27.3043,-0.09323172,0.30526,1.01086
214.149,27.3707,-0.09288169,0.30507,1.01054
214.849,27.4371,-0.09420216,0.30425,1.01023
215.549,27.5035,-0.09419991,0.30729,1.00991
216.249,27.5703,-0.09318912,0.30846,1.00959
216.949,27.63699,-0.09419403,0.30942,1.00927
217.649,27.70382,-0.09550816,0.30955,1.00894
218.349,27.7705,-0.09551,0.31038,1.00862
219.049,27.8373,-0.09551226,0.31218,1.0083
219.749,27.90362,-0.09519066,0.31185,1.00798
220.449,27.97022,-0.09518974,0.31155,1.00766
221.149,28.03678,-0.09780198,0.31406,1.00733
221.849,28.1035,-0.09782,0.31567,1.00701
222.549,28.17012,-0.09782,0.31381,1.00668
223.249,28.23694,-0.09782,0.3136,1.00636
223.949,28.30392,-0.09782,0.31198,1.00603
224.649,28.3706,-0.09782022,0.31102,1.0057
225.349,28.4371,-0.10062,0.31334,1.00538
226.049,28.5038,-0.10188,0.31162,1.00505
226.749,28.5705,-0.10188,0.31386,1.00472
227.449,28.6373,-0.10188,0.31509,1.00439
228.149,28.704,-0.1033,0.31604,1.00406
228.849,28.77088,-0.1032,0.3164,1.00373
229.549,28.8374,-0.10452,0.31729,1.0034
230.249,28.904,-0.10387,0.31682,1.00307
230.949,28.9701,-0.10452,0.31836,1.00274
231.649,29.03678,-0.10564,0.32215,1.0024
232.349,29.10352,-0.10439,0.32197,1.00207
233.049,29.1704,-0.10583,0.32297,1.00174
233.749,29.2372,-0.10715,0.32297,1.0014
234.449,29.304,-0.10844,0.32467,1.00107
235.149,29.3708,-0.10847,0.32586,1.00073
235.849,29.4377,-0.10873,0.32728,1.0004
236.549,29.50427,-0.10879,0.32917,1.00006
237.249,29.57106,-0.11015,0.3302,0.99972
237.949,29.63737,-0.11143,0.3317,0.99938
238.649,29.70395,-0.11281,0.33226,0.99905
239.349,29.77032,-0.11407,0.32982,0.99871
240.049,29.8371,-0.11317,0.33119,0.99837
240.749,29.9039,-0.11415,0.33215,0.99803
241.449,29.9707,-0.11674,0.33424,0.99769
242.149,30.0375,-0.11818,0.33753,0.99735
242.849,30.1041,-0.11934,0.33825,0.997
243.549,30.1707,-0.12066,0.33789,0.99666
244.249,30.23739,-0.12112,0.34372,0.99632
244.949,30.3041,-0.12134,0.34508,0.99598
245.649,30.37077,-0.12203,0.34667,0.99563
246.349,30.43725,-0.1222,0.34849,0.99529
247.049,30.50385,-0.12495,0.35046,0.99494
247.749,30.5706,-0.12626,0.35154,0.99459
248.449,30.63743,-0.12757,0.35496,0.99425
249.149,30.70427,-0.13018,0.3552,0.9939
249.849,30.7709,-0.13061,0.35802,0.99355
250.549,30.8375,-0.13152,0.36289,0.99321
251.249,30.9039,-0.13283,0.36336,0.99286
251.949,30.9707,-0.13414,0.36326,0.99251
252.649,31.0373,-0.1354,0.36637,0.99216
253.349,31.1038,-0.1375,0.36786,0.99181
254.049,31.1701,-0.13614,0.37079,0.99145
254.749,31.23667,-0.13741,0.37156,0.9911
255.449,31.3032,-0.13904,0.37392,0.99075
256.149,31.37009,-0.14141,0.37749,0.9904
256.849,31.4366,-0.14272,0.37756,0.99004
257.549,31.5033,-0.144,0.37825,0.98969
258.249,31.56985,-0.14535,0.38006,0.98934
258.949,31.636,-0.14667,0.38141,0.98898
259.649,31.70288,-0.148,0.384,0.98862
260.349,31.7696,-0.15062,0.38425,0.98827
261.049,31.8366,-0.15178,0.3855,0.98791
261.749,31.903,-0.15257,0.38463,0.98755
262.449,31.96955,-0.15326,0.38443,0.98719
263.149,32.03635,-0.15457,0.38209,0.98684
263.849,32.1032,-0.15589,0.38229,0.98648
264.549,32.1699,-0.15589,0.3813,0.98612
265.249,32.23661,-0.15686,0.38006,0.98576
265.949,32.30316,-0.15785,0.38121,0.98539
266.649,32.3699,-0.1582,0.38351,0.98503
267.349,32.4367,-0.1595,0.38291,0.98467
268.049,32.50343,-0.15952,0.38487,0.98431
268.749,32.56991,-0.16105,0.38532,0.98394
269.449,32.6366,-0.16248,0.38483,0.98358
270.149,32.70323,-0.16501,0.38564,0.98321
270.849,32.77025,-0.16501,0.38952,0.98285
271.549,32.83705,-0.16501,0.39223,0.98248
272.249,32.9039,-0.16518,0.39025,0.98212
272.949,32.97065,-0.16799,0.39197,0.98175
273.649,33.0374,-0.1705,0.39321,0.98138
274.349,33.10427,-0.1706,0.39492,0.98101
275.049,33.17103,-0.17327,0.39477,0.98064
275.749,33.2378,-0.17455,0.39561,0.98027
276.449,33.30449,-0.17513,0.39543,0.9799
277.149,33.37138,-0.17588,0.39796,0.97953
277.849,33.4381,-0.17719,0.39756,0.97916
278.549,33.50501,-0.17726,0.39867,0.97879
279.249,33.57185,-0.17848,0.40055,0.97842
279.949,33.6387,-0.17983,0.40102,0.97805
280.649,33.7057,-0.18254,0.40227,0.97767
281.349,33.77251,-0.18377,0.40309,0.9773
282.049,33.83928,-0.18603,0.40506,0.97692
282.749,33.90615,-0.18802,0.40618,0.97655
283.449,33.97305,-0.19121,0.40724,0.97617
284.149,34.03995,-0.19234,0.40752,0.97579
284.849,34.10672,-0.1927,0.41042,0.97542
285.549,34.1734,-0.1933,0.41235,0.97504
286.249,34.24001,-0.19465,0.41121,0.97466
286.949,34.30668,-0.19688,0.41432,0.97428
287.649,34.3733,-0.1998,0.41664,0.9739
288.349,34.44007,-0.20102,0.4185,0.97352
289.049,34.50701,-0.20379,0.4208,0.97314
289.749,34.57393,-0.20673,0.42129,0.97276
290.449,34.6408,-0.20713,0.42468,0.97238
291.149,34.70765,-0.20931,0.42684,0.972
291.849,34.7746,-0.21187,0.42822,0.97161
292.549,34.84115,-0.21448,0.42921,0.97123
293.249,34.908,-0.21714,0.43155,0.97084
293.949,34.9748,-0.22005,0.4333,0.97046
294.649,35.04202,-0.2223,0.43485,0.97007
295.349,35.10901,-0.22428,0.4361,0.96969
296.049,35.17605,-0.22683,0.43763,0.9693
296.749,35.24284,-0.22958,0.4401,0.96891
297.449,35.30984,-0.23263,0.44281,0.96853
298.149,35.37682,-0.23553,0.44299,0.96814
298.849,35.4439,-0.23877,0.44611,0.96775
299.549,35.51089,-0.24192,0.44885,0.96736
300.249,35.57781,-0.2472,0.45168,0.96697
300.949,35.64478,-0.24924,0.45482,0.96658
301.649,35.71162,-0.25085,0.45843,0.96619
302.349,35.7783,-0.25322,0.46237,0.96579
303.049,35.84518,-0.25794,0.46271,0.9654
303.749,35.9123,-0.26184,0.46475,0.96501
304.449,35.97959,-0.26557,0.46768,0.96461
305.149,36.0464,-0.26872,0.4695,0.96422
305.849,36.11296,-0.27337,0.47356,0.96382
306.549,36.17964,-0.27656,0.47637,0.96343
307.249,36.24677,-0.27955,0.47924,0.96303
307.949,36.31415,-0.28459,0.48439,0.96263
308.649,36.38162,-0.28941,0.48758,0.96224
309.349,36.44854,-0.29284,0.49034,0.96184
310.049,36.51556,-0.2976,0.49409,0.96144
310.749,36.58272,-0.30211,0.49603,0.96104
311.449,36.64973,-0.30586,0.50169,0.96064
312.149,36.71689,-0.31209,0.50473,0.96024
312.849,36.78367,-0.31764,0.51106,0.95984
313.549,36.85093,-0.32326,0.51601,0.95944
314.249,36.9179,-0.32745,0.5199,0.95904
314.949,36.98505,-0.33346,0.5264,0.95863
315.649,37.052,-0.34038,0.53078,0.95823
316.349,37.11902,-0.34586,0.53621,0.95782
317.049,37.1861,-0.3515,0.53939,0.95742
317.749,37.2532,-0.35724,0.54511,0.95701
318.449,37.32033,-0.36332,0.55182,0.95661
319.149,37.3874,-0.37096,0.55589,0.9562
319.849,37.45471,-0.37752,0.5636,0.9558
320.549,37.52215,-0.38442,0.56844,0.95539
321.249,37.58961,-0.39134,0.57495,0.95498
321.949,37.6569,-0.40126,0.58206,0.95457
322.649,37.72426,-0.40868,0.59106,0.95416
323.349,37.79161,-0.41859,0.59708,0.95375
324.049,37.8591,-0.42547,0.60722,0.95334
324.749,37.9261,-0.43368,0.615,0.95293
325.449,37.9935,-0.44421,0.62466,0.95252
326.149,38.0609,-0.45401,0.63151,0.9521
326.849,38.1286,-0.46317,0.64365,0.95169
327.549,38.19601,-0.47176,0.65478,0.95128
328.249,38.26347,-0.4832,0.6667,0.95086
328.949,38.3304,-0.4952,0.67777,0.95045
329.649,38.39795,-0.50544,0.69147,0.95003
330.349,38.46539,-0.51798,0.70531,0.94962
331.049,38.53317,-0.52903,0.71695,0.9492
331.749,38.6002,-0.54106,0.73444,0.94878
332.449,38.66754,-0.55634,0.74737,0.94837
333.149,38.73509,-0.57123,0.7645,0.94795
333.849,38.8029,-0.58654,0.78131,0.94753
334.549,38.8705,-0.60066,0.80078,0.94711
335.249,38.9382,-0.6152,0.81933,0.94669
335.949,39.00574,-0.63154,0.83939,0.94627
336.649,39.07315,-0.65008,0.85963,0.94585
337.349,39.14065,-0.66737,0.88335,0.94542
338.049,39.2084,-0.68546,0.90687,0.945
338.749,39.27618,-0.70581,0.93292,0.94458
339.449,39.3438,-0.72487,0.95531,0.94415
340.149,39.4114,-0.74664,0.9821,0.94373
340.849,39.47886,-0.76918,1.01128,0.9433
341.549,39.54661,-0.79231,1.04097,0.94288
342.249,39.61436,-0.81465,1.07,0.94245
342.949,39.68233,-0.83999,1.10078,0.94203
343.649,39.7502,-0.86694,1.13427,0.9416
344.349,39.81816,-0.89269,1.16756,0.94117
345.049,39.88586,-0.92021,1.20719,0.94074
345.749,39.9535,-0.95138,1.24085,0.94031
346.449,40.02122,-0.98104,1.28193,0.93988
347.149,40.08915,-1.01412,1.32554,0.93945
347.849,40.1573,-1.04854,1.36762,0.93902
348.549,40.22538,-1.08413,1.40956,0.93859
349.249,40.2934,-1.12007,1.45907,0.93816
349.949,40.36128,-1.15797,1.506,0.93772
350.649,40.42915,-1.19963,1.5525,0.93729
351.349,40.49711,-1.23942,1.60314,0.93686
352.049,40.56521,-1.28435,1.65276,0.93642
352.749,40.6336,-1.33041,1.70302,0.93599
353.449,40.70179,-1.37629,1.7514,0.93555
354.149,40.76995,-1.42431,1.80242,0.93511
354.849,40.83814,-1.47569,1.8539,0.93468
355.549,40.90648,-1.52836,1.90175,0.93424
356.249,40.97463,-1.58032,1.94968,0.9338
356.949,41.04271,-1.63751,1.9945,0.93336
357.649,41.11079,-1.69635,2.03867,0.93292
358.349,41.17907,-1.75276,2.07873,0.93248
359.049,41.24711,-1.81226,2.11613,0.93204
359.749,41.3152,-1.87527,2.1459,0.9316
360.449,41.38319,-1.93701,2.17103,0.93116
361.149,41.45145,-1.99773,2.19026,0.93072
361.849,41.51952,-2.06137,2.20376,0.93027
362.549,41.5878,-2.1278,2.20902,0.92983
363.249,41.65585,-2.18882,2.20663,0.92939
363.949,41.7239,-2.25234,2.19679,0.92894
364.649,41.79144,-2.31706,2.17892,0.9285
365.349,41.85917,-2.37646,2.15312,0.92805
366.049,41.927,-2.43931,2.12035,0.9276
366.749,41.99514,-2.50125,2.0823,0.92716
367.449,42.0629,-2.55973,2.03581,0.92671
368.149,42.13048,-2.61469,1.98525,0.92626
368.849,42.19785,-2.67174,1.92671,0.92581
369.549,42.2654,-2.72452,1.86587,0.92536
370.249,42.3328,-2.77685,1.79627,0.92491
370.949,42.40028,-2.82699,1.71798,0.92446
371.649,42.46754,-2.87555,1.64108,0.92401
372.349,42.5349,-2.91878,1.55358,0.92356
373.049,42.60196,-2.96119,1.46018,0.92311
373.749,42.6691,-3.00078,1.36432,0.92265
374.449,42.73587,-3.03525,1.26487,0.9222
375.149,42.8029,-3.06875,1.16111,0.92174
375.849,42.86996,-3.10082,1.05755,0.92129
376.549,42.93711,-3.12794,0.95207,0.92083
377.249,43.00405,-3.15118,0.84769,0.92038
377.949,43.0709,-3.17322,0.75043,0.91992
378.649,43.1376,-3.19002,0.65729,0.91946
379.349,43.20432,-3.20723,0.57289,0.91901
380.049,43.2709,-3.22025,0.49572,0.91855
380.749,43.3377,-3.23004,0.4243,0.91809
381.449,43.40457,-3.23917,0.36565,0.91763
382.149,43.4715,-3.24765,0.31422,0.91717
382.849,43.5386,-3.253,0.27284,0.91671
383.549,43.60557,-3.25685,0.23681,0.91625
384.249,43.67262,-3.26155,0.2069,0.91578
384.949,43.73979,-3.26451,0.18551,0.91532
385.649,43.80706,-3.2675,0.16823,0.91486
386.349,43.87435,-3.27033,0.15446,0.9144
387.049,43.94187,-3.27295,0.14723,0.91393
387.749,44.0092,-3.27546,0.1381,0.91347
388.449,44.07656,-3.2755,0.13164,0.913
389.149,44.14398,-3.27682,0.1281,0.91253
389.849,44.2115,-3.27812,0.12465,0.91207
390.549,44.27912,-3.28078,0.12271,0.9116
391.249,44.3468,-3.28193,0.11782,0.91113
391.949,44.4144,-3.28069,0.11755,0.91066
392.649,44.482,-3.28261,0.11684,0.91019
393.349,44.54976,-3.28437,0.11692,0.90973
394.049,44.61769,-3.28602,0.11679,0.90925
394.749,44.68551,-3.28731,0.11365,0.90878
395.449,44.7532,-3.28736,0.11407,0.90831
396.149,44.821,-3.28735,0.11263,0.90784
396.849,44.88865,-3.28868,0.11047,0.90737
397.549,44.95617,-3.28981,0.11132,0.90689
398.249,45.02388,-3.29003,0.1109,0.90642
398.949,45.0917,-3.29131,0.11057,0.90595
399.649,45.15979,-3.29164,0.11117,0.90547
400.349,45.2275,-3.29164,0.10787,0.905
401.049,45.29529,-3.29346,0.11012,0.90452
401.749,45.36294,-3.29558,0.10988,0.90404
402.449,45.4307,-3.2963,0.11066,0.90357
403.149,45.49852,-3.2969,0.109,0.90309
403.849,45.56633,-3.29692,0.10895,0.90261
404.549,45.634,-3.29821,0.10917,0.90213
405.249,45.7019,-3.29962,0.10984,0.90165
405.949,45.76978,-3.29954,0.10868,0.90117
406.649,45.8375,-3.30085,0.10837,0.90069
407.349,45.9054,-3.30136,0.10804,0.90021
408.049,45.97318,-3.30232,0.10649,0.89973
408.749,46.0413,-3.30349,0.10613,0.89924
409.449,46.1094,-3.30347,0.10615,0.89876
410.149,46.1777,-3.30481,0.10675,0.89828
410.849,46.24612,-3.3061,0.10508,0.89779
411.549,46.31416,-3.30741,0.10737,0.89731
412.249,46.38221,-3.30744,0.1043,0.89682
412.949,46.45015,-3.30876,0.10799,0.89634
413.649,46.51812,-3.30927,0.10764,0.89585
414.349,46.58655,-3.30876,0.10308,0.89536
415.049,46.655,-3.31043,0.10508,0.89488
415.749,46.72364,-3.31111,0.10441,0.89439
416.449,46.79189,-3.31239,0.10455,0.8939
417.149,46.8601,-3.31239,0.1044,0.89341
417.849,46.92823,-3.31261,0.10405,0.89292
418.549,46.99654,-3.31305,0.10282,0.89243
419.249,47.0647,-3.31441,0.1029,0.89194
419.949,47.1329,-3.31438,0.10421,0.89144
420.649,47.20102,-3.31568,0.10462,0.89095
421.349,47.26941,-3.317,0.10805,0.89046
422.049,47.33782,-3.31696,0.10908,0.88997
422.749,47.40611,-3.31959,0.10893,0.88947
423.449,47.4743,-3.31963,0.10811,0.88898
424.149,47.5426,-3.31899,0.1094,0.88848
424.849,47.61084,-3.319,0.11056,0.88799
425.549,47.67941,-3.32029,0.10931,0.88749
426.249,47.74783,-3.32163,0.10961,0.88699
426.949,47.81655,-3.32292,0.11005,0.88649
427.649,47.88514,-3.32287,0.10948,0.886
428.349,47.95367,-3.3231,0.1098,0.8855
429.049,48.0221,-3.32424,0.11063,0.885
429.749,48.0903,-3.32622,0.10832,0.8845
430.449,48.15853,-3.32623,0.10874,0.884
431.149,48.22697,-3.3282,0.1078,0.8835
431.849,48.29558,-3.32952,0.1077,0.883
432.549,48.36404,-3.32952,0.1083,0.88249
433.249,48.43261,-3.32843,0.10761,0.88199
433.949,48.50114,-3.32853,0.10833,0.88149
434.649,48.56986,-3.32984,0.10765,0.88098
435.349,48.63821,-3.33103,0.10671,0.88048
436.049,48.70637,-3.33217,0.10837,0.87997
436.749,48.77462,-3.3325,0.10875,0.87947
437.449,48.8428,-3.3338,0.10777,0.87896
438.149,48.91125,-3.3338,0.10852,0.87846
438.849,48.97957,-3.33511,0.10734,0.87795
439.549,49.04803,-3.33511,0.10872,0.87744
440.249,49.11636,-3.33643,0.10825,0.87693
440.949,49.18477,-3.33643,0.10508,0.87642
441.649,49.25305,-3.33742,0.10636,0.87591
442.349,49.3209,-3.33872,0.10684,0.8754
443.049,49.38916,-3.33873,0.10892,0.87489
443.749,49.4577,-3.33868,0.10539,0.87438
444.449,49.5268,-3.34045,0.10496,0.87387
445.149,49.59535,-3.34137,0.10662,0.87336
445.849,49.6636,-3.34298,0.10576,0.87284
446.549,49.7321,-3.34335,0.10517,0.87233
447.249,49.8003,-3.34335,0.10409,0.87182
447.949,49.869,-3.342,0.10401,0.8713
448.649,49.93764,-3.34334,0.10416,0.87079
449.349,50.00656,-3.34329,0.10357,0.87027
450.049,50.07495,-3.34466,0.103,0.86976
450.749,50.14345,-3.34611,0.10214,0.86924
451.449,50.21176,-3.3473,0.10216,0.86872
452.149,50.28031,-3.34863,0.10159,0.8682
452.849,50.34834,-3.34862,0.10128,0.86768
453.549,50.4166,-3.34998,0.09981134,0.86717
454.249,50.4852,-3.34877,0.10104,0.86665
454.949,50.55422,-3.34993,0.09840225,0.86613
455.649,50.62307,-3.34993,0.09906301,0.8656
456.349,50.6916,-3.34995,0.09857839,0.86508
457.049,50.76014,-3.34993,0.09952214,0.86456
457.749,50.82848,-3.35191,0.09750761,0.86404
458.449,50.8972,-3.35182,0.09879377,0.86352
459.149,50.96583,-3.35322,0.09718269,0.86299
459.849,51.0345,-3.35322,0.09617208,0.86247
460.549,51.10275,-3.35454,0.09674157,0.86194
461.249,51.1715,-3.35526,0.09678256,0.86142
461.949,51.2403,-3.35652,0.0965429,0.86089
462.649,51.3095,-3.35652,0.09569607,0.86037
463.349,51.3782,-3.35703,0.09637179,0.85984
464.049,51.44702,-3.35784,0.09526955,0.85931
464.749,51.51563,-3.35915,0.09162701,0.85878
465.449,51.58426,-3.35911,0.09113366,0.85826
466.149,51.65316,-3.36047,0.09524147,0.85773
466.849,51.72166,-3.36047,0.09349625,0.8572
467.549,51.79005,-3.36047,0.09338863,0.85667
468.249,51.8585,-3.36047,0.09133695,0.85614
468.949,51.92735,-3.36037,0.09306051,0.85561
469.649,51.99604,-3.36204,0.09386093,0.85507
470.349,52.06469,-3.36278,0.09124529,0.85454
471.049,52.13335,-3.36195,0.09332087,0.85401
471.749,52.2024,-3.36311,0.09139112,0.85348
472.449,52.27131,-3.36442,0.09056288,0.85294
473.149,52.34004,-3.36442,0.08972768,0.85241
473.849,52.4088,-3.36701,0.08914515,0.85187
474.549,52.47781,-3.36714,0.08822129,0.85134
475.249,52.54687,-3.36706,0.08893307,0.8508
475.949,52.61583,-3.36706,0.0899234,0.85026
476.649,52.68467,-3.36838,0.09003038,0.84973
477.349,52.7534,-3.36836,0.09066567,0.84919
478.049,52.82209,-3.36936,0.08998001,0.84865
478.749,52.8908,-3.36936,0.08821828,0.84811
479.449,52.95978,-3.37068,0.08908307,0.84757
480.149,53.0288,-3.36937,0.08856378,0.84703
480.849,53.09771,-3.37068,0.08814451,0.84649
481.549,53.1667,-3.37058,0.08690608,0.84595
482.249,53.2357,-3.37199,0.08722812,0.84541
482.949,53.30432,-3.37199,0.08782729,0.84487
483.649,53.37319,-3.37133,0.08648882,0.84433
484.349,53.44214,-3.372,0.08505134,0.84378
485.049,53.5115,-3.37331,0.08753942,0.84324
485.749,53.58,-3.37397,0.08544202,0.84269
486.449,53.64869,-3.37728,0.08604365,0.84215
487.149,53.7175,-3.37749,0.08553103,0.8416
487.849,53.78683,-3.37596,0.0848905,0.84106
488.549,53.85615,-3.37584,0.08244143,0.84051
489.249,53.92491,-3.37584,0.08330533,0.83997
489.949,53.9938,-3.37652,0.08402416,0.83942
490.649,54.0629,-3.37716,0.08369736,0.83887
491.349,54.1324,-3.37846,0.08366915,0.83832
492.049,54.20162,-3.37848,0.08414333,0.83777
492.749,54.27069,-3.37848,0.08407875,0.83722
493.449,54.33973,-3.37848,0.08418525,0.83667
494.149,54.40875,-3.37848,0.08679729,0.83612
494.849,54.47759,-3.3798,0.08774912,0.83557
495.549,54.5462,-3.38118,0.08673037,0.83502
496.249,54.6151,-3.38116,0.08770312,0.83447
496.949,54.68414,-3.37979,0.08885473,0.83392
497.649,54.7535,-3.37977,0.08889805,0.83336
498.349,54.8226,-3.3821,0.08738721,0.83281
499.049,54.8915,-3.38278,0.08937022,0.83226
499.749,54.9603,-3.38342,0.08773679,0.8317
500.449,55.0294,-3.38375,0.09006386,0.83115
501.149,55.0983,-3.38375,0.09107567,0.83059
501.849,55.16734,-3.38366,0.0939248,0.83003
502.549,55.2362,-3.38507,0.09243974,0.82948
503.249,55.30559,-3.3837,0.09350598,0.82892
503.949,55.37471,-3.38605,0.09443293,0.82836
504.649,55.44373,-3.38605,0.09595317,0.8278
505.349,55.5128,-3.38605,0.09436994,0.82725
506.049,55.582,-3.38737,0.09186731,0.82669
506.749,55.65107,-3.38737,0.09407074,0.82613
507.449,55.72011,-3.38605,0.09217199,0.82557
508.149,55.78906,-3.38737,0.09450201,0.82501
508.849,55.8585,-3.38737,0.0928701,0.82444
509.549,55.92784,-3.38736,0.0935705,0.82388
510.249,55.99723,-3.38869,0.09577682,0.82332
510.949,56.06664,-3.38869,0.09516191,0.82276
511.649,56.13592,-3.38968,0.09360347,0.82219
512.349,56.20524,-3.38968,0.09449614,0.82163
513.049,56.27426,-3.39098,0.09328154,0.82107
513.749,56.3433,-3.38989,0.09234718,0.8205
514.449,56.4123,-3.39,0.08822243,0.81994
515.149,56.48149,-3.39097,0.08517219,0.81937
515.849,56.55079,-3.39233,0.08216956,0.8188
516.549,56.62045,-3.39369,0.07868709,0.81824
517.249,56.68999,-3.39242,0.07421605,0.81767
517.949,56.7597,-3.39242,0.07042199,0.8171
518.649,56.82923,-3.39242,0.06841133,0.81653
519.349,56.89864,-3.39243,0.06572255,0.81596
520.049,56.96819,-3.39377,0.06279909,0.8154
520.749,57.03761,-3.39474,0.05977381,0.81483
521.449,57.10726,-3.39472,0.05567907,0.81425
522.149,57.17664,-3.39472,0.05245,0.81368
522.849,57.246,-3.39626,0.04984798,0.81311
523.549,57.3154,-3.39471,0.049712,0.81254
524.249,57.385,-3.39602,0.04748945,0.81197
524.949,57.45446,-3.39613,0.0473406,0.8114
525.649,57.52385,-3.39616,0.04483596,0.81082
526.349,57.5929,-3.39637,0.04326648,0.81025
527.049,57.66195,-3.39637,0.04287087,0.80967
527.749,57.73118,-3.39637,0.04160512,0.8091
528.449,57.8007,-3.39637,0.04036979,0.80852
529.149,57.8702,-3.39737,0.0403103,0.80795
529.849,57.93946,-3.39768,0.0369504,0.80737
530.549,58.0087,-3.39768,0.03883076,0.8068
531.249,58.0778,-3.39892,0.03736605,0.80622
531.949,58.14699,-3.39834,0.03858556,0.80564
532.649,58.2161,-3.39834,0.03668895,0.80506
533.349,58.28535,-3.39918,0.03394431,0.80448
534.049,58.35475,-3.39933,0.03535773,0.80391
534.749,58.4241,-3.39965,0.03502533,0.80333
535.449,58.49344,-3.40095,0.03403946,0.80275
536.149,58.56264,-3.40098,0.034053,0.80217
536.849,58.6319,-3.40098,0.03312237,0.80158
537.549,58.7011,-3.40032,0.03197922,0.801
538.249,58.7705,-3.40031,0.02920848,0.80042
538.949,58.83955,-3.40062,0.02776025,0.79984
539.649,58.909,-3.40098,0.02828273,0.79926
540.349,58.97838,-3.40098,0.0288632,0.79867
541.049,59.0481,-3.40319,0.02718674,0.79809
541.749,59.1176,-3.40328,0.02541235,0.7975
542.449,59.18707,-3.40197,0.02413068,0.79692
543.149,59.25655,-3.40261,0.02326758,0.79633
543.849,59.326,-3.40329,0.02437968,0.79575
544.549,59.3954,-3.4042,0.0235298,0.79516
545.249,59.4648,-3.40461,0.02615411,0.79458
545.949,59.53403,-3.40461,0.02310372,0.79399
546.649,59.60318,-3.40461,0.02233447,0.7934
547.349,59.6725,-3.40458,0.02317595,0.79281
548.049,59.7421,-3.40592,0.02076911,0.79222
548.749,59.81219,-3.40592,0.01962873,0.79163
549.449,59.8824,-3.40592,0.01911436,0.79105
550.149,59.95225,-3.40594,0.01843217,0.79046
550.849,60.0218,-3.40591,0.01945918,0.78987
551.549,60.0912,-3.40592,0.01740974,0.78927
552.249,60.1608,-3.40592,0.0169628,0.78868
552.949,60.23049,-3.40725,0.01661618,0.78809
553.649,60.3001,-3.40724,0.01535212,0.7875
554.349,60.36991,-3.40724,0.01686328,0.78691
555.049,60.4395,-3.40724,0.0173458,0.78631
555.749,60.50881,-3.40724,0.01904837,0.78572
556.449,60.57824,-3.40856,0.0197258,0.78513
557.149,60.6479,-3.40856,0.01730367,0.78453
557.849,60.71793,-3.40921,0.02059548,0.78394
558.549,60.7878,-3.40922,0.01980314,0.78334
559.249,60.85742,-3.40941,0.01731869,0.78275
559.949,60.92705,-3.40921,0.01715732,0.78215
560.649,60.9966,-3.4102,0.01732355,0.78155
561.349,61.0662,-3.4102,0.01723106,0.78096
562.049,61.13596,-3.41161,0.01838126,0.78036
562.749,61.2053,-3.4102,0.01814462,0.77976
563.449,61.27499,-3.41011,0.01868739,0.77916
564.149,61.34449,-3.41152,0.01976715,0.77856
564.849,61.41441,-3.41147,0.02207352,0.77796
565.549,61.48406,-3.41251,0.02384317,0.77736
566.249,61.55369,-3.41246,0.02180707,0.77676
566.949,61.62336,-3.41218,0.0222042,0.77616
567.649,61.6929,-3.41251,0.02347016,0.77556
568.349,61.76225,-3.41251,0.02397153,0.77496
569.049,61.8318,-3.41383,0.02425778,0.77436
569.749,61.90136,-3.41383,0.02365149,0.77375
570.449,61.97121,-3.41439,0.02689679,0.77315
571.149,62.04091,-3.41514,0.02298443,0.77255
571.849,62.11065,-3.41514,0.02626619,0.77195
572.549,62.18026,-3.41514,0.02580325,0.77134
573.249,62.24989,-3.41514,0.02884207,0.77074
573.949,62.31954,-3.41584,0.02742954,0.77013
574.649,62.3893,-3.41514,0.02805999,0.76953
575.349,62.4591,-3.41514,0.02906988,0.76892
576.049,62.5288,-3.41646,0.02466827,0.76831
576.749,62.59861,-3.41554,0.03047031,0.76771
577.449,62.6686,-3.41646,0.02777229,0.7671
578.149,62.7385,-3.41646,0.02763799,0.76649
578.849,62.8081,-3.41646,0.02829233,0.76588
579.549,62.8781,-3.41646,0.02772705,0.76528
580.249,62.94817,-3.41795,0.02830086,0.76467
580.949,63.01834,-3.41718,0.02673756,0.76406
581.649,63.088,-3.41715,0.02554246,0.76345
582.349,63.1577,-3.4158,0.02540711,0.76284
583.049,63.2277,-3.41655,0.0282705,0.76223
583.749,63.29773,-3.41777,0.0272477,0.76162
584.449,63.3678,-3.41908,0.03166931,0.76101
585.149,63.4379,-3.4189,0.03178928,0.76039
585.849,63.508,-3.41858,0.02994571,0.75978
586.549,63.578,-3.42041,0.03342415,0.75917
587.249,63.64776,-3.42041,0.0334045,0.75856
587.949,63.7173,-3.42022,0.03334323,0.75794
588.649,63.78699,-3.41919,0.03298188,0.75733
589.349,63.85685,-3.4191,0.03242683,0.75672
590.049,63.92661,-3.42042,0.03477996,0.7561
590.749,63.99664,-3.42042,0.03306754,0.75549
591.449,64.06623,-3.42042,0.03431744,0.75487
592.149,64.13611,-3.42171,0.03363965,0.75425
592.849,64.2057,-3.42173,0.03403809,0.75364
593.549,64.27571,-3.42177,0.03397827,0.75302
594.249,64.34574,-3.4214,0.03411375,0.7524
594.949,64.41564,-3.42135,0.03264668,0.75179
595.649,64.48558,-3.42272,0.03492311,0.75117
596.349,64.5556,-3.42272,0.03369588,0.75055
597.049,64.6257,-3.4214,0.03304774,0.74993
597.749,64.6956,-3.42139,0.03199413,0.74931
598.449,64.76556,-3.42271,0.03460663,0.74869
599.149,64.83544,-3.42141,0.03501125,0.74808
599.849,64.90539,-3.42272,0.03733314,0.74745
600.549,64.9751,-3.42272,0.03597935,0.74683
601.249,65.04508,-3.4214,0.03708332,0.74621
601.949,65.1152,-3.4214,0.03634981,0.74559
602.649,65.1854,-3.4214,0.04109037,0.74497
603.349,65.25533,-3.42273,0.04167897,0.74435
604.049,65.32557,-3.42404,0.04162264,0.74373
604.749,65.3956,-3.42404,0.04412814,0.7431
605.449,65.46582,-3.42309,0.04158296,0.74248
606.149,65.53586,-3.42262,0.04244856,0.74186
606.849,65.606,-3.42545,0.04210622,0.74123
607.549,65.676,-3.42403,0.04256386,0.74061
608.249,65.74597,-3.42435,0.04157253,0.73998
608.949,65.8163,-3.42358,0.04325712,0.73936
609.649,65.8864,-3.42525,0.04452548,0.73873
610.349,65.95626,-3.42535,0.04683141,0.73811
611.049,66.0265,-3.42404,0.04557963,0.73748
611.749,66.09685,-3.42403,0.04286346,0.73685
612.449,66.16771,-3.42468,0.04553955,0.73623
613.149,66.23779,-3.42469,0.04687868,0.7356
613.849,66.3081,-3.42469,0.0476962,0.73497
614.549,66.3781,-3.42601,0.04637359,0.73435
615.249,66.4481,-3.42549,0.05007947,0.73372
615.949,66.51779,-3.42665,0.0518345,0.73309
616.649,66.58795,-3.42666,0.0549268,0.73246
617.349,66.65801,-3.42666,0.0525077,0.73183
618.049,66.72827,-3.42801,0.05537505,0.7312
618.749,66.79824,-3.42766,0.05538023,0.73057
619.449,66.8682,-3.42766,0.05254232,0.72994
620.149,66.93831,-3.42766,0.0571575,0.72931
620.849,67.008,-3.42667,0.05593908,0.72868
621.549,67.07769,-3.42666,0.05731956,0.72805
622.249,67.14747,-3.42799,0.05935405,0.72741
622.949,67.21733,-3.42799,0.05724444,0.72678
623.649,67.2874,-3.42824,0.05933777,0.72615
624.349,67.35731,-3.42832,0.06104674,0.72552
625.049,67.42737,-3.42832,0.06059438,0.72488
625.749,67.4973,-3.4283,0.06266112,0.72425
626.449,67.56726,-3.427,0.06471727,0.72361
627.149,67.63714,-3.42931,0.06347682,0.72298
627.849,67.70721,-3.42931,0.06226337,0.72235
628.549,67.77721,-3.42931,0.06294715,0.72171
629.249,67.84727,-3.428,0.0621567,0.72107
629.949,67.91721,-3.42874,0.06031305,0.72044
630.649,67.98724,-3.42895,0.06352448,0.7198
631.349,68.05731,-3.4293,0.06083495,0.71917
632.049,68.12743,-3.4293,0.06035204,0.71853
632.749,68.19765,-3.43062,0.06095169,0.71789
633.449,68.26795,-3.42928,0.05647849,0.71726
634.149,68.33821,-3.43029,0.05456238,0.71662
634.849,68.40827,-3.43163,0.05789894,0.71598
635.549,68.47844,-3.43168,0.05464138,0.71534
636.249,68.54848,-3.42897,0.05733604,0.7147
636.949,68.6186,-3.42897,0.05470779,0.71406
637.649,68.68856,-3.42897,0.05117311,0.71342
638.349,68.75882,-3.43029,0.05325208,0.71278
639.049,68.8291,-3.43155,0.05406019,0.71214
639.749,68.89965,-3.43161,0.05208326,0.7115
640.449,68.9701,-3.43195,0.05049816,0.71086
641.149,69.04038,-3.43292,0.0505642,0.71022
641.849,69.11045,-3.4316,0.04979253,0.70958
642.549,69.18064,-3.4316,0.05151395,0.70894
643.249,69.25101,-3.43292,0.05065564,0.7083
643.949,69.3215,-3.43292,0.04853897,0.70765
644.649,69.39164,-3.43161,0.04714069,0.70701
645.349,69.46162,-3.43029,0.04701902,0.70637
646.049,69.5317,-3.43029,0.04305478,0.70573
646.749,69.60191,-3.43029,0.04368808,0.70508
647.449,69.6722,-3.43129,0.04231983,0.70444
648.149,69.74234,-3.43194,0.04457203,0.70379
648.849,69.81262,-3.43194,0.04272372,0.70315
649.549,69.88286,-3.43195,0.04439679,0.70251
650.249,69.9532,-3.43126,0.04164006,0.70186
650.949,70.0237,-3.43226,0.04216635,0.70121
651.649,70.09391,-3.43227,0.04404296,0.70057
652.349,70.16417,-3.43472,0.04403103,0.69992
653.049,70.23438,-3.43491,0.0431158,0.69928
653.749,70.30473,-3.43359,0.04715999,0.69863
654.449,70.37488,-3.4326,0.04309577,0.69798
655.149,70.44496,-3.4326,0.04581401,0.69734
655.849,70.5152,-3.43331,0.04608974,0.69669
656.549,70.58567,-3.43359,0.0455997,0.69604
657.249,70.65606,-3.43327,0.04508616,0.69539
657.949,70.72633,-3.43196,0.04624221,0.69475
658.649,70.7963,-3.43397,0.04830567,0.6941
659.349,70.86629,-3.43458,0.0518531,0.69345
660.049,70.93647,-3.43589,0.04831659,0.6928
660.749,71.00665,-3.43458,0.05234601,0.69215
661.449,71.07714,-3.43458,0.05110876,0.6915
662.149,71.1473,-3.43388,0.05342295,0.69085
662.849,71.21761,-3.43392,0.05607798,0.6902
663.549,71.28772,-3.43392,0.05323738,0.68955
664.249,71.35795,-3.43392,0.0541208,0.6889
664.949,71.42822,-3.43392,0.05552524,0.68825
665.649,71.49856,-3.43523,0.05604897,0.6876
666.349,71.56894,-3.43523,0.05424424,0.68694
667.049,71.6392,-3.43523,0.05366907,0.68629
667.749,71.70952,-3.43457,0.05582859,0.68564
668.449,71.77977,-3.43457,0.05498005,0.68499
669.149,71.85,-3.43424,0.05189429,0.68433
669.849,71.92022,-3.43457,0.05336603,0.68368
670.549,71.9906,-3.43457,0.0530617,0.68303
671.249,72.06093,-3.43457,0.05368604,0.68237
671.949,72.13118,-3.43457,0.05326976,0.68172
672.649,72.20103,-3.43457,0.05095652,0.68107
673.349,72.2714,-3.43457,0.05151287,0.68041
674.049,72.34181,-3.43327,0.05247651,0.67976
674.749,72.41271,-3.43459,0.05194232,0.6791
675.449,72.48315,-3.43458,0.05108511,0.67845
676.149,72.55365,-3.43553,0.05196568,0.67779
676.849,72.62408,-3.43588,0.04853825,0.67714
677.549,72.69463,-3.43458,0.04946745,0.67648
678.249,72.7651,-3.43458,0.04662776,0.67582
678.949,72.8355,-3.4347,0.04299363,0.67517
679.649,72.90565,-3.43557,0.0433994,0.67451
680.349,72.97582,-3.43556,0.04499609,0.67385
681.049,73.04607,-3.43445,0.04348215,0.6732
681.749,73.11676,-3.43457,0.04301154,0.67254
682.449,73.18735,-3.43517,0.04285042,0.67188
683.149,73.25799,-3.43659,0.03995641,0.67122
683.849,73.3284,-3.43655,0.04008277,0.67057
684.549,73.39877,-3.43655,0.03807579,0.66991
685.249,73.46911,-3.43658,0.04074987,0.66925
685.949,73.5394,-3.43589,0.04098296,0.66859
686.649,73.61,-3.43589,0.0397307,0.66793
687.349,73.68021,-3.43589,0.03746595,0.66727
688.049,73.7505,-3.43523,0.03592953,0.66661
688.749,73.82066,-3.43811,0.03608511,0.66595
689.449,73.89108,-3.43766,0.0349554,0.66529
690.149,73.9616,-3.43677,0.03113199,0.66463
690.849,74.03209,-3.43544,0.02877203,0.66397
691.549,74.10252,-3.43545,0.02891687,0.66331
692.249,74.17288,-3.43545,0.0297503,0.66265
692.949,74.24319,-3.43677,0.02992375,0.66199
693.649,74.31339,-3.43679,0.02747862,0.66133
694.349,74.38354,-3.43959,0.02893768,0.66067
695.049,74.45365,-3.43809,0.02722481,0.66001
695.749,74.52413,-3.43752,0.02878388,0.65934
696.449,74.5947,-3.43808,0.02548739,0.65868
697.149,74.66532,-3.43709,0.02441387,0.65802
697.849,74.7358,-3.4364,0.02426652,0.65736
698.549,74.80638,-3.43791,0.02267181,0.65669
699.249,74.87686,-3.43808,0.02210055,0.65603
699.949,74.9473,-3.43833,0.02440241,0.65537
700.649,75.0175,-3.43809,0.01884396,0.6547
701.349,75.08797,-3.43809,0.01977358,0.65404
702.049,75.15816,-3.43809,0.01653187,0.65338
702.749,75.2287,-3.43809,0.01399862,0.65271
703.449,75.29903,-3.43675,0.01688963,0.65205
704.149,75.36975,-3.43875,0.01474511,0.65138
704.849,75.4404,-3.43875,0.01420132,0.65072
705.549,75.5111,-3.43875,0.01426891,0.65005
706.249,75.58179,-3.43875,0.01335988,0.64939
706.949,75.65239,-3.43809,0.01726028,0.64872
707.649,75.72305,-3.43809,0.01972807,0.64806
708.349,75.79351,-3.43817,0.01619729,0.64739
709.049,75.86407,-3.43879,0.01735836,0.64673
709.749,75.9346,-3.44115,0.01370665,0.64606
710.449,76.0052,-3.43974,0.01916834,0.64539
711.149,76.07579,-3.44007,0.01943592,0.64473
711.849,76.1464,-3.44007,0.01512064,0.64406
712.549,76.21715,-3.43876,0.01409356,0.64339
713.249,76.288,-3.43875,0.01044737,0.64273
713.949,76.35866,-3.43875,0.01025703,0.64206
714.649,76.42919,-3.43875,0.0099259,0.64139
715.349,76.49951,-3.44006,0.01003796,0.64073
716.049,76.57016,-3.43874,0.006384868,0.64006
716.749,76.64075,-3.44007,0.007302812,0.63939
717.449,76.71152,-3.43876,0.006905823,0.63872
718.149,76.78203,-3.44106,0.006809231,0.63805
718.849,76.85259,-3.43972,0.005787299,0.63739
719.549,76.9232,-3.44009,0.006598377,0.63672
720.249,76.99381,-3.44143,0.00757205,0.63605
720.949,77.06444,-3.43964,0.009640243,0.63538
721.649,77.13505,-3.43971,0.007228129,0.63471
722.349,77.20562,-3.43699,0.006803475,0.63404
723.049,77.27617,-3.4396,0.00552662,0.63337
723.749,77.3468,-3.44056,0.003597211,0.6327
724.449,77.41758,-3.44052,0.00408359,0.63203
725.149,77.48849,-3.44226,0.001807426,0.63136
725.849,77.55919,-3.44226,0.00190959,0.63069
726.549,77.62988,-3.44094,0.001573491,0.63002
727.249,77.70036,-3.43963,-1.207701e-06,0.62935
727.949,77.77095,-3.4396,1.522271e-05,0.62868
728.649,77.8412,-3.43875,0.0007712267,0.62801
729.349,77.9119,-3.44099,-0.000127012,0.62734
730.049,77.9824,-3.44029,-0.001138515,0.62667
730.749,78.05309,-3.44029,-0.001850668,0.626
731.449,78.12353,-3.44029,-6.90991e-05,0.62533
732.149,78.1939,-3.44128,0.005645299,0.62466
732.849,78.2646,-3.4416,0.004263503,0.62398
733.549,78.3352,-3.4416,0.00365801,0.62331
734.249,78.40616,-3.4439,0.0009631667,0.62264
734.949,78.47694,-3.44291,-0.0007013865,0.62197
735.649,78.54779,-3.4429,-0.00180972,0.6213
736.349,78.6185,-3.44291,-0.004078105,0.62063
737.049,78.6892,-3.44292,-0.004402984,0.61995
737.749,78.7597,-3.44161,-0.00253886,0.61928
738.449,78.83014,-3.4416,-0.002210583,0.61861
739.149,78.90083,-3.44303,-0.001202669,0.61794
739.849,78.97174,-3.44297,-0.002250381,0.61726
740.549,79.04297,-3.4417,-0.00377267,0.61659
741.249,79.11397,-3.44171,-0.00164054,0.61592
741.949,79.18506,-3.44171,-0.0045562,0.61524
742.649,79.25581,-3.44171,-0.002502144,0.61457
743.349,79.32667,-3.44354,-0.00597731,0.6139
744.049,79.39755,-3.44293,-0.002314261,0.61322
744.749,79.4687,-3.4416,-0.007928309,0.61255
745.449,79.53971,-3.4416,-0.00573988,0.61188
746.149,79.61076,-3.4416,-0.00423915,0.6112
746.849,79.68157,-3.44157,-0.00471722,0.61053
747.549,79.7525,-3.44291,-0.00530257,0.60985
748.249,79.82336,-3.44291,-0.001818865,0.60918
748.949,79.8943,-3.44291,-0.00549848,0.6085
749.649,79.96519,-3.44291,-0.007374305,0.60783
749.949,79.99499,-3.44291,-0.00680226,0.60754