File: 01_Data/Feather_PillowA_Cover/STA/N2/10K_min/Feather_Pillow_Cover_STA_N2_10KData_22315_R1.csv
##Temp./Â°C,Time/min,Mass loss(subtr.2)/mg,DSC(subtr.2)/(mW/mg),Sensit./(uV/mW)
49.684,10.00917,-0.01065,0.02052309,1.07018
50.384,10.76651,-0.008881591,0.05163851,1.06999
51.084,10.97407,-0.01154273,0.08135745,1.0698
51.784,11.1279,-0.01038564,0.10211,1.0696
52.484,11.25798,-0.01155047,0.12103,1.06941
53.184,11.37398,-0.009694902,0.13518,1.06922
53.884,11.47978,-0.009745082,0.14885,1.06902
54.584,11.579,-0.009326088,0.16221,1.06883
55.284,11.67367,-0.007281984,0.17358,1.06863
55.984,11.76511,-0.007844108,0.18432,1.06843
56.684,11.85388,-0.01086545,0.19279,1.06824
57.384,11.93994,-0.00973318,0.19967,1.06804
58.084,12.02426,-0.009158614,0.20778,1.06784
58.784,12.10665,-0.00940775,0.21314,1.06764
59.484,12.18789,-0.00861913,0.22056,1.06745
60.184,12.2683,-0.01055741,0.22617,1.06725
60.884,12.34794,-0.01045574,0.23286,1.06705
61.584,12.42672,-0.01048681,0.23773,1.06685
62.284,12.50485,-0.01048621,0.24197,1.06664
62.984,12.58272,-0.01053309,0.2471,1.06644
63.684,12.66001,-0.01053992,0.25175,1.06624
64.384,12.73687,-0.01058094,0.25547,1.06604
65.084,12.81305,-0.01186054,0.25929,1.06584
65.784,12.88916,-0.01120022,0.26468,1.06563
66.484,12.965,-0.01172858,0.26738,1.06543
67.184,13.04102,-0.01217592,0.27397,1.06522
67.884,13.11626,-0.01317404,0.27672,1.06502
68.584,13.1911,-0.01186946,0.28061,1.06481
69.284,13.26555,-0.01318444,0.28473,1.06461
69.984,13.3402,-0.0131763,0.28651,1.0644
70.684,13.4149,-0.01317818,0.2919,1.06419
71.384,13.48949,-0.01417725,0.29444,1.06399
72.084,13.5639,-0.01479698,0.29831,1.06378
72.784,13.6376,-0.01416849,0.30078,1.06357
73.484,13.7113,-0.01284542,0.30456,1.06336
74.184,13.78445,-0.01419787,0.30728,1.06315
74.884,13.85784,-0.01548997,0.31111,1.06294
75.584,13.9299,-0.01549257,0.3113,1.06273
76.284,14.003,-0.01680096,0.31354,1.06252
76.984,14.07616,-0.01777778,0.3166,1.06231
77.684,14.15,-0.0167998,0.31913,1.0621
78.384,14.22282,-0.01679997,0.32059,1.06188
79.084,14.29529,-0.01819454,0.32402,1.06167
79.784,14.3673,-0.01812,0.32522,1.06146
80.484,14.43919,-0.01812138,0.32587,1.06124
81.184,14.5107,-0.01878089,0.32875,1.06103
81.884,14.5828,-0.01874152,0.33185,1.06081
82.584,14.6548,-0.01937381,0.33249,1.0606
83.284,14.7265,-0.0207495,0.33444,1.06038
83.984,14.7978,-0.02041933,0.33808,1.06016
84.684,14.869,-0.02041939,0.33608,1.05995
85.384,14.93994,-0.02173995,0.33701,1.05973
86.084,15.0108,-0.02174779,0.33757,1.05951
86.784,15.081,-0.02194149,0.33919,1.05929
87.484,15.1517,-0.02174,0.33869,1.05907
88.184,15.22211,-0.02173984,0.3388,1.05885
88.884,15.29266,-0.02310324,0.3393,1.05863
89.584,15.36254,-0.02312873,0.33917,1.05841
90.284,15.43271,-0.02370508,0.34063,1.05819
90.984,15.50264,-0.02503048,0.33982,1.05797
91.684,15.5728,-0.02432594,0.33861,1.05774
92.384,15.64233,-0.02426278,0.33777,1.05752
93.084,15.7119,-0.02502937,0.33641,1.0573
93.784,15.7813,-0.02507465,0.33659,1.05707
94.484,15.85096,-0.02355946,0.33579,1.05685
95.184,15.92056,-0.0236058,0.33521,1.05662
95.884,15.9899,-0.02509066,0.33325,1.0564
96.584,16.05931,-0.02634998,0.33071,1.05617
97.284,16.1284,-0.02550934,0.3295,1.05594
97.984,16.1976,-0.02481453,0.33032,1.05572
98.684,16.2665,-0.02421349,0.32842,1.05549
99.384,16.33563,-0.02606377,0.32664,1.05526
100.084,16.40475,-0.02896568,0.32497,1.05503
100.784,16.4738,-0.02906727,0.32584,1.0548
101.484,16.5427,-0.02997052,0.32404,1.05457
102.184,16.61095,-0.02998854,0.32165,1.05434
102.884,16.67946,-0.03097266,0.32168,1.05411
103.584,16.74824,-0.02964138,0.31809,1.05388
104.284,16.81731,-0.02964859,0.31841,1.05365
104.984,16.88624,-0.02833121,0.31715,1.05342
105.684,16.95486,-0.02829565,0.31504,1.05318
106.384,17.0235,-0.0286071,0.31444,1.05295
107.084,17.0919,-0.02995449,0.31417,1.05272
107.784,17.16028,-0.02905429,0.31142,1.05248
108.484,17.2287,-0.03029999,0.31073,1.05225
109.184,17.29723,-0.02995102,0.30935,1.05201
109.884,17.36563,-0.03129035,0.30869,1.05178
110.584,17.43365,-0.03133489,0.30803,1.05154
111.284,17.50156,-0.02997983,0.30688,1.0513
111.984,17.5696,-0.03099366,0.30521,1.05106
112.684,17.6382,-0.03129,0.30524,1.05083
113.384,17.70648,-0.03129661,0.3058,1.05059
114.084,17.7747,-0.02996957,0.30342,1.05035
114.784,17.84274,-0.02997,0.3021,1.05011
115.484,17.911,-0.02997,0.30125,1.04987
116.184,17.97919,-0.02997005,0.30323,1.04963
116.884,18.0474,-0.03129124,0.30056,1.04939
117.584,18.11542,-0.03029336,0.30169,1.04914
118.284,18.18345,-0.02996996,0.30099,1.0489
118.984,18.2514,-0.0299665,0.30091,1.04866
119.684,18.31964,-0.02997369,0.29936,1.04841
120.384,18.38758,-0.02997,0.2995,1.04817
121.084,18.45579,-0.02996964,0.30075,1.04793
121.784,18.52394,-0.03061177,0.30266,1.04768
122.484,18.59219,-0.03069877,0.30135,1.04744
123.184,18.66037,-0.03120861,0.3024,1.04719
123.884,18.72834,-0.02997999,0.30056,1.04694
124.584,18.7963,-0.02998,0.30284,1.0467
125.284,18.86425,-0.02998026,0.30291,1.04645
125.984,18.93225,-0.02857646,0.30342,1.0462
126.684,19.00007,-0.02997012,0.30125,1.04595
127.384,19.06788,-0.02997,0.30299,1.0457
128.084,19.13563,-0.02997004,0.30494,1.04545
128.784,19.20328,-0.02960638,0.30495,1.0452
129.484,19.27071,-0.0286528,0.30566,1.04495
130.184,19.33831,-0.02898177,0.30647,1.0447
130.884,19.40595,-0.02996922,0.30667,1.04445
131.584,19.47342,-0.02997147,0.30593,1.04419
132.284,19.5409,-0.031288,0.30578,1.04394
132.984,19.60809,-0.02974688,0.30765,1.04369
133.684,19.67599,-0.02975,0.30686,1.04343
134.384,19.74377,-0.02979805,0.30842,1.04318
135.084,19.81104,-0.03186306,0.30871,1.04292
135.784,19.8785,-0.02964904,0.30874,1.04267
136.484,19.9461,-0.03096429,0.30969,1.04241
137.184,20.01417,-0.03096,0.31079,1.04215
137.884,20.08191,-0.03095247,0.31259,1.0419
138.584,20.1494,-0.03000156,0.31019,1.04164
139.284,20.21706,-0.03095994,0.31284,1.04138
139.984,20.28443,-0.03096035,0.31172,1.04112
140.684,20.3516,-0.03031692,0.31405,1.04086
141.384,20.41874,-0.03029997,0.3138,1.0406
142.084,20.48602,-0.02894607,0.31574,1.04034
142.784,20.55368,-0.03030026,0.31377,1.04008
143.484,20.62107,-0.03029982,0.31632,1.03982
144.184,20.6886,-0.03161733,0.31833,1.03955
144.884,20.7559,-0.03159382,0.31874,1.03929
145.584,20.8234,-0.03030014,0.3205,1.03903
146.284,20.89075,-0.03030495,0.31869,1.03876
146.984,20.958,-0.03129024,0.31912,1.0385
147.684,21.02519,-0.03025253,0.32126,1.03823
148.384,21.0925,-0.0285755,0.31926,1.03797
149.084,21.1598,-0.02855073,0.32174,1.0377
149.784,21.2272,-0.03140297,0.32363,1.03744
150.484,21.29446,-0.03139999,0.32433,1.03717
151.184,21.36149,-0.03146526,0.3237,1.0369
151.884,21.42851,-0.03176726,0.32487,1.03663
152.584,21.49539,-0.03137701,0.3262,1.03636
153.284,21.56213,-0.0317201,0.32797,1.03609
153.984,21.629,-0.03237276,0.32978,1.03582
154.684,21.69601,-0.03106698,0.33136,1.03555
155.384,21.76342,-0.0313562,0.33206,1.03528
156.084,21.83053,-0.03041001,0.33285,1.03501
156.784,21.89741,-0.03041034,0.33302,1.03474
157.484,21.96422,-0.02886257,0.33621,1.03447
158.184,22.03131,-0.03016868,0.33388,1.03419
158.884,22.09851,-0.03150989,0.33613,1.03392
159.584,22.1658,-0.03151,0.33567,1.03365
160.284,22.23264,-0.03151,0.33783,1.03337
160.984,22.29948,-0.03151,0.3379,1.0331
161.684,22.36627,-0.03151045,0.33876,1.03282
162.384,22.43284,-0.03018298,0.34096,1.03254
163.084,22.4997,-0.03019129,0.33898,1.03227
163.784,22.56663,-0.03151014,0.34042,1.03199
164.484,22.6338,-0.03217178,0.34072,1.03171
165.184,22.70065,-0.03217,0.34108,1.03143
165.884,22.76765,-0.0321692,0.34293,1.03115
166.584,22.83462,-0.03117484,0.3432,1.03087
167.284,22.90155,-0.0315334,0.3439,1.03059
167.984,22.96828,-0.03151,0.3444,1.03031
168.684,23.03513,-0.03151,0.34554,1.03003
169.384,23.1023,-0.03151,0.34638,1.02975
170.084,23.16929,-0.03150931,0.3466,1.02946
170.784,23.23607,-0.03184011,0.34807,1.02918
171.484,23.30272,-0.03184148,0.34941,1.0289
172.184,23.3693,-0.03283089,0.3512,1.02861
172.884,23.43627,-0.03183561,0.34939,1.02833
173.584,23.50327,-0.03184,0.35282,1.02804
174.284,23.57,-0.03184,0.35317,1.02776
174.984,23.63684,-0.03184086,0.35107,1.02747
175.684,23.7036,-0.03314636,0.35346,1.02718
176.384,23.77058,-0.03315198,0.35274,1.0269
177.084,23.83747,-0.03155531,0.35481,1.02661
177.784,23.90377,-0.03280807,0.355,1.02632
178.484,23.97045,-0.03150777,0.35575,1.02603
179.184,24.03724,-0.03151,0.35421,1.02574
179.884,24.10442,-0.03150974,0.35564,1.02545
180.584,24.17117,-0.03287179,0.3566,1.02516
181.284,24.2379,-0.03283,0.35809,1.02487
181.984,24.3048,-0.03283,0.35938,1.02457
182.684,24.37125,-0.03283,0.35895,1.02428
183.384,24.43809,-0.03283,0.36091,1.02399
184.084,24.50476,-0.03283,0.35863,1.02369
184.784,24.57183,-0.03282995,0.36069,1.0234
185.484,24.63855,-0.0321984,0.35986,1.02311
186.184,24.70523,-0.03280545,0.36058,1.02281
186.884,24.77195,-0.03282,0.36231,1.02251
187.584,24.83865,-0.03282195,0.36232,1.02222
188.284,24.90532,-0.03355085,0.36322,1.02192
188.984,24.97205,-0.03280518,0.36271,1.02162
189.684,25.03869,-0.03414207,0.36407,1.02132
190.384,25.10556,-0.03414,0.36489,1.02103
191.084,25.1722,-0.03413771,0.36602,1.02073
191.784,25.23892,-0.03545943,0.36553,1.02043
192.484,25.30559,-0.03555612,0.36492,1.02013
193.184,25.37193,-0.03413133,0.36801,1.01982
193.884,25.43852,-0.03127879,0.3677,1.01952
194.584,25.5052,-0.03261664,0.36832,1.01922
195.284,25.5721,-0.033586,0.36765,1.01892
195.984,25.63875,-0.03457253,0.36974,1.01861
196.684,25.70554,-0.03455485,0.36996,1.01831
197.384,25.77219,-0.0339227,0.36966,1.01801
198.084,25.83905,-0.03393,0.37029,1.0177
198.784,25.9055,-0.03393,0.37182,1.0174
199.484,25.97128,-0.03393006,0.37229,1.01709
200.184,26.03749,-0.03478781,0.37326,1.01678
200.884,26.104,-0.03492004,0.37295,1.01648
201.584,26.17114,-0.03492,0.37398,1.01617
202.284,26.2377,-0.03490297,0.37345,1.01586
202.984,26.3041,-0.03222478,0.37536,1.01555
203.684,26.37078,-0.03495701,0.37652,1.01524
204.384,26.4374,-0.03492001,0.37477,1.01493
205.084,26.5042,-0.03492,0.37681,1.01462
205.784,26.57078,-0.03491884,0.37551,1.01431
206.484,26.6374,-0.03622522,0.37816,1.014
207.184,26.70385,-0.03447933,0.37825,1.01368
207.884,26.7706,-0.03556355,0.37969,1.01337
208.584,26.8373,-0.03558,0.37909,1.01306
209.284,26.9038,-0.03558,0.38036,1.01274
209.984,26.9705,-0.03558,0.38172,1.01243
210.684,27.03705,-0.0355801,0.38295,1.01211
211.384,27.1038,-0.03686441,0.38128,1.0118
212.084,27.17036,-0.03583936,0.38434,1.01148
212.784,27.2371,-0.03589998,0.38388,1.01116
213.484,27.3037,-0.03590161,0.38605,1.01085
214.184,27.3702,-0.03721902,0.38481,1.01053
214.884,27.4367,-0.03722,0.38706,1.01021
215.584,27.5034,-0.03722,0.38691,1.00989
216.284,27.5702,-0.03722,0.38885,1.00957
216.984,27.63679,-0.03722044,0.38913,1.00925
217.684,27.7035,-0.0358929,0.38641,1.00893
218.384,27.7699,-0.03723582,0.38927,1.00861
219.084,27.83646,-0.03854014,0.38953,1.00829
219.784,27.9031,-0.03853445,0.38964,1.00796
220.484,27.9696,-0.03985014,0.38972,1.00764
221.184,28.03626,-0.03832632,0.39184,1.00732
221.884,28.10295,-0.03721653,0.38983,1.00699
222.584,28.1696,-0.03820973,0.39235,1.00667
223.284,28.23619,-0.03951187,0.39044,1.00634
223.984,28.30265,-0.03952,0.39342,1.00601
224.684,28.36914,-0.03952,0.39407,1.00569
225.384,28.43543,-0.03954619,0.3929,1.00536
226.084,28.5019,-0.04083935,0.3964,1.00503
226.784,28.5682,-0.03952088,0.39673,1.0047
227.484,28.635,-0.03952317,0.39672,1.00437
228.184,28.70165,-0.04084048,0.39668,1.00404
228.884,28.7684,-0.04084,0.39793,1.00371
229.584,28.83515,-0.04084,0.39741,1.00338
230.284,28.90198,-0.04084,0.39965,1.00305
230.984,28.9684,-0.04084005,0.39827,1.00272
231.684,29.03493,-0.04211362,0.39908,1.00239
232.384,29.10146,-0.04216,0.40086,1.00205
233.084,29.16804,-0.04216,0.39958,1.00172
233.784,29.23463,-0.04216013,0.40267,1.00139
234.484,29.30125,-0.04328347,0.40299,1.00105
235.184,29.36797,-0.04343914,0.40199,1.00072
235.884,29.43467,-0.04314298,0.40389,1.00038
236.584,29.5013,-0.04444579,0.40466,1.00004
237.284,29.5679,-0.04473159,0.40612,0.99971
237.984,29.6343,-0.04610956,0.40312,0.99937
238.684,29.70085,-0.04545498,0.4053,0.99903
239.384,29.7675,-0.04545,0.40647,0.99869
240.084,29.83437,-0.04544953,0.40567,0.99835
240.784,29.9012,-0.04677557,0.40635,0.99801
241.484,29.968,-0.04677,0.40559,0.99767
242.184,30.03463,-0.04677095,0.40818,0.99733
242.884,30.10128,-0.04806802,0.4098,0.99699
243.584,30.168,-0.04939419,0.40799,0.99664
244.284,30.2347,-0.0494,0.40841,0.9963
244.984,30.3014,-0.04939978,0.41194,0.99596
245.684,30.36797,-0.05071405,0.41083,0.99561
246.384,30.43437,-0.05071997,0.41131,0.99527
247.084,30.501,-0.05211485,0.41503,0.99492
247.784,30.5677,-0.05203998,0.41306,0.99458
248.484,30.6345,-0.05343624,0.41408,0.99423
249.184,30.70135,-0.05334999,0.4147,0.99388
249.884,30.76803,-0.05335102,0.41467,0.99354
250.584,30.8347,-0.05466834,0.41769,0.99319
251.284,30.9009,-0.05606199,0.41758,0.99284
251.984,30.96749,-0.05599001,0.41785,0.99249
252.684,31.0342,-0.05599176,0.41822,0.99214
253.384,31.101,-0.05730838,0.41939,0.99179
254.084,31.16785,-0.05862352,0.41801,0.99144
254.784,31.2344,-0.05998608,0.41906,0.99109
255.484,31.30113,-0.05993369,0.41893,0.99073
256.184,31.36771,-0.06090662,0.42058,0.99038
256.884,31.4343,-0.06125944,0.42177,0.99003
257.584,31.50067,-0.06223377,0.42162,0.98967
258.284,31.5673,-0.06257972,0.42289,0.98932
258.984,31.634,-0.06296517,0.42372,0.98896
259.684,31.7007,-0.06489005,0.42188,0.98861
260.384,31.76732,-0.06541992,0.4246,0.98825
261.084,31.8342,-0.06487347,0.42498,0.98789
261.784,31.90093,-0.06616766,0.42536,0.98753
262.484,31.968,-0.06751982,0.42699,0.98718
263.184,32.03448,-0.06888596,0.42776,0.98682
263.884,32.1013,-0.07016617,0.42803,0.98646
264.584,32.1678,-0.07147175,0.43023,0.9861
265.284,32.2348,-0.0720378,0.43124,0.98574
265.984,32.3014,-0.07282009,0.43039,0.98538
266.684,32.3681,-0.07336438,0.43439,0.98501
267.384,32.43489,-0.07401362,0.43537,0.98465
268.084,32.5016,-0.07542979,0.43536,0.98429
268.784,32.5684,-0.07673603,0.43647,0.98393
269.484,32.63519,-0.077318,0.43727,0.98356
270.184,32.70197,-0.07805793,0.43732,0.9832
270.884,32.7687,-0.07937704,0.43864,0.98283
271.584,32.8354,-0.08069672,0.44054,0.98246
272.284,32.9024,-0.08201442,0.43985,0.9821
272.984,32.96945,-0.08332777,0.44017,0.98173
273.684,33.0364,-0.08332334,0.44064,0.98136
274.384,33.10305,-0.08464517,0.44019,0.98099
275.084,33.16965,-0.08597128,0.44027,0.98063
275.784,33.23643,-0.08730603,0.43933,0.98026
276.484,33.303,-0.08856123,0.44018,0.97989
277.184,33.36999,-0.09122879,0.44103,0.97952
277.884,33.43678,-0.09254577,0.43732,0.97914
278.584,33.50385,-0.09385279,0.44028,0.97877
279.284,33.57056,-0.0951808,0.43901,0.9784
279.984,33.63729,-0.09650217,0.44038,0.97803
280.684,33.704,-0.09793454,0.44054,0.97765
281.384,33.7707,-0.09946015,0.44249,0.97728
282.084,33.83753,-0.10067,0.44363,0.9769
282.784,33.90415,-0.10373,0.44313,0.97653
283.484,33.97105,-0.10559,0.44401,0.97615
284.184,34.03792,-0.10692,0.4443,0.97578
284.884,34.10464,-0.10826,0.44458,0.9754
285.584,34.17151,-0.10989,0.44566,0.97502
286.284,34.2385,-0.1113,0.44637,0.97464
286.984,34.30551,-0.11409,0.4484,0.97426
287.684,34.37239,-0.11686,0.4501,0.97388
288.384,34.439,-0.11813,0.45201,0.9735
289.084,34.50587,-0.11981,0.45366,0.97312
289.784,34.5725,-0.1223,0.45486,0.97274
290.484,34.6391,-0.12394,0.45611,0.97236
291.184,34.70585,-0.12622,0.4587,0.97198
291.884,34.77259,-0.12772,0.46009,0.97159
292.584,34.8394,-0.13055,0.46043,0.97121
293.284,34.90606,-0.1321,0.4638,0.97082
293.984,34.9728,-0.13485,0.46549,0.97044
294.684,35.03976,-0.13861,0.46471,0.97005
295.384,35.10672,-0.14154,0.46859,0.96967
296.084,35.17352,-0.14546,0.46942,0.96928
296.784,35.24008,-0.14468,0.47301,0.96889
297.484,35.3068,-0.14675,0.47303,0.96851
298.184,35.3735,-0.1498,0.47562,0.96812
298.884,35.44041,-0.1546,0.47898,0.96773
299.584,35.5073,-0.15769,0.48253,0.96734
300.284,35.5743,-0.16066,0.48796,0.96695
300.984,35.64114,-0.16376,0.48709,0.96656
301.684,35.7079,-0.16687,0.48917,0.96617
302.384,35.77458,-0.17112,0.49149,0.96577
303.084,35.8413,-0.17463,0.49373,0.96538
303.784,35.9082,-0.17813,0.49633,0.96499
304.484,35.975,-0.18175,0.50107,0.96459
305.184,36.04209,-0.18515,0.49964,0.9642
305.884,36.10908,-0.18882,0.50533,0.9638
306.584,36.1761,-0.19307,0.50816,0.96341
307.284,36.2427,-0.19746,0.50993,0.96301
307.984,36.3095,-0.20036,0.5134,0.96261
308.684,36.37644,-0.20625,0.51587,0.96222
309.384,36.44365,-0.20961,0.52073,0.96182
310.084,36.51092,-0.21481,0.52429,0.96142
310.784,36.57781,-0.22039,0.52791,0.96102
311.484,36.64492,-0.22232,0.53175,0.96062
312.184,36.71178,-0.22828,0.53364,0.96022
312.884,36.77838,-0.23561,0.53808,0.95982
313.584,36.84525,-0.23839,0.54333,0.95942
314.284,36.91215,-0.24337,0.54801,0.95902
314.984,36.9794,-0.24966,0.55212,0.95861
315.684,37.04634,-0.25522,0.55992,0.95821
316.384,37.11338,-0.26057,0.56263,0.9578
317.084,37.18054,-0.26768,0.56782,0.9574
317.784,37.24771,-0.27333,0.57149,0.95699
318.484,37.3146,-0.28037,0.57695,0.95659
319.184,37.3818,-0.28655,0.58241,0.95618
319.884,37.44919,-0.29389,0.58881,0.95577
320.584,37.5167,-0.30182,0.5946,0.95537
321.284,37.58405,-0.30913,0.6025,0.95496
321.984,37.65133,-0.31582,0.60714,0.95455
322.684,37.71861,-0.32358,0.61358,0.95414
323.384,37.78584,-0.33159,0.62368,0.95373
324.084,37.8527,-0.33886,0.63124,0.95332
324.784,37.92,-0.34789,0.63958,0.95291
325.484,37.98721,-0.35786,0.64831,0.9525
326.184,38.0548,-0.36765,0.65839,0.95208
326.884,38.12155,-0.37783,0.66597,0.95167
327.584,38.189,-0.38652,0.67704,0.95126
328.284,38.25609,-0.39769,0.68504,0.95084
328.984,38.32395,-0.40818,0.6953,0.95043
329.684,38.39145,-0.42016,0.7098,0.95001
330.384,38.4591,-0.43165,0.72185,0.9496
331.084,38.5268,-0.44287,0.73402,0.94918
331.784,38.5944,-0.4562,0.74747,0.94876
332.484,38.66194,-0.4693,0.7621,0.94834
333.184,38.72925,-0.48109,0.7754,0.94793
333.884,38.7966,-0.49622,0.79252,0.94751
334.584,38.86381,-0.51161,0.80983,0.94709
335.284,38.93143,-0.52568,0.82844,0.94667
335.984,38.99912,-0.54397,0.84434,0.94625
336.684,39.06692,-0.55961,0.86604,0.94582
337.384,39.13462,-0.57683,0.88558,0.9454
338.084,39.20224,-0.5935,0.91022,0.94498
338.784,39.26998,-0.6125,0.93121,0.94456
339.484,39.33762,-0.63296,0.95474,0.94413
340.184,39.40506,-0.65298,0.98193,0.94371
340.884,39.4725,-0.67536,1.0074,0.94328
341.584,39.53975,-0.6974,1.03297,0.94286
342.284,39.60752,-0.72078,1.06193,0.94243
342.984,39.6751,-0.74344,1.09261,0.942
343.684,39.7431,-0.76893,1.12449,0.94158
344.384,39.81074,-0.79776,1.15949,0.94115
345.084,39.87873,-0.82383,1.19411,0.94072
345.784,39.9466,-0.85336,1.23216,0.94029
346.484,40.01457,-0.88465,1.26972,0.93986
347.184,40.08248,-0.91412,1.31063,0.93943
347.884,40.15058,-0.94537,1.34813,0.939
348.584,40.21859,-0.98134,1.39246,0.93857
349.284,40.28649,-1.01697,1.43548,0.93814
349.984,40.3544,-1.05187,1.47755,0.9377
350.684,40.42233,-1.08909,1.52425,0.93727
351.384,40.49054,-1.13392,1.57034,0.93683
352.084,40.55856,-1.17457,1.61743,0.9364
352.784,40.627,-1.21973,1.66622,0.93596
353.484,40.6952,-1.2675,1.71343,0.93553
354.184,40.76351,-1.31317,1.76078,0.93509
354.884,40.83173,-1.3602,1.807,0.93466
355.584,40.90019,-1.41116,1.85405,0.93422
356.284,40.96877,-1.46484,1.90057,0.93378
356.984,41.03713,-1.51736,1.94625,0.93334
357.684,41.1053,-1.57354,1.98796,0.9329
358.384,41.17301,-1.63188,2.02672,0.93246
359.084,41.2411,-1.68918,2.0645,0.93202
359.784,41.30943,-1.74623,2.09864,0.93158
360.484,41.37802,-1.80774,2.12523,0.93114
361.184,41.44639,-1.86993,2.14974,0.9307
361.884,41.51458,-1.93083,2.16709,0.93025
362.584,41.58269,-1.99282,2.17661,0.92981
363.284,41.65083,-2.05746,2.18122,0.92936
363.984,41.71887,-2.11817,2.17901,0.92892
364.684,41.78686,-2.17992,2.16738,0.92847
365.384,41.85468,-2.24326,2.14877,0.92803
366.084,41.9223,-2.30467,2.12121,0.92758
366.784,41.98997,-2.36234,2.09137,0.92713
367.484,42.05766,-2.42319,2.04884,0.92669
368.184,42.12546,-2.48169,2.00102,0.92624
368.884,42.19294,-2.53622,1.94596,0.92579
369.584,42.26038,-2.5897,1.88689,0.92534
370.284,42.32777,-2.64463,1.81967,0.92489
370.984,42.39525,-2.69234,1.74873,0.92444
371.684,42.46261,-2.74131,1.66847,0.92399
372.384,42.5299,-2.7891,1.58569,0.92354
373.084,42.59701,-2.82947,1.49603,0.92308
373.784,42.664,-2.86663,1.40178,0.92263
374.484,42.73089,-2.90734,1.30703,0.92218
375.184,42.79785,-2.94079,1.20632,0.92172
375.884,42.8649,-2.97201,1.10829,0.92127
376.584,42.93189,-3.00292,1.00158,0.92081
377.284,42.9985,-3.02547,0.90166,0.92036
377.984,43.0651,-3.04864,0.80145,0.9199
378.684,43.13176,-3.0691,0.70883,0.91944
379.384,43.19862,-3.08513,0.62397,0.91898
380.084,43.26512,-3.09898,0.54052,0.91853
380.784,43.3318,-3.11055,0.46576,0.91807
381.484,43.3987,-3.12099,0.40396,0.91761
382.184,43.4658,-3.12821,0.34825,0.91715
382.884,43.53277,-3.13485,0.30235,0.91669
383.584,43.59962,-3.14013,0.26644,0.91622
384.284,43.66656,-3.1442,0.23346,0.91576
384.984,43.73372,-3.14864,0.20889,0.9153
385.684,43.8009,-3.1525,0.18823,0.91484
386.384,43.86802,-3.15452,0.17288,0.91437
387.084,43.93509,-3.15638,0.16081,0.91391
387.784,44.00222,-3.1587,0.15459,0.91344
388.484,44.06951,-3.16001,0.14435,0.91298
389.184,44.13673,-3.16132,0.14041,0.91251
389.884,44.2044,-3.16262,0.13816,0.91204
390.584,44.2719,-3.16397,0.13064,0.91158
391.284,44.3397,-3.16526,0.12997,0.91111
391.984,44.40725,-3.16651,0.12715,0.91064
392.684,44.4748,-3.1689,0.12761,0.91017
393.384,44.5423,-3.17019,0.12468,0.9097
394.084,44.61,-3.17024,0.12529,0.90923
394.784,44.6779,-3.17087,0.12323,0.90876
395.484,44.74556,-3.17153,0.12029,0.90829
396.184,44.81321,-3.17282,0.12147,0.90782
396.884,44.88095,-3.17424,0.11986,0.90734
397.584,44.9489,-3.17548,0.1218,0.90687
398.284,45.01684,-3.17548,0.1207,0.9064
398.984,45.08488,-3.17579,0.11832,0.90592
399.684,45.1529,-3.17684,0.11975,0.90545
400.384,45.22095,-3.17812,0.11836,0.90497
401.084,45.28901,-3.17944,0.11926,0.9045
401.784,45.3568,-3.18074,0.11795,0.90402
402.484,45.42474,-3.18202,0.1179,0.90354
403.184,45.49284,-3.182,0.11792,0.90306
403.884,45.5606,-3.18339,0.11651,0.90259
404.584,45.62851,-3.184,0.11853,0.90211
405.284,45.6965,-3.18471,0.11773,0.90163
405.984,45.76477,-3.18472,0.11863,0.90115
406.684,45.83283,-3.18602,0.11936,0.90067
407.384,45.90076,-3.18472,0.11711,0.90018
408.084,45.96894,-3.18788,0.11671,0.8997
408.784,46.03717,-3.18921,0.11847,0.89922
409.484,46.10521,-3.19018,0.1194,0.89874
410.184,46.17304,-3.19052,0.11748,0.89825
410.884,46.24131,-3.19185,0.11701,0.89777
411.584,46.3095,-3.19184,0.11764,0.89728
412.284,46.378,-3.1919,0.11685,0.8968
412.984,46.44594,-3.19194,0.11859,0.89631
413.684,46.5138,-3.19321,0.11805,0.89583
414.384,46.58175,-3.19316,0.11566,0.89534
415.084,46.64976,-3.19318,0.11667,0.89485
415.784,46.71798,-3.19547,0.11702,0.89436
416.484,46.78617,-3.19587,0.11562,0.89387
417.184,46.85429,-3.19811,0.11694,0.89338
417.884,46.9223,-3.1981,0.11563,0.89289
418.584,46.9904,-3.19886,0.1166,0.8924
419.284,47.05843,-3.19942,0.11768,0.89191
419.984,47.12644,-3.20073,0.11706,0.89142
420.684,47.19443,-3.20094,0.11674,0.89093
421.384,47.2624,-3.20106,0.11791,0.89043
422.084,47.3305,-3.20105,0.11793,0.88994
422.784,47.3986,-3.20238,0.11739,0.88945
423.484,47.46683,-3.2037,0.11695,0.88895
424.184,47.53488,-3.20556,0.11691,0.88846
424.884,47.6029,-3.205,0.11659,0.88796
425.584,47.6708,-3.20502,0.1171,0.88746
426.284,47.7389,-3.20633,0.1164,0.88697
426.984,47.80727,-3.20765,0.11671,0.88647
427.684,47.8757,-3.20765,0.11792,0.88597
428.384,47.94408,-3.2085,0.11353,0.88547
429.084,48.01238,-3.20988,0.11546,0.88497
429.784,48.08052,-3.21028,0.1146,0.88447
430.484,48.14887,-3.21059,0.11595,0.88397
431.184,48.21699,-3.2116,0.11871,0.88347
431.884,48.2853,-3.21163,0.12046,0.88297
432.584,48.35342,-3.21292,0.12057,0.88247
433.284,48.42161,-3.21293,0.12272,0.88197
433.984,48.48966,-3.21423,0.12016,0.88146
434.684,48.55795,-3.2142,0.12129,0.88096
435.384,48.62637,-3.21555,0.1186,0.88045
436.084,48.695,-3.21695,0.11975,0.87995
436.784,48.76368,-3.21687,0.12024,0.87944
437.484,48.83214,-3.21828,0.11946,0.87894
438.184,48.90054,-3.21721,0.11929,0.87843
438.884,48.96889,-3.21852,0.11826,0.87792
439.584,49.03734,-3.21852,0.11884,0.87742
440.284,49.10593,-3.21855,0.11971,0.87691
440.984,49.1742,-3.21985,0.1211,0.8764
441.684,49.24281,-3.22116,0.11974,0.87589
442.384,49.31115,-3.22114,0.11788,0.87538
443.084,49.37984,-3.22248,0.11906,0.87487
443.784,49.44822,-3.22248,0.11797,0.87436
444.484,49.51688,-3.22354,0.117,0.87384
445.184,49.58551,-3.22346,0.11774,0.87333
445.884,49.65436,-3.22478,0.11977,0.87282
446.584,49.72305,-3.2247,0.11773,0.87231
447.284,49.7918,-3.22611,0.11507,0.87179
447.984,49.86051,-3.22742,0.11681,0.87128
448.684,49.9289,-3.22742,0.11794,0.87076
449.384,49.99735,-3.22823,0.11963,0.87025
450.084,50.06568,-3.22872,0.12054,0.86973
450.784,50.13452,-3.2301,0.11744,0.86921
451.484,50.20309,-3.22892,0.11866,0.8687
452.184,50.27186,-3.23138,0.11719,0.86818
452.884,50.3405,-3.23236,0.11843,0.86766
453.584,50.40932,-3.2317,0.11886,0.86714
454.284,50.4778,-3.232,0.11768,0.86662
454.984,50.5463,-3.23334,0.11788,0.8661
455.684,50.61493,-3.23334,0.11725,0.86558
456.384,50.68363,-3.23458,0.1176,0.86506
457.084,50.75223,-3.23473,0.11768,0.86454
457.784,50.82065,-3.23695,0.1176,0.86401
458.484,50.88913,-3.23697,0.11825,0.86349
459.184,50.95753,-3.23829,0.11773,0.86297
459.884,51.0261,-3.23693,0.11685,0.86244
460.584,51.09472,-3.23828,0.11567,0.86192
461.284,51.16367,-3.23828,0.11742,0.86139
461.984,51.23235,-3.2392,0.11644,0.86087
462.684,51.301,-3.2396,0.11504,0.86034
463.384,51.36942,-3.23992,0.11429,0.85981
464.084,51.43815,-3.23961,0.11661,0.85929
464.784,51.5068,-3.24159,0.11569,0.85876
465.484,51.57573,-3.24226,0.11752,0.85823
466.184,51.64456,-3.24363,0.11645,0.8577
466.884,51.71355,-3.24355,0.11655,0.85717
467.584,51.78226,-3.24352,0.11716,0.85664
468.284,51.85105,-3.24355,0.11642,0.85611
468.984,51.9196,-3.24358,0.11848,0.85558
469.684,51.98832,-3.24613,0.11798,0.85505
470.384,52.0569,-3.24618,0.11802,0.85452
471.084,52.1259,-3.24735,0.11705,0.85398
471.784,52.1947,-3.2475,0.1183,0.85345
472.484,52.26352,-3.2475,0.11779,0.85291
473.184,52.33225,-3.2475,0.1198,0.85238
473.884,52.40108,-3.2489,0.11721,0.85185
474.584,52.46995,-3.24881,0.11655,0.85131
475.284,52.5388,-3.25014,0.11688,0.85077
475.984,52.6076,-3.25014,0.11697,0.85024
476.684,52.67646,-3.25153,0.11988,0.8497
477.384,52.74544,-3.25012,0.11716,0.84916
478.084,52.81416,-3.25146,0.11783,0.84862
478.784,52.88292,-3.25111,0.12028,0.84808
479.484,52.95162,-3.2528,0.11837,0.84755
480.184,53.0204,-3.25388,0.11743,0.84701
480.884,53.0894,-3.25475,0.11997,0.84647
481.584,53.15812,-3.25409,0.11966,0.84592
482.284,53.22699,-3.25532,0.11869,0.84538
482.984,53.29557,-3.25426,0.11956,0.84484
483.684,53.3646,-3.25402,0.11912,0.8443
484.384,53.43343,-3.25477,0.11771,0.84376
485.084,53.5024,-3.2554,0.11797,0.84321
485.784,53.57108,-3.25674,0.114,0.84267
486.484,53.6401,-3.25407,0.11872,0.84212
487.184,53.709,-3.25847,0.11765,0.84158
487.884,53.778,-3.2598,0.11953,0.84103
488.584,53.84698,-3.2598,0.11924,0.84049
489.284,53.9158,-3.2598,0.11966,0.83994
489.984,53.9848,-3.26053,0.11935,0.83939
490.684,54.05369,-3.26078,0.12117,0.83884
491.384,54.1229,-3.26079,0.12353,0.83829
492.084,54.1918,-3.26177,0.12627,0.83775
492.784,54.2606,-3.26177,0.12574,0.8372
493.484,54.3294,-3.26177,0.1299,0.83665
494.184,54.3979,-3.26111,0.13039,0.8361
494.884,54.46702,-3.26145,0.13099,0.83555
495.584,54.536,-3.26276,0.13209,0.83499
496.284,54.6054,-3.26276,0.12936,0.83444
496.984,54.67445,-3.26135,0.12889,0.83389
497.684,54.74389,-3.26438,0.1316,0.83334
498.384,54.81267,-3.26562,0.12838,0.83278
499.084,54.88149,-3.26561,0.12791,0.83223
499.784,54.9502,-3.26561,0.12832,0.83167
500.484,55.01965,-3.26692,0.12729,0.83112
501.184,55.089,-3.26693,0.13012,0.83056
501.884,55.1584,-3.26693,0.1306,0.83001
502.584,55.2275,-3.26825,0.13025,0.82945
503.284,55.29674,-3.268,0.1317,0.82889
503.984,55.36566,-3.26793,0.12918,0.82833
504.684,55.43472,-3.26793,0.13052,0.82778
505.384,55.5039,-3.26794,0.12983,0.82722
506.084,55.5732,-3.2666,0.12761,0.82666
506.784,55.6423,-3.26792,0.12961,0.8261
507.484,55.71128,-3.2697,0.12775,0.82554
508.184,55.7803,-3.2706,0.1272,0.82498
508.884,55.84945,-3.27124,0.12807,0.82442
509.584,55.9184,-3.27188,0.12724,0.82385
510.284,55.9876,-3.2714,0.12932,0.82329
510.984,56.0566,-3.27274,0.12701,0.82273
511.684,56.12556,-3.27288,0.12494,0.82217
512.384,56.19474,-3.27418,0.12233,0.8216
513.084,56.2639,-3.27349,0.11975,0.82104
513.784,56.33347,-3.27319,0.1181,0.82047
514.484,56.40285,-3.27451,0.11662,0.81991
515.184,56.47212,-3.27346,0.11523,0.81934
515.884,56.54136,-3.27436,0.11201,0.81878
516.584,56.61036,-3.27484,0.1106,0.81821
517.284,56.6793,-3.27484,0.1072,0.81764
517.984,56.7484,-3.2755,0.10556,0.81707
518.684,56.8177,-3.27614,0.10609,0.8165
519.384,56.88709,-3.27517,0.10514,0.81594
520.084,56.9566,-3.27516,0.10327,0.81537
520.784,57.02615,-3.27718,0.10267,0.8148
521.484,57.09556,-3.27758,0.09987602,0.81423
522.184,57.16477,-3.27777,0.0981545,0.81366
522.884,57.23386,-3.27813,0.09675267,0.81308
523.584,57.3031,-3.27811,0.0940209,0.81251
524.284,57.37231,-3.2778,0.09403569,0.81194
524.984,57.44145,-3.2792,0.09490531,0.81137
525.684,57.51047,-3.2805,0.09268147,0.81079
526.384,57.57962,-3.28044,0.09177759,0.81022
527.084,57.64864,-3.28044,0.09018946,0.80965
527.784,57.71801,-3.28044,0.08990833,0.80907
528.484,57.78719,-3.28106,0.08824295,0.8085
529.184,57.85663,-3.28175,0.08750166,0.80792
529.884,57.9259,-3.2817,0.0877043,0.80734
530.584,57.9951,-3.28308,0.08603976,0.80677
531.284,58.0643,-3.28102,0.08403399,0.80619
531.984,58.1336,-3.28109,0.08279621,0.80561
532.684,58.20299,-3.28221,0.0818446,0.80503
533.384,58.2723,-3.2834,0.07967144,0.80446
534.084,58.3415,-3.2834,0.07971783,0.80388
534.784,58.41089,-3.2834,0.08031453,0.8033
535.484,58.4803,-3.28341,0.07769838,0.80272
536.184,58.54979,-3.28472,0.08120749,0.80214
536.884,58.619,-3.28472,0.07859794,0.80156
537.584,58.6884,-3.28475,0.07705122,0.80097
538.284,58.75759,-3.28472,0.07720912,0.80039
538.984,58.82716,-3.28521,0.0781827,0.79981
539.684,58.8967,-3.28603,0.07619393,0.79923
540.384,58.96603,-3.28669,0.07327328,0.79864
541.084,59.03533,-3.2867,0.07359975,0.79806
541.784,59.10474,-3.28677,0.07314517,0.79747
542.484,59.1744,-3.28698,0.07177535,0.79689
543.184,59.24403,-3.28802,0.07442034,0.7963
543.884,59.31361,-3.28715,0.07122998,0.79572
544.584,59.3834,-3.2867,0.07511332,0.79513
545.284,59.45306,-3.28669,0.07328644,0.79455
545.984,59.52241,-3.28702,0.07321033,0.79396
546.684,59.5918,-3.28703,0.0745503,0.79337
547.384,59.6607,-3.28703,0.07197715,0.79278
548.084,59.7302,-3.28941,0.07319218,0.79219
548.784,59.79954,-3.28864,0.07078656,0.79161
549.484,59.86959,-3.28733,0.07041046,0.79102
550.184,59.9392,-3.28834,0.07116861,0.79043
550.884,60.00891,-3.28966,0.07415851,0.78984
551.584,60.07844,-3.29059,0.07317585,0.78924
552.284,60.1479,-3.29099,0.0744768,0.78865
552.984,60.2172,-3.29131,0.07241595,0.78806
553.684,60.28676,-3.29263,0.0736865,0.78747
554.384,60.3563,-3.29264,0.07527095,0.78688
555.084,60.42601,-3.29109,0.07604138,0.78628
555.784,60.4956,-3.29104,0.07462642,0.78569
556.484,60.56519,-3.29241,0.07522719,0.7851
557.184,60.6346,-3.29373,0.07403524,0.7845
557.884,60.7043,-3.29504,0.07481024,0.78391
558.584,60.77404,-3.29419,0.075196,0.78331
559.284,60.8439,-3.29416,0.07490154,0.78272
559.984,60.91364,-3.29416,0.07581614,0.78212
560.684,60.9832,-3.29416,0.07476034,0.78152
561.384,61.0529,-3.29489,0.07507402,0.78093
562.084,61.12254,-3.29548,0.0736091,0.78033
562.784,61.19246,-3.29386,0.07372513,0.77973
563.484,61.262,-3.29541,0.07289781,0.77913
564.184,61.3318,-3.29685,0.07231994,0.77853
564.884,61.40138,-3.29393,0.07299137,0.77793
565.584,61.4711,-3.29676,0.07241574,0.77733
566.284,61.54079,-3.29801,0.0751004,0.77673
566.984,61.6104,-3.29712,0.07442571,0.77613
567.684,61.68,-3.298,0.07614421,0.77553
568.384,61.7496,-3.298,0.07562133,0.77493
569.084,61.8196,-3.29701,0.07538835,0.77433
569.784,61.8894,-3.29701,0.0771875,0.77372
570.484,61.9592,-3.29833,0.07899699,0.77312
571.184,62.0289,-3.2969,0.07280338,0.77252
571.884,62.0987,-3.29823,0.07661891,0.77191
572.584,62.1685,-3.29954,0.07289746,0.77131
573.284,62.23842,-3.29921,0.0748056,0.77071
573.984,62.30845,-3.29921,0.07227117,0.7701
574.684,62.3785,-3.29889,0.07247317,0.7695
575.384,62.44826,-3.29789,0.07439789,0.76889
576.084,62.5181,-3.29789,0.07288575,0.76828
576.784,62.5881,-3.29784,0.07468009,0.76768
577.484,62.65806,-3.29921,0.0746556,0.76707
578.184,62.72775,-3.29915,0.07525904,0.76646
578.884,62.79756,-3.30115,0.07399261,0.76585
579.584,62.8675,-3.30118,0.07657846,0.76525
580.284,62.93739,-3.30112,0.07407056,0.76464
580.984,63.0073,-3.30119,0.07370827,0.76403
581.684,63.0772,-3.30119,0.07258319,0.76342
582.384,63.14721,-3.30119,0.07455472,0.76281
583.084,63.2172,-3.30202,0.07289034,0.7622
583.784,63.287,-3.30218,0.07304321,0.76159
584.484,63.357,-3.30218,0.0736738,0.76098
585.184,63.42677,-3.30157,0.07392484,0.76036
585.884,63.49677,-3.30119,0.07547617,0.75975
586.584,63.56666,-3.30119,0.07522424,0.75914
587.284,63.6366,-3.30154,0.0764321,0.75853
587.984,63.70645,-3.30152,0.07416252,0.75791
588.684,63.77641,-3.30283,0.07607776,0.7573
589.384,63.84619,-3.30284,0.07810187,0.75668
590.084,63.91607,-3.30285,0.07652395,0.75607
590.784,63.9858,-3.30418,0.07656277,0.75545
591.484,64.0557,-3.30382,0.07621964,0.75484
592.184,64.12557,-3.30382,0.07799719,0.75422
592.884,64.19547,-3.3025,0.07843867,0.75361
593.584,64.26545,-3.3025,0.07795205,0.75299
594.284,64.33532,-3.3024,0.07776004,0.75237
594.984,64.40531,-3.30382,0.07854407,0.75176
595.684,64.4752,-3.30382,0.07704595,0.75114
596.384,64.5452,-3.30284,0.07794606,0.75052
597.084,64.6151,-3.30283,0.08039673,0.7499
597.784,64.685,-3.30419,0.078961,0.74928
598.484,64.75491,-3.30626,0.08209164,0.74866
599.184,64.82496,-3.30646,0.08245659,0.74804
599.884,64.89479,-3.30514,0.08153769,0.74742
600.584,64.9644,-3.30514,0.07997053,0.7468
601.284,65.03418,-3.30556,0.08191316,0.74618
601.984,65.10424,-3.30646,0.07749315,0.74556
602.684,65.17446,-3.30776,0.07881698,0.74494
603.384,65.24427,-3.30775,0.0786826,0.74432
604.084,65.31436,-3.3091,0.07967626,0.7437
604.784,65.3844,-3.30891,0.07937961,0.74307
605.484,65.45435,-3.30743,0.08428955,0.74245
606.184,65.52409,-3.30744,0.08156132,0.74183
606.884,65.59403,-3.30828,0.08108107,0.7412
607.584,65.66456,-3.30876,0.08204182,0.74058
608.284,65.73473,-3.30876,0.08420451,0.73995
608.984,65.80501,-3.31008,0.08375763,0.73933
609.684,65.8749,-3.31008,0.08549594,0.7387
610.384,65.94521,-3.31008,0.08754855,0.73808
611.084,66.01544,-3.31008,0.08716396,0.73745
611.784,66.08585,-3.31007,0.08656106,0.73682
612.484,66.1562,-3.30942,0.08569274,0.7362
613.184,66.22667,-3.30942,0.08894936,0.73557
613.884,66.29698,-3.30942,0.08649724,0.73494
614.584,66.36715,-3.31058,0.0881225,0.73431
615.284,66.4372,-3.31073,0.08976246,0.73369
615.984,66.50713,-3.31079,0.09211407,0.73306
616.684,66.57721,-3.31008,0.09179012,0.73243
617.384,66.64693,-3.31008,0.0922687,0.7318
618.084,66.7169,-3.30921,0.09197377,0.73117
618.784,66.7867,-3.30941,0.09449524,0.73054
619.484,66.857,-3.31136,0.09660711,0.72991
620.184,66.92695,-3.31095,0.09685847,0.72928
620.884,66.99722,-3.31104,0.09727216,0.72865
621.584,67.06727,-3.31107,0.09930824,0.72801
622.284,67.13746,-3.31139,0.09980865,0.72738
622.984,67.20745,-3.31292,0.09729809,0.72675
623.684,67.27764,-3.31272,0.0977311,0.72612
624.384,67.34761,-3.31358,0.09390995,0.72548
625.084,67.4177,-3.3137,0.09495166,0.72485
625.784,67.4877,-3.3137,0.09102779,0.72422
626.484,67.55774,-3.3114,0.09413132,0.72358
627.184,67.6277,-3.31162,0.09472411,0.72295
627.884,67.6978,-3.31271,0.0913905,0.72231
628.584,67.76801,-3.31369,0.09181887,0.72168
629.284,67.83824,-3.31436,0.09037799,0.72104
629.984,67.90825,-3.31436,0.0878182,0.72041
630.684,67.9782,-3.31304,0.08857064,0.71977
631.384,68.0481,-3.31371,0.08960227,0.71913
632.084,68.1182,-3.3137,0.09217505,0.7185
632.784,68.1884,-3.31436,0.09230649,0.71786
633.484,68.25864,-3.31304,0.09504615,0.71722
634.184,68.32888,-3.31303,0.09408229,0.71659
634.884,68.39913,-3.31436,0.0966058,0.71595
635.584,68.46944,-3.31568,0.09399486,0.71531
636.284,68.53976,-3.31568,0.09272042,0.71467
636.984,68.60999,-3.31568,0.09066393,0.71403
637.684,68.68021,-3.31466,0.09526887,0.71339
638.384,68.75049,-3.31469,0.0939116,0.71275
639.084,68.82096,-3.316,0.09445936,0.71211
639.784,68.89132,-3.316,0.09217836,0.71147
640.484,68.96177,-3.31464,0.09178782,0.71083
641.184,69.03206,-3.31471,0.09337241,0.71019
641.884,69.1023,-3.316,0.0939169,0.70955
642.584,69.17256,-3.316,0.09174625,0.70891
643.284,69.24247,-3.31732,0.09314399,0.70826
643.984,69.3125,-3.31861,0.09331807,0.70762
644.684,69.38275,-3.31853,0.09245491,0.70698
645.384,69.45334,-3.31699,0.0923626,0.70634
646.084,69.52382,-3.31701,0.09157015,0.70569
646.784,69.59407,-3.31841,0.09339575,0.70505
647.484,69.6644,-3.317,0.09340843,0.70441
648.184,69.73469,-3.31694,0.09414727,0.70376
648.884,69.80509,-3.31799,0.0941334,0.70312
649.584,69.87554,-3.31833,0.09266897,0.70247
650.284,69.94595,-3.31831,0.09418427,0.70183
650.984,70.01618,-3.31831,0.09410083,0.70118
651.684,70.08638,-3.31825,0.09567391,0.70054
652.384,70.1567,-3.3193,0.09295198,0.69989
653.084,70.2269,-3.31938,0.09244148,0.69924
653.784,70.29684,-3.31798,0.09161867,0.6986
654.484,70.3668,-3.31833,0.09300698,0.69795
655.184,70.43723,-3.31831,0.09716322,0.6973
655.884,70.50783,-3.31831,0.09309565,0.69666
656.584,70.57822,-3.31898,0.09470978,0.69601
657.284,70.64811,-3.31897,0.09422728,0.69536
657.984,70.71854,-3.31864,0.09823048,0.69471
658.684,70.78872,-3.31864,0.09912141,0.69406
659.384,70.85914,-3.3193,0.09613519,0.69342
660.084,70.9294,-3.31831,0.09734626,0.69277
660.784,71,-3.32095,0.10001,0.69212
661.484,71.07013,-3.32095,0.10013,0.69147
662.184,71.1404,-3.32095,0.0996079,0.69082
662.884,71.2106,-3.31963,0.09765203,0.69017
663.584,71.2813,-3.31963,0.0997135,0.68952
664.284,71.35174,-3.31964,0.09961047,0.68886
664.984,71.4222,-3.32094,0.09937213,0.68821
665.684,71.4923,-3.32094,0.10244,0.68756
666.384,71.56268,-3.32094,0.10352,0.68691
667.084,71.63298,-3.32094,0.10206,0.68626
667.784,71.7034,-3.32028,0.10123,0.68561
668.484,71.7737,-3.31963,0.10135,0.68495
669.184,71.84402,-3.32094,0.10166,0.6843
669.884,71.9146,-3.32095,0.10231,0.68365
670.584,71.98499,-3.32226,0.10404,0.68299
671.284,72.05534,-3.32226,0.10199,0.68234
671.984,72.1256,-3.32097,0.10501,0.68169
672.684,72.19589,-3.32097,0.10454,0.68103
673.384,72.26607,-3.32226,0.10459,0.68038
674.084,72.33632,-3.32159,0.10331,0.67972
674.784,72.40634,-3.32162,0.10396,0.67907
675.484,72.4764,-3.32256,0.1031,0.67841
676.184,72.54669,-3.32293,0.10507,0.67776
676.884,72.61718,-3.32195,0.10439,0.6771
677.584,72.68773,-3.32165,0.10784,0.67645
678.284,72.75786,-3.32248,0.10575,0.67579
678.984,72.82814,-3.32293,0.10749,0.67514
679.684,72.89869,-3.32294,0.10768,0.67448
680.384,72.96948,-3.32425,0.10462,0.67382
681.084,73.0401,-3.32294,0.105,0.67316
681.784,73.11057,-3.32293,0.10557,0.67251
682.484,73.1807,-3.32293,0.10519,0.67185
683.184,73.25102,-3.32424,0.1047,0.67119
683.884,73.32144,-3.32424,0.10848,0.67053
684.584,73.39217,-3.32424,0.10527,0.66988
685.284,73.46266,-3.32292,0.10677,0.66922
685.984,73.5329,-3.32421,0.1068,0.66856
686.684,73.60291,-3.32424,0.10396,0.6679
687.384,73.67302,-3.32415,0.10712,0.66724
688.084,73.74345,-3.32358,0.10323,0.66658
688.784,73.8141,-3.32289,0.10508,0.66592
689.484,73.88463,-3.32289,0.1055,0.66526
690.184,73.9552,-3.32391,0.10623,0.6646
690.884,74.0257,-3.32391,0.10815,0.66394
691.584,74.09634,-3.32561,0.10936,0.66328
692.284,74.16694,-3.32622,0.10578,0.66262
692.984,74.23759,-3.3249,0.1054,0.66196
693.684,74.30838,-3.3249,0.10469,0.6613
694.384,74.37895,-3.3236,0.10148,0.66063
695.084,74.4495,-3.32326,0.10159,0.65997
695.784,74.51992,-3.3233,0.10028,0.65931
696.484,74.59048,-3.32396,0.10185,0.65865
697.184,74.66088,-3.32522,0.10158,0.65799
697.884,74.73138,-3.32522,0.10011,0.65732
698.584,74.80187,-3.32507,0.09883942,0.65666
699.284,74.87228,-3.32532,0.09842333,0.656
699.984,74.9428,-3.32523,0.09772076,0.65533
700.684,75.01309,-3.32555,0.09727009,0.65467
701.384,75.0835,-3.32523,0.09998872,0.65401
702.084,75.15393,-3.32523,0.09817288,0.65334
702.784,75.22455,-3.32517,0.09553102,0.65268
703.484,75.29519,-3.32622,0.09464702,0.65201
704.184,75.3653,-3.32622,0.09404924,0.65135
704.884,75.43564,-3.32622,0.09317077,0.65069
705.584,75.50618,-3.32525,0.09302742,0.65002
706.284,75.577,-3.3255,0.08988579,0.64936
706.984,75.64779,-3.32687,0.09099327,0.64869
707.684,75.7184,-3.32787,0.09100903,0.64802
708.384,75.78913,-3.32787,0.09106924,0.64736
709.084,75.85931,-3.3272,0.09293948,0.64669
709.784,75.92968,-3.32786,0.09151394,0.64603
710.484,75.99995,-3.32786,0.09155523,0.64536
711.184,76.0706,-3.32786,0.08952159,0.64469
711.884,76.1409,-3.32773,0.08517926,0.64403
712.584,76.21154,-3.32655,0.08923235,0.64336
713.284,76.28211,-3.32729,0.08705494,0.64269
713.984,76.35268,-3.32654,0.08589574,0.64203
714.684,76.42309,-3.32796,0.08388193,0.64136
715.384,76.4934,-3.32786,0.08477358,0.64069
716.084,76.56392,-3.32785,0.08659037,0.64002
716.784,76.63463,-3.32918,0.092949,0.63936
717.484,76.70527,-3.32918,0.08979263,0.63869
718.184,76.77606,-3.32915,0.0928018,0.63802
718.884,76.84665,-3.32787,0.09181242,0.63735
719.584,76.91741,-3.32787,0.09385101,0.63668
720.284,76.98781,-3.32787,0.09391703,0.63601
720.984,77.05838,-3.32787,0.09044201,0.63535
721.684,77.12911,-3.32787,0.09107348,0.63468
722.384,77.1999,-3.32919,0.09070599,0.63401
723.084,77.27085,-3.32919,0.08865255,0.63334
723.784,77.3412,-3.32919,0.09215937,0.63267
724.484,77.41216,-3.32919,0.09058761,0.632
725.184,77.4829,-3.33016,0.09166057,0.63133
725.884,77.55413,-3.33017,0.0980552,0.63066
726.584,77.62495,-3.33017,0.09246845,0.62999
727.284,77.6959,-3.32918,0.09379125,0.62932
727.984,77.7668,-3.32918,0.09576263,0.62865
728.684,77.83754,-3.32911,0.09471023,0.62798
729.384,77.90835,-3.3305,0.09180209,0.62731
730.084,77.97925,-3.3305,0.09130938,0.62664
730.784,78.0501,-3.3305,0.0902247,0.62597
731.484,78.12092,-3.3305,0.09050096,0.62529
732.184,78.19155,-3.3305,0.08896257,0.62462
732.884,78.26239,-3.33181,0.08892094,0.62395
733.584,78.33329,-3.33126,0.08258896,0.62328
734.284,78.40433,-3.33182,0.08385899,0.62261
734.984,78.47534,-3.33052,0.08465475,0.62194
735.684,78.54615,-3.33187,0.08154716,0.62126
736.384,78.6168,-3.3305,0.07720801,0.62059
737.084,78.6874,-3.33182,0.07777704,0.61992
737.784,78.7583,-3.33083,0.07446058,0.61925
738.484,78.8292,-3.33083,0.07475054,0.61857
739.184,78.90024,-3.3305,0.07336176,0.6179
739.884,78.97106,-3.3305,0.070816,0.61723
740.584,79.04173,-3.33165,0.06920398,0.61656
741.284,79.11232,-3.33181,0.07038709,0.61588
741.984,79.18284,-3.33312,0.06963303,0.61521
742.684,79.25328,-3.33138,0.06829445,0.61454
743.384,79.32386,-3.33083,0.06550846,0.61386
744.084,79.39461,-3.33214,0.06291057,0.61319
744.784,79.46557,-3.33214,0.06327655,0.61252
745.484,79.53644,-3.33286,0.06136071,0.61184
746.184,79.6073,-3.33345,0.05957925,0.61117
746.884,79.6781,-3.33314,0.06137263,0.61049
747.584,79.74884,-3.33315,0.05966573,0.60982
748.284,79.8195,-3.33114,0.05877502,0.60915
748.984,79.8901,-3.33116,0.05628681,0.60847
749.684,79.96073,-3.33116,0.05411595,0.6078
749.984,79.99056,-3.33255,0.05478938,0.60751