File: 01_Data/Ext_Plywood/STA/N2/30K_min/Ext_Plywood_STA_N2_30KData_22253_R1.csv
##Temp./°C,Time/min,Mass loss(subtr.2)/mg,DSC(subtr.2)/(mW/mg),Integral(DSC (subtr.2), 2, 175.8..427.3°C)/%,DTG(subtr.2)/(mg/min),Sensit./(uV/mW)
48.751,10.01,0.00559,0.01328796,            ,0.0,1.08893,,
49.851,10.62991,0.00581259,0.09065019,            ,0.00663948,1.088,,
50.951,10.77704,0.00639268,0.14858,            ,-0.007053286,1.08707,,
52.051,10.88441,0.004604003,0.19953,            ,-0.01739556,1.08615,,
53.151,10.9735,0.00545477,0.2452,            ,0.007521806,1.08523,,
54.251,11.05144,0.00725853,0.28637,            ,0.01289319,1.08431,,
55.351,11.12105,0.006244908,0.32406,            ,0.0002491548,1.08339,,
56.451,11.18559,0.006776924,0.36248,            ,-0.009696084,1.08247,,
57.551,11.246,0.006551566,0.39343,            ,0.00605047,1.08156,,
58.651,11.30325,0.00673771,0.42553,            ,-0.01605606,1.08065,,
59.751,11.35774,0.00589609,0.45577,            ,0.008953441,1.07974,,
60.851,11.40992,0.007458338,0.48193,            ,0.00343279,1.07883,,
61.951,11.4605,0.00581311,0.51035,            ,0.002299433,1.07793,,
63.051,11.50965,0.00743987,0.53452,            ,0.01745417,1.07702,,
64.151,11.55746,0.007686411,0.56045,            ,-0.00186985,1.07612,,
65.251,11.60401,0.007035099,0.5855,            ,-0.02183982,1.07522,,
66.351,11.64971,0.00602471,0.60627,            ,-0.01094314,1.07433,,
67.451,11.69403,0.00576739,0.62858,            ,-0.008614782,1.07343,,
68.551,11.73793,0.005443093,0.64853,            ,-0.00338719,1.07254,,
69.651,11.7816,0.0048893,0.66819,            ,-0.01073963,1.07165,,
70.751,11.82455,0.005228637,0.68802,            ,0.004289768,1.07076,,
71.851,11.86704,0.004778221,0.70769,            ,-0.006956227,1.06987,,
72.951,11.90894,0.00501357,0.72741,            ,6.702418e-05,1.06899,,
74.051,11.95025,0.00471186,0.74381,            ,-0.00178127,1.06811,,
75.151,11.99114,0.005216285,0.76222,            ,0.008211444,1.06723,,
76.251,12.032,0.004807858,0.78001,            ,-0.009764455,1.06635,,
77.351,12.0723,0.004415798,0.79669,            ,-0.003863437,1.06547,,
78.451,12.11192,0.004783763,0.81343,            ,-0.01407405,1.0646,,
79.551,12.15204,0.003761229,0.83194,            ,-0.02307101,1.06372,,
80.651,12.1922,0.002918081,0.8487,            ,-0.02171355,1.06285,,
81.751,12.23162,0.00275918,0.86252,            ,0.007220887,1.06199,,
82.851,12.2708,0.00265649,0.88056,            ,-0.01314235,1.06112,,
83.951,12.30967,0.001427175,0.89478,            ,-0.01678987,1.06026,,
85.051,12.34843,0.000445085,0.90705,            ,-0.001782996,1.0594,,
86.151,12.387,0.00179611,0.92213,            ,-0.007405278,1.05854,,
87.251,12.42548,0.000834468,0.93387,            ,-0.01338742,1.05768,,
88.351,12.46374,0.0001593681,0.94878,            ,-0.03000443,1.05682,,
89.451,12.50192,-0.0009995478,0.95994,            ,-0.01375749,1.05597,,
90.551,12.53998,-0.00164082,0.97152,            ,0.0008337438,1.05512,,
91.651,12.57765,-0.000892198,0.98266,            ,-0.01954373,1.05427,,
92.751,12.6153,-0.002323776,0.99447,            ,-0.0200918,1.05342,,
93.851,12.65295,-0.00300364,1.00466,            ,0.005344814,1.05258,,
94.951,12.69058,-0.002313177,1.01499,            ,-0.007294023,1.05173,,
96.051,12.72809,-0.003607557,1.02428,            ,-0.02178237,1.05089,,
97.151,12.7654,-0.00360589,1.03357,            ,0.00589436,1.05005,,
98.251,12.80264,-0.00284342,1.04061,            ,-0.0059135,1.04922,,
99.351,12.83993,-0.003618058,1.04553,            ,-0.02615309,1.04838,,
100.451,12.8772,-0.004935524,1.05078,            ,-0.0251852,1.04755,,
101.551,12.91452,-0.00629766,1.0568,            ,-0.02610514,1.04672,,
102.651,12.95157,-0.00704048,1.06089,            ,-0.02586375,1.04589,,
103.751,12.9884,-0.0075711,1.06404,            ,-0.004768051,1.04506,,
104.851,13.0254,-0.007569758,1.06657,            ,-0.000718466,1.04424,,
105.951,13.06236,-0.00754596,1.06646,            ,-0.01770898,1.04341,,
107.051,13.0993,-0.008886485,1.06648,            ,-0.01819442,1.04259,,
108.151,13.13616,-0.008782805,1.06589,            ,-0.02239615,1.04177,,
109.251,13.173,-0.01019795,1.06775,            ,-0.01644398,1.04096,,
110.351,13.20996,-0.01052659,1.06574,            ,-0.02537043,1.04014,,
111.451,13.24681,-0.01154988,1.06296,            ,-0.02243582,1.03933,,
112.551,13.2836,-0.01284569,1.0609,            ,-0.01619081,1.03852,,
113.651,13.32035,-0.01281898,1.05668,            ,0.02278471,1.03771,,
114.751,13.35706,-0.01152109,1.05302,            ,0.009448989,1.0369,,
115.851,13.3938,-0.0115201,1.04909,            ,-0.001504781,1.0361,,
116.951,13.43056,-0.01152222,1.0454,            ,-0.02122973,1.03529,,
118.051,13.4672,-0.01281528,1.04166,            ,-0.01280796,1.03449,,
119.151,13.5037,-0.01282965,1.03742,            ,-0.001089123,1.03369,,
120.251,13.5403,-0.01282741,1.03277,            ,-0.0309102,1.0329,,
121.351,13.5766,-0.01557227,1.02987,            ,-0.0387583,1.0321,,
122.451,13.6129,-0.01547183,1.02597,            ,-0.004690581,1.03131,,
123.551,13.64916,-0.01542904,1.02066,            ,-0.02308782,1.03052,,
124.651,13.68539,-0.01678214,1.02122,            ,-0.003826095,1.02973,,
125.751,13.72161,-0.01598595,1.01483,            ,0.0246292,1.02894,,
126.851,13.7577,-0.01545829,1.01148,            ,0.005075279,1.02816,,
127.951,13.79374,-0.01545615,1.01025,            ,-0.004088796,1.02737,,
129.051,13.82971,-0.01610731,1.00635,            ,-0.01538074,1.02659,,
130.151,13.8656,-0.01649708,1.00723,            ,-0.01451926,1.02581,,
131.251,13.9015,-0.01677937,1.00355,            ,-0.004310435,1.02504,,
132.351,13.9373,-0.01673113,1.00561,            ,-0.02103566,1.02426,,
133.451,13.97306,-0.01808779,1.00357,            ,-0.02353358,1.02349,,
134.551,14.00866,-0.01932746,1.00525,            ,-0.0243909,1.02271,,
135.651,14.0443,-0.01941815,1.00512,            ,-0.003361913,1.02194,,
136.751,14.08,-0.01942,1.00382,            ,0.001802,1.02118,,
137.851,14.1156,-0.01951501,1.00744,            ,0.02153629,1.02041,,
138.951,14.15102,-0.01810095,1.00982,            ,0.01360899,1.01965,,
140.051,14.1863,-0.01809994,1.01198,            ,-0.000202121,1.01888,,
141.151,14.2217,-0.01809764,1.01283,            ,-0.01545625,1.01812,,
142.251,14.2569,-0.01947039,1.01625,            ,-0.01991501,1.01737,,
143.351,14.2921,-0.01941048,1.02033,            ,-0.001190921,1.01661,,
144.451,14.32739,-0.01940122,1.02448,            ,0.004426649,1.01586,,
145.551,14.36253,-0.01909346,1.02708,            ,0.0009250002,1.0151,,
146.651,14.3976,-0.01942646,1.03175,            ,-0.005142712,1.01435,,
147.751,14.4328,-0.01941021,1.03408,            ,-0.0004423785,1.0136,,
148.851,14.4678,-0.01940685,1.04043,            ,-0.007927034,1.01286,,
149.951,14.50273,-0.02029479,1.04544,            ,-0.02460958,1.01211,,
151.051,14.53764,-0.02073174,1.04915,            ,-0.005119214,1.01137,,
152.151,14.5725,-0.02073002,1.05214,            ,-2.812763e-06,1.01063,,
153.251,14.6073,-0.02073,1.05527,            ,-4.725447e-08,1.00989,,
154.351,14.6418,-0.02073,1.06398,            ,-2.995069e-09,1.00915,,
155.451,14.67646,-0.02073,1.06777,            ,-1.74452e-06,1.00841,,
156.551,14.7113,-0.0207299,1.07277,            ,-0.0035689,1.00768,,
157.651,14.74637,-0.02083393,1.07695,            ,-0.02378706,1.00694,,
158.751,14.7811,-0.02204369,1.08245,            ,-0.01010726,1.00621,,
159.851,14.81577,-0.02203989,1.08815,            ,-0.0001129676,1.00548,,
160.951,14.8504,-0.02204,1.0948,            ,-3.50705e-08,1.00476,,
162.051,14.88504,-0.02204,1.10133,            ,2.87506e-09,1.00403,,
163.151,14.91964,-0.02204,1.10277,            ,-3.597696e-12,1.00331,,
164.251,14.95415,-0.02204,1.11181,            ,-2.474858e-11,1.00259,,
165.351,14.9886,-0.02204,1.11757,            ,1.007684e-09,1.00187,,
166.451,15.0231,-0.02204,1.12215,            ,-6.131417e-08,1.00115,,
167.551,15.05765,-0.02204012,1.12956,            ,-0.002475678,1.00043,,
168.651,15.0922,-0.02205485,1.13283,            ,-0.02227522,0.99972,,
169.751,15.1267,-0.02334284,1.14128,            ,-0.0132645,0.999,,
170.851,15.161,-0.02336165,1.14539,            ,-0.00365291,0.99829,,
171.951,15.1955,-0.02372087,1.15113,            ,-0.006013204,0.99758,,
173.051,15.22984,-0.0236906,1.15926,            ,-0.008610204,0.99688,,
174.151,15.2643,-0.02437373,1.16364,0.000000e+00,-0.01213437,0.99617,,
175.251,15.29856,-0.02464288,1.17015,0.000000e+00,-0.007111779,0.99546,,
176.351,15.33284,-0.02467934,1.17663,8.295369e-04,-0.001168658,0.99476,,
177.451,15.36695,-0.02468001,1.18169,9.469838e-03,1.640274e-06,0.99406,,
178.551,15.4011,-0.02468,1.18658,2.681317e-02,8.330502e-09,0.99336,,
179.651,15.4352,-0.02468,1.19376,5.405489e-02,2.11412e-08,0.99266,,
180.751,15.4693,-0.02468,1.1979,8.933086e-02,-4.247518e-07,0.99197,,
181.851,15.50329,-0.02468067,1.20571,     0.13353,-0.002055022,0.99127,,
182.951,15.5373,-0.02463144,1.20947,     0.18714,-0.02095109,0.99058,,
184.051,15.5714,-0.02599136,1.21536,     0.25020,-0.01680907,0.98989,,
185.151,15.60544,-0.02595085,1.22061,     0.32141,-0.02071012,0.9892,,
186.251,15.63931,-0.02731786,1.22542,     0.40087,-0.02741606,0.98851,,
187.351,15.67315,-0.02836073,1.22971,     0.48934,-0.01716225,0.98783,,
188.451,15.70686,-0.02829925,1.23689,     0.58644,-0.001795909,0.98714,,
189.551,15.74061,-0.0283,1.24163,     0.69187,-1.048502e-05,0.98646,,
190.651,15.77418,-0.02829959,1.24807,     0.80571,-0.004737816,0.98578,,
191.751,15.808,-0.02848831,1.25251,     0.92988,-0.02442863,0.9851,,
192.851,15.84186,-0.02962511,1.2601,     1.06221,-0.01343704,0.98442,,
193.951,15.8757,-0.0297079,1.2646,     1.20394,-0.02368702,0.98374,,
195.051,15.90935,-0.03092708,1.27039,     1.35381,-0.01123552,0.98307,,
196.151,15.943,-0.03093097,1.27227,     1.51098,-0.0028407,0.9824,,
197.251,15.9766,-0.03083587,1.28055,     1.67610,-0.02446331,0.98172,,
198.351,16.01034,-0.03235667,1.28297,     1.85087,-0.03519209,0.98105,,
199.451,16.04397,-0.03408906,1.28532,     2.03136,-0.02931723,0.98039,,
200.551,16.07763,-0.03391565,1.2909,     2.21994,-0.02739186,0.97972,,
201.651,16.1112,-0.03536787,1.29623,     2.41606,-0.02645553,0.97905,,
202.751,16.14481,-0.03599863,1.3005,     2.62021,-0.01932198,0.97839,,
203.851,16.17833,-0.03727982,1.30432,     2.83185,-0.02350605,0.97773,,
204.951,16.2119,-0.03725419,1.30592,     3.05062,-0.02213879,0.97707,,
206.051,16.24535,-0.03861758,1.30874,     3.27368,-0.028698,0.97641,,
207.151,16.27899,-0.03985039,1.31087,     3.50563,-0.03361205,0.97575,,
208.251,16.31256,-0.04066224,1.31366,     3.74239,-0.03848274,0.97509,,
209.351,16.346,-0.04187132,1.31745,     3.98425,-0.02370373,0.97444,,
210.451,16.37947,-0.04284468,1.32149,     4.23355,-0.02794591,0.97378,,
211.551,16.41307,-0.04337536,1.3189,     4.48843,-0.01510599,0.97313,,
212.651,16.4467,-0.0432256,1.3229,     4.74839,-0.01719801,0.97248,,
213.751,16.4801,-0.04474825,1.32588,     5.01377,-0.03429768,0.97183,,
214.851,16.51353,-0.04625231,1.32446,     5.28379,-0.03765867,0.97118,,
215.951,16.547,-0.04754389,1.32767,     5.55904,-0.04148099,0.97054,,
217.051,16.58042,-0.04915693,1.326,     5.83988,-0.04689603,0.96989,,
218.151,16.61386,-0.05067543,1.32853,     6.12496,-0.04177141,0.96925,,
219.251,16.64735,-0.05194321,1.33191,     6.41662,-0.0473001,0.96861,,
220.351,16.68071,-0.05365175,1.32991,     6.71224,-0.050122,0.96797,,
221.451,16.71406,-0.05526706,1.33283,     7.01119,-0.0435215,0.96733,,
222.551,16.7474,-0.05666024,1.33298,     7.31713,-0.04697875,0.96669,,
223.651,16.7807,-0.05864988,1.33282,     7.62617,-0.05684608,0.96605,,
224.751,16.81406,-0.06030234,1.33627,     7.94006,-0.05548006,0.96542,,
225.851,16.84732,-0.06209094,1.33587,     8.25902,-0.06415008,0.96478,,
226.951,16.88071,-0.06376497,1.33774,     8.58422,-0.06018257,0.96415,,
228.051,16.91404,-0.06581825,1.33863,     8.91459,-0.05685076,0.96352,,
229.151,16.94738,-0.0683591,1.34047,     9.25058,-0.0611298,0.96289,,
230.251,16.98066,-0.07021291,1.34387,     9.59114,-0.05999398,0.96226,,
231.351,17.01399,-0.07194229,1.34509,     9.93883,-0.07293253,0.96164,,
232.451,17.0472,-0.07510103,1.3476,    10.29017,-0.07450449,0.96101,,
233.551,17.08054,-0.07723982,1.34824,    10.64789,-0.07773061,0.96039,,
234.651,17.1139,-0.07995093,1.35024,    11.01134,-0.07860759,0.95976,,
235.751,17.14719,-0.08252496,1.35248,    11.38083,-0.06375209,0.95914,,
236.851,17.18048,-0.08383289,1.35734,    11.75692,-0.06758779,0.95852,,
237.951,17.21369,-0.08689576,1.36042,    12.13878,-0.07987968,0.9579,,
239.051,17.24689,-0.08950167,1.36176,    12.52779,-0.06718771,0.95728,,
240.151,17.28011,-0.09127391,1.36558,    12.92241,-0.06105982,0.95667,,
241.251,17.3134,-0.09371735,1.36739,    13.32375,-0.07477721,0.95605,,
242.351,17.34662,-0.09629977,1.36958,    13.73076,-0.08720696,0.95544,,
243.451,17.3799,-0.09948366,1.37214,    14.14479,-0.09866057,0.95482,,
244.551,17.41326,-0.10293,1.37513,    14.56532,-0.10384,0.95421,,
245.651,17.44652,-0.10624,1.37956,    14.99227,-0.09220783,0.9536,,
246.751,17.4797,-0.10944,1.38051,    15.42450,-0.08616256,0.95299,,
247.851,17.5129,-0.11185,1.38515,    15.86161,-0.11109,0.95238,,
248.951,17.5461,-0.11601,1.38724,    16.30611,-0.11325,0.95178,,
250.051,17.5794,-0.11995,1.38742,    16.75725,-0.08901384,0.95117,,
251.151,17.6126,-0.12226,1.39083,    17.21355,-0.09027257,0.95056,,
252.251,17.6458,-0.12539,1.39273,    17.67415,-0.10459,0.94996,,
253.351,17.67896,-0.12951,1.39536,    18.14203,-0.11093,0.94936,,
254.451,17.71219,-0.13265,1.39747,    18.61700,-0.10661,0.94876,,
255.551,17.74545,-0.13649,1.39694,    19.09793,-0.11957,0.94816,,
256.651,17.77867,-0.14042,1.40008,    19.58357,-0.12458,0.94756,,
257.751,17.81183,-0.14523,1.40174,    20.07307,-0.12737,0.94696,,
258.851,17.84508,-0.14889,1.40447,    20.56977,-0.13257,0.94636,,
259.951,17.87836,-0.1535,1.40517,    21.07311,-0.13106,0.94577,,
261.051,17.9116,-0.15794,1.40543,    21.58006,-0.12805,0.94517,,
262.151,17.94487,-0.16184,1.4068,    22.09214,-0.12907,0.94458,,
263.251,17.97805,-0.16667,1.40687,    22.60862,-0.12801,0.94398,,
264.351,18.0112,-0.17069,1.41097,    23.12965,-0.13416,0.94339,,
265.451,18.04438,-0.17502,1.41312,    23.65635,-0.12659,0.9428,,
266.551,18.07761,-0.17908,1.41229,    24.18938,-0.11565,0.94221,,
267.651,18.1109,-0.18316,1.41154,    24.72630,-0.13194,0.94162,,
268.751,18.14423,-0.18739,1.41298,    25.26905,-0.13603,0.94103,,
269.851,18.17744,-0.19249,1.41241,    25.81415,-0.14345,0.94045,,
270.951,18.21058,-0.19717,1.41268,    26.36236,-0.15946,0.93986,,
272.051,18.2437,-0.20255,1.41296,    26.91375,-0.15903,0.93928,,
273.151,18.27695,-0.20792,1.41271,    27.47094,-0.16242,0.93869,,
274.251,18.31002,-0.21345,1.411,    28.02892,-0.16237,0.93811,,
275.351,18.34331,-0.21824,1.41109,    28.59366,-0.17087,0.93753,,
276.451,18.3766,-0.22528,1.41212,    29.16268,-0.18292,0.93695,,
277.551,18.41003,-0.23067,1.40882,    29.73738,-0.16644,0.93637,,
278.651,18.44332,-0.2358,1.40894,    30.31303,-0.18048,0.93579,,
279.751,18.47663,-0.24285,1.4068,    30.89181,-0.20345,0.93521,,
280.851,18.50991,-0.24985,1.40561,    31.47345,-0.21162,0.93463,,
281.951,18.54316,-0.25629,1.4038,    32.05692,-0.19348,0.93406,,
283.051,18.5764,-0.26296,1.40409,    32.64350,-0.19016,0.93348,,
284.151,18.6098,-0.26935,1.3992,    33.23369,-0.20959,0.93291,,
285.251,18.64305,-0.27619,1.3972,    33.82443,-0.21711,0.93233,,
286.351,18.6763,-0.28404,1.39499,    34.41713,-0.22239,0.93176,,
287.451,18.70952,-0.29156,1.39269,    35.01292,-0.24011,0.93119,,
288.551,18.7428,-0.29923,1.39051,    35.61147,-0.24017,0.93061,,
289.651,18.77609,-0.30751,1.388,    36.21028,-0.24571,0.93004,,
290.751,18.80935,-0.31589,1.38471,    36.81128,-0.27322,0.92947,,
291.851,18.84265,-0.32525,1.38301,    37.41516,-0.2691,0.92891,,
292.951,18.876,-0.33386,1.37801,    38.01915,-0.26316,0.92834,,
294.051,18.90921,-0.34302,1.37217,    38.62271,-0.28471,0.92777,,
295.151,18.94245,-0.35335,1.37109,    39.22797,-0.30013,0.9272,,
296.251,18.9757,-0.36328,1.36871,    39.83588,-0.31157,0.92664,,
297.351,19.00905,-0.37345,1.36315,    40.44556,-0.32847,0.92607,,
298.451,19.0424,-0.38467,1.36162,    41.05664,-0.32806,0.92551,,
299.551,19.07566,-0.39521,1.35654,    41.66915,-0.32679,0.92494,,
300.651,19.10902,-0.40676,1.35436,    42.28281,-0.35849,0.92438,,
301.751,19.14236,-0.41985,1.35287,    42.89769,-0.38014,0.92382,,
302.851,19.1756,-0.43249,1.34769,    43.51300,-0.38536,0.92326,,
303.951,19.20891,-0.44472,1.34636,    44.12963,-0.38138,0.9227,,
305.051,19.24223,-0.45712,1.34179,    44.74925,-0.39354,0.92214,,
306.151,19.27564,-0.47082,1.33886,    45.37168,-0.43436,0.92158,,
307.251,19.30894,-0.48682,1.33979,    45.99448,-0.4698,0.92102,,
308.351,19.3423,-0.50318,1.33289,    46.62045,-0.46097,0.92046,,
309.451,19.37567,-0.51782,1.33238,    47.24842,-0.41909,0.9199,,
310.551,19.40909,-0.53039,1.33072,    47.88054,-0.4431,0.91934,,
311.651,19.4424,-0.54622,1.33,    48.51344,-0.49139,0.91879,,
312.751,19.4758,-0.56295,1.32786,    49.15104,-0.50125,0.91823,,
313.851,19.50921,-0.58013,1.32923,    49.79155,-0.51252,0.91768,,
314.951,19.54263,-0.59844,1.32971,    50.43705,-0.52394,0.91712,,
316.051,19.5761,-0.61567,1.32907,    51.08636,-0.5265,0.91657,,
317.151,19.60942,-0.63263,1.33089,    51.74019,-0.54852,0.91601,,
318.251,19.64278,-0.65114,1.33028,    52.39973,-0.57426,0.91546,,
319.351,19.67626,-0.67074,1.33304,    53.06572,-0.57392,0.91491,,
320.451,19.7097,-0.69011,1.33646,    53.73701,-0.58373,0.91436,,
321.551,19.74314,-0.71112,1.33452,    54.41371,-0.59929,0.91381,,
322.651,19.77655,-0.73087,1.33977,    55.09616,-0.59897,0.91325,,
323.751,19.81005,-0.75006,1.34407,    55.78640,-0.62326,0.9127,,
324.851,19.8435,-0.77121,1.34497,    56.48323,-0.64109,0.91215,,
325.951,19.87704,-0.7929,1.34909,    57.18691,-0.65459,0.9116,,
327.051,19.91058,-0.81563,1.34802,    57.89692,-0.67065,0.91106,,
328.151,19.944,-0.83909,1.35376,    58.61192,-0.68951,0.91051,,
329.251,19.97754,-0.86291,1.35639,    59.33460,-0.70671,0.90996,,
330.351,20.01108,-0.88553,1.35987,    60.06476,-0.69941,0.90941,,
331.451,20.0447,-0.90829,1.36188,    60.80380,-0.70399,0.90886,,
332.551,20.07822,-0.93227,1.3646,    61.54494,-0.72763,0.90832,,
333.651,20.11178,-0.95727,1.36525,    62.29334,-0.76883,0.90777,,
334.751,20.1453,-0.98499,1.36894,    63.04747,-0.78217,0.90723,,
335.851,20.1789,-1.01171,1.36963,    63.80893,-0.78055,0.90668,,
336.951,20.21257,-1.03687,1.37103,    64.57739,-0.78088,0.90613,,
338.051,20.24624,-1.06248,1.37044,    65.35042,-0.80359,0.90559,,
339.151,20.27984,-1.09015,1.37367,    66.12667,-0.82148,0.90505,,
340.251,20.31345,-1.11778,1.3737,    66.90873,-0.82775,0.9045,,
341.351,20.34711,-1.14693,1.37105,    67.69598,-0.84494,0.90396,,
342.451,20.38073,-1.17644,1.37336,    68.48651,-0.85556,0.90341,,
343.551,20.41433,-1.20461,1.37204,    69.28056,-0.8744,0.90287,,
344.651,20.44804,-1.23341,1.37162,    70.08094,-0.90163,0.90233,,
345.751,20.48169,-1.26434,1.37273,    70.88440,-0.9185,0.90178,,
346.851,20.51536,-1.29496,1.37135,    71.69202,-0.93114,0.90124,,
347.951,20.54896,-1.32751,1.36771,    72.49955,-0.93571,0.9007,,
349.051,20.5827,-1.35991,1.36562,    73.31220,-0.92922,0.90016,,
350.151,20.61649,-1.39135,1.36677,    74.12913,-0.95626,0.89962,,
351.251,20.6502,-1.42296,1.35752,    74.94495,-0.96098,0.89908,,
352.351,20.68378,-1.45422,1.35611,    75.75789,-0.97241,0.89853,,
353.451,20.7176,-1.48772,1.35092,    76.57717,-0.98844,0.89799,,
354.551,20.75137,-1.52148,1.34641,    77.39530,-1.00667,0.89745,,
355.651,20.78503,-1.55783,1.33815,    78.20988,-1.04518,0.89691,,
356.751,20.81874,-1.59374,1.33096,    79.02388,-1.03654,0.89637,,
357.851,20.85256,-1.62666,1.31958,    79.83663,-1.00783,0.89583,,
358.951,20.88638,-1.65967,1.3104,    80.64619,-1.02147,0.89529,,
360.051,20.92015,-1.69459,1.29807,    81.44898,-1.03741,0.89475,,
361.151,20.95395,-1.73004,1.28379,    82.24647,-1.02661,0.89421,,
362.251,20.9878,-1.76517,1.27165,    83.03787,-1.03976,0.89367,,
363.351,21.0218,-1.80316,1.25413,    83.82412,-1.0736,0.89313,,
364.451,21.05575,-1.83861,1.23648,    84.59819,-1.03819,0.89259,,
365.551,21.0897,-1.8714,1.21569,    85.35995,-1.01187,0.89206,,
366.651,21.1235,-1.90521,1.19427,    86.10616,-1.01314,0.89152,,
367.751,21.15729,-1.93956,1.17227,    86.83898,-0.99992,0.89098,,
368.851,21.19131,-1.97367,1.14519,    87.55883,-0.98121,0.89044,,
369.951,21.22522,-2.00802,1.11936,    88.25869,-0.97413,0.8899,,
371.051,21.25904,-2.04139,1.09017,    88.93738,-0.95989,0.88936,,
372.151,21.29287,-2.07225,1.06225,    89.59551,-0.93471,0.88882,,
373.251,21.32689,-2.10265,1.02968,    90.23608,-0.93311,0.88828,,
374.351,21.36085,-2.13457,0.99957,    90.85393,-0.90677,0.88774,,
375.451,21.3948,-2.16444,0.96367,    91.44781,-0.84706,0.88721,,
376.551,21.4288,-2.19319,0.92888,    92.01614,-0.79546,0.88667,,
377.651,21.46281,-2.22044,0.89374,    92.56051,-0.79095,0.88613,,
378.751,21.49682,-2.24732,0.8583,    93.07893,-0.77329,0.88559,,
379.851,21.5307,-2.27213,0.82288,    93.57027,-0.7319,0.88505,,
380.951,21.56462,-2.2952,0.78845,    94.03569,-0.69486,0.88451,,
382.051,21.59856,-2.31859,0.75363,    94.47644,-0.66541,0.88397,,
383.151,21.63259,-2.34092,0.71948,    94.89374,-0.63428,0.88343,,
384.251,21.66659,-2.36273,0.68508,    95.28682,-0.58489,0.8829,,
385.351,21.70056,-2.3818,0.65504,    95.65506,-0.53874,0.88236,,
386.451,21.73453,-2.39927,0.62228,    95.99986,-0.52229,0.88182,,
387.551,21.7686,-2.41616,0.59134,    96.32350,-0.4848,0.88128,,
388.651,21.80273,-2.43161,0.55824,    96.62571,-0.44355,0.88074,,
389.751,21.83677,-2.44642,0.52896,    96.90548,-0.42364,0.8802,,
390.851,21.8708,-2.46076,0.50252,    97.16648,-0.40186,0.87966,,
391.951,21.90495,-2.47456,0.47414,    97.40888,-0.36822,0.87912,,
393.051,21.93905,-2.48637,0.44977,    97.63202,-0.32139,0.87858,,
394.151,21.97305,-2.49631,0.42647,    97.83875,-0.2782,0.87804,,
395.251,22.00721,-2.50495,0.40543,    98.03128,-0.27637,0.8775,,
396.351,22.04131,-2.51434,0.3829,    98.21093,-0.26343,0.87696,,
397.451,22.07542,-2.52311,0.36221,    98.37689,-0.2537,0.87642,,
398.551,22.1095,-2.53177,0.34337,    98.52915,-0.24775,0.87588,,
399.651,22.1437,-2.53952,0.32601,    98.67133,-0.21463,0.87534,,
400.751,22.17793,-2.54736,0.31133,    98.80314,-0.2001,0.8748,,
401.851,22.2121,-2.55343,0.29377,    98.92585,-0.17145,0.87426,,
402.951,22.24634,-2.55856,0.28153,    99.03964,-0.1668,0.87371,,
404.051,22.28056,-2.56533,0.26457,    99.14526,-0.15782,0.87317,,
405.151,22.31478,-2.56942,0.25088,    99.24222,-0.13671,0.87263,,
406.251,22.34896,-2.57404,0.23685,    99.33172,-0.1372,0.87209,,
407.351,22.3832,-2.57929,0.22282,    99.41431,-0.13761,0.87154,,
408.451,22.41751,-2.58342,0.2125,    99.48985,-0.13621,0.871,,
409.551,22.45186,-2.58825,0.1992,    99.56029,-0.13394,0.87046,,
410.651,22.48616,-2.59264,0.18588,    99.62384,-0.12082,0.86991,,
411.751,22.52048,-2.59698,0.17358,    99.68223,-0.11054,0.86937,,
412.851,22.55476,-2.60038,0.16379,    99.73344,-0.11538,0.86883,,
413.951,22.58896,-2.60406,0.15328,    99.78021,-0.11884,0.86828,,
415.051,22.6233,-2.60876,0.13889,    99.82133,-0.12105,0.86774,,
416.151,22.65754,-2.61291,0.12861,    99.85739,-0.12501,0.86719,,
417.251,22.69199,-2.6172,0.11709,    99.88757,-0.1262,0.86665,,
418.351,22.72648,-2.62145,0.10642,    99.91362,-0.12227,0.8661,,
419.451,22.76089,-2.62576,0.09956466,    99.93486,-0.12334,0.86555,,
420.551,22.79533,-2.6298,0.08635855,    99.95190,-0.10757,0.86501,,
421.651,22.8296,-2.63275,0.077698,    99.96561,-0.11012,0.86446,,
422.751,22.86394,-2.63753,0.06963733,    99.97635,-0.12918,0.86391,,
423.851,22.89834,-2.64225,0.06069918,    99.98388,-0.12933,0.86336,,
424.951,22.93285,-2.64602,0.0573841,    99.99099,-0.12018,0.86282,,
426.051,22.96734,-2.65011,0.0473426,    99.99657,-0.1083,0.86227,,
427.151,23.00177,-2.65399,0.04274653,    99.99951,-0.10708,0.86172,,
428.251,23.03623,-2.65781,0.03676672,   100,-0.1101,0.86117,,
429.351,23.07069,-2.66098,0.03090635,   100,-0.11611,0.86062,,
430.451,23.10511,-2.66579,0.02544529,            ,-0.13097,0.86007,,
431.551,23.13962,-2.67025,0.02385083,            ,-0.12214,0.85952,,
432.651,23.1741,-2.67411,0.01983337,            ,-0.10526,0.85896,,
433.751,23.2087,-2.67773,0.02029768,            ,-0.10554,0.85841,,
434.851,23.24321,-2.68136,0.01598341,            ,-0.07588951,0.85786,,
435.951,23.2777,-2.68295,0.01515667,            ,-0.0755116,0.85731,,
437.051,23.3123,-2.68631,0.01257196,            ,-0.09332346,0.85675,,
438.151,23.34686,-2.68985,0.01697935,            ,-0.12641,0.8562,,
439.251,23.38145,-2.69442,0.01769742,            ,-0.12559,0.85564,,
440.351,23.4161,-2.69876,0.01939581,            ,-0.11031,0.85509,,
441.451,23.45064,-2.7024,0.02224519,            ,-0.09783735,0.85453,,
442.551,23.48532,-2.70531,0.02328245,            ,-0.09245943,0.85397,,
443.651,23.51999,-2.7087,0.02554149,            ,-0.09921864,0.85342,,
444.751,23.55463,-2.71232,0.02676331,            ,-0.09961167,0.85286,,
445.851,23.58929,-2.71554,0.02859225,            ,-0.09092534,0.8523,,
446.951,23.624,-2.71886,0.03651688,            ,-0.09195054,0.85174,,
448.051,23.65867,-2.72225,0.03826013,            ,-0.0963468,0.85118,,
449.151,23.6934,-2.72525,0.04447901,            ,-0.09673409,0.85062,,
450.251,23.72815,-2.72911,0.0495922,            ,-0.11405,0.85006,,
451.351,23.76289,-2.73306,0.0560942,            ,-0.10209,0.8495,,
452.451,23.7976,-2.73597,0.06329338,            ,-0.07681195,0.84894,,
453.551,23.8323,-2.73821,0.06895883,            ,-0.08290614,0.84837,,
454.651,23.8671,-2.74199,0.07863558,            ,-0.09277323,0.84781,,
455.751,23.90186,-2.74468,0.08385123,            ,-0.08208443,0.84725,,
456.851,23.9367,-2.7477,0.08874097,            ,-0.07452907,0.84668,,
457.951,23.9715,-2.74973,0.0971049,            ,-0.08321952,0.84612,,
459.051,24.00628,-2.75316,0.10491,            ,-0.0981786,0.84555,,
460.151,24.04111,-2.75665,0.11316,            ,-0.08644569,0.84498,,
461.251,24.07594,-2.75936,0.11895,            ,-0.08085901,0.84442,,
462.351,24.11083,-2.76263,0.12628,            ,-0.08193082,0.84385,,
463.451,24.1457,-2.76494,0.13496,            ,-0.06975921,0.84328,,
464.551,24.1806,-2.76711,0.13998,            ,-0.06740885,0.84271,,
465.651,24.2155,-2.76974,0.14818,            ,-0.08285928,0.84214,,
466.751,24.25046,-2.77313,0.15685,            ,-0.08577564,0.84157,,
467.851,24.2854,-2.776,0.16042,            ,-0.08527361,0.84099,,
468.951,24.32035,-2.77882,0.17023,            ,-0.06924115,0.84042,,
470.051,24.35529,-2.78084,0.17426,            ,-0.0721532,0.83985,,
471.151,24.39034,-2.78376,0.18111,            ,-0.07416393,0.83927,,
472.251,24.42525,-2.78644,0.18773,            ,-0.08040573,0.8387,,
473.351,24.46022,-2.78933,0.19534,            ,-0.03959669,0.83812,,
474.451,24.49524,-2.78937,0.20063,            ,-0.02234635,0.83754,,
475.551,24.53025,-2.79108,0.20551,            ,-0.06393658,0.83696,,
476.651,24.5652,-2.79357,0.21311,            ,-0.09165339,0.83639,,
477.751,24.6002,-2.79691,0.21607,            ,-0.06726262,0.83581,,
478.851,24.63521,-2.7988,0.22313,            ,-0.06274064,0.83523,,
479.951,24.6702,-2.80097,0.22626,            ,-0.07551706,0.83464,,
481.051,24.7053,-2.80407,0.22879,            ,-0.07774043,0.83406,,
482.151,24.74035,-2.80646,0.23341,            ,-0.0679712,0.83348,,
483.251,24.7755,-2.80889,0.23799,            ,-0.05922168,0.83289,,
484.351,24.81054,-2.81094,0.2424,            ,-0.06121807,0.83231,,
485.451,24.8456,-2.81249,0.24596,            ,-0.04384147,0.83172,,
486.551,24.88044,-2.81336,0.25243,            ,-0.03548008,0.83114,,
487.651,24.9154,-2.81542,0.25488,            ,-0.04981477,0.83055,,
488.751,24.95058,-2.81756,0.25674,            ,-0.05619382,0.82996,,
489.851,24.986,-2.81953,0.26184,            ,-0.0563575,0.82937,,
490.951,25.0212,-2.82105,0.26469,            ,-0.06236974,0.82878,,
492.051,25.05639,-2.82384,0.26783,            ,-0.08745088,0.82819,,
493.151,25.09155,-2.82722,0.27224,            ,-0.07407699,0.8276,,
494.251,25.12677,-2.82907,0.27208,            ,-0.04729273,0.827,,
495.351,25.16188,-2.83055,0.27627,            ,-0.04742887,0.82641,,
496.451,25.19708,-2.83279,0.27987,            ,-0.04334991,0.82581,,
497.551,25.23226,-2.83366,0.28091,            ,-0.04184751,0.82522,,
498.651,25.26751,-2.83552,0.28395,            ,-0.05438716,0.82462,,
499.751,25.30282,-2.838,0.2856,            ,-0.05384257,0.82402,,
500.851,25.33815,-2.83952,0.29003,            ,-0.03845867,0.82342,,
501.951,25.37341,-2.84075,0.28812,            ,-0.03936962,0.82282,,
503.051,25.4087,-2.84233,0.29161,            ,-0.0408904,0.82222,,
504.151,25.4439,-2.84363,0.29273,            ,-0.04141108,0.82162,,
505.251,25.47917,-2.84522,0.29509,            ,-0.0537999,0.82101,,
506.351,25.51452,-2.84682,0.29398,            ,-0.05795296,0.82041,,
507.451,25.54985,-2.84854,0.29478,            ,-0.04166769,0.8198,,
508.551,25.5852,-2.84991,0.30025,            ,-0.04246066,0.8192,,
509.651,25.62053,-2.85186,0.30075,            ,-0.06399489,0.81859,,
510.751,25.65588,-2.8541,0.30174,            ,-0.04968515,0.81798,,
511.851,25.69122,-2.8556,0.30187,            ,-0.04620293,0.81737,,
512.951,25.72649,-2.85698,0.3031,            ,-0.04267594,0.81676,,
514.051,25.76173,-2.85879,0.30344,            ,-0.02851099,0.81615,,
515.151,25.7971,-2.85942,0.30563,            ,-0.02757426,0.81554,,
516.251,25.83259,-2.86075,0.30377,            ,-0.03810517,0.81492,,
517.351,25.86807,-2.86228,0.30481,            ,-0.04024947,0.81431,,
518.451,25.90344,-2.86326,0.30791,            ,-0.06573993,0.81369,,
519.551,25.9389,-2.86674,0.30761,            ,-0.05999464,0.81307,,
520.651,25.97436,-2.8684,0.30792,            ,-0.0356551,0.81245,,
521.751,26.00979,-2.86884,0.30855,            ,-0.01949702,0.81183,,
522.851,26.04521,-2.87024,0.30928,            ,-0.03271114,0.81121,,
523.951,26.08062,-2.87162,0.3093,            ,-0.03726126,0.81059,,
525.051,26.11606,-2.87277,0.31276,            ,-0.03774731,0.80997,,
526.151,26.15146,-2.87411,0.31095,            ,-0.03900677,0.80934,,
527.251,26.18691,-2.8755,0.31186,            ,-0.03320954,0.80872,,
528.351,26.2224,-2.87594,0.31101,            ,-0.03284287,0.80809,,
529.451,26.2579,-2.87722,0.3155,            ,-0.04001877,0.80746,,
530.551,26.29342,-2.87864,0.31521,            ,-0.04870355,0.80683,,
531.651,26.32892,-2.88128,0.31762,            ,-0.06040595,0.8062,,
532.751,26.36451,-2.88267,0.31692,            ,-0.03812421,0.80557,,
533.851,26.4,-2.88409,0.31703,            ,-0.02552164,0.80494,,
534.951,26.43552,-2.88545,0.31824,            ,-0.02761705,0.8043,,
536.051,26.4711,-2.88622,0.32006,            ,-0.02988273,0.80367,,
537.151,26.50664,-2.88746,0.32154,            ,-0.02880637,0.80303,,
538.251,26.54225,-2.88765,0.32238,            ,-0.03257779,0.80239,,
539.351,26.57788,-2.88908,0.32117,            ,-0.03980322,0.80176,,
540.451,26.6135,-2.89051,0.32346,            ,-0.03141382,0.80112,,
541.551,26.6491,-2.89165,0.32414,            ,0.0135714,0.80047,,
542.651,26.68468,-2.89016,0.32811,            ,-0.00987823,0.79983,,
543.751,26.7202,-2.893,0.32665,            ,-0.09449407,0.79919,,
544.851,26.7557,-2.8961,0.32626,            ,-0.05972664,0.79854,,
545.951,26.7913,-2.89705,0.32576,            ,-0.04228689,0.7979,,
547.051,26.827,-2.89925,0.32989,            ,-0.04330868,0.79725,,
548.151,26.86265,-2.90043,0.32911,            ,-0.0311869,0.7966,,
549.251,26.8983,-2.90084,0.33361,            ,-0.03077015,0.79595,,
550.351,26.9339,-2.90231,0.32851,            ,-0.04303527,0.7953,,
551.451,26.9696,-2.90383,0.33153,            ,-0.03443476,0.79464,,
552.551,27.00524,-2.90512,0.33128,            ,-0.02095074,0.79399,,
553.651,27.04095,-2.90589,0.33323,            ,-0.03080926,0.79333,,
554.751,27.07675,-2.90712,0.33378,            ,-0.03451645,0.79268,,
555.851,27.11246,-2.90791,0.33295,            ,-0.02963535,0.79202,,
556.951,27.1482,-2.9092,0.33121,            ,-0.02175627,0.79136,,
558.051,27.18385,-2.91042,0.33123,            ,-0.02469623,0.7907,,
559.151,27.2196,-2.91053,0.33306,            ,-0.02200913,0.79004,,
560.251,27.25527,-2.91185,0.33502,            ,-0.03903302,0.78937,,
561.351,27.2911,-2.91336,0.33592,            ,-0.03739193,0.78871,,
562.451,27.32692,-2.91486,0.33774,            ,-0.03145798,0.78804,,
563.551,27.36269,-2.91597,0.33842,            ,-0.02632258,0.78737,,
564.651,27.39844,-2.91614,0.33887,            ,-0.0205668,0.78671,,
565.751,27.4343,-2.91743,0.3375,            ,-0.02579429,0.78604,,
566.851,27.47012,-2.91843,0.33882,            ,-0.03292125,0.78536,,
567.951,27.50589,-2.91943,0.34018,            ,-0.03109829,0.78469,,
569.051,27.5418,-2.92016,0.34243,            ,-0.02398319,0.78402,,
570.151,27.57767,-2.92151,0.34172,            ,-0.02704843,0.78334,,
571.251,27.6135,-2.92269,0.34683,            ,-0.03171579,0.78266,,
572.351,27.6493,-2.92374,0.34779,            ,-0.03205756,0.78199,,
573.451,27.6852,-2.92419,0.35453,            ,-0.04671398,0.78131,,
574.551,27.7211,-2.92674,0.3553,            ,-0.04209536,0.78062,,
575.651,27.757,-2.92811,0.36117,            ,-0.01424847,0.77994,,
576.751,27.793,-2.92761,0.36727,            ,-0.007545791,0.77926,,
577.851,27.82875,-2.92801,0.37101,            ,-0.02989206,0.77857,,
578.951,27.86467,-2.92961,0.37679,            ,-0.04588613,0.77789,,
580.051,27.90069,-2.93186,0.37756,            ,-0.05071549,0.7772,,
581.151,27.9366,-2.9331,0.38355,            ,-0.01976191,0.77651,,
582.251,27.97265,-2.9337,0.3847,            ,-0.02515564,0.77582,,
583.351,28.00866,-2.93443,0.38802,            ,-0.01302968,0.77512,,
584.451,28.04458,-2.93528,0.39079,            ,-0.03298025,0.77443,,
585.551,28.08055,-2.93656,0.39719,            ,-0.03214,0.77373,,
586.651,28.11652,-2.93709,0.40015,            ,-0.03200161,0.77304,,
587.751,28.1525,-2.93881,0.40347,            ,-0.02333332,0.77234,,
588.851,28.18842,-2.93965,0.40726,            ,-0.02956038,0.77164,,
589.951,28.2244,-2.94053,0.40945,            ,-0.02998112,0.77094,,
591.051,28.26033,-2.94144,0.41323,            ,-0.01630812,0.77024,,
592.151,28.29621,-2.94209,0.41577,            ,-0.0131247,0.76953,,
593.251,28.33238,-2.94228,0.41939,            ,-0.03129142,0.76883,,
594.351,28.36866,-2.94408,0.42131,            ,-0.03542796,0.76812,,
595.451,28.4046,-2.94481,0.42285,            ,-0.025851,0.76741,,
596.551,28.4406,-2.94616,0.42577,            ,-0.01667325,0.7667,,
597.651,28.47665,-2.94615,0.42684,            ,-0.01977367,0.76599,,
598.751,28.51274,-2.94747,0.42735,            ,-0.03079102,0.76528,,
599.851,28.54887,-2.94901,0.42556,            ,-0.03452466,0.76456,,
600.951,28.58502,-2.95006,0.42791,            ,-0.0326301,0.76384,,
602.051,28.6212,-2.95109,0.42833,            ,-0.02848831,0.76313,,
603.151,28.65728,-2.95165,0.42723,            ,-0.01437062,0.76241,,
604.251,28.69343,-2.95285,0.42724,            ,-0.02669747,0.76169,,
605.351,28.7296,-2.95295,0.4266,            ,-0.0269548,0.76097,,
606.451,28.76574,-2.9543,0.42869,            ,-0.02518073,0.76024,,
607.551,28.8019,-2.9556,0.42876,            ,-0.02220341,0.75952,,
608.651,28.83812,-2.95621,0.42882,            ,-0.002471077,0.75879,,
609.751,28.8744,-2.95559,0.42663,            ,-0.01468249,0.75806,,
610.851,28.9106,-2.9569,0.43014,            ,-0.02082977,0.75733,,
611.951,28.9465,-2.95703,0.43026,            ,-0.02495783,0.7566,,
613.051,28.98248,-2.95825,0.43249,            ,-0.02188072,0.75587,,
614.151,29.0189,-2.95954,0.43319,            ,-0.02869092,0.75514,,
615.251,29.0555,-2.96045,0.42912,            ,-0.02647864,0.7544,,
616.351,29.09181,-2.96087,0.43491,            ,-0.01643356,0.75367,,
617.451,29.1281,-2.96217,0.43421,            ,-0.02354041,0.75293,,
618.551,29.16436,-2.9621,0.4353,            ,-0.02268609,0.75219,,
619.651,29.20058,-2.96349,0.43948,            ,-0.01378017,0.75144,,
620.751,29.23682,-2.96349,0.43737,            ,-0.0003035871,0.7507,,
621.851,29.27317,-2.96349,0.44246,            ,-0.001617921,0.74996,,
622.951,29.30945,-2.96349,0.44101,            ,-0.0273867,0.74921,,
624.051,29.3457,-2.96507,0.44481,            ,-0.0475273,0.74846,,
625.151,29.382,-2.96672,0.44721,            ,-0.0375371,0.74771,,
626.251,29.41837,-2.96784,0.44874,            ,-0.03090255,0.74696,,
627.351,29.45475,-2.96918,0.45023,            ,-0.03072282,0.74621,,
628.451,29.4911,-2.97051,0.45259,            ,-0.02904378,0.74546,,
629.551,29.52743,-2.97182,0.45256,            ,-0.01491983,0.7447,,
630.651,29.56369,-2.97073,0.45796,            ,0.01547132,0.74395,,
631.751,29.6,-2.97084,0.45766,            ,-0.005957673,0.74319,,
632.851,29.6364,-2.97186,0.4577,            ,-0.02345035,0.74243,,
633.951,29.673,-2.97222,0.46009,            ,0.01604177,0.74167,,
635.051,29.70931,-2.97084,0.46053,            ,0.002560267,0.7409,,
636.151,29.74575,-2.97233,0.46522,            ,-0.0440048,0.74014,,
637.251,29.7822,-2.97393,0.46649,            ,-0.03140192,0.73937,,
638.351,29.8185,-2.97445,0.47013,            ,-0.02622016,0.7386,,
639.451,29.8549,-2.97525,0.47108,            ,-0.01897828,0.73783,,
640.551,29.89126,-2.97658,0.47391,            ,-0.02333698,0.73706,,
641.651,29.9277,-2.9765,0.47909,            ,-0.02284608,0.73629,,
642.751,29.96415,-2.97785,0.47855,            ,-0.01392671,0.73552,,
643.851,30.0007,-2.97785,0.48101,            ,-0.01872123,0.73474,,
644.951,30.0372,-2.97918,0.48107,            ,-0.01639409,0.73396,,
646.051,30.07364,-2.97918,0.48483,            ,-0.0005479401,0.73319,,
647.151,30.11,-2.97918,0.4898,            ,-0.004122472,0.73241,,
648.251,30.14643,-2.97955,0.49352,            ,-0.02459895,0.73162,,
649.351,30.1828,-2.98051,0.49546,            ,-0.01858189,0.73084,,
650.451,30.2192,-2.98178,0.49792,            ,-0.02255354,0.73005,,
651.551,30.25565,-2.98181,0.50002,            ,-0.002309982,0.72927,,
652.651,30.29213,-2.98181,0.50335,            ,-0.005019587,0.72848,,
653.751,30.3285,-2.98235,0.50651,            ,-0.02475227,0.72769,,
654.851,30.365,-2.98313,0.50741,            ,-0.0127869,0.7269,,
655.951,30.40142,-2.98391,0.50972,            ,-0.02476123,0.72611,,
657.051,30.43781,-2.98445,0.51405,            ,-0.005222107,0.72531,,
658.151,30.4741,-2.98446,0.51333,            ,-0.01187709,0.72452,,
659.251,30.51053,-2.98577,0.51748,            ,-0.02179447,0.72372,,
660.351,30.54697,-2.98575,0.52088,            ,-0.00358175,0.72292,,
661.451,30.58345,-2.98612,0.52293,            ,-0.02058999,0.72212,,
662.551,30.61993,-2.98675,0.52051,            ,-0.009975961,0.72132,,
663.651,30.6564,-2.98737,0.52262,            ,-0.02475219,0.72051,,
664.751,30.6928,-2.98806,0.52238,            ,-0.006103263,0.71971,,
665.851,30.72924,-2.98806,0.52428,            ,-0.002946766,0.7189,,
666.951,30.7656,-2.98814,0.52847,            ,-0.02371991,0.71809,,
668.051,30.8021,-2.98939,0.52756,            ,-0.00989537,0.71728,,
669.151,30.83858,-2.98939,0.52955,            ,-0.01521643,0.71647,,
670.251,30.87507,-2.99075,0.53044,            ,-0.01441276,0.71566,,
671.351,30.91143,-2.99024,0.53029,            ,0.02323551,0.71484,,
672.451,30.94787,-2.9894,0.52986,            ,-0.00939272,0.71403,,
673.551,30.9843,-2.99087,0.5272,            ,-0.02782974,0.71321,,
674.651,31.0208,-2.99154,0.52775,            ,-0.02962536,0.71239,,
675.751,31.05732,-2.99229,0.52782,            ,-0.02933869,0.71157,,
676.851,31.09375,-2.99345,0.52887,            ,-0.008368875,0.71074,,
677.951,31.13012,-2.99344,0.52833,            ,-0.001426059,0.70992,,
679.051,31.1665,-2.99339,0.52804,            ,-0.02046328,0.70909,,
680.151,31.2029,-2.99475,0.53077,            ,-0.01412256,0.70827,,
681.251,31.2394,-2.99476,0.52879,            ,-0.003322496,0.70744,,
682.351,31.2759,-2.99516,0.52627,            ,-0.02416478,0.70661,,
683.451,31.31242,-2.99683,0.52628,            ,-0.02497873,0.70578,,
684.551,31.3488,-2.99674,0.52607,            ,-0.006585983,0.70494,,
685.651,31.38532,-2.99723,0.52427,            ,-0.02475919,0.70411,,
686.751,31.42192,-2.99806,0.52636,            ,-0.01706347,0.70327,,
687.851,31.4585,-2.99931,0.52513,            ,-0.02189236,0.70243,,
688.951,31.49502,-2.99942,0.52573,            ,0.01708031,0.70159,,
690.051,31.5315,-2.99806,0.52398,            ,0.01514032,0.70075,,
691.151,31.56806,-2.99805,0.52155,            ,0.000123441,0.69991,,
692.251,31.60462,-2.99807,0.52432,            ,-0.02072932,0.69906,,
693.351,31.6411,-3.00042,0.52167,            ,-0.03915108,0.69822,,
694.451,31.6776,-3.00037,0.52258,            ,-0.01784429,0.69737,,
695.551,31.7141,-3.00172,0.51898,            ,-0.02000946,0.69652,,
696.651,31.75055,-3.00167,0.51769,            ,-0.005629125,0.69567,,
697.751,31.7873,-3.00211,0.51653,            ,-0.02461039,0.69482,,
698.851,31.82412,-3.00299,0.51864,            ,-0.006889496,0.69396,,
699.951,31.8608,-3.00299,0.51537,            ,-0.00807927,0.69311,,
701.051,31.8974,-3.0041,0.51525,            ,-0.02442748,0.69225,,
702.151,31.934,-3.00432,0.51336,            ,-0.01718959,0.69139,,
703.251,31.9707,-3.00562,0.5143,            ,-0.02067084,0.69053,,
704.351,32.00735,-3.00562,0.51177,            ,-0.000725422,0.68967,,
705.451,32.04403,-3.00563,0.51202,            ,0.01723049,0.68881,,
706.551,32.0807,-3.00431,0.51123,            ,0.01753468,0.68794,,
707.651,32.11741,-3.0043,0.51013,            ,0.0006443018,0.68707,,
708.751,32.15406,-3.0043,0.50686,            ,-0.0003794581,0.68621,,
709.851,32.19076,-3.0043,0.50932,            ,-0.01644722,0.68534,,
710.951,32.22749,-3.00581,0.50711,            ,-0.03849142,0.68447,,
712.051,32.26427,-3.00716,0.50455,            ,-0.02863202,0.68359,,
713.151,32.301,-3.00822,0.50817,            ,-0.02564342,0.68272,,
714.251,32.33766,-3.00847,0.50374,            ,-0.004003065,0.68184,,
715.351,32.37441,-3.00847,0.5007,            ,-0.00609437,0.68097,,
716.451,32.4112,-3.00923,0.50127,            ,-0.02476614,0.68009,,
717.551,32.44792,-3.00979,0.50237,            ,-0.00499136,0.67921,,
718.651,32.48457,-3.00979,0.50095,            ,-0.0006285096,0.67833,,
719.751,32.52124,-3.00978,0.49721,            ,-0.01689479,0.67744,,
720.851,32.55793,-3.01112,0.49747,            ,-0.01752269,0.67656,,
721.951,32.59472,-3.0111,0.49335,            ,-0.002483096,0.67567,,
723.051,32.63158,-3.01111,0.49407,            ,-0.02196311,0.67479,,
724.151,32.66827,-3.01241,0.4953,            ,-0.01208604,0.6739,,
725.251,32.7051,-3.01242,0.49137,            ,-0.0001357763,0.67301,,
726.351,32.74194,-3.01242,0.49124,            ,-1.870654e-07,0.67211,,
727.451,32.77878,-3.01242,0.49143,            ,-1.18257e-05,0.67122,,
728.551,32.8155,-3.01241,0.49161,            ,-0.008268987,0.67032,,
729.651,32.8523,-3.01358,0.488,            ,-0.02628478,0.66943,,
730.751,32.88922,-3.01384,0.49027,            ,-0.01116038,0.66853,,
731.851,32.92609,-3.01482,0.48696,            ,-0.02465296,0.66763,,
732.951,32.96293,-3.01516,0.4814,            ,-0.00386584,0.66673,,
734.051,32.9998,-3.01516,0.48038,            ,0.004048797,0.66583,,
735.151,33.03665,-3.01477,0.48038,            ,0.02451552,0.66492,,
736.251,33.07343,-3.01384,0.47959,            ,0.006936935,0.66402,,
737.351,33.11027,-3.01384,0.47607,            ,-0.01134826,0.66311,,
738.451,33.1473,-3.01486,0.47726,            ,-0.01442666,0.6622,,
739.551,33.18423,-3.01483,0.4749,            ,-0.00664949,0.66129,,
740.651,33.22108,-3.01557,0.47517,            ,-0.02458602,0.66038,,
741.751,33.258,-3.01614,0.47048,            ,-0.007901513,0.65947,,
742.851,33.29485,-3.01643,0.46923,            ,-0.01842375,0.65855,,
743.951,33.3318,-3.01713,0.46732,            ,-0.00538827,0.65764,,
745.051,33.36862,-3.01713,0.46322,            ,-0.002888581,0.65672,,
746.151,33.40549,-3.01749,0.46367,            ,-0.00680472,0.6558,,
747.251,33.44238,-3.01754,0.45805,            ,-0.01995718,0.65488,,
748.351,33.47931,-3.01909,0.45887,            ,-0.03381926,0.65396,,
749.451,33.51628,-3.02004,0.45855,            ,-0.02852864,0.65304,,
750.551,33.55314,-3.02075,0.45594,            ,-0.00596702,0.65211,,
751.651,33.59003,-3.02075,0.45018,            ,-8.07228e-06,0.65119,,
752.751,33.6269,-3.02075,0.45009,            ,0.0006006912,0.65026,,
753.851,33.66388,-3.02075,0.44842,            ,0.01117727,0.64933,,
754.951,33.70082,-3.02018,0.4471,            ,-0.007479633,0.6484,,
756.051,33.73771,-3.02076,0.44007,            ,-0.004479772,0.64747,,
757.151,33.77468,-3.02076,0.44328,            ,1.3161e-06,0.64653,,
758.251,33.8116,-3.02076,0.44054,            ,-3.123788e-05,0.6456,,
759.351,33.84854,-3.02076,0.44276,            ,-0.008330695,0.64466,,
760.451,33.88543,-3.02184,0.43365,            ,-0.02384916,0.64373,,
761.551,33.92239,-3.02207,0.43421,            ,-0.00327387,0.64279,,
762.651,33.95935,-3.02207,0.43285,            ,-0.008862955,0.64185,,
763.751,33.99635,-3.02322,0.43152,            ,-0.02378095,0.64091,,
764.851,34.03331,-3.02339,0.43055,            ,-0.003698163,0.63996,,
765.951,34.07031,-3.02338,0.43055,            ,-0.01823965,0.63902,,
767.051,34.10735,-3.02471,0.42712,            ,-0.01625031,0.63808,,
768.151,34.14432,-3.02471,0.42605,            ,-0.0004894354,0.63713,,
769.251,34.18121,-3.02471,0.42617,            ,-0.000175571,0.63618,,
770.351,34.2181,-3.02471,0.42225,            ,-0.00403228,0.63523,,
771.451,34.25506,-3.02513,0.42003,            ,0.00638244,0.63428,,
772.551,34.2922,-3.02468,0.41929,            ,-0.001749933,0.63333,,
773.651,34.3292,-3.0247,0.41775,            ,-0.00141622,0.63237,,
774.751,34.36614,-3.02464,0.4219,            ,-0.01603629,0.63142,,
775.851,34.40312,-3.02569,0.41636,            ,-0.01326103,0.63046,,
776.951,34.44011,-3.02602,0.41373,            ,-0.00593315,0.6295,,
778.051,34.4771,-3.02601,0.41251,            ,-0.01895649,0.62855,,
779.151,34.51401,-3.02735,0.4117,            ,-0.03541978,0.62758,,
780.251,34.55092,-3.02832,0.41374,            ,-0.00787723,0.62662,,
781.351,34.5877,-3.02829,0.4114,            ,-0.00331696,0.62566,,
782.451,34.6246,-3.02829,0.40781,            ,0.003318647,0.6247,,
783.551,34.66149,-3.02833,0.40837,            ,-0.01145566,0.62373,,
784.651,34.69859,-3.02963,0.40769,            ,-0.0218727,0.62276,,
785.751,34.73576,-3.02964,0.40501,            ,-0.003662242,0.62179,,
786.851,34.77274,-3.02966,0.40627,            ,-0.02237447,0.62083,,
787.951,34.8097,-3.03095,0.40668,            ,-0.00608598,0.61985,,
789.051,34.84665,-3.03031,0.40362,            ,0.02453857,0.61888,,
790.151,34.8838,-3.02965,0.39871,            ,-0.001564566,0.61791,,
791.251,34.92094,-3.03056,0.4001,            ,0.001480346,0.61693,,
792.351,34.958,-3.0296,0.39696,            ,-0.01696912,0.61596,,
793.451,34.9951,-3.03094,0.39664,            ,-0.03543699,0.61498,,
793.551,34.99839,-3.03095,0.39707,            ,-0.0369338,0.61489,,