File: 01_Data/Ext_Plywood/STA/N2/30K_min/Ext_Plywood_STA_N2_30KData_22253_R3.csv
##Temp./°C,Time/min,Mass loss(subtr.2)/mg,DSC(subtr.2)/(mW/mg),Integral(DSC (subtr.2), 2, 175.8..427.3°C)/%,DTG(subtr.2)/(mg/min),Sensit./(uV/mW)
48.688,10.00917,-0.03937,0.02774647,            ,-0.05149187,1.08898,,
49.788,10.62768,-0.04074913,0.08780843,            ,-0.004849971,1.08805,,
50.888,10.7759,-0.0423266,0.13511,            ,-0.02882731,1.08713,,
51.988,10.88321,-0.0412686,0.17854,            ,-0.00265708,1.0862,,
53.088,10.97161,-0.04151361,0.21833,            ,0.003836586,1.08528,,
54.188,11.04926,-0.03959766,0.25311,            ,0.054127,1.08436,,
55.288,11.11943,-0.03767049,0.28663,            ,-0.06487482,1.08344,,
56.388,11.1845,-0.04236048,0.31877,            ,-0.001169927,1.08253,,
57.488,11.24499,-0.04167266,0.3465,            ,-0.02147976,1.08161,,
58.588,11.3018,-0.04555084,0.37293,            ,-0.0181932,1.0807,,
59.688,11.35666,-0.04200736,0.40188,            ,0.005009686,1.07979,,
60.788,11.40933,-0.0457432,0.42629,            ,-0.00172668,1.07888,,
61.888,11.45989,-0.04140052,0.44836,            ,0.05219496,1.07798,,
62.988,11.50881,-0.04123489,0.471,            ,-0.0122035,1.07708,,
64.088,11.55662,-0.04174519,0.49088,            ,-0.000114138,1.07617,,
65.188,11.60326,-0.04087155,0.51194,            ,-0.0004647094,1.07528,,
66.288,11.64879,-0.04251299,0.53183,            ,-0.03539839,1.07438,,
67.388,11.69364,-0.04361612,0.55096,            ,-0.02110388,1.07348,,
68.488,11.73782,-0.04414838,0.56939,            ,0.00695341,1.07259,,
69.588,11.78083,-0.0437212,0.58726,            ,0.003906702,1.0717,,
70.688,11.82367,-0.04405316,0.60712,            ,-0.008627642,1.07081,,
71.788,11.8664,-0.04438305,0.62466,            ,0.00328672,1.06992,,
72.888,11.9086,-0.04372388,0.63926,            ,-0.01708763,1.06904,,
73.988,11.95011,-0.04589644,0.65638,            ,-0.02584607,1.06816,,
75.088,11.99122,-0.04594031,0.6744,            ,-0.006919727,1.06728,,
76.188,12.032,-0.04598236,0.69202,            ,-0.00460174,1.0664,,
77.288,12.07245,-0.04658995,0.70549,            ,-0.01415949,1.06552,,
78.388,12.11261,-0.04682764,0.7213,            ,-0.01846475,1.06465,,
79.488,12.15249,-0.04744473,0.73684,            ,-0.01873057,1.06377,,
80.588,12.19218,-0.04844512,0.75272,            ,-0.00680789,1.0629,,
81.688,12.2317,-0.04843771,0.76668,            ,0.01236885,1.06204,,
82.788,12.271,-0.04824167,0.78368,            ,-0.00337138,1.06117,,
83.888,12.30991,-0.04844298,0.79736,            ,-0.01452877,1.06031,,
84.988,12.34862,-0.04826586,0.81171,            ,0.01994015,1.05944,,
86.088,12.38723,-0.04740249,0.82318,            ,-0.01026356,1.05859,,
87.188,12.4254,-0.04943885,0.83897,            ,-0.02204536,1.05773,,
88.288,12.4636,-0.04972301,0.85,            ,-0.0220991,1.05687,,
89.388,12.50187,-0.0509534,0.86165,            ,-0.03270758,1.05602,,
90.488,12.54,-0.05216404,0.875,            ,-0.03201614,1.05517,,
91.588,12.57797,-0.05299117,0.88784,            ,-0.02816628,1.05432,,
92.688,12.6157,-0.0537421,0.8975,            ,-0.01137878,1.05347,,
93.788,12.65328,-0.05450261,0.90786,            ,-0.01853834,1.05262,,
94.888,12.69075,-0.05392355,0.91728,            ,0.00101121,1.05178,,
95.988,12.7281,-0.05505943,0.92808,            ,-0.02059107,1.05094,,
97.088,12.76549,-0.05627048,0.93445,            ,-0.0281898,1.0501,,
98.188,12.80283,-0.05651431,0.94148,            ,-0.02621123,1.04926,,
99.288,12.84,-0.05780492,0.94847,            ,-0.02066688,1.04843,,
100.388,12.87711,-0.059127,0.95686,            ,-0.031816,1.04759,,
101.488,12.91417,-0.06007706,0.96044,            ,-0.02928511,1.04676,,
102.588,12.95128,-0.06055227,0.96319,            ,-0.02639943,1.04593,,
103.688,12.98824,-0.06185574,0.96925,            ,-0.01439436,1.04511,,
104.788,13.0251,-0.06195753,0.97042,            ,-0.0237209,1.04428,,
105.888,13.062,-0.06317408,0.97151,            ,-0.00286966,1.04346,,
106.988,13.09887,-0.06218997,0.97359,            ,-0.003499811,1.04264,,
108.088,13.13579,-0.06348337,0.97237,            ,-0.01165529,1.04182,,
109.188,13.17273,-0.0635198,0.971,            ,-0.01587257,1.041,,
110.288,13.20946,-0.06504222,0.97076,            ,-0.0400913,1.04019,,
111.388,13.2462,-0.06639953,0.9674,            ,-0.040848,1.03937,,
112.488,13.28306,-0.0676447,0.96646,            ,-0.01584373,1.03856,,
113.588,13.3198,-0.06767756,0.96006,            ,0.009622097,1.03775,,
114.688,13.35641,-0.06703025,0.95747,            ,0.007332899,1.03695,,
115.788,13.39303,-0.0670055,0.95262,            ,0.007824166,1.03614,,
116.888,13.4296,-0.06636465,0.94832,            ,0.00805329,1.03534,,
117.988,13.46604,-0.06625662,0.94245,            ,-0.01715648,1.03454,,
119.088,13.50254,-0.06734752,0.93698,            ,-0.007487169,1.03374,,
120.188,13.53894,-0.06734,0.93157,            ,-2.72271e-05,1.03294,,
121.288,13.5753,-0.06733999,0.92506,            ,9.287065e-07,1.03215,,
122.388,13.61154,-0.0673388,0.92034,            ,-0.001839093,1.03135,,
123.488,13.6478,-0.067636,0.91869,            ,-0.00934434,1.03056,,
124.588,13.68401,-0.06771089,0.91252,            ,-0.03212083,1.02977,,
125.688,13.72013,-0.06924853,0.90874,            ,-0.05640314,1.02899,,
126.788,13.7562,-0.07195076,0.90411,            ,-0.02731921,1.0282,,
127.888,13.79214,-0.07195011,0.90067,            ,-0.00184564,1.02742,,
128.988,13.82799,-0.07194517,0.8965,            ,-0.0069159,1.02664,,
130.088,13.86374,-0.07183099,0.89237,            ,0.006673875,1.02586,,
131.188,13.89964,-0.07194969,0.89116,            ,0.0032323,1.02508,,
132.288,13.93564,-0.07204546,0.88751,            ,0.02199397,1.0243,,
133.388,13.97135,-0.07063149,0.88567,            ,0.01283723,1.02353,,
134.488,14.00699,-0.07063731,0.88615,            ,0.005452067,1.02276,,
135.588,14.04258,-0.06972775,0.88458,            ,-0.0006910489,1.02199,,
136.688,14.07802,-0.0706395,0.88321,            ,-0.00396866,1.02122,,
137.788,14.1136,-0.07064603,0.88163,            ,0.01733186,1.02045,,
138.888,14.14906,-0.06931782,0.88469,            ,0.006985143,1.01969,,
139.988,14.18441,-0.070595,0.88424,            ,-0.0370581,1.01893,,
141.088,14.2195,-0.07195235,0.88495,            ,-0.03189668,1.01817,,
142.188,14.25485,-0.07285762,0.88728,            ,-0.02602126,1.01741,,
143.288,14.29013,-0.07367976,0.88988,            ,-0.02696932,1.01665,,
144.388,14.32535,-0.07425274,0.88907,            ,-0.005614395,1.0159,,
145.488,14.36046,-0.07424674,0.89448,            ,0.009986562,1.01515,,
146.588,14.3956,-0.07311188,0.89854,            ,0.02359823,1.01439,,
147.688,14.4306,-0.07293996,0.90021,            ,0.001894319,1.01365,,
148.788,14.4656,-0.07316185,0.90461,            ,-0.00853069,1.0129,,
149.888,14.5005,-0.07333622,0.90732,            ,-0.01377079,1.01215,,
150.988,14.5354,-0.07392031,0.90965,            ,-0.0110207,1.01141,,
152.088,14.5703,-0.0746769,0.91453,            ,-0.02513323,1.01067,,
153.188,14.6054,-0.07525695,0.91788,            ,-0.01934222,1.00993,,
154.288,14.6403,-0.07658827,0.9206,            ,-0.03010411,1.00919,,
155.388,14.6751,-0.07752305,0.92636,            ,-0.02691978,1.00845,,
156.488,14.70986,-0.07787932,0.92871,            ,-0.004760075,1.00772,,
157.588,14.7446,-0.07788254,0.93384,            ,0.002319441,1.00699,,
158.688,14.77927,-0.07754782,0.93968,            ,0.006194396,1.00626,,
159.788,14.814,-0.07755065,0.94243,            ,0.0009674823,1.00553,,
160.888,14.84876,-0.07755001,0.94756,            ,1.28414e-05,1.0048,,
161.988,14.8834,-0.07755419,0.95101,            ,0.004253143,1.00407,,
163.088,14.9179,-0.07695257,0.9556,            ,0.01255218,1.00335,,
164.188,14.9525,-0.07689134,0.96153,            ,0.00223127,1.00263,,
165.288,14.987,-0.07688999,0.96535,            ,-2.49148e-06,1.00191,,
166.388,15.02159,-0.07689,0.96932,            ,1.93165e-07,1.00119,,
167.488,15.0562,-0.07689014,0.97507,            ,-0.002299229,1.00047,,
168.588,15.0908,-0.07689988,0.97924,            ,-0.02181648,0.99976,,
169.688,15.12531,-0.0781803,0.98352,            ,-0.01350028,0.99904,,
170.788,15.15965,-0.07819997,0.99056,            ,-0.000373703,0.99833,,
171.888,15.1941,-0.07819874,0.99471,            ,0.001886699,0.99762,,
172.988,15.22851,-0.07822431,0.99967,            ,0.01230871,0.99692,,
174.088,15.2629,-0.07753486,1.00363,0.000000e+00,0.004928992,0.99621,,
175.188,15.2972,-0.07754004,1.00891,0.000000e+00,3.83208e-05,0.9955,,
176.288,15.3315,-0.07753988,1.01534,6.690846e-04,-0.00044012,0.9948,,
177.388,15.36581,-0.07755376,1.02217,8.678932e-03,-0.01379836,0.9941,,
178.488,15.4,-0.07888246,1.02333,2.626086e-02,-0.02346173,0.9934,,
179.588,15.434,-0.07881131,1.03195,5.104612e-02,-0.02186751,0.9927,,
180.688,15.4682,-0.08017937,1.03579,8.652437e-02,-0.01756549,0.99201,,
181.788,15.5023,-0.08016589,1.0395,     0.12982,-0.01749965,0.99131,,
182.888,15.53646,-0.08154246,1.04359,     0.18100,-0.02077773,0.99062,,
183.988,15.57042,-0.08147811,1.04938,     0.24080,-0.01860618,0.98993,,
185.088,15.6044,-0.08285682,1.05527,     0.30923,-0.01952958,0.98924,,
186.188,15.63844,-0.08280727,1.06073,     0.38811,-0.01190343,0.98855,,
187.288,15.67237,-0.08400113,1.06722,     0.47427,-0.02411258,0.98787,,
188.388,15.7063,-0.08413028,1.07066,     0.57013,-0.004211752,0.98718,,
189.488,15.7401,-0.08413,1.07292,     0.67300,-5.672048e-06,0.9865,,
190.588,15.774,-0.08412997,1.08013,     0.78441,-3.445424e-05,0.98582,,
191.688,15.80778,-0.08413084,1.0863,     0.90528,-0.01126349,0.98514,,
192.788,15.84155,-0.0848744,1.08998,     1.03475,-0.04897458,0.98446,,
193.888,15.8753,-0.08674687,1.09363,     1.17210,-0.02534593,0.98378,,
194.988,15.90899,-0.08772464,1.10106,     1.31850,-0.02502173,0.98311,,
196.088,15.9427,-0.0880713,1.1037,     1.47351,-0.00942075,0.98243,,
197.188,15.9764,-0.08801432,1.1091,     1.63622,-0.04027325,0.98176,,
198.288,16.01001,-0.0906929,1.11303,     1.80701,-0.03330836,0.98109,,
199.388,16.0437,-0.09073158,1.11811,     1.98572,-0.005224457,0.98042,,
200.488,16.07733,-0.09082347,1.12224,     2.17283,0.002230458,0.97976,,
201.588,16.1109,-0.09069897,1.12587,     2.36807,-0.0042156,0.97909,,
202.688,16.14452,-0.0911997,1.13046,     2.57158,-0.02209757,0.97843,,
203.788,16.1781,-0.09207199,1.13466,     2.78275,0.00119082,0.97776,,
204.888,16.2116,-0.09210754,1.14096,     3.00145,-0.01178111,0.9771,,
205.988,16.24511,-0.09196659,1.14229,     3.22875,-0.02258821,0.97644,,
207.088,16.27872,-0.09334448,1.1458,     3.46355,-0.02205462,0.97579,,
208.188,16.31224,-0.09361093,1.15185,     3.70490,-0.03618411,0.97513,,
209.288,16.3458,-0.09550114,1.15335,     3.95357,-0.04871913,0.97447,,
210.388,16.3794,-0.0969826,1.15503,     4.20862,-0.068766,0.97382,,
211.488,16.41289,-0.10013,1.15622,     4.46890,-0.06173178,0.97317,,
212.588,16.44645,-0.10184,1.15994,     4.73626,-0.03819633,0.97252,,
213.688,16.4799,-0.10213,1.16251,     5.00850,-0.01869545,0.97187,,
214.788,16.51341,-0.10242,1.15992,     5.28594,0.01005703,0.97122,,
215.888,16.54692,-0.10214,1.16044,     5.56699,-0.01588639,0.97057,,
216.988,16.58042,-0.10365,1.15897,     5.85241,-0.05747557,0.96993,,
218.088,16.61391,-0.10656,1.15982,     6.14173,-0.05969021,0.96929,,
219.188,16.64735,-0.10783,1.16252,     6.43521,-0.04922161,0.96864,,
220.288,16.68071,-0.1095,1.16184,     6.73275,-0.05190389,0.968,,
221.388,16.71407,-0.11096,1.16131,     7.03448,-0.05647123,0.96736,,
222.488,16.74757,-0.11273,1.16334,     7.34240,-0.05356771,0.96673,,
223.588,16.78099,-0.1142,1.16286,     7.65398,-0.04221755,0.96609,,
224.688,16.81439,-0.11555,1.16138,     7.96975,-0.0434982,0.96545,,
225.788,16.84768,-0.11712,1.16085,     8.28760,-0.05099363,0.96482,,
226.888,16.88113,-0.11931,1.1614,     8.61307,-0.04659972,0.96419,,
227.988,16.91449,-0.12049,1.16239,     8.94172,-0.04150428,0.96356,,
229.088,16.94791,-0.12193,1.16474,     9.27699,-0.06396297,0.96293,,
230.188,16.9812,-0.12523,1.16744,     9.61715,-0.08206206,0.9623,,
231.288,17.0144,-0.12725,1.16955,     9.96256,-0.09092691,0.96167,,
232.388,17.0477,-0.13068,1.17022,    10.31368,-0.0820125,0.96105,,
233.488,17.081,-0.13344,1.17243,    10.67053,-0.0820448,0.96042,,
234.588,17.11423,-0.13581,1.17591,    11.03359,-0.08316587,0.9598,,
235.688,17.14762,-0.13903,1.17888,    11.40431,-0.09130868,0.95918,,
236.788,17.18102,-0.14203,1.17796,    11.78151,-0.08532914,0.95856,,
237.888,17.21435,-0.14476,1.18174,    12.16288,-0.06559737,0.95794,,
238.988,17.24756,-0.14643,1.18254,    12.54833,-0.04439688,0.95732,,
240.088,17.2808,-0.148,1.18568,    12.94080,-0.06213659,0.9567,,
241.188,17.31409,-0.15029,1.1881,    13.33997,-0.0794576,0.95609,,
242.288,17.34745,-0.15322,1.19217,    13.74566,-0.07860924,0.95547,,
243.388,17.3807,-0.15521,1.19247,    14.15796,-0.08828543,0.95486,,
244.488,17.41388,-0.1591,1.19697,    14.57612,-0.10564,0.95425,,
245.588,17.44722,-0.16225,1.20035,    15.00284,-0.09211013,0.95364,,
246.688,17.4805,-0.16548,1.20227,    15.43633,-0.08062565,0.95303,,
247.788,17.51386,-0.16771,1.20476,    15.87627,-0.09830841,0.95242,,
248.888,17.54703,-0.1717,1.20883,    16.32122,-0.12812,0.95181,,
249.988,17.58025,-0.17706,1.21021,    16.77207,-0.15462,0.9512,,
251.088,17.61354,-0.18138,1.21159,    17.23017,-0.10975,0.9506,,
252.188,17.6468,-0.18402,1.21342,    17.69299,-0.07850163,0.94999,,
253.288,17.68,-0.18724,1.21822,    18.16274,-0.07104921,0.94939,,
254.388,17.71327,-0.18911,1.21838,    18.63842,-0.10263,0.94879,,
255.488,17.7465,-0.19296,1.22188,    19.12016,-0.12087,0.94819,,
256.588,17.77978,-0.19763,1.22324,    19.60826,-0.12547,0.94759,,
257.688,17.813,-0.20153,1.22382,    20.10178,-0.12585,0.94699,,
258.788,17.84628,-0.20582,1.22723,    20.60147,-0.12331,0.9464,,
259.888,17.87943,-0.20984,1.22938,    21.10538,-0.11449,0.9458,,
260.988,17.9127,-0.21328,1.22991,    21.61745,-0.12321,0.9452,,
262.088,17.94616,-0.21793,1.23142,    22.13844,-0.15236,0.94461,,
263.188,17.9794,-0.22378,1.23408,    22.66131,-0.16566,0.94402,,
264.288,18.01264,-0.22852,1.23553,    23.19009,-0.157,0.94343,,
265.388,18.04585,-0.2337,1.23609,    23.72305,-0.13314,0.94283,,
266.488,18.07909,-0.23789,1.23802,    24.26189,-0.13398,0.94224,,
267.588,18.11232,-0.24286,1.23762,    24.80528,-0.14358,0.94166,,
268.688,18.14559,-0.24739,1.23835,    25.35352,-0.14504,0.94107,,
269.788,18.17889,-0.25211,1.23706,    25.90688,-0.13936,0.94048,,
270.888,18.21219,-0.25712,1.23972,    26.46447,-0.15126,0.9399,,
271.988,18.24548,-0.26208,1.23889,    27.02750,-0.19383,0.93931,,
273.088,18.27861,-0.2698,1.23885,    27.59159,-0.19523,0.93873,,
274.188,18.31186,-0.27539,1.23859,    28.16060,-0.1571,0.93814,,
275.288,18.34509,-0.28016,1.2404,    28.73359,-0.17934,0.93756,,
276.388,18.37836,-0.28675,1.238,    29.31234,-0.17679,0.93698,,
277.488,18.41154,-0.2926,1.23583,    29.89213,-0.15827,0.9364,,
278.588,18.44481,-0.29714,1.23486,    30.47659,-0.1791,0.93582,,
279.688,18.47816,-0.30427,1.23573,    31.06562,-0.19847,0.93524,,
280.788,18.51144,-0.31086,1.23292,    31.65641,-0.18092,0.93467,,
281.888,18.54476,-0.31572,1.22941,    32.25051,-0.18613,0.93409,,
282.988,18.5781,-0.32295,1.22883,    32.84634,-0.19805,0.93351,,
284.088,18.6115,-0.32968,1.22524,    33.44712,-0.19494,0.93294,,
285.188,18.64473,-0.3359,1.22405,    34.04650,-0.20822,0.93236,,
286.288,18.67793,-0.34297,1.22088,    34.64777,-0.22365,0.93179,,
287.388,18.71112,-0.35087,1.21949,    35.25047,-0.24045,0.93122,,
288.488,18.7446,-0.35885,1.2168,    35.86166,-0.25311,0.93065,,
289.588,18.77789,-0.36767,1.2147,    36.47028,-0.26259,0.93008,,
290.688,18.81125,-0.37645,1.20743,    37.08217,-0.26416,0.92951,,
291.788,18.8445,-0.38571,1.20663,    37.69306,-0.27165,0.92894,,
292.888,18.8778,-0.395,1.20326,    38.30579,-0.27922,0.92837,,
293.988,18.91074,-0.40418,1.19975,    38.91389,-0.27865,0.9278,,
295.088,18.9439,-0.41275,1.19535,    39.52675,-0.27114,0.92724,,
296.188,18.9773,-0.42241,1.19085,    40.14516,-0.31434,0.92667,,
297.288,19.01093,-0.43358,1.18759,    40.76837,-0.34563,0.9261,,
298.388,19.04419,-0.44592,1.18066,    41.38400,-0.36497,0.92554,,
299.488,19.07751,-0.45906,1.178,    42.00248,-0.36485,0.92498,,
300.588,19.1108,-0.46953,1.16981,    42.61993,-0.33632,0.92441,,
301.688,19.1441,-0.48036,1.16837,    43.23766,-0.35755,0.92385,,
302.788,19.17744,-0.4933,1.16446,    43.85751,-0.36008,0.92329,,
303.888,19.2108,-0.50474,1.15858,    44.47906,-0.36795,0.92273,,
304.988,19.2441,-0.51831,1.15475,    45.09889,-0.39895,0.92217,,
306.088,19.27749,-0.53192,1.15066,    45.71959,-0.40104,0.92161,,
307.188,19.31081,-0.54465,1.14809,    46.34150,-0.42021,0.92105,,
308.288,19.34411,-0.55891,1.14447,    46.96432,-0.44962,0.92049,,
309.388,19.37744,-0.57427,1.14274,    47.58856,-0.47316,0.91993,,
310.488,19.41082,-0.59068,1.13989,    48.21746,-0.48366,0.91938,,
311.588,19.44417,-0.6075,1.1395,    48.84695,-0.46746,0.91882,,
312.688,19.47743,-0.62218,1.13626,    49.47767,-0.46102,0.91826,,
313.788,19.51081,-0.63806,1.13447,    50.11403,-0.49673,0.91771,,
314.888,19.5442,-0.65432,1.13486,    50.75317,-0.50124,0.91715,,
315.988,19.57755,-0.67112,1.13384,    51.39736,-0.51889,0.9166,,
317.088,19.61083,-0.68904,1.13392,    52.04286,-0.54981,0.91605,,
318.188,19.64422,-0.70879,1.13551,    52.69642,-0.5616,0.91549,,
319.288,19.67766,-0.72754,1.13739,    53.35559,-0.56073,0.91494,,
320.388,19.71104,-0.74575,1.13823,    54.01952,-0.57996,0.91439,,
321.488,19.7444,-0.76476,1.13912,    54.68789,-0.61037,0.91384,,
322.588,19.77778,-0.7863,1.14189,    55.36189,-0.62638,0.91329,,
323.688,19.81117,-0.80687,1.14231,    56.04245,-0.60856,0.91274,,
324.788,19.84461,-0.82787,1.14422,    56.72840,-0.62882,0.91219,,
325.888,19.87805,-0.85015,1.14708,    57.42159,-0.65174,0.91164,,
326.988,19.9115,-0.87096,1.14533,    58.11905,-0.65145,0.91109,,
328.088,19.9449,-0.89226,1.14979,    58.82277,-0.65917,0.91054,,
329.188,19.97845,-0.91441,1.15103,    59.53593,-0.68266,0.90999,,
330.288,20.01199,-0.93829,1.15247,    60.25341,-0.71866,0.90944,,
331.388,20.0455,-0.96358,1.15365,    60.97537,-0.71653,0.9089,,
332.488,20.07882,-0.98791,1.15723,    61.70184,-0.7014,0.90835,,
333.588,20.11233,-1.0103,1.15593,    62.43570,-0.72118,0.9078,,
334.688,20.14602,-1.03433,1.1578,    63.17848,-0.75652,0.90726,,
335.788,20.1796,-1.06,1.15672,    63.92281,-0.79736,0.90671,,
336.888,20.2131,-1.08763,1.15932,    64.67073,-0.80596,0.90617,,
337.988,20.24662,-1.1155,1.16008,    65.42454,-0.81127,0.90562,,
339.088,20.28014,-1.14372,1.15792,    66.18253,-0.82462,0.90508,,
340.188,20.31381,-1.17121,1.15864,    66.94801,-0.83059,0.90453,,
341.288,20.34733,-1.19787,1.15628,    67.71362,-0.84512,0.90399,,
342.388,20.3809,-1.22655,1.15712,    68.48371,-0.85449,0.90344,,
343.488,20.41445,-1.25506,1.15658,    69.25638,-0.85959,0.9029,,
344.588,20.448,-1.28511,1.15431,    70.03227,-0.88201,0.90236,,
345.688,20.48167,-1.31613,1.15228,    70.81533,-0.90203,0.90182,,
346.788,20.51533,-1.34688,1.15204,    71.60080,-0.92918,0.90127,,
347.888,20.54901,-1.37694,1.14851,    72.38902,-0.92376,0.90073,,
348.988,20.58265,-1.40736,1.14591,    73.17797,-0.93168,0.90019,,
350.088,20.61636,-1.4393,1.14016,    73.96841,-0.95934,0.89965,,
351.188,20.65004,-1.4726,1.13675,    74.75874,-0.98145,0.89911,,
352.288,20.6837,-1.50701,1.13211,    75.55083,-0.98574,0.89857,,
353.388,20.7174,-1.54071,1.12794,    76.34320,-0.99148,0.89802,,
354.488,20.75114,-1.57284,1.12387,    77.13843,-0.99427,0.89748,,
355.588,20.78496,-1.60572,1.11808,    77.93508,-1.00115,0.89694,,
356.688,20.81874,-1.6396,1.11481,    78.73223,-1.01385,0.8964,,
357.788,20.85247,-1.67449,1.10784,    79.52606,-1.03095,0.89586,,
358.888,20.8862,-1.71054,1.0974,    80.31777,-1.028,0.89532,,
359.988,20.91995,-1.746,1.08422,    81.10653,-1.02506,0.89478,,
361.088,20.95373,-1.77998,1.07804,    81.89027,-1.03185,0.89424,,
362.188,20.98742,-1.81316,1.06347,    82.66622,-1.05532,0.8937,,
363.288,21.02127,-1.84936,1.04748,    83.43780,-1.05018,0.89316,,
364.388,21.05516,-1.88467,1.03336,    84.20089,-1.03827,0.89263,,
365.488,21.08902,-1.92036,1.01644,    84.95444,-1.00771,0.89209,,
366.588,21.12281,-1.95474,0.99716,    85.69522,-1.01456,0.89155,,
367.688,21.1566,-1.9906,0.97638,    86.42268,-1.05039,0.89101,,
368.788,21.19035,-2.0244,0.95299,    87.13508,-1.01527,0.89047,,
369.888,21.22403,-2.05632,0.9289,    87.82829,-0.96463,0.88993,,
370.988,21.25785,-2.08924,0.90227,    88.50720,-0.96686,0.88939,,
372.088,21.29179,-2.12234,0.87401,    89.16993,-0.93674,0.88885,,
373.188,21.3257,-2.15408,0.84298,    89.81034,-0.89684,0.88831,,
374.288,21.3595,-2.18491,0.81308,    90.42766,-0.88236,0.88778,,
375.388,21.39324,-2.21353,0.77966,    91.02101,-0.85714,0.88724,,
376.488,21.42715,-2.24113,0.74985,    91.59483,-0.84206,0.8867,,
377.588,21.46098,-2.26945,0.7168,    92.14299,-0.82358,0.88616,,
378.688,21.4949,-2.29689,0.68283,    92.66874,-0.79165,0.88562,,
379.788,21.52884,-2.32371,0.6509,    93.17015,-0.75945,0.88508,,
380.888,21.5627,-2.34988,0.61618,    93.64618,-0.72758,0.88454,,
381.988,21.59658,-2.374,0.58454,    94.09754,-0.69016,0.884,,
383.088,21.6305,-2.39564,0.55204,    94.52660,-0.6293,0.88347,,
384.188,21.66449,-2.41553,0.51866,    94.93301,-0.56136,0.88293,,
385.288,21.69847,-2.43328,0.48748,    95.31502,-0.50702,0.88239,,
386.388,21.73239,-2.45047,0.45595,    95.67488,-0.55197,0.88185,,
387.488,21.76632,-2.47115,0.42881,    96.01217,-0.55325,0.88131,,
388.588,21.80029,-2.48907,0.40115,    96.32964,-0.48216,0.88077,,
389.688,21.8342,-2.50398,0.37332,    96.62704,-0.43208,0.88023,,
390.788,21.86835,-2.51745,0.34639,    96.90732,-0.39552,0.87969,,
391.888,21.90221,-2.53021,0.32211,    97.16774,-0.35856,0.87915,,
392.988,21.93625,-2.5417,0.29927,    97.41303,-0.3306,0.87861,,
394.088,21.97032,-2.55304,0.27494,    97.64224,-0.32571,0.87807,,
395.188,22.00457,-2.56463,0.25312,    97.85768,-0.289,0.87753,,
396.288,22.0386,-2.5731,0.2271,    98.05536,-0.2345,0.87699,,
397.388,22.0726,-2.58082,0.2074,    98.23838,-0.22984,0.87645,,
398.488,22.10665,-2.58867,0.18694,    98.40760,-0.22963,0.87591,,
399.588,22.14079,-2.59648,0.16957,    98.56543,-0.21179,0.87537,,
400.688,22.175,-2.60278,0.15202,    98.71115,-0.18751,0.87483,,
401.788,22.20919,-2.60856,0.13521,    98.84727,-0.16315,0.87429,,
402.888,22.2434,-2.61451,0.11788,    98.97332,-0.17473,0.87374,,
403.988,22.2776,-2.6202,0.10401,    99.09017,-0.17606,0.8732,,
405.088,22.31175,-2.62624,0.08889798,    99.19812,-0.16089,0.87266,,
406.188,22.34596,-2.63163,0.07494097,    99.29747,-0.15898,0.87212,,
407.288,22.38024,-2.63704,0.05835421,    99.38916,-0.15422,0.87158,,
408.388,22.4145,-2.64223,0.04517895,    99.47142,-0.14682,0.87103,,
409.488,22.44864,-2.647,0.032907,    99.54676,-0.13058,0.87049,,
410.588,22.48281,-2.65113,0.01947176,    99.61481,-0.12885,0.86995,,
411.688,22.51724,-2.65652,0.004498932,    99.67649,-0.14383,0.8694,,
412.788,22.55153,-2.66062,-0.008355757,    99.73053,-0.11153,0.86886,,
413.888,22.5858,-2.66364,-0.02141152,    99.77811,-0.0922037,0.86831,,
414.988,22.6201,-2.66735,-0.02986459,    99.82005,-0.1182,0.86777,,
416.088,22.65447,-2.67188,-0.04205877,    99.85693,-0.13903,0.86722,,
417.188,22.6888,-2.67649,-0.05270409,    99.88879,-0.137,0.86668,,
418.288,22.72309,-2.68171,-0.06234782,    99.91547,-0.13549,0.86613,,
419.388,22.75737,-2.68558,-0.07447032,    99.93896,-0.11424,0.86559,,
420.488,22.79145,-2.68946,-0.0843223,    99.95554,-0.07040118,0.86504,,
421.588,22.82582,-2.69106,-0.09292624,    99.96910,-0.07063781,0.86449,,
422.688,22.8603,-2.69392,-0.1003,    99.98062,-0.15739,0.86394,,
423.788,22.89491,-2.70171,-0.10965,    99.98812,-0.1893,0.8634,,
424.888,22.92936,-2.70663,-0.11602,    99.99435,-0.12191,0.86285,,
425.988,22.96378,-2.70984,-0.12424,    99.99785,-0.08946881,0.8623,,
427.088,22.99812,-2.71335,-0.13104,    99.99982,-0.12112,0.86175,,
428.188,23.03252,-2.71836,-0.13559,   100,-0.12349,0.8612,,
429.288,23.06703,-2.72175,-0.14055,   100,-0.11476,0.86065,,
430.388,23.10148,-2.72626,-0.14693,            ,-0.10941,0.8601,,
431.488,23.13597,-2.72952,-0.15094,            ,-0.08669891,0.85955,,
432.588,23.17042,-2.7322,-0.15559,            ,-0.08306961,0.859,,
433.688,23.20489,-2.73527,-0.1595,            ,-0.09705944,0.85844,,
434.788,23.23938,-2.73844,-0.16113,            ,-0.11466,0.85789,,
435.888,23.27386,-2.74328,-0.16578,            ,-0.12115,0.85734,,
436.988,23.30835,-2.74707,-0.1661,            ,-0.11187,0.85678,,
438.088,23.34285,-2.75077,-0.16443,            ,-0.08549554,0.85623,,
439.188,23.37741,-2.75315,-0.16545,            ,-0.0877863,0.85567,,
440.288,23.41199,-2.75668,-0.16501,            ,-0.10282,0.85512,,
441.388,23.44655,-2.76039,-0.16606,            ,-0.09818044,0.85456,,
442.488,23.48111,-2.76345,-0.16123,            ,-0.10973,0.85401,,
443.588,23.51578,-2.76798,-0.16031,            ,-0.12197,0.85345,,
444.688,23.55045,-2.77163,-0.15856,            ,-0.11509,0.85289,,
445.788,23.58512,-2.7757,-0.15471,            ,-0.11123,0.85233,,
446.888,23.61982,-2.77993,-0.15214,            ,-0.11125,0.85177,,
447.988,23.65448,-2.78359,-0.14793,            ,-0.13081,0.85121,,
449.088,23.68921,-2.788,-0.14407,            ,-0.10472,0.85065,,
450.188,23.72396,-2.79132,-0.13994,            ,-0.08005005,0.85009,,
451.288,23.75871,-2.79387,-0.13372,            ,-0.08373994,0.84953,,
452.388,23.79346,-2.79727,-0.12892,            ,-0.09735871,0.84897,,
453.488,23.82819,-2.80093,-0.12581,            ,-0.08737177,0.84841,,
454.588,23.86297,-2.8029,-0.12039,            ,-0.07390922,0.84784,,
455.688,23.89776,-2.80606,-0.11216,            ,-0.09428155,0.84728,,
456.788,23.9326,-2.80965,-0.10389,            ,-0.10767,0.84671,,
457.888,23.96748,-2.81327,-0.09868589,            ,-0.10495,0.84615,,
458.988,24.00232,-2.81701,-0.09213935,            ,-0.10024,0.84558,,
460.088,24.03721,-2.82043,-0.08493067,            ,-0.0791808,0.84502,,
461.188,24.07199,-2.82232,-0.07762859,            ,-0.0708124,0.84445,,
462.288,24.10689,-2.82554,-0.07035238,            ,-0.08034731,0.84388,,
463.388,24.1418,-2.82778,-0.06205791,            ,-0.07488009,0.84331,,
464.488,24.17673,-2.83104,-0.0575573,            ,-0.08619958,0.84274,,
465.588,24.21163,-2.83374,-0.04786713,            ,-0.08063652,0.84217,,
466.688,24.2466,-2.83641,-0.04191768,            ,-0.06509133,0.8416,,
467.788,24.28156,-2.83819,-0.03579506,            ,-0.05623065,0.84103,,
468.888,24.31652,-2.84036,-0.02650734,            ,-0.06298402,0.84045,,
469.988,24.35136,-2.84302,-0.02357962,            ,-0.07681061,0.83988,,
471.088,24.3863,-2.84556,-0.01413393,            ,-0.06893638,0.8393,,
472.188,24.42129,-2.84807,-0.008789662,            ,-0.08080684,0.83873,,
473.288,24.45647,-2.85076,-0.001111367,            ,-0.08090043,0.83815,,
474.388,24.49156,-2.85395,0.006895076,            ,-0.06410341,0.83758,,
475.488,24.5266,-2.8559,0.01170509,            ,-0.05552728,0.837,,
476.588,24.5616,-2.8575,0.01796162,            ,-0.06156327,0.83642,,
477.688,24.59664,-2.85993,0.02052475,            ,-0.09190336,0.83584,,
478.788,24.63177,-2.86372,0.02604417,            ,-0.0744452,0.83526,,
479.888,24.6668,-2.86495,0.03052758,            ,-0.05469928,0.83468,,
480.988,24.7018,-2.86798,0.03549322,            ,-0.08677499,0.83409,,
482.088,24.73682,-2.8713,0.03999266,            ,-0.08254577,0.83351,,
483.188,24.77186,-2.87399,0.04468117,            ,-0.07203899,0.83293,,
484.288,24.807,-2.87605,0.05051275,            ,-0.09237892,0.83234,,
485.388,24.84211,-2.88037,0.05344247,            ,-0.06850707,0.83176,,
486.488,24.87716,-2.88136,0.05715699,            ,-0.02770916,0.83117,,
487.588,24.91226,-2.88146,0.05734412,            ,-0.03644552,0.83058,,
488.688,24.94734,-2.88371,0.06253562,            ,-0.06766728,0.82999,,
489.788,24.98248,-2.88634,0.06581613,            ,-0.05477652,0.8294,,
490.888,25.01764,-2.888,0.06898877,            ,-0.03237207,0.82881,,
491.988,25.05278,-2.88849,0.06713053,            ,-0.01925828,0.82822,,
493.088,25.08792,-2.88978,0.07328813,            ,-0.03329191,0.82763,,
494.188,25.12314,-2.89117,0.07807281,            ,-0.04076297,0.82704,,
495.288,25.15835,-2.89269,0.07978785,            ,-0.04425127,0.82644,,
496.388,25.19359,-2.89432,0.07819532,            ,-0.0579459,0.82585,,
497.488,25.22883,-2.89604,0.08119753,            ,-0.0572684,0.82525,,
498.588,25.26399,-2.89804,0.08140451,            ,-0.05028744,0.82465,,
499.688,25.29924,-2.89945,0.08365445,            ,-0.03896138,0.82406,,
500.788,25.33448,-2.9007,0.08524539,            ,-0.04911432,0.82346,,
501.888,25.36976,-2.90353,0.08836452,            ,-0.05839264,0.82286,,
502.988,25.40506,-2.90454,0.08948413,            ,-0.04053403,0.82225,,
504.088,25.44035,-2.906,0.09120729,            ,-0.05695896,0.82165,,
505.188,25.47559,-2.90899,0.09315993,            ,-0.06793064,0.82105,,
506.288,25.51089,-2.91103,0.09360755,            ,-0.0602548,0.82044,,
507.388,25.54617,-2.91261,0.09524749,            ,-0.04632358,0.81984,,
508.488,25.58151,-2.91414,0.09517203,            ,-0.05092875,0.81923,,
509.588,25.61691,-2.91688,0.09753715,            ,-0.05062601,0.81862,,
510.688,25.6522,-2.91842,0.0984236,            ,-0.04229444,0.81802,,
511.788,25.68755,-2.91983,0.09752719,            ,-0.03580606,0.81741,,
512.888,25.7229,-2.9207,0.09757218,            ,-0.03512232,0.8168,,
513.988,25.75836,-2.92164,0.09772774,            ,-0.03049256,0.81618,,
515.088,25.79375,-2.92269,0.09922773,            ,-0.01408397,0.81557,,
516.188,25.82914,-2.92335,0.10103,            ,-0.03009506,0.81496,,
517.288,25.8645,-2.92449,0.10182,            ,-0.04232324,0.81434,,
518.388,25.89987,-2.9266,0.10084,            ,-0.05664566,0.81372,,
519.488,25.93521,-2.92868,0.10357,            ,-0.05615247,0.81311,,
520.588,25.97072,-2.93008,0.10512,            ,-0.0508663,0.81249,,
521.688,26.00618,-2.93228,0.10643,            ,-0.06106055,0.81187,,
522.788,26.04169,-2.93484,0.10799,            ,-0.06361272,0.81125,,
523.888,26.07712,-2.93669,0.10686,            ,-0.07088398,0.81063,,
524.988,26.11254,-2.93979,0.10804,            ,-0.06358007,0.81,,
526.088,26.14807,-2.94136,0.10557,            ,-0.03972254,0.80938,,
527.188,26.18362,-2.943,0.10655,            ,-0.03843565,0.80875,,
528.288,26.21925,-2.94419,0.10514,            ,-0.02582658,0.80813,,
529.388,26.25491,-2.94414,0.10746,            ,-0.02296604,0.8075,,
530.488,26.2906,-2.94548,0.10514,            ,-0.03341084,0.80687,,
531.588,26.3261,-2.94697,0.10452,            ,-0.02594492,0.80624,,
532.688,26.3617,-2.94715,0.10662,            ,-0.0390802,0.80561,,
533.788,26.39725,-2.94927,0.10585,            ,-0.04339268,0.80497,,
534.888,26.43283,-2.95035,0.10636,            ,-0.0205605,0.80434,,
535.988,26.46848,-2.95163,0.10831,            ,-0.0281006,0.8037,,
537.088,26.50415,-2.95215,0.10824,            ,-0.04144775,0.80307,,
538.188,26.53973,-2.95445,0.108,            ,-0.05892637,0.80243,,
539.288,26.5753,-2.95659,0.1105,            ,-0.04411581,0.80179,,
540.388,26.61089,-2.95783,0.10989,            ,-0.02535145,0.80115,,
541.488,26.64671,-2.95771,0.11124,            ,-0.0307081,0.80051,,
542.588,26.6825,-2.95953,0.11125,            ,-0.06448841,0.79987,,
543.688,26.71821,-2.96349,0.10972,            ,-0.07525393,0.79922,,
544.788,26.7538,-2.96512,0.11003,            ,-0.03142359,0.79858,,
545.888,26.78945,-2.96502,0.10766,            ,-0.02316953,0.79793,,
546.988,26.82508,-2.96632,0.10932,            ,-0.01379032,0.79728,,
548.088,26.86089,-2.96634,0.10547,            ,-0.002006417,0.79664,,
549.188,26.89668,-2.96629,0.1074,            ,-0.02252021,0.79599,,
550.288,26.9324,-2.96758,0.1076,            ,-0.03744577,0.79533,,
551.388,26.96815,-2.9692,0.10779,            ,-0.03360415,0.79468,,
552.488,27.00382,-2.97056,0.10686,            ,-0.02101472,0.79403,,
553.588,27.03945,-2.97051,0.1057,            ,-0.02020797,0.79337,,
554.688,27.07521,-2.97194,0.10838,            ,-0.04756765,0.79271,,
555.788,27.11102,-2.9736,0.10664,            ,-0.05396192,0.79206,,
556.888,27.1468,-2.97584,0.11006,            ,-0.04752602,0.7914,,
557.988,27.18253,-2.97728,0.10753,            ,-0.04247262,0.79074,,
559.088,27.21823,-2.97865,0.11366,            ,-0.04445846,0.79007,,
560.188,27.254,-2.98072,0.12098,            ,-0.03921887,0.78941,,
561.288,27.28985,-2.98143,0.12504,            ,-0.03505762,0.78875,,
562.388,27.3256,-2.98303,0.13277,            ,-0.03872886,0.78808,,
563.488,27.3615,-2.98443,0.13755,            ,-0.02315172,0.78741,,
564.588,27.3972,-2.98429,0.14332,            ,-0.009702143,0.78674,,
565.688,27.43298,-2.98554,0.14899,            ,-0.02297788,0.78607,,
566.788,27.4689,-2.98618,0.15238,            ,-0.02580335,0.7854,,
567.888,27.50477,-2.98686,0.15588,            ,-0.005764565,0.78473,,
568.988,27.5406,-2.98687,0.15675,            ,0.005165813,0.78406,,
570.088,27.57641,-2.98653,0.15999,            ,-0.004332037,0.78338,,
571.188,27.6122,-2.98746,0.16329,            ,-0.03183186,0.7827,,
572.288,27.64803,-2.98852,0.16146,            ,-0.03460215,0.78202,,
573.388,27.6839,-2.9897,0.16547,            ,-0.03633167,0.78134,,
574.488,27.71987,-2.99074,0.16478,            ,-0.03719505,0.78066,,
575.588,27.7559,-2.99223,0.16852,            ,-0.04004243,0.77998,,
576.688,27.79192,-2.99367,0.16941,            ,-0.03582114,0.7793,,
577.788,27.8279,-2.99498,0.17476,            ,-0.02840819,0.77861,,
578.888,27.8636,-2.9963,0.17606,            ,-0.0295666,0.77792,,
579.988,27.8996,-2.99774,0.179,            ,-0.03065318,0.77724,,
581.088,27.93559,-2.99809,0.1787,            ,-0.02812206,0.77655,,
582.188,27.9716,-2.99901,0.17808,            ,-0.02560522,0.77586,,
583.288,28.00757,-3.00037,0.17719,            ,-0.02452562,0.77516,,
584.388,28.04372,-3.00121,0.17581,            ,-0.02772476,0.77447,,
585.488,28.07987,-3.00178,0.17396,            ,-0.0117708,0.77377,,
586.588,28.11603,-3.00208,0.17227,            ,-0.04856375,0.77308,,
587.688,28.1521,-3.00453,0.16936,            ,-0.0333441,0.77238,,
588.788,28.18817,-3.00583,0.16681,            ,-0.0130437,0.77168,,
589.888,28.22428,-3.00447,0.16342,            ,0.01301833,0.77098,,
590.988,28.26045,-3.00424,0.16516,            ,0.01628473,0.77028,,
592.088,28.2966,-3.00429,0.16424,            ,-0.01120414,0.76957,,
593.188,28.3327,-3.00583,0.16406,            ,-0.04411005,0.76887,,
594.288,28.3687,-3.00818,0.16136,            ,-0.068557,0.76816,,
595.388,28.40482,-3.01009,0.16451,            ,-0.03366812,0.76745,,
596.488,28.44097,-3.01068,0.16432,            ,-0.004412424,0.76674,,
597.588,28.47715,-3.00993,0.16288,            ,-0.02388646,0.76603,,
598.688,28.51325,-3.0116,0.16446,            ,-0.04704615,0.76532,,
599.788,28.54938,-3.01332,0.16596,            ,-0.05364965,0.7646,,
600.888,28.58551,-3.01527,0.16657,            ,-0.01832745,0.76389,,
601.988,28.62165,-3.01546,0.16327,            ,-0.01293831,0.76317,,
603.088,28.65785,-3.01521,0.16252,            ,0.01315067,0.76245,,
604.188,28.6941,-3.01532,0.16806,            ,0.004902061,0.76173,,
605.288,28.7302,-3.01516,0.16544,            ,0.001248756,0.76101,,
606.388,28.76635,-3.01516,0.16554,            ,-8.349284e-07,0.76028,,
607.488,28.8026,-3.01516,0.16924,            ,-0.0007296263,0.75956,,
608.588,28.83877,-3.01517,0.16696,            ,-0.01804008,0.75883,,
609.688,28.8749,-3.0165,0.16599,            ,-0.03226956,0.75811,,
610.788,28.9111,-3.0178,0.16616,            ,-0.03070341,0.75738,,
611.888,28.9473,-3.01916,0.17038,            ,-0.0405354,0.75665,,
612.988,28.9835,-3.02072,0.17021,            ,-0.03565749,0.75591,,
614.088,29.0197,-3.02088,0.17192,            ,-0.04749841,0.75518,,
615.188,29.05599,-3.02346,0.17504,            ,-0.0317182,0.75444,,
616.288,29.09225,-3.0244,0.17238,            ,-0.02523103,0.75371,,
617.388,29.12844,-3.02481,0.17326,            ,-0.02003813,0.75297,,
618.488,29.16468,-3.02617,0.17365,            ,-0.01922168,0.75223,,
619.588,29.20099,-3.02612,0.17324,            ,-0.00704383,0.75149,,
620.688,29.23732,-3.02693,0.17526,            ,-0.02515836,0.75074,,
621.788,29.2736,-3.02745,0.17734,            ,-0.01746773,0.75,,
622.888,29.30987,-3.02877,0.17947,            ,-0.02184178,0.74925,,
623.988,29.34618,-3.02875,0.18083,            ,0.001718172,0.74851,,
625.088,29.3825,-3.02812,0.17891,            ,0.001969741,0.74776,,
626.188,29.4189,-3.02876,0.1807,            ,-0.00993133,0.74701,,
627.288,29.45525,-3.0291,0.18196,            ,-0.02451366,0.74625,,
628.388,29.49152,-3.03008,0.18526,            ,-0.01474361,0.7455,,
629.488,29.5278,-3.03091,0.18168,            ,-0.03363547,0.74475,,
630.588,29.56403,-3.03179,0.18765,            ,-0.0332893,0.74399,,
631.688,29.60047,-3.03309,0.18713,            ,-0.03277101,0.74323,,
632.788,29.63685,-3.03434,0.19027,            ,-0.01140786,0.74247,,
633.888,29.67316,-3.03434,0.19268,            ,-0.01509487,0.74171,,
634.988,29.7094,-3.03566,0.19275,            ,0.004611144,0.74095,,
636.088,29.74573,-3.03436,0.19165,            ,0.00713057,0.74018,,
637.188,29.7821,-3.03458,0.19507,            ,-0.02496807,0.73942,,
638.288,29.8184,-3.03568,0.19797,            ,-0.02583164,0.73865,,
639.388,29.8547,-3.03701,0.19969,            ,-0.03095668,0.73788,,
640.488,29.89115,-3.03834,0.19944,            ,-0.03909236,0.73711,,
641.588,29.92745,-3.03977,0.20188,            ,-0.03565515,0.73634,,
642.688,29.96378,-3.04114,0.20201,            ,-0.0253458,0.73556,,
643.788,30.00011,-3.0411,0.20326,            ,-0.02549286,0.73479,,
644.888,30.0365,-3.04236,0.206,            ,-0.009249325,0.73401,,
645.988,30.07292,-3.04236,0.2028,            ,-0.000123552,0.73323,,
647.088,30.10935,-3.04236,0.20855,            ,-0.009378237,0.73245,,
648.188,30.1458,-3.04352,0.20575,            ,-0.02369032,0.73167,,
649.288,30.1821,-3.04368,0.20806,            ,-0.002374584,0.73088,,
650.388,30.2184,-3.04336,0.21249,            ,-0.009429732,0.7301,,
651.488,30.25475,-3.04432,0.21464,            ,-0.00904986,0.72931,,
652.588,30.2912,-3.04433,0.21237,            ,0.001176386,0.72853,,
653.688,30.32759,-3.04438,0.21174,            ,0.004620215,0.72774,,
654.788,30.364,-3.04472,0.2174,            ,-0.00252022,0.72694,,
655.888,30.4004,-3.04367,0.21529,            ,-0.003565225,0.72615,,
656.988,30.43685,-3.04501,0.21515,            ,-0.02495748,0.72536,,
658.088,30.47327,-3.04597,0.21838,            ,-0.02496948,0.72456,,
659.188,30.50967,-3.0463,0.21822,            ,-0.008245298,0.72376,,
660.288,30.54607,-3.04671,0.21985,            ,-0.02682554,0.72297,,
661.388,30.5825,-3.04765,0.21946,            ,-0.02992045,0.72216,,
662.488,30.6189,-3.04893,0.22439,            ,-0.0159452,0.72136,,
663.588,30.65533,-3.04952,0.22374,            ,-0.02503334,0.72056,,
664.688,30.6918,-3.05025,0.22353,            ,-0.00623623,0.71975,,
665.788,30.72825,-3.05025,0.22579,            ,-0.00162307,0.71895,,
666.888,30.76472,-3.05015,0.22574,            ,-0.02150403,0.71814,,
667.988,30.8012,-3.05157,0.2265,            ,-0.01290168,0.71733,,
669.088,30.8377,-3.05157,0.22587,            ,-0.001353416,0.71652,,
670.188,30.87398,-3.05152,0.22462,            ,-0.01931511,0.7157,,
671.288,30.9105,-3.05287,0.22287,            ,-0.01700207,0.71489,,
672.388,30.94687,-3.05279,0.2245,            ,-0.01047967,0.71407,,
673.488,30.98341,-3.05279,0.22363,            ,0.01015627,0.71325,,
674.588,31.0199,-3.05289,0.22426,            ,0.00150713,0.71244,,
675.688,31.0564,-3.05289,0.22167,            ,-0.006154604,0.71161,,
676.788,31.093,-3.05361,0.21699,            ,-0.03193085,0.71079,,
677.888,31.1294,-3.05522,0.2181,            ,-0.0296979,0.70997,,
678.988,31.1659,-3.05552,0.21634,            ,-0.01616461,0.70914,,
680.088,31.20226,-3.05692,0.21708,            ,-0.02278484,0.70831,,
681.188,31.2387,-3.05684,0.21511,            ,-0.01492579,0.70749,,
682.288,31.27535,-3.05757,0.21391,            ,-0.00389761,0.70666,,
683.388,31.31196,-3.05824,0.21456,            ,-0.01670871,0.70582,,
684.488,31.34843,-3.05815,0.21139,            ,-0.001940751,0.70499,,
685.588,31.385,-3.05815,0.21356,            ,-0.003407578,0.70415,,
686.688,31.4215,-3.05833,0.21341,            ,-0.02493655,0.70332,,
687.788,31.458,-3.05948,0.21034,            ,-0.02627127,0.70248,,
688.888,31.49452,-3.06078,0.20893,            ,-0.03568927,0.70164,,
689.988,31.53102,-3.06208,0.20895,            ,-0.017441,0.7008,,
691.088,31.5676,-3.0621,0.20675,            ,-0.000241959,0.69996,,
692.188,31.60417,-3.06208,0.2056,            ,0.01433805,0.69911,,
693.288,31.64078,-3.06078,0.20539,            ,0.01420104,0.69826,,
694.388,31.67728,-3.06159,0.20184,            ,-0.02354063,0.69742,,
695.488,31.7139,-3.0621,0.20335,            ,-0.00759241,0.69657,,
696.588,31.75054,-3.06215,0.20128,            ,-0.02332202,0.69572,,
697.688,31.7871,-3.06343,0.1998,            ,-0.02532126,0.69486,,
698.788,31.82361,-3.06479,0.19847,            ,-0.01527204,0.69401,,
699.888,31.86018,-3.06432,0.19602,            ,0.01386136,0.69316,,
700.988,31.89682,-3.06445,0.19098,            ,-0.009636318,0.6923,,
702.088,31.93344,-3.0644,0.19457,            ,-0.0009713636,0.69144,,
703.188,31.97,-3.0644,0.19367,            ,2.435214e-05,0.69058,,
704.288,32.00657,-3.0644,0.19325,            ,0.00490597,0.68972,,
705.388,32.04316,-3.06364,0.19106,            ,0.00605592,0.68886,,
706.488,32.07978,-3.06407,0.18867,            ,-0.009984685,0.68799,,
707.588,32.1165,-3.06518,0.18751,            ,-0.02207857,0.68712,,
708.688,32.1533,-3.06513,0.18365,            ,0.00205105,0.68626,,
709.788,32.19,-3.06579,0.18315,            ,-0.01225521,0.68539,,
710.888,32.22661,-3.06466,0.18112,            ,-0.0027534,0.68452,,
711.988,32.2633,-3.06613,0.17803,            ,0.011236,0.68364,,
713.088,32.30001,-3.06473,0.18059,            ,0.001532752,0.68277,,
714.188,32.3365,-3.06597,0.17885,            ,-0.05860735,0.68189,,
715.288,32.3732,-3.06887,0.17738,            ,-0.04511038,0.68102,,
716.388,32.40996,-3.06984,0.17817,            ,-0.0267376,0.68014,,
717.488,32.44681,-3.07011,0.1761,            ,-0.01666022,0.67926,,
718.588,32.48352,-3.07153,0.17464,            ,-0.02168464,0.67838,,
719.688,32.52022,-3.07144,0.1762,            ,-0.01480433,0.67749,,
720.788,32.55696,-3.07293,0.17273,            ,-0.02698252,0.67661,,
721.888,32.59373,-3.07291,0.16931,            ,-0.01900458,0.67572,,
722.988,32.63033,-3.07422,0.17155,            ,0.009113935,0.67484,,
724.088,32.66702,-3.07286,0.1625,            ,0.01389424,0.67395,,
725.188,32.7038,-3.0728,0.16214,            ,0.0234566,0.67306,,
726.288,32.7406,-3.07153,0.15906,            ,0.009922665,0.67216,,
727.388,32.77745,-3.07153,0.16117,            ,4.487371e-05,0.67127,,
728.488,32.81418,-3.07153,0.15731,            ,-0.006402044,0.67038,,
729.588,32.85087,-3.07233,0.15494,            ,-0.02472588,0.66948,,
730.688,32.88754,-3.07285,0.15271,            ,-0.004794105,0.66858,,
731.788,32.92423,-3.07285,0.14843,            ,-0.000436124,0.66768,,
732.888,32.96103,-3.07285,0.14837,            ,-0.01561832,0.66678,,
733.988,32.99779,-3.07418,0.14477,            ,-0.02721808,0.66588,,
735.088,33.03451,-3.07524,0.14253,            ,-0.02695557,0.66497,,
736.188,33.07132,-3.07549,0.14171,            ,-0.02796307,0.66407,,
737.288,33.10812,-3.07692,0.14178,            ,-0.02986566,0.66316,,
738.388,33.14493,-3.07823,0.1416,            ,-0.01688601,0.66225,,
739.488,33.18177,-3.07822,0.13747,            ,0.0154593,0.66134,,
740.588,33.21849,-3.0769,0.13166,            ,0.01820661,0.66043,,
741.688,33.25519,-3.07692,0.12962,            ,-0.003745746,0.65952,,
742.788,33.29204,-3.07742,0.1276,            ,0.0008419262,0.65861,,
743.888,33.32888,-3.07691,0.12244,            ,-0.01859094,0.65769,,
744.988,33.36567,-3.07821,0.12242,            ,-0.0125052,0.65677,,
746.088,33.40248,-3.07815,0.12393,            ,-0.007489086,0.65585,,
747.188,33.4391,-3.0791,0.12341,            ,-0.01658719,0.65493,,
748.288,33.47588,-3.0791,0.11833,            ,0.003008892,0.65401,,
749.388,33.5127,-3.0788,0.11654,            ,0.02901733,0.65309,,
750.488,33.54977,-3.07764,0.11328,            ,0.03220091,0.65216,,
751.588,33.58668,-3.07621,0.10981,            ,-0.01083824,0.65124,,
752.688,33.6236,-3.07757,0.10904,            ,-0.02507686,0.65031,,
753.788,33.6605,-3.07891,0.10785,            ,-0.02233809,0.64938,,
754.888,33.69741,-3.07897,0.10436,            ,-0.01401002,0.64845,,
755.988,33.73437,-3.0803,0.10321,            ,-0.03813214,0.64752,,
757.088,33.7714,-3.08205,0.10242,            ,-0.02956379,0.64659,,
758.188,33.80827,-3.08195,0.10017,            ,-0.004310186,0.64565,,
759.288,33.84513,-3.08212,0.09712019,            ,-0.01495105,0.64472,,
760.388,33.88195,-3.08273,0.09554653,            ,-0.02728495,0.64378,,
761.488,33.91885,-3.08393,0.09288883,            ,-0.00947808,0.64284,,
762.588,33.95581,-3.08393,0.09214004,            ,-5.597295e-05,0.6419,,
763.688,33.9927,-3.08393,0.09288739,            ,-0.0004762376,0.64096,,
764.788,34.02955,-3.08393,0.08982624,            ,-0.01416733,0.64002,,
765.888,34.0665,-3.08468,0.09290394,            ,-0.04891818,0.63907,,
766.988,34.1036,-3.08763,0.08933918,            ,-0.04179977,0.63813,,
768.088,34.14051,-3.08882,0.08961361,            ,0.003710487,0.63718,,
769.188,34.1775,-3.08705,0.08527742,            ,0.03736668,0.63623,,
770.288,34.21457,-3.08603,0.08662084,            ,-0.006988473,0.63528,,
771.388,34.2515,-3.08734,0.0793836,            ,-0.01966257,0.63433,,
772.488,34.28852,-3.08733,0.08002541,            ,-0.001552044,0.63338,,
773.588,34.32542,-3.0873,0.08055678,            ,-0.00782727,0.63243,,
774.688,34.36241,-3.08785,0.0780095,            ,-0.01516412,0.63147,,
775.788,34.39947,-3.08831,0.077234,            ,-0.002943351,0.63052,,
776.888,34.4364,-3.08831,0.07221674,            ,-7.57439e-05,0.62956,,
777.988,34.47337,-3.08832,0.07155761,            ,-0.003917029,0.6286,,
779.088,34.51042,-3.08863,0.06924849,            ,-0.0051148,0.62764,,
780.188,34.54744,-3.08865,0.0729769,            ,-0.01514059,0.62668,,
781.288,34.5844,-3.09001,0.06657761,            ,-0.01942594,0.62572,,
782.388,34.6213,-3.08996,0.0664309,            ,0.005017042,0.62475,,
783.488,34.65833,-3.08905,0.06749439,            ,0.02470271,0.62379,,
784.588,34.6954,-3.08865,0.0640048,            ,-0.00263554,0.62282,,
785.688,34.73234,-3.08958,0.06659529,            ,-0.03735745,0.62185,,
786.788,34.76928,-3.09127,0.06144691,            ,-0.0249258,0.62088,,
787.888,34.80624,-3.09127,0.05986121,            ,-0.003735542,0.61991,,
788.988,34.8433,-3.09131,0.06028579,            ,-0.02279192,0.61894,,
790.088,34.88033,-3.0926,0.06038675,            ,0.004931044,0.61796,,
791.188,34.9173,-3.09124,0.05779605,            ,0.02077159,0.61699,,
792.288,34.95425,-3.09088,0.05444498,            ,0.002971617,0.61601,,
793.388,34.99111,-3.09129,0.05402245,            ,-0.0113412,0.61504,,
793.588,34.99785,-3.09128,0.0542874,            ,-0.01404938,0.61486,,