File: 01_Data/Ext_Plywood/STA/N2/30K_min/Ext_Plywood_STA_N2_30KData_22253_R2.csv
##Temp./°C,Time/min,Mass loss(subtr.2)/mg,DSC(subtr.2)/(mW/mg),Integral(DSC (subtr.2), 2, 175.8..427.3°C)/%,DTG(subtr.2)/(mg/min),Sensit./(uV/mW)
48.795,10.00917,-0.08019,0.00983684,            ,-0.03073776,1.08889,,
49.895,10.62853,-0.08335885,0.06009565,            ,0.007516163,1.08796,,
50.995,10.77616,-0.08388213,0.10483,            ,-0.002394325,1.08704,,
52.095,10.88342,-0.08608203,0.14282,            ,0.001229099,1.08611,,
53.195,10.97194,-0.08518302,0.17593,            ,-0.00304241,1.08519,,
54.295,11.04959,-0.08560627,0.20884,            ,-0.03879351,1.08427,,
55.395,11.1198,-0.0888424,0.2415,            ,-0.03096063,1.08335,,
56.495,11.1843,-0.0902981,0.27019,            ,-0.009118105,1.08244,,
57.595,11.2445,-0.0893936,0.29677,            ,0.008397162,1.08152,,
58.695,11.30165,-0.08970875,0.32237,            ,-0.01345565,1.08061,,
59.795,11.35608,-0.09121514,0.34665,            ,-0.005744708,1.0797,,
60.895,11.40825,-0.08987003,0.36855,            ,0.01644663,1.0788,,
61.995,11.4589,-0.08972541,0.38761,            ,0.01251508,1.07789,,
63.095,11.50801,-0.08945759,0.41138,            ,-0.03165789,1.07699,,
64.195,11.55556,-0.09190803,0.43077,            ,-0.01812623,1.07609,,
65.295,11.60185,-0.09179923,0.44949,            ,0.0009746861,1.07519,,
66.395,11.64752,-0.09138474,0.46805,            ,0.01177675,1.07429,,
67.495,11.69242,-0.09091762,0.48599,            ,0.0148204,1.0734,,
68.595,11.73638,-0.09023777,0.5038,            ,-0.01581009,1.0725,,
69.695,11.7797,-0.0916482,0.51797,            ,-0.03192337,1.07161,,
70.795,11.82264,-0.09328555,0.53422,            ,-0.02100087,1.07072,,
71.895,11.8649,-0.09369275,0.54972,            ,0.000199084,1.06984,,
72.995,11.90664,-0.0930921,0.56655,            ,-0.01194999,1.06895,,
74.095,11.948,-0.09378592,0.58033,            ,-0.02891267,1.06807,,
75.195,11.98906,-0.09564738,0.59369,            ,-0.01804048,1.06719,,
76.295,12.02979,-0.09586685,0.60889,            ,0.00458946,1.06631,,
77.395,12.07024,-0.09499735,0.62136,            ,0.00900191,1.06544,,
78.495,12.1104,-0.09490441,0.63364,            ,-0.002087237,1.06456,,
79.595,12.15022,-0.09526487,0.64927,            ,-0.006344961,1.06369,,
80.695,12.18988,-0.09586212,0.66181,            ,-0.02369506,1.06282,,
81.795,12.22927,-0.09739449,0.67508,            ,-0.01452945,1.06195,,
82.895,12.26843,-0.09742187,0.68971,            ,-0.005126858,1.06109,,
83.995,12.30742,-0.09741506,0.70109,            ,-0.01894348,1.06022,,
85.095,12.3463,-0.09871641,0.71183,            ,-0.02316556,1.05936,,
86.195,12.3849,-0.0992425,0.72654,            ,-0.03060123,1.0585,,
87.295,12.4232,-0.10042,0.73664,            ,-0.0247461,1.05764,,
88.395,12.46151,-0.10075,0.74907,            ,-0.01606428,1.05679,,
89.495,12.49976,-0.10192,0.75783,            ,-0.0259841,1.05594,,
90.595,12.5375,-0.10301,0.76924,            ,0.009792226,1.05508,,
91.695,12.5752,-0.10247,0.77888,            ,-0.01483516,1.05423,,
92.795,12.61319,-0.10302,0.78797,            ,0.01257711,1.05339,,
93.895,12.65097,-0.10292,0.7967,            ,-0.0262003,1.05254,,
94.995,12.68858,-0.10449,0.80424,            ,-0.03044585,1.0517,,
96.095,12.7261,-0.10466,0.8124,            ,-0.03251099,1.05086,,
97.195,12.76348,-0.10663,0.81584,            ,-0.03299956,1.05002,,
98.295,12.80082,-0.10716,0.82115,            ,-0.01470206,1.04918,,
99.395,12.83785,-0.10843,0.82564,            ,-0.03056859,1.04835,,
100.495,12.87498,-0.10939,0.83025,            ,-0.04659079,1.04751,,
101.595,12.91212,-0.11072,0.83326,            ,-0.03086392,1.04668,,
102.695,12.94924,-0.1121,0.83262,            ,-0.01430601,1.04585,,
103.795,12.98638,-0.1121,0.83678,            ,-0.0008412225,1.04503,,
104.895,13.0235,-0.11209,0.83762,            ,-0.01136334,1.0442,,
105.995,13.06043,-0.11273,0.8375,            ,-0.01087745,1.04338,,
107.095,13.09732,-0.11326,0.8397,            ,-0.0242243,1.04256,,
108.195,13.13444,-0.11408,0.83462,            ,-0.009461147,1.04174,,
109.295,13.171,-0.1142,0.83272,            ,-0.03015955,1.04092,,
110.395,13.20745,-0.11622,0.82643,            ,-0.03627431,1.04011,,
111.495,13.24431,-0.11678,0.82479,            ,-0.02845102,1.0393,,
112.595,13.2815,-0.11803,0.82281,            ,-0.009233175,1.03849,,
113.695,13.3186,-0.11802,0.81632,            ,0.000341022,1.03768,,
114.795,13.35544,-0.11799,0.81007,            ,0.01525552,1.03687,,
115.895,13.39216,-0.1167,0.80526,            ,0.00802922,1.03606,,
116.995,13.42876,-0.11801,0.79822,            ,-0.02184932,1.03526,,
118.095,13.46535,-0.11804,0.79207,            ,-0.01606404,1.03446,,
119.195,13.50199,-0.11924,0.78826,            ,-0.01788275,1.03366,,
120.295,13.53861,-0.11923,0.78347,            ,-0.00577535,1.03287,,
121.395,13.57509,-0.11979,0.7759,            ,-0.02472557,1.03207,,
122.495,13.61139,-0.12054,0.77152,            ,-0.00663235,1.03128,,
123.595,13.6476,-0.12054,0.76664,            ,-0.01040466,1.03049,,
124.695,13.6839,-0.12159,0.75816,            ,-0.01780627,1.0297,,
125.795,13.7201,-0.12188,0.75608,            ,-0.01174035,1.02891,,
126.895,13.7563,-0.12228,0.75012,            ,-0.02535357,1.02813,,
127.995,13.79241,-0.12318,0.74584,            ,-0.007651963,1.02734,,
129.095,13.8283,-0.12318,0.74295,            ,-0.01398144,1.02656,,
130.195,13.8643,-0.12461,0.73918,            ,-0.02918696,1.02578,,
131.295,13.9002,-0.12514,0.73772,            ,-0.0110219,1.025,,
132.395,13.936,-0.12515,0.73411,            ,-0.0004451436,1.02423,,
133.495,13.9718,-0.12515,0.73445,            ,7.054557e-05,1.02346,,
134.595,14.0076,-0.12515,0.73213,            ,0.009618765,1.02268,,
135.695,14.0432,-0.12394,0.73088,            ,0.0159693,1.02191,,
136.795,14.07889,-0.12449,0.73023,            ,-0.01585161,1.02115,,
137.895,14.1145,-0.12557,0.72916,            ,-0.02463394,1.02038,,
138.995,14.1501,-0.12581,0.73101,            ,-0.003783837,1.01962,,
140.095,14.18545,-0.12581,0.73143,            ,2.02408e-06,1.01885,,
141.195,14.22073,-0.12581,0.73249,            ,-0.002199743,1.01809,,
142.295,14.256,-0.12579,0.73223,            ,-0.03378375,1.01734,,
143.395,14.2913,-0.12807,0.73327,            ,-0.02828578,1.01658,,
144.495,14.32649,-0.12811,0.73712,            ,-0.003479646,1.01583,,
145.595,14.3617,-0.12813,0.73929,            ,-0.02243105,1.01507,,
146.695,14.39654,-0.12942,0.73947,            ,-0.01272901,1.01432,,
147.795,14.43126,-0.12943,0.74165,            ,-0.0002741798,1.01357,,
148.895,14.4664,-0.12943,0.74447,            ,3.433081e-07,1.01283,,
149.995,14.5018,-0.12943,0.74698,            ,2.964855e-09,1.01208,,
151.095,14.53696,-0.12943,0.75193,            ,-2.596336e-09,1.01134,,
152.195,14.57192,-0.12943,0.75278,            ,-3.259863e-07,1.0106,,
153.295,14.6068,-0.12943,0.75894,            ,-0.0005002625,1.00986,,
154.395,14.6416,-0.12942,0.76041,            ,-0.009347931,1.00912,,
155.495,14.67649,-0.13012,0.76231,            ,-0.01801482,1.00838,,
156.595,14.71136,-0.13073,0.7677,            ,-0.01028347,1.00765,,
157.695,14.7462,-0.13077,0.77102,            ,-0.01622966,1.00691,,
158.795,14.78093,-0.13207,0.77551,            ,-0.01990507,1.00618,,
159.895,14.8156,-0.13206,0.77995,            ,-0.001532119,1.00546,,
160.995,14.85035,-0.13206,0.78543,            ,-2.577703e-07,1.00473,,
162.095,14.88495,-0.13206,0.78814,            ,-0.000328485,1.004,,
163.195,14.91956,-0.13206,0.79146,            ,-0.005032257,1.00328,,
164.295,14.9542,-0.13238,0.79774,            ,-0.004063452,1.00256,,
165.395,14.98884,-0.13239,0.8031,            ,-0.000142685,1.00184,,
166.495,15.02333,-0.13239,0.80409,            ,-7.149056e-05,1.00112,,
167.595,15.0578,-0.13239,0.80988,            ,-0.008423388,1.0004,,
168.695,15.0922,-0.1333,0.8158,            ,-0.02455891,0.99969,,
169.795,15.12672,-0.13371,0.8195,            ,-0.00515819,0.99898,,
170.895,15.16115,-0.13371,0.82501,            ,-3.05162e-06,0.99826,,
171.995,15.1956,-0.13371,0.83004,            ,-0.002899258,0.99755,,
173.095,15.23,-0.13374,0.83386,            ,-0.02269915,0.99685,,
174.195,15.26435,-0.13502,0.83715,0.000000e+00,-0.01567568,0.99614,,
175.295,15.29853,-0.135,0.84298,0.000000e+00,-0.02346255,0.99544,,
176.395,15.33283,-0.13634,0.8449,1.421765e-03,-0.01138339,0.99473,,
177.495,15.36711,-0.13633,0.85005,1.125758e-02,0.00711,0.99403,,
178.595,15.40136,-0.13566,0.85571,3.010895e-02,0.006664634,0.99333,,
179.695,15.43554,-0.13579,0.86023,5.827028e-02,-0.02291114,0.99264,,
180.795,15.46964,-0.137,0.86288,9.481473e-02,-0.0110066,0.99194,,
181.895,15.5036,-0.13702,0.86859,     0.13938,-0.01421348,0.99125,,
182.995,15.5376,-0.13831,0.87377,     0.19224,-0.02195461,0.99055,,
184.095,15.57156,-0.13832,0.87857,     0.25387,-0.002469014,0.98986,,
185.195,15.60554,-0.13832,0.88398,     0.32388,-0.000699221,0.98917,,
186.295,15.63938,-0.13832,0.88916,     0.40321,-0.009852479,0.98849,,
187.395,15.67331,-0.13895,0.89263,     0.49133,-0.008324662,0.9878,,
188.495,15.7072,-0.13897,0.89998,     0.58730,-0.00378609,0.98712,,
189.595,15.7411,-0.13905,0.90105,     0.69199,-0.02545994,0.98643,,
190.695,15.77479,-0.14019,0.90746,     0.80336,-0.03661688,0.98575,,
191.795,15.8086,-0.14173,0.91125,     0.92392,-0.04428832,0.98507,,
192.895,15.8423,-0.14369,0.91724,     1.05346,-0.04004984,0.98439,,
193.995,15.87599,-0.14487,0.92056,     1.19136,-0.02554227,0.98372,,
195.095,15.90973,-0.14501,0.9255,     1.33688,-0.00821473,0.98304,,
196.195,15.9434,-0.14522,0.93007,     1.49097,-0.02544667,0.98237,,
197.295,15.9771,-0.14631,0.93595,     1.65369,-0.03094043,0.9817,,
198.395,16.01076,-0.14761,0.93683,     1.82368,-0.02650421,0.98103,,
199.495,16.04441,-0.14836,0.94323,     2.00119,-0.03155159,0.98036,,
200.595,16.07797,-0.15024,0.94846,     2.18701,-0.03837086,0.97969,,
201.695,16.1116,-0.15046,0.95005,     2.38089,-0.03265285,0.97903,,
202.795,16.14517,-0.15168,0.95337,     2.58075,-0.03938427,0.97836,,
203.895,16.1788,-0.153,0.95444,     2.78836,-0.03652634,0.9777,,
204.995,16.2124,-0.15432,0.96123,     3.00313,-0.02895689,0.97704,,
206.095,16.2459,-0.15571,0.96299,     3.22380,-0.03041147,0.97638,,
207.195,16.27944,-0.15678,0.96507,     3.45193,-0.03469112,0.97572,,
208.295,16.31298,-0.15736,0.9689,     3.68533,-0.03134894,0.97507,,
209.395,16.3465,-0.15852,0.96992,     3.92494,-0.02734667,0.97441,,
210.495,16.38,-0.15983,0.96722,     4.16989,-0.02741468,0.97376,,
211.595,16.4135,-0.16055,0.97051,     4.41884,-0.01646722,0.97311,,
212.695,16.447,-0.1604,0.97292,     4.67406,-0.02658176,0.97246,,
213.795,16.4806,-0.16179,0.97372,     4.93571,-0.04198481,0.97181,,
214.895,16.51406,-0.16343,0.97387,     5.20141,-0.04944927,0.97116,,
215.995,16.5475,-0.16495,0.97495,     5.47182,-0.04171004,0.97051,,
217.095,16.58086,-0.16623,0.97382,     5.74669,-0.03439196,0.96987,,
218.195,16.6142,-0.16808,0.97504,     6.02631,-0.03165962,0.96922,,
219.295,16.64755,-0.16814,0.97377,     6.30951,-0.02509847,0.96858,,
220.395,16.68101,-0.16942,0.97527,     6.59745,-0.0377309,0.96794,,
221.495,16.7145,-0.17107,0.9757,     6.88980,-0.04576525,0.9673,,
222.595,16.74793,-0.17257,0.97452,     7.18766,-0.0440721,0.96666,,
223.695,16.78124,-0.17393,0.97768,     7.48918,-0.05023244,0.96603,,
224.795,16.81457,-0.17556,0.97698,     7.79529,-0.05765977,0.96539,,
225.895,16.8479,-0.17756,0.977,     8.10690,-0.06208918,0.96476,,
226.995,16.8813,-0.18019,0.97577,     8.42245,-0.08527441,0.96413,,
228.095,16.91464,-0.18296,0.97799,     8.74217,-0.08449689,0.9635,,
229.195,16.948,-0.18601,0.97857,     9.06718,-0.08717591,0.96287,,
230.295,16.9814,-0.1893,0.98017,     9.39888,-0.08924888,0.96224,,
231.395,17.01473,-0.19178,0.98263,     9.73472,-0.06721301,0.96161,,
232.495,17.04802,-0.19389,0.98428,    10.07685,-0.06165777,0.96099,,
233.595,17.08129,-0.19569,0.98903,    10.42488,-0.06612789,0.96036,,
234.695,17.11466,-0.19767,0.98689,    10.77967,-0.06543496,0.95974,,
235.795,17.14799,-0.20063,0.99267,    11.13923,-0.07664956,0.95912,,
236.895,17.18136,-0.20296,0.99243,    11.50711,-0.09083748,0.9585,,
237.995,17.21453,-0.20604,0.99786,    11.87797,-0.11008,0.95788,,
239.095,17.2478,-0.21069,1.00087,    12.25779,-0.11291,0.95726,,
240.195,17.28112,-0.21352,1.00097,    12.64387,-0.08698426,0.95664,,
241.295,17.31452,-0.21643,1.00452,    13.03726,-0.08349065,0.95603,,
242.395,17.34776,-0.21907,1.00652,    13.43516,-0.07975325,0.95541,,
243.495,17.381,-0.22181,1.00816,    13.83906,-0.08261202,0.9548,,
244.595,17.4143,-0.22474,1.01328,    14.25099,-0.08530484,0.95419,,
245.695,17.44755,-0.22725,1.01486,    14.66963,-0.09129198,0.95358,,
246.795,17.4808,-0.23083,1.01715,    15.09335,-0.08918137,0.95297,,
247.895,17.51405,-0.23319,1.02088,    15.52465,-0.08491736,0.95236,,
248.995,17.5472,-0.23656,1.02275,    15.96062,-0.10219,0.95175,,
250.095,17.5804,-0.23971,1.02649,    16.40394,-0.10553,0.95114,,
251.195,17.61371,-0.24335,1.02877,    16.85526,-0.10525,0.95054,,
252.295,17.64704,-0.24698,1.02932,    17.31309,-0.13016,0.94994,,
253.395,17.6802,-0.25226,1.0317,    17.77497,-0.13525,0.94933,,
254.495,17.7134,-0.25587,1.03289,    18.24193,-0.14501,0.94873,,
255.595,17.74671,-0.2613,1.03594,    18.71702,-0.13982,0.94813,,
256.695,17.78001,-0.26553,1.03738,    19.19885,-0.13216,0.94753,,
257.795,17.81329,-0.27014,1.03917,    19.68571,-0.12714,0.94693,,
258.895,17.8465,-0.27405,1.04038,    20.17727,-0.11775,0.94634,,
259.995,17.87977,-0.27801,1.0427,    20.67434,-0.11805,0.94574,,
261.095,17.91284,-0.28191,1.04366,    21.17521,-0.13126,0.94515,,
262.195,17.9461,-0.28645,1.04541,    21.68210,-0.12615,0.94455,,
263.295,17.9792,-0.29058,1.04572,    22.19418,-0.12783,0.94396,,
264.395,18.0125,-0.29484,1.04487,    22.71321,-0.12256,0.94337,,
265.495,18.04575,-0.29863,1.04581,    23.23462,-0.11153,0.94278,,
266.595,18.07894,-0.30249,1.04772,    23.76192,-0.12094,0.94219,,
267.695,18.1122,-0.30676,1.04631,    24.29285,-0.12992,0.9416,,
268.795,18.1453,-0.31096,1.04582,    24.82630,-0.16746,0.94101,,
269.895,18.17863,-0.31804,1.04722,    25.36707,-0.20274,0.94042,,
270.995,18.2118,-0.32473,1.04518,    25.90988,-0.18155,0.93984,,
272.095,18.24503,-0.32987,1.04456,    26.45734,-0.16402,0.93925,,
273.195,18.2782,-0.33513,1.04431,    27.00723,-0.15659,0.93867,,
274.295,18.31149,-0.34093,1.04365,    27.56370,-0.16489,0.93809,,
275.395,18.3446,-0.34594,1.04339,    28.11966,-0.16154,0.93751,,
276.495,18.3779,-0.35108,1.04068,    28.68294,-0.15992,0.93692,,
277.595,18.41093,-0.3571,1.04088,    29.24406,-0.17967,0.93634,,
278.695,18.44408,-0.36287,1.0387,    29.81115,-0.19778,0.93576,,
279.795,18.47738,-0.36966,1.03871,    30.38218,-0.19321,0.93519,,
280.895,18.5108,-0.37652,1.03752,    30.95986,-0.19527,0.93461,,
281.995,18.5442,-0.38268,1.03451,    31.53917,-0.20466,0.93403,,
283.095,18.5775,-0.38949,1.03108,    32.11812,-0.20998,0.93346,,
284.195,18.6107,-0.39737,1.02887,    32.69853,-0.21129,0.93288,,
285.295,18.64385,-0.40347,1.02493,    33.28076,-0.18423,0.93231,,
286.395,18.6771,-0.40867,1.02506,    33.86557,-0.21591,0.93174,,
287.495,18.71032,-0.41806,1.02167,    34.45275,-0.32011,0.93116,,
288.595,18.74352,-0.42989,1.0176,    35.04219,-0.3174,0.93059,,
289.695,18.77678,-0.43888,1.01679,    35.63419,-0.26069,0.93002,,
290.795,18.8101,-0.44775,1.01371,    36.22910,-0.27679,0.92945,,
291.895,18.84345,-0.45782,1.00676,    36.82497,-0.27988,0.92888,,
292.995,18.87671,-0.46677,1.00426,    37.42051,-0.27598,0.92831,,
294.095,18.91,-0.47578,0.99957,    38.01718,-0.29858,0.92775,,
295.195,18.9433,-0.48603,0.99538,    38.61323,-0.30978,0.92718,,
296.295,18.97649,-0.49614,0.99203,    39.20989,-0.29105,0.92661,,
297.395,19.0097,-0.50557,0.98738,    39.80721,-0.29123,0.92605,,
298.495,19.04293,-0.51603,0.98162,    40.40420,-0.32446,0.92548,,
299.595,19.07628,-0.52794,0.97877,    41.00393,-0.35722,0.92492,,
300.695,19.10963,-0.5393,0.97409,    41.60513,-0.35219,0.92436,,
301.795,19.143,-0.55069,0.96843,    42.20626,-0.36108,0.9238,,
302.895,19.1763,-0.56304,0.96598,    42.80802,-0.38234,0.92323,,
303.995,19.20952,-0.57642,0.96052,    43.40856,-0.40355,0.92267,,
305.095,19.2428,-0.59071,0.95938,    44.01112,-0.41211,0.92211,,
306.195,19.27607,-0.60453,0.95575,    44.61600,-0.4199,0.92155,,
307.295,19.3093,-0.61781,0.95284,    45.22119,-0.42709,0.92099,,
308.395,19.34222,-0.63185,0.94962,    45.82396,-0.44596,0.92044,,
309.495,19.37547,-0.64707,0.94884,    46.43462,-0.45896,0.91988,,
310.595,19.40896,-0.66298,0.94376,    47.05207,-0.4685,0.91932,,
311.695,19.44268,-0.67958,0.94388,    47.67634,-0.47059,0.91877,,
312.795,19.47607,-0.69505,0.94484,    48.29802,-0.49116,0.91821,,
313.895,19.50947,-0.71163,0.94227,    48.92256,-0.529,0.91765,,
314.995,19.5427,-0.7292,0.94312,    49.54866,-0.53979,0.9171,,
316.095,19.5761,-0.74735,0.9435,    50.18100,-0.55861,0.91655,,
317.195,19.6094,-0.76671,0.94552,    50.81916,-0.5894,0.91599,,
318.295,19.64281,-0.78758,0.94519,    51.46314,-0.5828,0.91544,,
319.395,19.67626,-0.80682,0.94702,    52.11354,-0.58386,0.91489,,
320.495,19.70965,-0.82583,0.94772,    52.76746,-0.58406,0.91433,,
321.595,19.74307,-0.84469,0.95134,    53.42867,-0.58738,0.91378,,
322.695,19.77645,-0.86458,0.95386,    54.09520,-0.61241,0.91323,,
323.795,19.80995,-0.88616,0.95458,    54.77077,-0.65808,0.91268,,
324.895,19.8434,-0.90967,0.96095,    55.45284,-0.67013,0.91213,,
325.995,19.87689,-0.9323,0.96002,    56.14248,-0.66433,0.91158,,
327.095,19.91038,-0.9532,0.96431,    56.83875,-0.65388,0.91103,,
328.195,19.94385,-0.97475,0.96736,    57.54083,-0.66473,0.91049,,
329.295,19.9773,-0.99682,0.97201,    58.24995,-0.66922,0.90994,,
330.395,20.01078,-1.02005,0.97397,    58.96633,-0.69167,0.90939,,
331.495,20.0444,-1.04448,0.97696,    59.69357,-0.7058,0.90884,,
332.595,20.078,-1.06888,0.98072,    60.42706,-0.72954,0.9083,,
333.695,20.1116,-1.09278,0.9791,    61.16699,-0.76805,0.90775,,
334.795,20.14507,-1.11852,0.98404,    61.90890,-0.77048,0.9072,,
335.895,20.1785,-1.14396,0.98752,    62.65723,-0.77587,0.90666,,
336.995,20.21203,-1.17072,0.98582,    63.41444,-0.80007,0.90611,,
338.095,20.2458,-1.19861,0.99111,    64.18315,-0.79929,0.90557,,
339.195,20.27948,-1.22655,0.99153,    64.95503,-0.82704,0.90502,,
340.295,20.31304,-1.25412,0.99508,    65.73078,-0.8567,0.90448,,
341.395,20.3466,-1.28226,0.99715,    66.51260,-0.86622,0.90394,,
342.495,20.38026,-1.31111,0.99623,    67.30163,-0.86296,0.90339,,
343.595,20.41391,-1.34032,0.99719,    68.09521,-0.8984,0.90285,,
344.695,20.44756,-1.37244,0.99877,    68.89429,-0.9189,0.90231,,
345.795,20.4813,-1.40431,0.99739,    69.70041,-0.92087,0.90176,,
346.895,20.5151,-1.43522,0.99668,    70.51126,-0.93268,0.90122,,
347.995,20.54885,-1.46561,0.99653,    71.32606,-0.94197,0.90068,,
349.095,20.58253,-1.497,0.99444,    72.14039,-0.93833,0.90014,,
350.195,20.61609,-1.52858,0.99346,    72.95666,-0.95815,0.8996,,
351.295,20.6498,-1.56203,0.98956,    73.77937,-0.98148,0.89905,,
352.395,20.68356,-1.59643,0.9869,    74.60432,-0.96602,0.89851,,
353.495,20.71742,-1.62891,0.98178,    75.43240,-0.97051,0.89797,,
354.595,20.75119,-1.66121,0.97668,    76.25952,-1.01498,0.89743,,
355.695,20.78503,-1.6953,0.97049,    77.08597,-1.0159,0.89689,,
356.795,20.81877,-1.72892,0.96491,    77.90951,-1.01717,0.89635,,
357.895,20.8525,-1.76413,0.9532,    78.73017,-1.05509,0.89581,,
358.995,20.88609,-1.80137,0.94635,    79.54236,-1.05062,0.89527,,
360.095,20.9197,-1.8368,0.93473,    80.35221,-1.03519,0.89473,,
361.195,20.9535,-1.87112,0.92391,    81.16112,-1.06516,0.89419,,
362.295,20.9874,-1.90643,0.90982,    81.96485,-1.04966,0.89365,,
363.395,21.02131,-1.94122,0.89411,    82.76186,-1.03294,0.89311,,
364.495,21.05521,-1.9763,0.8771,    83.55037,-1.02854,0.89257,,
365.595,21.0893,-2.01185,0.85669,    84.32949,-1.04039,0.89203,,
366.695,21.1232,-2.04907,0.83754,    85.09304,-1.05047,0.89149,,
367.795,21.15707,-2.08468,0.81618,    85.84319,-1.02337,0.89096,,
368.895,21.19096,-2.11724,0.79484,    86.57771,-1.00216,0.89042,,
369.995,21.2248,-2.15044,0.7682,    87.29552,-0.99255,0.88988,,
371.095,21.2586,-2.18354,0.74176,    87.99360,-0.95435,0.88934,,
372.195,21.29242,-2.21521,0.713,    88.67173,-0.93177,0.8888,,
373.295,21.3263,-2.2481,0.68117,    89.33168,-0.91788,0.88826,,
374.395,21.36024,-2.27921,0.64931,    89.96892,-0.87316,0.88772,,
375.495,21.39409,-2.30741,0.61982,    90.58195,-0.84719,0.88718,,
376.595,21.428,-2.33478,0.58722,    91.17409,-0.81288,0.88665,,
377.695,21.46193,-2.36129,0.55329,    91.74231,-0.78556,0.88611,,
378.795,21.49596,-2.38796,0.5217,    92.28641,-0.7618,0.88557,,
379.895,21.53,-2.41348,0.48836,    92.80753,-0.70983,0.88503,,
380.995,21.5639,-2.43716,0.45666,    93.30239,-0.6482,0.88449,,
382.095,21.59783,-2.45885,0.4221,    93.77355,-0.62358,0.88395,,
383.195,21.63174,-2.4791,0.38645,    94.21844,-0.61484,0.88341,,
384.295,21.66568,-2.49892,0.35616,    94.63954,-0.59376,0.88287,,
385.395,21.6996,-2.51874,0.3229,    95.03791,-0.55035,0.88234,,
386.495,21.7336,-2.53676,0.29283,    95.41349,-0.49414,0.8818,,
387.595,21.76766,-2.55279,0.26394,    95.76820,-0.43472,0.88126,,
388.695,21.80162,-2.56742,0.23439,    96.10188,-0.41831,0.88072,,
389.795,21.83555,-2.58156,0.2067,    96.41400,-0.40024,0.88018,,
390.895,21.86955,-2.59391,0.18028,    96.70731,-0.36774,0.87964,,
391.995,21.9036,-2.6059,0.15314,    96.98236,-0.35547,0.8791,,
393.095,21.93757,-2.6178,0.12883,    97.24042,-0.33363,0.87856,,
394.195,21.9716,-2.6288,0.10477,    97.48128,-0.29358,0.87802,,
395.295,22.0057,-2.6382,0.0817599,    97.70709,-0.26621,0.87748,,
396.395,22.03975,-2.64801,0.06047962,    97.91664,-0.26661,0.87694,,
397.495,22.07378,-2.65586,0.03797701,    98.11225,-0.2265,0.8764,,
398.595,22.10789,-2.66351,0.01630832,    98.29415,-0.21097,0.87586,,
399.695,22.142,-2.6701,0.0009537336,    98.46340,-0.2056,0.87532,,
400.795,22.17608,-2.6762,-0.02030812,    98.62028,-0.18084,0.87478,,
401.895,22.2102,-2.68261,-0.03768594,    98.76620,-0.18781,0.87423,,
402.995,22.24425,-2.68946,-0.05428349,    98.90260,-0.17392,0.87369,,
404.095,22.2784,-2.69463,-0.06831183,    99.02833,-0.1594,0.87315,,
405.195,22.31258,-2.70012,-0.08829144,    99.14518,-0.13672,0.87261,,
406.295,22.3468,-2.70429,-0.10253,    99.25189,-0.13597,0.87207,,
407.395,22.38105,-2.70887,-0.11292,    99.35189,-0.1406,0.87152,,
408.495,22.41522,-2.71435,-0.12851,    99.44383,-0.14834,0.87098,,
409.595,22.44941,-2.71893,-0.14199,    99.52729,-0.14191,0.87044,,
410.695,22.48365,-2.72425,-0.15908,    99.60079,-0.1534,0.86989,,
411.795,22.51791,-2.72945,-0.17554,    99.66592,-0.16286,0.86935,,
412.895,22.5522,-2.73486,-0.186,    99.72417,-0.12965,0.8688,,
413.995,22.58643,-2.73861,-0.20069,    99.77497,-0.11181,0.86826,,
415.095,22.62067,-2.7425,-0.21189,    99.81971,-0.12228,0.86772,,
416.195,22.65493,-2.74719,-0.22352,    99.85830,-0.1264,0.86717,,
417.295,22.68927,-2.75149,-0.23595,    99.89248,-0.1089,0.86662,,
418.395,22.72362,-2.75439,-0.24454,    99.92083,-0.10358,0.86608,,
419.495,22.7579,-2.75861,-0.25757,    99.94415,-0.14166,0.86553,,
420.595,22.7922,-2.76444,-0.26827,    99.96194,-0.13807,0.86499,,
421.695,22.82651,-2.76824,-0.27587,    99.97538,-0.11861,0.86444,,
422.795,22.8609,-2.77196,-0.28504,    99.98639,-0.13631,0.86389,,
423.895,22.89536,-2.77717,-0.29587,    99.99315,-0.1087,0.86334,,
424.995,22.92975,-2.78036,-0.30475,    99.99758,-0.08859705,0.86279,,
426.095,22.96419,-2.7833,-0.30958,    99.99989,-0.12501,0.86224,,
427.195,22.99858,-2.78829,-0.31682,   100,-0.1351,0.8617,,
428.295,23.0331,-2.79266,-0.32316,   100,-0.11413,0.86115,,
429.395,23.06757,-2.79638,-0.32891,   100,-0.09942962,0.8606,,
430.495,23.10206,-2.79977,-0.3334,            ,-0.09972599,0.86004,,
431.595,23.1365,-2.80305,-0.3351,            ,-0.1007,0.85949,,
432.695,23.171,-2.80682,-0.34091,            ,-0.12813,0.85894,,
433.795,23.2055,-2.81205,-0.34232,            ,-0.12913,0.85839,,
434.895,23.24,-2.81635,-0.34427,            ,-0.09944716,0.85784,,
435.995,23.27461,-2.81855,-0.34919,            ,-0.07772917,0.85728,,
437.095,23.30922,-2.82125,-0.35073,            ,-0.10791,0.85673,,
438.195,23.3439,-2.82601,-0.35074,            ,-0.09799822,0.85618,,
439.295,23.3785,-2.82822,-0.3487,            ,-0.08324021,0.85562,,
440.395,23.41309,-2.83138,-0.35141,            ,-0.09843074,0.85506,,
441.495,23.44761,-2.8352,-0.34936,            ,-0.10894,0.85451,,
442.595,23.48224,-2.83881,-0.34983,            ,-0.09043212,0.85395,,
443.695,23.51691,-2.84164,-0.3508,            ,-0.0815629,0.8534,,
444.795,23.5516,-2.84461,-0.34597,            ,-0.12517,0.85284,,
445.895,23.58618,-2.85011,-0.34195,            ,-0.15842,0.85228,,
446.995,23.6209,-2.85578,-0.33743,            ,-0.12629,0.85172,,
448.095,23.65564,-2.85909,-0.33269,            ,-0.08900664,0.85116,,
449.195,23.69032,-2.86126,-0.32812,            ,-0.08372734,0.8506,,
450.295,23.725,-2.86485,-0.32325,            ,-0.08135812,0.85004,,
451.395,23.7597,-2.86709,-0.31519,            ,-0.05834409,0.84948,,
452.495,23.79429,-2.86853,-0.30946,            ,-0.0670809,0.84892,,
453.595,23.82904,-2.87169,-0.30455,            ,-0.12228,0.84835,,
454.695,23.8639,-2.87738,-0.29597,            ,-0.12795,0.84779,,
455.795,23.89883,-2.88142,-0.28836,            ,-0.08462031,0.84722,,
456.895,23.9337,-2.8831,-0.28194,            ,-0.03802279,0.84666,,
457.995,23.9685,-2.8838,-0.27502,            ,-0.07714249,0.84609,,
459.095,24.0034,-2.88847,-0.26524,            ,-0.13719,0.84553,,
460.195,24.0383,-2.89288,-0.2579,            ,-0.1209,0.84496,,
461.295,24.0732,-2.89698,-0.24971,            ,-0.10091,0.84439,,
462.395,24.1081,-2.90062,-0.24501,            ,-0.09006359,0.84382,,
463.495,24.1429,-2.90281,-0.2364,            ,-0.09280532,0.84325,,
464.595,24.17772,-2.9074,-0.2308,            ,-0.10728,0.84268,,
465.695,24.2127,-2.91013,-0.22278,            ,-0.07527692,0.84211,,
466.795,24.2475,-2.91264,-0.21554,            ,-0.06817477,0.84154,,
467.895,24.28237,-2.9146,-0.21086,            ,-0.05680067,0.84097,,
468.995,24.3172,-2.91607,-0.2031,            ,-0.03836747,0.8404,,
470.095,24.35219,-2.91742,-0.19674,            ,-0.04782655,0.83982,,
471.195,24.3872,-2.91951,-0.18868,            ,-0.0700861,0.83925,,
472.295,24.42224,-2.9229,-0.18239,            ,-0.0820562,0.83867,,
473.395,24.45722,-2.92534,-0.17567,            ,-0.08348685,0.8381,,
474.495,24.49217,-2.92871,-0.17151,            ,-0.08225041,0.83752,,
475.595,24.5272,-2.93088,-0.16486,            ,-0.06325251,0.83694,,
476.695,24.5623,-2.93249,-0.15927,            ,-0.04513549,0.83636,,
477.795,24.59733,-2.93433,-0.15444,            ,-0.07158759,0.83578,,
478.895,24.6324,-2.93863,-0.14747,            ,-0.08702199,0.8352,,
479.995,24.66747,-2.94026,-0.14428,            ,-0.05955358,0.83462,,
481.095,24.7026,-2.94191,-0.13911,            ,-0.05137956,0.83404,,
482.195,24.73769,-2.94384,-0.13711,            ,-0.05332092,0.83345,,
483.295,24.77276,-2.94646,-0.13075,            ,-0.05876436,0.83287,,
484.395,24.80789,-2.94805,-0.12933,            ,-0.05106189,0.83229,,
485.495,24.84307,-2.94922,-0.12497,            ,-0.0394813,0.8317,,
486.595,24.8783,-2.95038,-0.12129,            ,-0.04389394,0.83111,,
487.695,24.91355,-2.9522,-0.11986,            ,-0.04199658,0.83053,,
488.795,24.94874,-2.95349,-0.11436,            ,-0.04454906,0.82994,,
489.895,24.98382,-2.95553,-0.1135,            ,-0.0637837,0.82935,,
490.995,25.01908,-2.95856,-0.11132,            ,-0.10288,0.82876,,
492.095,25.05425,-2.96264,-0.10878,            ,-0.08810051,0.82816,,
493.195,25.08953,-2.96481,-0.10604,            ,-0.04654726,0.82757,,
494.295,25.12485,-2.96621,-0.10183,            ,-0.04034926,0.82698,,
495.395,25.16018,-2.96771,-0.09835794,            ,-0.06840499,0.82638,,
496.495,25.19547,-2.9708,-0.09807033,            ,-0.08882446,0.82579,,
497.595,25.23074,-2.97375,-0.09507929,            ,-0.07156,0.82519,,
498.695,25.26594,-2.97613,-0.09488616,            ,-0.04555415,0.8246,,
499.795,25.3013,-2.97747,-0.09281482,            ,-0.02860939,0.824,,
500.895,25.33664,-2.97766,-0.09090799,            ,-0.004067536,0.8234,,
501.995,25.37197,-2.97766,-0.08944847,            ,-0.00166141,0.8228,,
503.095,25.4072,-2.97767,-0.08519541,            ,-0.03129373,0.8222,,
504.195,25.44247,-2.97969,-0.08505981,            ,-0.06157859,0.82159,,
505.295,25.47779,-2.98211,-0.0849604,            ,-0.05516592,0.82099,,
506.395,25.5133,-2.98427,-0.08275494,            ,-0.06374718,0.82039,,
507.495,25.5487,-2.98621,-0.08311159,            ,-0.06049125,0.81978,,
508.595,25.584,-2.98788,-0.07884957,            ,-0.04528135,0.81917,,
509.695,25.61944,-2.98939,-0.07783956,            ,-0.02969331,0.81857,,
510.795,25.65488,-2.99077,-0.07727221,            ,-0.03363986,0.81796,,
511.895,25.6903,-2.99217,-0.07528072,            ,-0.04455612,0.81735,,
512.995,25.72565,-2.99387,-0.07424834,            ,-0.05239029,0.81674,,
514.095,25.76108,-2.99529,-0.07311108,            ,-0.0539514,0.81612,,
515.195,25.7966,-2.99764,-0.07393028,            ,-0.05253883,0.81551,,
516.295,25.8321,-2.99928,-0.07238162,            ,-0.03675718,0.8149,,
517.395,25.8674,-2.99989,-0.07258076,            ,-0.03482607,0.81428,,
518.495,25.9028,-3.00118,-0.07248069,            ,-0.03049774,0.81366,,
519.595,25.93836,-3.00255,-0.06910554,            ,-0.02357773,0.81305,,
520.695,25.97387,-3.00359,-0.0684808,            ,-0.02646989,0.81243,,
521.795,26.00936,-3.00387,-0.06618977,            ,-0.02823714,0.81181,,
522.895,26.04477,-3.00552,-0.0678762,            ,-0.02329322,0.81119,,
523.995,26.0803,-3.00553,-0.06933173,            ,-0.04464218,0.81056,,
525.095,26.11573,-3.00798,-0.06633112,            ,-0.0596986,0.80994,,
526.195,26.1512,-3.01035,-0.06560577,            ,-0.04669609,0.80932,,
527.295,26.18674,-3.01137,-0.06402189,            ,-0.05623133,0.80869,,
528.395,26.22235,-3.01433,-0.06195095,            ,-0.06565002,0.80806,,
529.495,26.25784,-3.01658,-0.06223848,            ,-0.04726407,0.80744,,
530.595,26.2935,-3.01801,-0.05850059,            ,-0.02416709,0.80681,,
531.695,26.32892,-3.01791,-0.06013516,            ,-0.01210856,0.80618,,
532.795,26.3645,-3.01911,-0.05987262,            ,-0.04097016,0.80555,,
533.895,26.40028,-3.02105,-0.06018271,            ,-0.04387867,0.80491,,
534.995,26.436,-3.02235,-0.05560738,            ,-0.03620709,0.80428,,
536.095,26.47157,-3.02332,-0.05556594,            ,-0.04769275,0.80364,,
537.195,26.50716,-3.02567,-0.05487066,            ,-0.07103329,0.80301,,
538.295,26.54275,-3.02782,-0.05457101,            ,-0.05934621,0.80237,,
539.395,26.5783,-3.02928,-0.05476279,            ,-0.04327662,0.80173,,
540.495,26.614,-3.03122,-0.05222189,            ,-0.04619304,0.80109,,
541.595,26.6497,-3.03266,-0.05349982,            ,-0.0342041,0.80045,,
542.695,26.68543,-3.03362,-0.05658968,            ,-0.02040388,0.79981,,
543.795,26.72105,-3.03495,-0.05109097,            ,-0.02723291,0.79916,,
544.895,26.75667,-3.03566,-0.05175057,            ,-0.03100582,0.79852,,
545.995,26.7924,-3.03649,-0.05235352,            ,-0.0364444,0.79787,,
547.095,26.82804,-3.03789,-0.04873776,            ,-0.03476789,0.79722,,
548.195,26.8636,-3.03897,-0.04888895,            ,-0.02561483,0.79657,,
549.295,26.8992,-3.04029,-0.04604021,            ,-0.01940969,0.79592,,
550.395,26.9349,-3.04024,-0.0485561,            ,-0.02075953,0.79527,,
551.495,26.97065,-3.04159,-0.04707609,            ,-0.02526786,0.79462,,
552.595,27.0064,-3.0428,-0.0470065,            ,-0.02492716,0.79396,,
553.695,27.04208,-3.04289,-0.04643512,            ,-0.02308473,0.79331,,
554.795,27.07777,-3.04437,-0.04676431,            ,-0.03599742,0.79265,,
555.895,27.1135,-3.04568,-0.04575478,            ,-0.03201529,0.79199,,
556.995,27.14916,-3.04698,-0.04345644,            ,-0.04246599,0.79133,,
558.095,27.1849,-3.04835,-0.04292824,            ,-0.05415057,0.79067,,
559.195,27.2205,-3.05042,-0.04329749,            ,-0.05646384,0.79001,,
560.295,27.2562,-3.05275,-0.04117345,            ,-0.06771488,0.78935,,
561.395,27.29202,-3.05595,-0.04315227,            ,-0.07446111,0.78868,,
562.495,27.3279,-3.05749,-0.04253198,            ,-0.04851937,0.78802,,
563.595,27.36373,-3.05891,-0.04038808,            ,-0.01528365,0.78735,,
564.695,27.39951,-3.05893,-0.03908908,            ,0.001536394,0.78668,,
565.795,27.43525,-3.05878,-0.03842345,            ,0.003661495,0.78601,,
566.895,27.471,-3.05891,-0.03890822,            ,-0.005228502,0.78534,,
567.995,27.50677,-3.05893,-0.03544553,            ,-0.001717067,0.78466,,
569.095,27.5426,-3.05886,-0.0331987,            ,-0.02291131,0.78399,,
570.195,27.57845,-3.06022,-0.03327134,            ,-0.04182281,0.78331,,
571.295,27.6143,-3.06183,-0.02885253,            ,-0.03572587,0.78264,,
572.395,27.65008,-3.06288,-0.02886051,            ,-0.02572108,0.78196,,
573.495,27.6858,-3.06437,-0.02277618,            ,-0.03292101,0.78128,,
574.595,27.72164,-3.06432,-0.01932613,            ,-0.02098857,0.7806,,
575.695,27.7576,-3.06583,-0.01383769,            ,-0.01845903,0.77991,,
576.795,27.79353,-3.06671,-0.007984319,            ,-0.01865043,0.77923,,
577.895,27.82943,-3.06683,-0.004049578,            ,-0.01327967,0.77854,,
578.995,27.86522,-3.06745,-0.0008372894,            ,-0.02488706,0.77786,,
580.095,27.9011,-3.06853,0.001271672,            ,-0.03894732,0.77717,,
581.195,27.9371,-3.06985,0.008235477,            ,-0.03552681,0.77648,,
582.295,27.9731,-3.0713,0.0112609,            ,-0.03204181,0.77579,,
583.395,28.0089,-3.07264,0.01282545,            ,-0.02255541,0.7751,,
584.495,28.04481,-3.07295,0.02054315,            ,-0.03075763,0.7744,,
585.595,28.08073,-3.07444,0.01971226,            ,-0.0444202,0.77371,,
586.695,28.1167,-3.07659,0.0230529,            ,-0.03620926,0.77301,,
587.795,28.1525,-3.07699,0.02847923,            ,-0.02150961,0.77231,,
588.895,28.18852,-3.0778,0.0286609,            ,-0.005452026,0.77161,,
589.995,28.22454,-3.0778,0.03116101,            ,-0.01667279,0.77091,,
591.095,28.26077,-3.07912,0.03449732,            ,-0.03049387,0.77021,,
592.195,28.29686,-3.08033,0.03853592,            ,-0.02988786,0.7695,,
593.295,28.33285,-3.08066,0.04158519,            ,-0.04942434,0.7688,,
594.395,28.3688,-3.08306,0.04381602,            ,-0.04332585,0.76809,,
595.495,28.40492,-3.08436,0.04394742,            ,-0.01431629,0.76738,,
596.595,28.441,-3.08438,0.04542395,            ,-0.002559166,0.76667,,
597.695,28.477,-3.0843,0.04435413,            ,-0.02505566,0.76596,,
598.795,28.5131,-3.08575,0.04782268,            ,-0.03257308,0.76525,,
599.895,28.5492,-3.08712,0.04571998,            ,-0.03766008,0.76453,,
600.995,28.5854,-3.08843,0.04830101,            ,-0.05818827,0.76382,,
602.095,28.6214,-3.09136,0.04901255,            ,-0.07791623,0.7631,,
603.195,28.65741,-3.09422,0.05029789,            ,-0.05316965,0.76238,,
604.295,28.6936,-3.09558,0.04655217,            ,-0.003946736,0.76166,,
605.395,28.7298,-3.09425,0.04490027,            ,0.02778293,0.76094,,
606.495,28.76612,-3.09296,0.0436895,            ,0.02320195,0.76021,,
607.595,28.80234,-3.09293,0.04317689,            ,0.00225046,0.75949,,
608.695,28.8384,-3.09293,0.04598799,            ,-0.00128996,0.75876,,
609.795,28.8745,-3.09288,0.04818224,            ,-0.02494146,0.75803,,
610.895,28.9107,-3.09435,0.04599043,            ,-0.0638992,0.75731,,
611.995,28.9469,-3.09704,0.04720585,            ,-0.0508891,0.75657,,
613.095,28.9831,-3.09861,0.05018654,            ,-0.02363805,0.75584,,
614.195,29.01928,-3.09963,0.04753846,            ,-0.02497143,0.75511,,
615.295,29.05555,-3.09995,0.04920092,            ,-0.00160221,0.75437,,
616.395,29.09184,-3.09983,0.04780918,            ,0.02328195,0.75364,,
617.495,29.128,-3.09864,0.04796973,            ,0.009888864,0.7529,,
618.595,29.1643,-3.09864,0.04998863,            ,8.52198e-05,0.75216,,
619.695,29.20053,-3.09864,0.04992308,            ,-0.001674696,0.75142,,
620.795,29.2368,-3.0986,0.0517489,            ,-0.02521111,0.75067,,
621.895,29.27307,-3.10006,0.05310477,            ,-0.04699731,0.74993,,
622.995,29.3093,-3.10195,0.05520499,            ,-0.05344193,0.74918,,
624.095,29.3455,-3.10447,0.05675551,            ,-0.05164636,0.74843,,
625.195,29.38167,-3.10628,0.05564354,            ,-0.03274342,0.74768,,
626.295,29.418,-3.10676,0.06178335,            ,-0.02694228,0.74693,,
627.395,29.4542,-3.10752,0.06390144,            ,-0.01802294,0.74618,,
628.495,29.4905,-3.10902,0.06123607,            ,-0.02776117,0.74543,,
629.595,29.5268,-3.10932,0.06321197,            ,-0.002428965,0.74467,,
630.695,29.5631,-3.10893,0.06590358,            ,-0.01593497,0.74391,,
631.795,29.5994,-3.11025,0.0662695,            ,-0.04009673,0.74316,,
632.895,29.6358,-3.11175,0.07084521,            ,-0.04096355,0.7424,,
633.995,29.67212,-3.1131,0.07013167,            ,-0.0148453,0.74163,,
635.095,29.70852,-3.11311,0.07428587,            ,-0.000324,0.74087,,
636.195,29.7448,-3.11311,0.07600797,            ,-0.001013906,0.74011,,
637.295,29.7811,-3.11307,0.07572843,            ,-0.01931401,0.73934,,
638.395,29.81744,-3.11443,0.07676819,            ,-0.01852966,0.73857,,
639.495,29.8538,-3.11447,0.07723307,            ,-0.02982484,0.7378,,
640.595,29.8902,-3.116,0.07955491,            ,-0.03485811,0.73703,,
641.695,29.9266,-3.11727,0.08013721,            ,-0.01119594,0.73626,,
642.795,29.963,-3.11729,0.08611769,            ,-0.01193634,0.73549,,
643.895,29.99932,-3.1186,0.08619528,            ,-0.02226387,0.73471,,
644.995,30.03565,-3.1186,0.09076428,            ,-0.00211343,0.73393,,
646.095,30.07207,-3.1186,0.09076879,            ,-0.002519238,0.73315,,
647.195,30.1085,-3.11857,0.0956711,            ,-0.02455051,0.73237,,
648.295,30.145,-3.11987,0.09519418,            ,-0.02333422,0.73159,,
649.395,30.1813,-3.12038,0.09773218,            ,0.01003017,0.73081,,
650.495,30.21776,-3.11991,0.09731309,            ,0.003178498,0.73002,,
651.595,30.25419,-3.11986,0.09802956,            ,-0.02050485,0.72924,,
652.695,30.29066,-3.12119,0.10057,            ,-0.03415892,0.72845,,
653.795,30.3271,-3.12255,0.1053,            ,-0.01625576,0.72766,,
654.895,30.3635,-3.12255,0.10551,            ,-0.0008714856,0.72687,,
655.995,30.4,-3.12255,0.1098,            ,-0.01488946,0.72607,,
657.095,30.4365,-3.12391,0.11027,            ,-0.02729286,0.72528,,
658.195,30.47297,-3.12483,0.11208,            ,-0.028296,0.72448,,
659.295,30.50941,-3.12519,0.11455,            ,-0.02769136,0.72369,,
660.395,30.5458,-3.1265,0.11634,            ,-0.01055988,0.72289,,
661.495,30.5822,-3.12647,0.11533,            ,-0.01821217,0.72209,,
662.595,30.6187,-3.12781,0.1145,            ,-0.01643041,0.72128,,
663.695,30.6552,-3.1278,0.11672,            ,-0.009245737,0.72048,,
664.795,30.6917,-3.12899,0.11769,            ,-0.03539382,0.71968,,
665.895,30.7281,-3.13048,0.11512,            ,-0.0279799,0.71887,,
666.995,30.7646,-3.13055,0.11836,            ,-0.004373973,0.71806,,
668.095,30.80115,-3.13086,0.11981,            ,0.000236767,0.71725,,
669.195,30.83765,-3.13055,0.1212,            ,-0.00725137,0.71644,,
670.295,30.8741,-3.1316,0.11826,            ,-0.02609902,0.71562,,
671.395,30.91052,-3.13187,0.12216,            ,-0.02934982,0.71481,,
672.495,30.94695,-3.13321,0.12016,            ,-0.03896648,0.71399,,
673.595,30.98344,-3.13463,0.12005,            ,-0.03398061,0.71317,,
674.695,31.02004,-3.13604,0.11593,            ,-0.02885344,0.71236,,
675.795,31.05661,-3.13741,0.11708,            ,-0.02000052,0.71153,,
676.895,31.093,-3.13736,0.11767,            ,-0.00109571,0.71071,,
677.995,31.12945,-3.13736,0.11476,            ,0.004432661,0.70989,,
679.095,31.16593,-3.13698,0.10992,            ,0.02612942,0.70906,,
680.195,31.2027,-3.1359,0.11663,            ,-0.0006034283,0.70823,,
681.295,31.23935,-3.13627,0.11371,            ,-0.04122754,0.7074,,
682.395,31.2759,-3.13914,0.1137,            ,-0.05732985,0.70657,,
683.495,31.3124,-3.14088,0.11122,            ,-0.03207527,0.70574,,
684.595,31.34899,-3.14151,0.11144,            ,-0.03562798,0.70491,,
685.695,31.3856,-3.14276,0.10943,            ,-0.03695163,0.70407,,
686.795,31.42217,-3.14416,0.10905,            ,-0.01265862,0.70324,,
687.895,31.4587,-3.14416,0.10861,            ,-0.0001753343,0.7024,,
688.995,31.49527,-3.14416,0.10835,            ,0.000342583,0.70156,,
690.095,31.53183,-3.14418,0.1069,            ,0.005107438,0.70072,,
691.195,31.5684,-3.14383,0.1032,            ,-0.01052803,0.69987,,
692.295,31.60509,-3.14523,0.0997602,            ,-0.02061939,0.69903,,
693.395,31.64175,-3.14515,0.09941296,            ,-0.001302072,0.69818,,
694.495,31.67837,-3.14515,0.09840258,            ,-0.00162059,0.69733,,
695.595,31.715,-3.14505,0.09721481,            ,-0.01941318,0.69648,,
696.695,31.75158,-3.14632,0.09732007,            ,-0.0005161342,0.69563,,
697.795,31.7882,-3.14581,0.09385385,            ,-0.01608381,0.69478,,
698.895,31.82473,-3.14724,0.09543517,            ,-0.03972636,0.69393,,
699.995,31.86141,-3.1486,0.09160665,            ,-0.03819867,0.69307,,
701.095,31.8981,-3.15011,0.08675895,            ,-0.03647837,0.69221,,
702.195,31.93478,-3.15141,0.0904933,            ,-0.01819622,0.69136,,
703.295,31.9714,-3.1514,0.08369079,            ,-0.0006870532,0.6905,,
704.395,32.00816,-3.1514,0.08589444,            ,0.003750688,0.68963,,
705.495,32.04485,-3.15109,0.08213373,            ,0.02432003,0.68877,,
706.595,32.0815,-3.15008,0.08034201,            ,0.00785518,0.68791,,
707.695,32.11817,-3.15008,0.0827935,            ,0.0001370859,0.68704,,
708.795,32.15486,-3.15007,0.07812789,            ,0.004198953,0.68617,,
709.895,32.1915,-3.14976,0.07918361,            ,-0.000508672,0.6853,,
710.995,32.22815,-3.15033,0.07620703,            ,-0.01874163,0.68443,,
712.095,32.26486,-3.15035,0.07457924,            ,0.005194801,0.68356,,
713.195,32.30148,-3.15041,0.07313377,            ,-0.004183447,0.68268,,
714.295,32.33821,-3.15098,0.06984106,            ,-0.02026829,0.68181,,
715.395,32.37492,-3.15117,0.06655933,            ,-0.000300376,0.68093,,
716.495,32.41168,-3.15193,0.06623813,            ,-0.00697692,0.68005,,
717.595,32.4484,-3.15106,0.06453759,            ,0.0110198,0.67917,,
718.695,32.48516,-3.15117,0.06276807,            ,-0.02287847,0.67829,,
719.795,32.5218,-3.15239,0.05973785,            ,-0.001820445,0.67741,,
720.895,32.5586,-3.15135,0.05963178,            ,0.02878459,0.67652,,
721.995,32.59537,-3.15085,0.05896478,            ,0.005517801,0.67564,,
723.095,32.6321,-3.15085,0.05573435,            ,-0.005377604,0.67475,,
724.195,32.66887,-3.15148,0.05250849,            ,-0.02860567,0.67386,,
725.295,32.7057,-3.15273,0.05496356,            ,-0.03350382,0.67297,,
726.395,32.74253,-3.15431,0.05359602,            ,-0.07026518,0.67208,,
727.495,32.7793,-3.15766,0.05235184,            ,-0.04380404,0.67118,,
728.595,32.8161,-3.15766,0.05138489,            ,0.00569474,0.67029,,
729.695,32.85288,-3.15644,0.04913239,            ,0.02394078,0.66939,,
730.795,32.88978,-3.15633,0.05146261,            ,0.002980304,0.66849,,
731.895,32.92664,-3.15633,0.04925846,            ,-1.793215e-07,0.66759,,
732.995,32.9634,-3.15633,0.04333978,            ,1.258716e-08,0.66669,,
734.095,33.00034,-3.15633,0.04319639,            ,7.716883e-07,0.66579,,
735.195,33.03737,-3.15633,0.04019735,            ,-0.0009729143,0.66489,,
736.295,33.07427,-3.15652,0.03942667,            ,-0.002522834,0.66398,,
737.395,33.1111,-3.15644,0.03941745,            ,-0.01154447,0.66307,,
738.495,33.1479,-3.15774,0.03878342,            ,-0.02178911,0.66217,,
739.595,33.1847,-3.15774,0.03650848,            ,-0.009731067,0.66125,,
740.695,33.22133,-3.15889,0.03651325,            ,-0.02263771,0.66034,,
741.795,33.2583,-3.15877,0.03486936,            ,0.002598797,0.65943,,
742.895,33.29547,-3.15875,0.03408002,            ,0.000806821,0.65852,,
743.995,33.3326,-3.15875,0.03416071,            ,-5.593069e-05,0.6576,,
745.095,33.3695,-3.15875,0.02887155,            ,-0.00941566,0.65668,,
746.195,33.4064,-3.15994,0.02863365,            ,-0.02328847,0.65576,,
747.295,33.4433,-3.16006,0.02385717,            ,-0.002691036,0.65484,,
748.395,33.48018,-3.16006,0.02279977,            ,0.0003283905,0.65392,,
749.495,33.51697,-3.16005,0.02192837,            ,0.01175653,0.653,,
750.595,33.55383,-3.15906,0.01562492,            ,0.01388484,0.65207,,
751.695,33.59075,-3.15908,0.01857991,            ,-0.00106364,0.65115,,
752.795,33.62778,-3.15905,0.01422129,            ,-0.02611077,0.65022,,
753.895,33.66471,-3.16054,0.01216705,            ,-0.04703541,0.64929,,
754.995,33.70167,-3.16267,0.01155797,            ,-0.04020345,0.64836,,
756.095,33.73863,-3.16357,0.01429491,            ,-0.006368906,0.64743,,
757.195,33.7756,-3.16357,0.009367088,            ,6.21995e-06,0.6465,,
758.295,33.81256,-3.16357,0.00451963,            ,-0.0007309198,0.64556,,
759.395,33.8495,-3.16356,0.001092325,            ,-0.01828761,0.64463,,
760.495,33.88642,-3.16489,0.00543522,            ,-0.02539424,0.64369,,
761.595,33.9234,-3.16612,0.004780148,            ,-0.02987293,0.64275,,
762.695,33.9604,-3.16696,-0.0007225601,            ,-0.01665475,0.64181,,
763.795,33.99743,-3.16651,0.00138721,            ,-0.01239078,0.64087,,
764.895,34.03439,-3.16773,0.0002840813,            ,-0.03486203,0.63993,,
765.995,34.07135,-3.16916,-0.003890716,            ,-0.01270759,0.63898,,
767.095,34.1083,-3.16916,-0.00343769,            ,0.004631183,0.63804,,
768.195,34.14528,-3.16884,-0.00537897,            ,0.003674882,0.63709,,
769.295,34.1822,-3.16885,-0.006828925,            ,-0.01359941,0.63614,,
770.395,34.21925,-3.17026,-0.007991274,            ,-0.02491782,0.63519,,
771.495,34.2562,-3.17017,-0.008263106,            ,-0.01503919,0.63424,,
772.595,34.29318,-3.17036,-0.01439649,            ,0.01229301,0.63329,,
773.695,34.33013,-3.17026,-0.01175579,            ,-0.00703648,0.63234,,
774.795,34.36714,-3.17149,-0.01492875,            ,-0.02643761,0.63138,,
775.895,34.4041,-3.17183,-0.01697638,            ,-0.02677373,0.63042,,
776.995,34.44102,-3.1729,-0.01964113,            ,-0.02026107,0.62947,,
778.095,34.47798,-3.17419,-0.02343565,            ,-0.02159253,0.62851,,
779.195,34.51497,-3.1742,-0.02006326,            ,-0.00163944,0.62755,,
780.295,34.55198,-3.1742,-0.02149808,            ,1.927765e-06,0.62658,,
781.395,34.58895,-3.1742,-0.02524704,            ,-0.004044262,0.62562,,
782.495,34.62583,-3.17459,-0.02061413,            ,-0.02451244,0.62466,,
783.595,34.6627,-3.17552,-0.02422524,            ,-0.007177709,0.62369,,
784.695,34.6997,-3.17552,-0.0276834,            ,-1.348652e-05,0.62272,,
785.795,34.73673,-3.17552,-0.02576465,            ,0.00360246,0.62176,,
786.895,34.7737,-3.17508,-0.0301637,            ,0.01804216,0.62079,,
787.995,34.81068,-3.17451,-0.02720444,            ,-0.01512821,0.61982,,
789.095,34.84767,-3.17586,-0.03307973,            ,-0.01465258,0.61884,,
790.195,34.8847,-3.17587,-0.03488558,            ,0.01786584,0.61787,,
791.295,34.92161,-3.17456,-0.03689572,            ,0.01888384,0.6169,,
792.395,34.9585,-3.17424,-0.03712441,            ,0.01357622,0.61592,,
793.495,34.99541,-3.17388,-0.03873916,            ,0.00401667,0.61494,,
793.595,34.99889,-3.17388,-0.04021999,            ,0.003046617,0.61485,,