File: 01_Data/PVC/STA/N2/10K_min/PVC_STA_N2_10KData_210605_R2.csv
##Temp./Â°C,Time/min,Mass loss(subtr.2)/mg,DSC(subtr.2)/mW,DTG(subtr.2)/(mg/min),Sensit./(uV/mW)
48.356,0.16683,0.01756,0.0415617,-0.04966694,0.99127
49.056,0.19019,0.01274228,0.12503,0.002712478,0.99128
49.756,0.19621,0.01724322,0.1915,0.00275085,0.99129
50.456,0.20053,0.01683415,0.2308,-0.0002149896,0.9913
51.156,0.20407,0.01602362,0.2703,-0.000853599,0.99131
51.856,0.20721,0.01719351,0.31093,9.24905e-05,0.99131
52.556,0.21003,0.01698221,0.34302,0.000913296,0.99132
53.256,0.21263,0.01839021,0.37296,0.001198505,0.99132
53.956,0.21508,0.01644156,0.39518,0.001518413,0.99133
54.656,0.21739,0.01780928,0.41265,0.002090036,0.99133
55.356,0.21961,0.01636184,0.43849,0.002581401,0.99133
56.056,0.22176,0.02006014,0.45721,0.00271839,0.99133
56.756,0.22383,0.01844008,0.46874,0.002563239,0.99133
57.456,0.22583,0.01877851,0.48476,0.002279331,0.99133
58.156,0.22778,0.01983042,0.50244,0.00190442,0.99132
58.856,0.22971,0.01997253,0.5137,0.001409171,0.99132
59.556,0.23158,0.02011068,0.51719,0.000851901,0.99131
60.256,0.23341,0.02005775,0.52963,0.000378802,0.99131
60.956,0.23521,0.02007967,0.53129,0.000134597,0.9913
61.656,0.23698,0.01886149,0.53605,0.0001857373,0.99129
62.356,0.23872,0.01901747,0.54993,0.0005215494,0.99128
63.056,0.24045,0.0200473,0.55041,0.001110083,0.99127
63.756,0.24214,0.01995955,0.561,0.001894761,0.99126
64.456,0.24379,0.01948121,0.57223,0.002759937,0.99125
65.156,0.24542,0.01900279,0.57156,0.003501,0.99123
65.856,0.24703,0.0200415,0.58069,0.00385641,0.99122
66.556,0.24863,0.02300974,0.59657,0.003626399,0.9912
67.256,0.25021,0.02310799,0.60487,0.00280765,0.99118
67.956,0.25177,0.02183444,0.60676,0.001617983,0.99116
68.656,0.25332,0.0221629,0.61567,0.0004216986,0.99114
69.356,0.25484,0.02347999,0.63047,-0.0004566599,0.99112
70.056,0.25635,0.02313561,0.63639,-0.0008800005,0.9911
70.756,0.25784,0.01805536,0.63989,-0.0009341405,0.99108
71.456,0.25932,0.01947045,0.6549,-0.0008638374,0.99105
72.156,0.26078,0.02269915,0.66524,-0.0009147316,0.99103
72.856,0.26224,0.02357962,0.67981,-0.00120405,0.991
73.556,0.26369,0.02158831,0.68344,-0.001678941,0.99097
74.256,0.26511,0.01912119,0.69677,-0.002159229,0.99094
74.956,0.26651,0.021514,0.69607,-0.002439024,0.99091
75.656,0.26791,0.02250057,0.7143,-0.00234127,0.99088
76.356,0.26932,0.01975592,0.7335,-0.001737705,0.99085
77.056,0.2707,0.01861509,0.74652,-0.000646025,0.99082
77.756,0.27208,0.01971383,0.76667,0.0007905979,0.99078
78.456,0.27345,0.02107474,0.78607,0.002260677,0.99075
79.156,0.27481,0.01788114,0.79491,0.003350947,0.99071
79.856,0.27615,0.01724553,0.81285,0.00368627,0.99067
80.556,0.27748,0.0245857,0.8297,0.00311677,0.99063
81.256,0.27881,0.02442843,0.84362,0.00175789,0.99059
81.956,0.28013,0.02540425,0.85072,1.50478e-05,0.99055
82.656,0.28144,0.02307633,0.86173,-0.00158169,0.99051
83.356,0.28275,0.02309691,0.85733,-0.002567538,0.99047
84.056,0.28404,0.01898812,0.85748,-0.002725415,0.99042
84.756,0.28533,0.01898301,0.84976,-0.00213427,0.99038
85.456,0.28661,0.01910269,0.85556,-0.001114595,0.99033
86.156,0.28788,0.01910757,0.85949,-8.629035e-05,0.99028
86.856,0.28915,0.02158075,0.8626,0.000608452,0.99023
87.556,0.29041,0.02062711,0.85623,0.000805008,0.99018
88.256,0.29167,0.0243649,0.86301,0.0005361895,0.99013
88.956,0.29292,0.02480259,0.86698,-1.8977e-05,0.99008
89.656,0.29416,0.02090581,0.86985,-0.0006368541,0.99003
90.356,0.29539,0.01737124,0.88209,-0.001141433,0.98997
91.056,0.29662,0.01916721,0.88703,-0.00143795,0.98992
91.756,0.29785,0.02267183,0.89207,-0.001510165,0.98986
92.456,0.29907,0.02185092,0.90362,-0.001381043,0.9898
93.156,0.30029,0.02072175,0.91706,-0.00108244,0.98975
93.856,0.3015,0.01931,0.92424,-0.0006357657,0.98969
94.556,0.3027,0.01926599,0.9333,-5.082082e-05,0.98962
95.256,0.3039,0.02083849,0.94348,0.0006564,0.98956
95.956,0.3051,0.02030729,0.94927,0.00144821,0.9895
96.656,0.3063,0.01942686,0.9613,0.002256007,0.98944
97.356,0.3075,0.02124734,0.97622,0.00296998,0.98937
98.056,0.30868,0.01778043,0.98955,0.003463725,0.9893
98.756,0.30986,0.01771043,0.99621,0.00362214,0.98924
99.456,0.31104,0.02468763,1.00506,0.003374362,0.98917
100.156,0.31222,0.02337178,1.01676,0.0027207,0.9891
100.856,0.31339,0.02280256,1.0264,0.00175312,0.98903
101.556,0.31457,0.02403032,1.04387,0.000634007,0.98895
102.256,0.31573,0.02270304,1.04794,-0.0004356945,0.98888
102.956,0.3169,0.02313343,1.05343,-0.001282951,0.98881
103.656,0.31806,0.02267012,1.06146,-0.001795502,0.98873
104.356,0.31923,0.02140547,1.06931,-0.001965961,0.98866
105.056,0.32039,0.02007952,1.07301,-0.001864872,0.98858
105.756,0.32155,0.02002945,1.08263,-0.001619301,0.9885
106.456,0.3227,0.02151008,1.0943,-0.00136802,0.98842
107.156,0.32385,0.02190926,1.09826,-0.001213148,0.98834
107.856,0.325,0.02150683,1.09385,-0.001197164,0.98826
108.556,0.32614,0.02151,1.11462,-0.001298912,0.98818
109.256,0.32729,0.02151162,1.11917,-0.00144891,0.98809
109.956,0.32843,0.02152889,1.12637,-0.001555655,0.98801
110.656,0.32958,0.02150836,1.1281,-0.001539864,0.98792
111.356,0.33072,0.02019174,1.14023,-0.00135417,0.98783
112.056,0.33186,0.01941579,1.14226,-0.0009951303,0.98775
112.756,0.333,0.02019411,1.15018,-0.0005040677,0.98766
113.456,0.33413,0.02149932,1.15998,4.436254e-05,0.98757
114.156,0.33528,0.02021076,1.16631,0.0005599572,0.98748
114.856,0.33641,0.01920951,1.16931,0.000951683,0.98738
115.556,0.33754,0.02050146,1.1752,0.001157706,0.98729
116.256,0.33867,0.02184038,1.18242,0.00115255,0.98719
116.956,0.33979,0.02047482,1.18858,0.0009561916,0.9871
117.656,0.34092,0.02181569,1.19366,0.0006342015,0.987
118.356,0.34205,0.02216003,1.1974,0.0002828584,0.9869
119.056,0.34317,0.02216008,1.20916,6.242586e-06,0.98681
119.756,0.34429,0.02085736,1.21552,-0.000113303,0.98671
120.456,0.34541,0.02084941,1.22454,-4.030456e-05,0.9866
121.156,0.34652,0.0205179,1.22652,0.0002014539,0.9865
121.856,0.34764,0.01920764,1.23025,0.00053576,0.9864
122.556,0.34875,0.02060901,1.23377,0.000853561,0.98629
123.256,0.34986,0.02053058,1.23362,0.001044423,0.98619
123.956,0.35097,0.02184017,1.24543,0.0010314,0.98608
124.656,0.35208,0.02183285,1.24837,0.0007883044,0.98597
125.356,0.35319,0.02200494,1.25359,0.0003465046,0.98587
126.056,0.3543,0.02232924,1.2622,-0.000213166,0.98576
126.756,0.3554,0.02195004,1.27188,-0.0007916947,0.98565
127.456,0.3565,0.02195,1.26494,-0.001296085,0.98553
128.156,0.3576,0.02082212,1.27607,-0.001663566,0.98542
128.856,0.3587,0.02062999,1.28615,-0.00186703,0.98531
129.556,0.35979,0.02063635,1.28835,-0.00191555,0.98519
130.256,0.36088,0.01949333,1.29013,-0.00183582,0.98508
130.956,0.36198,0.02129172,1.29619,-0.001658191,0.98496
131.656,0.36307,0.02129,1.30731,-0.001405166,0.98484
132.356,0.36416,0.02129203,1.30356,-0.0010891,0.98472
133.056,0.36524,0.01996954,1.30625,-0.0007156899,0.9846
133.756,0.36632,0.01998349,1.31137,-0.00030295,0.98448
134.456,0.36741,0.02030107,1.32151,0.000122855,0.98436
135.156,0.3685,0.01932004,1.32473,0.0005010413,0.98423
135.856,0.36959,0.02060151,1.32866,0.0007577094,0.98411
136.556,0.37067,0.01963999,1.32664,0.000818581,0.98398
137.256,0.37174,0.02093507,1.33182,0.000632025,0.98386
137.956,0.37282,0.02096487,1.34005,0.000181491,0.98373
138.656,0.3739,0.02226901,1.33757,-0.0005018492,0.9836
139.356,0.37497,0.02227242,1.34425,-0.001336827,0.98347
140.056,0.37604,0.02084545,1.34169,-0.00220571,0.98334
140.756,0.37711,0.02052448,1.34934,-0.00297606,0.98321
141.456,0.37819,0.02053114,1.35045,-0.00351435,0.98307
142.156,0.37925,0.02366799,1.35675,-0.003715929,0.98294
142.856,0.38032,0.01720921,1.36209,-0.00352639,0.9828
143.556,0.38138,0.01719623,1.36519,-0.002946075,0.98267
144.256,0.38245,0.01913337,1.36863,-0.002040905,0.98253
144.956,0.38352,0.01827276,1.37214,-0.0009223886,0.98239
145.656,0.38459,0.01720191,1.37128,0.0002609049,0.98225
146.356,0.38565,0.01800603,1.3747,0.001330003,0.98211
147.056,0.38671,0.01916499,1.37928,0.00213683,0.98197
147.756,0.38778,0.02054285,1.38341,0.002564402,0.98183
148.456,0.38884,0.01931249,1.37572,0.002547578,0.98169
149.156,0.3899,0.01966814,1.38466,0.002088024,0.98154
149.856,0.39096,0.02095185,1.39419,0.001256811,0.9814
150.556,0.39201,0.0209929,1.39046,0.0001767282,0.98125
151.256,0.39307,0.02226835,1.39166,-0.0009972289,0.9811
151.956,0.39413,0.02128486,1.39727,-0.002092239,0.98095
152.656,0.39518,0.02095979,1.39088,-0.002948133,0.9808
153.356,0.39624,0.01842106,1.40397,-0.00346627,0.98065
154.056,0.3973,0.01966277,1.40493,-0.003618032,0.9805
154.756,0.39835,0.01756806,1.39749,-0.003447762,0.98035
155.456,0.39941,0.01701007,1.39852,-0.003068532,0.98019
156.156,0.40047,0.01701142,1.40676,-0.002633117,0.98004
156.856,0.40152,0.01760571,1.41157,-0.002287823,0.97988
157.556,0.40257,0.01733406,1.41093,-0.002132226,0.97973
158.256,0.40363,0.01864941,1.41645,-0.002197633,0.97957
158.956,0.40468,0.01963259,1.41551,-0.002433602,0.97941
159.656,0.40573,0.02101173,1.41725,-0.002727377,0.97925
160.356,0.40678,0.02095993,1.42046,-0.002944123,0.97909
161.056,0.40783,0.01788971,1.42545,-0.00297546,0.97893
161.756,0.40888,0.01488636,1.41541,-0.002770711,0.97876
162.456,0.40993,0.01384691,1.42593,-0.002358139,0.9786
163.156,0.41098,0.01519634,1.42499,-0.001834098,0.97843
163.856,0.41203,0.01522081,1.42877,-0.00132657,0.97827
164.556,0.41308,0.01804898,1.43128,-0.0009626928,0.9781
165.256,0.41414,0.01800001,1.42704,-0.0008300242,0.97793
165.956,0.41519,0.018,1.43555,-0.0009571847,0.97776
166.656,0.41624,0.01800455,1.43727,-0.001310257,0.97759
167.356,0.41729,0.01619634,1.43481,-0.00181038,0.97742
168.056,0.41835,0.01601999,1.44323,-0.002354994,0.97725
168.756,0.4194,0.01598233,1.44028,-0.00283693,0.97707
169.456,0.42044,0.01464543,1.44264,-0.003160675,0.9769
170.156,0.42149,0.02359787,1.43884,-0.003257274,0.97672
170.856,0.42254,0.01170014,1.43972,-0.003091887,0.97655
171.556,0.4236,0.01385015,1.44488,-0.002671093,0.97637
172.256,0.42465,0.01385012,1.44363,-0.0020471,0.97619
172.956,0.42569,0.01223141,1.4432,-0.001313851,0.97601
173.656,0.42674,0.01504089,1.45009,-0.0005739185,0.97583
174.356,0.42779,0.01504,1.4417,5.24641e-05,0.97565
175.056,0.42883,0.01504,1.45082,0.0004650113,0.97547
175.756,0.42988,0.01477822,1.44792,0.0005957649,0.97528
176.456,0.43093,0.01568883,1.45365,0.0004176921,0.9751
177.156,0.43198,0.01567577,1.44671,-4.9493e-05,0.97491
177.856,0.43302,0.01635216,1.45209,-0.0007449398,0.97473
178.556,0.43407,0.01635003,1.45337,-0.001573776,0.97454
179.256,0.43511,0.01531138,1.44636,-0.002422411,0.97435
179.956,0.43615,0.015027,1.44938,-0.003172042,0.97416
180.656,0.4372,0.01634972,1.44881,-0.00371903,0.97397
181.356,0.43824,0.01502678,1.45557,-0.00398803,0.97378
182.056,0.43928,0.013823,1.44883,-0.003954215,0.97359
182.756,0.44032,0.01272991,1.45198,-0.003646805,0.97339
183.456,0.44136,0.01273162,1.44223,-0.0031408,0.9732
184.156,0.4424,0.01142192,1.43765,-0.002542196,0.973
184.856,0.44343,0.01175515,1.44665,-0.001963785,0.97281
185.556,0.44447,0.01293119,1.43958,-0.00149434,0.97261
186.256,0.44551,0.01404997,1.44226,-0.00118626,0.97241
186.956,0.44654,0.01405003,1.44287,-0.001047905,0.97221
187.656,0.44758,0.01424322,1.43977,-0.001057406,0.97201
188.356,0.44862,0.01405035,1.44281,-0.001181059,0.97181
189.056,0.44965,0.01273363,1.43723,-0.001397215,0.97161
189.756,0.45069,0.01135659,1.43411,-0.001710431,0.9714
190.456,0.45172,0.01075346,1.4384,-0.002146162,0.9712
191.156,0.45276,0.01249622,1.43599,-0.00274086,0.97099
191.856,0.45379,0.01274219,1.43554,-0.003509175,0.97079
192.556,0.45483,0.01313085,1.43688,-0.004428283,0.97058
193.256,0.45586,0.01415992,1.44177,-0.005401739,0.97037
193.956,0.4569,0.01344943,1.43891,-0.006292282,0.97016
194.656,0.45793,0.01283688,1.43168,-0.006921755,0.96995
195.356,0.45896,0.01031801,1.43431,-0.0071317,0.96974
196.056,0.45999,0.008889839,1.43744,-0.00680207,0.96953
196.756,0.46103,0.008865002,1.4411,-0.00589265,0.96931
197.456,0.46207,0.00883458,1.43385,-0.00446869,0.9691
198.156,0.4631,0.0049039,1.43983,-0.002685753,0.96888
198.856,0.46414,0.00321957,1.43913,-0.000768495,0.96867
199.556,0.46517,0.00738749,1.43143,0.001038785,0.96845
200.256,0.46621,0.009492496,1.43882,0.00251887,0.96823
200.956,0.46724,0.01075812,1.4355,0.00350731,0.96801
201.656,0.46828,0.01074615,1.42795,0.003918784,0.96779
202.356,0.46931,0.009450203,1.42748,0.00375492,0.96757
203.056,0.47034,0.01075871,1.42457,0.00308674,0.96735
203.756,0.47138,0.01207832,1.42374,0.002036789,0.96712
204.456,0.47241,0.01208826,1.42778,0.000748407,0.9669
205.156,0.47345,0.01249466,1.43226,-0.0006312422,0.96668
205.856,0.47448,0.0110803,1.43019,-0.001965565,0.96645
206.556,0.47551,0.009767288,1.42967,-0.00315183,0.96622
207.256,0.47655,0.01093319,1.42767,-0.004119081,0.96599
207.956,0.47758,0.01116642,1.43174,-0.004833558,0.96577
208.656,0.47862,0.00897684,1.43198,-0.00528797,0.96554
209.356,0.47965,0.008339994,1.42846,-0.00550218,0.9653
210.056,0.48069,0.00834,1.43116,-0.005514865,0.96507
210.756,0.48172,0.00834072,1.42841,-0.005378516,0.96484
211.456,0.48275,0.00736541,1.42594,-0.005150402,0.96461
212.156,0.48378,0.00734996,1.4373,-0.00488816,0.96437
212.856,0.48482,0.007036751,1.43089,-0.004645113,0.96414
213.556,0.48586,0.007019445,1.42818,-0.0044659,0.9639
214.256,0.48689,0.005703,1.42662,-0.004380012,0.96366
214.956,0.48793,0.006245716,1.42102,-0.004395989,0.96342
215.656,0.48896,0.00702001,1.43189,-0.004501435,0.96318
216.356,0.49,0.007019872,1.43093,-0.004663372,0.96294
217.056,0.49104,0.005711552,1.42422,-0.004832507,0.9627
217.756,0.49207,0.005710002,1.42671,-0.004953019,0.96246
218.456,0.4931,0.005713556,1.42965,-0.004975676,0.96222
219.156,0.49413,0.004406262,1.41969,-0.00487043,0.96197
219.856,0.49516,0.004398196,1.41525,-0.004629544,0.96173
220.556,0.4962,0.00308078,1.4148,-0.0042746,0.96148
221.256,0.49724,0.00308,1.42301,-0.003850553,0.96123
221.956,0.49827,0.00308,1.41218,-0.003425019,0.96099
222.656,0.4993,0.00308,1.41799,-0.003055703,0.96074
223.356,0.50034,0.00308,1.40511,-0.00279001,0.96049
224.056,0.50138,0.003076475,1.41205,-0.00265623,0.96024
224.756,0.50241,0.004401181,1.39161,-0.002654783,0.95998
225.456,0.50345,0.002871775,1.39603,-0.00276053,0.95973
226.156,0.50448,0.002203926,1.39673,-0.002932529,0.95948
226.856,0.50551,0.00218574,1.39857,-0.003123887,0.95922
227.556,0.50655,0.00351012,1.3932,-0.003296344,0.95897
228.256,0.50758,0.00222361,1.39291,-0.003428417,0.95871
228.956,0.50861,0.0008472391,1.40047,-0.00352475,0.95845
229.656,0.50965,0.0008799971,1.3981,-0.00361495,0.9582
230.356,0.51069,0.00088,1.3976,-0.00374788,0.95794
231.056,0.51173,0.0008796412,1.39085,-0.003977218,0.95768
231.756,0.51277,0.002229076,1.38876,-0.004346605,0.95742
232.456,0.5138,0.0003693057,1.3815,-0.004871212,0.95715
233.156,0.51484,0.0002315032,1.38349,-0.005531526,0.95689
233.856,0.51588,0.001543945,1.37954,-0.006265625,0.95663
234.556,0.51691,0.0002324399,1.38791,-0.0069857,0.95636
235.256,0.51795,-0.0003873419,1.37814,-0.007597479,0.9561
235.956,0.51898,0.0002337123,1.38524,-0.008031963,0.95583
236.656,0.52002,-0.001090128,1.37311,-0.00826833,0.95556
237.356,0.52105,-0.002478993,1.36778,-0.008345549,0.95529
238.056,0.52208,-0.008088071,1.38012,-0.008358117,0.95503
238.756,0.52312,-0.006490568,1.38156,-0.008434994,0.95476
239.456,0.52416,-0.002948518,1.37096,-0.00870686,0.95448
240.156,0.5252,-0.004344327,1.37616,-0.00927683,0.95421
240.856,0.52624,-0.0004946973,1.35737,-0.01019787,0.95394
241.556,0.52728,-0.002554116,1.34603,-0.01147336,0.95367
242.256,0.52831,-0.005158295,1.34015,-0.01309,0.95339
242.956,0.52935,-0.008115255,1.31961,-0.01501324,0.95312
243.656,0.53038,-0.009090464,1.27569,-0.01723161,0.95284
244.356,0.53142,-0.00976695,1.22605,-0.01974747,0.95256
245.056,0.53245,-0.008431815,1.1849,-0.02255792,0.95228
245.756,0.53349,-0.009405941,1.15894,-0.02564105,0.952
246.456,0.53453,-0.01071986,1.17633,-0.02894436,0.95172
247.156,0.53557,-0.01337472,1.23309,-0.03234485,0.95144
247.856,0.5366,-0.01471434,1.30333,-0.0356965,0.95116
248.556,0.53764,-0.01746251,1.35794,-0.03883514,0.95088
249.256,0.53867,-0.02128762,1.41676,-0.04161841,0.95059
249.956,0.53971,-0.024223,1.45937,-0.04395197,0.95031
250.656,0.54075,-0.02731177,1.49583,-0.04580438,0.95002
251.356,0.54178,-0.03103913,1.52042,-0.04720871,0.94974
252.056,0.54282,-0.03450651,1.53388,-0.04827173,0.94945
252.756,0.54386,-0.03817584,1.55831,-0.04913941,0.94916
253.456,0.5449,-0.04077559,1.56869,-0.04996729,0.94887
254.156,0.54595,-0.04346877,1.58346,-0.05088565,0.94858
254.856,0.54699,-0.04562615,1.60042,-0.0519689,0.94829
255.556,0.54803,-0.04853926,1.60865,-0.05322131,0.948
256.256,0.54906,-0.05190358,1.63136,-0.05458043,0.94771
256.956,0.55011,-0.05511872,1.64765,-0.05594694,0.94741
257.656,0.55115,-0.05769574,1.66083,-0.05720229,0.94712
258.356,0.55219,-0.06453382,1.69216,-0.05825418,0.94682
259.056,0.55323,-0.06813468,1.69167,-0.0590682,0.94653
259.756,0.55427,-0.07169872,1.70542,-0.0596715,0.94623
260.456,0.55531,-0.07655093,1.71403,-0.06015894,0.94593
261.156,0.55635,-0.08076274,1.73137,-0.06066064,0.94563
261.856,0.55738,-0.08406277,1.74046,-0.06132095,0.94533
262.556,0.55842,-0.08379634,1.76174,-0.06225767,0.94503
263.256,0.55946,-0.08887965,1.76682,-0.06355782,0.94473
263.956,0.5605,-0.09366552,1.76673,-0.06524352,0.94443
264.656,0.56155,-0.09759642,1.79489,-0.06728494,0.94413
265.356,0.56259,-0.10175,1.79954,-0.06958226,0.94382
266.056,0.56363,-0.10635,1.82491,-0.07203011,0.94352
266.756,0.56467,-0.10885,1.83142,-0.07449018,0.94321
267.456,0.56572,-0.11345,1.84955,-0.07684632,0.94291
268.156,0.56676,-0.12053,1.85846,-0.07900651,0.9426
268.856,0.5678,-0.12575,1.87741,-0.08094506,0.94229
269.556,0.56884,-0.13172,1.8995,-0.08269338,0.94198
270.256,0.56989,-0.13689,1.91383,-0.08435561,0.94167
270.956,0.57093,-0.14224,1.925,-0.08605834,0.94136
271.656,0.57197,-0.14719,1.94924,-0.0879643,0.94105
272.356,0.57301,-0.15269,1.97173,-0.09018429,0.94073
273.056,0.57406,-0.15769,1.99127,-0.09278574,0.94042
273.756,0.5751,-0.16162,2.01389,-0.09573588,0.94011
274.456,0.57614,-0.16714,2.02685,-0.09893158,0.93979
275.156,0.57719,-0.17317,2.04099,-0.10221,0.93948
275.856,0.57823,-0.18078,2.06487,-0.10542,0.93916
276.556,0.57927,-0.18851,2.08343,-0.1084,0.93884
277.256,0.58032,-0.19741,2.11578,-0.11113,0.93852
277.956,0.58136,-0.20495,2.13616,-0.11364,0.9382
278.656,0.58241,-0.21066,2.15813,-0.11607,0.93788
279.356,0.58346,-0.22024,2.18287,-0.11863,0.93756
280.056,0.5845,-0.22617,2.20683,-0.12154,0.93724
280.756,0.58554,-0.23133,2.23112,-0.12501,0.93692
281.456,0.58659,-0.24044,2.2536,-0.12919,0.93659
282.156,0.58763,-0.24607,2.28305,-0.1341,0.93627
282.856,0.58868,-0.25365,2.31562,-0.13967,0.93594
283.556,0.58972,-0.26286,2.33591,-0.14571,0.93562
284.256,0.59077,-0.27118,2.3657,-0.1521,0.93529
284.956,0.59181,-0.28321,2.39537,-0.15864,0.93496
285.656,0.59286,-0.2932,2.42777,-0.1652,0.93463
286.356,0.59391,-0.30747,2.46746,-0.17165,0.93431
287.056,0.59496,-0.3146,2.49824,-0.17797,0.93397
287.756,0.59601,-0.32578,2.53853,-0.18421,0.93364
288.456,0.59706,-0.33871,2.58439,-0.19046,0.93331
289.156,0.59811,-0.35158,2.61829,-0.19677,0.93298
289.856,0.59916,-0.36298,2.65107,-0.20326,0.93265
290.556,0.60021,-0.37509,2.68686,-0.20997,0.93231
291.256,0.60125,-0.38923,2.7244,-0.217,0.93198
291.956,0.6023,-0.40309,2.76446,-0.22437,0.93164
292.656,0.60335,-0.4168,2.81398,-0.23203,0.9313
293.356,0.6044,-0.43076,2.85303,-0.23996,0.93097
294.056,0.60545,-0.44562,2.88824,-0.2481,0.93063
294.756,0.6065,-0.46098,2.92778,-0.2564,0.93029
295.456,0.60755,-0.47851,2.97732,-0.26479,0.92995
296.156,0.6086,-0.49706,3.02157,-0.27321,0.92961
296.856,0.60965,-0.51546,3.06388,-0.28169,0.92927
297.556,0.61071,-0.53245,3.09846,-0.2902,0.92892
298.256,0.61177,-0.55018,3.14184,-0.29874,0.92858
298.956,0.61282,-0.56637,3.18519,-0.30727,0.92824
299.656,0.61387,-0.5868,3.22783,-0.31585,0.92789
300.356,0.61492,-0.60873,3.27616,-0.32444,0.92754
301.056,0.61598,-0.63183,3.33042,-0.3331,0.9272
301.756,0.61703,-0.65176,3.36408,-0.34173,0.92685
302.456,0.61808,-0.67524,3.39572,-0.35036,0.9265
303.156,0.61914,-0.69808,3.42791,-0.35899,0.92615
303.856,0.62019,-0.70888,3.44569,-0.36752,0.9258
304.556,0.62125,-0.74614,3.48305,-0.37584,0.92545
305.256,0.6223,-0.76805,3.50872,-0.38382,0.9251
305.956,0.62335,-0.79172,3.53621,-0.39131,0.92475
306.656,0.6244,-0.81509,3.55575,-0.39817,0.9244
307.356,0.62546,-0.84186,3.57682,-0.40435,0.92404
308.056,0.62651,-0.8706,3.61052,-0.40979,0.92369
308.756,0.62756,-0.8951,3.62739,-0.41455,0.92333
309.456,0.62862,-0.92353,3.6539,-0.41868,0.92298
310.156,0.62967,-0.94934,3.70823,-0.4223,0.92262
310.856,0.63072,-0.97547,3.72975,-0.42552,0.92226
311.556,0.63178,-1.00176,3.75105,-0.42843,0.92191
312.256,0.63283,-1.02954,3.76284,-0.4311,0.92155
312.956,0.63389,-1.05919,3.7766,-0.43353,0.92119
313.656,0.63494,-1.08461,3.77091,-0.43569,0.92083
314.356,0.636,-1.11408,3.76305,-0.43753,0.92046
315.056,0.63706,-1.14157,3.75543,-0.439,0.9201
315.756,0.63811,-1.1665,3.74682,-0.44004,0.91974
316.456,0.63917,-1.19766,3.72685,-0.44061,0.91938
317.156,0.64022,-1.22587,3.71353,-0.44069,0.91901
317.856,0.64127,-1.25563,3.69896,-0.44028,0.91865
318.556,0.64233,-1.28313,3.68232,-0.43937,0.91828
319.256,0.64339,-1.30863,3.65575,-0.43796,0.91791
319.956,0.64444,-1.33795,3.63646,-0.43604,0.91754
320.656,0.6455,-1.3642,3.61187,-0.4336,0.91718
321.356,0.64655,-1.39395,3.58982,-0.43059,0.91681
322.056,0.64761,-1.42071,3.55568,-0.42702,0.91644
322.756,0.64866,-1.45002,3.53394,-0.42291,0.91607
323.456,0.64972,-1.47725,3.49491,-0.4183,0.9157
324.156,0.65078,-1.50093,3.4657,-0.41332,0.91532
324.856,0.65184,-1.52887,3.42534,-0.40808,0.91495
325.556,0.65289,-1.55513,3.39011,-0.40275,0.91458
326.256,0.65395,-1.57994,3.35066,-0.39745,0.9142
326.956,0.65501,-1.60331,3.30432,-0.39226,0.91383
327.656,0.65606,-1.62717,3.26662,-0.38723,0.91345
328.356,0.65712,-1.6537,3.22291,-0.38234,0.91307
329.056,0.65817,-1.67592,3.1702,-0.3775,0.9127
329.756,0.65923,-1.70049,3.12649,-0.3726,0.91232
330.456,0.66029,-1.72496,3.08259,-0.36744,0.91194
331.156,0.66135,-1.74789,3.03239,-0.36191,0.91156
331.856,0.66241,-1.76448,2.97441,-0.35587,0.91118
332.556,0.66347,-1.78865,2.92092,-0.3493,0.9108
333.256,0.66452,-1.83212,2.87803,-0.34218,0.91042
333.956,0.66558,-1.83657,2.82653,-0.33459,0.91003
334.656,0.66664,-1.85742,2.75927,-0.32661,0.90965
335.356,0.6677,-1.8788,2.7002,-0.31842,0.90927
336.056,0.66876,-1.90016,2.63698,-0.31013,0.90888
336.756,0.66982,-1.91837,2.57104,-0.30179,0.9085
337.456,0.67089,-1.93851,2.50428,-0.2934,0.90811
338.156,0.67195,-1.95732,2.42556,-0.28499,0.90772
338.856,0.67301,-1.97398,2.34617,-0.27648,0.90734
339.556,0.67407,-1.99225,2.26251,-0.26793,0.90695
340.256,0.67513,-2.00831,2.183,-0.25924,0.90656
340.956,0.67619,-2.02572,2.09094,-0.25047,0.90617
341.656,0.67726,-2.04231,1.99303,-0.2416,0.90578
342.356,0.67833,-2.05659,1.9066,-0.23266,0.90539
343.056,0.67939,-2.07028,1.80528,-0.22373,0.90499
343.756,0.68045,-2.0831,1.70132,-0.21476,0.9046
344.456,0.68151,-2.0975,1.60973,-0.20575,0.90421
345.156,0.68257,-2.11153,1.50481,-0.19668,0.90381
345.856,0.68364,-2.12359,1.41517,-0.18753,0.90342
346.556,0.6847,-2.13606,1.31627,-0.17833,0.90302
347.256,0.68576,-2.14536,1.21229,-0.16907,0.90263
347.956,0.68682,-2.15527,1.12171,-0.15988,0.90223
348.656,0.68788,-2.16642,1.03177,-0.15075,0.90183
349.356,0.68895,-2.17924,0.95473,-0.14175,0.90143
350.056,0.69001,-2.18356,0.86366,-0.13297,0.90104
350.756,0.69107,-2.18972,0.78041,-0.12448,0.90064
351.456,0.69213,-2.1992,0.71902,-0.11637,0.90023
352.156,0.6932,-2.20932,0.65091,-0.10868,0.89983
352.856,0.69426,-2.21326,0.58779,-0.10146,0.89943
353.556,0.69533,-2.21759,0.5316,-0.09474107,0.89903
354.256,0.69639,-2.22479,0.4873,-0.08855477,0.89863
354.956,0.69745,-2.23042,0.43027,-0.0828723,0.89822
355.656,0.69852,-2.23383,0.38842,-0.07765722,0.89782
356.356,0.69958,-2.23738,0.35814,-0.0728307,0.89741
357.056,0.70065,-2.24435,0.32663,-0.06833727,0.89701
357.756,0.70173,-2.24785,0.29375,-0.06412196,0.8966
358.456,0.70279,-2.25064,0.27432,-0.06016973,0.89619
359.156,0.70387,-2.25257,0.2432,-0.0564229,0.89578
359.856,0.70494,-2.2585,0.23819,-0.05287324,0.89537
360.556,0.70602,-2.26392,0.22184,-0.04953672,0.89497
361.256,0.70709,-2.26651,0.2048,-0.04643876,0.89455
361.956,0.70817,-2.26512,0.20991,-0.04360167,0.89414
362.656,0.70925,-2.26898,0.20536,-0.04105084,0.89373
363.356,0.71032,-2.27343,0.20153,-0.03880877,0.89332
364.056,0.7114,-2.27349,0.19518,-0.03687499,0.89291
364.756,0.71248,-2.2757,0.20383,-0.03524097,0.89249
365.456,0.71355,-2.27943,0.19928,-0.03388489,0.89208
366.156,0.71463,-2.28149,0.20426,-0.03276155,0.89166
366.856,0.71571,-2.28256,0.20421,-0.03180653,0.89125
367.556,0.71679,-2.28256,0.20068,-0.03094368,0.89083
368.256,0.71787,-2.28463,0.1992,-0.03009633,0.89042
368.956,0.71895,-2.28805,0.20823,-0.02920048,0.89
369.656,0.72002,-2.29209,0.20194,-0.02823736,0.88958
370.356,0.7211,-2.29493,0.20289,-0.02722461,0.88916
371.056,0.72218,-2.29364,0.19573,-0.02623228,0.88874
371.756,0.72326,-2.29599,0.19504,-0.02534129,0.88832
372.456,0.72434,-2.29781,0.19425,-0.02463852,0.8879
373.156,0.72542,-2.29918,0.18686,-0.024181,0.88748
373.856,0.7265,-2.29845,0.18919,-0.02397733,0.88706
374.556,0.72758,-2.30191,0.18562,-0.02398595,0.88663
375.256,0.72865,-2.30172,0.18615,-0.02412955,0.88621
375.956,0.72973,-2.30345,0.19608,-0.02431466,0.88579
376.656,0.73081,-2.30558,0.17947,-0.02445069,0.88536
377.356,0.73189,-2.30846,0.18917,-0.02446913,0.88494
378.056,0.73298,-2.30967,0.18097,-0.02433052,0.88451
378.756,0.73406,-2.31126,0.18026,-0.02402775,0.88408
379.456,0.73514,-2.31242,0.17762,-0.02357712,0.88366
380.156,0.73622,-2.31399,0.18128,-0.02301871,0.88323
380.856,0.73731,-2.31604,0.17256,-0.02238964,0.8828
381.556,0.73839,-2.31732,0.17903,-0.02174108,0.88237
382.256,0.73948,-2.31865,0.16752,-0.02111985,0.88194
382.956,0.74056,-2.31994,0.17686,-0.02056651,0.88151
383.656,0.74164,-2.32127,0.17293,-0.02011245,0.88108
384.356,0.74273,-2.3226,0.16793,-0.01978229,0.88065
385.056,0.74381,-2.32402,0.16142,-0.01959427,0.88022
385.756,0.7449,-2.32535,0.16099,-0.01955868,0.87978
386.456,0.74598,-2.32503,0.16068,-0.01967759,0.87935
387.156,0.74707,-2.32624,0.16035,-0.01994466,0.87891
387.856,0.74816,-2.32835,0.15623,-0.02034348,0.87848
388.556,0.74925,-2.33162,0.16153,-0.02083814,0.87804
389.256,0.75033,-2.32974,0.15469,-0.02137477,0.87761
389.956,0.75142,-2.33138,0.15063,-0.02188812,0.87717
390.656,0.75251,-2.333,0.14876,-0.02230501,0.87673
391.356,0.7536,-2.3335,0.13889,-0.02257724,0.8763
392.056,0.75469,-2.33722,0.13958,-0.02269306,0.87586
392.756,0.75578,-2.34033,0.13225,-0.02270144,0.87542
393.456,0.75686,-2.34338,0.1271,-0.02270375,0.87498
394.156,0.75795,-2.34266,0.12965,-0.02283442,0.87454
394.856,0.75904,-2.34067,0.11561,-0.02322715,0.8741
395.556,0.76013,-2.34412,0.10438,-0.02397907,0.87365
396.256,0.76123,-2.34412,0.09880539,-0.02511748,0.87321
396.956,0.76232,-2.34707,0.10086,-0.0265876,0.87277
397.656,0.76341,-2.34888,0.09982418,-0.02825482,0.87233
398.356,0.7645,-2.3498,0.09015079,-0.02992014,0.87188
399.056,0.76559,-2.35269,0.07881887,-0.03136701,0.87144
399.756,0.76668,-2.35483,0.07458285,-0.03238808,0.87099
400.456,0.76777,-2.35635,0.07595823,-0.0328389,0.87055
401.156,0.76887,-2.35973,0.07110305,-0.03267704,0.8701
401.856,0.76995,-2.36326,0.0678824,-0.03199486,0.86965
402.556,0.77104,-2.36758,0.05552338,-0.03100635,0.8692
403.256,0.77213,-2.36969,0.05509178,-0.03000818,0.86876
403.956,0.77323,-2.37065,0.04900614,-0.02931068,0.86831
404.656,0.77432,-2.37065,0.04224279,-0.0291589,0.86786
405.356,0.77541,-2.37058,0.03615426,-0.02965209,0.86741
406.056,0.77651,-2.36932,0.02553471,-0.03070799,0.86696
406.756,0.7776,-2.37076,0.01802111,-0.03210039,0.86651
407.456,0.7787,-2.37506,0.01710791,-0.03351212,0.86605
408.156,0.77979,-2.37858,0.00622143,-0.03465422,0.8656
408.856,0.78088,-2.38398,-0.01160843,-0.03534314,0.86515
409.556,0.78197,-2.39028,-0.008055659,-0.03555725,0.86469
410.256,0.78307,-2.38868,-0.0111373,-0.0354221,0.86424
410.956,0.78416,-2.39071,-0.01318637,-0.03516855,0.86379
411.656,0.78526,-2.39216,-0.02599955,-0.03506099,0.86333
412.356,0.78636,-2.39351,-0.0334517,-0.03531831,0.86287
413.056,0.78746,-2.39477,-0.04176933,-0.03605983,0.86242
413.756,0.78856,-2.3967,-0.04857323,-0.03728261,0.86196
414.456,0.78966,-2.40054,-0.05851348,-0.03887021,0.8615
415.156,0.79076,-2.40185,-0.0576774,-0.04062239,0.86105
415.856,0.79185,-2.40573,-0.06455521,-0.04231996,0.86059
416.556,0.79295,-2.40756,-0.07385322,-0.0437567,0.86013
417.256,0.79405,-2.4109,-0.0692703,-0.04480262,0.85967
417.956,0.79515,-2.41596,-0.07950057,-0.04541847,0.85921
418.656,0.79625,-2.41922,-0.08838273,-0.04568981,0.85875
419.356,0.79735,-2.42524,-0.08779612,-0.04579968,0.85829
420.056,0.79845,-2.42668,-0.09777224,-0.04598143,0.85782
420.756,0.79955,-2.42675,-0.10348,-0.04645164,0.85736
421.456,0.80065,-2.42898,-0.09753167,-0.04737228,0.8569
422.156,0.80175,-2.432,-0.1026,-0.0487838,0.85643
422.856,0.80287,-2.43539,-0.11809,-0.05064581,0.85597
423.556,0.80398,-2.43741,-0.12838,-0.05279133,0.8555
424.256,0.80508,-2.4423,-0.12419,-0.05508312,0.85504
424.956,0.80618,-2.44724,-0.12224,-0.05740842,0.85457
425.656,0.80729,-2.45287,-0.12002,-0.05972495,0.85411
426.356,0.80839,-2.45611,-0.12284,-0.06205359,0.85364
427.056,0.8095,-2.45849,-0.12977,-0.06445651,0.85317
427.756,0.8106,-2.46266,-0.13132,-0.06699832,0.8527
428.456,0.8117,-2.46722,-0.12498,-0.06971261,0.85224
429.156,0.8128,-2.47068,-0.12143,-0.07258548,0.85177
429.856,0.81391,-2.47707,-0.11941,-0.07555762,0.8513
430.556,0.81501,-2.48336,-0.12094,-0.0785374,0.85083
431.256,0.81612,-2.48515,-0.11034,-0.08144847,0.85036
431.956,0.81723,-2.49129,-0.09997217,-0.08423903,0.84988
432.656,0.81833,-2.50169,-0.08991178,-0.08690816,0.84941
433.356,0.81943,-2.50731,-0.08058699,-0.08948514,0.84894
434.056,0.82054,-2.51162,-0.08225201,-0.09202498,0.84847
434.756,0.82165,-2.51359,-0.07117382,-0.09456456,0.84799
435.456,0.82276,-2.52194,-0.06362234,-0.09713028,0.84752
436.156,0.82387,-2.53011,-0.03980947,-0.09974825,0.84705
436.856,0.82497,-2.53665,-0.0280699,-0.10243,0.84657
437.556,0.82608,-2.54412,-0.009185472,-0.10527,0.84609
438.256,0.82719,-2.5519,0.01024436,-0.10829,0.84562
438.956,0.82831,-2.55865,0.01883218,-0.11158,0.84514
439.656,0.82943,-2.56368,0.05365575,-0.1151,0.84467
440.356,0.83054,-2.5711,0.08021543,-0.11881,0.84419
441.056,0.83164,-2.57713,0.09831504,-0.12262,0.84371
441.756,0.83276,-2.58806,0.12164,-0.12642,0.84323
442.456,0.83386,-2.59926,0.14085,-0.13008,0.84275
443.156,0.83497,-2.60804,0.17025,-0.13354,0.84227
443.856,0.83608,-2.61535,0.20111,-0.13677,0.84179
444.556,0.83719,-2.62482,0.23075,-0.1398,0.84131
445.256,0.8383,-2.63599,0.26213,-0.14262,0.84083
445.956,0.83941,-2.64403,0.28878,-0.14528,0.84035
446.656,0.84053,-2.65127,0.30632,-0.14772,0.83987
447.356,0.84164,-2.66378,0.3469,-0.1499,0.83938
448.056,0.84275,-2.67529,0.37205,-0.15173,0.8389
448.756,0.84386,-2.6859,0.39911,-0.15316,0.83842
449.456,0.84497,-2.69566,0.43405,-0.15419,0.83793
450.156,0.84609,-2.70456,0.46055,-0.15483,0.83745
450.856,0.8472,-2.71634,0.49023,-0.15516,0.83696
451.556,0.84831,-2.72749,0.51879,-0.1553,0.83648
452.256,0.84942,-2.74011,0.53912,-0.15534,0.83599
452.956,0.85053,-2.74828,0.5639,-0.15541,0.83551
453.656,0.85165,-2.75595,0.606,-0.15556,0.83502
454.356,0.85277,-2.76717,0.6256,-0.15585,0.83453
455.056,0.85389,-2.77694,0.65302,-0.15629,0.83404
455.756,0.855,-2.79009,0.67823,-0.15685,0.83355
456.456,0.85611,-2.80118,0.7044,-0.15751,0.83307
457.156,0.85723,-2.81213,0.71844,-0.15824,0.83258
457.856,0.85834,-2.81757,0.7428,-0.15897,0.83209
458.556,0.85946,-2.82883,0.74682,-0.15964,0.8316
459.256,0.86058,-2.84089,0.74863,-0.16017,0.8311
459.956,0.86169,-2.85486,0.74372,-0.1605,0.83061
460.656,0.86281,-2.86716,0.73378,-0.16055,0.83012
461.356,0.86392,-2.87582,0.73744,-0.16028,0.82963
462.056,0.86504,-2.88069,0.75125,-0.15962,0.82914
462.756,0.86616,-2.89664,0.77032,-0.15854,0.82864
463.456,0.86728,-2.90764,0.80778,-0.15705,0.82815
464.156,0.86839,-2.91846,0.8317,-0.1552,0.82766
464.856,0.86951,-2.92971,0.84867,-0.1531,0.82716
465.556,0.87063,-2.9402,0.85997,-0.15093,0.82667
466.256,0.87176,-2.95094,0.87068,-0.14884,0.82617
466.956,0.87289,-2.95976,0.86897,-0.14703,0.82567
467.656,0.87402,-2.96729,0.87384,-0.14552,0.82518
468.356,0.87514,-2.97615,0.86256,-0.14425,0.82468
469.056,0.87626,-2.98522,0.85348,-0.14308,0.82418
469.756,0.87738,-2.99503,0.84447,-0.1418,0.82369
470.456,0.8785,-3.00564,0.83781,-0.14026,0.82319
471.156,0.87962,-3.02226,0.82307,-0.1384,0.82269
471.856,0.88074,-3.03119,0.80308,-0.13626,0.82219
472.556,0.88187,-3.03506,0.79854,-0.13394,0.82169
473.256,0.88299,-3.04209,0.78895,-0.13157,0.82119
473.956,0.88412,-3.05117,0.75929,-0.12925,0.82069
474.656,0.88524,-3.06114,0.74584,-0.12698,0.82019
475.356,0.88637,-3.06724,0.73619,-0.12474,0.81969
476.056,0.88749,-3.07991,0.73031,-0.12247,0.81919
476.756,0.88862,-3.08969,0.69658,-0.12011,0.81868
477.456,0.88974,-3.09589,0.68305,-0.11762,0.81818
478.156,0.89087,-3.10131,0.69288,-0.11501,0.81768
478.856,0.892,-3.10905,0.66656,-0.11233,0.81717
479.556,0.89313,-3.11768,0.63673,-0.1096,0.81667
480.256,0.89425,-3.12619,0.63611,-0.10688,0.81617
480.956,0.89538,-3.13374,0.63675,-0.10423,0.81566
481.656,0.89651,-3.13881,0.63055,-0.10173,0.81516
482.356,0.89763,-3.14717,0.59008,-0.09944642,0.81465
483.056,0.89877,-3.1528,0.58204,-0.0974041,0.81414
483.756,0.89989,-3.15856,0.58269,-0.09561294,0.81364
484.456,0.90102,-3.16329,0.57461,-0.09398284,0.81313
485.156,0.90215,-3.16961,0.57441,-0.0923893,0.81262
485.856,0.90328,-3.1763,0.52348,-0.09066778,0.81211
486.556,0.90441,-3.18353,0.51401,-0.08869019,0.81161
487.256,0.90554,-3.19158,0.50593,-0.08638825,0.8111
487.956,0.90667,-3.19679,0.50449,-0.08375829,0.81059
488.656,0.90779,-3.20249,0.48328,-0.08090261,0.81008
489.356,0.90893,-3.20896,0.45048,-0.07794881,0.80957
490.056,0.91005,-3.21229,0.43627,-0.07505363,0.80906
490.756,0.91118,-3.21595,0.44106,-0.07229458,0.80855
491.456,0.91231,-3.22209,0.43256,-0.06972817,0.80804
492.156,0.91344,-3.22382,0.40905,-0.06734248,0.80753
492.856,0.91456,-3.22886,0.39254,-0.06512481,0.80701
493.556,0.91569,-3.23549,0.3836,-0.0630138,0.8065
494.256,0.91682,-3.24285,0.374,-0.06103922,0.80599
494.956,0.91796,-3.24409,0.3767,-0.05922187,0.80548
495.656,0.9191,-3.2469,0.37075,-0.05761945,0.80496
496.356,0.92023,-3.24862,0.35755,-0.05621709,0.80445
497.056,0.92136,-3.253,0.3485,-0.05497096,0.80393
497.756,0.92249,-3.25819,0.33097,-0.05379475,0.80342
498.456,0.92362,-3.2601,0.31355,-0.05259897,0.8029
499.156,0.92475,-3.2664,0.27496,-0.05130428,0.80239
499.856,0.92589,-3.27082,0.27467,-0.04988403,0.80187
500.556,0.92702,-3.27214,0.26452,-0.04834709,0.80136
501.256,0.92815,-3.275,0.26088,-0.04672775,0.80084
501.956,0.92929,-3.27899,0.24129,-0.04506369,0.80032
502.656,0.93043,-3.28202,0.24747,-0.04336053,0.79981
503.356,0.93157,-3.28487,0.23758,-0.04159884,0.79929
504.056,0.93271,-3.28641,0.22475,-0.03972702,0.79877
504.756,0.93384,-3.28931,0.2121,-0.03772312,0.79825
505.456,0.93498,-3.2915,0.21126,-0.03558305,0.79773
506.156,0.93611,-3.29718,0.19694,-0.03338384,0.79721
506.856,0.93725,-3.29979,0.1842,-0.03122857,0.79669
507.556,0.93838,-3.30092,0.18228,-0.02926172,0.79617
508.256,0.93952,-3.30111,0.17283,-0.02759483,0.79565
508.956,0.94066,-3.30111,0.17835,-0.02628755,0.79513
509.656,0.9418,-3.30103,0.16467,-0.02531293,0.79461
510.356,0.94293,-3.30432,0.15359,-0.02457061,0.79409
511.056,0.94407,-3.30856,0.1594,-0.02393195,0.79357
511.756,0.94521,-3.31021,0.15036,-0.02328448,0.79305
512.456,0.94635,-3.31152,0.14532,-0.0225647,0.79252
513.156,0.94749,-3.31283,0.13858,-0.02176033,0.792
513.856,0.94863,-3.31396,0.13821,-0.02089431,0.79148
514.556,0.94977,-3.31413,0.15068,-0.0200126,0.79095
515.256,0.95091,-3.31668,0.13851,-0.01915711,0.79043
515.956,0.95206,-3.31801,0.1352,-0.01837224,0.7899
516.656,0.9532,-3.318,0.13645,-0.01768748,0.78938
517.356,0.95434,-3.31999,0.13439,-0.01713421,0.78885
518.056,0.95548,-3.32352,0.13126,-0.01673699,0.78833
518.756,0.95661,-3.32217,0.12796,-0.01650675,0.7878
519.456,0.95775,-3.32362,0.1329,-0.01642538,0.78728
520.156,0.95889,-3.3237,0.13004,-0.01643888,0.78675
520.856,0.96003,-3.32497,0.12991,-0.01646,0.78622
521.556,0.96117,-3.32622,0.12719,-0.01638803,0.7857
522.256,0.96231,-3.32765,0.11823,-0.01613739,0.78517
522.956,0.96345,-3.33077,0.11255,-0.01566121,0.78464
523.656,0.96459,-3.33073,0.11433,-0.01496852,0.78411
524.356,0.96573,-3.33186,0.1094,-0.01411947,0.78358
525.056,0.96686,-3.33223,0.10615,-0.01320623,0.78306
525.756,0.968,-3.33335,0.1062,-0.01232794,0.78253
526.456,0.96915,-3.33335,0.10264,-0.01156599,0.782
527.156,0.97029,-3.33597,0.10093,-0.01098484,0.78147
527.856,0.97143,-3.33422,0.09591558,-0.01060529,0.78094
528.556,0.97257,-3.33495,0.09251176,-0.0104184,0.78041
529.256,0.97372,-3.3372,0.09158448,-0.01038751,0.77988
529.956,0.97486,-3.33719,0.10295,-0.01045762,0.77934
530.656,0.976,-3.33719,0.09803324,-0.01056051,0.77881
531.356,0.97715,-3.33776,0.09810075,-0.01062899,0.77828
532.056,0.97829,-3.33996,0.08287331,-0.01060655,0.77775
532.756,0.97944,-3.34,0.06843887,-0.01046167,0.77722
533.456,0.98059,-3.33984,0.07917156,-0.01019996,0.77668
534.156,0.98173,-3.34275,0.0876026,-0.00985658,0.77615
534.856,0.98287,-3.3439,0.07739812,-0.009491589,0.77562
535.556,0.98403,-3.3429,0.07573694,-0.009154798,0.77508
536.256,0.98518,-3.3429,0.07161388,-0.008887485,0.77455
536.956,0.98633,-3.3429,0.06407753,-0.00868421,0.77401
537.656,0.98748,-3.34387,0.05792516,-0.00850873,0.77348
538.356,0.98862,-3.34531,0.0720144,-0.008302073,0.77294
539.056,0.98978,-3.34663,0.05212236,-0.00800799,0.77241
539.756,0.99093,-3.34663,0.04796746,-0.007595811,0.77187
540.456,0.99208,-3.34664,0.05175018,-0.007064645,0.77134
541.156,0.99323,-3.34794,0.04970846,-0.00644878,0.7708
541.856,0.99438,-3.34794,0.04617045,-0.005801465,0.77026
542.556,0.99553,-3.34795,0.04698971,-0.005186269,0.76973
543.256,0.99667,-3.35027,0.04269631,-0.00466047,0.76919
543.956,0.99782,-3.34738,0.04738046,-0.004262694,0.76865
544.656,0.99896,-3.34871,0.05105471,-0.004012435,0.76811
545.356,1.00011,-3.35,0.04616012,-0.003909586,0.76758
546.056,1.00126,-3.35003,0.03675574,-0.003941415,0.76704
546.756,1.00242,-3.34871,0.03867561,-0.004088573,0.7665
547.456,1.00357,-3.34949,0.04457929,-0.004333399,0.76596
548.156,1.00472,-3.35066,0.04043239,-0.004662525,0.76542
548.856,1.00587,-3.35068,0.04219405,-0.005062325,0.76488
549.556,1.00702,-3.35134,0.04836527,-0.005508026,0.76434
550.256,1.00817,-3.35132,0.04708454,-0.005950184,0.7638
550.956,1.00933,-3.35003,0.04298472,-0.00630891,0.76326
551.656,1.01048,-3.35003,0.03322682,-0.006482209,0.76272
552.356,1.01163,-3.35129,0.04031527,-0.00638142,0.76218
553.056,1.01278,-3.35538,0.02824258,-0.005957388,0.76164
553.756,1.01394,-3.354,0.03164387,-0.0052296,0.7611
554.456,1.01509,-3.35681,0.02901128,-0.004300059,0.76056
555.156,1.01625,-3.35553,0.02993939,-0.003328662,0.76001
555.856,1.0174,-3.35399,0.02795869,-0.0025005,0.75947
556.556,1.01855,-3.3541,0.02660814,-0.001965992,0.75893
557.256,1.01971,-3.35633,0.02700045,-0.00183004,0.75839
557.956,1.02086,-3.35451,0.02955599,-0.00209715,0.75784
558.656,1.02201,-3.35254,0.02807669,-0.00268559,0.7573
559.356,1.02316,-3.35386,0.02924646,-0.003444494,0.75676
560.056,1.02432,-3.35386,0.02992516,-0.004193908,0.75621
560.756,1.02548,-3.35389,0.02374738,-0.004770649,0.75567
561.456,1.02663,-3.3565,0.01732582,-0.005072684,0.75512
562.156,1.02779,-3.35753,0.01545745,-0.00509186,0.75458
562.856,1.02895,-3.35879,0.017335,-0.00491107,0.75403
563.556,1.0301,-3.3588,0.01656474,-0.004667361,0.75349
564.256,1.03126,-3.35772,0.0147719,-0.004499535,0.75294
564.956,1.03241,-3.3565,0.01582563,-0.004497216,0.7524
565.656,1.03357,-3.3565,0.01463866,-0.004668875,0.75185
566.356,1.03473,-3.35651,0.01623705,-0.0049455,0.7513
567.056,1.03589,-3.35754,0.009488261,-0.005210472,0.75076
567.756,1.03705,-3.36013,0.005865487,-0.005346526,0.75021
568.456,1.03821,-3.36012,0.003962887,-0.00527676,0.74966
569.156,1.03936,-3.36132,0.01379013,-0.004986774,0.74912
569.856,1.04052,-3.36012,0.00880416,-0.004514459,0.74857
570.556,1.04167,-3.36012,-0.001192501,-0.00393883,0.74802
571.256,1.04284,-3.36143,-0.00199295,-0.00334149,0.74747
571.956,1.044,-3.36143,-0.0060501,-0.002800105,0.74692
572.656,1.04515,-3.36143,-0.01010172,-0.00235374,0.74638
573.356,1.04631,-3.36143,-0.0179609,-0.002015617,0.74583
574.056,1.04747,-3.36003,-0.01458255,-0.001776166,0.74528
574.756,1.04863,-3.3611,-0.0121182,-0.00161995,0.74473
575.456,1.04978,-3.36109,-0.02306443,-0.001540128,0.74418
576.156,1.05094,-3.36209,-0.01680325,-0.00154869,0.74363
576.856,1.05211,-3.36342,-0.02667804,-0.001670314,0.74308
577.556,1.05327,-3.36205,-0.02323271,-0.001925834,0.74253
578.256,1.05443,-3.36077,-0.02537567,-0.002308934,0.74198
578.956,1.0556,-3.35991,-0.03363075,-0.002777043,0.74143
579.656,1.05676,-3.36045,-0.03117368,-0.003243672,0.74088
580.356,1.05792,-3.36318,-0.0379698,-0.003608548,0.74033
581.056,1.05908,-3.36318,-0.04277629,-0.003778891,0.73977
581.756,1.06025,-3.36318,-0.03341736,-0.003702853,0.73922
582.456,1.06141,-3.36456,-0.02598271,-0.003383867,0.73867
583.156,1.06258,-3.36428,-0.02569262,-0.002880685,0.73812
583.856,1.06375,-3.36439,-0.02337699,-0.002286694,0.73757
584.556,1.06491,-3.36439,-0.02577832,-0.001713879,0.73701
585.256,1.06608,-3.36439,-0.02690633,-0.00125454,0.73646
585.956,1.06724,-3.36393,-0.02827336,-0.0009673555,0.73591
586.656,1.06841,-3.3644,-0.03125287,-0.0008686064,0.73535
587.356,1.06957,-3.36411,-0.03281666,-0.000939283,0.7348
588.056,1.07075,-3.36374,-0.02661138,-0.001133394,0.73425
588.756,1.07192,-3.36374,-0.01903933,-0.00139459,0.73369
589.456,1.07309,-3.36381,-0.03559239,-0.001678394,0.73314
590.156,1.07425,-3.36505,-0.02442465,-0.001958908,0.73259
590.856,1.07542,-3.36645,-0.02085164,-0.002233731,0.73203
591.556,1.07658,-3.36506,-0.0161829,-0.0025111,0.73148
592.256,1.07775,-3.36423,-0.01164387,-0.002801256,0.73092
592.956,1.07891,-3.36374,-0.005948719,-0.003106888,0.73037
593.656,1.08008,-3.36505,-0.00451249,-0.003423247,0.72981
594.356,1.08125,-3.36637,0.00311601,-0.003742065,0.72926
595.056,1.08242,-3.36643,-0.001051953,-0.004051484,0.7287
595.756,1.08358,-3.36778,0.00529344,-0.00433504,0.72814
596.456,1.08475,-3.36669,0.02030924,-0.004562074,0.72759
597.156,1.08592,-3.36538,0.02742429,-0.004686697,0.72703
597.856,1.08709,-3.36677,0.02637119,-0.004658226,0.72648
598.556,1.08826,-3.36795,0.02817729,-0.004445566,0.72592
599.256,1.08943,-3.36933,0.04134829,-0.004059187,0.72536
599.956,1.0906,-3.37065,0.04372207,-0.00356894,0.72481
600.656,1.09177,-3.36933,0.04929833,-0.00308582,0.72425
601.356,1.09294,-3.36933,0.04697098,-0.00273684,0.72369
602.056,1.09411,-3.36934,0.05626006,-0.002615289,0.72313
602.756,1.09528,-3.3679,0.07611924,-0.002755154,0.72258
603.456,1.09645,-3.36757,0.05796347,-0.003117516,0.72202
604.156,1.09763,-3.368,0.06110145,-0.00360777,0.72146
604.856,1.0988,-3.37053,0.06314384,-0.004102045,0.7209
605.556,1.09997,-3.37053,0.07430409,-0.004491898,0.72034
606.256,1.10114,-3.37053,0.07107953,-0.004702468,0.71978
606.956,1.10231,-3.37053,0.07823474,-0.004708068,0.71923
607.656,1.10348,-3.37055,0.07379928,-0.00452491,0.71867
608.356,1.10465,-3.37185,0.07640621,-0.004202816,0.71811
609.056,1.10582,-3.37182,0.06698207,-0.00381511,0.71755
609.756,1.107,-3.37316,0.06172594,-0.003438465,0.71699
610.456,1.10817,-3.37283,0.05427222,-0.003142551,0.71643
611.156,1.10935,-3.37318,0.04683248,-0.002965305,0.71587
611.856,1.11052,-3.37185,0.05177263,-0.002910618,0.71531
612.556,1.1117,-3.37185,0.04457879,-0.002945648,0.71475
613.256,1.11287,-3.37187,0.04189132,-0.0030163,0.71419
613.956,1.11404,-3.37328,0.05454664,-0.003068715,0.71363
614.656,1.11522,-3.37458,0.05248818,-0.003068435,0.71307
615.356,1.1164,-3.37383,0.04945391,-0.003009228,0.71251
616.056,1.11757,-3.37383,0.04770166,-0.002909945,0.71194
616.756,1.11875,-3.37452,0.05457791,-0.00280026,0.71138
617.456,1.11992,-3.37536,0.06057305,-0.00270675,0.71082
618.156,1.1211,-3.3735,0.05983162,-0.002643654,0.71026
618.856,1.12227,-3.3735,0.07174953,-0.002615705,0.7097
619.556,1.12345,-3.37537,0.07715015,-0.002625455,0.70914
620.256,1.12463,-3.37613,0.10077,-0.002677885,0.70858
620.956,1.1258,-3.37515,0.1046,-0.002774884,0.70801
621.656,1.12698,-3.37648,0.1214,-0.0029003,0.70745
622.356,1.12816,-3.37514,0.12817,-0.00300411,0.70689
623.056,1.12934,-3.37383,0.13945,-0.002999753,0.70633
623.756,1.13052,-3.3747,0.13965,-0.002785477,0.70576
624.456,1.1317,-3.3743,0.15275,-0.00228207,0.7052
625.156,1.13288,-3.37695,0.15574,-0.001486325,0.70464
625.856,1.13406,-3.37968,0.15487,-0.0004991755,0.70407
626.556,1.13524,-3.37955,0.16408,0.0004729892,0.70351
627.256,1.13642,-3.37938,0.17775,0.001176785,0.70295
627.956,1.1376,-3.37689,0.18825,0.001381721,0.70238
628.656,1.13878,-3.37545,0.1921,0.0009557254,0.70182
629.356,1.13996,-3.37275,0.19862,-8.667366e-05,0.70126
630.056,1.14114,-3.37404,0.19762,-0.0015976,0.70069
630.756,1.14233,-3.37536,0.20061,-0.003305834,0.70013
631.456,1.14351,-3.37693,0.21037,-0.004902258,0.69956
632.156,1.14469,-3.3769,0.21807,-0.006090551,0.699
632.856,1.14586,-3.3778,0.22836,-0.006674,0.69843
633.556,1.14704,-3.3768,0.22518,-0.00654659,0.69787
634.256,1.14822,-3.37914,0.23137,-0.005724297,0.6973
634.956,1.1494,-3.38032,0.23856,-0.004357712,0.69674
635.656,1.15058,-3.38381,0.23694,-0.002694771,0.69617
636.356,1.15176,-3.38066,0.26058,-0.001043087,0.69561
637.056,1.15295,-3.37986,0.28178,0.0002912748,0.69504
637.756,1.15414,-3.37841,0.27351,0.001058802,0.69448
638.456,1.15533,-3.38089,0.30332,0.00115471,0.69391
639.156,1.15652,-3.37456,0.31018,0.0006269948,0.69335
639.856,1.1577,-3.37621,0.31608,-0.000340977,0.69278
640.556,1.15889,-3.38018,0.31408,-0.00146057,0.69222
641.256,1.16007,-3.37886,0.32105,-0.002468099,0.69165
641.956,1.16126,-3.37755,0.33006,-0.003151029,0.69108
642.656,1.16245,-3.38014,0.32766,-0.003296356,0.69052
643.356,1.16364,-3.3812,0.34491,-0.002557642,0.68995
644.056,1.16482,-3.38098,0.34056,-0.0002517063,0.68938
644.756,1.16601,-3.3815,0.3458,0.00592557,0.68882
645.056,1.16651,-3.38115,0.35331,0.01241525,0.68858