File: 01_Data/PVC/STA/N2/10K_min/PVC_STA_N2_10KData_210505_R1.csv
##Temp./Â°C,Time/min,DSC(subtr.2)/mW,Mass loss(subtr.2)/mg,DTG(subtr.2)/(mg/min),Sensit./(uV/mW)
48.346,0.16683,-0.0561854,0.01416,-0.07443178,0.99127
49.046,0.19057,0.03337804,0.008674806,-0.0002104583,0.99128
49.746,0.19646,0.08204125,0.006129729,0.00043919,0.99129
50.446,0.20075,0.11438,0.003904112,0.0006469572,0.9913
51.146,0.20425,0.15157,0.00529781,-0.00161865,0.99131
51.846,0.20734,0.17694,0.00758572,-0.004694521,0.99131
52.546,0.21014,0.20626,0.00344291,-0.004617764,0.99132
53.246,0.21274,0.2241,0.000211337,-0.001029418,0.99132
53.946,0.21516,0.24683,0.00109855,0.00271666,0.99133
54.646,0.21747,0.25801,0.005325039,0.0038648,0.99133
55.346,0.21969,0.27383,0.004076612,0.00232481,0.99133
56.046,0.22183,0.29378,0.008422736,-0.0001318334,0.99133
56.746,0.22388,0.30644,0.006321515,-0.001765053,0.99133
57.446,0.22589,0.31269,0.0001181849,-0.002079126,0.99133
58.146,0.22785,0.32579,0.0040948,-0.00164276,0.99132
58.846,0.22975,0.32948,0.00559848,-0.001270375,0.99132
59.546,0.23161,0.33574,0.00561737,-0.001271035,0.99131
60.246,0.23344,0.34721,0.002678088,-0.00139193,0.99131
60.946,0.23525,0.35357,0.002750373,-0.001188878,0.9913
61.646,0.23702,0.35757,0.002504748,-0.0004455852,0.99129
62.346,0.23875,0.35799,0.00514945,0.0006366043,0.99128
63.046,0.24046,0.36635,4.951674e-05,0.001519146,0.99127
63.746,0.24214,0.37457,0.0004896678,0.00157337,0.99126
64.446,0.24378,0.38018,0.00763251,0.0004839515,0.99125
65.146,0.24541,0.38395,0.007955597,-0.001541522,0.99123
65.846,0.24702,0.39416,0.006684814,-0.00387264,0.99122
66.546,0.24862,0.39585,0.001436682,-0.005703129,0.9912
67.246,0.25019,0.40577,0.0001096138,-0.006459778,0.99118
67.946,0.25175,0.40895,0.004680585,-0.00592853,0.99116
68.646,0.25329,0.42211,-0.00121918,-0.00425839,0.99114
69.346,0.25481,0.43028,-0.0007576466,-0.001917745,0.99112
70.046,0.25631,0.43815,-0.002003121,0.000476623,0.9911
70.746,0.2578,0.44535,-0.002650707,0.002237678,0.99108
71.446,0.25929,0.45935,0.0008115008,0.002832578,0.99105
72.146,0.26075,0.46319,0.004676324,0.002129084,0.99103
72.846,0.26219,0.47074,0.003827841,0.0004762968,0.991
73.546,0.2636,0.48308,-0.000960537,-0.00139861,0.99097
74.246,0.26503,0.49623,0.008392393,-0.002733096,0.99094
74.946,0.26644,0.50906,0.00266435,-0.002921025,0.99091
75.646,0.26788,0.51889,-0.00391882,-0.001844725,0.99088
76.346,0.26927,0.5299,-0.00725271,-2.42845e-05,0.99085
77.046,0.27066,0.55308,-0.00519858,0.001756621,0.99082
77.746,0.27203,0.56345,0.005479397,0.00273751,0.99078
78.446,0.2734,0.57602,0.00571671,0.002536455,0.99075
79.146,0.27474,0.60447,0.00193855,0.001289732,0.99071
79.846,0.27608,0.60652,0.002538444,-0.000488422,0.99067
80.546,0.27742,0.61465,0.002063085,-0.002107162,0.99063
81.246,0.27874,0.6353,0.002973806,-0.002966142,0.99059
81.946,0.28006,0.63628,0.000747587,-0.00274582,0.99055
82.646,0.28138,0.64228,-0.0008781477,-0.001484144,0.99051
83.346,0.28268,0.63943,-0.005131003,0.0004215412,0.99047
84.046,0.28397,0.64415,0.0009868472,0.002365354,0.99042
84.746,0.28525,0.63362,0.0001409815,0.003715267,0.99038
85.446,0.28653,0.63473,-0.00196394,0.004028,0.99033
86.146,0.2878,0.63257,0.002039585,0.003150876,0.99028
86.846,0.28907,0.62849,0.00739925,0.001315692,0.99023
87.546,0.29033,0.62856,0.01053243,-0.000949116,0.99018
88.246,0.29158,0.62686,0.002305882,-0.00302578,0.99013
88.946,0.29283,0.6349,0.0005607835,-0.00440038,0.99008
89.646,0.29407,0.64127,-0.0003922837,-0.004835543,0.99003
90.346,0.2953,0.64465,-0.005247577,-0.00442296,0.98997
91.046,0.29652,0.66107,-0.0006546417,-0.00348061,0.98992
91.746,0.29774,0.66745,-0.002364937,-0.002409277,0.98986
92.446,0.29896,0.66541,0.001973809,-0.00154626,0.9898
93.146,0.30017,0.6799,0.001970279,-0.001068987,0.98975
93.846,0.30138,0.68498,0.00132078,-0.0009973965,0.98969
94.546,0.30259,0.6998,-0.0006534675,-0.001219103,0.98963
95.246,0.30379,0.70422,-0.0024119,-0.00156083,0.98956
95.946,0.30498,0.72677,-0.002386132,-0.00185228,0.9895
96.646,0.30618,0.73606,0.005022849,-0.001968067,0.98944
97.346,0.30737,0.7377,0.002124565,-0.00186151,0.98937
98.046,0.30856,0.74599,-0.00281058,-0.00158561,0.9893
98.746,0.30974,0.75981,-0.0052856,-0.00128324,0.98924
99.446,0.31092,0.76992,-0.001353461,-0.001137982,0.98917
100.146,0.31209,0.77718,-0.00344831,-0.001302088,0.9891
100.846,0.31327,0.78882,-0.0003468724,-0.001821935,0.98903
101.546,0.31445,0.79974,0.003715963,-0.0025975,0.98896
102.246,0.31562,0.80328,0.004483829,-0.003416413,0.98888
102.946,0.31678,0.80899,-0.000395846,-0.00404837,0.98881
103.646,0.31795,0.81365,-0.00406148,-0.004344439,0.98873
104.346,0.31911,0.81358,-0.00662397,-0.004304499,0.98866
105.046,0.32026,0.82118,-0.01005942,-0.00406543,0.98858
105.746,0.32141,0.82964,0.0001550298,-0.003810633,0.9885
106.446,0.32257,0.83601,-0.00560327,-0.003686347,0.98842
107.146,0.32374,0.8433,-0.0003492022,-0.003720202,0.98834
107.846,0.32489,0.85126,0.003474537,-0.003809043,0.98826
108.546,0.32604,0.85659,-6.315941e-05,-0.003781809,0.98818
109.246,0.32719,0.859,-0.01365979,-0.003486439,0.98809
109.946,0.32834,0.86258,-0.01109663,-0.002859514,0.98801
110.646,0.32948,0.86805,-0.00305625,-0.001959603,0.98792
111.346,0.33062,0.87125,0.00260378,-0.0009380847,0.98784
112.046,0.33177,0.8822,-0.01076592,1.69627e-05,0.98775
112.746,0.3329,0.88015,-0.006107638,0.0007316848,0.98766
113.446,0.33403,0.8931,-0.00436111,0.00109298,0.98757
114.146,0.33516,0.90474,-0.00681914,0.00106366,0.98748
114.846,0.33629,0.90912,0.0008258627,0.0006674659,0.98738
115.546,0.33743,0.91035,-0.001739885,-3.059478e-05,0.98729
116.246,0.33856,0.91469,-0.005806476,-0.0009314998,0.9872
116.946,0.33969,0.91876,-0.009822042,-0.001923732,0.9871
117.646,0.34082,0.92677,-0.0004176941,-0.002888038,0.987
118.346,0.34194,0.92434,-0.00226375,-0.00370482,0.98691
119.046,0.34306,0.93496,-0.006617311,-0.004250744,0.98681
119.746,0.34419,0.94194,-0.00373036,-0.00441828,0.98671
120.446,0.3453,0.94982,-0.005969414,-0.004139137,0.98661
121.146,0.34642,0.95274,-0.007299909,-0.00341635,0.9865
121.846,0.34754,0.95498,-0.008647587,-0.002332185,0.9864
122.546,0.34865,0.95816,-0.009067482,-0.001050925,0.9863
123.246,0.34977,0.96126,-0.008660065,0.0002231102,0.98619
123.946,0.35088,0.96248,-0.006537458,0.001269668,0.98608
124.646,0.35198,0.9694,-0.00581003,0.00192766,0.98598
125.346,0.35308,0.9695,-0.00580999,0.002100903,0.98587
126.046,0.35418,0.97217,-0.005831515,0.001770048,0.98576
126.746,0.35528,0.98031,-0.005546444,0.0009807333,0.98565
127.446,0.35639,0.98084,-0.003828883,-0.000180605,0.98554
128.146,0.35749,0.99014,-0.00572858,-0.001585939,0.98542
128.846,0.35859,0.99423,-0.00503479,-0.003120274,0.98531
129.546,0.35968,1.00089,-0.003752002,-0.004655668,0.98519
130.246,0.36078,1.01124,-0.006149897,-0.006079115,0.98508
130.946,0.36187,1.00398,-0.00677671,-0.007250385,0.98496
131.646,0.36296,1.01271,-0.008011716,-0.008042655,0.98484
132.346,0.36404,1.01816,-0.00801135,-0.008314874,0.98472
133.046,0.36513,1.02089,-0.00767893,-0.007950779,0.9846
133.746,0.36622,1.02388,-0.00767994,-0.00688145,0.98448
134.446,0.36731,1.03413,-0.009218345,-0.005158359,0.98436
135.146,0.3684,1.03065,-0.01459578,-0.002973467,0.98424
135.846,0.36947,1.03349,-0.01585407,-0.000633368,0.98411
136.546,0.37054,1.03214,-0.01536276,0.00151674,0.98398
137.246,0.37162,1.03486,-0.0154618,0.003144487,0.98386
137.946,0.3727,1.04086,-0.00838849,0.004000678,0.98373
138.646,0.37378,1.04332,-0.003846778,0.004021144,0.9836
139.346,0.37486,1.04836,-0.005143947,0.00333692,0.98347
140.046,0.37593,1.04775,-0.00506133,0.0022272,0.98334
140.746,0.37701,1.05454,-0.009203838,0.001045645,0.98321
141.446,0.37808,1.06041,-0.008727696,8.624861e-05,0.98308
142.146,0.37914,1.06291,-0.0080097,-0.00047739,0.98294
142.846,0.38021,1.06843,-0.009334557,-0.000636588,0.98281
143.546,0.38128,1.05947,-0.01382782,-0.0005263628,0.98267
144.246,0.38235,1.06843,-0.0140782,-0.0003680962,0.98253
144.946,0.38341,1.06265,-0.01100909,-0.0003814195,0.9824
145.646,0.38447,1.07966,-0.00429321,-0.0007088563,0.98226
146.346,0.38554,1.08249,-0.003741644,-0.00137598,0.98212
147.046,0.3866,1.08405,-0.00728423,-0.002291079,0.98197
147.746,0.38767,1.0871,-0.008000033,-0.003279705,0.98183
148.446,0.38873,1.09287,-0.01084539,-0.00416081,0.98169
149.146,0.38979,1.09087,-0.00916934,-0.00479191,0.98154
149.846,0.39085,1.09373,-0.009311126,-0.005111963,0.9814
150.546,0.39191,1.0965,-0.01389355,-0.005137502,0.98125
151.246,0.39296,1.10211,-0.01165498,-0.004942059,0.9811
151.946,0.39402,1.10278,-0.01151903,-0.00461362,0.98095
152.646,0.39508,1.10695,-0.01151987,-0.004226415,0.98081
153.346,0.39614,1.10583,-0.01057072,-0.003823283,0.98065
154.046,0.3972,1.10516,-0.01029692,-0.003417767,0.9805
154.746,0.39825,1.11066,-0.01128729,-0.00300637,0.98035
155.446,0.3993,1.11533,-0.01427421,-0.002588321,0.9802
156.146,0.40036,1.11372,-0.01551818,-0.002178529,0.98004
156.846,0.40141,1.10433,-0.01425818,-0.001803586,0.97988
157.546,0.40246,1.10807,-0.01334433,-0.00148762,0.97973
158.246,0.40352,1.11107,-0.012328,-0.001234302,0.97957
158.946,0.40457,1.11238,-0.01031675,-0.00102969,0.97941
159.646,0.40563,1.11702,-0.009372116,-0.000848703,0.97925
160.346,0.40668,1.11588,-0.01420517,-0.0006755454,0.97909
161.046,0.40773,1.11653,-0.01641092,-0.000522007,0.97893
161.746,0.40878,1.11114,-0.01276878,-0.0004291756,0.97876
162.446,0.40984,1.11641,-0.01373129,-0.0004525454,0.9786
163.146,0.41089,1.11875,-0.01629711,-0.00062905,0.97843
163.846,0.41194,1.11337,-0.01326429,-0.0009471101,0.97827
164.546,0.41299,1.11554,-0.01154589,-0.001334465,0.9781
165.246,0.41404,1.1198,-0.008788805,-0.00168545,0.97793
165.946,0.41509,1.11377,-0.008065889,-0.001900139,0.97776
166.646,0.41614,1.11877,-0.0115334,-0.00194226,0.97759
167.346,0.41719,1.12588,-0.01824364,-0.001872988,0.97742
168.046,0.41824,1.12224,-0.02421549,-0.001839945,0.97725
168.746,0.4193,1.12903,-0.01844857,-0.002023675,0.97708
169.446,0.42035,1.12203,-0.01197123,-0.002555917,0.9769
170.146,0.4214,1.12102,-0.008757259,-0.00344818,0.97673
170.846,0.42245,1.12223,-0.00321884,-0.004569241,0.97655
171.546,0.4235,1.11502,-0.007982114,-0.005660428,0.97637
172.246,0.42455,1.12419,-0.02190936,-0.00643139,0.97619
172.946,0.42559,1.12345,-0.01803413,-0.00662611,0.97601
173.646,0.42664,1.12258,-0.01775694,-0.00611598,0.97583
174.346,0.42769,1.12605,-0.01485441,-0.004913343,0.97565
175.046,0.42872,1.12551,-0.02489055,-0.003208001,0.97547
175.746,0.42976,1.12712,-0.01860262,-0.00122189,0.97529
176.446,0.43081,1.13221,-0.01816036,0.0007426842,0.9751
177.146,0.43186,1.12186,-0.01527651,0.002414574,0.97492
177.846,0.43292,1.13436,-0.01684273,0.00355295,0.97473
178.546,0.43396,1.13223,-0.0216072,0.004027265,0.97454
179.246,0.43501,1.12747,-0.01673534,0.003828605,0.97435
179.946,0.43606,1.12307,-0.01169837,0.003033601,0.97416
180.646,0.4371,1.12102,-0.01054343,0.001803331,0.97397
181.346,0.43814,1.12248,-0.01251823,0.0003378,0.97378
182.046,0.43918,1.12634,-0.01327162,-0.00115967,0.97359
182.746,0.44022,1.12862,-0.01630956,-0.00252886,0.9734
183.446,0.44126,1.13253,-0.02198925,-0.003670745,0.9732
184.146,0.4423,1.12012,-0.01472629,-0.004538272,0.97301
184.846,0.44335,1.13025,-0.01199871,-0.005151991,0.97281
185.546,0.44439,1.12642,-0.01781623,-0.00556795,0.97261
186.246,0.44543,1.12515,-0.01675931,-0.00585919,0.97241
186.946,0.44647,1.12085,-0.01846544,-0.0060856,0.97221
187.646,0.44751,1.12166,-0.01835819,-0.00628169,0.97201
188.346,0.44855,1.12496,-0.02016515,-0.006443784,0.97181
189.046,0.44959,1.1203,-0.01860044,-0.006527863,0.97161
189.746,0.45063,1.12891,-0.01737868,-0.00645621,0.9714
190.446,0.45166,1.11394,-0.0190833,-0.006137651,0.9712
191.146,0.4527,1.12797,-0.01592894,-0.00549582,0.97099
191.846,0.45374,1.12153,-0.01983909,-0.004511378,0.97079
192.546,0.45477,1.12103,-0.0250694,-0.003233898,0.97058
193.246,0.45581,1.11415,-0.02206295,-0.001801225,0.97037
193.946,0.45684,1.11625,-0.023118,-0.000426947,0.97016
194.646,0.45788,1.12007,-0.02358064,0.0006539318,0.96995
195.346,0.45892,1.12061,-0.0236615,0.00122022,0.96974
196.046,0.45995,1.12234,-0.02015491,0.001140028,0.96953
196.746,0.46099,1.11608,-0.01468726,0.0003902786,0.96932
197.446,0.46202,1.12347,-0.01600108,-0.000928916,0.9691
198.146,0.46306,1.12133,-0.01634973,-0.00262708,0.96889
198.846,0.4641,1.12286,-0.02468611,-0.004430357,0.96867
199.546,0.46513,1.12048,-0.02205885,-0.006080355,0.96845
200.246,0.46617,1.11419,-0.01919141,-0.00735459,0.96823
200.946,0.4672,1.11491,-0.01878501,-0.00812251,0.96801
201.646,0.46823,1.12005,-0.01749224,-0.00835293,0.96779
202.346,0.46927,1.1176,-0.02354198,-0.00811832,0.96757
203.046,0.4703,1.1288,-0.03503995,-0.007569354,0.96735
203.746,0.47134,1.11568,-0.02948205,-0.00688899,0.96713
204.446,0.47237,1.118,-0.02198327,-0.006235976,0.9669
205.146,0.4734,1.12087,-0.02080157,-0.005701299,0.96668
205.846,0.47444,1.1225,-0.02105384,-0.00527688,0.96645
206.546,0.47547,1.12609,-0.02278738,-0.00488746,0.96623
207.246,0.47651,1.12474,-0.02545046,-0.004429927,0.966
207.946,0.47754,1.12805,-0.02849747,-0.003837732,0.96577
208.646,0.47857,1.12501,-0.0252155,-0.003122036,0.96554
209.346,0.4796,1.12363,-0.03389584,-0.002375982,0.96531
210.046,0.48063,1.12589,-0.03081574,-0.00175382,0.96508
210.746,0.48167,1.12831,-0.02785897,-0.00141879,0.96484
211.446,0.48271,1.12365,-0.02405765,-0.0014745,0.96461
212.146,0.48375,1.12528,-0.02211416,-0.001916975,0.96437
212.846,0.48478,1.1166,-0.02132391,-0.00263148,0.96414
213.546,0.48582,1.12407,-0.02751244,-0.003440598,0.9639
214.246,0.48685,1.11667,-0.02752984,-0.004133738,0.96367
214.946,0.48789,1.11553,-0.02757421,-0.004560176,0.96343
215.646,0.48892,1.11497,-0.02806274,-0.004649182,0.96319
216.346,0.48996,1.11807,-0.03112402,-0.00442998,0.96295
217.046,0.49099,1.10715,-0.03022882,-0.004008928,0.96271
217.746,0.49203,1.11744,-0.03283848,-0.003528232,0.96246
218.446,0.49307,1.11495,-0.02815875,-0.003120613,0.96222
219.146,0.4941,1.10831,-0.02456634,-0.002875922,0.96198
219.846,0.49514,1.1136,-0.02733775,-0.0028269,0.96173
220.546,0.49617,1.1133,-0.03048825,-0.002956143,0.96148
221.246,0.4972,1.1173,-0.02781736,-0.00321621,0.96124
221.946,0.49824,1.10592,-0.03358758,-0.00354831,0.96099
222.646,0.49927,1.11513,-0.0338007,-0.00390096,0.96074
223.346,0.50031,1.10002,-0.02456004,-0.004237717,0.96049
224.046,0.50135,1.11417,-0.02684751,-0.004540569,0.96024
224.746,0.50238,1.10588,-0.03027123,-0.004808487,0.95999
225.446,0.50342,1.10989,-0.03290186,-0.005054556,0.95974
226.146,0.50445,1.10945,-0.03594215,-0.00528898,0.95948
226.846,0.50549,1.10616,-0.03102092,-0.00551073,0.95923
227.546,0.50653,1.10535,-0.03094693,-0.005692408,0.95897
228.246,0.50756,1.10438,-0.0322098,-0.00578577,0.95872
228.946,0.5086,1.10059,-0.02995501,-0.005740135,0.95846
229.646,0.50963,1.09734,-0.02932832,-0.005534117,0.9582
230.346,0.51067,1.10862,-0.03224856,-0.005204923,0.95794
231.046,0.5117,1.11319,-0.03686796,-0.004858508,0.95768
231.746,0.51274,1.12002,-0.04598976,-0.004649702,0.95742
232.446,0.51378,1.10749,-0.04082018,-0.004738321,0.95716
233.146,0.51482,1.11023,-0.02701926,-0.005225929,0.9569
233.846,0.51585,1.10493,-0.03251146,-0.006102806,0.95663
234.546,0.51689,1.09823,-0.02665653,-0.00725376,0.95637
235.246,0.51793,1.10328,-0.03194708,-0.008478229,0.9561
235.946,0.51897,1.10086,-0.03771193,-0.00957126,0.95583
236.646,0.52001,1.10496,-0.03936991,-0.01038982,0.95557
237.346,0.52104,1.10458,-0.04209728,-0.01091271,0.9553
238.046,0.52208,1.10427,-0.0402792,-0.01122951,0.95503
238.746,0.52312,1.10208,-0.03893227,-0.011518,0.95476
239.446,0.52415,1.09975,-0.04160806,-0.01197554,0.95449
240.146,0.52519,1.1028,-0.04054985,-0.01276606,0.95422
240.846,0.52623,1.093,-0.03783612,-0.01397097,0.95394
241.546,0.52727,1.09016,-0.0398286,-0.01557913,0.95367
242.246,0.52831,1.07358,-0.04160566,-0.01751216,0.95339
242.946,0.52934,1.05228,-0.04302868,-0.01965082,0.95312
243.646,0.53038,1.01738,-0.04548703,-0.02188739,0.95284
244.346,0.53142,0.96422,-0.04862597,-0.02413861,0.95256
245.046,0.53245,0.91462,-0.04921879,-0.02636614,0.95229
245.746,0.53349,0.90352,-0.04584848,-0.02856871,0.95201
246.446,0.53453,0.93903,-0.04986318,-0.03079128,0.95173
247.146,0.53556,1.01618,-0.05338126,-0.03306375,0.95145
247.846,0.53659,1.09705,-0.05610951,-0.03541475,0.95116
248.546,0.53763,1.16291,-0.0629893,-0.03785733,0.95088
249.246,0.53867,1.21539,-0.06091177,-0.0403506,0.9506
249.946,0.53972,1.24227,-0.05570369,-0.042815,0.95031
250.646,0.54076,1.27869,-0.05929181,-0.04512634,0.95003
251.346,0.5418,1.30198,-0.07609519,-0.0472024,0.94974
252.046,0.54284,1.32016,-0.06679046,-0.04899162,0.94945
252.746,0.54387,1.34229,-0.07762254,-0.05050829,0.94917
253.446,0.54491,1.35832,-0.0826966,-0.05181108,0.94888
254.146,0.54595,1.37247,-0.08270007,-0.052999,0.94859
254.846,0.54699,1.3884,-0.08341707,-0.05416202,0.9483
255.546,0.54803,1.40027,-0.08757475,-0.05536089,0.948
256.246,0.54907,1.40909,-0.08897129,-0.05659625,0.94771
256.946,0.55011,1.43314,-0.09351759,-0.05783945,0.94742
257.646,0.55115,1.44515,-0.09652939,-0.05901186,0.94712
258.346,0.55219,1.46777,-0.10159,-0.06006449,0.94683
259.046,0.55323,1.48005,-0.1173,-0.06095241,0.94653
259.746,0.55427,1.4914,-0.11011,-0.06167729,0.94623
260.446,0.55531,1.49642,-0.10882,-0.06227555,0.94594
261.146,0.55635,1.50968,-0.11773,-0.06279563,0.94564
261.846,0.55739,1.52151,-0.12646,-0.06329974,0.94534
262.546,0.55843,1.52832,-0.12021,-0.06383071,0.94504
263.246,0.55947,1.55118,-0.13811,-0.06441737,0.94474
263.946,0.56051,1.56084,-0.14004,-0.0650656,0.94443
264.646,0.56155,1.55652,-0.13132,-0.06577057,0.94413
265.346,0.56259,1.57376,-0.13473,-0.06652577,0.94383
266.046,0.56363,1.58974,-0.1511,-0.06733889,0.94352
266.746,0.56467,1.61275,-0.15345,-0.06825538,0.94322
267.446,0.56571,1.62218,-0.15616,-0.0693451,0.94291
268.146,0.56676,1.63568,-0.16402,-0.07069508,0.9426
268.846,0.5678,1.64961,-0.1625,-0.07237389,0.94229
269.546,0.56884,1.66216,-0.16485,-0.07443826,0.94198
270.246,0.56988,1.67306,-0.16516,-0.07687717,0.94167
270.946,0.57093,1.68946,-0.17775,-0.07965882,0.94136
271.646,0.57197,1.70614,-0.18786,-0.08267188,0.94105
272.346,0.57302,1.72422,-0.19104,-0.08582954,0.94074
273.046,0.57406,1.73786,-0.18856,-0.08903184,0.94043
273.746,0.5751,1.74903,-0.19193,-0.09217245,0.94011
274.446,0.57615,1.77834,-0.20306,-0.09518895,0.9398
275.146,0.57719,1.80673,-0.21681,-0.09802392,0.93948
275.846,0.57823,1.81579,-0.21384,-0.10068,0.93916
276.546,0.57927,1.83712,-0.22605,-0.1032,0.93885
277.246,0.58032,1.86208,-0.22335,-0.10571,0.93853
277.946,0.58137,1.8833,-0.23958,-0.10836,0.93821
278.646,0.58242,1.90105,-0.24564,-0.11133,0.93789
279.346,0.58346,1.93348,-0.25809,-0.11476,0.93757
280.046,0.58451,1.95934,-0.25267,-0.11876,0.93724
280.746,0.58555,1.97196,-0.25814,-0.12332,0.93692
281.446,0.5866,2.00533,-0.27606,-0.12838,0.9366
282.146,0.58764,2.03304,-0.27709,-0.13371,0.93627
282.846,0.58868,2.05725,-0.28273,-0.13917,0.93595
283.546,0.58973,2.09107,-0.29592,-0.14451,0.93562
284.246,0.59078,2.12482,-0.31318,-0.14964,0.9353
284.946,0.59183,2.16135,-0.31809,-0.15451,0.93497
285.646,0.59287,2.1925,-0.32599,-0.15926,0.93464
286.346,0.59392,2.22895,-0.33837,-0.16405,0.93431
287.046,0.59496,2.27541,-0.3515,-0.16912,0.93398
287.746,0.59601,2.29393,-0.35164,-0.17466,0.93365
288.446,0.59706,2.33195,-0.37222,-0.18076,0.93332
289.146,0.59811,2.36488,-0.37626,-0.18746,0.93298
289.846,0.59916,2.39795,-0.38291,-0.1947,0.93265
290.546,0.60021,2.44476,-0.40733,-0.20245,0.93232
291.246,0.60126,2.48902,-0.41845,-0.21054,0.93198
291.946,0.6023,2.52401,-0.43258,-0.21888,0.93165
292.646,0.60335,2.56203,-0.44124,-0.22745,0.93131
293.346,0.6044,2.59648,-0.45628,-0.2361,0.93097
294.046,0.60545,2.64693,-0.47315,-0.24479,0.93063
294.746,0.6065,2.69078,-0.48822,-0.25345,0.93029
295.446,0.60755,2.74057,-0.50098,-0.26204,0.92995
296.146,0.60859,2.78416,-0.52179,-0.27057,0.92961
296.846,0.60964,2.83803,-0.54112,-0.27902,0.92927
297.546,0.61069,2.89203,-0.56176,-0.28747,0.92893
298.246,0.61174,2.93435,-0.5759,-0.29593,0.92858
298.946,0.6128,2.98346,-0.59168,-0.30441,0.92824
299.646,0.61385,3.02272,-0.61008,-0.31284,0.9279
300.346,0.61491,3.05709,-0.631,-0.3212,0.92755
301.046,0.61596,3.0967,-0.65394,-0.32936,0.9272
301.746,0.61701,3.13743,-0.67826,-0.3373,0.92686
302.446,0.61806,3.18036,-0.69746,-0.34499,0.92651
303.146,0.61912,3.22238,-0.72193,-0.35248,0.92616
303.846,0.62017,3.25441,-0.74452,-0.3598,0.92581
304.546,0.62123,3.28808,-0.76559,-0.36699,0.92546
305.246,0.62228,3.30511,-0.78376,-0.37398,0.92511
305.946,0.62333,3.33886,-0.80872,-0.3807,0.92476
306.646,0.62438,3.3663,-0.83755,-0.38699,0.9244
307.346,0.62544,3.38702,-0.86208,-0.39276,0.92405
308.046,0.62649,3.41413,-0.88692,-0.39786,0.92369
308.746,0.62753,3.43202,-0.91664,-0.40222,0.92334
309.446,0.62859,3.49811,-0.93935,-0.40591,0.92298
310.146,0.62964,3.51071,-0.96587,-0.409,0.92263
310.846,0.6307,3.52372,-0.9905,-0.4116,0.92227
311.546,0.63176,3.49513,-1.01888,-0.41381,0.92191
312.246,0.63281,3.49459,-1.04404,-0.41575,0.92155
312.946,0.63386,3.47593,-1.07041,-0.41752,0.92119
313.646,0.63491,3.45741,-1.09765,-0.41921,0.92083
314.346,0.63597,3.43217,-1.12492,-0.42084,0.92047
315.046,0.63704,3.42657,-1.14937,-0.42238,0.92011
315.746,0.63809,3.41865,-1.17648,-0.42376,0.91974
316.446,0.63915,3.41673,-1.20384,-0.42489,0.91938
317.146,0.64021,3.4051,-1.23106,-0.42564,0.91902
317.846,0.64127,3.39477,-1.26118,-0.4259,0.91865
318.546,0.64232,3.38057,-1.28699,-0.42556,0.91828
319.246,0.64337,3.33959,-1.31045,-0.42459,0.91792
319.946,0.64442,3.32647,-1.33921,-0.42302,0.91755
320.646,0.64548,3.31367,-1.37403,-0.42093,0.91718
321.346,0.64654,3.29823,-1.39721,-0.41847,0.91681
322.046,0.6476,3.26224,-1.4225,-0.41577,0.91644
322.746,0.64865,3.23454,-1.44715,-0.41294,0.91607
323.446,0.64971,3.20353,-1.47299,-0.40996,0.9157
324.146,0.65076,3.18367,-1.49449,-0.40676,0.91533
324.846,0.65182,3.14599,-1.52527,-0.40318,0.91496
325.546,0.65287,3.106,-1.54969,-0.39904,0.91458
326.246,0.65393,3.08582,-1.57546,-0.39426,0.91421
326.946,0.65499,3.05742,-1.60969,-0.38886,0.91383
327.646,0.65605,3.03467,-1.63156,-0.38296,0.91346
328.346,0.6571,2.98129,-1.64799,-0.37677,0.91308
329.046,0.65815,2.95147,-1.67467,-0.37056,0.9127
329.746,0.65921,2.91377,-1.70216,-0.36449,0.91232
330.446,0.66027,2.86357,-1.72093,-0.35874,0.91195
331.146,0.66133,2.80804,-1.74178,-0.35329,0.91157
331.846,0.66239,2.76407,-1.76541,-0.3481,0.91119
332.546,0.66345,2.70362,-1.78077,-0.34297,0.9108
333.246,0.66451,2.65041,-1.80379,-0.33766,0.91042
333.946,0.66557,2.59643,-1.83735,-0.33197,0.91004
334.646,0.66663,2.54833,-1.85676,-0.32574,0.90966
335.346,0.66769,2.50589,-1.87228,-0.31888,0.90927
336.046,0.66875,2.43405,-1.89035,-0.31134,0.90889
336.746,0.66981,2.38934,-1.92167,-0.30314,0.9085
337.446,0.67087,2.31786,-1.92428,-0.29436,0.90812
338.146,0.67193,2.24491,-1.95037,-0.28511,0.90773
338.846,0.67299,2.16271,-1.97144,-0.27559,0.90734
339.546,0.67405,2.07301,-1.98702,-0.26597,0.90695
340.246,0.67511,1.99715,-2.00916,-0.25648,0.90656
340.946,0.67617,1.92507,-2.02133,-0.24733,0.90617
341.646,0.67723,1.84184,-2.03293,-0.23866,0.90578
342.346,0.67829,1.75351,-2.04579,-0.23051,0.90539
343.046,0.67935,1.6682,-2.05733,-0.22272,0.905
343.746,0.68041,1.58026,-2.06969,-0.21522,0.90461
344.446,0.68148,1.49725,-2.08901,-0.20782,0.90421
345.146,0.68254,1.42832,-2.11952,-0.20045,0.90382
345.846,0.6836,1.31717,-2.11265,-0.1929,0.90342
346.546,0.68466,1.21423,-2.12371,-0.18507,0.90303
347.246,0.68573,1.1216,-2.13651,-0.17697,0.90263
347.946,0.6868,1.04354,-2.15048,-0.16858,0.90224
348.646,0.68786,0.96121,-2.16184,-0.1599,0.90184
349.346,0.68892,0.88206,-2.17329,-0.15096,0.90144
350.046,0.68998,0.80222,-2.18591,-0.14187,0.90104
350.746,0.69104,0.71553,-2.19145,-0.13274,0.90064
351.446,0.69211,0.64243,-2.19242,-0.12382,0.90024
352.146,0.69318,0.57785,-2.20552,-0.11538,0.89984
352.846,0.69424,0.52387,-2.21645,-0.10765,0.89944
353.546,0.6953,0.46182,-2.22285,-0.10076,0.89903
354.246,0.69637,0.39418,-2.22049,-0.09478035,0.89863
354.946,0.69744,0.34342,-2.22343,-0.08964692,0.89823
355.646,0.69851,0.30361,-2.23279,-0.08526366,0.89782
356.346,0.69958,0.2622,-2.23875,-0.08142675,0.89742
357.046,0.70065,0.22828,-2.24332,-0.07794861,0.89701
357.746,0.70172,0.19455,-2.25154,-0.07463227,0.8966
358.446,0.70278,0.15547,-2.25074,-0.07136321,0.8962
359.146,0.70386,0.13245,-2.26128,-0.06804855,0.89579
359.846,0.70493,0.10312,-2.26129,-0.06468555,0.89538
360.546,0.706,0.08534896,-2.26379,-0.06125375,0.89497
361.246,0.70706,0.07164058,-2.27026,-0.05775305,0.89456
361.946,0.70813,0.06219805,-2.27942,-0.05418316,0.89415
362.646,0.7092,0.04935393,-2.27357,-0.0505612,0.89374
363.346,0.71027,0.04089656,-2.27853,-0.04694245,0.89333
364.046,0.71134,0.04170581,-2.28642,-0.04339467,0.89291
364.746,0.71241,0.03228964,-2.28515,-0.04003264,0.8925
365.446,0.71349,0.03684775,-2.28791,-0.03699522,0.89209
366.146,0.71456,0.02543122,-2.29262,-0.03440831,0.89167
366.846,0.71564,0.02559965,-2.29582,-0.03239487,0.89126
367.546,0.71671,0.01932881,-2.2915,-0.03099569,0.89084
368.246,0.71779,0.00534068,-2.29145,-0.03019067,0.89042
368.946,0.71886,0.008232265,-2.29352,-0.02988063,0.89
369.646,0.71994,0.006823279,-2.29878,-0.02991993,0.88959
370.346,0.72101,0.00780742,-2.30252,-0.03014845,0.88917
371.046,0.72208,-0.001833925,-2.30393,-0.03041805,0.88875
371.746,0.72316,-0.00748328,-2.30428,-0.03060519,0.88833
372.446,0.72424,-0.01453944,-2.30462,-0.03061779,0.88791
373.146,0.72532,-0.009661804,-2.30976,-0.03039482,0.88749
373.846,0.72639,-0.01134108,-2.30871,-0.02991054,0.88706
374.546,0.72747,-0.00875768,-2.31006,-0.02917557,0.88664
375.246,0.72855,-0.01027191,-2.3164,-0.02824547,0.88622
375.946,0.72963,-0.002078957,-2.32003,-0.02721412,0.88579
376.646,0.73071,-0.00746377,-2.32152,-0.02618923,0.88537
377.346,0.7318,0.000330208,-2.3191,-0.02527399,0.88494
378.046,0.73288,-0.01269017,-2.32046,-0.02453146,0.88452
378.746,0.73396,-0.01125931,-2.32172,-0.02395258,0.88409
379.446,0.73505,-0.009837534,-2.32323,-0.02346729,0.88366
380.146,0.73613,-0.003429382,-2.32514,-0.02296299,0.88323
380.846,0.73721,-0.01046755,-2.32642,-0.02233252,0.88281
381.546,0.73829,-0.0004713551,-2.32845,-0.02151537,0.88238
382.246,0.73937,-0.00876077,-2.33343,-0.02053224,0.88195
382.946,0.74046,-0.00732045,-2.33264,-0.0194846,0.88152
383.646,0.74154,-0.01961378,-2.33389,-0.01854235,0.88109
384.346,0.74263,-0.01760303,-2.33388,-0.01789307,0.88065
385.046,0.74372,-0.02047487,-2.33521,-0.01768969,0.88022
385.746,0.7448,-0.01893214,-2.33809,-0.01800431,0.87979
386.446,0.74589,-0.02120751,-2.33527,-0.01881241,0.87935
387.146,0.74698,-0.03162167,-2.33203,-0.02000027,0.87892
387.846,0.74806,-0.02275558,-2.33512,-0.02139688,0.87849
388.546,0.74915,-0.01457625,-2.34376,-0.02283286,0.87805
389.246,0.75024,-0.01057887,-2.34781,-0.02416871,0.87761
389.946,0.75133,-0.01565358,-2.34344,-0.02532421,0.87718
390.646,0.75242,-0.02027611,-2.34062,-0.02628182,0.87674
391.346,0.75351,-0.02866183,-2.34472,-0.02706947,0.8763
392.046,0.75459,-0.02821511,-2.35428,-0.02774566,0.87586
392.746,0.75568,-0.02303526,-2.35426,-0.02835833,0.87542
393.446,0.75677,-0.03136517,-2.35143,-0.02892008,0.87498
394.146,0.75786,-0.03407771,-2.35201,-0.02940364,0.87454
394.846,0.75895,-0.03900251,-2.35482,-0.02976586,0.8741
395.546,0.76004,-0.03212545,-2.35902,-0.02996823,0.87366
396.246,0.76113,-0.03729069,-2.36039,-0.03001215,0.87322
396.946,0.76222,-0.05118799,-2.36617,-0.02995272,0.87278
397.646,0.76331,-0.05153051,-2.36646,-0.02989076,0.87233
398.346,0.7644,-0.0567244,-2.37474,-0.02993656,0.87189
399.046,0.7655,-0.05864446,-2.3613,-0.03016427,0.87144
399.746,0.76659,-0.05717251,-2.36685,-0.03057191,0.871
400.446,0.76768,-0.0703492,-2.37116,-0.03108737,0.87055
401.146,0.76877,-0.06739948,-2.37468,-0.03158591,0.87011
401.846,0.76987,-0.07271735,-2.37337,-0.03195178,0.86966
402.546,0.77096,-0.07703849,-2.38258,-0.03210782,0.86921
403.246,0.77206,-0.08403789,-2.38505,-0.03205325,0.86876
403.946,0.77315,-0.0847115,-2.38784,-0.03184887,0.86831
404.646,0.77425,-0.09945664,-2.38086,-0.03159448,0.86786
405.346,0.77535,-0.10388,-2.38269,-0.03139596,0.86741
406.046,0.77644,-0.1063,-2.39325,-0.03134511,0.86696
406.746,0.77754,-0.10523,-2.39083,-0.03150867,0.86651
407.446,0.77863,-0.11294,-2.39512,-0.03192981,0.86606
408.146,0.77973,-0.13012,-2.39737,-0.03262387,0.86561
408.846,0.78082,-0.13046,-2.3969,-0.03357892,0.86515
409.546,0.78192,-0.13944,-2.39761,-0.03474077,0.8647
410.246,0.78301,-0.15063,-2.39821,-0.03602387,0.86425
410.946,0.78411,-0.149,-2.40695,-0.0373312,0.86379
411.646,0.78521,-0.1622,-2.4063,-0.03856485,0.86334
412.346,0.78631,-0.15803,-2.40694,-0.03966366,0.86288
413.046,0.7874,-0.17045,-2.41441,-0.04061307,0.86243
413.746,0.78849,-0.17162,-2.418,-0.0414458,0.86197
414.446,0.78959,-0.18754,-2.41951,-0.04220373,0.86151
415.146,0.79069,-0.19202,-2.42066,-0.04290568,0.86105
415.846,0.79178,-0.19988,-2.42066,-0.04353166,0.86059
416.546,0.79288,-0.20986,-2.42337,-0.0440312,0.86013
417.246,0.79397,-0.21754,-2.42927,-0.04434379,0.85967
417.946,0.79507,-0.21893,-2.43399,-0.04445135,0.85921
418.646,0.79616,-0.22212,-2.43701,-0.04439863,0.85875
419.346,0.79727,-0.22919,-2.44263,-0.04431476,0.85829
420.046,0.79836,-0.2315,-2.44381,-0.04439608,0.85783
420.746,0.79946,-0.24546,-2.4412,-0.0448625,0.85737
421.446,0.80056,-0.24461,-2.44417,-0.04591053,0.8569
422.146,0.80167,-0.25567,-2.44929,-0.047656,0.85644
422.846,0.80277,-0.25594,-2.457,-0.05010321,0.85598
423.546,0.80387,-0.26372,-2.45427,-0.05313728,0.85551
424.246,0.80497,-0.2625,-2.45323,-0.05653082,0.85505
424.946,0.80607,-0.27118,-2.46113,-0.06001026,0.85458
425.646,0.80717,-0.26258,-2.46651,-0.06327809,0.85411
426.346,0.80827,-0.26673,-2.46882,-0.06611209,0.85365
427.046,0.80937,-0.25912,-2.47868,-0.06840389,0.85318
427.746,0.81046,-0.25948,-2.48381,-0.07018134,0.85271
428.446,0.81157,-0.25813,-2.48953,-0.07159555,0.85224
429.146,0.81268,-0.2499,-2.4902,-0.07287086,0.85177
429.846,0.81378,-0.24896,-2.49329,-0.074258,0.8513
430.546,0.81489,-0.24344,-2.50013,-0.07597838,0.85083
431.246,0.81599,-0.23328,-2.50662,-0.0781958,0.85036
431.946,0.8171,-0.22936,-2.50984,-0.08097871,0.84989
432.646,0.81821,-0.21903,-2.51351,-0.08431823,0.84942
433.346,0.81931,-0.22055,-2.52058,-0.08810329,0.84895
434.046,0.82042,-0.20513,-2.52646,-0.09219081,0.84847
434.746,0.82153,-0.19885,-2.5311,-0.09635043,0.848
435.446,0.82264,-0.1846,-2.53764,-0.10038,0.84753
436.146,0.82374,-0.16641,-2.54464,-0.10406,0.84705
436.846,0.82485,-0.16069,-2.55602,-0.1073,0.84658
437.546,0.82595,-0.14164,-2.56125,-0.11006,0.8461
438.246,0.82706,-0.12294,-2.56869,-0.11243,0.84563
438.946,0.82816,-0.10104,-2.57923,-0.11456,0.84515
439.646,0.82927,-0.08398556,-2.58591,-0.11667,0.84467
440.346,0.83038,-0.06061363,-2.59139,-0.11894,0.84419
441.046,0.83149,-0.04729102,-2.59854,-0.1215,0.84372
441.746,0.8326,-0.01297665,-2.60674,-0.12436,0.84324
442.446,0.83371,0.01721564,-2.61496,-0.12747,0.84276
443.146,0.83482,0.03974686,-2.62213,-0.13067,0.84228
443.846,0.83593,0.06809847,-2.63209,-0.13381,0.8418
444.546,0.83704,0.08948814,-2.644,-0.1368,0.84132
445.246,0.83815,0.12232,-2.65257,-0.13958,0.84084
445.946,0.83927,0.14767,-2.66124,-0.14222,0.84036
446.646,0.84038,0.17702,-2.67241,-0.14479,0.83987
447.346,0.84149,0.20527,-2.68184,-0.14747,0.83939
448.046,0.8426,0.2375,-2.69086,-0.1503,0.83891
448.746,0.84372,0.27055,-2.69914,-0.15327,0.83842
449.446,0.84483,0.29864,-2.71045,-0.15621,0.83794
450.146,0.84595,0.32826,-2.71889,-0.15886,0.83746
450.846,0.84707,0.35308,-2.72777,-0.16092,0.83697
451.546,0.84819,0.38382,-2.74496,-0.16213,0.83649
452.246,0.8493,0.4137,-2.75791,-0.16233,0.836
452.946,0.85042,0.42907,-2.76792,-0.16151,0.83551
453.646,0.85154,0.45153,-2.78207,-0.15985,0.83503
454.346,0.85266,0.48087,-2.78914,-0.1576,0.83454
455.046,0.85377,0.51536,-2.80246,-0.15512,0.83405
455.746,0.8549,0.53564,-2.80818,-0.15275,0.83356
456.446,0.85602,0.56033,-2.81445,-0.15084,0.83307
457.146,0.85714,0.57425,-2.83708,-0.14965,0.83258
457.846,0.85826,0.585,-2.84002,-0.14936,0.83209
458.546,0.85938,0.58483,-2.84767,-0.15002,0.8316
459.246,0.8605,0.59394,-2.85679,-0.15155,0.83111
459.946,0.86162,0.59113,-2.86752,-0.15368,0.83062
460.646,0.86275,0.57242,-2.87427,-0.15602,0.83013
461.346,0.86387,0.58159,-2.88659,-0.15805,0.82964
462.046,0.86499,0.5844,-2.89717,-0.15929,0.82914
462.746,0.86611,0.58921,-2.91559,-0.15937,0.82865
463.446,0.86722,0.61345,-2.92413,-0.15814,0.82816
464.146,0.86834,0.61788,-2.93381,-0.15567,0.82766
464.846,0.86946,0.65532,-2.94672,-0.15231,0.82717
465.546,0.87058,0.66901,-2.96606,-0.14854,0.82667
466.246,0.8717,0.6827,-2.96526,-0.14491,0.82618
466.946,0.87282,0.69831,-2.97172,-0.14192,0.82568
467.646,0.87395,0.6922,-2.98249,-0.1399,0.82518
468.346,0.87507,0.69527,-2.99426,-0.13895,0.82469
469.046,0.8762,0.68664,-2.99762,-0.13891,0.82419
469.746,0.87732,0.67597,-3.00656,-0.13944,0.82369
470.446,0.87844,0.66509,-3.01963,-0.14009,0.82319
471.146,0.87955,0.65268,-3.02729,-0.14041,0.8227
471.846,0.88067,0.66521,-3.0344,-0.14003,0.8222
472.546,0.88179,0.60556,-3.05463,-0.13874,0.8217
473.246,0.88291,0.59496,-3.06467,-0.13646,0.8212
473.946,0.88403,0.57686,-3.06702,-0.13329,0.8207
474.646,0.88515,0.57075,-3.07546,-0.12945,0.8202
475.346,0.88628,0.57147,-3.08715,-0.12519,0.81969
476.046,0.8874,0.55792,-3.09435,-0.12085,0.81919
476.746,0.88853,0.59598,-3.10567,-0.11671,0.81869
477.446,0.88965,0.49727,-3.11179,-0.11302,0.81819
478.146,0.89078,0.46471,-3.1133,-0.10995,0.81768
478.846,0.8919,0.45818,-3.12499,-0.10758,0.81718
479.546,0.89302,0.45597,-3.13157,-0.10587,0.81668
480.246,0.89415,0.446,-3.13454,-0.10466,0.81617
480.946,0.89527,0.45208,-3.14274,-0.10374,0.81567
481.646,0.8964,0.42528,-3.15315,-0.10284,0.81516
482.346,0.89752,0.40881,-3.15732,-0.10172,0.81466
483.046,0.89865,0.38737,-3.16601,-0.1002,0.81415
483.746,0.89978,0.3902,-3.16836,-0.09817056,0.81364
484.446,0.9009,0.37358,-3.18493,-0.09562073,0.81314
485.146,0.90203,0.37879,-3.19204,-0.09259294,0.81263
485.846,0.90316,0.31996,-3.18758,-0.08917433,0.81212
486.546,0.90428,0.29259,-3.19202,-0.08552248,0.81161
487.246,0.90541,0.28658,-3.21366,-0.08180259,0.81111
487.946,0.90653,0.28543,-3.20446,-0.07826171,0.8106
488.646,0.90766,0.27132,-3.21642,-0.07506245,0.81009
489.346,0.90879,0.26814,-3.2222,-0.07243669,0.80958
490.046,0.90993,0.24261,-3.22259,-0.07048909,0.80907
490.746,0.91106,0.21778,-3.22697,-0.06926118,0.80856
491.446,0.91219,0.19258,-3.23075,-0.06859379,0.80804
492.146,0.91332,0.18115,-3.23505,-0.06821838,0.80753
492.846,0.91446,0.16276,-3.23891,-0.06779745,0.80702
493.546,0.91559,0.14737,-3.24317,-0.06702022,0.80651
494.246,0.91671,0.13121,-3.2517,-0.06567315,0.806
494.946,0.91784,0.12418,-3.26231,-0.06368222,0.80548
495.646,0.91897,0.10962,-3.26339,-0.06109998,0.80497
496.346,0.9201,0.0910465,-3.27019,-0.05805952,0.80446
497.046,0.92123,0.0862755,-3.25747,-0.05472613,0.80394
497.746,0.92235,0.07112681,-3.27193,-0.05123279,0.80343
498.446,0.92348,0.04117341,-3.27728,-0.04769163,0.80291
499.146,0.92461,0.03357926,-3.28223,-0.04416728,0.8024
499.846,0.92574,0.02367785,-3.28491,-0.04076397,0.80188
500.546,0.92687,0.01030392,-3.28154,-0.03759839,0.80136
501.246,0.92801,0.0104655,-3.28302,-0.0348389,0.80085
501.946,0.92914,-0.009588011,-3.28834,-0.0326796,0.80033
502.646,0.93028,-0.02561158,-3.29151,-0.03130852,0.79981
503.346,0.93142,-0.02758203,-3.2953,-0.03085967,0.7993
504.046,0.93255,-0.03879182,-3.29638,-0.03134647,0.79878
504.746,0.93368,-0.03767443,-3.2932,-0.03261954,0.79826
505.446,0.93481,-0.03438967,-3.28562,-0.0343399,0.79774
506.146,0.93595,-0.05618185,-3.29535,-0.03603791,0.79722
506.846,0.93708,-0.06654746,-3.30898,-0.037164,0.7967
507.546,0.93822,-0.07516671,-3.29968,-0.03724705,0.79618
508.246,0.93936,-0.076853,-3.30996,-0.03601282,0.79566
508.946,0.94049,-0.08944604,-3.31554,-0.03346874,0.79514
509.646,0.94163,-0.09621904,-3.31011,-0.02994159,0.79462
510.346,0.94276,-0.11345,-3.3249,-0.02598162,0.7941
511.046,0.9439,-0.11564,-3.32707,-0.02226822,0.79358
511.746,0.94504,-0.13509,-3.32004,-0.01937161,0.79305
512.446,0.94617,-0.1262,-3.31464,-0.01771029,0.79253
513.146,0.94732,-0.12581,-3.31241,-0.01737175,0.79201
513.846,0.94845,-0.13194,-3.31833,-0.01813595,0.79148
514.546,0.94959,-0.13894,-3.32211,-0.0195428,0.79096
515.246,0.95073,-0.14032,-3.32529,-0.02103666,0.79044
515.946,0.95186,-0.15339,-3.32105,-0.02208712,0.78991
516.646,0.953,-0.15071,-3.32592,-0.02228489,0.78939
517.346,0.95415,-0.16181,-3.32798,-0.02142112,0.78886
518.046,0.95529,-0.16436,-3.33237,-0.01952457,0.78834
518.746,0.95643,-0.16955,-3.33459,-0.01685299,0.78781
519.446,0.95758,-0.17879,-3.337,-0.01385252,0.78728
520.146,0.95872,-0.17,-3.33646,-0.01108214,0.78676
520.846,0.95985,-0.17444,-3.33627,-0.00907486,0.78623
521.546,0.96099,-0.1789,-3.33488,-0.008252307,0.7857
522.246,0.96213,-0.1825,-3.33185,-0.008831982,0.78518
522.946,0.96328,-0.19393,-3.33043,-0.01075132,0.78465
523.646,0.96442,-0.18733,-3.33425,-0.01364957,0.78412
524.346,0.96557,-0.19772,-3.33185,-0.01690679,0.78359
525.046,0.96671,-0.19812,-3.33622,-0.01974125,0.78306
525.746,0.96786,-0.19974,-3.33773,-0.02137165,0.78253
526.446,0.969,-0.20391,-3.33775,-0.02120152,0.782
527.146,0.97014,-0.19826,-3.33737,-0.0190198,0.78147
527.846,0.97128,-0.21213,-3.3591,-0.01504242,0.78094
528.546,0.97242,-0.21223,-3.35843,-0.009888858,0.78041
529.246,0.97356,-0.20948,-3.35266,-0.004502208,0.77988
529.946,0.97471,-0.21052,-3.34883,-9.367358e-07,0.77935
530.646,0.97585,-0.20172,-3.34828,0.002702125,0.77882
531.346,0.97701,-0.20604,-3.34515,0.003082367,0.77829
532.046,0.97816,-0.20776,-3.33339,0.001072932,0.77776
532.746,0.97931,-0.20581,-3.33567,-0.002887994,0.77722
533.446,0.98046,-0.22403,-3.34265,-0.007988887,0.77669
534.146,0.98161,-0.22522,-3.34409,-0.01329854,0.77616
534.846,0.98275,-0.21493,-3.34879,-0.01793445,0.77562
535.546,0.9839,-0.21142,-3.33841,-0.02113008,0.77509
536.246,0.98504,-0.21444,-3.34652,-0.0224333,0.77456
536.946,0.98618,-0.20905,-3.35457,-0.02169556,0.77402
537.646,0.98732,-0.20948,-3.36332,-0.01905908,0.77349
538.346,0.98847,-0.20718,-3.35962,-0.01489267,0.77295
539.046,0.98961,-0.22721,-3.35773,-0.00975081,0.77242
539.746,0.99076,-0.22206,-3.36022,-0.004262355,0.77188
540.446,0.99192,-0.22434,-3.36048,0.001010764,0.77134
541.146,0.99307,-0.2069,-3.35256,0.005504086,0.77081
541.846,0.99423,-0.21147,-3.3619,0.008872432,0.77027
542.546,0.99538,-0.20507,-3.35946,0.01083706,0.76973
543.246,0.99653,-0.21346,-3.35027,0.01125791,0.7692
543.946,0.9977,-0.19841,-3.35246,0.01004069,0.76866
544.646,0.99886,-0.19834,-3.35098,0.00721822,0.76812
545.346,1.00001,-0.18899,-3.34812,0.0029751,0.76758
546.046,1.00116,-0.20068,-3.35102,-0.002324985,0.76705
546.746,1.00232,-0.21288,-3.34969,-0.008160844,0.76651
547.446,1.00347,-0.20508,-3.34576,-0.01381449,0.76597
548.146,1.00462,-0.19758,-3.33807,-0.01848893,0.76543
548.846,1.00577,-0.19524,-3.35311,-0.02145412,0.76489
549.546,1.00691,-0.20075,-3.35979,-0.02228987,0.76435
550.246,1.00805,-0.20892,-3.36848,-0.02091421,0.76381
550.946,1.00919,-0.21717,-3.36778,-0.01759016,0.76327
551.646,1.01034,-0.21985,-3.36329,-0.01292045,0.76273
552.346,1.0115,-0.21005,-3.36307,-0.0077481,0.76219
553.046,1.01265,-0.20631,-3.36325,-0.002936924,0.76165
553.746,1.01379,-0.19967,-3.36843,0.0007857347,0.7611
554.446,1.01495,-0.20014,-3.3681,0.002968943,0.76056
555.146,1.0161,-0.19383,-3.35887,0.003455195,0.76002
555.846,1.01726,-0.19,-3.35358,0.00242057,0.75948
556.546,1.01841,-0.18762,-3.35374,0.000278787,0.75894
557.246,1.01957,-0.19669,-3.35776,-0.00243851,0.75839
557.946,1.02073,-0.18352,-3.35906,-0.005223139,0.75785
558.646,1.02188,-0.2003,-3.36677,-0.007735087,0.75731
559.346,1.02303,-0.19579,-3.36593,-0.00979285,0.75676
560.046,1.02419,-0.19507,-3.36109,-0.01129975,0.75622
560.746,1.02535,-0.21121,-3.36581,-0.01216334,0.75567
561.446,1.0265,-0.20296,-3.35997,-0.01224755,0.75513
562.146,1.02766,-0.19818,-3.35648,-0.01138653,0.75459
562.846,1.02881,-0.21847,-3.3649,-0.00947622,0.75404
563.546,1.02996,-0.22052,-3.38431,-0.00656503,0.75349
564.246,1.03112,-0.2223,-3.37089,-0.002914859,0.75295
564.946,1.03228,-0.21617,-3.37081,0.000963838,0.7524
565.646,1.03344,-0.21655,-3.36953,0.004410362,0.75186
566.346,1.03461,-0.20454,-3.37007,0.006813479,0.75131
567.046,1.03577,-0.21181,-3.36484,0.007738716,0.75076
567.746,1.03694,-0.21937,-3.36484,0.007077774,0.75022
568.446,1.0381,-0.22901,-3.36423,0.005059701,0.74967
569.146,1.03926,-0.21875,-3.35807,0.002182983,0.74912
569.846,1.04043,-0.21209,-3.35852,-0.0009157441,0.74858
570.546,1.04159,-0.21279,-3.36084,-0.003601775,0.74803
571.246,1.04275,-0.21801,-3.37166,-0.005416024,0.74748
571.946,1.04391,-0.22286,-3.36453,-0.00613204,0.74693
572.646,1.04507,-0.23609,-3.37047,-0.005794331,0.74638
573.346,1.04621,-0.22588,-3.37164,-0.004641984,0.74583
574.046,1.04736,-0.22958,-3.36439,-0.002981353,0.74529
574.746,1.04853,-0.23072,-3.36798,-0.001147088,0.74474
575.446,1.0497,-0.23403,-3.36718,0.0005486464,0.74419
576.146,1.05087,-0.22689,-3.36989,0.0018446,0.74364
576.846,1.05203,-0.23005,-3.37007,0.002584368,0.74309
577.546,1.05319,-0.22408,-3.36792,0.002705206,0.74254
578.246,1.05434,-0.22835,-3.36011,0.002231391,0.74199
578.946,1.05551,-0.21724,-3.3668,0.001262927,0.74144
579.646,1.05668,-0.22411,-3.36514,-1.39736e-05,0.74088
580.346,1.05785,-0.22645,-3.36486,-0.001371856,0.74033
581.046,1.05901,-0.21774,-3.36484,-0.002595314,0.73978
581.746,1.06017,-0.21676,-3.36692,-0.00354723,0.73923
582.446,1.06134,-0.21474,-3.36848,-0.004193173,0.73868
583.146,1.0625,-0.22535,-3.36944,-0.004577922,0.73813
583.846,1.06367,-0.20793,-3.36933,-0.004815827,0.73757
584.546,1.06484,-0.20711,-3.36802,-0.005023992,0.73702
585.246,1.066,-0.19365,-3.36802,-0.00527357,0.73647
585.946,1.06716,-0.19697,-3.36538,-0.00557484,0.73592
586.646,1.06833,-0.17857,-3.36856,-0.00588139,0.73536
587.346,1.0695,-0.1797,-3.37142,-0.0061301,0.73481
588.046,1.07067,-0.18816,-3.36669,-0.0062688,0.73426
588.746,1.07183,-0.16733,-3.36865,-0.00628289,0.7337
589.446,1.07299,-0.17489,-3.38577,-0.006177271,0.73315
590.146,1.07416,-0.17173,-3.36498,-0.005951427,0.73259
590.846,1.07533,-0.15726,-3.36626,-0.005591489,0.73204
591.546,1.07649,-0.15521,-3.36661,-0.005079786,0.73148
592.246,1.07765,-0.16232,-3.37828,-0.004426763,0.73093
592.946,1.07882,-0.14832,-3.38256,-0.003696752,0.73037
593.646,1.07999,-0.14217,-3.3704,-0.003018497,0.72982
594.346,1.08116,-0.14129,-3.37206,-0.00254691,0.72926
595.046,1.08234,-0.12253,-3.37733,-0.00239835,0.72871
595.746,1.08351,-0.11712,-3.36864,-0.00259268,0.72815
596.446,1.08469,-0.10774,-3.37,-0.003027637,0.7276
597.146,1.08585,-0.09213108,-3.37605,-0.00350872,0.72704
597.846,1.08702,-0.09353868,-3.37438,-0.0038215,0.72648
598.546,1.08819,-0.07231144,-3.37222,-0.003803678,0.72593
599.246,1.08936,-0.08475593,-3.37451,-0.003413314,0.72537
599.946,1.09053,-0.06577459,-3.37734,-0.00275913,0.72481
600.646,1.0917,-0.06664854,-3.37879,-0.00207577,0.72426
601.346,1.09287,-0.04895962,-3.37741,-0.00165566,0.7237
602.046,1.09404,-0.05100587,-3.37571,-0.00173495,0.72314
602.746,1.09521,-0.05595441,-3.37534,-0.00241048,0.72258
603.446,1.09639,-0.0439875,-3.37122,-0.003578159,0.72203
604.146,1.09757,-0.03493705,-3.3717,-0.00494437,0.72147
604.846,1.09874,-0.02988339,-3.37177,-0.0061174,0.72091
605.546,1.09991,-0.03074484,-3.37608,-0.006756795,0.72035
606.246,1.10108,-0.03866065,-3.3835,-0.00668191,0.71979
606.946,1.10225,-0.04055049,-3.37948,-0.00591348,0.71923
607.646,1.10343,-0.06146981,-3.38086,-0.00467005,0.71867
608.346,1.10461,-0.06004415,-3.37954,-0.003295965,0.71812
609.046,1.10578,-0.0615014,-3.37835,-0.002135606,0.71756
609.746,1.10696,-0.06429226,-3.37822,-0.001427371,0.717
610.446,1.10814,-0.05369726,-3.37851,-0.00125081,0.71644
611.146,1.10932,-0.06828477,-3.37969,-0.001511335,0.71588
611.846,1.1105,-0.06506572,-3.37755,-0.001989186,0.71532
612.546,1.11168,-0.05993617,-3.37772,-0.002426329,0.71476
613.246,1.11286,-0.05996881,-3.37443,-0.00261659,0.7142
613.946,1.11403,-0.04880749,-3.38076,-0.00249767,0.71364
614.646,1.1152,-0.05817776,-3.38533,-0.002180707,0.71307
615.346,1.11638,-0.063265,-3.38497,-0.001918451,0.71251
616.046,1.11756,-0.03917701,-3.37889,-0.002020026,0.71195
616.746,1.11874,-0.02320195,-3.3789,-0.002710094,0.71139
617.446,1.11992,-0.01172848,-3.37747,-0.004012501,0.71083
618.146,1.12109,-0.01144611,-3.37871,-0.005701901,0.71027
618.846,1.12228,-0.002814047,-3.37817,-0.007358762,0.70971
619.546,1.12347,0.01443889,-3.37743,-0.00848618,0.70915
620.246,1.12464,0.02315304,-3.37336,-0.008740696,0.70858
620.946,1.12581,0.01974897,-3.38508,-0.008103839,0.70802
621.646,1.12699,0.002562562,-3.40381,-0.00688111,0.70746
622.346,1.12816,0.02474275,-3.38866,-0.005612582,0.7069
623.046,1.12935,0.02791191,-3.39046,-0.004867095,0.70633
623.746,1.13053,0.05869133,-3.37702,-0.005001139,0.70577
624.446,1.13172,0.071962,-3.37699,-0.005963981,0.70521
625.146,1.13291,0.07299358,-3.38031,-0.00729006,0.70464
625.846,1.13408,0.07748364,-3.38053,-0.00830131,0.70408
626.546,1.13526,0.08307508,-3.39051,-0.008354838,0.70352
627.246,1.13644,0.06687376,-3.39301,-0.007082862,0.70295
627.946,1.13762,0.07546647,-3.3916,-0.00452307,0.70239
628.646,1.1388,0.08939613,-3.38992,-0.001156189,0.70183
629.346,1.13998,0.10284,-3.39059,0.00229912,0.70126
630.046,1.14115,0.10412,-3.39872,0.005069056,0.7007
630.746,1.14234,0.12149,-3.39078,0.00658161,0.70014
631.446,1.14354,0.15303,-3.38189,0.00659179,0.69957
632.146,1.14473,0.14876,-3.37424,0.005268515,0.69901
632.846,1.14591,0.16312,-3.37252,0.003103793,0.69844
633.546,1.14709,0.14392,-3.3957,0.0006693364,0.69788
634.246,1.14827,0.14795,-3.39764,-0.001580494,0.69731
634.946,1.14945,0.1718,-3.38237,-0.003389572,0.69675
635.646,1.15064,0.18216,-3.37927,-0.004683415,0.69618
636.346,1.15182,0.17223,-3.38437,-0.005557835,0.69562
637.046,1.153,0.17667,-3.39336,-0.00617767,0.69505
637.746,1.15418,0.18235,-3.38806,-0.006685838,0.69449
638.446,1.15537,0.18708,-3.38861,-0.007130035,0.69392
639.146,1.15656,0.17132,-3.38711,-0.00741973,0.69336
639.846,1.15775,0.16291,-3.38724,-0.007305786,0.69279
640.546,1.15893,0.1755,-3.38558,-0.006435656,0.69222
641.246,1.16011,0.18562,-3.39096,-0.004520186,0.69166
641.946,1.1613,0.20086,-3.39233,-0.001243757,0.69109
642.646,1.16249,0.19125,-3.39758,0.003644534,0.69053
643.346,1.16368,0.18436,-3.39073,0.01076535,0.68996
644.046,1.16487,0.18912,-3.39559,0.02137314,0.68939
644.746,1.16606,0.20466,-3.39217,0.03710049,0.68883
645.046,1.16656,0.20655,-3.39053,0.04139305,0.68858