File: 01_Data/PVC/STA/N2/10K_min/PVC_STA_N2_10KData_210705_R3.csv
##Temp./Â°C,Time/min,Mass loss(subtr.2)/mg,DSC(subtr.2)/mW,DTG(subtr.2)/(mg/min),Sensit./(uV/mW)
48.331,0.16683,0.01382,-0.10083,0.0,0.99127
49.031,0.19058,0.01360605,-0.08901142,0.0008437204,0.99128
49.731,0.19647,0.01435866,-0.09629349,0.002090121,0.99129
50.431,0.20072,0.0145462,-0.08707969,0.0026385,0.9913
51.131,0.2042,0.01656969,-0.0948861,0.0025466,0.99131
51.831,0.20733,0.01534936,-0.09080741,0.002144404,0.99131
52.531,0.21014,0.01688559,-0.09030063,0.001544998,0.99132
53.231,0.21273,0.01692971,-0.09951254,0.000902643,0.99132
53.931,0.21517,0.01710999,-0.09697029,0.000481441,0.99133
54.631,0.21747,0.0157731,-0.09377872,0.000372063,0.99133
55.331,0.21967,0.01699817,-0.08560317,0.0004108117,0.99133
56.031,0.2218,0.01822033,-0.09052213,0.000441363,0.99133
56.731,0.22387,0.01675245,-0.09481619,0.0005000177,0.99133
57.431,0.22588,0.01567712,-0.09149218,0.0007366606,0.99133
58.131,0.22784,0.01668505,-0.09380005,0.00120382,0.99132
58.831,0.22975,0.01568189,-0.09568171,0.00174625,0.99132
59.531,0.23162,0.01705059,-0.0992758,0.002087735,0.99132
60.231,0.23345,0.01718876,-0.10738,0.002028035,0.99131
60.931,0.23525,0.0184606,-0.10205,0.001571766,0.9913
61.631,0.23701,0.0184084,-0.10524,0.000918765,0.99129
62.331,0.23873,0.01784971,-0.10647,0.0003247627,0.99128
63.031,0.24044,0.01845611,-0.11478,-2.562446e-05,0.99127
63.731,0.24213,0.01821727,-0.11775,-5.463644e-05,0.99126
64.431,0.2438,0.01841402,-0.12025,0.0001967082,0.99125
65.131,0.24544,0.01651213,-0.12085,0.0005914258,0.99123
65.831,0.24704,0.01711749,-0.11665,0.00096476,0.99122
66.531,0.24863,0.0184153,-0.12038,0.00118429,0.9912
67.231,0.25021,0.01842037,-0.12126,0.001194314,0.99118
67.931,0.25178,0.01800545,-0.12139,0.00103115,0.99116
68.631,0.25332,0.01844148,-0.12465,0.0007989728,0.99114
69.331,0.25484,0.01842067,-0.12092,0.0006071168,0.99112
70.031,0.25634,0.01842893,-0.11939,0.000520096,0.9911
70.731,0.25783,0.01773236,-0.12244,0.0005416982,0.99108
71.431,0.2593,0.01843294,-0.11923,0.0006255023,0.99105
72.131,0.26074,0.01838746,-0.12161,0.0007117522,0.99103
72.831,0.2622,0.01843861,-0.12719,0.0007639826,0.991
73.531,0.26365,0.01842426,-0.11916,0.0007794973,0.99097
74.231,0.26508,0.01839129,-0.12284,0.0007838863,0.99094
74.931,0.26649,0.01973059,-0.11549,0.0008023065,0.99091
75.631,0.26787,0.01956214,-0.10997,0.0008344842,0.99088
76.331,0.26926,0.01833455,-0.10198,0.000854039,0.99085
77.031,0.27065,0.01350955,-0.09416237,0.000823322,0.99082
77.731,0.27204,0.0218988,-0.09437841,0.0007212459,0.99078
78.431,0.2734,0.01843329,-0.08902389,0.000566722,0.99075
79.131,0.27475,0.0171199,-0.08188556,0.000401807,0.99071
79.831,0.27609,0.02092923,-0.07281389,0.0002760012,0.99067
80.531,0.27742,0.01894573,-0.06639953,0.0002197086,0.99063
81.231,0.27875,0.01852742,-0.07009927,0.0002343196,0.99059
81.931,0.28007,0.0185426,-0.07318698,0.0002974951,0.99055
82.631,0.28138,0.01983615,-0.08551281,0.0003784069,0.99051
83.331,0.28268,0.01987147,-0.09431476,0.000455408,0.99047
84.031,0.28397,0.01977332,-0.11205,0.000519452,0.99042
84.731,0.28525,0.0198499,-0.12794,0.0005700332,0.99038
85.431,0.28653,0.01860267,-0.14482,0.0006056205,0.99033
86.131,0.28781,0.01853175,-0.15706,0.0006174505,0.99028
86.831,0.28908,0.01993513,-0.16757,0.0005945432,0.99024
87.531,0.29033,0.01920001,-0.17182,0.0005340292,0.99019
88.231,0.29158,0.02032663,-0.18846,0.000447379,0.99013
88.931,0.29283,0.02085849,-0.19333,0.00035879,0.99008
89.631,0.29407,0.01974018,-0.19704,0.0002923426,0.99003
90.331,0.29531,0.01840129,-0.20549,0.000257151,0.98998
91.031,0.29654,0.0195803,-0.20754,0.000239404,0.98992
91.731,0.29776,0.01868769,-0.20933,0.0002070287,0.98986
92.431,0.29898,0.021049,-0.21115,0.0001256061,0.98981
93.131,0.30019,0.01925609,-0.20603,-2.22667e-05,0.98975
93.831,0.3014,0.01973888,-0.21105,-0.0002270839,0.98969
94.531,0.3026,0.02104924,-0.20597,-0.00045287,0.98963
95.231,0.30381,0.01975455,-0.21072,-0.0006485934,0.98956
95.931,0.305,0.01974004,-0.20512,-0.000764491,0.9895
96.631,0.30619,0.01968758,-0.20944,-0.0007731421,0.98944
97.331,0.30738,0.0184218,-0.2081,-0.0006762706,0.98937
98.031,0.30856,0.01939027,-0.20372,-0.0005087764,0.98931
98.731,0.30975,0.01971443,-0.20483,-0.0003236,0.98924
99.431,0.31093,0.0187607,-0.21003,-0.0001828838,0.98917
100.131,0.31211,0.01973715,-0.20709,-0.0001370705,0.9891
100.831,0.31328,0.01890795,-0.20701,-0.0002120242,0.98903
101.531,0.31445,0.02005308,-0.20213,-0.0004004585,0.98896
102.231,0.31562,0.01973991,-0.20504,-0.000668125,0.98888
102.931,0.31679,0.01967627,-0.20572,-0.000963835,0.98881
103.631,0.31794,0.01974085,-0.21097,-0.001239557,0.98874
104.331,0.3191,0.01971412,-0.20828,-0.00146656,0.98866
105.031,0.32026,0.0198253,-0.20114,-0.001641243,0.98858
105.731,0.32141,0.01430525,-0.21043,-0.00178419,0.9885
106.431,0.32257,0.02180186,-0.20732,-0.00192346,0.98842
107.131,0.32372,0.01868072,-0.211,-0.002080606,0.98834
107.831,0.32487,0.01966063,-0.20681,-0.0022561,0.98826
108.531,0.32602,0.01832675,-0.20382,-0.00243069,0.98818
109.231,0.32717,0.01830999,-0.20693,-0.002572115,0.9881
109.931,0.32831,0.01697853,-0.20334,-0.00264831,0.98801
110.631,0.32945,0.017324,-0.20404,-0.002636757,0.98792
111.331,0.33059,0.01779491,-0.20158,-0.002526717,0.98784
112.031,0.33172,0.01733098,-0.19121,-0.002315474,0.98775
112.731,0.33286,0.01733008,-0.21054,-0.002006061,0.98766
113.431,0.334,0.01732298,-0.20954,-0.001607594,0.98757
114.131,0.33513,0.01597274,-0.20755,-0.001131674,0.98748
114.831,0.33625,0.01602155,-0.2059,-0.0006007046,0.98739
115.531,0.33739,0.01732693,-0.2083,-4.925286e-05,0.98729
116.231,0.33852,0.01601084,-0.20954,0.000469281,0.9872
116.931,0.33964,0.01600967,-0.20184,0.0009004139,0.9871
117.631,0.34076,0.01733565,-0.20422,0.001194568,0.98701
118.331,0.34189,0.01733,-0.20438,0.001322469,0.98691
119.031,0.34301,0.01733,-0.19763,0.001279994,0.98681
119.731,0.34413,0.01849044,-0.2035,0.001094497,0.98671
120.431,0.34525,0.01863825,-0.20665,0.0008196319,0.98661
121.131,0.34637,0.01732149,-0.20429,0.000520785,0.98651
121.831,0.34748,0.01731759,-0.2028,0.0002588887,0.9864
122.531,0.34859,0.0183115,-0.21066,7.805866e-05,0.9863
123.231,0.3497,0.01699345,-0.20883,-4.042919e-06,0.98619
123.931,0.35081,0.01734069,-0.20661,2.887255e-06,0.98609
124.631,0.35192,0.01600004,-0.2028,6.873524e-05,0.98598
125.331,0.35302,0.01730977,-0.21412,0.0001554957,0.98587
126.031,0.35412,0.0174525,-0.21473,0.0002301382,0.98576
126.731,0.35522,0.01732998,-0.21414,0.0002732413,0.98565
127.431,0.35632,0.0173276,-0.21651,0.0002816564,0.98554
128.131,0.35742,0.01863412,-0.21224,0.0002643583,0.98542
128.831,0.35852,0.0173436,-0.21018,0.000233881,0.98531
129.531,0.35962,0.01732802,-0.20892,0.0001971818,0.9852
130.231,0.36071,0.01733,-0.20422,0.0001502917,0.98508
130.931,0.3618,0.01733,-0.21073,7.8783e-05,0.98496
131.631,0.36289,0.01732999,-0.21262,-3.5935e-05,0.98484
132.331,0.36398,0.0172993,-0.21181,-0.0002096669,0.98473
133.031,0.36506,0.01865033,-0.20351,-0.0004474207,0.98461
133.731,0.36614,0.017727,-0.21644,-0.0007442856,0.98448
134.431,0.36722,0.01765999,-0.21778,-0.001085788,0.98436
135.131,0.36831,0.01768511,-0.2185,-0.00145098,0.98424
135.831,0.36939,0.01731433,-0.21511,-0.001815037,0.98411
136.531,0.37047,0.01733247,-0.2198,-0.00215424,0.98399
137.231,0.37155,0.01733,-0.21968,-0.00244531,0.98386
137.931,0.37262,0.01733,-0.21686,-0.002665045,0.98373
138.631,0.3737,0.01732965,-0.20965,-0.002791985,0.9836
139.331,0.37476,0.01596708,-0.21277,-0.002810525,0.98347
140.031,0.37583,0.01601,-0.21259,-0.00271362,0.98334
140.731,0.3769,0.01600997,-0.21946,-0.00250445,0.98321
141.431,0.37798,0.01573442,-0.22424,-0.002196943,0.98308
142.131,0.37905,0.01535211,-0.22708,-0.00181792,0.98294
142.831,0.38012,0.01523784,-0.22774,-0.001395322,0.98281
143.531,0.38119,0.01535376,-0.22447,-0.000959301,0.98267
144.231,0.38226,0.01667319,-0.22657,-0.000535104,0.98254
144.931,0.38332,0.01533267,-0.23072,-0.0001429828,0.9824
145.631,0.38437,0.01404903,-0.22985,0.000203419,0.98226
146.331,0.38544,0.01535862,-0.22811,0.00049577,0.98212
147.031,0.3865,0.01536001,-0.22998,0.0007225917,0.98198
147.731,0.38756,0.0163444,-0.23251,0.0008777395,0.98183
148.431,0.38862,0.01634001,-0.23356,0.0009550594,0.98169
149.131,0.38968,0.01632933,-0.23379,0.0009501047,0.98155
149.831,0.39074,0.01567028,-0.22561,0.0008600731,0.9814
150.531,0.3918,0.01568,-0.22535,0.0006856753,0.98125
151.231,0.39286,0.01568998,-0.22745,0.0004350613,0.98111
151.931,0.39392,0.01666465,-0.2229,0.0001289661,0.98096
152.631,0.39498,0.01670293,-0.21819,-0.000200524,0.98081
153.331,0.39604,0.01666998,-0.22378,-0.0005144603,0.98066
154.031,0.39709,0.01667004,-0.21913,-0.000775246,0.98051
154.731,0.39814,0.01673203,-0.2223,-0.0009551864,0.98035
155.431,0.3992,0.01534997,-0.21537,-0.00104564,0.9802
156.131,0.40025,0.01535478,-0.2127,-0.00105601,0.98004
156.831,0.40131,0.01468848,-0.21285,-0.001010895,0.97989
157.531,0.40236,0.0146906,-0.21375,-0.0009402217,0.97973
158.231,0.40341,0.01626422,-0.21349,-0.000867669,0.97957
158.931,0.40446,0.01617185,-0.20893,-0.000804251,0.97941
159.631,0.40551,0.01600999,-0.21147,-0.0007491124,0.97925
160.331,0.40657,0.01527415,-0.20981,-0.0006955004,0.97909
161.031,0.40762,0.01482895,-0.20713,-0.0006402364,0.97893
161.731,0.40867,0.01468957,-0.20025,-0.0005898416,0.97877
162.431,0.40972,0.01469,-0.19769,-0.0005616435,0.9786
163.131,0.41077,0.01469099,-0.19326,-0.000578559,0.97844
163.831,0.41182,0.01601504,-0.18333,-0.0006599164,0.97827
164.531,0.41288,0.01600999,-0.17771,-0.0008130917,0.97811
165.231,0.41393,0.01601026,-0.16585,-0.001027165,0.97794
165.931,0.41497,0.01474813,-0.15578,-0.0012745,0.97777
166.631,0.41603,0.0146903,-0.15191,-0.001517026,0.9776
167.331,0.41708,0.01611369,-0.14305,-0.001709101,0.97743
168.031,0.41813,0.01503018,-0.14461,-0.00181158,0.97725
168.731,0.41918,0.0150016,-0.12972,-0.001795631,0.97708
169.431,0.42022,0.0143701,-0.11546,-0.001650595,0.97691
170.131,0.42127,0.01436995,-0.11588,-0.001380506,0.97673
170.831,0.42232,0.01406061,-0.09904343,-0.001011908,0.97655
171.531,0.42337,0.01304396,-0.09347611,-0.000583865,0.97638
172.231,0.42442,0.0131142,-0.07952919,-0.0001448988,0.9762
172.931,0.42546,0.01436024,-0.07164125,0.000252732,0.97602
173.631,0.4265,0.01436,-0.06004651,0.0005662428,0.97584
174.331,0.42755,0.01436,-0.05452591,0.0007645555,0.97566
175.031,0.4286,0.01436,-0.04245028,0.000830833,0.97547
175.731,0.42966,0.01436,-0.03838821,0.000765289,0.97529
176.431,0.43071,0.01435646,-0.03326107,0.0005836712,0.97511
177.131,0.43175,0.01567825,-0.02401692,0.00031256,0.97492
177.831,0.4328,0.01541108,-0.02121903,-2.24052e-05,0.97473
178.531,0.43384,0.01435715,-0.01177513,-0.0003983679,0.97455
179.231,0.43488,0.01404001,-0.009996303,-0.000801851,0.97436
179.931,0.43592,0.01404,-0.006241996,-0.00121776,0.97417
180.631,0.43697,0.01403464,0.00236304,-0.001634955,0.97398
181.331,0.438,0.01535662,0.003100346,-0.00203681,0.97379
182.031,0.43904,0.01503509,0.01578205,-0.00240241,0.97359
182.731,0.44008,0.01372289,0.02770203,-0.002702576,0.9734
183.431,0.44113,0.01370198,0.02694706,-0.002903087,0.97321
184.131,0.44217,0.01338013,0.03769161,-0.002973206,0.97301
184.831,0.44321,0.01406035,0.04663618,-0.002894566,0.97281
185.531,0.44425,0.01371642,0.05127915,-0.00266277,0.97262
186.231,0.44529,0.01247799,0.05843193,-0.002290907,0.97242
186.931,0.44633,0.01107013,0.0651674,-0.001811045,0.97222
187.631,0.44737,0.01253758,0.07836812,-0.001268909,0.97202
188.331,0.4484,0.01370857,0.08519068,-0.000717582,0.97182
189.031,0.44944,0.01238487,0.09606759,-0.0002199285,0.97161
189.731,0.45048,0.01150769,0.09706084,0.000161524,0.97141
190.431,0.45152,0.01238912,0.10817,0.0003664638,0.9712
191.131,0.45256,0.01269353,0.11956,0.000352379,0.971
191.831,0.4536,0.01272522,0.13281,0.000102575,0.97079
192.531,0.45463,0.01385519,0.14564,-0.000361757,0.97059
193.231,0.45567,0.01403,0.15175,-0.0009925049,0.97038
193.931,0.4567,0.01403,0.15893,-0.00170102,0.97017
194.631,0.45774,0.01403,0.17192,-0.002391583,0.96996
195.331,0.45878,0.01402819,0.18568,-0.002961212,0.96975
196.031,0.45981,0.01149908,0.19342,-0.003339783,0.96953
196.731,0.46084,0.01141032,0.19513,-0.003497703,0.96932
197.431,0.46187,0.01010239,0.21535,-0.00344705,0.96911
198.131,0.4629,0.01009154,0.2212,-0.00323424,0.96889
198.831,0.46393,0.01141514,0.22988,-0.002922381,0.96867
199.531,0.46497,0.01203414,0.23226,-0.002577747,0.96846
200.231,0.46601,0.01141331,0.25167,-0.002252695,0.96824
200.931,0.46704,0.0111864,0.25883,-0.00198197,0.96802
201.631,0.46807,0.01041014,0.26027,-0.001771519,0.9678
202.331,0.4691,0.01041,0.26742,-0.001616024,0.96758
203.031,0.47014,0.01041087,0.28246,-0.00150129,0.96736
203.731,0.47117,0.01139892,0.28805,-0.00141718,0.96713
204.431,0.47221,0.01138623,0.30111,-0.00135823,0.96691
205.131,0.47324,0.0087588,0.3026,-0.001324871,0.96668
205.831,0.47428,0.009757139,0.31171,-0.001320958,0.96646
206.531,0.47532,0.01000945,0.3084,-0.00134964,0.96623
207.231,0.47635,0.01106991,0.32116,-0.001409967,0.966
207.931,0.47738,0.009667729,0.32358,-0.001497294,0.96577
208.631,0.47841,0.00975952,0.32507,-0.00160635,0.96554
209.331,0.47945,0.01104356,0.3345,-0.001737244,0.96531
210.031,0.48048,0.009763662,0.33218,-0.001896911,0.96508
210.731,0.48152,0.008440863,0.34207,-0.00210129,0.96485
211.431,0.48255,0.008440056,0.34764,-0.00236851,0.96461
212.131,0.48358,0.008752664,0.34676,-0.002711692,0.96438
212.831,0.48461,0.01011161,0.34758,-0.003125667,0.96414
213.531,0.48565,0.01074898,0.35521,-0.003580867,0.96391
214.231,0.48668,0.009762249,0.35491,-0.004023677,0.96367
214.931,0.48771,0.008360776,0.35238,-0.004386933,0.96343
215.631,0.48875,0.00811005,0.35386,-0.004599585,0.96319
216.331,0.48978,0.008110018,0.36789,-0.004611324,0.96295
217.031,0.49082,0.00813475,0.36836,-0.004407476,0.96271
217.731,0.49185,0.00679985,0.36845,-0.004016068,0.96247
218.431,0.49289,0.006666607,0.37274,-0.00350549,0.96223
219.131,0.49393,0.004820206,0.37076,-0.002974647,0.96198
219.831,0.49496,0.00483194,0.37769,-0.002530796,0.96174
220.531,0.496,0.006140135,0.36981,-0.002260826,0.96149
221.231,0.49703,0.006953696,0.38393,-0.002212959,0.96124
221.931,0.49807,0.008756261,0.366,-0.00239005,0.96099
222.631,0.4991,0.007471456,0.37531,-0.00274954,0.96075
223.331,0.50012,0.007005204,0.38228,-0.003219832,0.9605
224.031,0.50116,0.004868583,0.37994,-0.003725242,0.96025
224.731,0.50219,0.00482998,0.37773,-0.004190997,0.95999
225.431,0.50323,0.00483,0.37831,-0.004567878,0.95974
226.131,0.50426,0.004831945,0.3838,-0.004819907,0.95949
226.831,0.5053,0.00623508,0.38429,-0.004943626,0.95923
227.531,0.50633,0.005150493,0.38188,-0.004953232,0.95898
228.231,0.50737,0.003836199,0.38542,-0.004878374,0.95872
228.931,0.5084,0.002093017,0.39169,-0.00476048,0.95846
229.631,0.50943,0.002589067,0.39013,-0.004648875,0.95821
230.331,0.51046,0.002849946,0.38756,-0.004593363,0.95795
231.031,0.51149,0.00285,0.39214,-0.004636551,0.95769
231.731,0.51252,0.00285155,0.39408,-0.004808777,0.95743
232.431,0.51356,0.00335602,0.39343,-0.00512008,0.95716
233.131,0.5146,0.002189777,0.39624,-0.00555875,0.9569
233.831,0.51563,0.00218994,0.39918,-0.00608232,0.95664
234.531,0.51666,0.001547658,0.39727,-0.006646205,0.95637
235.231,0.5177,0.000871053,0.39905,-0.0071968,0.95611
235.931,0.51873,0.001949084,0.39629,-0.0076874,0.95584
236.631,0.51976,0.0007941342,0.39535,-0.008091088,0.95557
237.331,0.5208,-0.0004579274,0.39699,-0.00840777,0.9553
238.031,0.52183,-0.002420146,0.40419,-0.008663039,0.95504
238.731,0.52287,-0.002526388,0.40814,-0.008903539,0.95477
239.431,0.5239,-0.003079883,0.40266,-0.009189568,0.95449
240.131,0.52494,-0.00293355,0.39988,-0.009580478,0.95422
240.831,0.52598,-0.002089936,0.40566,-0.01012963,0.95395
241.531,0.52701,-0.00283446,0.39895,-0.01087377,0.95368
242.231,0.52805,-0.00470996,0.39722,-0.01184213,0.9534
242.931,0.52908,-0.004709759,0.38231,-0.01304846,0.95312
243.631,0.53011,-0.006011896,0.36981,-0.01450254,0.95285
244.331,0.53115,-0.00737767,0.33242,-0.0162168,0.95257
245.031,0.53218,-0.007351723,0.29212,-0.01819876,0.95229
245.731,0.53322,-0.007913422,0.26308,-0.02043912,0.95201
246.431,0.53426,-0.00998676,0.26468,-0.02290061,0.95173
247.131,0.5353,-0.009888997,0.29553,-0.0255282,0.95145
247.831,0.53634,-0.0126376,0.36377,-0.02826653,0.95117
248.531,0.53737,-0.01441757,0.41821,-0.0310189,0.95089
249.231,0.53841,-0.01644415,0.47383,-0.03372482,0.9506
249.931,0.53945,-0.01860281,0.51186,-0.03628331,0.95032
250.631,0.54049,-0.02293855,0.55681,-0.03865436,0.95003
251.331,0.54152,-0.02422952,0.58694,-0.04079246,0.94975
252.031,0.54256,-0.02586661,0.60942,-0.0426659,0.94946
252.731,0.5436,-0.02757434,0.63392,-0.04427015,0.94917
253.431,0.54464,-0.03189777,0.64904,-0.04560803,0.94888
254.131,0.54568,-0.03625692,0.66686,-0.04670721,0.94859
254.831,0.54672,-0.03911752,0.68383,-0.0476171,0.9483
255.531,0.54776,-0.04208398,0.69977,-0.04840359,0.94801
256.231,0.5488,-0.04523921,0.71414,-0.04912892,0.94772
256.931,0.54984,-0.04773677,0.72963,-0.04985316,0.94742
257.631,0.55088,-0.05100326,0.73977,-0.05062105,0.94713
258.331,0.55192,-0.05290759,0.75968,-0.05145435,0.94683
259.031,0.55295,-0.05686224,0.77241,-0.0523624,0.94654
259.731,0.55399,-0.06031389,0.7932,-0.05334419,0.94624
260.431,0.55503,-0.06509909,0.80677,-0.05438985,0.94594
261.131,0.55607,-0.06681154,0.82485,-0.05548595,0.94564
261.831,0.55711,-0.0714996,0.83492,-0.05663765,0.94534
262.531,0.55815,-0.07352418,0.85403,-0.05783138,0.94504
263.231,0.55919,-0.07717317,0.86683,-0.05906625,0.94474
263.931,0.56023,-0.08115007,0.87816,-0.06034532,0.94444
264.631,0.56127,-0.08528385,0.89581,-0.06165843,0.94414
265.331,0.56231,-0.08936047,0.90541,-0.06301227,0.94383
266.031,0.56334,-0.09444367,0.91853,-0.06440312,0.94353
266.731,0.56438,-0.0969438,0.93997,-0.06586345,0.94322
267.431,0.56542,-0.10037,0.95309,-0.06738234,0.94292
268.131,0.56646,-0.10549,0.9648,-0.06897602,0.94261
268.831,0.5675,-0.10969,0.98456,-0.07064257,0.9423
269.531,0.56854,-0.11383,1.00085,-0.07236866,0.94199
270.231,0.56959,-0.11773,1.02043,-0.07416549,0.94168
270.931,0.57063,-0.1236,1.0314,-0.0760183,0.94137
271.631,0.57167,-0.1291,1.04097,-0.0779549,0.94106
272.331,0.57271,-0.13316,1.0671,-0.08000226,0.94075
273.031,0.57375,-0.13861,1.08749,-0.08220067,0.94043
273.731,0.57479,-0.14313,1.10902,-0.08457828,0.94012
274.431,0.57583,-0.14853,1.12278,-0.08716108,0.9398
275.131,0.57687,-0.15282,1.14998,-0.08995302,0.93949
275.831,0.57792,-0.15999,1.16054,-0.09294869,0.93917
276.531,0.57896,-0.16459,1.17693,-0.09612109,0.93885
277.231,0.58,-0.1709,1.20555,-0.09943174,0.93853
277.931,0.58105,-0.17763,1.23079,-0.10283,0.93821
278.631,0.58209,-0.18364,1.24809,-0.10628,0.93789
279.331,0.58313,-0.18981,1.27596,-0.10979,0.93757
280.031,0.58418,-0.19796,1.30572,-0.11337,0.93725
280.731,0.58523,-0.20544,1.33156,-0.11704,0.93693
281.431,0.58627,-0.21351,1.35497,-0.12087,0.93661
282.131,0.58732,-0.22062,1.38815,-0.12492,0.93628
282.831,0.58836,-0.22797,1.41131,-0.12923,0.93596
283.531,0.58941,-0.23484,1.4414,-0.13383,0.93563
284.231,0.59046,-0.24198,1.47626,-0.13868,0.9353
284.931,0.59151,-0.25234,1.5,-0.14376,0.93498
285.631,0.59255,-0.26168,1.53435,-0.14901,0.93465
286.331,0.5936,-0.27267,1.56442,-0.15441,0.93432
287.031,0.59464,-0.28153,1.59824,-0.15993,0.93399
287.731,0.59569,-0.29164,1.63427,-0.16558,0.93366
288.431,0.59674,-0.30159,1.66161,-0.17135,0.93332
289.131,0.59779,-0.31254,1.70806,-0.17727,0.93299
289.831,0.59884,-0.32383,1.7449,-0.18337,0.93266
290.531,0.59988,-0.33544,1.78426,-0.1897,0.93232
291.231,0.60093,-0.34811,1.81594,-0.19629,0.93199
291.931,0.60198,-0.35948,1.85675,-0.20317,0.93165
292.631,0.60303,-0.37302,1.89924,-0.21032,0.93132
293.331,0.60407,-0.38561,1.93895,-0.21774,0.93098
294.031,0.60512,-0.39832,1.98122,-0.22545,0.93064
294.731,0.60617,-0.41388,2.02406,-0.2334,0.9303
295.431,0.60722,-0.42898,2.06797,-0.24159,0.92996
296.131,0.60827,-0.44541,2.11258,-0.24997,0.92962
296.831,0.60932,-0.45977,2.16461,-0.2585,0.92928
297.531,0.61037,-0.4758,2.19962,-0.26713,0.92894
298.231,0.61142,-0.49356,2.24937,-0.27581,0.92859
298.931,0.61247,-0.51113,2.29203,-0.28447,0.92825
299.631,0.61352,-0.52878,2.32608,-0.29308,0.9279
300.331,0.61457,-0.54741,2.37814,-0.30153,0.92756
301.031,0.61563,-0.56849,2.42376,-0.30979,0.92721
301.731,0.61668,-0.58786,2.47138,-0.31775,0.92686
302.431,0.61773,-0.60718,2.51086,-0.32542,0.92652
303.131,0.61878,-0.62992,2.55052,-0.33272,0.92617
303.831,0.61984,-0.65062,2.59427,-0.33966,0.92582
304.531,0.62089,-0.67314,2.625,-0.34619,0.92547
305.231,0.62194,-0.69643,2.65007,-0.35231,0.92512
305.931,0.62299,-0.71761,2.68181,-0.35805,0.92476
306.631,0.62405,-0.74069,2.70777,-0.36341,0.92441
307.331,0.6251,-0.7649,2.72719,-0.36842,0.92406
308.031,0.62616,-0.78871,2.73384,-0.37311,0.9237
308.731,0.62721,-0.81191,2.75284,-0.37748,0.92335
309.431,0.62827,-0.83589,2.77039,-0.38157,0.92299
310.131,0.62932,-0.85993,2.78238,-0.38535,0.92263
310.831,0.63038,-0.88417,2.79241,-0.38878,0.92228
311.531,0.63143,-0.90988,2.79938,-0.39181,0.92192
312.231,0.63249,-0.93543,2.80582,-0.3944,0.92156
312.931,0.63354,-0.96084,2.8118,-0.39647,0.9212
313.631,0.6346,-0.98622,2.8134,-0.398,0.92084
314.331,0.63565,-1.01113,2.8117,-0.399,0.92048
315.031,0.63671,-1.03877,2.809,-0.39948,0.92011
315.731,0.63777,-1.06271,2.7616,-0.3995,0.91975
316.431,0.63882,-1.08901,2.73085,-0.39914,0.91939
317.131,0.63987,-1.11479,2.70967,-0.39845,0.91902
317.831,0.64093,-1.13891,2.68213,-0.3975,0.91866
318.531,0.64198,-1.16429,2.64657,-0.39633,0.91829
319.231,0.64304,-1.18989,2.61419,-0.39497,0.91793
319.931,0.64409,-1.21443,2.58262,-0.39341,0.91756
320.631,0.64515,-1.23919,2.54552,-0.39161,0.91719
321.331,0.6462,-1.26502,2.52314,-0.38954,0.91682
322.031,0.64725,-1.28852,2.49082,-0.38714,0.91645
322.731,0.64831,-1.31234,2.45844,-0.38436,0.91608
323.431,0.64936,-1.33875,2.4309,-0.38114,0.91571
324.131,0.65042,-1.36176,2.3952,-0.37745,0.91534
324.831,0.65147,-1.38748,2.3677,-0.37329,0.91496
325.531,0.65253,-1.41161,2.34239,-0.36868,0.91459
326.231,0.65358,-1.43395,2.30687,-0.36368,0.91422
326.931,0.65463,-1.45737,2.2566,-0.35832,0.91384
327.631,0.65569,-1.47863,2.22918,-0.35266,0.91346
328.331,0.65674,-1.50174,2.19072,-0.34681,0.91309
329.031,0.6578,-1.52384,2.16332,-0.34083,0.91271
329.731,0.65884,-1.54553,2.11945,-0.33481,0.91233
330.431,0.6599,-1.5677,2.0752,-0.3287,0.91195
331.131,0.66097,-1.58561,2.03851,-0.32253,0.91157
331.831,0.66203,-1.60676,1.99194,-0.31639,0.91119
332.531,0.66309,-1.62671,1.93828,-0.31022,0.91081
333.231,0.66415,-1.64412,1.89551,-0.30402,0.91043
333.931,0.6652,-1.6657,1.84269,-0.29773,0.91005
334.631,0.66626,-1.68512,1.78642,-0.29131,0.90966
335.331,0.66732,-1.70408,1.72943,-0.28475,0.90928
336.031,0.66839,-1.72125,1.67098,-0.27803,0.9089
336.731,0.66945,-1.73775,1.61596,-0.27121,0.90851
337.431,0.67051,-1.75448,1.55109,-0.26425,0.90812
338.131,0.67157,-1.77238,1.4999,-0.25714,0.90774
338.831,0.67262,-1.78775,1.42604,-0.24985,0.90735
339.531,0.67368,-1.8036,1.36606,-0.24235,0.90696
340.231,0.67474,-1.82061,1.29782,-0.23461,0.90657
340.931,0.67579,-1.83402,1.21856,-0.22664,0.90618
341.631,0.67686,-1.8495,1.13796,-0.21842,0.90579
342.331,0.67792,-1.86249,1.05987,-0.21001,0.9054
343.031,0.67898,-1.87411,0.98024,-0.20152,0.90501
343.731,0.68004,-1.88709,0.89211,-0.19298,0.90462
344.431,0.6811,-1.9003,0.81801,-0.18447,0.90422
345.131,0.68216,-1.91201,0.72642,-0.17605,0.90383
345.831,0.68322,-1.92392,0.64994,-0.16776,0.90343
346.531,0.68428,-1.93129,0.56369,-0.15962,0.90304
347.231,0.68535,-1.94145,0.47333,-0.1516,0.90264
347.931,0.68641,-1.95094,0.40093,-0.14372,0.90224
348.631,0.68747,-1.95986,0.33264,-0.13594,0.90185
349.331,0.68853,-1.96997,0.25776,-0.12826,0.90145
350.031,0.68959,-1.97703,0.19209,-0.12065,0.90105
350.731,0.69066,-1.98419,0.13246,-0.11315,0.90065
351.431,0.69172,-1.99259,0.07084084,-0.10588,0.90025
352.131,0.69278,-1.99722,0.0141039,-0.09890251,0.89985
352.831,0.69384,-2.00294,-0.0333661,-0.09227001,0.89945
353.531,0.69491,-2.00929,-0.08024373,-0.08602644,0.89904
354.231,0.69598,-2.01225,-0.13499,-0.08026096,0.89864
354.931,0.69705,-2.01719,-0.17483,-0.07493034,0.89824
355.631,0.69812,-2.02324,-0.21761,-0.07011568,0.89783
356.331,0.69919,-2.02797,-0.25198,-0.06574092,0.89743
357.031,0.70025,-2.02963,-0.27732,-0.06178537,0.89702
357.731,0.70132,-2.03434,-0.29687,-0.05816195,0.89661
358.431,0.70239,-2.03782,-0.31145,-0.05481538,0.89621
359.131,0.70345,-2.0407,-0.33239,-0.05169843,0.8958
359.831,0.70452,-2.04362,-0.34192,-0.04874883,0.89539
360.531,0.70559,-2.04648,-0.35155,-0.04589988,0.89498
361.231,0.70666,-2.05057,-0.36505,-0.04313569,0.89457
361.931,0.70774,-2.0533,-0.37414,-0.04042526,0.89416
362.631,0.70881,-2.0554,-0.37434,-0.03781874,0.89375
363.331,0.70988,-2.05671,-0.38447,-0.03532304,0.89334
364.031,0.71095,-2.06002,-0.38327,-0.03298047,0.89292
364.731,0.71203,-2.06004,-0.38207,-0.0308467,0.89251
365.431,0.7131,-2.06414,-0.37417,-0.02896246,0.89209
366.131,0.71417,-2.06548,-0.38074,-0.02735702,0.89168
366.831,0.71524,-2.06652,-0.37393,-0.0260515,0.89126
367.531,0.71632,-2.06812,-0.37353,-0.02503947,0.89085
368.231,0.71739,-2.06808,-0.37493,-0.0243009,0.89043
368.931,0.71847,-2.06974,-0.36813,-0.02379188,0.89001
369.631,0.71954,-2.07142,-0.36445,-0.02345756,0.8896
370.331,0.72061,-2.07347,-0.36242,-0.02323928,0.88918
371.031,0.72169,-2.07538,-0.36043,-0.02308478,0.88876
371.731,0.72276,-2.07758,-0.35934,-0.02295373,0.88834
372.431,0.72384,-2.07766,-0.3664,-0.02281988,0.88792
373.131,0.72491,-2.0792,-0.35283,-0.02266742,0.88749
373.831,0.72599,-2.08113,-0.35505,-0.02248624,0.88707
374.531,0.72707,-2.08176,-0.353,-0.02226984,0.88665
375.231,0.72814,-2.08316,-0.35211,-0.02201512,0.88623
375.931,0.72922,-2.08449,-0.34729,-0.02172445,0.8858
376.631,0.73029,-2.08673,-0.34124,-0.02141557,0.88538
377.331,0.73137,-2.08863,-0.33952,-0.02110337,0.88495
378.031,0.73245,-2.09071,-0.33302,-0.02081991,0.88453
378.731,0.73354,-2.09073,-0.33292,-0.0205849,0.8841
379.431,0.73462,-2.09088,-0.32806,-0.02041225,0.88367
380.131,0.73571,-2.09204,-0.32571,-0.02028943,0.88324
380.831,0.73679,-2.09379,-0.31832,-0.02018865,0.88282
381.531,0.73787,-2.09609,-0.32164,-0.02007365,0.88239
382.231,0.73895,-2.09742,-0.31342,-0.01991526,0.88196
382.931,0.74003,-2.09873,-0.31411,-0.01969989,0.88153
383.631,0.74111,-2.10005,-0.30868,-0.01944048,0.88109
384.331,0.74219,-2.10135,-0.30727,-0.0191687,0.88066
385.031,0.74327,-2.10268,-0.30433,-0.01893286,0.88023
385.731,0.74435,-2.104,-0.30099,-0.01877796,0.8798
386.431,0.74544,-2.1039,-0.29839,-0.01873369,0.87936
387.131,0.74652,-2.10532,-0.2987,-0.01880836,0.87893
387.831,0.74761,-2.10679,-0.29888,-0.01898614,0.87849
388.531,0.7487,-2.10806,-0.2911,-0.01923206,0.87806
389.231,0.74978,-2.1082,-0.29312,-0.01950584,0.87762
389.931,0.75087,-2.11038,-0.29676,-0.01977453,0.87719
390.631,0.75195,-2.11271,-0.2916,-0.02001954,0.87675
391.331,0.75304,-2.11342,-0.28397,-0.02023971,0.87631
392.031,0.75413,-2.11585,-0.2867,-0.02044392,0.87587
392.731,0.75522,-2.1159,-0.28501,-0.02064492,0.87543
393.431,0.75631,-2.11598,-0.28566,-0.02085066,0.87499
394.131,0.7574,-2.11835,-0.28389,-0.02106443,0.87455
394.831,0.75848,-2.11927,-0.28768,-0.02128995,0.87411
395.531,0.75957,-2.12263,-0.28619,-0.02153372,0.87367
396.231,0.76066,-2.12396,-0.28138,-0.02180883,0.87323
396.931,0.76175,-2.12527,-0.29362,-0.02212992,0.87278
397.631,0.76284,-2.12528,-0.30078,-0.0225063,0.87234
398.331,0.76392,-2.12524,-0.29749,-0.02293593,0.8719
399.031,0.76501,-2.12806,-0.28798,-0.02340818,0.87145
399.731,0.7661,-2.12929,-0.2906,-0.02390429,0.87101
400.431,0.76719,-2.13196,-0.30194,-0.02441587,0.87056
401.131,0.76828,-2.13465,-0.29507,-0.02494703,0.87011
401.831,0.76937,-2.13603,-0.30115,-0.02552153,0.86967
402.531,0.77047,-2.13728,-0.29306,-0.02616978,0.86922
403.231,0.77156,-2.13734,-0.29386,-0.02690755,0.86877
403.931,0.77266,-2.13995,-0.29603,-0.02773239,0.86832
404.631,0.77375,-2.14129,-0.30799,-0.0286032,0.86787
405.331,0.77484,-2.14261,-0.3052,-0.02948084,0.86742
406.031,0.77593,-2.14561,-0.31652,-0.03029945,0.86697
406.731,0.77704,-2.14846,-0.3215,-0.03102375,0.86652
407.431,0.77813,-2.15042,-0.32542,-0.03163445,0.86607
408.131,0.77922,-2.15243,-0.33551,-0.03216308,0.86562
408.831,0.78031,-2.15558,-0.33427,-0.03264972,0.86516
409.531,0.78141,-2.15611,-0.33215,-0.03313712,0.86471
410.231,0.78251,-2.15843,-0.33468,-0.03364341,0.86426
410.931,0.7836,-2.15944,-0.34265,-0.03415688,0.8638
411.631,0.78469,-2.16219,-0.33938,-0.03464038,0.86335
412.331,0.78579,-2.16673,-0.33711,-0.03504856,0.86289
413.031,0.78689,-2.16906,-0.34613,-0.03535063,0.86243
413.731,0.78798,-2.17053,-0.34483,-0.0355489,0.86198
414.431,0.78908,-2.17216,-0.34936,-0.03568464,0.86152
415.131,0.79017,-2.1776,-0.3437,-0.03583021,0.86106
415.831,0.79126,-2.17852,-0.35256,-0.03606568,0.8606
416.531,0.79236,-2.17892,-0.34675,-0.0364571,0.86014
417.231,0.79346,-2.18071,-0.34959,-0.03703463,0.85968
417.931,0.79455,-2.18323,-0.36038,-0.03779136,0.85922
418.631,0.79565,-2.18665,-0.36091,-0.03869115,0.85876
419.331,0.79675,-2.18931,-0.35655,-0.03968875,0.8583
420.031,0.79785,-2.19117,-0.35799,-0.04074816,0.85784
420.731,0.79895,-2.19551,-0.3577,-0.04186353,0.85738
421.431,0.80005,-2.19906,-0.35861,-0.043062,0.85691
422.131,0.80115,-2.20047,-0.35633,-0.04438453,0.85645
422.831,0.80225,-2.2018,-0.35526,-0.04587098,0.85599
423.531,0.80335,-2.20717,-0.35966,-0.04753883,0.85552
424.231,0.80446,-2.21028,-0.36361,-0.04938933,0.85506
424.931,0.80556,-2.21053,-0.3591,-0.05139384,0.85459
425.631,0.80667,-2.21,-0.35102,-0.05351028,0.85412
426.331,0.80777,-2.22566,-0.34944,-0.05570131,0.85366
427.031,0.80887,-2.22378,-0.34513,-0.05794004,0.85319
427.731,0.80997,-2.22555,-0.33795,-0.06022113,0.85272
428.431,0.81108,-2.22977,-0.32533,-0.06252723,0.85225
429.131,0.81219,-2.23408,-0.31495,-0.06483048,0.85178
429.831,0.8133,-2.23988,-0.304,-0.06710196,0.85131
430.531,0.8144,-2.24331,-0.29485,-0.06932188,0.85084
431.231,0.8155,-2.25033,-0.27633,-0.07151569,0.85037
431.931,0.8166,-2.25549,-0.27295,-0.0737143,0.8499
432.631,0.81771,-2.25817,-0.25337,-0.07596721,0.84943
433.331,0.81881,-2.26389,-0.24386,-0.07832558,0.84896
434.031,0.81991,-2.26884,-0.22837,-0.0808166,0.84848
434.731,0.82102,-2.27293,-0.21194,-0.08345827,0.84801
435.431,0.82213,-2.279,-0.19223,-0.0862364,0.84754
436.131,0.82323,-2.28594,-0.17851,-0.08911198,0.84706
436.831,0.82433,-2.29124,-0.14779,-0.09207221,0.84659
437.531,0.82544,-2.29765,-0.1214,-0.09508668,0.84611
438.231,0.82654,-2.30508,-0.09532305,-0.09815811,0.84564
438.931,0.82765,-2.31096,-0.06762286,-0.10127,0.84516
439.631,0.82876,-2.31692,-0.0326915,-0.10442,0.84468
440.331,0.82987,-2.32358,-0.005011349,-0.10757,0.8442
441.031,0.83098,-2.33066,0.0131216,-0.1107,0.84373
441.731,0.83209,-2.33957,0.04947315,-0.11373,0.84325
442.431,0.8332,-2.34787,0.09430107,-0.11665,0.84277
443.131,0.83431,-2.35622,0.12709,-0.11942,0.84229
443.831,0.83542,-2.36273,0.16923,-0.12202,0.84181
444.531,0.83653,-2.37074,0.21679,-0.12442,0.84133
445.231,0.83765,-2.37999,0.24858,-0.12662,0.84085
445.931,0.83876,-2.3884,0.29352,-0.1286,0.84037
446.631,0.83987,-2.39876,0.3227,-0.13036,0.83988
447.331,0.84099,-2.40561,0.35324,-0.13189,0.8394
448.031,0.8421,-2.41474,0.3992,-0.13321,0.83892
448.731,0.84321,-2.4243,0.42255,-0.13431,0.83843
449.431,0.84433,-2.4341,0.45685,-0.13523,0.83795
450.131,0.84544,-2.44217,0.4839,-0.13598,0.83747
450.831,0.84655,-2.45269,0.5176,-0.1366,0.83698
451.531,0.84767,-2.45959,0.55271,-0.13712,0.8365
452.231,0.84878,-2.47022,0.58275,-0.13759,0.83601
452.931,0.8499,-2.48067,0.62495,-0.13807,0.83552
453.631,0.85101,-2.48789,0.65069,-0.13863,0.83504
454.331,0.85212,-2.49701,0.68229,-0.13932,0.83455
455.031,0.85324,-2.5079,0.71676,-0.14023,0.83406
455.731,0.85435,-2.51685,0.74779,-0.14141,0.83357
456.431,0.85547,-2.52567,0.77724,-0.14287,0.83308
457.131,0.85659,-2.53453,0.80317,-0.14458,0.83259
457.831,0.8577,-2.54435,0.8205,-0.14638,0.8321
458.531,0.85881,-2.55302,0.83795,-0.14807,0.83161
459.231,0.85993,-2.56283,0.84699,-0.1494,0.83112
459.931,0.86105,-2.57253,0.85147,-0.15009,0.83063
460.631,0.86218,-2.58459,0.85202,-0.14994,0.83014
461.331,0.8633,-2.59918,0.85934,-0.1489,0.82965
462.031,0.86441,-2.61055,0.88348,-0.14706,0.82915
462.731,0.86553,-2.61985,0.90504,-0.14462,0.82866
463.431,0.86665,-2.62664,0.94064,-0.14189,0.82817
464.131,0.86777,-2.63659,0.94317,-0.13914,0.82767
464.831,0.86889,-2.64448,0.96448,-0.13664,0.82718
465.531,0.87001,-2.65313,0.9656,-0.13451,0.82668
466.231,0.87113,-2.66212,0.97489,-0.13279,0.82619
466.931,0.87225,-2.67144,0.98402,-0.13143,0.82569
467.631,0.87336,-2.68027,0.99693,-0.13033,0.8252
468.331,0.87448,-2.68831,0.99654,-0.12938,0.8247
469.031,0.8756,-2.69765,1.00717,-0.12845,0.8242
469.731,0.87673,-2.70585,0.99842,-0.12742,0.8237
470.431,0.87785,-2.71384,0.99879,-0.1262,0.82321
471.131,0.87897,-2.72244,0.99498,-0.12472,0.82271
471.831,0.88008,-2.73335,0.99409,-0.12297,0.82221
472.531,0.8812,-2.74165,0.999,-0.12094,0.82171
473.231,0.88232,-2.74816,1.01158,-0.11873,0.82121
473.931,0.88345,-2.75721,0.99064,-0.1164,0.82071
474.631,0.88458,-2.76345,0.97698,-0.11412,0.82021
475.331,0.8857,-2.77218,0.97575,-0.11199,0.81971
476.031,0.88682,-2.77937,0.97309,-0.11006,0.8192
476.731,0.88795,-2.78567,0.9714,-0.10833,0.8187
477.431,0.88907,-2.7918,0.97088,-0.10675,0.8182
478.131,0.8902,-2.80042,0.96448,-0.10521,0.8177
478.831,0.89133,-2.80701,0.94863,-0.10359,0.81719
479.531,0.89245,-2.81494,0.93727,-0.10177,0.81669
480.231,0.89358,-2.82143,0.94028,-0.0996641,0.81618
480.931,0.8947,-2.82859,0.94459,-0.09727934,0.81568
481.631,0.89583,-2.83589,0.92753,-0.09464987,0.81517
482.331,0.89696,-2.84258,0.92214,-0.091886,0.81467
483.031,0.89809,-2.84935,0.91824,-0.08911808,0.81416
483.731,0.89922,-2.85227,0.91597,-0.08648479,0.81365
484.431,0.90034,-2.85856,0.91379,-0.08408316,0.81315
485.131,0.90147,-2.86395,0.90445,-0.08193415,0.81264
485.831,0.90259,-2.86891,0.88783,-0.08003507,0.81213
486.531,0.90372,-2.87515,0.89289,-0.07831582,0.81162
487.231,0.90485,-2.87955,0.87704,-0.07670047,0.81112
487.931,0.90598,-2.88494,0.86747,-0.07508643,0.81061
488.631,0.9071,-2.89038,0.85517,-0.07338926,0.8101
489.331,0.90823,-2.8954,0.84563,-0.07155535,0.80959
490.031,0.90936,-2.90092,0.8352,-0.06956937,0.80908
490.731,0.91048,-2.90611,0.83195,-0.06746029,0.80857
491.431,0.91161,-2.91014,0.80508,-0.06526664,0.80806
492.131,0.91273,-2.91331,0.80211,-0.0630344,0.80754
492.831,0.91386,-2.91685,0.79984,-0.06079686,0.80703
493.531,0.91499,-2.92166,0.78218,-0.05859248,0.80652
494.231,0.91612,-2.92644,0.77573,-0.05644684,0.80601
494.931,0.91725,-2.92987,0.76672,-0.05437992,0.80549
495.631,0.91838,-2.93352,0.75757,-0.05242049,0.80498
496.331,0.91951,-2.93673,0.74428,-0.05058379,0.80447
497.031,0.92064,-2.93974,0.73632,-0.04890697,0.80395
497.731,0.92177,-2.94412,0.71652,-0.04738148,0.80344
498.431,0.9229,-2.9452,0.72227,-0.04599491,0.80292
499.131,0.92403,-2.94939,0.7006,-0.04470547,0.80241
499.831,0.92517,-2.95132,0.69078,-0.04344253,0.80189
500.531,0.9263,-2.95525,0.67779,-0.0421598,0.80138
501.231,0.92744,-2.95828,0.66324,-0.04080644,0.80086
501.931,0.92857,-2.96165,0.65406,-0.03937861,0.80034
502.631,0.92971,-2.96462,0.64401,-0.03788531,0.79982
503.331,0.93084,-2.9653,0.62916,-0.03636514,0.79931
504.031,0.93197,-2.96874,0.62793,-0.03486672,0.79879
504.731,0.93311,-2.97108,0.62444,-0.0334226,0.79827
505.431,0.93424,-2.97239,0.61404,-0.03205348,0.79775
506.131,0.93538,-2.97533,0.60605,-0.03076917,0.79723
506.831,0.93651,-2.97539,0.61233,-0.02957462,0.79671
507.531,0.93765,-2.97952,0.60765,-0.02846184,0.79619
508.231,0.93878,-2.98124,0.60329,-0.02743683,0.79567
508.931,0.93992,-2.98263,0.59678,-0.02649853,0.79515
509.631,0.94106,-2.98479,0.59683,-0.02565502,0.79463
510.331,0.94219,-2.98616,0.60308,-0.02489351,0.79411
511.031,0.94333,-2.9874,0.59109,-0.02417782,0.79359
511.731,0.94446,-2.99021,0.5891,-0.02344514,0.79306
512.431,0.9456,-2.99022,0.5837,-0.0226222,0.79254
513.131,0.94674,-2.99146,0.58269,-0.02165605,0.79202
513.831,0.94787,-2.99287,0.57652,-0.0205239,0.7915
514.531,0.94901,-2.99923,0.58131,-0.01926742,0.79097
515.231,0.95015,-2.99794,0.5859,-0.01797202,0.79045
515.931,0.9513,-2.99793,0.58041,-0.01676752,0.78992
516.631,0.95244,-2.99926,0.58762,-0.01577232,0.7894
517.331,0.95358,-2.99796,0.58676,-0.01504867,0.78887
518.031,0.95472,-2.99998,0.58016,-0.01458635,0.78835
518.731,0.95586,-3.0007,0.58958,-0.01430945,0.78782
519.431,0.95701,-3.00237,0.59501,-0.0141043,0.7873
520.131,0.95815,-3.00311,0.59805,-0.01386164,0.78677
520.831,0.95929,-3.00255,0.59964,-0.01350934,0.78624
521.531,0.96042,-3.00908,0.60024,-0.01303353,0.78572
522.231,0.96156,-3.00649,0.6005,-0.01247001,0.78519
522.931,0.96269,-3.00761,0.60028,-0.01188429,0.78466
523.631,0.96384,-3.00781,0.60903,-0.01133853,0.78413
524.331,0.96498,-3.00781,0.61056,-0.01087131,0.7836
525.031,0.96613,-3.00782,0.61963,-0.01048394,0.78307
525.731,0.96727,-3.01045,0.62107,-0.01014656,0.78255
526.431,0.96841,-3.01036,0.62606,-0.009817497,0.78202
527.131,0.96956,-3.01177,0.62848,-0.009463714,0.78149
527.831,0.97071,-3.01176,0.6306,-0.009079416,0.78096
528.531,0.97185,-3.01307,0.61611,-0.008679769,0.78042
529.231,0.97299,-3.0144,0.61043,-0.0082918,0.77989
529.931,0.97413,-3.01316,0.59448,-0.007941438,0.77936
530.631,0.97527,-3.01409,0.59713,-0.007640177,0.77883
531.331,0.97641,-3.01439,0.59734,-0.00738456,0.7783
532.031,0.97755,-3.01465,0.58707,-0.00715752,0.77777
532.731,0.97869,-3.01571,0.58335,-0.006942903,0.77723
533.431,0.97983,-3.01702,0.54317,-0.006733081,0.7767
534.131,0.98097,-3.01702,0.52607,-0.006537096,0.77617
534.831,0.98212,-3.01798,0.5092,-0.00637329,0.77564
535.531,0.98326,-3.01706,0.51726,-0.006260538,0.7751
536.231,0.98441,-3.01836,0.52375,-0.006205945,0.77457
536.931,0.98555,-3.01839,0.52848,-0.006199489,0.77403
537.631,0.98669,-3.01769,0.54458,-0.00621645,0.7735
538.331,0.98784,-3.019,0.56167,-0.006226543,0.77296
539.031,0.98899,-3.02032,0.5837,-0.00620449,0.77243
539.731,0.99013,-3.02098,0.58173,-0.006137201,0.77189
540.431,0.99128,-3.02004,0.59998,-0.006023845,0.77136
541.131,0.99243,-3.02031,0.59991,-0.005871006,0.77082
541.831,0.99357,-3.02164,0.59511,-0.005683255,0.77028
542.531,0.99472,-3.02164,0.59336,-0.005459925,0.76975
543.231,0.99587,-3.0217,0.60469,-0.005194429,0.76921
543.931,0.99702,-3.02295,0.60503,-0.004883206,0.76867
544.631,0.99817,-3.02295,0.60189,-0.004532883,0.76813
545.331,0.99932,-3.02295,0.60422,-0.004165855,0.7676
546.031,1.00047,-3.02412,0.58812,-0.00382084,0.76706
546.731,1.00162,-3.02427,0.59172,-0.00354563,0.76652
547.431,1.00277,-3.02416,0.59172,-0.00338368,0.76598
548.131,1.00392,-3.02426,0.58098,-0.00335795,0.76544
548.831,1.00507,-3.02426,0.57509,-0.003459099,0.7649
549.531,1.00622,-3.02295,0.55975,-0.00364565,0.76436
550.231,1.00737,-3.02425,0.56682,-0.003855963,0.76382
550.931,1.00852,-3.02432,0.55981,-0.004025,0.76328
551.631,1.00968,-3.02558,0.55101,-0.004106858,0.76274
552.331,1.01083,-3.0269,0.56581,-0.004089168,0.7622
553.031,1.01198,-3.02563,0.54905,-0.003994361,0.76166
553.731,1.01313,-3.02558,0.54706,-0.0038686,0.76112
554.431,1.01428,-3.0269,0.54054,-0.003763013,0.76057
555.131,1.01543,-3.0269,0.53227,-0.003715708,0.76003
555.831,1.01659,-3.02624,0.53289,-0.00373821,0.75949
556.531,1.01774,-3.02616,0.54381,-0.003809878,0.75895
557.231,1.01889,-3.02756,0.53328,-0.00388373,0.7584
557.931,1.02004,-3.02756,0.53103,-0.003899935,0.75786
558.631,1.0212,-3.02756,0.52735,-0.00380504,0.75732
559.331,1.02235,-3.02754,0.52485,-0.003574547,0.75677
560.031,1.0235,-3.02888,0.52057,-0.003226582,0.75623
560.731,1.02465,-3.02886,0.52287,-0.002825111,0.75569
561.431,1.02581,-3.0302,0.52467,-0.0024649,0.75514
562.131,1.02697,-3.03018,0.53169,-0.002246303,0.7546
562.831,1.02813,-3.02887,0.52927,-0.00223824,0.75405
563.531,1.02929,-3.02887,0.52739,-0.002445767,0.75351
564.231,1.03044,-3.02756,0.51881,-0.002804289,0.75296
564.931,1.0316,-3.02759,0.51565,-0.003201556,0.75242
565.631,1.03276,-3.03023,0.51383,-0.003512702,0.75187
566.331,1.03392,-3.03019,0.50035,-0.003643035,0.75132
567.031,1.03508,-3.03283,0.51062,-0.00355711,0.75078
567.731,1.03625,-3.0315,0.51766,-0.003281033,0.75023
568.431,1.03741,-3.0315,0.51367,-0.002881517,0.74968
569.131,1.03856,-3.02997,0.52472,-0.002432207,0.74914
569.831,1.03972,-3.03128,0.52522,-0.001988448,0.74859
570.531,1.04088,-3.0314,0.52111,-0.001581409,0.74804
571.231,1.04204,-3.0314,0.52578,-0.001227385,0.74749
571.931,1.0432,-3.0315,0.52774,-0.0009491344,0.74694
572.631,1.04436,-3.03106,0.52501,-0.000782572,0.74639
573.331,1.04551,-3.03248,0.52482,-0.000773937,0.74585
574.031,1.04667,-3.03477,0.53437,-0.0009587121,0.7453
574.731,1.04782,-3.02817,0.54916,-0.0013391,0.74475
575.431,1.04897,-3.03042,0.55221,-0.001862776,0.7442
576.131,1.05013,-3.03172,0.56002,-0.002444556,0.74365
576.831,1.0513,-3.03172,0.56313,-0.002974097,0.7431
577.531,1.05246,-3.03172,0.56609,-0.00336247,0.74255
578.231,1.05363,-3.03247,0.56366,-0.00357213,0.742
578.931,1.05479,-3.03402,0.5717,-0.003633225,0.74145
579.631,1.05595,-3.03952,0.5613,-0.00361899,0.7409
580.331,1.05712,-3.02889,0.574,-0.003611135,0.74034
581.031,1.05829,-3.03235,0.57753,-0.00366247,0.73979
581.731,1.05945,-3.03337,0.57429,-0.003773455,0.73924
582.431,1.06062,-3.03306,0.5759,-0.00389616,0.73869
583.131,1.06179,-3.03447,0.58275,-0.00395752,0.73814
583.831,1.06296,-3.03542,0.5971,-0.00389255,0.73759
584.531,1.06413,-3.03545,0.60121,-0.00367357,0.73703
585.231,1.0653,-3.03578,0.61003,-0.00332012,0.73648
585.931,1.06646,-3.03577,0.60511,-0.002891763,0.73593
586.631,1.06762,-3.0371,0.61544,-0.002461707,0.73537
587.331,1.06879,-3.03579,0.62554,-0.002095231,0.73482
588.031,1.06995,-3.03579,0.61645,-0.001827714,0.73427
588.731,1.07111,-3.03581,0.61999,-0.001661746,0.73371
589.431,1.07228,-3.03611,0.61758,-0.0015728,0.73316
590.131,1.07344,-3.0361,0.62912,-0.00153227,0.73261
590.831,1.07461,-3.03645,0.63121,-0.00152413,0.73205
591.531,1.07578,-3.03513,0.64492,-0.00155456,0.7315
592.231,1.07694,-3.04027,0.63432,-0.001644949,0.73094
592.931,1.0781,-3.04099,0.66149,-0.00181554,0.73039
593.631,1.07927,-3.03066,0.66689,-0.002069311,0.72983
594.331,1.08043,-3.03765,0.67182,-0.002386405,0.72928
595.031,1.0816,-3.03772,0.68451,-0.00272819,0.72872
595.731,1.08276,-3.03864,0.69707,-0.003053923,0.72816
596.431,1.08393,-3.03831,0.70227,-0.003329848,0.72761
597.131,1.0851,-3.03691,0.71134,-0.003534792,0.72705
597.831,1.08626,-3.03699,0.72528,-0.003647948,0.7265
598.531,1.08743,-3.03831,0.72133,-0.003646059,0.72594
599.231,1.0886,-3.03846,0.71907,-0.003501711,0.72538
599.931,1.08976,-3.03962,0.71725,-0.003194765,0.72483
600.631,1.09093,-3.03971,0.72752,-0.002724182,0.72427
601.331,1.0921,-3.03962,0.73364,-0.002126825,0.72371
602.031,1.09327,-3.03997,0.74004,-0.001474228,0.72315
602.731,1.09444,-3.04094,0.74418,-0.0008680803,0.7226
603.431,1.0956,-3.03951,0.75332,-0.000412051,0.72204
604.131,1.09677,-3.03952,0.74915,-0.000188852,0.72148
604.831,1.09794,-3.03884,0.76073,-0.0002444221,0.72092
605.531,1.09911,-3.03883,0.75959,-0.0005726157,0.72036
606.231,1.10027,-3.0394,0.75184,-0.00111692,0.7198
606.931,1.10144,-3.03885,0.74878,-0.00178656,0.71925
607.631,1.10261,-3.03885,0.74307,-0.002469301,0.71869
608.331,1.10378,-3.03884,0.7342,-0.00306006,0.71813
609.031,1.10495,-3.04147,0.73074,-0.0034806,0.71757
609.731,1.10612,-3.04017,0.73367,-0.00368143,0.71701
610.431,1.10729,-3.04146,0.73743,-0.003655849,0.71645
611.131,1.10846,-3.04148,0.74355,-0.003435137,0.71589
611.831,1.10964,-3.04148,0.75129,-0.003078369,0.71533
612.531,1.11082,-3.04276,0.76694,-0.0026696,0.71477
613.231,1.11199,-3.04281,0.78837,-0.002294044,0.71421
613.931,1.11317,-3.04148,0.79861,-0.002028455,0.71365
614.631,1.11434,-3.04116,0.82098,-0.001920695,0.71309
615.331,1.11552,-3.04248,0.82823,-0.001984038,0.71253
616.031,1.11669,-3.04248,0.8401,-0.002191371,0.71196
616.731,1.11787,-3.04195,0.85775,-0.002478224,0.7114
617.431,1.11904,-3.04118,0.85818,-0.002755794,0.71084
618.131,1.12022,-3.04247,0.8719,-0.00293104,0.71028
618.831,1.12139,-3.04279,0.87599,-0.002930345,0.70972
619.531,1.12257,-3.04377,0.89345,-0.00272098,0.70916
620.231,1.12374,-3.04381,0.9019,-0.002321566,0.7086
620.931,1.12492,-3.04577,0.90998,-0.001796742,0.70803
621.631,1.12609,-3.04304,0.91808,-0.001241656,0.70747
622.331,1.12727,-3.0441,0.94613,-0.0007570244,0.70691
623.031,1.12845,-3.04314,0.94394,-0.000424953,0.70635
623.731,1.12962,-3.04445,0.95355,-0.000291073,0.70578
624.431,1.1308,-3.04313,0.9658,-0.000361869,0.70522
625.131,1.13197,-3.04448,0.96788,-0.0006125479,0.70466
625.831,1.13315,-3.04314,0.98614,-0.0009985759,0.70409
626.531,1.13433,-3.04445,1.00311,-0.001468608,0.70353
627.231,1.13551,-3.04445,1.02411,-0.001968185,0.70297
627.931,1.13669,-3.04313,1.03676,-0.00245297,0.7024
628.631,1.13787,-3.04445,1.04075,-0.00288537,0.70184
629.331,1.13905,-3.04445,1.04004,-0.003242833,0.70128
630.031,1.14023,-3.04464,1.04208,-0.003510074,0.70071
630.731,1.14141,-3.04447,1.04769,-0.003685808,0.70015
631.431,1.14259,-3.04576,1.05159,-0.00377818,0.69958
632.131,1.14377,-3.04713,1.0612,-0.003801689,0.69902
632.831,1.14494,-3.04574,1.07119,-0.003767118,0.69845
633.531,1.14612,-3.04612,1.07741,-0.003673777,0.69789
634.231,1.1473,-3.04741,1.08591,-0.003507519,0.69733
634.931,1.14848,-3.04613,1.1052,-0.003246137,0.69676
635.631,1.14966,-3.04609,1.12415,-0.00287433,0.6962
636.331,1.15084,-3.04741,1.13848,-0.002397294,0.69563
637.031,1.15202,-3.04872,1.15385,-0.001853485,0.69506
637.731,1.1532,-3.04971,1.13953,-0.001308736,0.6945
638.431,1.15438,-3.04952,1.15855,-0.0008493433,0.69393
639.131,1.15557,-3.04707,1.16956,-0.0005581713,0.69337
639.831,1.15675,-3.04577,1.16802,-0.0005148853,0.6928
640.531,1.15794,-3.04704,1.17241,-0.000817598,0.69224
641.231,1.15912,-3.04702,1.19228,-0.00155075,0.69167
641.931,1.16031,-3.04968,1.20199,-0.00281106,0.6911
642.631,1.1615,-3.04841,1.21644,-0.004734343,0.69054
643.331,1.16268,-3.04708,1.23038,-0.007439149,0.68997
644.031,1.16387,-3.04563,1.23509,-0.01121306,0.6894
644.731,1.16505,-3.04541,1.23848,-0.01693934,0.68884
645.431,1.16623,-3.04938,1.25606,-0.02509995,0.68827
645.631,1.16658,-3.0495,1.26006,-0.01792109,0.68811