File: 01_Data/OSB/Cone/OSB_Cone_HF75Scan_210325_R1.csv
Names,Time,Stack TC,Smoke TC,Exh Press,Smoke Comp,Smoke Meas,CO Meter,CO2 Meter,O2 Meter,Sample Mass,Ext Coeff,Start Test,Flame Verif
Chan Gain,,500,500,1,1,1,1,1,1,1,1,1.0,1.0
Offset,,0,0,0.138348,0,0,0,0,0,0,0,0.0,0.0
Gain,,1,1,25.011,13.5067,16.616,1,1,1,1.00091,1.04608,1.0,1.0
Units,sec,C,C,Pa,%,%,%,%,%,g,/m,,
Baseline,,39.2611,42.655,157.643,100.444,100.531,-0.000400138,0.0813323,20.8696,-0.0739841,-0.0079345,,
7,1.5,36.7949,40.3928,157.784,100.427,100.392,-0.000290901,0.0822366,20.8714,578.737,0.00321544,0.0,0.0
14,3.25,37.1374,40.4261,160.792,100.442,100.194,-0.000215665,0.0830171,20.8703,578.717,0.0226187,0.0,0.0
21,5,36.9359,40.6887,153.013,100.438,99.6988,-0.000153878,0.0837676,20.869,578.617,0.0677643,0.0,0.0
28,6.75,37.1631,40.4442,159.694,100.436,98.8865,-9.84077e-05,0.0845464,20.8676,578.547,0.142648,0.0,0.0
35,8.5,37.6735,41.4791,154.638,100.434,97.6589,7.61549e-05,0.0852077,20.8659,578.517,0.257129,0.0,0.0
42,10.25,37.7461,40.8438,156.668,100.443,95.6371,0.000468926,0.0892018,20.8561,578.396,0.449877,0.0,1.0
49,12,37.6361,42.1743,150.118,100.442,100.736,0.000940271,0.116814,20.8134,578.166,-0.0268546,0.0,1.0
56,13.75,39.9723,45.2544,134.351,100.433,100.793,0.00142755,0.191531,20.6964,577.916,-0.0328543,0.0,1.0
63,15.5,42.0041,48.5986,136.831,100.421,99.2562,0.00196837,0.283711,20.5424,577.516,0.107092,0.0,0.0
70,17.25,43.997,52.9895,135.077,100.428,98.1705,0.0024666,0.388474,20.4073,577.225,0.208614,0.0,0.0
77,19,47.2582,57.3672,136.636,100.436,97.8876,0.00316443,0.478841,20.3079,576.805,0.235855,0.0,0.0
84,20.75,49.8345,61.509,143.042,100.442,96.5342,0.00388651,0.552162,20.2318,576.395,0.364136,0.0,0.0
91,22.5,52.447,65.3533,132.571,100.432,95.3405,0.00441278,0.612917,20.1721,575.984,0.477367,0.0,0.0
98,24.25,54.8093,68.7569,134.067,100.403,95.0058,0.0048711,0.655603,20.1328,575.604,0.506997,0.0,0.0
105,26,56.7917,71.6862,134.438,100.442,94.1154,0.0053144,0.687478,20.1054,575.214,0.596945,0.0,0.0
112,27.75,58.4893,74.7447,130.401,100.45,94.5946,0.00584601,0.714567,20.0811,574.813,0.551134,0.0,0.0
119,29.5,60.525,77.2743,136.122,100.449,93.6159,0.00638191,0.733003,20.067,574.373,0.646414,0.0,0.0
126,31.25,61.8406,79.8949,133.873,100.446,92.3508,0.00682258,0.742891,20.0613,574.023,0.77108,0.0,0.0
133,33,62.9691,81.5231,135.292,100.449,90.2241,0.0071074,0.74704,20.0616,573.582,0.985126,0.0,0.0
140,34.75,63.5117,82.9468,135.148,100.448,94.0429,0.00718215,0.745242,20.0693,573.212,0.604582,0.0,0.0
147,36.5,64.9845,83.9064,136.406,100.442,92.9425,0.00709608,0.741865,20.0764,572.791,0.712054,0.0,0.0
154,38.25,65.5726,85.4824,129.91,100.43,94.0966,0.0069816,0.739994,20.0799,572.391,0.597682,0.0,0.0
161,40,66.5923,86.7873,130.666,100.42,92.4121,0.00692942,0.739007,20.0825,572.091,0.762575,0.0,0.0
168,41.75,67.3702,87.7672,137.603,100.445,92.437,0.00698514,0.736793,20.0871,571.73,0.762405,0.0,0.0
175,43.5,67.1314,88.3494,131.797,100.434,93.6692,0.00702794,0.731896,20.0955,571.29,0.639877,0.0,0.0
182,45.25,67.8631,88.4811,136.054,100.428,94.0469,0.00699914,0.727177,20.1013,570.91,0.602378,0.0,0.0
189,47,68.9759,89.0476,133.425,100.432,94.1306,0.00691733,0.724503,20.1054,570.559,0.594559,0.0,0.0
196,48.75,69.7331,89.7547,140.964,100.423,92.7493,0.00690428,0.721614,20.1088,570.189,0.729416,0.0,0.0
203,50.5,70.3966,89.9169,138.168,100.431,92.8619,0.00699937,0.716598,20.1169,569.819,0.719002,0.0,0.0
210,52.25,70.4597,90.2581,135.758,100.418,92.1368,0.00707908,0.711307,20.1229,569.398,0.789806,0.0,0.0
217,54,70.9156,91.0017,130.984,100.411,92.8528,0.00705165,0.706007,20.1294,569.068,0.718058,0.0,0.0
224,55.75,71.8128,91.0867,133.778,100.423,93.2975,0.00695957,0.700851,20.1352,568.738,0.675382,0.0,0.0
231,57.5,71.2351,91.5782,128.075,100.433,95.0418,0.00686113,0.698227,20.1383,568.327,0.50627,0.0,0.0
238,59.25,71.8634,91.7037,136.654,100.431,93.3249,0.00678437,0.696321,20.1412,567.987,0.673367,0.0,0.0
245,61,72.259,91.7916,134.303,100.429,93.6053,0.00676756,0.692343,20.1464,567.617,0.645649,0.0,0.0
252,62.75,72.1029,92.2131,136.105,100.417,93.6408,0.00675907,0.687731,20.1531,567.276,0.641116,0.0,0.0
259,64.5,72.877,92.1717,133.136,100.433,93.7777,0.00675269,0.681915,20.1594,566.906,0.629178,0.0,0.0
266,66.25,72.8226,92.7896,137.37,100.448,95.9586,0.006749,0.676629,20.1645,566.566,0.419535,0.0,0.0
273,68,73.1947,92.5523,135.85,100.444,94.6985,0.00674766,0.670691,20.1704,566.195,0.54049,0.0,0.0
280,69.75,73.4606,92.9192,135.512,100.43,95.3572,0.00670806,0.665329,20.176,565.895,0.475605,0.0,0.0
287,71.5,73.2438,92.5368,134.429,100.436,94.5525,0.00657318,0.659014,20.1846,565.515,0.553938,0.0,0.0
294,73.25,73.8549,92.3848,137.561,100.442,93.7975,0.00645759,0.654392,20.1902,565.184,0.628071,0.0,0.0
301,75,73.5806,92.4392,138.544,100.442,94.7006,0.00643325,0.648943,20.1963,564.824,0.540068,0.0,0.0
308,76.75,73.5207,92.5557,133.744,100.432,92.7899,0.00648214,0.643044,20.2038,564.474,0.726233,0.0,0.0
315,78.5,73.684,92.2295,133.235,100.417,93.4744,0.00653699,0.638218,20.2098,564.144,0.657391,0.0,0.0
322,80.25,73.8763,92.6108,134.273,100.402,93.9105,0.00642053,0.633919,20.2154,563.913,0.613287,0.0,0.0
329,82,73.8316,91.9805,137.08,100.41,94.1955,0.00620303,0.628878,20.2196,563.483,0.586275,0.0,0.0
336,83.75,74.1614,92.2509,134.191,100.398,95.9703,0.00611565,0.626102,20.2226,563.173,0.413899,0.0,0.0
343,85.5,74.146,92.0957,133.568,100.376,94.9551,0.00616005,0.62292,20.2266,562.872,0.509447,0.0,0.0
350,87.25,74.3126,91.6641,134.854,100.374,95.2994,0.00618536,0.620279,20.2297,562.512,0.476047,0.0,0.0
357,89,74.0207,91.8159,132.93,100.371,94.7761,0.00618185,0.617377,20.232,562.242,0.526346,0.0,0.0
364,90.75,74.5296,91.8348,134.212,100.364,93.8745,0.00620928,0.614493,20.234,561.881,0.613414,0.0,0.0
371,92.5,74.3536,91.8126,134.874,100.35,94.2188,0.00622161,0.610567,20.24,561.541,0.5785,0.0,0.0
378,94.25,74.2608,91.5606,133.619,100.338,93.6327,0.00622812,0.606929,20.2434,561.231,0.634714,0.0,0.0
385,96,74.6166,91.0733,130.196,100.34,92.1373,0.00628761,0.604287,20.2464,560.901,0.782595,0.0,0.0
392,97.75,74.3316,91.0729,132.062,100.333,94.7903,0.00638421,0.602013,20.2479,560.6,0.521428,0.0,0.0
399,99.5,74.4801,90.9526,133.378,100.329,93.9263,0.00639752,0.598741,20.2529,560.21,0.605081,0.0,0.0
406,101.25,74.0874,91.1104,135.319,100.308,94.2731,0.00623716,0.5934,20.2615,560.01,0.569374,0.0,0.0
413,103,74.6767,90.1691,137.217,100.31,93.6773,0.00598435,0.586947,20.269,559.669,0.627778,0.0,0.0
420,104.75,74.2217,89.7231,136.838,100.319,93.9334,0.00570206,0.582761,20.2732,559.339,0.603482,0.0,0.0
427,106.5,74.4346,90.1702,140.01,100.318,93.156,0.00556639,0.579955,20.2761,559.059,0.679698,0.0,0.0
434,108.25,74.0523,89.7767,134.773,100.301,92.3127,0.00551466,0.575673,20.2815,558.769,0.761595,0.0,0.0
441,110,74.4398,88.6851,137.007,100.294,92.7934,0.00550187,0.570685,20.2872,558.458,0.713294,0.0,0.0
448,111.75,73.3869,89.5904,134.027,100.304,93.9719,0.00557407,0.563561,20.2955,558.168,0.598398,0.0,0.0
455,113.5,73.8025,89.225,140.201,100.3,94.6636,0.00564978,0.557972,20.3027,557.908,0.530731,0.0,0.0
462,115.25,73.8217,88.8253,136.399,100.284,93.2473,0.00570358,0.553192,20.3078,557.588,0.667544,0.0,0.0
469,117,74.0962,88.3686,136.385,100.285,93.6286,0.00570736,0.546811,20.3141,557.307,0.630247,0.0,0.0
476,118.75,73.4042,88.4995,134.404,100.282,94.3284,0.00565139,0.539798,20.3241,557.067,0.561582,0.0,0.0
483,120.5,73.2725,88.2281,138.467,100.303,94.8654,0.00549732,0.532006,20.3342,556.777,0.511415,0.0,0.0
490,122.25,73.1917,87.6328,138.098,100.28,95.162,0.00527562,0.524315,20.3452,556.467,0.480691,0.0,0.0
497,124,72.8903,87.2589,142.16,100.278,94.1803,0.0050813,0.51788,20.3516,556.206,0.575657,0.0,0.0
504,125.75,72.9056,86.9144,138.462,100.27,93.7214,0.00499581,0.512997,20.3565,555.966,0.619799,0.0,0.0
511,127.5,73.2721,86.2813,136.001,100.275,93.2123,0.00500947,0.510005,20.3606,555.686,0.670158,0.0,0.0
518,129.25,71.7697,86.5597,139.568,100.28,94.0566,0.00506221,0.505918,20.3652,555.406,0.587872,0.0,0.0
525,131,72.766,86.0226,137.275,100.275,94.2153,0.0050765,0.501432,20.3716,555.165,0.571984,0.0,0.0
532,132.75,72.2567,85.3984,145.341,100.269,94.2488,0.00500787,0.496647,20.3774,554.905,0.568159,0.0,0.0
539,134.5,72.2369,85.1376,132.585,100.27,93.2108,0.00487092,0.492003,20.385,554.615,0.66993,0.0,0.0
546,136.25,72.1902,84.8075,137.072,100.276,94.5053,0.00477511,0.485782,20.3937,554.365,0.543854,0.0,0.0
553,138,72.275,84.0865,140.605,100.272,93.7107,0.00471914,0.480398,20.3981,554.104,0.620992,0.0,0.0
560,139.75,72.0751,84.2491,143.702,100.264,94.4323,0.00467784,0.476725,20.4013,553.884,0.549891,0.0,0.0
567,141.5,71.8207,83.7097,138.788,100.266,94.7913,0.00463597,0.474394,20.4036,553.594,0.515222,0.0,0.0
574,143.25,71.2265,84.3715,132.668,100.263,94.4937,0.00460084,0.472184,20.406,553.394,0.543856,0.0,0.0
581,145,71.5885,83.7694,142.644,100.261,95.2147,0.0045565,0.470083,20.4075,553.103,0.473873,0.0,0.0
588,146.75,71.6152,83.9164,134.631,100.259,95.3329,0.0045325,0.467951,20.4094,552.873,0.462267,0.0,0.0
595,148.5,71.3143,83.4671,137.264,100.259,94.8618,0.00448672,0.465778,20.4125,552.613,0.50776,0.0,0.0
602,150.25,71.2198,82.8178,137.013,100.264,95.124,0.00439434,0.463981,20.4144,552.393,0.482888,0.0,0.0
609,152,70.7625,82.9517,142.402,100.261,95.4201,0.00439898,0.461824,20.4164,552.153,0.45414,0.0,0.0
616,153.75,70.658,83.1685,135.26,100.244,94.1189,0.00440843,0.459545,20.4196,551.862,0.578506,0.0,0.0
623,155.5,71.1989,82.6311,141.873,100.249,96.2816,0.00427001,0.45664,20.4251,551.592,0.370531,0.0,0.0
630,157.25,70.8203,82.4827,141.879,100.252,95.1351,0.00407582,0.453134,20.4292,551.392,0.480718,0.0,0.0
637,159,70.5404,82.1265,138.927,100.265,95.9059,0.00397037,0.450825,20.4313,551.202,0.407883,0.0,0.0
644,160.75,70.5906,82.0036,138.913,100.245,96.6229,0.00396941,0.449129,20.4331,550.971,0.337725,0.0,0.0
651,162.5,70.623,81.298,141.567,100.233,95.6909,0.00395913,0.447534,20.4345,550.721,0.425534,0.0,0.0
658,164.25,70.8217,81.3339,140.922,100.252,96.3547,0.00383633,0.444826,20.4387,550.451,0.363838,0.0,0.0
665,166,70.9554,81.5673,135.989,100.248,95.2649,0.00369602,0.442713,20.4407,550.211,0.467866,0.0,0.0
672,167.75,70.4164,81.2528,138.053,100.245,95.8866,0.00364148,0.441705,20.4416,549.921,0.407878,0.0,0.0
679,169.5,70.7535,81.298,137.988,100.226,94.6108,0.00368433,0.441708,20.441,549.68,0.529016,0.0,0.0
686,171.25,69.9878,81.3595,134.788,100.237,95.2117,0.00366751,0.441906,20.4406,549.43,0.471978,0.0,0.0
693,173,70.4652,81.2619,144.16,100.24,96.6898,0.00354379,0.442097,20.4404,549.22,0.330842,0.0,0.0
700,174.75,70.2275,81.1459,141.225,100.246,96.1037,0.00339661,0.442504,20.4391,548.88,0.387208,0.0,0.0
707,176.5,70.4307,81.0925,140.619,100.244,96.4211,0.00337639,0.442264,20.4397,548.74,0.35676,0.0,0.0
714,178.25,70.3716,81.0714,137.34,100.228,94.9835,0.00344604,0.440805,20.4412,548.479,0.493204,0.0,0.0
721,180,70.4057,81.0249,137.978,100.226,95.3547,0.003497,0.439887,20.4418,548.249,0.45715,0.0,0.0
728,181.75,70.4702,80.8269,143.406,100.242,94.9719,0.00346989,0.439208,20.4422,547.989,0.495537,0.0,0.0
735,183.5,70.2683,80.8729,144.848,100.229,96.1295,0.00340914,0.438656,20.4428,547.739,0.383191,0.0,0.0
742,185.25,70.497,80.6204,144.469,100.223,95.7147,0.00343269,0.437557,20.4445,547.488,0.422305,0.0,0.0
749,187,70.2611,80.6412,137.059,100.226,96.3957,0.00352485,0.435413,20.4467,547.268,0.357551,0.0,0.0
756,188.75,70.4113,80.8354,143.572,100.229,95.4586,0.0036335,0.433235,20.4513,547.048,0.447491,0.0,0.0
763,190.5,70.1031,80.4744,140.073,100.232,95.6371,0.0036625,0.431367,20.4541,546.818,0.430577,0.0,0.0
770,192.25,70.3281,80.5161,136.124,100.221,96.414,0.00352578,0.430153,20.4554,546.557,0.35536,0.0,0.0
777,194,70.1814,80.4412,144.542,100.235,96.3526,0.0032971,0.428756,20.4568,546.307,0.362485,0.0,0.0
784,195.75,70.2088,80.646,136.269,100.237,95.7279,0.00309868,0.427207,20.4591,546.107,0.422325,0.0,0.0
791,197.5,70.1084,80.2832,143.668,100.244,96.7091,0.00295053,0.425265,20.4602,545.867,0.32939,0.0,0.0
798,199.25,70.104,80.1732,141.369,100.245,95.6021,0.00286543,0.423758,20.4607,545.627,0.435103,0.0,0.0
805,201,70.0157,80.2652,145.382,100.244,96.3476,0.00286354,0.423435,20.461,545.376,0.36376,0.0,0.0
812,202.75,70.1405,80.349,137.591,100.247,95.5545,0.00293688,0.42369,20.4611,545.226,0.439868,0.0,0.0
819,204.5,70.2787,80.0985,141.36,100.262,95.2751,0.00308308,0.423501,20.4612,544.946,0.468135,0.0,0.0
826,206.25,69.9721,79.9415,138.062,100.262,96.4657,0.00319702,0.422599,20.4633,544.706,0.354212,0.0,0.0
833,208,70.2461,80.3123,139.434,100.274,96.6908,0.00326979,0.421037,20.4646,544.506,0.333877,0.0,0.0
840,209.75,69.5815,79.6096,134.159,100.28,96.525,0.00331969,0.419721,20.4654,544.225,0.350155,0.0,0.0
847,211.5,70.2386,79.8398,141.984,100.294,95.5692,0.0033604,0.419599,20.466,544.015,0.442757,0.0,0.0
854,213.25,70.1577,79.9936,140.561,100.313,96.9464,0.00334873,0.419575,20.4665,543.795,0.3132,0.0,0.0
861,215,69.9444,79.8933,139.739,100.309,96.2649,0.00330311,0.419354,20.4669,543.535,0.377633,0.0,0.0
868,216.75,69.9874,80.0858,142.031,100.329,96.3303,0.00324752,0.418611,20.4677,543.315,0.373247,0.0,0.0
875,218.5,69.806,79.6464,144.132,100.361,96.4272,0.00318645,0.416811,20.4699,543.094,0.366891,0.0,0.0
882,220.25,69.9988,79.9257,142.572,100.362,96.0839,0.00310104,0.414994,20.4719,542.854,0.399767,0.0,0.0
889,222,69.7724,79.45,142.757,100.382,96.5661,0.00301858,0.413756,20.4731,542.644,0.3556,0.0,0.0
896,223.75,69.917,79.4053,140.459,100.394,96.0261,0.00297768,0.411985,20.4737,542.394,0.408154,0.0,0.0
903,225.5,69.9528,79.3472,137.718,100.422,96.9586,0.00292693,0.41099,20.4731,542.204,0.322073,0.0,0.0
910,227.25,69.6346,79.4588,138.488,100.44,96.7106,0.0028786,0.412213,20.4713,541.993,0.347189,0.0,0.0
917,229,69.4829,79.3409,139.487,100.461,96.8328,0.00290365,0.413655,20.4693,541.713,0.337522,0.0,0.0
924,230.75,69.6731,79.0647,140.941,100.474,95.9525,0.00292931,0.415396,20.4673,541.563,0.422526,0.0,0.0
931,232.5,69.8218,79.6651,136.818,100.497,96.3471,0.00295341,0.416684,20.4661,541.283,0.386946,0.0,0.0
938,234.25,69.6485,79.1149,144.387,100.518,96.4845,0.00300924,0.416939,20.466,541.123,0.375787,0.0,0.0
945,236,69.8278,79.1534,141.137,100.545,96.4601,0.0030246,0.415523,20.4673,540.822,0.380586,0.0,0.0
952,237.75,69.6015,79.2204,143.789,100.547,97.1655,0.00293687,0.414185,20.4695,540.582,0.313919,0.0,0.0
959,239.5,69.7851,79.2426,139.916,100.557,97.3764,0.00280516,0.413631,20.4705,540.412,0.294922,0.0,0.0
966,241.25,69.7674,79.3173,138.433,100.553,96.7081,0.00273685,0.413273,20.471,540.132,0.357779,0.0,0.0
973,243,69.3235,78.9806,141.005,100.579,96.6802,0.0027095,0.413486,20.4708,539.932,0.362758,0.0,0.0
980,244.75,69.6901,79.1476,142.814,100.596,97.4439,0.00264218,0.413884,20.47,539.741,0.292141,0.0,0.0
987,246.5,69.6857,78.8719,140.615,100.599,96.8131,0.0025851,0.414544,20.469,539.491,0.352036,0.0,0.0
994,248.25,69.4586,79.0981,138.862,100.625,96.9931,0.00252232,0.415198,20.4679,539.261,0.337283,0.0,0.0
1001,250,69.7865,79.3834,141.968,100.645,96.3141,0.00240509,0.415129,20.4686,539.081,0.403588,0.0,0.0
1008,251.75,69.5632,78.9518,137.675,100.676,96.7928,0.00233345,0.414188,20.4701,538.871,0.360951,0.0,0.0
1015,253.5,69.8269,78.9471,141.122,100.694,97.8805,0.00241876,0.413221,20.4708,538.64,0.260027,0.0,0.0
1022,255.25,69.7183,78.969,139.296,100.702,97.0468,0.00258325,0.412746,20.4712,538.42,0.339264,0.0,0.0
1029,257,70.0128,79.1153,142.739,100.738,96.6183,0.00288849,0.412058,20.473,538.12,0.383173,0.0,0.0
1036,258.75,69.5073,79.05,140.735,100.781,96.8257,0.00307749,0.411775,20.4743,537.93,0.367364,0.0,0.0
1043,260.5,69.7367,78.8012,142.363,100.802,97.0585,0.00310466,0.412155,20.475,537.719,0.347284,0.0,0.0
1050,262.25,69.6102,78.9607,143.595,100.809,96.7456,0.00308585,0.412163,20.4753,537.479,0.377549,0.0,0.0
1057,264,69.6154,78.8383,143,100.835,96.771,0.00295479,0.41211,20.4754,537.279,0.377471,0.0,0.0
1064,265.75,69.2177,78.6035,141.564,100.873,96.5331,0.00276392,0.412412,20.4752,537.069,0.403499,0.0,0.0
1071,267.5,69.6334,78.846,144.584,100.902,97.4322,0.00258703,0.411829,20.4749,536.859,0.321134,0.0,0.0
1078,269.25,69.8485,78.8544,138.914,100.936,96.7517,0.00251289,0.410429,20.4748,536.639,0.388482,0.0,0.0
1085,271,69.8387,79.0351,142.144,100.936,96.9687,0.00257534,0.410414,20.4748,536.388,0.367923,0.0,0.0
1092,272.75,70.1345,79.1975,138.446,100.97,97.1305,0.00271413,0.410938,20.4747,536.188,0.3557,0.0,0.0
1099,274.5,69.7488,78.8177,143.563,101.007,96.9566,0.00283992,0.411551,20.4747,535.968,0.375555,0.0,0.0
1106,276.25,69.6314,78.8822,140.687,101.017,96.8704,0.00285934,0.409961,20.4757,535.678,0.384579,0.0,0.0
1113,278,69.7499,78.8071,144.203,101.036,96.5798,0.00283319,0.408985,20.4764,535.518,0.41394,0.0,0.0
1120,279.75,69.7299,78.8223,137.128,101.07,96.7294,0.00283792,0.409121,20.4787,535.267,0.402808,0.0,0.0
1127,281.5,69.4822,78.5849,136.357,101.099,97.2496,0.00280859,0.408935,20.4795,535.027,0.356167,0.0,0.0
1134,283.25,69.2486,78.6989,144.845,101.13,98.3637,0.00269614,0.408502,20.4797,534.837,0.254528,0.0,0.0
1141,285,69.6854,78.4727,142.993,101.129,97.3019,0.00259076,0.408907,20.4786,534.667,0.354046,0.0,0.0
1148,286.75,69.7184,78.6626,142.541,101.165,97.7451,0.00260612,0.409642,20.478,534.386,0.315598,0.0,0.0
1155,288.5,69.3113,78.3862,140.219,101.198,96.9637,0.00277247,0.410062,20.4773,534.176,0.392204,0.0,0.0
1162,290.25,69.6305,78.8593,143.625,101.231,97.5047,0.0028692,0.410923,20.4762,533.976,0.34417,0.0,0.0
1169,292,69.7579,78.6009,140.248,101.259,97.5686,0.0027681,0.411156,20.4767,533.826,0.340663,0.0,0.0
1176,293.75,69.1843,78.5364,143.653,101.255,97.9063,0.00258345,0.410611,20.4771,533.576,0.308583,0.0,0.0
1183,295.5,69.7985,79.0698,143.118,101.274,97.527,0.0023958,0.410079,20.4779,533.366,0.345919,0.0,0.0
1190,297.25,69.6639,79.186,143.857,101.295,98.3231,0.00231276,0.409651,20.4789,533.085,0.273224,0.0,0.0
1197,299,69.6882,78.9463,138.703,101.327,96.8257,0.00243435,0.409176,20.4798,532.865,0.416957,0.0,0.0
1204,300.75,69.8001,78.8529,137.239,101.335,97.4809,0.00266297,0.408255,20.4802,532.685,0.355787,0.0,0.0
1211,302.5,69.481,78.8682,138.869,101.336,97.8384,0.00282534,0.408116,20.4804,532.505,0.322272,0.0,0.0
1218,304.25,69.3868,78.491,140.785,101.373,97.6335,0.0028672,0.408871,20.4801,532.274,0.344903,0.0,0.0
1225,306,69.5525,78.8737,141.441,101.382,97.8079,0.00285481,0.409341,20.4799,532.104,0.329306,0.0,0.0
1232,307.75,69.6593,78.5963,137.832,101.392,97.5189,0.00284612,0.408625,20.481,531.874,0.357357,0.0,0.0
1239,309.5,69.4871,78.6777,146.218,101.399,97.5823,0.00278497,0.408371,20.4811,531.654,0.352029,0.0,0.0
1246,311.25,69.6496,78.8945,139.176,101.409,96.7289,0.00266838,0.409277,20.4784,531.454,0.433528,0.0,0.0
1253,313,70.0969,78.7199,139.59,101.426,97.9124,0.00262071,0.409902,20.4767,531.214,0.323539,0.0,0.0
1260,314.75,69.6655,78.4939,137.009,101.43,97.8587,0.00270982,0.410427,20.4759,530.973,0.328876,0.0,0.0
1267,316.5,69.5696,78.4435,138.075,101.438,96.4911,0.0029287,0.410759,20.4761,530.763,0.458802,0.0,0.0
1274,318.25,69.4807,78.9706,143.761,101.453,97.0925,0.00317895,0.410636,20.4768,530.573,0.403129,0.0,0.0
1281,320,69.8561,78.5188,140.503,101.462,97.6614,0.00330026,0.409748,20.4768,530.333,0.350299,0.0,0.0
1288,321.75,69.5198,78.558,146.165,101.48,98.1893,0.00321452,0.408812,20.4767,530.113,0.302475,0.0,0.0
1295,323.5,69.6594,78.7269,142.721,101.48,98.2364,0.00299797,0.409445,20.4755,529.892,0.29807,0.0,0.0
1302,325.25,69.6081,78.941,138.625,101.48,97.3125,0.00283253,0.410294,20.4749,529.682,0.384777,0.0,0.0
1309,327,69.4317,78.4581,137.608,101.491,98.5427,0.00277459,0.410897,20.4745,529.492,0.270512,0.0,0.0
1316,328.75,69.8717,78.7089,145.644,101.505,97.6878,0.00287192,0.411358,20.4752,529.292,0.351773,0.0,0.0
1323,330.5,69.6237,78.6251,135.86,101.523,96.5468,0.0030199,0.41174,20.4746,529.062,0.461177,0.0,0.0
1330,332.25,70.0541,78.3823,142.866,101.506,97.2593,0.00313042,0.412442,20.4744,528.841,0.392184,0.0,0.0
1337,334,69.6351,78.5354,138.507,101.522,98.3034,0.00315572,0.412737,20.4743,528.681,0.295657,0.0,0.0
1344,335.75,69.7043,78.587,140.283,101.537,98.0833,0.00307081,0.412768,20.4742,528.461,0.317564,0.0,0.0
1351,337.5,69.5292,78.843,138.303,101.54,97.2192,0.00292839,0.412397,20.4742,528.201,0.399058,0.0,0.0
1358,339.25,69.493,78.952,140.432,101.539,96.4926,0.00280134,0.412269,20.4741,528.011,0.46775,0.0,0.0
1365,341,69.7142,78.9429,138.236,101.53,97.6928,0.00274808,0.413061,20.4733,527.8,0.353532,0.0,0.0
1372,342.75,69.2299,78.7579,138.136,101.545,97.1016,0.00280051,0.414041,20.4718,527.58,0.41054,0.0,0.0
1379,344.5,69.1878,78.5546,143.35,101.543,97.4053,0.00292495,0.414842,20.4704,527.39,0.381769,0.0,0.0
1386,346.25,69.671,78.6417,140.311,101.554,97.5149,0.00307331,0.415768,20.4692,527.17,0.372425,0.0,0.0
1393,348,69.7128,78.7744,139.878,101.553,97.6741,0.00318824,0.416276,20.4686,526.97,0.357379,0.0,0.0
1400,349.75,69.6678,78.8614,140.238,101.547,96.7243,0.00331149,0.416414,20.4683,526.709,0.446447,0.0,0.0
1407,351.5,69.7171,78.525,141.306,101.563,96.6112,0.00343076,0.415851,20.4686,526.529,0.458634,0.0,0.0
1414,353.25,69.4416,78.9183,139.887,101.562,97.0646,0.00340953,0.416348,20.4684,526.279,0.415603,0.0,0.0
1421,355,69.7106,78.8485,143.522,101.553,96.6467,0.00325286,0.416968,20.4683,526.089,0.454406,0.0,0.0
1428,356.75,69.5499,79.0295,142.311,101.552,96.1102,0.00311722,0.416221,20.4683,525.839,0.505374,0.0,0.0
1435,358.5,70.2105,78.8907,138.701,101.552,97.8363,0.00312847,0.415468,20.4689,525.628,0.342036,0.0,0.0
1442,360.25,69.3807,78.6095,140.039,101.563,96.7385,0.00319781,0.415161,20.4698,525.448,0.44659,0.0,0.0
1449,362,69.6958,78.4362,138.56,101.55,97.0828,0.00320841,0.414426,20.4702,525.268,0.412835,0.0,0.0
1456,363.75,69.6961,78.611,136.847,101.546,96.5524,0.0031889,0.414006,20.4704,525.038,0.462733,0.0,0.0
1463,365.5,69.3765,78.2783,138.54,101.556,95.7837,0.00315969,0.413923,20.4697,524.818,0.536978,0.0,0.0
1470,367.25,69.3965,78.6546,140.862,101.55,95.7675,0.00314206,0.414843,20.4679,524.618,0.537936,0.0,0.0
1477,369,69.8581,78.6132,142.479,101.54,96.8744,0.00312449,0.415762,20.4677,524.387,0.431622,0.0,0.0
1484,370.75,69.7124,78.3721,142.409,101.544,97.0985,0.00307981,0.41552,20.468,524.167,0.410753,0.0,0.0
1491,372.5,69.5044,78.7816,139.496,101.514,96.4606,0.00301488,0.415078,20.4681,523.997,0.468516,0.0,0.0
1498,374.25,69.5203,78.6435,142.735,101.524,96.2456,0.00288892,0.415286,20.4691,523.807,0.48996,0.0,0.0
1505,376,69.6855,78.398,149.149,101.517,97.2917,0.0027799,0.414943,20.4698,523.587,0.390092,0.0,0.0
1512,377.75,69.8353,78.6241,137.674,101.502,95.5859,0.00282313,0.414666,20.4701,523.376,0.551062,0.0,0.0
1519,379.5,69.5601,78.3211,138.578,101.48,96.8049,0.00290925,0.414466,20.4702,523.206,0.432766,0.0,0.0
1526,381.25,69.7733,78.1485,140.802,101.481,97.0473,0.00296381,0.413768,20.4715,522.986,0.409931,0.0,0.0
1533,383,69.5065,78.3833,138.453,101.478,96.0093,0.00299925,0.413109,20.4721,522.766,0.508344,0.0,0.0
1540,384.75,69.6377,78.2095,143.702,101.469,96.5098,0.00316877,0.412846,20.4724,522.556,0.459813,0.0,0.0
1547,386.5,69.9472,78.8547,138.327,101.459,96.7451,0.00340377,0.412719,20.4721,522.355,0.436537,0.0,0.0
1554,388.25,69.7217,78.2172,143.369,101.444,96.1746,0.00348818,0.412316,20.4712,522.105,0.489501,0.0,0.0
1561,390,69.0986,78.1971,138.804,101.433,96.203,0.0033854,0.413422,20.4696,521.925,0.485748,0.0,0.0
1568,391.75,69.5281,77.9767,141.521,101.427,96.2096,0.00325147,0.415164,20.4679,521.685,0.484598,0.0,0.0
1575,393.5,69.6597,78.5189,141.844,101.402,96.0758,0.00324353,0.415479,20.4676,521.445,0.495099,0.0,0.0
1582,395.25,69.2036,77.9192,141.999,101.397,95.8968,0.0033277,0.415111,20.4678,521.295,0.511726,0.0,0.0
1589,397,69.7347,78.3431,142.757,101.378,97.0747,0.00349193,0.414868,20.4683,521.114,0.39802,0.0,0.0
1596,398.75,69.4842,78.8113,141.169,101.373,96.6822,0.00350705,0.414812,20.4685,520.864,0.434747,0.0,0.0
1603,400.5,70.0257,78.3876,141.918,101.348,96.52,0.0034426,0.415031,20.4686,520.654,0.447847,0.0,0.0
1610,402.25,69.645,78.7668,139.845,101.33,96.1315,0.00338548,0.414853,20.4687,520.464,0.483281,0.0,0.0
1617,404,69.1507,77.7227,140.174,101.311,95.9297,0.00333411,0.414638,20.4689,520.264,0.50081,0.0,0.0
1624,405.75,69.3434,77.6322,140.716,101.317,96.3729,0.00329812,0.414365,20.4683,520.003,0.459038,0.0,0.0
1631,407.5,69.7141,78.2888,140.544,101.308,95.0885,0.00329899,0.415094,20.4677,519.873,0.581336,0.0,0.0
1638,409.25,69.8233,77.9286,137.275,101.268,96.0119,0.00334334,0.415762,20.4675,519.663,0.489035,0.0,0.0
1645,411,69.9499,78.4014,143.915,101.266,95.2208,0.00341907,0.415812,20.4674,519.423,0.564765,0.0,0.0
1652,412.75,69.4572,78.4045,139.951,101.247,95.7015,0.00344927,0.415648,20.4673,519.193,0.516913,0.0,0.0
1659,414.5,69.3904,78.9463,140.719,101.235,96.2259,0.00341559,0.415897,20.4669,519.012,0.465656,0.0,0.0
1666,416.25,67.6271,78.1356,139.81,101.196,95.8638,0.00333723,0.416311,20.4662,518.802,0.496696,0.0,0.0
1673,418,69.6211,78.5595,143.913,101.206,95.7117,0.00321516,0.416951,20.4651,518.562,0.512204,0.0,0.0
1680,419.75,69.5337,78.1539,141.695,101.171,95.6868,0.00313036,0.417775,20.4649,518.382,0.511409,0.0,0.0
1687,421.5,68.4244,79.0351,140.77,101.163,96.0839,0.0031882,0.418841,20.4631,518.182,0.472665,0.0,0.0
1694,423.25,69.801,78.2143,134.899,101.143,95.3349,0.00328485,0.419669,20.4619,518.012,0.542639,0.0,0.0
1701,425,69.8954,78.294,137.726,101.113,95.9647,0.00334632,0.419567,20.4622,517.751,0.479564,0.0,0.0
1708,426.75,69.7612,77.9311,134.671,101.09,95.2071,0.00341676,0.418479,20.4631,517.531,0.550159,0.0,0.0
1715,428.5,69.6971,78.0181,141.828,101.077,96.0682,0.00353363,0.418312,20.4635,517.361,0.466386,0.0,0.0
1722,430.25,69.8062,78.0465,140.274,101.065,95.3532,0.00369409,0.418565,20.4637,517.181,0.533812,0.0,0.0
1729,432,68.9052,78.1548,143.753,101.034,96.1123,0.00383461,0.417877,20.4638,516.921,0.45828,0.0,0.0
1736,433.75,69.4028,78.661,138.841,101.007,94.909,0.00382905,0.418031,20.4631,516.74,0.571379,0.0,0.0
1743,435.5,70.1388,78.4552,141.586,101.009,96.0976,0.0036315,0.419624,20.4621,516.53,0.457401,0.0,0.0
1750,437.25,70.1252,78.2745,140.332,101.001,94.5728,0.00350855,0.420269,20.4614,516.34,0.603418,0.0,0.0
1757,439,69.8444,78.1858,139.123,100.979,94.516,0.00351757,0.419656,20.4621,516.17,0.606981,0.0,0.0
1764,440.75,70.5682,77.9035,140.655,100.971,95.808,0.00353441,0.418199,20.463,515.96,0.481644,0.0,0.0
1771,442.5,70.14,77.8434,144.677,100.949,95.4201,0.00360575,0.41636,20.4653,515.74,0.516887,0.0,0.0
1778,444.25,69.606,78.3259,140.721,100.949,95.2462,0.00372539,0.415858,20.4662,515.529,0.533628,0.0,0.0
1785,446,67.7233,78.2876,142.675,100.95,94.9115,0.00381645,0.417002,20.4662,515.289,0.566003,0.0,0.0
1792,447.75,70.4952,78.332,141.831,100.93,95.3724,0.00379652,0.417215,20.4659,515.089,0.519711,0.0,0.0
1799,449.5,69.3303,78.3802,140.139,100.923,94.9282,0.00371801,0.416616,20.465,514.899,0.561911,0.0,0.0
1806,451.25,69.8901,78.5791,138.725,100.929,94.878,0.00367249,0.417656,20.4634,514.688,0.567291,0.0,0.0
1813,453,69.7595,78.0453,144.332,100.923,94.4714,0.00369885,0.419297,20.4626,514.538,0.606182,0.0,0.0
1820,454.75,69.7515,78.527,140.054,100.913,94.6712,0.00377459,0.420196,20.4626,514.318,0.585859,0.0,0.0
1827,456.5,70.3332,78.7728,138.889,100.898,94.2832,0.00383443,0.418753,20.4633,514.118,0.622186,0.0,0.0
1834,458.25,69.5403,78.3497,139.99,100.904,94.9384,0.0038338,0.417533,20.4644,513.888,0.559245,0.0,0.0
1841,460,70.1047,78.5458,142.885,100.951,94.3988,0.00381133,0.41627,20.465,513.668,0.615776,0.0,0.0
1848,461.75,69.6198,77.932,143.911,100.98,94.0951,0.00375061,0.415057,20.4653,513.487,0.647971,0.0,0.0
1855,463.5,69.004,77.7725,146.835,100.992,93.7224,0.00363766,0.415201,20.4644,513.307,0.685512,0.0,0.0
1862,465.25,69.7249,78.0957,143.442,101.028,95.0804,0.003571,0.41727,20.4615,513.067,0.556807,0.0,0.0
1869,467,69.5548,78.4243,140.97,101.067,95.0185,0.00355685,0.418902,20.461,512.847,0.566299,0.0,0.0
1876,468.75,69.6684,78.818,142.583,101.115,94.2924,0.0035785,0.419526,20.4609,512.687,0.64107,0.0,0.0
1883,470.5,69.6634,78.0929,145.14,101.144,94.8268,0.00369078,0.419182,20.4618,512.446,0.591786,0.0,0.0
1890,472.25,69.5931,78.5813,139.752,101.183,95.4703,0.00385357,0.418144,20.4625,512.266,0.533242,0.0,0.0
1897,474,69.2868,78.3558,139.857,101.213,94.657,0.00403447,0.416956,20.4628,512.066,0.614519,0.0,0.0
1904,475.75,69.3466,78.1312,139.615,101.263,94.2031,0.00415854,0.416405,20.463,511.876,0.663104,0.0,0.0
1911,477.5,69.9768,78.698,137.207,101.292,94.7163,0.00416733,0.416769,20.462,511.656,0.615942,0.0,0.0
1918,479.25,69.6552,78.1815,145.426,101.31,95.481,0.00415371,0.416785,20.461,511.496,0.543801,0.0,0.0
1925,481,69.1151,78.0053,147.135,101.359,94.3441,0.00416992,0.417165,20.4604,511.265,0.658156,0.0,0.0
1932,482.75,70.2034,78.0696,135.218,101.398,94.5652,0.00417568,0.417918,20.4602,511.065,0.640184,0.0,0.0
1939,484.5,69.7432,78.2959,145.823,101.436,94.4972,0.00414411,0.418245,20.4589,510.835,0.650212,0.0,0.0
1946,486.25,69.6508,78.4543,143.669,101.444,94.8882,0.00416155,0.418352,20.4582,510.665,0.612997,0.0,0.0
1953,488,69.6895,78.3082,143.127,101.464,93.8076,0.00422045,0.418034,20.4579,510.485,0.719921,0.0,0.0
1960,489.75,69.7257,78.0891,138.867,101.504,93.5135,0.00423688,0.417355,20.4593,510.254,0.752387,0.0,0.0
1967,491.5,69.6525,78.2154,142.556,101.544,94.6615,0.00420795,0.417462,20.4599,510.084,0.644036,0.0,0.0
1974,493.25,68.092,79.357,135.067,101.565,94.7259,0.0041601,0.418452,20.4592,509.874,0.639695,0.0,0.0
1981,495,69.4817,78.4128,143.236,101.586,95.0581,0.00414938,0.419946,20.4569,509.654,0.609439,0.0,0.0
1988,496.75,69.8868,78.5465,135.9,101.596,95.196,0.00419019,0.421062,20.4554,509.434,0.597102,0.0,0.0
1995,498.5,69.7366,78.5444,145.985,101.629,94.304,0.0042671,0.421249,20.4546,509.274,0.686387,0.0,0.0
2002,500.25,70.284,78.3717,139.124,101.65,94.697,0.00433568,0.421352,20.4554,509.063,0.650127,0.0,0.0
2009,502,69.7773,78.5558,143.231,101.651,94.8603,0.00441728,0.421507,20.4549,508.903,0.63443,0.0,0.0
2016,503.75,70.036,78.2205,144.596,101.679,93.8238,0.00452022,0.421663,20.4544,508.683,0.737735,0.0,0.0
2023,505.5,70.1415,78.0077,138.343,101.7,94.3167,0.00455479,0.421973,20.4541,508.443,0.691591,0.0,0.0
2030,507.25,70.8858,76.9877,146.68,101.729,95.1448,0.00443987,0.422462,20.4534,508.273,0.613983,0.0,0.0
2037,509,70.0056,78.3383,140.757,101.736,93.4501,0.0042932,0.423612,20.4519,508.052,0.779564,0.0,0.0
2044,510.75,69.6801,78.4483,140.883,101.737,93.8416,0.00418986,0.425168,20.4498,507.872,0.741317,0.0,0.0
2051,512.5,69.7951,78.7305,140.512,101.755,93.7914,0.00408804,0.426411,20.4485,507.632,0.747788,0.0,0.0
2058,514.25,70.1327,77.034,138.343,101.777,94.8775,0.00407437,0.426875,20.4474,507.452,0.644142,0.0,0.0
2065,516,69.7729,78.8271,142.002,101.778,94.1884,0.00420392,0.428098,20.446,507.192,0.711107,0.0,0.0
2072,517.75,69.7948,78.7141,142.153,101.775,95.0652,0.00437948,0.428498,20.4447,507.022,0.625864,0.0,0.0
2079,519.5,69.5318,78.9029,137.956,101.785,94.1357,0.00457945,0.429065,20.4431,506.821,0.716915,0.0,0.0
2086,521.25,69.4475,78.5062,141.709,101.796,93.8654,0.00474749,0.430514,20.4404,506.591,0.744228,0.0,0.0
2093,523,69.8493,79.0223,138.885,101.803,93.9815,0.00471913,0.431803,20.4386,506.391,0.733552,0.0,0.0
2100,524.75,69.7092,78.3411,142.726,101.812,94.8801,0.00451719,0.432903,20.4367,506.221,0.647017,0.0,0.0
2107,526.5,70.4607,78.0556,141.255,101.836,93.087,0.00432687,0.434409,20.4356,506.001,0.824241,0.0,0.0
2114,528.25,70.132,78.9852,139.951,101.82,93.8122,0.00430326,0.435417,20.4341,505.79,0.751626,0.0,0.0
2121,530,70.3883,78.932,141.262,101.834,96.1057,0.00438155,0.435934,20.4345,505.55,0.531287,0.0,0.0
2128,531.75,70.8559,79.1855,142.766,101.83,94.8304,0.00446679,0.435915,20.435,505.4,0.653496,0.0,0.0
2135,533.5,70.1358,79.3411,139.02,101.819,95.2878,0.00452503,0.435088,20.4352,505.15,0.608341,0.0,0.0
2142,535.25,70.6792,79.0058,133.602,101.823,93.5652,0.00453038,0.4346,20.4362,504.98,0.77611,0.0,0.0
2149,537,70.3053,79.3682,139.821,101.831,95.987,0.00447125,0.434378,20.4383,504.739,0.542363,0.0,0.0
2156,538.75,70.4753,79.2991,141.947,101.834,94.6057,0.00439843,0.433322,20.4394,504.569,0.67563,0.0,0.0
2163,540.5,70.817,78.8973,141.764,101.819,93.7503,0.00429482,0.432757,20.4407,504.369,0.757642,0.0,0.0
2170,542.25,70.0397,79.6732,140.587,101.822,93.4222,0.00415508,0.431675,20.4412,504.149,0.79007,0.0,0.0
2177,544,70.5365,79.8223,143.663,101.816,93.9683,0.00404081,0.430609,20.4423,503.909,0.73599,0.0,0.0
2184,545.75,70.5095,79.0767,141.088,101.822,93.1246,0.00389042,0.429429,20.4432,503.739,0.819316,0.0,0.0
2191,547.5,70.7685,78.4792,137.882,101.805,94.6879,0.00377009,0.428493,20.4436,503.528,0.665029,0.0,0.0
2198,549.25,69.7754,79.9179,143.487,101.796,94.2635,0.0037124,0.427741,20.4439,503.308,0.705397,0.0,0.0
2205,551,70.0537,79.4951,136.46,101.782,94.622,0.00374235,0.427444,20.4433,503.138,0.669375,0.0,0.0
2212,552.75,70.7164,79.1633,137.896,101.783,94.2011,0.00383782,0.42732,20.4425,502.918,0.710355,0.0,0.0
2219,554.5,70.1888,80.1714,138.965,101.78,93.8674,0.00392285,0.427468,20.4423,502.768,0.74258,0.0,0.0
2226,556.25,70.3081,79.2259,142.685,101.76,94.9972,0.0039942,0.426654,20.4439,502.547,0.631014,0.0,0.0
2233,558,71.1706,78.4896,139.186,101.762,95.1605,0.00406007,0.425425,20.4452,502.357,0.615442,0.0,0.0
2240,559.75,70.445,78.952,143.911,101.741,94.8867,0.00406379,0.424469,20.4476,502.157,0.639988,0.0,0.0
2247,561.5,69.6711,78.8016,141.325,101.729,95.165,0.00398059,0.422943,20.4508,501.967,0.612064,0.0,0.0
2254,563.25,69.7447,79.3797,138.783,101.718,94.227,0.00384556,0.42081,20.4536,501.817,0.701963,0.0,0.0
2261,565,70.0494,79.2268,140.413,101.706,94.5135,0.0035883,0.419847,20.4562,501.607,0.67299,0.0,0.0
2268,566.75,70.3427,78.6592,143.104,101.686,95.5454,0.00325144,0.418336,20.4579,501.426,0.571525,0.0,0.0
2275,568.5,69.8963,78.9358,141.828,101.699,94.9744,0.00300309,0.416302,20.4611,501.196,0.627716,0.0,0.0
2282,570.25,69.9721,78.8899,144.301,101.688,94.0804,0.00281864,0.413343,20.4636,501.026,0.713494,0.0,0.0
2289,572,69.8919,78.8698,142.992,101.667,94.4688,0.00271117,0.410283,20.4661,500.806,0.67379,0.0,0.0
2296,573.75,69.8014,78.6166,147.615,101.641,94.6747,0.00263795,0.406515,20.4713,500.706,0.65147,0.0,0.0
2303,575.5,70.4171,77.9841,139.583,101.634,94.3355,0.0026116,0.401452,20.4779,500.536,0.683776,0.0,0.0
2310,577.25,69.1972,77.9436,143.295,101.628,95.4947,0.00262247,0.396012,20.4835,500.345,0.571224,0.0,0.0
2317,579,69.4405,77.5079,141.746,101.627,94.9323,0.00252672,0.390761,20.4903,500.195,0.625309,0.0,0.0
2324,580.75,69.4726,77.1763,137.885,101.612,95.7061,0.00237228,0.38426,20.4962,500.025,0.549439,0.0,0.0
2331,582.5,68.7334,77.6429,140.108,101.596,95.4739,0.00229584,0.377219,20.5024,499.885,0.570281,0.0,0.0
2338,584.25,68.8834,76.7926,144.305,101.598,94.9607,0.0023447,0.370456,20.5091,499.725,0.619922,0.0,0.0
2345,586,68.4083,76.7313,142.763,101.585,95.5256,0.00232917,0.361739,20.5195,499.585,0.564306,0.0,0.0
2352,587.75,68.3381,76.4486,144.485,101.564,95.8506,0.0021195,0.353519,20.5321,499.445,0.531312,0.0,0.0
2359,589.5,68.1303,75.5253,146.366,101.554,96.6057,0.0018761,0.343433,20.5443,499.315,0.458419,0.0,0.0
2366,591.25,67.9427,75.1854,149.354,101.549,96.3973,0.00171825,0.333856,20.5552,499.214,0.477751,0.0,0.0
2373,593,68.0831,72.7785,142.792,101.559,97.1878,0.00165445,0.325278,20.5651,499.084,0.403701,0.0,0.0
2380,594.75,67.2017,73.5197,147.499,101.533,98.2912,0.00158513,0.31553,20.5757,498.964,0.297762,0.0,0.0
2387,596.5,67.3019,72.8748,144.402,101.535,98.9022,0.00140076,0.305662,20.5889,498.854,0.241081,0.0,0.0
2394,598.25,66.1579,73.1426,141.505,101.537,98.8388,0.00117536,0.297291,20.6002,498.784,0.24715,0.0,0.0
2401,600,65.7993,72.6641,152.537,101.532,99.4017,0.000931456,0.286566,20.61,498.674,0.194596,0.0,0.0
2408,601.75,65.665,71.8318,148.96,101.527,99.9534,0.00079084,0.277758,20.6218,498.604,0.143323,0.0,0.0
2415,603.5,66.0641,70.494,150.008,101.508,99.8616,0.000792185,0.268368,20.6317,498.514,0.150038,0.0,0.0
2422,605.25,64.8301,70.4978,143.254,101.521,100.774,0.000816959,0.259676,20.64,498.434,0.0678252,0.0,0.0
2429,607,64.1871,69.8526,142.361,101.513,100.808,0.000835952,0.251084,20.6503,498.364,0.0639501,0.0,0.0
2436,608.75,63.9711,69.21,149.988,101.504,101.872,0.00084558,0.241667,20.6617,498.344,-0.0331634,0.0,0.0
2443,610.5,63.5639,68.4467,147.332,101.487,101.155,0.000861947,0.233298,20.6721,498.244,0.0300848,0.0,0.0
2450,612.25,63.1771,68.1132,148.425,101.474,101.209,0.000925369,0.226156,20.6801,498.204,0.0240458,0.0,0.0
2457,614,62.909,67.4244,148.155,101.473,102.16,0.00103937,0.220003,20.686,498.173,-0.0618656,0.0,0.0
2464,615.75,62.0482,67.0093,144.802,101.477,101.733,0.00113719,0.214058,20.6928,498.143,-0.0230622,0.0,0.0
2471,617.5,61.9756,65.9534,149.064,101.463,101.955,0.00129765,0.208037,20.7017,498.073,-0.0443863,0.0,0.0
2478,619.25,61.3778,65.1538,150.756,101.452,102.612,0.00152485,0.202113,20.7093,498.023,-0.104342,0.0,0.0
2485,621,61.0431,64.8209,150.908,101.447,102.399,0.00179084,0.197023,20.7157,497.993,-0.0857244,0.0,0.0
2492,622.75,60.4704,64.3165,149.902,101.425,102.395,0.00195542,0.19311,20.7206,497.983,-0.08742,0.0,0.0
2499,624.5,60.2644,63.986,149.144,101.409,102.313,0.0020467,0.189424,20.7248,497.903,-0.081464,0.0,0.0
2506,626.25,59.9024,63.4746,150.588,101.377,102.278,0.00207982,0.18636,20.7274,497.853,-0.0812433,0.0,0.0
2513,628,59.6635,62.8423,148.398,101.364,102.462,0.0020768,0.183556,20.73,497.833,-0.0989368,0.0,0.0
2520,629.75,59.1893,62.2642,152.557,101.358,102.711,0.00204865,0.181178,20.7318,497.773,-0.121684,0.0,0.0
2527,631.5,58.7074,61.8682,150.779,101.35,102.195,0.00200067,0.179672,20.7336,497.783,-0.0761968,0.0,0.0
2534,633.25,58.5882,61.6169,149.666,101.311,102.31,0.00196605,0.178403,20.7349,497.713,-0.0899974,0.0,0.0
2541,635,58.2391,60.8477,147.54,101.301,102.663,0.00203314,0.176978,20.7371,497.673,-0.122539,0.0,0.0
2548,636.75,57.8986,60.5752,146.447,101.316,102.232,0.00207645,0.175121,20.7385,497.643,-0.0826256,0.0,0.0
2555,638.5,57.3391,59.9547,150.814,101.332,102.533,0.00205852,0.173671,20.7392,497.653,-0.108166,0.0,0.0
2562,640.25,57.2603,59.7892,153.282,101.331,102.059,0.0021357,0.173494,20.7396,497.623,-0.0657485,0.0,0.0
2569,642,57.2472,59.2317,147.687,101.33,102.355,0.00242644,0.1741,20.7397,497.593,-0.0923727,0.0,0.0
2576,643.75,57.0961,59.1763,146.503,101.35,102.196,0.00278174,0.175009,20.739,497.543,-0.0762878,0.0,0.0
2583,645.5,56.628,58.6175,151.217,101.358,102.63,0.00299027,0.175818,20.7382,497.503,-0.114395,0.0,0.0
2590,647.25,56.4732,58.5644,150.805,101.362,102.141,0.00297758,0.1757,20.7379,497.463,-0.0702948,0.0,0.0
2597,649,56.4018,58.4812,149.38,101.358,102.387,0.00282061,0.175103,20.7388,497.453,-0.0926981,0.0,0.0
2604,650.75,56.212,58.5508,152.452,101.366,101.975,0.00270869,0.174032,20.7402,497.423,-0.0548856,0.0,0.0
2611,652.5,55.8983,58.4715,153.059,101.383,102.33,0.00272929,0.172998,20.7429,497.423,-0.0853606,0.0,0.0
2618,654.25,55.6095,57.6927,151.542,101.398,102.235,0.00280587,0.172042,20.7442,497.353,-0.0754732,0.0,0.0
2625,656,55.4979,57.3986,153.235,101.382,102.147,0.00290172,0.171097,20.7455,497.373,-0.0690053,0.0,0.0
2632,657.75,55.5234,57.3446,154.037,101.4,102.061,0.00298156,0.170163,20.7463,497.333,-0.0595797,0.0,0.0
2639,659.5,55.1702,57.4719,148.978,101.406,102.306,0.00291846,0.169591,20.7471,497.293,-0.0810888,0.0,0.0
2646,661.25,55.3486,56.9814,152.146,101.416,101.97,0.00276985,0.168759,20.7482,497.273,-0.0500351,0.0,0.0
2653,663,54.6124,56.8013,155.581,101.429,102.274,0.00264758,0.167964,20.7492,497.233,-0.0760969,0.0,0.0
2660,664.75,54.8503,56.9373,153.924,101.416,102.409,0.00261301,0.167003,20.7504,497.173,-0.0893473,0.0,0.0
2667,666.5,54.8036,56.6785,148.561,101.432,102.421,0.00267781,0.166496,20.751,497.173,-0.0890579,0.0,0.0
2674,668.25,54.748,56.3608,151.056,101.458,102.325,0.00279632,0.166567,20.7516,497.153,-0.0779987,0.0,0.0
2681,670,53.7982,55.9036,148.33,101.457,102.234,0.00281167,0.166444,20.752,497.153,-0.0700044,0.0,0.0
2688,671.75,53.1299,55.4778,150.136,101.449,102.575,0.00269324,0.166084,20.7522,497.123,-0.101255,0.0,0.0
2695,673.5,54.142,55.4159,149.715,101.448,102.536,0.00257781,0.165529,20.7523,497.133,-0.0979096,0.0,0.0
2702,675.25,53.0086,55.5027,149.817,101.461,102.268,0.00258362,0.165221,20.7526,497.082,-0.072643,0.0,0.0
2709,677,52.6098,55.5526,153.357,101.469,102.009,0.00266905,0.16512,20.7532,497.062,-0.0486554,0.0,0.0
2716,678.75,52.6864,55.1293,148.109,101.467,102.29,0.00272523,0.164443,20.7535,497.002,-0.0740401,0.0,0.0
2723,680.5,53.0485,55.5747,149.787,101.461,102.437,0.00279497,0.163789,20.7536,496.942,-0.087827,0.0,0.0
2730,682.25,52.8843,54.9141,150.352,101.477,102.3,0.00288931,0.163764,20.7537,496.932,-0.0740555,0.0,0.0
2737,684,52.7493,55.1669,153.915,101.489,102.255,0.00305836,0.163907,20.7537,496.962,-0.0689253,0.0,0.0
2744,685.75,52.7372,54.779,148.824,101.492,102.014,0.00323136,0.163875,20.7545,496.922,-0.0471077,0.0,0.0
2751,687.5,52.4678,54.8829,149.936,101.493,101.934,0.00333524,0.163896,20.7553,496.862,-0.0397407,0.0,0.0
2758,689.25,52.8744,54.9382,151.908,101.492,102.747,0.00338061,0.163505,20.7555,496.862,-0.112826,0.0,0.0
2765,691,52.5134,54.6305,149.374,101.491,102.153,0.00341532,0.16273,20.7553,496.812,-0.0595879,0.0,0.0
2772,692.75,52.4508,54.8852,151.227,101.516,102.507,0.00344203,0.162394,20.7562,496.762,-0.0890905,0.0,0.0
2779,694.5,51.9439,54.5441,151.556,101.515,102.336,0.00349436,0.162486,20.7569,496.812,-0.0738554,0.0,0.0
2786,696.25,52.35,54.2758,151.321,101.525,101.965,0.0035283,0.16256,20.7572,496.722,-0.0397088,0.0,0.0
2793,698,52.0384,54.2595,151.947,101.518,102.284,0.0035481,0.162563,20.7572,496.702,-0.0689562,0.0,0.0
2800,699.75,51.9207,54.3912,147.997,101.515,102.15,0.00356415,0.162686,20.7566,496.702,-0.0572359,0.0,0.0
2807,701.5,51.729,54.0435,146.55,101.527,102.33,0.00352451,0.162331,20.7568,496.662,-0.0722748,0.0,0.0
2814,703.25,51.9091,54.3886,150.046,101.517,102.596,0.00345675,0.161807,20.7576,496.682,-0.0970843,0.0,0.0
2821,705,51.5795,54.1656,149.794,101.516,102.545,0.00343224,0.161649,20.758,496.582,-0.0924948,0.0,0.0
2828,706.75,51.3163,53.683,153.239,101.522,101.941,0.00350143,0.162008,20.7574,496.602,-0.0377716,0.0,0.0
2835,708.5,51.7114,53.6807,149.437,101.531,102.423,0.00363363,0.163246,20.7552,496.632,-0.080265,0.0,0.0
2842,710.25,51.3738,53.8687,153.223,101.526,102.249,0.00371391,0.165031,20.7532,496.592,-0.065191,0.0,0.0
2849,712,51.6615,54.103,153.205,101.516,102.163,0.00381233,0.167533,20.7507,496.532,-0.0582635,0.0,0.0
2856,713.75,51.4048,53.4614,148.017,101.525,102.163,0.00394929,0.169639,20.7487,496.502,-0.0574885,0.0,0.0
2863,715.5,50.8103,54.262,153.712,101.541,102.69,0.00405617,0.170878,20.7477,496.452,-0.103227,0.0,0.0
2870,717.25,51.0919,53.2921,152.008,101.547,102.166,0.00411529,0.171199,20.748,496.432,-0.0557792,0.0,0.0
2877,719,50.8573,53.4989,154.574,101.547,102.081,0.00416838,0.170446,20.749,496.422,-0.0480962,0.0,0.0
2884,720.75,50.4687,53.3929,151.049,101.54,102.466,0.00427524,0.169184,20.7509,496.412,-0.0832603,0.0,0.0
2891,722.5,51.0968,53.2587,151.971,101.541,102.278,0.00441961,0.167764,20.7534,496.412,-0.0664057,0.0,0.0
2898,724.25,51.0056,53.2872,151.83,101.557,102.336,0.00450445,0.166699,20.7556,496.362,-0.0700556,0.0,0.0
2905,726,51.0823,52.8767,155.995,101.571,102.292,0.00449774,0.16565,20.7567,496.352,-0.0649536,0.0,0.0
2912,727.75,50.8029,52.8012,154.914,101.56,102.181,0.00447094,0.164496,20.758,496.262,-0.0559537,0.0,0.0
2919,729.5,51.1204,53.5449,155.794,101.565,102.037,0.00447357,0.163393,20.7591,496.272,-0.0425289,0.0,0.0
2926,731.25,50.6713,53.0139,153.451,101.571,102.114,0.0044774,0.16245,20.76,496.272,-0.0488902,0.0,0.0
2933,733,50.7175,52.9404,152.017,101.578,102.311,0.00448815,0.161625,20.7612,496.252,-0.0659655,0.0,0.0
2940,734.75,50.0689,52.4936,152.127,101.553,102.211,0.00453625,0.160796,20.7618,496.252,-0.0592736,0.0,0.0
2947,736.5,49.7874,52.7558,147.828,101.575,102.229,0.00462625,0.160143,20.7625,496.212,-0.0588927,0.0,0.0
2954,738.25,50.0227,53.0143,153.568,101.593,102.471,0.00465965,0.160218,20.7628,496.192,-0.0789028,0.0,0.0
2961,740,50.0517,52.7598,150.28,101.599,102.143,0.00466283,0.160822,20.7626,496.142,-0.0490387,0.0,0.0
2968,741.75,50.2319,52.4378,150.878,101.595,102.16,0.00471549,0.161487,20.7618,496.122,-0.0509216,0.0,0.0
2975,743.5,50.0357,52.7099,152.613,101.611,102.399,0.0047682,0.162131,20.7609,496.072,-0.0708146,0.0,0.0
2982,745.25,50.2792,52.4688,149.86,101.615,102.364,0.00484161,0.162259,20.7602,496.072,-0.0674266,0.0,0.0
2989,747,50.1208,52.5971,153.966,101.63,102.48,0.00502503,0.162151,20.7596,496.042,-0.0764526,0.0,0.0
2996,748.75,49.9703,52.5914,147.314,101.643,102.268,0.00523186,0.161827,20.7605,496.022,-0.0563004,0.0,0.0
3003,750.5,50.3566,52.3571,155.112,101.655,102.097,0.00541844,0.161461,20.7609,496.052,-0.0398297,0.0,0.0
3010,752.25,50.2301,52.4065,158.479,101.651,102.174,0.00551643,0.160866,20.761,495.992,-0.0470896,0.0,0.0
3017,754,49.6617,52.2096,153.981,101.67,102.381,0.00553536,0.160435,20.7615,495.971,-0.0639396,0.0,0.0
3024,755.75,49.5384,52.5693,155.299,101.676,102.335,0.00546987,0.15992,20.7622,495.931,-0.0592455,0.0,0.0
3031,757.5,49.7701,51.696,152.817,101.687,102.465,0.00539082,0.159184,20.7634,495.931,-0.0699559,0.0,0.0
3038,759.25,49.5319,52.7474,151.482,101.689,102.07,0.00539599,0.158525,20.7643,495.941,-0.0342898,0.0,0.0
3045,761,49.3745,52.3925,151.681,101.694,102.328,0.00546769,0.158435,20.7638,495.881,-0.0569718,0.0,0.0
3052,762.75,49.3276,52.0193,151.872,101.715,102.556,0.00554922,0.15873,20.7634,495.861,-0.0755146,0.0,0.0
3059,764.5,49.0625,52.2922,154.312,101.727,102.223,0.00564518,0.158803,20.7645,495.891,-0.0446616,0.0,0.0
3066,766.25,49.3572,52.0548,152.381,101.727,102.205,0.00568277,0.158578,20.7652,495.841,-0.0430316,0.0,0.0
3073,768,49.3533,52.0863,156.72,101.744,102.245,0.00568916,0.158358,20.7656,495.821,-0.0450947,0.0,0.0
3080,769.75,49.4456,51.8462,150.813,101.762,102.651,0.00574062,0.158172,20.7653,495.771,-0.0798021,0.0,0.0
3087,771.5,49.1001,52.0241,153.193,101.777,102.296,0.0058081,0.158065,20.7649,495.761,-0.0466338,0.0,0.0
3094,773.25,49.3906,51.5313,154.129,101.777,102.255,0.00589032,0.158014,20.7648,495.751,-0.0429492,0.0,0.0
3101,775,48.6938,51.1738,153.985,101.778,102.682,0.00603853,0.158284,20.7647,495.701,-0.0811174,0.0,0.0
3108,776.75,48.8144,52.3134,152.715,101.797,102.403,0.00616303,0.158764,20.7642,495.741,-0.0544515,0.0,0.0
3115,778.5,48.6586,51.1917,148.596,101.824,102.478,,0.159211,,495.701,-0.0586763,0.0,0.0
3122,780.25,48.9763,51.9788,155.657,101.812,102.53,,0.159505,,495.661,-0.0644667,0.0,0.0
3129,782,48.8652,51.3551,151.244,101.815,102.606,,,,495.631,-0.0710566,0.0,0.0
3136,783.75,48.8508,51.2478,155.727,101.848,102.227,,,,495.621,-0.0340647,0.0,0.0
3143,785.5,48.7506,51.7358,154.697,101.852,102.436,,,,495.581,-0.0523808,0.0,0.0
3150,787.25,48.327,50.9821,150.538,101.864,102.617,,,,495.541,-0.067588,0.0,0.0
3155,788.5,48.5619,51.5977,152.071,101.876,102.427,,,,495.561,-0.0495753,0.0,0.0