File: 01_Data/OSB/Cone/OSB_Cone_HF75Scan_210325_R3.csv
Names,Time,Stack TC,Smoke TC,Exh Press,Smoke Comp,Smoke Meas,CO Meter,CO2 Meter,O2 Meter,Sample Mass,Ext Coeff,Start Test,Flame Verif
Chan Gain,,500,500,1,1,1,1,1,1,1,1,1.0,1.0
Offset,,0,0,0.138348,0,0,0,0,0,0,0,0.0,0.0
Gain,,1,1,25.011,13.5067,16.616,1,1,1,1.00091,1.04608,1.0,1.0
Units,sec,C,C,Pa,%,%,%,%,%,g,/m,,
Baseline,,40.7977,44.1696,157.343,101.592,99.2218,-0.000554827,0.0819311,20.8674,-0.907033,0.216627,,
7,1.5,36.1239,38.6541,156.167,101.594,99.0047,-0.000306307,0.0837886,20.8616,568.027,0.236871,0.0,0.0
14,3.25,36.6928,38.8872,154.127,101.613,99.1416,-0.00031036,0.0845864,20.8607,567.907,0.225902,0.0,0.0
21,5,36.8734,39.3227,156.718,101.62,98.2988,-0.000232511,0.0853279,20.8604,567.827,0.304872,0.0,0.0
28,6.75,37.5225,39.8735,159.061,101.617,97.1802,1.58786e-05,0.0859509,20.8606,567.807,0.409631,0.0,0.0
35,8.5,37.7691,40.0105,157.145,101.625,95.0327,0.00040333,0.0864452,20.8607,567.717,0.615423,0.0,0.0
42,10.25,37.6461,41.0965,154.689,101.618,92.2752,0.000964829,0.0869024,20.8599,567.587,0.885024,0.0,0.0
49,12,37.9366,41.6789,147.119,101.627,94.5165,0.00143278,0.089099,20.836,567.396,0.665551,0.0,1.0
56,13.75,39.9002,44.9368,138.465,101.626,98.4677,0.00187472,0.110817,20.7419,567.066,0.289718,0.0,1.0
63,15.5,42.8825,49.1787,135.507,101.623,97.6401,0.00230644,0.152653,20.6077,566.706,0.366902,0.0,1.0
70,17.25,44.2241,52.5749,134.557,101.639,96.3805,0.0028251,0.215459,20.4968,566.305,0.487461,0.0,1.0
77,19,46.679,57.5976,129.47,101.642,95.8689,0.00342151,0.28364,20.3814,565.875,0.536563,0.0,0.0
84,20.75,50.3774,62.6218,132.477,101.65,94.91,0.00391294,0.354481,20.2678,565.505,0.629587,0.0,0.0
91,22.5,53.5389,66.6318,129.385,101.627,92.8391,0.00433646,0.439483,20.174,565.074,0.829939,0.0,0.0
98,24.25,56.0905,70.7917,130.128,101.626,93.9668,0.00483769,0.513531,20.1121,564.664,0.719035,0.0,0.0
105,26,58.2019,74.0961,128.46,101.629,91.2519,0.00537762,0.571967,20.0721,564.234,0.988281,0.0,0.0
112,27.75,60.2951,77.3495,133.651,101.626,93.2158,0.00593768,0.624369,20.0436,563.793,0.792666,0.0,0.0
119,29.5,61.3034,80.3306,130.159,101.615,91.3893,0.00639729,0.662998,20.026,563.333,0.973208,0.0,0.0
126,31.25,63.3026,82.6782,135.601,101.614,91.5617,0.0067392,0.696409,20.0174,562.952,0.955838,0.0,0.0
133,33,64.7672,84.4042,135.373,101.618,91.3021,0.0069837,0.720928,20.0135,562.562,0.98223,0.0,0.0
140,34.75,66.0434,86.5434,132.307,101.636,91.4745,0.00720178,0.738555,20.0126,562.192,0.966593,0.0,0.0
147,36.5,67.2353,88.0946,128.994,101.616,92.0151,0.00745117,0.750659,20.0124,561.741,0.910742,0.0,0.0
154,38.25,68.51,89.2711,132.616,101.608,91.3275,0.00758322,0.75935,20.0133,561.361,0.978788,0.0,0.0
161,40,69.5223,90.716,131.643,101.63,91.327,0.00753398,0.765088,20.0159,560.941,0.980886,0.0,0.0
168,41.75,70.4027,91.7868,129.762,101.623,90.0603,0.00743557,0.768601,20.0188,560.53,1.10838,0.0,0.0
175,43.5,71.0534,92.6542,135.918,101.621,90.6272,0.007424,0.770387,20.0241,560.1,1.05065,0.0,0.0
182,45.25,71.8105,93.4801,131.083,101.614,90.9893,0.00744159,0.769934,20.0315,559.77,1.01343,0.0,0.0
189,47,72.3851,94.148,129.299,101.601,92.2777,0.00741866,0.768016,20.037,559.329,0.883245,0.0,0.0
196,48.75,72.9857,95.0573,127.754,101.608,90.5689,0.00739189,0.766228,20.0393,558.909,1.05533,0.0,0.0
203,50.5,73.372,95.3449,129.229,101.599,92.4943,0.00739021,0.765388,20.0364,558.528,0.861479,0.0,0.0
210,52.25,74.2699,96.405,132.443,101.593,93.4389,0.00743457,0.76615,20.0309,558.068,0.767751,0.0,0.0
217,54,74.9603,97.2756,126.19,101.578,92.9582,0.00764,0.768189,20.0296,557.698,0.813702,0.0,0.0
224,55.75,75.1217,97.5661,132.839,101.584,92.1875,0.00780475,0.769338,20.0313,557.297,0.890624,0.0,0.0
231,57.5,75.3941,98.1776,127.474,101.591,91.9405,0.00786167,0.769236,20.0342,556.907,0.915908,0.0,0.0
238,59.25,76.0072,98.7145,130.382,101.58,92.2605,0.00782699,0.767778,20.0403,556.557,0.883061,0.0,0.0
245,61,76.622,98.5215,131.094,101.563,91.8315,0.00771315,0.764051,20.0527,556.146,0.924263,0.0,0.0
252,62.75,76.8666,98.6998,136.932,101.563,91.0942,0.00754799,0.758938,20.0627,555.796,0.998234,0.0,0.0
259,64.5,76.9378,98.6754,126.232,101.559,92.5156,0.0074375,0.753081,20.0679,555.376,0.855755,0.0,0.0
266,66.25,77.6761,99.2467,135.219,101.554,92.6484,0.00736414,0.748854,20.0718,555.035,0.842177,0.0,0.0
273,68,76.9904,98.7931,128.863,101.556,92.7508,0.00727237,0.744715,20.0761,554.625,0.832187,0.0,0.0
280,69.75,77.5953,98.7435,133.068,101.541,92.156,0.0071867,0.739737,20.0875,554.275,0.889919,0.0,0.0
287,71.5,77.6566,98.649,134.748,101.547,91.938,0.0070652,0.73298,20.0989,553.954,0.912177,0.0,0.0
294,73.25,77.7432,98.2831,129.64,101.554,92.5186,0.00691611,0.726055,20.1074,553.574,0.855006,0.0,0.0
301,75,77.7853,98.1573,132.487,101.55,91.3853,0.00674798,0.719071,20.1163,553.204,0.967806,0.0,0.0
308,76.75,77.7865,97.899,130.749,101.546,92.4649,0.00664945,0.712378,20.1249,552.813,0.859631,0.0,0.0
315,78.5,77.7669,97.978,133.593,101.541,91.2955,0.00662277,0.705503,20.1313,552.443,0.976003,0.0,0.0
322,80.25,77.7237,97.1358,133.551,101.552,91.9152,0.0066414,0.699721,20.136,552.163,0.914864,0.0,0.0
329,82,77.9571,97.5472,125.61,101.558,92.0627,0.00668219,0.69442,20.1423,551.782,0.900704,0.0,0.0
336,83.75,77.9852,97.3629,137.949,101.547,91.2357,0.00687638,0.688223,20.1518,551.472,0.982541,0.0,0.0
343,85.5,77.9852,97.276,129.243,101.54,91.0511,0.00712954,0.681625,20.1633,551.122,1.00053,0.0,0.0
350,87.25,77.9565,96.5647,130.501,101.552,90.1252,0.00734305,0.67475,20.1722,550.811,1.09533,0.0,0.0
357,89,78.1233,96.8957,133.924,101.562,91.4619,0.00739154,0.667826,20.179,550.431,0.961201,0.0,0.0
364,90.75,77.7031,96.4753,130.513,101.543,91.6408,0.00743899,0.661698,20.1856,550.101,0.941474,0.0,0.0
371,92.5,78.037,95.7718,133.508,101.54,91.5521,0.00745874,0.65499,20.1923,549.75,0.950139,0.0,0.0
378,94.25,77.8692,95.624,136.525,101.552,89.6972,0.00736579,0.648491,20.1988,549.47,1.139,0.0,0.0
385,96,77.4752,95.0546,135.342,101.569,89.9918,0.00716518,0.642218,20.2038,549.13,1.11052,0.0,0.0
392,97.75,77.6643,94.7537,131.514,101.551,90.4477,0.00706752,0.63681,20.2095,548.83,1.06251,0.0,0.0
399,99.5,77.6186,95.2882,134.189,101.54,91.4928,0.00707669,0.630994,20.2159,548.489,0.956125,0.0,0.0
406,101.25,77.3044,94.0835,134.357,101.542,92.8203,0.00711021,0.62553,20.2228,548.169,0.824088,0.0,0.0
413,103,77.1006,93.3418,133.861,101.547,91.3052,0.00700176,0.620298,20.2287,547.819,0.975594,0.0,0.0
420,104.75,76.8666,93.9487,138.191,101.553,91.5567,0.00679233,0.614629,20.2337,547.538,0.950874,0.0,0.0
427,106.5,76.9032,93.3275,134.941,101.54,91.7225,0.00667732,0.609252,20.238,547.218,0.933077,0.0,0.0
434,108.25,76.6819,93.3791,135.825,101.531,90.8741,0.00674231,0.604437,20.2424,546.958,1.01756,0.0,0.0
441,110,76.9805,92.6075,130.909,101.543,90.4223,0.00682672,0.600094,20.2465,546.618,1.06434,0.0,0.0
448,111.75,76.9212,92.6656,137.592,101.549,92.9283,0.00686633,0.595859,20.2538,546.367,0.814012,0.0,0.0
455,113.5,76.7803,92.2713,139.771,101.551,91.3843,0.00681199,0.591513,20.2601,546.027,0.967945,0.0,0.0
462,115.25,76.6786,92.1339,135.893,101.544,90.6475,0.00672125,0.586849,20.2672,545.717,1.04163,0.0,0.0
469,117,76.288,92.3422,135.773,101.542,92.1849,0.00656755,0.582428,20.272,545.416,0.887116,0.0,0.0
476,118.75,76.7573,92.0393,132.136,101.549,92.5881,0.00643891,0.578702,20.2753,545.136,0.847672,0.0,0.0
483,120.5,76.537,91.8285,138.28,101.556,92.6454,0.006415,0.575242,20.2781,544.826,0.842628,0.0,0.0
490,122.25,76.6537,91.575,131.123,101.543,91.1115,0.00648269,0.572276,20.2806,544.546,0.994709,0.0,0.0
497,124,76.2146,91.4023,133.827,101.568,92.0901,0.00661227,0.568947,20.2864,544.215,0.898868,0.0,0.0
504,125.75,76.6456,90.9933,133.778,101.564,91.582,0.00662741,0.564917,20.2947,543.965,0.949263,0.0,0.0
511,127.5,76.2172,90.7034,141.845,101.57,92.2524,0.00657284,0.560304,20.3002,543.675,0.882899,0.0,0.0
518,129.25,76.005,90.5349,131.887,101.575,91.7813,0.00656721,0.555872,20.3033,543.375,0.930324,0.0,0.0
525,131,76.1567,90.3886,142.754,101.579,92.2458,0.0065966,0.552258,20.3045,543.064,0.884412,0.0,0.0
532,132.75,76.0898,90.1936,132.392,101.588,90.7362,0.00655061,0.549785,20.3049,542.794,1.0366,0.0,0.0
539,134.5,76.214,90.0652,136.554,101.606,92.8964,0.00634282,0.547663,20.3061,542.524,0.822343,0.0,0.0
546,136.25,76.0529,89.6994,139.294,101.624,92.3259,0.0062322,0.546131,20.3076,542.254,0.880467,0.0,0.0
553,138,75.9352,89.4463,134.564,101.624,91.5977,0.00619106,0.544171,20.3111,541.923,0.953162,0.0,0.0
560,139.75,76.0698,89.4004,139.671,101.635,93.0378,0.00612969,0.541581,20.318,541.643,0.811022,0.0,0.0
567,141.5,75.7357,88.8158,146.472,101.652,91.8021,0.0060548,0.537915,20.3224,541.353,0.935207,0.0,0.0
574,143.25,75.4923,89.0597,137.064,101.677,91.3969,0.00598604,0.534804,20.3247,541.103,0.9781,0.0,0.0
581,145,75.4891,88.864,139.681,101.688,92.0739,0.0059753,0.532533,20.3258,540.792,0.911353,0.0,0.0
588,146.75,75.804,88.5506,136.812,101.7,92.1692,0.00598057,0.530708,20.3265,540.552,0.902935,0.0,0.0
595,148.5,75.824,88.766,135.002,101.706,92.5247,0.00592199,0.52879,20.3287,540.202,0.868172,0.0,0.0
602,150.25,76.0589,88.8721,139.533,101.729,92.3077,0.00583734,0.527261,20.3311,539.992,0.891804,0.0,0.0
609,152,75.3982,88.1484,145.273,101.742,93.624,0.00574506,0.525828,20.3337,539.691,0.763023,0.0,0.0
616,153.75,75.7603,87.8413,139.124,101.74,92.7554,0.00561103,0.524409,20.3361,539.411,0.848368,0.0,0.0
623,155.5,75.2559,88.1337,136.628,101.759,93.2082,0.00542919,0.522434,20.3373,539.161,0.805391,0.0,0.0
630,157.25,75.4364,88.0618,137.321,101.773,93.4435,0.00524226,0.520623,20.3386,538.861,0.783557,0.0,0.0
637,159,75.3162,87.4803,142.718,101.792,92.5495,0.00510013,0.518925,20.3421,538.58,0.873441,0.0,0.0
644,160.75,74.9903,86.8616,134.222,101.819,92.1738,0.00498558,0.51611,20.3472,538.33,0.913224,0.0,0.0
651,162.5,75.1564,87.4083,135.246,101.82,92.5602,0.00489873,0.513065,20.3513,538.05,0.874912,0.0,0.0
658,164.25,75.4603,87.0443,130.203,101.833,91.7554,0.00484464,0.510389,20.3532,537.81,0.95619,0.0,0.0
665,166,75.061,87.2481,140.767,101.865,92.8391,0.004861,0.507878,20.3557,537.519,0.851389,0.0,0.0
672,167.75,74.9415,87.19,136.573,101.857,93.1251,0.00490625,0.505769,20.3582,537.299,0.822386,0.0,0.0
679,169.5,75.2622,87.1118,135.96,101.858,93.6195,0.00490325,0.503279,20.362,537.029,0.773911,0.0,0.0
686,171.25,75.0125,86.6855,133.935,101.876,94.4288,0.00488617,0.500633,20.3644,536.759,0.696561,0.0,0.0
693,173,75.0091,86.5426,139.011,101.885,93.9836,0.00491731,0.49812,20.3666,536.508,0.740707,0.0,0.0
700,174.75,74.5096,86.2539,139.091,101.918,94.3973,0.00496339,0.49561,20.3674,536.208,0.703366,0.0,0.0
707,176.5,74.8612,86.2476,138.101,101.914,93.9983,0.0049526,0.493328,20.3686,535.988,0.741944,0.0,0.0
714,178.25,74.6768,86.455,135.996,101.913,93.6753,0.00483599,0.491883,20.3695,535.728,0.773456,0.0,0.0
721,180,74.7775,86.4531,132.537,101.925,95.45,0.00471677,0.490692,20.3711,535.427,0.602233,0.0,0.0
728,181.75,75.0556,86.363,136.173,101.937,94.085,0.00461631,0.489444,20.3737,535.137,0.735487,0.0,0.0
735,183.5,74.8559,86.4053,142.292,101.947,94.4323,0.00454403,0.488107,20.3759,534.907,0.702637,0.0,0.0
742,185.25,74.6997,86.2738,138.334,101.952,94.9698,0.0045202,0.486525,20.3792,534.647,0.651,0.0,0.0
749,187,74.7553,85.8244,136.005,101.961,94.0069,0.00445252,0.484474,20.3824,534.346,0.745332,0.0,0.0
756,188.75,74.9868,86.4776,134.947,101.989,95.3998,0.00435078,0.482582,20.3851,534.176,0.612885,0.0,0.0
763,190.5,74.6354,85.7073,136.952,101.997,94.5028,0.00427902,0.480486,20.3877,533.886,0.700241,0.0,0.0
770,192.25,74.713,85.7983,136.748,101.998,94.1899,0.00424115,0.478851,20.389,533.636,0.730745,0.0,0.0
777,194,74.68,86.0118,138.508,102.014,94.8441,0.00425968,0.477455,20.3898,533.335,0.668684,0.0,0.0
784,195.75,74.4138,85.669,136.558,102.015,94.2944,0.00419939,0.476085,20.3903,533.105,0.722169,0.0,0.0
791,197.5,74.5529,85.7172,141.859,102.037,94.517,0.00406008,0.474829,20.3918,532.855,0.702459,0.0,0.0
798,199.25,74.5759,85.7255,142.717,102.035,95.0094,0.00390122,0.473763,20.393,532.665,0.654634,0.0,0.0
805,201,74.7097,85.3061,135.261,102.028,94.3339,0.00382768,0.472447,20.3956,532.375,0.719507,0.0,0.0
812,202.75,74.3301,85.3767,135.135,102.046,93.7224,0.00382848,0.470775,20.3968,532.164,0.780743,0.0,0.0
819,204.5,74.0256,85.6415,134.723,102.06,94.7122,0.00383141,0.469434,20.4001,531.894,0.685601,0.0,0.0
826,206.25,74.3815,85.1654,135.666,102.07,95.9074,0.00381896,0.46846,20.4017,531.664,0.571458,0.0,0.0
833,208,74.3092,84.914,140.81,102.064,95.3942,0.00382963,0.46761,20.4025,531.364,0.620094,0.0,0.0
840,209.75,74.5852,84.9613,137.334,102.07,95.7279,0.00382528,0.466633,20.4043,531.143,0.588611,0.0,0.0
847,211.5,74.1726,84.8447,141.978,102.083,95.3745,0.00379809,0.464753,20.4081,530.913,0.623776,0.0,0.0
854,213.25,74.2354,84.7241,141.957,102.08,94.4886,0.00374919,0.462793,20.4104,530.623,0.70907,0.0,0.0
861,215,74.0134,84.5224,138.019,102.089,95.4693,0.003707,0.461125,20.4127,530.383,0.615213,0.0,0.0
868,216.75,74.1701,84.4855,134.854,102.082,95.4663,0.00368743,0.459967,20.4138,530.153,0.614838,0.0,0.0
875,218.5,73.6801,84.5587,133.523,102.095,95.6331,0.00370111,0.458787,20.4143,529.922,0.599965,0.0,0.0
882,220.25,73.8315,83.9368,139.55,102.107,94.9881,0.00378116,0.457862,20.4136,529.692,0.663138,0.0,0.0
889,222,73.9426,84.4633,143.539,102.107,96.0058,0.00389625,0.457461,20.4122,529.422,0.565385,0.0,0.0
896,223.75,74.627,84.1444,137.167,102.094,95.1828,0.00399671,0.457511,20.4111,529.162,0.643198,0.0,0.0
903,225.5,74.1075,84.1528,137.727,102.102,96.4145,0.00401261,0.457609,20.4106,528.942,0.525923,0.0,0.0
910,227.25,74.0526,84.1288,133.519,102.119,95.4252,0.00391034,0.457315,20.4123,528.731,0.622084,0.0,0.0
917,229,74.0112,84.303,141.645,102.143,95.0961,0.00378237,0.456661,20.4149,528.431,0.65597,0.0,0.0
924,230.75,73.701,84.2876,137.908,102.111,96.0058,0.00374749,0.455555,20.4165,528.191,0.565719,0.0,0.0
931,232.5,74.4306,84.1006,136.959,102.115,94.3786,0.00373912,0.454766,20.4175,527.971,0.722949,0.0,0.0
938,234.25,73.9529,83.9116,141.16,102.124,95.7893,0.0037441,0.454383,20.418,527.75,0.587584,0.0,0.0
945,236,73.9986,84.0777,141.093,102.124,95.1894,0.00375411,0.453869,20.4182,527.47,0.64523,0.0,0.0
952,237.75,73.9289,84.093,136.66,102.125,95.7517,0.00373163,0.453255,20.4189,527.28,0.591327,0.0,0.0
959,239.5,74.1298,83.4723,139.591,102.129,94.6712,0.00370452,0.452288,20.4199,527.08,0.695842,0.0,0.0
966,241.25,73.6456,84.3334,142.591,102.127,95.5058,0.00372508,0.451453,20.4203,526.79,0.615039,0.0,0.0
973,243,73.8763,83.8085,138.785,102.146,95.8506,0.00379195,0.450906,20.4205,526.549,0.583746,0.0,0.0
980,244.75,73.8301,83.8577,138.882,102.161,95.4916,0.00383435,0.450553,20.4206,526.329,0.619513,0.0,0.0
987,246.5,73.7096,83.8589,137.082,102.142,96.199,0.00380475,0.450129,20.4207,526.089,0.550086,0.0,0.0
994,248.25,73.7363,83.5613,143.107,102.143,96.6067,0.00375873,0.449804,20.4207,525.839,0.511317,0.0,0.0
1001,250,73.8723,83.5315,143.394,102.147,96.88,0.00371266,0.449559,20.4209,525.598,0.4858,0.0,0.0
1008,251.75,73.6702,83.8561,139.304,102.153,95.6493,0.00375407,0.449106,20.4219,525.338,0.603594,0.0,0.0
1015,253.5,73.8432,83.4232,135.009,102.163,95.7882,0.00384777,0.448089,20.4247,525.138,0.5912,0.0,0.0
1022,255.25,73.7305,83.5775,133.796,102.151,96.4049,0.00389181,0.447047,20.4266,524.928,0.531283,0.0,0.0
1029,257,73.8802,83.7434,137.679,102.16,95.8927,0.00388714,0.446199,20.4264,524.678,0.580902,0.0,0.0
1036,258.75,73.6217,83.5184,138.779,102.168,95.5357,0.0038527,0.445679,20.4254,524.487,0.615867,0.0,0.0
1043,260.5,73.7149,83.0703,141.235,102.163,96.2527,0.00378727,0.445453,20.4245,524.247,0.546812,0.0,0.0
1050,262.25,73.5019,83.1991,138.7,102.165,96.2451,0.00372653,0.445384,20.4241,524.007,0.547722,0.0,0.0
1057,264,73.6442,83.1463,136.84,102.163,95.1985,0.00371448,0.445476,20.4239,523.767,0.647905,0.0,0.0
1064,265.75,73.699,82.9341,139.515,102.165,95.9013,0.00376238,0.445577,20.4247,523.527,0.580595,0.0,0.0
1071,267.5,73.5102,83.3951,141.006,102.178,95.842,0.00379512,0.445285,20.4264,523.316,0.587384,0.0,0.0
1078,269.25,73.3271,83.2105,139.402,102.167,95.7299,0.00379622,0.444767,20.4269,523.086,0.597157,0.0,0.0
1085,271,73.4078,82.565,137.04,102.161,95.7026,0.0037635,0.444117,20.4272,522.856,0.599264,0.0,0.0
1092,272.75,73.5305,82.3518,134.148,102.163,95.052,0.00371186,0.443303,20.428,522.576,0.662004,0.0,0.0
1099,274.5,73.3855,82.5646,148.722,102.183,95.6453,0.00363931,0.442907,20.4286,522.426,0.606722,0.0,0.0
1106,276.25,73.8424,82.3821,142.035,102.184,95.124,0.00358493,0.443156,20.4286,522.165,0.65698,0.0,0.0
1113,278,73.7698,82.5706,138.546,102.17,96.1772,0.00349374,0.443231,20.4286,521.975,0.554683,0.0,0.0
1120,279.75,73.5128,83.2261,139.402,102.164,94.2264,0.00341883,0.443103,20.429,521.695,0.742121,0.0,0.0
1127,281.5,73.4305,82.5437,139.422,102.179,94.8309,0.00345745,0.442989,20.4292,521.505,0.684816,0.0,0.0
1134,283.25,73.5671,82.3194,140.317,102.184,95.5591,0.00354718,0.442998,20.4298,521.245,0.615107,0.0,0.0
1141,285,73.4416,82.9186,141.205,102.179,95.736,0.00368778,0.442892,20.4298,521.014,0.597648,0.0,0.0
1148,286.75,73.352,82.5312,140,102.165,95.9363,0.00382065,0.442832,20.429,520.754,0.577211,0.0,0.0
1155,288.5,73.046,82.4011,139.703,102.18,95.5281,0.00392968,0.443123,20.4276,520.544,0.617708,0.0,0.0
1162,290.25,73.425,82.8844,137.367,102.181,96.5118,0.00400579,0.443792,20.4255,520.294,0.523735,0.0,0.0
1169,292,73.3049,82.7554,133.771,102.186,94.2934,0.00405399,0.444579,20.4237,520.103,0.737604,0.0,0.0
1176,293.75,73.3876,83.0774,141.083,102.18,95.3907,0.00407542,0.445334,20.4218,519.873,0.630917,0.0,0.0
1183,295.5,73.4604,82.7379,139.079,102.182,96.1833,0.00407618,0.44603,20.4209,519.623,0.555139,0.0,0.0
1190,297.25,73.6006,83.1378,135.727,102.185,95.9267,0.00404885,0.446688,20.4202,519.413,0.579946,0.0,0.0
1197,299,73.3629,83.079,131.427,102.184,95.1625,0.00398906,0.447183,20.4199,519.213,0.653264,0.0,0.0
1204,300.75,73.28,83.5625,142.228,102.181,95.3669,0.00388376,0.447457,20.4197,518.992,0.633285,0.0,0.0
1211,302.5,73.6189,83.1195,139.421,102.177,94.8973,0.00373533,0.447693,20.4196,518.792,0.678243,0.0,0.0
1218,304.25,73.7686,82.8922,138.12,102.178,95.9277,0.0037179,0.447848,20.4196,518.532,0.579183,0.0,0.0
1225,306,73.7798,82.9093,141.186,102.181,94.9044,0.00382454,0.447789,20.42,518.252,0.67789,0.0,0.0
1232,307.75,73.3292,82.6727,136.047,102.186,94.6372,0.00385674,0.447734,20.4209,518.052,0.704208,0.0,0.0
1239,309.5,73.4697,82.9849,136.421,102.174,95.2589,0.00381771,0.44768,20.4202,517.791,0.643054,0.0,0.0
1246,311.25,73.5104,83.0154,137.884,102.178,94.6914,0.00386473,0.447595,20.4198,517.571,0.698209,0.0,0.0
1253,313,73.541,82.578,142.061,102.2,95.9536,0.00408207,0.447467,20.4197,517.331,0.578671,0.0,0.0
1260,314.75,73.5775,82.657,143.097,102.183,96.1513,0.00432417,0.447467,20.4196,517.151,0.558262,0.0,0.0
1267,316.5,73.704,82.5943,138.683,102.169,95.2781,0.004531,0.447175,20.4204,516.861,0.640716,0.0,0.0
1274,318.25,73.6293,82.4271,136.394,102.166,94.6052,0.00466487,0.446799,20.4211,516.67,0.705529,0.0,0.0
1281,320,73.5808,82.694,142.223,102.174,95.8562,0.00470066,0.446508,20.4225,516.45,0.585692,0.0,0.0
1288,321.75,73.4364,82.7066,135.079,102.177,94.5576,0.00465887,0.446442,20.4227,516.18,0.711154,0.0,0.0
1295,323.5,73.584,82.7573,138.683,102.172,95.4551,0.00462795,0.446735,20.4223,516,0.624021,0.0,0.0
1302,325.25,73.622,82.4814,137.527,102.154,94.4911,0.00463842,0.447161,20.422,515.84,0.715491,0.0,0.0
1309,327,73.3799,82.5239,140.5,102.154,94.4643,0.00459729,0.447492,20.4219,515.549,0.718139,0.0,0.0
1316,328.75,73.3314,82.7394,136.049,102.155,95.3131,0.00435404,0.447573,20.4219,515.359,0.636162,0.0,0.0
1323,330.5,73.5947,82.6375,132.419,102.144,95.3851,0.00411589,0.447793,20.4219,515.099,0.628233,0.0,0.0
1330,332.25,73.2653,82.6791,137.549,102.132,95.1214,0.00404393,0.447957,20.4209,514.899,0.652524,0.0,0.0
1337,334,73.2912,82.4439,136.26,102.116,94.2447,0.00406681,0.448193,20.4202,514.659,0.736049,0.0,0.0
1344,335.75,73.6969,82.7882,142.209,102.136,95.3187,0.004049,0.44844,20.4198,514.418,0.633922,0.0,0.0
1351,337.5,73.5498,82.4738,141.373,102.126,94.6423,0.0040232,0.448292,20.4213,514.238,0.698348,0.0,0.0
1358,339.25,73.5438,82.861,138.246,102.111,94.2853,0.00410573,0.447458,20.4237,513.938,0.731655,0.0,0.0
1365,341,73.4839,82.4431,142.561,102.105,95.1164,0.00422318,0.446582,20.4252,513.748,0.650568,0.0,0.0
1372,342.75,73.8876,82.5711,139.079,102.102,95.4571,0.00427305,0.445855,20.4264,513.517,0.61753,0.0,0.0
1379,344.5,73.5364,82.4647,141.195,102.11,95.054,0.00424554,0.445196,20.4274,513.337,0.657068,0.0,0.0
1386,346.25,73.519,82.5706,141.744,102.091,94.6524,0.00419225,0.444764,20.4279,513.107,0.69418,0.0,0.0
1393,348,73.7697,82.5823,137.713,102.086,94.4501,0.00415848,0.444572,20.427,512.907,0.71337,0.0,0.0
1400,349.75,73.5955,82.5151,142.461,102.08,93.5875,0.00418018,0.44434,20.4267,512.657,0.796998,0.0,0.0
1407,351.5,73.1326,82.3997,134.715,102.096,94.2609,0.00422354,0.443916,20.4276,512.446,0.73269,0.0,0.0
1414,353.25,73.2548,82.5234,143.32,102.089,94.6701,0.0042263,0.443511,20.4284,512.186,0.692347,0.0,0.0
1421,355,73.4544,82.1099,139.411,102.057,93.7838,0.0041939,0.443223,20.4288,512.036,0.775776,0.0,0.0
1428,356.75,73.4844,82.6445,137.578,102.048,94.5195,0.00423103,0.442971,20.4291,511.806,0.703251,0.0,0.0
1435,358.5,73.1708,82.2765,141.793,102.06,94.5028,0.00433293,0.442663,20.4292,511.586,0.70595,0.0,0.0
1442,360.25,73.2092,82.199,139.718,102.07,94.2863,0.00436669,0.442114,20.4292,511.345,0.727851,0.0,0.0
1449,362,73.4734,82.4854,136.551,102.046,95.5712,0.0042341,0.441679,20.4302,511.155,0.601493,0.0,0.0
1456,363.75,73.3648,82.1948,138.418,102.031,94.3684,0.00407566,0.441105,20.4309,510.985,0.716413,0.0,0.0
1463,365.5,73.1967,82.3215,140.716,102.026,93.8695,0.00397801,0.44063,20.4314,510.705,0.764615,0.0,0.0
1470,367.25,73.3115,82.2427,137.498,102.032,93.3776,0.00392368,0.440226,20.4317,510.515,0.813342,0.0,0.0
1477,369,73.3307,82.1519,140.516,102.02,95.0591,0.00396948,0.439734,20.4319,510.305,0.648465,0.0,0.0
1484,370.75,73.3067,82.1396,141.602,102.012,94.3923,0.00412959,0.439395,20.4322,510.064,0.712317,0.0,0.0
1491,372.5,73.2105,81.9172,139.381,102.019,95.2807,0.00423454,0.438867,20.4333,509.874,0.627061,0.0,0.0
1498,374.25,72.7761,81.8641,139.322,102.011,92.7524,0.00427626,0.438075,20.4338,509.624,0.873062,0.0,0.0
1505,376,73.1163,81.6983,137.76,102.019,94.8238,0.0043176,0.437426,20.4341,509.414,0.67113,0.0,0.0
1512,377.75,72.6701,81.8607,137.673,101.998,93.5125,0.00429024,0.437085,20.4342,509.224,0.797056,0.0,0.0
1519,379.5,72.676,81.9312,138.31,101.998,94.1793,0.00418729,0.43697,20.4345,509.033,0.731856,0.0,0.0
1526,381.25,73.2551,81.9398,138.154,102.01,94.0728,0.00404319,0.436635,20.4356,508.813,0.743276,0.0,0.0
1533,383,72.9955,81.7359,141.838,102.021,94.0201,0.0038607,0.435916,20.4371,508.603,0.74946,0.0,0.0
1540,384.75,72.7046,81.8219,140.326,102.006,94.6696,0.00374097,0.435107,20.4381,508.413,0.684873,0.0,0.0
1547,386.5,72.8075,81.7635,139.923,101.994,95.6158,0.00373105,0.4344,20.4375,508.143,0.592539,0.0,0.0
1554,388.25,72.9749,81.7988,139.403,101.986,94.049,0.003739,0.434161,20.4372,507.982,0.743451,0.0,0.0
1561,390,72.9931,81.4738,135.854,101.998,93.6321,0.00370054,0.434026,20.4376,507.722,0.785321,0.0,0.0
1568,391.75,72.4975,82.0314,144.159,101.993,94.0693,0.00361631,0.433618,20.4377,507.502,0.742102,0.0,0.0
1575,393.5,73.0704,81.8372,139.955,101.974,94.8223,0.00355418,0.433293,20.4378,507.332,0.667198,0.0,0.0
1582,395.25,73.2091,81.6268,133.503,101.964,94.1377,0.00364157,0.432996,20.4379,507.112,0.732793,0.0,0.0
1589,397,72.8279,81.8792,139.767,101.982,93.869,0.0037841,0.433194,20.4379,506.901,0.760659,0.0,0.0
1596,398.75,72.7222,81.068,142.161,101.963,93.6119,0.00386601,0.433344,20.4379,506.701,0.784156,0.0,0.0
1603,400.5,72.8101,81.593,143.525,101.971,95.5443,0.00386546,0.433358,20.4379,506.501,0.597325,0.0,0.0
1610,402.25,73.1763,81.305,141.644,101.939,94.2483,0.00385425,0.433338,20.4379,506.261,0.719761,0.0,0.0
1617,404,72.4199,81.0898,143.712,101.934,93.8715,0.00385714,0.43355,20.4364,506.021,0.756109,0.0,0.0
1624,405.75,72.7083,81.1259,138.942,101.941,94.8294,0.00391901,0.434095,20.4348,505.83,0.663543,0.0,0.0
1631,407.5,72.9375,81.2524,140.075,101.941,93.9116,0.00398803,0.434599,20.434,505.6,0.752824,0.0,0.0
1638,409.25,73.0445,81.4593,132.565,101.925,93.3502,0.00398059,0.435419,20.4312,505.42,0.80639,0.0,0.0
1645,411,72.9366,81.6667,141.455,101.924,93.263,0.00390944,0.436783,20.4279,505.2,0.814893,0.0,0.0
1652,412.75,73.2189,81.7657,141.999,101.922,94.3345,0.003768,0.438319,20.4265,504.96,0.709888,0.0,0.0
1659,414.5,73.0886,81.6897,142.334,101.916,94.0282,0.00366921,0.439814,20.4259,504.759,0.739135,0.0,0.0
1666,416.25,73.0025,81.9409,137.086,101.892,93.3132,0.00367971,0.441336,20.4256,504.519,0.807023,0.0,0.0
1673,418,73.0884,81.6924,133.759,101.881,92.6915,0.00375515,0.442097,20.4246,504.289,0.867397,0.0,0.0
1680,419.75,73.0288,81.7296,139.267,101.888,94.2021,0.00380308,0.442945,20.4225,504.099,0.719654,0.0,0.0
1687,421.5,73.3432,82.0279,139.589,101.869,94.0267,0.00384424,0.443938,20.4192,503.889,0.735089,0.0,0.0
1694,423.25,72.8571,81.816,136.811,101.858,92.8857,0.00396912,0.445269,20.4169,503.658,0.846149,0.0,0.0
1701,425,73.1177,82.0605,139.129,101.829,93.1514,0.00410614,0.447153,20.4141,503.458,0.817337,0.0,0.0
1708,426.75,73.1546,82.0725,139.254,101.821,93.8066,0.00414889,0.448974,20.4119,503.248,0.752283,0.0,0.0
1715,428.5,73.5619,82.3508,139.465,101.819,92.62,0.00407983,0.450673,20.4104,503.028,0.868908,0.0,0.0
1722,430.25,73.4976,82.4846,140.043,101.816,92.3609,0.00398559,0.452273,20.409,502.768,0.894355,0.0,0.0
1729,432,73.848,82.7427,137.978,101.781,92.6733,0.00403873,0.453769,20.4074,502.598,0.860178,0.0,0.0
1736,433.75,73.4864,82.6157,137.136,101.763,92.5876,0.00415551,0.455155,20.4058,502.367,0.867106,0.0,0.0
1743,435.5,73.9156,82.756,137.566,101.775,93.4222,0.00424834,0.456587,20.4054,502.127,0.785798,0.0,0.0
1750,437.25,73.6198,82.9003,135.057,101.771,92.3274,0.00431386,0.457917,20.404,501.877,0.893629,0.0,0.0
1757,439,73.6568,83.1764,139.716,101.749,92.9035,0.00440716,0.459497,20.4014,501.607,0.83455,0.0,0.0
1764,440.75,74.1441,83.2077,136.816,101.717,92.7823,0.00453718,0.461385,20.3986,501.426,0.843664,0.0,0.0
1771,442.5,73.8866,83.2024,138.926,101.721,92.1748,0.00469799,0.462979,20.3961,501.136,0.904239,0.0,0.0
1778,444.25,74.2473,83.1114,139.14,101.709,92.7316,0.00487187,0.464551,20.3936,500.966,0.847975,0.0,0.0
1785,446,74.1137,83.8199,139.007,101.689,91.2519,0.00495298,0.466297,20.3922,500.736,0.993713,0.0,0.0
1792,447.75,74.7122,83.4782,136.495,101.667,92.0318,0.00495093,0.46741,20.3899,500.536,0.913651,0.0,0.0
1799,449.5,74.2421,83.3058,142.247,101.642,91.8553,0.00495696,0.468722,20.3882,500.265,0.928993,0.0,0.0
1806,451.25,74.3973,83.6958,136.773,101.641,91.833,0.00509032,0.470362,20.3856,500.065,0.931147,0.0,0.0
1813,453,74.3309,83.8964,141.837,101.627,92.1966,0.00530805,0.472002,20.383,499.835,0.893587,0.0,0.0
1820,454.75,74.5249,84.0744,137.33,101.611,91.9106,0.00554342,0.473621,20.3805,499.625,0.920681,0.0,0.0
1827,456.5,74.8441,84.2119,138.581,101.588,90.7555,0.00567952,0.475001,20.3778,499.345,1.03469,0.0,0.0
1834,458.25,74.7418,84.042,133.427,101.566,92.473,0.00573318,0.476536,20.3754,499.104,0.860613,0.0,0.0
1841,460,74.7249,84.4594,133.034,101.554,91.6388,0.00574317,0.478056,20.3749,498.844,0.942681,0.0,0.0
1848,461.75,74.9718,84.504,135.205,101.521,91.3904,0.00575249,0.480058,20.3737,498.604,0.964653,0.0,0.0
1855,463.5,74.9801,84.9497,138.823,101.5,91.0582,0.00576004,0.481992,20.3714,498.414,0.996124,0.0,0.0
1862,465.25,74.9742,84.4624,138.057,101.463,90.8204,0.00582186,0.48339,20.37,498.143,1.01684,0.0,0.0
1869,467,75.1518,84.7883,137.823,101.432,89.7195,0.00588726,0.484437,20.3685,497.933,1.12595,0.0,0.0
1876,468.75,75.1373,85.1452,138.272,101.417,90.4401,0.00588501,0.485744,20.3677,497.703,1.05117,0.0,0.0
1883,470.5,75.393,85.5039,136.163,101.376,90.8371,0.00588017,0.487249,20.3655,497.463,1.00721,0.0,0.0
1890,472.25,75.5749,85.2544,141.429,101.346,91.1277,0.00595901,0.488542,20.363,497.193,0.975253,0.0,0.0
1897,474,75.4358,85.6407,138.307,101.329,91.2971,0.00608965,0.490013,20.3616,496.932,0.956685,0.0,0.0
1904,475.75,75.5107,85.6672,136.792,101.3,90.8823,0.00627041,0.491359,20.3609,496.702,0.995781,0.0,0.0
1911,477.5,75.6895,86.0033,138.607,101.284,90.359,0.00650134,0.492379,20.3606,496.502,1.04739,0.0,0.0
1918,479.25,75.7624,85.9793,139.329,101.253,92.4927,0.0066287,0.492946,20.3604,496.262,0.830379,0.0,0.0
1925,481,75.6245,86.2392,135.824,101.23,89.1303,0.00656046,0.49301,20.3604,495.981,1.16812,0.0,0.0
1932,482.75,75.6398,86.1341,138.871,101.215,90.325,0.0063148,0.493151,20.3599,495.811,1.04453,0.0,0.0
1939,484.5,75.7311,86.0875,137.539,101.192,90.3437,0.00611656,0.493605,20.3576,495.521,1.04053,0.0,0.0
1946,486.25,76.1081,86.0157,140.952,101.172,90.3351,0.00612749,0.494488,20.3551,495.271,1.03961,0.0,0.0
1953,488,76.1676,86.1531,138.692,101.128,91.8619,0.00623048,0.495466,20.354,494.971,0.881812,0.0,0.0
1960,489.75,76.2957,86.4355,136.673,101.113,90.652,0.00623241,0.496064,20.3542,494.78,1.00216,0.0,0.0
1967,491.5,76.1777,85.8695,138.588,101.104,90.252,0.0061331,0.496387,20.3543,494.55,1.04189,0.0,0.0
1974,493.25,76.0185,86.456,136.524,101.074,90.7773,0.00599062,0.496465,20.3544,494.35,0.985938,0.0,0.0
1981,495,76.3275,86.3146,135.876,101.075,90.6551,0.0059337,0.496009,20.3556,494.07,0.998375,0.0,0.0
1988,496.75,75.9547,86.1146,137.525,101.047,89.5481,0.00599945,0.495047,20.3579,493.86,1.10853,0.0,0.0
1995,498.5,75.9256,86.2484,138.794,101.044,90.2915,0.00602581,0.493602,20.3605,493.639,1.03244,0.0,0.0
2002,500.25,75.9677,86.1409,139.168,101.024,89.9264,0.00588141,0.491793,20.3622,493.419,1.06783,0.0,0.0
2009,502,76.3585,85.9302,139.736,100.983,90.0932,0.0056247,0.49008,20.3636,493.149,1.04704,0.0,0.0
2016,503.75,76.1111,85.9556,136.716,100.979,89.9857,0.00537894,0.488104,20.3659,492.989,1.05762,0.0,0.0
2023,505.5,75.9371,85.7021,138.813,100.962,89.2545,0.00521877,0.486001,20.3706,492.769,1.13099,0.0,0.0
2030,507.25,75.6037,85.6414,134.555,100.957,91.8685,0.00511089,0.483805,20.3737,492.538,0.865619,0.0,0.0
2037,509,75.9594,85.381,135.883,100.935,90.3635,0.00502447,0.480776,20.3789,492.338,1.01517,0.0,0.0
2044,510.75,75.6706,85.362,139.06,100.919,90.2464,0.00481105,0.47748,20.3844,492.098,1.02568,0.0,0.0
2051,512.5,75.2698,84.9197,140.356,100.895,91.6312,0.00451184,0.473114,20.3901,491.918,0.883732,0.0,0.0
2058,514.25,75.3748,84.7944,141.092,100.876,90.5638,0.00421268,0.468781,20.3955,491.738,0.989526,0.0,0.0
2065,516,75.051,84.2912,143.052,100.862,91.3011,0.00397597,0.463402,20.4057,491.547,0.913812,0.0,0.0
2072,517.75,74.7671,83.9939,142.189,100.846,92.2549,0.00373586,0.45722,20.4164,491.367,0.81706,0.0,0.0
2079,519.5,74.8275,83.9443,137.472,100.823,91.1535,0.00336494,0.450403,20.4266,491.177,0.925129,0.0,0.0
2086,521.25,74.4089,83.6868,138.372,100.798,91.9811,0.00300479,0.441697,20.437,491.047,0.839909,0.0,0.0
2093,523,74.4506,83.0639,141.562,100.779,91.8594,0.00277151,0.432611,20.4498,490.837,0.85037,0.0,0.0
2100,524.75,73.7037,82.3093,144.596,100.752,91.5704,0.00259694,0.422142,20.467,490.717,0.87681,0.0,0.0
2107,526.5,73.416,81.2133,141.007,100.733,92.5161,0.00245773,0.410829,20.4821,490.557,0.780802,0.0,0.0
2114,528.25,73.1526,81.0319,140.845,100.706,92.9603,0.00231402,0.39948,20.4925,490.426,0.734409,0.0,0.0
2121,530,72.4053,80.5031,142.818,100.71,93.6367,0.00220038,0.388244,20.506,490.296,0.668255,0.0,0.0
2128,531.75,72.1225,79.4327,140.26,100.674,94.6686,0.00207453,0.376819,20.5217,490.166,0.564341,0.0,0.0
2135,533.5,71.5897,79.183,144.092,100.65,94.6169,0.00194422,0.36301,20.5421,490.076,0.567176,0.0,0.0
2142,535.25,71.3938,78.122,138.823,100.627,95.2259,0.0018353,0.350413,20.5564,490.016,0.506199,0.0,0.0
2149,537,70.491,77.5714,145.129,100.619,95.0312,0.00174907,0.337709,20.572,489.906,0.524305,0.0,0.0
2156,538.75,69.9451,76.822,141.847,100.59,96.525,0.00167132,0.325479,20.5884,489.836,0.378513,0.0,0.0
2163,540.5,69.37,75.7427,145.738,100.568,97.2192,0.00160818,0.31204,20.6049,489.786,0.3108,0.0,0.0
2170,542.25,69.1108,74.6874,144.814,100.546,98.3551,0.0016025,0.299355,20.6183,489.746,0.202181,0.0,0.0
2177,544,68.4925,73.7543,147.258,100.537,97.8728,0.00172582,0.287927,20.6303,489.666,0.246417,0.0,0.0
2184,545.75,67.776,72.9327,147.566,100.531,98.636,0.00189221,0.276182,20.6429,489.616,0.174617,0.0,0.0
2191,547.5,67.6686,72.1214,142.407,100.493,99.0868,0.00197284,0.264568,20.6542,489.546,0.129352,0.0,0.0
2198,549.25,66.8884,71.5795,146.735,100.503,99.6258,0.00205939,0.254254,20.6658,489.506,0.0804348,0.0,0.0
2205,551,66.1114,70.5289,147.976,100.476,99.9483,0.00219164,0.246018,20.6757,489.476,0.0483324,0.0,0.0
2212,552.75,65.5923,69.7858,147.338,100.463,99.5665,0.00233623,0.236917,20.6837,489.466,0.0822878,0.0,0.0
2219,554.5,65.1432,69.2785,152.66,100.453,99.4636,0.00237318,0.229765,20.6912,489.405,0.0908006,0.0,0.0
2226,556.25,64.838,68.2766,150.277,100.429,99.0711,0.00233694,0.2223,20.6986,489.396,0.124896,0.0,0.0
2233,558,64.3049,67.694,148.409,100.43,99.2622,0.00232502,0.215858,20.7046,489.355,0.107283,0.0,0.0
2240,559.75,64.1818,67.1644,145.745,100.422,98.8302,0.00238855,0.210074,20.7088,489.295,0.14663,0.0,0.0
2247,561.5,63.4998,66.1996,151.431,100.422,99.1897,0.00243611,0.204976,20.7116,489.265,0.113272,0.0,0.0
2254,563.25,63.0558,65.8045,153.12,100.415,99.1411,0.00242575,0.200953,20.7144,489.205,0.117136,0.0,0.0
2261,565,62.4101,65.4619,145.111,100.406,99.0041,0.00245086,0.197301,20.7173,489.215,0.128989,0.0,0.0
2268,566.75,62.4464,64.6668,147.38,100.418,99.029,0.00253492,0.194249,20.7197,489.165,0.127779,0.0,0.0
2275,568.5,61.7144,64.6142,147.482,100.403,99.0123,0.00259361,0.191381,20.7225,489.075,0.128011,0.0,0.0
2282,570.25,61.7189,64.1398,152.095,100.409,99.4331,0.00263211,0.189101,20.7246,489.065,0.0895777,0.0,0.0
2289,572,61.2098,63.4298,146.289,100.409,99.1857,0.0026582,0.186911,20.726,489.015,0.112443,0.0,0.0
2296,573.75,60.7589,63.4761,148.351,100.402,99.3576,0.00271235,0.184987,20.7277,488.985,0.0959504,0.0,0.0
2303,575.5,60.857,62.8773,147.455,100.414,99.4418,0.00279964,0.183158,20.7287,488.975,0.0893091,0.0,0.0
2310,577.25,60.3929,62.812,145.836,100.414,99.4118,0.00287164,0.181712,20.7298,488.925,0.0920331,0.0,0.0
2317,579,60.2236,62.6635,149.844,100.421,99.354,0.00285451,0.180325,20.731,488.895,0.0980113,0.0,0.0
2324,580.75,59.9558,61.8122,154.202,100.425,98.9438,0.00284079,0.179009,20.7323,488.895,0.136391,0.0,0.0
2331,582.5,59.9533,62.2258,151.375,100.432,99.0072,0.00286535,0.17781,20.7346,488.855,0.131081,0.0,0.0
2338,584.25,59.4675,61.3508,150.081,100.439,99.244,0.00287061,0.17667,20.7356,488.815,0.109874,0.0,0.0
2345,586,59.1968,61.2038,146.747,100.447,99.1274,0.002896,0.175484,20.7362,488.805,0.12138,0.0,0.0
2352,587.75,58.8058,61.0191,150.866,100.448,99.242,0.0029903,0.174515,20.7364,488.745,0.110815,0.0,0.0
2359,589.5,58.7104,60.6782,153.931,100.461,99.2151,0.00308881,0.17383,20.7365,488.745,0.114543,0.0,0.0
2366,591.25,58.3644,60.0647,150.281,100.479,99.3784,0.00319668,0.173267,20.7366,488.685,0.10111,0.0,0.0
2373,593,58.0975,60.0894,149.86,100.486,99.1446,0.00333074,0.172767,20.7368,488.665,0.123323,0.0,0.0
2380,594.75,58.096,59.9334,150.566,100.496,99.2257,0.00344338,0.17239,20.7379,488.645,0.116683,0.0,0.0
2387,596.5,57.9783,59.8923,149.764,100.496,98.885,0.00349431,0.171889,20.7385,488.595,0.148287,0.0,0.0
2394,598.25,58.0112,59.5234,146.354,100.533,99.4286,0.0034548,0.171383,20.7392,488.575,0.10133,0.0,0.0
2401,600,57.5197,59.5681,150.164,100.551,99.2247,0.00337391,0.170894,20.7398,488.545,0.121818,0.0,0.0
2408,601.75,57.6339,59.2671,147.384,100.539,100.163,0.00330002,0.170434,20.7403,488.495,0.0343817,0.0,0.0
2415,603.5,57.3391,59.3052,150.133,100.571,99.1689,0.00332463,0.169836,20.7414,488.465,0.128821,0.0,0.0
2422,605.25,57.6864,58.8793,150.705,100.58,99.6045,0.00347033,0.169262,20.7419,488.445,0.0893935,0.0,0.0
2429,607,56.7976,58.8821,146.632,100.6,99.3241,0.00365701,0.168962,20.7421,488.405,0.117107,0.0,0.0
2436,608.75,56.6544,58.6669,150.901,100.611,99.4605,0.00372459,0.168642,20.7422,488.375,0.105566,0.0,0.0
2443,610.5,56.2027,58.6073,147.767,100.616,99.3921,0.00365075,0.16829,20.7423,488.345,0.112298,0.0,0.0
2450,612.25,56.6313,58.4891,146.221,100.627,98.9058,0.00360192,0.168049,20.7423,488.355,0.158318,0.0,0.0
2457,614,56.0828,58.0178,151.847,100.672,98.8819,0.00359884,0.167768,20.7423,488.304,0.164588,0.0,0.0
2464,615.75,56.0463,57.8856,148.487,100.685,99.2541,0.00357236,0.167546,20.7435,488.264,0.131316,0.0,0.0
2471,617.5,56.2069,58.4304,149.612,100.681,99.2161,0.00355162,0.167225,20.7441,488.234,0.134532,0.0,0.0
2478,619.25,55.8508,57.8449,147.978,100.711,99.2506,0.00358029,0.166792,20.7444,488.254,0.134048,0.0,0.0
2485,621,55.7618,57.9269,152.81,100.713,99.1918,0.00367291,0.166419,20.7445,488.224,0.139675,0.0,0.0
2492,622.75,55.6402,57.4401,147.764,100.737,99.529,0.00380068,0.166281,20.7447,488.164,0.110711,0.0,0.0
2499,624.5,55.7128,57.2489,149.647,100.738,99.2237,0.00396464,0.166183,20.746,488.164,0.138973,0.0,0.0
2506,626.25,55.3664,57.4495,150.62,100.746,99.3966,0.00412048,0.165911,20.7468,488.134,0.123748,0.0,0.0
2513,628,55.356,57.271,151.838,100.76,99.3327,0.00428585,0.165665,20.7472,488.124,0.130886,0.0,0.0
2520,629.75,55.2677,57.1151,155.046,100.787,99.277,0.0044583,0.165319,20.7485,488.114,0.138481,0.0,0.0
2527,631.5,55.3142,57.474,147.928,100.796,99.2333,0.00454409,0.165228,20.7492,488.064,0.143338,0.0,0.0
2534,633.25,54.931,57.0381,147.696,100.792,99.0158,0.00453376,0.164862,20.7496,488.044,0.163137,0.0,0.0
2541,635,55.0805,57.0386,148.748,100.809,99.2262,0.00444451,0.164624,20.7498,488.024,0.145233,0.0,0.0
2548,636.75,55.0972,56.5424,149.902,100.819,99.3054,0.00433814,0.164622,20.7498,488.034,0.138782,0.0,0.0
2555,638.5,54.7867,56.7702,151.394,100.836,99.0143,0.0042769,0.164372,20.7499,488.024,0.167293,0.0,0.0
2562,640.25,54.2795,56.5583,149.183,100.828,99.317,0.00430214,0.164043,20.7499,487.954,0.13853,0.0,0.0
2569,642,54.8195,56.5847,152.027,100.839,99.5513,0.00437917,0.16377,20.7499,487.954,0.117924,0.0,0.0
2576,643.75,54.4736,56.425,149.905,100.85,99.4702,0.00450579,0.163617,20.7505,487.934,0.126455,0.0,0.0
2583,645.5,54.1613,56.2354,151.804,100.864,99.1127,0.00465037,0.163566,20.7514,487.904,0.160693,0.0,0.0
2590,647.25,54.121,56.3618,149.264,100.873,99.3302,0.00467633,0.163398,20.7522,487.844,0.141438,0.0,0.0
2597,649,54.0766,56.0992,145.561,100.881,99.4869,0.00458593,0.163281,20.7525,487.824,0.12765,0.0,0.0
2604,650.75,54.0866,56.0369,151.582,100.891,99.1755,0.00456419,0.163255,20.7525,487.804,0.157386,0.0,0.0
2611,652.5,54.2143,55.7782,152.704,100.915,99.2338,0.00469443,0.163311,20.7515,487.804,0.15413,0.0,0.0
2618,654.25,53.6331,56.1016,149.507,100.939,99.3951,0.00489959,0.163356,20.751,487.754,0.141479,0.0,0.0
2625,656,53.5395,55.7854,152.471,100.928,99.282,0.00511336,0.163441,20.7508,487.734,0.150838,0.0,0.0
2632,657.75,53.8335,55.8697,152.441,100.947,99.1512,0.00522395,0.163591,20.7507,487.714,0.164697,0.0,0.0
2639,659.5,53.539,55.8853,150.892,100.96,99.1294,0.00529649,0.163735,20.7506,487.664,0.167877,0.0,0.0
2646,661.25,53.4637,55.7672,150.131,100.992,99.6598,0.00534429,0.163722,20.7506,487.634,0.12187,0.0,0.0
2653,663,53.5312,55.6134,153.124,101.007,99.7648,0.0054739,0.163788,20.7506,487.654,0.113596,0.0,0.0
2660,664.75,53.2164,55.9582,149.548,101.011,99.4874,0.00568903,0.163833,20.7506,487.594,0.13948,0.0,0.0
2667,666.5,53.4268,55.81,149.2,101.043,99.7729,0.0059115,0.16378,20.7506,487.584,0.116068,0.0,0.0
2674,668.25,53.2077,55.8022,147.133,101.059,100.094,0.00607484,0.163793,20.7506,487.564,0.0880459,0.0,0.0
2681,670,52.9483,55.5594,151.662,101.074,98.9981,0.00612885,0.16378,20.7506,487.584,0.190452,0.0,0.0
2688,671.75,52.9027,55.6688,153.327,101.068,99.5807,0.00607711,0.163696,20.7508,487.524,0.136044,0.0,0.0
2695,673.5,52.2776,54.6402,153.94,101.094,99.5807,0.00598736,0.163592,20.7519,487.494,0.138364,0.0,0.0
2702,675.25,53.0335,55.8598,154.783,101.108,99.8642,0.00593514,0.163484,20.7524,487.494,0.113629,0.0,0.0
2709,677,52.9315,55.0248,157.463,101.122,99.7688,0.00600311,0.163219,20.7535,487.454,0.123626,0.0,0.0
2716,678.75,52.6395,55.4988,154.025,101.133,99.8033,0.0061817,0.162891,20.7542,487.444,0.121466,0.0,0.0
2723,680.5,52.9487,55.5318,150.304,101.158,100.128,0.00633534,0.162405,20.7543,487.434,0.0938729,0.0,0.0
2730,682.25,52.9639,55.4186,152.177,101.158,99.7014,0.00643919,0.161986,20.7546,487.354,0.133123,0.0,0.0
2737,684,52.5045,54.982,153.845,101.179,99.6253,0.00653141,0.161627,20.7557,487.354,0.141957,0.0,0.0
2744,685.75,52.6613,54.1469,151.649,101.195,99.5564,0.00663099,0.161316,20.7562,487.374,0.149844,0.0,0.0
2751,687.5,52.3517,54.8456,148.474,101.205,100.092,0.00678451,0.161125,20.756,487.324,0.101445,0.0,0.0
2758,689.25,51.6679,54.7296,154.632,101.217,99.567,0.00688807,0.161065,20.7552,487.314,0.150806,0.0,0.0
2765,691,52.2104,54.6308,151.783,101.232,99.4352,0.0069144,0.161083,20.7552,487.274,0.164347,0.0,0.0
2772,692.75,51.445,54.3699,152.607,101.258,99.6491,0.00690795,0.161065,20.7549,487.284,0.146937,0.0,0.0
2779,694.5,51.4962,53.8557,153.338,101.251,99.5579,0.0069003,0.160818,20.7555,487.244,0.154786,0.0,0.0
2786,696.25,52.1392,54.7206,148.601,101.262,99.5204,0.00686922,0.160609,20.7559,487.193,0.159215,0.0,0.0
2793,698,51.737,54.7632,148.432,101.283,99.7541,0.00685376,0.160575,20.7561,487.183,0.139592,0.0,0.0
2800,699.75,51.7851,54.1162,153.142,101.293,99.8109,0.0069465,0.160518,20.7549,487.203,0.135266,0.0,0.0
2807,701.5,51.3615,54.4977,150.223,101.297,99.3429,0.0070722,0.160565,20.7544,487.193,0.178769,0.0,0.0
2814,703.25,51.5636,54.1504,150.743,101.298,99.7531,0.00718995,0.160632,20.7546,487.163,0.140993,0.0,0.0
2821,705,51.9341,54.3211,154.445,101.301,99.17,0.00725883,0.160383,20.7557,487.113,0.195128,0.0,0.0
2828,706.75,50.3744,53.0395,154.449,101.323,99.1629,0.00728245,0.16014,20.7572,487.053,0.197764,0.0,0.0
2835,708.5,49.8573,52.9528,155.722,101.332,99.3048,0.00731618,0.159854,20.7579,487.063,0.185456,0.0,0.0
2842,710.25,50.4843,52.8525,153.435,101.325,99.7698,0.00739797,0.159521,20.7582,487.043,0.141917,0.0,0.0
2849,712,49.9983,52.6006,149.913,101.328,99.8205,0.00756928,0.159413,20.7588,486.983,0.137554,0.0,0.0
2856,713.75,50.2331,52.7995,152.099,101.352,99.5812,0.00767602,0.159348,20.7591,486.983,0.161746,0.0,0.0
2863,715.5,49.172,52.5539,154.609,101.358,99.4357,0.00767565,0.159236,20.7591,486.973,0.17569,0.0,0.0
2870,717.25,50.0375,52.8434,154.216,101.35,99.534,0.00762867,0.159168,20.7585,486.933,0.165906,0.0,0.0
2877,719,50.1903,52.8528,153.153,101.352,99.4757,0.00761137,0.159098,20.7582,486.913,0.171433,0.0,0.0
2884,720.75,49.6204,52.5053,149.245,101.367,99.5173,0.00763792,0.158899,20.7578,486.873,0.168979,0.0,0.0
2891,722.5,49.358,52.3926,152.859,101.392,100.139,0.00770102,0.158858,20.7585,486.873,0.114027,0.0,0.0
2898,724.25,49.9136,51.8706,149.009,101.371,99.317,0.00774057,0.1588,20.759,486.863,0.18784,0.0,0.0
2905,726,49.1581,52.1813,151.88,101.366,99.5406,0.00777382,0.158681,20.7592,486.863,0.166754,0.0,0.0
2912,727.75,49.6215,52.4519,154.717,101.38,99.53,0.00781984,0.158581,20.7593,486.823,0.168967,0.0,0.0
2919,729.5,49.6504,52.7066,153.743,101.383,99.5138,0.00789907,0.158504,20.7593,486.803,0.170799,0.0,0.0
2926,731.25,49.3258,52.4594,149.672,101.402,99.492,0.00801925,0.1584,20.7594,486.803,0.174489,0.0,0.0
2933,733,49.3221,52.1648,151.239,101.373,99.5356,0.00807684,0.158269,20.7594,486.743,0.167857,0.0,0.0
2940,734.75,49.4218,51.8478,155.213,101.392,99.6578,0.00815189,0.158109,20.7594,486.723,0.158313,0.0,0.0
2947,736.5,49.847,51.9828,156.805,101.406,99.2338,0.00820482,0.157896,20.7603,486.693,0.198735,0.0,0.0
2954,738.25,49.6144,52.0046,162.053,101.419,99.6436,0.00821391,0.157801,20.761,486.693,0.162082,0.0,0.0
2961,740,49.2883,52.1369,153.346,101.411,99.8368,0.00814639,0.157593,20.761,486.653,0.143524,0.0,0.0
2968,741.75,49.1896,52.006,151.491,101.427,99.5411,0.00808211,0.157403,20.7606,486.623,0.172227,0.0,0.0
2975,743.5,49.0493,51.8113,146.832,101.411,99.7572,0.00814176,0.157233,20.7604,486.603,0.150844,0.0,0.0
2982,745.25,49.3339,51.7054,154.174,101.437,99.5964,0.0083256,0.157007,20.7603,486.613,0.168066,0.0,0.0
2989,747,49.1969,51.7931,154.206,101.437,99.8672,0.00847373,0.156891,20.7603,486.603,0.143115,0.0,0.0
2996,748.75,48.6358,51.5979,150.22,101.435,99.4975,0.008564,0.156751,20.7603,486.593,0.17692,0.0,0.0
3003,750.5,48.9799,51.0978,151.126,101.445,99.7267,0.00862597,0.156689,20.7602,486.563,0.156739,0.0,0.0
3010,752.25,48.8886,51.7927,153.984,101.455,99.2541,0.00862901,0.156664,20.7602,486.523,0.201259,0.0,0.0
3017,754,48.2853,51.563,149.666,101.458,99.5584,0.00861061,0.156519,20.7602,486.523,0.173436,0.0,0.0
3024,755.75,48.6519,51.6007,156.758,101.466,99.3368,0.00865256,0.156484,20.7602,486.513,0.194627,0.0,0.0
3031,757.5,48.4588,51.7346,150.614,101.475,99.6451,0.0087267,0.156434,20.7602,486.433,0.167011,0.0,0.0
3038,759.25,48.5839,51.9746,153.057,101.477,100.069,0.00876238,0.156206,20.7602,486.443,0.12817,0.0,0.0
3045,761,48.5791,51.3257,153.039,101.492,100.488,0.00885386,0.156064,20.7602,486.423,0.0912577,0.0,0.0
3052,762.75,48.691,51.2645,154.949,101.493,99.7582,0.00900882,0.156045,20.7606,486.423,0.158208,0.0,0.0
3059,764.5,48.8427,51.209,154.895,101.489,99.8763,0.00913423,0.156045,20.7613,486.393,0.146936,0.0,0.0
3066,766.25,48.2244,51.118,150.71,101.504,99.7394,0.0091565,0.155845,20.7628,486.383,0.160903,0.0,0.0
3073,768,48.4613,50.8918,153.55,101.501,99.5219,0.00915807,0.155557,20.7635,486.383,0.180715,0.0,0.0
3080,769.75,48.0722,51.1227,154.554,101.524,99.6005,0.00916655,0.155406,20.7639,486.333,0.175481,0.0,0.0
3087,771.5,48.2917,50.86,150.266,101.535,99.5133,0.00921489,0.155231,20.7647,486.313,0.184527,0.0,0.0
3094,773.25,48.0676,50.9201,152.376,101.526,99.712,0.00927182,0.155178,20.7645,486.313,0.165434,0.0,0.0
3101,775,48.4031,51.0022,153.614,101.531,99.712,0.00935416,0.155166,20.7643,486.283,0.165881,0.0,0.0
3108,776.75,47.9402,51.2555,151.271,101.541,99.5594,0.00944124,0.155262,20.7643,486.273,0.180833,0.0,0.0
3115,778.5,47.9744,51.0089,152.653,101.563,99.8981,0.00950957,0.155341,20.7643,486.233,0.151677,0.0,0.0
3122,780.25,47.849,51.1601,153.098,101.547,99.7404,0.00959504,0.155412,20.7642,486.223,0.164757,0.0,0.0
3129,782,47.7833,50.8655,148.111,101.555,100.078,0.00969575,0.155528,20.7642,486.203,0.134411,0.0,0.0
3136,783.75,47.2478,50.5174,154.285,101.559,99.5452,0.00977282,0.155642,20.7642,486.193,0.183817,0.0,0.0
3143,785.5,47.364,50.8196,151.821,101.58,99.4108,0.00980867,0.155608,20.7642,486.153,0.198074,0.0,0.0
3150,787.25,47.6622,50.5406,149.856,101.583,99.5335,0.00980414,0.155617,20.7639,486.143,0.187051,0.0,0.0
3157,789,47.2493,50.3592,150.889,101.574,99.3621,0.00980234,0.155426,20.7637,486.122,0.20201,0.0,0.0
3164,790.75,47.8694,50.3201,148.512,101.571,99.9945,0.00981642,0.155284,20.7636,486.042,0.143501,0.0,0.0
3171,792.5,47.0518,49.9004,155.051,101.58,99.6497,0.00985768,0.155166,20.7636,486.042,0.176054,0.0,0.0
3178,794.25,47.4622,50.344,154.04,101.592,99.8555,0.00994191,0.155004,20.7636,486.042,0.158159,0.0,0.0
3185,796,47.3497,50.8866,152.004,101.601,99.675,0.0100193,0.154748,20.7644,485.972,0.175581,0.0,0.0
3192,797.75,47.2697,50.4077,154.919,101.594,99.7536,0.010087,0.154438,20.7652,485.992,0.167754,0.0,0.0
3199,799.5,47.3662,49.6003,155.111,101.593,99.6355,0.0100918,0.154228,20.7656,485.932,0.178553,0.0,0.0
3206,801.25,47.0521,49.735,150.262,101.604,99.9544,0.0101167,0.154229,20.7657,485.902,0.150231,0.0,0.0
3213,803,47.0067,50.441,149.969,101.605,99.5498,0.0102068,0.154235,20.7658,485.912,0.187529,0.0,0.0
3220,804.75,46.8602,50.3081,150.75,101.587,99.171,0.0102777,0.154187,20.7659,485.912,0.220873,0.0,0.0
3227,806.5,47.0473,50.511,152.655,101.619,99.7714,0.010318,0.154164,20.7659,485.862,0.168391,0.0,0.0
3234,808.25,47.0143,50.2342,151.462,101.625,99.3474,0.0103504,0.153987,20.7659,485.872,0.207984,0.0,0.0
3241,810,47.0076,50.4079,153.576,101.613,99.4747,0.0104057,0.153873,20.7666,485.842,0.195118,0.0,0.0
3248,811.75,46.9814,50.7174,154.877,101.636,99.7338,0.0105128,0.153769,20.7672,485.822,0.173332,0.0,0.0
3255,813.5,47.2947,50.0703,155.548,101.636,100.128,0.0106668,0.153618,20.7685,485.822,0.137227,0.0,0.0
3262,815.25,46.9619,49.6612,152.604,101.628,100.233,,0.15328,,485.782,0.126822,0.0,0.0
3269,817,46.9653,50.4322,149.103,101.651,100.033,,0.153164,,485.792,0.147307,0.0,0.0
3276,818.75,47.1624,50.4174,147.758,101.643,99.7932,,,,485.812,0.168582,0.0,0.0
3283,820.5,46.5668,49.977,150.18,101.641,99.7617,,,,485.762,0.17125,0.0,0.0
3290,822.25,47.2903,50.3676,151.938,101.655,99.8986,,,,485.722,0.15993,0.0,0.0
3297,824,46.1409,50.2281,154.037,101.672,99.8758,,,,485.702,0.163552,0.0,0.0
3303,825.5,46.9555,50.0676,154.322,101.656,99.6862,,,,485.672,0.179579,0.0,0.0