File: 01_Data/OSB/Cone/OSB_Cone_HF50Scan_210326_R3.csv
Names,Time,Stack TC,Smoke TC,Exh Press,Smoke Comp,Smoke Meas,CO Meter,CO2 Meter,O2 Meter,Sample Mass,Ext Coeff,Start Test,Flame Verif
Chan Gain,,500,500,1,1,1,1,1,1,1,1,1.0,1.0
Offset,,0,0,0.138348,0,0,0,0,0,0,0,0.0,0.0
Gain,,1,1,25.011,13.5067,16.616,1,1,1,1.00091,1.04608,1.0,1.0
Units,sec,C,C,Pa,%,%,%,%,%,g,/m,,
Baseline,,33.8175,35.9975,158.201,102.249,98.3098,-0.00128992,0.0610175,20.9306,-0.0134706,0.360547,,
8,1.75,30.4374,32.9542,165.307,102.265,98.2689,-0.00113266,0.0614957,20.9298,570.199,0.365767,0.0,0.0
16,3.75,31.4014,33.4593,158.586,102.264,98.3855,-0.00106705,0.0615521,20.9287,570.139,0.354809,0.0,0.0
24,5.75,31.5803,33.0291,157.284,102.265,98.1335,-0.00117471,0.0617717,20.9283,570.089,0.378418,0.0,0.0
32,7.75,31.5286,32.9926,160.495,102.273,97.8095,-0.00126869,0.062119,20.9269,570.039,0.409506,0.0,0.0
40,9.75,31.7168,33.6343,155.449,102.271,97.6989,-0.00127424,0.062683,20.9237,569.969,0.419699,0.0,0.0
48,11.75,31.3047,33.5532,156.402,102.278,97.416,-0.0011474,0.0632863,20.9234,569.959,0.446941,0.0,0.0
56,13.75,31.3806,34.3113,157.963,102.259,96.9799,-0.000990785,0.0636883,20.9236,569.869,0.486409,0.0,0.0
64,15.75,31.7937,33.7277,155.365,102.259,96.4439,-0.000904804,0.0639071,20.9236,569.809,0.537227,0.0,0.0
72,17.75,31.9548,34.3451,156.723,102.267,96.0494,-0.000741379,0.0642105,20.9249,569.709,0.575542,0.0,0.0
80,19.75,32.0304,34.3093,152.263,102.249,95.9439,-0.000483399,0.0642093,20.9249,569.669,0.58407,0.0,0.0
88,21.75,32.0024,34.3174,157.226,102.265,95.3811,-0.000192147,0.0652344,20.9172,569.568,0.639466,0.0,0.0
96,23.75,32.5135,35.8973,149.116,102.26,99.457,5.03537e-05,0.0757746,20.8794,569.308,0.255047,0.0,1.0
104,25.75,34.8539,38.8482,141.478,102.261,97.2542,0.000291935,0.108666,20.7747,569.038,0.460674,0.0,1.0
112,27.75,35.4033,40.4115,143.786,102.255,97.9869,0.00054787,0.161801,20.6516,568.688,0.391244,0.0,0.0
120,29.75,37.3573,44.509,141.259,102.249,98.782,0.000775709,0.217949,20.5657,568.387,0.316495,0.0,0.0
128,31.75,39.9801,47.6099,141.606,102.246,99.0097,0.00101537,0.270664,20.5082,568.057,0.295147,0.0,0.0
136,33.75,42.3852,50.9917,139.038,102.253,98.1122,0.00123253,0.317673,20.46,567.707,0.379338,0.0,0.0
144,35.75,44.4856,54.8382,137.322,102.251,98.0767,0.00144804,0.363304,20.4161,567.346,0.38251,0.0,0.0
152,37.75,46.152,57.3078,136.82,102.251,98.208,0.00163209,0.401201,20.3907,567.036,0.370231,0.0,0.0
160,39.75,47.8745,60.0036,136.578,102.258,96.7989,0.00200015,0.433599,20.3658,566.666,0.50348,0.0,0.0
168,41.75,48.1652,61.9607,139.5,102.263,95.843,0.00229365,0.457015,20.3532,566.286,0.594946,0.0,0.0
176,43.75,50.9329,63.626,133.447,102.255,96.2041,0.00264093,0.478572,20.3444,565.925,0.559706,0.0,0.0
184,45.75,51.212,65.5262,135.205,102.245,96.3039,0.00300501,0.494845,20.339,565.585,0.549295,0.0,0.0
192,47.75,53.2033,66.7635,136.473,102.261,97.0372,0.0031845,0.508577,20.3341,565.225,0.481174,0.0,0.0
200,49.75,53.7728,68.4349,137.662,102.26,93.762,0.00330843,0.519198,20.3307,564.854,0.796125,0.0,0.0
208,51.75,54.3828,69.5194,136.721,102.262,94.9561,0.00345905,0.527211,20.329,564.504,0.680142,0.0,0.0
216,53.75,55.3644,70.4108,136.132,102.265,94.5241,0.00368501,0.533544,20.3284,564.164,0.722283,0.0,0.0
224,55.75,56.0799,70.9742,136.854,102.27,95.4074,0.00397693,0.538416,20.3284,563.843,0.637411,0.0,0.0
232,57.75,56.4894,72.1341,135.533,102.265,95.304,0.00422301,0.542163,20.3284,563.473,0.646922,0.0,0.0
240,59.75,57.0177,72.6717,134.867,102.27,94.6767,0.00447231,0.544954,20.3284,563.143,0.707885,0.0,0.0
248,61.75,57.6822,73.0882,137.847,102.265,93.1139,0.00465945,0.547417,20.3263,562.822,0.860212,0.0,0.0
256,63.75,58.4789,73.8915,139.965,102.273,94.7432,0.00460495,0.549971,20.3235,562.452,0.701745,0.0,0.0
264,65.75,58.9644,74.7346,139.162,102.262,95.0565,0.00436768,0.552208,20.3223,562.132,0.670445,0.0,0.0
272,67.75,59.0671,75.18,137.308,102.265,95.5966,0.00415956,0.552673,20.3267,561.781,0.618757,0.0,0.0
280,69.75,59.2774,75.2898,139.958,102.28,94.8116,0.00410346,0.551874,20.3332,561.441,0.695745,0.0,0.0
288,71.75,59.8927,75.2503,141.309,102.264,93.3127,0.00401942,0.549907,20.3376,561.131,0.840532,0.0,0.0
296,73.75,59.7077,75.8105,137.091,102.266,96.1052,0.00391068,0.547432,20.343,560.8,0.570142,0.0,0.0
304,75.75,60.5637,75.6858,140.525,102.275,94.8005,0.00399153,0.545393,20.3459,560.44,0.696345,0.0,0.0
312,77.75,60.9997,76.4386,140.894,102.264,94.7487,0.00411159,0.543384,20.3492,560.15,0.700427,0.0,0.0
320,79.75,60.3731,75.7437,147.152,102.263,95.0003,0.00417087,0.541908,20.3504,559.82,0.676027,0.0,0.0
328,81.75,61.4709,76.7734,141.949,102.268,94.5834,0.00419041,0.539914,20.3537,559.479,0.716822,0.0,0.0
336,83.75,61.2363,76.2845,137.328,102.274,94.3963,0.00423214,0.536903,20.3606,559.159,0.73551,0.0,0.0
344,85.75,61.2937,76.1349,135.963,102.279,94.0287,0.00426071,0.533791,20.3654,558.829,0.77176,0.0,0.0
352,87.75,61.4182,76.2342,138.277,102.278,94.3304,0.00430975,0.530673,20.3699,558.508,0.742252,0.0,0.0
360,89.75,61.4433,76.2138,141.741,102.267,94.304,0.00434797,0.52694,20.375,558.198,0.74382,0.0,0.0
368,91.75,61.4927,76.3905,139.966,102.264,95.0048,0.00434569,0.523205,20.3793,557.898,0.675624,0.0,0.0
376,93.75,61.4504,76.5815,137.034,102.258,93.2594,0.00433876,0.519357,20.3842,557.588,0.845252,0.0,0.0
384,95.75,61.9564,75.9936,136.687,102.262,94.0089,0.00441752,0.516365,20.3867,557.277,0.772137,0.0,0.0
392,97.75,61.9494,76.5425,140.456,102.256,94.4866,0.00444803,0.513567,20.3909,556.947,0.725113,0.0,0.0
400,99.75,62.1879,75.7989,137.924,102.264,94.2396,0.00438661,0.509791,20.3959,556.667,0.749829,0.0,0.0
408,101.75,62.0534,75.3642,141.043,102.259,93.8684,0.00421735,0.506013,20.4018,556.336,0.785636,0.0,0.0
416,103.75,62.2403,75.7399,145.893,102.262,93.6002,0.00405832,0.503121,20.4075,556.056,0.812117,0.0,0.0
424,105.75,61.9383,74.8186,139.266,102.243,94.6062,0.00402447,0.498466,20.4112,555.756,0.712352,0.0,0.0
432,107.75,61.6509,75.3576,141.824,102.253,93.6048,0.00416209,0.494211,20.4164,555.416,0.810856,0.0,0.0
440,109.75,61.6816,75.0538,139.444,102.256,94.9125,0.00428938,0.489792,20.4241,555.135,0.683877,0.0,0.0
448,111.75,62.523,75.0587,142.316,102.258,93.9232,0.00422087,0.484667,20.4326,554.835,0.78021,0.0,0.0
456,113.75,62.0772,74.9938,139.184,102.259,94.7736,0.00409374,0.479347,20.4366,554.535,0.697578,0.0,0.0
464,115.75,62.2381,74.7276,143.651,102.275,94.9161,0.00402031,0.475842,20.4399,554.275,0.685198,0.0,0.0
472,117.75,62.0573,74.4064,140.854,102.261,94.3968,0.00404778,0.471896,20.4452,553.964,0.734239,0.0,0.0
480,119.75,60.9056,74.2729,139.191,102.263,94.197,0.00405591,0.467018,20.4505,553.674,0.753866,0.0,0.0
488,121.75,60.9901,74.0678,141.48,102.264,94.4039,0.00403872,0.463052,20.4527,553.404,0.733845,0.0,0.0
496,123.75,61.3037,74.3765,138.103,102.273,95.1113,0.00406614,0.460221,20.4531,553.144,0.666159,0.0,0.0
504,125.75,61.5333,74.4955,139.604,102.272,92.8396,0.00413647,0.458786,20.4547,552.853,0.887914,0.0,0.0
512,127.75,61.5898,73.8773,137.836,102.256,94.6712,0.0040888,0.456906,20.4585,552.543,0.707241,0.0,0.0
520,129.75,61.2842,73.0357,142.558,102.272,94.4587,0.00402325,0.453901,20.4637,552.263,0.729228,0.0,0.0
528,131.75,61.4217,73.2007,139.799,102.27,94.088,0.00400835,0.450891,20.4673,551.992,0.765122,0.0,0.0
536,133.75,61.4888,73.0038,140.662,102.278,94.2868,0.00394151,0.448022,20.4723,551.692,0.746496,0.0,0.0
544,135.75,61.0044,72.8669,137.696,102.272,94.4698,0.0037895,0.444754,20.4768,551.462,0.728181,0.0,0.0
552,137.75,61.0934,72.4835,142.088,102.266,93.9105,0.0035643,0.441366,20.481,551.172,0.782151,0.0,0.0
560,139.75,61.0294,72.1791,141.741,102.27,95.844,0.00340285,0.437881,20.4862,550.932,0.595479,0.0,0.0
568,141.75,61.1009,71.7459,146.497,102.272,95.3471,0.00338492,0.433902,20.4923,550.641,0.643364,0.0,0.0
576,143.75,60.7766,71.3522,142.53,102.268,94.2533,0.00340286,0.429731,20.4975,550.401,0.74883,0.0,0.0
584,145.75,60.6919,71.3704,144.033,102.275,95.6219,0.00326778,0.426174,20.5015,550.111,0.617211,0.0,0.0
592,147.75,60.8333,70.8674,143.194,102.271,94.5753,0.00305262,0.422727,20.5038,549.871,0.71783,0.0,0.0
600,149.75,60.7083,70.8938,143.026,102.268,94.8015,0.00290805,0.419676,20.5063,549.64,0.695655,0.0,0.0
608,151.75,60.3602,70.3795,139.829,102.269,94.5941,0.00290911,0.415936,20.5117,549.35,0.715825,0.0,0.0
616,153.75,60.8516,69.6576,141.155,102.268,94.8076,0.00291243,0.412349,20.5163,549.1,0.695066,0.0,0.0
624,155.75,60.389,70.0181,150.06,102.274,95.9678,0.00296782,0.408618,20.5227,548.86,0.58401,0.0,0.0
632,157.75,59.8754,69.8169,138.139,102.265,95.7127,0.00300405,0.40449,20.527,548.609,0.607618,0.0,0.0
640,159.75,60.1121,70.0206,143.284,102.263,95.3451,0.00288039,0.400975,20.5301,548.339,0.642746,0.0,0.0
648,161.75,60.4269,69.5996,141.241,102.265,96.3521,0.00272735,0.397566,20.533,548.099,0.546556,0.0,0.0
656,163.75,59.8671,69.4375,137.904,102.264,95.9693,0.00268402,0.394624,20.5355,547.849,0.58294,0.0,0.0
664,165.75,60.2569,69.1116,143.412,102.256,96.0093,0.00269737,0.392284,20.5365,547.639,0.578408,0.0,0.0
672,167.75,59.8849,69.2191,143.092,102.257,96.0474,0.00262404,0.390118,20.5376,547.368,0.574886,0.0,0.0
680,169.75,60.3607,68.7676,141.27,102.247,95.4881,0.00252746,0.388061,20.5388,547.118,0.627514,0.0,0.0
688,171.75,59.8016,69.0114,140.397,102.254,96.1929,0.00254786,0.386377,20.5407,546.868,0.560733,0.0,0.0
696,173.75,59.8528,68.6838,148.448,102.237,96.3055,0.00261998,0.384476,20.5431,546.618,0.548447,0.0,0.0
704,175.75,59.5962,68.086,143.727,102.248,95.7771,0.00254226,0.382467,20.5453,546.387,0.599891,0.0,0.0
712,177.75,59.46,68.3348,141.766,102.243,95.6559,0.00243639,0.380781,20.5463,546.147,0.611067,0.0,0.0
720,179.75,59.6583,68.4034,142.995,102.231,96.3065,0.00233368,0.37924,20.5477,545.907,0.547795,0.0,0.0
728,181.75,59.3022,68.2581,146.126,102.235,96.1544,0.00222961,0.377116,20.5507,545.667,0.562634,0.0,0.0
736,183.75,59.3281,68.0654,139.678,102.233,96.7269,0.00209102,0.374557,20.5533,545.437,0.508014,0.0,0.0
744,185.75,59.4538,67.7487,143.677,102.226,95.7943,0.00201494,0.372745,20.5545,545.196,0.596317,0.0,0.0
752,187.75,59.4583,67.7004,142.541,102.221,95.6001,0.00199803,0.371446,20.5551,544.976,0.614421,0.0,0.0
760,189.75,59.6765,67.6289,144.214,102.225,96.1483,0.00202475,0.370272,20.5553,544.756,0.562327,0.0,0.0
768,191.75,59.3024,67.4333,142.039,102.217,96.0626,0.00202373,0.368928,20.5565,544.536,0.569844,0.0,0.0
776,193.75,59.4071,67.4807,144.975,102.223,96.5904,0.00203767,0.367701,20.5577,544.315,0.520114,0.0,0.0
784,195.75,58.915,67.4377,144.321,102.223,95.6316,0.0020164,0.366106,20.5617,544.045,0.611589,0.0,0.0
792,197.75,58.7324,67.2087,141.345,102.212,96.8435,0.00186711,0.364577,20.5647,543.855,0.49507,0.0,0.0
800,199.75,59.4508,67.7181,138.882,102.216,96.9053,0.00171242,0.36288,20.568,543.565,0.489617,0.0,0.0
808,201.75,59.0104,66.7093,145.185,102.222,96.8252,0.00159932,0.360762,20.5701,543.355,0.497688,0.0,0.0
816,203.75,58.7103,66.9739,144.027,102.202,96.378,0.00160779,0.35919,20.5715,543.154,0.538358,0.0,0.0
824,205.75,58.5638,67.255,142.151,102.205,95.877,0.00169846,0.357757,20.573,542.924,0.586478,0.0,0.0
832,207.75,58.2553,66.2971,138.24,102.204,96.8866,0.00175669,0.356491,20.5749,542.724,0.490321,0.0,0.0
840,209.75,58.4534,66.5855,142.363,102.205,95.9115,0.00183633,0.355006,20.5758,542.454,0.583216,0.0,0.0
848,211.75,58.9654,67.2371,146.235,102.203,96.556,0.00191151,0.353383,20.5782,542.234,0.521539,0.0,0.0
856,213.75,59.3744,66.8242,146.947,102.199,96.5529,0.00185688,0.351441,20.5813,542.023,0.521495,0.0,0.0
864,215.75,59.054,66.7617,144.458,102.199,96.848,0.00175856,0.349395,20.583,541.843,0.493453,0.0,0.0
872,217.75,58.2657,65.4808,143.65,102.2,96.7598,0.00169945,0.348127,20.5835,541.603,0.501891,0.0,0.0
880,219.75,58.1267,65.9563,142.447,102.179,97.1842,0.00169139,0.347005,20.5843,541.373,0.459842,0.0,0.0
888,221.75,58.9086,66.5596,145.756,102.18,96.4987,0.00170328,0.345733,20.5848,541.173,0.524951,0.0,0.0
896,223.75,58.5876,66.3322,140.493,102.179,96.987,0.00172376,0.345089,20.585,540.952,0.478559,0.0,0.0
904,225.75,59.0147,66.3924,144.449,102.176,97.023,0.00162704,0.344413,20.5857,540.702,0.474857,0.0,0.0
912,227.75,58.398,65.4234,145.03,102.162,96.8937,0.00143866,0.343063,20.5881,540.562,0.485873,0.0,0.0
920,229.75,58.3846,65.8198,146.007,102.163,97.062,0.00133255,0.341672,20.5904,540.312,0.469981,0.0,0.0
928,231.75,58.559,66.139,143.998,102.159,97.4479,0.00135925,0.340164,20.5934,540.092,0.433239,0.0,0.0
936,233.75,58.4105,66.436,142.365,102.161,96.8349,0.00144958,0.338511,20.5966,539.901,0.491297,0.0,0.0
944,235.75,58.3987,65.4491,144.575,102.146,97.1761,0.00159589,0.336963,20.5981,539.681,0.457646,0.0,0.0
952,237.75,58.7795,65.5219,145.899,102.137,96.1625,0.00164613,0.335593,20.5987,539.461,0.553087,0.0,0.0
960,239.75,58.43,65.6508,144.996,102.129,97.8384,0.0015933,0.334359,20.599,539.211,0.393805,0.0,0.0
968,241.75,58.3256,65.4703,148.214,102.122,96.7882,0.00148748,0.333269,20.6009,539.041,0.492201,0.0,0.0
976,243.75,58.1031,64.8974,144.352,102.114,97.3257,0.0014609,0.3324,20.6024,538.831,0.44068,0.0,0.0
984,245.75,58.1235,65.0896,140.432,102.109,96.5159,0.00142573,0.331363,20.6043,538.58,0.516942,0.0,0.0
992,247.75,58.1263,65.0233,141.519,102.099,97.9743,0.00131268,0.330274,20.6069,538.39,0.378402,0.0,0.0
1000,249.75,57.9239,64.9449,146.192,102.091,97.0813,0.00115865,0.329025,20.609,538.17,0.461715,0.0,0.0
1008,251.75,58.2087,65.1759,145.142,102.082,97.6097,0.00111262,0.327732,20.6108,537.98,0.411057,0.0,0.0
1016,253.75,57.6989,64.7954,147.547,102.073,97.9514,0.00112894,0.326451,20.612,537.79,0.378168,0.0,0.0
1024,255.75,58.17,65.1684,142.573,102.067,97.6097,0.0011174,0.325398,20.6125,537.569,0.409722,0.0,0.0
1032,257.75,57.5886,64.6576,141.207,102.058,97.13,0.00114293,0.324457,20.613,537.379,0.45415,0.0,0.0
1040,259.75,57.7478,64.555,141.438,102.048,97.5042,0.00118223,0.323517,20.6143,537.189,0.417938,0.0,0.0
1048,261.75,57.4076,64.8136,149.165,102.04,97.4074,0.00115135,0.322463,20.6155,536.939,0.426353,0.0,0.0
1056,263.75,57.3988,64.4096,141.167,102.038,97.8064,0.00107588,0.321442,20.6167,536.729,0.388688,0.0,0.0
1064,265.75,57.2648,64.2274,140.632,102.028,97.5255,0.000931005,0.320397,20.619,536.538,0.414154,0.0,0.0
1072,267.75,57.5863,64.6229,142.222,102.033,98.4124,0.000832108,0.319383,20.6201,536.348,0.331568,0.0,0.0
1080,269.75,58.0626,64.171,138.927,102.026,97.6036,0.000834326,0.3185,20.6202,536.168,0.406625,0.0,0.0
1088,271.75,57.6348,64.1057,145.428,102.01,98.9068,0.000918775,0.317914,20.6193,535.958,0.283509,0.0,0.0
1096,273.75,57.3629,63.67,144.741,102.031,97.558,0.000933806,0.317792,20.6199,535.728,0.411324,0.0,0.0
1104,275.75,57.2073,64.2365,145.585,102.005,97.7877,0.000907996,0.317535,20.6201,535.557,0.387445,0.0,0.0
1112,277.75,57.6838,64.5102,142.732,102,97.9073,0.000920838,0.316645,20.6213,535.327,0.375815,0.0,0.0
1120,279.75,58.0835,64.1802,141.133,101.988,97.815,0.00100826,0.315799,20.622,535.147,0.383392,0.0,0.0
1128,281.75,57.1537,64.0993,142.151,101.996,98.4702,0.00102562,0.314988,20.6245,534.947,0.322806,0.0,0.0
1136,283.75,57.5745,63.6446,139.298,101.996,97.7243,0.000890234,0.31375,20.626,534.787,0.392579,0.0,0.0
1144,285.75,57.6425,63.583,144.146,101.994,98.5625,0.000802611,0.312353,20.6271,534.597,0.314025,0.0,0.0
1152,287.75,57.6338,64.0884,148.486,101.979,97.4286,0.000651688,0.311523,20.6283,534.396,0.418897,0.0,0.0
1160,289.75,57.9173,64.2318,140.586,101.979,98.4712,0.000452067,0.311195,20.6293,534.196,0.321153,0.0,0.0
1168,291.75,57.0086,63.8165,146.497,101.972,97.8039,0.000393103,0.310438,20.6312,533.976,0.382956,0.0,0.0
1176,293.75,57.0315,63.4191,140.287,101.951,98.5422,0.000460633,0.309422,20.6336,533.776,0.312055,0.0,0.0
1184,295.75,57.1471,63.4314,144.145,101.946,98.0088,0.000513661,0.307652,20.6356,533.486,0.361382,0.0,0.0
1192,297.75,56.7013,62.9209,144.517,101.945,97.4981,0.000709377,0.305949,20.6358,533.376,0.409277,0.0,0.0
1200,299.75,56.5476,63.0321,146.093,101.932,98.2623,0.000977607,0.305554,20.6351,533.225,0.336486,0.0,0.0
1208,301.75,56.7703,62.2089,148.441,101.936,97.8095,0.00106396,0.305237,20.6349,533.085,0.379168,0.0,0.0
1216,303.75,56.7214,62.4264,142.074,101.923,98.0377,0.000939565,0.305131,20.6338,532.865,0.356672,0.0,0.0
1224,305.75,56.8279,62.9399,139.04,101.929,97.4717,0.000744211,0.305801,20.6316,532.635,0.410313,0.0,0.0
1232,307.75,56.7781,62.9622,144.698,101.921,98.5001,0.000643288,0.306759,20.6307,532.435,0.313267,0.0,0.0
1240,309.75,56.8743,62.652,143.263,101.918,97.8607,0.000628739,0.306879,20.6314,532.265,0.372731,0.0,0.0
1248,311.75,56.2116,62.422,140.894,101.906,97.6497,0.000612442,0.306459,20.6325,532.064,0.391456,0.0,0.0
1256,313.75,56.4384,62.5467,146.583,101.91,98.352,0.000506522,0.305751,20.635,531.884,0.326105,0.0,0.0
1264,315.75,56.3055,62.4186,139.8,101.89,98.1315,0.00038521,0.305006,20.6367,531.714,0.344852,0.0,0.0
1272,317.75,57.0167,62.9706,142.831,101.891,98.2861,0.000306459,0.304184,20.6375,531.494,0.330551,0.0,0.0
1280,319.75,56.5553,63.0408,144.131,101.866,98.5681,0.000345034,0.30378,20.6378,531.294,0.302002,0.0,0.0
1288,321.75,56.4918,62.5807,145.443,101.877,98.3982,0.000394569,0.303364,20.638,531.073,0.318831,0.0,0.0
1296,323.75,56.0139,62.3834,148.879,101.845,98.4585,0.000357574,0.303157,20.638,530.913,0.31031,0.0,0.0
1304,325.75,56.3115,61.87,147.802,101.823,98.1801,0.00030566,0.30283,20.638,530.713,0.334323,0.0,0.0
1312,327.75,56.4659,62.646,143.898,101.807,98.7318,0.000265736,0.302284,20.6389,530.533,0.281455,0.0,0.0
1320,329.75,56.1787,62.2404,147.156,101.794,97.9656,0.000301381,0.30218,20.6384,530.333,0.351792,0.0,0.0
1328,331.75,56.9448,63.0167,146.137,101.779,98.0432,0.000434078,0.302145,20.6393,530.163,0.343152,0.0,0.0
1336,333.75,56.5323,62.8437,144.685,101.772,97.8617,0.000503082,0.30185,20.6403,529.982,0.359528,0.0,0.0
1344,335.75,57.2297,63.1743,144.873,101.765,98.6705,0.000465091,0.301443,20.6423,529.842,0.283406,0.0,0.0
1352,337.75,56.4456,62.1895,146.204,101.756,98.0995,0.000349086,0.300607,20.6429,529.662,0.335805,0.0,0.0
1360,339.75,55.8882,62.0485,146.325,101.771,97.8495,0.000276472,0.299875,20.6431,529.462,0.360593,0.0,0.0
1368,341.75,56.0767,62.2335,145.362,101.757,98.1959,0.000336715,0.299551,20.6432,529.252,0.326872,0.0,0.0
1376,343.75,56.2363,62.5353,142.2,101.755,98.7602,0.000382106,0.299366,20.6432,529.102,0.274096,0.0,0.0
1384,345.75,56.4546,62.2794,146.599,101.765,98.2932,0.000339927,0.299269,20.6432,528.921,0.318521,0.0,0.0
1392,347.75,56.6065,62.3692,145.167,101.754,98.5706,0.00032821,0.29898,20.6436,528.731,0.29166,0.0,0.0
1400,349.75,56.675,62.1435,149.055,101.757,98.4327,0.000404213,0.299062,20.6444,528.521,0.304806,0.0,0.0
1408,351.75,56.4433,62.3742,144.715,101.744,98.1279,0.000537707,0.299136,20.6442,528.361,0.332108,0.0,0.0
1416,353.75,56.2634,62.7447,144.601,101.742,97.8658,0.000665931,0.299288,20.6452,528.151,0.356434,0.0,0.0
1424,355.75,56.0586,62.1929,145.378,101.748,97.7968,0.00068295,0.298982,20.6459,527.961,0.363459,0.0,0.0
1432,357.75,55.9061,62.2187,142.472,101.748,98.0802,0.000641032,0.298598,20.6447,527.8,0.336864,0.0,0.0
1440,359.75,55.717,62.0891,142.064,101.763,97.9601,0.000646528,0.298341,20.6439,527.63,0.349527,0.0,0.0
1448,361.75,55.8491,61.9568,146.429,101.756,98.0057,0.000651652,0.297795,20.6435,527.44,0.344584,0.0,0.0
1456,363.75,56.2173,62.0708,149.079,101.745,97.7466,0.00064076,0.297599,20.6433,527.25,0.36791,0.0,0.0
1464,365.75,55.5857,62.2794,141.441,101.741,97.5711,0.000600513,0.297796,20.6428,527.08,0.384025,0.0,0.0
1472,367.75,56.2392,61.5511,145.617,101.725,98.3992,0.000482209,0.298339,20.6417,526.91,0.304989,0.0,0.0
1480,369.75,56.1459,61.9527,145.088,101.737,98.169,0.000390805,0.298943,20.6412,526.719,0.327636,0.0,0.0
1488,371.75,56.0203,61.6328,147.883,101.737,97.6949,0.000421399,0.299606,20.641,526.529,0.37206,0.0,0.0
1496,373.75,55.3482,61.8287,144.259,101.747,97.7146,0.000405926,0.299963,20.642,526.339,0.371021,0.0,0.0
1504,375.75,55.9933,62.1383,149.299,101.751,97.7927,0.00046743,0.299862,20.6427,526.189,0.364063,0.0,0.0
1512,377.75,55.8571,61.6377,148.82,101.761,98.2669,0.000654589,0.299912,20.643,525.969,0.320612,0.0,0.0
1520,379.75,55.8556,61.623,149.512,101.764,97.636,0.000712843,0.299804,20.6431,525.799,0.380003,0.0,0.0
1528,381.75,56.2369,61.6694,145.91,101.778,98.3815,0.000557773,0.29972,20.6439,525.618,0.311441,0.0,0.0
1536,383.75,55.7605,62.1297,140.724,101.762,97.8237,0.000406249,0.300185,20.6423,525.438,0.362202,0.0,0.0
1544,385.75,55.9042,62.3156,144.063,101.769,98.0458,0.000462261,0.301004,20.6403,525.238,0.342023,0.0,0.0
1552,387.75,56.2359,61.8376,145.589,101.779,97.4895,0.000553054,0.301588,20.6394,525.078,0.395087,0.0,0.0
1560,389.75,56.1041,62.0194,143.223,101.763,98.0818,0.000577144,0.301918,20.6406,524.888,0.338133,0.0,0.0
1568,391.75,56.3227,61.9816,148.377,101.765,97.8003,0.00058079,0.302385,20.6413,524.708,0.364613,0.0,0.0
1576,393.75,55.5684,61.7735,143.538,101.768,97.6153,0.000553043,0.302829,20.6403,524.497,0.382254,0.0,0.0
1584,395.75,56.1985,62.043,141.368,101.769,97.6797,0.000582348,0.303286,20.6386,524.347,0.376314,0.0,0.0
1592,397.75,56.2857,61.9535,151.606,101.758,97.1208,0.000658621,0.303793,20.6388,524.167,0.427994,0.0,0.0
1600,399.75,56.1935,62.0879,143.628,101.747,97.349,0.000659618,0.303939,20.6392,523.977,0.405418,0.0,0.0
1608,401.75,56.1373,62.1128,144.045,101.748,98.1832,0.000598759,0.304393,20.6394,523.797,0.327239,0.0,0.0
1616,403.75,56.1298,62.2083,144.908,101.748,97.4084,0.000621943,0.304892,20.6376,523.597,0.39994,0.0,0.0
1624,405.75,56.2019,61.9965,143.539,101.746,96.8678,0.000757914,0.305615,20.6336,523.406,0.450816,0.0,0.0
1632,407.75,56.2093,62.3567,147.819,101.744,97.5108,0.000792497,0.306561,20.6312,523.226,0.389924,0.0,0.0
1640,409.75,56.0958,62.292,146.123,101.744,97.3937,0.000743429,0.307318,20.6304,523.066,0.400954,0.0,0.0
1648,411.75,56.5134,62.4276,149.231,101.751,97.0093,0.00076652,0.307606,20.6308,522.836,0.437908,0.0,0.0
1656,413.75,56.668,62.0231,145.01,101.755,97.3303,0.000774066,0.307842,20.6302,522.686,0.407968,0.0,0.0
1664,415.75,55.9679,62.4013,140.866,101.759,97.5341,0.000715363,0.308427,20.6292,522.516,0.389141,0.0,0.0
1672,417.75,56.2946,62.1285,149.974,101.762,97.2,0.000637684,0.309136,20.6286,522.325,0.420857,0.0,0.0
1680,419.75,56.4997,61.9183,143.184,101.763,96.8379,0.000609252,0.309847,20.6272,522.135,0.455249,0.0,0.0
1688,421.75,56.2484,62.6149,139.28,101.777,97.2593,0.000667242,0.310718,20.6246,521.935,0.416671,0.0,0.0
1696,423.75,56.4874,62.7547,140.766,101.778,97.0701,0.000795356,0.311931,20.6228,521.765,0.434607,0.0,0.0
1704,425.75,55.8518,62.3997,144.801,101.776,96.8587,0.000838216,0.312957,20.622,521.555,0.454394,0.0,0.0
1712,427.75,55.9273,62.1514,146.343,101.782,96.6016,0.000806229,0.313904,20.6226,521.395,0.479303,0.0,0.0
1720,429.75,56.361,62.3397,146.531,101.797,96.9201,0.000721052,0.314777,20.6228,521.184,0.450478,0.0,0.0
1728,431.75,56.16,62.2422,145.639,101.784,97.0199,0.000686405,0.315456,20.6225,520.984,0.439911,0.0,0.0
1736,433.75,56.4728,62.9472,147.911,101.791,96.8024,0.000831062,0.316292,20.6206,520.814,0.461103,0.0,0.0
1744,435.75,56.7235,62.6047,145.815,101.793,96.8993,0.00109223,0.316957,20.6198,520.614,0.452113,0.0,0.0
1752,437.75,56.3968,62.742,141.706,101.791,96.2228,0.00130729,0.317785,20.6183,520.454,0.516172,0.0,0.0
1760,439.75,56.5126,62.6327,149.017,101.798,96.2532,0.00143554,0.318993,20.6174,520.254,0.51394,0.0,0.0
1768,441.75,56.6091,63.2406,143.036,101.794,96.0063,0.00141003,0.320118,20.6163,520.053,0.537141,0.0,0.0
1776,443.75,56.3868,62.8027,147.801,101.786,96.0996,0.00124404,0.320992,20.6149,519.863,0.527521,0.0,0.0
1784,445.75,56.7494,62.9348,147.153,101.778,95.8841,0.00108903,0.322032,20.6122,519.693,0.547417,0.0,0.0
1792,447.75,56.7568,62.8278,141.905,101.781,96.1503,0.00105124,0.323656,20.6086,519.443,0.522197,0.0,0.0
1800,449.75,56.8765,63.0249,144.181,101.769,95.7274,0.00104308,0.325354,20.6063,519.253,0.561605,0.0,0.0
1808,451.75,56.6641,63.163,145.519,101.778,96.2461,0.00111631,0.326897,20.6041,519.022,0.512796,0.0,0.0
1816,453.75,57.2761,62.9133,143.277,101.759,96.4434,0.00125587,0.328272,20.6032,518.892,0.492336,0.0,0.0
1824,455.75,56.8606,62.6768,142.205,101.738,95.8592,0.00141728,0.329559,20.6015,518.672,0.546152,0.0,0.0
1832,457.75,57.3862,63.5748,143.317,101.728,95.7796,0.00146676,0.330821,20.5996,518.432,0.552883,0.0,0.0
1840,459.75,57.2664,63.4982,147.296,101.736,95.4287,0.00131562,0.331914,20.5986,518.312,0.587269,0.0,0.0
1848,461.75,57.6517,63.6104,140.497,101.714,95.1402,0.00123337,0.333459,20.5963,518.112,0.613047,0.0,0.0
1856,463.75,57.5749,63.8366,142.28,101.706,94.9146,0.00127527,0.335137,20.5945,517.861,0.634168,0.0,0.0
1864,465.75,57.633,64.1282,145.127,101.69,96.2,0.00135156,0.336422,20.5924,517.641,0.50924,0.0,0.0
1872,467.75,57.6731,63.8186,145.029,101.681,94.6788,0.00132675,0.337831,20.5901,517.461,0.65476,0.0,0.0
1880,469.75,57.7123,64.0002,146.523,101.688,95.3704,0.00122621,0.339081,20.5887,517.251,0.588602,0.0,0.0
1888,471.75,57.8803,64.2207,143.121,101.676,94.5256,0.00112025,0.340136,20.5872,517.041,0.669131,0.0,0.0
1896,473.75,57.5927,64.3995,146.175,101.647,95.9338,0.00107697,0.341404,20.5862,516.85,0.530799,0.0,0.0
1904,475.75,57.8751,64.7091,143.226,101.639,94.2021,0.001124,0.342844,20.5854,516.61,0.697204,0.0,0.0
1912,477.75,57.0595,63.9724,138.807,101.641,93.6965,0.00124593,0.344628,20.5824,516.42,0.746805,0.0,0.0
1920,479.75,58.0287,64.467,142.255,101.64,95.1032,0.00133998,0.346284,20.5811,516.22,0.609959,0.0,0.0
1928,481.75,58.1168,64.8164,142.405,101.636,94.8902,0.00140698,0.347728,20.5806,516.02,0.630233,0.0,0.0
1936,483.75,58.0535,64.4638,143.682,101.638,93.7792,0.00149984,0.348803,20.5793,515.769,0.738417,0.0,0.0
1944,485.75,57.9177,64.6693,149.063,101.636,94.0728,0.00162226,0.350038,20.5781,515.589,0.709548,0.0,0.0
1952,487.75,58.1677,64.8537,151.127,101.64,94.4546,0.00175532,0.352057,20.5749,515.359,0.672788,0.0,0.0
1960,489.75,58.3742,64.7395,143.824,101.644,94.6925,0.00191384,0.354359,20.5704,515.139,0.650047,0.0,0.0
1968,491.75,58.4096,65.4932,143.206,101.646,94.6144,0.00203282,0.356794,20.5686,514.929,0.657766,0.0,0.0
1976,493.75,58.4069,65.4098,141.299,101.645,94.0586,0.00206335,0.358391,20.5676,514.698,0.711788,0.0,0.0
1984,495.75,58.5885,65.4587,147.765,101.635,93.9181,0.00196952,0.359643,20.5658,514.448,0.724572,0.0,0.0
1992,497.75,58.5274,65.6415,143.447,101.634,94.518,0.00189539,0.361912,20.5625,514.268,0.666037,0.0,0.0
2000,499.75,58.5049,65.7146,142.862,101.625,94.1534,0.00197828,0.363804,20.5591,514.068,0.700756,0.0,0.0
2008,501.75,58.8832,65.9391,141.53,101.607,93.8664,0.00217001,0.365841,20.5563,513.848,0.727133,0.0,0.0
2016,503.75,59.003,66.1335,141.924,101.607,93.0977,0.00219288,0.367949,20.5547,513.608,0.802554,0.0,0.0
2024,505.75,59.001,66.1,144.568,101.599,94.6894,0.00206381,0.369499,20.5542,513.387,0.646248,0.0,0.0
2032,507.75,59.3527,66.231,145.867,101.576,92.797,0.00204625,0.370451,20.5543,513.157,0.829485,0.0,0.0
2040,509.75,59.1512,66.3043,140.006,101.565,93.8507,0.00212224,0.371214,20.5541,512.927,0.724835,0.0,0.0
2048,511.75,59.0644,66.5029,144.707,101.545,92.8913,0.00218748,0.371708,20.5529,512.707,0.817296,0.0,0.0
2056,513.75,59.3482,66.6068,140.344,101.541,93.2843,0.00224515,0.372683,20.5512,512.477,0.778222,0.0,0.0
2064,515.75,59.5795,66.4907,143.541,101.521,93.4851,0.00220211,0.373836,20.5503,512.226,0.756664,0.0,0.0
2072,517.75,59.3044,67.0345,145.195,101.507,92.8979,0.00210845,0.374832,20.5499,512.006,0.813291,0.0,0.0
2080,519.75,59.6322,66.6653,140.603,101.496,92.9729,0.00207083,0.375445,20.5496,511.786,0.804875,0.0,0.0
2088,521.75,59.704,66.8208,142.96,101.483,93.3269,0.002096,0.375754,20.5492,511.586,0.768779,0.0,0.0
2096,523.75,59.8322,66.6534,143.734,101.472,93.5632,0.00211407,0.376341,20.5463,511.345,0.744606,0.0,0.0
2104,525.75,59.7787,67.2404,141.3,101.464,93.3751,0.00204341,0.377888,20.5414,511.105,0.762366,0.0,0.0
2112,527.75,59.7739,67.0946,142.943,101.446,92.622,0.00202197,0.37984,20.5378,510.925,0.835062,0.0,0.0
2120,529.75,60.1941,67.6003,139.764,101.423,93.3614,0.00214689,0.381741,20.5343,510.645,0.759946,0.0,0.0
2128,531.75,59.8458,67.4893,138.327,101.385,92.7797,0.00233519,0.383707,20.5327,510.455,0.813933,0.0,0.0
2136,533.75,59.8981,67.1627,141.342,101.357,92.2128,0.00252026,0.385288,20.5323,510.224,0.867637,0.0,0.0
2144,535.75,60.3107,67.5904,148.277,101.337,92.3077,0.00276277,0.385965,20.5332,509.984,0.856341,0.0,0.0
2152,537.75,60.0813,67.7608,142.125,101.315,91.9968,0.00302132,0.386289,20.5328,509.734,0.885351,0.0,0.0
2160,539.75,60.5766,67.7381,137.311,101.303,92.1809,0.00314379,0.386574,20.5321,509.534,0.865927,0.0,0.0
2168,541.75,60.2168,68.0089,142.825,101.273,91.6256,0.00318823,0.387165,20.5318,509.284,0.91864,0.0,0.0
2176,543.75,60.3262,67.9977,142.438,101.246,92.7955,0.00317707,0.387613,20.5334,509.063,0.79976,0.0,0.0
2184,545.75,60.1663,68.0996,150.808,101.218,92.7904,0.00305804,0.387623,20.5339,508.833,0.797721,0.0,0.0
2192,547.75,60.2696,68.3361,140.117,101.192,92.3239,0.00290389,0.388103,20.5322,508.613,0.84158,0.0,0.0
2200,549.75,60.6984,67.8492,141.08,101.183,93.833,0.00281521,0.389415,20.5292,508.333,0.69202,0.0,0.0
2208,551.75,60.7507,68.5957,138.366,101.159,92.4025,0.002903,0.391161,20.5263,508.153,0.830818,0.0,0.0
2216,553.75,61.1013,68.4245,143.654,101.152,92.1571,0.00304299,0.392644,20.5246,507.892,0.854549,0.0,0.0
2224,555.75,61.2954,68.8588,143.803,101.131,92.297,0.00312288,0.393736,20.5236,507.652,0.838755,0.0,0.0
2232,557.75,61.1112,68.5077,137.624,101.126,92.3939,0.00317009,0.395166,20.5205,507.382,0.828645,0.0,0.0
2240,559.75,60.6618,68.3001,141.27,101.116,91.5121,0.00317917,0.397252,20.5185,507.192,0.915744,0.0,0.0
2248,561.75,61.4663,69.2788,139.652,101.097,91.6982,0.00324438,0.398546,20.5166,506.941,0.895383,0.0,0.0
2256,563.75,61.3203,69.0906,142.394,101.081,92.1951,0.00343417,0.399568,20.5155,506.711,0.84433,0.0,0.0
2264,565.75,61.2282,69.3597,137.579,101.068,91.4243,0.00357979,0.400687,20.5132,506.491,0.920243,0.0,0.0
2272,567.75,61.0114,68.8396,137.855,101.056,91.8893,0.00371208,0.401682,20.5115,506.251,0.87253,0.0,0.0
2280,569.75,60.996,69.2015,139.541,101.035,91.8756,0.0038061,0.403086,20.5092,506.001,0.872027,0.0,0.0
2288,571.75,61.0171,68.9026,138.145,101.031,92.1013,0.00374807,0.404502,20.5068,505.8,0.849179,0.0,0.0
2296,573.75,60.961,68.8496,142.584,100.998,91.6023,0.00349692,0.406038,20.5044,505.51,0.895957,0.0,0.0
2304,575.75,61.4755,68.9548,141.439,100.982,91.3229,0.00331897,0.407205,20.5021,505.3,0.922565,0.0,0.0
2312,577.75,62.0275,69.8386,143.408,100.957,90.4807,0.00342361,0.408628,20.5002,505.05,1.0053,0.0,0.0
2320,579.75,61.408,69.9132,143.105,100.96,90.8549,0.00367738,0.410264,20.4972,504.799,0.967767,0.0,0.0
2328,581.75,61.996,69.8835,137.404,100.953,91.0339,0.00384009,0.41209,20.4941,504.579,0.948994,0.0,0.0
2336,583.75,62.0412,70.3247,142.556,100.939,90.3833,0.00396299,0.413833,20.4923,504.309,1.01361,0.0,0.0
2344,585.75,62.022,70.6444,144.057,100.922,91.1779,0.00413874,0.415834,20.4884,504.049,0.931716,0.0,0.0
2352,587.75,62.5506,70.8902,138.971,100.915,93.0642,0.00430944,0.418351,20.4863,503.799,0.743138,0.0,0.0
2360,589.75,62.83,70.6862,144.037,100.888,91.7149,0.00446642,0.420007,20.4844,503.548,0.874758,0.0,0.0
2368,591.75,62.7469,71.1139,139.668,100.876,90.1389,0.00467258,0.421348,20.4814,503.298,1.03272,0.0,0.0
2376,593.75,62.4941,70.6533,144.821,100.883,92.0379,0.00481378,0.42377,20.4759,502.998,0.841972,0.0,0.0
2384,595.75,63.0031,71.4546,135.463,100.862,90.4741,0.00481567,0.42652,20.4724,502.738,0.997313,0.0,0.0
2392,597.75,63.1705,71.8211,143.673,100.855,90.6764,0.00473216,0.429051,20.4698,502.517,0.976216,0.0,0.0
2400,599.75,63.2007,71.373,141.686,100.845,91.4639,0.00473657,0.431067,20.4674,502.257,0.89593,0.0,0.0
2408,601.75,63.5896,72.3259,135.627,100.831,90.0025,0.00479344,0.432489,20.465,501.987,1.04245,0.0,0.0
2416,603.75,63.6823,71.704,137.99,100.827,90.4538,0.00482381,0.43409,20.4627,501.687,0.996181,0.0,0.0
2424,605.75,63.4582,72.4544,135.07,100.812,89.7672,0.00487101,0.435864,20.4601,501.456,1.06479,0.0,0.0
2432,607.75,63.8754,72.2401,137.578,100.798,90.3625,0.0049184,0.437842,20.4578,501.206,1.0029,0.0,0.0
2440,609.75,64.0249,72.5286,139.383,100.801,90.0983,0.00492793,0.439011,20.4568,500.936,1.02995,0.0,0.0
2448,611.75,64.0877,72.672,138.819,100.773,91.6611,0.00493251,0.439612,20.4564,500.676,0.869634,0.0,0.0
2456,613.75,64.4933,72.7321,139.051,100.779,90.073,0.00495629,0.440307,20.4572,500.446,1.03054,0.0,0.0
2464,615.75,64.4192,72.8693,139.389,100.764,90.8853,0.00495541,0.441139,20.4565,500.105,0.946807,0.0,0.0
2472,617.75,63.8227,72.8386,136.144,100.769,89.6577,0.00496826,0.44161,20.457,499.915,1.07209,0.0,0.0
2480,619.75,64.3131,72.9747,139.055,100.745,91.4517,0.00497558,0.441689,20.4576,499.665,0.888071,0.0,0.0
2488,621.75,64.5498,73.3781,135.167,100.737,91.6525,0.0048778,0.441223,20.4587,499.415,0.867231,0.0,0.0
2496,623.75,64.3342,73.1834,136.834,100.725,90.6891,0.00470828,0.440898,20.4583,499.174,0.963074,0.0,0.0
2504,625.75,64.7537,73.1064,141.051,100.714,91.0222,0.00460689,0.440668,20.4584,498.884,0.928413,0.0,0.0
2512,627.75,64.6834,73.5715,140.032,100.703,92.0947,0.00462764,0.440413,20.4607,498.634,0.81995,0.0,0.0
2520,629.75,64.5193,73.1994,137.707,100.707,91.864,0.00460938,0.439284,20.4632,498.414,0.843381,0.0,0.0
2528,631.75,64.5822,73.6143,143.442,100.693,91.8417,0.00451316,0.437881,20.4643,498.173,0.844258,0.0,0.0
2536,633.75,64.4823,73.3034,140.187,100.702,92.3579,0.00453138,0.436933,20.4647,497.913,0.793654,0.0,0.0
2544,635.75,64.8421,73.2065,139.339,100.695,90.7017,0.00462675,0.436339,20.4654,497.693,0.959051,0.0,0.0
2552,637.75,64.7061,73.1923,139.281,100.684,90.5978,0.00468895,0.4356,20.4664,497.423,0.968596,0.0,0.0
2560,639.75,64.4084,73.1343,144.032,100.688,92.3391,0.00471245,0.434091,20.4709,497.203,0.794278,0.0,0.0
2568,641.75,64.1202,72.9699,144.121,100.695,91.2443,0.00471182,0.431767,20.4756,496.952,0.904397,0.0,0.0
2576,643.75,64.4106,73.6028,137.307,100.711,90.8108,0.00468156,0.429874,20.4775,496.682,0.94953,0.0,0.0
2584,645.75,64.9089,73.5107,142.564,100.698,91.3123,0.00464946,0.428135,20.4784,496.502,0.897792,0.0,0.0
2592,647.75,64.0201,72.9477,140.732,100.695,91.3625,0.00456796,0.42626,20.4823,496.242,0.892524,0.0,0.0
2600,649.75,64.7026,72.4863,143.174,100.688,90.7124,0.00446416,0.423952,20.4862,496.032,0.957372,0.0,0.0
2608,651.75,64.6902,72.5928,139.078,100.691,91.8498,0.00424927,0.421157,20.4915,495.791,0.843296,0.0,0.0
2616,653.75,64.0858,72.2373,145.836,100.679,91.2752,0.00391769,0.417619,20.4971,495.541,0.899822,0.0,0.0
2624,655.75,64.6124,72.4036,144.22,100.685,92.4938,0.00351374,0.413715,20.504,495.331,0.778621,0.0,0.0
2632,657.75,64.1631,72.5492,146.79,100.686,91.0998,0.00317711,0.40923,20.5088,495.121,0.918078,0.0,0.0
2640,659.75,63.9131,71.512,141.803,100.677,90.651,0.0030898,0.404851,20.5125,494.941,0.962604,0.0,0.0
2648,661.75,64.0793,71.6281,139.845,100.69,90.972,0.00308341,0.400968,20.5154,494.74,0.931372,0.0,0.0
2656,663.75,63.259,71.4665,143.438,100.688,89.8747,0.0028756,0.396662,20.5222,494.52,1.04254,0.0,0.0
2664,665.75,63.7183,70.8365,143.029,100.697,91.7159,0.0026218,0.391641,20.5283,494.35,0.857244,0.0,0.0
2672,667.75,63.2849,70.6665,137.943,100.714,91.544,0.00241941,0.386361,20.5354,494.17,0.875961,0.0,0.0
2680,669.75,62.7191,70.5801,147.087,100.702,91.9071,0.0023674,0.380359,20.543,493.95,0.838626,0.0,0.0
2688,671.75,62.6332,70.0043,144.334,100.71,92.2544,0.00237835,0.374314,20.5536,493.789,0.804726,0.0,0.0
2696,673.75,62.6939,69.723,142.733,100.719,91.9583,0.00230152,0.367316,20.5628,493.639,0.834979,0.0,0.0
2704,675.75,62.2404,68.6658,145.198,100.709,92.7169,0.0021008,0.359749,20.5718,493.459,0.758767,0.0,0.0
2712,677.75,62.2812,68.5597,144.848,100.707,92.5982,0.00196919,0.352037,20.5823,493.299,0.770254,0.0,0.0
2720,679.75,61.8614,68.0938,149.096,100.705,93.0414,0.00196894,0.343935,20.5939,493.189,0.726291,0.0,0.0
2728,681.75,61.621,67.5294,141.141,100.708,92.6651,0.00195962,0.336011,20.6026,493.039,0.763775,0.0,0.0
2736,683.75,61.3661,66.9476,145.256,100.709,93.0079,0.00180864,0.327399,20.6121,492.909,0.729931,0.0,0.0
2744,685.75,60.8499,66.5367,145.889,100.708,94.1519,0.00158608,0.318913,20.6241,492.759,0.617681,0.0,0.0
2752,687.75,60.1037,65.4366,144.646,100.705,93.8654,0.00140324,0.308492,20.64,492.668,0.645345,0.0,0.0
2760,689.75,59.689,65.1374,147.344,100.715,95.0657,0.0013918,0.297366,20.6539,492.588,0.529693,0.0,0.0
2768,691.75,58.9279,64.009,141.063,100.705,94.9353,0.00144731,0.286226,20.6678,492.488,0.541379,0.0,0.0
2776,693.75,58.9161,63.7812,146.636,100.711,94.878,0.00153058,0.275398,20.6818,492.388,0.547445,0.0,0.0
2784,695.75,58.1055,62.7093,145.72,100.716,95.3836,0.00169023,0.26509,20.6927,492.288,0.499206,0.0,0.0
2792,697.75,57.9245,62.1787,145.049,100.722,94.4232,0.00183454,0.255662,20.7008,492.208,0.592555,0.0,0.0
2800,699.75,57.4039,61.2546,146.917,100.719,96.7167,0.00204639,0.247317,20.708,492.088,0.372033,0.0,0.0
2808,701.75,56.7885,60.8331,145.801,100.735,96.4566,0.00225993,0.239729,20.7123,492.018,0.398286,0.0,0.0
2816,703.75,56.599,59.7976,146.835,100.722,97.7745,0.00251941,0.234059,20.7161,491.968,0.272521,0.0,0.0
2824,705.75,56.2028,59.6464,149.249,100.72,97.7633,0.00275745,0.227857,20.7204,491.878,0.273418,0.0,0.0
2832,707.75,55.14,58.6475,150.039,100.721,97.9809,0.0029563,0.221798,20.7264,491.828,0.25306,0.0,0.0
2840,709.75,54.7736,58.2096,152.633,100.729,98.1735,0.00305029,0.2166,20.7302,491.758,0.23582,0.0,0.0
2848,711.75,54.6305,57.6542,151.5,100.734,98.5544,0.00309532,0.211899,20.7349,491.688,0.200708,0.0,0.0
2856,713.75,54.2927,57.0265,149.444,100.733,97.9357,0.00318795,0.207283,20.74,491.668,0.258414,0.0,0.0
2864,715.75,53.6166,56.2481,153.342,100.735,98.2405,0.00330996,0.203113,20.7433,491.608,0.230129,0.0,0.0
2872,717.75,53.6708,55.7935,150.525,100.734,98.0397,0.00347006,0.199747,20.7456,491.517,0.248792,0.0,0.0
2880,719.75,53.2594,55.3649,152.732,100.725,97.9591,0.00361001,0.196737,20.7478,491.517,0.255478,0.0,0.0
2888,721.75,52.8784,55.1319,148.025,100.733,97.6629,0.00371224,0.19433,20.7489,491.427,0.284049,0.0,0.0
2896,723.75,52.3884,54.4079,150.235,100.728,98.3236,0.00382032,0.19264,20.7496,491.347,0.22169,0.0,0.0
2904,725.75,52.282,54.0195,149.676,100.716,97.7846,0.00400034,0.190948,20.751,491.327,0.271081,0.0,0.0
2912,727.75,51.8114,53.585,147.654,100.725,98.0042,0.00423103,0.189141,20.7546,491.257,0.251251,0.0,0.0
2920,729.75,51.6013,53.4682,147.865,100.723,97.8029,0.00436042,0.186954,20.7572,491.207,0.269932,0.0,0.0
2928,731.75,51.0268,52.8426,149.569,100.713,98.2167,0.00441612,0.184892,20.7606,491.137,0.230328,0.0,0.0
2936,733.75,51.2636,53.0201,149.378,100.698,98.2288,0.00445279,0.183058,20.762,491.077,0.227764,0.0,0.0
2944,735.75,50.7227,52.2522,154.255,100.706,97.8784,0.00441466,0.181577,20.7633,491.057,0.261305,0.0,0.0
2952,737.75,49.1367,50.8614,152.202,100.71,97.7628,0.00435597,0.180452,20.7655,490.997,0.272564,0.0,0.0
2960,739.75,48.2886,50.2967,149.644,100.691,97.9829,0.0044512,0.179437,20.7668,490.977,0.250203,0.0,0.0
2968,741.75,48.4926,50.5344,153.149,100.694,97.8242,0.00470021,0.178566,20.7674,490.887,0.265305,0.0,0.0
2976,743.75,48.4707,49.9625,149.231,100.718,97.5777,0.00496284,0.177544,20.7677,490.867,0.290629,0.0,0.0
2984,745.75,48.3876,49.7197,152.576,100.678,97.8668,0.00511494,0.1767,20.7686,490.797,0.259845,0.0,0.0
2992,747.75,48.2313,49.8135,150.07,100.675,97.6203,0.00512432,0.17592,20.7695,490.737,0.282718,0.0,0.0
3000,749.75,47.6921,49.7351,154.76,100.676,97.4652,0.00513881,0.174928,20.7699,490.677,0.297465,0.0,0.0
3008,751.75,47.8116,49.1427,150.592,100.671,97.5047,0.00528167,0.173932,20.771,490.647,0.293253,0.0,0.0
3016,753.75,47.4306,49.7522,145.949,100.657,97.6883,0.00539087,0.173241,20.7711,490.587,0.274679,0.0,0.0
3024,755.75,47.3766,49.0501,151.15,100.655,97.8962,0.00540213,0.172674,20.7713,490.557,0.255059,0.0,0.0
3032,757.75,46.9278,48.3901,151.239,100.647,98.3155,0.00553993,0.171847,20.7716,490.507,0.215047,0.0,0.0
3040,759.75,47.2857,48.8231,152.523,100.637,98.1061,0.00574956,0.171361,20.7718,490.456,0.233674,0.0,0.0
3048,761.75,46.6999,48.3016,152.951,100.634,97.4383,0.00581448,0.170699,20.7725,490.416,0.296087,0.0,0.0
3056,763.75,46.9737,48.3161,149.413,100.629,97.3724,0.005754,0.16983,20.7753,490.346,0.301883,0.0,0.0
3064,765.75,45.8682,47.9924,150.821,100.622,97.5929,0.00573552,0.1686,20.7774,490.306,0.28052,0.0,0.0
3072,767.75,46.3522,47.8936,150.761,100.631,97.3967,0.0057481,0.167601,20.7783,490.286,0.299741,0.0,0.0
3080,769.75,45.8253,47.5896,152.272,100.608,97.5265,0.00571726,0.166589,20.7786,490.306,0.285452,0.0,0.0
3088,771.75,46.1002,47.5367,152.494,100.604,97.8734,0.00564957,0.166177,20.7788,490.266,0.252537,0.0,0.0
3096,773.75,46.0823,47.0935,155.303,100.583,97.7801,0.0056944,0.165672,20.7798,490.236,0.259334,0.0,0.0
3104,775.75,45.4542,47.056,152.617,100.588,97.7157,0.00576982,0.165201,20.7806,490.186,0.265868,0.0,0.0
3112,777.75,45.8093,46.7866,158.231,100.577,97.4763,0.00580266,0.164982,20.78,490.156,0.287318,0.0,0.0
3120,779.75,45.192,46.6355,153.391,100.567,97.6269,0.00584693,0.164673,20.7793,490.106,0.27225,0.0,0.0
3128,781.75,45.3359,46.6399,153.935,100.57,97.3982,0.00596093,0.164016,20.7802,490.046,0.294072,0.0,0.0
3136,783.75,45.1524,46.7768,150.959,100.562,97.2547,0.00605604,0.163396,20.7807,490.006,0.306886,0.0,0.0
3144,785.75,45.1788,46.4355,152.283,100.564,97.5372,0.00620924,0.162966,20.7809,489.966,0.280426,0.0,0.0
3152,787.75,45.2577,46.2132,150.969,100.545,97.2938,0.0064648,0.162618,20.7816,489.946,0.301585,0.0,0.0
3160,789.75,44.9647,46.4781,153.71,100.543,97.3835,0.00675608,0.162383,20.7831,489.876,0.293011,0.0,0.0
3168,791.75,44.8001,45.9473,153.588,100.545,97.1422,0.00699988,0.161605,20.785,489.836,0.315933,0.0,0.0
3176,793.75,44.5367,45.8726,156.019,100.553,97.4804,0.00708642,0.160857,20.7862,489.796,0.284793,0.0,0.0
3184,795.75,44.2521,45.8376,149.648,100.539,97.7035,0.00712041,0.160418,20.7878,489.796,0.262536,0.0,0.0
3192,797.75,44.2177,46.0346,149.886,100.562,97.165,0.00725042,0.159978,20.7884,489.756,0.315358,0.0,0.0
3200,799.75,44.3522,45.5296,152.001,100.53,97.5985,0.00742226,0.159971,20.7879,489.716,0.271571,0.0,0.0
3208,801.75,44.1726,45.5386,152.065,100.531,97.5985,0.00756278,0.160326,20.7879,489.676,0.271609,0.0,0.0
3216,803.75,44.484,45.265,154.039,100.534,97.3719,0.00760989,0.160647,20.7879,489.636,0.293282,0.0,0.0
3224,805.75,44.1478,45.5717,153.639,100.53,97.1994,0.00768068,0.160594,20.7882,489.606,0.309131,0.0,0.0
3232,807.75,44.3603,45.1191,153.551,100.531,97.3632,0.0077698,0.160428,20.7894,489.586,0.293794,0.0,0.0
3240,809.75,44.0937,45.102,153.44,100.537,97.4388,0.00777965,0.159987,20.7905,489.536,0.28724,0.0,0.0
3248,811.75,43.9483,44.9583,154.379,100.535,97.4738,0.00771826,0.159293,20.7922,489.506,0.283758,0.0,0.0
3256,813.75,43.3666,45.0216,154.735,100.531,97.636,0.00766788,0.159066,20.792,489.476,0.268119,0.0,0.0
3264,815.75,43.5797,45.0577,150.347,100.527,97.2811,0.00756748,0.15931,20.7915,489.456,0.301202,0.0,0.0
3272,817.75,43.3903,45.2159,149.144,100.533,97.7623,0.00750931,0.159319,20.7919,489.426,0.256448,0.0,0.0
3280,819.75,43.5138,45.2175,154.087,100.531,97.5483,0.00754939,0.159168,20.7928,489.385,0.276367,0.0,0.0
3288,821.75,43.1388,44.9262,156.076,100.533,97.1989,0.00762452,0.159074,20.7932,489.355,0.309479,0.0,0.0
3296,823.75,43.3446,44.514,154.092,100.535,97.2202,0.00770586,0.159452,20.7917,489.295,0.30762,0.0,0.0
3304,825.75,43.1769,44.5752,154.379,100.526,97.2796,0.00785147,0.160263,20.7872,489.225,0.301231,0.0,0.0
3312,827.75,43.1827,44.2601,150.954,100.549,97.8074,0.00799003,0.161342,20.7848,489.205,0.253643,0.0,0.0
3320,829.75,43.3229,44.5947,151.44,100.524,97.4596,0.008204,0.162145,20.7838,489.145,0.284079,0.0,0.0
3328,831.75,43.2563,44.2713,152.629,100.52,97.1097,0.00834931,0.16285,20.7833,489.135,0.316705,0.0,0.0
3336,833.75,42.8867,44.3269,150.766,100.529,97.5534,0.00833984,0.163054,20.7833,489.115,0.275703,0.0,0.0
3344,835.75,42.6295,44.4177,154.443,100.546,97.3541,0.00832518,0.16298,20.7845,489.075,0.296046,0.0,0.0
3352,837.75,42.347,44.3718,156.209,100.519,97.4292,0.00844553,0.162631,20.7862,489.075,0.28653,0.0,0.0
3360,839.75,43.1373,44.029,148.496,100.519,97.205,0.00861578,0.162419,20.7875,489.055,0.307664,0.0,0.0
3368,841.75,42.4555,44.2261,149.675,100.517,97.5392,0.00884175,0.162088,20.7889,489.025,0.275984,0.0,0.0
3376,843.75,42.6562,43.9318,149.427,100.519,97.3729,0.00913744,0.161707,20.789,488.955,0.291795,0.0,0.0
3384,845.75,42.2718,44.4897,160.308,100.517,97.1797,,0.161445,,488.925,0.309869,0.0,0.0
3392,847.75,42.3829,44.0466,152.917,100.529,97.418,,0.160922,,488.925,0.288447,0.0,0.0
3400,849.75,42.6728,43.7388,154.368,100.511,97.3059,,,,488.875,0.29739,0.0,0.0
3408,851.75,41.726,44.1247,152.452,100.512,97.1183,,,,488.865,0.315176,0.0,0.0
3416,853.75,42.2757,43.7077,152.596,100.514,97.1538,,,,488.795,0.312011,0.0,0.0
3424,855.75,41.5914,43.5386,153.344,100.511,97.3856,,,,488.835,0.289848,0.0,0.0
3425,856,41.332,43.3852,151.4,100.516,97.4692,,,,488.845,0.282457,0.0,0.0