File: 01_Data/OSB/Cone/OSB_Cone_HF25Scan_210324_R1.csv
Names,Time,Stack TC,Smoke TC,Exh Press,Smoke Comp,Smoke Meas,CO Meter,CO2 Meter,O2 Meter,Sample Mass,Ext Coeff,Start Test,Flame Verif
Chan Gain,,500,500,1,1,1,1,1,1,1,1,1.0,1.0
Offset,,0,0,0.194005,0,0,0,0,0,0,0,0.0,0.0
Gain,,1,1,25.011,13.5067,16.616,1,1,1,1.00091,1.04608,1.0,1.0
Units,sec,C,C,Pa,%,%,%,%,%,g,/m,,
Baseline,,19.3885,20.7331,168.415,101.533,101.007,0.000382504,0.0554388,20.9393,-0.8044,0.0477379,,
11,2.5,17.991,18.6039,167.362,101.282,100.76,0.000449682,0.0580296,20.9369,576.515,0.0474379,0.0,0.0
22,5.25,17.1596,18.6034,167.943,101.092,100.591,0.000351742,0.0577951,20.9375,576.495,0.0455213,0.0,0.0
33,8,17.9239,19.0432,162.871,100.986,100.442,0.000327425,0.0570643,20.9377,576.495,0.0495858,0.0,0.0
44,10.75,17.6879,19.6143,167.074,101.076,100.61,1.3111e-05,0.056562,20.9393,576.435,0.0424263,0.0,0.0
55,13.5,18.3728,19.4719,164.38,101.193,100.729,-0.000144541,0.0558505,20.9399,576.435,0.0421563,0.0,0.0
66,16.25,18.0469,19.8042,165.204,101.321,100.872,9.20036e-05,0.0560789,20.9395,576.405,0.0407101,0.0,0.0
77,19,18.531,19.6725,172.141,101.429,100.729,0.000161143,0.0566239,20.9378,576.375,0.0635406,0.0,0.0
88,21.75,18.6585,19.9791,166.277,101.57,100.847,0.000197673,0.0562967,20.9399,576.355,0.065574,0.0,0.0
99,24.5,18.1293,19.7528,169.433,101.665,101.081,0.000329915,0.0560347,20.942,576.315,0.0528438,0.0,0.0
110,27.25,18.1895,20.0985,166.603,101.743,101.055,0.000301085,0.0561322,20.9426,576.265,0.0622565,0.0,0.0
121,30,17.7963,19.6663,172.969,101.763,101.142,0.000212472,0.0561528,20.9428,576.245,0.0561343,0.0,0.0
132,32.75,18.6167,19.9692,171.699,101.749,101.041,0.000156708,0.0562595,20.9421,576.225,0.0640761,0.0,0.0
143,35.5,18.2904,19.8135,171.277,101.685,101.01,0.000230223,0.0566432,20.9411,576.164,0.0611134,0.0,0.0
154,38.25,18.5696,20.3733,168.125,101.545,100.698,0.000440666,0.0569915,20.9413,576.154,0.0768765,0.0,0.0
165,41,18.6596,20.1487,166.271,101.348,100.552,0.000519484,0.0572552,20.9414,576.144,0.0724105,0.0,0.0
176,43.75,18.5693,20.4049,167.002,101.127,100.308,0.000418311,0.0577874,20.9406,576.104,0.0745949,0.0,0.0
187,46.5,18.401,20.0075,165.244,100.878,99.9701,0.000228563,0.0581233,20.9386,576.044,0.082923,0.0,0.0
198,49.25,18.6408,20.3124,165.96,100.622,99.8621,0.000148846,0.0577697,20.9378,575.994,0.0695666,0.0,0.0
209,52,18.1358,20.4185,165.516,100.365,99.5325,0.000267777,0.057424,20.9375,575.984,0.0764545,0.0,0.0
220,54.75,18.4976,20.0706,168.114,100.13,99.2308,0.000439094,0.0583571,20.9364,575.944,0.082806,0.0,0.0
231,57.5,18.1972,20.2247,171.277,99.9329,99.1725,0.000447687,0.0593532,20.9357,575.914,0.0700888,0.0,0.0
242,60.25,18.7546,20.1815,166.601,99.8443,99.0036,0.000477052,0.0593021,20.9363,575.854,0.0775848,0.0,0.0
253,63,18.604,19.9187,171.062,99.8331,99.0422,0.000435977,0.0581893,20.9377,575.844,0.0729911,0.0,0.0
264,65.75,18.8422,20.2264,168.116,99.923,98.9124,0.000178225,0.0569338,20.9387,575.794,0.0932817,0.0,0.0
275,68.5,17.9464,19.9361,166.123,100.067,99.0985,0.000266788,0.0560474,20.9418,575.784,0.0892343,0.0,0.0
286,71.25,18.2956,20.016,170.195,100.278,99.281,0.000398572,0.055728,20.9429,575.744,0.0917158,0.0,0.0
297,74,18.3525,19.848,166.193,100.55,99.4874,0.000300506,0.0554295,20.9434,575.744,0.0974842,0.0,0.0
308,76.75,18.1795,19.8545,172.35,100.788,99.6395,0.000129813,0.0553966,20.9435,575.704,0.10518,0.0,0.0
319,79.5,18.7561,19.6907,169.419,100.977,99.7729,0.000154335,0.0555037,20.9431,575.664,0.110078,0.0,0.0
330,82.25,18.1288,19.9997,173.956,101.108,99.8124,0.000291322,0.0556125,20.9428,575.624,0.118344,0.0,0.0
341,85,18.5791,19.7675,167.255,101.152,99.8576,0.000380831,0.0558247,20.9427,575.614,0.118198,0.0,0.0
352,87.75,18.7544,20.6002,165.808,101.128,99.9671,0.000377677,0.0558776,20.9427,575.554,0.105933,0.0,0.0
363,90.5,18.6032,19.9466,171.581,101,99.639,0.000393276,0.0558144,20.9429,575.514,0.124495,0.0,0.0
374,93.25,18.4391,20.088,165.986,100.822,99.5995,0.000442206,0.0559501,20.9427,575.504,0.111984,0.0,0.0
385,96,18.2208,20.0993,165.67,100.638,99.172,0.000507356,0.0559883,20.942,575.454,0.134668,0.0,0.0
396,98.75,18.7855,19.7536,166.391,100.538,99.1223,0.000608847,0.0558581,20.9426,575.424,0.130167,0.0,0.0
407,101.5,18.3254,20.0139,164.019,100.996,99.4296,0.000660382,0.0557351,20.9428,575.384,0.14339,0.0,0.0
418,104.25,18.7076,19.6135,166.912,101.339,99.7546,0.000733389,0.0556967,20.9429,575.354,0.144586,0.0,0.0
429,107,19.312,20.7032,166.203,101.501,99.9275,0.000856281,0.0560572,20.9429,575.314,0.143351,0.0,0.0
440,109.75,18.4896,20.3783,169.341,101.43,99.9052,0.00095983,0.0561277,20.9416,575.294,0.138987,0.0,0.0
451,112.5,19.0688,20.3464,166.834,101.168,99.8865,0.000866614,0.056301,20.9409,575.254,0.116964,0.0,0.0
462,115.25,19.1083,20.2629,166.862,101.041,99.5589,0.000578546,0.0563647,20.9435,575.214,0.13562,0.0,0.0
473,118,18.7715,19.8413,168.039,101.234,99.4808,0.000472611,0.0564232,20.9444,575.164,0.160287,0.0,0.0
484,120.75,18.8283,20.2763,171.6,101.48,99.7425,0.000552142,0.0565417,20.9447,575.123,0.158498,0.0,0.0
495,123.5,19.1392,20.104,169.295,101.67,99.8758,0.000663899,0.0566827,20.9441,575.094,0.163366,0.0,0.0
506,126.25,18.9263,20.28,166.324,101.768,99.8925,0.000728697,0.0568276,20.9431,575.073,0.170641,0.0,0.0
517,129,18.4277,19.8594,169.585,101.699,99.7739,0.000732846,0.0571016,20.9427,575.033,0.175376,0.0,0.0
528,131.75,18.6341,20.1841,166.488,101.507,99.8636,0.000748834,0.0572655,20.9426,575.013,0.149814,0.0,0.0
539,134.5,19.0755,19.9795,167.643,101.182,99.2029,0.000887294,0.0577757,20.9426,574.963,0.181245,0.0,0.0
550,137.25,18.5587,20.8556,169.352,100.787,98.5752,0.000977047,0.0595611,20.9401,574.863,0.203615,0.0,0.0
561,140,18.9039,20.8922,170.474,100.394,97.9743,0.00101042,0.0615855,20.9378,574.863,0.223887,0.0,0.0
572,142.75,19.3614,21.2018,166.027,100.071,97.847,0.00128181,0.0624107,20.9363,574.783,0.20623,0.0,0.0
583,145.5,18.8739,21.2583,166.83,99.8748,97.5443,0.00146913,0.0624706,20.9358,574.743,0.216656,0.0,0.0
594,148.25,19.0842,21.1952,166.676,99.8381,97.0514,0.00149166,0.0626188,20.9357,574.723,0.259768,0.0,0.0
605,151,19.0325,20.9219,166.943,99.9403,97.278,0.00153989,0.06354,20.935,574.683,0.247753,0.0,0.0
616,153.75,18.9304,20.5772,167.118,100.136,97.6183,0.00161263,0.0643974,20.9333,574.683,0.233672,0.0,0.0
627,156.5,19.4263,21.0967,171.319,100.415,97.5757,0.00161796,0.0647203,20.9342,574.533,0.263214,0.0,0.0
638,159.25,19.3895,21.3785,173.998,100.697,98.3799,0.00155023,0.0644105,20.9346,574.463,0.213621,0.0,0.0
649,162,19.3272,21.2284,170.028,100.909,97.6193,0.0016344,0.0631695,20.9361,574.393,0.304128,0.0,0.0
660,164.75,19.4153,21.3088,165.653,101.085,98.4692,0.00159183,0.0620234,20.9383,574.403,0.240541,0.0,0.0
671,167.5,19.6232,20.5102,165.183,101.145,97.631,0.0014753,0.0610207,20.9391,574.343,0.324447,0.0,0.0
682,170.25,19.6687,20.7682,170.362,101.118,97.921,0.00152669,0.0605248,20.9394,574.323,0.294832,0.0,0.0
693,173,19.5471,21.055,163.532,101.003,97.3937,0.00159898,0.0623432,20.9343,574.233,0.333869,0.0,0.0
704,175.75,20.0563,22.0444,168.43,100.833,101.158,0.00163267,0.093418,20.8869,574.003,-0.029528,0.0,1.0
715,178.5,20.9636,24.1988,149.928,100.64,99.995,0.0017405,0.172427,20.7954,573.732,0.0589823,0.0,1.0
726,181.25,24.4406,30.0597,154.612,100.527,99.569,0.00210119,0.282698,20.6673,573.392,0.0878508,0.0,1.0
737,184,28.2986,35.3493,152.099,100.763,100.423,0.00251523,0.36303,20.5827,573.032,0.0309766,0.0,0.0
748,186.75,30.8304,39.0637,155.336,101.143,101.356,0.00291241,0.409636,20.5258,572.591,-0.0192939,0.0,0.0
759,189.5,32.781,42.211,150.156,101.367,100.743,0.00316754,0.435975,20.4983,572.181,0.0566974,0.0,0.0
770,192.25,34.5288,45.2035,150.079,101.444,100.372,0.00338951,0.446717,20.4889,571.791,0.0974691,0.0,0.0
781,195,36.1882,46.7055,152.61,101.465,99.9184,0.00340799,0.450117,20.4865,571.41,0.140909,0.0,0.0
792,197.75,36.9266,48.7079,151.272,101.463,100.162,0.00341108,0.452085,20.4858,570.97,0.118433,0.0,0.0
803,200.5,38.1713,49.932,153.121,101.481,99.7348,0.00355401,0.455464,20.4856,570.589,0.159273,0.0,0.0
814,203.25,38.7409,50.6191,150.022,101.442,100.04,0.00374911,0.454511,20.4855,570.189,0.127735,0.0,0.0
825,206,39.9936,52.1129,147.723,101.332,99.8317,0.00383697,0.453504,20.4852,569.839,0.136902,0.0,0.0
836,208.75,40.8108,52.1611,150.36,101.17,100.279,0.00392785,0.450287,20.4857,569.418,0.0811656,0.0,0.0
847,211.5,40.7677,52.4742,144.143,100.96,99.6273,0.00370233,0.442393,20.4948,569.038,0.121975,0.0,0.0
858,214.25,40.9251,52.2403,157.047,101.014,100.563,0.00329417,0.433086,20.5045,568.658,0.0411131,0.0,0.0
869,217,41.1012,52.8402,146.29,101.118,99.5477,0.00319635,0.431852,20.5065,568.297,0.143647,0.0,0.0
880,219.75,41.8437,53.054,148.129,101.219,98.6847,0.00332787,0.431429,20.5069,567.867,0.232633,0.0,0.0
891,222.5,41.622,53.3463,153.195,101.327,98.9169,0.00342673,0.431305,20.5059,567.567,0.220886,0.0,0.0
902,225.25,42.373,53.4286,154.826,101.427,100.323,0.00344545,0.431428,20.5055,567.146,0.100438,0.0,0.0
913,228,42.1838,53.3005,150.407,101.533,100.065,0.00350445,0.427723,20.5103,566.786,0.133646,0.0,0.0
924,230.75,42.6475,53.4959,150.354,101.636,99.677,0.00357117,0.420547,20.5199,566.456,0.178633,0.0,0.0
935,233.5,42.3425,52.9201,158.697,101.695,100.128,0.00341783,0.412159,20.5286,566.085,0.142548,0.0,0.0
946,236.25,42.3408,52.7878,156.491,101.741,99.8576,0.00309574,0.40711,20.5364,565.735,0.171478,0.0,0.0
957,239,42.7408,53.3493,148.113,101.772,100.307,0.00297124,0.407018,20.536,565.355,0.133027,0.0,0.0
968,241.75,43.1872,53.5062,150.556,101.805,100.373,0.00300004,0.406354,20.5364,565.024,0.129934,0.0,0.0
979,244.5,42.9387,53.2121,151.286,101.8,101.077,0.00285314,0.402143,20.5432,564.664,0.0654523,0.0,0.0
990,247.25,42.4402,52.6762,154.081,101.77,100.19,0.0029501,0.395119,20.5514,564.344,0.143599,0.0,0.0
1001,250,42.7978,52.2279,150.672,101.71,100.209,0.00296932,0.391271,20.5546,563.973,0.136417,0.0,0.0
1012,252.75,42.5547,52.7691,151.454,101.65,100.262,0.0028746,0.38879,20.5556,563.633,0.126149,0.0,0.0
1023,255.5,42.786,52.6607,142.649,101.564,100.589,0.00281937,0.387129,20.5576,563.263,0.0885301,0.0,0.0
1034,258.25,42.9883,52.4762,148.326,101.46,100.487,0.00289875,0.384981,20.5614,562.922,0.0884055,0.0,0.0
1045,261,42.92,52.3552,150.099,101.347,99.7617,0.00293656,0.380876,20.5672,562.622,0.144642,0.0,0.0
1056,263.75,43.0734,51.5529,149.161,101.214,99.5401,0.00285978,0.374399,20.5752,562.282,0.152984,0.0,0.0
1067,266.5,42.7979,51.6963,150.217,101.087,100.445,0.00292565,0.366951,20.586,561.972,0.0584878,0.0,0.0
1078,269.25,42.4158,51.2591,152.027,100.957,100.343,0.00284618,0.36045,20.5924,561.651,0.0559266,0.0,0.0
1089,272,42.3829,50.8791,157.771,100.821,100.045,0.00277382,0.354417,20.6016,561.361,0.0708986,0.0,0.0
1100,274.75,42.7246,50.617,154.548,100.689,99.4925,0.00272476,0.348187,20.6082,561.041,0.109684,0.0,0.0
1111,277.5,42.205,50.5013,157.249,100.552,99.8292,0.00267034,0.343258,20.6117,560.74,0.0662408,0.0,0.0
1122,280.25,42.3554,49.8641,152.579,100.443,99.6182,0.00270018,0.338455,20.6165,560.41,0.0756766,0.0,0.0
1133,283,41.7893,49.4565,155.355,100.338,101.115,0.00260613,0.335419,20.6203,560.15,-0.0707496,0.0,0.0
1144,285.75,42.2165,50.0899,151.753,100.254,100.248,0.00242647,0.333122,20.6216,559.85,0.000509733,0.0,0.0
1155,288.5,42.1281,49.0492,154.608,100.176,98.997,0.00233411,0.331548,20.623,559.549,0.108603,0.0,0.0
1166,291.25,41.9582,48.9543,154.604,100.11,99.421,0.00248592,0.330027,20.6241,559.259,0.0633885,0.0,0.0
1177,294,41.9043,49.0634,152.541,100.065,99.4509,0.00259448,0.327174,20.6272,558.969,0.0564702,0.0,0.0
1188,296.75,41.7248,49.1365,159.132,100.021,98.818,0.00251227,0.324021,20.6307,558.659,0.111002,0.0,0.0
1199,299.5,41.7403,48.8659,154.982,100.013,99.9539,0.00241065,0.321937,20.6338,558.378,0.00544809,0.0,0.0
1210,302.25,41.3681,49.0216,155.839,99.9766,99.8373,0.00233859,0.319582,20.6361,558.108,0.0127949,0.0,0.0
1221,305,41.7336,49.123,149.998,99.9774,99.2501,0.00236001,0.316939,20.6398,557.828,0.0669999,0.0,0.0
1232,307.75,41.3795,48.2746,151.063,99.9861,100.032,0.00256119,0.313124,20.6442,557.497,-0.00421404,0.0,0.0
1243,310.5,41.3182,48.1367,154.71,100.012,99.2531,0.00257743,0.308877,20.6494,557.257,0.0699336,0.0,0.0
1254,313.25,41.171,47.5552,149.98,100.024,99.8849,0.00247066,0.304554,20.6554,556.977,0.0127272,0.0,0.0
1265,316,41.5418,47.662,154.72,100.042,99.6395,0.00239346,0.299983,20.6605,556.747,0.0369642,0.0,0.0
1276,318.75,40.5737,46.7341,161.739,100.083,99.997,0.00223527,0.296252,20.6649,556.427,0.00784304,0.0,0.0
1287,321.5,40.4049,46.5589,156.75,100.119,99.4139,0.00215712,0.293453,20.668,556.186,0.0648745,0.0,0.0
1298,324.25,40.9312,47.0292,158.241,100.154,100.107,0.00223093,0.290547,20.6697,555.916,0.00433402,0.0,0.0
1309,327,40.3042,46.2881,155.864,100.208,100.309,0.00222972,0.286972,20.6742,555.656,-0.00920961,0.0,0.0
1320,329.75,40.65,46.1889,154.875,100.267,100.13,0.00216725,0.282926,20.6785,555.386,0.0124912,0.0,0.0
1331,332.5,39.5174,45.3968,154.591,100.356,100.09,0.00224429,0.280594,20.6822,555.165,0.0243077,0.0,0.0
1342,335.25,39.857,45.3992,152.963,100.405,100.637,0.00231298,0.278349,20.6849,554.915,-0.0211482,0.0,0.0
1353,338,39.8215,45.3089,157.109,100.476,100.329,0.00234247,0.276602,20.6862,554.655,0.0134449,0.0,0.0
1364,340.75,39.6281,45.0529,156.1,100.536,101.127,0.00228424,0.274992,20.6881,554.405,-0.0538161,0.0,0.0
1375,343.5,39.3,44.848,152.49,100.608,100.959,0.00226488,0.272503,20.6909,554.134,-0.0319547,0.0,0.0
1386,346.25,39.3727,44.1154,151.934,100.684,100.603,0.00213642,0.270564,20.6935,553.924,0.00737962,0.0,0.0
1397,349,39.2935,44.6694,155.247,100.744,100.67,0.00192146,0.270044,20.6961,553.644,0.00671286,0.0,0.0
1408,351.75,39.5936,44.7113,158.731,100.811,100.977,0.00203155,0.268353,20.6997,553.394,-0.0150899,0.0,0.0
1419,354.5,39.1348,44.0911,157.444,100.861,100.889,0.00210424,0.266561,20.7025,553.144,-0.00256715,0.0,0.0
1430,357.25,39.4259,44.4226,157.125,100.939,100.933,0.00207968,0.264777,20.7051,552.873,0.000505358,0.0,0.0
1441,360,38.9963,44.0319,159.325,100.982,101.742,0.00199893,0.262059,20.7061,552.653,-0.0688802,0.0,0.0
1452,362.75,38.9039,43.9206,155.355,101.02,101.506,0.00190851,0.260989,20.7077,552.423,-0.0439774,0.0,0.0
1463,365.5,39.0585,43.9319,156.613,101.06,101.382,0.00202088,0.259325,20.7102,552.173,-0.0291922,0.0,0.0
1474,368.25,38.7866,43.4576,154.481,101.098,102.272,0.00214123,0.257743,20.7124,551.922,-0.105945,0.0,0.0
1485,371,38.4542,43.2202,160.068,101.136,101.512,0.00217062,0.257946,20.7118,551.702,-0.0340966,0.0,0.0
1496,373.75,38.6562,43.2292,159.688,101.155,101.854,0.00226784,0.256606,20.7128,551.462,-0.0631889,0.0,0.0
1507,376.5,38.4123,43.0134,155.049,101.175,101.376,0.0021775,0.255775,20.7132,551.242,-0.0182509,0.0,0.0
1518,379.25,38.2547,42.8624,159.824,101.184,101.44,0.00208327,0.255086,20.7119,550.992,-0.0232108,0.0,0.0
1529,382,38.7915,42.7192,152.521,101.198,101.48,0.00210174,0.254443,20.7123,550.771,-0.0255623,0.0,0.0
1540,384.75,38.8685,43.1929,155.839,101.226,102.018,0.00195927,0.254288,20.7126,550.551,-0.0714578,0.0,0.0
1551,387.5,38.2798,42.6702,156.94,101.246,101.833,0.00181493,0.252262,20.714,550.321,-0.0530024,0.0,0.0
1562,390.25,38.1058,42.4523,159.343,101.261,101.216,0.00186898,0.250795,20.7162,550.071,0.00407379,0.0,0.0
1573,393,38.1776,42.8168,160.178,101.27,101.605,0.00188854,0.25014,20.7172,549.851,-0.0302589,0.0,0.0
1584,395.75,38.6546,42.6987,154.597,101.287,101.077,0.00191386,0.249038,20.7184,549.63,0.0189941,0.0,0.0
1595,398.5,38.4592,42.4118,158.263,101.303,101.049,0.00201523,0.247812,20.7188,549.37,0.0229831,0.0,0.0
1606,401.25,38.0827,41.9934,153.439,101.323,101.541,0.00206673,0.247329,20.719,549.16,-0.0197077,0.0,0.0
1617,404,37.5538,41.6938,158.782,101.31,101.807,0.00217564,0.2463,20.7204,548.92,-0.0449282,0.0,0.0
1628,406.75,37.7366,41.6903,155.525,101.315,101.972,0.00217522,0.244643,20.7231,548.71,-0.0593138,0.0,0.0
1639,409.5,37.5264,41.2605,152.489,101.324,101.477,0.00201263,0.243207,20.724,548.529,-0.0137735,0.0,0.0
1650,412.25,36.8908,40.9843,156.346,101.336,102.346,0.00190502,0.243462,20.7239,548.259,-0.0909949,0.0,0.0
1661,415,37.3408,41.2124,154.283,101.324,101.734,0.00188613,0.243973,20.7227,548.049,-0.0370297,0.0,0.0
1672,417.75,37.1953,41.4633,153.576,101.325,101.43,0.00184792,0.244043,20.7228,547.849,-0.00947952,0.0,0.0
1683,420.5,37.579,40.8527,160.504,101.318,101.88,0.00188612,0.242488,20.7269,547.639,-0.0507154,0.0,0.0
1694,423.25,37.7252,41.6893,156.412,101.334,102.275,0.00186847,0.241765,20.7287,547.358,-0.0848434,0.0,0.0
1705,426,36.8144,40.5954,159.534,101.336,101.29,0.00185334,0.241214,20.7292,547.168,0.00424327,0.0,0.0
1716,428.75,37.2736,41.1946,157.344,101.329,101.947,0.00168116,0.240714,20.7286,546.938,-0.0558172,0.0,0.0
1727,431.5,36.953,40.7455,156.64,101.32,102.334,0.00171566,0.241576,20.7277,546.728,-0.0913512,0.0,0.0
1738,434.25,36.7898,40.9254,156.459,101.315,101.461,0.00180829,0.240592,20.7281,546.518,-0.0132942,0.0,0.0
1749,437,37.0272,40.8567,157.709,101.32,102.002,0.00162502,0.239808,20.7291,546.317,-0.0615666,0.0,0.0
1760,439.75,36.9393,40.9194,159.167,101.317,102.109,0.0014856,0.239407,20.73,546.067,-0.0714848,0.0,0.0
1771,442.5,37.0157,40.9241,158.797,101.312,101.74,0.00170788,0.237733,20.7327,545.867,-0.0387064,0.0,0.0
1782,445.25,37.1675,40.6584,154.681,101.315,102.024,0.00211435,0.236,20.7344,545.677,-0.0639379,0.0,0.0
1793,448,37.0139,40.7883,157.515,101.3125,101.521,0.00221661,0.236028,20.7337,545.447,-0.018891,0.0,0.0
1804,450.75,36.8862,40.6491,158.684,101.316,102.262,0.00208254,0.235284,20.734,545.226,-0.0852281,0.0,0.0
1815,453.5,36.023,39.9528,155.403,101.323,102.155,0.00193098,0.234489,20.7364,545.026,-0.0750712,0.0,0.0
1826,456.25,36.6673,40.2194,162.368,101.305,101.926,0.00178249,0.234177,20.7371,544.796,-0.0560736,0.0,0.0
1837,459,36.5454,40.4957,154.325,101.299,101.987,0.00157617,0.234599,20.7373,544.576,-0.0620644,0.0,0.0
1848,461.75,36.5946,40.3346,155.749,101.307,101.292,0.00157194,0.233653,20.7374,544.406,0.00140881,0.0,0.0
1859,464.5,36.4159,40.3383,158.525,101.297,101.865,0.00165551,0.232507,20.7382,544.175,-0.0512489,0.0,0.0
1870,467.25,36.8454,40.242,154.16,101.29,101.879,0.0016844,0.233015,20.7386,543.975,-0.0531999,0.0,0.0
1881,470,36.3766,40.3915,158.434,101.283,101.719,0.00171772,0.232823,20.7395,543.755,-0.0393534,0.0,0.0
1892,472.75,35.8876,39.9267,160.33,101.291,101.877,0.00170968,0.231696,20.7415,543.565,-0.0528682,0.0,0.0
1903,475.5,36.5462,40.2013,157.01,101.288,102.293,0.00150442,0.231478,20.7421,543.375,-0.090542,0.0,0.0
1914,478.25,36.0966,40.1886,156.39,101.291,102.531,0.00125254,0.231616,20.7414,543.164,-0.111635,0.0,0.0
1925,481,36.4735,39.9665,164.605,101.28,101.459,0.0011233,0.230776,20.7422,542.924,-0.0161643,0.0,0.0
1936,483.75,35.9686,39.8641,160.051,101.273,101.653,0.00119304,0.230624,20.743,542.744,-0.0343475,0.0,0.0
1947,486.5,36.079,39.3586,154.974,101.285,101.412,0.00127925,0.230012,20.7432,542.554,-0.0114957,0.0,0.0
1958,489.25,36.0174,39.743,159.274,101.28,101.595,0.00135996,0.229769,20.7435,542.324,-0.0284839,0.0,0.0
1969,492,36.4501,40.3531,161.113,101.285,101.728,0.00136565,0.229385,20.745,542.154,-0.0400357,0.0,0.0
1980,494.75,36.2196,39.958,160.244,101.288,102.115,0.00124839,0.228721,20.7454,541.943,-0.074608,0.0,0.0
1991,497.5,35.7239,39.8486,157.863,101.276,101.983,0.0012623,0.22803,20.7456,541.743,-0.0638278,0.0,0.0
2002,500.25,36.0699,39.4822,158.579,101.296,102.23,0.00141989,0.227566,20.7463,541.523,-0.0841904,0.0,0.0
2013,503,35.7974,39.2747,155.102,101.312,101.67,0.00164616,0.227127,20.7474,541.353,-0.0323472,0.0,0.0
2024,505.75,36.0472,39.6997,154.691,101.307,101.843,0.00167366,0.226842,20.7473,541.123,-0.0484712,0.0,0.0
2035,508.5,35.8056,39.4633,162.407,101.303,102.097,0.00153045,0.226767,20.7477,540.962,-0.0716601,0.0,0.0
2046,511.25,36.0425,39.7338,160.998,101.313,101.541,0.00163737,0.225802,20.7479,540.752,-0.0205951,0.0,0.0
2057,514,35.9326,39.138,153.758,101.322,101.977,0.00174963,0.224535,20.7491,540.532,-0.0591068,0.0,0.0
2068,516.75,35.6991,39.0007,157.357,101.343,101.942,0.00159618,0.223901,20.7504,540.342,-0.0540449,0.0,0.0
2079,519.5,35.7987,39.1552,165.693,101.334,101.862,0.00143954,0.222774,20.7515,540.142,-0.0476894,0.0,0.0
2090,522.25,35.6888,39.3305,153.598,101.328,101.783,0.00137583,0.222853,20.7512,539.942,-0.0410915,0.0,0.0
2101,525,35.2815,38.7635,162.484,101.337,102.393,0.00132998,0.221745,20.7517,539.781,-0.0951476,0.0,0.0
2112,527.75,35.4464,38.6443,157.908,101.349,101.577,0.0012695,0.220486,20.7529,539.571,-0.0206094,0.0,0.0
2123,530.5,35.705,39.017,158.688,101.332,102.75,0.00130462,0.220388,20.7532,539.371,-0.127531,0.0,0.0
2134,533.25,35.2711,38.4875,155.374,101.338,102.105,0.00153785,0.21986,20.7537,539.191,-0.0692246,0.0,0.0
2145,536,35.1515,38.431,160.817,101.327,101.855,0.00161883,0.219003,20.7542,538.991,-0.0477301,0.0,0.0
2156,538.75,35.1569,38.3154,165.947,101.339,101.955,0.00155316,0.21797,20.7553,538.77,-0.0556516,0.0,0.0
2167,541.5,34.79,38.0478,157.7,101.319,102.179,0.00151704,0.218902,20.7543,538.62,-0.0775475,0.0,0.0
2178,544.25,35.1213,37.9649,164.167,101.31,101.792,0.00155997,0.219747,20.7532,538.42,-0.0435196,0.0,0.0
2189,547,34.9733,38.2547,160.474,101.294,101.876,0.00139797,0.219006,20.7544,538.23,-0.0525893,0.0,0.0
2200,549.75,35.1526,37.9676,154.962,101.279,101.819,0.00125158,0.217159,20.756,538.06,-0.0488627,0.0,0.0
2211,552.5,34.8583,38.1624,157.976,101.264,101.646,0.00141282,0.216792,20.756,537.86,-0.034482,0.0,0.0
2222,555.25,34.9419,38.3025,157.057,101.252,102.05,0.00152076,0.217982,20.7553,537.679,-0.0720603,0.0,0.0
2233,558,34.783,38.4276,153.803,101.234,102.079,0.00154661,0.218421,20.757,537.459,-0.0763021,0.0,0.0
2244,560.75,34.8509,38.6461,158.228,101.207,101.585,0.00167612,0.218924,20.7568,537.289,-0.0342635,0.0,0.0
2255,563.5,35.0905,38.2835,158.599,101.19,101.785,0.00173654,0.218175,20.7568,537.109,-0.0537501,0.0,0.0
2266,566.25,34.6915,38.3545,158.496,101.151,101.835,0.001679,0.21761,20.7575,536.939,-0.0619014,0.0,0.0
2277,569,34.9283,38.1785,157.742,101.127,101.626,0.00146158,0.217482,20.7577,536.709,-0.0452261,0.0,0.0
2288,571.75,34.8788,38.1695,156.705,101.085,101.738,0.00127234,0.217872,20.7573,536.548,-0.0591547,0.0,0.0
2299,574.5,34.585,37.5329,155.925,101.052,101.872,0.00129618,0.217917,20.757,536.378,-0.0741316,0.0,0.0
2310,577.25,34.7958,38.1268,159.931,101.007,101.726,0.00146953,0.217562,20.7576,536.198,-0.0650114,0.0,0.0
2321,580,34.5601,38.0055,158.258,100.965,101.322,0.00171373,0.217331,20.7568,536.008,-0.0323872,0.0,0.0
2332,582.75,34.8864,37.9665,156.67,100.926,101.456,0.00168563,0.217104,20.7562,535.838,-0.0480242,0.0,0.0
2343,585.5,34.5584,37.5198,159.832,100.885,101.631,0.00140967,0.216411,20.756,535.638,-0.0676657,0.0,0.0
2354,588.25,34.6183,37.9023,163.616,100.839,101.389,0.00123453,0.21599,20.7559,535.477,-0.049963,0.0,0.0
2365,591,34.6821,37.7972,155.904,100.811,101.373,0.00128417,0.217013,20.7551,535.277,-0.0510074,0.0,0.0
2376,593.75,34.4586,37.9372,157.828,100.783,101.34,0.00140031,0.217808,20.754,535.087,-0.0505674,0.0,0.0
2387,596.5,34.9583,38.0591,159.369,100.737,101.41,0.0013052,0.217413,20.7551,534.917,-0.0610309,0.0,0.0
2398,599.25,34.7068,37.8248,157.308,100.69,101.453,0.00133629,0.217372,20.7556,534.747,-0.0692858,0.0,0.0
2409,602,34.4838,37.9309,159.684,100.651,101.331,0.00134658,0.217501,20.7553,534.547,-0.0618414,0.0,0.0
2420,604.75,34.2758,38.0656,155.905,100.617,101.064,0.00126508,0.21693,20.7545,534.376,-0.0406921,0.0,0.0
2431,607.5,34.4694,37.8972,162.889,100.585,101.149,0.00134556,0.216938,20.7552,534.176,-0.0512346,0.0,0.0
2442,610.25,34.7938,37.7637,166.891,100.54,100.875,0.00151808,0.216622,20.7562,534.016,-0.0305811,0.0,0.0
2453,613,34.1902,37.8056,160.585,100.501,101.209,0.00158776,0.215424,20.7573,533.836,-0.0644193,0.0,0.0
2464,615.75,34.6234,37.6669,159.32,100.475,101.009,0.00160149,0.214976,20.757,533.676,-0.0486213,0.0,0.0
2475,618.5,34.1482,37.4261,159.409,100.448,100.905,0.00159428,0.216645,20.756,533.466,-0.0416948,0.0,0.0
2486,621.25,33.9483,37.7766,163.645,100.418,101.008,0.00151488,0.216856,20.7542,533.345,-0.0536791,0.0,0.0
2497,624,34.36,37.3206,158.419,100.376,100.896,0.0013276,0.216649,20.7535,533.125,-0.0474194,0.0,0.0
2508,626.75,34.1737,37.5531,162.21,100.331,100.503,0.0013037,0.215903,20.7551,532.935,-0.0157172,0.0,0.0
2519,629.5,34.187,37.9966,157.422,100.315,100.832,0.00145357,0.216283,20.7555,532.795,-0.0471858,0.0,0.0
2530,632.25,34.1492,37.7304,156.13,100.287,100.831,0.001536,0.216373,20.7555,532.585,-0.0496578,0.0,0.0
2541,635,34.6975,37.708,155.508,100.25,100.978,0.00153778,0.216974,20.7555,532.425,-0.0663792,0.0,0.0
2552,637.75,34.5606,37.8881,160.152,100.207,101.24,0.00148777,0.217171,20.7555,532.245,-0.0940579,0.0,0.0
2563,640.5,34.2207,37.6657,155.149,100.178,101.571,0.00133431,0.216573,20.7568,532.094,-0.126748,0.0,0.0
2574,643.25,33.9815,37.4736,162.611,100.156,100.452,0.00121974,0.216573,20.7572,531.904,-0.0270844,0.0,0.0
2585,646,34.1258,37.489,161.023,100.14,100.938,0.00140431,0.21695,20.756,531.744,-0.0728249,0.0,0.0
2596,648.75,34.0225,37.7116,156.624,100.112,100.535,0.00157756,0.216351,20.7555,531.554,-0.0386646,0.0,0.0
2607,651.5,34.3005,37.5287,157.035,100.091,100.368,0.00157188,0.215926,20.755,531.414,-0.0253144,0.0,0.0
2618,654.25,34.267,37.6328,154.858,100.086,101.296,0.00136948,0.21683,20.7549,531.214,-0.110263,0.0,0.0
2629,657,34.2098,37.607,156.349,100.065,101.108,0.00119621,0.217599,20.7549,531.033,-0.0951697,0.0,0.0
2640,659.75,34.4372,37.8517,159.211,100.065,100.565,0.00130911,0.218791,20.7533,530.853,-0.0457961,0.0,0.0
2651,662.5,34.5158,37.7463,158.515,100.054,100.596,0.00138503,0.219618,20.7528,530.653,-0.0495918,0.0,0.0
2662,665.25,34.3788,37.6875,156.538,100.05,100.535,0.00141864,0.219124,20.7526,530.473,-0.0443714,0.0,0.0
2673,668,34.2903,37.9621,157.975,100.047,100.37,0.00144808,0.219851,20.7514,530.353,-0.02959,0.0,0.0
2684,670.75,34.4004,37.6223,162.173,100.04,100.659,0.00135776,0.220581,20.7492,530.193,-0.0565359,0.0,0.0
2695,673.5,34.3428,38.1563,156.409,100.041,100.463,0.00128701,0.221851,20.7483,530.022,-0.0385998,0.0,0.0
2706,676.25,34.0684,37.5752,157.439,100.038,100.836,0.00140996,0.221918,20.7481,529.842,-0.0728812,0.0,0.0
2717,679,34.2367,37.9968,157.673,100.052,100.391,0.00163905,0.222707,20.7469,529.662,-0.031075,0.0,0.0
2728,681.75,34.4585,37.601,158.832,100.062,100.168,0.00187329,0.22346,20.746,529.482,-0.00967608,0.0,0.0
2739,684.5,34.3097,37.959,157.468,100.083,100.107,0.00189979,0.223979,20.7458,529.302,-0.0022099,0.0,0.0
2750,687.25,34.3891,38.3173,157.499,100.089,100.562,0.00172101,0.224294,20.7457,529.142,-0.0432888,0.0,0.0
2761,690,34.2641,37.9972,156.671,100.109,100.602,0.0015872,0.225429,20.7449,528.921,-0.0450909,0.0,0.0
2772,692.75,34.5379,38.3163,158.968,100.144,100.332,0.00139559,0.226813,20.7438,528.781,-0.0172705,0.0,0.0
2783,695.5,34.4767,38.3166,158.563,100.172,100.587,0.00140676,0.227143,20.7434,528.591,-0.0379622,0.0,0.0
2794,698.25,34.1715,38.0856,154.839,100.218,100.732,0.00142849,0.228538,20.7411,528.411,-0.0469466,0.0,0.0
2805,701,34.4815,38.4124,158.608,100.267,100.547,0.00149181,0.230913,20.738,528.251,-0.0255897,0.0,0.0
2816,703.75,34.923,38.8136,160.893,100.32,100.419,0.0015668,0.232167,20.7365,528.071,-0.00908423,0.0,0.0
2827,706.5,35.2238,38.9715,165.185,100.359,100.813,0.00144028,0.233316,20.7358,527.871,-0.041436,0.0,0.0
2838,709.25,34.9201,38.9419,162.753,100.41,100.697,0.00135926,0.23415,20.7342,527.71,-0.0261508,0.0,0.0
2849,712,35.0344,38.8559,161.973,100.48,100.545,0.00138968,0.234974,20.7337,527.53,-0.00587656,0.0,0.0
2860,714.75,35.0514,38.689,158.652,100.54,101.096,0.00148866,0.235192,20.7333,527.36,-0.0506697,0.0,0.0
2871,717.5,35.1044,39.1479,155.91,100.606,101.1,0.00142513,0.236621,20.7308,527.18,-0.0449375,0.0,0.0
2882,720.25,35.1035,38.9859,161.155,100.688,101.44,0.00128952,0.237899,20.7292,527.02,-0.06829,0.0,0.0
2893,723,35.1156,39.4276,156.968,100.776,101.472,0.00124056,0.238062,20.7285,526.82,-0.0631812,0.0,0.0
2904,725.75,35.1266,38.9952,155.806,100.847,101.271,0.00113941,0.23935,20.7272,526.629,-0.0385509,0.0,0.0
2915,728.5,35.3196,39.2595,162.215,100.941,101.635,0.00114974,0.241447,20.7244,526.419,-0.0628508,0.0,0.0
2926,731.25,35.8477,39.3562,157.409,101.017,101.275,0.00129453,0.243956,20.7222,526.239,-0.0234789,0.0,0.0
2937,734,35.6637,39.5277,159.81,101.095,101.624,0.00150371,0.244472,20.72,526.029,-0.0478856,0.0,0.0
2948,736.75,35.4124,39.3669,156.656,101.181,102.435,0.00164718,0.246731,20.7178,525.869,-0.112992,0.0,0.0
2959,739.5,35.5492,39.6313,163.81,101.282,101.612,0.00154608,0.248161,20.7171,525.659,-0.0297706,0.0,0.0
2970,742.25,35.4603,39.914,155.304,101.326,101.377,0.00150621,0.248043,20.7158,525.488,-0.00458723,0.0,0.0
2981,745,35.7159,39.9778,153.99,101.416,101.29,0.00165439,0.250355,20.713,525.288,0.0114064,0.0,0.0
2992,747.75,35.6108,40.0818,158.695,101.497,101.513,0.00165542,0.251792,20.7112,525.078,-0.00140137,0.0,0.0
3003,750.5,35.6574,39.8644,157.183,101.557,101.12,0.00165423,0.253374,20.7107,524.878,0.0395927,0.0,0.0
3014,753.25,35.5425,39.9479,157.033,101.613,101.422,0.00175935,0.254258,20.7096,524.698,0.0172266,0.0,0.0
3025,756,35.1866,39.7591,155.48,101.636,101.624,0.00193146,0.258089,20.7056,524.487,0.00106975,0.0,0.0
3036,758.75,36.3177,40.4596,154.305,101.706,101.704,0.00194464,0.26043,20.7033,524.267,0.000125795,0.0,0.0
3047,761.5,35.9965,40.4849,154.462,101.754,101.233,0.00171256,0.26196,20.7013,524.057,0.0470385,0.0,0.0
3058,764.25,36.2905,40.6426,159.859,101.795,101.872,0.0015492,0.264655,20.6981,523.867,-0.00693945,0.0,0.0
3069,767,36.7568,41.0817,158.37,101.831,101.685,0.00151339,0.267419,20.6965,523.677,0.0131707,0.0,0.0
3080,769.75,36.8749,41.3468,156.244,101.84,101.471,0.0015788,0.268163,20.6959,523.446,0.0332734,0.0,0.0
3091,772.5,36.4599,41.133,160.196,101.891,101.499,0.00156734,0.268907,20.6943,523.246,0.0353919,0.0,0.0
3102,775.25,36.7918,41.4814,155.684,101.9,101.425,0.00164595,0.271985,20.6912,523.006,0.0428596,0.0,0.0
3113,778,37.3309,41.8755,157.094,101.912,101.741,0.00185066,0.273733,20.6895,522.806,0.0153616,0.0,0.0
3124,780.75,37.3961,41.7558,157.302,101.907,101.503,0.0019622,0.275097,20.6875,522.566,0.0364358,0.0,0.0
3135,783.5,37.4354,41.856,154.806,101.918,100.981,0.00187447,0.276975,20.6841,522.376,0.0847397,0.0,0.0
3146,786.25,37.0313,42.3162,154.784,101.921,101.354,0.00173097,0.279108,20.6819,522.145,0.0511763,0.0,0.0
3157,789,37.5571,42.367,155.241,101.906,101.274,0.00171291,0.282915,20.6778,521.895,0.0570594,0.0,0.0
3168,791.75,37.5713,42.2904,154.407,101.909,101.304,0.00173291,0.285997,20.673,521.695,0.0546544,0.0,0.0
3179,794.5,37.8109,42.7848,155.23,101.858,101.135,0.0018299,0.288173,20.6705,521.465,0.06536,0.0,0.0
3190,797.25,38.2627,42.936,150.884,101.855,100.886,0.00187596,0.290247,20.6685,521.224,0.0877176,0.0,0.0
3201,800,37.9163,43.2287,156.609,101.825,101.206,0.00168688,0.292368,20.6652,520.984,0.0559875,0.0,0.0
3212,802.75,38.058,43.294,159.844,101.798,101.137,0.00150614,0.2946,20.6631,520.754,0.0597529,0.0,0.0
3223,805.5,38.2051,43.6233,155.036,101.762,100.08,0.00173357,0.297666,20.659,520.514,0.152902,0.0,0.0
3234,808.25,38.2265,43.8688,164.112,101.738,100.64,0.00206549,0.300171,20.6559,520.284,0.0995988,0.0,0.0
3245,811,38.8158,44.393,154.41,101.688,100.845,0.00225114,0.303836,20.6524,520.013,0.0764024,0.0,0.0
3256,813.75,39.1679,44.7776,156.742,101.643,99.9945,0.00224107,0.305454,20.6495,519.753,0.15009,0.0,0.0
3267,816.5,39.372,44.4804,151.989,101.581,100.278,0.00211476,0.309167,20.6454,519.513,0.118456,0.0,0.0
3278,819.25,39.239,45.0468,159.179,101.545,100.241,0.00188245,0.311334,20.6428,519.273,0.118567,0.0,0.0
3289,822,39.5298,45.436,154.679,101.503,99.5913,0.00182522,0.313744,20.6411,518.992,0.174461,0.0,0.0
3300,824.75,39.4965,45.4399,149.496,101.464,100.102,0.00191919,0.316534,20.6375,518.752,0.124029,0.0,0.0
3311,827.5,39.7727,45.5725,157.089,101.411,100.063,0.00194161,0.318948,20.6343,518.492,0.122715,0.0,0.0
3322,830.25,40.3415,45.3434,156.031,101.362,99.2861,0.00206475,0.321062,20.6326,518.232,0.189877,0.0,0.0
3333,833,40.1505,45.8149,156.645,101.321,99.4052,0.002278,0.322455,20.6298,517.951,0.175138,0.0,0.0
3344,835.75,40.566,46.2774,154.384,101.29,99.0817,0.00242417,0.328009,20.6231,517.711,0.202287,0.0,0.0
3355,838.5,40.3811,46.7146,156.193,101.249,98.8038,0.00240956,0.333029,20.617,517.421,0.224361,0.0,0.0
3366,841.25,40.8579,47.1239,155.554,101.215,99.0868,0.00222915,0.335128,20.6138,517.131,0.194981,0.0,0.0
3377,844,41.382,47.4957,153.327,101.191,98.919,0.00217157,0.338041,20.6116,516.861,0.208409,0.0,0.0
3388,846.75,41.9934,48.039,153.324,101.164,98.563,0.00229958,0.341057,20.6068,516.6,0.239021,0.0,0.0
3399,849.5,41.5786,47.915,159.062,101.144,98.8718,0.00224557,0.343902,20.6029,516.29,0.208485,0.0,0.0
3410,852.25,41.8418,48.3191,152.434,101.124,97.6695,0.00235203,0.346746,20.5997,516.03,0.318956,0.0,0.0
3421,855,41.8559,47.9566,150.313,101.1,99.2181,0.00252533,0.348565,20.5972,515.74,0.172396,0.0,0.0
3432,857.75,42.126,47.9474,152.563,101.156,99.3728,0.0025669,0.349119,20.5965,515.439,0.163227,0.0,0.0
3443,860.5,42.5386,48.675,150.77,101.228,97.9712,0.00273123,0.351885,20.59,515.159,0.300073,0.0,0.0
3454,863.25,42.4335,48.8382,152.87,101.294,97.7182,0.00284662,0.356454,20.5859,514.849,0.329817,0.0,0.0
3465,866,42.3663,48.9209,149.387,101.335,97.2999,0.00284411,0.361316,20.5812,514.538,0.372844,0.0,0.0
3476,868.75,42.6778,49.1539,150.953,101.384,97.1599,0.00280446,0.365333,20.5758,514.258,0.39053,0.0,0.0
3487,871.5,43.0705,49.5387,155.42,101.424,97.3196,0.00283314,0.367571,20.5731,513.928,0.379037,0.0,0.0
3498,874.25,42.9467,49.7765,150.641,101.469,97.7233,0.00315791,0.368932,20.5711,513.648,0.34516,0.0,0.0
3509,877,43.3025,49.805,157.364,101.5,97.6888,0.00336855,0.370394,20.5684,513.347,0.35123,0.0,0.0
3520,879.75,43.194,49.9782,152.768,101.54,97.7872,0.00331441,0.374681,20.5623,513.027,0.345534,0.0,0.0
3531,882.5,43.8525,50.4707,148.819,101.562,98.1888,0.0031155,0.378358,20.5595,512.707,0.309937,0.0,0.0
3542,885.25,44.6293,50.9053,151.134,101.589,98.3541,0.00306372,0.379546,20.5579,512.386,0.296958,0.0,0.0
3553,888,43.9331,51.0698,151.06,101.613,97.3693,0.00310904,0.384628,20.5542,512.026,0.391454,0.0,0.0
3564,890.75,44.1408,51.3381,149.351,101.618,97.1269,0.00308771,0.386566,20.5505,511.706,0.414735,0.0,0.0
3575,893.5,44.2747,51.4214,149.135,101.632,96.9429,0.00304076,0.388567,20.5481,511.375,0.433481,0.0,0.0
3586,896.25,44.779,51.9142,148.79,101.632,98.991,0.00304452,0.389985,20.5457,511.075,0.241564,0.0,0.0
3597,899,45.3826,52.0305,149.296,101.652,97.1994,0.00304993,0.394303,20.5416,510.735,0.410976,0.0,0.0
3608,901.75,45.583,52.6153,150.838,101.639,97.6472,0.00303693,0.398022,20.5367,510.425,0.367686,0.0,0.0
3619,904.5,45.6728,52.9143,148.398,101.625,98.3992,0.00310058,0.399844,20.534,510.074,0.296025,0.0,0.0
3630,907.25,45.9356,53.1698,152.973,101.615,97.1138,0.00320821,0.398804,20.5358,509.754,0.415719,0.0,0.0
3641,910,45.4942,52.7205,149.444,101.591,97.8921,0.00326007,0.398135,20.5365,509.414,0.340308,0.0,0.0
3652,912.75,45.5201,52.8835,155.457,101.604,97.2299,0.00333102,0.398785,20.5367,509.103,0.403824,0.0,0.0
3663,915.5,45.626,52.698,154.088,101.573,96.9763,0.00348745,0.398581,20.5364,508.773,0.424953,0.0,0.0
3674,918.25,45.9761,53.2604,153.526,101.539,96.3116,0.00384543,0.400844,20.5342,508.433,0.484981,0.0,0.0
3685,921,46.0063,53.3627,153.057,101.524,96.6954,0.00395637,0.404753,20.5296,508.103,0.447141,0.0,0.0
3696,923.75,45.9999,53.594,150.29,101.486,96.6097,0.00375821,0.40819,20.5267,507.752,0.451848,0.0,0.0
3707,926.5,46.2962,53.9714,158.282,101.477,96.6239,0.00370968,0.409052,20.5252,507.422,0.449717,0.0,0.0
3718,929.25,46.6739,54.0581,146.574,101.434,96.5509,0.00367088,0.409058,20.5254,507.072,0.452741,0.0,0.0
3729,932,46.6713,54.2502,152.734,101.395,95.8821,0.00365449,0.410918,20.522,506.751,0.513021,0.0,0.0
3740,934.75,46.9406,54.2276,153.184,101.334,96.1047,0.00386249,0.413788,20.5181,506.391,0.486182,0.0,0.0
3751,937.5,46.6384,54.6245,148.169,101.274,95.2254,0.00420174,0.416038,20.5158,506.071,0.56507,0.0,0.0
3762,940.25,47.1559,54.5584,145.895,101.223,94.948,0.00426757,0.416687,20.5133,505.73,0.587244,0.0,0.0
3773,943,47.581,54.9121,149.019,101.167,94.7406,0.00428745,0.421156,20.5077,505.33,0.602225,0.0,0.0
3784,945.75,47.5599,54.7835,157.912,101.099,96.2177,0.00435946,0.42223,20.5057,504.99,0.454092,0.0,0.0
3795,948.5,47.9675,55.03,145.88,101.037,94.4663,0.00453574,0.424592,20.5027,504.699,0.617051,0.0,0.0
3806,951.25,47.9562,55.3872,149.576,100.995,94.3831,0.00493596,0.426009,20.4992,504.299,0.621312,0.0,0.0
3817,954,47.9821,55.6164,149.035,100.961,95.2695,0.00520836,0.429724,20.4968,503.929,0.532431,0.0,0.0
3828,956.75,48.2674,55.7749,146.094,100.883,95.1037,0.00527489,0.431847,20.494,503.558,0.541333,0.0,0.0
3839,959.5,48.4643,56.1804,146.711,100.809,94.7447,0.00533922,0.437557,20.4873,503.198,0.569323,0.0,0.0
3850,962.25,48.5313,56.3413,146.284,100.756,94.3481,0.00544039,0.439433,20.4847,502.838,0.60293,0.0,0.0
3861,965,48.9527,56.5973,143.757,100.708,94.5555,0.00544186,0.439905,20.4827,502.477,0.578463,0.0,0.0
3872,967.75,49.2346,57.1503,151.144,100.693,94.1032,0.00560507,0.440805,20.4816,502.137,0.621074,0.0,0.0
3883,970.5,49.0778,57.2653,149.358,100.693,93.8938,0.00590318,0.439221,20.4813,501.777,0.641481,0.0,0.0
3894,973.25,49.2021,57.4037,147.307,100.693,93.6742,0.00611502,0.437227,20.4834,501.426,0.663038,0.0,0.0
3905,976,49.7609,57.4357,147.65,100.7,92.7448,0.00614404,0.43343,20.486,501.086,0.755181,0.0,0.0
3916,978.75,49.2292,56.9417,154.194,100.717,92.9359,0.00586266,0.429969,20.4895,500.726,0.737826,0.0,0.0
3927,981.5,49.1449,56.871,149.407,100.722,93.7158,0.00557921,0.427149,20.4926,500.396,0.661556,0.0,0.0
3938,984.25,49.2649,56.6665,152.457,100.735,93.9328,0.00577608,0.422677,20.4979,500.085,0.641571,0.0,0.0
3949,987,49.2519,56.5254,153.712,100.736,94.1306,0.00600394,0.41295,20.5101,499.765,0.622347,0.0,0.0
3960,989.75,49.0988,56.1032,152.12,100.742,93.0642,0.00586841,0.406682,20.517,499.385,0.727383,0.0,0.0
3971,992.5,48.7916,56.058,149.729,100.756,94.1712,0.00536106,0.396839,20.5268,499.144,0.620234,0.0,0.0
3982,995.25,48.7006,55.2557,155.916,100.753,94.6316,0.00498678,0.391898,20.5314,498.854,0.57514,0.0,0.0
3993,998,48.1313,55.0707,155.73,100.766,93.6732,0.00479762,0.382405,20.542,498.564,0.669784,0.0,0.0
4004,1000.75,48.0146,54.2183,151.56,100.763,94.0165,0.00451875,0.372301,20.5511,498.284,0.635916,0.0,0.0
4015,1003.5,48.1931,54.4554,148.5,100.772,93.1874,0.00412717,0.360745,20.5633,498.013,0.717982,0.0,0.0
4026,1006.25,47.8532,53.3334,157.325,100.786,93.9186,0.00391084,0.351432,20.5717,497.783,0.647538,0.0,0.0
4037,1009,47.0849,52.6639,151.08,100.786,94.3664,0.00383634,0.3419,20.5823,497.553,0.603933,0.0,0.0
4048,1011.75,46.8504,51.7539,145.395,100.788,95.2949,0.00382866,0.330639,20.5943,497.313,0.514241,0.0,0.0
4059,1014.5,45.8663,51.0583,151.43,100.785,92.0252,0.00399685,0.321273,20.6036,497.103,0.834346,0.0,0.0
4070,1017.25,45.9607,50.5893,151.279,100.798,93.9334,0.00412266,0.314478,20.6093,496.892,0.647226,0.0,0.0
4081,1020,45.2768,50.2921,149.655,100.793,92.4867,0.00453039,0.307221,20.6153,496.702,0.7892,0.0,0.0
4092,1022.75,45.0364,49.6533,147.386,100.799,92.6773,0.00506785,0.306328,20.6174,496.502,0.770828,0.0,0.0
4103,1025.5,44.7087,48.8351,156.571,100.788,95.1945,0.00548601,0.301035,20.6228,496.302,0.523914,0.0,0.0
4114,1028.25,44.0063,48.5808,152.999,100.787,94.4049,0.00572921,0.291891,20.6329,496.132,0.600261,0.0,0.0
4125,1031,43.8492,47.5739,157.552,100.796,97.2284,0.00583243,0.275289,20.6588,495.941,0.330637,0.0,0.0
4136,1033.75,43.4067,46.6527,160.91,100.788,97.9733,0.00590535,0.262592,20.6726,495.771,0.259892,0.0,0.0
4147,1036.5,42.8526,46.2543,154.577,100.788,97.4068,0.00589931,0.253732,20.6841,495.611,0.313095,0.0,0.0
4158,1039.25,42.2512,45.325,158.259,100.774,97.7572,0.0059585,0.244114,20.6917,495.471,0.278907,0.0,0.0
4169,1042,40.8108,43.9478,160.143,100.777,99.5817,0.00629009,0.235752,20.7029,495.371,0.109529,0.0,0.0
4180,1044.75,41.0096,43.788,159.839,100.781,98.5559,0.00660636,0.22841,20.7105,495.251,0.204846,0.0,0.0
4191,1047.5,40.094,42.5504,159.18,100.779,99.2273,0.00695563,0.223276,20.7159,495.101,0.142362,0.0,0.0
4202,1050.25,39.3147,41.3977,156.978,100.79,100.111,0.00715692,0.218105,20.723,494.981,0.0620033,0.0,0.0
4213,1053,38.2253,40.8615,156.615,100.771,100.862,0.00710936,0.20844,20.736,494.88,-0.00830082,0.0,0.0
4224,1055.75,38.2755,39.9446,162.058,100.786,100.855,0.00708724,0.201617,20.7436,494.78,-0.00634997,0.0,0.0
4235,1058.5,37.575,38.9378,158.373,100.768,101.085,0.00713956,0.196247,20.7505,494.68,-0.0287571,0.0,0.0
4246,1061.25,37.4117,38.3674,160.008,100.763,101.221,0.00698299,0.190389,20.7587,494.59,-0.0415349,0.0,0.0
4257,1064,36.9397,38.584,162.245,100.756,101.029,0.00726594,0.183406,20.7691,494.51,-0.0248554,0.0,0.0
4268,1066.75,36.8435,37.0676,153.254,100.75,101.27,0.00800842,0.175753,20.7778,494.43,-0.0472397,0.0,0.0
4279,1069.5,35.899,36.8634,158.294,100.75,100.85,0.00844279,0.168533,20.7855,494.36,-0.00910887,0.0,0.0
4290,1072.25,35.2626,35.8283,161.376,100.749,101.33,0.00838661,0.166971,20.7877,494.27,-0.0527351,0.0,0.0
4301,1075,35.5084,35.9199,160.137,100.75,101.026,0.00839633,0.16848,20.7863,494.19,-0.0251504,0.0,0.0
4312,1077.75,35.0737,35.4764,161.644,100.729,101.005,0.00899793,0.165711,20.7906,494.11,-0.0250468,0.0,0.0
4323,1080.5,34.5315,34.2019,163.483,100.729,100.679,0.00941477,0.161582,20.7952,494.05,0.00457674,0.0,0.0
4334,1083.25,33.3804,33.7477,159.866,100.75,100.865,0.00923425,0.162824,20.7966,493.94,-0.0104087,0.0,0.0
4345,1086,33.7281,33.8525,165.476,100.736,100.575,0.00947409,0.1625,20.7994,493.89,0.0146561,0.0,0.0
4356,1088.75,33.943,33.8127,162.989,100.739,100.826,0.00991649,0.156142,20.8067,493.82,-0.00791544,0.0,0.0
4367,1091.5,32.8407,32.5812,159.888,100.726,101.061,0.0100457,0.152213,20.8109,493.759,-0.0304675,0.0,0.0
4378,1094.25,32.7276,32.2924,160.791,100.728,100.642,0.00978918,0.148987,20.8101,493.699,0.00792173,0.0,0.0
4389,1097,32.1143,32.0948,160.671,100.728,100.611,0.00955661,0.15069,20.8097,493.619,0.0106963,0.0,0.0
4400,1099.75,31.7785,31.3729,162.358,100.726,100.826,0.00970079,0.149067,20.8103,493.549,-0.00911708,0.0,0.0
4411,1102.5,31.0345,30.8106,162.675,100.73,100.758,0.0100278,0.147074,20.8119,493.489,-0.00247195,0.0,0.0
4422,1105.25,31.944,31.5685,158.547,100.721,100.756,0.0101535,0.145085,20.8153,493.419,-0.00323517,0.0,0.0
4433,1108,31.5414,31.4167,162.781,100.709,100.793,0.0102397,0.143918,20.8166,493.379,-0.00761929,0.0,0.0
4444,1110.75,30.5896,30.05,160.274,100.723,100.485,0.0103455,0.142776,20.8182,493.309,0.0216846,0.0,0.0
4455,1113.5,30.3324,29.9219,167.04,100.705,100.672,0.0107856,0.142146,20.82,493.299,0.00299892,0.0,0.0
4466,1116.25,29.4471,29.6637,165.216,100.715,100.554,0.0108873,0.141044,20.8214,493.199,0.0147216,0.0,0.0
4477,1119,29.5981,29.3784,161.48,100.707,100.535,0.0108329,0.141774,20.8207,493.169,0.0157296,0.0,0.0
4488,1121.75,29.5389,29.4832,162.28,100.717,100.772,0.0109284,0.14143,20.8219,493.089,-0.00496646,0.0,0.0
4499,1124.5,29.1786,29.0401,162.619,100.709,100.499,0.0107878,0.141944,20.8224,493.049,0.0192037,0.0,0.0
4510,1127.25,29.2067,29.1209,161.698,100.7,100.417,0.0107657,0.141745,20.8228,492.999,0.0257967,0.0,0.0
4521,1130,28.6213,28.3577,163.02,100.69,100.67,0.0109157,0.140548,20.8242,492.969,0.00183972,0.0,0.0
4532,1132.75,28.9278,28.6072,163.865,100.688,100.535,0.0105107,0.138689,20.8271,492.899,0.0139178,0.0,0.0
4543,1135.5,28.9546,28.155,162.412,100.695,100.792,0.0101224,0.137453,20.8288,492.819,-0.00880393,0.0,0.0
4554,1138.25,29.1671,28.3059,165.547,100.7,100.553,0.0103295,0.137588,20.8292,492.799,0.0134165,0.0,0.0
4565,1141,29.1191,28.2157,165.428,100.712,100.538,0.0107464,0.137968,20.8292,492.759,0.0158192,0.0,0.0
4576,1143.75,28.381,28.3539,166.295,100.743,100.462,0.0109247,0.136303,20.8289,492.749,0.0256549,0.0,0.0
4587,1146.5,27.8545,27.8033,161.4,100.801,100.635,0.011038,0.139029,20.8241,492.658,0.0150449,0.0,0.0
4598,1149.25,28.0373,27.4707,158.64,100.826,100.942,0.0112697,0.142229,20.8214,492.608,-0.0105965,0.0,0.0
4609,1152,27.5949,27.3236,162.885,100.865,100.804,0.01098,0.142604,20.8223,36.1629,0.00559676,0.0,0.0
4620,1154.75,27.1354,27.1791,169.871,100.888,100.611,0.00843075,0.132739,20.8414,-0.890811,0.0252251,0.0,0.0
4631,1157.5,26.5566,26.0632,163.562,100.927,100.514,0.00530428,0.107713,20.8738,-0.880802,0.0376244,0.0,0.0
4642,1160.25,26.1815,25.4176,165.75,100.94,100.453,0.00299577,0.0871829,20.8975,-0.890811,0.0443707,0.0,0.0
4653,1163,25.4499,24.7369,167.172,100.993,100.481,0.0017017,0.0752083,20.9138,-0.880802,0.0465803,0.0,0.0
4664,1165.75,24.6229,24.3312,166.424,101.014,100.576,0.000928917,0.0675081,20.9237,-0.870793,0.0399097,0.0,0.0
4675,1168.5,24.3852,23.1269,170.771,101.047,100.512,0.000357178,0.063835,20.9275,-0.890811,0.0487078,0.0,0.0
4686,1171.25,24.4261,23.2162,165.631,101.08,100.743,-9.06538e-05,0.0622321,20.9298,-0.870793,0.0306081,0.0,0.0
4697,1174,24.0687,22.3511,164.764,101.075,100.585,-0.000119707,0.0611633,20.9312,-0.880802,0.0446636,0.0,0.0
4708,1176.75,23.3955,21.9011,163.021,101.084,100.605,0.00017134,0.0605914,20.9331,-0.870793,0.0435532,0.0,0.0
4719,1179.5,23.5174,21.8914,164.948,101.071,100.747,0.000253772,0.0601239,20.9336,-0.860784,0.0294524,0.0,0.0
4730,1182.25,23.5189,21.3777,166.73,101.068,100.627,0.000256373,0.0598751,20.9323,-0.860784,0.0401885,0.0,0.0
4741,1185,22.9116,21.4332,165.243,101.087,100.596,0.000252784,0.059937,20.9321,-0.890811,0.044657,0.0,0.0
4752,1187.75,22.6373,21.1768,164.519,101.092,100.632,0.000271627,0.0602598,20.9316,-0.850774,0.041896,0.0,0.0
4763,1190.5,22.3101,21.2707,167.428,101.097,100.655,0.000425673,0.0616743,20.9304,-0.890811,0.0401438,0.0,0.0
4774,1193.25,22.3784,21.7558,166.703,101.095,100.613,0.000418829,0.0620695,20.9301,-0.890811,0.0438787,0.0,0.0
4785,1196,22.497,21.7639,169.637,101.092,100.77,0.000358039,0.0618869,20.9314,-0.90082,0.0293281,0.0,0.0
4796,1198.75,22.2041,21.551,166.35,101.084,100.712,0.000445131,0.0613616,20.932,-0.890811,0.0338085,0.0,0.0
4807,1201.5,22.2754,21.927,165.334,101.067,100.715,0.000483547,0.0607914,20.9321,-0.880802,0.0320428,0.0,0.0
4818,1204.25,22.7441,21.3762,165.4,101.05,100.527,0.000483028,0.0601626,20.9322,-0.890811,0.0476186,0.0,0.0
4829,1207,22.496,21.2688,166.751,101.021,100.62,0.00048506,0.0598435,20.9322,-0.880802,0.0365229,0.0,0.0
4840,1209.75,22.6192,21.0632,166.012,101.011,100.546,0.000424615,0.0595337,20.9338,-0.890811,0.0423033,0.0,0.0
4851,1212.5,22.1012,21.5012,159.143,100.96,100.48,0.000449516,0.0592647,20.9328,-0.880802,0.0437143,0.0,0.0
4862,1215.25,22.0041,21.1752,164.402,100.894,100.585,0.000267572,0.0589496,20.9324,-0.890811,0.0281842,0.0,0.0
4873,1218,22.3575,21.1984,165.522,100.864,100.398,6.47417e-06,0.0586344,20.9323,-0.90082,0.0424492,0.0,0.0
4884,1220.75,21.7076,20.6418,170.573,100.819,100.359,,0.0582864,,-0.90082,0.0419298,0.0,0.0
4895,1223.5,22.0296,20.9186,166.007,100.798,100.416,,,,-0.880802,0.0348536,0.0,0.0
4906,1226.25,22.0626,20.8031,169.013,100.763,100.205,,,,-0.90082,0.0508848,0.0,0.0
4917,1229,21.7608,20.689,166.064,100.735,100.212,,,,-0.910829,0.0478036,0.0,0.0
4923,1230.5,21.277,20.6524,170.221,100.725,100.18,,,,-0.90082,0.0497534,0.0,0.0