File: 01_Data/OSB/Cone/OSB_Cone_HF50Scan_210326_R2.csv
Names,Time,Stack TC,Smoke TC,Exh Press,Smoke Comp,Smoke Meas,CO Meter,CO2 Meter,O2 Meter,Sample Mass,Ext Coeff,Start Test,Flame Verif
Chan Gain,,500,500,1,1,1,1,1,1,1,1,1.0,1.0
Offset,,0,0,0.138348,0,0,0,0,0,0,0,0.0,0.0
Gain,,1,1,25.011,13.5067,16.616,1,1,1,1.00091,1.04608,1.0,1.0
Units,sec,C,C,Pa,%,%,%,%,%,g,/m,,
Baseline,,33.5848,35.9077,158.946,101.97,98.0553,-0.00108137,0.0626455,20.9271,-0.0205604,0.359185,,
8,1.75,31.2056,32.7997,161.014,101.939,98.3125,-0.00114561,0.0659031,20.9198,581.619,0.332356,0.0,0.0
16,3.75,30.7442,33.3467,165.256,101.95,98.0088,-0.00118557,0.0659859,20.9197,581.499,0.361752,0.0,0.0
24,5.75,31.1844,33.5349,160.22,101.956,97.6797,-0.00113406,0.0660594,20.921,581.509,0.39321,0.0,0.0
32,7.75,30.9911,33.1301,158.054,101.95,97.345,-0.00107058,0.0662484,20.9219,581.459,0.424146,0.0,0.0
40,9.75,31.4435,33.8791,158.83,101.951,97.1503,-0.0010277,0.0662407,20.9222,581.409,0.442595,0.0,0.0
48,11.75,31.4831,34.0779,156.983,101.958,96.954,-0.00103342,0.0661315,20.9236,581.369,0.461779,0.0,0.0
56,13.75,31.3746,34.1588,158.163,101.95,96.4338,-0.00102283,0.066089,20.9243,581.279,0.510409,0.0,0.0
64,15.75,31.4848,34.2855,156.739,101.954,96.2238,-0.000908055,0.0659372,20.9246,581.229,0.530814,0.0,0.0
72,17.75,31.7227,34.1127,160.876,101.962,95.4713,-0.000696813,0.0658877,20.9257,581.169,0.603562,0.0,0.0
80,19.75,32.1259,34.339,157.907,101.959,94.2122,-0.000297857,0.0658399,20.9258,581.109,0.725123,0.0,0.0
88,21.75,32.1295,35.3487,149.335,101.97,98.7318,0.000110719,0.0699395,20.8952,580.979,0.296081,0.0,1.0
96,23.75,33.8364,37.7349,142.632,101.971,96.7451,0.000472765,0.0904171,20.8044,580.649,0.48276,0.0,1.0
104,25.75,34.2817,39.6046,142.46,101.975,97.6898,0.000805991,0.130303,20.6863,580.338,0.393926,0.0,0.0
112,27.75,37.1234,43.2708,139.147,101.987,96.7147,0.0011566,0.181125,20.5882,579.968,0.487093,0.0,0.0
120,29.75,38.9348,46.9768,138.081,101.975,96.4028,0.00152551,0.231464,20.5208,579.678,0.515615,0.0,0.0
128,31.75,41.1676,50.0688,134.145,101.982,96.3572,0.00185454,0.279603,20.4713,579.347,0.520628,0.0,0.0
136,33.75,43.4822,52.9124,140.382,101.984,95.3704,0.0021212,0.321923,20.4374,578.967,0.615269,0.0,0.0
144,35.75,44.8429,55.5579,137.273,101.99,95.7984,0.00239314,0.357769,20.4165,578.687,0.574703,0.0,0.0
152,37.75,45.8723,57.2505,138.617,102,95.7563,0.00273437,0.385692,20.3983,578.276,0.579625,0.0,0.0
160,39.75,47.6896,59.5524,143.576,102.014,95.3927,0.00308987,0.415934,20.3877,577.946,0.615829,0.0,0.0
168,41.75,48.8333,60.8849,142.209,102.01,95.2401,0.00340317,0.434284,20.3798,577.556,0.630116,0.0,0.0
176,43.75,49.759,62.5709,140.016,102.024,96.2543,0.00349718,0.451969,20.3733,577.296,0.534219,0.0,0.0
184,45.75,50.6894,62.9419,141.153,102.027,95.6371,0.00353084,0.467616,20.3669,576.955,0.593498,0.0,0.0
192,47.75,51.4071,64.6689,140.716,102.023,96.1376,0.00372286,0.480859,20.3625,576.595,0.545233,0.0,0.0
200,49.75,52.6782,67.3418,144.129,102.043,94.5986,0.0039228,0.491349,20.3599,576.205,0.695093,0.0,0.0
208,51.75,53.4152,67.5399,135.025,102.037,95.5195,0.00409947,0.498764,20.3582,575.874,0.605682,0.0,0.0
216,53.75,54.043,68.7304,137.943,102.052,95.16,0.00404218,0.505926,20.3582,575.554,0.641656,0.0,0.0
224,55.75,54.9178,69.468,143.895,102.063,95.5682,0.00385777,0.511687,20.3587,575.214,0.603305,0.0,0.0
232,57.75,55.2707,69.7385,135.989,102.076,94.7001,0.00371164,0.515779,20.3593,574.933,0.688262,0.0,0.0
240,59.75,55.4555,70.8247,141.176,102.061,95.0332,0.00360667,0.519333,20.3571,574.573,0.654666,0.0,0.0
248,61.75,56.4803,71.3719,137.69,102.083,94.7214,0.00359168,0.523529,20.3499,574.223,0.68683,0.0,0.0
256,63.75,56.8924,72.2733,136.139,102.095,97.2598,0.00363742,0.527609,20.3457,573.862,0.44523,0.0,0.0
264,65.75,57.5478,72.2743,140.716,102.109,95.9257,0.0036674,0.53087,20.345,573.492,0.57323,0.0,0.0
272,67.75,58.0894,73.1641,136.667,102.116,94.5601,0.00368383,0.533079,20.3465,573.182,0.705427,0.0,0.0
280,69.75,58.5306,73.4216,137.917,102.135,94.836,0.00373556,0.53477,20.3485,572.801,0.680364,0.0,0.0
288,71.75,58.3963,73.9832,137.615,102.137,95.3714,0.00382409,0.535522,20.3503,572.501,0.628921,0.0,0.0
296,73.75,59.1687,74.1597,132.162,102.159,95.6686,0.00393052,0.535493,20.3515,572.181,0.602338,0.0,0.0
304,75.75,58.9291,74.7439,138.778,102.156,95.409,0.0040926,0.535318,20.352,571.861,0.627014,0.0,0.0
312,77.75,59.6103,74.7652,139.394,102.169,95.842,0.00426185,0.535307,20.3534,571.5,0.586607,0.0,0.0
320,79.75,60.0056,74.9806,136.078,102.176,95.379,0.00430107,0.53527,20.3546,571.16,0.631633,0.0,0.0
328,81.75,60.2552,75.3259,138.889,102.189,95.0454,0.00423181,0.534804,20.3586,570.86,0.664974,0.0,0.0
336,83.75,60.0299,74.7376,140.602,102.2,96.4206,0.00412196,0.533677,20.3623,570.479,0.534193,0.0,0.0
344,85.75,60.5896,75.2473,131.928,102.199,95.2954,0.00399164,0.532166,20.3648,570.209,0.641794,0.0,0.0
352,87.75,61.3267,75.5215,140.795,102.217,95.3882,0.0038248,0.530304,20.3684,569.829,0.634492,0.0,0.0
360,89.75,61.0096,75.4665,137.099,102.225,94.8912,0.00379584,0.528606,20.3717,569.528,0.683125,0.0,0.0
368,91.75,61.5164,75.9702,145.387,102.21,94.3096,0.00395823,0.525891,20.3757,569.218,0.738172,0.0,0.0
376,93.75,61.5283,75.6521,145.074,102.224,95.3075,0.00409534,0.523448,20.3791,568.898,0.64288,0.0,0.0
384,95.75,61.8137,75.5892,142.018,102.22,94.9287,0.00413815,0.520731,20.3825,568.578,0.679053,0.0,0.0
392,97.75,61.5192,75.8777,142.895,102.228,94.66,0.00415062,0.518033,20.3863,568.227,0.70577,0.0,0.0
400,99.75,61.9541,75.7732,143.178,102.224,93.194,0.00406411,0.515323,20.3896,567.967,0.84862,0.0,0.0
408,101.75,61.6322,75.8335,133.649,102.228,94.0647,0.00388594,0.512539,20.3967,567.607,0.763697,0.0,0.0
416,103.75,61.7359,75.6788,139.23,102.222,94.3213,0.0037872,0.508774,20.404,567.296,0.738147,0.0,0.0
424,105.75,61.9247,75.2512,142.897,102.228,93.7437,0.00383524,0.504349,20.4088,567.006,0.795063,0.0,0.0
432,107.75,61.8804,74.9827,138.62,102.232,93.6124,0.00390042,0.500488,20.4135,566.686,0.80826,0.0,0.0
440,109.75,61.8965,74.7127,137.78,102.23,94.0008,0.00396891,0.496569,20.4163,566.326,0.770118,0.0,0.0
448,111.75,61.8844,75.3459,140.846,102.238,94.9287,0.00400188,0.492973,20.4213,566.045,0.680644,0.0,0.0
456,113.75,61.841,74.7057,140.129,102.227,94.1342,0.00397879,0.489329,20.4265,565.765,0.756776,0.0,0.0
464,115.75,61.7413,74.5522,141.202,102.228,94.4927,0.003944,0.485166,20.4304,565.475,0.722043,0.0,0.0
472,117.75,62.0108,74.359,145.594,102.224,94.2285,0.00392714,0.481053,20.4364,565.215,0.747327,0.0,0.0
480,119.75,61.6545,74.0843,134.878,102.223,93.9176,0.00393944,0.47752,20.4419,564.864,0.777574,0.0,0.0
488,121.75,61.0379,73.5356,143.222,102.242,95.0753,0.00391282,0.473466,20.4473,564.604,0.666895,0.0,0.0
496,123.75,61.6912,73.7002,142.46,102.224,94.7604,0.003838,0.469071,20.4508,564.314,0.695673,0.0,0.0
504,125.75,61.8102,73.9362,138.51,102.233,94.8101,0.00379676,0.46547,20.4534,564.053,0.691639,0.0,0.0
512,127.75,61.8818,73.2112,143.454,102.228,93.3188,0.00380949,0.462371,20.4561,563.803,0.836753,0.0,0.0
520,129.75,61.3164,73.7267,144.555,102.233,94.2432,0.00374391,0.459227,20.4597,563.443,0.746672,0.0,0.0
528,131.75,61.1474,73.2781,137.582,102.244,93.8046,0.00366076,0.455893,20.4641,563.233,0.790515,0.0,0.0
536,133.75,61.3593,73.4074,142.354,102.234,94.5145,0.00370877,0.452126,20.4666,562.932,0.720445,0.0,0.0
544,135.75,60.8871,72.8779,139.297,102.224,93.7807,0.00381933,0.449001,20.4686,562.622,0.791071,0.0,0.0
552,137.75,61.6542,72.8787,140.216,102.223,93.2949,0.00384385,0.44648,20.4707,562.402,0.838615,0.0,0.0
560,139.75,61.0332,72.2184,143.983,102.229,94.2746,0.00376312,0.444096,20.4756,562.122,0.743316,0.0,0.0
568,141.75,60.8386,72.0815,143.772,102.222,94.2761,0.0037525,0.440759,20.4793,561.852,0.742501,0.0,0.0
576,143.75,61.4905,72.4354,144.902,102.218,93.8172,0.00381639,0.438172,20.4809,561.611,0.786907,0.0,0.0
584,145.75,61.8655,71.6051,138.362,102.215,94.5591,0.0037587,0.436237,20.4815,561.261,0.71441,0.0,0.0
592,147.75,61.9872,71.5959,147.245,102.214,94.878,0.00357846,0.434042,20.486,561.041,0.683437,0.0,0.0
600,149.75,60.8877,71.7227,147.059,102.215,94.0713,0.00342334,0.431384,20.4893,560.781,0.76187,0.0,0.0
608,151.75,61.3006,71.6578,143.234,102.207,94.5418,0.00332268,0.428482,20.4919,560.52,0.715381,0.0,0.0
616,153.75,60.9447,70.9565,142.701,102.205,94.6007,0.00324482,0.425958,20.4929,560.28,0.709452,0.0,0.0
624,155.75,61.1953,71.1684,142.188,102.202,95.1422,0.00322692,0.424127,20.4934,559.97,0.656775,0.0,0.0
632,157.75,60.0326,70.8483,142.442,102.2,94.3527,0.00324337,0.422593,20.4937,559.72,0.733091,0.0,0.0
640,159.75,61.5155,70.1939,140.808,102.189,94.125,0.00317302,0.42124,20.4966,559.459,0.754261,0.0,0.0
648,161.75,61.1585,70.7783,143.604,102.176,95.1737,0.00295435,0.419315,20.4994,559.209,0.651486,0.0,0.0
656,163.75,60.9336,70.9471,140.682,102.19,94.7198,0.00277191,0.417287,20.5008,558.979,0.696568,0.0,0.0
664,165.75,60.3954,70.5264,144.649,102.174,95.4237,0.00276351,0.415714,20.5025,558.679,0.627229,0.0,0.0
672,167.75,60.7695,70.383,143.25,102.176,94.5266,0.00280885,0.414187,20.5032,558.428,0.714082,0.0,0.0
680,169.75,60.6404,70.4113,141.944,102.154,96.0808,0.00288793,0.41323,20.5036,558.168,0.562437,0.0,0.0
688,171.75,60.4545,70.5868,141.716,102.138,94.7411,0.00298809,0.41218,20.5048,557.878,0.689839,0.0,0.0
696,173.75,61.0377,70.2926,147.63,102.138,94.4445,0.00304721,0.410772,20.5065,557.638,0.718616,0.0,0.0
704,175.75,60.6927,70.5161,146.623,102.136,95.1311,0.00296551,0.409355,20.5083,557.377,0.651965,0.0,0.0
712,177.75,61.1695,70.1512,140.869,102.116,94.1149,0.0027988,0.407534,20.5116,557.147,0.748696,0.0,0.0
720,179.75,61.0257,69.9607,142.13,102.094,94.84,0.00270273,0.404943,20.516,556.877,0.676267,0.0,0.0
728,181.75,60.9056,69.9496,140.858,102.093,94.9034,0.00264616,0.402233,20.5222,556.657,0.6701,0.0,0.0
736,183.75,60.5077,69.356,145.743,102.073,94.84,0.00260775,0.399422,20.5259,556.366,0.674415,0.0,0.0
744,185.75,60.7346,69.446,140.501,102.064,94.479,0.00266125,0.39701,20.5288,556.126,0.708598,0.0,0.0
752,187.75,60.32,69.2407,141.574,102.04,93.8644,0.00272481,0.394289,20.5323,555.876,0.766334,0.0,0.0
760,189.75,60.3992,69.2479,146.688,102.031,95.1929,0.00263613,0.391729,20.5346,555.646,0.636588,0.0,0.0
768,191.75,60.5056,69.0621,146.697,102.012,95.1716,0.00245393,0.38964,20.5361,555.396,0.636936,0.0,0.0
776,193.75,60.4609,68.9545,143.179,102.009,96.2537,0.00237412,0.388031,20.5376,555.155,0.532895,0.0,0.0
784,195.75,59.9939,68.7837,143.973,101.992,95.6011,0.00239783,0.386345,20.5401,554.935,0.593765,0.0,0.0
792,197.75,60.1457,68.2614,145.763,101.964,95.304,0.0024643,0.384339,20.5425,554.665,0.619845,0.0,0.0
800,199.75,60.0599,68.4195,144.062,101.951,95.0875,0.00252782,0.382304,20.5435,554.455,0.639493,0.0,0.0
808,201.75,60.1498,68.3962,142.08,101.936,95.4779,0.00264174,0.380703,20.5439,554.204,0.600591,0.0,0.0
816,203.75,60.2836,68.5149,144.308,101.928,95.2213,0.00263547,0.379786,20.5445,553.944,0.624579,0.0,0.0
824,205.75,59.748,68.1496,145.662,101.913,95.3091,0.00247023,0.378942,20.5451,553.724,0.614793,0.0,0.0
832,207.75,59.4205,68.1414,140.883,101.895,94.0059,0.00227011,0.37776,20.5467,553.454,0.739457,0.0,0.0
840,209.75,59.6892,68.0057,137.696,101.885,95.0403,0.00205025,0.37666,20.5482,553.244,0.638106,0.0,0.0
848,211.75,59.7177,68.0797,146.381,101.868,95.4622,0.00178743,0.375709,20.5489,553.013,0.595978,0.0,0.0
856,213.75,59.6277,68.2115,142.554,101.852,95.9165,0.00163321,0.374677,20.5519,552.773,0.550924,0.0,0.0
864,215.75,59.5718,67.2575,139.581,101.85,95.0717,0.0016388,0.37342,20.5533,552.553,0.63199,0.0,0.0
872,217.75,59.4072,67.566,139.845,101.831,95.339,0.00167108,0.372366,20.555,552.323,0.604451,0.0,0.0
880,219.75,59.5535,67.7779,141.69,101.811,95.3025,0.00167413,0.371474,20.5563,552.052,0.60622,0.0,0.0
888,221.75,59.4841,67.4945,142.676,101.816,95.6792,0.001719,0.370689,20.5577,551.852,0.57046,0.0,0.0
896,223.75,59.5839,67.5926,140.907,101.78,95.0368,0.00179344,0.369484,20.5588,551.602,0.628977,0.0,0.0
904,225.75,59.4627,67.3234,142.594,101.754,95.4206,0.00187377,0.368745,20.5593,551.362,0.589722,0.0,0.0
912,227.75,59.6204,67.5865,140.391,101.729,96.0803,0.00190265,0.36859,20.5584,551.182,0.524194,0.0,0.0
920,229.75,59.627,67.6077,142.946,101.721,95.949,0.00188508,0.368493,20.5578,550.911,0.536077,0.0,0.0
928,231.75,59.2115,67.2126,143.548,101.703,95.7112,0.00186994,0.368083,20.5575,550.661,0.557176,0.0,0.0
936,233.75,59.4252,67.3655,145.559,101.663,95.8151,0.00188987,0.367622,20.5582,550.431,0.543644,0.0,0.0
944,235.75,59.2466,67.7893,151.155,101.638,95.3009,0.00188945,0.366838,20.5597,550.211,0.590749,0.0,0.0
952,237.75,59.1904,66.7349,148.214,101.609,95.3238,0.00180024,0.365804,20.5614,549.971,0.58591,0.0,0.0
960,239.75,58.7885,67.3561,143.76,101.568,95.5667,0.00181694,0.36507,20.5622,549.76,0.558909,0.0,0.0
968,241.75,59.5696,66.6917,142.341,101.534,94.5637,0.00197933,0.364335,20.5626,549.52,0.652633,0.0,0.0
976,243.75,59.3356,66.26,139.281,101.528,95.339,0.00197898,0.363688,20.5641,549.28,0.577185,0.0,0.0
984,245.75,58.986,66.6368,146.264,101.481,96.0616,0.00176298,0.363169,20.5643,549.06,0.503652,0.0,0.0
992,247.75,58.9864,66.5884,140.13,101.463,95.4394,0.00172703,0.362981,20.5632,548.82,0.561638,0.0,0.0
1000,249.75,59.282,66.7601,142.19,101.44,95.7066,0.00178806,0.363106,20.5625,548.609,0.533892,0.0,0.0
1008,251.75,58.9163,66.9767,147.513,101.392,94.909,0.00187726,0.362897,20.5637,548.419,0.606325,0.0,0.0
1016,253.75,58.5552,66.6505,135.421,101.367,94.9602,0.00193959,0.361852,20.5654,548.159,0.599136,0.0,0.0
1024,255.75,59.0469,66.6372,143.529,101.339,94.9658,0.00195472,0.36112,20.5651,547.949,0.596023,0.0,0.0
1032,257.75,59.103,66.4083,143.088,101.323,94.625,0.0019223,0.360844,20.565,547.709,0.627589,0.0,0.0
1040,259.75,59.7901,67.12,144.637,101.285,94.9911,0.00177414,0.360364,20.5663,547.478,0.58872,0.0,0.0
1048,261.75,59.2154,66.9975,143.193,101.257,95.5697,0.00163155,0.359857,20.567,547.238,0.530421,0.0,0.0
1056,263.75,59.1499,66.7972,141.712,101.245,95.2812,0.00161791,0.359621,20.5675,547.058,0.557082,0.0,0.0
1064,265.75,59.3772,66.9696,143.753,101.201,95.8603,0.00166956,0.359307,20.5689,546.848,0.497522,0.0,0.0
1072,267.75,58.8391,66.3126,142.502,101.18,94.8567,0.00167064,0.358811,20.5694,546.578,0.592145,0.0,0.0
1080,269.75,59.4205,66.9512,150.628,101.147,94.9901,0.00145069,0.358179,20.5697,546.337,0.576299,0.0,0.0
1088,271.75,59.2047,66.6096,149.435,101.123,94.838,0.00127519,0.357705,20.5704,546.147,0.588837,0.0,0.0
1096,273.75,59.138,66.4903,141.76,101.094,94.1981,0.00127205,0.357258,20.572,545.927,0.648309,0.0,0.0
1104,275.75,59.0362,66.512,146.597,101.082,94.77,0.00133395,0.356665,20.573,545.727,0.591635,0.0,0.0
1112,277.75,59.0767,66.6773,143.31,101.053,95.769,0.00136315,0.356074,20.5734,545.507,0.492837,0.0,0.0
1120,279.75,59.2838,66.4771,147.229,101.048,94.6301,0.00140128,0.355517,20.5736,545.276,0.602128,0.0,0.0
1128,281.75,59.2412,66.3687,144.416,101.031,94.335,0.00146908,0.354979,20.5736,545.036,0.629217,0.0,0.0
1136,283.75,58.8079,66.7409,144.315,101.021,94.5358,0.00148602,0.35462,20.5737,544.836,0.608807,0.0,0.0
1144,285.75,59.5733,66.506,141.617,101.008,94.373,0.00148711,0.354389,20.5737,544.596,0.623459,0.0,0.0
1152,287.75,59.14,66.2427,141.947,101.004,94.6585,0.00144931,0.354283,20.5737,544.396,0.595405,0.0,0.0
1160,289.75,58.8405,66.1069,145.142,100.991,94.731,0.00138756,0.354011,20.5754,544.165,0.587219,0.0,0.0
1168,291.75,58.8112,66.4155,145.233,100.977,95.2903,0.00133608,0.35346,20.5764,543.955,0.531926,0.0,0.0
1176,293.75,59.098,66.308,149.011,100.967,94.3872,0.00133251,0.352736,20.578,543.765,0.618408,0.0,0.0
1184,295.75,59.0271,66.0287,138.905,100.952,94.1215,0.00135342,0.35204,20.5786,543.515,0.642889,0.0,0.0
1192,297.75,58.4377,66.4118,142.495,100.923,95.2305,0.0012957,0.351441,20.5786,543.305,0.532745,0.0,0.0
1200,299.75,59.456,65.8691,144.559,100.932,95.1458,0.00130443,0.350893,20.5797,543.084,0.54177,0.0,0.0
1208,301.75,58.1597,66.8072,143.719,100.895,94.9835,0.00126672,0.3503,20.5799,542.924,0.554022,0.0,0.0
1216,303.75,58.5771,66.4774,144.961,100.888,94.9577,0.00112251,0.349933,20.58,542.654,0.555846,0.0,0.0
1224,305.75,59.595,65.4277,146.426,100.867,95.1022,0.000977309,0.349716,20.5809,542.464,0.540054,0.0,0.0
1232,307.75,59.1681,65.7435,143.93,100.835,94.7295,0.000954604,0.34924,20.5818,542.274,0.57316,0.0,0.0
1240,309.75,58.5836,66.2284,142.744,100.813,94.4906,0.00111563,0.348313,20.5822,542.033,0.594336,0.0,0.0
1248,311.75,59.2804,65.8144,139.245,100.798,93.9318,0.00133873,0.347939,20.5815,541.863,0.647337,0.0,0.0
1256,313.75,58.8652,65.6883,139.435,100.789,95.0783,0.001481,0.347906,20.5807,541.643,0.53519,0.0,0.0
1264,315.75,58.2371,66.3542,146.287,100.775,95.0413,0.00148811,0.347898,20.5808,541.423,0.537562,0.0,0.0
1272,317.75,57.9378,66.4832,146.427,100.747,94.8415,0.00134901,0.347591,20.5818,541.203,0.554281,0.0,0.0
1280,319.75,58.8252,66.1564,142.276,100.754,94.8131,0.00119262,0.347051,20.5829,540.992,0.55763,0.0,0.0
1288,321.75,58.7297,65.7704,142.857,100.725,94.8775,0.00109033,0.346956,20.5848,540.742,0.548771,0.0,0.0
1296,323.75,58.3381,66.2068,146.783,100.706,94.5997,0.00111637,0.34701,20.5857,540.552,0.573995,0.0,0.0
1304,325.75,58.4712,66.04,142.202,100.69,94.4906,0.00115695,0.346701,20.5854,540.332,0.583074,0.0,0.0
1312,327.75,58.6327,66.267,143.047,100.662,94.1397,0.00116065,0.346542,20.5846,540.152,0.61466,0.0,0.0
1320,329.75,58.2623,66.3854,142.81,100.645,94.8801,0.00114196,0.346506,20.5845,539.911,0.541275,0.0,0.0
1328,331.75,58.9805,65.3127,147.46,100.631,94.2553,0.00108068,0.345949,20.5874,539.711,0.600579,0.0,0.0
1336,333.75,59.1605,65.0927,144.31,100.618,93.7412,0.00107319,0.345271,20.5903,539.511,0.649569,0.0,0.0
1344,335.75,58.5465,65.8448,145.374,100.599,94.5763,0.00114884,0.344316,20.592,539.321,0.566449,0.0,0.0
1352,337.75,58.5409,65.5882,140.345,100.589,93.7072,0.00123518,0.343607,20.5918,539.091,0.650264,0.0,0.0
1360,339.75,58.6484,65.7101,139.438,100.575,94.6494,0.00136295,0.343455,20.59,538.911,0.557187,0.0,0.0
1368,341.75,58.2348,65.2477,143.572,100.562,93.9683,0.0013692,0.343522,20.5893,538.7,0.622282,0.0,0.0
1376,343.75,58.7411,65.6718,143.245,100.543,94.5723,0.00129071,0.343278,20.5889,538.46,0.561729,0.0,0.0
1384,345.75,57.8524,65.2395,143.118,100.518,94.2898,0.00115852,0.342925,20.5901,538.29,0.586917,0.0,0.0
1392,347.75,58.7153,65.4697,144.559,100.519,94.1407,0.00104707,0.342344,20.5906,538.1,0.60155,0.0,0.0
1400,349.75,58.8181,65.2934,147.052,100.505,94.0601,0.000992168,0.341822,20.5904,537.87,0.608094,0.0,0.0
1408,351.75,58.5135,65.3082,145.568,100.484,94.3015,0.00103438,0.341747,20.5894,537.629,0.582734,0.0,0.0
1416,353.75,58.7362,65.3629,141.47,100.5,95.9987,0.00114924,0.3418,20.589,537.449,0.420523,0.0,0.0
1424,355.75,58.2664,65.6565,142.167,100.459,94.9293,0.0012104,0.341872,20.5888,537.219,0.519554,0.0,0.0
1432,357.75,58.4349,65.3827,140.125,100.467,93.4004,0.00125269,0.341998,20.5874,537.049,0.669256,0.0,0.0
1440,359.75,58.7045,65.6163,141.053,100.454,94.3598,0.00126486,0.342461,20.5868,536.799,0.574313,0.0,0.0
1448,361.75,58.3892,65.481,143.647,100.458,94.2924,0.00124866,0.342902,20.5865,536.588,0.58125,0.0,0.0
1456,363.75,58.5902,65.204,143.305,100.439,93.9354,0.00123594,0.343083,20.587,536.408,0.614325,0.0,0.0
1464,365.75,58.1318,65.5372,142.638,100.448,93.5835,0.00119223,0.343007,20.588,536.198,0.649519,0.0,0.0
1472,367.75,58.4196,65.5848,141.19,100.439,94.4632,0.00109121,0.342855,20.5887,535.968,0.562829,0.0,0.0
1480,369.75,58.4095,65.2707,144.503,100.436,94.2675,0.00103219,0.342765,20.5891,535.778,0.581636,0.0,0.0
1488,371.75,58.03,65.3727,142.28,100.418,94.1722,0.00115315,0.343125,20.5887,535.537,0.589226,0.0,0.0
1496,373.75,58.8626,64.8353,146.59,100.423,94.9926,0.0013108,0.343712,20.5864,535.357,0.510153,0.0,0.0
1504,375.75,58.7868,65.2401,137.522,100.421,94.6037,0.00127775,0.344431,20.5846,535.127,0.547574,0.0,0.0
1512,377.75,58.3971,65.7239,140.678,100.425,94.5129,0.00120509,0.345478,20.5833,534.897,0.556722,0.0,0.0
1520,379.75,58.1462,65.9452,139.852,100.439,94.5692,0.00124305,0.34633,20.5821,534.737,0.552577,0.0,0.0
1528,381.75,59.3086,65.364,149.978,100.43,94.1854,0.00136106,0.347244,20.5822,534.507,0.589033,0.0,0.0
1536,383.75,59.4647,64.5721,142.276,100.433,93.3649,0.00151953,0.347467,20.5822,534.296,0.669656,0.0,0.0
1544,385.75,58.6253,65.0422,144.531,100.425,93.73,0.00170222,0.347729,20.5823,534.076,0.633052,0.0,0.0
1552,387.75,59.1232,65.4243,144.079,100.442,93.8669,0.00171356,0.347996,20.5823,533.896,0.621202,0.0,0.0
1560,389.75,58.9312,65.4502,145.468,100.426,94.1098,0.00162713,0.348144,20.5828,533.646,0.596057,0.0,0.0
1568,391.75,58.9386,65.0654,143.743,100.444,93.8644,0.00153634,0.34831,20.5819,533.456,0.621638,0.0,0.0
1576,393.75,58.6552,65.213,142.538,100.442,94.0693,0.00152915,0.348737,20.5806,533.265,0.601483,0.0,0.0
1584,395.75,59.0351,65.4657,142.441,100.446,93.802,0.00162266,0.349347,20.5796,533.035,0.627965,0.0,0.0
1592,397.75,58.9028,65.7024,138.314,100.45,94.3243,0.00176291,0.350225,20.5779,532.795,0.577389,0.0,0.0
1600,399.75,59.0223,65.6836,145.665,100.454,94.3487,0.00181453,0.351081,20.5771,532.585,0.575398,0.0,0.0
1608,401.75,58.8604,65.7072,142.62,100.461,94.2178,0.00173175,0.351684,20.5759,532.425,0.588733,0.0,0.0
1616,403.75,58.736,66.1177,147.941,100.461,93.3467,0.00164364,0.352542,20.5736,532.194,0.673973,0.0,0.0
1624,405.75,59.0372,65.5956,144.057,100.483,93.7498,0.00160469,0.353538,20.5726,531.984,0.636463,0.0,0.0
1632,407.75,59.6292,65.8103,142.015,100.479,93.7412,0.00166686,0.354295,20.571,531.774,0.636931,0.0,0.0
1640,409.75,59.3897,65.8179,144.068,100.481,94.0632,0.00176932,0.355365,20.5689,531.564,0.605653,0.0,0.0
1648,411.75,59.3745,66.0247,139.421,100.489,94.0982,0.0017421,0.355945,20.5679,531.334,0.602918,0.0,0.0
1656,413.75,59.3951,66.7705,141.238,100.493,93.6545,0.00147302,0.356225,20.5692,531.113,0.64674,0.0,0.0
1664,415.75,58.7237,66.2186,142.14,100.498,92.8411,0.0013044,0.356618,20.5709,530.923,0.727155,0.0,0.0
1672,417.75,58.9629,66.0739,141.247,100.514,93.2544,0.00128737,0.356947,20.5715,530.713,0.687867,0.0,0.0
1680,419.75,59.3831,66.1537,145.487,100.532,92.8989,0.00141262,0.356896,20.5719,530.483,0.724567,0.0,0.0
1688,421.75,59.1655,65.9116,144.386,100.537,92.8381,0.00154826,0.356853,20.5709,530.283,0.731068,0.0,0.0
1696,423.75,59.3181,66.0022,143.406,100.542,92.7108,0.00153321,0.357359,20.5703,530.052,0.744071,0.0,0.0
1704,425.75,59.3693,65.9592,138.165,100.557,93.2716,0.00154081,0.358056,20.57,529.832,0.69016,0.0,0.0
1712,427.75,58.7969,66.4824,141.552,100.549,92.9623,0.00158945,0.358701,20.5699,529.692,0.719889,0.0,0.0
1720,429.75,59.0206,66.7716,144.693,100.567,92.9385,0.00158358,0.358985,20.5693,529.392,0.723896,0.0,0.0
1728,431.75,59.5882,66.7004,144.099,100.578,94.0069,0.00160534,0.359176,20.5696,529.192,0.61995,0.0,0.0
1736,433.75,59.3304,66.6297,143.305,100.596,93.2579,0.00170766,0.359196,20.5697,529.022,0.695003,0.0,0.0
1744,435.75,59.5992,66.165,144.944,100.615,93.8314,0.00175481,0.359116,20.5697,528.781,0.640551,0.0,0.0
1752,437.75,59.6179,65.99,150.554,100.615,93.3796,0.00166116,0.359379,20.5688,528.581,0.684765,0.0,0.0
1760,439.75,59.3491,66.3841,140.374,100.631,93.7315,0.0015941,0.359521,20.5691,528.411,0.651753,0.0,0.0
1768,441.75,59.2915,66.2283,142.064,100.653,93.2747,0.001558,0.359417,20.5711,528.151,0.69862,0.0,0.0
1776,443.75,59.32,66.2656,142.329,100.681,93.1666,0.00153549,0.359065,20.5719,527.941,0.711769,0.0,0.0
1784,445.75,59.2529,66.6143,148.962,100.702,93.2858,0.00159226,0.358867,20.5722,527.76,0.701918,0.0,0.0
1792,447.75,59.4479,66.3845,142.4,100.714,93.6337,0.00173012,0.358781,20.5713,527.51,0.668891,0.0,0.0
1800,449.75,59.1604,66.6175,143.834,100.731,93.2143,0.00180776,0.35878,20.5707,527.3,0.711619,0.0,0.0
1808,451.75,59.4835,66.5345,143.234,100.754,92.4552,0.00175229,0.358914,20.5704,527.12,0.788755,0.0,0.0
1816,453.75,59.149,66.3638,140.542,100.762,93.0551,0.00166304,0.358931,20.5703,526.89,0.730123,0.0,0.0
1824,455.75,59.5535,66.0962,145.592,100.781,93.871,0.00154572,0.358917,20.5702,526.699,0.651745,0.0,0.0
1832,457.75,59.4682,66.578,141.35,100.795,93.4009,0.00156697,0.359072,20.5692,526.459,0.699086,0.0,0.0
1840,459.75,59.2704,66.3689,144.117,100.817,93.2721,0.00175379,0.359168,20.5685,526.279,0.713738,0.0,0.0
1848,461.75,59.835,66.6354,147.661,100.832,94.4551,0.00193904,0.359165,20.568,526.069,0.599472,0.0,0.0
1856,463.75,59.6316,66.5808,142.136,100.856,93.8659,0.00196078,0.359483,20.5667,525.829,0.659106,0.0,0.0
1864,465.75,59.7782,66.175,143.131,100.878,92.654,0.00187492,0.359773,20.5662,525.598,0.780377,0.0,0.0
1872,467.75,59.4481,66.571,147.743,100.888,93.8877,0.00182426,0.359786,20.5672,525.428,0.659825,0.0,0.0
1880,469.75,59.4829,66.4414,147.648,100.905,93.3467,0.00184042,0.35956,20.5677,525.218,0.714469,0.0,0.0
1888,471.75,59.3658,66.6343,142.47,100.935,93.0176,0.00178232,0.359407,20.5679,525.008,0.749538,0.0,0.0
1896,473.75,59.6225,66.4808,146.616,100.944,92.9248,0.00170348,0.359339,20.5672,524.788,0.759521,0.0,0.0
1904,475.75,59.5586,66.2158,144.63,100.97,93.9151,0.0016738,0.359549,20.5664,524.568,0.664606,0.0,0.0
1912,477.75,59.3813,66.4897,148.337,100.982,93.6068,0.00163548,0.359945,20.566,524.367,0.695865,0.0,0.0
1920,479.75,59.5102,66.6212,144.488,101.004,93.2174,0.00160093,0.360413,20.5659,524.177,0.736144,0.0,0.0
1928,481.75,59.9594,66.4145,138.904,101.019,93.6894,0.00162138,0.360906,20.5658,523.947,0.691175,0.0,0.0
1936,483.75,59.6433,66.5631,144.785,101.036,93.0526,0.00164905,0.36091,20.5658,523.747,0.755338,0.0,0.0
1944,485.75,59.0106,66.3388,141.201,101.054,93.6124,0.00161494,0.360913,20.5651,523.537,0.701946,0.0,0.0
1952,487.75,60.155,66.5992,144.227,101.064,92.4973,0.00159079,0.361446,20.5641,523.306,0.812765,0.0,0.0
1960,489.75,59.8563,67.1793,140.964,101.074,93.0343,0.00164431,0.362011,20.5637,523.096,0.760544,0.0,0.0
1968,491.75,60.1851,66.3957,143.725,101.082,93.8517,0.00167626,0.362619,20.5622,522.926,0.68106,0.0,0.0
1976,493.75,59.6507,66.9448,141.789,101.105,93.9085,0.00168494,0.363055,20.5616,522.696,0.677567,0.0,0.0
1984,495.75,60.2224,66.8324,143.891,101.117,94.0332,0.00170418,0.363299,20.5619,522.466,0.666433,0.0,0.0
1992,497.75,59.9234,66.6091,136.538,101.121,93.5383,0.00179198,0.3633,20.5628,522.265,0.715268,0.0,0.0
2000,499.75,60.2371,66.5593,143.186,101.148,92.8867,0.00191505,0.363019,20.5631,522.095,0.781881,0.0,0.0
2008,501.75,59.855,67.0077,142.122,101.15,92.9714,0.00200079,0.362407,20.5646,521.865,0.773669,0.0,0.0
2016,503.75,60.2426,66.2461,143.317,101.185,93.405,0.00201399,0.361879,20.5653,521.635,0.734156,0.0,0.0
2024,505.75,60.1538,66.4601,145.539,101.198,92.8715,0.00203076,0.361581,20.5649,521.445,0.787907,0.0,0.0
2032,507.75,60.0971,66.377,144.995,101.219,93.5404,0.00207128,0.362093,20.5632,521.274,0.723892,0.0,0.0
2040,509.75,59.9147,66.6767,141.716,101.228,93.6438,0.00207604,0.362857,20.5612,521.044,0.714609,0.0,0.0
2048,511.75,59.8247,67.0524,149.196,101.26,93.7163,0.00201594,0.363327,20.5602,520.824,0.71042,0.0,0.0
2056,513.75,59.8441,67.2141,144.395,101.265,92.9146,0.00190109,0.363865,20.5609,520.614,0.789665,0.0,0.0
2064,515.75,59.7013,66.6929,142.811,101.279,93.5667,0.00183325,0.364396,20.5614,520.424,0.72676,0.0,0.0
2072,517.75,60.1712,66.6947,146.667,101.301,93.4836,0.00176446,0.364876,20.5605,520.193,0.736972,0.0,0.0
2080,519.75,60.0121,66.9575,139.672,101.323,93.2305,0.00170684,0.365455,20.5582,519.993,0.763784,0.0,0.0
2088,521.75,60.3459,67.4856,141.455,101.346,93.8608,0.0016642,0.366373,20.5562,519.733,0.704085,0.0,0.0
2096,523.75,60.2831,67.0603,142.681,101.37,93.081,0.00165447,0.367147,20.5553,519.543,0.78281,0.0,0.0
2104,525.75,60.003,67.1539,142.425,101.392,93.5956,0.00168341,0.367709,20.555,519.333,0.734189,0.0,0.0
2112,527.75,60.1756,67.05,141.038,101.389,93.4744,0.00178507,0.36806,20.5548,519.143,0.745818,0.0,0.0
2120,529.75,60.0879,67.6334,143.018,101.427,93.1814,0.00194118,0.368725,20.5533,518.882,0.778029,0.0,0.0
2128,531.75,60.1655,67.3982,142.547,101.427,93.0444,0.00206268,0.369636,20.5508,518.692,0.791559,0.0,0.0
2136,533.75,60.8495,67.6856,147.186,101.445,94.2665,0.00212603,0.370919,20.5487,518.462,0.673426,0.0,0.0
2144,535.75,60.3548,67.2757,142.374,101.453,93.2047,0.00212498,0.372148,20.547,518.272,0.778118,0.0,0.0
2152,537.75,60.3777,67.6891,142.963,101.472,93.6205,0.0020754,0.373171,20.5455,518.052,0.738988,0.0,0.0
2160,539.75,60.4698,67.7428,144.282,101.48,93.3375,0.00193657,0.373884,20.5448,517.831,0.767508,0.0,0.0
2168,541.75,60.4195,67.5384,145.135,101.493,93.6991,0.00182289,0.374718,20.5446,517.581,0.733225,0.0,0.0
2176,543.75,60.7913,67.4851,141.255,101.51,93.6682,0.00189226,0.375622,20.5427,517.371,0.737783,0.0,0.0
2184,545.75,60.9992,67.9084,139.491,101.527,92.7929,0.00203285,0.376672,20.5414,517.181,0.825455,0.0,0.0
2192,547.75,60.6304,67.7285,142.289,101.544,93.4319,0.00215726,0.377866,20.5395,516.941,0.763979,0.0,0.0
2200,549.75,60.4715,67.8692,143.276,101.557,93.9034,0.0023026,0.378863,20.5387,516.69,0.718935,0.0,0.0
2208,551.75,60.9957,67.946,140.105,101.574,92.8518,0.00234622,0.379673,20.5383,516.49,0.823848,0.0,0.0
2216,553.75,60.9249,67.912,140.377,101.565,93.3953,0.00232299,0.380252,20.5374,516.29,0.769465,0.0,0.0
2224,555.75,60.9015,68.5331,140.674,101.596,92.4461,0.00223911,0.38107,20.5378,516.07,0.866073,0.0,0.0
2232,557.75,60.9015,68.3584,145.753,101.591,94.6798,0.00219577,0.382606,20.5359,515.81,0.646512,0.0,0.0
2240,559.75,61.0091,68.36,140.829,101.601,92.7453,0.00220467,0.384052,20.5336,515.609,0.836834,0.0,0.0
2248,561.75,61.6842,68.3644,145.454,101.604,93.6824,0.00220181,0.38546,20.5324,515.379,0.74481,0.0,0.0
2256,563.75,61.1255,68.6332,141.666,101.608,92.6981,0.00214707,0.386572,20.5311,515.159,0.842097,0.0,0.0
2264,565.75,61.3936,68.525,142.912,101.615,93.2787,0.00211368,0.387786,20.5293,514.889,0.78551,0.0,0.0
2272,567.75,61.4204,69.1548,136.553,101.623,93.1028,0.00213037,0.389222,20.5284,514.659,0.803542,0.0,0.0
2280,569.75,61.7553,68.7494,142.903,101.628,92.7245,0.00222925,0.390596,20.526,514.448,0.841311,0.0,0.0
2288,571.75,61.9697,68.8151,141.973,101.66,92.3716,0.00235587,0.392252,20.5243,514.238,0.879207,0.0,0.0
2296,573.75,62.1252,69.0804,147.1,101.636,92.9156,0.00243806,0.393831,20.5221,514.008,0.82312,0.0,0.0
2304,575.75,61.9595,69.6723,137.733,101.639,93.3081,0.0024026,0.39514,20.5193,513.778,0.784739,0.0,0.0
2312,577.75,61.6432,69.5636,139.345,101.647,93.0881,0.00236437,0.396592,20.5176,513.497,0.80715,0.0,0.0
2320,579.75,61.4759,69.6916,145.423,101.651,92.4689,0.00238732,0.397938,20.5157,513.277,0.868722,0.0,0.0
2328,581.75,62.0505,69.4006,142.176,101.673,92.2499,0.00249023,0.399165,20.5138,513.017,0.892494,0.0,0.0
2336,583.75,62.3336,69.2855,141.355,101.662,91.977,0.0026457,0.400507,20.5126,512.797,0.918666,0.0,0.0
2344,585.75,62.2872,69.9125,139.484,101.66,92.9101,0.00282512,0.402214,20.5094,512.547,0.825866,0.0,0.0
2352,587.75,62.2906,70.2916,143.344,101.669,92.8827,0.00286788,0.403916,20.5076,512.366,0.829427,0.0,0.0
2360,589.75,62.5457,70.2863,142.265,101.674,91.8417,0.00267789,0.405297,20.5059,512.106,0.933262,0.0,0.0
2368,591.75,62.2132,70.4918,143.554,101.673,92.115,0.00239533,0.406809,20.5042,511.856,0.905884,0.0,0.0
2376,593.75,62.6869,70.6328,145.899,101.686,92.6631,0.00226464,0.408427,20.5018,511.636,0.852594,0.0,0.0
2384,595.75,62.6173,70.5297,139.598,101.695,92.6023,0.0023617,0.409909,20.4996,511.375,0.859478,0.0,0.0
2392,597.75,62.911,71.2055,141.775,101.683,91.935,0.0025703,0.4113,20.4971,511.145,0.924764,0.0,0.0
2400,599.75,63.2065,71.2642,141.709,101.69,91.9547,0.00280508,0.412456,20.4966,510.915,0.923385,0.0,0.0
2408,601.75,62.8021,70.9326,141.389,101.703,91.3508,0.00298177,0.412828,20.4976,510.695,0.98504,0.0,0.0
2416,603.75,62.7796,71.0289,145.14,101.7,92.1063,0.00308261,0.413036,20.498,510.425,0.909235,0.0,0.0
2424,605.75,63.2574,71.161,142.949,101.702,91.8346,0.00321046,0.413631,20.497,510.174,0.936538,0.0,0.0
2432,607.75,63.0218,71.2883,144.377,101.707,91.5765,0.00328078,0.414675,20.4944,509.924,0.962735,0.0,0.0
2440,609.75,63.0297,71.6525,144.531,101.708,91.3914,0.00326827,0.415696,20.4924,509.734,0.981449,0.0,0.0
2448,611.75,63.5916,71.4549,142.144,101.716,92.8959,0.00317946,0.416363,20.4917,509.444,0.832326,0.0,0.0
2456,613.75,63.3509,71.2528,143.441,101.716,92.8168,0.00313191,0.416713,20.4919,509.194,0.840144,0.0,0.0
2464,615.75,63.3817,71.7017,138.743,101.709,91.7793,0.0031602,0.417096,20.4912,508.963,0.942695,0.0,0.0
2472,617.75,63.6877,71.7254,140.185,101.707,92.2326,0.00330363,0.417293,20.4899,508.743,0.897296,0.0,0.0
2480,619.75,63.2911,71.7462,146.484,101.714,91.9218,0.00340033,0.417556,20.49,508.503,0.928832,0.0,0.0
2488,621.75,63.5888,71.7425,143.989,101.692,91.6363,0.00344386,0.417035,20.4907,508.283,0.955441,0.0,0.0
2496,623.75,63.6399,71.3579,139.821,101.715,92.2924,0.00352635,0.416662,20.4916,508.022,0.892052,0.0,0.0
2504,625.75,63.455,71.5108,142.299,101.71,91.653,0.00364591,0.416796,20.4913,507.792,0.955401,0.0,0.0
2512,627.75,63.8373,71.6004,138.634,101.708,91.5237,0.00360983,0.416679,20.4915,507.552,0.96817,0.0,0.0
2520,629.75,63.5732,71.4571,141.039,101.706,91.5607,0.00347636,0.416156,20.4921,507.312,0.964237,0.0,0.0
2528,631.75,63.1848,71.3203,140.9,101.721,91.7037,0.00349398,0.415549,20.4923,507.062,0.95133,0.0,0.0
2536,633.75,64.4978,71.5952,135.715,101.721,91.619,0.00362442,0.415,20.4925,506.881,0.959807,0.0,0.0
2544,635.75,64.3452,71.509,141.307,101.704,90.6774,0.00361159,0.414446,20.4933,506.641,1.05308,0.0,0.0
2552,637.75,63.9053,71.9983,139.072,101.693,91.9512,0.00342503,0.413344,20.4963,506.441,0.924074,0.0,0.0
2560,639.75,63.9578,71.3247,138.127,101.695,91.8721,0.00326801,0.411525,20.4995,506.181,0.932121,0.0,0.0
2568,641.75,63.1957,71.7317,144.183,101.715,92.0435,0.00316772,0.409721,20.502,505.981,0.916803,0.0,0.0
2576,643.75,63.9419,71.1312,144.545,101.702,90.7504,0.00309187,0.407916,20.5033,505.75,1.04547,0.0,0.0
2584,645.75,63.2124,70.8169,140.821,101.696,91.4208,0.00304746,0.405935,20.5061,505.57,0.977381,0.0,0.0
2592,647.75,63.5527,70.9658,141.341,101.69,92.2641,0.00305276,0.402954,20.5122,505.36,0.892607,0.0,0.0
2600,649.75,63.1181,70.7125,138.62,101.679,91.8868,0.00299577,0.399828,20.519,505.15,0.929201,0.0,0.0
2608,651.75,63.3883,70.4407,140.626,101.677,92.2803,0.00281512,0.395458,20.5266,505,0.889804,0.0,0.0
2616,653.75,63.0165,69.8525,147.51,101.68,92.9025,0.00255189,0.390426,20.5335,504.769,0.828402,0.0,0.0
2624,655.75,62.8095,69.26,141.848,101.697,91.5881,0.00236615,0.385631,20.5418,504.569,0.960713,0.0,0.0
2632,657.75,61.9807,69.3647,142.053,101.671,92.2433,0.0023207,0.380247,20.5503,504.389,0.892927,0.0,0.0
2640,659.75,62.6576,68.5477,143.724,101.665,92.2281,0.00227872,0.374207,20.5577,504.229,0.893882,0.0,0.0
2648,661.75,62.5592,68.6329,145.521,101.645,92.2331,0.00209756,0.368162,20.5657,504.059,0.891629,0.0,0.0
2656,663.75,61.463,67.9865,147.036,101.646,92.8619,0.00180926,0.360592,20.5787,503.919,0.82936,0.0,0.0
2664,665.75,61.3553,67.6648,146.708,101.651,93.5784,0.00155558,0.352002,20.5915,503.759,0.759314,0.0,0.0
2672,667.75,61.2358,66.9906,140.808,101.636,93.3401,0.00144217,0.34338,20.6019,503.628,0.7813,0.0,0.0
2680,669.75,60.5697,66.6254,146.084,101.631,93.8644,0.00139219,0.334364,20.6116,503.528,0.729452,0.0,0.0
2688,671.75,60.2806,65.7201,145.374,101.625,94.0099,0.0013463,0.325775,20.623,503.418,0.714678,0.0,0.0
2696,673.75,59.0494,65.3597,147.242,101.613,94.5342,0.00130178,0.315883,20.6355,503.298,0.662563,0.0,0.0
2704,675.75,58.5719,64.8952,147.829,101.587,95.3329,0.00126092,0.306689,20.6503,503.188,0.583058,0.0,0.0
2712,677.75,59.1103,64.2819,147.289,101.593,95.9414,0.00129917,0.296094,20.6641,503.078,0.525232,0.0,0.0
2720,679.75,57.8711,62.7147,145.101,101.574,96.0301,0.0013038,0.285691,20.676,503.008,0.515,0.0,0.0
2728,681.75,57.7007,62.08,148.836,101.568,97.0357,0.00114556,0.275932,20.6883,502.938,0.418894,0.0,0.0
2736,683.75,57.4064,61.2347,147.783,101.552,97.0235,0.00101258,0.265439,20.7027,502.858,0.418555,0.0,0.0
2744,685.75,56.5761,60.787,149.907,101.539,96.8557,0.00109939,0.255749,20.7152,502.798,0.433289,0.0,0.0
2752,687.75,56.1891,60.1211,148.938,101.528,96.9535,0.00132092,0.246288,20.7247,502.718,0.423016,0.0,0.0
2760,689.75,55.8265,59.1469,149.634,101.514,97.1685,0.00153584,0.237774,20.7317,502.668,0.401498,0.0,0.0
2768,691.75,55.0974,58.6252,148.045,101.496,97.3085,0.00176015,0.229297,20.7372,502.577,0.386651,0.0,0.0
2776,693.75,55.188,57.6255,155.523,101.479,98.173,0.00209866,0.2227,20.741,502.567,0.303955,0.0,0.0
2784,695.75,54.2726,57.22,153.43,101.465,98.1888,0.00254182,0.216164,20.7492,502.537,0.301182,0.0,0.0
2792,697.75,53.8991,56.934,149.74,101.443,98.5179,0.00284406,0.20867,20.7604,502.447,0.268464,0.0,0.0
2800,699.75,53.165,55.5079,149.462,101.43,98.7673,0.00295439,0.20186,20.7674,502.427,0.244137,0.0,0.0
2808,701.75,52.621,55.2894,153.094,101.409,98.4352,0.00307251,0.196271,20.7716,502.357,0.27307,0.0,0.0
2816,703.75,52.1456,54.3764,152.393,101.39,98.3713,0.00324239,0.190779,20.7756,502.317,0.277387,0.0,0.0
2824,705.75,51.9102,54.3112,155.759,101.377,98.2217,0.00340142,0.186452,20.7789,502.287,0.29012,0.0,0.0
2832,707.75,51.555,53.8826,154.327,101.35,98.2582,0.00342117,0.18239,20.7812,502.247,0.284321,0.0,0.0
2840,709.75,50.8841,53.1419,147.684,101.343,98.6243,0.00345871,0.179072,20.7822,502.197,0.249487,0.0,0.0
2848,711.75,50.7208,52.4926,151.329,101.318,98.4154,0.00357519,0.176251,20.7846,502.157,0.266742,0.0,0.0
2856,713.75,50.4878,52.0381,153.692,101.305,98.2699,0.00367619,0.17349,20.7875,502.147,0.279126,0.0,0.0
2864,715.75,50.157,51.928,150.525,101.278,98.1553,0.00376276,0.170737,20.7908,502.107,0.287407,0.0,0.0
2872,717.75,49.7581,51.4349,151.288,101.257,98.4935,0.00377771,0.168458,20.7943,502.077,0.2539,0.0,0.0
2880,719.75,49.3101,50.6235,151.623,101.237,97.991,0.00370599,0.16627,20.797,502.057,0.299081,0.0,0.0
2888,721.75,49.4272,50.8751,153.661,101.208,98.059,0.00365941,0.164088,20.7984,501.967,0.290029,0.0,0.0
2896,723.75,49.1239,50.3204,157.241,101.183,97.9971,0.00367548,0.162483,20.799,501.927,0.293578,0.0,0.0
2904,725.75,49.043,50.4958,156.092,101.169,97.8429,0.00375613,0.161071,20.7992,501.907,0.30679,0.0,0.0
2912,727.75,48.9064,49.8292,151.731,101.157,97.9804,0.00385465,0.159693,20.8007,501.847,0.292753,0.0,0.0
2920,729.75,48.4508,49.7161,157.801,101.134,97.8343,0.00404195,0.158195,20.8026,501.827,0.304383,0.0,0.0
2928,731.75,48.0164,49.1473,151.674,101.108,98.4372,0.00420823,0.156763,20.8048,501.787,0.245689,0.0,0.0
2936,733.75,48.5436,48.5807,152.95,101.1,97.918,0.00431699,0.155554,20.8062,501.747,0.293471,0.0,0.0
2944,735.75,47.419,48.9712,153.935,101.09,98.0016,0.00434942,0.154765,20.8069,501.737,0.284699,0.0,0.0
2952,737.75,48.0093,48.3651,153.423,101.08,98.1507,0.0043027,0.15401,20.8071,501.707,0.26989,0.0,0.0
2960,739.75,47.4233,48.7281,152.268,101.075,98.3348,0.00423167,0.153604,20.8066,501.667,0.25221,0.0,0.0
2968,741.75,46.8478,47.5081,150.261,101.072,98.3718,0.00417442,0.153072,20.8063,501.637,0.248495,0.0,0.0
2976,743.75,47.5145,48.4146,149.564,101.056,97.9322,0.00417278,0.152421,20.807,501.587,0.288137,0.0,0.0
2984,745.75,45.0612,46.4055,151.715,101.06,97.9849,0.0042175,0.15181,20.8073,501.567,0.283571,0.0,0.0
2992,747.75,45.2277,46.1876,150.495,101.05,97.9023,0.00427262,0.151144,20.8075,501.577,0.29038,0.0,0.0
3000,749.75,45.0787,46.675,152.75,101.047,97.7628,0.00441789,0.150768,20.8077,501.517,0.303234,0.0,0.0
3008,751.75,45.097,45.6818,153.406,101.058,97.9296,0.00453792,0.150362,20.809,501.497,0.288562,0.0,0.0
3016,753.75,44.6465,45.3339,151.117,101.031,98.0412,0.0045247,0.149764,20.8099,501.446,0.275683,0.0,0.0
3024,755.75,44.3179,45.2147,158.491,101.023,97.7035,0.00449781,0.149206,20.8113,501.426,0.306558,0.0,0.0
3032,757.75,44.5355,45.3239,153.557,101.033,97.6355,0.0044369,0.14856,20.8118,501.386,0.313916,0.0,0.0
3040,759.75,44.7891,45.1647,158.767,101.062,97.9256,0.00431442,0.147605,20.8134,501.376,0.289316,0.0,0.0
3048,761.75,44.0027,44.8419,152.336,101.092,98.2729,0.00423576,0.146944,20.8141,501.346,0.25952,0.0,0.0
3056,763.75,44.1044,44.6703,152.122,101.12,97.8176,0.00425129,0.146536,20.8145,501.326,0.30468,0.0,0.0
3064,765.75,43.7126,44.9528,154.378,101.127,97.8516,0.00430342,0.146277,20.8147,501.286,0.30213,0.0,0.0
3072,767.75,43.6074,44.4988,153.22,101.16,97.7861,0.00436156,0.145755,20.8147,501.256,0.311296,0.0,0.0
3080,769.75,43.5917,43.9796,154.339,101.18,97.7334,0.00450286,0.145346,20.8148,501.186,0.318039,0.0,0.0
3088,771.75,43.5571,44.6624,152.09,101.206,98.0371,0.00473985,0.145152,20.8148,501.176,0.291921,0.0,0.0
3096,773.75,43.4126,44.8803,152.521,101.244,98.028,0.00491237,0.144829,20.8161,501.126,0.296251,0.0,0.0
3104,775.75,43.3405,44.6421,150.171,101.237,98.0929,0.00493918,0.14439,20.8167,501.096,0.289542,0.0,0.0
3112,777.75,43.3876,44.4812,153.44,101.29,97.7948,0.00489904,0.143815,20.8169,501.066,0.322218,0.0,0.0
3120,779.75,42.8466,44.3313,158.003,101.297,98.0458,0.00483311,0.143412,20.8171,501.056,0.299369,0.0,0.0
3128,781.75,42.7212,44.1214,154.377,101.329,98.0326,0.00476253,0.14291,20.8184,501.026,0.303515,0.0,0.0
3136,783.75,42.9458,44.2388,155.571,101.326,98.1974,0.00475242,0.142546,20.819,500.966,0.287804,0.0,0.0
3144,785.75,42.8477,43.4141,153.555,101.369,98.0777,0.00476343,0.142226,20.8197,500.966,0.302875,0.0,0.0
3152,787.75,42.5019,44.045,152.813,101.391,98.2364,0.00471147,0.141897,20.8206,500.926,0.290053,0.0,0.0
3160,789.75,42.4341,43.4542,156.732,101.43,98.3617,0.0047169,0.141481,20.8209,500.896,0.281829,0.0,0.0
3168,791.75,42.5664,43.2133,153.017,101.439,98.1725,0.0048109,0.141304,20.821,500.866,0.300385,0.0,0.0
3176,793.75,42.4706,43.3985,153.581,101.452,98.096,0.00495123,0.141,20.8211,500.846,0.308665,0.0,0.0
3184,795.75,41.7821,43.7541,152.958,101.465,98.4063,0.00494532,0.140887,20.8211,500.826,0.280837,0.0,0.0
3192,797.75,41.7922,43.253,150.484,101.491,98.0716,0.00493164,0.140855,20.8212,500.816,0.314482,0.0,0.0
3200,799.75,42.1504,43.2377,158.996,101.5,98.1426,0.00503392,0.14087,20.8212,500.786,0.308662,0.0,0.0
3208,801.75,41.7532,42.9865,154.748,101.507,98.1355,0.00513351,0.140546,20.8225,500.746,0.309959,0.0,0.0
3216,803.75,42.2323,43.089,153.412,101.514,98.5762,0.00517,0.140179,20.823,500.726,0.269482,0.0,0.0
3224,805.75,42.0423,43.1579,153.953,101.545,98.2136,0.00514433,0.139833,20.8235,500.706,0.306051,0.0,0.0
3232,807.75,41.493,42.8709,156.241,101.561,97.9058,0.00503533,0.139592,20.824,500.686,0.33638,0.0,0.0
3240,809.75,41.7569,42.5797,156.781,101.577,98.313,0.00494475,0.139435,20.8231,500.656,0.299712,0.0,0.0
3248,811.75,41.5101,42.6083,157.444,101.589,98.1142,0.00504906,0.139222,20.8228,500.576,0.319363,0.0,0.0
3256,813.75,41.078,42.4444,155.319,101.611,98.3885,0.00533768,0.13891,20.8226,500.556,0.295677,0.0,0.0
3264,815.75,41.3526,42.9448,156.921,101.641,98.3023,0.00556922,0.138694,20.8227,500.556,0.306438,0.0,0.0
3272,817.75,41.2027,42.7802,152.893,101.629,98.2466,0.00565113,0.138446,20.8234,500.536,0.310567,0.0,0.0
3280,819.75,40.8934,42.4564,153.415,101.652,98.3389,0.00559861,0.138045,20.8237,500.496,0.304072,0.0,0.0
3288,821.75,41.2365,42.2085,154.871,101.652,98.3105,0.00552584,0.13766,20.8239,500.486,0.306685,0.0,0.0
3296,823.75,40.782,42.4255,153.311,101.669,98.1832,0.00547489,0.137508,20.8239,500.476,0.320099,0.0,0.0
3304,825.75,40.6234,42.218,153.26,101.674,98.2709,0.00539755,0.137444,20.8239,500.446,0.312424,0.0,0.0
3312,827.75,40.2447,42.441,154.023,101.694,98.6669,0.00535367,0.137404,20.824,500.446,0.277304,0.0,0.0
3320,829.75,40.9733,42.081,152.681,101.7,98.6822,0.00529532,0.137321,20.824,500.416,0.276374,0.0,0.0
3328,831.75,40.5395,42.0628,152.934,101.711,98.2177,0.00524965,0.137223,20.8251,500.365,0.320708,0.0,0.0
3336,833.75,40.64,42.0039,152.129,101.716,98.4611,0.00531787,0.13707,20.8263,500.355,0.29848,0.0,0.0
3344,835.75,40.4939,42.3223,153.038,101.733,98.097,0.00544943,0.137023,20.8268,500.315,0.333997,0.0,0.0
3352,837.75,40.6552,42.293,154.738,101.745,98.3667,0.0054802,0.136777,20.827,500.305,0.309839,0.0,0.0
3360,839.75,40.2235,41.4346,152.832,101.753,98.2009,0.00542651,0.136564,20.8271,500.275,0.326063,0.0,0.0
3368,841.75,40.4637,42.1642,156.132,101.763,98.3693,0.00541164,0.136275,20.8271,500.245,0.311201,0.0,0.0
3376,843.75,40.0095,41.9696,154.492,101.775,98.3267,0.00544502,0.136094,20.8272,500.235,0.316253,0.0,0.0
3384,845.75,40.2898,41.6348,154.16,101.789,98.239,0.00553078,0.135851,20.8272,500.185,0.325707,0.0,0.0
3392,847.75,39.9573,41.5156,157.412,101.8,98.1533,0.00565921,0.13583,20.8272,500.185,0.334718,0.0,0.0
3400,849.75,39.8338,41.9669,153.191,101.805,98.4996,0.00575408,0.135885,20.8272,500.165,0.302916,0.0,0.0
3408,851.75,40.0249,41.4938,153.479,101.817,98.602,0.00580854,0.135992,20.826,500.115,0.294382,0.0,0.0
3416,853.75,39.6157,41.6286,153.891,101.833,98.3323,,0.136004,,500.095,0.321008,0.0,0.0
3424,855.75,39.7607,41.7823,154.138,101.842,98.4448,,0.135829,,500.055,0.311288,0.0,0.0
3432,857.75,39.6476,41.5235,158.27,101.849,98.5366,,,,500.035,0.303406,0.0,0.0
3440,859.75,39.6168,41.4511,152.964,101.861,98.5503,,,,500.075,0.303171,0.0,0.0
3448,861.75,39.7132,41.3553,151.33,101.871,98.1289,,,,500.025,0.343419,0.0,0.0
3456,863.75,39.5914,41.5343,155.775,101.868,98.4575,,,,500.015,0.312484,0.0,0.0
3458,864.25,39.3121,41.3389,154.762,101.876,98.6051,,,,500.035,0.29941,0.0,0.0