File: 01_Data/OSB/Cone/OSB_Cone_HF25Scan_210324_R2.csv
Names,Time,Stack TC,Smoke TC,Exh Press,Smoke Comp,Smoke Meas,CO Meter,CO2 Meter,O2 Meter,Sample Mass,Ext Coeff,Start Test,Flame Verif
Chan Gain,,500,500,1,1,1,1,1,1,1,1,1.0,1.0
Offset,,0,0,0.194005,0,0,0,0,0,0,0,0.0,0.0
Gain,,1,1,25.011,13.5067,16.616,1,1,1,1.00091,1.04608,1.0,1.0
Units,sec,C,C,Pa,%,%,%,%,%,g,/m,,
Baseline,,20.0591,21.3286,168.281,101.555,101.013,0.00036083,0.0597322,20.9309,-1.03236,0.0490421,,
13,3,17.3631,18.9151,166.995,100.928,100.357,0.000295614,0.0624281,20.9187,571.46,0.0520607,0.0,0.0
26,6.25,17.8675,19.7653,167.883,100.956,100.462,0.000739608,0.0636491,20.9208,571.46,0.0449695,0.0,0.0
39,9.5,18.0778,19.4358,160.677,101.03,100.492,0.000852068,0.0644179,20.9234,571.4,0.0489319,0.0,0.0
52,12.75,18.1497,19.0151,167.977,101.065,100.473,0.000863251,0.0645728,20.9264,571.37,0.0538737,0.0,0.0
65,16,18.6249,19.4019,164.906,101.094,100.526,0.00070051,0.064282,20.9282,571.34,0.0516321,0.0,0.0
78,19.25,18.134,19.8355,168.396,101.136,100.563,0.000635299,0.0638928,20.9288,571.29,0.0521901,0.0,0.0
91,22.5,18.2664,19.7094,171.918,101.189,100.528,0.00049634,0.0633962,20.9297,571.27,0.060131,0.0,0.0
104,25.75,18.7589,19.9461,166.774,101.205,100.439,0.00037157,0.0628761,20.9299,571.24,0.0696557,0.0,0.0
117,29,18.1184,19.8518,166.173,101.237,100.659,0.000509907,0.0622208,20.93,571.19,0.0525316,0.0,0.0
130,32.25,18.4045,19.5692,167.876,101.269,100.591,0.000610585,0.0616324,20.93,571.15,0.0616795,0.0,0.0
143,35.5,18.1625,19.8016,167.298,101.296,100.496,0.0007894,0.0612213,20.9301,571.11,0.0727524,0.0,0.0
156,38.75,18.3149,20.4567,165.14,101.297,100.48,0.000836875,0.0606933,20.9319,571.07,0.0743551,0.0,0.0
169,42,18.4944,19.8567,170.167,101.324,100.345,0.000574392,0.0604748,20.9324,571.02,0.089061,0.0,0.0
182,45.25,18.2066,19.5676,168.433,101.326,100.489,0.00026439,0.060144,20.9325,571.02,0.0760889,0.0,0.0
195,48.5,18.7655,19.8692,166.072,101.337,100.428,0.000249777,0.0599579,20.9323,570.99,0.0826997,0.0,0.0
208,51.75,18.3344,19.5783,170.928,101.324,100.218,0.0003236,0.0598134,20.9307,570.96,0.100753,0.0,0.0
221,55,18.3377,19.7017,171.618,101.319,100.302,0.000404393,0.0598999,20.9304,570.91,0.0925648,0.0,0.0
234,58.25,18.8598,19.9148,167.395,101.297,100.144,0.000477376,0.0600738,20.9303,570.87,0.105108,0.0,0.0
247,61.5,18.1714,20.0853,172.689,101.272,100.097,0.000597251,0.0601169,20.9302,570.86,0.107069,0.0,0.0
260,64.75,18.4562,20.221,170.454,101.224,100.173,0.000637364,0.060269,20.9298,570.82,0.0957188,0.0,0.0
273,68,18.4615,20.1247,169.121,101.216,99.9975,0.000289875,0.060242,20.9295,570.81,0.111104,0.0,0.0
286,71.25,18.794,20.3033,169.74,101.17,99.8829,0.000228104,0.0605141,20.9277,570.78,0.117514,0.0,0.0
299,74.5,19.1818,20.4552,162.806,101.132,99.9443,0.000450734,0.0607207,20.9275,570.74,0.108439,0.0,0.0
312,77.75,18.9427,20.391,166.082,101.094,99.6978,0.000338301,0.0608077,20.9278,570.75,0.127577,0.0,0.0
325,81,18.8179,20.2284,169.115,101.062,99.6583,0.000420681,0.0609298,20.927,570.689,0.128375,0.0,0.0
338,84.25,18.8878,20.5231,165.463,100.999,99.4686,0.000704936,0.0609693,20.9265,570.669,0.140125,0.0,0.0
351,87.5,18.4793,19.9647,164.898,100.96,99.4661,0.000745838,0.0611162,20.9263,570.619,0.136763,0.0,0.0
364,90.75,18.8072,19.8272,169.472,100.914,99.5594,0.000633408,0.0611712,20.9263,570.589,0.124038,0.0,0.0
377,94,18.843,20.2125,165.829,100.844,99.4215,0.000389587,0.0612977,20.9277,570.549,0.130347,0.0,0.0
390,97.25,19.3188,20.4827,166.808,100.786,98.994,0.000577645,0.0613002,20.9277,570.479,0.164633,0.0,0.0
403,100.5,18.769,20.3452,164.146,100.74,98.8383,0.000803858,0.061326,20.9277,570.459,0.174907,0.0,0.0
416,103.75,18.9402,20.662,172.75,100.672,98.9808,0.000837785,0.0613998,20.9295,570.409,0.155454,0.0,0.0
429,107,19.2345,20.0218,167.082,100.615,98.419,0.000799509,0.0613722,20.932,570.359,0.202502,0.0,0.0
442,110.25,19.1121,20.7182,164.924,100.574,98.5158,0.000916742,0.0614525,20.9328,570.329,0.189716,0.0,0.0
455,113.5,19.4347,20.635,167.673,100.518,97.9849,0.000832578,0.0614262,20.933,570.289,0.234186,0.0,0.0
468,116.75,18.6873,21.023,164.926,100.442,98.0681,0.000988147,0.061416,20.9327,570.269,0.219475,0.0,0.0
481,120,18.9238,20.345,167.042,100.406,97.6244,0.00103821,0.061524,20.9323,570.179,0.257809,0.0,0.0
494,123.25,18.9728,20.5184,170.795,100.351,97.7238,0.000985408,0.0616917,20.9309,570.139,0.243422,0.0,0.0
507,126.5,19.3722,20.5711,168.816,100.323,97.8739,0.00104766,0.0617362,20.9299,570.079,0.226776,0.0,0.0
520,129.75,18.8978,20.5833,166.143,100.267,97.0057,0.00133258,0.0617503,20.9295,570.049,0.303438,0.0,0.0
533,133,19.1302,20.5512,167.333,100.228,97.0524,0.00172898,0.0619801,20.925,570.019,0.295403,0.0,0.0
546,136.25,20.221,21.9047,162.513,100.18,99.9798,0.0017421,0.0654128,20.8741,569.799,0.0183402,0.0,1.0
559,139.5,21.0205,24.9106,158.864,100.139,99.1735,0.00177256,0.082579,20.7733,569.398,0.0889386,0.0,1.0
572,142.75,24.268,30.0313,160.484,100.113,98.4154,0.00178213,0.116477,20.6841,569.078,0.156931,0.0,0.0
585,146,27.542,34.7247,155.906,100.077,99.3981,0.00199438,0.162426,20.6089,568.598,0.0624716,0.0,0.0
598,149.25,30.7854,38.8661,153.311,100.036,98.9808,0.00235616,0.2121,20.5678,568.157,0.0972612,0.0,0.0
611,152.5,32.4262,42.0059,151.191,100.028,98.5168,0.00263535,0.252504,20.548,567.697,0.139694,0.0,0.0
624,155.75,34.3658,44.054,146.865,100.006,97.4337,0.00288257,0.292703,20.5331,567.246,0.239096,0.0,0.0
637,159,36.036,46.0722,149.574,99.9894,97.6289,0.00317986,0.325987,20.5222,566.786,0.219215,0.0,0.0
650,162.25,36.686,47.7569,140.953,99.9997,97.2537,0.00338822,0.352491,20.5128,566.356,0.255498,0.0,0.0
663,165.5,37.623,48.5834,153.844,100.006,97.3232,0.00361055,0.371923,20.5127,565.925,0.24955,0.0,0.0
676,168.75,38.1146,49.4095,150.164,100.034,97.8997,0.0035389,0.385799,20.5187,565.465,0.197885,0.0,0.0
689,172,38.4163,49.3165,154.742,100.047,97.3455,0.00345416,0.394034,20.5254,565.094,0.251229,0.0,0.0
702,175.25,38.8605,49.72,155.2,100.077,98.1,0.00360949,0.397949,20.5372,564.694,0.183062,0.0,0.0
715,178.5,38.3384,49.1963,155.166,100.103,97.956,0.00370873,0.398178,20.5483,564.274,0.198961,0.0,0.0
728,181.75,39.3126,49.4019,155.082,100.145,97.8597,0.00359716,0.396766,20.5536,563.893,0.211806,0.0,0.0
741,185,38.911,49.2373,156.369,100.185,98.421,0.00355078,0.393932,20.5593,563.483,0.163021,0.0,0.0
754,188.25,39.2183,49.378,158.473,100.226,98.6284,0.0034393,0.390574,20.5632,563.083,0.147441,0.0,0.0
767,191.5,39.2534,49.2498,146.202,100.263,98.5087,0.00330389,0.386704,20.5708,562.722,0.161979,0.0,0.0
780,194.75,39.1953,48.6728,155.192,100.315,99.1446,0.00328199,0.382048,20.5805,562.332,0.107726,0.0,0.0
793,198,39.0315,48.4422,158.047,100.346,98.9428,0.00317395,0.376809,20.5871,562.002,0.129214,0.0,0.0
806,201.25,39.0917,48.0546,157.477,100.404,99.067,0.00306469,0.371763,20.5912,561.651,0.122975,0.0,0.0
819,204.5,38.6427,47.9405,156.261,100.454,99.5964,0.00311212,0.365573,20.5989,561.301,0.078665,0.0,0.0
832,207.75,38.8807,47.7282,147.569,100.512,99.8216,0.0031215,0.360237,20.6026,560.971,0.0632527,0.0,0.0
845,211,38.6712,47.2401,154.971,100.542,99.1238,0.002973,0.355458,20.609,560.59,0.130327,0.0,0.0
858,214.25,38.1745,46.7604,159.067,100.59,99.0117,0.0029451,0.35021,20.615,560.24,0.145145,0.0,0.0
871,217.5,38.6173,46.2142,156.38,100.627,99.923,0.00291517,0.345429,20.6204,559.98,0.064427,0.0,0.0
884,220.75,38.7804,46.1924,152.434,100.685,99.8743,0.00274166,0.340436,20.6258,559.529,0.0741978,0.0,0.0
897,224,38.4705,45.6634,156.885,100.735,99.7881,0.00271462,0.336026,20.6293,559.319,0.0867034,0.0,0.0
910,227.25,38.1091,45.693,157.309,100.767,100.183,0.00262387,0.331614,20.6332,558.959,0.0533408,0.0,0.0
923,230.5,38.2685,45.4268,156.292,100.794,99.7394,0.00253536,0.327989,20.6337,558.639,0.0965101,0.0,0.0
936,233.75,38.3901,45.404,150.23,100.838,100.016,0.00247615,0.324816,20.6371,558.328,0.0751255,0.0,0.0
949,237,38.0045,45.4628,153.104,100.878,100.202,0.00263541,0.321692,20.6423,558.018,0.0617056,0.0,0.0
962,240.25,37.7792,44.7238,155.275,100.921,100.566,0.00242388,0.318619,20.6466,557.698,0.0323316,0.0,0.0
975,243.5,38.1729,44.9965,155.184,100.979,100.542,0.0023875,0.31516,20.6512,557.407,0.0398269,0.0,0.0
988,246.75,38.1671,44.8214,152.652,100.995,100.796,0.00228182,0.311988,20.6566,557.097,0.0181022,0.0,0.0
1001,250,38.2252,44.3418,159.64,101.009,100.911,0.00225343,0.308331,20.6598,556.807,0.00889439,0.0,0.0
1014,253.25,37.6454,43.7516,159.244,101.038,100.281,0.00226741,0.30463,20.6635,556.497,0.0689999,0.0,0.0
1027,256.5,37.5966,43.6778,147.669,101.065,100.252,0.00237825,0.30127,20.6677,556.226,0.0741718,0.0,0.0
1040,259.75,37.5002,43.781,153.433,101.077,100.771,0.00254687,0.297947,20.6732,555.936,0.0278047,0.0,0.0
1053,263,37.1481,42.9626,159.411,101.105,100.757,0.002395,0.294308,20.6767,555.676,0.0316514,0.0,0.0
1066,266.25,37.7141,43.4574,156.625,101.115,101.229,0.00205297,0.29089,20.6786,555.386,-0.0103906,0.0,0.0
1079,269.5,37.2099,42.6999,155.839,101.124,100.662,0.00184442,0.287528,20.6806,555.125,0.0420038,0.0,0.0
1092,272.75,37.1901,42.1716,153.965,101.137,101.021,0.00171257,0.284341,20.6834,554.845,0.0105313,0.0,0.0
1105,276,36.6569,42.4634,155.932,101.162,101.218,0.00166444,0.281296,20.6873,554.585,-0.0051164,0.0,0.0
1118,279.25,36.6304,42.4103,153.916,101.169,101.217,0.00184903,0.278498,20.6895,554.315,-0.00438914,0.0,0.0
1131,282.5,36.6037,41.7916,156.619,101.181,101.15,0.00204935,0.275715,20.6929,554.054,0.002766,0.0,0.0
1144,285.75,36.5236,41.6881,155.533,101.199,101.223,0.00204324,0.273167,20.6958,553.824,-0.00217379,0.0,0.0
1157,289,36.4755,41.7904,155.314,101.222,101.151,0.00210215,0.270554,20.6993,553.524,0.00641117,0.0,0.0
1170,292.25,36.1862,40.539,152.474,101.247,101.347,0.00229013,0.267659,20.7022,553.274,-0.00904865,0.0,0.0
1183,295.5,36.1022,41.1167,155.7,101.268,101.016,0.00210983,0.264847,20.705,553.023,0.0228402,0.0,0.0
1196,298.75,36.1359,40.529,159.92,101.273,101.606,0.00192454,0.262328,20.7081,552.783,-0.0302101,0.0,0.0
1209,302,35.8155,40.9622,157.486,101.307,101.569,0.00179066,0.259397,20.7115,552.533,-0.023684,0.0,0.0
1222,305.25,35.5403,40.2993,158.267,101.298,101.242,0.00179339,0.256994,20.7127,552.313,0.00508294,0.0,0.0
1235,308.5,35.638,40.2551,156.157,101.313,101.595,0.00180774,0.254508,20.7149,552.063,-0.0254592,0.0,0.0
1248,311.75,35.433,40.0167,162.346,101.338,101.584,0.0017203,0.252068,20.717,551.822,-0.0222124,0.0,0.0
1261,315,35.8326,39.9675,160.108,101.338,101.233,0.00182363,0.249645,20.7217,551.602,0.00949323,0.0,0.0
1274,318.25,35.6562,39.6308,154.968,101.355,101.308,0.00183165,0.247057,20.7242,551.342,0.00426951,0.0,0.0
1287,321.5,35.1931,39.7539,158.073,101.375,101.494,0.0017832,0.244911,20.7264,551.132,-0.0107799,0.0,0.0
1300,324.75,35.3044,39.6054,157.491,101.369,101.568,0.00168768,0.242572,20.7296,550.922,-0.0180021,0.0,0.0
1313,328,35.0787,38.8718,155.803,101.375,101.875,0.00159937,0.240561,20.7325,550.691,-0.0451079,0.0,0.0
1326,331.25,34.9095,39.3924,162.38,101.382,102.197,0.00160007,0.238192,20.735,550.481,-0.0734766,0.0,0.0
1339,334.5,34.8186,38.6874,154.181,101.399,102.264,0.00162294,0.236133,20.7371,550.241,-0.0779099,0.0,0.0
1352,337.75,34.4108,38.4004,161.604,101.415,101.666,0.00174621,0.233885,20.7385,550.021,-0.0226905,0.0,0.0
1365,341,34.5401,38.6353,157.609,101.429,101.962,0.00177493,0.232043,20.7385,549.81,-0.0480748,0.0,0.0
1378,344.25,34.4845,38.1022,160.84,101.442,101.785,0.00170841,0.230145,20.74,549.58,-0.0310239,0.0,0.0
1391,347.5,34.126,38.1451,154.11,101.461,102.106,0.0016359,0.228404,20.7417,549.38,-0.0582002,0.0,0.0
1404,350.75,34.6082,38.3419,156.481,101.464,102.166,0.00164212,0.226736,20.7448,549.13,-0.0632313,0.0,0.0
1417,354,33.6203,37.6263,165.545,101.498,101.967,0.00155856,0.22521,20.7457,548.92,-0.0423426,0.0,0.0
1430,357.25,34.4199,37.7839,157.906,101.503,101.731,0.00133264,0.224039,20.7454,548.699,-0.0206516,0.0,0.0
1443,360.5,34.4019,37.8929,157.724,101.492,101.718,0.00124159,0.223094,20.7464,548.449,-0.0203857,0.0,0.0
1456,363.75,35.1031,37.856,160.923,101.492,101.685,0.00133423,0.222162,20.7507,548.259,-0.0174207,0.0,0.0
1469,367,34.867,38.7177,158.879,101.487,101.876,0.00163394,0.221134,20.7539,548.029,-0.0350568,0.0,0.0
1482,370.25,34.077,37.5751,161.85,101.469,101.934,0.00183892,0.219779,20.7553,547.819,-0.0419849,0.0,0.0
1495,373.5,34.2386,37.8959,163.745,101.487,101.605,0.00188328,0.218863,20.7541,547.618,-0.0106715,0.0,0.0
1508,376.75,33.7059,37.8535,159.026,101.492,101.562,0.00193691,0.218172,20.7538,547.368,-0.00629415,0.0,0.0
1521,380,34.4403,37.6041,156.925,101.487,101.862,0.00201695,0.217712,20.7538,547.208,-0.0338149,0.0,0.0
1534,383.25,34.4452,38.1437,160.541,101.498,101.526,0.00213538,0.217234,20.7537,546.988,-0.00260216,0.0,0.0
1547,386.5,33.7476,37.8472,157.944,101.491,101.541,0.00218705,0.216521,20.7547,546.788,-0.00444441,0.0,0.0
1560,389.75,34.452,38.1309,156.561,101.502,101.729,0.0022017,0.215507,20.7566,546.547,-0.0205058,0.0,0.0
1573,393,33.5788,37.3113,163.01,101.498,101.553,0.00244309,0.214423,20.7584,546.347,-0.00503048,0.0,0.0
1586,396.25,33.4806,37.145,162.062,101.51,101.609,0.00251391,0.213329,20.7604,546.147,-0.00886853,0.0,0.0
1599,399.5,33.3302,36.8785,161.207,101.52,101.758,0.0024654,0.212141,20.7625,545.937,-0.0214278,0.0,0.0
1612,402.75,33.6217,36.3872,159.35,101.511,101.683,0.00234979,0.210768,20.7634,545.727,-0.0155227,0.0,0.0
1625,406,33.2206,36.5839,158.103,101.515,101.618,0.00235116,0.209735,20.7632,545.517,-0.00924519,0.0,0.0
1638,409.25,33.3569,37.0248,160.29,101.517,101.808,0.0023831,0.208561,20.7619,545.316,-0.026334,0.0,0.0
1651,412.5,33.1609,36.4302,156.464,101.52,101.745,0.00231644,0.207605,20.7626,545.126,-0.0202843,0.0,0.0
1664,415.75,33.552,36.8828,166.267,101.517,101.399,0.00235674,0.206577,20.7635,544.926,0.010669,0.0,0.0
1677,419,33.0117,36.5432,158.103,101.526,101.815,0.00239305,0.205531,20.7662,544.756,-0.0260346,0.0,0.0
1690,422.25,32.5885,35.7593,159.595,101.524,101.803,0.00234228,0.20426,20.7676,544.536,-0.0252069,0.0,0.0
1703,425.5,32.779,35.7592,158.273,101.514,101.753,0.00227127,0.20324,20.7692,544.345,-0.0214914,0.0,0.0
1716,428.75,32.8699,36.0846,158.608,101.495,101.503,0.00230768,0.201743,20.7697,544.145,-0.000671119,0.0,0.0
1729,432,32.636,35.8007,159.304,101.489,101.752,0.00258201,0.200584,20.7734,543.975,-0.0237937,0.0,0.0
1742,435.25,32.6105,35.2904,160.243,101.48,101.689,0.00280563,0.199362,20.7754,543.755,-0.0188581,0.0,0.0
1755,438.5,32.4028,35.3302,157.314,101.464,101.553,0.00287022,0.198307,20.7774,543.555,-0.00808623,0.0,0.0
1768,441.75,32.4327,34.9392,161.819,101.446,101.585,0.00275672,0.197017,20.7792,543.375,-0.0124935,0.0,0.0
1781,445,32.3793,35.3157,164.254,101.43,101.408,0.00270517,0.195614,20.7796,543.184,0.00197752,0.0,0.0
1794,448.25,32.7144,34.5779,160.749,101.401,101.831,0.00269918,0.194579,20.7798,542.994,-0.0388212,0.0,0.0
1807,451.5,32.4181,35.1403,161.255,101.387,101.64,0.00267082,0.193504,20.7814,542.814,-0.0229005,0.0,0.0
1820,454.75,32.4614,34.8871,164.996,101.367,101.312,0.00271813,0.192622,20.7818,542.634,0.0049758,0.0,0.0
1833,458,31.6996,34.4402,161.538,101.345,101.7,0.00256847,0.19151,20.7847,542.424,-0.032098,0.0,0.0
1846,461.25,31.6316,34.7827,157.858,101.332,101.544,0.00279464,0.190545,20.7858,542.254,-0.019199,0.0,0.0
1859,464.5,32.1406,34.6749,162.542,101.32,101.191,0.00302678,0.189833,20.7856,542.083,0.0117036,0.0,0.0
1872,467.75,31.4527,34.4756,159.381,101.314,101.471,0.00314442,0.18915,20.7863,541.863,-0.0142402,0.0,0.0
1885,471,31.6069,34.5903,158.011,101.296,101.302,0.00293321,0.188366,20.7848,541.703,-0.000563365,0.0,0.0
1898,474.25,31.6263,34.0958,159.904,101.303,101.312,0.00285122,0.187787,20.7872,541.513,-0.000810053,0.0,0.0
1911,477.5,31.38,34.1949,152.624,101.3,101.613,0.00274133,0.186926,20.7865,541.323,-0.0282941,0.0,0.0
1924,480.75,31.665,34.2873,163.411,101.29,101.412,0.00283286,0.185836,20.786,541.133,-0.0110849,0.0,0.0
1937,484,31.1063,33.8559,161.704,101.3,101.188,0.00312347,0.185086,20.7867,540.952,0.010151,0.0,0.0
1950,487.25,31.0205,33.6055,156.271,101.301,101.483,0.00329436,0.184424,20.787,540.782,-0.0164897,0.0,0.0
1963,490.5,31.1415,33.5296,159.18,101.298,101.277,0.00340159,0.183677,20.7885,540.622,0.00183753,0.0,0.0
1976,493.75,30.8675,33.4363,164.131,101.288,101.404,0.00337738,0.183,20.79,540.442,-0.0105007,0.0,0.0
1989,497,30.8427,33.7789,166.018,101.303,101.204,0.00342987,0.182374,20.7903,540.252,0.00902334,0.0,0.0
2002,500.25,30.6786,33.4892,159.153,101.289,101.187,0.00352916,0.181779,20.7918,540.072,0.0091971,0.0,0.0
2015,503.5,30.9211,33.8526,159.382,101.259,101.371,0.00361948,0.181113,20.7925,539.911,-0.0101322,0.0,0.0
2028,506.75,30.6725,33.2747,161.301,101.276,101.427,0.00363461,0.180845,20.7927,539.721,-0.0136486,0.0,0.0
2041,510,30.6928,33.1,159.872,101.248,101.344,0.00330293,0.180315,20.7938,539.541,-0.00869827,0.0,0.0
2054,513.25,30.475,33.4242,162.354,101.229,101.237,0.00308888,0.17967,20.7948,539.381,-0.000770123,0.0,0.0
2067,516.5,29.977,32.9095,161.158,101.234,101.306,0.003267,0.179216,20.7932,539.231,-0.00652457,0.0,0.0
2080,519.75,30.8864,33.2541,163.915,101.219,101.299,0.00342929,0.179122,20.7923,539.051,-0.00722627,0.0,0.0
2093,523,30.6298,33.0911,163.854,101.215,101.138,0.00375201,0.178796,20.7943,538.871,0.00692601,0.0,0.0
2106,526.25,30.3748,32.8022,160.557,101.2,101.041,0.0040053,0.178268,20.7962,538.7,0.014501,0.0,0.0
2119,529.5,30.6639,33.4852,157.73,101.187,101.129,0.00389,0.177643,20.7982,538.54,0.00525021,0.0,0.0
2132,532.75,30.335,32.9276,163.648,101.178,101.331,0.00371511,0.176906,20.7987,538.38,-0.0138206,0.0,0.0
2145,536,30.598,32.9065,162.436,101.162,101.069,0.00377857,0.176191,20.7988,538.21,0.00840042,0.0,0.0
2158,539.25,30.2819,32.8162,162.9,101.15,101.189,0.00381132,0.175418,20.7989,538.03,-0.0034967,0.0,0.0
2171,542.5,30.4929,32.8541,158.707,101.138,101.11,0.00369436,0.175041,20.7989,537.88,0.00259541,0.0,0.0
2184,545.75,30.3956,32.5034,162.05,101.114,101.084,0.00381201,0.174375,20.7987,537.729,0.00277366,0.0,0.0
2197,549,30.6247,33.1295,157.022,101.104,101.205,0.00381595,0.173915,20.7985,537.559,-0.00920249,0.0,0.0
2210,552.25,29.9387,32.6673,164.039,101.096,100.959,0.00369792,0.173222,20.8001,537.399,0.0123754,0.0,0.0
2223,555.5,29.5082,32.379,163.743,101.085,100.88,0.00380023,0.172631,20.8005,537.229,0.0185946,0.0,0.0
2236,558.75,29.5827,32.2582,160.859,101.066,100.969,0.00397203,0.172237,20.8007,537.069,0.00881352,0.0,0.0
2249,562,29.4746,31.9927,166.583,101.061,100.878,0.00406753,0.171808,20.8007,536.909,0.0166174,0.0,0.0
2262,565.25,29.5017,32.0422,157.403,101.057,101.085,0.00398191,0.171327,20.8018,536.739,-0.0025655,0.0,0.0
2275,568.5,29.4421,32.2515,164.425,101.033,100.983,0.00387653,0.170643,20.8031,536.568,0.0045669,0.0,0.0
2288,571.75,29.4954,31.6831,162.584,101.05,101.007,0.00396477,0.170061,20.804,536.398,0.00389885,0.0,0.0
2301,575,29.6621,31.89,162.29,101.038,100.868,0.00394901,0.169467,20.8049,536.238,0.0155189,0.0,0.0
2314,578.25,28.8435,31.2413,160.145,101.039,100.949,0.00415502,0.169062,20.8062,536.088,0.00821572,0.0,0.0
2327,581.5,29.4078,31.5926,159.079,101.038,100.647,0.0044786,0.16853,20.8065,535.938,0.0356153,0.0,0.0
2340,584.75,29.225,31.1803,164.408,101.018,100.943,0.00466263,0.167962,20.8066,535.788,0.00682217,0.0,0.0
2353,588,29.3948,31.784,160.653,100.978,100.763,0.00428598,0.167421,20.8066,535.618,0.0196054,0.0,0.0
2366,591.25,29.2159,31.3246,161.689,100.961,100.763,0.00380821,0.167219,20.8049,535.477,0.0179865,0.0,0.0
2379,594.5,29.1193,31.5901,164.596,100.925,100.964,0.00390663,0.167228,20.8045,535.307,-0.00350436,0.0,0.0
2392,597.75,29.3458,32.0549,162.497,100.895,100.858,0.00406822,0.167335,20.8043,535.147,0.00340461,0.0,0.0
2405,601,29.2278,31.742,165.743,100.874,100.887,0.00414669,0.167456,20.8038,534.987,-0.00114591,0.0,0.0
2418,604.25,29.3743,31.7275,161.004,100.847,100.694,0.00431893,0.167607,20.8035,534.837,0.013932,0.0,0.0
2431,607.5,29.1362,31.6792,159.722,100.807,100.821,0.00440229,0.167728,20.8035,534.667,-0.00121538,0.0,0.0
2444,610.75,29.0369,31.3171,157.572,100.78,100.705,0.00412807,0.167706,20.8035,534.497,0.00682764,0.0,0.0
2457,614,29.4162,31.1202,159.763,100.743,100.762,0.0041307,0.167448,20.802,534.336,-0.00172411,0.0,0.0
2470,617.25,28.5373,31.223,157.386,100.744,100.634,0.00423719,0.167662,20.8036,534.186,0.01008,0.0,0.0
2483,620.5,29.0309,31.4539,167.232,100.719,100.564,0.00442008,0.167856,20.8046,534.046,0.0141253,0.0,0.0
2496,623.75,29.3114,31.3176,163.627,100.693,100.504,0.00450155,0.167908,20.8038,533.876,0.0172758,0.0,0.0
2509,627,28.5808,30.9462,158.186,100.669,100.616,0.00424194,0.168036,20.8036,533.726,0.00487084,0.0,0.0
2522,630.25,29.1347,31.571,164.276,100.656,100.466,0.0039679,0.168156,20.8027,533.586,0.0174046,0.0,0.0
2535,633.5,28.9177,31.2268,165.231,100.627,100.625,0.00385434,0.168519,20.8016,533.406,0.000242838,0.0,0.0
2548,636.75,29.4125,31.4441,165.743,100.597,100.505,0.00386562,0.16872,20.8024,533.275,0.00838075,0.0,0.0
2561,640,28.7328,31.0377,162.862,100.571,100.378,0.00428248,0.168785,20.8033,533.095,0.0176393,0.0,0.0
2574,643.25,28.8903,31.6471,160.495,100.551,100.504,0.00425904,0.168714,20.8022,532.935,0.00434495,0.0,0.0
2587,646.5,29.0671,31.1775,159.151,100.514,100.243,0.00399989,0.168942,20.8005,532.795,0.0247408,0.0,0.0
2600,649.75,28.6369,31.4019,159.985,100.485,100.275,0.00407233,0.169184,20.8006,532.625,0.0191448,0.0,0.0
2613,653,28.9202,31.8646,158.324,100.456,100.255,0.00413139,0.169391,20.8011,532.485,0.0184494,0.0,0.0
2626,656.25,28.6441,31.3309,159.667,100.422,100.244,0.00399674,0.169587,20.8013,532.335,0.0162527,0.0,0.0
2639,659.5,28.5047,30.8777,160.153,100.396,100.461,0.00382556,0.169512,20.8013,532.124,-0.00591979,0.0,0.0
2652,662.75,28.365,30.8572,164.426,100.372,100.517,0.00375364,0.169541,20.8028,532.004,-0.0132816,0.0,0.0
2665,666,28.6964,31.1577,166.755,100.332,100.645,0.00384001,0.169844,20.8022,531.854,-0.0285958,0.0,0.0
2678,669.25,29.0731,31.4885,163.013,100.292,100.228,0.00402376,0.170347,20.8023,531.684,0.00579026,0.0,0.0
2691,672.5,29.4912,31.6593,164.981,100.266,100.108,0.00410715,0.17042,20.8038,531.544,0.0145447,0.0,0.0
2704,675.75,28.6558,31.2735,160.826,100.233,100.067,0.00413171,0.170273,20.8042,531.394,0.0152,0.0,0.0
2717,679,29.1004,31.4781,158.844,100.202,100.305,0.00411265,0.170601,20.8043,531.244,-0.00940397,0.0,0.0
2730,682.25,29.6671,32.4429,164.885,100.184,100.141,0.00420718,0.170869,20.8043,531.083,0.00397648,0.0,0.0
2743,685.5,29.2719,32.0832,160.15,100.172,100.082,0.00416001,0.170947,20.8035,530.933,0.0082649,0.0,0.0
2756,688.75,28.9256,31.2512,162.122,100.142,100.098,0.00393581,0.170623,20.8031,530.783,0.00406723,0.0,0.0
2769,692,28.7847,31.8541,158.728,100.122,100.226,0.0039172,0.170701,20.8023,530.643,-0.00957534,0.0,0.0
2782,695.25,29.1739,31.8668,160.69,100.106,100.026,0.00420751,0.170693,20.8016,530.463,0.00730748,0.0,0.0
2795,698.5,28.3701,31.026,165.517,100.098,99.9509,0.00428388,0.170906,20.8016,530.343,0.0135148,0.0,0.0
2808,701.75,28.8588,31.7164,166.671,100.073,100.074,0.00409024,0.171226,20.8016,530.173,-5.79757e-05,0.0,0.0
2821,705,29.2344,32.2485,164.202,100.072,99.9331,0.00369664,0.171501,20.8016,530.013,0.0127261,0.0,0.0
2834,708.25,28.9442,31.9097,160.474,100.061,100.082,0.00338438,0.171744,20.8,529.852,-0.00193528,0.0,0.0
2847,711.5,29.5024,31.7921,157.606,100.055,100.133,0.00376335,0.171954,20.7989,529.712,-0.00711297,0.0,0.0
2860,714.75,28.9451,31.3352,155.703,100.04,99.9874,0.00421405,0.172593,20.7992,529.542,0.0047965,0.0,0.0
2873,718,29.2064,31.4818,158.663,100.047,100.048,0.00406675,0.172676,20.8014,529.422,-0.000105013,0.0,0.0
2886,721.25,28.4137,31.068,165.329,100.048,99.9853,0.00347369,0.172649,20.8006,529.272,0.00577714,0.0,0.0
2899,724.5,29.2057,31.738,161.259,100.03,100.207,0.00323487,0.173192,20.7951,529.132,-0.0162848,0.0,0.0
2912,727.75,28.4187,30.6597,163.35,100.079,99.9488,0.0031997,0.174878,20.7922,528.961,0.0119254,0.0,0.0
2925,731,29.0837,31.8205,160.998,100.027,99.9093,0.00308881,0.176218,20.7926,528.781,0.0107935,0.0,0.0
2938,734.25,29.3464,32.0825,162.434,100.012,100.023,0.00298715,0.17698,20.7949,528.671,-0.00103159,0.0,0.0
2951,737.5,29.21,32.1402,160.437,100.016,100.069,0.0030636,0.177457,20.7958,528.521,-0.00480119,0.0,0.0
2964,740.75,28.7256,31.9019,159.718,100.015,99.9174,0.00314488,0.177418,20.7942,528.351,0.00891406,0.0,0.0
2977,744,28.5209,30.8834,159.113,100.013,99.7394,0.00324664,0.177593,20.7937,528.211,0.0251226,0.0,0.0
2990,747.25,29.1594,32.1032,163.169,99.9976,100.033,0.00329332,0.177592,20.7934,528.061,-0.00320179,0.0,0.0
3003,750.5,29.3819,31.4826,164.127,100.011,99.8783,0.00325715,0.1777,20.7944,527.891,0.0121985,0.0,0.0
3016,753.75,28.5418,31.4121,167.98,100.024,99.7161,0.00295677,0.177599,20.795,527.77,0.0282518,0.0,0.0
3029,757,29.2024,31.8759,158.744,100.004,100.131,0.00257052,0.177479,20.7951,527.6,-0.0116994,0.0,0.0
3042,760.25,29.6727,32.1527,160.957,100.002,99.9534,0.00253582,0.177511,20.7931,527.45,0.0044357,0.0,0.0
3055,763.5,29.2825,32.4046,160.752,99.9968,99.8794,0.00285077,0.177874,20.7922,527.29,0.0107804,0.0,0.0
3068,766.75,29.4962,32.229,163.155,99.9955,99.886,0.00297574,0.178375,20.792,527.15,0.0100614,0.0,0.0
3081,770,29.52,32.1205,165.51,100.003,99.8783,0.00294811,0.178893,20.7919,526.98,0.0114043,0.0,0.0
3094,773.25,28.9841,31.6565,159.753,99.9951,100.027,0.00274918,0.179422,20.7919,526.84,-0.00291674,0.0,0.0
3107,776.5,28.4816,31.0531,160.629,100.037,100.023,0.00264803,0.179639,20.7922,526.679,0.00127537,0.0,0.0
3120,779.75,29.3958,31.9816,162.92,99.9931,100.014,0.0026227,0.180102,20.7922,526.529,-0.00194239,0.0,0.0
3133,783,29.7502,32.5228,164.96,100.005,99.9336,0.00250299,0.180503,20.7901,526.399,0.00651611,0.0,0.0
3146,786.25,28.3267,31.6815,168.865,99.9997,99.922,0.00255488,0.181165,20.7871,526.189,0.00713369,0.0,0.0
3159,789.5,29.8553,32.6772,161.794,100,100.089,0.00245295,0.182262,20.7858,526.059,-0.0081355,0.0,0.0
3172,792.75,29.5413,32.7197,162.08,100.002,100.141,0.00224407,0.183152,20.7859,525.909,-0.0127257,0.0,0.0
3185,796,29.8572,32.9205,160.841,100.016,100.013,0.00199755,0.183963,20.7859,525.729,0.000230805,0.0,0.0
3198,799.25,28.5832,32.0603,156.431,100.001,100.072,0.00196957,0.184691,20.7841,525.598,-0.00652566,0.0,0.0
3211,802.5,29.8382,32.0957,161.298,99.9968,100.092,0.00196688,0.185322,20.7842,525.418,-0.00871798,0.0,0.0
3224,805.75,29.5444,32.6417,165.479,100.011,100.168,0.00203938,0.186096,20.7842,525.258,-0.0144489,0.0,0.0
3237,809,28.8829,32.8062,159.611,100.01,99.9356,0.00212908,0.186834,20.7842,525.098,0.00685934,0.0,0.0
3250,812.25,30.0017,32.8696,160.246,99.9918,99.9397,0.00209594,0.187151,20.7842,524.928,0.00478556,0.0,0.0
3263,815.5,29.6749,32.7944,158.442,100.003,100.035,0.00200597,0.187711,20.7827,524.798,-0.00285766,0.0,0.0
3276,818.75,29.7855,32.8311,160.798,100.009,99.854,0.00182044,0.188524,20.7805,524.608,0.0142455,0.0,0.0
3289,822,30.0447,33.0445,161.61,100.007,100.118,0.00185878,0.189457,20.7798,524.447,-0.0101891,0.0,0.0
3302,825.25,29.9776,33.3661,169.155,100.008,100.24,0.00201097,0.19037,20.7788,524.277,-0.0212694,0.0,0.0
3315,828.5,29.4678,33.0155,172.657,100.004,100.003,0.00198494,0.191158,20.7784,524.107,6.45386e-05,0.0,0.0
3328,831.75,30.0534,33.3126,158.972,100.007,99.7744,0.00177296,0.191887,20.7771,523.937,0.0213375,0.0,0.0
3341,835,29.9857,33.2541,161.455,99.9984,99.9595,0.00147049,0.192751,20.7772,523.767,0.00357519,0.0,0.0
3354,838.25,30.1855,33.4623,164.94,100.007,100.15,0.00147259,0.193725,20.7763,523.597,-0.013108,0.0,0.0
3367,841.5,30.0683,33.5824,160.22,100.011,100.113,0.00166463,0.194741,20.7746,523.396,-0.00933772,0.0,0.0
3380,844.75,30.6269,33.6581,161.797,100.008,100.02,0.00167809,0.195432,20.7739,523.256,-0.00109285,0.0,0.0
3393,848,30.4595,33.7266,156.941,100.012,99.9975,0.00169242,0.196592,20.7722,523.076,0.00129397,0.0,0.0
3406,851.25,30.413,33.995,162.249,100.014,100.352,0.00159891,0.197642,20.7703,522.906,-0.031031,0.0,0.0
3419,854.5,30.3063,34.3053,161.797,100.007,100.063,0.00152538,0.198445,20.7687,522.736,-0.00516018,0.0,0.0
3432,857.75,30.8503,34.4428,161.117,99.9931,100.027,0.00155687,0.199428,20.7679,522.546,-0.00315201,0.0,0.0
3445,861,31.2505,34.5587,159.044,100.024,99.8931,0.00151044,0.200413,20.7652,522.366,0.0119822,0.0,0.0
3458,864.25,30.7725,34.2769,156.403,100.015,100.025,0.00150891,0.201689,20.7631,522.165,-0.000952818,0.0,0.0
3471,867.5,31.1541,35.114,155.763,100.01,100.185,0.00155434,0.203248,20.7607,521.985,-0.0160574,0.0,0.0
3484,870.75,31.3005,34.8331,158.183,100.015,100.198,0.00140052,0.204529,20.7607,521.795,-0.0168108,0.0,0.0
3497,874,31.0214,34.6882,163.113,100.006,100.222,0.00121237,0.20597,20.7595,521.615,-0.0197784,0.0,0.0
3510,877.25,31.5766,34.9376,157.203,100.005,100.647,0.001063,0.207548,20.7581,521.405,-0.0586406,0.0,0.0
3523,880.5,31.4555,35.477,157.088,100.005,99.8236,0.0011934,0.208892,20.7552,521.224,0.0167014,0.0,0.0
3536,883.75,31.0749,35.0799,157.513,100.007,99.923,0.00133571,0.210435,20.7545,521.054,0.00768347,0.0,0.0
3549,887,31.6442,35.0468,161.765,100.002,99.9037,0.00135911,0.212082,20.7543,520.844,0.00903755,0.0,0.0
3562,890.25,31.9625,35.4525,159.683,100.001,99.9144,0.00127257,0.213562,20.7505,520.644,0.00794577,0.0,0.0
3575,893.5,31.8228,35.6948,161.128,100.01,100.099,0.00116906,0.215337,20.7481,520.414,-0.00815849,0.0,0.0
3588,896.75,32.0552,36.0147,169.1,100.014,99.9387,0.00130907,0.217331,20.7449,520.244,0.00692164,0.0,0.0
3601,900,32.4646,35.9978,158.914,99.9993,99.8971,0.00160487,0.219462,20.7411,520.023,0.0093785,0.0,0.0
3614,903.25,32.1848,36.383,154.535,100.001,99.958,0.00163701,0.22168,20.7389,519.843,0.00397976,0.0,0.0
3627,906.5,32.3381,36.9527,156.764,100.007,100.009,0.00149734,0.223667,20.7371,519.633,-0.00018268,0.0,0.0
3640,909.75,32.3319,36.6446,156.045,100.012,99.8013,0.00153955,0.2253,20.7349,519.403,0.0193958,0.0,0.0
3653,913,32.7267,37.0378,160.214,100.004,99.8565,0.00168348,0.227276,20.7323,519.183,0.0135584,0.0,0.0
3666,916.25,33.0255,37.0111,154.526,100.026,99.9752,0.00174929,0.229537,20.7285,518.972,0.00470357,0.0,0.0
3679,919.5,32.9776,37.2772,158.285,100.012,100.174,0.00178438,0.231904,20.7253,518.742,-0.0148554,0.0,0.0
3692,922.75,33.5217,37.501,159.653,99.9997,99.8048,0.00153802,0.234381,20.7239,518.502,0.017897,0.0,0.0
3705,926,34.019,38.3399,159.881,100.008,99.9286,0.00136079,0.23661,20.7201,518.292,0.00728453,0.0,0.0
3718,929.25,33.6693,38.2334,161.365,100.016,99.7567,0.0015649,0.239079,20.7154,518.072,0.0238014,0.0,0.0
3731,932.5,33.7352,37.9333,157.079,100.008,99.6522,0.00167046,0.241819,20.7109,517.801,0.0326968,0.0,0.0
3744,935.75,34.1258,38.6626,155.294,100.015,99.781,0.00174377,0.244407,20.7082,517.601,0.0215252,0.0,0.0
3757,939,33.9979,38.6412,156.403,100.026,100.259,0.00158655,0.247007,20.7081,517.341,-0.0213604,0.0,0.0
3770,942.25,34.512,39.1532,161.328,100.017,99.8175,0.00135167,0.24948,20.7058,517.101,0.0182824,0.0,0.0
3783,945.5,34.6025,39.1536,161.768,100.026,99.3845,0.00137928,0.252273,20.7016,516.84,0.0590855,0.0,0.0
3796,948.75,34.8121,39.3431,157.195,100.024,99.8398,0.00147513,0.254962,20.6983,516.59,0.016874,0.0,0.0
3809,952,34.6544,39.86,156.338,100.038,99.9022,0.00175294,0.257521,20.6958,516.35,0.0125044,0.0,0.0
3822,955.25,35.2208,40.1601,157.58,100.024,99.5351,0.00189774,0.260143,20.6934,516.1,0.0449259,0.0,0.0
3835,958.5,35.2654,40.577,157.202,100.035,99.6248,0.00193789,0.262668,20.6893,515.83,0.0376767,0.0,0.0
3848,961.75,35.8024,40.6409,153.532,100.046,99.0427,0.00206828,0.265434,20.6865,515.569,0.0924728,0.0,0.0
3861,965,35.6057,41.2105,156.371,100.062,99.3596,0.0020079,0.268597,20.6813,515.309,0.0645943,0.0,0.0
3874,968.25,35.8217,41.2438,159.438,100.048,99.0782,0.00183815,0.271722,20.6785,514.989,0.089412,0.0,0.0
3887,971.5,36.2911,41.7986,155.152,100.063,99.2871,0.00186726,0.274813,20.6742,514.759,0.0714066,0.0,0.0
3900,974.75,36.6732,42.1165,155.723,100.072,99.2156,0.00193705,0.277837,20.6708,514.488,0.0788852,0.0,0.0
3913,978,37.2042,42.1199,155.818,100.067,99.1223,0.00196973,0.281046,20.6664,514.188,0.0870274,0.0,0.0
3926,981.25,37.012,42.6068,154.2,100.078,99.2044,0.0019172,0.284238,20.6623,513.898,0.0804468,0.0,0.0
3939,984.5,37.1552,43.0527,151.686,100.08,98.5239,0.00207348,0.287381,20.6593,513.648,0.143796,0.0,0.0
3952,987.75,37.3992,42.9848,156.914,100.081,98.7232,0.00212295,0.290369,20.6535,513.267,0.125331,0.0,0.0
3965,991,37.492,43.4146,153.015,100.081,99.781,0.00213779,0.29354,20.6506,513.047,0.0275364,0.0,0.0
3978,994.25,37.585,43.5308,150.099,100.08,98.6558,0.00204888,0.296973,20.6429,512.747,0.131488,0.0,0.0
3991,997.5,37.9881,43.287,157.738,100.08,98.387,0.00222274,0.30092,20.6397,512.446,0.156557,0.0,0.0
4004,1000.75,38.1831,43.9596,157.357,100.076,98.137,0.00229453,0.304725,20.6359,512.136,0.179487,0.0,0.0
4017,1004,38.3403,44.3729,154.575,100.078,98.1015,0.00211128,0.308635,20.6321,511.836,0.183032,0.0,0.0
4030,1007.25,38.5007,44.4133,153.748,100.067,97.3354,0.00201014,0.312114,20.6305,511.456,0.253961,0.0,0.0
4043,1010.5,39.2082,44.8282,151.498,100.072,98.3906,0.00209458,0.315376,20.6296,511.175,0.155507,0.0,0.0
4056,1013.75,39.0151,44.9033,156.88,100.061,97.5189,0.00213286,0.318447,20.625,510.845,0.236105,0.0,0.0
4069,1017,39.2049,45.1559,151.268,100.071,98.0544,0.00225897,0.321449,20.6202,510.535,0.186803,0.0,0.0
4082,1020.25,39.742,45.7721,153.038,100.083,97.4865,0.00230167,0.324614,20.616,510.194,0.241238,0.0,0.0
4095,1023.5,40.107,46.0151,149.477,100.064,97.7659,0.00248329,0.327837,20.6136,509.844,0.2132,0.0,0.0
4108,1026.75,39.8147,46.2418,152.239,100.068,96.5372,0.00287327,0.330491,20.6103,509.494,0.329627,0.0,0.0
4121,1030,40.4075,46.6671,153.813,100.063,96.8404,0.0030252,0.333228,20.6046,509.163,0.300397,0.0,0.0
4134,1033.25,40.5739,47.0445,151.664,100.057,96.9185,0.00302553,0.33607,20.6031,508.843,0.292471,0.0,0.0
4147,1036.5,40.9487,47.3374,153.478,100.053,96.8374,0.00312398,0.339226,20.5989,508.483,0.29974,0.0,0.0
4160,1039.75,41.0851,47.5072,154.432,100.043,97.0301,0.00311698,0.34282,20.5926,508.143,0.28063,0.0,0.0
4173,1043,41.6709,48.0411,155.397,100.068,96.0174,0.00304183,0.346646,20.588,507.782,0.379166,0.0,0.0
4186,1046.25,41.445,48.2058,151.649,100.051,96.2624,0.00282085,0.349971,20.5861,507.422,0.354202,0.0,0.0
4199,1049.5,41.6388,48.5763,154.571,100.05,95.5433,0.00284783,0.352735,20.58,507.052,0.422964,0.0,0.0
4212,1052.75,42.114,49.111,153.54,100.038,96.4885,0.0030497,0.356326,20.5734,506.671,0.331459,0.0,0.0
4225,1056,42.3552,49.9589,152.763,100.022,95.089,0.0032835,0.360549,20.5701,506.351,0.464093,0.0,0.0
4238,1059.25,42.6457,49.853,146.914,100.031,97.1523,0.00355939,0.364832,20.5642,505.951,0.267908,0.0,0.0
4251,1062.5,43.0864,50.2424,151.699,100.034,95.6032,0.00360595,0.369175,20.5569,505.59,0.415706,0.0,0.0
4264,1065.75,42.7221,50.4036,153.552,100.013,95.5864,0.00374972,0.37402,20.552,505.19,0.415383,0.0,0.0
4277,1069,43.7537,51.3778,152.66,100.018,95.9089,0.00401743,0.377985,20.5477,504.81,0.384968,0.0,0.0
4290,1072.25,43.7846,51.7763,151.604,100.009,95.5809,0.00418999,0.381945,20.5414,504.399,0.415541,0.0,0.0
4303,1075.5,44.342,52.1887,150.953,100.015,96.0144,0.00422923,0.385879,20.538,504.039,0.374618,0.0,0.0
4316,1078.75,44.2145,52.1429,150.583,99.9997,94.8988,0.00446603,0.389514,20.5351,503.628,0.48042,0.0,0.0
4329,1082,44.527,52.2809,150.141,100.003,95.054,0.00482898,0.392059,20.5323,503.238,0.465769,0.0,0.0
4342,1085.25,45.1566,52.4644,147.787,100.006,94.5413,0.00470693,0.393955,20.5319,502.868,0.515619,0.0,0.0
4355,1088.5,44.9665,52.4806,152.776,99.9894,93.3573,0.00448495,0.394947,20.5327,502.497,0.629753,0.0,0.0
4368,1091.75,45.0112,52.4571,150.729,100.004,93.7878,0.00469459,0.395391,20.534,502.117,0.588898,0.0,0.0
4381,1095,45.4594,52.4512,151.557,99.9898,94.9805,0.00460314,0.395514,20.5342,501.747,0.471622,0.0,0.0
4394,1098.25,44.7438,52.4378,152.682,100.01,93.5652,0.00437121,0.394804,20.5364,501.396,0.611195,0.0,0.0
4407,1101.5,45.0236,52.6466,151.776,100,93.12,0.00426064,0.393531,20.538,501.026,0.65413,0.0,0.0
4420,1104.75,45.052,52.1729,147.626,100.012,94.4648,0.00413625,0.391433,20.5444,500.656,0.523659,0.0,0.0
4433,1108,44.7765,51.9889,154.801,100.002,94.4465,0.00409777,0.388264,20.5505,500.315,0.524449,0.0,0.0
4446,1111.25,45.3953,52.194,158.934,99.9927,94.4967,0.00400069,0.384756,20.5543,499.955,0.518742,0.0,0.0
4459,1114.5,45.1493,51.8591,152.038,99.9951,93.4253,0.00380441,0.380585,20.558,499.645,0.623606,0.0,0.0
4472,1117.75,45.0086,51.7025,152.756,100,93.5409,0.00361726,0.377257,20.5592,499.284,0.612712,0.0,0.0
4485,1121,44.9658,51.5509,143.132,99.9984,94.0464,0.00364397,0.373754,20.564,498.974,0.563101,0.0,0.0
4498,1124.25,44.797,51.6783,151.202,100.004,94.1027,0.00382966,0.370251,20.567,498.614,0.558102,0.0,0.0
4511,1127.5,44.8681,50.9897,157.907,99.9972,95.3937,0.00389579,0.366118,20.5752,498.354,0.432462,0.0,0.0
4524,1130.75,44.2887,50.4069,155.366,99.9993,94.7812,0.00369421,0.361127,20.5783,498.023,0.491765,0.0,0.0
4537,1134,44.4347,50.261,151.576,99.9968,95.195,0.00348968,0.356547,20.5822,497.743,0.451565,0.0,0.0
4550,1137.25,44.2144,50.2383,150.207,100.007,95.8136,0.00345911,0.352178,20.5872,497.433,0.393034,0.0,0.0
4563,1140.5,44.1935,50.0296,149.236,99.9902,95.4191,0.00333225,0.347675,20.5944,497.153,0.429381,0.0,0.0
4576,1143.75,43.6118,49.3958,151.738,99.9902,95.4647,0.00306295,0.342586,20.6011,496.912,0.424994,0.0,0.0
4589,1147,43.8129,48.9153,152.117,99.9894,95.5895,0.0029002,0.336925,20.6092,496.622,0.412935,0.0,0.0
4602,1150.25,43.172,48.7374,147.82,99.9947,95.8572,0.00283077,0.331046,20.6161,496.362,0.387761,0.0,0.0
4615,1153.5,43.1743,48.1341,147.715,99.9939,95.3101,0.00281697,0.325717,20.6206,496.142,0.440211,0.0,0.0
4628,1156.75,42.8492,47.517,157.122,99.9869,95.6574,0.00290959,0.319219,20.6276,495.891,0.406189,0.0,0.0
4641,1160,42.5555,47.2184,158.434,99.9881,95.6564,0.00312811,0.313687,20.6341,495.661,0.406399,0.0,0.0
4654,1163.25,42.1651,47.2266,154.154,99.9881,95.3542,0.00330489,0.307307,20.6415,495.441,0.435436,0.0,0.0
4667,1166.5,41.924,46.7523,155.898,99.9782,95.9241,0.00359767,0.300862,20.6509,495.191,0.379843,0.0,0.0
4680,1169.75,41.132,45.631,156.119,99.9976,95.8572,0.00405952,0.294019,20.657,495.031,0.388026,0.0,0.0
4693,1173,40.9788,45.1668,152.768,99.9935,95.4003,0.00426747,0.287386,20.6624,494.79,0.431488,0.0,0.0
4706,1176.25,40.3463,44.6834,160.076,99.9931,96.5159,0.00411263,0.280854,20.671,494.6,0.324771,0.0,0.0
4719,1179.5,40.427,43.9261,156.71,99.9914,96.3699,0.00430696,0.273938,20.6787,494.43,0.338515,0.0,0.0
4732,1182.75,39.7695,43.3138,158.57,99.9832,96.2294,0.00475579,0.267573,20.6857,494.25,0.351143,0.0,0.0
4745,1186,39.7166,42.8864,157.21,99.9984,96.4216,0.00528326,0.261279,20.6936,494.07,0.334235,0.0,0.0
4758,1189.25,39.2824,42.7582,159.894,99.9795,97.4337,0.00567795,0.254704,20.702,493.92,0.236674,0.0,0.0
4771,1192.5,38.8023,41.5624,159.539,99.9852,98.2222,0.00578348,0.247922,20.7105,493.769,0.163243,0.0,0.0
4784,1195.75,38.1331,41.1599,161.593,99.9931,98.8322,0.00613408,0.241153,20.7187,493.589,0.10715,0.0,0.0
4797,1199,37.6559,40.6168,153.327,99.9894,98.4519,0.0064704,0.23503,20.7253,493.469,0.142187,0.0,0.0
4810,1202.25,37.9741,39.9658,160.375,99.9774,99.1142,0.00657697,0.229145,20.7322,493.299,0.0795728,0.0,0.0
4823,1205.5,37.4571,39.7972,157.252,99.9988,99.3753,0.00659683,0.223425,20.737,493.169,0.0573942,0.0,0.0
4836,1208.75,36.9671,39.2932,157.588,100.003,99.0488,0.00675357,0.218619,20.7428,493.039,0.0879386,0.0,0.0
4849,1212,36.0346,38.4164,158.294,100.002,99.7901,0.00704599,0.213861,20.748,492.909,0.0194384,0.0,0.0
4862,1215.25,35.9512,38.1136,164.07,99.9939,99.6385,0.00745454,0.209939,20.7511,492.789,0.0326717,0.0,0.0
4875,1218.5,35.8503,37.8293,158.746,99.9918,99.3748,0.00758934,0.20634,20.7551,492.658,0.0567985,0.0,0.0
4888,1221.75,35.4847,37.1103,159.288,100.007,100.015,0.0073483,0.203249,20.759,492.508,-0.000703391,0.0,0.0
4901,1225,35.2017,36.883,166.56,99.9968,99.9331,0.00745074,0.200151,20.7608,492.418,0.00584383,0.0,0.0
4914,1228.25,34.7225,36.7455,158.766,100.005,99.7435,0.00754417,0.197663,20.7643,492.288,0.0240316,0.0,0.0
4927,1231.5,34.4888,36.2655,162.192,99.9922,99.9417,0.00736131,0.194554,20.7694,492.178,0.00463687,0.0,0.0
4940,1234.75,34.3467,35.8932,160.343,99.9988,99.8753,0.0071729,0.191327,20.7722,492.058,0.0113431,0.0,0.0
4953,1238,33.9428,35.1981,159.571,100.001,99.9012,0.00719559,0.18825,20.7759,491.958,0.00919491,0.0,0.0
4966,1241.25,33.4085,35.0447,156.981,100.005,100.393,0.00724816,0.185234,20.7792,491.858,-0.0354867,0.0,0.0
4979,1244.5,33.3215,34.6792,157.59,100,99.9362,0.00735899,0.182495,20.784,491.748,0.00586788,0.0,0.0
4992,1247.75,32.9371,33.9822,160.008,100.005,99.958,0.00748765,0.179073,20.7881,491.668,0.00435698,0.0,0.0
5005,1251,32.5472,33.6886,157.741,100.006,99.9843,0.00767974,0.176001,20.7924,491.567,0.00197533,0.0,0.0
5018,1254.25,32.2912,33.3519,161.672,99.9951,99.7937,0.0076172,0.173102,20.7952,491.497,0.0185062,0.0,0.0
5031,1257.5,32.1077,33.3096,160.539,100.001,99.7257,0.00760736,0.17052,20.7976,491.387,0.0252862,0.0,0.0
5044,1260.75,31.4411,32.6708,162.096,100.009,99.9149,0.00769198,0.16744,20.8029,491.307,0.0086179,0.0,0.0
5057,1264,31.2061,32.2093,160.986,100.011,99.8429,0.00795002,0.164599,20.8063,491.237,0.0154588,0.0,0.0
5070,1267.25,31.1536,31.9737,163.206,100,99.8307,0.00784124,0.161819,20.8083,491.177,0.0155953,0.0,0.0
5083,1270.5,30.685,31.474,161.475,100.015,100.091,0.00760449,0.159116,20.8122,491.097,-0.00692249,0.0,0.0
5096,1273.75,30.3922,31.0266,167.945,100.013,99.9808,0.00770179,0.155911,20.8146,491.017,0.00298143,0.0,0.0
5109,1277,30.3509,30.7749,161.015,100.018,99.8905,0.00758081,0.153679,20.8144,490.937,0.011685,0.0,0.0
5122,1280.25,30.1212,30.3649,161.688,100.033,99.8479,0.00783425,0.151527,20.8173,490.877,0.0170366,0.0,0.0
5135,1283.5,29.4636,30.2731,167.603,100.031,99.7338,0.00848331,0.14908,20.8228,490.827,0.0272627,0.0,0.0
5148,1286.75,29.3563,29.8002,160.75,100.035,99.7348,0.00892992,0.146431,20.8249,490.757,0.0275844,0.0,0.0
5161,1290,29.3248,29.1924,163.716,100.03,99.9169,0.00933418,0.14414,20.827,490.687,0.0103608,0.0,0.0
5174,1293.25,28.9767,29.1484,162.401,100.042,99.7293,0.00987634,0.142084,20.8295,490.637,0.0287022,0.0,0.0
5187,1296.5,28.6071,28.5453,160.887,100.044,99.7688,0.0105346,0.139819,20.8327,490.577,0.0252906,0.0,0.0
5200,1299.75,28.5285,28.542,160.591,100.045,99.7247,0.0110556,0.13818,20.8285,490.486,0.0294262,0.0,0.0
5213,1303,28.0383,28.082,162.593,100.064,99.6846,0.0111901,0.13806,20.8256,490.436,0.0348514,0.0,0.0
5226,1306.25,27.8145,27.7813,164.363,100.071,99.6552,0.0110841,0.138486,20.8248,490.386,0.0381636,0.0,0.0
5239,1309.5,27.7582,27.9165,165.608,100.083,99.6512,0.0110893,0.139109,20.8246,490.316,0.039633,0.0,0.0
5252,1312.75,27.7807,27.5364,162.788,100.098,99.7135,0.011176,0.139505,20.8251,490.266,0.0352906,0.0,0.0
5265,1316,27.1261,27.3192,164.448,100.101,99.7617,0.0113201,0.139457,20.8269,490.216,0.0311609,0.0,0.0
5278,1319.25,26.9249,27.0502,166.883,100.113,99.7972,0.0112576,0.139168,20.8296,490.166,0.0289912,0.0,0.0
5291,1322.5,26.7168,26.4768,161.681,100.109,99.8079,0.0111048,0.138274,20.8315,490.116,0.0276346,0.0,0.0
5304,1325.75,26.2128,25.997,161.758,100.135,99.746,0.01104,0.137428,20.832,490.056,0.0357036,0.0,0.0
5317,1329,26.4095,26.5588,164.727,100.149,99.6583,0.0110178,0.136549,20.8337,489.996,0.045099,0.0,0.0
5330,1332.25,26.2135,26.1335,163.644,100.148,99.8084,0.0107775,0.13555,20.8353,489.916,0.0311391,0.0,0.0
5343,1335.5,25.816,26.1526,168.323,100.181,99.8342,0.0106524,0.13429,20.8372,489.856,0.0318574,0.0,0.0
5356,1338.75,25.7141,25.4559,163.977,100.19,99.8555,0.0106562,0.133137,20.8386,489.836,0.0306561,0.0,0.0
5369,1342,24.8592,25.9541,163.442,100.202,99.8748,0.0106419,0.131906,20.8389,489.796,0.0299801,0.0,0.0
5382,1345.25,25.7821,25.7202,164.753,100.219,99.8373,0.0105053,0.130984,20.839,489.726,0.0350519,0.0,0.0
5395,1348.5,25.7522,25.3808,165.796,100.227,99.8312,0.0106011,0.130263,20.839,489.656,0.0362898,0.0,0.0
5408,1351.75,24.9237,24.9237,163.725,100.251,100.013,0.0107428,0.130264,20.8365,489.586,0.0218079,0.0,0.0
5421,1355,24.8925,25.0935,165.661,100.245,99.9138,0.010735,0.130904,20.835,489.526,0.0303944,0.0,0.0
5434,1358.25,24.5312,25.0994,164.622,100.273,99.7369,0.0106878,0.131594,20.8346,489.486,0.0492257,0.0,0.0
5447,1361.5,24.3211,25.0058,167.791,100.28,99.8459,0.0107176,0.132097,20.8358,489.436,0.0397681,0.0,0.0
5460,1364.75,24.4599,24.8559,167.811,100.292,99.9057,0.0104979,0.132194,20.8374,489.375,0.0353636,0.0,0.0
5473,1368,24.3258,25.0225,167.331,100.318,100.038,0.0101162,0.131839,20.8386,489.375,0.0256669,0.0,0.0
5486,1371.25,24.1414,24.5344,168.413,100.329,99.963,0.0100177,0.131465,20.8389,489.305,0.033572,0.0,0.0
5499,1374.5,24.1542,23.8381,165.219,100.341,99.8819,0.0101381,0.131253,20.8378,489.245,0.042116,0.0,0.0
5512,1377.75,23.6451,23.8176,167.48,100.365,100.244,0.0100398,0.131125,20.837,489.185,0.0110623,0.0,0.0
5525,1381,23.5404,24.1242,166.392,100.398,99.8865,0.00982926,0.131394,20.8368,489.115,0.046896,0.0,0.0
5538,1384.25,23.4455,23.9432,166.163,100.43,99.886,0.00998872,0.131558,20.8358,489.115,0.0498426,0.0,0.0
5551,1387.5,22.9363,23.2889,169.313,100.435,100.242,0.0101256,0.131705,20.8348,489.045,0.0176142,0.0,0.0
5564,1390.75,23.786,23.8434,166.622,100.46,99.9995,0.00998546,0.132101,20.8342,488.995,0.0421628,0.0,0.0
5577,1394,23.4729,23.8133,168.596,100.489,100.159,0.00986966,0.132516,20.8321,488.945,0.0301524,0.0,0.0
5590,1397.25,22.6071,23.4336,166.508,100.498,100.106,0.0100751,0.133788,20.8279,488.875,0.0359444,0.0,0.0
5603,1400.5,23.2162,23.5869,161.864,100.511,100.08,0.00999926,0.135235,20.8267,488.835,0.0394827,0.0,0.0
5616,1403.75,23.8105,23.4944,169.49,100.509,100.11,0.00961028,0.136216,20.8263,488.775,0.0364674,0.0,0.0
5629,1407,23.6393,23.9176,167.018,100.531,99.9813,0.00934584,0.136725,20.8285,488.755,0.0502745,0.0,0.0
5642,1410.25,23.1614,23.8014,169.436,100.519,100.169,0.00947278,0.136545,20.8305,488.695,0.0319708,0.0,0.0
5655,1413.5,23.2757,23.2015,162.299,100.54,100.28,0.00943429,0.136273,20.8339,488.645,0.0238069,0.0,0.0
5668,1416.75,22.9761,23.8673,163.091,100.553,100.101,0.00913548,0.135173,20.839,488.565,0.0413668,0.0,0.0
5681,1420,23.1724,23.593,160.336,100.571,100.233,0.00928601,0.133503,20.8422,488.535,0.0309068,0.0,0.0
5694,1423.25,23.0286,23.4524,162.441,100.599,100.159,0.00944528,0.131797,20.8436,488.595,0.0402059,0.0,0.0
5707,1426.5,22.7365,23.7686,157.679,100.614,100.257,0.0093722,0.130526,20.8439,488.485,0.0325889,0.0,0.0
5720,1429.75,23.347,23.5437,162.187,100.644,100.289,0.00938349,0.129615,20.843,488.385,0.0324559,0.0,0.0
5733,1433,23.1014,24.0635,167.852,100.662,100.317,0.0092792,0.129071,20.8419,488.365,0.0315119,0.0,0.0
5746,1436.25,22.8529,23.6822,161.587,100.699,100.452,,0.128872,,488.284,0.0225161,0.0,0.0
5759,1439.5,23.7081,24.2359,162.116,100.719,100.306,,,,488.244,0.0377529,0.0,0.0
5772,1442.75,23.4535,24.4637,169.669,100.733,100.453,,,,488.194,0.0255404,0.0,0.0
5781,1445,23.3977,24.1206,166.895,100.75,100.252,,,,488.184,0.0454495,0.0,0.0