File: 01_Data/OSB/Cone/OSB_Cone_HF50Scan_210326_R1.csv
Names,Time,Stack TC,Smoke TC,Exh Press,Smoke Comp,Smoke Meas,CO Meter,CO2 Meter,O2 Meter,Sample Mass,Ext Coeff,Start Test,Flame Verif
Chan Gain,,500,500,1,1,1,1,1,1,1,1,1.0,1.0
Offset,,0,0,0.138348,0,0,0,0,0,0,0,0.0,0.0
Gain,,1,1,25.011,13.5067,16.616,1,1,1,1.00091,1.04608,1.0,1.0
Units,sec,C,C,Pa,%,%,%,%,%,g,/m,,
Baseline,,26.4898,29.0399,165.48,102.035,98.9212,-0.00121969,0.0472496,20.9595,-0.012845,0.28437,,
8,1.75,24.6295,27.2346,168.077,101.663,98.4966,-0.000734798,0.0553408,20.9443,577.996,0.290374,0.0,0.0
16,3.75,24.9922,26.999,169.289,101.683,98.4012,-0.000714919,0.0565479,20.9422,577.936,0.301082,0.0,0.0
24,5.75,25.0744,27.6032,167.74,101.696,98.0635,-0.000752434,0.0576161,20.9413,577.906,0.333782,0.0,0.0
32,7.75,24.9941,27.8383,160.828,101.709,98.6183,-0.000867387,0.0588814,20.9409,577.856,0.283134,0.0,0.0
40,9.75,24.9344,27.7486,165.072,101.748,97.8642,-0.000964775,0.0598622,20.9412,577.816,0.357095,0.0,0.0
48,11.75,25.6672,27.7163,160.777,101.736,98.3764,-0.000951967,0.0599986,20.9418,577.756,0.308159,0.0,0.0
56,13.75,25.4267,28.0798,160.657,101.752,97.7567,-0.00085076,0.0596681,20.942,577.706,0.36759,0.0,0.0
64,15.75,25.79,28.2416,162.35,101.774,97.4439,-0.000753709,0.0594871,20.9427,577.636,0.398939,0.0,0.0
72,17.75,25.7721,28.355,162.128,101.787,96.3486,-0.000662664,0.0591761,20.9447,577.576,0.503853,0.0,0.0
80,19.75,25.5258,28.3188,161.953,101.829,96.1625,-0.00045021,0.0588818,20.9475,577.506,0.525419,0.0,0.0
88,21.75,25.7084,28.5929,159.401,101.835,95.4445,-0.000111404,0.0584404,20.9491,577.436,0.594713,0.0,0.0
96,23.75,25.9284,28.6316,163.571,101.858,93.944,0.000326927,0.0582027,20.9478,577.356,0.742157,0.0,0.0
104,25.75,25.8732,28.6715,167.236,101.888,95.3101,0.000546398,0.0635682,20.9022,577.185,0.612432,0.0,1.0
112,27.75,27.4467,31.3541,152.304,101.921,98.9849,0.000668384,0.0944207,20.7954,576.915,0.268216,0.0,1.0
120,29.75,29.3268,34.396,143.785,101.953,99.0787,0.000960623,0.149249,20.6678,576.565,0.262419,0.0,1.0
128,31.75,32.0227,38.9396,145.762,101.972,97.5397,0.0014703,0.21692,20.5602,576.205,0.407813,0.0,0.0
136,33.75,34.6531,43.236,139.211,102.01,97.0991,0.00198581,0.281879,20.4719,575.824,0.452736,0.0,0.0
144,35.75,37.1646,46.6203,145.489,102.04,96.018,0.00235622,0.3402,20.4186,575.484,0.558182,0.0,0.0
152,37.75,38.9976,49.6245,141.648,102.074,95.7563,0.00260712,0.384402,20.3904,575.123,0.586261,0.0,0.0
160,39.75,40.0804,51.1137,142.022,102.116,96.0834,0.00283349,0.418305,20.3794,574.803,0.558788,0.0,0.0
168,41.75,42.0401,53.4632,140.262,102.146,95.9941,0.00309759,0.443623,20.3731,574.433,0.570018,0.0,0.0
176,43.75,43.9188,56.6149,144.924,102.171,94.4105,0.00337634,0.463845,20.3694,574.093,0.724879,0.0,0.0
184,45.75,44.907,58.3956,146.724,102.193,94.3801,0.00367242,0.477979,20.368,573.722,0.729837,0.0,0.0
192,47.75,45.9023,59.0412,151.743,102.229,96.7111,0.00385361,0.489434,20.3685,573.392,0.509135,0.0,0.0
200,49.75,46.7618,61.1735,146.756,102.254,95.1742,0.00385815,0.4988,20.3687,573.052,0.658393,0.0,0.0
208,51.75,47.8875,62.1234,148.494,102.277,95.3897,0.00374781,0.505544,20.3688,572.691,0.639672,0.0,0.0
216,53.75,48.6594,63.2619,138.143,102.312,94.908,0.00361722,0.51052,20.368,572.361,0.689347,0.0,0.0
224,55.75,49.4548,64.5067,143.823,102.345,95.6158,0.00353759,0.514941,20.3672,572.021,0.624079,0.0,0.0
232,57.75,50.4394,65.3844,151.398,102.36,94.8917,0.00356412,0.518755,20.367,571.64,0.695204,0.0,0.0
240,59.75,51.0648,66.5883,144.369,102.395,96.4708,0.00373488,0.521181,20.3705,571.29,0.546867,0.0,0.0
248,61.75,51.5917,67.0809,147.19,102.409,95.2016,0.00389583,0.521674,20.3758,570.97,0.66965,0.0,0.0
256,63.75,52.2385,67.3566,136.206,102.427,94.7366,0.00399338,0.520523,20.3824,570.619,0.716242,0.0,0.0
264,65.75,52.4824,67.806,143.647,102.443,96.3714,0.00404334,0.519704,20.387,570.259,0.560647,0.0,0.0
272,67.75,52.8759,68.2,147.146,102.452,95.0221,0.00409327,0.517908,20.3909,569.919,0.690809,0.0,0.0
280,69.75,53.64,68.5151,140.871,102.468,95.7274,0.00411575,0.516573,20.3926,569.599,0.624424,0.0,0.0
288,71.75,53.6657,68.8838,136.334,102.474,96.129,0.00421546,0.515628,20.3935,569.268,0.586561,0.0,0.0
296,73.75,54.0146,69.4861,142.444,102.479,95.2203,0.0043609,0.51492,20.3947,568.918,0.674082,0.0,0.0
304,75.75,54.1373,69.1665,140.645,102.487,95.9054,0.00437253,0.514172,20.3964,568.578,0.609039,0.0,0.0
312,77.75,54.5989,69.9338,141.831,102.503,95.7259,0.00429851,0.513145,20.3982,568.247,0.627707,0.0,0.0
320,79.75,54.6809,69.5387,138.833,102.491,96.7116,0.00414121,0.512462,20.3979,567.877,0.532589,0.0,0.0
328,81.75,55.1165,70.0543,145.403,102.472,96.4424,0.00406967,0.513669,20.394,567.527,0.556475,0.0,0.0
336,83.75,55.4727,69.8292,146.623,102.472,96.0174,0.00414032,0.514716,20.3921,567.206,0.596994,0.0,0.0
344,85.75,55.504,70.2316,142.377,102.449,97.385,0.00426471,0.51541,20.3913,566.866,0.465189,0.0,0.0
352,87.75,56.2744,70.8472,141.181,102.44,96.1057,0.00441058,0.515413,20.3939,566.536,0.585724,0.0,0.0
360,89.75,56.2943,71.0635,141.593,102.413,96.8202,0.00447819,0.515663,20.3949,566.185,0.515359,0.0,0.0
368,91.75,56.6947,71.182,147.163,102.399,97.273,0.00450301,0.516278,20.3954,565.835,0.471212,0.0,0.0
376,93.75,56.403,71.5662,138.92,102.361,97.1543,0.00458975,0.516155,20.3966,565.525,0.479014,0.0,0.0
384,95.75,56.868,71.7872,141.587,102.332,95.4652,0.00465551,0.514831,20.4006,565.164,0.637361,0.0,0.0
392,97.75,57.6536,71.5592,144.136,102.294,96.986,0.00459245,0.513049,20.4037,564.864,0.488903,0.0,0.0
400,99.75,57.4423,71.5789,144.34,102.255,95.735,0.00444772,0.51111,20.4063,564.534,0.60459,0.0,0.0
408,101.75,57.4871,71.493,147.197,102.213,95.6995,0.00426686,0.509152,20.4088,564.234,0.604183,0.0,0.0
416,103.75,57.4497,71.9735,148.684,102.191,95.594,0.00411553,0.506869,20.4128,563.903,0.612378,0.0,0.0
424,105.75,57.8261,71.929,148.931,102.126,96.3105,0.00406291,0.504483,20.4154,563.563,0.538007,0.0,0.0
432,107.75,57.8193,71.2299,140.79,102.089,95.3806,0.00405813,0.501983,20.4186,563.223,0.623709,0.0,0.0
440,109.75,57.8371,71.428,151.85,102.057,95.8816,0.00411679,0.49903,20.4228,562.912,0.572709,0.0,0.0
448,111.75,58.1178,71.6578,138.21,101.991,96.4044,0.00419703,0.496061,20.4275,562.582,0.516954,0.0,0.0
456,113.75,57.9086,71.338,145.797,101.951,95.6072,0.00422808,0.492698,20.4325,562.272,0.589471,0.0,0.0
464,115.75,58.1197,71.1579,142.334,101.906,94.8253,0.00425637,0.489116,20.4403,561.992,0.660781,0.0,0.0
472,117.75,58.2479,71.4472,145.575,101.854,96.3369,0.00428104,0.484599,20.445,561.681,0.511019,0.0,0.0
480,119.75,57.8076,70.8117,146.342,101.793,95.8339,0.0042294,0.480376,20.4509,561.361,0.55356,0.0,0.0
488,121.75,58.1057,71.1047,141.484,101.737,95.2026,0.00404395,0.475589,20.4568,561.081,0.609116,0.0,0.0
496,123.75,57.8805,69.8869,140.404,101.686,95.8881,0.00391864,0.47027,20.4618,560.781,0.538737,0.0,0.0
504,125.75,58.0115,70.3684,147.416,101.626,95.7938,0.00378493,0.465757,20.468,560.47,0.542335,0.0,0.0
512,127.75,57.6071,69.9564,146.198,101.568,93.7437,0.00357597,0.461798,20.4715,560.18,0.735599,0.0,0.0
520,129.75,57.8599,69.9547,144.811,101.515,93.8517,0.0034974,0.45775,20.4755,559.89,0.720266,0.0,0.0
528,131.75,57.7038,69.3812,144.45,101.451,95.27,0.00360604,0.453574,20.4789,559.599,0.576781,0.0,0.0
536,133.75,57.6405,69.3533,147.2,101.392,94.1681,0.00378662,0.44985,20.4851,559.319,0.678271,0.0,0.0
544,135.75,57.6182,69.2358,142.086,101.341,96.1569,0.00385079,0.447137,20.488,559.029,0.481832,0.0,0.0
552,137.75,57.2917,68.975,147.629,101.272,95.159,0.00384523,0.443951,20.4916,558.719,0.571288,0.0,0.0
560,139.75,57.6815,69.1345,152.526,101.206,95.16,0.00381536,0.441052,20.4949,558.468,0.565212,0.0,0.0
568,141.75,57.7711,68.565,143.673,101.14,94.6357,0.00375684,0.438414,20.4991,558.178,0.609931,0.0,0.0
576,143.75,57.889,69.1476,145.505,101.09,95.4896,0.00368734,0.435854,20.5013,557.898,0.522976,0.0,0.0
584,145.75,57.5809,68.4885,142.964,101.015,93.7995,0.00361309,0.432981,20.5057,557.628,0.680029,0.0,0.0
592,147.75,57.7878,68.2897,145.369,100.957,94.4769,0.00355204,0.42963,20.5102,557.337,0.60875,0.0,0.0
600,149.75,57.3633,67.8725,148.557,100.896,93.9105,0.00353297,0.425723,20.5173,557.057,0.658345,0.0,0.0
608,151.75,57.0395,67.9784,150.685,100.839,94.6098,0.00347578,0.421474,20.5221,556.817,0.585135,0.0,0.0
616,153.75,57.4883,67.4733,150.186,100.801,94.4541,0.00335136,0.41819,20.5245,556.527,0.59672,0.0,0.0
624,155.75,57.4808,67.6992,147.54,100.753,95.3831,0.00320932,0.415644,20.5265,556.276,0.502558,0.0,0.0
632,157.75,56.9623,66.9696,146.192,100.718,95.344,0.00320713,0.41331,20.529,555.976,0.503124,0.0,0.0
640,159.75,57.672,67.4568,147.671,100.7,94.1382,0.00329445,0.41041,20.5329,555.726,0.618338,0.0,0.0
648,161.75,56.9002,67.0692,145.992,100.66,94.9779,0.00331084,0.407009,20.5385,555.466,0.533168,0.0,0.0
656,163.75,57.3021,66.8283,149.267,100.629,95.2147,0.00319319,0.403558,20.5425,555.235,0.507462,0.0,0.0
664,165.75,56.8728,66.377,149.56,100.621,94.7837,0.00313277,0.400547,20.5464,554.945,0.54838,0.0,0.0
672,167.75,56.7895,66.5039,151.254,100.606,94.4242,0.00317924,0.397234,20.5511,554.705,0.581898,0.0,0.0
680,169.75,56.6744,66.1221,145.643,100.61,95.0723,0.00320037,0.393953,20.5546,554.455,0.519475,0.0,0.0
688,171.75,56.5665,65.9926,145.28,100.603,93.3695,0.00306581,0.391049,20.5574,554.215,0.684711,0.0,0.0
696,173.75,55.8668,65.3512,147.893,100.617,95.2594,0.002877,0.387794,20.5595,553.924,0.50211,0.0,0.0
704,175.75,56.3704,65.8867,144.084,100.635,96.4601,0.00278385,0.385442,20.5611,553.684,0.38882,0.0,0.0
712,177.75,56.2008,64.9027,147.363,100.652,94.7675,0.00279871,0.383419,20.5635,553.434,0.55277,0.0,0.0
720,179.75,56.3269,65.1519,141.657,100.706,95.3151,0.00281814,0.381155,20.5675,553.194,0.504854,0.0,0.0
728,181.75,56.0685,64.8473,144.33,100.719,95.1285,0.00272332,0.378623,20.5709,552.953,0.523963,0.0,0.0
736,183.75,56.0788,65.2659,146.571,100.765,95.7761,0.00260496,0.376086,20.5733,552.713,0.465918,0.0,0.0
744,185.75,56.0454,65.1972,143.602,100.798,94.914,0.00254772,0.373837,20.5747,552.463,0.551921,0.0,0.0
752,187.75,56.2594,65.2403,146.333,100.838,95.7553,0.00250715,0.371537,20.5761,552.233,0.47459,0.0,0.0
760,189.75,56.4277,64.2331,144.904,100.902,95.7284,0.00249949,0.369729,20.5774,551.992,0.482977,0.0,0.0
768,191.75,55.9891,64.7769,145.019,100.959,94.7741,0.00256535,0.368341,20.5788,551.762,0.580085,0.0,0.0
776,193.75,54.8377,63.6989,145.859,101.024,95.0799,0.0025698,0.366714,20.5816,551.522,0.556408,0.0,0.0
784,195.75,56.0475,63.9336,150.614,101.103,96.0012,0.00244845,0.364902,20.5847,551.282,0.475139,0.0,0.0
792,197.75,55.3857,64.0026,146.106,101.192,95.2229,0.00226493,0.362875,20.5868,551.042,0.557881,0.0,0.0
800,199.75,55.7572,64.3683,143.912,101.256,95.5874,0.00222239,0.361104,20.5877,550.781,0.528606,0.0,0.0
808,201.75,55.5677,63.3422,148.699,101.303,95.6924,0.00231924,0.35973,20.5887,550.581,0.522792,0.0,0.0
816,203.75,55.2102,63.4339,145.93,101.401,95.6534,0.00242475,0.358402,20.5902,550.361,0.535456,0.0,0.0
824,205.75,55.5053,63.1521,151.101,101.465,95.7056,0.00239792,0.356683,20.5928,550.111,0.536189,0.0,0.0
832,207.75,55.7735,63.4754,147.417,101.524,96.0676,0.00223161,0.354734,20.5947,549.871,0.506908,0.0,0.0
840,209.75,54.7246,62.311,145.626,101.596,96.7127,0.00201576,0.352833,20.5968,549.66,0.451986,0.0,0.0
848,211.75,54.3509,62.5955,144.709,101.639,96.1209,0.00183338,0.351399,20.5984,549.43,0.512212,0.0,0.0
856,213.75,55.0745,62.6582,145.255,101.702,97.8003,0.00173532,0.349951,20.6002,549.2,0.358925,0.0,0.0
864,215.75,55.0354,62.6309,145.882,101.749,97.1229,0.00171899,0.347897,20.6029,548.94,0.427021,0.0,0.0
872,217.75,55.5832,63.262,146.785,101.788,96.058,0.00174495,0.346226,20.6038,548.719,0.531678,0.0,0.0
880,219.75,55.2425,63.1018,148.599,101.807,96.1265,0.00180706,0.345176,20.6043,548.519,0.526813,0.0,0.0
888,221.75,55.0967,62.7183,152.127,101.844,98.5888,0.00189061,0.34443,20.6057,548.279,0.298098,0.0,0.0
896,223.75,55.0669,62.2612,145.412,101.859,96.2172,0.0019597,0.342904,20.6078,548.029,0.522833,0.0,0.0
904,225.75,54.869,62.6692,147.17,101.88,97.1305,0.00188843,0.341159,20.6098,547.819,0.438079,0.0,0.0
912,227.75,54.7713,62.3471,148.706,101.893,96.6437,0.00173566,0.339986,20.6121,547.608,0.485371,0.0,0.0
920,229.75,54.7183,62.0107,145.82,101.894,97.4631,0.00165197,0.338742,20.6144,547.368,0.407969,0.0,0.0
928,231.75,54.8313,61.3766,148.802,101.901,96.9555,0.00162338,0.337145,20.618,547.138,0.456514,0.0,0.0
936,233.75,54.4983,62.0104,146.516,101.897,97.1361,0.00159703,0.335436,20.6201,546.918,0.439037,0.0,0.0
944,235.75,54.6273,61.779,152.217,101.901,97.7801,0.00170391,0.333565,20.621,546.708,0.378773,0.0,0.0
952,237.75,54.8407,62.2724,149.577,101.872,97.7293,0.00182621,0.332541,20.6214,546.487,0.380934,0.0,0.0
960,239.75,54.5366,61.8634,149.115,101.855,97.7081,0.00184312,0.331677,20.6216,546.237,0.381375,0.0,0.0
968,241.75,54.486,62.0232,147.566,101.834,96.2974,0.00181091,0.331139,20.6219,546.067,0.51293,0.0,0.0
976,243.75,54.6644,61.6822,144.716,101.798,97.3384,0.00175015,0.330254,20.6248,545.837,0.411031,0.0,0.0
984,245.75,54.4896,61.3535,147.678,101.772,96.8267,0.00171737,0.32884,20.6271,545.627,0.457088,0.0,0.0
992,247.75,54.3894,61.3919,147.437,101.703,98.4388,0.00168037,0.327381,20.628,545.396,0.299369,0.0,0.0
1000,249.75,54.5063,61.4746,146.174,101.653,98.096,0.00151459,0.326531,20.6296,545.186,0.32684,0.0,0.0
1008,251.75,54.3139,61.7282,148.192,101.579,96.8095,0.00133231,0.325343,20.6305,544.976,0.441274,0.0,0.0
1016,253.75,54.6902,61.477,147.408,101.519,96.3004,0.00127874,0.324192,20.6316,544.756,0.484293,0.0,0.0
1024,255.75,54.2558,61.1793,154.274,101.461,98.9803,0.0013063,0.323086,20.6321,544.546,0.227131,0.0,0.0
1032,257.75,54.2901,61.0164,150.06,101.385,96.7669,0.00127309,0.321956,20.6335,544.315,0.427757,0.0,0.0
1040,259.75,54.5665,61.145,148.093,101.341,96.9292,0.00112311,0.320906,20.6342,544.135,0.408466,0.0,0.0
1048,261.75,54.2836,61.0777,149.642,101.3,96.7228,0.00103825,0.320072,20.6345,543.925,0.424253,0.0,0.0
1056,263.75,54.1886,61.1549,151.346,101.266,96.9758,0.00107565,0.319205,20.6346,543.715,0.39718,0.0,0.0
1064,265.75,54.1907,61.007,146.817,101.247,97.737,0.00110353,0.318352,20.6359,543.515,0.323798,0.0,0.0
1072,267.75,54.0594,61.2393,145.609,101.329,97.1852,0.00116872,0.317738,20.6366,543.315,0.383099,0.0,0.0
1080,269.75,54.1999,61.1544,148.819,101.468,96.9439,0.00127203,0.317053,20.6369,543.084,0.418562,0.0,0.0
1088,271.75,53.974,60.8895,149.325,101.625,97.0559,0.00133339,0.316825,20.6372,542.864,0.422114,0.0,0.0
1096,273.75,54.0689,60.7137,147.793,101.756,97.4976,0.00125218,0.316175,20.6392,542.704,0.392317,0.0,0.0
1104,275.75,53.9656,60.9092,149.831,101.88,98.6487,0.001141,0.315516,20.6406,542.484,0.295761,0.0,0.0
1112,277.75,54.152,60.9553,151.678,101.965,97.8226,0.00110137,0.314897,20.6423,542.284,0.380602,0.0,0.0
1120,279.75,54.0387,60.6027,160.204,102.044,98.3363,0.00111104,0.313969,20.6432,542.043,0.339589,0.0,0.0
1128,281.75,54.0587,60.8417,148.599,102.099,97.7217,0.00110982,0.31342,20.6436,541.843,0.402047,0.0,0.0
1136,283.75,54.1122,60.5289,152.069,102.134,98.3419,0.00102837,0.312437,20.644,541.633,0.347146,0.0,0.0
1144,285.75,53.9461,60.3912,147.99,102.158,97.9438,0.000880101,0.311529,20.6445,541.453,0.386549,0.0,0.0
1152,287.75,54.0235,60.2022,150.132,102.156,98.1467,0.000817909,0.311042,20.6447,541.263,0.367379,0.0,0.0
1160,289.75,53.8697,60.6547,147.925,102.135,97.492,0.000925925,0.310766,20.6448,541.032,0.426937,0.0,0.0
1168,291.75,54.1155,60.2511,150.405,102.108,98.0569,0.00102944,0.310292,20.6448,540.842,0.371515,0.0,0.0
1176,293.75,54.4455,60.6523,150.095,102.031,96.9921,0.00106917,0.309656,20.6461,540.642,0.464706,0.0,0.0
1184,295.75,53.5672,60.2724,148.272,101.956,96.9895,0.00109263,0.308953,20.648,540.432,0.458197,0.0,0.0
1192,297.75,54.0768,60.598,149.161,101.858,97.7897,0.00109584,0.308295,20.6486,540.252,0.374008,0.0,0.0
1200,299.75,53.9829,60.238,147.699,101.74,97.7572,0.00104121,0.307837,20.649,540.052,0.366427,0.0,0.0
1208,301.75,53.5697,60.247,149.962,101.639,97.6335,0.00101124,0.307576,20.6492,539.861,0.368974,0.0,0.0
1216,303.75,53.6939,60.4855,145.479,101.694,97.6259,0.0010703,0.307046,20.6493,539.641,0.374635,0.0,0.0
1224,305.75,53.8453,60.2422,152.249,101.746,97.9499,0.00101425,0.306589,20.6493,539.451,0.348879,0.0,0.0
1232,307.75,54.0415,59.7038,149.326,101.821,97.6315,0.000854376,0.305902,20.6493,539.261,0.385523,0.0,0.0
1240,309.75,53.4011,60.2628,146.078,101.888,98.9732,0.00079862,0.305134,20.6499,539.061,0.266329,0.0,0.0
1248,311.75,54.056,60.1376,151.275,101.959,98.9387,0.000934546,0.304448,20.6509,538.881,0.275947,0.0,0.0
1256,313.75,53.4172,59.7419,148.338,102.025,96.8141,0.00102207,0.303604,20.6513,538.67,0.481078,0.0,0.0
1264,315.75,53.1316,59.959,156.121,102.096,99.1015,0.000933968,0.302991,20.6522,538.48,0.273134,0.0,0.0
1272,317.75,53.6419,59.6506,146.564,102.162,97.6715,0.00070811,0.302542,20.6519,538.27,0.412502,0.0,0.0
1280,319.75,53.4653,59.8003,151.877,102.243,99.1238,0.00052069,0.301738,20.6537,538.12,0.28432,0.0,0.0
1288,321.75,53.0556,59.2726,149.44,102.3,98.5229,0.00060406,0.301153,20.6554,537.92,0.345182,0.0,0.0
1296,323.75,53.2717,59.1997,156.028,102.35,98.5412,0.000756785,0.300613,20.6572,537.729,0.348028,0.0,0.0
1304,325.75,53.2615,59.0983,146.277,102.396,97.8267,0.000819805,0.299691,20.6582,537.509,0.418867,0.0,0.0
1312,327.75,53.3918,59.8255,150.189,102.445,99.4326,0.000897534,0.299324,20.6586,537.329,0.273886,0.0,0.0
1320,329.75,53.6356,59.4506,152.17,102.454,98.8272,0.00103579,0.299409,20.6586,537.139,0.330744,0.0,0.0
1328,331.75,53.4043,59.6702,148.322,102.479,98.3769,0.00104312,0.29945,20.6575,536.969,0.374863,0.0,0.0
1336,333.75,53.1006,59.625,145.775,102.472,98.638,0.000876317,0.299463,20.6583,536.729,0.34991,0.0,0.0
1344,335.75,53.1998,59.1309,147.631,102.444,99.2739,0.000778589,0.29936,20.6587,536.558,0.288397,0.0,0.0
1352,337.75,53.6497,59.2882,151.818,102.427,99.0224,0.000781072,0.299276,20.6598,536.348,0.310234,0.0,0.0
1360,339.75,53.6275,59.6236,149.764,102.369,99.2871,0.000751132,0.298959,20.6599,536.138,0.280493,0.0,0.0
1368,341.75,53.1395,59.2092,149.851,102.324,98.8277,0.000653696,0.298975,20.6593,535.998,0.318986,0.0,0.0
1376,343.75,53.7406,59.5333,148.898,102.254,97.7496,0.000550289,0.298751,20.6583,535.778,0.41342,0.0,0.0
1384,345.75,53.3437,59.3935,150.268,102.178,98.2993,0.00040072,0.298455,20.6574,535.608,0.355119,0.0,0.0
1392,347.75,53.3586,59.3894,149.096,102.104,98.3901,0.000287629,0.298615,20.6569,535.427,0.339984,0.0,0.0
1400,349.75,53.1458,59.3184,150.909,102.026,98.1335,0.00032987,0.298897,20.6572,535.237,0.356905,0.0,0.0
1408,351.75,53.7368,59.6913,146.252,101.922,98.4631,0.000458334,0.298761,20.6582,535.057,0.316789,0.0,0.0
1416,353.75,53.5761,59.2486,147.556,101.831,97.599,0.000612616,0.298398,20.6586,534.867,0.389539,0.0,0.0
1424,355.75,53.8643,59.4007,145.91,101.734,97.563,0.000686314,0.298339,20.6588,534.647,0.384155,0.0,0.0
1432,357.75,53.5014,59.4566,150.179,101.627,98.3541,0.00066598,0.298343,20.6589,534.487,0.300345,0.0,0.0
1440,359.75,52.8134,58.8223,147.341,101.517,97.0063,0.000603458,0.298467,20.6589,534.276,0.417094,0.0,0.0
1448,361.75,52.8914,58.9295,147.487,101.424,97.9768,0.000635287,0.299137,20.6576,534.086,0.317283,0.0,0.0
1456,363.75,53.8572,59.9379,147.033,101.308,96.4855,0.00079937,0.299593,20.6571,533.896,0.447579,0.0,0.0
1464,365.75,53.0862,59.1854,146.741,101.205,97.7648,0.000902219,0.299845,20.6568,533.706,0.317368,0.0,0.0
1472,367.75,53.7752,59.8752,149.888,101.117,97.3926,0.000897697,0.300036,20.6567,533.516,0.34433,0.0,0.0
1480,369.75,53.2134,59.2651,152.83,101,96.4561,0.000826842,0.300153,20.6562,533.326,0.422445,0.0,0.0
1488,371.75,53.6536,59.3804,146.42,100.922,97.274,0.000778908,0.300323,20.6552,533.145,0.337844,0.0,0.0
1496,373.75,53.5896,59.2679,146.697,100.856,96.6067,0.000701461,0.300546,20.656,532.975,0.395012,0.0,0.0
1504,375.75,53.228,59.4577,147.973,100.78,96.9221,0.000635868,0.3007,20.6551,532.775,0.358162,0.0,0.0
1512,377.75,53.4607,59.6824,153.253,100.73,98.0306,0.000613731,0.301376,20.6534,532.585,0.249309,0.0,0.0
1520,379.75,53.365,59.103,145.917,100.676,97.2233,0.000587817,0.302297,20.6516,532.405,0.320227,0.0,0.0
1528,381.75,53.6864,59.5896,152.899,100.641,97.3886,0.00058957,0.303146,20.6505,532.214,0.301445,0.0,0.0
1536,383.75,53.9724,60.1498,149.511,100.648,96.5575,0.000709818,0.303625,20.6506,531.984,0.38069,0.0,0.0
1544,385.75,54.1047,60.0008,149.003,100.621,97.2608,0.000794936,0.303739,20.6513,531.794,0.311651,0.0,0.0
1552,387.75,53.6728,59.376,148.083,100.639,96.8425,0.000768685,0.304222,20.6503,531.604,0.352821,0.0,0.0
1560,389.75,53.8663,59.3394,149.018,100.662,96.9109,0.000726032,0.304641,20.6489,531.404,0.348518,0.0,0.0
1568,391.75,53.525,59.7553,151.153,100.722,97.4789,0.000812654,0.305085,20.6504,531.244,0.300345,0.0,0.0
1576,393.75,53.9004,59.7764,148.08,100.768,96.8384,0.00106405,0.305521,20.6497,531.043,0.365036,0.0,0.0
1584,395.75,53.8523,60.2713,147.332,100.846,96.2259,0.00137256,0.30628,20.6494,530.843,0.430355,0.0,0.0
1592,397.75,53.5359,59.916,152.794,100.925,96.7902,0.00142728,0.306848,20.6493,530.653,0.383817,0.0,0.0
1600,399.75,53.8205,60.1234,151.726,101.023,96.5813,0.001275,0.307199,20.648,530.463,0.412597,0.0,0.0
1608,401.75,54.086,60.2879,146.638,101.097,98.169,0.00109608,0.307724,20.6473,530.293,0.269643,0.0,0.0
1616,403.75,53.6583,59.6807,150.936,101.195,99.0351,0.000952123,0.308249,20.6457,530.083,0.197942,0.0,0.0
1624,405.75,53.9915,60.2836,149.931,101.294,97.1188,0.00103395,0.309026,20.645,529.872,0.386236,0.0,0.0
1632,407.75,53.6923,60.2677,148.658,101.383,96.0737,0.00117065,0.309884,20.6447,529.682,0.493577,0.0,0.0
1640,409.75,53.9263,60.0083,149.5,101.49,96.9561,0.00110255,0.310437,20.6446,529.482,0.419385,0.0,0.0
1648,411.75,53.9552,59.787,144.935,101.582,97.3957,0.000933854,0.310629,20.6444,529.282,0.386215,0.0,0.0
1656,413.75,53.8008,60.4906,151.45,101.664,96.8993,0.000867822,0.311277,20.643,529.082,0.440475,0.0,0.0
1664,415.75,53.8597,60.2773,150.694,101.741,97.958,0.000840085,0.311755,20.6423,528.911,0.347673,0.0,0.0
1672,417.75,54.1523,60.0674,151.575,101.803,96.5129,0.000836065,0.311937,20.642,528.681,0.489669,0.0,0.0
1680,419.75,54.1611,60.2218,146.935,101.849,97.4641,0.000906194,0.312536,20.6419,528.501,0.40379,0.0,0.0
1688,421.75,54.1816,60.2364,147.317,101.895,96.6985,0.00107436,0.313169,20.6416,528.271,0.480283,0.0,0.0
1696,423.75,53.8158,60.1791,140.71,101.934,97.027,0.00111349,0.313734,20.6394,528.081,0.452681,0.0,0.0
1704,425.75,54.3942,60.3895,152.528,101.93,97.9662,0.00107994,0.314471,20.6378,527.891,0.363923,0.0,0.0
1712,427.75,53.6314,60.4836,147.413,101.925,98.028,0.00111375,0.315107,20.6361,527.73,0.357759,0.0,0.0
1720,429.75,54.0016,60.479,143.737,101.916,97.4936,0.0012427,0.315961,20.6349,527.51,0.407035,0.0,0.0
1728,431.75,54.3906,60.5374,148.542,101.881,96.9576,0.00126181,0.317038,20.6336,527.31,0.454467,0.0,0.0
1736,433.75,54.2331,60.6377,148.041,101.854,96.4708,0.00119795,0.318047,20.6334,527.09,0.498239,0.0,0.0
1744,435.75,54.2502,60.3562,146.484,101.801,97.2527,0.0011522,0.318607,20.6336,526.94,0.41941,0.0,0.0
1752,437.75,54.2713,60.6111,146.32,101.754,97.3795,0.00109442,0.318547,20.6347,526.699,0.40322,0.0,0.0
1760,439.75,54.2862,60.8274,147.677,101.691,96.0382,0.000995612,0.318324,20.6353,526.499,0.524794,0.0,0.0
1768,441.75,54.1496,60.7456,156.734,101.634,96.2122,0.000923741,0.319011,20.6328,526.309,0.503094,0.0,0.0
1776,443.75,54.3623,60.8268,145.424,101.56,95.2959,0.000931326,0.320245,20.6314,526.119,0.584202,0.0,0.0
1784,445.75,54.4517,60.9615,147.79,101.489,96.7172,0.00099569,0.321504,20.6293,525.909,0.441904,0.0,0.0
1792,447.75,54.7547,61.1445,149.563,101.406,95.9018,0.00111179,0.322616,20.6284,525.698,0.512062,0.0,0.0
1800,449.75,54.2793,60.2352,146.339,101.331,95.9794,0.00128099,0.323151,20.628,525.518,0.497851,0.0,0.0
1808,451.75,54.607,60.8517,147.573,101.293,95.3172,0.00138519,0.32353,20.6279,525.308,0.557949,0.0,0.0
1816,453.75,54.3438,61.1098,146.216,101.254,95.6072,0.00146485,0.324256,20.6273,525.078,0.526558,0.0,0.0
1824,455.75,53.8908,60.4876,149.018,101.256,94.481,0.00151159,0.325273,20.6267,524.898,0.635478,0.0,0.0
1832,457.75,54.7907,60.7718,149.222,101.375,95.9089,0.00146742,0.326131,20.6265,524.658,0.508622,0.0,0.0
1840,459.75,55.0507,60.9088,145.356,101.51,95.3202,0.00141873,0.326503,20.6252,524.467,0.577277,0.0,0.0
1848,461.75,54.4036,61.5429,144.652,101.66,95.8567,0.00138779,0.32724,20.6248,524.287,0.539328,0.0,0.0
1856,463.75,54.5176,60.98,153.009,101.78,96.7629,0.0013373,0.328005,20.6246,524.077,0.46385,0.0,0.0
1864,465.75,54.5329,60.9924,148.081,101.884,95.4916,0.00134705,0.328451,20.6241,523.857,0.5946,0.0,0.0
1872,467.75,55.2486,61.1783,149.973,101.977,95.6143,0.00151207,0.328844,20.6239,523.637,0.591201,0.0,0.0
1880,469.75,54.7972,60.8237,145.687,102.056,95.8582,0.00160153,0.329015,20.6224,523.466,0.574905,0.0,0.0
1888,471.75,54.5088,61.2846,145.75,102.094,96.9647,0.00159004,0.329452,20.6214,523.256,0.472967,0.0,0.0
1896,473.75,55.0165,61.5056,144.164,102.122,97.2035,0.00158769,0.329859,20.62,523.036,0.452986,0.0,0.0
1904,475.75,54.8112,60.9245,150.147,102.125,95.916,0.00163362,0.330493,20.6194,522.846,0.575523,0.0,0.0
1912,477.75,55.1067,61.4367,142.222,102.121,96.1635,0.00176387,0.330872,20.6192,522.626,0.551583,0.0,0.0
1920,479.75,55.4279,61.7188,150.615,102.113,95.129,0.0018215,0.33081,20.6191,522.426,0.650124,0.0,0.0
1928,481.75,54.951,61.2682,141.87,102.071,95.1645,0.00178203,0.331075,20.6184,522.205,0.642847,0.0,0.0
1936,483.75,54.8101,61.5114,147.439,102.018,96.2066,0.00178441,0.332153,20.6166,522.025,0.53817,0.0,0.0
1944,485.75,55.2001,61.8238,146.495,101.942,97.3328,0.00177033,0.333027,20.615,521.815,0.424552,0.0,0.0
1952,487.75,55.13,61.7392,150.147,101.869,96.5626,0.0017018,0.33377,20.6138,521.595,0.490924,0.0,0.0
1960,489.75,55.2556,61.6395,149.938,101.758,95.7948,0.0016782,0.334114,20.6132,521.375,0.554178,0.0,0.0
1968,491.75,55.2973,61.4708,146.394,101.644,95.6133,0.00166536,0.334577,20.6118,521.164,0.561244,0.0,0.0
1976,493.75,55.4532,62.0041,150.451,101.679,95.0317,0.00170262,0.33543,20.611,520.984,0.620395,0.0,0.0
1984,495.75,55.809,61.6357,147.83,101.712,94.6554,0.0017368,0.336412,20.6096,520.774,0.659811,0.0,0.0
1992,497.75,55.4127,61.98,145.065,101.775,96.4044,0.00177362,0.337524,20.6093,520.544,0.497501,0.0,0.0
2000,499.75,55.7175,62.1868,149.584,101.83,96.0737,0.00177715,0.338282,20.6089,520.364,0.533929,0.0,0.0
2008,501.75,55.7009,62.4275,147.335,101.908,95.8445,0.00176755,0.339029,20.6076,520.143,0.562864,0.0,0.0
2016,503.75,55.458,62.2484,149.76,101.951,95.6635,0.00178413,0.339816,20.6071,519.933,0.58407,0.0,0.0
2024,505.75,55.6682,62.6476,148.889,102.019,97.24,0.00179323,0.340326,20.6068,519.713,0.440277,0.0,0.0
2032,507.75,55.7347,62.7272,145.42,102.082,94.8065,0.00190128,0.340796,20.6062,519.523,0.678432,0.0,0.0
2040,509.75,55.5991,62.595,148.19,102.139,95.3826,0.00202151,0.341183,20.6052,519.303,0.627959,0.0,0.0
2048,511.75,55.9528,62.8785,146.994,102.196,95.521,0.00212196,0.342049,20.6029,519.083,0.619833,0.0,0.0
2056,513.75,55.8198,62.5343,148.777,102.254,94.6103,0.00216374,0.342984,20.6015,518.882,0.712882,0.0,0.0
2064,515.75,56.0522,62.7896,147.761,102.31,95.3831,0.00216085,0.343797,20.5997,518.652,0.643302,0.0,0.0
2072,517.75,56.152,62.945,147.384,102.358,95.8993,0.00212358,0.344618,20.5989,518.442,0.5981,0.0,0.0
2080,519.75,55.4109,62.8291,147.903,102.392,95.2705,0.0020811,0.345466,20.5977,518.202,0.661529,0.0,0.0
2088,521.75,56.3457,62.878,143.774,102.432,96.5103,0.00198936,0.34654,20.596,517.992,0.546393,0.0,0.0
2096,523.75,56.0281,63.2342,148.148,102.45,94.4911,0.00197483,0.347568,20.5945,517.811,0.742038,0.0,0.0
2104,525.75,56.4087,62.3957,144.937,102.481,95.2411,0.00204276,0.348709,20.5927,517.571,0.672338,0.0,0.0
2112,527.75,56.3801,63.3766,145.639,102.484,95.4318,0.00215693,0.350091,20.5918,517.381,0.654245,0.0,0.0
2120,529.75,56.6556,63.3399,149.288,102.47,95.4247,0.00226612,0.351055,20.5916,517.161,0.653672,0.0,0.0
2128,531.75,56.7521,63.1128,145.175,102.468,95.3501,0.00237492,0.351954,20.5919,516.931,0.660621,0.0,0.0
2136,533.75,56.6084,63.1943,141.275,102.431,95.2071,0.00245241,0.353018,20.5902,516.7,0.671108,0.0,0.0
2144,535.75,56.4447,63.0942,151.878,102.403,97.0027,0.0025148,0.354201,20.5877,516.47,0.49715,0.0,0.0
2152,537.75,56.7207,63.1579,151.626,102.363,94.3928,0.00258902,0.355143,20.5854,516.24,0.743803,0.0,0.0
2160,539.75,56.7545,63.7235,149.714,102.305,94.914,0.00262491,0.355725,20.5847,516.02,0.68813,0.0,0.0
2168,541.75,57.0473,63.3617,147.234,102.232,94.2148,0.00261824,0.356509,20.583,515.81,0.7494,0.0,0.0
2176,543.75,56.8602,63.4719,146.089,102.158,94.2837,0.00263589,0.357274,20.5815,515.589,0.736062,0.0,0.0
2184,545.75,56.675,64.2831,143.069,102.074,95.0337,0.00266012,0.358774,20.5803,515.379,0.655804,0.0,0.0
2192,547.75,56.955,64.0247,147.706,101.999,94.9713,0.002713,0.360246,20.5781,515.149,0.655081,0.0,0.0
2200,549.75,56.854,64.2765,145.108,101.908,94.8598,0.00270506,0.361596,20.5762,514.909,0.657631,0.0,0.0
2208,551.75,57.2312,64.1048,147.686,101.806,94.7807,0.00258604,0.362343,20.5753,514.688,0.656151,0.0,0.0
2216,553.75,57.1201,64.2966,147.877,101.723,94.8801,0.00246733,0.362798,20.5764,514.468,0.639063,0.0,0.0
2224,555.75,57.0498,64.2119,157.266,101.611,94.5926,0.00256484,0.36311,20.5772,514.208,0.656792,0.0,0.0
2232,557.75,57.6629,64.904,149.963,101.507,93.5779,0.00274907,0.364711,20.5742,514.008,0.746369,0.0,0.0
2240,559.75,57.0304,64.542,143.849,101.395,91.9451,0.00283167,0.367151,20.5691,513.788,0.897751,0.0,0.0
2248,561.75,57.8851,64.8173,148.367,101.29,92.6292,0.00274285,0.369416,20.5655,513.517,0.82018,0.0,0.0
2256,563.75,56.8578,64.4213,149.56,101.202,93.5257,0.00258381,0.371047,20.564,513.307,0.723802,0.0,0.0
2264,565.75,57.9709,65.098,146.92,101.1,93.1367,0.00256286,0.371736,20.5633,513.087,0.752842,0.0,0.0
2272,567.75,58.391,65.3086,147.489,101.025,91.8158,0.00268218,0.372503,20.5617,512.857,0.877105,0.0,0.0
2280,569.75,57.5611,65.2063,149.94,100.946,91.471,0.00285307,0.374006,20.5587,512.617,0.904403,0.0,0.0
2288,571.75,58.0152,65.1393,143.76,100.885,92.6925,0.00302135,0.375343,20.5562,512.366,0.777198,0.0,0.0
2296,573.75,57.8226,65.3055,148.568,100.833,91.8021,0.00323671,0.376818,20.5538,512.126,0.86101,0.0,0.0
2304,575.75,57.5594,64.7303,145.04,100.774,91.3782,0.00338572,0.378088,20.5524,511.886,0.898117,0.0,0.0
2312,577.75,57.4817,65.011,143.382,100.737,91.5993,0.00346801,0.37968,20.5509,511.646,0.8726,0.0,0.0
2320,579.75,58.5739,66.0797,149.376,100.716,91.8351,0.00360312,0.381945,20.5476,511.406,0.84702,0.0,0.0
2328,581.75,58.8276,66.3958,139.554,100.69,90.9198,0.00377789,0.384048,20.5446,511.165,0.936604,0.0,0.0
2336,583.75,58.4374,65.9949,148.164,100.679,91.0547,0.00395645,0.385431,20.5422,510.905,0.922025,0.0,0.0
2344,585.75,58.6523,65.8482,145.833,100.7,92.1271,0.0041587,0.386757,20.5406,510.705,0.816492,0.0,0.0
2352,587.75,58.8151,66.3819,145.801,100.723,91.867,0.00432312,0.389017,20.5361,510.435,0.844467,0.0,0.0
2360,589.75,58.795,66.6247,144.234,100.751,91.22,0.00438737,0.391719,20.5321,510.184,0.911915,0.0,0.0
2368,591.75,59.1328,66.8896,144.731,100.791,90.5491,0.00440372,0.394079,20.5302,509.934,0.983252,0.0,0.0
2376,593.75,59.1946,67.0526,149.234,100.826,91.4071,0.0043313,0.395603,20.5281,509.694,0.899904,0.0,0.0
2384,595.75,59.6626,66.9,143.647,100.879,91.4228,0.00412043,0.397028,20.5265,509.454,0.903202,0.0,0.0
2392,597.75,59.4396,67.1341,150.569,100.931,92.0222,0.00406613,0.398626,20.5251,509.194,0.847926,0.0,0.0
2400,599.75,59.0823,67.5407,149.421,100.992,89.3828,0.00419719,0.399675,20.5245,508.953,1.1205,0.0,0.0
2408,601.75,59.3392,66.9883,149.511,101.049,90.1881,0.00445976,0.40084,20.5244,508.703,1.04338,0.0,0.0
2416,603.75,60.078,67.4774,146.32,101.125,91.0592,0.00474687,0.401973,20.5223,508.443,0.962123,0.0,0.0
2424,605.75,60.0651,67.4732,143.961,101.193,91.9339,0.00502583,0.403836,20.5198,508.183,0.88053,0.0,0.0
2432,607.75,60.0589,68.0703,142.4,101.26,90.3255,0.00520119,0.404976,20.5187,507.962,1.04855,0.0,0.0
2440,609.75,60.031,67.9852,143.416,101.328,89.9345,0.00527511,0.405619,20.5175,507.702,1.09455,0.0,0.0
2448,611.75,60.3366,67.7325,141.601,101.395,91.1576,0.00522924,0.40649,20.5164,507.452,0.976682,0.0,0.0
2456,613.75,60.1799,68.4053,148.818,101.479,91.1054,0.00503672,0.406754,20.5158,507.192,0.989547,0.0,0.0
2464,615.75,60.582,68.6816,143.895,101.553,90.8599,0.00493901,0.406783,20.5156,506.901,1.02093,0.0,0.0
2472,617.75,60.6941,68.7157,144.192,101.635,92.3797,0.00481714,0.40673,20.5147,506.691,0.876131,0.0,0.0
2480,619.75,60.2424,68.1726,153.894,101.695,92.5876,0.00460231,0.407214,20.5138,506.461,0.860897,0.0,0.0
2488,621.75,60.5229,68.5376,145.078,101.76,91.1916,0.00448032,0.407955,20.5126,506.211,1.00622,0.0,0.0
2496,623.75,60.4793,68.6027,146.926,101.813,91.2119,0.00447245,0.408349,20.5135,505.961,1.00897,0.0,0.0
2504,625.75,60.6752,68.6543,147.835,101.871,89.8275,0.00448817,0.408432,20.5145,505.7,1.15446,0.0,0.0
2512,627.75,61.0541,68.7433,140.332,101.905,91.9375,0.00445008,0.407823,20.5176,505.45,0.944501,0.0,0.0
2520,629.75,60.2821,68.5438,144.121,101.932,91.5475,0.00436038,0.406644,20.5212,505.19,0.985916,0.0,0.0
2528,631.75,60.8198,69.1008,147.961,101.964,91.3964,0.00432175,0.405911,20.5227,504.96,1.00397,0.0,0.0
2536,633.75,60.8308,68.5851,147.364,101.979,90.1855,0.00433682,0.405464,20.5234,504.719,1.12776,0.0,0.0
2544,635.75,60.7307,68.7813,143.424,101.979,90.8194,0.00417962,0.404586,20.5241,504.499,1.06346,0.0,0.0
2552,637.75,60.6735,68.8888,149.363,101.967,91.863,0.00382944,0.402767,20.5276,504.259,0.957546,0.0,0.0
2560,639.75,60.5189,68.4103,148.738,101.969,91.2864,0.00360776,0.400184,20.5308,504.009,1.0155,0.0,0.0
2568,641.75,60.7724,68.5225,147.048,101.956,92.3518,0.0036004,0.397857,20.5329,503.809,0.907846,0.0,0.0
2576,643.75,60.353,68.4121,144.379,101.913,92.227,0.0036867,0.39607,20.5331,503.568,0.91639,0.0,0.0
2584,645.75,60.6313,68.3083,146.993,101.883,93.4334,0.00366722,0.394271,20.5336,503.338,0.794434,0.0,0.0
2592,647.75,60.3668,68.1295,151.211,101.833,92.049,0.00352917,0.392613,20.5351,503.138,0.926912,0.0,0.0
2600,649.75,60.3451,68.4365,147.589,101.788,91.9988,0.00325186,0.38974,20.5409,502.908,0.927832,0.0,0.0
2608,651.75,60.4862,67.9977,149.147,101.732,91.3858,0.00299202,0.384939,20.5508,502.708,0.984129,0.0,0.0
2616,653.75,60.3589,67.6447,147.184,101.671,92.2433,0.00277761,0.379837,20.5585,502.517,0.892927,0.0,0.0
2624,655.75,60.1868,67.3159,149.707,101.609,92.8132,0.00261447,0.374773,20.5657,502.297,0.830822,0.0,0.0
2632,657.75,60.0756,67.343,144.208,101.545,93.5901,0.00235914,0.369191,20.575,502.137,0.748528,0.0,0.0
2640,659.75,59.9868,66.9872,148.419,101.478,93.8096,0.0020737,0.361493,20.5862,501.937,0.721027,0.0,0.0
2648,661.75,59.2257,66.6257,149.196,101.43,92.5703,0.00184691,0.352889,20.5967,501.767,0.838734,0.0,0.0
2656,663.75,59.9422,66.9663,142.631,101.367,94.3385,0.00173902,0.345918,20.6067,501.597,0.659408,0.0,0.0
2664,665.75,59.1516,65.5814,141.611,101.323,94.051,0.00161511,0.337084,20.6191,501.436,0.683385,0.0,0.0
2672,667.75,58.6369,64.8667,148.107,101.298,94.4612,0.00139235,0.327589,20.6297,501.286,0.641209,0.0,0.0
2680,669.75,58.4891,64.6723,150.834,101.272,95.0575,0.00119774,0.317598,20.6414,501.156,0.58111,0.0,0.0
2688,671.75,58.3898,64.1707,149.495,101.37,96.021,0.00114001,0.307671,20.6549,501.026,0.497421,0.0,0.0
2696,673.75,57.7061,63.5739,152.149,101.468,96.5676,0.0011217,0.296326,20.6705,500.896,0.454245,0.0,0.0
2704,675.75,57.1736,62.4504,148.136,101.543,96.163,0.00103484,0.28536,20.6824,500.766,0.499558,0.0,0.0
2712,677.75,56.7958,61.9398,152.277,101.654,96.2411,0.000924713,0.273942,20.6942,500.666,0.502086,0.0,0.0
2720,679.75,56.4757,61.2998,151.936,101.756,98.1411,0.000899136,0.263338,20.7066,500.546,0.331954,0.0,0.0
2728,681.75,56.007,60.5395,156.699,101.842,96.8161,0.000852737,0.252489,20.7205,500.466,0.464374,0.0,0.0
2736,683.75,55.4165,59.74,153.694,101.921,96.6969,0.000778615,0.242008,20.731,500.365,0.482803,0.0,0.0
2744,685.75,54.563,58.9413,153.74,101.974,98.1097,0.000703784,0.233324,20.7401,500.305,0.354462,0.0,0.0
2752,687.75,54.4663,58.2811,155.786,102.04,97.9357,0.000614124,0.225194,20.7498,500.225,0.376676,0.0,0.0
2760,689.75,54.1908,57.641,151.142,102.078,98.0681,0.000624036,0.216804,20.7589,500.165,0.367767,0.0,0.0
2768,691.75,53.8781,57.4511,150.322,102.114,98.566,0.000766367,0.20895,20.7649,500.105,0.324515,0.0,0.0
2776,693.75,52.8412,56.4884,158.307,102.15,99.2186,0.000988165,0.20111,20.7735,500.055,0.267145,0.0,0.0
2784,695.75,52.614,55.5012,154.685,102.148,100.268,0.001171,0.193848,20.7847,499.995,0.170394,0.0,0.0
2792,697.75,51.7685,54.9476,158.105,102.157,99.9311,0.00132341,0.186431,20.7952,499.955,0.202158,0.0,0.0
2800,699.75,51.6843,54.5214,153.207,102.15,100.064,0.00147422,0.179992,20.8049,499.885,0.189336,0.0,0.0
2808,701.75,50.6779,53.5462,158.175,102.129,100.42,0.00166357,0.173499,20.8125,499.825,0.154854,0.0,0.0
2816,703.75,50.6551,52.7559,155.319,102.099,100.413,0.0019144,0.16813,20.8173,499.805,0.152761,0.0,0.0
2824,705.75,49.8139,52.0901,154.603,102.052,100.738,0.00218449,0.163575,20.8205,499.765,0.118919,0.0,0.0
2832,707.75,49.5688,51.6209,154.181,102.018,100.095,0.00232249,0.159781,20.8253,499.725,0.174598,0.0,0.0
2840,709.75,49.4537,51.1336,156.84,101.956,99.852,0.00230155,0.15594,20.8295,499.685,0.191301,0.0,0.0
2848,711.75,49.1037,50.7249,158.621,101.89,100.367,0.00230657,0.152441,20.8325,499.645,0.138178,0.0,0.0
2856,713.75,48.4139,49.9248,156.476,101.847,100.972,0.00233198,0.149683,20.8352,499.605,0.0791834,0.0,0.0
2864,715.75,48.0468,49.6513,154.948,102.077,100.825,0.00236307,0.147085,20.8363,499.565,0.11321,0.0,0.0
2872,717.75,47.6476,49.0513,155.575,102.093,99.9367,0.00247476,0.145265,20.8365,499.515,0.195904,0.0,0.0
2880,719.75,47.4692,48.9131,152.982,102.06,100.642,0.00261443,0.143417,20.8377,499.485,0.128412,0.0,0.0
2888,721.75,47.2622,48.3672,159.221,102.005,99.64,0.00269145,0.141772,20.8401,499.445,0.215214,0.0,0.0
2896,723.75,47.1296,48.3695,155.404,101.944,100.51,0.00267323,0.139861,20.8429,499.415,0.129975,0.0,0.0
2904,725.75,46.7827,47.6897,156.473,101.878,100.079,0.00265951,0.137971,20.8445,499.375,0.163518,0.0,0.0
2912,727.75,46.5662,47.8155,154.406,101.773,100.243,0.00270242,0.136731,20.8449,499.345,0.138995,0.0,0.0
2920,729.75,46.193,47.2752,155.506,101.709,99.5888,0.00275091,0.13567,20.8448,499.305,0.193269,0.0,0.0
2928,731.75,45.7625,47.0422,162.041,101.749,99.5782,0.00278081,0.134848,20.8451,499.284,0.197857,0.0,0.0
2936,733.75,45.8157,46.9426,155.54,101.791,99.3054,0.00284272,0.134218,20.8463,499.234,0.226896,0.0,0.0
2944,735.75,45.5708,46.6091,155.535,101.838,100.054,0.00298806,0.13355,20.8477,499.204,0.162185,0.0,0.0
2952,737.75,45.5933,46.2801,158.297,101.884,99.8459,0.00310129,0.132777,20.8491,499.224,0.185404,0.0,0.0
2960,739.75,45.0834,46.0301,155.705,101.928,99.5178,0.00311056,0.131829,20.8498,499.375,0.219613,0.0,0.0
2968,741.75,44.5343,45.4191,157.74,101.979,99.9519,0.00322439,0.131668,20.8496,499.204,0.184203,0.0,0.0
2976,743.75,44.2764,44.6373,160.839,102.04,99.641,0.00342469,0.131865,20.8495,499.084,0.218271,0.0,0.0
2984,745.75,44.8998,45.5024,153.451,102.088,100.307,0.00348403,0.131601,20.8499,499.054,0.161451,0.0,0.0
2992,747.75,44.5881,44.9207,158.266,102.136,99.6796,0.00341983,0.13091,20.851,499.054,0.22343,0.0,0.0
3000,749.75,44.2439,45.439,163.32,102.18,100.633,0.0033409,0.130097,20.8514,499.044,0.139977,0.0,0.0
3008,751.75,43.5201,44.6091,157.224,102.218,100.198,0.0033819,0.129313,20.8516,499.014,0.183129,0.0,0.0
3016,753.75,44.3241,44.8973,159.62,102.256,100.109,0.00348227,0.128798,20.8517,498.974,0.194756,0.0,0.0
3024,755.75,43.8676,45.0972,156.028,102.294,99.5589,0.00350913,0.129135,20.8495,498.914,0.248718,0.0,0.0
3032,757.75,44.35,44.7896,160.952,102.329,100.31,0.00346626,0.130101,20.8472,498.894,0.182859,0.0,0.0
3040,759.75,43.4248,44.4737,155.804,102.375,100.221,0.00346495,0.131092,20.8455,498.844,0.195137,0.0,0.0
3048,761.75,43.7634,44.3131,155.976,102.392,99.9002,0.00358918,0.131704,20.8446,498.804,0.226078,0.0,0.0
3056,763.75,43.4419,44.5383,161.545,102.434,100.557,0.00371519,0.131625,20.8455,498.774,0.169717,0.0,0.0
3064,765.75,43.6254,44.1335,158.617,102.469,99.9894,0.00382981,0.130778,20.8493,498.694,0.224752,0.0,0.0
3072,767.75,43.2378,44.4517,159.337,102.483,100.394,0.00378615,0.129634,20.8515,498.684,0.188947,0.0,0.0
3080,769.75,42.5375,43.7863,153.354,102.501,101.149,0.0035413,0.128906,20.8523,498.684,0.121855,0.0,0.0
3088,771.75,42.5702,43.4906,155.367,102.521,100.734,0.00339121,0.129054,20.8506,498.654,0.161414,0.0,0.0
3096,773.75,42.5757,43.6878,157.977,102.541,100.492,0.00347232,0.130076,20.8485,498.624,0.185199,0.0,0.0
3104,775.75,43.0384,43.7667,159.262,102.562,101.376,0.00368956,0.131234,20.8477,498.594,0.106692,0.0,0.0
3112,777.75,41.7685,42.7619,156.49,102.571,100.483,0.00394755,0.131937,20.8475,498.564,0.188697,0.0,0.0
3120,779.75,42.1263,42.5709,158.156,102.571,100.311,0.00407428,0.132007,20.8485,498.544,0.204363,0.0,0.0
3128,781.75,41.915,42.5248,155.191,102.57,100.166,0.00406911,0.131166,20.8497,498.504,0.217602,0.0,0.0
3136,783.75,41.7338,42.7675,160.745,102.573,99.9782,0.00415122,0.129984,20.8514,498.474,0.235148,0.0,0.0
3144,785.75,41.6096,41.9355,163.947,102.572,100.544,0.00426199,0.128607,20.8536,498.454,0.183252,0.0,0.0
3152,787.75,41.405,42.1192,154.974,102.554,101.281,0.00429453,0.126967,20.8576,498.424,0.114661,0.0,0.0
3160,789.75,41.8056,42.6207,156.995,102.536,100.567,0.00421606,0.125246,20.8611,498.404,0.17787,0.0,0.0
3168,791.75,41.0364,41.8936,157.41,102.524,99.6948,0.00406694,0.123555,20.8627,498.414,0.256811,0.0,0.0
3176,793.75,41.0678,42.1943,159.363,102.498,100.061,0.00397915,0.122399,20.8633,498.364,0.220813,0.0,0.0
3184,795.75,41.386,41.8562,154.33,102.474,100.195,0.00400193,0.122052,20.8636,498.314,0.206367,0.0,0.0
3192,797.75,41.0275,42.3162,156.118,102.437,100.097,0.00407044,0.122099,20.8637,498.264,0.212087,0.0,0.0
3200,799.75,40.9569,41.5777,156.351,102.406,100.535,0.00408595,0.121947,20.8638,498.224,0.169204,0.0,0.0
3208,801.75,40.9046,42.5444,154.992,102.367,100.574,0.00408105,0.121474,20.8638,498.214,0.162132,0.0,0.0
3216,803.75,41.4104,41.8464,156.341,102.322,100.025,0.00409639,0.121008,20.8648,498.193,0.208308,0.0,0.0
3224,805.75,40.3932,41.8507,160.571,102.275,100.008,0.00416683,0.120581,20.8656,498.163,0.205702,0.0,0.0
3232,807.75,40.6679,42.0686,156.045,102.236,100.112,0.00422506,0.119991,20.8659,498.133,0.192655,0.0,0.0
3240,809.75,40.5511,41.7004,157.579,102.169,99.8134,0.00419951,0.119596,20.8661,498.043,0.214077,0.0,0.0
3248,811.75,40.2158,41.431,152.864,102.105,100.145,0.00404286,0.119453,20.8655,498.093,0.177862,0.0,0.0
3256,813.75,40.7927,41.2706,154.866,102.054,99.7561,0.00390955,0.119614,20.8641,498.083,0.208938,0.0,0.0
3264,815.75,40.393,41.5872,161.635,101.99,99.6532,0.00392727,0.119879,20.8635,498.083,0.212665,0.0,0.0
3272,817.75,40.3561,41.577,157.631,101.932,99.7318,0.00412399,0.119642,20.8642,498.033,0.200237,0.0,0.0
3280,819.75,40.3792,41.5868,155.477,101.855,99.5432,0.00440737,0.119138,20.8649,497.973,0.210631,0.0,0.0
3288,821.75,40.3495,41.045,155.941,101.772,98.9372,0.00467547,0.118712,20.8652,497.963,0.25923,0.0,0.0
3296,823.75,39.8809,41.2632,156.642,101.705,99.2232,0.00484803,0.118682,20.866,497.953,0.226684,0.0,0.0
3304,825.75,39.997,41.6321,156.183,101.64,99.5827,0.00491898,0.118661,20.8665,497.913,0.187655,0.0,0.0
3312,827.75,39.9693,41.9646,155.792,101.564,99.4935,0.00492618,0.118544,20.8667,497.893,0.188995,0.0,0.0
3320,829.75,40.0413,41.2775,157.702,101.498,99.4027,0.00485541,0.118143,20.8668,497.853,0.19141,0.0,0.0
3328,831.75,39.8979,40.969,155.232,101.436,99.8631,0.00478051,0.117753,20.8669,497.833,0.143376,0.0,0.0
3336,833.75,39.8721,41.1234,151.446,101.384,99.1269,0.00479751,0.117379,20.8676,497.813,0.206619,0.0,0.0
3344,835.75,39.7931,40.6603,164.011,101.326,99.0183,0.00480363,0.117227,20.8672,497.793,0.211408,0.0,0.0
3352,837.75,39.5178,40.9318,158.63,101.257,98.9007,0.00474114,0.116968,20.8668,497.753,0.216043,0.0,0.0
3360,839.75,39.5985,40.5775,158.398,101.196,98.5143,0.00472415,0.116695,20.8667,497.713,0.24647,0.0,0.0
3368,841.75,39.4285,40.2408,156.695,101.128,98.6127,0.00484181,0.116702,20.8666,497.693,0.231106,0.0,0.0
3376,843.75,39.1008,40.5405,157.882,101.086,98.2415,0.00493873,0.116675,20.8666,497.683,0.261894,0.0,0.0
3384,845.75,39.253,40.7015,158.721,101.032,98.5686,0.00492929,0.116579,20.8665,497.663,0.226494,0.0,0.0
3392,847.75,39.0112,40.3543,156.56,100.992,98.8566,0.00496865,0.116448,20.8665,497.633,0.196088,0.0,0.0
3400,849.75,39.0228,40.3256,158.967,100.967,98.9555,0.00507156,0.116348,20.8665,497.603,0.184629,0.0,0.0
3408,851.75,38.5814,41.0225,155.495,100.922,98.6654,0.00512449,0.116315,20.8665,497.563,0.207517,0.0,0.0
3416,853.75,39.3437,40.5062,159.746,100.899,98.67,0.00521499,0.116557,20.8662,497.553,0.204957,0.0,0.0
3424,855.75,38.6632,40.1466,160.072,100.879,98.746,0.00537365,0.116319,20.8661,497.533,0.196086,0.0,0.0
3432,857.75,38.7297,40.389,157.37,100.862,98.3728,0.00548101,0.115843,20.8677,497.503,0.229257,0.0,0.0
3440,859.75,38.8905,40.198,160.586,100.852,98.1933,0.00542837,0.115652,20.8688,497.483,0.245155,0.0,0.0
3448,861.75,38.4944,40.1481,157.947,100.865,98.8317,0.00537293,0.115429,20.8692,497.463,0.186888,0.0,0.0
3456,863.75,38.6585,39.5235,154.492,100.86,98.1264,0.00535232,0.115229,20.8695,497.443,0.252125,0.0,0.0
3464,865.75,38.6466,39.37,157.83,100.869,98.567,0.00535072,0.115192,20.87,497.413,0.211873,0.0,0.0
3472,867.75,38.5308,40.3141,159.691,100.9,98.7978,0.00541442,0.11499,20.8707,497.383,0.193194,0.0,0.0
3480,869.75,38.5247,39.922,154.693,100.923,98.136,0.00548051,0.114765,20.8719,497.373,0.256923,0.0,0.0
3488,871.75,38.4649,40.0888,161.129,100.938,99.0067,0.00550298,0.114553,20.8724,497.343,0.177295,0.0,0.0
3496,873.75,38.2768,39.6446,155.635,100.971,98.9281,0.00547471,0.114329,20.8726,497.313,0.187543,0.0,0.0
3504,875.75,38.2515,39.992,154.372,101.002,98.5949,0.00541459,0.114111,20.8727,497.303,0.221343,0.0,0.0
3512,877.75,37.9651,39.7656,158.901,101.043,98.4271,0.00546333,0.113868,20.8727,497.273,0.240647,0.0,0.0
3520,879.75,38.1193,39.608,162.126,101.082,99.1335,0.00557463,0.113883,20.8723,497.253,0.17866,0.0,0.0
3528,881.75,38.0948,39.971,158.122,101.134,99.243,0.00555498,0.114047,20.871,497.233,0.17324,0.0,0.0
3536,883.75,38.2707,39.6757,160.82,101.181,98.6335,0.00541172,0.114182,20.8703,497.203,0.233958,0.0,0.0
3544,885.75,37.8017,39.6204,161.071,101.212,98.635,,0.114058,,497.193,0.236619,0.0,0.0
3552,887.75,37.9161,39.6153,163.625,101.288,98.5676,,0.113395,,497.153,0.249843,0.0,0.0
3560,889.75,37.9903,39.7863,159.771,101.328,99.0761,,,,497.143,0.206239,0.0,0.0
3568,891.75,37.584,39.2882,159.658,101.385,98.5397,,,,497.113,0.261174,0.0,0.0
3576,893.75,37.7385,39.8107,158.452,101.445,100.115,,,,497.103,0.121105,0.0,0.0
3584,895.75,37.9175,39.5019,160.632,101.503,99.0214,,,,497.092,0.227088,0.0,0.0
3587,896.5,37.9235,39.7539,164.489,101.522,98.8642,,,,497.072,0.243418,0.0,0.0