File: 01_Data/OSB/Cone/OSB_Cone_HF75Scan_210325_R2.csv
Names,Time,Stack TC,Smoke TC,Exh Press,Smoke Comp,Smoke Meas,CO Meter,CO2 Meter,O2 Meter,Sample Mass,Ext Coeff,Start Test,Flame Verif
Chan Gain,,500,500,1,1,1,1,1,1,1,1,1.0,1.0
Offset,,0,0,0.138348,0,0,0,0,0,0,0,0.0,0.0
Gain,,1,1,25.011,13.5067,16.616,1,1,1,1.00091,1.04608,1.0,1.0
Units,sec,C,C,Pa,%,%,%,%,%,g,/m,,
Baseline,,40.029,43.6143,157.394,100.708,98.3884,-0.000571502,0.0834608,20.8692,-0.603425,0.213787,,
8,1.75,35.9993,39.1533,156.808,101.105,98.7729,-0.000663311,0.0894618,20.8613,584.882,0.214112,0.0,0.0
16,3.75,36.7245,39.272,155.766,101.134,98.0006,-0.00062552,0.0902838,20.859,584.692,0.288834,0.0,0.0
24,5.75,36.5358,39.4676,155.704,101.138,96.9505,-0.000482822,0.0912771,20.8542,584.652,0.38803,0.0,0.0
32,7.75,37.5149,40.7396,155.16,101.157,95.4561,-5.29033e-05,0.0937522,20.813,584.452,0.53229,0.0,1.0
40,9.75,39.1816,43.1206,142.014,101.169,93.8994,0.00061935,0.107167,20.7196,584.172,0.684217,0.0,1.0
48,11.75,39.6919,46.0521,145.176,101.172,95.3547,0.00143202,0.138188,20.606,583.852,0.543428,0.0,1.0
56,13.75,42.9691,50.2019,137.936,101.19,93.6529,0.00241445,0.18374,20.4826,583.491,0.710314,0.0,1.0
64,15.75,46.3556,55.189,133.836,101.195,91.0095,0.0035353,0.246569,20.3571,583.011,0.973451,0.0,0.0
72,17.75,49.3756,60.6894,132.408,101.226,89.9594,0.00470497,0.317308,20.2444,582.52,1.08272,0.0,0.0
80,19.75,52.2405,65.6981,131.817,101.228,90.8032,0.00576258,0.392002,20.1676,582.07,0.99731,0.0,0.0
88,21.75,54.6269,69.411,129.746,101.249,90.6262,0.00663755,0.459101,20.1223,581.539,1.01708,0.0,0.0
96,23.75,57.4788,73.0149,134.671,101.262,88.9442,0.00734552,0.513304,20.0887,581.009,1.19018,0.0,0.0
104,25.75,59.9634,77.3602,135.495,101.28,89.2505,0.00769102,0.570713,20.0529,580.568,1.16028,0.0,0.0
112,27.75,61.1974,79.0526,128.758,101.287,90.825,0.00769046,0.619424,20.0329,580.118,1.00045,0.0,0.0
120,29.75,63.1384,82.1149,132.24,101.303,90.826,0.00748797,0.659745,20.0211,579.598,1.00177,0.0,0.0
128,31.75,64.9041,84.8052,133.501,101.313,90.3574,0.007413,0.690916,20.016,579.147,1.05016,0.0,0.0
136,33.75,66.2281,86.9898,131.121,101.33,87.9468,0.00758901,0.715914,20.0155,578.637,1.29979,0.0,0.0
144,35.75,68.1177,88.2068,132.79,101.343,89.6156,0.00786834,0.732961,20.0178,578.176,1.12853,0.0,0.0
152,37.75,68.9424,90.1527,135.114,101.347,91.6439,0.00802049,0.746012,20.0199,577.686,0.923458,0.0,0.0
160,39.75,69.9911,91.6436,138.578,101.343,91.0192,0.00807572,0.756049,20.0216,577.265,0.985925,0.0,0.0
168,41.75,71.363,92.8446,133.405,101.351,89.6359,0.0080695,0.762402,20.0246,576.815,1.12716,0.0,0.0
176,43.75,71.5723,93.1886,133.525,101.359,88.1881,0.00809326,0.765191,20.032,576.365,1.27725,0.0,0.0
184,45.75,72.3425,93.798,133.49,101.368,90.3219,0.00811054,0.766111,20.0386,575.914,1.05873,0.0,0.0
192,47.75,72.8257,94.738,126.7,101.373,90.6272,0.00801896,0.765858,20.0433,575.454,1.02818,0.0,0.0
200,49.75,73.1571,94.9074,130.17,101.375,89.6455,0.00810424,0.764759,20.0469,574.953,1.12834,0.0,0.0
208,51.75,74.1518,95.578,138.155,101.382,91.8858,0.00840944,0.76333,20.0523,574.483,0.902442,0.0,0.0
216,53.75,74.3112,95.8148,135.213,101.386,89.9791,0.00871702,0.761016,20.0577,574.033,1.09522,0.0,0.0
224,55.75,75.0567,95.9244,134.364,101.413,90.5456,0.00876808,0.758473,20.0611,573.612,1.04006,0.0,0.0
232,57.75,75.0587,95.8969,126.742,101.399,91.509,0.00859197,0.755741,20.0639,573.132,0.941711,0.0,0.0
240,59.75,75.581,96.8519,130.827,101.405,89.9665,0.00838061,0.752497,20.0738,572.681,1.09827,0.0,0.0
248,61.75,76.0314,96.4794,131.891,101.413,91.0653,0.00820935,0.747883,20.0816,572.251,0.98758,0.0,0.0
256,63.75,75.9918,96.4852,136.068,101.417,91.5374,0.00818189,0.742422,20.0918,571.851,0.940468,0.0,0.0
264,65.75,76.2684,96.8236,131.197,101.425,90.5329,0.00822721,0.737307,20.0994,571.35,1.04251,0.0,0.0
272,67.75,75.9546,96.7219,134.185,101.438,90.1181,0.00827698,0.730955,20.108,570.99,1.0858,0.0,0.0
280,69.75,76.5247,96.7363,130.021,101.439,90.1303,0.00841938,0.725059,20.1198,570.549,1.08467,0.0,0.0
288,71.75,76.1482,96.3993,132.581,101.442,90.9943,0.00854854,0.718011,20.1291,570.119,0.997309,0.0,0.0
296,73.75,76.343,95.9673,128.088,101.447,90.2895,0.00857242,0.712106,20.1369,569.729,1.06915,0.0,0.0
304,75.75,76.162,96.1361,135.637,101.449,90.7459,0.0084984,0.705998,20.1404,569.298,1.02311,0.0,0.0
312,77.75,76.7547,96.3897,137.766,101.437,91.2768,0.00847469,0.700921,20.1419,568.858,0.968424,0.0,0.0
320,79.75,76.8426,96.1198,135.358,101.453,91.5339,0.00844141,0.69664,20.1438,568.497,0.944143,0.0,0.0
328,81.75,76.9871,96.4802,134.475,101.451,93.0982,0.00835084,0.692271,20.1503,568.107,0.788421,0.0,0.0
336,83.75,77.0958,96.1459,134.138,101.435,92.7174,0.00819371,0.687774,20.1577,567.707,0.824617,0.0,0.0
344,85.75,77.2373,95.6471,133.006,101.431,90.6561,0.00795745,0.682624,20.1658,567.256,1.03055,0.0,0.0
352,87.75,77.4464,94.8085,136.648,101.432,93.1824,0.00777545,0.676196,20.1749,566.916,0.778376,0.0,0.0
360,89.75,76.5629,95.4677,133.643,101.429,92.223,0.00770099,0.669858,20.1842,566.516,0.873119,0.0,0.0
368,91.75,77.3449,94.4503,137.545,101.425,92.1505,0.00776722,0.663237,20.1906,566.155,0.879963,0.0,0.0
376,93.75,76.4271,94.5758,144.534,101.427,93.2047,0.00781801,0.657177,20.2002,565.805,0.775732,0.0,0.0
384,95.75,77.1179,94.3637,134.728,101.413,91.4613,0.00777918,0.650261,20.2059,565.435,0.947761,0.0,0.0
392,97.75,76.8549,93.6935,136.395,101.432,92.7437,0.00763171,0.643933,20.2116,565.044,0.821672,0.0,0.0
400,99.75,76.7784,93.6828,132.766,101.414,91.9938,0.00739563,0.637935,20.2178,564.744,0.894573,0.0,0.0
408,101.75,76.9265,93.3237,132.942,101.417,92.3442,0.00723306,0.632454,20.2267,564.334,0.859987,0.0,0.0
416,103.75,76.3411,93.1806,135.222,101.425,92.9233,0.00716122,0.626048,20.2357,564.013,0.803332,0.0,0.0
424,105.75,76.3132,92.7038,135.224,101.409,92.9091,0.00702823,0.618815,20.2474,563.623,0.80328,0.0,0.0
432,107.75,76.031,92.4089,134.222,101.405,91.8903,0.00692497,0.61173,20.2585,563.283,0.904114,0.0,0.0
440,109.75,76.1606,91.9593,131.533,101.403,93.4496,0.00678775,0.603738,20.2695,562.942,0.749488,0.0,0.0
448,111.75,76.2661,91.7297,129.72,101.399,92.6084,0.00667339,0.596075,20.2774,562.692,0.832131,0.0,0.0
456,113.75,76.3817,91.447,135.138,101.403,92.7823,0.00656959,0.589165,20.2838,562.272,0.815249,0.0,0.0
464,115.75,75.5837,90.8982,136.479,101.385,92.6849,0.00639061,0.58177,20.2914,561.942,0.823316,0.0,0.0
472,117.75,75.5771,90.3403,135.483,101.388,93.2792,0.00614994,0.574808,20.3009,561.621,0.764854,0.0,0.0
480,119.75,75.4299,90.0487,133.592,101.389,92.9638,0.00602003,0.56718,20.3092,561.291,0.796045,0.0,0.0
488,121.75,75.3038,89.9633,143.395,101.372,93.3893,0.00599514,0.559991,20.3163,560.971,0.752618,0.0,0.0
496,123.75,75.2871,89.2397,138.837,101.368,93.2148,0.00585391,0.553142,20.3227,560.63,0.769437,0.0,0.0
504,125.75,74.9186,88.9645,137.527,101.357,92.7402,0.0055844,0.547208,20.3276,560.36,0.815234,0.0,0.0
512,127.75,74.9495,88.3621,138.014,101.36,94.1037,0.00525367,0.541325,20.3339,560.03,0.681601,0.0,0.0
520,129.75,74.5929,87.9342,139.204,101.358,93.0556,0.0050392,0.53605,20.3377,559.729,0.784191,0.0,0.0
528,131.75,74.7881,87.5775,126.616,101.353,93.3254,0.00488049,0.53089,20.344,559.419,0.757181,0.0,0.0
536,133.75,74.8544,87.7275,142.912,101.362,93.5084,0.00470936,0.526537,20.3502,559.109,0.739983,0.0,0.0
544,135.75,74.358,87.7311,139.013,101.351,94.0084,0.00468226,0.521308,20.356,558.769,0.690117,0.0,0.0
552,137.75,74.0452,87.2166,133.037,101.361,94.9379,0.00480891,0.516462,20.359,558.518,0.600696,0.0,0.0
560,139.75,74.0573,86.8983,140.618,101.348,93.3791,0.0049165,0.512758,20.3626,558.198,0.751412,0.0,0.0
568,141.75,73.6842,86.4482,139.904,101.352,93.224,0.0048887,0.508885,20.3671,557.908,0.76712,0.0,0.0
576,143.75,73.1713,86.9332,136.407,101.359,94.4846,0.00479168,0.505487,20.371,557.638,0.64443,0.0,0.0
584,145.75,73.6895,86.3904,139.881,101.346,93.5525,0.0047914,0.502197,20.3749,557.317,0.734237,0.0,0.0
592,147.75,74.5063,85.4184,138.488,101.348,94.3841,0.00490761,0.498902,20.3803,557.007,0.653216,0.0,0.0
600,149.75,73.6093,86.3423,134.964,101.352,92.6439,0.00503482,0.49523,20.3848,556.787,0.824399,0.0,0.0
608,151.75,73.4108,85.6811,136.585,101.349,95.2117,0.00506242,0.491697,20.3893,556.406,0.573185,0.0,0.0
616,153.75,72.94,85.5004,136.076,101.351,94.3045,0.00501412,0.488203,20.392,556.156,0.661257,0.0,0.0
624,155.75,73.3951,85.6096,141.489,101.342,94.3436,0.00484915,0.485155,20.3934,555.856,0.656601,0.0,0.0
632,157.75,73.5296,85.4653,136.937,101.345,95.7279,0.00464034,0.482325,20.3959,555.556,0.523197,0.0,0.0
640,159.75,73.2933,85.0101,139.929,101.353,94.3436,0.00448408,0.479314,20.3987,555.315,0.657608,0.0,0.0
648,161.75,73.1435,85.0788,137.316,101.355,95.0505,0.00447486,0.476656,20.4001,554.995,0.589337,0.0,0.0
656,163.75,73.177,84.8774,139.419,101.357,93.9678,0.00454745,0.474307,20.4021,554.725,0.694638,0.0,0.0
664,165.75,72.9014,84.5811,138.117,101.362,94.012,0.00446565,0.47201,20.4054,554.405,0.690741,0.0,0.0
672,167.75,73.3352,84.3664,135.557,101.385,95.1478,0.00432251,0.46954,20.4071,554.124,0.582665,0.0,0.0
680,169.75,73.0866,83.8256,140.827,101.352,94.7259,0.00417722,0.467257,20.4091,553.864,0.620384,0.0,0.0
688,171.75,72.8589,84.3829,138.068,101.355,94.8709,0.0041163,0.465018,20.4118,553.654,0.606608,0.0,0.0
696,173.75,73.0509,83.8604,135.307,101.353,95.0712,0.00410444,0.462547,20.414,553.314,0.587142,0.0,0.0
704,175.75,72.8081,83.6203,138.419,101.356,95.8075,0.00404506,0.460537,20.4158,553.003,0.516577,0.0,0.0
712,177.75,72.0889,83.6285,138.859,101.346,94.1991,0.00395418,0.458985,20.4155,552.723,0.67104,0.0,0.0
720,179.75,72.5295,83.3547,139.6,101.341,93.9932,0.00385042,0.457915,20.4154,552.473,0.69067,0.0,0.0
728,181.75,72.2452,83.2067,143.275,101.334,94.4901,0.00374483,0.456968,20.4156,552.203,0.641686,0.0,0.0
736,183.75,73.0103,83.1769,136.362,101.348,95.271,0.00374046,0.456027,20.4172,551.922,0.567394,0.0,0.0
744,185.75,72.8889,82.9879,131.759,101.324,94.1347,0.00380931,0.4549,20.4218,551.622,0.675337,0.0,0.0
752,187.75,72.5111,83.3715,135.385,101.315,94.8603,0.00383137,0.453312,20.4263,551.342,0.604017,0.0,0.0
760,189.75,72.6812,83.1205,139.307,101.321,94.3877,0.00381317,0.451448,20.4283,551.052,0.650445,0.0,0.0
768,191.75,71.937,82.4729,144.009,101.306,96.2756,0.0038241,0.449638,20.4293,550.811,0.467342,0.0,0.0
776,193.75,72.0436,82.713,142.231,101.308,95.7644,0.00381094,0.44825,20.4325,550.571,0.516412,0.0,0.0
784,195.75,72.9115,83.7399,143.707,101.313,94.6265,0.00369588,0.44656,20.4351,550.291,0.626508,0.0,0.0
792,197.75,72.7827,83.3703,141.116,101.307,94.9536,0.00355325,0.444802,20.437,549.991,0.594324,0.0,0.0
800,199.75,72.0718,82.5094,141.956,101.286,95.2477,0.00344368,0.442991,20.4383,549.7,0.564042,0.0,0.0
808,201.75,71.9762,82.5018,139.931,101.283,94.6539,0.00337703,0.441476,20.4389,549.42,0.621165,0.0,0.0
816,203.75,71.6529,81.8952,143.056,101.269,94.7229,0.00336319,0.440194,20.4401,549.2,0.613212,0.0,0.0
824,205.75,71.5437,81.855,139.247,101.272,95.9774,0.0033978,0.438606,20.441,548.93,0.492705,0.0,0.0
832,207.75,71.678,81.935,141.928,101.259,95.4445,0.00346077,0.437321,20.4431,548.689,0.542642,0.0,0.0
840,209.75,72.0937,82.0075,136.505,101.262,95.1792,0.0034488,0.436352,20.4453,548.399,0.568473,0.0,0.0
848,211.75,72.042,82.0673,140.695,101.262,96.9728,0.00332107,0.435324,20.4462,548.139,0.397132,0.0,0.0
856,213.75,71.9823,81.7714,134.164,101.245,94.8126,0.00329953,0.434423,20.4471,547.849,0.602317,0.0,0.0
864,215.75,72.1832,82.2056,137.383,101.236,95.4688,0.00345747,0.433587,20.4485,547.608,0.538211,0.0,0.0
872,217.75,71.7828,81.9592,135.159,101.226,95.1691,0.0035927,0.432806,20.4505,547.358,0.566201,0.0,0.0
880,219.75,71.8078,81.6306,138.286,101.2,95.3471,0.00359251,0.431824,20.4524,547.088,0.5467,0.0,0.0
888,221.75,71.7367,81.3307,139.692,101.182,95.6483,0.00347789,0.430769,20.4546,546.868,0.516077,0.0,0.0
896,223.75,72.1924,81.9449,142.922,101.178,95.7284,0.003286,0.42953,20.4555,546.568,0.508021,0.0,0.0
904,225.75,71.6287,81.4118,135.891,101.16,95.3496,0.00312336,0.428222,20.4572,546.327,0.542756,0.0,0.0
912,227.75,71.6082,81.4163,139.962,101.128,96.1899,0.00311176,0.426762,20.4589,546.057,0.459371,0.0,0.0
920,229.75,71.5058,81.3564,135.945,101.111,95.45,0.00321671,0.425551,20.46,545.787,0.528723,0.0,0.0
928,231.75,71.6561,81.3821,141.542,101.092,95.6508,0.0033497,0.424502,20.4601,545.497,0.507718,0.0,0.0
936,233.75,71.5791,81.6556,138.49,101.076,95.953,0.0033656,0.423728,20.4599,545.216,0.477312,0.0,0.0
944,235.75,71.7958,81.4352,135.978,101.054,95.3826,0.00327573,0.423043,20.4598,545.006,0.530046,0.0,0.0
952,237.75,71.4942,81.1996,139.579,101.033,95.5489,0.00324946,0.422505,20.4598,544.766,0.51215,0.0,0.0
960,239.75,71.6002,80.7467,141.229,101.007,95.3517,0.00327351,0.421932,20.46,544.536,0.528717,0.0,0.0
968,241.75,71.6297,81.2045,139.481,100.989,96.27,0.00329939,0.421207,20.462,544.245,0.439155,0.0,0.0
976,243.75,71.3553,81.3482,143.149,100.961,96.0626,0.003206,0.420295,20.4634,543.985,0.45636,0.0,0.0
984,245.75,71.3511,80.6956,138.777,100.934,96.3912,0.00298443,0.419469,20.464,543.755,0.422591,0.0,0.0
992,247.75,71.5785,80.7646,137.333,100.911,95.9703,0.00282794,0.418673,20.4633,543.435,0.460684,0.0,0.0
1000,249.75,70.9736,80.7845,141.088,100.881,95.8009,0.00278035,0.418031,20.4626,543.204,0.474079,0.0,0.0
1008,251.75,71.6038,80.8926,133.426,100.856,96.0976,0.00278957,0.41756,20.4623,542.954,0.443461,0.0,0.0
1016,253.75,71.6226,80.926,140.99,100.824,95.413,0.00280196,0.417043,20.4628,542.694,0.50621,0.0,0.0
1024,255.75,71.2398,80.8968,139.126,100.797,94.8897,0.00282627,0.41632,20.4669,542.424,0.5542,0.0,0.0
1032,257.75,71.5759,80.7811,138.813,100.79,95.0986,0.00283303,0.415437,20.4692,542.194,0.533382,0.0,0.0
1040,259.75,71.3387,80.1595,139.629,100.757,94.5819,0.00282048,0.414784,20.4702,541.953,0.580374,0.0,0.0
1048,261.75,71.7593,81.1816,144.907,100.723,94.8278,0.00282924,0.41411,20.4706,541.703,0.55339,0.0,0.0
1056,263.75,70.8313,80.0761,136.925,100.714,94.9607,0.00287447,0.41351,20.4708,541.463,0.539718,0.0,0.0
1064,265.75,71.604,80.5759,142.651,100.701,95.5104,0.00293204,0.413163,20.4707,541.193,0.48559,0.0,0.0
1072,267.75,71.6516,80.7203,139.261,100.673,94.7974,0.00300618,0.413092,20.4695,540.952,0.551827,0.0,0.0
1080,269.75,70.8928,79.7812,141.915,100.648,94.8441,0.00304764,0.413303,20.469,540.712,0.54502,0.0,0.0
1088,271.75,71.571,80.6369,143.135,100.64,94.9881,0.00306101,0.413513,20.4688,540.442,0.530385,0.0,0.0
1096,273.75,71.511,80.3392,148.281,100.62,95.1625,0.00308857,0.41324,20.4699,540.172,0.51167,0.0,0.0
1104,275.75,70.9671,80.03,139.773,100.605,94.9698,0.00314334,0.412845,20.4705,539.921,0.528953,0.0,0.0
1112,277.75,70.7025,79.8241,141.042,100.578,95.0773,0.00314098,0.412426,20.471,539.691,0.516128,0.0,0.0
1120,279.75,71.7019,80.558,138.034,100.56,94.553,0.00316693,0.412516,20.4709,539.391,0.565179,0.0,0.0
1128,281.75,70.6897,79.9888,134.894,100.547,94.5931,0.00328263,0.413075,20.4703,539.171,0.560126,0.0,0.0
1136,283.75,70.8169,80.6044,139.761,100.533,96.4013,0.00337829,0.413392,20.4701,538.951,0.385092,0.0,0.0
1144,285.75,71.0916,80.1794,141.576,100.53,94.8324,0.00338583,0.413679,20.47,538.71,0.535358,0.0,0.0
1152,287.75,71.019,80.1376,142.165,100.511,94.6423,0.00325167,0.413835,20.47,538.46,0.552045,0.0,0.0
1160,289.75,71.1318,80.1287,139.607,100.501,94.1575,0.0031697,0.413711,20.4699,538.19,0.598263,0.0,0.0
1168,291.75,71.081,80.2304,147.01,100.492,95.9353,0.00320577,0.413534,20.4699,537.95,0.425832,0.0,0.0
1176,293.75,70.9366,79.8572,138.714,100.477,95.164,0.00320807,0.41354,20.4699,537.679,0.498546,0.0,0.0
1184,295.75,70.7097,79.8298,140.522,100.458,93.8162,0.00307239,0.413539,20.4699,537.459,0.627704,0.0,0.0
1192,297.75,70.688,79.9299,136.641,100.455,94.1189,0.00290708,0.413375,20.4699,537.229,0.597842,0.0,0.0
1200,299.75,70.6659,79.9621,141.384,100.44,93.552,0.00282812,0.413313,20.4699,536.969,0.651924,0.0,0.0
1208,301.75,70.8527,79.8437,138.033,100.437,94.0931,0.00286489,0.413428,20.4688,536.709,0.598706,0.0,0.0
1216,303.75,70.5488,79.6851,141.525,100.421,93.5759,0.0030086,0.413577,20.4675,536.478,0.64778,0.0,0.0
1224,305.75,70.6176,79.6321,140.264,100.409,94.553,0.00316559,0.413841,20.467,536.218,0.551403,0.0,0.0
1232,307.75,70.7704,79.7644,141.211,100.402,94.341,0.00323334,0.414055,20.4668,535.998,0.571355,0.0,0.0
1240,309.75,71.2105,80.2456,135.978,100.399,93.7026,0.00325794,0.414198,20.4667,535.728,0.633359,0.0,0.0
1248,311.75,70.7709,79.8206,137.892,100.381,93.799,0.0033282,0.414218,20.4666,535.477,0.622272,0.0,0.0
1256,313.75,70.8071,79.6838,146.713,100.373,93.5865,0.00337281,0.414076,20.4678,535.217,0.642403,0.0,0.0
1264,315.75,70.5341,79.8962,144.082,100.359,94.803,0.00334333,0.413757,20.4684,534.997,0.522577,0.0,0.0
1272,317.75,70.8725,79.4778,137.555,100.35,94.1849,0.00331252,0.413471,20.4687,534.747,0.581773,0.0,0.0
1280,319.75,71.0335,79.3601,142.556,100.347,93.4993,0.00337921,0.413154,20.4696,534.497,0.648546,0.0,0.0
1288,321.75,70.6417,79.1942,142.111,100.34,93.5424,0.00346961,0.412661,20.4705,534.266,0.643677,0.0,0.0
1296,323.75,70.3251,78.8044,139.574,100.343,93.1606,0.00350432,0.412088,20.4701,534.066,0.681473,0.0,0.0
1304,325.75,71.3529,80.0153,145.575,100.339,93.8811,0.00350934,0.411619,20.4701,533.766,0.610433,0.0,0.0
1312,327.75,70.548,79.6696,142.147,100.316,94.0946,0.00347395,0.411513,20.4701,533.546,0.587518,0.0,0.0
1320,329.75,69.9785,79.0107,142.376,100.32,94.2417,0.00340855,0.411438,20.4702,533.295,0.573489,0.0,0.0
1328,331.75,70.6894,79.459,142.597,100.314,92.5227,0.003309,0.411562,20.4702,533.065,0.74192,0.0,0.0
1336,333.75,70.4292,79.2824,144.97,100.323,94.3674,0.00323071,0.411609,20.4702,532.815,0.561555,0.0,0.0
1344,335.75,70.6858,79.1342,138.376,100.306,94.6828,0.0032002,0.411684,20.4702,532.595,0.529391,0.0,0.0
1352,337.75,69.9963,79.3996,141.622,100.325,93.1017,0.00312291,0.41169,20.471,532.355,0.685647,0.0,0.0
1360,339.75,70.2307,79.2541,144.978,100.313,93.84,0.00302906,0.411286,20.4718,532.144,0.612112,0.0,0.0
1368,341.75,70.3762,79.2822,140.697,100.33,94.1808,0.00289619,0.410839,20.4722,531.874,0.580359,0.0,0.0
1376,343.75,70.6825,78.8713,142.087,100.329,93.5181,0.00280924,0.410642,20.4724,531.674,0.645084,0.0,0.0
1384,345.75,69.9879,79.3281,142.323,100.325,93.2397,0.00289548,0.410582,20.4724,531.374,0.672102,0.0,0.0
1392,347.75,69.7603,78.8396,143.283,100.336,94.3725,0.00307705,0.410546,20.472,531.103,0.562268,0.0,0.0
1400,349.75,70.4846,78.9521,140.309,100.344,93.4283,0.00334849,0.410539,20.4729,530.833,0.655252,0.0,0.0
1408,351.75,70.6192,79.3096,137.375,100.343,93.516,0.0035465,0.410699,20.4723,530.673,0.646565,0.0,0.0
1416,353.75,70.7652,78.7634,136.383,100.347,93.3543,0.00361783,0.411048,20.4723,530.393,0.662828,0.0,0.0
1424,355.75,70.434,78.8898,140.33,100.358,93.6321,0.00362742,0.411279,20.4734,530.163,0.636572,0.0,0.0
1432,357.75,70.5439,78.9439,142.261,100.367,93.9237,0.00364891,0.411262,20.4734,529.902,0.608833,0.0,0.0
1440,359.75,69.759,79.2856,141.131,100.37,92.9096,0.00370236,0.411401,20.4713,529.662,0.708755,0.0,0.0
1448,361.75,70.188,78.6175,144.938,100.395,92.2093,0.00374657,0.411878,20.4698,529.412,0.780478,0.0,0.0
1456,363.75,70.9076,78.9732,142.576,100.389,93.512,0.00374677,0.412579,20.468,529.172,0.651147,0.0,0.0
1464,365.75,70.3535,79.1026,140.122,100.415,93.0115,0.00366905,0.413097,20.466,528.951,0.702764,0.0,0.0
1472,367.75,70.6901,79.5917,139.732,100.421,94.0307,0.00358084,0.413776,20.4649,528.731,0.603322,0.0,0.0
1480,369.75,70.3333,79.5356,142.386,100.428,93.1195,0.00360146,0.41459,20.4647,528.451,0.693356,0.0,0.0
1488,371.75,70.298,78.9035,138.431,100.454,92.3959,0.00371086,0.414963,20.4664,528.211,0.767312,0.0,0.0
1496,373.75,70.4739,79.3462,139.746,100.448,93.1078,0.0038723,0.414901,20.4664,527.981,0.696277,0.0,0.0
1504,375.75,70.5974,79.3993,141.33,100.451,93.5997,0.00409806,0.415195,20.466,527.74,0.648192,0.0,0.0
1512,377.75,70.4746,79.1577,139.92,100.472,92.6981,0.00419085,0.41575,20.4647,527.48,0.738927,0.0,0.0
1520,379.75,70.3796,78.9322,139.752,100.465,92.6246,0.00404127,0.41596,20.4639,527.28,0.745607,0.0,0.0
1528,381.75,70.3525,78.7952,139.207,100.468,92.154,0.00391683,0.416009,20.4632,526.96,0.79257,0.0,0.0
1536,383.75,70.8147,78.9155,144.78,100.473,92.7037,0.00389389,0.416584,20.4629,526.769,0.738526,0.0,0.0
1544,385.75,70.5682,79.3481,136.179,100.476,92.7965,0.00387798,0.417213,20.4627,526.469,0.729571,0.0,0.0
1552,387.75,70.3492,79.1292,139.107,100.473,92.0759,0.00376591,0.417546,20.4627,526.279,0.800876,0.0,0.0
1560,389.75,70.5308,78.834,137.712,100.459,91.9532,0.00358755,0.417665,20.4626,526.059,0.811795,0.0,0.0
1568,391.75,70.432,79.1855,139.981,100.465,92.5049,0.00348162,0.417758,20.4621,525.829,0.757508,0.0,0.0
1576,393.75,71.0467,78.7046,141.673,100.47,92.9212,0.00358432,0.417822,20.4621,525.598,0.716717,0.0,0.0
1584,395.75,70.2402,79.1624,139.334,100.475,92.6332,0.00390392,0.418116,20.4628,525.318,0.745657,0.0,0.0
1592,397.75,70.7652,79.3779,142.19,100.493,93.3583,0.00404083,0.418582,20.462,525.118,0.675725,0.0,0.0
1600,399.75,70.5775,79.0054,140.402,100.489,92.3335,0.00391145,0.41891,20.4616,524.848,0.77667,0.0,0.0
1608,401.75,70.7393,79.2991,147.756,100.498,93.0049,0.00372894,0.419013,20.4621,524.618,0.710981,0.0,0.0
1616,403.75,70.8511,79.4125,143.55,100.528,92.9481,0.00359228,0.419029,20.4625,524.377,0.719333,0.0,0.0
1624,405.75,70.3001,79.4305,140.574,100.52,92.2681,0.00354356,0.418786,20.4627,524.137,0.785996,0.0,0.0
1632,407.75,70.2085,79.1161,138.397,100.533,91.7331,0.00354856,0.418583,20.4616,523.907,0.840596,0.0,0.0
1640,409.75,70.7956,79.1105,138.163,100.541,92.512,0.00363177,0.418584,20.4606,523.667,0.763691,0.0,0.0
1648,411.75,70.4796,79.3549,143.017,100.562,92.6444,0.00368536,0.418663,20.4592,523.437,0.752529,0.0,0.0
1656,413.75,70.5665,79.2803,141.957,100.571,92.26,0.00375112,0.419012,20.4587,523.166,0.79143,0.0,0.0
1664,415.75,70.5383,79.5764,144.363,100.591,92.62,0.00376734,0.419094,20.4584,522.936,0.757534,0.0,0.0
1672,417.75,71.1118,79.83,143.424,100.618,92.2575,0.00376279,0.419203,20.4584,522.676,0.796006,0.0,0.0
1680,419.75,70.425,79.1536,146.483,100.634,92.8051,0.00377475,0.419422,20.4584,522.486,0.743126,0.0,0.0
1688,421.75,70.2158,79.0442,144.74,100.645,92.3061,0.00378701,0.419424,20.4595,522.205,0.793609,0.0,0.0
1696,423.75,70.2977,78.667,142.7,100.679,93.1144,0.00375498,0.419009,20.4605,522.005,0.716689,0.0,0.0
1704,425.75,70.1413,79.0811,144.535,100.676,92.0632,0.0036945,0.418677,20.4619,521.775,0.820641,0.0,0.0
1712,427.75,70.7089,79.1881,146.297,100.69,91.7245,0.00365899,0.41831,20.4614,521.535,0.855706,0.0,0.0
1720,429.75,71.0432,79.3112,140.328,100.726,92.4375,0.00368393,0.418056,20.4586,521.264,0.787925,0.0,0.0
1728,431.75,70.6861,79.0142,142.152,100.734,91.9294,0.00372709,0.418387,20.4572,521.014,0.839253,0.0,0.0
1736,433.75,70.6504,79.0182,142.838,100.759,92.2701,0.00374102,0.418781,20.4566,520.804,0.807592,0.0,0.0
1744,435.75,70.0895,78.7346,136.787,100.786,91.6834,0.00367125,0.419089,20.4563,520.584,0.868602,0.0,0.0
1752,437.75,70.1022,78.8104,139.587,100.807,92.2894,0.00360459,0.419267,20.457,520.324,0.81003,0.0,0.0
1760,439.75,70.2044,78.6031,140.119,100.828,91.9846,0.00372665,0.419334,20.4578,520.154,0.842294,0.0,0.0
1768,441.75,70.4751,78.6947,138.618,100.874,92.0709,0.00399923,0.418977,20.4598,519.843,0.837936,0.0,0.0
1776,443.75,69.9428,78.5014,138.815,100.879,92.9826,0.00408266,0.418086,20.462,519.653,0.747931,0.0,0.0
1784,445.75,70.1586,78.4605,141.964,100.902,93.511,0.00409121,0.417243,20.4631,519.423,0.698034,0.0,0.0
1792,447.75,69.827,78.2801,140.598,100.929,92.3949,0.00408061,0.416844,20.4612,519.233,0.810649,0.0,0.0
1800,449.75,70.216,78.3741,138.978,100.949,93.8903,0.00401277,0.416747,20.4601,518.962,0.665124,0.0,0.0
1808,451.75,70.1567,78.6683,137.328,100.967,93.1727,0.00392077,0.416752,20.4597,518.772,0.737166,0.0,0.0
1816,453.75,70.6256,78.8086,137.39,100.982,91.8447,0.00379177,0.41715,20.4595,518.532,0.870285,0.0,0.0
1824,455.75,70.4189,78.6782,142.484,101.013,92.7245,0.00366807,0.417406,20.4594,518.282,0.785614,0.0,0.0
1832,457.75,70.173,78.6099,143.166,101.029,92.1378,0.00370168,0.41756,20.4583,518.052,0.845319,0.0,0.0
1840,459.75,70.3348,78.6557,144.154,101.068,92.4461,0.00384821,0.41769,20.4576,517.821,0.818258,0.0,0.0
1848,461.75,70.2405,78.7624,143.563,101.083,92.6043,0.00402992,0.418337,20.4559,517.631,0.803878,0.0,0.0
1856,463.75,70.2456,78.7939,140.982,101.097,92.8259,0.00410182,0.418972,20.4552,517.371,0.783181,0.0,0.0
1864,465.75,70.1993,78.8987,143.837,101.115,92.1079,0.00413105,0.419532,20.4558,517.131,0.856157,0.0,0.0
1872,467.75,70.6107,78.8274,138.949,101.134,92.4395,0.00432475,0.419841,20.4555,516.83,0.824862,0.0,0.0
1880,469.75,70.4548,78.7844,138.342,101.147,93.0196,0.00453584,0.420157,20.4554,516.59,0.768654,0.0,0.0
1888,471.75,70.274,79.3121,139.676,101.159,91.9699,0.00455873,0.420348,20.4544,516.39,0.873872,0.0,0.0
1896,473.75,70.5982,79.3561,141.855,101.167,92.9669,0.00441133,0.420813,20.4536,516.18,0.77569,0.0,0.0
1904,475.75,70.6887,79.165,134.638,101.176,93.0485,0.00425577,0.421564,20.4524,515.91,0.768421,0.0,0.0
1912,477.75,70.5786,78.7645,142.351,101.187,92.0009,0.00418748,0.422687,20.4506,515.699,0.873329,0.0,0.0
1920,479.75,70.4613,79.2427,140.23,101.193,92.0313,0.00421241,0.424025,20.4491,515.409,0.870818,0.0,0.0
1928,481.75,70.662,79.0591,140.013,101.198,92.8097,0.00424852,0.425132,20.4492,515.169,0.793984,0.0,0.0
1936,483.75,70.7534,79.2707,142.149,101.217,93.875,0.0041736,0.425909,20.448,514.919,0.691008,0.0,0.0
1944,485.75,70.8977,79.2551,141.551,101.225,92.8791,0.00408686,0.426475,20.4469,514.688,0.789586,0.0,0.0
1952,487.75,70.792,79.6188,140.485,101.213,91.0952,0.00408217,0.427443,20.4439,514.478,0.966459,0.0,0.0
1960,489.75,70.7558,79.6017,147.2,101.223,93.4035,0.0041836,0.428748,20.442,514.248,0.73778,0.0,0.0
1968,491.75,71.0558,79.5848,146.878,101.228,93.3928,0.0043335,0.430267,20.441,513.998,0.739237,0.0,0.0
1976,493.75,71.1427,80.1425,134.798,101.233,92.8903,0.00448168,0.431752,20.4385,513.738,0.789193,0.0,0.0
1984,495.75,71.1555,79.9471,144.832,101.244,92.0004,0.00461098,0.433337,20.4358,513.497,0.878573,0.0,0.0
1992,497.75,70.8613,80.0284,138.06,101.273,91.6677,0.0047161,0.434882,20.4346,513.297,0.914427,0.0,0.0
2000,499.75,70.9906,80.0858,141.278,101.264,91.7326,0.00474743,0.436639,20.4319,512.997,0.907111,0.0,0.0
2008,501.75,71.0876,80.0156,136.448,101.283,93.1677,0.00473364,0.43868,20.4282,512.727,0.766391,0.0,0.0
2016,503.75,71.7121,80.2602,133.972,101.291,92.4334,0.00481104,0.440678,20.4249,512.497,0.839741,0.0,0.0
2024,505.75,71.1471,80.5649,140.332,101.29,92.043,0.004958,0.442217,20.4233,512.256,0.878434,0.0,0.0
2032,507.75,71.4078,80.7098,144.978,101.326,92.8543,0.00500401,0.443724,20.4226,512.006,0.80119,0.0,0.0
2040,509.75,71.6139,80.8396,138.28,101.33,92.5668,0.00497077,0.44508,20.4223,511.776,0.83002,0.0,0.0
2048,511.75,71.4007,80.4592,137.117,101.345,91.9395,0.00489107,0.446428,20.4205,511.506,0.893718,0.0,0.0
2056,513.75,71.8378,80.9389,141.293,101.343,91.363,0.00471893,0.447857,20.4179,511.255,0.951294,0.0,0.0
2064,515.75,71.5004,80.7275,137.796,101.355,91.7058,0.0045476,0.449257,20.4161,511.005,0.917974,0.0,0.0
2072,517.75,71.9356,80.7741,138.571,101.366,91.9253,0.00456395,0.450544,20.4137,510.785,0.897038,0.0,0.0
2080,519.75,71.9738,80.6466,138.12,101.388,92.1408,0.00471333,0.451844,20.411,510.525,0.877603,0.0,0.0
2088,521.75,72.0733,81.3167,133.835,101.395,91.2489,0.0049251,0.453159,20.408,510.264,0.967423,0.0,0.0
2096,523.75,72.0485,81.5251,140.852,101.402,90.9893,0.0050133,0.454675,20.4063,510.034,0.994278,0.0,0.0
2104,525.75,72.0916,81.5404,139.219,101.415,91.6976,0.00503707,0.455824,20.4045,509.774,0.924233,0.0,0.0
2112,527.75,72.0413,81.4769,140.493,101.435,91.2038,0.00510529,0.456949,20.4037,509.524,0.975618,0.0,0.0
2120,529.75,72.2097,81.4692,140.274,101.422,91.6621,0.00521147,0.457731,20.4034,509.254,0.92842,0.0,0.0
2128,531.75,71.9133,81.588,136.124,101.432,90.6597,0.00524842,0.458119,20.4033,509.013,1.0303,0.0,0.0
2136,533.75,72.2589,81.3058,140.844,101.44,90.3899,0.00516243,0.458278,20.404,508.783,1.05832,0.0,0.0
2144,535.75,72.2677,81.6915,142.669,101.455,92.4988,0.00502379,0.457982,20.4051,508.503,0.848025,0.0,0.0
2152,537.75,72.1735,81.813,140.22,101.449,90.3189,0.00484618,0.457439,20.4068,508.283,1.06638,0.0,0.0
2160,539.75,72.0793,81.6264,141.883,101.465,91.2793,0.00464376,0.456931,20.409,507.962,0.970704,0.0,0.0
2168,541.75,72.2042,81.3904,141.934,101.474,91.5536,0.00447863,0.455936,20.4113,507.782,0.944062,0.0,0.0
2176,543.75,72.1818,81.2199,140.089,101.479,91.0207,0.00437241,0.454682,20.4126,507.572,0.99808,0.0,0.0
2184,545.75,72.3676,81.5627,144.205,101.488,90.5141,0.00425075,0.453511,20.4138,507.332,1.05004,0.0,0.0
2192,547.75,71.8945,81.5149,135.876,101.506,91.1784,0.00416698,0.451841,20.4173,507.092,0.98458,0.0,0.0
2200,549.75,72.3929,80.9645,141.512,101.5,91.9289,0.00413722,0.44958,20.4208,506.861,0.908841,0.0,0.0
2208,551.75,71.9723,81.2421,142.729,101.502,91.3691,0.00406236,0.446675,20.4258,506.641,0.96504,0.0,0.0
2216,553.75,71.7992,81.0572,140.603,101.509,91.9502,0.00396046,0.443413,20.4303,506.431,0.907497,0.0,0.0
2224,555.75,71.76,80.6777,139.016,101.519,91.0719,0.00387233,0.439815,20.4346,506.231,0.996495,0.0,0.0
2232,557.75,71.8944,80.6537,145.512,101.517,91.5648,0.00373755,0.436274,20.4384,505.981,0.946782,0.0,0.0
2240,559.75,71.6587,79.9941,144.175,101.529,92.3893,0.00355784,0.432809,20.4433,505.8,0.865642,0.0,0.0
2248,561.75,71.3961,79.8841,144.667,101.535,92.2478,0.0034015,0.428844,20.447,505.58,0.880188,0.0,0.0
2256,563.75,71.4604,80.0583,146.235,101.558,91.793,0.00325778,0.424498,20.4541,505.39,0.927668,0.0,0.0
2264,565.75,71.3772,79.4443,139.829,101.55,91.1322,0.0031164,0.419762,20.46,505.12,0.993175,0.0,0.0
2272,567.75,71.2303,79.5467,138.478,101.558,92.6763,0.00295405,0.415374,20.4657,504.99,0.83975,0.0,0.0
2280,569.75,70.7765,79.1135,140.429,101.562,94.0779,0.00286685,0.410702,20.4727,504.789,0.702389,0.0,0.0
2288,571.75,70.7821,78.8345,137.719,101.566,93.4435,0.00284757,0.405832,20.4794,504.569,0.764881,0.0,0.0
2296,573.75,70.2537,78.4353,144.044,101.58,94.66,0.00275569,0.400715,20.4851,504.369,0.647386,0.0,0.0
2304,575.75,70.3943,78.045,139.639,101.576,95.1767,0.00254206,0.396048,20.4906,504.219,0.597099,0.0,0.0
2312,577.75,70.3259,78.0808,141.777,101.584,94.5094,0.00230741,0.391276,20.4979,504.019,0.662406,0.0,0.0
2320,579.75,69.6158,77.6378,139.997,101.585,94.6722,0.00218583,0.386681,20.5024,503.849,0.646653,0.0,0.0
2328,581.75,69.8176,77.3556,138.894,101.601,94.6473,0.00214336,0.381864,20.5064,503.698,0.650551,0.0,0.0
2336,583.75,69.6624,77.2592,139.007,101.59,96.3237,0.00207345,0.37734,20.5147,503.508,0.48844,0.0,0.0
2344,585.75,69.1784,76.7299,143.213,101.594,95.4176,0.00188872,0.371789,20.5216,503.358,0.575581,0.0,0.0
2352,587.75,68.7713,76.7732,143.165,101.599,95.4698,0.00170279,0.36665,20.5277,503.198,0.570932,0.0,0.0
2360,589.75,68.8471,75.9486,143.347,101.602,95.9536,0.00160298,0.361394,20.5351,503.008,0.524851,0.0,0.0
2368,591.75,68.8698,75.6839,142.409,101.608,96.4946,0.00156078,0.356049,20.5442,502.878,0.473851,0.0,0.0
2376,593.75,68.3889,74.9365,142.367,101.604,96.7304,0.00156083,0.350005,20.5514,502.698,0.451084,0.0,0.0
2384,595.75,67.9234,74.7323,144.666,101.612,96.703,0.00150479,0.344179,20.558,502.577,0.454389,0.0,0.0
2392,597.75,67.9933,74.6453,146.042,101.604,97.0899,0.00145447,0.338204,20.5653,502.457,0.416968,0.0,0.0
2400,599.75,67.7634,73.9873,145.483,101.613,96.0322,0.00142807,0.332436,20.5708,502.347,0.518306,0.0,0.0
2408,601.75,67.4042,73.4305,140.809,101.613,97.1832,0.00136524,0.326512,20.5783,502.237,0.408972,0.0,0.0
2416,603.75,66.8431,73.0782,138.87,101.621,97.5919,0.00124141,0.320142,20.5852,502.087,0.371207,0.0,0.0
2424,605.75,66.5425,72.6693,140.624,101.621,97.3683,0.00108962,0.313599,20.5952,501.967,0.392257,0.0,0.0
2432,607.75,66.3936,71.9618,146.466,101.624,98.1304,0.00104072,0.306609,20.6033,501.887,0.32101,0.0,0.0
2440,609.75,65.7921,71.4621,147.332,101.624,98.1162,0.00106013,0.299881,20.6132,501.807,0.322338,0.0,0.0
2448,611.75,65.3544,71.2434,146.692,101.632,98.5807,0.00112747,0.292563,20.6224,501.697,0.279744,0.0,0.0
2456,613.75,65.0099,70.4666,148.683,101.617,98.2425,0.00123329,0.285395,20.6292,501.607,0.309903,0.0,0.0
2464,615.75,64.8877,70.1392,147.971,101.62,97.6888,0.00144549,0.278403,20.6363,501.547,0.362068,0.0,0.0
2472,617.75,64.4005,69.5542,147.152,101.619,98.6908,0.00164941,0.271766,20.645,501.446,0.268317,0.0,0.0
2480,619.75,63.6945,68.8624,146.163,101.632,99.0097,0.00169246,0.26443,20.6541,501.366,0.239825,0.0,0.0
2488,621.75,63.2761,67.9221,146.264,101.621,99.0559,0.00170499,0.256993,20.663,501.286,0.234619,0.0,0.0
2496,623.75,62.859,67.212,148.243,101.615,99.3414,0.00180158,0.249391,20.6714,501.216,0.207615,0.0,0.0
2504,625.75,63.0144,66.7845,148.268,101.623,99.2749,0.00198375,0.242175,20.6809,501.166,0.214498,0.0,0.0
2512,627.75,62.3926,66.4673,145.264,101.599,100.067,0.00212865,0.234733,20.6876,501.146,0.139335,0.0,0.0
2520,629.75,61.5474,65.1078,149.838,101.608,100.197,0.00210286,0.228134,20.6942,501.126,0.128379,0.0,0.0
2528,631.75,60.908,64.3869,151.709,101.594,100.613,0.00202424,0.221243,20.7013,501.076,0.0890285,0.0,0.0
2536,633.75,60.9447,64.5367,154.222,101.594,100.346,0.00215552,0.214902,20.7073,501.016,0.113432,0.0,0.0
2544,635.75,59.9774,63.744,152.634,101.593,100.149,0.00249499,0.209236,20.7111,501.016,0.131367,0.0,0.0
2552,637.75,59.8214,62.9446,153.688,101.598,100.805,0.00283845,0.204525,20.7157,500.956,0.0718993,0.0,0.0
2560,639.75,60.3338,63.1317,150.259,101.598,100.437,0.00303387,0.20015,20.72,500.906,0.105425,0.0,0.0
2568,641.75,59.3819,62.4013,150.83,101.585,100.041,0.00309231,0.195867,20.7238,500.896,0.140571,0.0,0.0
2576,643.75,58.9877,61.5504,148.082,101.575,100.163,0.00301506,0.192283,20.727,500.836,0.128438,0.0,0.0
2584,645.75,58.6749,61.4172,153.227,101.574,99.8591,0.00299304,0.189398,20.7295,500.796,0.156269,0.0,0.0
2592,647.75,58.3391,60.882,150.042,101.567,99.9453,0.00306579,0.186607,20.7308,500.766,0.147718,0.0,0.0
2600,649.75,58.0549,60.5833,150.153,101.566,100.186,0.00305452,0.184441,20.7319,500.706,0.125481,0.0,0.0
2608,651.75,57.6234,60.4407,149.897,101.554,100.041,0.0029105,0.182844,20.7342,500.646,0.137694,0.0,0.0
2616,653.75,57.3663,59.9574,150.478,101.547,100.128,0.00280567,0.181047,20.7353,500.656,0.129149,0.0,0.0
2624,655.75,57.3849,59.4064,149.027,101.538,100.067,0.00283509,0.179643,20.7363,500.586,0.133824,0.0,0.0
2632,657.75,57.3817,59.5048,148.362,101.548,99.856,0.00300697,0.178359,20.7372,500.546,0.154165,0.0,0.0
2640,659.75,57.4783,59.3055,149.273,101.523,99.9818,0.00316701,0.177163,20.7384,500.546,0.140343,0.0,0.0
2648,661.75,56.0398,58.7061,147.812,101.521,99.8038,0.00326585,0.176012,20.7394,500.526,0.156582,0.0,0.0
2656,663.75,56.0211,58.7168,152.147,101.512,100.144,0.00332578,0.17504,20.7407,500.526,0.124458,0.0,0.0
2664,665.75,56.2149,58.591,150.089,101.491,99.9032,0.00346337,0.174284,20.7408,500.476,0.144654,0.0,0.0
2672,667.75,56.2463,58.2823,150.505,101.491,100.276,0.00365563,0.173423,20.7408,500.416,0.110484,0.0,0.0
2680,669.75,55.7562,57.9989,151.755,101.483,99.8601,0.00378759,0.172702,20.7408,500.375,0.147906,0.0,0.0
2688,671.75,55.751,58.0407,150.061,101.47,99.8687,0.00389865,0.17219,20.7417,500.335,0.145995,0.0,0.0
2696,673.75,55.9952,58.0874,155.27,101.463,99.7881,0.0040242,0.17151,20.7419,500.275,0.152736,0.0,0.0
2704,675.75,55.2729,57.7223,149.76,101.456,100.376,0.00410355,0.17102,20.7417,500.245,0.0982072,0.0,0.0
2712,677.75,55.2326,57.5052,148.621,101.44,99.9443,0.0041431,0.17064,20.7417,500.215,0.136297,0.0,0.0
2720,679.75,55.2012,57.3266,149.371,101.43,99.6121,0.00419009,0.170388,20.7417,500.185,0.16591,0.0,0.0
2728,681.75,54.6185,56.9788,152.226,101.419,99.5503,0.00418833,0.170192,20.7417,500.155,0.170678,0.0,0.0
2736,683.75,54.3949,57.2447,148.972,101.414,99.785,0.00415397,0.169813,20.7412,500.185,0.148578,0.0,0.0
2744,685.75,54.602,56.9211,149.911,101.397,100.045,0.00412548,0.169674,20.7402,500.115,0.123158,0.0,0.0
2752,687.75,54.7028,57.2575,148.087,101.395,99.6542,0.00409199,0.169644,20.74,500.085,0.158863,0.0,0.0
2760,689.75,54.4172,56.8545,151.072,101.381,99.6243,0.00410385,0.16943,20.7405,500.035,0.160387,0.0,0.0
2768,691.75,54.102,56.2728,149.585,101.374,99.785,0.00411867,0.169134,20.7411,500.045,0.144997,0.0,0.0
2776,693.75,54.3295,56.6136,150.376,101.355,100.148,0.00415748,0.168774,20.7423,499.945,0.109878,0.0,0.0
2784,695.75,53.9435,56.1528,149.866,101.346,99.8601,0.00420898,0.168415,20.7434,499.945,0.135523,0.0,0.0
2792,697.75,54.3537,56.5419,148.954,101.322,99.9955,0.00430846,0.168023,20.745,499.905,0.120889,0.0,0.0
2800,699.75,54.1922,57.0276,155.257,101.307,99.4752,0.00445385,0.167651,20.7458,499.865,0.167411,0.0,0.0
2808,701.75,53.8749,56.2465,153.261,101.292,99.7384,0.00458505,0.16748,20.7462,499.845,0.14186,0.0,0.0
2816,703.75,53.6307,56.128,148.273,101.281,99.8545,0.00466495,0.167297,20.7458,499.785,0.130175,0.0,0.0
2824,705.75,53.4357,55.5927,150.928,101.267,99.7095,0.00469657,0.167031,20.7462,499.795,0.142241,0.0,0.0
2832,707.75,53.7458,55.9996,152.157,101.253,99.4849,0.00466512,0.166797,20.7463,499.765,0.161668,0.0,0.0
2840,709.75,53.3172,55.7147,150.427,101.235,99.8332,0.00466852,0.166672,20.7456,499.775,0.127911,0.0,0.0
2848,711.75,53.5142,55.9099,150.217,101.213,99.3398,0.00475145,0.166627,20.7448,499.705,0.17143,0.0,0.0
2856,713.75,52.5807,55.1415,151.57,101.198,99.4859,0.00477019,0.166753,20.7455,499.685,0.156567,0.0,0.0
2864,715.75,52.8423,55.413,154.449,101.201,99.8358,0.0047281,0.166602,20.747,499.635,0.124614,0.0,0.0
2872,717.75,52.5234,54.9471,151.841,101.172,99.6791,0.00475241,0.166299,20.7476,499.625,0.13641,0.0,0.0
2880,719.75,53.3405,55.8323,148.233,101.156,99.5711,0.00479264,0.16627,20.7474,499.575,0.144938,0.0,0.0
2888,721.75,52.6859,55.2155,152.547,101.142,99.5437,0.00478082,0.166342,20.7469,499.565,0.14619,0.0,0.0
2896,723.75,52.423,54.9308,153.905,101.128,99.5614,0.00487193,0.166072,20.7479,499.525,0.143245,0.0,0.0
2904,725.75,52.5182,54.967,151.346,101.115,99.2278,0.00507822,0.165714,20.7484,499.505,0.172926,0.0,0.0
2912,727.75,52.1338,54.5241,151.271,101.097,99.5198,0.0053618,0.165423,20.7486,499.515,0.144236,0.0,0.0
2920,729.75,52.8168,55.3713,150.147,101.087,99.8281,0.00563005,0.16537,20.7483,499.465,0.114955,0.0,0.0
2928,731.75,52.0218,54.5583,150.305,101.089,99.6481,0.0058266,0.165377,20.7481,499.405,0.131741,0.0,0.0
2936,733.75,52.1034,54.9142,151.174,101.087,99.6091,0.00580542,0.165322,20.7484,499.385,0.135112,0.0,0.0
2944,735.75,52.1788,54.6133,154.33,101.06,99.6781,0.00569154,0.165075,20.7495,499.345,0.126366,0.0,0.0
2952,737.75,51.9864,54.526,155.027,101.053,99.1689,0.00573073,0.164759,20.7499,499.315,0.172718,0.0,0.0
2960,739.75,51.9898,54.3906,152.568,101.033,99.7962,0.00590743,0.164752,20.7501,499.325,0.113026,0.0,0.0
2968,741.75,51.4538,54.2702,152.882,101.021,99.28,0.00605897,0.164836,20.7502,499.284,0.159528,0.0,0.0
2976,743.75,51.5547,53.9916,151.818,101.026,99.3099,0.00611227,0.164894,20.7502,499.244,0.15725,0.0,0.0
2984,745.75,51.8048,54.4184,153.284,101.014,99.6659,0.00611004,0.164819,20.7501,499.254,0.123294,0.0,0.0
2992,747.75,51.8119,54.2352,149.561,101.008,99.3611,0.00611984,0.164622,20.7512,499.214,0.150871,0.0,0.0
3000,749.75,51.5882,53.9749,152.147,100.999,99.6639,0.00615433,0.164427,20.7522,499.144,0.122132,0.0,0.0
3008,751.75,51.137,53.7266,152.829,100.995,99.104,0.00621149,0.164211,20.7515,499.114,0.173445,0.0,0.0
3016,753.75,51.2051,53.6129,152.815,100.989,99.0437,0.00629945,0.164282,20.7512,499.134,0.178474,0.0,0.0
3024,755.75,50.7457,53.7803,152.492,100.982,99.3997,0.00642859,0.164501,20.751,499.094,0.144916,0.0,0.0
3032,757.75,51.1569,53.7214,154.376,100.977,99.0381,0.00651992,0.164661,20.751,499.054,0.177867,0.0,0.0
3040,759.75,50.9675,53.7774,155.717,100.976,99.1892,0.00660109,0.164747,20.751,499.054,0.163839,0.0,0.0
3048,761.75,51.0425,53.3887,153.743,100.965,99.3104,0.00674127,0.164875,20.7499,499.014,0.151623,0.0,0.0
3056,763.75,51.0072,53.5202,153.76,100.958,99.1862,0.0069635,0.165209,20.7487,498.964,0.162472,0.0,0.0
3064,765.75,50.9066,53.2383,151.772,100.956,99.1213,0.00715873,0.165717,20.7481,498.944,0.168255,0.0,0.0
3072,767.75,50.7265,53.6533,152.559,100.945,99.1573,0.00730804,0.166119,20.7492,498.934,0.163985,0.0,0.0
3080,769.75,50.7663,53.3476,155.725,100.935,99.4073,0.00735396,0.166396,20.7507,498.884,0.139943,0.0,0.0
3088,771.75,50.4117,53.0438,153.214,100.952,99.5391,0.00734735,0.16649,20.7516,498.884,0.129317,0.0,0.0
3096,773.75,50.7914,53.5263,154.709,100.97,99.0447,0.00733366,0.166333,20.7521,498.834,0.176694,0.0,0.0
3104,775.75,50.3746,53.6506,154.359,100.993,99.4636,0.0073834,0.166127,20.7523,498.814,0.140031,0.0,0.0
3112,777.75,49.9927,53.1823,154.699,100.996,99.3226,0.00746125,0.166011,20.7523,498.794,0.153344,0.0,0.0
3120,779.75,50.2668,53.0911,151.882,101.036,99.2105,0.00749635,0.165664,20.7533,498.774,0.167336,0.0,0.0
3128,781.75,49.6663,52.4876,154.942,101.035,99.6892,0.00761666,0.165321,20.7541,498.724,0.123018,0.0,0.0
3136,783.75,49.2464,52.3103,146.204,101.064,99.531,0.00787802,0.16499,20.7545,498.744,0.140214,0.0,0.0
3144,785.75,49.4345,52.1764,152.169,101.06,99.4342,0.00797852,0.165012,20.7548,498.674,0.148847,0.0,0.0
3152,787.75,49.5485,51.7717,149.53,101.089,99.1583,0.00789061,0.164655,20.7561,498.664,0.176959,0.0,0.0
3160,789.75,49.5539,52.4685,152.844,101.12,99.3343,0.00785437,0.164419,20.7566,498.674,0.163533,0.0,0.0
3168,791.75,49.1303,52.5003,149.767,101.118,99.5508,0.00802966,0.164349,20.7552,498.614,0.143291,0.0,0.0
3176,793.75,49.1075,52.3346,153.056,101.119,99.4174,0.00829911,0.164249,20.7545,498.554,0.155742,0.0,0.0
3184,795.75,49.0506,52.1537,149.64,101.125,99.4407,0.00848828,0.16436,20.7543,498.554,0.15415,0.0,0.0
3192,797.75,49.1337,51.6207,151.477,101.132,99.3677,0.00860828,0.164269,20.7541,498.524,0.161526,0.0,0.0
3200,799.75,48.9991,51.2602,149.682,101.172,99.3155,0.00867785,0.164065,20.7541,498.494,0.169979,0.0,0.0
3208,801.75,48.7566,52.3225,152.209,101.186,98.9134,0.00877957,0.163917,20.7554,498.474,0.208477,0.0,0.0
3216,803.75,49.1308,51.7847,152.702,101.214,99.2333,0.00888435,0.163593,20.7563,498.454,0.181345,0.0,0.0
3224,805.75,48.3693,51.6613,153.702,101.23,99.4889,0.00896084,0.163408,20.7576,498.454,0.159239,0.0,0.0
3232,807.75,49.2046,51.7859,151.341,101.27,99.2014,0.00901145,0.163344,20.7574,498.414,0.189381,0.0,0.0
3240,809.75,48.5151,52.0003,149.625,101.256,99.4235,0.0090588,0.163507,20.7573,498.414,0.167628,0.0,0.0
3248,811.75,48.9531,52.2011,149.633,101.296,99.3829,0.0091244,0.163509,20.7573,498.354,0.174995,0.0,0.0
3256,813.75,48.3265,51.3291,150.166,101.326,99.1441,0.00915441,0.163578,20.7571,498.334,0.199762,0.0,0.0
3264,815.75,48.4826,50.9794,155.566,101.359,99.3109,0.00919486,0.16336,20.7567,498.314,0.187319,0.0,0.0
3272,817.75,48.5363,51.6626,151.211,101.377,99.9255,0.00928656,0.163049,20.7565,498.304,0.132351,0.0,0.0
3280,819.75,48.4691,51.2246,157.996,101.4,99.5802,0.00936681,0.162888,20.7564,498.264,0.166205,0.0,0.0
3288,821.75,48.7,51.2808,157.185,101.431,100.132,0.0094401,0.162681,20.7571,498.244,0.118304,0.0,0.0
3296,823.75,48.4794,51.328,153.258,101.451,99.4945,0.0095926,0.162712,20.7569,498.214,0.178655,0.0,0.0
3304,825.75,48.0376,51.4102,152.308,101.463,99.319,0.00979987,0.162797,20.7579,498.214,0.196006,0.0,0.0
3312,827.75,47.9257,51.0267,152.652,101.484,99.3956,0.00994294,0.162757,20.7584,498.193,0.190761,0.0,0.0
3320,829.75,47.9681,51.4591,152.552,101.493,99.7977,0.00997495,0.16276,20.7586,498.143,0.15457,0.0,0.0
3328,831.75,47.4726,50.5953,153.378,101.514,99.7881,0.00990248,0.162608,20.7586,498.103,0.157357,0.0,0.0
3336,833.75,47.7554,51.2705,149.683,101.533,99.9473,0.00985625,0.162528,20.7587,498.083,0.144478,0.0,0.0
3344,835.75,47.6955,51.428,149.847,101.547,99.6066,0.00990979,0.162599,20.7587,498.053,0.177046,0.0,0.0
3352,837.75,47.5059,51.0512,149.851,101.566,100.074,0.0101083,0.162426,20.7584,498.033,0.135797,0.0,0.0
3360,839.75,47.6752,50.722,156.784,101.566,100.057,0.0103208,0.162408,20.7582,498.003,0.137333,0.0,0.0
3368,841.75,47.4904,50.7932,150.613,101.576,99.6157,0.0104397,0.162275,20.7574,497.973,0.178811,0.0,0.0
3376,843.75,47.4681,50.7681,150.917,101.588,100.015,0.0104402,0.162151,20.7578,497.973,0.143241,0.0,0.0
3384,845.75,47.7761,50.7397,152.014,101.594,99.6816,0.0104447,0.162156,20.7579,497.923,0.174342,0.0,0.0
3392,847.75,47.5518,51.1295,151.519,101.602,99.9762,0.0105012,0.16212,20.758,497.863,0.148044,0.0,0.0
3400,849.75,48.0234,50.719,149.941,101.617,99.7364,0.010529,0.162025,20.758,497.843,0.171424,0.0,0.0
3408,851.75,47.4081,50.448,152.262,101.628,99.6892,0.0105107,0.161933,20.758,497.853,0.176732,0.0,0.0
3416,853.75,47.2734,50.76,150.013,101.636,99.4058,0.0104974,0.162068,20.758,497.853,0.203567,0.0,0.0
3424,855.75,47.4313,50.6116,153.91,101.632,99.8008,0.0105039,0.162104,20.758,497.793,0.166803,0.0,0.0
3432,857.75,47.0557,50.7943,152.586,101.659,99.8854,0.0106189,0.162068,20.758,497.763,0.161477,0.0,0.0
3440,859.75,47.7346,50.7813,155.618,101.642,100.096,0.0108797,0.162003,20.758,497.723,0.14064,0.0,0.0
3448,861.75,47.08,50.1562,149.808,101.647,99.6218,0.01111,0.161875,20.7576,497.703,0.18469,0.0,0.0
3456,863.75,47.8064,50.7642,153.39,101.653,99.6573,0.0112159,0.161649,20.7575,497.693,0.181979,0.0,0.0
3464,865.75,46.7169,50.1266,151.308,101.661,99.7709,0.0112373,0.161527,20.7574,497.613,0.172233,0.0,0.0
3472,867.75,47.1466,50.088,153.054,101.662,99.6552,0.0111906,0.161468,20.7574,497.633,0.18291,0.0,0.0
3480,869.75,46.7932,50.0415,151.442,101.654,100.325,0.0111975,0.161338,20.7574,497.613,0.120814,0.0,0.0
3488,871.75,47.578,50.4875,155.771,101.66,99.7354,0.0113267,0.161265,20.7574,497.573,0.175424,0.0,0.0
3496,873.75,46.7316,50.6455,150.768,101.653,99.7957,0.0115616,0.161352,20.7574,497.543,0.169206,0.0,0.0
3504,875.75,46.685,50.7912,152.329,101.656,99.743,0.011824,0.161291,20.7574,497.533,0.174316,0.0,0.0
3512,877.75,47.0066,50.7941,148.437,101.647,100.105,0.0119793,0.161246,20.7574,497.513,0.140249,0.0,0.0
3520,879.75,47.6147,49.903,155.054,101.656,99.7085,0.0119892,0.161386,20.7574,497.463,0.177488,0.0,0.0
3528,881.75,46.8637,50.1296,154.469,101.647,99.7556,0.0119254,0.161246,20.7574,497.443,0.17233,0.0,0.0
3536,883.75,46.8712,49.5115,151.219,101.654,100.245,0.0119043,0.161157,20.7574,497.403,0.128015,0.0,0.0
3544,885.75,46.2469,50.1828,148.513,101.648,99.8707,0.0119343,0.161121,20.7574,497.433,0.16186,0.0,0.0
3552,887.75,46.9955,50.1532,154.412,101.655,99.7075,0.0119706,0.161004,20.7574,497.393,0.177544,0.0,0.0
3560,889.75,46.752,49.5582,156.331,101.651,99.6131,,0.160866,,497.303,0.18582,0.0,0.0
3568,891.75,46.432,50.0154,152.452,101.654,99.8302,,0.160683,,497.323,0.166109,0.0,0.0
3576,893.75,46.9396,49.1728,149.931,101.651,99.6938,,,,497.283,0.178396,0.0,0.0
3584,895.75,46.6186,50.172,153.481,101.651,99.7987,,,,497.293,0.168776,0.0,0.0
3592,897.75,46.312,49.8558,151.458,101.649,99.8844,,,,497.253,0.160677,0.0,0.0
3600,899.75,46.3999,49.868,150.342,101.643,99.9752,,,,497.203,0.151821,0.0,0.0
3601,900,46.4682,50.1121,154.728,101.652,99.7222,,,,497.223,0.175857,0.0,0.0