File: 01_Data/LDPE/STA/N2/3K_min/LDPE_STA_N2_3KData_210908_R2.csv
##Temp./Â°C,Time/min,DSC(subtr.2)/mW,Mass loss(subtr.2)/mg,Sensit./(uV/mW)
49.606,10.01,0.07733594,-0.01371,1.03585
50.206,12.1891,0.21312,-0.01984947,1.03582
50.806,12.8613,0.29064,-0.01722185,1.03579
51.406,13.38238,0.34728,-0.01580094,1.03576
52.006,13.82966,0.39043,-0.01722155,1.03573
52.606,14.23501,0.42325,-0.01458039,1.0357
53.206,14.61166,0.44311,-0.01732687,1.03566
53.806,14.9656,0.48601,-0.01732815,1.03562
54.406,15.29989,0.51205,-0.01470088,1.03558
55.006,15.61791,0.53292,-0.01519827,1.03554
55.606,15.9238,0.55577,-0.01567076,1.0355
56.206,16.2205,0.56025,-0.01655995,1.03546
56.806,16.50744,0.58472,-0.01391696,1.03541
57.406,16.78685,0.59134,-0.01531906,1.03536
58.006,17.05838,0.60067,-0.01688002,1.03532
58.606,17.32338,0.61307,-0.01832706,1.03526
59.206,17.58326,0.61636,-0.01557984,1.03521
59.806,17.83841,0.60445,-0.01700425,1.03516
60.406,18.0895,0.60568,-0.0163395,1.03511
61.006,18.33708,0.60382,-0.01734387,1.03505
61.606,18.5815,0.60878,-0.0184033,1.03499
62.206,18.8225,0.61184,-0.02083035,1.03493
62.806,19.06168,0.6115,-0.01952997,1.03487
63.406,19.29815,0.6127,-0.02164379,1.03481
64.006,19.53174,0.6061,-0.02104537,1.03475
64.606,19.76216,0.60367,-0.01952556,1.03468
65.206,19.99052,0.60259,-0.02083999,1.03461
65.806,20.21738,0.60999,-0.02215108,1.03454
66.406,20.44262,0.5982,-0.02202061,1.03447
67.006,20.666,0.59846,-0.02305634,1.0344
67.606,20.88832,0.59761,-0.02179806,1.03433
68.206,21.1091,0.5956,-0.02292998,1.03426
68.806,21.3281,0.59655,-0.0202813,1.03418
69.406,21.54563,0.57513,-0.01934515,1.0341
70.006,21.76361,0.57386,-0.02122434,1.03402
70.606,21.9806,0.58221,-0.02166015,1.03394
71.206,22.19655,0.57007,-0.02130622,1.03386
71.806,22.41028,0.55644,-0.01995554,1.03378
72.406,22.6237,0.52663,-0.02160707,1.03369
73.006,22.8374,0.50224,-0.02040314,1.0336
73.606,23.04962,0.48856,-0.01897013,1.03352
74.206,23.26062,0.47382,-0.02157091,1.03343
74.806,23.4714,0.45924,-0.0216,1.03334
75.406,23.6815,0.44275,-0.02160994,1.03324
76.006,23.8914,0.43457,-0.02028668,1.03315
76.606,24.1,0.41802,-0.02171,1.03305
77.206,24.30789,0.3937,-0.02064364,1.03296
77.806,24.51557,0.37103,-0.0216381,1.03286
78.406,24.72278,0.3317,-0.02040189,1.03276
79.006,24.9295,0.29813,-0.02040007,1.03266
79.606,25.13658,0.27774,-0.02038634,1.03255
80.206,25.3419,0.2503,-0.01909187,1.03245
80.806,25.54787,0.2217,-0.0190488,1.03234
81.406,25.75242,0.19892,-0.01911251,1.03224
82.006,25.95725,0.17255,-0.02039977,1.03213
82.606,26.1619,0.13567,-0.02034974,1.03202
83.206,26.36603,0.11312,-0.02096801,1.03191
83.806,26.56993,0.07096023,-0.02172016,1.03179
84.406,26.77273,0.05606489,-0.02171346,1.03168
85.006,26.9744,0.02522353,-0.02039658,1.03156
85.606,27.176,0.002857474,-0.02314993,1.03144
86.206,27.3771,-0.02425068,-0.02115432,1.03132
86.806,27.5784,-0.06914715,-0.02183097,1.0312
87.406,27.77957,-0.08112315,-0.02282097,1.03108
88.006,27.9807,-0.09431971,-0.02216074,1.03096
88.606,28.18181,-0.11722,-0.02248033,1.03083
89.206,28.38203,-0.1432,-0.02246538,1.03071
89.806,28.58202,-0.16204,-0.02182848,1.03058
90.406,28.78187,-0.18377,-0.02313982,1.03045
91.006,28.98122,-0.21101,-0.0224831,1.03032
91.606,29.18102,-0.24839,-0.02249291,1.03019
92.206,29.38065,-0.27252,-0.02282012,1.03006
92.806,29.58012,-0.29336,-0.02412986,1.02992
93.406,29.7782,-0.33389,-0.02182,1.02978
94.006,29.97594,-0.37178,-0.02314,1.02965
94.606,30.17298,-0.41695,-0.02316134,1.02951
95.206,30.36973,-0.42755,-0.02446002,1.02937
95.806,30.5671,-0.43772,-0.02313692,1.02923
96.406,30.7649,-0.45584,-0.02183,1.02908
97.006,30.96286,-0.44936,-0.02315004,1.02894
97.606,31.1602,-0.47078,-0.02315001,1.02879
98.206,31.35677,-0.4734,-0.02304432,1.02864
98.806,31.55237,-0.47656,-0.02446024,1.0285
99.406,31.74819,-0.50266,-0.02445933,1.02834
100.006,31.9436,-0.49737,-0.02311608,1.02819
100.606,32.1396,-0.49281,-0.02181975,1.02804
101.206,32.33551,-0.46566,-0.02313966,1.02789
101.806,32.53154,-0.41738,-0.023802,1.02773
102.406,32.72724,-0.36994,-0.0231298,1.02757
103.006,32.92287,-0.2875,-0.02320679,1.02741
103.606,33.11877,-0.21173,-0.02183,1.02725
104.206,33.31517,-0.10455,-0.02314,1.02709
104.806,33.5122,0.005043842,-0.02110038,1.02693
105.406,33.7096,0.13925,-0.02115999,1.02677
106.006,33.90713,0.28096,-0.02248034,1.0266
106.606,34.10498,0.43963,-0.02181999,1.02643
107.206,34.3024,0.59545,-0.02181999,1.02626
107.806,34.49991,0.75097,-0.02314,1.02609
108.406,34.69728,0.93131,-0.02280757,1.02592
109.006,34.8949,1.11259,-0.02182969,1.02575
109.606,35.09297,1.29294,-0.02182735,1.02558
110.206,35.2906,1.42742,-0.02182,1.0254
110.806,35.48822,1.46862,-0.02260612,1.02523
111.406,35.68481,1.33212,-0.02043715,1.02505
112.006,35.88066,1.00174,-0.02447801,1.02487
112.606,36.07585,0.74099,-0.02315713,1.02469
113.206,36.2707,0.60928,-0.02182171,1.02451
113.806,36.46435,0.5771,-0.02183001,1.02432
114.406,36.65846,0.55561,-0.02248061,1.02414
115.006,36.85202,0.56309,-0.02149592,1.02395
115.606,37.04619,0.56407,-0.0211494,1.02377
116.206,37.2401,0.56496,-0.02115988,1.02358
116.806,37.4344,0.56916,-0.02148327,1.02339
117.406,37.6287,0.57853,-0.02158053,1.0232
118.006,37.823,0.57063,-0.01930819,1.023
118.606,38.01777,0.58003,-0.01967464,1.02281
119.206,38.2132,0.58263,-0.01974012,1.02261
119.806,38.40813,0.57878,-0.01974294,1.02242
120.406,38.60287,0.57796,-0.01974008,1.02222
121.006,38.79714,0.57936,-0.02105,1.02202
121.606,38.99112,0.58961,-0.0236899,1.02182
122.206,39.18561,0.58971,-0.0196316,1.02162
122.806,39.37961,0.59019,-0.02094999,1.02142
123.406,39.57374,0.58839,-0.02093846,1.02121
124.006,39.76791,0.59006,-0.01996084,1.02101
124.606,39.96148,0.59072,-0.02270848,1.0208
125.206,40.15481,0.58986,-0.02270003,1.02059
125.806,40.34803,0.59353,-0.0227099,1.02038
126.406,40.54078,0.59969,-0.02271706,1.02017
127.006,40.73404,0.59267,-0.02270566,1.01996
127.606,40.9283,0.59344,-0.02139121,1.01974
128.206,41.1222,0.59561,-0.02006957,1.01953
128.806,41.31544,0.59756,-0.01908,1.01931
129.406,41.5084,0.59855,-0.01992046,1.0191
130.006,41.7004,0.59586,-0.0204,1.01888
130.606,41.89271,0.59815,-0.02269782,1.01866
131.206,42.08605,0.60103,-0.02205052,1.01844
131.806,42.27885,0.5981,-0.02072177,1.01821
132.406,42.4724,0.60402,-0.01952,1.01799
133.006,42.66476,0.60728,-0.01952169,1.01777
133.606,42.85723,0.60477,-0.02045907,1.01754
134.206,43.04976,0.60599,-0.02226932,1.01731
134.806,43.24252,0.60718,-0.02079111,1.01708
135.406,43.4347,0.60587,-0.02216004,1.01685
136.006,43.62658,0.61545,-0.02013585,1.01662
136.606,43.81879,0.61573,-0.02029,1.01639
137.206,44.01132,0.60726,-0.02160021,1.01616
137.806,44.2038,0.60938,-0.02031373,1.01592
138.406,44.39615,0.61179,-0.02029,1.01569
139.006,44.58814,0.60337,-0.02160046,1.01545
139.606,44.78022,0.60724,-0.02291903,1.01521
140.206,44.97248,0.61692,-0.02029,1.01497
140.806,45.16453,0.61655,-0.02162309,1.01473
141.406,45.35562,0.62443,-0.01939216,1.01449
142.006,45.54672,0.62749,-0.02028986,1.01424
142.606,45.73746,0.6218,-0.02097646,1.014
143.206,45.92896,0.61952,-0.01963026,1.01375
143.806,46.12065,0.62122,-0.01765937,1.01351
144.406,46.31264,0.6209,-0.01897997,1.01326
145.006,46.50468,0.6301,-0.01897952,1.01301
145.606,46.69636,0.62581,-0.01896999,1.01276
146.206,46.8882,0.61731,-0.01917136,1.01251
146.806,47.07962,0.62705,-0.02029001,1.01225
147.406,47.27104,0.63254,-0.01831458,1.012
148.006,47.46202,0.62451,-0.01897963,1.01174
148.606,47.65279,0.63336,-0.02029016,1.01149
149.206,47.84356,0.62174,-0.01999042,1.01123
149.806,48.03391,0.63064,-0.01949164,1.01097
150.406,48.22456,0.62841,-0.01932527,1.01071
151.006,48.41493,0.62672,-0.01956904,1.01045
151.606,48.60535,0.62475,-0.01805515,1.01018
152.206,48.7954,0.63458,-0.02062025,1.00992
152.806,48.9857,0.64025,-0.01746149,1.00965
153.406,49.17584,0.63281,-0.01909081,1.00939
154.006,49.36596,0.63847,-0.01809773,1.00912
154.606,49.55643,0.64839,-0.01678,1.00885
155.206,49.74684,0.64682,-0.01908052,1.00858
155.806,49.93728,0.64801,-0.01642651,1.00831
156.406,50.12794,0.63511,-0.01775694,1.00804
157.006,50.31897,0.65127,-0.01777133,1.00777
157.606,50.5093,0.65004,-0.01880569,1.00749
158.206,50.70028,0.64845,-0.01831692,1.00722
158.806,50.89139,0.64336,-0.01854271,1.00694
159.406,51.0824,0.63917,-0.01644824,1.00666
160.006,51.274,0.64288,-0.01647614,1.00638
160.606,51.4644,0.64795,-0.01782063,1.0061
161.206,51.65446,0.65288,-0.02005453,1.00582
161.806,51.84476,0.64784,-0.01808387,1.00554
162.406,52.0349,0.64897,-0.01671318,1.00525
163.006,52.22571,0.64931,-0.01941003,1.00497
163.606,52.41645,0.65785,-0.01809998,1.00468
164.206,52.60705,0.65561,-0.0181,1.0044
164.806,52.79719,0.64783,-0.01777081,1.00411
165.406,52.9874,0.65085,-0.0185601,1.00382
166.006,53.1765,0.65727,-0.0167124,1.00353
166.606,53.36674,0.65766,-0.01731803,1.00324
167.206,53.55689,0.64802,-0.01602179,1.00295
167.806,53.74734,0.64479,-0.01861913,1.00265
168.406,53.9377,0.65066,-0.01733,1.00236
169.006,54.1282,0.65461,-0.01732474,1.00206
169.606,54.31824,0.65251,-0.01745735,1.00176
170.206,54.5089,0.65563,-0.017,1.00147
170.806,54.699,0.65591,-0.017,1.00117
171.406,54.88919,0.65107,-0.01964009,1.00087
172.006,55.07914,0.66426,-0.01604878,1.00057
172.606,55.26964,0.65225,-0.0181,1.00026
173.206,55.45994,0.65997,-0.01711,0.99996
173.806,55.6507,0.65326,-0.01579835,0.99966
174.406,55.84134,0.64914,-0.01580041,0.99935
175.006,56.0319,0.65198,-0.01711,0.99904
175.606,56.22255,0.65646,-0.01711,0.99874
176.206,56.4128,0.66128,-0.01711,0.99843
176.806,56.60278,0.6626,-0.01711,0.99812
177.406,56.79283,0.66439,-0.01778361,0.99781
178.006,56.9831,0.67094,-0.01776393,0.99749
178.606,57.17315,0.67456,-0.01645,0.99718
179.206,57.36371,0.66918,-0.01784974,0.99687
179.806,57.5541,0.66433,-0.01515376,0.99655
180.406,57.74446,0.671,-0.01382116,0.99623
181.006,57.9351,0.66549,-0.01513652,0.99592
181.606,58.1256,0.68009,-0.01517379,0.9956
182.206,58.31629,0.6819,-0.01662097,0.99528
182.806,58.50639,0.67958,-0.01645221,0.99496
183.406,58.6966,0.68375,-0.01512969,0.99464
184.006,58.8864,0.68083,-0.01518943,0.99431
184.606,59.07655,0.68555,-0.01513,0.99399
185.206,59.2669,0.68669,-0.01553802,0.99367
185.806,59.4574,0.68174,-0.0154613,0.99334
186.406,59.64767,0.68372,-0.01481,0.99301
187.006,59.8375,0.68404,-0.01676145,0.99269
187.606,60.0275,0.68424,-0.01677908,0.99236
188.206,60.2176,0.68644,-0.01580029,0.99203
188.806,60.40733,0.68789,-0.01610997,0.9917
189.406,60.59731,0.69453,-0.01610992,0.99137
190.006,60.78689,0.69312,-0.0138352,0.99103
190.606,60.97651,0.69167,-0.01525,0.9907
191.206,61.16605,0.68988,-0.01647802,0.99036
191.806,61.3557,0.69941,-0.01421369,0.99003
192.406,61.54571,0.69964,-0.0152384,0.98969
193.006,61.73575,0.69617,-0.01525895,0.98935
193.606,61.92549,0.69356,-0.01395531,0.98902
194.206,62.1156,0.69431,-0.01655999,0.98868
194.806,62.305,0.70032,-0.01630498,0.98833
195.406,62.495,0.70599,-0.0149672,0.98799
196.006,62.6847,0.69804,-0.01558675,0.98765
196.606,62.8742,0.70117,-0.01558,0.98731
197.206,63.064,0.7081,-0.01558,0.98696
197.806,63.2541,0.70918,-0.0136,0.98662
198.406,63.44401,0.7066,-0.01503685,0.98627
199.006,63.6345,0.70632,-0.01588136,0.98592
199.606,63.8247,0.70755,-0.01393013,0.98557
200.206,64.01579,0.70339,-0.01508029,0.98522
200.806,64.20612,0.7056,-0.01458,0.98487
201.406,64.39585,0.70598,-0.0139236,0.98452
202.006,64.58572,0.71243,-0.01429111,0.98417
202.606,64.77465,0.70703,-0.01425918,0.98382
203.206,64.9644,0.71037,-0.01532218,0.98346
203.806,65.15409,0.71394,-0.01511857,0.98311
204.406,65.3439,0.72736,-0.01524251,0.98275
205.006,65.53323,0.71498,-0.01424715,0.98239
205.606,65.72225,0.71171,-0.01689161,0.98204
206.206,65.91125,0.7252,-0.01656975,0.98168
206.806,66.1003,0.7119,-0.01591035,0.98132
207.406,66.28975,0.72567,-0.01457852,0.98096
208.006,66.47905,0.72568,-0.01457999,0.9806
208.606,66.66886,0.72938,-0.01556835,0.98023
209.206,66.8583,0.72951,-0.01655865,0.97987
209.806,67.04814,0.72751,-0.01385486,0.97951
210.406,67.238,0.72596,-0.01524152,0.97914
211.006,67.42771,0.72058,-0.01660404,0.97877
211.606,67.61716,0.72609,-0.01525886,0.97841
212.206,67.80631,0.72952,-0.01656154,0.97804
212.806,67.99542,0.72744,-0.01691418,0.97767
213.406,68.18474,0.72839,-0.01656,0.9773
214.006,68.37398,0.73439,-0.01555376,0.97693
214.606,68.56309,0.72416,-0.01425,0.97656
215.206,68.75264,0.72861,-0.01622826,0.97618
215.806,68.94194,0.73378,-0.01359407,0.97581
216.406,69.13133,0.73451,-0.01424993,0.97544
217.006,69.32129,0.73571,-0.01655999,0.97506
217.606,69.51069,0.72816,-0.01622494,0.97469
218.206,69.7006,0.73761,-0.01589962,0.97431
218.806,69.8904,0.73714,-0.01459085,0.97393
219.406,70.0802,0.72789,-0.0159,0.97355
220.006,70.26944,0.72508,-0.01492776,0.97317
220.606,70.45953,0.72913,-0.01655521,0.97279
221.206,70.6494,0.72904,-0.01689455,0.97241
221.806,70.83973,0.73448,-0.01656,0.97203
222.406,71.02994,0.73733,-0.01787902,0.97165
223.006,71.2195,0.7414,-0.01558502,0.97126
223.606,71.4092,0.74111,-0.01546,0.97088
224.206,71.59897,0.74453,-0.01678009,0.97049
224.806,71.78896,0.74262,-0.01678,0.97011
225.406,71.9787,0.74555,-0.01413068,0.96972
226.006,72.16855,0.74197,-0.01816307,0.96933
226.606,72.35847,0.74836,-0.01678,0.96894
227.206,72.54818,0.74569,-0.01545467,0.96855
227.806,72.73824,0.74052,-0.01546064,0.96816
228.406,72.92819,0.7383,-0.01546,0.96777
229.006,73.11868,0.74764,-0.01545998,0.96738
229.606,73.30875,0.75275,-0.01645002,0.96699
230.206,73.49879,0.75413,-0.01645,0.96659
230.806,73.6891,0.76105,-0.01382245,0.9662
231.406,73.87917,0.75722,-0.0154699,0.9658
232.006,74.06915,0.74969,-0.01447999,0.96541
232.606,74.25935,0.74971,-0.01579406,0.96501
233.206,74.4494,0.75609,-0.01481,0.96461
233.806,74.63926,0.75512,-0.01613,0.96421
234.406,74.8293,0.76765,-0.01481012,0.96381
235.006,75.01941,0.77093,-0.01744,0.96341
235.606,75.20962,0.76424,-0.0148081,0.96301
236.206,75.3995,0.76481,-0.0147668,0.96261
236.806,75.58957,0.7561,-0.01677956,0.96221
237.406,75.77965,0.76797,-0.0154388,0.9618
238.006,75.96943,0.77147,-0.01415402,0.9614
238.606,76.1596,0.77104,-0.01545601,0.96099
239.206,76.34945,0.76789,-0.0141374,0.96059
239.806,76.53958,0.76971,-0.01575637,0.96018
240.406,76.72954,0.76891,-0.01508952,0.95977
241.006,76.9196,0.77566,-0.0148,0.95937
241.606,77.10973,0.77573,-0.01480999,0.95896
242.206,77.29916,0.77885,-0.01381998,0.95855
242.806,77.48913,0.77998,-0.01513,0.95814
243.406,77.6789,0.78077,-0.01513,0.95773
244.006,77.8694,0.78566,-0.01611999,0.95732
244.606,78.05966,0.77996,-0.0167898,0.9569
245.206,78.24969,0.7932,-0.01415006,0.95649
245.806,78.44015,0.7853,-0.01415219,0.95608
246.406,78.63011,0.79118,-0.01415,0.95566
247.006,78.82,0.78511,-0.01282997,0.95525
247.606,79.00978,0.78226,-0.01569644,0.95483
248.206,79.19973,0.7865,-0.01437,0.95441
248.806,79.38994,0.79648,-0.01535999,0.95399
249.406,79.58058,0.79353,-0.01830939,0.95358
250.006,79.77123,0.80004,-0.01469973,0.95316
250.606,79.9618,0.79628,-0.01359388,0.95274
251.206,80.1519,0.80722,-0.01549426,0.95232
251.806,80.34225,0.81112,-0.01556955,0.95189
252.406,80.5327,0.80367,-0.01425,0.95147
253.006,80.72378,0.81078,-0.01461271,0.95105
253.606,80.9145,0.81912,-0.01491225,0.95063
254.206,81.10474,0.81897,-0.01534239,0.9502
254.806,81.2954,0.82526,-0.01523924,0.94978
255.406,81.4865,0.83491,-0.01533518,0.94935
256.006,81.67756,0.82996,-0.01458,0.94893
256.606,81.8683,0.82456,-0.01590032,0.9485
257.206,82.059,0.83217,-0.01590941,0.94807
257.806,82.2491,0.83619,-0.01458917,0.94764
258.406,82.4397,0.8274,-0.01589993,0.94721
259.006,82.6301,0.82993,-0.01589879,0.94678
259.606,82.82029,0.83429,-0.01326986,0.94635
260.206,83.01063,0.84524,-0.01525,0.94592
260.806,83.20084,0.84283,-0.01525,0.94549
261.406,83.39104,0.85818,-0.01530019,0.94506
262.006,83.5813,0.85464,-0.01458,0.94463
262.606,83.77168,0.8354,-0.01590016,0.94419
263.206,83.96245,0.85518,-0.01459009,0.94376
263.806,84.15301,0.85367,-0.01490339,0.94332
264.406,84.34353,0.84564,-0.01491022,0.94289
265.006,84.5342,0.85603,-0.01524171,0.94245
265.606,84.72448,0.84424,-0.01507424,0.94201
266.206,84.91494,0.8538,-0.01557,0.94158
266.806,85.1051,0.84888,-0.01557124,0.94114
267.406,85.29514,0.85178,-0.01589644,0.9407
268.006,85.4855,0.86002,-0.01598162,0.94026
268.606,85.6764,0.85234,-0.01523927,0.93982
269.206,85.8668,0.86075,-0.01655317,0.93938
269.806,86.05715,0.8655,-0.01788049,0.93894
270.406,86.24775,0.86889,-0.01656163,0.9385
271.006,86.4379,0.86548,-0.01689213,0.93805
271.606,86.62836,0.85981,-0.0148983,0.93761
272.206,86.81919,0.86314,-0.01523999,0.93717
272.806,87.01025,0.86,-0.01656,0.93672
273.406,87.20133,0.87233,-0.01601065,0.93628
274.006,87.3926,0.87463,-0.01523999,0.93583
274.606,87.584,0.87898,-0.01734618,0.93539
275.206,87.77489,0.86149,-0.01656097,0.93494
275.806,87.96628,0.85836,-0.0142614,0.93449
276.406,88.15722,0.86087,-0.0162305,0.93404
277.006,88.34814,0.86783,-0.01762496,0.93359
277.606,88.53928,0.862,-0.01622915,0.93315
278.206,88.73015,0.86865,-0.01623038,0.9327
278.806,88.92064,0.86549,-0.01524836,0.93224
279.406,89.1114,0.86898,-0.01787999,0.93179
280.006,89.30237,0.8735,-0.0178756,0.93134
280.606,89.4932,0.87365,-0.0162193,0.93089
281.206,89.68391,0.87958,-0.01558194,0.93044
281.806,89.8746,0.89343,-0.0168881,0.92998
282.406,90.06568,0.88985,-0.01656003,0.92953
283.006,90.25714,0.88285,-0.01691963,0.92908
283.606,90.44834,0.89077,-0.0149051,0.92862
284.206,90.6397,0.88992,-0.01754041,0.92817
284.806,90.83153,0.89753,-0.01755003,0.92771
285.406,91.02294,0.89897,-0.01623003,0.92725
286.006,91.214,0.88938,-0.01523999,0.9268
286.606,91.4051,0.8958,-0.01623001,0.92634
287.206,91.5963,0.89925,-0.01622932,0.92588
287.806,91.78837,0.88846,-0.01887043,0.92542
288.406,91.9802,0.89744,-0.01928101,0.92496
289.006,92.17184,0.8963,-0.01766286,0.9245
289.606,92.3634,0.89468,-0.01601823,0.92404
290.206,92.55412,0.89247,-0.01865003,0.92358
290.806,92.74602,0.88531,-0.01635313,0.92312
291.406,92.937,0.88143,-0.01633074,0.92266
292.006,93.12876,0.88687,-0.01557749,0.92219
292.606,93.3202,0.89244,-0.01744,0.92173
293.206,93.51135,0.88354,-0.0174328,0.92127
293.806,93.703,0.88067,-0.0171104,0.9208
294.406,93.89448,0.87435,-0.01604799,0.92034
295.006,94.08596,0.88027,-0.01612093,0.91987
295.606,94.27733,0.87934,-0.01871646,0.91941
296.206,94.46876,0.88089,-0.01492109,0.91894
296.806,94.66014,0.88135,-0.01622998,0.91847
297.406,94.85141,0.88677,-0.01630254,0.91801
298.006,95.04262,0.90748,-0.01887044,0.91754
298.606,95.2337,0.89739,-0.0172195,0.91707
299.206,95.42527,0.89645,-0.01623996,0.9166
299.806,95.61681,0.89501,-0.01852874,0.91613
300.406,95.8082,0.89668,-0.01722,0.91566
301.006,95.99972,0.90293,-0.01722,0.91519
301.606,96.1911,0.90261,-0.0185335,0.91472
302.206,96.38254,0.90349,-0.01492011,0.91425
302.806,96.57406,0.9013,-0.01786985,0.91378
303.406,96.76559,0.89487,-0.017,0.91331
304.006,96.95702,0.89467,-0.01830908,0.91284
304.606,97.14875,0.90322,-0.01830918,0.91236
305.206,97.34089,0.90261,-0.01830984,0.91189
305.806,97.53264,0.91397,-0.0183162,0.91142
306.406,97.72493,0.91118,-0.01732286,0.91094
307.006,97.91699,0.91187,-0.01699984,0.91047
307.606,98.1088,0.91999,-0.01831055,0.90999
308.206,98.301,0.92109,-0.01700087,0.90952
308.806,98.49331,0.91759,-0.01830934,0.90904
309.406,98.6858,0.91832,-0.01563329,0.90856
310.006,98.8779,0.90755,-0.01567997,0.90809
310.606,99.07033,0.91361,-0.01830964,0.90761
311.206,99.2627,0.92381,-0.01830947,0.90713
311.806,99.45498,0.91965,-0.01567006,0.90665
312.406,99.6474,0.92019,-0.01750258,0.90617
313.006,99.83991,0.93005,-0.01896997,0.9057
313.606,100.032,0.93191,-0.01831578,0.90522
314.206,100.224,0.92496,-0.01699962,0.90474
314.806,100.415,0.93304,-0.01831,0.90426
315.406,100.606,0.93683,-0.0169055,0.90378
316.006,100.798,0.94141,-0.01827485,0.90329
316.606,100.989,0.94558,-0.0186402,0.90281
317.206,101.181,0.94652,-0.01830863,0.90233
317.806,101.374,0.94487,-0.01962996,0.90185
318.406,101.567,0.94572,-0.01962933,0.90137
319.006,101.76,0.94337,-0.01963011,0.90088
319.606,101.953,0.94584,-0.01789595,0.9004
320.206,102.146,0.95836,-0.0189696,0.89991
320.806,102.339,0.95252,-0.01931038,0.89943
321.406,102.531,0.95359,-0.01798832,0.89895
322.006,102.723,0.95813,-0.01741299,0.89846
322.606,102.915,0.97267,-0.01852625,0.89797
323.206,103.107,0.96811,-0.02033997,0.89749
323.806,103.299,0.96356,-0.01906751,0.897
324.406,103.491,0.97069,-0.01996015,0.89652
325.006,103.684,0.96372,-0.01852987,0.89603
325.606,103.877,0.96564,-0.0200164,0.89554
326.206,104.07,0.96659,-0.01930969,0.89505
326.806,104.263,0.96947,-0.02201656,0.89457
327.406,104.455,0.97346,-0.0208965,0.89408
328.006,104.648,0.96759,-0.02062078,0.89359
328.606,104.84,0.9773,-0.01995994,0.8931
329.206,105.032,0.98016,-0.02126994,0.89261
329.806,105.2243,0.98244,-0.02127179,0.89212
330.406,105.416,0.98604,-0.02259236,0.89163
331.006,105.609,0.97922,-0.02259,0.89114
331.606,105.802,0.98858,-0.02029003,0.89065
332.206,105.995,0.98517,-0.02080073,0.89016
332.806,106.187,0.98951,-0.02127894,0.88967
333.406,106.38,0.99356,-0.02259978,0.88917
334.006,106.574,1.00407,-0.02526323,0.88868
334.606,106.7668,0.99556,-0.02351046,0.88819
335.206,106.961,0.99852,-0.02176572,0.8877
335.806,107.154,1.00032,-0.02056241,0.8872
336.406,107.347,1.00426,-0.02181046,0.88671
337.006,107.5404,1.008,-0.02478953,0.88621
337.606,107.734,1.01942,-0.02211642,0.88572
338.206,107.927,1.01956,-0.02281004,0.88523
338.806,108.12,1.01677,-0.0221599,0.88473
339.406,108.3122,1.01128,-0.02216,0.88424
340.006,108.505,1.02576,-0.02214386,0.88374
340.606,108.698,1.03352,-0.0249,0.88325
341.206,108.8918,1.03625,-0.02620995,0.88275
341.806,109.085,1.02734,-0.02489999,0.88225
342.406,109.279,1.02862,-0.02358017,0.88176
343.006,109.472,1.03736,-0.02621168,0.88126
343.606,109.666,1.02944,-0.02422903,0.88076
344.206,109.86,1.03831,-0.02423,0.88026
344.806,110.054,1.0556,-0.0235721,0.87977
345.406,110.249,1.06846,-0.0249,0.87927
346.006,110.4433,1.06862,-0.0255611,0.87877
346.606,110.637,1.06985,-0.02629776,0.87827
347.206,110.831,1.06855,-0.02609946,0.87777
347.806,111.025,1.06359,-0.02742047,0.87727
348.406,111.219,1.06789,-0.0261,0.87678
349.006,111.413,1.07074,-0.02568726,0.87628
349.606,111.607,1.07967,-0.02577065,0.87578
350.206,111.801,1.08166,-0.02830619,0.87528
350.806,111.994,1.08752,-0.02793,0.87478
351.406,112.187,1.09385,-0.02902899,0.87427
352.006,112.381,1.09457,-0.02928007,0.87377
352.606,112.5746,1.09706,-0.0305735,0.87327
353.206,112.768,1.08789,-0.0269803,0.87277
353.806,112.962,1.1037,-0.02960992,0.87227
354.406,113.155,1.09717,-0.02961292,0.87177
355.006,113.348,1.09848,-0.03093519,0.87127
355.606,113.542,1.11162,-0.03059995,0.87076
356.206,113.7357,1.10024,-0.03249485,0.87026
356.806,113.93,1.10002,-0.03093,0.86976
357.406,114.124,1.0981,-0.03093418,0.86925
358.006,114.317,1.09316,-0.03375738,0.86875
358.606,114.511,1.10255,-0.03367275,0.86825
359.206,114.705,1.09287,-0.03461696,0.86774
359.806,114.898,1.10076,-0.03335627,0.86724
360.406,115.092,1.10814,-0.03569537,0.86674
361.006,115.286,1.10065,-0.03565,0.86623
361.606,115.481,1.10802,-0.03433539,0.86573
362.206,115.676,1.10431,-0.03575263,0.86522
362.806,115.872,1.10445,-0.03707009,0.86472
363.406,116.067,1.1086,-0.03707,0.86421
364.006,116.261,1.11043,-0.03707,0.86371
364.606,116.456,1.11944,-0.03706998,0.8632
365.206,116.649,1.09884,-0.03839,0.8627
365.806,116.8425,1.09392,-0.03860264,0.86219
366.406,117.036,1.08403,-0.04100611,0.86168
367.006,117.229,1.06935,-0.04067933,0.86118
367.606,117.423,1.08103,-0.04069005,0.86067
368.206,117.617,1.07238,-0.04203461,0.86016
368.806,117.812,1.07521,-0.04331871,0.85966
369.406,118.006,1.05276,-0.0433201,0.85915
370.006,118.201,1.02338,-0.04398458,0.85864
370.606,118.395,0.999,-0.04464,0.85814
371.206,118.59,0.97682,-0.04596001,0.85763
371.806,118.784,0.98752,-0.04463955,0.85712
372.406,118.979,1.0534,-0.04628909,0.85661
373.006,119.174,1.12119,-0.04791648,0.8561
373.606,119.368,1.13833,-0.05046239,0.8556
374.206,119.562,1.15116,-0.05176458,0.85509
374.806,119.757,1.15548,-0.05242996,0.85458
375.406,119.952,1.16501,-0.05111876,0.85407
376.006,120.146,1.16934,-0.05507908,0.85356
376.606,120.342,1.16644,-0.05637869,0.85305
377.206,120.537,1.18177,-0.05637996,0.85254
377.806,120.732,1.17717,-0.06054852,0.85203
378.406,120.927,1.14567,-0.0564623,0.85153
379.006,121.121,1.11465,-0.06195369,0.85102
379.606,121.315,1.04313,-0.06603386,0.85051
380.206,121.51,1.02142,-0.06173842,0.85
380.806,121.706,1.00786,-0.06646403,0.84949
381.406,121.902,1.01775,-0.06581137,0.84898
382.006,122.097,0.99882,-0.06896215,0.84847
382.606,122.292,0.99891,-0.06928973,0.84796
383.206,122.487,0.99173,-0.06856382,0.84745
383.806,122.682,0.99402,-0.07118982,0.84693
384.406,122.8771,0.98556,-0.07348066,0.84642
385.006,123.072,1.00008,-0.07480975,0.84591
385.606,123.268,1.00049,-0.07875,0.8454
386.206,123.463,1.0036,-0.07845832,0.84489
386.806,123.658,1.01589,-0.07897396,0.84438
387.406,123.853,1.00556,-0.08205001,0.84387
388.006,124.048,1.0236,-0.08512015,0.84336
388.606,124.243,1.02264,-0.08512125,0.84285
389.206,124.439,1.02605,-0.08639886,0.84234
389.806,124.634,1.0177,-0.09018017,0.84182
390.406,124.83,1.0329,-0.09245792,0.84131
391.006,125.026,1.0349,-0.09180271,0.8408
391.606,125.222,1.04564,-0.09623699,0.84029
392.206,125.418,1.05103,-0.09837997,0.83978
392.806,125.613,1.05859,-0.10101,0.83926
393.406,125.809,1.05886,-0.10136,0.83875
394.006,126.004,1.07188,-0.10584,0.83824
394.606,126.199,1.0776,-0.10727,0.83773
395.206,126.395,1.08651,-0.11092,0.83722
395.806,126.591,1.1128,-0.11385,0.8367
396.406,126.787,1.10729,-0.1158,0.83619
397.006,126.983,1.11741,-0.11977,0.83568
397.606,127.179,1.1396,-0.12109,0.83517
398.206,127.376,1.15214,-0.12675,0.83465
398.806,127.573,1.15385,-0.12822,0.83414
399.406,127.769,1.14776,-0.13038,0.83363
400.006,127.966,1.15541,-0.13227,0.83312
400.606,128.162,1.16036,-0.13783,0.8326
401.206,128.357,1.16272,-0.14043,0.83209
401.806,128.552,1.15866,-0.14324,0.83158
402.406,128.748,1.16369,-0.14765,0.83106
403.006,128.943,1.15788,-0.15148,0.83055
403.606,129.139,1.14574,-0.15411,0.83004
404.206,129.334,1.12577,-0.15903,0.82952
404.806,129.531,1.09662,-0.16376,0.82901
405.406,129.727,1.08403,-0.1696,0.8285
406.006,129.923,1.04776,-0.171,0.82798
406.606,130.119,1.03011,-0.17769,0.82747
407.206,130.314,0.99756,-0.18514,0.82696
407.806,130.51,0.97279,-0.1881,0.82645
408.406,130.706,0.95452,-0.19267,0.82593
409.006,130.902,0.931,-0.19715,0.82542
409.606,131.097,0.90167,-0.20438,0.82491
410.206,131.293,0.88965,-0.20782,0.82439
410.806,131.488,0.88257,-0.21665,0.82388
411.406,131.684,0.86534,-0.22213,0.82337
412.006,131.88,0.86055,-0.22794,0.82285
412.606,132.076,0.84126,-0.23586,0.82234
413.206,132.272,0.82548,-0.24129,0.82183
413.806,132.469,0.81504,-0.25024,0.82131
414.406,132.665,0.80747,-0.25633,0.8208
415.006,132.862,0.79569,-0.26512,0.82029
415.606,133.0595,0.78704,-0.27286,0.81977
416.206,133.256,0.7946,-0.281,0.81926
416.806,133.453,0.78153,-0.28904,0.81874
417.406,133.65,0.79547,-0.3004,0.81823
418.006,133.846,0.79641,-0.30738,0.81772
418.606,134.043,0.80882,-0.31796,0.81721
419.206,134.2391,0.81358,-0.32728,0.81669
419.806,134.435,0.83912,-0.33725,0.81618
420.406,134.632,0.83362,-0.34897,0.81567
421.006,134.828,0.86676,-0.35964,0.81515
421.606,135.025,0.86703,-0.37068,0.81464
422.206,135.223,0.88962,-0.3842,0.81413
422.806,135.42,0.90863,-0.39661,0.81361
423.406,135.6166,0.92143,-0.40758,0.8131
424.006,135.813,0.94824,-0.42158,0.81259
424.606,136.01,0.96947,-0.43677,0.81207
425.206,136.206,0.99104,-0.45311,0.81156
425.806,136.403,0.99887,-0.46996,0.81105
426.406,136.6,1.0252,-0.48284,0.81053
427.006,136.797,1.02596,-0.49899,0.81002
427.606,136.995,1.05224,-0.51877,0.80951
428.206,137.193,1.07542,-0.53572,0.809
428.806,137.39,1.10122,-0.55449,0.80848
429.406,137.588,1.12514,-0.57238,0.80797
430.006,137.784,1.13538,-0.59137,0.80746
430.606,137.981,1.16065,-0.61423,0.80695
431.206,138.176,1.17961,-0.63661,0.80643
431.806,138.373,1.17879,-0.65753,0.80592
432.406,138.57,1.21532,-0.67937,0.80541
433.006,138.767,1.23912,-0.70403,0.8049
433.606,138.965,1.26786,-0.72987,0.80438
434.206,139.162,1.29397,-0.75613,0.80387
434.806,139.359,1.3255,-0.7847,0.80336
435.406,139.556,1.33959,-0.81532,0.80285
436.006,139.754,1.35792,-0.84241,0.80234
436.606,139.951,1.40409,-0.87405,0.80182
437.206,140.15,1.42258,-0.90602,0.80131
437.806,140.348,1.4548,-0.93876,0.8008
438.406,140.546,1.492,-0.97244,0.80029
439.006,140.7432,1.52449,-1.00991,0.79978
439.606,140.941,1.5482,-1.04707,0.79927
440.206,141.138,1.58506,-1.08284,0.79876
440.806,141.3357,1.62315,-1.12342,0.79824
441.406,141.533,1.64135,-1.16228,0.79773
442.006,141.731,1.70416,-1.20744,0.79722
442.606,141.929,1.7294,-1.25129,0.79671
443.206,142.127,1.7709,-1.29623,0.7962
443.806,142.325,1.80865,-1.34207,0.79569
444.406,142.523,1.84998,-1.39015,0.79518
445.006,142.722,1.88241,-1.44023,0.79467
445.606,142.9207,1.92732,-1.49104,0.79416
446.206,143.12,1.96966,-1.54546,0.79365
446.806,143.319,2.01773,-1.59934,0.79314
447.406,143.518,2.03997,-1.65506,0.79263
448.006,143.717,2.05818,-1.7102,0.79212
448.606,143.915,2.10079,-1.77229,0.79161
449.206,144.113,2.14156,-1.83332,0.7911
449.806,144.31,2.17731,-1.89307,0.79059
450.406,144.509,2.20356,-1.95842,0.79008
451.006,144.708,2.23175,-2.0229,0.78957
451.606,144.906,2.28255,-2.09037,0.78906
452.206,145.105,2.31155,-2.15618,0.78855
452.806,145.302,2.35061,-2.22545,0.78804
453.406,145.501,2.36661,-2.29435,0.78754
454.006,145.699,2.3759,-2.36598,0.78703
454.606,145.898,2.38317,-2.43973,0.78652
455.206,146.096,2.37325,-2.51033,0.78601
455.806,146.294,2.37959,-2.58429,0.7855
456.406,146.492,2.37912,-2.65869,0.78499
457.006,146.691,2.35823,-2.73328,0.78449
457.606,146.889,2.34668,-2.80839,0.78398
458.206,147.087,2.32501,-2.8802,0.78347
458.806,147.285,2.3215,-2.9558,0.78296
459.406,147.483,2.29792,-3.02871,0.78246
460.006,147.681,2.25997,-3.0999,0.78195
460.606,147.879,2.21612,-3.17205,0.78144
461.206,148.077,2.15916,-3.24137,0.78094
461.806,148.275,2.09581,-3.31031,0.78043
462.406,148.473,2.05716,-3.37786,0.77992
463.006,148.672,1.99498,-3.44274,0.77942
463.606,148.87,1.92344,-3.5071,0.77891
464.206,149.069,1.83977,-3.56523,0.7784
464.806,149.267,1.75076,-3.6251,0.7779
465.406,149.465,1.65003,-3.68197,0.77739
466.006,149.663,1.54676,-3.73383,0.77689
466.606,149.862,1.45069,-3.7805,0.77638
467.206,150.06,1.36792,-3.83049,0.77588
467.806,150.26,1.28334,-3.8679,0.77537
468.406,150.46,1.19928,-3.90668,0.77487
469.006,150.66,1.08735,-3.93941,0.77436
469.606,150.8595,1.0156,-3.96946,0.77386
470.206,151.058,0.55444,-3.99796,0.77335
470.806,151.257,0.40007,-4.02212,0.77285
471.406,151.455,0.29528,-4.04231,0.77235
472.006,151.653,0.23715,-4.05962,0.77184
472.606,151.851,0.16746,-4.07437,0.77134
473.206,152.048,0.13812,-4.08953,0.77084
473.806,152.247,0.11805,-4.09568,0.77033
474.406,152.445,0.12907,-4.10722,0.76983
475.006,152.644,0.15979,-4.11401,0.76933
475.606,152.843,0.18629,-4.12079,0.76883
476.206,153.042,0.20862,-4.12222,0.76832
476.806,153.24,0.24412,-4.13641,0.76782
477.406,153.439,0.22852,-4.12928,0.76732
478.006,153.639,0.22991,-4.13276,0.76682
478.606,153.839,0.20144,-4.13648,0.76632
479.206,154.038,0.17682,-4.1378,0.76582
479.806,154.237,0.15574,-4.13515,0.76532
480.406,154.4371,0.16031,-4.13779,0.76482
481.006,154.636,0.1576,-4.13629,0.76431
481.606,154.836,0.16957,-4.14197,0.76381
482.206,155.036,0.13076,-4.13799,0.76331
482.806,155.235,0.04588689,-4.13999,0.76282
483.406,155.433,0.04731748,-4.13799,0.76232
484.006,155.632,0.05728606,-4.13813,0.76182
484.606,155.83,0.07314403,-4.13813,0.76132
485.206,156.0287,0.07318855,-4.13944,0.76082
485.806,156.227,0.07948858,-4.13727,0.76032
486.406,156.426,0.07792534,-4.14093,0.75982
487.006,156.625,0.07932886,-4.13759,0.75932
487.606,156.824,0.08445447,-4.13659,0.75883
488.206,157.0225,0.07170413,-4.1402,0.75833
488.806,157.221,0.08008654,-4.13889,0.75783
489.406,157.4206,0.08419194,-4.13824,0.75733
490.006,157.62,0.0928092,-4.13692,0.75684
490.606,157.82,0.09482299,-4.13637,0.75634
491.206,158.02,0.08811468,-4.13931,0.75584
491.806,158.219,0.08287221,-4.13594,0.75535
492.406,158.418,0.08593031,-4.13878,0.75485
493.006,158.617,0.09199292,-4.13977,0.75436
493.606,158.815,0.08713441,-4.13996,0.75386
494.206,159.014,0.09862551,-4.13628,0.75337
494.806,159.213,0.09709478,-4.139,0.75287
495.406,159.412,0.10615,-4.13889,0.75238
496.006,159.611,0.10459,-4.13623,0.75188
496.606,159.812,0.11164,-4.13634,0.75139
497.206,160.012,0.10844,-4.13627,0.75089
497.806,160.212,0.0986703,-4.13542,0.7504
498.406,160.411,0.11798,-4.1391,0.74991
499.006,160.611,0.11891,-4.13779,0.74941
499.606,160.812,0.13897,-4.13912,0.74892
500.206,161.012,0.12151,-4.13823,0.74843
500.806,161.212,0.1289,-4.13758,0.74794
501.406,161.412,0.1379,-4.13625,0.74744
502.006,161.613,0.13664,-4.13768,0.74695
502.606,161.813,0.13909,-4.13765,0.74646
503.206,162.013,0.14306,-4.13779,0.74597
503.806,162.212,0.13174,-4.13877,0.74548
504.406,162.41,0.12526,-4.13964,0.74499
505.006,162.609,0.13056,-4.13658,0.7445
505.606,162.808,0.11817,-4.13702,0.74401
506.206,163.008,0.12189,-4.13593,0.74352
506.806,163.207,0.12574,-4.13619,0.74303
507.406,163.406,0.12378,-4.13757,0.74254
508.006,163.6067,0.13027,-4.13625,0.74205
508.606,163.808,0.13123,-4.13594,0.74156
509.206,164.008,0.13436,-4.1367,0.74107
509.806,164.209,0.13608,-4.13597,0.74059
510.406,164.41,0.14334,-4.1379,0.7401
511.006,164.6104,0.15035,-4.13856,0.73961
511.606,164.811,0.14407,-4.13987,0.73913
512.206,165.0098,0.13015,-4.13679,0.73864
512.806,165.208,0.13028,-4.13952,0.73815
513.406,165.407,0.1306,-4.13944,0.73767
514.006,165.606,0.12275,-4.13977,0.73718
514.606,165.807,0.12836,-4.13573,0.73669
515.206,166.007,0.14566,-4.13932,0.73621
515.806,166.208,0.1491,-4.1409,0.73572
516.406,166.4098,0.13724,-4.13966,0.73524
517.006,166.611,0.14706,-4.13751,0.73476
517.606,166.813,0.15181,-4.13757,0.73427
518.206,167.014,0.15137,-4.13758,0.73379
518.806,167.215,0.15017,-4.13757,0.7333
519.406,167.416,0.15085,-4.14021,0.73282
520.006,167.617,0.15501,-4.14021,0.73234
520.606,167.818,0.15897,-4.13889,0.73186
521.206,168.018,0.14955,-4.13889,0.73138
521.806,168.219,0.13368,-4.13896,0.73089
522.406,168.42,0.14401,-4.13756,0.73041
523.006,168.62,0.1505,-4.13659,0.72993
523.606,168.82,0.14229,-4.13736,0.72945
524.206,169.021,0.13962,-4.13868,0.72897
524.806,169.22,0.13301,-4.13868,0.72849
525.406,169.42,0.14578,-4.13868,0.72801
526.006,169.62,0.13968,-4.13505,0.72753
526.606,169.82,0.15834,-4.13769,0.72705
527.206,170.021,0.1353,-4.13638,0.72657
527.806,170.222,0.15098,-4.13638,0.72609
528.406,170.4229,0.1573,-4.13472,0.72562
529.006,170.624,0.15811,-4.13506,0.72514
529.606,170.825,0.16425,-4.13604,0.72466
530.206,171.026,0.16689,-4.13473,0.72418
530.806,171.227,0.14403,-4.13491,0.72371
531.406,171.4273,0.13315,-4.13341,0.72323
532.006,171.628,0.14012,-4.13604,0.72276
532.606,171.828,0.11522,-4.13329,0.72228
533.206,172.029,0.13962,-4.13231,0.72181
533.806,172.231,0.141,-4.13626,0.72133
534.406,172.432,0.14311,-4.13362,0.72086
535.006,172.633,0.15004,-4.135,0.72038
535.606,172.834,0.14872,-4.13399,0.71991
536.206,173.035,0.16092,-4.13461,0.71943
536.806,173.236,0.15287,-4.13494,0.71896
537.406,173.437,0.14745,-4.13724,0.71849
538.006,173.638,0.15652,-4.13718,0.71802
538.606,173.839,0.15806,-4.13593,0.71754
539.206,174.04,0.16919,-4.13626,0.71707
539.806,174.241,0.15406,-4.13858,0.7166
540.406,174.442,0.14889,-4.13549,0.71613
541.006,174.642,0.13178,-4.13417,0.71566
541.606,174.843,0.14089,-4.1368,0.71519
542.206,175.043,0.14047,-4.1368,0.71472
542.806,175.244,0.14701,-4.13637,0.71425
543.406,175.445,0.13726,-4.13637,0.71378
544.006,175.646,0.15722,-4.13637,0.71331
544.606,175.848,0.13612,-4.13716,0.71284
545.206,176.049,0.15094,-4.13576,0.71238
545.806,176.251,0.14233,-4.13735,0.71191
546.406,176.4528,0.1327,-4.13609,0.71144
547.006,176.655,0.1444,-4.13735,0.71097
547.606,176.857,0.14724,-4.13834,0.71051
548.206,177.0589,0.14633,-4.13702,0.71004
548.806,177.26,0.13532,-4.13604,0.70958
549.406,177.462,0.11296,-4.13604,0.70911
550.006,177.6634,0.1237,-4.13492,0.70865
550.606,177.865,0.12094,-4.13638,0.70818
551.206,178.066,0.12079,-4.13637,0.70772
551.806,178.267,0.12538,-4.13506,0.70725
552.406,178.469,0.11451,-4.13507,0.70679
553.006,178.67,0.13288,-4.13769,0.70633
553.606,178.872,0.1341,-4.13522,0.70586
554.206,179.074,0.12873,-4.13735,0.7054
554.806,179.277,0.12682,-4.13445,0.70494
555.406,179.479,0.11876,-4.13341,0.70448
556.006,179.681,0.13129,-4.13604,0.70402
556.606,179.882,0.12525,-4.13604,0.70356
557.206,180.084,0.12884,-4.13604,0.7031
557.806,180.286,0.1128,-4.13386,0.70264
558.406,180.4879,0.11118,-4.13407,0.70218
559.006,180.69,0.10559,-4.13339,0.70172
559.606,180.892,0.10662,-4.13474,0.70126
560.206,181.093,0.10486,-4.13407,0.7008
560.806,181.2942,0.1097,-4.13407,0.70034
561.406,181.496,0.09442327,-4.13533,0.69989
562.006,181.698,0.10678,-4.13342,0.69943
562.606,181.8999,0.10599,-4.13472,0.69897
563.206,182.102,0.12793,-4.13511,0.69852
563.806,182.304,0.11617,-4.13472,0.69806
564.406,182.506,0.10201,-4.13605,0.6976
565.006,182.709,0.10553,-4.13439,0.69715
565.606,182.9106,0.10003,-4.13374,0.69669
566.206,183.112,0.10502,-4.13505,0.69624
566.806,183.312,0.10331,-4.13506,0.69579
567.406,183.513,0.10482,-4.13571,0.69533
568.006,183.715,0.10902,-4.13572,0.69488
568.606,183.916,0.10038,-4.1357,0.69443
569.206,184.118,0.09775896,-4.13686,0.69398
569.806,184.319,0.08221867,-4.13604,0.69352
570.406,184.522,0.08150695,-4.13472,0.69307
571.006,184.725,0.07779095,-4.1357,0.69262
571.606,184.927,0.07904215,-4.13405,0.69217
572.206,185.13,0.0783615,-4.13933,0.69172
572.806,185.333,0.0697481,-4.13593,0.69127
573.406,185.536,0.08710178,-4.13527,0.69082
574.006,185.739,0.08577292,-4.13612,0.69037
574.606,185.941,0.07957743,-4.13649,0.68992
575.206,186.143,0.0909713,-4.13385,0.68948
575.806,186.345,0.10364,-4.13501,0.68903
576.406,186.547,0.10077,-4.13395,0.68858
577.006,186.75,0.12088,-4.13384,0.68814
577.606,186.953,0.13217,-4.1328,0.68769
578.206,187.155,0.12666,-4.13418,0.68724
578.806,187.358,0.09147369,-4.13285,0.6868
579.406,187.56,0.10115,-4.13429,0.68635
580.006,187.762,0.07405296,-4.13547,0.68591
580.606,187.964,0.08671317,-4.13337,0.68546
581.206,188.1666,0.08687658,-4.1329,0.68502
581.806,188.369,0.08062029,-4.13431,0.68458
582.406,188.5714,0.07301652,-4.13231,0.68414
583.006,188.7743,0.08764677,-4.13231,0.68369
583.606,188.977,0.08273397,-4.13297,0.68325
584.206,189.178,0.08044669,-4.1343,0.68281
584.806,189.38,0.06752078,-4.13385,0.68237
585.406,189.5826,0.06100128,-4.13252,0.68193
586.006,189.786,0.09129352,-4.13566,0.68149
586.606,189.989,0.07872661,-4.13218,0.68105
587.206,190.193,0.09869279,-4.13153,0.68061
587.806,190.396,0.08767227,-4.13154,0.68017
588.406,190.6,0.08542885,-4.13154,0.67973
589.006,190.803,0.07972952,-4.13154,0.67929
589.606,191.007,0.10357,-4.13286,0.67886
590.206,191.2102,0.08465888,-4.13351,0.67842
590.806,191.413,0.07753741,-4.13632,0.67798
591.406,191.6157,0.08553164,-4.13446,0.67755
592.006,191.8182,0.0848744,-4.13315,0.67711
592.606,192.02,0.07228188,-4.1333,0.67668
593.206,192.222,0.09157864,-4.13387,0.67624
593.806,192.424,0.07608256,-4.13461,0.67581
594.406,192.627,0.08285393,-4.13461,0.67537
595.006,192.829,0.08107794,-4.1333,0.67494
595.606,193.032,0.06605828,-4.1322,0.67451
596.206,193.2348,0.05596755,-4.13483,0.67407
596.806,193.4378,0.07145363,-4.13483,0.67364
597.406,193.64,0.06914041,-4.13352,0.67321
598.006,193.843,0.07274166,-4.13352,0.67278
598.606,194.046,0.06711866,-4.13319,0.67235
599.206,194.248,0.05748318,-4.1322,0.67192
599.806,194.451,0.06202979,-4.13646,0.67149
600.406,194.655,0.06830737,-4.13511,0.67106
601.006,194.859,0.07700871,-4.13288,0.67063
601.606,195.062,0.07922815,-4.1345,0.6702
602.206,195.266,0.0626664,-4.13423,0.66977
602.806,195.469,0.0726712,-4.13144,0.66935
603.406,195.673,0.06607584,-4.13341,0.66892
604.006,195.877,0.06684594,-4.1321,0.66849
604.606,196.08,0.06397672,-4.13341,0.66807
605.206,196.283,0.06741999,-4.13498,0.66764
605.806,196.487,0.06097831,-4.13111,0.66722
606.406,196.69,0.05724293,-4.13274,0.66679
607.006,196.893,0.07947535,-4.13215,0.66637
607.606,197.096,0.05350503,-4.13275,0.66594
608.206,197.298,0.04835447,-4.13176,0.66552
608.806,197.501,0.05760469,-4.13154,0.6651
609.406,197.704,0.06776122,-4.13057,0.66467
610.006,197.907,0.06183917,-4.13223,0.66425
610.606,198.111,0.04811571,-4.13188,0.66383
611.206,198.314,0.05343182,-4.13055,0.66341
611.806,198.516,0.05513198,-4.12912,0.66299
612.406,198.719,0.04852684,-4.13176,0.66257
613.006,198.922,0.06107518,-4.13398,0.66215
613.606,199.125,0.0505292,-4.13225,0.66173
614.206,199.328,0.07086843,-4.1316,0.66131
614.806,199.5315,0.05950473,-4.13441,0.66089
615.406,199.735,0.05203647,-4.1328,0.66048
616.006,199.94,0.04865318,-4.13209,0.66006
616.606,200.144,0.05457329,-4.13209,0.65964
617.206,200.348,0.07547199,-4.13276,0.65923
617.806,200.553,0.07593912,-4.13338,0.65881
618.406,200.759,0.07561585,-4.13209,0.65839
619.006,200.963,0.07209679,-4.13209,0.65798
619.606,201.167,0.05486856,-4.13305,0.65757
620.206,201.369,0.06793871,-4.13406,0.65715
620.806,201.571,0.04742238,-4.13207,0.65674
621.406,201.774,0.05569301,-4.13275,0.65633
622.006,201.976,0.05726984,-4.13177,0.65591
622.606,202.18,0.07011316,-4.13177,0.6555
623.206,202.382,0.04622084,-4.13177,0.65509
623.806,202.586,0.05364677,-4.13111,0.65468
624.406,202.789,0.05373313,-4.13111,0.65427
625.006,202.994,0.07323099,-4.1321,0.65386
625.606,203.199,0.07138635,-4.13242,0.65345
626.206,203.404,0.08805458,-4.13065,0.65304
626.806,203.609,0.10375,-4.13184,0.65263
627.406,203.813,0.07251047,-4.13116,0.65222
628.006,204.017,0.07673202,-4.12979,0.65181
628.606,204.22,0.08239981,-4.13111,0.65141
629.206,204.422,0.07537609,-4.13429,0.651
629.806,204.6249,0.06408002,-4.13132,0.65059
630.406,204.8287,0.05113717,-4.13264,0.65019
631.006,205.033,0.05369827,-4.13191,0.64978
631.606,205.238,0.0560778,-4.13198,0.64938
632.206,205.441,0.06389358,-4.13264,0.64897
632.806,205.645,0.05758497,-4.13187,0.64857
633.406,205.848,0.04443473,-4.1309,0.64817
634.006,206.052,0.04587842,-4.1322,0.64776
634.606,206.257,0.05891653,-4.13384,0.64736
635.206,206.46,0.05085895,-4.13187,0.64696
635.806,206.664,0.0381555,-4.13216,0.64656
636.406,206.868,0.06132223,-4.1322,0.64616
637.006,207.071,0.03936882,-4.13352,0.64576
637.606,207.276,0.04626888,-4.13351,0.64536
638.206,207.4795,0.04990598,-4.13352,0.64496
638.806,207.683,0.0510837,-4.13352,0.64456
639.406,207.887,0.03538071,-4.13494,0.64416
640.006,208.091,0.04478796,-4.13257,0.64376
640.606,208.297,0.03524042,-4.13297,0.64337
641.206,208.502,0.03785899,-4.13033,0.64297
641.806,208.707,0.03023989,-4.1294,0.64257
642.406,208.911,0.03828163,-4.13553,0.64218
643.006,209.115,0.04098422,-4.13549,0.64178
643.606,209.32,0.02982013,-4.13277,0.64139
644.206,209.525,0.02401218,-4.13242,0.64099
644.806,209.729,0.02643053,-4.13182,0.6406
645.406,209.934,0.02000617,-4.13188,0.6402
645.506,209.968,0.02249898,-4.13199,0.64014