File: 01_Data/LW_GypBoard_Gypsum_Core/STA/N2/10K_min/Lw_Gypsum_Core_STA_N2_10KData_222502_R2.csv
##Temp./Â°C,Time/min,Mass loss(subtr.2)/mg,DSC(subtr.2)/(mW/mg),Sensit./(uV/mW)
49.738,10.00917,-0.00065,0.00702599,1.07514
50.538,10.79682,-0.001680925,0.04474715,1.07472
51.338,11.01118,-0.000231355,0.06957822,1.0743
52.138,11.17328,0.0002292,0.08989496,1.07388
52.938,11.3116,0.00346086,0.10754,1.07347
53.738,11.43593,0.002256343,0.1222,1.07305
54.538,11.55068,0.00185028,0.1311,1.07263
55.338,11.65938,0.002206735,0.14055,1.07222
56.138,11.7639,0.001778012,0.14993,1.0718
56.938,11.865,0.002008959,0.1579,1.07139
57.738,11.96293,0.003574885,0.16444,1.07097
58.538,12.05795,0.003576267,0.17204,1.07055
59.338,12.1516,0.002081242,0.17876,1.07014
60.138,12.2438,0.001568821,0.18157,1.06972
60.938,12.3353,0.00189331,0.18997,1.06931
61.738,12.42517,0.0008115459,0.1927,1.06889
62.538,12.51472,0.00195132,0.19825,1.06848
63.338,12.60418,0.001896776,0.20456,1.06806
64.138,12.6928,0.003196064,0.20787,1.06764
64.938,12.7804,0.001958855,0.21167,1.06723
65.738,12.86721,0.001969818,0.21742,1.06681
66.538,12.95395,0.00198402,0.21804,1.0664
67.338,13.0405,0.0009377548,0.22377,1.06598
68.138,13.12716,0.002020337,0.2301,1.06557
68.938,13.2134,0.002652598,0.23343,1.06516
69.738,13.29914,0.00198,0.23625,1.06474
70.538,13.38446,0.002206824,0.24386,1.06433
71.338,13.46924,0.001980265,0.24869,1.06391
72.138,13.5541,0.001969566,0.25285,1.0635
72.938,13.6393,0.001970191,0.25847,1.06308
73.738,13.7242,0.001107872,0.2632,1.06267
74.538,13.808,0.0006598673,0.27022,1.06226
75.338,13.8918,-0.000710023,0.27432,1.06184
76.138,13.97591,-0.0006330987,0.28114,1.06143
76.938,14.0597,-0.0006500001,0.28793,1.06101
77.738,14.1427,-0.0006496452,0.29228,1.0606
78.538,14.22577,-0.0009443792,0.29944,1.06019
79.338,14.3086,-0.001969953,0.30784,1.05977
80.138,14.3915,-0.002629545,0.3099,1.05936
80.938,14.4749,-0.00372962,0.31896,1.05895
81.738,14.5572,-0.005264392,0.32493,1.05853
82.538,14.6394,-0.00658525,0.33094,1.05812
83.338,14.7216,-0.00915651,0.33927,1.05771
84.138,14.8035,-0.009550009,0.34461,1.0573
84.938,14.8855,-0.01121824,0.35161,1.05688
85.738,14.96691,-0.01347627,0.3637,1.05647
86.538,15.0482,-0.01481009,0.37471,1.05606
87.338,15.12969,-0.01611297,0.38579,1.05565
88.138,15.2111,-0.01743038,0.39924,1.05523
88.938,15.29217,-0.01858186,0.41314,1.05482
89.738,15.37301,-0.02006461,0.42786,1.05441
90.538,15.4539,-0.02269639,0.44539,1.054
91.338,15.53434,-0.02395846,0.46159,1.05359
92.138,15.6149,-0.02529288,0.48277,1.05317
92.938,15.69539,-0.025341,0.5051,1.05276
93.738,15.77558,-0.02656895,0.52875,1.05235
94.538,15.8556,-0.02922896,0.55506,1.05194
95.338,15.93566,-0.03059316,0.58078,1.05153
96.138,16.01558,-0.03192024,0.61047,1.05112
96.938,16.09554,-0.03491511,0.64057,1.05071
97.738,16.17536,-0.03721103,0.67283,1.05029
98.538,16.25552,-0.04120501,0.70696,1.04988
99.338,16.3352,-0.04396288,0.74302,1.04947
100.138,16.41479,-0.04675083,0.78045,1.04906
100.938,16.4942,-0.05082329,0.8156,1.04865
101.738,16.57377,-0.05472354,0.85107,1.04824
102.538,16.65338,-0.05792417,0.88887,1.04783
103.338,16.7328,-0.06168484,0.92364,1.04742
104.138,16.8121,-0.06773885,0.96077,1.04701
104.938,16.89106,-0.07196168,0.99866,1.0466
105.738,16.97063,-0.07754541,1.03497,1.04619
106.538,17.05066,-0.08308524,1.0736,1.04578
107.338,17.13024,-0.08825397,1.11589,1.04537
108.138,17.20946,-0.09512853,1.15629,1.04496
108.938,17.28874,-0.10135,1.20262,1.04455
109.738,17.36765,-0.10671,1.25782,1.04414
110.538,17.44673,-0.11561,1.32561,1.04373
111.338,17.52648,-0.12359,1.42,1.04332
112.138,17.60641,-0.13047,1.55751,1.04291
112.938,17.68654,-0.14023,1.72709,1.0425
113.738,17.76662,-0.1514,1.90091,1.0421
114.538,17.84713,-0.1644,2.07549,1.04169
115.338,17.92751,-0.17659,2.24628,1.04128
116.138,18.0081,-0.19042,2.42033,1.04087
116.938,18.08895,-0.20572,2.58925,1.04046
117.738,18.17014,-0.22093,2.76713,1.04005
118.538,18.25143,-0.23977,2.93892,1.03964
119.338,18.33251,-0.2579,3.11018,1.03923
120.138,18.4136,-0.27872,3.27065,1.03883
120.938,18.49472,-0.30047,3.4154,1.03842
121.738,18.5761,-0.32091,3.53362,1.03801
122.538,18.65728,-0.34231,3.61094,1.0376
123.338,18.73818,-0.3629,3.64121,1.03719
124.138,18.8185,-0.38275,3.62439,1.03679
124.938,18.89838,-0.40341,3.55535,1.03638
125.738,18.97805,-0.42368,3.44847,1.03597
126.538,19.05736,-0.44093,3.30488,1.03556
127.338,19.1361,-0.45551,3.15364,1.03516
128.138,19.2141,-0.47044,3.03648,1.03475
128.938,19.29185,-0.48575,2.98818,1.03434
129.738,19.36942,-0.49936,2.9937,1.03393
130.538,19.44732,-0.5159,3.03781,1.03353
131.338,19.5255,-0.53178,3.10619,1.03312
132.138,19.60393,-0.55017,3.18125,1.03271
132.938,19.68234,-0.56508,3.26399,1.0323
133.738,19.76051,-0.58062,3.34219,1.0319
134.538,19.83866,-0.59656,3.40801,1.03149
135.338,19.9176,-0.61433,3.44028,1.03108
136.138,19.99669,-0.6314,3.39009,1.03068
136.938,20.07481,-0.64734,3.15955,1.03027
137.738,20.15182,-0.65958,2.61913,1.02987
138.538,20.22799,-0.66697,2.05369,1.02946
139.338,20.30314,-0.67176,1.60594,1.02905
140.138,20.37748,-0.67433,1.27466,1.02865
140.938,20.45119,-0.67701,1.02819,1.02824
141.738,20.5247,-0.6796,0.85055,1.02783
142.538,20.59845,-0.68082,0.71759,1.02743
143.338,20.67227,-0.68146,0.62031,1.02702
144.138,20.7461,-0.68213,0.55,1.02662
144.938,20.8201,-0.68383,0.49597,1.02621
145.738,20.89422,-0.68594,0.45299,1.0258
146.538,20.96869,-0.68642,0.41895,1.0254
147.338,21.04358,-0.68774,0.39265,1.02499
148.138,21.1186,-0.68867,0.37142,1.02459
148.938,21.19351,-0.69036,0.35062,1.02418
149.738,21.26839,-0.69036,0.33839,1.02378
150.538,21.34326,-0.69036,0.32531,1.02337
151.338,21.41861,-0.693,0.31445,1.02297
152.138,21.49384,-0.693,0.30552,1.02256
152.938,21.5693,-0.693,0.29706,1.02216
153.738,21.64476,-0.69435,0.28978,1.02175
154.538,21.72043,-0.6944,0.28295,1.02135
155.338,21.79597,-0.697,0.27611,1.02094
156.138,21.87131,-0.69826,0.27273,1.02054
156.938,21.9469,-0.69826,0.26874,1.02013
157.738,22.02275,-0.69796,0.26495,1.01973
158.538,22.09856,-0.69662,0.25985,1.01932
159.338,22.1741,-0.69793,0.25807,1.01892
160.138,22.2494,-0.69892,0.25571,1.01851
160.938,22.3254,-0.69958,0.25266,1.01811
161.738,22.4017,-0.69956,0.24969,1.0177
162.538,22.47804,-0.69991,0.24511,1.0173
163.338,22.55402,-0.70122,0.2447,1.0169
164.138,22.63021,-0.70191,0.24148,1.01649
164.938,22.7062,-0.70056,0.2405,1.01609
165.738,22.78252,-0.70198,0.23922,1.01568
166.538,22.85879,-0.70188,0.23513,1.01528
167.338,22.93515,-0.70187,0.23544,1.01487
168.138,23.01114,-0.69975,0.23299,1.01447
168.938,23.08727,-0.70089,0.2341,1.01407
169.738,23.1637,-0.7022,0.23246,1.01366
170.538,23.24018,-0.70221,0.23036,1.01326
171.338,23.31619,-0.70221,0.23144,1.01285
172.138,23.39252,-0.70221,0.22903,1.01245
172.938,23.46933,-0.70221,0.2288,1.01205
173.738,23.54595,-0.70349,0.22604,1.01164
174.538,23.62221,-0.70325,0.22472,1.01124
175.338,23.6986,-0.70221,0.22401,1.01084
176.138,23.77509,-0.70286,0.22367,1.01043
176.938,23.85163,-0.70375,0.22314,1.01003
177.738,23.92813,-0.70451,0.22306,1.00962
178.538,24.00451,-0.70437,0.2225,1.00922
179.338,24.08073,-0.70521,0.22331,1.00882
180.138,24.15713,-0.70463,0.21933,1.00841
180.938,24.23334,-0.70452,0.2197,1.00801
181.738,24.3097,-0.70582,0.21812,1.00761
182.538,24.38617,-0.70583,0.21796,1.0072
183.338,24.46255,-0.70715,0.21687,1.0068
184.138,24.5386,-0.70585,0.21684,1.0064
184.938,24.61465,-0.70452,0.21565,1.00599
185.738,24.6909,-0.70584,0.21714,1.00559
186.538,24.7673,-0.70649,0.21457,1.00519
187.338,24.84385,-0.70649,0.21408,1.00478
188.138,24.92023,-0.70715,0.21449,1.00438
188.938,24.99638,-0.70715,0.21391,1.00398
189.738,25.0729,-0.70715,0.21501,1.00357
190.538,25.14951,-0.706,0.214,1.00317
191.338,25.22595,-0.70555,0.21208,1.00277
192.138,25.30228,-0.70692,0.21503,1.00237
192.938,25.37866,-0.70692,0.2119,1.00196
193.738,25.45541,-0.70692,0.21081,1.00156
194.538,25.53171,-0.70829,0.21188,1.00116
195.338,25.60799,-0.70956,0.21016,1.00075
196.138,25.68429,-0.7089,0.21111,1.00035
196.938,25.76078,-0.70882,0.21109,0.99995
197.738,25.83727,-0.70849,0.20973,0.99954
198.538,25.91349,-0.70956,0.2102,0.99914
199.338,25.98997,-0.71054,0.2083,0.99874
200.138,26.06643,-0.71055,0.20758,0.99833
200.938,26.14312,-0.71055,0.20853,0.99793
201.738,26.2196,-0.71055,0.20635,0.99753
202.538,26.29618,-0.71073,0.20648,0.99713
203.338,26.3727,-0.71153,0.20672,0.99672
204.138,26.4493,-0.71153,0.20699,0.99632
204.938,26.52587,-0.71186,0.20467,0.99592
205.738,26.60244,-0.7129,0.20658,0.99551
206.538,26.67888,-0.71153,0.20567,0.99511
207.338,26.7555,-0.71024,0.20475,0.99471
208.138,26.8315,-0.71154,0.2041,0.9943
208.938,26.9079,-0.71153,0.20424,0.9939
209.738,26.9845,-0.71103,0.20426,0.9935
210.538,27.06134,-0.71021,0.20304,0.9931
211.338,27.13785,-0.71021,0.20205,0.99269
212.138,27.21391,-0.71023,0.2013,0.99229
212.938,27.2904,-0.71153,0.2025,0.99189
213.738,27.36683,-0.71153,0.20358,0.99148
214.538,27.44332,-0.71153,0.20388,0.99108
215.338,27.51975,-0.71153,0.2048,0.99068
216.138,27.5961,-0.71153,0.20334,0.99027
216.938,27.67237,-0.71285,0.20772,0.98987
217.738,27.7485,-0.71186,0.20434,0.98947
218.538,27.8246,-0.7112,0.20476,0.98906
219.338,27.90065,-0.7112,0.20738,0.98866
220.138,27.9768,-0.7112,0.20436,0.98826
220.938,28.0531,-0.71249,0.20617,0.98785
221.738,28.12953,-0.71252,0.20887,0.98745
222.538,28.2061,-0.7112,0.20654,0.98705
223.338,28.28265,-0.71142,0.20524,0.98664
224.138,28.3593,-0.7112,0.20356,0.98624
224.938,28.4354,-0.7112,0.20489,0.98584
225.738,28.51162,-0.7112,0.20166,0.98543
226.538,28.5881,-0.7112,0.20402,0.98503
227.338,28.6646,-0.71228,0.20019,0.98463
228.138,28.7413,-0.71251,0.19997,0.98422
228.938,28.8178,-0.71284,0.20017,0.98382
229.738,28.8945,-0.71284,0.20003,0.98341
230.538,28.9711,-0.71284,0.20136,0.98301
231.338,29.04774,-0.71408,0.20022,0.98261
232.138,29.1241,-0.71515,0.19837,0.9822
232.938,29.20045,-0.71509,0.19787,0.9818
233.738,29.2765,-0.71416,0.1975,0.98139
234.538,29.35302,-0.71418,0.19601,0.98099
235.338,29.42925,-0.71548,0.19816,0.98059
236.138,29.50592,-0.71548,0.19608,0.98018
236.938,29.5823,-0.7168,0.19833,0.97978
237.738,29.6587,-0.7168,0.19575,0.97937
238.538,29.7348,-0.71548,0.19613,0.97897
239.338,29.81124,-0.71548,0.19558,0.97856
240.138,29.88761,-0.71548,0.1953,0.97816
240.938,29.96375,-0.7168,0.19784,0.97776
241.738,30.0396,-0.7168,0.19519,0.97735
242.538,30.1156,-0.71809,0.19251,0.97695
243.338,30.1918,-0.7176,0.19262,0.97654
244.138,30.2682,-0.71713,0.19154,0.97614
244.938,30.3445,-0.71713,0.1919,0.97573
245.738,30.4208,-0.71722,0.19016,0.97533
246.538,30.49734,-0.71812,0.18903,0.97492
247.338,30.5735,-0.71812,0.19214,0.97452
248.138,30.64984,-0.71812,0.18981,0.97411
248.938,30.72615,-0.71839,0.18921,0.97371
249.738,30.80242,-0.71755,0.18713,0.9733
250.538,30.87892,-0.71778,0.18556,0.97289
251.338,30.9555,-0.71847,0.18774,0.97249
252.138,31.03205,-0.71976,0.18614,0.97208
252.938,31.1085,-0.71976,0.18494,0.97168
253.738,31.1847,-0.72048,0.18358,0.97127
254.538,31.26087,-0.72042,0.18186,0.97087
255.338,31.3372,-0.72042,0.18315,0.97046
256.138,31.41358,-0.72107,0.18242,0.97005
256.938,31.4901,-0.72107,0.17968,0.96965
257.738,31.5666,-0.72107,0.18044,0.96924
258.538,31.64319,-0.72099,0.1788,0.96884
259.338,31.71977,-0.72239,0.17763,0.96843
260.138,31.79625,-0.72206,0.1773,0.96802
260.938,31.8728,-0.72206,0.17481,0.96762
261.738,31.9494,-0.72108,0.17295,0.96721
262.538,32.0263,-0.72037,0.17149,0.9668
263.338,32.1029,-0.71976,0.17426,0.96639
264.138,32.17944,-0.71976,0.17182,0.96599
264.938,32.2557,-0.71976,0.17148,0.96558
265.738,32.3322,-0.71976,0.16982,0.96517
266.538,32.40885,-0.71844,0.1705,0.96477
267.338,32.48556,-0.71844,0.1708,0.96436
268.138,32.56218,-0.71844,0.17043,0.96395
268.938,32.6389,-0.71844,0.17108,0.96354
269.738,32.71524,-0.71713,0.17059,0.96313
270.538,32.79155,-0.71583,0.16927,0.96273
271.338,32.86806,-0.71581,0.16875,0.96232
272.138,32.94486,-0.71669,0.16846,0.96191
272.938,33.02152,-0.71811,0.16754,0.9615
273.738,33.0978,-0.71676,0.16777,0.96109
274.538,33.17389,-0.71652,0.1672,0.96068
275.338,33.2499,-0.71811,0.16742,0.96028
276.138,33.32625,-0.71811,0.16548,0.95987
276.938,33.4024,-0.71811,0.16663,0.95946
277.738,33.47885,-0.71811,0.16408,0.95905
278.538,33.55556,-0.71801,0.16698,0.95864
279.338,33.63224,-0.71942,0.16633,0.95823
280.138,33.70899,-0.71811,0.16409,0.95782
280.938,33.7855,-0.71942,0.16485,0.95741
281.738,33.8622,-0.71943,0.16359,0.957
282.538,33.93892,-0.72074,0.16443,0.95659
283.338,34.01565,-0.72074,0.16499,0.95618
284.138,34.09234,-0.72074,0.1647,0.95577
284.938,34.1688,-0.72074,0.16229,0.95536
285.738,34.24559,-0.72246,0.16277,0.95495
286.538,34.32281,-0.72239,0.16305,0.95454
287.338,34.3997,-0.72239,0.16212,0.95413
288.138,34.47675,-0.72239,0.1617,0.95371
288.938,34.55279,-0.72239,0.16227,0.9533
289.738,34.62975,-0.7237,0.16282,0.95289
290.538,34.7063,-0.7237,0.15992,0.95248
291.338,34.78346,-0.72149,0.16275,0.95207
292.138,34.86016,-0.72144,0.16485,0.95166
292.938,34.9369,-0.72272,0.15896,0.95124
293.738,35.0135,-0.72272,0.15844,0.95083
294.538,35.09018,-0.7237,0.16082,0.95042
295.338,35.16693,-0.7237,0.16076,0.95001
296.138,35.2436,-0.72283,0.15558,0.94959
296.938,35.3202,-0.72239,0.15433,0.94918
297.738,35.3971,-0.72108,0.15368,0.94877
298.538,35.4743,-0.72108,0.15418,0.94835
299.338,35.5509,-0.72246,0.15442,0.94794
300.138,35.62746,-0.72239,0.15178,0.94753
300.938,35.7044,-0.72107,0.15148,0.94711
301.738,35.78174,-0.72107,0.15285,0.9467
302.538,35.85862,-0.72108,0.14934,0.94629
303.338,35.93531,-0.72074,0.14974,0.94587
304.138,36.01225,-0.72074,0.15076,0.94546
304.938,36.08936,-0.72206,0.14791,0.94504
305.738,36.1663,-0.72273,0.1456,0.94463
306.538,36.24322,-0.72142,0.14629,0.94421
307.338,36.32,-0.72273,0.1474,0.9438
308.138,36.3971,-0.72334,0.1427,0.94338
308.938,36.47435,-0.72472,0.14536,0.94296
309.738,36.55193,-0.72436,0.1446,0.94255
310.538,36.62908,-0.72436,0.14312,0.94213
311.338,36.70609,-0.72436,0.14234,0.94172
312.138,36.78298,-0.72569,0.14225,0.9413
312.938,36.85999,-0.72667,0.14041,0.94088
313.738,36.93687,-0.72568,0.14221,0.94046
314.538,37.0139,-0.72568,0.14164,0.94005
315.338,37.091,-0.72563,0.14201,0.93963
316.138,37.16809,-0.72535,0.14131,0.93921
316.938,37.24507,-0.72674,0.14085,0.93879
317.738,37.32224,-0.72536,0.14078,0.93838
318.538,37.39931,-0.72568,0.14008,0.93796
319.338,37.47613,-0.72474,0.14146,0.93754
320.138,37.5526,-0.72436,0.13941,0.93712
320.938,37.62962,-0.72336,0.14019,0.9367
321.738,37.70689,-0.724,0.1398,0.93628
322.538,37.7841,-0.72437,0.14034,0.93586
323.338,37.8611,-0.72306,0.1407,0.93544
324.138,37.93825,-0.72306,0.14429,0.93502
324.938,38.01538,-0.72371,0.14092,0.9346
325.738,38.09234,-0.72371,0.13978,0.93418
326.538,38.16961,-0.72239,0.13894,0.93376
327.338,38.24653,-0.72239,0.14043,0.93334
328.138,38.324,-0.72239,0.13857,0.93292
328.938,38.40122,-0.72368,0.13732,0.9325
329.738,38.47867,-0.7237,0.13793,0.93208
330.538,38.55601,-0.72377,0.1375,0.93165
331.338,38.6336,-0.7224,0.1394,0.93123
332.138,38.7113,-0.72239,0.13915,0.93081
332.938,38.7887,-0.72368,0.13919,0.93039
333.738,38.86612,-0.72469,0.1385,0.92996
334.538,38.94341,-0.72577,0.1392,0.92954
335.338,39.02086,-0.72536,0.139,0.92912
336.138,39.09834,-0.72667,0.14105,0.92869
336.938,39.1759,-0.72798,0.14434,0.92827
337.738,39.25336,-0.7294,0.14134,0.92785
338.538,39.33097,-0.7293,0.14153,0.92742
339.338,39.40837,-0.7293,0.14598,0.927
340.138,39.48558,-0.7293,0.14333,0.92657
340.938,39.56275,-0.72947,0.14402,0.92615
341.738,39.64015,-0.73062,0.14413,0.92572
342.538,39.7175,-0.73062,0.14364,0.92529
343.338,39.7948,-0.73065,0.14428,0.92487
344.138,39.87202,-0.73325,0.14373,0.92444
344.938,39.94947,-0.73224,0.14451,0.92402
345.738,40.02673,-0.73063,0.1442,0.92359
346.538,40.10376,-0.73194,0.14348,0.92316
347.338,40.18101,-0.73094,0.14339,0.92273
348.138,40.25848,-0.73193,0.14194,0.92231
348.938,40.33611,-0.73193,0.14309,0.92188
349.738,40.41339,-0.73193,0.14551,0.92145
350.538,40.49078,-0.73333,0.14594,0.92102
351.338,40.56834,-0.73391,0.14297,0.92059
352.138,40.64575,-0.73391,0.14355,0.92016
352.938,40.72299,-0.73292,0.14358,0.91973
353.738,40.80015,-0.73292,0.1413,0.9193
354.538,40.87762,-0.73291,0.1436,0.91887
355.338,40.95521,-0.73295,0.14041,0.91844
356.138,41.0327,-0.73292,0.14246,0.91801
356.938,41.11025,-0.73292,0.14031,0.91758
357.738,41.18775,-0.73292,0.14034,0.91715
358.538,41.26513,-0.73226,0.14046,0.91672
359.338,41.34272,-0.73299,0.1387,0.91629
360.138,41.42042,-0.73292,0.13937,0.91585
360.938,41.49808,-0.73322,0.13703,0.91542
361.738,41.57601,-0.73419,0.13936,0.91499
362.538,41.65314,-0.73424,0.13638,0.91456
363.338,41.7306,-0.73292,0.13553,0.91412
364.138,41.80855,-0.73325,0.13766,0.91369
364.938,41.88642,-0.73325,0.13769,0.91325
365.738,41.96395,-0.73457,0.13762,0.91282
366.538,42.0413,-0.73463,0.1373,0.91239
367.338,42.11851,-0.73622,0.13881,0.91195
368.138,42.19567,-0.73621,0.13742,0.91151
368.938,42.27295,-0.73754,0.13873,0.91108
369.738,42.35035,-0.73753,0.13921,0.91064
370.538,42.42767,-0.73753,0.14144,0.91021
371.338,42.50508,-0.73753,0.14079,0.90977
372.138,42.58249,-0.73754,0.14077,0.90933
372.938,42.66008,-0.73884,0.14029,0.9089
373.738,42.73754,-0.73754,0.13869,0.90846
374.538,42.81524,-0.73753,0.13968,0.90802
375.338,42.89283,-0.73753,0.14123,0.90758
376.138,42.97044,-0.73883,0.14093,0.90714
376.938,43.04817,-0.73794,0.13989,0.9067
377.738,43.12577,-0.73752,0.13871,0.90626
378.538,43.2042,-0.73752,0.13517,0.90582
379.338,43.28584,-0.73887,0.13698,0.90538
380.138,43.36753,-0.73884,0.13601,0.90494
380.938,43.44685,-0.73752,0.13431,0.9045
381.738,43.52451,-0.73752,0.13262,0.90406
382.538,43.60226,-0.73692,0.13134,0.90362
383.338,43.68006,-0.73818,0.13058,0.90318
384.138,43.75764,-0.73797,0.12533,0.90274
384.938,43.83554,-0.73687,0.12388,0.90229
385.738,43.9135,-0.73752,0.12383,0.90185
386.538,43.99178,-0.73753,0.12041,0.90141
387.338,44.06993,-0.73753,0.11942,0.90096
388.138,44.14808,-0.73753,0.11511,0.90052
388.938,44.22609,-0.73882,0.11566,0.90007
389.738,44.30428,-0.73753,0.11224,0.89963
390.538,44.38245,-0.73753,0.11194,0.89918
391.338,44.46072,-0.73753,0.10924,0.89874
392.138,44.53908,-0.73753,0.10743,0.89829
392.938,44.6176,-0.73753,0.10392,0.89785
393.738,44.6959,-0.73753,0.10094,0.8974
394.538,44.77409,-0.73753,0.1005,0.89695
395.338,44.85215,-0.73753,0.09651735,0.89651
396.138,44.93042,-0.73753,0.0940938,0.89606
396.938,45.0085,-0.73753,0.09197289,0.89561
397.738,45.08664,-0.73828,0.09081463,0.89516
398.538,45.16458,-0.7391,0.08519164,0.89471
399.338,45.24262,-0.73786,0.08332739,0.89426
400.138,45.32085,-0.73786,0.07875285,0.89381
400.938,45.39915,-0.73917,0.07799989,0.89336
401.738,45.47749,-0.73852,0.07574009,0.89291
402.538,45.55584,-0.73852,0.06959521,0.89246
403.338,45.63414,-0.73983,0.06496089,0.89201
404.138,45.71228,-0.73853,0.06218138,0.89156
404.938,45.7905,-0.73852,0.0594952,0.89111
405.738,45.86868,-0.73852,0.0563956,0.89065
406.538,45.94685,-0.73983,0.05438137,0.8902
407.338,46.02493,-0.73983,0.05010812,0.88975
408.138,46.103,-0.73983,0.04253583,0.88929
408.938,46.18135,-0.73983,0.04130247,0.88884
409.738,46.25965,-0.73985,0.03652682,0.88839
410.538,46.33787,-0.7418,0.03221466,0.88793
411.338,46.4159,-0.7418,0.02716527,0.88748
412.138,46.4941,-0.7418,0.02462215,0.88702
412.938,46.57243,-0.74233,0.01994841,0.88656
413.738,46.65055,-0.74411,0.01546261,0.88611
414.538,46.7285,-0.74411,0.01258086,0.88565
415.338,46.80653,-0.74339,0.007828524,0.88519
416.138,46.88462,-0.74281,0.003737201,0.88473
416.938,46.96268,-0.74345,0.002050326,0.88428
417.738,47.04053,-0.74345,-0.0014134,0.88382
418.538,47.11878,-0.74476,-0.004899869,0.88336
419.338,47.1974,-0.74505,-0.007823801,0.8829
420.138,47.27602,-0.74411,-0.00772364,0.88244
420.938,47.3544,-0.74411,-0.01577476,0.88198
421.738,47.4323,-0.74411,-0.01696956,0.88152
422.538,47.51041,-0.74443,-0.02178761,0.88106
423.338,47.5886,-0.74443,-0.02264706,0.8806
424.138,47.66757,-0.74443,-0.0251355,0.88013
424.938,47.74604,-0.74443,-0.02641473,0.87967
425.738,47.82448,-0.74443,-0.02868997,0.87921
426.538,47.903,-0.74468,-0.02999105,0.87874
427.338,47.98157,-0.74444,-0.03060297,0.87828
428.138,48.05999,-0.74444,-0.02743216,0.87782
428.938,48.1386,-0.74443,-0.0315443,0.87735
429.738,48.21728,-0.74509,-0.03210578,0.87689
430.538,48.29596,-0.74411,-0.02891403,0.87642
431.338,48.37447,-0.74418,-0.02786524,0.87595
432.138,48.45328,-0.74476,-0.02839009,0.87549
432.938,48.5321,-0.74475,-0.02642779,0.87502
433.738,48.61085,-0.74345,-0.02273121,0.87455
434.538,48.68927,-0.74345,-0.02201168,0.87409
435.338,48.76788,-0.74345,-0.02082282,0.87362
436.138,48.84626,-0.74443,-0.01583455,0.87315
436.938,48.92473,-0.74454,-0.0127934,0.87268
437.738,49.00316,-0.74214,-0.00644356,0.87221
438.538,49.0817,-0.74214,-0.00375515,0.87174
439.338,49.1603,-0.74214,0.00126936,0.87127
440.138,49.2385,-0.74345,0.00612556,0.8708
440.938,49.31682,-0.74214,0.01106559,0.87033
441.738,49.39536,-0.74344,0.01408965,0.86986
442.538,49.47426,-0.74345,0.01818042,0.86938
443.338,49.55291,-0.74478,0.02342236,0.86891
444.138,49.63159,-0.74336,0.02944435,0.86844
444.938,49.71027,-0.74345,0.03038235,0.86796
445.738,49.7892,-0.74477,0.03504623,0.86749
446.538,49.86802,-0.74477,0.03965261,0.86701
447.338,49.94657,-0.74444,0.0442059,0.86654
448.138,50.02486,-0.74445,0.04635831,0.86606
448.938,50.10351,-0.7451,0.05289264,0.86559
449.738,50.1822,-0.74528,0.05517338,0.86511
450.538,50.26112,-0.74575,0.05832647,0.86463
451.338,50.33978,-0.74575,0.05992357,0.86416
452.138,50.41865,-0.74575,0.06527599,0.86368
452.938,50.49743,-0.74575,0.06631045,0.8632
453.738,50.57607,-0.74575,0.06858393,0.86272
454.538,50.65477,-0.74575,0.07246148,0.86224
455.338,50.7339,-0.74575,0.07563273,0.86176
456.138,50.813,-0.7457,0.07872921,0.86128
456.938,50.89179,-0.74674,0.08289892,0.8608
457.738,50.9703,-0.74674,0.08692677,0.86032
458.538,51.04908,-0.74543,0.08850224,0.85984
459.338,51.128,-0.74663,0.09232083,0.85935
460.138,51.20694,-0.74775,0.09183785,0.85887
460.938,51.2858,-0.74828,0.09614013,0.85839
461.738,51.36442,-0.74838,0.09756844,0.8579
462.538,51.4432,-0.74709,0.09792078,0.85742
463.338,51.5221,-0.74838,0.10274,0.85693
464.138,51.601,-0.74977,0.10122,0.85645
464.938,51.67992,-0.7497,0.10391,0.85596
465.738,51.75884,-0.74905,0.10399,0.85548
466.538,51.8373,-0.74905,0.1064,0.85499
467.338,51.9159,-0.74905,0.1078,0.8545
468.138,51.9949,-0.74872,0.10827,0.85401
468.938,52.0739,-0.75004,0.11145,0.85352
469.738,52.15292,-0.75,0.11198,0.85304
470.538,52.23199,-0.7514,0.11343,0.85255
471.338,52.31111,-0.75134,0.11237,0.85206
472.138,52.3902,-0.75233,0.11531,0.85157
472.938,52.4694,-0.75233,0.11426,0.85107
473.738,52.54837,-0.75228,0.11331,0.85058
474.538,52.6273,-0.75233,0.11269,0.85009
475.338,52.70644,-0.7537,0.1163,0.8496
476.138,52.78578,-0.75233,0.11833,0.84911
476.938,52.86509,-0.75101,0.11878,0.84861
477.738,52.94424,-0.75233,0.11716,0.84812
478.538,53.0232,-0.75233,0.11931,0.84762
479.338,53.1022,-0.75101,0.11981,0.84713
480.138,53.1812,-0.75101,0.12176,0.84663
480.938,53.26021,-0.7537,0.12254,0.84614
481.738,53.33925,-0.75222,0.12037,0.84564
482.538,53.4184,-0.75222,0.11987,0.84514
483.338,53.49717,-0.75189,0.12307,0.84465
484.138,53.5761,-0.75256,0.12352,0.84415
484.938,53.6552,-0.75116,0.1253,0.84365
485.738,53.7342,-0.75256,0.12722,0.84315
486.538,53.81326,-0.75256,0.12435,0.84265
487.338,53.89233,-0.75256,0.12383,0.84215
488.138,53.97126,-0.75203,0.12547,0.84165
488.938,54.05011,-0.75124,0.12563,0.84115
489.738,54.12894,-0.7519,0.12518,0.84064
490.538,54.2084,-0.75159,0.12418,0.84014
491.338,54.2881,-0.75223,0.12518,0.83964
492.138,54.3671,-0.75223,0.12616,0.83914
492.938,54.4463,-0.75091,0.12597,0.83863
493.738,54.52561,-0.75223,0.12733,0.83813
494.538,54.6048,-0.7517,0.12774,0.83762
495.338,54.6838,-0.75091,0.1286,0.83712
496.138,54.76311,-0.75221,0.12676,0.83661
496.938,54.84234,-0.75222,0.12697,0.8361
497.738,54.92159,-0.75222,0.12598,0.8356
498.538,55.0009,-0.75222,0.12759,0.83509
499.338,55.08024,-0.75321,0.12613,0.83458
500.138,55.15988,-0.75321,0.12586,0.83407
500.938,55.2392,-0.75189,0.12574,0.83356
501.738,55.31853,-0.75322,0.12509,0.83305
502.538,55.39781,-0.75321,0.12376,0.83254
503.338,55.47713,-0.75321,0.12606,0.83203
504.138,55.5565,-0.75189,0.12462,0.83152
504.938,55.6357,-0.75224,0.125,0.83101
505.738,55.7149,-0.75223,0.12773,0.83049
506.538,55.79415,-0.75223,0.12638,0.82998
507.338,55.87345,-0.75223,0.1244,0.82947
508.138,55.9527,-0.75223,0.12406,0.82895
508.938,56.03187,-0.75223,0.12529,0.82844
509.738,56.11065,-0.75223,0.12641,0.82792
510.538,56.18979,-0.75223,0.12666,0.8274
511.338,56.269,-0.75355,0.1258,0.82689
512.138,56.34836,-0.75356,0.12793,0.82637
512.938,56.42735,-0.75322,0.12496,0.82585
513.738,56.50637,-0.75307,0.12747,0.82533
514.538,56.58556,-0.75291,0.12663,0.82482
515.338,56.6648,-0.75453,0.12845,0.8243
516.138,56.74386,-0.75468,0.12985,0.82378
516.938,56.82309,-0.75486,0.13054,0.82326
517.738,56.90229,-0.75486,0.12952,0.82274
518.538,56.98157,-0.75486,0.12957,0.82221
519.338,57.06115,-0.75486,0.13006,0.82169
520.138,57.1411,-0.75618,0.13148,0.82117
520.938,57.22042,-0.75618,0.1266,0.82065
521.738,57.3,-0.75616,0.13003,0.82012
522.538,57.3796,-0.7565,0.12729,0.8196
523.338,57.45899,-0.75618,0.12725,0.81907
524.138,57.53853,-0.75584,0.12662,0.81855
524.938,57.6183,-0.75584,0.1265,0.81802
525.738,57.6981,-0.75584,0.12631,0.81749
526.538,57.77775,-0.75584,0.12817,0.81697
527.338,57.8575,-0.75584,0.12927,0.81644
528.138,57.93733,-0.75584,0.12619,0.81591
528.938,58.0173,-0.75584,0.12986,0.81538
529.738,58.09723,-0.7565,0.12736,0.81485
530.538,58.1772,-0.7575,0.12642,0.81432
531.338,58.2568,-0.75815,0.12916,0.81379
532.138,58.3365,-0.75875,0.12926,0.81326
532.938,58.4165,-0.75879,0.12723,0.81273
533.738,58.4964,-0.75946,0.12734,0.81219
534.538,58.57605,-0.75946,0.125,0.81166
535.338,58.6557,-0.75939,0.1302,0.81113
536.138,58.73545,-0.76042,0.12745,0.81059
536.938,58.81514,-0.75941,0.12951,0.81006
537.738,58.89487,-0.76078,0.13156,0.80952
538.538,58.97478,-0.76211,0.13036,0.80899
539.338,59.0545,-0.7621,0.12937,0.80845
540.138,59.13405,-0.7621,0.13051,0.80791
540.938,59.21362,-0.7621,0.12975,0.80738
541.738,59.29309,-0.76078,0.13171,0.80684
542.538,59.37259,-0.76078,0.13291,0.8063
543.338,59.45244,-0.76078,0.13252,0.80576
544.138,59.5322,-0.76078,0.13551,0.80522
544.938,59.6118,-0.76084,0.13425,0.80468
545.738,59.6911,-0.76143,0.13262,0.80414
546.538,59.77049,-0.76209,0.13388,0.8036
547.338,59.8499,-0.76209,0.13649,0.80305
548.138,59.9295,-0.76209,0.13509,0.80251
548.938,60.0093,-0.76209,0.13398,0.80197
549.738,60.08895,-0.7621,0.13481,0.80142
550.538,60.16867,-0.7621,0.13672,0.80088
551.338,60.24859,-0.7627,0.13527,0.80033
552.138,60.32846,-0.76374,0.13568,0.79979
552.938,60.4085,-0.76374,0.13477,0.79924
553.738,60.4887,-0.76374,0.13381,0.79869
554.538,60.5688,-0.76374,0.13182,0.79815
555.338,60.64884,-0.76374,0.1354,0.7976
556.138,60.72902,-0.76374,0.13693,0.79705
556.938,60.809,-0.76374,0.13565,0.7965
557.738,60.889,-0.76374,0.1379,0.79595
558.538,60.96897,-0.76374,0.13728,0.7954
559.338,61.04906,-0.76374,0.13782,0.79485
560.138,61.1291,-0.76374,0.13695,0.7943
560.938,61.20893,-0.76374,0.13755,0.79374
561.738,61.28886,-0.76374,0.13912,0.79319
562.538,61.36865,-0.76279,0.13713,0.79264
563.338,61.44882,-0.76276,0.13929,0.79208
564.138,61.5288,-0.76276,0.1424,0.79153
564.938,61.6091,-0.76276,0.13896,0.79097
565.738,61.689,-0.76276,0.13975,0.79042
566.538,61.7687,-0.76276,0.14222,0.78986
567.338,61.84859,-0.76276,0.14237,0.78931
568.138,61.9285,-0.76276,0.13999,0.78875
568.938,62.0085,-0.76369,0.14109,0.78819
569.738,62.0887,-0.76408,0.14195,0.78763
570.538,62.1687,-0.76408,0.14297,0.78707
571.338,62.2486,-0.76408,0.14121,0.78651
572.138,62.32841,-0.76375,0.13978,0.78595
572.938,62.4082,-0.76373,0.14123,0.78539
573.738,62.48816,-0.76374,0.14337,0.78483
574.538,62.5685,-0.76374,0.14367,0.78427
575.338,62.6484,-0.76374,0.14462,0.7837
576.138,62.7283,-0.76374,0.14616,0.78314
576.938,62.80836,-0.76506,0.14521,0.78257
577.738,62.88844,-0.76506,0.14658,0.78201
578.538,62.9685,-0.76506,0.14762,0.78144
579.338,63.0483,-0.76506,0.14669,0.78088
580.138,63.12814,-0.76637,0.14658,0.78031
580.938,63.2081,-0.76637,0.14915,0.77974
581.738,63.2881,-0.76505,0.14915,0.77918
582.538,63.368,-0.76637,0.15089,0.77861
583.338,63.4481,-0.76637,0.14866,0.77804
584.138,63.5281,-0.76637,0.14715,0.77747
584.938,63.6082,-0.76637,0.14971,0.7769
585.738,63.688,-0.76505,0.15176,0.77633
586.538,63.76795,-0.76637,0.15056,0.77576
587.338,63.84777,-0.7666,0.15264,0.77519
588.138,63.92755,-0.76769,0.1514,0.77461
588.938,64.00747,-0.76769,0.15449,0.77404
589.738,64.08726,-0.76802,0.15481,0.77347
590.538,64.16722,-0.76802,0.15595,0.77289
591.338,64.24718,-0.76933,0.15667,0.77232
592.138,64.32727,-0.76933,0.15499,0.77174
592.938,64.40745,-0.77065,0.15517,0.77117
593.738,64.48754,-0.77065,0.15935,0.77059
594.538,64.5677,-0.76935,0.15922,0.77001
595.338,64.6477,-0.77154,0.16105,0.76943
596.138,64.72762,-0.77197,0.15851,0.76886
596.938,64.80773,-0.77328,0.1591,0.76828
597.738,64.8878,-0.77297,0.16188,0.7677
598.538,64.96786,-0.77262,0.16313,0.76712
599.338,65.04785,-0.77262,0.1669,0.76654
600.138,65.12805,-0.77295,0.16542,0.76595
600.938,65.2083,-0.77296,0.1685,0.76537
601.738,65.2885,-0.77296,0.1709,0.76479
602.538,65.36872,-0.77296,0.16612,0.76421
603.338,65.44876,-0.77395,0.16768,0.76362
604.138,65.52886,-0.77395,0.17493,0.76304
604.938,65.60906,-0.77428,0.17214,0.76245
605.738,65.6895,-0.77559,0.1725,0.76187
606.538,65.76993,-0.77559,0.17407,0.76128
607.338,65.85035,-0.77559,0.17847,0.76069
608.138,65.93064,-0.77559,0.18069,0.76011
608.938,66.0111,-0.7756,0.18555,0.75952
609.738,66.09147,-0.77691,0.18065,0.75893
610.538,66.1717,-0.7779,0.18558,0.75834
611.338,66.25182,-0.77723,0.18623,0.75775
612.138,66.33198,-0.77723,0.18959,0.75716
612.938,66.41253,-0.77719,0.18941,0.75657
613.738,66.4931,-0.77855,0.19304,0.75598
614.538,66.57327,-0.77846,0.19748,0.75539
615.338,66.65341,-0.77921,0.19665,0.75479
616.138,66.73362,-0.77921,0.19917,0.7542
616.938,66.81389,-0.77756,0.20259,0.75361
617.738,66.89453,-0.77892,0.20406,0.75301
618.538,66.97501,-0.77887,0.21024,0.75242
619.338,67.05525,-0.77888,0.20787,0.75182
620.138,67.13548,-0.78019,0.21173,0.75123
620.938,67.21571,-0.78151,0.21923,0.75063
621.738,67.29592,-0.78216,0.21614,0.75003
622.538,67.3759,-0.78286,0.22334,0.74943
623.338,67.45586,-0.78282,0.2234,0.74883
624.138,67.536,-0.78415,0.22482,0.74823
624.938,67.61661,-0.78678,0.2276,0.74763
625.738,67.6974,-0.78676,0.22892,0.74703
626.538,67.7778,-0.7881,0.2336,0.74643
627.338,67.85813,-0.78942,0.23713,0.74583
628.138,67.9384,-0.79073,0.235,0.74523
628.938,68.01892,-0.79073,0.23813,0.74463
629.738,68.09925,-0.79073,0.24117,0.74402
630.538,68.1797,-0.79306,0.24288,0.74342
631.338,68.26006,-0.79335,0.24397,0.74282
632.138,68.34037,-0.79335,0.24923,0.74221
632.938,68.4208,-0.79342,0.24591,0.7416
633.738,68.50137,-0.79468,0.25215,0.741
634.538,68.5819,-0.79476,0.25352,0.74039
635.338,68.66254,-0.79583,0.25721,0.73978
636.138,68.74344,-0.79736,0.25749,0.73918
636.938,68.82424,-0.79644,0.25615,0.73857
637.738,68.90479,-0.79731,0.26053,0.73796
638.538,68.98518,-0.79849,0.26163,0.73735
639.338,69.06563,-0.79994,0.26043,0.73674
640.138,69.14623,-0.79997,0.2635,0.73613
640.938,69.22677,-0.80093,0.26476,0.73551
641.738,69.30702,-0.80224,0.26479,0.7349
642.538,69.38726,-0.80356,0.26762,0.73429
643.338,69.46769,-0.80619,0.26755,0.73368
644.138,69.54809,-0.80726,0.27028,0.73306
644.938,69.62865,-0.80617,0.27029,0.73245
645.738,69.70921,-0.8075,0.26993,0.73183
646.538,69.78959,-0.81084,0.26842,0.73122
647.338,69.8699,-0.81281,0.27289,0.7306
648.138,69.9502,-0.81412,0.27422,0.72998
648.938,70.0308,-0.81539,0.27642,0.72937
649.738,70.1112,-0.81672,0.27595,0.72875
650.538,70.19144,-0.81674,0.27684,0.72813
651.338,70.2719,-0.81804,0.27749,0.72751
652.138,70.35259,-0.81803,0.27647,0.72689
652.938,70.43326,-0.81935,0.27334,0.72627
653.738,70.5138,-0.82067,0.27453,0.72565
654.538,70.5943,-0.82201,0.27172,0.72503
655.338,70.67485,-0.822,0.26908,0.72441
656.138,70.75555,-0.8233,0.27147,0.72378
656.938,70.83622,-0.8233,0.26846,0.72316
657.738,70.91686,-0.8246,0.26982,0.72254
658.538,70.9974,-0.82597,0.26678,0.72191
659.338,71.07804,-0.82594,0.2679,0.72129
660.138,71.15862,-0.82725,0.26528,0.72066
660.938,71.23905,-0.82593,0.26544,0.72004
661.738,71.3192,-0.82759,0.26749,0.71941
662.538,71.39914,-0.82857,0.26483,0.71878
663.338,71.47941,-0.82857,0.26508,0.71816
664.138,71.56074,-0.82988,0.26203,0.71753
664.938,71.6426,-0.82988,0.26427,0.7169
665.738,71.72357,-0.83114,0.26442,0.71627
666.538,71.80419,-0.83383,0.26309,0.71564
667.338,71.88497,-0.83523,0.26321,0.71501
668.138,71.96552,-0.83779,0.26604,0.71438
668.938,72.04605,-0.83907,0.26292,0.71375
669.738,72.12666,-0.83954,0.26246,0.71311
670.538,72.20755,-0.83903,0.26343,0.71248
671.338,72.28824,-0.84175,0.26616,0.71185
672.138,72.3689,-0.84436,0.26258,0.71121
672.938,72.44951,-0.84305,0.26327,0.71058
673.738,72.53023,-0.84436,0.26093,0.70995
674.538,72.61081,-0.84698,0.26121,0.70931
675.338,72.69142,-0.8483,0.2602,0.70867
676.138,72.77232,-0.84831,0.26392,0.70804
676.938,72.85306,-0.8496,0.25911,0.7074
677.738,72.93361,-0.85094,0.25896,0.70676
678.538,73.01419,-0.85225,0.25455,0.70612
679.338,73.0949,-0.85319,0.2504,0.70549
680.138,73.17577,-0.85357,0.25079,0.70485
680.938,73.25647,-0.85489,0.24992,0.70421
681.738,73.33722,-0.8562,0.24674,0.70357
682.538,73.4183,-0.85621,0.24389,0.70292
683.338,73.4992,-0.85752,0.23986,0.70228
684.138,73.58001,-0.85884,0.23849,0.70164
684.938,73.66051,-0.85884,0.23574,0.701
685.738,73.74118,-0.86015,0.23309,0.70036
686.538,73.8218,-0.8628,0.22985,0.69971
687.338,73.9025,-0.86281,0.22653,0.69907
688.138,73.98295,-0.86279,0.22365,0.69842
688.938,74.06355,-0.86309,0.21921,0.69778
689.738,74.14416,-0.8641,0.21425,0.69713
690.538,74.22496,-0.86532,0.20945,0.69649
691.338,74.30574,-0.86673,0.20282,0.69584
692.138,74.38636,-0.86675,0.20098,0.69519
692.938,74.467,-0.86775,0.19455,0.69454
693.738,74.54775,-0.86905,0.19317,0.69389
694.538,74.62841,-0.8693,0.18371,0.69324
695.338,74.70907,-0.8697,0.18053,0.6926
696.138,74.79003,-0.87102,0.17873,0.69195
696.938,74.87101,-0.87233,0.17196,0.69129
697.738,74.95182,-0.8716,0.16753,0.69064
698.538,75.0326,-0.87299,0.16221,0.68999
699.338,75.11317,-0.87299,0.15888,0.68934
700.138,75.1938,-0.87299,0.15594,0.68869
700.938,75.27422,-0.87432,0.15309,0.68803
701.738,75.355,-0.87431,0.15075,0.68738
702.538,75.43579,-0.87566,0.15197,0.68673
703.338,75.5165,-0.8743,0.15147,0.68607
704.138,75.597,-0.8743,0.15241,0.68541
704.938,75.6773,-0.87562,0.14943,0.68476
705.738,75.75797,-0.87562,0.15057,0.6841
706.538,75.8386,-0.87694,0.14986,0.68345
707.338,75.91934,-0.87694,0.14905,0.68279
708.138,76.00013,-0.87694,0.15145,0.68213
708.938,76.08076,-0.87694,0.14804,0.68147
709.738,76.16133,-0.87694,0.14635,0.68081
710.538,76.24207,-0.87564,0.14575,0.68015
711.338,76.323,-0.87696,0.14486,0.67949
712.138,76.40382,-0.87825,0.14723,0.67883
712.938,76.48483,-0.87694,0.14566,0.67817
713.738,76.5658,-0.87694,0.14617,0.67751
714.538,76.64671,-0.87816,0.14639,0.67685
715.338,76.72734,-0.87827,0.14486,0.67619
716.138,76.80843,-0.87987,0.14568,0.67552
716.938,76.88945,-0.88055,0.14389,0.67486
717.738,76.971,-0.88191,0.14187,0.6742
718.538,77.0522,-0.88187,0.14689,0.67353
719.338,77.13367,-0.88333,0.14944,0.67287
720.138,77.21455,-0.88188,0.14426,0.6722
720.938,77.2958,-0.88188,0.14526,0.67153
721.738,77.37675,-0.88317,0.14268,0.67087
722.538,77.4585,-0.88316,0.14263,0.6702
723.338,77.5403,-0.88353,0.14194,0.66953
724.138,77.62183,-0.88316,0.14527,0.66886
724.938,77.70354,-0.8845,0.14577,0.6682
725.738,77.7852,-0.88451,0.14821,0.66753
726.538,77.86669,-0.8845,0.14225,0.66686
727.338,77.94797,-0.88582,0.14306,0.66619
728.138,78.02884,-0.88582,0.14307,0.66552
728.938,78.1099,-0.8845,0.14457,0.66485
729.738,78.19115,-0.88582,0.14728,0.66418
730.538,78.27257,-0.88582,0.14841,0.6635
731.338,78.35365,-0.88483,0.14685,0.66283
732.138,78.43472,-0.88615,0.14518,0.66216
732.938,78.51567,-0.88615,0.14613,0.66149
733.738,78.5966,-0.88617,0.14932,0.66081
734.538,78.6774,-0.88727,0.1454,0.66014
735.338,78.75851,-0.88615,0.14877,0.65946
736.138,78.8391,-0.88615,0.14419,0.65879
736.938,78.91942,-0.88615,0.14555,0.65811
737.738,78.9999,-0.88847,0.14729,0.65744
738.538,79.08095,-0.8885,0.14723,0.65676
739.338,79.1618,-0.88746,0.14755,0.65608
740.138,79.24216,-0.88997,0.14979,0.6554
740.938,79.3229,-0.8883,0.14836,0.65473
741.738,79.4041,-0.88956,0.14787,0.65405
742.538,79.48567,-0.8912,0.14961,0.65337
743.338,79.56668,-0.8912,0.14223,0.65269
744.138,79.6477,-0.89054,0.14509,0.65201
744.938,79.72874,-0.89054,0.14611,0.65133
745.738,79.80986,-0.89185,0.14812,0.65065
746.538,79.89053,-0.89185,0.14325,0.64997
747.338,79.97131,-0.89185,0.14862,0.64929
748.138,80.05174,-0.89185,0.14618,0.6486
748.938,80.13305,-0.89327,0.15018,0.64792
749.738,80.21391,-0.89302,0.14966,0.64724
750.538,80.29516,-0.89284,0.15222,0.64656
751.338,80.37618,-0.89284,0.15092,0.64587
752.138,80.45735,-0.89437,0.15062,0.64519
752.938,80.53862,-0.89569,0.14756,0.6445
753.738,80.62001,-0.89439,0.15275,0.64382
754.538,80.7013,-0.8957,0.15224,0.64313
755.338,80.78274,-0.89568,0.14684,0.64245
756.138,80.86404,-0.89438,0.14758,0.64176
756.938,80.9453,-0.89438,0.15151,0.64107
757.738,81.02662,-0.89438,0.14519,0.64039
758.538,81.10774,-0.89569,0.15133,0.6397
759.338,81.1887,-0.89438,0.14871,0.63901
760.138,81.26988,-0.89369,0.14436,0.63832
760.938,81.351,-0.89307,0.14887,0.63763
761.738,81.43214,-0.89443,0.14474,0.63694
762.538,81.5134,-0.89296,0.15013,0.63625
763.338,81.5947,-0.89306,0.14973,0.63556
764.138,81.6759,-0.89306,0.15089,0.63487
764.938,81.75678,-0.89306,0.15085,0.63418
765.738,81.8377,-0.89306,0.14695,0.63349
766.538,81.91846,-0.89174,0.15413,0.6328
767.338,81.99908,-0.89306,0.15146,0.6321
768.138,82.07982,-0.89505,0.15044,0.63141
768.938,82.16076,-0.89506,0.15312,0.63072
769.738,82.24154,-0.8937,0.15219,0.63002
770.538,82.32229,-0.89503,0.15257,0.62933
771.338,82.4029,-0.89575,0.15716,0.62864
772.138,82.48385,-0.89668,0.15629,0.62794
772.938,82.56483,-0.89668,0.15441,0.62725
773.738,82.6457,-0.89703,0.15533,0.62655
774.538,82.72649,-0.89703,0.15733,0.62585
775.338,82.80762,-0.89897,0.15693,0.62516
776.138,82.8887,-0.89898,0.15851,0.62446
776.938,82.96988,-0.90031,0.15818,0.62376
777.738,83.051,-0.9003,0.15712,0.62307
778.538,83.13231,-0.90021,0.15582,0.62237
779.338,83.2137,-0.90125,0.15925,0.62167
780.138,83.29476,-0.90293,0.15702,0.62097
780.938,83.3755,-0.90293,0.159,0.62027
781.738,83.45656,-0.90424,0.1579,0.61957
782.538,83.53805,-0.90294,0.15901,0.61887
783.338,83.6199,-0.90398,0.15962,0.61817
784.138,83.70138,-0.90425,0.15954,0.61747
784.938,83.7828,-0.90653,0.15744,0.61677
785.738,83.8641,-0.90662,0.16058,0.61607
786.538,83.94526,-0.90688,0.16075,0.61537
787.338,84.02668,-0.90688,0.16201,0.61467
788.138,84.1083,-0.90688,0.16122,0.61396
788.938,84.19015,-0.90723,0.16874,0.61326
789.738,84.27158,-0.90721,0.16611,0.61256
790.538,84.35268,-0.90721,0.16915,0.61185
791.338,84.4337,-0.90853,0.16773,0.61115
792.138,84.51473,-0.90922,0.17004,0.61045
792.938,84.5961,-0.90985,0.16875,0.60974
793.738,84.67725,-0.9092,0.17212,0.60904
794.538,84.75822,-0.90922,0.1706,0.60833
795.338,84.83904,-0.90918,0.17242,0.60763
796.138,84.9203,-0.9105,0.17565,0.60692
796.938,85.0018,-0.91187,0.17514,0.60621
797.738,85.08305,-0.9104,0.17609,0.60551
798.538,85.1644,-0.91182,0.18198,0.6048
799.338,85.24579,-0.91181,0.1801,0.60409
800.138,85.327,-0.91313,0.1769,0.60338
800.938,85.40822,-0.91313,0.17612,0.60268
801.738,85.48954,-0.91445,0.17974,0.60197
802.538,85.5711,-0.91445,0.18187,0.60126
803.338,85.65262,-0.91474,0.18433,0.60055
804.138,85.734,-0.91511,0.18466,0.59984
804.938,85.81509,-0.9151,0.186,0.59913
805.738,85.89623,-0.91642,0.18488,0.59842
806.538,85.97757,-0.91642,0.18939,0.59771
807.338,86.05896,-0.91743,0.19049,0.597
808.138,86.14031,-0.91709,0.18944,0.59629
808.938,86.22194,-0.91797,0.18815,0.59558
809.738,86.3034,-0.91762,0.19064,0.59487
810.538,86.3849,-0.9184,0.19613,0.59415
811.338,86.46619,-0.91939,0.1967,0.59344
812.138,86.54764,-0.91992,0.20168,0.59273
812.938,86.62915,-0.92071,0.19969,0.59202
813.738,86.71051,-0.92179,0.20369,0.5913
814.538,86.79185,-0.92268,0.20483,0.59059
815.338,86.87312,-0.92301,0.20529,0.58988
816.138,86.95434,-0.923,0.21224,0.58916
816.938,87.03556,-0.92494,0.21275,0.58845
817.738,87.11691,-0.92564,0.21705,0.58773
818.538,87.19852,-0.92697,0.2241,0.58702
819.338,87.28017,-0.92827,0.22152,0.5863
820.138,87.36155,-0.92877,0.23031,0.58559
820.938,87.44279,-0.92937,0.23104,0.58487
821.738,87.52421,-0.93093,0.23729,0.58415
822.538,87.60582,-0.93221,0.23698,0.58344
823.338,87.68741,-0.93255,0.23981,0.58272
824.138,87.76926,-0.93322,0.2437,0.582
824.938,87.85091,-0.93435,0.24846,0.58129
825.738,87.93171,-0.93538,0.25118,0.58057
826.538,88.0125,-0.9365,0.25334,0.57985
827.338,88.09366,-0.93645,0.25796,0.57913
828.138,88.17496,-0.93645,0.26384,0.57841
828.938,88.25619,-0.93917,0.26578,0.5777
829.738,88.33713,-0.93916,0.27414,0.57698
830.538,88.41849,-0.93913,0.27411,0.57626
831.338,88.50021,-0.93916,0.27665,0.57554
832.138,88.58216,-0.94109,0.28096,0.57482
832.938,88.66368,-0.94106,0.28261,0.5741
833.738,88.74512,-0.94111,0.28725,0.57338
834.538,88.82629,-0.94106,0.29283,0.57266
835.338,88.90783,-0.94242,0.29179,0.57194
836.138,88.9896,-0.94279,0.29892,0.57122
836.938,89.0711,-0.94323,0.30152,0.57049
837.738,89.15255,-0.94379,0.30333,0.56977
838.538,89.23374,-0.94374,0.3096,0.56905
839.338,89.31509,-0.94505,0.31165,0.56833
840.138,89.3964,-0.94636,0.31946,0.56761
840.938,89.47756,-0.9477,0.32353,0.56688
841.738,89.55895,-0.949,0.32621,0.56616
842.538,89.64021,-0.95163,0.3291,0.56544
843.338,89.72154,-0.95313,0.33884,0.56472
844.138,89.80274,-0.95555,0.33724,0.56399
844.938,89.88417,-0.95693,0.34394,0.56327
845.738,89.96574,-0.95717,0.34612,0.56254
846.538,90.0471,-0.95856,0.34969,0.56182
847.338,90.12866,-0.95985,0.35115,0.5611
848.138,90.2102,-0.96254,0.35908,0.56037
848.938,90.29135,-0.96389,0.3661,0.55965
849.738,90.37267,-0.96505,0.37331,0.55892
850.538,90.4541,-0.9667,0.36791,0.5582
851.338,90.53574,-0.96776,0.37594,0.55747
852.138,90.6174,-0.97041,0.37663,0.55675
852.938,90.6989,-0.97269,0.37815,0.55602
853.738,90.78035,-0.974,0.38044,0.55529
854.538,90.86166,-0.974,0.38192,0.55457
855.338,90.94289,-0.97532,0.38085,0.55384
856.138,91.0244,-0.97664,0.38232,0.55311
856.938,91.10621,-0.97794,0.38154,0.55239
857.738,91.18757,-0.97928,0.37976,0.55166
858.538,91.26929,-0.97962,0.37943,0.55093
859.338,91.35106,-0.98195,0.37452,0.55021
860.138,91.4328,-0.98455,0.3807,0.54948
860.938,91.51448,-0.98586,0.37513,0.54875
861.738,91.5963,-0.98648,0.36861,0.54802
862.538,91.6781,-0.98782,0.36377,0.54729
863.338,91.75931,-0.98751,0.34966,0.54657
864.138,91.84085,-0.98861,0.34148,0.54584
864.938,91.92243,-0.99127,0.33236,0.54511
865.738,92.00411,-0.99145,0.31857,0.54438
866.538,92.0854,-0.99322,0.30563,0.54365
867.338,92.1669,-0.99418,0.29155,0.54292
868.138,92.2486,-0.99551,0.28004,0.54219
868.938,92.3301,-0.99682,0.26914,0.54146
869.738,92.41157,-0.99682,0.2617,0.54073
870.538,92.49308,-0.99819,0.25338,0.54
871.338,92.57436,-0.99946,0.25053,0.53927
872.138,92.65568,-0.99946,0.23833,0.53854
872.938,92.73629,-0.99961,0.23666,0.53781
873.738,92.81665,-1.00207,0.23323,0.53708
874.538,92.89754,-1.00152,0.22982,0.53635
875.338,92.97932,-1.00079,0.22421,0.53562
876.138,93.0609,-1.00177,0.22279,0.53489
876.938,93.14211,-1.00212,0.21948,0.53416
877.738,93.22338,-1.00341,0.21545,0.53343
878.538,93.30449,-1.00319,0.22162,0.5327
879.338,93.38575,-1.00275,0.21802,0.53196
880.138,93.4667,-1.00275,0.21294,0.53123
880.938,93.548,-1.00308,0.21611,0.5305
881.738,93.62937,-1.00474,0.21387,0.52977
882.538,93.71087,-1.00572,0.21888,0.52904
883.338,93.7922,-1.00436,0.21706,0.5283
884.138,93.87331,-1.00439,0.21124,0.52757
884.938,93.95456,-1.00337,0.21935,0.52684
885.738,94.03573,-1.0044,0.21635,0.52611
886.538,94.1169,-1.00571,0.21403,0.52537
887.338,94.19816,-1.00703,0.21706,0.52464
888.138,94.2795,-1.00673,0.21453,0.52391
888.938,94.36091,-1.00834,0.2189,0.52318
889.738,94.44224,-1.00837,0.22105,0.52244
890.538,94.52355,-1.00966,0.21817,0.52171
891.338,94.60508,-1.00957,0.21803,0.52098
892.138,94.68658,-1.00965,0.22232,0.52024
892.938,94.7681,-1.01098,0.22448,0.51951
893.738,94.8498,-1.01097,0.22562,0.51878
894.538,94.9314,-1.01197,0.22568,0.51804
895.138,94.9927,-1.01196,0.22708,0.51749