File: 01_Data/Composite_Deck_Board/MCC/Composite_Deck_Board_30K_min_210609_R2.txt
Sample ID:	C:\MCC\MCC Cal\Test\TREX_Board\TREX_Board_30_2.txt
Sample Weight (mg):	4.81
Heating Rate (C/s):	0.5
Combustor Temp (C):	900
N2 Flow Rate (cc/min):	80
O2 Flow Rate (cc/min):	20
Calibration File:	C:\MCC\MCC Cal\Coeff1 JN10440_30_210304.txt.txt
T Correction Coefficients:	0	1.024463	0
Time Shift (s):	14
*
Time (s)	Temperature (C)	N2 flow rate (cc/min)	O2 flow rate (cc/min)	Flow Rate (cc/min)	Oxygen (%)	HRR (W/g)	Heating rate (C/s)
-0.001	112.872	79.983	19.992	99.872	20.127	-0.127	0.003
1.500	112.838	79.983	19.992	99.874	20.128	-0.234	-0.020
3.000	112.828	79.984	19.992	99.868	20.129	-0.250	0.003
4.500	112.840	79.983	19.992	99.861	20.127	-0.125	0.007
6.000	112.795	79.983	19.993	99.872	20.123	0.121	-0.026
7.500	112.819	79.981	19.992	99.874	20.127	-0.150	0.010
9.000	112.787	79.982	19.992	99.871	20.124	0.048	0.001
10.500	112.821	79.982	19.993	99.870	20.124	0.044	0.032
12.000	112.800	79.983	19.992	99.870	20.122	0.183	0.005
13.500	112.780	79.982	19.993	99.877	20.122	0.150	-0.009
15.000	112.775	79.982	19.992	99.889	20.121	0.218	0.004
16.500	112.794	79.982	19.992	99.887	20.121	0.255	0.002
18.000	112.820	79.984	19.992	99.902	20.117	0.500	0.011
19.500	112.808	79.984	19.992	99.915	20.115	0.660	-0.027
21.000	112.796	79.984	19.992	99.920	20.116	0.549	0.016
22.500	112.861	79.985	19.992	99.930	20.109	1.004	0.026
24.000	112.877	79.985	19.992	99.948	20.109	0.988	0.007
25.500	112.919	79.983	19.992	99.964	20.108	1.062	0.023
27.000	113.007	79.984	19.992	99.987	20.105	1.266	0.065
28.500	113.104	79.984	19.992	100.000	20.108	1.113	0.062
30.000	113.193	79.983	19.992	100.001	20.102	1.485	0.050
31.500	113.281	79.980	19.992	99.991	20.105	1.302	0.064
32.999	113.440	79.980	19.991	99.988	20.100	1.607	0.098
34.499	113.547	79.983	19.992	99.997	20.101	1.536	0.086
35.999	113.681	79.984	19.991	100.017	20.100	1.598	0.083
37.499	113.842	79.985	19.992	100.012	20.098	1.750	0.103
39.000	114.009	79.984	19.992	100.008	20.098	1.713	0.113
40.499	114.166	79.984	19.991	100.027	20.095	1.949	0.119
42.000	114.381	79.984	19.992	100.032	20.098	1.702	0.143
43.499	114.603	79.986	19.993	100.043	20.097	1.819	0.137
44.999	114.798	79.985	19.992	100.055	20.094	1.997	0.126
46.500	115.054	79.985	19.993	100.062	20.089	2.330	0.158
47.999	115.296	79.985	19.993	100.066	20.087	2.475	0.169
49.499	115.613	79.984	19.993	100.066	20.086	2.521	0.203
50.999	115.858	79.981	19.993	100.066	20.087	2.470	0.151
52.500	116.118	79.982	19.993	100.079	20.085	2.552	0.188
54.000	116.479	79.982	19.993	100.103	20.084	2.618	0.237
55.499	116.783	79.985	19.992	100.099	20.081	2.838	0.201
56.999	117.163	79.986	19.993	100.102	20.083	2.722	0.256
58.499	117.496	79.984	19.992	100.107	20.080	2.905	0.241
59.999	117.851	79.984	19.993	100.107	20.080	2.916	0.257
61.499	118.259	79.981	19.993	100.107	20.080	2.894	0.275
62.999	118.651	79.983	19.994	100.108	20.082	2.790	0.270
64.499	119.050	79.983	19.992	100.106	20.076	3.139	0.270
65.999	119.496	79.985	19.992	100.108	20.078	3.018	0.297
67.501	119.972	79.983	19.993	100.111	20.078	3.004	0.295
68.999	120.426	79.986	19.993	100.112	20.079	2.982	0.284
70.499	120.895	79.984	19.994	100.107	20.078	3.041	0.304
71.999	121.413	79.983	19.994	100.109	20.077	3.083	0.331
73.500	121.886	79.981	19.993	100.108	20.078	3.012	0.316
74.999	122.415	79.983	19.993	100.111	20.078	3.055	0.343
76.499	122.930	79.983	19.993	100.109	20.078	3.004	0.333
77.999	123.466	79.981	19.994	100.108	20.076	3.161	0.360
79.500	124.018	79.984	19.994	100.107	20.075	3.198	0.359
80.999	124.564	79.981	19.993	100.109	20.075	3.205	0.379
82.500	125.119	79.982	19.993	100.111	20.076	3.186	0.365
84.000	125.677	79.983	19.993	100.111	20.081	2.837	0.345
85.501	126.222	79.982	19.993	100.113	20.079	2.986	0.383
86.999	126.842	79.982	19.991	100.122	20.077	3.114	0.411
88.500	127.424	79.982	19.992	100.116	20.076	3.149	0.396
89.999	128.034	79.981	19.992	100.111	20.077	3.131	0.406
91.499	128.614	79.981	19.993	100.112	20.079	2.955	0.396
92.999	129.243	79.983	19.991	100.122	20.078	3.064	0.395
94.499	129.813	79.982	19.992	100.130	20.073	3.355	0.400
96.000	130.503	79.983	19.992	100.123	20.075	3.216	0.461
97.499	131.133	79.985	19.992	100.104	20.074	3.291	0.426
98.999	131.764	79.982	19.991	100.060	20.075	3.228	0.406
100.499	132.361	79.983	19.992	100.153	20.074	3.313	0.394
102.000	133.006	79.987	19.992	100.192	20.075	3.209	0.433
103.499	133.697	79.986	19.991	100.137	20.076	3.147	0.431
104.999	134.341	79.984	19.991	100.130	20.077	3.099	0.443
106.500	135.005	79.985	19.992	100.127	20.079	2.958	0.439
108.000	135.649	79.984	19.993	100.130	20.080	2.920	0.429
109.500	136.313	79.984	19.992	100.123	20.076	3.156	0.449
110.999	137.027	79.983	19.993	100.122	20.073	3.383	0.443
112.499	137.696	79.984	19.993	100.120	20.074	3.300	0.455
113.999	138.343	79.983	19.992	100.131	20.076	3.155	0.433
115.499	139.039	79.983	19.991	100.127	20.077	3.116	0.456
116.999	139.758	79.982	19.992	100.127	20.077	3.116	0.470
118.499	140.452	79.987	19.991	100.134	20.075	3.198	0.476
119.999	141.155	79.986	19.992	100.132	20.078	3.021	0.461
121.499	141.886	79.987	19.991	100.128	20.074	3.265	0.473
122.999	142.594	79.987	19.992	100.129	20.075	3.256	0.467
124.500	143.322	79.985	19.992	100.115	20.073	3.344	0.486
125.999	144.084	79.985	19.992	100.111	20.075	3.247	0.478
127.500	144.805	79.984	19.992	100.109	20.075	3.198	0.475
129.000	145.543	79.981	19.993	100.109	20.071	3.481	0.490
130.500	146.250	79.982	19.993	100.108	20.073	3.377	0.473
132.000	146.973	79.983	19.994	100.112	20.072	3.451	0.469
133.500	147.690	79.980	19.993	100.112	20.068	3.698	0.485
135.000	148.455	79.984	19.993	100.116	20.073	3.330	0.530
136.500	149.201	79.982	19.992	100.116	20.072	3.446	0.520
138.000	149.913	79.983	19.993	100.112	20.071	3.503	0.476
139.500	150.644	79.981	19.993	100.108	20.073	3.363	0.472
141.000	151.339	79.981	19.992	100.110	20.071	3.487	0.461
142.500	152.125	79.983	19.993	100.110	20.070	3.562	0.511
144.000	152.844	79.983	19.992	100.107	20.072	3.413	0.469
145.500	153.585	79.983	19.993	100.110	20.073	3.379	0.494
147.000	154.338	79.981	19.992	100.112	20.071	3.492	0.504
148.500	155.042	79.981	19.993	100.110	20.072	3.404	0.491
150.001	155.793	79.983	19.993	100.109	20.074	3.317	0.509
151.500	156.574	79.981	19.993	100.110	20.076	3.153	0.526
153.000	157.313	79.983	19.992	100.111	20.077	3.088	0.497
154.500	158.039	79.982	19.993	100.111	20.078	3.055	0.504
156.000	158.798	79.983	19.993	100.110	20.072	3.393	0.507
157.500	159.528	79.981	19.994	100.110	20.074	3.299	0.497
159.000	160.315	79.982	19.994	100.107	20.077	3.074	0.504
160.500	161.069	79.982	19.994	100.105	20.075	3.213	0.472
162.000	161.805	79.977	19.993	100.109	20.077	3.070	0.495
163.500	162.555	79.981	19.994	100.109	20.076	3.139	0.508
165.000	163.359	79.980	19.992	100.103	20.074	3.275	0.546
166.500	164.101	79.980	19.993	100.039	20.075	3.257	0.512
168.000	164.907	79.983	19.993	100.124	20.077	3.120	0.544
169.500	165.626	79.981	19.993	100.161	20.080	2.919	0.488
171.000	166.386	79.981	19.993	100.105	20.077	3.100	0.499
172.500	167.156	79.983	19.993	100.103	20.076	3.151	0.531
174.000	167.897	79.984	19.993	100.102	20.077	3.082	0.487
175.500	168.650	79.983	19.991	100.098	20.080	2.883	0.474
177.000	169.423	79.984	19.992	100.088	20.083	2.734	0.492
178.500	170.146	79.984	19.992	100.090	20.078	3.042	0.455
180.000	170.945	79.984	19.993	100.101	20.079	2.998	0.524
181.500	171.703	79.985	19.992	100.103	20.076	3.139	0.502
183.000	172.468	79.984	19.992	100.094	20.077	3.100	0.534
184.500	173.186	79.982	19.992	100.088	20.076	3.142	0.503
186.001	173.955	79.984	19.993	100.092	20.077	3.078	0.488
187.499	174.731	79.982	19.992	100.097	20.076	3.177	0.514
188.999	175.444	79.983	19.992	100.098	20.078	3.054	0.480
190.499	176.201	79.983	19.992	100.093	20.079	2.997	0.497
192.000	176.914	79.983	19.993	100.083	20.080	2.909	0.475
193.499	177.672	79.984	19.992	100.092	20.079	2.992	0.504
194.999	178.400	79.985	19.993	100.090	20.075	3.200	0.487
196.499	179.131	79.984	19.992	100.077	20.076	3.168	0.511
197.999	179.903	79.984	19.993	100.077	20.076	3.136	0.516
199.499	180.646	79.987	19.992	100.077	20.077	3.112	0.502
200.999	181.388	79.983	19.992	100.073	20.077	3.105	0.480
202.500	182.108	79.985	19.991	100.071	20.077	3.075	0.473
203.999	182.849	79.984	19.992	100.076	20.077	3.117	0.488
205.500	183.583	79.985	19.991	100.077	20.078	3.020	0.488
207.000	184.322	79.984	19.991	100.083	20.076	3.184	0.504
208.499	185.073	79.981	19.991	100.075	20.077	3.080	0.506
209.999	185.837	79.982	19.992	100.075	20.074	3.288	0.523
211.499	186.568	79.981	19.990	100.084	20.078	3.001	0.504
212.999	187.308	79.983	19.992	100.081	20.074	3.285	0.501
214.499	188.060	79.983	19.992	100.073	20.076	3.186	0.494
215.999	188.782	79.981	19.993	100.073	20.076	3.170	0.467
217.499	189.510	79.984	19.992	100.072	20.076	3.149	0.484
218.999	190.274	79.982	19.993	100.072	20.074	3.300	0.497
220.500	190.969	79.982	19.992	100.082	20.076	3.177	0.449
222.000	191.718	79.981	19.992	100.087	20.074	3.323	0.501
223.500	192.441	79.981	19.992	100.080	20.074	3.260	0.482
225.000	193.214	79.982	19.992	100.072	20.075	3.198	0.510
226.499	193.889	79.982	19.992	100.072	20.075	3.240	0.437
228.000	194.649	79.982	19.992	100.072	20.074	3.321	0.518
229.500	195.397	79.981	19.993	100.072	20.076	3.163	0.490
230.999	196.125	79.984	19.993	100.069	20.075	3.216	0.468
232.500	196.812	79.982	19.993	100.067	20.073	3.360	0.462
233.999	197.553	79.982	19.992	100.067	20.074	3.277	0.482
235.499	198.290	79.983	19.993	100.067	20.069	3.610	0.481
236.999	199.028	79.982	19.992	100.067	20.071	3.510	0.476
238.499	199.748	79.981	19.992	100.068	20.070	3.545	0.492
239.999	200.494	79.980	19.993	100.068	20.072	3.441	0.477
241.499	201.188	79.981	19.993	100.070	20.070	3.540	0.492
243.000	201.933	79.982	19.994	100.069	20.071	3.476	0.510
244.499	202.659	79.982	19.993	100.067	20.072	3.429	0.483
245.999	203.354	79.981	19.994	100.066	20.069	3.645	0.445
247.499	204.117	79.980	19.993	100.066	20.067	3.778	0.505
248.999	204.819	79.982	19.994	100.066	20.067	3.725	0.465
250.499	205.549	79.982	19.993	100.067	20.066	3.824	0.477
251.999	206.266	79.983	19.993	100.068	20.066	3.799	0.481
253.499	207.024	79.983	19.992	100.070	20.066	3.823	0.514
255.000	207.773	79.984	19.992	100.066	20.064	3.933	0.520
256.500	208.520	79.984	19.992	100.065	20.061	4.128	0.519
258.000	209.220	79.986	19.992	100.063	20.061	4.139	0.470
259.500	209.975	79.987	19.992	100.063	20.060	4.180	0.487
261.000	210.664	79.986	19.992	100.068	20.064	3.967	0.446
262.500	211.453	79.985	19.992	100.070	20.060	4.194	0.522
264.000	212.127	79.984	19.992	100.068	20.063	3.995	0.453
265.500	212.845	79.984	19.992	100.067	20.062	4.086	0.480
267.000	213.581	79.983	19.991	100.069	20.065	3.878	0.488
268.500	214.317	79.983	19.993	100.070	20.061	4.143	0.478
270.000	215.050	79.985	19.992	100.069	20.059	4.252	0.479
271.500	215.789	79.985	19.993	100.076	20.058	4.361	0.490
273.000	216.513	79.983	19.992	100.081	20.061	4.143	0.494
274.500	217.269	79.982	19.992	100.077	20.056	4.437	0.475
276.000	218.036	79.982	19.991	100.074	20.055	4.551	0.518
277.500	218.789	79.984	19.992	100.072	20.055	4.529	0.480
279.000	219.478	79.984	19.993	100.072	20.052	4.707	0.469
280.500	220.255	79.985	19.991	100.076	20.050	4.847	0.521
282.000	220.989	79.984	19.991	100.077	20.051	4.784	0.500
283.500	221.719	79.984	19.991	100.079	20.053	4.640	0.478
285.000	222.412	79.984	19.991	100.077	20.049	4.885	0.474
286.500	223.208	79.984	19.991	100.071	20.051	4.765	0.525
288.000	223.975	79.983	19.992	100.078	20.047	5.055	0.509
289.500	224.738	79.982	19.993	100.080	20.050	4.881	0.505
291.000	225.441	79.981	19.992	100.072	20.044	5.221	0.478
292.500	226.186	79.983	19.990	100.074	20.045	5.163	0.487
294.000	227.006	79.981	19.992	100.075	20.045	5.175	0.527
295.500	227.716	79.984	19.992	100.075	20.044	5.215	0.503
297.000	228.510	79.983	19.992	100.074	20.045	5.157	0.527
298.500	229.261	79.982	19.991	100.070	20.041	5.406	0.503
300.000	230.029	79.982	19.992	100.067	20.039	5.538	0.487
301.500	230.737	79.981	19.992	100.071	20.037	5.665	0.461
303.000	231.515	79.981	19.992	100.071	20.037	5.693	0.514
304.500	232.274	79.983	19.993	100.067	20.033	5.938	0.497
306.000	232.990	79.984	19.992	100.066	20.034	5.908	0.473
307.500	233.800	79.984	19.993	100.067	20.035	5.853	0.539
309.000	234.471	79.984	19.993	100.068	20.032	6.007	0.471
310.500	235.301	79.984	19.993	100.068	20.031	6.084	0.530
312.000	236.029	79.983	19.992	100.069	20.029	6.190	0.482
313.500	236.794	79.983	19.993	100.069	20.029	6.224	0.495
315.000	237.516	79.982	19.993	100.068	20.026	6.400	0.486
316.500	238.245	79.983	19.993	100.067	20.024	6.532	0.497
318.000	238.992	79.981	19.992	100.067	20.023	6.629	0.488
319.500	239.727	79.983	19.992	100.069	20.024	6.527	0.509
321.000	240.496	79.983	19.993	100.071	20.020	6.809	0.489
322.500	241.302	79.981	19.993	100.070	20.011	7.397	0.523
324.000	242.024	79.982	19.993	100.072	20.011	7.374	0.496
325.500	242.789	79.981	19.992	100.077	20.011	7.350	0.496
327.000	243.537	79.982	19.993	100.071	20.012	7.298	0.494
328.500	244.266	79.981	19.993	100.069	20.003	7.915	0.500
330.000	245.020	79.983	19.993	100.070	20.005	7.790	0.482
331.500	245.732	79.982	19.993	100.072	19.998	8.233	0.490
333.000	246.529	79.982	19.993	100.076	19.997	8.259	0.535
334.500	247.226	79.983	19.993	100.073	19.997	8.312	0.447
336.000	248.001	79.984	19.993	100.075	19.993	8.538	0.499
337.500	248.727	79.984	19.993	100.075	19.989	8.839	0.492
339.000	249.509	79.983	19.992	100.074	19.986	9.005	0.524
340.500	250.281	79.983	19.993	100.073	19.983	9.189	0.511
342.000	251.043	79.983	19.992	100.075	19.980	9.397	0.496
343.500	251.779	79.982	19.992	100.073	19.975	9.697	0.473
345.000	252.518	79.983	19.992	100.077	19.972	9.936	0.491
346.500	253.264	79.984	19.991	100.086	19.970	10.015	0.507
348.000	254.013	79.983	19.992	100.078	19.963	10.528	0.503
349.500	254.786	79.983	19.992	100.080	19.958	10.808	0.510
351.000	255.524	79.983	19.992	100.091	19.956	10.978	0.511
352.500	256.290	79.983	19.992	100.107	19.955	11.033	0.489
354.000	257.008	79.983	19.992	100.099	19.951	11.257	0.498
355.500	257.782	79.985	19.992	100.087	19.948	11.506	0.517
357.000	258.533	79.985	19.992	100.091	19.943	11.829	0.494
358.500	259.282	79.986	19.993	100.085	19.938	12.141	0.505
360.000	260.017	79.987	19.993	100.086	19.933	12.449	0.481
361.500	260.692	79.984	19.991	100.092	19.930	12.645	0.469
363.000	261.458	79.985	19.992	100.096	19.928	12.799	0.494
364.500	262.237	79.985	19.992	100.096	19.925	12.955	0.505
366.000	262.953	79.983	19.992	100.101	19.918	13.438	0.468
367.500	263.729	79.983	19.992	100.104	19.915	13.632	0.499
369.000	264.472	79.982	19.993	100.103	19.911	13.888	0.503
370.500	265.231	79.983	19.992	100.105	19.907	14.165	0.513
372.000	265.968	79.982	19.992	100.104	19.904	14.336	0.497
373.500	266.697	79.984	19.992	100.106	19.898	14.715	0.483
375.000	267.446	79.983	19.993	100.107	19.891	15.162	0.511
376.500	268.169	79.981	19.992	100.105	19.884	15.599	0.493
378.000	268.957	79.984	19.992	100.107	19.882	15.755	0.522
379.500	269.692	79.984	19.992	100.107	19.879	15.984	0.496
381.000	270.480	79.984	19.992	100.107	19.873	16.321	0.516
382.500	271.253	79.984	19.992	100.107	19.872	16.430	0.514
384.000	272.029	79.983	19.992	100.106	19.864	16.939	0.518
385.500	272.734	79.984	19.993	100.107	19.862	17.084	0.500
387.000	273.487	79.983	19.992	100.106	19.862	17.061	0.504
388.500	274.238	79.984	19.993	100.108	19.856	17.430	0.499
390.000	274.950	79.983	19.993	100.110	19.850	17.831	0.479
391.500	275.754	79.983	19.992	100.108	19.845	18.195	0.526
393.000	276.449	79.983	19.994	100.115	19.842	18.352	0.448
394.500	277.224	79.983	19.993	100.119	19.841	18.412	0.538
396.000	278.019	79.982	19.993	100.111	19.833	18.916	0.522
397.500	278.749	79.981	19.992	100.109	19.830	19.120	0.488
399.000	279.469	79.982	19.993	100.110	19.827	19.312	0.475
400.500	280.239	79.982	19.993	100.113	19.822	19.686	0.523
402.000	280.973	79.981	19.993	100.113	19.815	20.104	0.470
403.500	281.752	79.983	19.993	100.110	19.815	20.115	0.521
405.000	282.479	79.982	19.992	100.111	19.811	20.351	0.477
406.500	283.217	79.981	19.992	100.111	19.811	20.344	0.484
408.000	283.989	79.982	19.993	100.109	19.810	20.446	0.534
409.500	284.719	79.983	19.992	100.110	19.807	20.636	0.479
411.000	285.469	79.983	19.993	100.110	19.804	20.829	0.497
412.500	286.228	79.984	19.993	100.112	19.804	20.821	0.491
414.000	286.940	79.983	19.993	100.113	19.800	21.083	0.487
415.500	287.719	79.983	19.992	100.111	19.800	21.059	0.509
417.000	288.470	79.983	19.993	100.110	19.799	21.129	0.504
418.500	289.216	79.983	19.993	100.110	19.795	21.399	0.491
420.000	289.951	79.984	19.993	100.108	19.796	21.370	0.501
421.500	290.735	79.984	19.994	100.107	19.789	21.782	0.522
423.000	291.518	79.983	19.994	100.109	19.783	22.179	0.521
424.500	292.266	79.983	19.994	100.107	19.786	22.003	0.484
426.000	293.005	79.985	19.993	100.110	19.780	22.413	0.491
427.500	293.767	79.983	19.994	100.110	19.782	22.266	0.505
429.000	294.532	79.982	19.993	100.106	19.775	22.698	0.483
430.500	295.247	79.984	19.994	100.106	19.779	22.423	0.496
432.000	296.020	79.985	19.993	100.104	19.776	22.636	0.499
433.500	296.757	79.984	19.992	100.035	19.775	22.685	0.523
435.000	297.516	79.985	19.992	100.074	19.773	22.847	0.525
436.500	298.262	79.986	19.992	100.178	19.773	22.814	0.488
438.000	299.011	79.984	19.992	100.160	19.772	22.879	0.485
439.500	299.722	79.985	19.991	100.107	19.772	22.916	0.479
441.000	300.510	79.986	19.992	100.106	19.770	23.003	0.537
442.500	301.249	79.986	19.991	100.106	19.767	23.207	0.483
444.000	302.025	79.986	19.992	100.105	19.765	23.371	0.533
445.500	302.782	79.985	19.992	100.105	19.768	23.165	0.500
447.000	303.484	79.984	19.992	100.104	19.763	23.509	0.470
448.500	304.214	79.982	19.991	100.106	19.761	23.640	0.497
450.000	305.007	79.982	19.992	100.105	19.759	23.719	0.549
451.500	305.747	79.984	19.992	100.106	19.757	23.858	0.489
453.000	306.470	79.982	19.993	100.106	19.757	23.907	0.460
454.500	307.244	79.982	19.992	100.107	19.756	23.953	0.499
456.000	308.011	79.981	19.992	100.108	19.753	24.159	0.489
457.500	308.753	79.982	19.993	100.109	19.752	24.199	0.507
459.000	309.506	79.983	19.992	100.112	19.748	24.462	0.502
460.500	310.287	79.984	19.993	100.111	19.753	24.132	0.518
462.000	311.010	79.982	19.992	100.109	19.748	24.491	0.497
463.500	311.776	79.981	19.991	100.113	19.747	24.556	0.502
465.000	312.546	79.983	19.993	100.116	19.743	24.776	0.516
466.500	313.308	79.981	19.992	100.113	19.741	24.919	0.487
468.000	314.068	79.983	19.992	100.111	19.739	25.080	0.521
469.500	314.833	79.982	19.992	100.110	19.736	25.212	0.524
471.000	315.578	79.983	19.993	100.111	19.728	25.758	0.516
472.500	316.340	79.982	19.990	100.110	19.729	25.671	0.498
474.000	317.064	79.981	19.992	100.114	19.723	26.108	0.500
475.500	317.837	79.982	19.991	100.114	19.721	26.198	0.510
477.000	318.563	79.981	19.993	100.120	19.718	26.397	0.486
478.500	319.316	79.981	19.993	100.121	19.715	26.603	0.490
480.000	320.077	79.981	19.993	100.116	19.713	26.734	0.494
481.500	320.794	79.980	19.993	100.114	19.710	26.918	0.471
483.000	321.606	79.982	19.992	100.117	19.707	27.157	0.533
484.500	322.335	79.982	19.994	100.121	19.702	27.440	0.484
486.000	323.064	79.982	19.993	100.124	19.699	27.645	0.502
487.500	323.800	79.983	19.994	100.128	19.695	27.895	0.489
489.000	324.544	79.983	19.993	100.135	19.691	28.164	0.495
490.500	325.313	79.983	19.993	100.143	19.690	28.206	0.512
492.000	326.056	79.984	19.993	100.127	19.684	28.659	0.492
493.500	326.812	79.987	19.992	100.117	19.675	29.218	0.516
495.000	327.561	79.985	19.992	100.117	19.678	29.009	0.511
496.500	328.329	79.984	19.992	100.129	19.669	29.571	0.518
498.000	329.088	79.984	19.992	100.142	19.660	30.188	0.520
499.500	329.856	79.983	19.992	100.139	19.658	30.314	0.533
501.000	330.598	79.983	19.992	100.142	19.653	30.650	0.517
502.500	331.341	79.983	19.992	100.143	19.648	30.975	0.502
504.000	332.118	79.983	19.993	100.144	19.641	31.444	0.519
505.500	332.910	79.982	19.993	100.146	19.636	31.779	0.536
507.000	333.622	79.982	19.994	100.144	19.630	32.116	0.488
508.500	334.455	79.983	19.993	100.144	19.625	32.492	0.560
510.000	335.178	79.983	19.993	100.146	19.614	33.161	0.493
511.500	335.967	79.983	19.993	100.146	19.606	33.695	0.514
513.000	336.658	79.983	19.993	100.145	19.602	33.976	0.476
514.500	337.411	79.984	19.993	100.150	19.594	34.519	0.484
516.000	338.207	79.985	19.993	100.151	19.589	34.808	0.526
517.500	338.975	79.985	19.993	100.153	19.579	35.458	0.499
519.000	339.761	79.985	19.992	100.167	19.571	35.986	0.548
520.500	340.517	79.985	19.992	100.174	19.564	36.418	0.515
522.000	341.271	79.985	19.991	100.176	19.556	36.938	0.521
523.500	342.039	79.985	19.991	100.179	19.545	37.701	0.508
525.000	342.764	79.985	19.992	100.182	19.538	38.102	0.482
526.500	343.542	79.983	19.991	100.185	19.529	38.719	0.525
528.000	344.305	79.982	19.992	100.186	19.518	39.449	0.495
529.500	345.092	79.982	19.992	100.187	19.512	39.852	0.532
531.000	345.841	79.982	19.992	100.188	19.501	40.568	0.493
532.500	346.621	79.982	19.992	100.190	19.494	40.984	0.525
534.000	347.392	79.982	19.992	100.191	19.484	41.637	0.513
535.500	348.151	79.982	19.992	100.190	19.477	42.078	0.519
537.000	348.927	79.982	19.992	100.191	19.469	42.593	0.530
538.500	349.697	79.982	19.991	100.192	19.459	43.262	0.530
540.000	350.464	79.982	19.992	100.199	19.455	43.544	0.503
541.500	351.217	79.981	19.992	100.198	19.445	44.191	0.470
543.000	351.995	79.983	19.992	100.200	19.439	44.537	0.529
544.500	352.811	79.982	19.992	100.209	19.431	45.071	0.547
546.000	353.616	79.984	19.992	100.204	19.428	45.266	0.529
547.500	354.333	79.983	19.992	100.194	19.427	45.344	0.489
549.000	355.091	79.983	19.992	100.193	19.418	45.878	0.510
550.500	355.858	79.983	19.992	100.196	19.415	46.099	0.509
552.000	356.648	79.983	19.992	100.190	19.414	46.181	0.528
553.500	357.406	79.983	19.991	100.186	19.412	46.309	0.510
555.000	358.154	79.983	19.991	100.186	19.411	46.378	0.511
556.500	358.977	79.984	19.991	100.186	19.411	46.364	0.546
558.000	359.674	79.984	19.992	100.182	19.415	46.116	0.495
559.500	360.467	79.983	19.993	100.177	19.416	46.067	0.536
561.000	361.229	79.983	19.992	100.114	19.421	45.706	0.532
562.500	362.001	79.982	19.992	100.144	19.430	45.142	0.527
564.000	362.762	79.982	19.992	100.224	19.435	44.752	0.498
565.500	363.542	79.983	19.993	100.181	19.445	44.096	0.533
567.000	364.321	79.982	19.993	100.148	19.450	43.823	0.506
568.500	365.050	79.982	19.993	100.146	19.464	42.914	0.487
570.000	365.846	79.984	19.992	100.145	19.476	42.133	0.538
571.500	366.635	79.984	19.993	100.134	19.489	41.273	0.515
573.000	367.415	79.983	19.993	100.118	19.501	40.470	0.528
574.500	368.136	79.985	19.993	100.113	19.517	39.432	0.491
576.000	368.922	79.985	19.993	100.048	19.537	38.157	0.519
577.500	369.678	79.984	19.993	100.070	19.556	36.886	0.536
579.000	370.421	79.984	19.993	100.152	19.575	35.651	0.492
580.500	371.218	79.984	19.992	100.094	19.593	34.512	0.523
582.000	371.957	79.983	19.992	100.077	19.615	33.089	0.489
583.500	372.718	79.983	19.992	100.066	19.636	31.735	0.521
585.000	373.473	79.982	19.992	100.066	19.657	30.351	0.498
586.500	374.193	79.982	19.993	100.053	19.677	29.059	0.483
588.000	374.986	79.983	19.993	100.039	19.698	27.679	0.511
589.500	375.814	79.983	19.992	100.035	19.718	26.392	0.563
591.000	376.547	79.983	19.993	100.034	19.738	25.104	0.487
592.500	377.309	79.984	19.993	100.030	19.761	23.576	0.501
594.000	378.041	79.985	19.993	100.029	19.777	22.521	0.489
595.500	378.772	79.984	19.992	100.024	19.798	21.222	0.528
597.000	379.625	79.986	19.992	100.020	19.819	19.803	0.566
598.500	380.334	79.985	19.993	100.015	19.836	18.737	0.487
600.000	381.065	79.984	19.993	100.004	19.848	17.927	0.478
601.500	381.792	79.983	19.992	99.993	19.859	17.265	0.477
603.000	382.543	79.984	19.992	99.998	19.879	15.947	0.487
604.500	383.310	79.982	19.992	99.995	19.887	15.438	0.543
606.000	384.073	79.982	19.992	99.994	19.902	14.438	0.464
607.500	384.795	79.981	19.992	99.996	19.911	13.877	0.466
609.000	385.545	79.983	19.992	99.994	19.924	13.028	0.497
610.500	386.295	79.983	19.992	99.994	19.935	12.303	0.541
612.000	386.996	79.982	19.992	99.991	19.935	12.291	0.521
613.500	387.788	79.983	19.993	99.989	19.950	11.354	0.479
615.000	388.528	79.983	19.993	99.989	19.963	10.498	0.474
616.500	389.248	79.981	19.992	99.987	19.966	10.292	0.508
618.000	390.034	79.984	19.993	99.989	19.959	10.722	0.483
619.500	390.659	79.982	19.992	99.990	19.972	9.915	0.437
621.000	391.505	79.982	19.993	99.990	19.974	9.787	0.505
622.500	392.125	79.983	19.992	99.990	19.983	9.199	0.465
624.000	392.969	79.983	19.993	99.990	19.979	9.481	0.543
625.500	393.777	79.983	19.992	99.990	19.985	9.077	0.504
627.000	394.494	79.982	19.992	99.988	19.986	9.009	0.515
628.500	395.088	79.981	19.992	99.987	19.986	8.977	0.559
630.000	395.652	79.983	19.992	99.985	19.981	9.345	0.202
631.500	396.404	79.982	19.993	99.989	19.984	9.148	0.492
633.000	397.575	79.983	19.992	99.989	19.982	9.263	0.838
634.500	398.225	79.982	19.993	99.988	19.983	9.220	0.565
636.000	399.008	79.982	19.992	99.988	19.980	9.367	0.464
637.500	399.751	79.983	19.993	99.989	19.975	9.714	0.331
639.000	400.520	79.983	19.992	99.989	19.977	9.574	0.521
640.500	401.297	79.983	19.993	99.984	19.976	9.657	0.446
642.000	402.050	79.981	19.992	99.988	19.974	9.753	0.527
643.500	402.732	79.981	19.991	99.985	19.971	9.951	0.526
645.000	403.503	79.984	19.992	99.971	19.963	10.463	0.533
646.500	404.241	79.983	19.992	99.972	19.964	10.423	0.474
648.000	404.986	79.983	19.992	99.977	19.962	10.577	0.504
649.500	405.767	79.984	19.992	99.976	19.961	10.595	0.507
651.000	406.476	79.983	19.992	99.969	19.951	11.273	0.479
652.500	407.200	79.984	19.992	99.979	19.951	11.275	0.516
654.000	407.937	79.983	19.992	99.980	19.945	11.675	0.495
655.500	408.669	79.985	19.992	99.971	19.944	11.710	0.470
657.000	409.378	79.983	19.992	99.975	19.943	11.809	0.505
658.500	410.173	79.984	19.992	99.983	19.935	12.304	0.513
660.000	410.862	79.983	19.993	99.972	19.932	12.497	0.469
661.500	411.599	79.982	19.993	99.974	19.927	12.788	0.488
663.000	412.370	79.984	19.992	99.976	19.920	13.289	0.502
664.500	413.070	79.983	19.993	99.970	19.912	13.771	0.461
666.000	413.803	79.982	19.992	99.961	19.907	14.095	0.482
667.500	414.485	79.983	19.992	99.959	19.900	14.587	0.467
669.000	415.266	79.983	19.993	99.970	19.890	15.205	0.492
670.500	415.998	79.982	19.993	99.966	19.883	15.688	0.464
672.000	416.745	79.985	19.992	99.957	19.872	16.379	0.502
673.500	417.469	79.985	19.993	99.959	19.868	16.650	0.501
675.000	418.170	79.985	19.992	99.963	19.856	17.451	0.459
676.500	418.924	79.985	19.993	99.956	19.850	17.840	0.489
678.000	419.694	79.984	19.993	99.960	19.838	18.610	0.483
679.500	420.404	79.984	19.992	99.957	19.829	19.151	0.498
681.000	421.140	79.984	19.993	99.955	19.819	19.809	0.506
682.500	421.836	79.984	19.993	99.948	19.808	20.533	0.449
684.000	422.567	79.982	19.994	99.947	19.793	21.483	0.493
685.500	423.340	79.982	19.993	99.948	19.776	22.621	0.488
687.000	424.048	79.983	19.994	99.948	19.764	23.398	0.472
688.500	424.800	79.983	19.993	99.944	19.752	24.134	0.518
690.000	425.550	79.982	19.993	99.946	19.735	25.243	0.486
691.500	426.284	79.983	19.993	99.948	19.721	26.137	0.491
693.000	426.984	79.983	19.992	99.948	19.701	27.454	0.464
694.500	427.718	79.984	19.992	99.949	19.685	28.512	0.495
696.000	428.465	79.983	19.992	99.948	19.671	29.410	0.492
697.500	429.217	79.982	19.993	99.950	19.653	30.597	0.503
699.000	429.946	79.984	19.992	99.946	19.629	32.138	0.456
700.500	430.674	79.982	19.993	99.940	19.609	33.398	0.468
702.000	431.390	79.983	19.992	99.936	19.589	34.737	0.487
703.500	432.127	79.983	19.992	99.930	19.565	36.307	0.481
705.000	432.905	79.982	19.991	99.940	19.540	37.874	0.513
706.500	433.652	79.983	19.992	99.934	19.519	39.265	0.500
708.000	434.426	79.983	19.992	99.921	19.496	40.734	0.504
709.500	435.179	79.982	19.992	99.931	19.466	42.703	0.507
711.000	435.915	79.982	19.991	99.927	19.440	44.349	0.489
712.500	436.708	79.982	19.992	99.930	19.410	46.351	0.538
714.000	437.446	79.981	19.992	99.935	19.378	48.383	0.518
715.500	438.208	79.982	19.992	99.926	19.346	50.494	0.508
717.000	438.947	79.981	19.992	99.916	19.314	52.519	0.491
718.500	439.771	79.982	19.991	99.912	19.280	54.735	0.539
720.000	440.531	79.981	19.992	99.914	19.246	56.946	0.508
721.500	441.301	79.982	19.992	99.914	19.211	59.221	0.526
723.000	442.088	79.982	19.992	99.913	19.170	61.820	0.526
724.500	442.823	79.982	19.991	99.911	19.125	64.741	0.484
726.000	443.650	79.982	19.992	99.912	19.086	67.248	0.545
727.500	444.384	79.983	19.993	99.904	19.042	70.087	0.478
729.000	445.153	79.984	19.991	99.895	18.998	72.978	0.512
730.500	445.939	79.985	19.991	99.891	18.953	75.875	0.511
732.000	446.709	79.984	19.992	99.880	18.904	79.064	0.519
733.500	447.512	79.984	19.991	99.878	18.854	82.273	0.546
735.000	448.283	79.985	19.992	99.863	18.799	85.831	0.515
736.500	449.089	79.984	19.991	99.849	18.749	89.072	0.547
738.000	449.862	79.983	19.991	99.840	18.692	92.763	0.523
739.500	450.699	79.982	19.992	99.848	18.636	96.361	0.563
741.000	451.479	79.983	19.992	99.846	18.576	100.218	0.519
742.500	452.257	79.984	19.993	99.828	18.519	103.903	0.504
744.000	453.039	79.983	19.992	99.829	18.456	107.974	0.531
745.500	453.819	79.982	19.993	99.817	18.389	112.311	0.522
747.000	454.610	79.983	19.993	99.805	18.325	116.407	0.520
748.500	455.417	79.984	19.993	99.799	18.259	120.681	0.539
750.000	456.213	79.983	19.992	99.799	18.198	124.643	0.529
751.500	457.009	79.984	19.993	99.787	18.125	129.365	0.533
753.000	457.788	79.985	19.993	99.772	18.054	133.924	0.517
754.500	458.620	79.985	19.992	99.759	17.987	138.235	0.541
756.000	459.401	79.985	19.993	99.755	17.914	142.921	0.530
757.500	460.201	79.986	19.992	99.739	17.842	147.571	0.530
759.000	460.979	79.986	19.992	99.726	17.769	152.259	0.523
760.500	461.749	79.985	19.992	99.725	17.699	156.757	0.547
762.000	462.554	79.984	19.992	99.712	17.628	161.334	0.513
763.500	463.303	79.982	19.993	99.710	17.558	165.866	0.499
765.000	464.066	79.983	19.992	99.698	17.492	170.076	0.513
766.500	464.876	79.982	19.993	99.681	17.424	174.476	0.534
768.000	465.619	79.981	19.993	99.674	17.357	178.790	0.485
769.500	466.393	79.981	19.994	99.652	17.294	182.853	0.525
771.000	467.185	79.981	19.993	99.639	17.232	186.802	0.507
772.500	467.963	79.982	19.993	99.631	17.175	190.476	0.529
774.000	468.729	79.982	19.993	99.624	17.119	194.071	0.506
775.500	469.467	79.982	19.994	99.610	17.073	197.019	0.515
777.000	470.287	79.982	19.993	99.600	17.030	199.772	0.527
778.500	471.030	79.983	19.993	99.580	16.992	202.239	0.494
780.000	471.808	79.981	19.992	99.561	16.958	204.352	0.526
781.500	472.594	79.982	19.992	99.554	16.939	205.587	0.509
783.000	473.380	79.982	19.992	99.543	16.919	206.846	0.543
784.500	474.166	79.983	19.991	99.533	16.907	207.503	0.521
786.000	474.947	79.983	19.993	99.527	16.909	207.352	0.529
787.500	475.714	79.983	19.991	99.520	16.918	207.033	0.498
789.000	476.489	79.982	19.993	99.505	16.942	205.535	0.510
790.500	477.234	79.980	19.992	99.496	16.970	203.566	0.498
792.000	478.011	79.983	19.992	99.484	17.012	200.884	0.518
793.500	478.814	79.982	19.992	99.485	17.063	197.638	0.517
795.000	479.530	79.981	19.991	99.452	17.123	193.763	0.492
796.500	480.333	79.982	19.992	99.412	17.199	188.923	0.555
798.000	481.131	79.981	19.993	99.523	17.286	183.285	0.520
799.500	481.871	79.982	19.993	99.554	17.385	176.969	0.488
801.000	482.645	79.983	19.993	99.495	17.485	170.505	0.521
802.500	483.416	79.982	19.992	99.493	17.596	163.386	0.506
804.000	484.174	79.983	19.992	99.509	17.712	155.922	0.486
805.500	484.919	79.983	19.992	99.521	17.831	148.276	0.487
807.000	485.698	79.985	19.993	99.534	17.961	139.867	0.520
808.500	486.464	79.984	19.992	99.552	18.089	131.670	0.510
810.000	487.208	79.985	19.992	99.565	18.220	123.173	0.485
811.500	487.990	79.985	19.992	99.585	18.349	114.853	0.528
813.000	488.771	79.985	19.993	99.607	18.478	106.557	0.525
814.500	489.516	79.984	19.993	99.630	18.608	98.174	0.482
816.000	490.296	79.984	19.992	99.651	18.732	90.181	0.513
817.500	491.022	79.985	19.992	99.673	18.846	82.808	0.497
819.000	491.799	79.983	19.992	99.687	18.960	75.439	0.516
820.500	492.582	79.984	19.992	99.708	19.069	68.351	0.512
822.000	493.334	79.984	19.992	99.729	19.167	62.053	0.517
823.500	494.107	79.983	19.993	99.753	19.263	55.844	0.515
825.000	494.839	79.984	19.992	99.769	19.352	50.070	0.488
826.500	495.570	79.984	19.993	99.793	19.433	44.806	0.500
828.000	496.344	79.983	19.993	99.813	19.508	39.965	0.526
829.500	497.097	79.983	19.993	99.832	19.582	35.193	0.508
831.000	497.866	79.984	19.992	99.838	19.644	31.169	0.522
832.500	498.664	79.985	19.992	99.854	19.699	27.600	0.522
834.000	499.405	79.985	19.993	99.868	19.751	24.220	0.491
835.500	500.136	79.985	19.992	99.874	19.796	21.286	0.480
837.000	500.891	79.985	19.992	99.883	19.839	18.500	0.514
838.500	501.669	79.985	19.992	99.904	19.872	16.357	0.526
840.000	502.396	79.984	19.992	99.911	19.906	14.174	0.453
841.500	503.179	79.983	19.992	99.912	19.935	12.286	0.521
843.000	503.951	79.983	19.992	99.922	19.958	10.831	0.512
844.500	504.753	79.983	19.992	99.922	19.979	9.458	0.503
846.000	505.488	79.982	19.993	99.922	19.996	8.326	0.501
847.500	506.250	79.981	19.993	99.930	20.009	7.489	0.501
849.000	506.984	79.982	19.992	99.935	20.024	6.549	0.476
850.500	507.773	79.981	19.993	99.947	20.034	5.859	0.518
852.000	508.528	79.980	19.993	99.953	20.043	5.317	0.507
853.500	509.258	79.981	19.993	99.954	20.050	4.861	0.502
855.000	510.046	79.981	19.994	99.953	20.055	4.498	0.516
856.500	510.755	79.980	19.993	99.949	20.060	4.218	0.477
858.000	511.526	79.982	19.994	99.951	20.062	4.053	0.516
859.500	512.287	79.982	19.993	99.953	20.067	3.768	0.535
861.000	513.027	79.982	19.994	99.952	20.068	3.685	0.486
862.500	513.833	79.981	19.993	99.951	20.070	3.576	0.552
864.000	514.593	79.983	19.993	99.949	20.069	3.597	0.531
865.500	515.344	79.982	19.992	99.952	20.073	3.353	0.496
867.000	516.119	79.983	19.994	99.951	20.072	3.414	0.529
868.500	516.896	79.982	19.992	99.949	20.071	3.509	0.505
870.000	517.638	79.981	19.993	99.947	20.072	3.421	0.476
871.500	518.405	79.983	19.992	99.951	20.076	3.141	0.500
873.000	519.181	79.980	19.993	99.950	20.074	3.312	0.533
874.500	519.932	79.982	19.992	99.951	20.079	2.979	0.490
876.000	520.682	79.982	19.993	99.954	20.079	2.943	0.509
877.500	521.442	79.982	19.992	99.951	20.079	2.990	0.529
879.000	522.213	79.983	19.992	99.951	20.077	3.075	0.491
880.500	522.964	79.982	19.993	99.951	20.081	2.818	0.509
882.000	523.723	79.984	19.994	99.952	20.079	2.958	0.517
883.500	524.512	79.983	19.993	99.951	20.082	2.774	0.523
885.000	525.303	79.983	19.992	99.950	20.081	2.863	0.532
886.500	526.041	79.984	19.993	99.949	20.079	2.944	0.477
888.000	526.807	79.984	19.992	99.949	20.081	2.855	0.510
889.500	527.583	79.984	19.992	99.949	20.082	2.761	0.523
891.000	528.324	79.984	19.993	99.948	20.080	2.886	0.497
892.500	529.074	79.984	19.992	99.949	20.084	2.670	0.510
894.000	529.823	79.985	19.992	99.951	20.082	2.795	0.520
895.500	530.598	79.984	19.992	99.947	20.083	2.707	0.512
897.000	531.414	79.984	19.992	99.947	20.084	2.622	0.556
898.500	532.155	79.983	19.992	99.953	20.084	2.633	0.477
900.000	532.931	79.984	19.992	99.954	20.086	2.533	0.528
901.500	533.732	79.984	19.992	99.954	20.087	2.441	0.543
903.000	534.483	79.983	19.991	99.953	20.085	2.575	0.498
904.500	535.271	79.984	19.992	99.953	20.085	2.555	0.534
906.000	536.014	79.983	19.992	99.951	20.084	2.642	0.509
907.500	536.799	79.985	19.991	99.950	20.089	2.320	0.520
909.000	537.530	79.985	19.992	99.952	20.086	2.510	0.488
910.500	538.321	79.984	19.992	99.952	20.085	2.554	0.524
912.000	539.122	79.984	19.993	99.952	20.087	2.446	0.541
913.500	539.832	79.985	19.992	99.954	20.086	2.541	0.464
915.000	540.625	79.984	19.992	99.953	20.085	2.564	0.503
916.500	541.395	79.983	19.992	99.952	20.085	2.591	0.516
918.000	542.167	79.983	19.993	99.952	20.086	2.522	0.509
919.500	542.916	79.982	19.993	99.955	20.087	2.466	0.492
921.000	543.691	79.983	19.993	99.955	20.084	2.619	0.535
922.500	544.441	79.983	19.992	99.952	20.086	2.478	0.499
924.000	545.215	79.985	19.993	99.952	20.083	2.703	0.516
925.500	546.002	79.981	19.992	99.950	20.088	2.411	0.518
927.000	546.765	79.983	19.991	99.950	20.089	2.295	0.517
928.500	547.507	79.981	19.993	99.950	20.088	2.356	0.498
930.000	548.276	79.982	19.993	99.950	20.090	2.233	0.496
931.500	549.042	79.982	19.992	99.953	20.087	2.460	0.502
933.000	549.820	79.982	19.992	99.953	20.089	2.305	0.512
934.500	550.596	79.982	19.993	99.948	20.087	2.436	0.513
936.000	551.366	79.982	19.992	99.948	20.090	2.235	0.507
937.501	552.167	79.982	19.992	99.953	20.091	2.214	0.535
939.000	552.914	79.982	19.993	99.950	20.088	2.355	0.509
940.500	553.686	79.982	19.993	99.949	20.090	2.244	0.534
942.000	554.487	79.983	19.994	99.949	20.088	2.363	0.536
943.500	555.274	79.983	19.994	99.948	20.089	2.339	0.519
945.000	556.009	79.982	19.994	99.949	20.090	2.219	0.489
946.500	556.784	79.983	19.993	99.948	20.091	2.188	0.518
948.000	557.526	79.982	19.994	99.948	20.087	2.434	0.497
949.500	558.296	79.981	19.993	99.950	20.089	2.343	0.514
951.000	559.081	79.983	19.994	99.950	20.088	2.411	0.523
952.500	559.849	79.981	19.993	99.947	20.085	2.603	0.518
954.000	560.612	79.983	19.992	99.946	20.090	2.281	0.512
955.500	561.342	79.983	19.992	99.947	20.089	2.321	0.492
957.000	562.066	79.983	19.993	99.953	20.088	2.386	0.475
958.500	562.860	79.983	19.993	99.954	20.087	2.413	0.522
960.000	563.621	79.984	19.993	99.953	20.092	2.117	0.475
961.500	564.370	79.983	19.992	99.956	20.090	2.253	0.497
963.000	565.120	79.985	19.992	99.956	20.091	2.177	0.511
964.500	565.853	79.984	19.992	99.946	20.089	2.309	0.488
966.000	566.663	79.984	19.992	99.948	20.093	2.066	0.577
967.500	567.343	79.985	19.992	99.953	20.086	2.483	0.448
969.000	568.144	79.985	19.992	99.952	20.089	2.297	0.516
970.500	568.889	79.983	19.992	99.951	20.091	2.170	0.497
972.000	569.658	79.982	19.992	99.950	20.092	2.124	0.520
973.500	570.457	79.984	19.992	99.951	20.090	2.270	0.533
975.000	571.165	79.984	19.992	99.953	20.094	2.013	0.474
976.500	571.963	79.984	19.993	99.953	20.089	2.291	0.524
978.000	572.720	79.983	19.992	99.953	20.090	2.246	0.507
979.500	573.504	79.983	19.992	99.948	20.092	2.094	0.529
981.000	574.295	79.983	19.992	99.952	20.089	2.346	0.524
982.500	575.094	79.984	19.991	99.952	20.089	2.335	0.534
984.000	575.848	79.984	19.992	99.952	20.092	2.147	0.500
985.500	576.639	79.985	19.991	99.953	20.091	2.163	0.545
987.000	577.407	79.985	19.992	99.952	20.091	2.179	0.528
988.500	578.184	79.986	19.992	99.951	20.092	2.107	0.538
990.000	578.927	79.986	19.991	99.950	20.090	2.219	0.501
991.500	579.701	79.986	19.991	99.949	20.089	2.344	0.512
993.000	580.445	79.985	19.992	99.948	20.093	2.086	0.486
994.500	581.230	79.983	19.992	99.948	20.090	2.277	0.546
996.000	581.974	79.983	19.991	99.949	20.088	2.379	0.484
997.500	582.755	79.984	19.992	99.949	20.093	2.036	0.514
999.000	583.472	79.982	19.993	99.946	20.095	1.945	0.490
1000.500	584.283	79.982	19.993	99.952	20.088	2.369	0.526
1002.000	585.001	79.982	19.992	99.962	20.093	2.063	0.482
1003.500	585.812	79.981	19.993	99.959	20.091	2.168	0.517
1005.000	586.550	79.982	19.993	99.950	20.096	1.841	0.508
1006.500	587.275	79.982	19.992	99.952	20.092	2.149	0.460
1008.000	588.066	79.981	19.993	99.953	20.094	1.992	0.519
1009.500	588.822	79.983	19.993	99.950	20.093	2.056	0.521
1011.000	589.592	79.983	19.992	99.950	20.093	2.024	0.521
1012.500	590.375	79.983	19.993	99.950	20.090	2.225	0.504
1014.000	591.119	79.983	19.993	99.949	20.092	2.145	0.494
1015.500	591.873	79.982	19.992	99.951	20.091	2.214	0.508
1017.000	592.660	79.982	19.992	99.952	20.092	2.105	0.548
1018.500	593.399	79.983	19.993	99.950	20.092	2.089	0.506
1020.000	594.218	79.982	19.992	99.952	20.095	1.943	0.534
1021.500	594.968	79.983	19.993	99.952	20.094	2.006	0.505
1023.000	595.746	79.983	19.992	99.954	20.091	2.175	0.501
1024.499	596.532	79.982	19.993	99.953	20.096	1.883	0.531
1025.999	597.251	79.981	19.992	99.954	20.091	2.181	0.496
1027.499	598.072	79.982	19.993	99.954	20.093	2.079	0.518
1028.999	598.844	79.982	19.993	99.953	20.093	2.029	0.528
1030.500	599.626	79.981	19.994	99.953	20.094	2.001	0.519
1032.000	600.376	79.981	19.994	99.952	20.096	1.894	0.502
1033.499	601.131	79.983	19.994	99.951	20.095	1.911	0.531
1035.000	601.899	79.981	19.993	99.952	20.094	2.019	0.509
1036.499	602.668	79.981	19.992	99.952	20.094	1.968	0.506
1037.999	603.416	79.982	19.992	99.953	20.095	1.929	0.521
1039.499	604.214	79.982	19.993	99.954	20.094	2.019	0.526
1040.999	604.971	79.983	19.992	99.952	20.098	1.749	0.502
1042.499	605.756	79.983	19.992	99.952	20.096	1.844	0.511
1043.999	606.574	79.983	19.992	99.955	20.096	1.851	0.540
1045.499	607.276	79.984	19.992	99.954	20.094	1.969	0.472
1046.999	608.068	79.984	19.992	99.950	20.095	1.915	0.521
1048.499	608.882	79.983	19.991	99.952	20.094	2.013	0.529
1049.999	609.633	79.983	19.992	99.954	20.098	1.730	0.505
1051.500	610.404	79.983	19.991	99.950	20.094	1.971	0.526
1052.999	611.157	79.983	19.992	99.950	20.094	1.994	0.501
1054.499	611.933	79.984	19.993	99.950	20.097	1.792	0.539
1055.999	612.672	79.983	19.993	99.950	20.096	1.843	0.508
1057.499	613.491	79.983	19.991	99.950	20.094	2.020	0.541
1058.999	614.308	79.984	19.992	99.948	20.096	1.830	0.535
1060.500	615.107	79.982	19.992	99.948	20.095	1.911	0.517
1061.999	615.849	79.984	19.992	99.951	20.093	2.068	0.509
1063.499	616.643	79.983	19.992	99.948	20.096	1.864	0.512
1064.999	617.423	79.984	19.992	99.949	20.096	1.844	0.517
1066.499	618.214	79.985	19.992	99.949	20.095	1.927	0.532
1068.000	618.969	79.985	19.993	99.948	20.092	2.124	0.507
1069.501	619.744	79.986	19.991	99.949	20.096	1.834	0.520
1070.999	620.542	79.984	19.992	99.945	20.098	1.704	0.531
1072.499	621.348	79.984	19.992	99.944	20.099	1.688	0.530
1073.999	622.095	79.984	19.992	99.949	20.099	1.660	0.490
1075.499	622.862	79.984	19.992	99.949	20.099	1.679	0.505
1076.999	623.644	79.984	19.993	99.948	20.094	1.966	0.526
1078.499	624.434	79.983	19.991	99.949	20.097	1.802	0.514
1079.999	625.207	79.983	19.992	99.952	20.097	1.820	0.542
1081.499	625.982	79.982	19.992	99.952	20.099	1.693	0.500
1082.999	626.741	79.982	19.992	99.952	20.097	1.772	0.497
1084.499	627.543	79.983	19.993	99.954	20.098	1.704	0.514
1085.999	628.290	79.983	19.993	99.960	20.100	1.621	0.482
1087.499	629.075	79.982	19.993	99.957	20.099	1.647	0.536
1089.000	629.842	79.982	19.994	99.947	20.100	1.607	0.506
1090.499	630.596	79.981	19.993	99.950	20.101	1.561	0.503
1091.999	631.342	79.979	19.993	99.955	20.102	1.492	0.502
1093.500	632.093	79.982	19.993	99.951	20.101	1.565	0.510
1095.000	632.918	79.983	19.994	99.949	20.097	1.770	0.552
1096.500	633.650	79.982	19.993	99.950	20.102	1.491	0.498
1097.999	634.439	79.981	19.993	99.952	20.103	1.436	0.528
1099.499	635.226	79.982	19.992	99.952	20.101	1.521	0.530
1100.999	635.979	79.982	19.993	99.952	20.099	1.686	0.515
1102.499	636.765	79.981	19.992	99.953	20.098	1.725	0.508
1103.999	637.503	79.982	19.992	99.953	20.101	1.559	0.518
1105.499	638.270	79.982	19.993	99.952	20.098	1.714	0.522
1106.999	639.043	79.981	19.993	99.950	20.098	1.716	0.520
1108.499	639.800	79.981	19.993	99.949	20.101	1.526	0.497
1109.999	640.539	79.983	19.993	99.954	20.103	1.404	0.482
1111.500	641.286	79.982	19.994	99.953	20.100	1.633	0.491
1112.999	642.038	79.982	19.994	99.951	20.099	1.681	0.511
1114.499	642.784	79.981	19.994	99.950	20.101	1.528	0.500
1115.999	643.494	79.982	19.994	99.945	20.101	1.552	0.464
1117.499	644.203	79.983	19.994	99.945	20.102	1.487	0.471
1118.999	644.960	79.981	19.993	99.948	20.099	1.661	0.494
1120.499	645.708	79.983	19.993	99.943	20.098	1.737	0.495
1121.999	646.473	79.983	19.993	99.944	20.102	1.499	0.489
1123.499	647.264	79.983	19.993	99.946	20.101	1.556	0.521
1124.999	647.998	79.984	19.992	99.947	20.102	1.496	0.494
1126.500	648.736	79.984	19.993	99.949	20.101	1.519	0.493
1127.999	649.481	79.983	19.992	99.947	20.105	1.309	0.503
1129.499	650.232	79.984	19.992	99.950	20.098	1.746	0.503
1131.000	651.003	79.983	19.993	99.949	20.103	1.436	0.504
1132.499	651.714	79.983	19.992	99.948	20.100	1.626	0.475
1134.000	652.471	79.983	19.992	99.946	20.102	1.492	0.504
1135.499	653.219	79.984	19.993	99.949	20.101	1.528	0.515
1136.999	653.999	79.984	19.993	99.950	20.101	1.565	0.520
1138.499	654.736	79.984	19.992	99.949	20.102	1.461	0.479
1140.000	655.545	79.984	19.991	99.948	20.100	1.609	0.527
1141.499	656.301	79.982	19.992	99.945	20.102	1.501	0.497
1142.999	657.093	79.985	19.993	99.948	20.101	1.526	0.530
1144.499	657.918	79.984	19.992	99.949	20.104	1.373	0.598
1145.999	658.574	79.986	19.992	99.949	20.103	1.406	0.427
1147.500	659.324	79.986	19.992	99.950	20.105	1.302	0.506
1148.999	660.119	79.984	19.992	99.951	20.104	1.323	0.518
1150.499	660.915	79.985	19.992	99.949	20.106	1.227	0.532
1152.000	661.707	79.984	19.992	99.950	20.109	1.051	0.527
1153.499	662.474	79.982	19.993	99.952	20.107	1.155	0.488
1154.999	663.194	79.981	19.992	99.948	20.109	1.019	0.480
1156.499	663.958	79.982	19.992	99.948	20.104	1.346	0.521
1157.999	664.762	79.983	19.992	99.951	20.104	1.373	0.547
1159.499	665.531	79.981	19.992	99.953	20.104	1.355	0.497
1161.000	666.267	79.981	19.992	99.951	20.108	1.088	0.497
1162.499	667.071	79.984	19.992	99.951	20.103	1.390	0.523
1164.000	667.805	79.983	19.992	99.953	20.106	1.220	0.494
1165.499	668.601	79.982	19.991	99.952	20.102	1.447	0.524
1166.999	669.393	79.982	19.992	99.949	20.104	1.313	0.527
1168.500	670.127	79.983	19.992	99.952	20.107	1.128	0.494
1169.999	670.848	79.983	19.992	99.954	20.109	1.047	0.480
1171.500	671.635	79.982	19.992	99.950	20.104	1.337	0.514
1173.000	672.382	79.983	19.993	99.949	20.105	1.301	0.515
1174.499	673.185	79.983	19.993	99.951	20.107	1.179	0.548
1175.999	673.934	79.983	19.993	99.946	20.106	1.206	0.505
1177.499	674.734	79.983	19.994	99.936	20.104	1.320	0.531
1178.999	675.473	79.983	19.994	99.944	20.104	1.311	0.504
1180.499	676.243	79.983	19.993	99.943	20.105	1.299	0.504
1181.999	676.977	79.983	19.993	99.942	20.105	1.290	0.485
1183.499	677.758	79.983	19.993	99.945	20.103	1.381	0.517
1184.999	678.480	79.983	19.993	99.948	20.102	1.487	0.467
1186.499	679.245	79.982	19.992	99.949	20.105	1.260	0.506
1187.999	679.998	79.983	19.992	99.949	20.104	1.362	0.502
1189.499	680.774	79.982	19.993	99.946	20.105	1.262	0.515
1190.999	681.513	79.982	19.993	99.943	20.104	1.343	0.497
1192.499	682.242	79.983	19.993	99.944	20.103	1.401	0.498
1194.000	683.024	79.984	19.994	99.947	20.099	1.654	0.522
1195.499	683.777	79.984	19.993	99.947	20.101	1.545	0.498
1196.999	684.514	79.983	19.993	99.947	20.102	1.455	0.498
1198.499	685.289	79.984	19.994	99.945	20.103	1.394	0.488
1199.999	686.064	79.984	19.993	99.936	20.103	1.432	0.501
1201.499	686.800	79.984	19.993	99.936	20.105	1.297	0.455
1203.000	687.594	79.984	19.993	99.948	20.103	1.378	0.506
1204.499	688.278	79.984	19.994	99.946	20.106	1.232	0.450
1206.000	689.086	79.983	19.992	99.948	20.101	1.517	0.539
1207.499	689.828	79.983	19.993	99.949	20.101	1.563	0.499
1208.999	690.587	79.984	19.993	99.941	20.101	1.538	0.493
1210.499	691.344	79.982	19.993	99.939	20.107	1.123	0.525
1211.999	692.097	79.983	19.993	99.948	20.101	1.526	0.502
1213.499	692.826	79.985	19.992	99.943	20.105	1.271	0.495
1214.999	693.621	79.985	19.992	99.941	20.106	1.197	0.516
1216.499	694.362	79.983	19.992	99.948	20.104	1.360	0.508
1218.000	695.099	79.983	19.992	99.950	20.105	1.295	0.507
1219.499	695.850	79.985	19.992	99.951	20.105	1.257	0.512
1221.000	696.605	79.984	19.992	99.951	20.105	1.272	0.514
1222.499	697.305	79.986	19.992	99.948	20.102	1.448	0.470
1223.999	698.054	79.985	19.992	99.946	20.102	1.496	0.507
1225.499	698.807	79.985	19.991	99.951	20.102	1.503	0.503
1226.999	699.587	79.985	19.992	99.949	20.103	1.427	0.522
1228.499	700.313	79.984	19.992	99.950	20.100	1.582	0.467
1229.999	701.069	79.985	19.992	99.951	20.105	1.286	0.517
1231.499	701.862	79.985	19.993	99.943	20.107	1.162	0.524
1233.000	702.589	79.983	19.992	99.942	20.103	1.429	0.492
1234.499	703.294	79.983	19.992	99.950	20.104	1.353	0.473
1235.999	704.062	79.983	19.993	99.942	20.106	1.207	0.516
1237.500	704.756	79.982	19.992	99.942	20.105	1.265	0.473
1239.000	705.527	79.983	19.992	99.949	20.103	1.396	0.520
1240.500	706.270	79.983	19.992	99.948	20.103	1.385	0.492
1241.999	707.043	79.984	19.992	99.948	20.104	1.362	0.519
1243.500	707.796	79.982	19.992	99.950	20.107	1.144	0.486
1244.999	708.549	79.984	19.991	99.948	20.106	1.209	0.513
1246.499	709.276	79.983	19.993	99.947	20.105	1.258	0.509
1248.000	710.028	79.984	19.993	99.949	20.102	1.443	0.492
1249.499	710.800	79.982	19.992	99.951	20.103	1.380	0.516
1250.999	711.541	79.984	19.992	99.948	20.105	1.248	0.477
1252.500	712.270	79.984	19.992	99.943	20.103	1.394	0.484
1254.000	713.046	79.983	19.993	99.949	20.105	1.293	0.520
1255.499	713.795	79.983	19.992	99.950	20.105	1.267	0.509
1256.999	714.547	79.982	19.993	99.948	20.105	1.274	0.506
1258.500	715.356	79.983	19.993	99.945	20.104	1.357	0.518
1259.999	716.129	79.983	19.993	99.946	20.105	1.299	0.510
1261.499	716.899	79.983	19.993	99.948	20.106	1.228	0.483
1262.999	717.649	79.982	19.993	99.949	20.106	1.219	0.504
1264.499	718.413	79.982	19.993	99.947	20.106	1.239	0.501
1265.999	719.163	79.982	19.992	99.949	20.102	1.462	0.523
1267.500	719.893	79.981	19.993	99.950	20.106	1.207	0.516
1268.999	720.652	79.982	19.993	99.950	20.105	1.255	0.522
1270.500	721.405	79.982	19.992	99.948	20.106	1.209	0.498
1271.999	722.162	79.982	19.992	99.948	20.106	1.218	0.500
1273.499	722.924	79.982	19.993	99.939	20.101	1.529	0.518
1275.000	723.692	79.983	19.992	99.941	20.105	1.302	0.503
1276.499	724.442	79.982	19.992	99.936	20.105	1.281	0.542
1277.999	725.225	79.984	19.992	99.942	20.106	1.237	0.502
1279.499	725.966	79.983	19.992	99.953	20.107	1.169	0.503
1281.000	726.683	79.983	19.993	99.952	20.103	1.417	0.490
1282.499	727.489	79.982	19.993	99.951	20.105	1.302	0.524
1284.000	728.230	79.982	19.993	99.952	20.108	1.107	0.492
1285.499	728.994	79.983	19.993	99.950	20.102	1.462	0.539
1286.999	729.746	79.982	19.993	99.945	20.105	1.251	0.490
1288.500	730.520	79.982	19.993	99.949	20.106	1.193	0.509
1289.999	731.261	79.983	19.993	99.950	20.107	1.176	0.507
1291.499	732.032	79.982	19.992	99.948	20.106	1.232	0.501
1292.999	732.800	79.984	19.993	99.951	20.107	1.123	0.519
1294.499	733.550	79.981	19.993	99.950	20.103	1.381	0.523
1295.999	734.268	79.983	19.993	99.946	20.105	1.306	0.467
1297.499	735.043	79.984	19.992	99.948	20.103	1.436	0.520
1298.999	735.804	79.985	19.992	99.945	20.102	1.459	0.505
1300.499	736.523	79.986	19.992	99.945	20.102	1.445	0.510
1301.999	737.314	79.986	19.991	99.946	20.104	1.325	0.496
1303.499	738.075	79.985	19.992	99.949	20.103	1.396	0.516
1304.999	738.787	79.986	19.992	99.947	20.103	1.436	0.478
1306.500	739.532	79.984	19.992	99.948	20.099	1.656	0.496
1307.999	740.334	79.984	19.992	99.949	20.101	1.556	0.539
1309.499	741.059	79.984	19.992	99.948	20.103	1.381	0.486
1310.999	741.794	79.985	19.992	99.948	20.102	1.477	0.490
1312.499	742.537	79.982	19.993	99.948	20.101	1.533	0.506
1313.999	743.298	79.982	19.992	99.948	20.098	1.730	0.509
1314.499	743.558	79.983	19.993	99.949	20.102	1.447	0.483