File: 01_Data/Composite_Deck_Board/MCC/Composite_Deck_Board_30K_min_210609_R3.txt
Sample ID:	C:\MCC\MCC Cal\Test\TREX_Board\TREX_Board_30_3.txt
Sample Weight (mg):	4.32
Heating Rate (C/s):	0.5
Combustor Temp (C):	900
N2 Flow Rate (cc/min):	80
O2 Flow Rate (cc/min):	20
Calibration File:	C:\MCC\MCC Cal\Coeff1 JN10440_30_210304.txt.txt
T Correction Coefficients:	0	1.024463	0
Time Shift (s):	14
*
Time (s)	Temperature (C)	N2 flow rate (cc/min)	O2 flow rate (cc/min)	Flow Rate (cc/min)	Oxygen (%)	HRR (W/g)	Heating rate (C/s)
0.000	113.566	79.982	19.993	99.850	20.141	-0.004	-0.002
1.500	113.553	79.982	19.992	99.852	20.143	-0.110	0.001
3.000	113.591	79.984	19.993	99.861	20.143	-0.145	0.035
4.500	113.555	79.983	19.993	99.867	20.140	0.106	-0.031
6.000	113.574	79.984	19.993	99.863	20.137	0.282	0.015
7.500	113.556	79.985	19.993	99.847	20.141	0.027	-0.013
9.000	113.517	79.984	19.993	99.846	20.141	0.006	-0.015
10.501	113.506	79.983	19.994	99.853	20.142	-0.041	-0.032
12.000	113.477	79.985	19.992	99.864	20.140	0.076	-0.013
13.500	113.488	79.983	19.992	99.864	20.142	-0.065	-0.014
15.000	113.491	79.983	19.993	99.867	20.141	-0.018	0.015
16.500	113.451	79.982	19.993	99.870	20.139	0.184	-0.003
18.000	113.449	79.984	19.991	99.872	20.138	0.202	-0.012
19.500	113.425	79.984	19.992	99.891	20.135	0.470	-0.010
21.000	113.430	79.982	19.992	99.903	20.137	0.335	0.008
22.500	113.407	79.983	19.992	99.924	20.130	0.814	-0.009
24.000	113.476	79.985	19.992	99.930	20.125	1.151	0.019
25.500	113.502	79.985	19.991	99.941	20.126	1.083	0.012
27.000	113.546	79.985	19.993	99.948	20.123	1.334	0.037
28.500	113.574	79.987	19.992	99.952	20.120	1.505	0.023
30.000	113.667	79.985	19.993	99.980	20.110	2.248	0.055
31.500	113.752	79.986	19.992	100.011	20.107	2.454	0.061
33.000	113.854	79.985	19.992	100.029	20.106	2.513	0.072
34.500	113.985	79.983	19.992	100.040	20.102	2.863	0.087
36.000	114.126	79.983	19.992	100.052	20.100	2.989	0.109
37.500	114.251	79.982	19.993	100.065	20.095	3.328	0.093
39.000	114.423	79.983	19.993	100.066	20.094	3.441	0.103
40.500	114.640	79.981	19.993	100.066	20.090	3.667	0.147
42.001	114.919	79.982	19.993	100.067	20.093	3.449	0.181
43.500	115.118	79.982	19.992	100.068	20.090	3.692	0.135
45.000	115.369	79.981	19.991	100.073	20.091	3.614	0.186
46.500	115.660	79.983	19.991	100.083	20.089	3.806	0.189
48.000	115.917	79.983	19.992	100.095	20.092	3.586	0.171
49.500	116.260	79.984	19.993	100.083	20.092	3.547	0.231
51.001	116.594	79.982	19.991	100.077	20.087	3.916	0.228
52.500	116.914	79.983	19.992	100.077	20.088	3.848	0.227
54.000	117.268	79.983	19.991	100.076	20.088	3.814	0.241
55.501	117.636	79.980	19.991	100.070	20.090	3.696	0.250
57.000	117.991	79.983	19.993	100.069	20.090	3.695	0.249
58.500	118.368	79.982	19.992	100.071	20.090	3.722	0.230
60.001	118.757	79.982	19.993	100.071	20.088	3.856	0.265
61.500	119.195	79.980	19.993	100.078	20.087	3.888	0.290
63.001	119.610	79.981	19.993	100.081	20.090	3.691	0.269
64.500	120.041	79.982	19.993	100.076	20.089	3.782	0.286
66.000	120.487	79.981	19.993	100.075	20.090	3.682	0.302
67.501	120.901	79.983	19.993	100.070	20.089	3.776	0.259
69.000	121.349	79.982	19.993	100.022	20.088	3.833	0.292
70.500	121.850	79.981	19.993	100.109	20.089	3.776	0.336
72.001	122.320	79.982	19.992	100.162	20.090	3.731	0.318
73.500	122.796	79.982	19.992	100.103	20.089	3.798	0.326
75.001	123.277	79.983	19.991	100.098	20.089	3.769	0.309
76.501	123.792	79.982	19.993	100.102	20.088	3.811	0.345
78.000	124.324	79.982	19.992	100.107	20.089	3.761	0.356
79.501	124.869	79.983	19.992	100.105	20.085	4.071	0.360
81.000	125.409	79.984	19.994	100.109	20.084	4.126	0.379
82.500	125.942	79.984	19.993	100.108	20.082	4.261	0.366
84.000	126.507	79.984	19.993	100.117	20.086	4.016	0.370
85.501	127.044	79.983	19.993	100.125	20.084	4.104	0.372
87.000	127.587	79.983	19.994	100.114	20.081	4.383	0.351
88.500	128.194	79.984	19.993	100.110	20.081	4.322	0.402
90.001	128.793	79.983	19.995	100.114	20.081	4.351	0.378
91.500	129.418	79.983	19.994	100.115	20.080	4.455	0.404
93.000	129.982	79.982	19.994	100.120	20.080	4.441	0.378
94.500	130.593	79.981	19.994	100.121	20.080	4.428	0.404
96.000	131.245	79.982	19.993	100.110	20.079	4.479	0.422
97.500	131.891	79.983	19.993	100.109	20.080	4.455	0.413
99.000	132.520	79.982	19.993	100.109	20.082	4.298	0.410
100.500	133.166	79.983	19.992	100.109	20.082	4.245	0.436
102.000	133.797	79.984	19.993	100.109	20.082	4.294	0.438
103.500	134.434	79.982	19.991	100.106	20.082	4.253	0.428
105.000	135.077	79.983	19.991	100.114	20.080	4.400	0.415
106.500	135.752	79.985	19.992	100.115	20.080	4.406	0.458
108.000	136.411	79.984	19.991	100.109	20.080	4.391	0.433
109.500	137.091	79.984	19.992	100.112	20.077	4.642	0.457
111.000	137.774	79.986	19.990	100.110	20.073	4.899	0.449
112.500	138.448	79.983	19.993	100.114	20.077	4.667	0.449
114.000	139.168	79.983	19.991	100.117	20.075	4.764	0.470
115.500	139.813	79.984	19.993	100.110	20.076	4.691	0.424
117.000	140.524	79.984	19.992	100.110	20.079	4.526	0.483
118.500	141.240	79.980	19.992	100.111	20.078	4.559	0.473
120.000	141.880	79.983	19.993	100.111	20.078	4.595	0.441
121.500	142.606	79.981	19.992	100.118	20.079	4.483	0.482
123.001	143.338	79.980	19.991	100.116	20.079	4.473	0.496
124.501	144.011	79.982	19.991	100.111	20.082	4.294	0.438
126.001	144.779	79.983	19.992	100.115	20.081	4.343	0.502
127.500	145.465	79.980	19.992	100.111	20.082	4.253	0.453
129.000	146.157	79.982	19.992	100.109	20.082	4.253	0.455
130.500	146.911	79.985	19.992	100.113	20.080	4.453	0.503
132.000	147.663	79.982	19.991	100.111	20.079	4.530	0.491
133.500	148.359	79.983	19.992	100.109	20.082	4.274	0.479
135.000	149.103	79.983	19.991	100.107	20.080	4.416	0.501
136.500	149.886	79.983	19.992	100.107	20.081	4.365	0.518
138.000	150.632	79.982	19.992	100.106	20.079	4.461	0.504
139.500	151.362	79.984	19.992	100.109	20.077	4.667	0.476
141.000	152.071	79.982	19.992	100.109	20.080	4.430	0.473
142.500	152.825	79.982	19.993	100.111	20.080	4.398	0.496
144.000	153.590	79.982	19.992	100.110	20.083	4.235	0.511
145.500	154.282	79.982	19.992	100.105	20.082	4.294	0.468
147.000	155.014	79.982	19.993	100.104	20.082	4.272	0.506
148.500	155.746	79.982	19.992	100.103	20.080	4.390	0.496
150.000	156.491	79.983	19.993	100.106	20.081	4.363	0.516
151.500	157.260	79.984	19.993	100.106	20.078	4.539	0.525
153.000	157.964	79.983	19.994	100.105	20.080	4.443	0.479
154.500	158.718	79.983	19.993	100.107	20.075	4.790	0.494
156.000	159.464	79.983	19.993	100.105	20.080	4.427	0.516
157.500	160.209	79.984	19.993	100.103	20.079	4.502	0.497
159.000	160.972	79.984	19.993	100.103	20.078	4.592	0.507
160.500	161.744	79.983	19.992	100.103	20.079	4.466	0.504
162.000	162.543	79.985	19.992	100.103	20.079	4.506	0.532
163.500	163.267	79.985	19.992	100.103	20.078	4.574	0.503
165.000	164.002	79.983	19.993	100.092	20.079	4.497	0.483
166.500	164.747	79.982	19.992	100.088	20.078	4.538	0.469
168.000	165.470	79.983	19.992	100.096	20.080	4.439	0.471
169.500	166.320	79.984	19.992	100.091	20.081	4.347	0.561
171.000	167.051	79.984	19.993	100.087	20.077	4.653	0.488
172.500	167.772	79.983	19.993	100.099	20.080	4.449	0.471
174.000	168.568	79.982	19.994	100.100	20.080	4.410	0.509
175.500	169.312	79.980	19.993	100.089	20.077	4.623	0.490
177.000	170.102	79.982	19.994	100.078	20.078	4.531	0.526
178.500	170.825	79.982	19.993	100.089	20.077	4.643	0.493
180.000	171.539	79.983	19.993	100.096	20.079	4.490	0.467
181.500	172.306	79.985	19.993	100.098	20.077	4.668	0.503
183.000	173.045	79.983	19.992	100.098	20.078	4.556	0.475
184.500	173.823	79.984	19.992	100.096	20.077	4.607	0.510
186.000	174.557	79.984	19.994	100.096	20.077	4.619	0.487
187.500	175.324	79.984	19.992	100.089	20.074	4.852	0.522
189.000	176.032	79.984	19.991	100.084	20.075	4.773	0.500
190.500	176.765	79.984	19.992	100.087	20.075	4.801	0.474
192.001	177.549	79.983	19.992	100.085	20.078	4.567	0.515
193.500	178.302	79.981	19.992	100.076	20.078	4.581	0.491
195.001	179.043	79.985	19.993	100.085	20.078	4.544	0.491
196.500	179.766	79.981	19.992	100.079	20.081	4.371	0.502
198.000	180.509	79.980	19.992	100.071	20.075	4.773	0.477
199.500	181.253	79.982	19.991	100.072	20.077	4.606	0.510
201.000	182.027	79.983	19.992	100.075	20.079	4.518	0.495
202.500	182.770	79.982	19.992	100.075	20.076	4.679	0.504
204.000	183.457	79.984	19.992	100.074	20.077	4.657	0.487
205.500	184.250	79.981	19.992	100.070	20.078	4.593	0.526
207.000	184.981	79.983	19.992	100.074	20.075	4.781	0.480
208.500	185.818	79.983	19.992	100.069	20.075	4.775	0.556
210.001	186.518	79.981	19.992	100.068	20.076	4.726	0.492
211.500	187.266	79.982	19.993	100.068	20.078	4.585	0.492
213.000	187.972	79.983	19.992	100.069	20.075	4.791	0.474
214.500	188.734	79.982	19.992	100.069	20.076	4.724	0.492
216.000	189.508	79.982	19.992	100.066	20.077	4.663	0.529
217.500	190.199	79.982	19.992	100.065	20.074	4.822	0.471
219.000	190.978	79.985	19.992	100.067	20.076	4.683	0.497
220.500	191.682	79.985	19.992	100.066	20.077	4.648	0.481
222.000	192.432	79.984	19.992	100.065	20.075	4.748	0.506
223.500	193.210	79.983	19.992	100.066	20.071	5.046	0.517
225.000	193.934	79.981	19.992	100.067	20.076	4.675	0.488
226.500	194.636	79.982	19.992	100.070	20.076	4.742	0.489
228.000	195.375	79.982	19.992	100.068	20.074	4.834	0.496
229.500	196.110	79.982	19.992	100.068	20.075	4.787	0.498
231.000	196.809	79.982	19.992	100.069	20.071	5.046	0.458
232.500	197.579	79.982	19.992	100.069	20.071	5.040	0.511
234.000	198.281	79.980	19.992	100.070	20.071	5.057	0.500
235.500	199.042	79.982	19.992	100.070	20.070	5.138	0.512
237.000	199.709	79.983	19.992	100.068	20.068	5.321	0.464
238.500	200.496	79.982	19.992	100.068	20.070	5.132	0.514
240.000	201.203	79.982	19.992	100.068	20.069	5.185	0.464
241.500	201.936	79.983	19.993	100.070	20.065	5.507	0.486
243.000	202.644	79.983	19.993	100.071	20.066	5.427	0.479
244.500	203.396	79.983	19.992	100.066	20.065	5.491	0.510
246.000	204.132	79.986	19.993	100.066	20.066	5.440	0.519
247.500	204.869	79.984	19.992	100.067	20.067	5.375	0.505
249.000	205.568	79.982	19.991	100.070	20.063	5.638	0.465
250.500	206.335	79.984	19.992	100.068	20.067	5.360	0.532
252.000	207.040	79.982	19.992	100.068	20.060	5.842	0.478
253.500	207.775	79.983	19.992	100.070	20.064	5.560	0.484
255.000	208.504	79.982	19.993	100.070	20.063	5.677	0.490
256.500	209.241	79.984	19.992	100.070	20.061	5.787	0.499
258.000	209.941	79.982	19.992	100.069	20.065	5.532	0.471
259.500	210.693	79.981	19.992	100.067	20.057	6.052	0.510
261.000	211.398	79.984	19.993	100.067	20.064	5.567	0.465
262.500	212.139	79.985	19.993	100.066	20.062	5.744	0.475
264.000	212.876	79.984	19.992	100.065	20.060	5.854	0.526
265.500	213.633	79.987	19.993	100.067	20.060	5.832	0.503
267.000	214.359	79.986	19.992	100.065	20.058	5.993	0.491
268.501	215.082	79.985	19.992	100.062	20.059	5.919	0.479
270.000	215.822	79.984	19.993	100.062	20.058	6.001	0.473
271.500	216.612	79.986	19.993	100.062	20.055	6.254	0.505
273.000	217.284	79.984	19.993	100.062	20.055	6.233	0.458
274.500	218.073	79.984	19.992	100.062	20.053	6.397	0.527
276.000	218.798	79.984	19.992	100.061	20.052	6.415	0.495
277.500	219.538	79.984	19.993	100.063	20.055	6.209	0.505
279.000	220.331	79.982	19.993	100.064	20.049	6.696	0.531
280.500	221.033	79.982	19.991	100.068	20.051	6.507	0.460
282.000	221.773	79.983	19.993	100.067	20.052	6.476	0.501
283.500	222.554	79.983	19.992	100.064	20.049	6.649	0.551
285.000	223.275	79.982	19.992	100.065	20.046	6.890	0.485
286.500	223.988	79.984	19.993	100.066	20.048	6.727	0.463
288.000	224.729	79.981	19.992	100.065	20.048	6.737	0.492
289.500	225.485	79.982	19.993	100.066	20.048	6.747	0.520
291.000	226.261	79.983	19.992	100.065	20.046	6.882	0.518
292.500	226.969	79.983	19.992	100.068	20.044	7.006	0.474
294.000	227.750	79.983	19.991	100.074	20.043	7.119	0.530
295.500	228.483	79.981	19.992	100.070	20.042	7.200	0.514
297.000	229.300	79.982	19.991	100.068	20.044	7.014	0.539
298.500	230.045	79.982	19.992	100.070	20.044	7.050	0.502
300.000	230.764	79.982	19.991	100.079	20.042	7.179	0.462
301.500	231.533	79.983	19.991	100.073	20.040	7.277	0.505
303.000	232.269	79.982	19.992	100.078	20.037	7.518	0.492
304.500	233.014	79.983	19.992	100.073	20.035	7.694	0.511
306.000	233.810	79.981	19.991	100.066	20.034	7.734	0.519
307.500	234.494	79.982	19.992	100.077	20.031	7.940	0.460
309.000	235.250	79.981	19.992	100.080	20.030	8.059	0.522
310.500	235.991	79.982	19.992	100.072	20.030	8.065	0.482
312.000	236.781	79.983	19.991	100.075	20.023	8.556	0.504
313.500	237.559	79.982	19.991	100.080	20.025	8.402	0.514
315.000	238.277	79.981	19.991	100.072	20.020	8.748	0.479
316.500	239.031	79.983	19.992	100.073	20.024	8.436	0.512
318.000	239.742	79.982	19.991	100.076	20.020	8.791	0.466
319.500	240.527	79.984	19.991	100.071	20.021	8.719	0.522
321.000	241.265	79.984	19.992	100.070	20.017	9.000	0.490
322.500	242.006	79.985	19.992	100.068	20.015	9.152	0.488
324.000	242.729	79.984	19.991	100.067	20.012	9.360	0.491
325.500	243.492	79.985	19.992	100.066	20.009	9.575	0.518
327.000	244.241	79.983	19.992	100.066	20.003	9.951	0.498
328.500	245.011	79.983	19.992	100.073	20.003	9.968	0.514
330.000	245.742	79.984	19.992	100.073	20.002	10.071	0.500
331.500	246.523	79.983	19.992	100.072	19.998	10.365	0.501
333.000	247.241	79.983	19.992	100.072	19.995	10.540	0.489
334.500	247.969	79.984	19.992	100.069	19.994	10.613	0.508
336.000	248.732	79.984	19.992	100.078	19.992	10.783	0.521
337.500	249.500	79.984	19.993	100.080	19.991	10.842	0.506
339.000	250.230	79.986	19.992	100.068	19.988	11.061	0.482
340.500	250.994	79.984	19.992	100.071	19.979	11.714	0.523
342.000	251.721	79.985	19.992	100.073	19.980	11.627	0.472
343.500	252.467	79.985	19.991	100.071	19.976	11.943	0.499
345.000	253.222	79.984	19.992	100.078	19.975	12.018	0.497
346.500	253.974	79.985	19.992	100.078	19.971	12.293	0.499
348.000	254.711	79.984	19.992	100.075	19.969	12.475	0.473
349.500	255.508	79.985	19.992	100.080	19.964	12.806	0.514
351.000	256.214	79.983	19.993	100.080	19.955	13.462	0.466
352.500	256.976	79.984	19.992	100.094	19.954	13.531	0.523
354.000	257.729	79.983	19.993	100.098	19.947	14.053	0.507
355.500	258.467	79.981	19.993	100.096	19.946	14.078	0.477
357.000	259.205	79.982	19.992	100.096	19.942	14.386	0.475
358.500	259.934	79.981	19.994	100.097	19.937	14.784	0.489
360.000	260.647	79.981	19.993	100.095	19.931	15.163	0.494
361.500	261.415	79.982	19.992	100.091	19.929	15.320	0.510
363.000	262.155	79.982	19.991	100.101	19.926	15.564	0.506
364.500	262.891	79.983	19.991	100.101	19.921	15.929	0.485
366.000	263.623	79.983	19.991	100.106	19.917	16.172	0.488
367.500	264.357	79.982	19.992	100.107	19.909	16.761	0.476
369.000	265.078	79.984	19.992	100.105	19.906	17.037	0.507
370.500	265.870	79.982	19.992	100.105	19.899	17.507	0.524
372.000	266.602	79.982	19.992	100.106	19.893	17.957	0.489
373.500	267.305	79.982	19.991	100.109	19.892	18.019	0.489
375.000	268.108	79.982	19.991	100.109	19.887	18.376	0.513
376.500	268.847	79.982	19.992	100.110	19.886	18.466	0.495
378.000	269.617	79.983	19.993	100.108	19.881	18.812	0.500
379.500	270.359	79.982	19.993	100.108	19.874	19.323	0.476
381.000	271.122	79.982	19.991	100.108	19.875	19.238	0.517
382.500	271.856	79.983	19.992	100.112	19.867	19.797	0.498
384.000	272.598	79.981	19.992	100.113	19.862	20.187	0.500
385.500	273.371	79.983	19.992	100.110	19.857	20.562	0.522
387.000	274.096	79.985	19.992	100.107	19.855	20.711	0.471
388.500	274.851	79.982	19.992	100.108	19.850	21.049	0.515
390.000	275.633	79.981	19.992	100.111	19.851	20.990	0.529
391.500	276.389	79.983	19.993	100.110	19.848	21.231	0.508
393.000	277.150	79.983	19.991	100.107	19.844	21.474	0.515
394.500	277.869	79.984	19.992	100.105	19.841	21.724	0.480
396.000	278.680	79.985	19.991	100.105	19.836	22.085	0.536
397.500	279.401	79.984	19.992	100.106	19.832	22.352	0.484
399.000	280.165	79.983	19.991	100.107	19.830	22.477	0.522
400.500	280.924	79.985	19.992	100.107	19.824	22.915	0.499
402.000	281.686	79.986	19.991	100.106	19.822	23.066	0.494
403.500	282.460	79.987	19.991	100.104	19.824	22.914	0.536
405.000	283.205	79.985	19.991	100.106	19.822	23.100	0.502
406.500	283.976	79.984	19.991	100.107	19.817	23.473	0.521
408.000	284.724	79.985	19.992	100.107	19.814	23.633	0.495
409.500	285.461	79.985	19.992	100.111	19.811	23.875	0.498
411.000	286.289	79.984	19.992	100.110	19.808	24.117	0.554
412.500	287.022	79.984	19.992	100.107	19.805	24.322	0.492
414.000	287.751	79.984	19.992	100.107	19.804	24.364	0.460
415.500	288.512	79.983	19.994	100.106	19.806	24.236	0.486
417.000	289.306	79.982	19.993	100.107	19.804	24.409	0.549
418.500	290.129	79.984	19.993	100.106	19.800	24.643	0.567
420.000	290.862	79.984	19.992	100.105	19.800	24.692	0.479
421.500	291.611	79.984	19.993	100.109	19.799	24.768	0.507
423.000	292.376	79.985	19.992	100.120	19.795	24.994	0.522
424.500	293.128	79.985	19.992	100.111	19.796	24.943	0.513
426.000	293.880	79.984	19.992	100.107	19.798	24.785	0.489
427.500	294.639	79.985	19.993	100.107	19.794	25.098	0.529
429.000	295.438	79.985	19.991	100.109	19.793	25.188	0.525
430.500	296.187	79.984	19.992	100.109	19.793	25.165	0.506
432.000	296.950	79.984	19.993	100.107	19.790	25.357	0.499
433.500	297.730	79.984	19.991	100.108	19.786	25.659	0.518
435.000	298.459	79.982	19.993	100.108	19.786	25.644	0.492
436.500	299.214	79.982	19.993	100.110	19.783	25.873	0.492
438.000	299.988	79.983	19.993	100.116	19.784	25.849	0.498
439.500	300.754	79.981	19.993	100.116	19.784	25.831	0.480
441.000	301.492	79.982	19.993	100.110	19.781	26.016	0.490
442.500	302.256	79.982	19.992	100.108	19.778	26.222	0.514
444.001	303.027	79.982	19.993	100.108	19.784	25.837	0.516
445.500	303.774	79.982	19.993	100.108	19.775	26.451	0.486
447.000	304.502	79.983	19.993	100.107	19.778	26.247	0.480
448.500	305.241	79.984	19.993	100.106	19.775	26.503	0.511
450.000	306.044	79.984	19.993	100.106	19.773	26.644	0.507
451.500	306.784	79.983	19.993	100.104	19.775	26.509	0.480
453.000	307.429	79.984	19.991	100.106	19.771	26.785	0.493
454.500	308.300	79.985	19.991	100.105	19.773	26.647	0.570
456.000	308.999	79.984	19.992	100.104	19.769	26.874	0.467
457.500	309.930	79.983	19.992	100.105	19.766	27.116	0.622
459.000	310.356	79.984	19.991	100.106	19.765	27.234	0.274
460.500	311.381	79.983	19.991	100.106	19.762	27.425	0.752
462.000	312.014	79.983	19.992	100.106	19.760	27.592	0.469
463.500	312.862	79.983	19.992	100.107	19.758	27.675	0.549
465.000	313.603	79.983	19.992	100.105	19.756	27.815	0.482
466.500	314.289	79.983	19.993	100.106	19.756	27.878	0.482
468.000	315.030	79.982	19.993	100.107	19.752	28.104	0.486
469.500	315.804	79.981	19.993	100.113	19.753	28.096	0.490
471.000	316.554	79.983	19.992	100.118	19.748	28.426	0.481
472.500	317.276	79.982	19.992	100.112	19.746	28.594	0.483
474.000	318.024	79.983	19.993	100.110	19.743	28.792	0.457
475.500	318.773	79.984	19.992	100.116	19.738	29.146	0.534
477.000	319.507	79.984	19.993	100.119	19.739	29.098	0.484
478.500	320.269	79.984	19.992	100.116	19.733	29.519	0.500
480.000	321.018	79.984	19.992	100.113	19.730	29.767	0.494
481.500	321.791	79.985	19.991	100.113	19.727	29.927	0.517
483.000	322.493	79.985	19.992	100.115	19.723	30.222	0.467
484.500	323.267	79.985	19.991	100.124	19.724	30.168	0.519
486.000	324.008	79.984	19.991	100.133	19.718	30.611	0.495
487.500	324.701	79.984	19.992	100.129	19.715	30.820	0.471
489.000	325.460	79.984	19.992	100.132	19.711	31.147	0.512
490.500	326.269	79.984	19.992	100.138	19.707	31.379	0.504
492.000	327.001	79.983	19.992	100.139	19.703	31.716	0.524
493.500	327.735	79.983	19.992	100.136	19.697	32.109	0.461
495.000	328.492	79.983	19.993	100.139	19.692	32.506	0.498
496.500	329.241	79.984	19.991	100.143	19.687	32.815	0.509
498.000	329.975	79.983	19.991	100.142	19.681	33.286	0.503
499.500	330.722	79.983	19.991	100.146	19.677	33.608	0.501
501.000	331.476	79.983	19.993	100.146	19.675	33.731	0.504
502.500	332.235	79.985	19.992	100.147	19.665	34.433	0.505
504.000	333.005	79.985	19.992	100.147	19.662	34.672	0.511
505.500	333.748	79.984	19.992	100.147	19.656	35.083	0.498
507.000	334.505	79.985	19.992	100.148	19.648	35.682	0.500
508.500	335.244	79.984	19.991	100.155	19.640	36.248	0.509
510.000	336.013	79.985	19.992	100.151	19.637	36.494	0.525
511.500	336.764	79.984	19.992	100.146	19.631	36.892	0.513
513.000	337.507	79.983	19.992	100.146	19.626	37.272	0.508
514.500	338.250	79.983	19.992	100.153	19.615	38.032	0.485
516.000	338.987	79.983	19.993	100.153	19.609	38.467	0.504
517.500	339.745	79.984	19.992	100.149	19.603	38.900	0.525
519.000	340.466	79.982	19.993	100.162	19.595	39.550	0.484
520.500	341.257	79.984	19.993	100.161	19.590	39.847	0.513
522.000	342.011	79.983	19.992	100.169	19.580	40.625	0.516
523.500	342.736	79.982	19.993	100.164	19.571	41.266	0.482
525.000	343.483	79.983	19.994	100.164	19.567	41.574	0.492
526.500	344.267	79.982	19.993	100.180	19.559	42.148	0.504
528.000	344.945	79.984	19.994	100.175	19.552	42.641	0.461
529.500	345.771	79.983	19.993	100.178	19.545	43.120	0.523
531.000	346.525	79.985	19.995	100.181	19.534	43.936	0.503
532.500	347.255	79.982	19.993	100.181	19.527	44.474	0.488
534.000	348.037	79.984	19.993	100.188	19.519	44.999	0.522
535.500	348.810	79.985	19.993	100.189	19.510	45.640	0.519
537.000	349.593	79.986	19.992	100.182	19.506	45.963	0.531
538.500	350.322	79.986	19.993	100.184	19.498	46.529	0.496
540.000	351.106	79.984	19.992	100.183	19.493	46.929	0.518
541.500	351.851	79.985	19.992	100.186	19.487	47.347	0.497
543.000	352.636	79.984	19.992	100.190	19.481	47.782	0.535
544.500	353.385	79.983	19.992	100.189	19.474	48.261	0.498
546.000	354.141	79.983	19.992	100.188	19.470	48.536	0.504
547.500	354.891	79.983	19.993	100.187	19.464	49.020	0.503
549.000	355.644	79.982	19.992	100.187	19.459	49.328	0.480
550.500	356.412	79.983	19.992	100.188	19.459	49.349	0.490
552.000	357.170	79.983	19.992	100.189	19.458	49.408	0.500
553.500	357.913	79.983	19.991	100.186	19.457	49.451	0.512
555.000	358.682	79.984	19.992	100.187	19.455	49.637	0.507
556.500	359.416	79.985	19.991	100.179	19.463	49.029	0.485
558.000	360.177	79.985	19.992	100.175	19.467	48.773	0.503
559.500	360.946	79.984	19.992	100.176	19.466	48.822	0.521
561.000	361.716	79.986	19.992	100.168	19.469	48.587	0.519
562.500	362.446	79.985	19.990	100.161	19.478	47.963	0.481
564.000	363.191	79.984	19.992	100.153	19.483	47.572	0.504
565.500	363.962	79.984	19.992	100.148	19.489	47.126	0.496
567.000	364.733	79.984	19.992	100.147	19.502	46.195	0.525
568.500	365.514	79.984	19.992	100.144	19.514	45.368	0.525
570.000	366.250	79.983	19.992	100.144	19.526	44.438	0.501
571.500	367.013	79.984	19.992	100.136	19.537	43.637	0.512
573.000	367.781	79.983	19.992	100.115	19.552	42.554	0.514
574.500	368.547	79.984	19.991	100.109	19.566	41.576	0.515
576.000	369.308	79.985	19.992	100.108	19.579	40.602	0.503
577.500	370.069	79.986	19.992	100.102	19.598	39.261	0.509
579.000	370.775	79.984	19.990	100.084	19.618	37.807	0.478
580.500	371.607	79.986	19.992	100.084	19.638	36.374	0.543
582.000	372.369	79.986	19.992	100.073	19.655	35.124	0.510
583.500	373.177	79.987	19.991	100.068	19.674	33.766	0.527
585.000	373.935	79.986	19.992	100.067	19.692	32.445	0.507
586.500	374.686	79.986	19.991	100.058	19.711	31.087	0.503
588.000	375.464	79.986	19.992	100.043	19.730	29.736	0.509
589.500	376.230	79.987	19.993	100.040	19.745	28.591	0.505
591.000	376.968	79.985	19.992	100.032	19.766	27.079	0.486
592.500	377.760	79.986	19.993	100.026	19.783	25.887	0.517
594.000	378.538	79.984	19.993	100.025	19.802	24.507	0.497
595.500	379.334	79.984	19.992	100.026	19.817	23.413	0.536
597.000	380.040	79.982	19.992	100.029	19.832	22.359	0.490
598.500	380.839	79.984	19.993	100.019	19.848	21.168	0.523
600.000	381.581	79.984	19.992	100.013	19.863	20.102	0.522
601.500	382.352	79.984	19.992	100.012	19.880	18.892	0.501
603.000	383.108	79.983	19.992	99.997	19.889	18.235	0.495
604.500	383.876	79.984	19.993	100.006	19.901	17.371	0.514
606.000	384.648	79.982	19.992	100.008	19.910	16.667	0.538
607.500	385.408	79.984	19.992	100.003	19.923	15.735	0.511
609.000	386.137	79.983	19.993	100.014	19.928	15.374	0.484
610.500	386.881	79.984	19.993	100.001	19.935	14.886	0.491
612.000	387.673	79.983	19.992	99.995	19.944	14.236	0.532
613.500	388.441	79.983	19.993	100.012	19.949	13.844	0.518
615.000	389.229	79.982	19.992	100.007	19.954	13.502	0.529
616.500	389.951	79.983	19.993	100.006	19.960	13.069	0.489
618.000	390.714	79.982	19.993	100.012	19.966	12.655	0.522
619.500	391.467	79.983	19.993	100.014	19.965	12.738	0.485
621.000	392.216	79.983	19.994	100.004	19.968	12.477	0.485
622.501	392.999	79.982	19.992	100.000	19.969	12.435	0.530
624.000	393.811	79.983	19.992	100.006	19.971	12.260	0.530
625.500	394.518	79.982	19.993	100.005	19.974	12.075	0.462
627.000	395.292	79.982	19.992	100.003	19.974	12.107	0.502
628.500	396.036	79.983	19.992	100.004	19.972	12.221	0.475
630.000	396.760	79.983	19.992	99.993	19.974	12.089	0.486
631.500	397.605	79.983	19.991	99.999	19.970	12.351	0.555
633.000	398.330	79.983	19.991	100.011	19.970	12.354	0.505
634.500	399.078	79.983	19.990	100.014	19.970	12.363	0.489
636.000	399.832	79.984	19.992	100.000	19.967	12.596	0.485
637.500	400.567	79.984	19.991	100.000	19.965	12.728	0.492
639.000	401.376	79.986	19.993	100.005	19.966	12.652	0.525
640.500	402.104	79.985	19.992	100.004	19.966	12.667	0.496
642.000	402.864	79.986	19.992	100.003	19.960	13.079	0.528
643.500	403.636	79.984	19.993	99.991	19.957	13.312	0.497
645.000	404.354	79.985	19.992	99.989	19.956	13.387	0.484
646.500	405.126	79.985	19.991	99.987	19.953	13.618	0.505
648.000	405.857	79.985	19.993	99.988	19.950	13.814	0.507
649.500	406.657	79.983	19.992	99.989	19.948	13.951	0.507
651.000	407.360	79.984	19.993	99.990	19.942	14.418	0.492
652.500	408.129	79.984	19.992	99.989	19.940	14.522	0.533
654.000	408.906	79.986	19.993	99.991	19.936	14.784	0.514
655.500	409.634	79.984	19.993	99.989	19.931	15.165	0.488
657.000	410.388	79.985	19.991	99.990	19.926	15.535	0.517
658.500	411.155	79.985	19.992	99.990	19.922	15.796	0.520
660.000	411.925	79.986	19.991	99.989	19.917	16.194	0.508
661.500	412.698	79.986	19.992	99.987	19.910	16.685	0.526
663.000	413.430	79.987	19.992	99.989	19.904	17.155	0.481
664.500	414.136	79.986	19.991	99.989	19.895	17.764	0.473
666.001	414.904	79.986	19.990	99.987	19.892	18.021	0.526
667.500	415.658	79.985	19.992	99.988	19.885	18.465	0.523
669.000	416.404	79.985	19.990	99.987	19.877	19.096	0.478
670.500	417.182	79.984	19.991	99.989	19.867	19.782	0.517
672.000	417.934	79.986	19.992	99.996	19.857	20.524	0.482
673.500	418.685	79.984	19.993	99.994	19.851	20.925	0.499
675.000	419.417	79.983	19.993	99.988	19.844	21.448	0.503
676.500	420.173	79.983	19.994	99.990	19.833	22.259	0.518
678.000	420.891	79.983	19.993	99.991	19.824	22.924	0.508
679.500	421.641	79.983	19.992	99.994	19.814	23.626	0.508
681.000	422.426	79.984	19.992	99.993	19.801	24.530	0.525
682.500	423.143	79.983	19.993	99.990	19.788	25.487	0.477
684.000	423.894	79.984	19.991	99.991	19.781	26.035	0.489
685.500	424.657	79.982	19.992	99.991	19.765	27.172	0.512
687.000	425.403	79.983	19.995	99.990	19.754	27.962	0.508
688.500	426.141	79.982	19.992	99.990	19.740	28.984	0.498
690.000	426.910	79.984	19.993	99.990	19.722	30.232	0.492
691.501	427.654	79.985	19.993	99.985	19.705	31.526	0.495
693.000	428.388	79.983	19.992	99.985	19.690	32.563	0.499
694.500	429.210	79.983	19.993	99.991	19.670	34.001	0.532
696.000	429.932	79.982	19.992	99.991	19.653	35.233	0.477
697.501	430.706	79.983	19.992	99.991	19.634	36.616	0.494
699.000	431.467	79.983	19.993	99.987	19.618	37.792	0.521
700.500	432.191	79.982	19.993	99.981	19.594	39.515	0.489
702.000	432.990	79.982	19.994	99.980	19.574	40.911	0.518
703.500	433.739	79.983	19.993	99.966	19.551	42.604	0.489
705.001	434.531	79.983	19.993	99.959	19.529	44.213	0.528
706.500	435.252	79.981	19.993	99.959	19.503	46.087	0.482
708.000	435.979	79.983	19.993	99.957	19.477	47.922	0.483
709.500	436.782	79.983	19.993	99.949	19.453	49.701	0.510
711.000	437.524	79.983	19.994	99.949	19.426	51.633	0.514
712.500	438.296	79.983	19.995	99.955	19.400	53.489	0.522
714.000	439.084	79.984	19.993	99.947	19.367	55.901	0.521
715.500	439.835	79.984	19.993	99.943	19.340	57.834	0.519
717.000	440.574	79.986	19.992	99.953	19.304	60.441	0.505
718.500	441.302	79.986	19.993	99.950	19.270	62.856	0.491
720.000	442.066	79.986	19.993	99.944	19.235	65.377	0.508
721.500	442.835	79.986	19.991	99.941	19.200	67.896	0.514
723.000	443.595	79.985	19.992	99.936	19.159	70.900	0.501
724.500	444.359	79.985	19.992	99.925	19.125	73.320	0.499
726.000	445.122	79.985	19.991	99.929	19.086	76.092	0.524
727.500	445.862	79.985	19.992	99.917	19.043	79.229	0.495
729.000	446.611	79.985	19.992	99.913	19.001	82.266	0.492
730.500	447.363	79.985	19.993	99.915	18.956	85.512	0.517
732.000	448.099	79.985	19.992	99.912	18.909	88.908	0.473
733.500	448.886	79.985	19.992	99.909	18.862	92.259	0.516
735.000	449.648	79.986	19.992	99.899	18.812	95.841	0.516
736.500	450.391	79.985	19.992	99.890	18.765	99.237	0.482
738.000	451.141	79.985	19.992	99.891	18.716	102.784	0.495
739.500	451.928	79.985	19.992	99.889	18.660	106.817	0.524
741.000	452.652	79.985	19.992	99.881	18.606	110.684	0.485
742.500	453.411	79.985	19.993	99.873	18.551	114.635	0.512
744.000	454.173	79.988	19.991	99.873	18.497	118.542	0.515
745.500	454.959	79.987	19.992	99.870	18.430	123.319	0.544
747.000	455.658	79.987	19.990	99.854	18.372	127.516	0.482
748.500	456.489	79.986	19.992	99.844	18.313	131.777	0.553
750.000	457.257	79.984	19.990	99.842	18.253	136.062	0.496
751.500	458.012	79.985	19.992	99.830	18.192	140.463	0.512
753.000	458.802	79.984	19.993	99.828	18.129	144.996	0.537
754.500	459.564	79.983	19.991	99.824	18.065	149.588	0.484
756.000	460.304	79.984	19.992	99.804	18.003	154.046	0.496
757.500	461.058	79.985	19.991	99.795	17.938	158.710	0.497
759.000	461.830	79.985	19.992	99.795	17.881	162.797	0.523
760.500	462.597	79.984	19.992	99.790	17.815	167.536	0.520
762.000	463.316	79.984	19.993	99.774	17.751	172.081	0.481
763.500	464.106	79.985	19.993	99.762	17.690	176.498	0.530
765.000	464.898	79.984	19.994	99.755	17.629	180.845	0.532
766.500	465.614	79.984	19.993	99.749	17.570	185.019	0.485
768.001	466.401	79.983	19.993	99.734	17.516	188.947	0.525
769.500	467.167	79.983	19.993	99.719	17.462	192.783	0.508
771.000	467.936	79.984	19.993	99.712	17.411	196.455	0.521
772.500	468.713	79.984	19.993	99.700	17.362	199.908	0.521
774.000	469.505	79.984	19.993	99.683	17.317	203.132	0.514
775.500	470.266	79.984	19.993	99.673	17.279	205.899	0.523
777.000	471.047	79.984	19.992	99.653	17.246	208.201	0.521
778.500	471.788	79.984	19.992	99.642	17.214	210.487	0.493
780.001	472.586	79.984	19.993	99.637	17.190	212.158	0.555
781.500	473.372	79.984	19.993	99.630	17.171	213.569	0.527
783.000	474.131	79.984	19.994	99.613	17.162	214.209	0.500
784.500	474.938	79.984	19.993	99.597	17.163	214.158	0.539
786.000	475.699	79.982	19.992	99.591	17.170	213.621	0.516
787.500	476.463	79.983	19.993	99.587	17.184	212.595	0.507
789.000	477.228	79.983	19.993	99.569	17.214	210.454	0.514
790.500	478.020	79.983	19.993	99.556	17.252	207.756	0.520
792.000	478.769	79.982	19.993	99.553	17.296	204.589	0.498
793.500	479.512	79.983	19.994	99.548	17.356	200.292	0.501
795.000	480.294	79.984	19.994	99.553	17.420	195.706	0.509
796.500	481.054	79.983	19.993	99.553	17.496	190.330	0.498
798.000	481.831	79.984	19.994	99.553	17.580	184.269	0.512
799.500	482.608	79.986	19.993	99.554	17.672	177.672	0.508
801.000	483.353	79.986	19.992	99.558	17.774	170.431	0.497
802.500	484.132	79.984	19.992	99.566	17.881	162.733	0.516
804.000	484.843	79.984	19.992	99.580	17.989	154.957	0.476
805.500	485.657	79.985	19.992	99.593	18.107	146.483	0.549
807.000	486.437	79.984	19.991	99.611	18.225	138.036	0.518
808.500	487.181	79.984	19.991	99.631	18.343	129.546	0.513
810.000	487.931	79.984	19.992	99.647	18.465	120.812	0.497
811.500	488.693	79.983	19.992	99.668	18.583	112.317	0.524
813.000	489.478	79.984	19.992	99.682	18.700	103.873	0.529
814.500	490.241	79.985	19.991	99.700	18.814	95.736	0.514
816.000	491.013	79.984	19.992	99.717	18.923	87.861	0.518
817.500	491.751	79.983	19.991	99.738	19.029	80.185	0.507
819.000	492.557	79.986	19.992	99.763	19.126	73.250	0.532
820.500	493.341	79.984	19.992	99.786	19.221	66.388	0.520
822.000	494.087	79.986	19.992	99.802	19.308	60.107	0.509
823.500	494.883	79.986	19.991	99.825	19.385	54.589	0.534
825.000	495.651	79.987	19.992	99.836	19.459	49.203	0.490
826.500	496.404	79.987	19.992	99.858	19.531	44.033	0.490
828.000	497.203	79.986	19.992	99.871	19.593	39.590	0.515
829.500	497.984	79.985	19.991	99.875	19.651	35.412	0.538
831.000	498.759	79.985	19.991	99.892	19.704	31.578	0.520
832.500	499.542	79.985	19.992	99.904	19.749	28.322	0.515
834.000	500.290	79.984	19.992	99.908	19.790	25.378	0.519
835.500	501.080	79.984	19.992	99.918	19.829	22.520	0.546
837.000	501.825	79.983	19.992	99.942	19.862	20.130	0.493
838.500	502.623	79.984	19.992	99.949	19.887	18.325	0.528
840.000	503.316	79.984	19.993	99.950	19.915	16.361	0.457
841.500	504.128	79.985	19.992	99.956	19.937	14.745	0.547
843.000	504.895	79.984	19.992	99.964	19.953	13.557	0.513
844.500	505.666	79.983	19.992	99.968	19.969	12.416	0.505
846.000	506.463	79.983	19.994	99.963	19.980	11.648	0.538
847.500	507.202	79.984	19.992	99.973	19.991	10.842	0.478
849.000	507.989	79.985	19.993	99.978	19.996	10.497	0.513
850.500	508.746	79.985	19.993	99.980	20.008	9.619	0.499
852.000	509.536	79.985	19.993	99.986	20.014	9.160	0.532
853.500	510.266	79.985	19.993	99.988	20.013	9.255	0.487
855.000	511.046	79.984	19.993	99.987	20.017	8.962	0.519
856.500	511.840	79.984	19.994	99.987	20.018	8.864	0.528
858.000	512.582	79.984	19.993	99.986	20.023	8.565	0.491
859.500	513.356	79.984	19.993	99.987	20.023	8.516	0.522
861.000	514.154	79.983	19.993	99.988	20.026	8.351	0.527
862.500	514.916	79.982	19.993	99.989	20.028	8.200	0.502
864.000	515.677	79.983	19.993	99.990	20.029	8.094	0.506
865.500	516.443	79.983	19.993	99.988	20.028	8.170	0.510
867.001	517.210	79.984	19.993	99.989	20.032	7.859	0.493
868.500	517.981	79.984	19.992	99.991	20.028	8.155	0.517
870.000	518.744	79.984	19.993	99.991	20.030	8.025	0.510
871.500	519.538	79.983	19.993	99.991	20.030	8.027	0.542
873.000	520.307	79.985	19.993	99.991	20.030	8.037	0.514
874.500	521.081	79.983	19.993	99.990	20.029	8.127	0.526
876.000	521.818	79.984	19.993	99.987	20.030	8.023	0.487
877.500	522.615	79.984	19.992	99.988	20.028	8.186	0.525
879.000	523.426	79.983	19.993	99.989	20.029	8.068	0.537
880.500	524.137	79.983	19.993	99.989	20.029	8.102	0.479
882.000	524.944	79.983	19.993	99.987	20.030	8.000	0.537
883.500	525.710	79.983	19.993	99.986	20.027	8.215	0.525
885.000	526.453	79.984	19.993	99.989	20.028	8.145	0.482
886.500	527.265	79.984	19.993	99.987	20.031	7.921	0.552
888.000	528.036	79.983	19.993	99.986	20.028	8.172	0.538
889.500	528.822	79.985	19.993	99.988	20.030	8.046	0.508
891.000	529.560	79.985	19.993	99.989	20.034	7.738	0.499
892.500	530.329	79.984	19.993	99.984	20.033	7.783	0.493
894.000	531.103	79.984	19.992	99.982	20.034	7.749	0.511
895.500	531.870	79.985	19.992	99.985	20.033	7.833	0.521
897.000	532.607	79.986	19.992	99.983	20.033	7.776	0.505
898.500	533.403	79.984	19.992	99.979	20.034	7.729	0.546
900.000	534.213	79.985	19.991	99.980	20.035	7.652	0.534
901.500	535.002	79.986	19.992	99.976	20.032	7.890	0.539
903.000	535.744	79.984	19.992	99.977	20.035	7.674	0.518
904.500	536.534	79.987	19.991	99.985	20.033	7.837	0.508
906.000	537.327	79.986	19.991	99.985	20.034	7.749	0.536
907.500	538.107	79.984	19.992	99.981	20.035	7.660	0.518
909.000	538.892	79.987	19.992	99.983	20.038	7.464	0.535
910.500	539.654	79.987	19.992	99.982	20.036	7.611	0.507
912.000	540.404	79.984	19.992	99.970	20.038	7.472	0.513
913.500	541.210	79.982	19.992	99.970	20.037	7.547	0.526
915.000	541.954	79.984	19.991	99.988	20.034	7.743	0.512
916.500	542.747	79.984	19.992	99.986	20.036	7.573	0.516
918.000	543.482	79.984	19.993	99.983	20.034	7.759	0.498
919.500	544.266	79.984	19.993	99.982	20.033	7.810	0.536
921.000	545.003	79.983	19.993	99.983	20.035	7.653	0.508
922.500	545.754	79.983	19.991	99.986	20.034	7.763	0.502
924.000	546.560	79.983	19.993	99.987	20.040	7.288	0.548
925.500	547.301	79.982	19.992	99.988	20.039	7.357	0.504
927.000	548.102	79.984	19.991	99.988	20.037	7.527	0.508
928.500	548.819	79.985	19.993	99.988	20.038	7.430	0.468
930.000	549.568	79.983	19.992	99.989	20.037	7.503	0.486
931.500	550.370	79.984	19.992	99.991	20.038	7.464	0.522
933.000	551.096	79.985	19.992	99.991	20.035	7.667	0.469
934.500	551.861	79.985	19.992	99.985	20.035	7.653	0.520
936.000	552.615	79.983	19.992	99.985	20.035	7.660	0.485
937.500	553.353	79.983	19.993	99.987	20.032	7.859	0.511
939.000	554.143	79.982	19.992	99.990	20.031	7.959	0.540
940.500	554.916	79.984	19.993	99.982	20.030	8.033	0.522
942.000	555.645	79.983	19.993	99.978	20.037	7.545	0.498
943.500	556.398	79.982	19.992	99.990	20.033	7.792	0.495
945.000	557.165	79.983	19.994	99.990	20.038	7.431	0.510
946.500	557.935	79.980	19.993	99.983	20.038	7.470	0.523
948.000	558.669	79.982	19.994	99.984	20.036	7.609	0.501
949.500	559.426	79.985	19.993	99.987	20.037	7.525	0.498
951.000	560.157	79.982	19.992	99.982	20.038	7.472	0.486
952.500	560.973	79.983	19.994	99.982	20.039	7.409	0.534
954.000	561.727	79.983	19.992	99.991	20.040	7.282	0.502
955.500	562.454	79.985	19.993	99.989	20.038	7.454	0.489
957.000	563.222	79.985	19.993	99.982	20.037	7.540	0.510
958.500	564.008	79.988	19.993	99.978	20.035	7.668	0.519
960.000	564.770	79.986	19.992	99.981	20.035	7.644	0.520
961.500	565.481	79.985	19.993	99.984	20.035	7.677	0.489
963.000	566.293	79.986	19.994	99.980	20.034	7.756	0.546
964.500	567.053	79.985	19.993	99.977	20.034	7.729	0.504
966.000	567.799	79.983	19.992	99.980	20.032	7.881	0.463
967.500	568.570	79.983	19.994	99.975	20.034	7.767	0.507
969.000	569.329	79.984	19.994	99.977	20.033	7.824	0.513
970.500	570.073	79.982	19.994	99.980	20.034	7.754	0.498
972.000	570.851	79.985	19.994	99.974	20.029	8.091	0.517
973.500	571.605	79.982	19.994	99.981	20.032	7.887	0.490
975.000	572.344	79.984	19.993	99.978	20.032	7.862	0.486
976.500	573.131	79.986	19.993	99.976	20.030	7.993	0.534
978.000	573.932	79.985	19.992	99.975	20.032	7.849	0.523
979.500	574.716	79.988	19.993	99.966	20.034	7.761	0.496
981.000	575.490	79.986	19.992	99.969	20.035	7.639	0.527
982.500	576.226	79.986	19.992	99.976	20.036	7.615	0.474
984.000	576.983	79.986	19.993	99.977	20.036	7.563	0.517
985.500	577.793	79.986	19.992	99.979	20.032	7.857	0.523
987.000	578.567	79.987	19.993	99.977	20.034	7.751	0.531
988.500	579.283	79.986	19.992	99.974	20.034	7.704	0.475
990.000	580.032	79.984	19.993	99.970	20.038	7.420	0.469
991.500	580.816	79.984	19.992	99.985	20.038	7.427	0.527
993.000	581.624	79.981	19.993	99.985	20.038	7.465	0.525
994.500	582.388	79.982	19.993	99.988	20.036	7.598	0.514
996.000	583.152	79.983	19.993	99.990	20.036	7.571	0.522
997.500	583.920	79.984	19.993	99.987	20.039	7.404	0.516
999.000	584.648	79.982	19.993	99.987	20.039	7.348	0.494
1000.500	585.434	79.981	19.993	99.990	20.038	7.458	0.514
1002.000	586.242	79.981	19.992	99.989	20.036	7.602	0.529
1003.500	587.033	79.984	19.992	99.987	20.038	7.475	0.522
1005.000	587.740	79.982	19.993	99.989	20.036	7.620	0.483
1006.500	588.566	79.984	19.992	99.986	20.037	7.490	0.538
1008.000	589.300	79.985	19.992	99.987	20.037	7.520	0.476
1009.500	590.067	79.984	19.992	99.981	20.036	7.624	0.519
1011.000	590.817	79.982	19.991	99.979	20.038	7.424	0.499
1012.500	591.586	79.983	19.991	99.986	20.038	7.435	0.501
1014.000	592.375	79.982	19.992	99.989	20.037	7.555	0.525
1015.500	593.129	79.984	19.993	99.991	20.038	7.466	0.502
1017.000	593.911	79.982	19.992	99.992	20.035	7.694	0.506
1018.500	594.666	79.983	19.993	99.989	20.037	7.533	0.510
1020.000	595.427	79.982	19.992	99.988	20.038	7.421	0.516
1021.500	596.213	79.983	19.993	99.988	20.036	7.581	0.556
1023.000	596.945	79.983	19.993	99.987	20.034	7.719	0.490
1024.500	597.732	79.983	19.993	99.985	20.038	7.447	0.503
1026.000	598.511	79.983	19.993	99.982	20.039	7.374	0.510
1027.501	599.250	79.981	19.993	99.981	20.035	7.687	0.523
1029.000	600.000	79.982	19.994	99.982	20.035	7.651	0.496
1030.501	600.780	79.986	19.994	99.979	20.034	7.767	0.503
1032.000	601.512	79.983	19.993	99.972	20.036	7.576	0.480
1033.500	602.270	79.984	19.993	99.981	20.039	7.413	0.521
1035.001	603.066	79.985	19.993	99.982	20.033	7.809	0.523
1036.500	603.802	79.986	19.992	99.980	20.033	7.819	0.494
1038.001	604.550	79.985	19.992	99.978	20.033	7.777	0.492
1039.500	605.309	79.982	19.992	99.969	20.035	7.660	0.503
1041.000	606.099	79.984	19.993	99.968	20.036	7.560	0.512
1042.501	606.842	79.983	19.992	99.982	20.038	7.462	0.481
1044.000	607.630	79.983	19.993	99.984	20.033	7.794	0.512
1045.500	608.372	79.984	19.993	99.984	20.034	7.744	0.495
1047.001	609.163	79.985	19.993	99.987	20.034	7.760	0.541
1048.501	609.863	79.984	19.993	99.977	20.034	7.705	0.476
1050.000	610.613	79.983	19.993	99.974	20.036	7.596	0.483
1051.500	611.378	79.983	19.994	99.984	20.037	7.485	0.510
1053.000	612.163	79.982	19.993	99.978	20.039	7.407	0.518
1054.500	612.904	79.982	19.994	99.981	20.036	7.576	0.495
1056.000	613.695	79.982	19.992	99.981	20.037	7.547	0.527
1057.500	614.481	79.986	19.993	99.976	20.036	7.617	0.511
1059.001	615.202	79.987	19.994	99.980	20.036	7.586	0.508
1060.501	616.018	79.985	19.994	99.967	20.034	7.743	0.524
1062.001	616.766	79.984	19.993	99.972	20.033	7.819	0.501
1063.500	617.520	79.983	19.993	99.981	20.037	7.523	0.537
1065.000	618.284	79.987	19.993	99.982	20.038	7.415	0.520
1066.500	619.024	79.982	19.993	99.982	20.040	7.290	0.502
1068.000	619.831	79.985	19.992	99.987	20.038	7.470	0.536
1069.500	620.596	79.985	19.992	99.984	20.038	7.458	0.504
1071.001	621.342	79.985	19.992	99.984	20.040	7.292	0.500
1072.500	622.111	79.986	19.992	99.982	20.041	7.226	0.516
1074.001	622.848	79.983	19.993	99.985	20.039	7.375	0.501
1075.500	623.638	79.985	19.992	99.982	20.041	7.239	0.523
1077.000	624.393	79.984	19.993	99.988	20.042	7.139	0.513
1078.500	625.166	79.983	19.991	99.979	20.040	7.295	0.512
1080.001	625.941	79.983	19.992	99.970	20.039	7.394	0.513
1081.500	626.757	79.984	19.993	99.982	20.039	7.354	0.526
1083.000	627.464	79.984	19.993	99.976	20.037	7.550	0.484
1084.501	628.249	79.983	19.992	99.972	20.038	7.416	0.529
1086.000	629.062	79.985	19.993	99.981	20.039	7.363	0.541
1087.500	629.820	79.984	19.992	99.986	20.040	7.270	0.518
1089.000	630.624	79.983	19.992	99.976	20.038	7.481	0.525
1090.500	631.351	79.981	19.992	99.976	20.039	7.363	0.483
1092.001	632.162	79.984	19.992	99.982	20.037	7.501	0.543
1093.500	632.870	79.984	19.993	99.977	20.038	7.477	0.491
1095.000	633.675	79.984	19.992	99.973	20.034	7.702	0.544
1096.501	634.469	79.985	19.992	99.970	20.036	7.578	0.526
1098.000	635.245	79.984	19.992	99.972	20.039	7.392	0.518
1099.500	636.018	79.983	19.993	99.977	20.036	7.604	0.481
1101.001	636.774	79.986	19.992	99.963	20.032	7.858	0.505
1102.500	637.528	79.985	19.992	99.969	20.037	7.515	0.501
1104.000	638.291	79.983	19.992	99.977	20.036	7.594	0.483
1105.500	639.077	79.984	19.992	99.964	20.035	7.688	0.534
1107.000	639.854	79.985	19.992	99.973	20.034	7.738	0.496
1108.500	640.572	79.984	19.993	99.986	20.035	7.642	0.496
1110.000	641.388	79.984	19.993	99.986	20.038	7.440	0.531
1111.500	642.143	79.984	19.993	99.977	20.037	7.530	0.512
1113.000	642.893	79.985	19.993	99.980	20.039	7.405	0.501
1114.500	643.642	79.985	19.993	99.985	20.036	7.565	0.527
1116.000	644.442	79.987	19.992	99.984	20.038	7.442	0.501
1117.500	645.195	79.985	19.992	99.979	20.039	7.401	0.488
1119.000	645.933	79.984	19.993	99.971	20.038	7.455	0.495
1120.500	646.675	79.987	19.993	99.971	20.039	7.412	0.515
1122.001	647.469	79.985	19.993	99.967	20.039	7.410	0.533
1123.500	648.222	79.982	19.993	99.973	20.038	7.483	0.508
1125.000	649.007	79.983	19.993	99.972	20.037	7.549	0.497
1126.500	649.785	79.985	19.994	99.968	20.036	7.589	0.520
1128.001	650.533	79.985	19.992	99.975	20.036	7.629	0.502
1129.500	651.291	79.982	19.992	99.966	20.037	7.489	0.520
1131.000	652.050	79.983	19.992	99.962	20.040	7.288	0.505
1132.500	652.825	79.982	19.993	99.964	20.039	7.393	0.506
1134.000	653.595	79.985	19.993	99.967	20.039	7.370	0.494
1135.500	654.379	79.984	19.992	99.980	20.041	7.241	0.526
1137.000	655.151	79.986	19.992	99.977	20.037	7.544	0.496
1138.500	655.857	79.983	19.993	99.977	20.038	7.422	0.479
1140.001	656.629	79.984	19.993	99.978	20.040	7.307	0.535
1141.500	657.398	79.984	19.992	99.966	20.037	7.497	0.510
1143.000	658.150	79.988	19.994	99.964	20.040	7.285	0.493
1144.500	658.912	79.985	19.993	99.969	20.040	7.269	0.515
1146.000	659.669	79.984	19.994	99.977	20.042	7.130	0.496
1147.500	660.450	79.985	19.993	99.983	20.039	7.341	0.527
1149.001	661.230	79.985	19.994	99.971	20.041	7.249	0.511
1150.500	661.956	79.983	19.993	99.977	20.038	7.479	0.475
1152.000	662.718	79.983	19.993	99.972	20.040	7.299	0.510
1153.500	663.477	79.983	19.993	99.968	20.041	7.252	0.515
1155.001	664.234	79.985	19.993	99.963	20.041	7.267	0.506
1156.500	664.987	79.983	19.992	99.959	20.042	7.135	0.495
1158.001	665.768	79.984	19.993	99.965	20.039	7.350	0.532
1159.500	666.544	79.986	19.992	99.960	20.040	7.319	0.518
1161.000	667.265	79.984	19.994	99.969	20.042	7.188	0.479
1162.501	667.996	79.985	19.992	99.978	20.042	7.188	0.510
1164.000	668.776	79.983	19.992	99.974	20.041	7.239	0.506
1165.500	669.538	79.983	19.992	99.964	20.042	7.159	0.532
1167.000	670.293	79.984	19.992	99.978	20.046	6.897	0.497
1168.501	671.093	79.983	19.992	99.983	20.044	6.988	0.521
1170.000	671.886	79.987	19.993	99.977	20.043	7.080	0.522
1171.500	672.606	79.985	19.993	99.963	20.042	7.133	0.469
1173.001	673.367	79.984	19.992	99.952	20.043	7.092	0.503
1174.500	674.159	79.983	19.993	99.962	20.041	7.210	0.552
1176.000	674.949	79.983	19.993	99.963	20.039	7.359	0.527
1177.500	675.724	79.983	19.993	99.962	20.042	7.155	0.538
1179.000	676.485	79.983	19.992	99.959	20.042	7.190	0.509
1180.500	677.211	79.984	19.992	99.959	20.040	7.272	0.490
1182.000	678.005	79.984	19.993	99.957	20.043	7.104	0.516
1183.500	678.785	79.984	19.993	99.953	20.040	7.297	0.485
1185.001	679.481	79.983	19.992	99.958	20.037	7.496	0.467
1186.500	680.245	79.983	19.992	99.967	20.042	7.163	0.495
1188.000	680.949	79.986	19.992	99.967	20.043	7.092	0.481
1189.500	681.736	79.985	19.992	99.955	20.043	7.089	0.541
1191.000	682.523	79.983	19.993	99.970	20.042	7.139	0.517
1192.500	683.251	79.985	19.991	99.983	20.040	7.274	0.478
1194.001	683.995	79.987	19.991	99.978	20.040	7.277	0.502
1195.500	684.795	79.985	19.992	99.965	20.041	7.220	0.537
1197.000	685.502	79.987	19.991	99.968	20.039	7.394	0.483
1198.500	686.269	79.985	19.991	99.962	20.038	7.435	0.505
1200.001	687.042	79.988	19.992	99.965	20.040	7.284	0.534
1201.500	687.757	79.981	19.992	99.980	20.038	7.447	0.491
1203.000	688.493	79.986	19.992	99.982	20.037	7.498	0.460
1204.500	689.257	79.984	19.992	99.975	20.039	7.344	0.510
1206.000	689.983	79.986	19.993	99.984	20.041	7.259	0.475
1207.500	690.756	79.985	19.992	99.989	20.041	7.207	0.523
1209.001	691.513	79.986	19.993	99.987	20.041	7.228	0.512
1210.500	692.259	79.987	19.992	99.982	20.044	7.034	0.478
1212.000	693.028	79.985	19.993	99.972	20.042	7.164	0.521
1213.501	693.742	79.985	19.992	99.953	20.044	7.004	0.480
1215.000	694.507	79.987	19.993	99.971	20.040	7.272	0.516
1216.500	695.278	79.988	19.993	99.985	20.044	7.037	0.496
1218.000	696.027	79.983	19.993	99.982	20.041	7.242	0.505
1219.501	696.746	79.987	19.993	99.971	20.044	7.042	0.496
1221.001	697.528	79.987	19.992	99.970	20.042	7.183	0.509
1222.500	698.345	79.990	19.992	99.970	20.041	7.205	0.541
1224.000	699.098	79.986	19.992	99.966	20.043	7.106	0.497
1225.500	699.822	79.984	19.993	99.959	20.043	7.118	0.493
1227.000	700.606	79.985	19.993	99.961	20.042	7.148	0.509
1228.500	701.339	79.984	19.993	99.971	20.039	7.385	0.501
1230.001	702.121	79.984	19.993	99.974	20.039	7.409	0.509
1231.500	702.888	79.983	19.993	99.965	20.039	7.359	0.527
1233.001	703.640	79.983	19.994	99.972	20.040	7.293	0.496
1234.501	704.408	79.983	19.994	99.960	20.043	7.092	0.526
1236.000	705.158	79.986	19.993	99.954	20.038	7.450	0.497
1237.500	705.931	79.983	19.993	99.969	20.037	7.487	0.513
1239.000	706.665	79.983	19.993	99.979	20.038	7.423	0.487
1240.500	707.460	79.985	19.994	99.976	20.036	7.602	0.541
1242.000	708.216	79.984	19.993	99.968	20.042	7.190	0.489
1243.500	708.951	79.984	19.992	99.960	20.041	7.264	0.507
1245.000	709.670	79.984	19.992	99.980	20.041	7.237	0.489
1246.500	710.420	79.985	19.993	99.982	20.042	7.128	0.492
1248.000	711.233	79.983	19.992	99.972	20.043	7.113	0.526
1249.500	711.929	79.986	19.992	99.957	20.041	7.203	0.481
1251.000	712.679	79.984	19.992	99.959	20.042	7.161	0.482
1252.500	713.410	79.984	19.992	99.965	20.042	7.171	0.495
1254.000	714.181	79.983	19.992	99.957	20.040	7.328	0.523
1255.500	715.019	79.985	19.992	99.959	20.041	7.267	0.565
1257.000	715.803	79.984	19.992	99.963	20.041	7.216	0.527
1258.500	716.550	79.982	19.992	99.969	20.040	7.301	0.517
1260.000	717.350	79.981	19.992	99.969	20.038	7.435	0.554
1261.500	718.134	79.985	19.992	99.965	20.041	7.218	0.529
1263.000	718.893	79.984	19.992	99.957	20.044	7.002	0.514
1264.501	719.664	79.985	19.993	99.961	20.041	7.204	0.522
1266.001	720.398	79.984	19.993	99.967	20.042	7.170	0.496
1267.500	721.179	79.984	19.993	99.966	20.039	7.370	0.504
1269.000	721.978	79.985	19.992	99.957	20.041	7.207	0.541
1270.500	722.722	79.983	19.992	99.955	20.042	7.177	0.492
1272.000	723.512	79.984	19.992	99.957	20.039	7.408	0.536
1273.500	724.233	79.986	19.992	99.966	20.037	7.544	0.487
1275.000	725.003	79.984	19.992	99.963	20.039	7.348	0.503
1276.500	725.744	79.986	19.992	99.955	20.043	7.072	0.515
1278.000	726.543	79.984	19.991	99.953	20.042	7.158	0.517
1279.500	727.312	79.985	19.991	99.955	20.041	7.215	0.517
1281.000	728.037	79.988	19.991	99.960	20.039	7.380	0.492
1282.500	728.837	79.985	19.992	99.963	20.036	7.564	0.518
1284.000	729.574	79.986	19.992	99.954	20.040	7.294	0.474
1285.500	730.344	79.985	19.992	99.951	20.039	7.402	0.494
1287.000	731.122	79.986	19.992	99.953	20.039	7.380	0.527
1288.500	731.871	79.985	19.992	99.953	20.038	7.417	0.490
1290.000	732.661	79.985	19.993	99.951	20.041	7.239	0.530
1291.501	733.427	79.985	19.993	99.950	20.037	7.492	0.525
1293.001	734.221	79.983	19.992	99.949	20.040	7.285	0.515
1294.501	735.004	79.984	19.992	99.956	20.041	7.202	0.542
1296.000	735.709	79.984	19.993	99.963	20.040	7.339	0.486
1297.500	736.503	79.987	19.992	99.958	20.038	7.452	0.540
1299.000	737.294	79.987	19.992	99.953	20.037	7.521	0.512
1300.500	738.046	79.986	19.992	99.955	20.043	7.104	0.528
1302.001	738.865	79.989	19.993	99.960	20.037	7.519	0.536
1303.500	739.561	79.986	19.992	99.975	20.038	7.447	0.488
1305.000	740.360	79.984	19.992	99.970	20.036	7.583	0.542
1306.500	741.148	79.988	19.993	99.957	20.035	7.638	0.526
1308.000	741.883	79.985	19.991	99.917	20.034	7.735	0.480
1309.501	742.643	79.984	19.994	99.895	20.035	7.630	0.498
1311.001	743.423	79.985	19.992	100.008	20.038	7.419	0.516
1311.501	743.694	79.983	19.992	100.020	20.038	7.450	0.525