File: 01_Data/Feather_PillowB_Feathers/STA/N2/10K_min/Feather_Pillow_Feathers_STA_N2_10KData_2216_R1.csv
##Temp./Â°C,Time/min,Mass loss(subtr.2)/mg,DSC(subtr.2)/(mW/mg),Sensit./(uV/mW)
49.516,10.00917,-0.0178,0.03662651,1.07023
50.216,10.7713,-0.01645454,0.07435572,1.07004
50.916,10.97185,-0.01567672,0.10083,1.06984
51.616,11.12621,-0.0168877,0.12472,1.06965
52.316,11.2546,-0.01599174,0.1413,1.06946
53.016,11.37059,-0.01602297,0.15673,1.06926
53.716,11.47734,-0.01854822,0.171,1.06907
54.416,11.57715,-0.01756953,0.18625,1.06887
55.116,11.6721,-0.01627139,0.19475,1.06868
55.816,11.76349,-0.0151681,0.20751,1.06848
56.516,11.85148,-0.01682623,0.21604,1.06828
57.216,11.93778,-0.01712797,0.22381,1.06809
57.916,12.0221,-0.01682318,0.23205,1.06789
58.616,12.10539,-0.01726515,0.2374,1.06769
59.316,12.18731,-0.017062,0.24406,1.06749
60.016,12.26797,-0.01845777,0.25037,1.06729
60.716,12.34753,-0.01843503,0.25937,1.06709
61.416,12.42649,-0.01845143,0.26487,1.06689
62.116,12.50511,-0.01967302,0.26947,1.06669
62.816,12.58286,-0.01972961,0.27743,1.06649
63.516,12.6601,-0.01973649,0.2828,1.06629
64.216,12.7365,-0.01844351,0.28709,1.06609
64.916,12.81292,-0.01855234,0.29116,1.06588
65.616,12.88963,-0.0210737,0.29859,1.06568
66.316,12.9655,-0.0197532,0.30292,1.06548
67.016,13.04106,-0.01977201,0.30649,1.06527
67.716,13.11617,-0.02108873,0.31268,1.06507
68.416,13.1911,-0.02238935,0.31896,1.06486
69.116,13.26625,-0.0213261,0.32443,1.06466
69.816,13.3411,-0.02239826,0.32822,1.06445
70.516,13.41574,-0.02304027,0.33279,1.06424
71.216,13.49039,-0.02504394,0.33797,1.06404
71.916,13.5648,-0.02503897,0.34502,1.06383
72.616,13.63889,-0.02536888,0.3468,1.06362
73.316,13.7127,-0.02597439,0.3528,1.06341
74.016,13.7864,-0.02635001,0.35632,1.0632
74.716,13.8599,-0.02634956,0.36194,1.06299
75.416,13.9329,-0.02767377,0.36599,1.06278
76.116,14.00575,-0.0276719,0.37169,1.06257
76.816,14.07833,-0.02898972,0.37498,1.06236
77.516,14.15125,-0.02896911,0.37937,1.06215
78.216,14.2239,-0.03035618,0.38273,1.06193
78.916,14.2966,-0.03030318,0.38743,1.06172
79.616,14.3685,-0.03162079,0.39187,1.06151
80.316,14.4402,-0.03298873,0.39446,1.06129
81.016,14.51174,-0.03288965,0.39759,1.06108
81.716,14.5835,-0.03526962,0.39935,1.06086
82.416,14.6554,-0.035606,0.40229,1.06065
83.116,14.72696,-0.03553828,0.4021,1.06043
83.816,14.79812,-0.03557817,0.40681,1.06021
84.516,14.86925,-0.0382103,0.40732,1.06
85.216,14.9406,-0.03821,0.40947,1.05978
85.916,15.0116,-0.03821,0.40941,1.05956
86.616,15.0826,-0.03824042,0.40949,1.05934
87.316,15.15293,-0.04025971,0.41142,1.05912
88.016,15.2234,-0.04055881,0.41027,1.0589
88.716,15.29355,-0.04018975,0.41167,1.05868
89.416,15.3633,-0.04156196,0.41034,1.05846
90.116,15.4331,-0.04292642,0.40999,1.05824
90.816,15.50322,-0.04283,0.40762,1.05802
91.516,15.5734,-0.04274247,0.40746,1.0578
92.216,15.6434,-0.04380984,0.40473,1.05757
92.916,15.71305,-0.04393508,0.40472,1.05735
93.616,15.78285,-0.04554971,0.40236,1.05713
94.316,15.852,-0.04677,0.39968,1.0569
95.016,15.9213,-0.04675503,0.39743,1.05668
95.716,15.99042,-0.04945089,0.39701,1.05645
96.416,16.05981,-0.04942054,0.39462,1.05623
97.116,16.12864,-0.04940764,0.39132,1.056
97.816,16.19729,-0.04940839,0.38868,1.05577
98.516,16.2661,-0.04861806,0.38691,1.05554
99.216,16.3353,-0.04902709,0.38403,1.05532
99.916,16.40436,-0.05067233,0.38072,1.05509
100.616,16.47304,-0.05170993,0.37904,1.05486
101.316,16.5415,-0.05170977,0.37628,1.05463
102.016,16.61009,-0.05303323,0.3737,1.0544
102.716,16.6785,-0.05303,0.36826,1.05417
103.416,16.74689,-0.05302957,0.36465,1.05394
104.116,16.8153,-0.05435578,0.36115,1.05371
104.816,16.88373,-0.05303991,0.35844,1.05347
105.516,16.95224,-0.05394623,0.35404,1.05324
106.216,17.0206,-0.05506086,0.35072,1.05301
106.916,17.08899,-0.055,0.34764,1.05277
107.616,17.1573,-0.0550001,0.34364,1.05254
108.316,17.22565,-0.05630176,0.3394,1.0523
109.016,17.2941,-0.05632,0.33784,1.05207
109.716,17.36252,-0.05632,0.33458,1.05183
110.416,17.43079,-0.05632031,0.3316,1.0516
111.116,17.499,-0.05764146,0.32827,1.05136
111.816,17.56711,-0.05763832,0.32797,1.05112
112.516,17.6353,-0.05664414,0.32245,1.05088
113.216,17.70352,-0.05664958,0.32037,1.05064
113.916,17.77146,-0.05797603,0.3177,1.05041
114.616,17.83965,-0.05796923,0.31478,1.05017
115.316,17.90768,-0.05765046,0.31211,1.04993
116.016,17.97564,-0.05756982,0.30951,1.04968
116.716,18.0438,-0.05764001,0.30513,1.04944
117.416,18.1119,-0.05764,0.30462,1.0492
118.116,18.1802,-0.05765798,0.30202,1.04896
118.816,18.24788,-0.05631592,0.30047,1.04872
119.516,18.3155,-0.05764037,0.29866,1.04847
120.216,18.38318,-0.05764,0.2981,1.04823
120.916,18.45133,-0.05763985,0.29512,1.04798
121.616,18.5194,-0.05666375,0.29363,1.04774
122.316,18.58746,-0.05797001,0.29283,1.04749
123.016,18.6552,-0.05797184,0.29065,1.04725
123.716,18.72246,-0.0592883,0.29061,1.047
124.416,18.79,-0.05794761,0.28902,1.04675
125.116,18.8575,-0.05764306,0.28832,1.04651
125.816,18.92556,-0.05763282,0.28549,1.04626
126.516,18.99321,-0.05896331,0.28494,1.04601
127.216,19.06086,-0.05899305,0.28314,1.04576
127.916,19.12869,-0.05896,0.28201,1.04551
128.616,19.19634,-0.05899362,0.28162,1.04526
129.316,19.26408,-0.05833356,0.28286,1.04501
130.016,19.33164,-0.05896047,0.283,1.04476
130.716,19.39927,-0.05896,0.28173,1.04451
131.416,19.46686,-0.05896043,0.28297,1.04425
132.116,19.53438,-0.05763447,0.28214,1.044
132.816,19.60187,-0.05894692,0.28337,1.04375
133.516,19.66904,-0.05896,0.28366,1.04349
134.216,19.73659,-0.05894733,0.28311,1.04324
134.916,19.80412,-0.05731974,0.28203,1.04298
135.616,19.8719,-0.05731,0.28221,1.04273
136.316,19.93919,-0.05730998,0.28155,1.04247
137.016,20.0062,-0.0585631,0.28084,1.04221
137.716,20.07339,-0.05989003,0.28107,1.04196
138.416,20.14087,-0.05888884,0.28273,1.0417
139.116,20.20863,-0.05896144,0.2807,1.04144
139.816,20.27609,-0.05831096,0.28266,1.04118
140.516,20.3435,-0.05762429,0.2847,1.04092
141.216,20.41106,-0.05765194,0.28194,1.04066
141.916,20.47852,-0.05764234,0.28255,1.0404
142.616,20.54576,-0.05693119,0.28256,1.04014
143.316,20.6132,-0.05698001,0.28157,1.03988
144.016,20.68052,-0.05697952,0.28357,1.03962
144.716,20.7481,-0.05565859,0.28231,1.03935
145.416,20.8153,-0.05705547,0.28535,1.03909
146.116,20.8823,-0.05697991,0.28351,1.03883
146.816,20.94945,-0.05764408,0.28517,1.03856
147.516,21.01675,-0.05765692,0.28716,1.0383
148.216,21.08427,-0.05830036,0.28654,1.03803
148.916,21.1514,-0.05820639,0.28582,1.03777
149.616,21.2185,-0.05697997,0.28654,1.0375
150.316,21.28535,-0.05698002,0.28762,1.03723
151.016,21.3521,-0.05683623,0.28765,1.03697
151.716,21.4193,-0.05731859,0.28865,1.0367
152.416,21.48668,-0.05698991,0.28991,1.03643
153.116,21.55416,-0.05701489,0.29034,1.03616
153.816,21.62144,-0.05564746,0.2902,1.03589
154.516,21.68845,-0.05627088,0.29165,1.03562
155.216,21.75543,-0.05697993,0.29173,1.03535
155.916,21.82246,-0.05713232,0.29314,1.03508
156.616,21.88938,-0.05829908,0.29346,1.0348
157.316,21.95626,-0.05697984,0.29457,1.03453
158.016,22.0229,-0.05827427,0.29554,1.03426
158.716,22.08984,-0.05829979,0.29665,1.03399
159.416,22.15686,-0.05697952,0.29717,1.03371
160.116,22.22414,-0.05533521,0.29629,1.03344
160.816,22.29094,-0.05534,0.29737,1.03316
161.516,22.3576,-0.05532232,0.29905,1.03289
162.216,22.42367,-0.0559868,0.3017,1.03261
162.916,22.49028,-0.05731201,0.30012,1.03233
163.616,22.5572,-0.05730999,0.30297,1.03205
164.316,22.6246,-0.0574038,0.30083,1.03178
165.016,22.6918,-0.05599997,0.30197,1.0315
165.716,22.75871,-0.05600002,0.30188,1.03122
166.416,22.8257,-0.05681489,0.30372,1.03094
167.116,22.8921,-0.05568165,0.30709,1.03066
167.816,22.9587,-0.05632991,0.30599,1.03038
168.516,23.02524,-0.05724506,0.30504,1.0301
169.216,23.09229,-0.05731589,0.30678,1.02981
169.916,23.1595,-0.05764189,0.307,1.02953
170.616,23.22619,-0.05730806,0.30864,1.02925
171.316,23.29298,-0.05599183,0.31056,1.02897
172.016,23.35961,-0.05601725,0.31119,1.02868
172.716,23.4264,-0.05731005,0.31125,1.0284
173.416,23.4933,-0.0559041,0.31159,1.02811
174.116,23.56015,-0.05730953,0.3116,1.02783
174.816,23.62714,-0.05731,0.31403,1.02754
175.516,23.69378,-0.05731006,0.31354,1.02725
176.216,23.76057,-0.05808677,0.31452,1.02696
176.916,23.8273,-0.05868585,0.31633,1.02668
177.616,23.89411,-0.05796883,0.31579,1.02639
178.316,23.961,-0.05730611,0.31667,1.0261
179.016,24.02775,-0.05731119,0.31874,1.02581
179.716,24.09434,-0.05862879,0.31964,1.02552
180.416,24.16088,-0.05730467,0.3217,1.02523
181.116,24.22747,-0.05633477,0.32317,1.02494
181.816,24.29446,-0.05764911,0.32378,1.02464
182.516,24.36131,-0.05765006,0.32537,1.02435
183.216,24.42837,-0.05855934,0.32493,1.02406
183.916,24.49493,-0.05896001,0.32669,1.02377
184.616,24.56167,-0.05883477,0.326,1.02347
185.316,24.62823,-0.05797999,0.32865,1.02318
186.016,24.69491,-0.05797998,0.32946,1.02288
186.716,24.76175,-0.05808969,0.33138,1.02259
187.416,24.82851,-0.05929003,0.33249,1.02229
188.116,24.8953,-0.05929,0.33408,1.02199
188.816,24.96174,-0.05928805,0.33264,1.02169
189.516,25.02804,-0.0618413,0.33674,1.0214
190.216,25.09458,-0.06097608,0.33766,1.0211
190.916,25.16143,-0.05961668,0.3401,1.0208
191.616,25.22825,-0.0609397,0.34105,1.0205
192.316,25.29502,-0.06094,0.34304,1.0202
193.016,25.36157,-0.06094099,0.3452,1.0199
193.716,25.42882,-0.06192836,0.34601,1.0196
194.416,25.49599,-0.06193,0.34813,1.01929
195.116,25.5627,-0.0619182,0.34855,1.01899
195.816,25.62944,-0.06291605,0.35233,1.01869
196.516,25.69579,-0.06323997,0.35644,1.01838
197.216,25.7626,-0.06324,0.35666,1.01808
197.916,25.82941,-0.06324008,0.36205,1.01777
198.616,25.8963,-0.06456395,0.36353,1.01747
199.316,25.9631,-0.06456,0.36555,1.01716
200.016,26.02945,-0.06456,0.36892,1.01686
200.716,26.096,-0.06456,0.37209,1.01655
201.416,26.16272,-0.06455817,0.37599,1.01624
202.116,26.2298,-0.06488976,0.3795,1.01593
202.816,26.29628,-0.06489001,0.38441,1.01562
203.516,26.36263,-0.06557378,0.38709,1.01531
204.216,26.42922,-0.06621,0.39109,1.015
204.916,26.49597,-0.06725277,0.3943,1.01469
205.616,26.5625,-0.06748509,0.40015,1.01438
206.316,26.62896,-0.06883997,0.40504,1.01407
207.016,26.69544,-0.06941052,0.40917,1.01376
207.716,26.7622,-0.07014146,0.41426,1.01345
208.416,26.82862,-0.07015999,0.42137,1.01313
209.116,26.89518,-0.07151142,0.42608,1.01282
209.816,26.9619,-0.07214292,0.4311,1.0125
210.516,27.0285,-0.07279032,0.43601,1.01219
211.216,27.09495,-0.07373519,0.4429,1.01187
211.916,27.1616,-0.07410669,0.45191,1.01156
212.616,27.2283,-0.07542971,0.45993,1.01124
213.316,27.29529,-0.07542949,0.46926,1.01092
214.016,27.3619,-0.07674412,0.47721,1.0106
214.716,27.42875,-0.07937717,0.4886,1.01029
215.416,27.49561,-0.08039787,0.50121,1.00997
216.116,27.56235,-0.08066719,0.51162,1.00965
216.816,27.62923,-0.08202029,0.52232,1.00933
217.516,27.69613,-0.08374068,0.53863,1.00901
218.216,27.76326,-0.0850094,0.55507,1.00868
218.916,27.8301,-0.0860289,0.56895,1.00836
219.616,27.89661,-0.08773925,0.58629,1.00804
220.316,27.96319,-0.08895319,0.60442,1.00772
221.016,28.02995,-0.09097065,0.62585,1.00739
221.716,28.097,-0.09382736,0.6459,1.00707
222.416,28.16398,-0.09658699,0.6704,1.00674
223.116,28.23077,-0.09793798,0.69197,1.00642
223.816,28.29747,-0.10068,0.71373,1.00609
224.516,28.36419,-0.10383,0.7377,1.00577
225.216,28.43075,-0.10698,0.76026,1.00544
225.916,28.49748,-0.10818,0.78194,1.00511
226.616,28.5638,-0.11112,0.80106,1.00478
227.316,28.63093,-0.11416,0.81938,1.00445
228.016,28.6976,-0.11746,0.83303,1.00412
228.716,28.76476,-0.12143,0.84601,1.00379
229.416,28.8316,-0.1249,0.85143,1.00346
230.116,28.8986,-0.12991,0.85815,1.00313
230.816,28.96586,-0.13424,0.86251,1.0028
231.516,29.03265,-0.1372,0.86094,1.00247
232.216,29.09928,-0.14131,0.85823,1.00213
232.916,29.166,-0.14551,0.85498,1.0018
233.616,29.23272,-0.15038,0.84863,1.00147
234.316,29.2995,-0.15557,0.84398,1.00113
235.016,29.3661,-0.1587,0.83555,1.0008
235.716,29.4325,-0.16263,0.82704,1.00046
236.416,29.49888,-0.16849,0.81699,1.00012
237.116,29.5649,-0.17196,0.809,0.99979
237.816,29.63135,-0.17539,0.79874,0.99945
238.516,29.69787,-0.17904,0.79113,0.99911
239.216,29.7648,-0.18425,0.78386,0.99877
239.916,29.83142,-0.18916,0.77482,0.99843
240.616,29.89801,-0.19277,0.76794,0.99809
241.316,29.9646,-0.19568,0.76109,0.99775
242.016,30.0311,-0.20141,0.75561,0.99741
242.716,30.09747,-0.20491,0.75076,0.99707
243.416,30.1639,-0.20915,0.74547,0.99673
244.116,30.2305,-0.21312,0.74105,0.99638
244.816,30.29707,-0.21741,0.74041,0.99604
245.516,30.36352,-0.22264,0.73667,0.9957
246.216,30.4303,-0.22638,0.73738,0.99535
246.916,30.49675,-0.23052,0.73682,0.99501
247.616,30.56346,-0.2353,0.73767,0.99466
248.316,30.63,-0.23986,0.73748,0.99431
249.016,30.6967,-0.24461,0.74146,0.99397
249.716,30.7632,-0.24821,0.7418,0.99362
250.416,30.82985,-0.25303,0.7406,0.99327
251.116,30.89654,-0.25695,0.74436,0.99292
251.816,30.96332,-0.26269,0.74588,0.99257
252.516,31.02988,-0.26783,0.74926,0.99222
253.216,31.09672,-0.27101,0.74917,0.99187
253.916,31.1634,-0.27702,0.75197,0.99152
254.616,31.2297,-0.28167,0.7535,0.99117
255.316,31.2961,-0.28649,0.75636,0.99082
256.016,31.3626,-0.29197,0.75905,0.99046
256.716,31.4297,-0.29669,0.76203,0.99011
257.416,31.4963,-0.30244,0.76255,0.98976
258.116,31.5631,-0.30784,0.76478,0.9894
258.816,31.62983,-0.3129,0.76718,0.98905
259.516,31.69647,-0.31847,0.76989,0.98869
260.216,31.763,-0.32464,0.77294,0.98834
260.916,31.82964,-0.3317,0.77258,0.98798
261.616,31.8962,-0.33653,0.77527,0.98762
262.316,31.96273,-0.3433,0.77868,0.98726
263.016,32.02922,-0.34869,0.77751,0.9869
263.716,32.0959,-0.35395,0.782,0.98654
264.416,32.1623,-0.35886,0.7844,0.98618
265.116,32.2284,-0.36737,0.7863,0.98582
265.816,32.29505,-0.37294,0.78832,0.98546
266.516,32.36189,-0.37901,0.78903,0.9851
267.216,32.4291,-0.38567,0.7903,0.98474
267.916,32.49577,-0.38987,0.79186,0.98438
268.616,32.56231,-0.3972,0.79218,0.98401
269.316,32.6288,-0.40463,0.79523,0.98365
270.016,32.69554,-0.41175,0.79532,0.98328
270.716,32.76215,-0.41881,0.79589,0.98292
271.416,32.82885,-0.42626,0.80023,0.98255
272.116,32.89549,-0.43265,0.80108,0.98219
272.816,32.96206,-0.43925,0.80181,0.98182
273.516,33.02877,-0.44599,0.80309,0.98145
274.216,33.09544,-0.45395,0.80549,0.98108
274.916,33.16235,-0.4612,0.80801,0.98071
275.616,33.22927,-0.46747,0.81041,0.98035
276.316,33.29609,-0.47538,0.81144,0.97998
277.016,33.36287,-0.4826,0.81409,0.9796
277.716,33.42926,-0.49119,0.8172,0.97923
278.416,33.49588,-0.49866,0.82079,0.97886
279.116,33.5626,-0.50564,0.82278,0.97849
279.816,33.6297,-0.51331,0.8283,0.97812
280.516,33.69654,-0.52227,0.83233,0.97774
281.216,33.7634,-0.52972,0.83586,0.97737
281.916,33.82999,-0.5366,0.83783,0.97699
282.616,33.89665,-0.54553,0.84112,0.97662
283.316,33.96352,-0.5536,0.8445,0.97624
284.016,34.0304,-0.56178,0.84719,0.97587
284.716,34.09754,-0.5707,0.85143,0.97549
285.416,34.1644,-0.57884,0.85254,0.97511
286.116,34.2314,-0.58909,0.85615,0.97473
286.816,34.29829,-0.59832,0.85789,0.97435
287.516,34.36517,-0.60728,0.8598,0.97397
288.216,34.432,-0.6164,0.86175,0.97359
288.916,34.4987,-0.62558,0.8651,0.97321
289.616,34.56558,-0.63439,0.86532,0.97283
290.316,34.63231,-0.64439,0.86664,0.97245
291.016,34.69914,-0.65498,0.86945,0.97207
291.716,34.76595,-0.66334,0.86973,0.97169
292.416,34.83282,-0.67335,0.87115,0.9713
293.116,34.89976,-0.68461,0.87013,0.97092
293.816,34.96655,-0.69489,0.86843,0.97053
294.516,35.0334,-0.70296,0.86835,0.97015
295.216,35.1002,-0.71426,0.86787,0.96976
295.916,35.167,-0.72689,0.86542,0.96937
296.616,35.234,-0.73723,0.86479,0.96899
297.316,35.30073,-0.74818,0.86205,0.9686
298.016,35.36765,-0.75966,0.86111,0.96821
298.716,35.4346,-0.77024,0.85869,0.96782
299.416,35.5017,-0.78034,0.85478,0.96743
300.116,35.56852,-0.7911,0.85205,0.96704
300.816,35.63491,-0.80363,0.84759,0.96665
301.516,35.70105,-0.81519,0.84246,0.96626
302.216,35.76787,-0.82685,0.83754,0.96587
302.916,35.83494,-0.83783,0.82848,0.96547
303.616,35.90246,-0.84935,0.82217,0.96508
304.316,35.96914,-0.86169,0.81208,0.96469
305.016,36.03605,-0.87264,0.8021,0.96429
305.716,36.10284,-0.88554,0.78841,0.9639
306.416,36.16984,-0.89663,0.7768,0.9635
307.116,36.23679,-0.90726,0.76163,0.96311
307.816,36.30343,-0.91725,0.7474,0.96271
308.516,36.37032,-0.92862,0.73445,0.96231
309.216,36.43701,-0.93929,0.72605,0.96191
309.916,36.50396,-0.95024,0.72126,0.96152
310.616,36.57054,-0.96248,0.72121,0.96112
311.316,36.63738,-0.97443,0.72225,0.96072
312.016,36.7042,-0.98495,0.72793,0.96032
312.716,36.7714,-0.99706,0.73544,0.95992
313.416,36.83845,-1.00861,0.73982,0.95951
314.116,36.90558,-1.02115,0.74831,0.95911
314.816,36.9724,-1.03583,0.75646,0.95871
315.516,37.03942,-1.04806,0.76126,0.95831
316.216,37.1062,-1.06169,0.76513,0.9579
316.916,37.17351,-1.07631,0.76962,0.9575
317.616,37.2406,-1.08895,0.77125,0.95709
318.316,37.30802,-1.10165,0.77385,0.95669
319.016,37.37512,-1.11615,0.77648,0.95628
319.716,37.44229,-1.13044,0.80181,0.95587
320.416,37.50954,-1.14711,0.8088,0.95547
321.116,37.57695,-1.16514,0.8141,0.95506
321.816,37.64415,-1.1808,0.81615,0.95465
322.516,37.71127,-1.19516,0.81559,0.95424
323.216,37.77834,-1.21142,0.81053,0.95383
323.916,37.8457,-1.2278,0.80714,0.95342
324.616,37.9131,-1.24419,0.79172,0.95301
325.316,37.9803,-1.26013,0.78706,0.9526
326.016,38.04759,-1.27629,0.78184,0.95218
326.716,38.11493,-1.29111,0.77213,0.95177
327.416,38.18212,-1.30702,0.76961,0.95136
328.116,38.24933,-1.32337,0.76649,0.95094
328.816,38.31661,-1.337,0.7626,0.95053
329.516,38.3836,-1.35375,0.76355,0.95011
330.216,38.45082,-1.3683,0.76482,0.9497
330.916,38.518,-1.38486,0.76739,0.94928
331.616,38.5854,-1.40006,0.766,0.94886
332.316,38.65276,-1.41619,0.7647,0.94844
333.016,38.72,-1.43312,0.74979,0.94803
333.716,38.78714,-1.44835,0.74769,0.94761
334.416,38.8544,-1.46451,0.74994,0.94719
335.116,38.92179,-1.48025,0.74961,0.94677
335.816,38.98884,-1.49636,0.74841,0.94635
336.516,39.05615,-1.51307,0.74551,0.94593
337.216,39.1235,-1.52917,0.74217,0.9455
337.916,39.19126,-1.54393,0.74247,0.94508
338.616,39.25864,-1.55914,0.7368,0.94466
339.316,39.32591,-1.57538,0.73387,0.94423
340.016,39.39322,-1.59051,0.7253,0.94381
340.716,39.4604,-1.60545,0.72432,0.94338
341.416,39.52778,-1.62104,0.71359,0.94296
342.116,39.59512,-1.63483,0.70651,0.94253
342.816,39.66236,-1.65009,0.69419,0.94211
343.516,39.72977,-1.66437,0.68578,0.94168
344.216,39.7971,-1.67735,0.67659,0.94125
344.916,39.86439,-1.69263,0.64977,0.94082
345.616,39.9315,-1.70716,0.64111,0.94039
346.316,39.9985,-1.72256,0.6333,0.93996
347.016,40.06511,-1.73503,0.63042,0.93953
347.716,40.13194,-1.74759,0.62286,0.9391
348.416,40.19915,-1.7618,0.61479,0.93867
349.116,40.26627,-1.77369,0.60722,0.93824
349.816,40.33354,-1.78547,0.59885,0.93781
350.516,40.40105,-1.79925,0.59396,0.93737
351.216,40.46901,-1.81053,0.5845,0.93694
351.916,40.53711,-1.82293,0.5755,0.9365
352.616,40.6045,-1.83355,0.56782,0.93607
353.316,40.6719,-1.84535,0.55889,0.93563
354.016,40.73923,-1.85635,0.55184,0.9352
354.716,40.80679,-1.86913,0.54409,0.93476
355.416,40.87412,-1.87979,0.5362,0.93432
356.116,40.9417,-1.89026,0.53033,0.93388
356.816,41.00931,-1.90136,0.5221,0.93345
357.516,41.0771,-1.91192,0.5141,0.93301
358.216,41.1447,-1.92126,0.50595,0.93257
358.916,41.21222,-1.93152,0.49543,0.93213
359.616,41.27978,-1.94139,0.48921,0.93169
360.316,41.34735,-1.95176,0.48421,0.93124
361.016,41.41489,-1.96027,0.4763,0.9308
361.716,41.4825,-1.9699,0.46863,0.93036
362.416,41.55016,-1.97864,0.46167,0.92992
363.116,41.61779,-1.98829,0.45355,0.92947
363.816,41.6853,-1.99608,0.44695,0.92903
364.516,41.75261,-2.00533,0.44076,0.92858
365.216,41.81997,-2.01373,0.4337,0.92814
365.916,41.88751,-2.02209,0.42654,0.92769
366.616,41.95512,-2.03028,0.42055,0.92724
367.316,42.02258,-2.03756,0.41555,0.92679
368.016,42.09028,-2.04572,0.41138,0.92635
368.716,42.15811,-2.05416,0.40841,0.9259
369.416,42.22603,-2.06114,0.40312,0.92545
370.116,42.2935,-2.06702,0.39762,0.925
370.816,42.36083,-2.07613,0.39354,0.92455
371.516,42.4285,-2.08329,0.39076,0.9241
372.216,42.49635,-2.09053,0.38832,0.92364
372.916,42.56442,-2.09886,0.38717,0.92319
373.616,42.63195,-2.10602,0.37801,0.92274
374.316,42.69965,-2.11185,0.37506,0.92229
375.016,42.76737,-2.11945,0.37096,0.92183
375.716,42.83517,-2.12669,0.36762,0.92138
376.416,42.903,-2.1325,0.36413,0.92092
377.116,42.9707,-2.14094,0.35933,0.92046
377.816,43.03862,-2.1461,0.35711,0.92001
378.516,43.10584,-2.15255,0.3526,0.91955
379.216,43.17374,-2.15881,0.34739,0.91909
379.916,43.24165,-2.16511,0.34573,0.91864
380.616,43.30985,-2.17192,0.34319,0.91818
381.316,43.37769,-2.17799,0.34051,0.91772
382.016,43.44507,-2.18325,0.33667,0.91726
382.716,43.51293,-2.18914,0.3337,0.9168
383.416,43.5809,-2.1948,0.33188,0.91633
384.116,43.64897,-2.20037,0.32716,0.91587
384.816,43.71705,-2.20815,0.32651,0.91541
385.516,43.78494,-2.21182,0.32437,0.91495
386.216,43.8532,-2.21809,0.32056,0.91448
386.916,43.92115,-2.22328,0.32019,0.91402
387.616,43.98919,-2.22861,0.31438,0.91355
388.316,44.0571,-2.23414,0.31389,0.91309
389.016,44.12515,-2.23933,0.31162,0.91262
389.716,44.19303,-2.24535,0.31032,0.91216
390.416,44.2611,-2.25186,0.30662,0.91169
391.116,44.329,-2.25605,0.30595,0.91122
391.816,44.3972,-2.2609,0.3022,0.91075
392.516,44.46533,-2.26511,0.29895,0.91028
393.216,44.5334,-2.26962,0.29941,0.90981
393.916,44.60152,-2.27453,0.2964,0.90934
394.616,44.66887,-2.28085,0.29623,0.90887
395.316,44.7369,-2.28464,0.29289,0.9084
396.016,44.80473,-2.2892,0.29052,0.90793
396.716,44.87331,-2.29387,0.28774,0.90746
397.416,44.9413,-2.29918,0.28692,0.90698
398.116,45.00927,-2.30227,0.28518,0.90651
398.816,45.07737,-2.30666,0.28448,0.90604
399.516,45.14545,-2.31137,0.28455,0.90556
400.216,45.21371,-2.31711,0.28289,0.90509
400.916,45.28167,-2.32127,0.28102,0.90461
401.616,45.34972,-2.32634,0.27919,0.90413
402.316,45.41767,-2.33101,0.27837,0.90366
403.016,45.48539,-2.33434,0.27531,0.90318
403.716,45.5533,-2.33862,0.27371,0.9027
404.416,45.6212,-2.34176,0.27207,0.90222
405.116,45.68942,-2.34664,0.2712,0.90174
405.816,45.75742,-2.35032,0.26841,0.90126
406.516,45.8255,-2.35438,0.26742,0.90078
407.216,45.89349,-2.35854,0.26664,0.9003
407.916,45.96161,-2.36306,0.26478,0.89982
408.616,46.02961,-2.36664,0.26217,0.89934
409.316,46.0976,-2.37014,0.26273,0.89885
410.016,46.16564,-2.3732,0.25976,0.89837
410.716,46.2334,-2.37671,0.25767,0.89789
411.416,46.30146,-2.38122,0.25588,0.8974
412.116,46.3696,-2.38476,0.25541,0.89692
412.816,46.43788,-2.38727,0.25404,0.89643
413.516,46.506,-2.39093,0.25181,0.89594
414.216,46.574,-2.39377,0.25234,0.89546
414.916,46.64222,-2.39951,0.24784,0.89497
415.616,46.71034,-2.40291,0.24501,0.89448
416.316,46.77837,-2.40469,0.24564,0.89399
417.016,46.84613,-2.40767,0.2426,0.8935
417.716,46.91414,-2.41056,0.24064,0.89301
418.416,46.98215,-2.41504,0.23791,0.89252
419.116,47.0505,-2.41869,0.23403,0.89203
419.816,47.1184,-2.42263,0.23326,0.89154
420.516,47.18662,-2.42408,0.22995,0.89105
421.216,47.25481,-2.42766,0.22541,0.89055
421.916,47.32335,-2.43061,0.22329,0.89006
422.616,47.39155,-2.43552,0.22126,0.88957
423.316,47.45984,-2.43841,0.22025,0.88907
424.016,47.52802,-2.44163,0.2184,0.88858
424.716,47.59636,-2.4446,0.21656,0.88808
425.416,47.66457,-2.44817,0.21615,0.88758
426.116,47.73292,-2.45041,0.21193,0.88709
426.816,47.80128,-2.45276,0.21203,0.88659
427.516,47.86954,-2.45557,0.20714,0.88609
428.216,47.93793,-2.45807,0.20689,0.88559
428.916,48.00632,-2.46054,0.20507,0.88509
429.616,48.0749,-2.46333,0.20454,0.88459
430.316,48.14312,-2.46512,0.2039,0.88409
431.016,48.21156,-2.46991,0.20514,0.88359
431.716,48.28005,-2.47286,0.20302,0.88309
432.416,48.34857,-2.4769,0.20064,0.88259
433.116,48.4167,-2.47833,0.19994,0.88209
433.816,48.485,-2.48017,0.19971,0.88158
434.516,48.55328,-2.4834,0.19899,0.88108
435.216,48.62175,-2.48609,0.19904,0.88057
435.916,48.68991,-2.4888,0.19939,0.88007
436.616,48.75817,-2.49101,0.20083,0.87956
437.316,48.82634,-2.49373,0.20093,0.87906
438.016,48.89464,-2.4966,0.2003,0.87855
438.716,48.9628,-2.49942,0.20135,0.87804
439.416,49.0311,-2.50168,0.20124,0.87754
440.116,49.09933,-2.50317,0.20082,0.87703
440.816,49.1676,-2.50614,0.20017,0.87652
441.516,49.236,-2.50863,0.20173,0.87601
442.216,49.3041,-2.51246,0.19992,0.8755
442.916,49.3722,-2.51428,0.19903,0.87499
443.616,49.4403,-2.51706,0.19793,0.87448
444.316,49.5085,-2.51909,0.19891,0.87397
445.016,49.57713,-2.52177,0.19958,0.87345
445.716,49.64564,-2.52454,0.19764,0.87294
446.416,49.7143,-2.52726,0.19691,0.87243
447.116,49.78269,-2.52851,0.19332,0.87191
447.816,49.85102,-2.53121,0.19385,0.8714
448.516,49.9195,-2.53393,0.19161,0.87089
449.216,49.988,-2.53524,0.19169,0.87037
449.916,50.0565,-2.53793,0.1914,0.86985
450.616,50.1251,-2.53855,0.18993,0.86934
451.316,50.1938,-2.54055,0.18732,0.86882
452.016,50.2624,-2.54405,0.18563,0.8683
452.716,50.3308,-2.54594,0.18453,0.86778
453.416,50.39955,-2.54819,0.18345,0.86726
454.116,50.46832,-2.55084,0.18154,0.86674
454.816,50.53713,-2.55342,0.18169,0.86622
455.516,50.60587,-2.55479,0.18112,0.8657
456.216,50.67455,-2.55751,0.17991,0.86518
456.916,50.74323,-2.55794,0.17819,0.86466
457.616,50.8117,-2.56035,0.17515,0.86414
458.316,50.88017,-2.5619,0.1777,0.86362
459.016,50.9489,-2.565,0.17504,0.86309
459.716,51.01775,-2.56684,0.17208,0.86257
460.416,51.08657,-2.5687,0.17207,0.86204
461.116,51.15518,-2.57037,0.17037,0.86152
461.816,51.22376,-2.57158,0.16753,0.86099
462.516,51.29248,-2.57405,0.16811,0.86047
463.216,51.36137,-2.57558,0.16594,0.85994
463.916,51.43023,-2.57814,0.16481,0.85941
464.616,51.49915,-2.57948,0.16297,0.85889
465.316,51.5679,-2.58222,0.16011,0.85836
466.016,51.63657,-2.5845,0.16216,0.85783
466.716,51.7053,-2.58648,0.15945,0.8573
467.416,51.7742,-2.58789,0.15688,0.85677
468.116,51.84308,-2.59012,0.15489,0.85624
468.816,51.91213,-2.59182,0.15562,0.85571
469.516,51.98093,-2.5936,0.15394,0.85518
470.216,52.04983,-2.59553,0.15121,0.85464
470.916,52.11853,-2.59649,0.15021,0.85411
471.616,52.1872,-2.59776,0.1479,0.85358
472.316,52.25589,-2.6005,0.14646,0.85304
473.016,52.32478,-2.60166,0.14621,0.85251
473.716,52.39366,-2.60432,0.14447,0.85197
474.416,52.46266,-2.607,0.14146,0.85144
475.116,52.5314,-2.60791,0.13793,0.8509
475.816,52.6004,-2.60866,0.1396,0.85037
476.516,52.6692,-2.60967,0.13883,0.84983
477.216,52.7381,-2.61233,0.13786,0.84929
477.916,52.807,-2.61372,0.13651,0.84875
478.616,52.8758,-2.61411,0.13625,0.84821
479.316,52.94484,-2.61503,0.1348,0.84767
480.016,53.01351,-2.6179,0.1316,0.84714
480.716,53.08249,-2.61785,0.13489,0.84659
481.416,53.1514,-2.62048,0.13417,0.84605
482.116,53.2207,-2.62172,0.13381,0.84551
482.816,53.28977,-2.62306,0.13358,0.84497
483.516,53.3587,-2.62437,0.13203,0.84443
484.216,53.42728,-2.6257,0.13191,0.84389
484.916,53.49601,-2.62691,0.13372,0.84334
485.616,53.56488,-2.62926,0.13408,0.8428
486.316,53.6337,-2.63096,0.13092,0.84225
487.016,53.7026,-2.63225,0.12926,0.84171
487.716,53.77135,-2.63327,0.13124,0.84116
488.416,53.84029,-2.63458,0.12992,0.84062
489.116,53.9092,-2.6359,0.13019,0.84007
489.816,53.97815,-2.63722,0.1296,0.83952
490.516,54.04714,-2.63989,0.12891,0.83897
491.216,54.116,-2.6398,0.12744,0.83843
491.916,54.18501,-2.64117,0.1277,0.83788
492.616,54.25416,-2.64249,0.12692,0.83733
493.316,54.3234,-2.64386,0.12627,0.83678
494.016,54.3924,-2.64512,0.12348,0.83623
494.716,54.4613,-2.64643,0.12365,0.83568
495.416,54.53024,-2.64705,0.12155,0.83513
496.116,54.5992,-2.64842,0.12098,0.83457
496.816,54.66806,-2.64973,0.12089,0.83402
497.516,54.7372,-2.65105,0.12066,0.83347
498.216,54.8065,-2.65236,0.11927,0.83292
498.916,54.87585,-2.65381,0.11845,0.83236
499.616,54.945,-2.655,0.11849,0.83181
500.316,55.01413,-2.65633,0.11776,0.83125
501.016,55.08324,-2.65668,0.11493,0.8307
501.716,55.15212,-2.65882,0.11627,0.83014
502.416,55.221,-2.66026,0.11614,0.82958
503.116,55.29,-2.65962,0.11605,0.82903
503.816,55.3593,-2.66094,0.11563,0.82847
504.516,55.4286,-2.66226,0.11529,0.82791
505.216,55.49739,-2.66277,0.11342,0.82735
505.916,55.56565,-2.66493,0.11266,0.82679
506.616,55.6347,-2.66497,0.11375,0.82623
507.316,55.70423,-2.66612,0.1129,0.82567
508.016,55.77421,-2.66753,0.11462,0.82511
508.716,55.8433,-2.66884,0.11419,0.82455
509.416,55.91235,-2.66885,0.11244,0.82399
510.116,55.9814,-2.67016,0.11398,0.82343
510.816,56.05039,-2.67092,0.1108,0.82286
511.516,56.11954,-2.6718,0.11466,0.8223
512.216,56.18832,-2.67312,0.11306,0.82174
512.916,56.25716,-2.67544,0.11404,0.82117
513.616,56.32585,-2.67543,0.11456,0.82061
514.316,56.3948,-2.67683,0.11399,0.82004
515.016,56.4639,-2.67807,0.11493,0.81948
515.716,56.5326,-2.67884,0.11512,0.81891
516.416,56.6018,-2.67817,0.11585,0.81834
517.116,56.6708,-2.67938,0.11446,0.81778
517.816,56.7402,-2.6807,0.11511,0.81721
518.516,56.80907,-2.68201,0.11425,0.81664
519.216,56.87826,-2.68202,0.11387,0.81607
519.916,56.9475,-2.68333,0.1153,0.8155
520.616,57.0171,-2.68333,0.11561,0.81493
521.316,57.08639,-2.68333,0.1172,0.81436
522.016,57.15577,-2.68333,0.11488,0.81379
522.716,57.22501,-2.6847,0.11564,0.81322
523.416,57.29446,-2.68664,0.11642,0.81265
524.116,57.36385,-2.68705,0.11461,0.81208
524.816,57.4329,-2.68794,0.11399,0.8115
525.516,57.50232,-2.68827,0.11532,0.81093
526.216,57.5716,-2.69107,0.11426,0.81036
526.916,57.64094,-2.68992,0.11545,0.80978
527.616,57.71037,-2.69123,0.11469,0.80921
528.316,57.77969,-2.69123,0.11375,0.80863
529.016,57.8493,-2.69255,0.11499,0.80806
529.716,57.91879,-2.69616,0.11555,0.80748
530.416,57.9882,-2.69586,0.1131,0.80691
531.116,58.0574,-2.69452,0.11454,0.80633
531.816,58.12661,-2.69584,0.11433,0.80575
532.516,58.19569,-2.69463,0.11458,0.80517
533.216,58.265,-2.69714,0.11557,0.80459
533.916,58.33421,-2.69846,0.11534,0.80402
534.616,58.40347,-2.69847,0.11497,0.80344
535.316,58.4728,-2.6998,0.11618,0.80286
536.016,58.54189,-2.69981,0.11587,0.80228
536.716,58.6111,-2.70112,0.11875,0.80169
537.416,58.68028,-2.70012,0.11685,0.80111
538.116,58.7497,-2.70279,0.11827,0.80053
538.816,58.8191,-2.70276,0.11664,0.79995
539.516,58.88847,-2.70408,0.1168,0.79937
540.216,58.95776,-2.70341,0.11694,0.79878
540.916,59.02729,-2.70474,0.11664,0.7982
541.616,59.0967,-2.70548,0.11774,0.79761
542.316,59.1661,-2.70605,0.11867,0.79703
543.016,59.23551,-2.70735,0.11853,0.79645
543.716,59.3045,-2.70737,0.12066,0.79586
544.416,59.37396,-2.70799,0.12161,0.79527
545.116,59.44322,-2.70925,0.12152,0.79469
545.816,59.5131,-2.70862,0.12185,0.7941
546.516,59.5827,-2.70936,0.12376,0.79351
547.216,59.6524,-2.70935,0.12264,0.79292
547.916,59.72204,-2.71064,0.12542,0.79234
548.616,59.79175,-2.71173,0.12235,0.79175
549.316,59.86169,-2.71199,0.12344,0.79116
550.016,59.9315,-2.71338,0.1245,0.79057
550.716,60.0011,-2.71192,0.12471,0.78998
551.416,60.0705,-2.71331,0.12705,0.78939
552.116,60.14004,-2.71461,0.1265,0.7888
552.816,60.2095,-2.71462,0.12836,0.7882
553.516,60.2792,-2.71594,0.12988,0.78761
554.216,60.34881,-2.71594,0.13289,0.78702
554.916,60.41855,-2.71726,0.13345,0.78643
555.616,60.48839,-2.71726,0.13503,0.78583
556.316,60.55823,-2.71851,0.13851,0.78524
557.016,60.628,-2.71854,0.13804,0.78464
557.716,60.69749,-2.71989,0.13869,0.78405
558.416,60.76704,-2.71858,0.13905,0.78345
559.116,60.83664,-2.71969,0.13946,0.78286
559.816,60.9063,-2.72056,0.13997,0.78226
560.516,60.97575,-2.72187,0.14054,0.78167
561.216,61.045,-2.72187,0.1386,0.78107
561.916,61.11455,-2.72323,0.14372,0.78047
562.616,61.18401,-2.72318,0.14208,0.77987
563.316,61.25371,-2.72317,0.14297,0.77927
564.016,61.32323,-2.72314,0.14242,0.77868
564.716,61.39271,-2.7245,0.14356,0.77808
565.416,61.46206,-2.7245,0.1454,0.77748
566.116,61.5313,-2.72582,0.14581,0.77688
566.816,61.60074,-2.72451,0.14769,0.77628
567.516,61.67004,-2.72622,0.14623,0.77568
568.216,61.73941,-2.72713,0.14729,0.77507
568.916,61.809,-2.72811,0.14864,0.77447
569.616,61.8786,-2.72844,0.14647,0.77387
570.316,61.94815,-2.72803,0.14898,0.77327
571.016,62.0176,-2.72845,0.14853,0.77266
571.716,62.08729,-2.72877,0.14881,0.77206
572.416,62.15684,-2.7301,0.14921,0.77146
573.116,62.2265,-2.73141,0.15081,0.77085
573.816,62.29609,-2.73141,0.14945,0.77025
574.516,62.3661,-2.73141,0.15193,0.76964
575.216,62.4361,-2.73273,0.14782,0.76904
575.916,62.506,-2.73402,0.14868,0.76843
576.616,62.5758,-2.7341,0.14863,0.76782
577.316,62.6456,-2.73405,0.14962,0.76722
578.016,62.71549,-2.73405,0.14876,0.76661
578.716,62.7854,-2.73571,0.14935,0.766
579.416,62.85521,-2.73668,0.14817,0.76539
580.116,62.925,-2.73665,0.14899,0.76478
580.816,62.99459,-2.73535,0.14768,0.76417
581.516,63.0644,-2.73668,0.15032,0.76356
582.216,63.1338,-2.73801,0.14665,0.76295
582.916,63.20375,-2.738,0.14925,0.76234
583.616,63.2735,-2.73812,0.1487,0.76173
584.316,63.34361,-2.74045,0.14652,0.76112
585.016,63.41347,-2.73932,0.14687,0.76051
585.716,63.48336,-2.7406,0.14783,0.7599
586.416,63.5533,-2.74063,0.14477,0.75929
587.116,63.62321,-2.74196,0.14428,0.75867
587.816,63.69305,-2.74196,0.14589,0.75806
588.516,63.76282,-2.74327,0.14866,0.75745
589.216,63.8327,-2.74212,0.14585,0.75683
589.916,63.9026,-2.74361,0.14595,0.75622
590.616,63.9725,-2.74364,0.14621,0.7556
591.316,64.04234,-2.74492,0.14709,0.75499
592.016,64.11222,-2.74492,0.14664,0.75437
592.716,64.18204,-2.74492,0.14686,0.75376
593.416,64.25177,-2.74624,0.1473,0.75314
594.116,64.32132,-2.74624,0.14811,0.75252
594.816,64.39111,-2.74868,0.14658,0.7519
595.516,64.46104,-2.74975,0.14674,0.75129
596.216,64.53111,-2.74887,0.14607,0.75067
596.916,64.60105,-2.74938,0.14637,0.75005
597.616,64.67084,-2.75018,0.14625,0.74943
598.316,64.74051,-2.74887,0.14679,0.74881
599.016,64.81025,-2.74887,0.1479,0.74819
599.716,64.8801,-2.75025,0.14748,0.74757
600.416,64.95023,-2.75151,0.14783,0.74695
601.116,65.02009,-2.75119,0.1477,0.74633
601.816,65.09011,-2.75158,0.14818,0.74571
602.516,65.16014,-2.75284,0.15005,0.74509
603.216,65.2303,-2.7528,0.14868,0.74447
603.916,65.3004,-2.75414,0.148,0.74384
604.616,65.37035,-2.75546,0.14645,0.74322
605.316,65.44063,-2.75546,0.1461,0.7426
606.016,65.5106,-2.75413,0.14148,0.74198
606.716,65.5808,-2.75626,0.14248,0.74135
607.416,65.6508,-2.75678,0.14318,0.74073
608.116,65.72066,-2.75678,0.14491,0.7401
608.816,65.7908,-2.75726,0.14407,0.73948
609.516,65.86089,-2.75789,0.14399,0.73885
610.216,65.9311,-2.75949,0.14411,0.73823
610.916,66.00115,-2.75958,0.14208,0.7376
611.616,66.0712,-2.76007,0.14224,0.73697
612.316,66.14141,-2.76007,0.14178,0.73635
613.016,66.2116,-2.76096,0.14153,0.73572
613.716,66.28152,-2.76071,0.14242,0.73509
614.416,66.35154,-2.76204,0.13801,0.73446
615.116,66.4213,-2.76204,0.13908,0.73384
615.816,66.4915,-2.7619,0.13649,0.73321
616.516,66.56159,-2.7627,0.13871,0.73258
617.216,66.6319,-2.7633,0.137,0.73195
617.916,66.70182,-2.76402,0.13866,0.73132
618.616,66.77189,-2.76402,0.13705,0.73069
619.316,66.84201,-2.7652,0.1363,0.73006
620.016,66.9123,-2.76469,0.1364,0.72943
620.716,66.98261,-2.76469,0.13685,0.7288
621.416,67.0527,-2.76602,0.13529,0.72817
622.116,67.1227,-2.76599,0.13312,0.72753
622.816,67.19269,-2.76666,0.13447,0.7269
623.516,67.26281,-2.76567,0.13346,0.72627
624.216,67.333,-2.767,0.13439,0.72564
624.916,67.40312,-2.76829,0.13338,0.725
625.616,67.47255,-2.77005,0.13175,0.72437
626.316,67.54228,-2.76995,0.13148,0.72373
627.016,67.61228,-2.77004,0.13158,0.7231
627.716,67.68267,-2.76995,0.13196,0.72247
628.416,67.75291,-2.76995,0.13235,0.72183
629.116,67.82273,-2.77124,0.13045,0.7212
629.816,67.89287,-2.77127,0.1325,0.72056
630.516,67.9628,-2.77256,0.13185,0.71992
631.216,68.03296,-2.77259,0.12904,0.71929
631.916,68.10329,-2.77259,0.12937,0.71865
632.616,68.1735,-2.7739,0.12685,0.71801
633.316,68.2435,-2.77389,0.12696,0.71738
634.016,68.3136,-2.77291,0.12666,0.71674
634.716,68.38383,-2.7729,0.12657,0.7161
635.416,68.45405,-2.7739,0.12433,0.71546
636.116,68.52408,-2.77261,0.12703,0.71482
636.816,68.59429,-2.7739,0.12341,0.71418
637.516,68.66441,-2.7739,0.12375,0.71355
638.216,68.73475,-2.77654,0.12305,0.71291
638.916,68.8051,-2.77654,0.12014,0.71227
639.616,68.87536,-2.77661,0.11878,0.71163
640.316,68.9456,-2.77653,0.11914,0.71098
641.016,69.01569,-2.77653,0.1162,0.71034
641.716,69.08599,-2.77756,0.1159,0.7097
642.416,69.15595,-2.77785,0.11348,0.70906
643.116,69.22599,-2.77785,0.11393,0.70842
643.816,69.29616,-2.77918,0.11146,0.70778
644.516,69.36646,-2.77784,0.11243,0.70713
645.216,69.43685,-2.77917,0.10871,0.70649
645.916,69.5072,-2.77917,0.10656,0.70585
646.616,69.5774,-2.77917,0.10456,0.7052
647.316,69.64744,-2.7791,0.10504,0.70456
648.016,69.71741,-2.78184,0.10266,0.70392
648.716,69.78758,-2.78181,0.10627,0.70327
649.416,69.85789,-2.7818,0.10427,0.70263
650.116,69.92829,-2.78309,0.10422,0.70198
650.816,69.9985,-2.78411,0.10307,0.70134
651.516,70.06865,-2.78411,0.1015,0.70069
652.216,70.13884,-2.7828,0.10268,0.70005
652.916,70.20915,-2.78346,0.1017,0.6994
653.616,70.27959,-2.78346,0.09983496,0.69875
654.316,70.34992,-2.78351,0.09920829,0.69811
655.016,70.42023,-2.78477,0.09664926,0.69746
655.716,70.49046,-2.78486,0.09741209,0.69681
656.416,70.56075,-2.78609,0.09735552,0.69616
657.116,70.63101,-2.78573,0.09761137,0.69552
657.816,70.70116,-2.78683,0.09579889,0.69487
658.516,70.77144,-2.78673,0.09729943,0.69422
659.216,70.8417,-2.78807,0.0960136,0.69357
659.916,70.9121,-2.78807,0.09737163,0.69292
660.616,70.9826,-2.78807,0.09783989,0.69227
661.316,71.05295,-2.78808,0.09538225,0.69162
662.016,71.1233,-2.78938,0.09429258,0.69097
662.716,71.1934,-2.78974,0.09252475,0.69032
663.416,71.26365,-2.78971,0.09395508,0.68967
664.116,71.33395,-2.78971,0.09360757,0.68902
664.816,71.40405,-2.78971,0.09111961,0.68837
665.516,71.4743,-2.78981,0.09175083,0.68772
666.216,71.54446,-2.79069,0.09108374,0.68707
666.916,71.61488,-2.79033,0.09024401,0.68642
667.616,71.68522,-2.7906,0.09005351,0.68576
668.316,71.7555,-2.79071,0.08620052,0.68511
669.016,71.82567,-2.79064,0.08556496,0.68446
669.716,71.89617,-2.79172,0.08590203,0.68381
670.416,71.96682,-2.793,0.08396722,0.68315
671.116,72.0376,-2.793,0.08237799,0.6825
671.816,72.10808,-2.79432,0.08443172,0.68184
672.516,72.17851,-2.79334,0.08348509,0.68119
673.216,72.24883,-2.79429,0.08209953,0.68054
673.916,72.3192,-2.79465,0.08100039,0.67988
674.616,72.38974,-2.79465,0.07630753,0.67923
675.316,72.4602,-2.79597,0.07551678,0.67857
676.016,72.53064,-2.79593,0.07728531,0.67792
676.716,72.60084,-2.79564,0.07299666,0.67726
677.416,72.67115,-2.79695,0.07339151,0.67661
678.116,72.74135,-2.79695,0.07143653,0.67595
678.816,72.81177,-2.79695,0.07272025,0.67529
679.516,72.8822,-2.79828,0.07249391,0.67464
680.216,72.95278,-2.79827,0.07361273,0.67398
680.916,73.02324,-2.79827,0.07454236,0.67332
681.616,73.0938,-2.79828,0.07145736,0.67266
682.316,73.1642,-2.79828,0.07007358,0.67201
683.016,73.2346,-2.79828,0.07079437,0.67135
683.716,73.30487,-2.80091,0.07165527,0.67069
684.416,73.3754,-2.79958,0.07090661,0.67003
685.116,73.44589,-2.79959,0.07098952,0.66937
685.816,73.51653,-2.80091,0.07154581,0.66872
686.516,73.58685,-2.80167,0.06840644,0.66806
687.216,73.6572,-2.80223,0.06870972,0.6674
687.916,73.72756,-2.80157,0.06516131,0.66674
688.616,73.79785,-2.80124,0.06533273,0.66608
689.316,73.86769,-2.80124,0.0624199,0.66542
690.016,73.93795,-2.80256,0.06398881,0.66476
690.716,74.00841,-2.80256,0.06506557,0.6641
691.416,74.0792,-2.80387,0.06369427,0.66344
692.116,74.1496,-2.80387,0.0643813,0.66278
692.816,74.21995,-2.8046,0.06555558,0.66212
693.516,74.29043,-2.80519,0.06358611,0.66145
694.216,74.36092,-2.80519,0.06509845,0.66079
694.916,74.43124,-2.80519,0.06434946,0.66013
695.616,74.50155,-2.80651,0.06317881,0.65947
696.316,74.57182,-2.80651,0.06333585,0.65881
697.016,74.64205,-2.80664,0.06220036,0.65814
697.716,74.7123,-2.80755,0.05954433,0.65748
698.416,74.7826,-2.80884,0.06018649,0.65682
699.116,74.85316,-2.80881,0.05880809,0.65616
699.816,74.9237,-2.80848,0.05790575,0.65549
700.516,74.99444,-2.80748,0.05857292,0.65483
701.216,75.06494,-2.8088,0.0587188,0.65417
701.916,75.13557,-2.80882,0.05883917,0.6535
702.616,75.20609,-2.81013,0.05502824,0.65284
703.316,75.27664,-2.81014,0.05451284,0.65217
704.016,75.34704,-2.80569,0.05021315,0.65151
704.716,75.41753,-2.79851,0.0496377,0.65084
705.416,75.48816,-2.80061,0.04933311,0.65018
706.116,75.5589,-2.8032,0.05038197,0.64952
706.816,75.62952,-2.80553,0.05067763,0.64885
707.516,75.69994,-2.80792,0.05036912,0.64818
708.216,75.7705,-2.80896,0.04954739,0.64752
708.916,75.84103,-2.81366,0.05289573,0.64685
709.616,75.91168,-2.81649,0.0506952,0.64619
710.316,75.9821,-2.8177,0.04930684,0.64552
711.016,76.05261,-2.81638,0.04745068,0.64485
711.716,76.12312,-2.8163,0.04678083,0.64419
712.416,76.19367,-2.81639,0.04602658,0.64352
713.116,76.26385,-2.81704,0.04635323,0.64285
713.816,76.33385,-2.81639,0.04354593,0.64219
714.516,76.40422,-2.81603,0.04228137,0.64152
715.216,76.47508,-2.81538,0.04451979,0.64085
715.916,76.5459,-2.81637,0.04513954,0.64018
716.616,76.6164,-2.81638,0.04175567,0.63952
717.316,76.68688,-2.81638,0.04297247,0.63885
718.016,76.75758,-2.81507,0.04792186,0.63818
718.716,76.8284,-2.81635,0.04395962,0.63751
719.416,76.8989,-2.8177,0.04146974,0.63684
720.116,76.9695,-2.81507,0.03995702,0.63618
720.816,77.04009,-2.81449,0.03885924,0.63551
721.516,77.1109,-2.81376,0.03770854,0.63484
722.216,77.18163,-2.81376,0.0346999,0.63417
722.916,77.25242,-2.81442,0.03482347,0.6335
723.616,77.32345,-2.81529,0.03805925,0.63283
724.316,77.3942,-2.81794,0.03719521,0.63216
725.016,77.46484,-2.8198,0.03930821,0.63149
725.716,77.53555,-2.82319,0.03736978,0.63082
726.416,77.60643,-2.82547,0.03711917,0.63015
727.116,77.67741,-2.82715,0.03684181,0.62948
727.816,77.74803,-2.82946,0.03597031,0.62881
728.516,77.81879,-2.8323,0.03748144,0.62814
729.216,77.88955,-2.82944,0.03683329,0.62747
729.916,77.96021,-2.82866,0.03516349,0.6268
730.616,78.0308,-2.82795,0.03120393,0.62613
731.316,78.10163,-2.82519,0.03127514,0.62546
732.016,78.17245,-2.82528,0.02992336,0.62478
732.716,78.24325,-2.82529,0.02459146,0.62411
733.416,78.3138,-2.82486,0.02817216,0.62344
734.116,78.3844,-2.82396,0.02432815,0.62277
734.816,78.45509,-2.82406,0.02336907,0.6221
735.516,78.52589,-2.82399,0.02171872,0.62143
736.216,78.5967,-2.82396,0.02356891,0.62075
736.916,78.66747,-2.82396,0.02279152,0.62008
737.616,78.73779,-2.82396,0.01850349,0.61941
738.316,78.80826,-2.82396,0.02063395,0.61874
739.016,78.87902,-2.82496,0.01890133,0.61806
739.716,78.95008,-2.82396,0.01790011,0.61739
740.416,79.02128,-2.8258,0.01737984,0.61672
741.116,79.09201,-2.82528,0.0158563,0.61604
741.816,79.16275,-2.82528,0.01423129,0.61537
742.516,79.2334,-2.82528,0.01524778,0.6147
743.216,79.30418,-2.82668,0.01091005,0.61402
743.916,79.37484,-2.82659,0.0138127,0.61335
744.616,79.44551,-2.82659,0.01384683,0.61268
745.316,79.51608,-2.82659,0.01223522,0.612
746.016,79.58666,-2.82659,0.01219915,0.61133
746.716,79.65696,-2.82661,0.01095776,0.61066
747.416,79.72745,-2.82791,0.01021464,0.60998
748.116,79.79804,-2.82786,0.01117327,0.60931
748.816,79.86875,-2.82792,0.01288372,0.60863
749.516,79.93921,-2.8289,0.008804588,0.60796
750.216,80.00966,-2.83054,0.007579508,0.60728
750.916,80.0799,-2.82953,0.00504874,0.60661
751.616,80.15047,-2.82924,0.006999911,0.60593
752.316,80.22106,-2.82924,0.005148237,0.60526
753.016,80.29195,-2.83024,0.00619521,0.60458
753.716,80.36272,-2.83022,0.004190096,0.60391
754.416,80.43348,-2.83019,0.004623612,0.60323
755.116,80.50411,-2.83055,0.007756555,0.60256
755.816,80.5748,-2.83187,0.00653068,0.60188
756.516,80.64559,-2.83187,0.00731842,0.60121
757.216,80.71635,-2.83187,0.007577669,0.60053
757.916,80.78703,-2.83187,0.006478221,0.59986
758.616,80.8578,-2.83246,0.00717224,0.59918
759.316,80.92857,-2.83286,0.002505523,0.59851
760.016,80.99937,-2.83286,0.00414726,0.59783
760.716,81.07007,-2.83286,0.00616278,0.59715
761.416,81.14076,-2.83284,0.01167653,0.59648
762.116,81.2114,-2.83319,0.008947141,0.5958
762.816,81.28216,-2.83319,0.003659587,0.59513
763.516,81.35307,-2.83319,0.006556431,0.59445
764.216,81.4239,-2.83318,0.00122846,0.59377
764.916,81.49486,-2.83549,0.0007105266,0.5931
765.616,81.5656,-2.83549,0.001225731,0.59242
766.316,81.63636,-2.83417,9.388271e-05,0.59174
767.016,81.70713,-2.83549,-0.001444755,0.59107
767.716,81.7779,-2.83549,0.00128695,0.59039
768.416,81.8487,-2.83549,-0.001920271,0.58971
769.116,81.9194,-2.8355,-0.003584233,0.58904
769.816,81.99027,-2.8362,-0.001991306,0.58836
770.516,82.0611,-2.83681,-0.0002125793,0.58768
771.216,82.13163,-2.83681,-0.0001174143,0.58701
771.916,82.2021,-2.83681,-0.0008895931,0.58633
772.616,82.27269,-2.83747,0.00371748,0.58565
773.316,82.34337,-2.8382,0.002774149,0.58497
774.016,82.41424,-2.83938,0.0004572453,0.5843
774.716,82.48481,-2.83944,-0.003510896,0.58362
775.416,82.5557,-2.83944,-0.004922657,0.58294
776.116,82.62652,-2.83879,-0.005092219,0.58226
776.816,82.69748,-2.83878,-0.005477187,0.58159
777.516,82.7684,-2.83874,-0.009284025,0.58091
778.216,82.839,-2.8401,-0.00759667,0.58023
778.916,82.9097,-2.8401,-0.007602468,0.57955
779.616,82.9803,-2.84076,-0.008985034,0.57888
780.316,83.05112,-2.8401,-0.01062971,0.5782
781.016,83.12187,-2.84006,-0.00779706,0.57752
781.716,83.19258,-2.84076,-0.007601881,0.57684
782.416,83.2633,-2.84076,-0.006794736,0.57617
783.116,83.3339,-2.84076,-0.01170965,0.57549
783.816,83.40465,-2.84072,-0.01097402,0.57481
784.516,83.47538,-2.84076,-0.01280232,0.57413
785.216,83.5463,-2.84208,-0.009351555,0.57345
785.916,83.61692,-2.8419,-0.01205517,0.57278
786.616,83.68781,-2.84076,-0.01381217,0.5721
787.316,83.75859,-2.84207,-0.01547237,0.57142
788.016,83.82969,-2.84339,-0.01517163,0.57074
788.716,83.9004,-2.84207,-0.02021572,0.57006
789.416,83.97137,-2.84347,-0.02439218,0.56938
790.116,84.04221,-2.84339,-0.02157195,0.56871
790.816,84.11339,-2.84363,-0.02232894,0.56803
791.516,84.18423,-2.84536,-0.02540678,0.56735
792.216,84.2552,-2.84438,-0.02280882,0.56667
792.916,84.3261,-2.84438,-0.02610067,0.56599
793.616,84.39721,-2.84438,-0.02689307,0.56532
794.316,84.46807,-2.84439,-0.02901834,0.56464
795.016,84.5388,-2.84439,-0.02842453,0.56396
795.716,84.6095,-2.84439,-0.02652873,0.56328
796.416,84.68025,-2.84439,-0.02695766,0.5626
797.116,84.7511,-2.84676,-0.02977275,0.56192
797.816,84.82204,-2.84669,-0.02534472,0.56125
798.516,84.893,-2.8466,-0.02663717,0.56057
799.216,84.96374,-2.84603,-0.02313695,0.55989
799.516,84.9939,-2.84603,-0.02597409,0.5596