File: 01_Data/Countertop_Plastic_LaminateB/MCC/Countertop_Plastic_LaminateB_MCC_30K_min_211215_R1.txt
Sample ID:	C:\MCC\MCC Cal\Test\Countertop_Plastic_LaminateB_MCC_30K_min_211215_R1.txt
Sample Weight (mg):	4.52
Heating Rate (C/s):	0.5
Combustor Temp (C):	900
N2 Flow Rate (cc/min):	80
O2 Flow Rate (cc/min):	20
Calibration File:	C:\MCC\MCC Cal\Coeff1 JN10440_30_210304.txt.txt
T Correction Coefficients:	0	1.024463	0
Time Shift (s):	14
*
Time (s)	Temperature (C)	N2 flow rate (cc/min)	O2 flow rate (cc/min)	Flow Rate (cc/min)	Oxygen (%)	HRR (W/g)	Heating rate (C/s)
0.000	109.723	80.003	19.996	102.990	20.388	-0.130	0.050
2.000	109.719	80.000	19.997	102.996	20.388	-0.126	0.057
4.000	109.756	80.004	19.996	102.990	20.392	-0.457	0.005
6.000	109.697	80.004	19.994	102.991	20.393	-0.531	-0.011
8.000	109.696	79.999	19.996	102.994	20.390	-0.254	-0.017
10.000	109.723	80.003	19.992	103.007	20.392	-0.440	0.000
11.999	109.680	80.001	19.995	103.013	20.387	-0.093	-0.022
13.999	109.708	80.004	19.993	103.018	20.384	0.138	0.001
16.000	109.737	80.003	19.995	103.013	20.383	0.211	-0.001
18.000	109.764	79.999	19.996	103.040	20.382	0.283	0.025
20.000	109.853	80.004	19.996	103.054	20.382	0.256	0.036
22.000	109.862	80.006	19.998	103.057	20.379	0.475	0.042
24.000	109.957	80.002	19.997	103.075	20.372	1.020	0.027
25.999	109.983	80.004	19.996	103.089	20.371	1.089	0.037
28.000	110.040	80.006	19.996	103.128	20.368	1.292	0.012
29.999	110.229	80.006	19.996	103.158	20.368	1.269	0.080
32.000	110.345	80.003	19.994	103.145	20.366	1.397	0.086
34.001	110.557	80.001	19.995	103.136	20.364	1.557	0.097
35.999	110.743	80.006	19.996	103.156	20.358	2.031	0.138
37.999	110.896	79.998	19.994	103.185	20.354	2.270	0.088
39.999	111.207	80.006	19.995	103.185	20.357	2.079	0.127
42.000	111.502	80.007	19.993	103.189	20.350	2.532	0.176
44.000	111.781	80.001	19.994	103.211	20.348	2.707	0.157
45.999	112.152	80.011	19.991	103.226	20.349	2.655	0.196
47.999	112.521	80.013	19.994	103.230	20.346	2.874	0.187
49.999	112.895	80.009	19.998	103.246	20.344	3.008	0.207
51.999	113.336	80.010	19.994	103.242	20.346	2.861	0.208
53.999	113.796	80.007	19.996	103.258	20.340	3.259	0.237
55.999	114.282	80.008	19.994	103.265	20.339	3.337	0.246
57.999	114.753	80.012	19.993	103.256	20.337	3.475	0.234
59.999	115.303	80.004	19.994	103.253	20.340	3.300	0.255
62.000	115.854	80.002	19.994	103.258	20.340	3.253	0.271
64.000	116.476	80.002	19.993	103.281	20.338	3.392	0.331
66.000	116.995	80.001	19.995	103.286	20.337	3.486	0.329
67.999	117.666	79.997	19.994	103.281	20.337	3.500	0.312
70.000	118.353	79.999	19.996	103.289	20.337	3.510	0.339
71.999	118.967	80.001	19.995	103.284	20.336	3.547	0.368
74.000	119.685	80.007	19.993	103.287	20.334	3.691	0.363
75.999	120.391	79.998	19.995	103.289	20.335	3.663	0.366
78.000	121.134	80.003	19.994	103.284	20.332	3.881	0.383
79.999	121.924	80.005	19.994	103.284	20.330	3.961	0.463
81.999	122.663	80.004	19.997	103.286	20.331	3.935	0.393
84.001	123.460	80.004	19.994	103.289	20.334	3.712	0.394
86.000	124.232	80.003	19.994	103.291	20.333	3.778	0.400
87.999	125.044	80.005	19.993	103.287	20.333	3.768	0.412
89.999	125.903	80.005	19.996	103.288	20.331	3.929	0.412
92.000	126.746	80.018	19.993	103.289	20.328	4.133	0.419
94.000	127.604	80.005	19.994	103.290	20.330	4.003	0.437
96.000	128.476	80.002	19.995	103.290	20.330	4.011	0.421
97.999	129.386	80.005	19.995	103.290	20.329	4.048	0.421
100.001	130.302	80.003	19.994	103.289	20.331	3.945	0.456
101.999	131.161	80.006	19.996	103.287	20.334	3.743	0.438
103.999	132.085	80.001	19.996	103.290	20.332	3.827	0.466
105.999	132.982	80.007	19.994	103.285	20.334	3.743	0.458
107.999	133.928	80.005	19.994	103.287	20.331	3.891	0.467
109.999	134.860	80.005	19.995	103.286	20.331	3.959	0.469
111.999	135.816	80.007	19.995	103.286	20.331	3.935	0.486
114.000	136.744	80.004	19.996	103.292	20.330	3.992	0.446
115.999	137.724	80.005	19.994	103.290	20.331	3.898	0.482
117.999	138.705	79.999	19.994	103.293	20.331	3.955	0.418
119.999	139.688	80.005	19.995	103.291	20.327	4.240	0.465
122.000	140.702	80.004	19.993	103.286	20.328	4.169	0.490
123.999	141.671	80.003	19.994	103.284	20.331	3.945	0.511
126.000	142.659	80.004	19.993	103.290	20.329	4.067	0.510
128.000	143.705	80.004	19.995	103.282	20.332	3.820	0.525
130.000	144.691	80.000	19.995	103.289	20.333	3.815	0.477
132.000	145.701	80.004	19.994	103.291	20.330	3.972	0.533
134.000	146.687	80.003	19.994	103.285	20.330	4.001	0.510
136.000	147.697	80.002	19.996	103.281	20.331	3.929	0.507
138.000	148.744	80.003	19.995	103.280	20.334	3.686	0.552
140.000	149.736	80.002	19.996	103.280	20.333	3.775	0.463
142.000	150.778	80.003	19.997	103.285	20.333	3.779	0.495
144.000	151.799	80.003	19.995	103.278	20.326	4.257	0.482
146.000	152.760	80.003	19.995	103.273	20.331	3.953	0.501
148.000	153.821	80.002	19.995	103.267	20.334	3.676	0.518
150.000	154.793	80.004	19.996	103.264	20.329	4.041	0.486
152.000	155.804	80.001	19.993	103.258	20.331	3.891	0.484
154.000	156.868	80.005	19.995	103.268	20.333	3.798	0.527
156.000	157.840	80.005	19.995	103.253	20.328	4.109	0.498
158.000	158.867	80.005	19.995	103.255	20.333	3.771	0.492
160.000	159.863	80.005	19.993	103.253	20.331	3.932	0.508
162.000	160.868	80.008	19.994	103.253	20.332	3.872	0.549
164.000	161.861	80.018	19.992	103.254	20.333	3.808	0.495
166.000	162.876	80.008	19.994	103.249	20.330	3.979	0.508
168.000	163.868	80.008	19.993	103.255	20.331	3.887	0.493
170.000	164.933	80.014	19.995	103.246	20.329	4.093	0.537
172.000	165.924	80.003	19.993	103.257	20.330	3.963	0.485
174.000	166.926	80.005	19.995	103.248	20.327	4.189	0.489
176.000	167.952	80.004	19.993	103.252	20.331	3.895	0.523
178.000	168.932	80.008	19.994	103.253	20.327	4.204	0.507
180.000	169.919	79.996	19.994	103.253	20.325	4.342	0.507
182.000	170.904	80.007	19.994	103.247	20.325	4.328	0.483
184.000	171.881	80.000	19.996	103.254	20.328	4.171	0.469
186.000	172.935	80.012	19.993	103.254	20.326	4.281	0.521
188.000	173.906	80.002	19.995	103.248	20.326	4.282	0.497
190.001	174.903	80.021	19.993	103.247	20.324	4.431	0.518
192.000	175.887	79.999	19.995	103.255	20.318	4.832	0.484
194.000	176.826	80.000	19.995	103.250	20.328	4.130	0.503
196.000	177.830	79.998	19.996	103.248	20.321	4.627	0.460
198.000	178.815	80.002	19.996	103.249	20.322	4.576	0.476
200.000	179.817	80.000	19.995	103.222	20.317	4.908	0.475
202.000	180.799	80.010	19.996	103.192	20.319	4.771	0.466
204.000	181.771	80.000	19.997	103.303	20.320	4.730	0.490
206.000	182.738	80.004	19.995	103.252	20.319	4.747	0.483
208.000	183.727	80.008	19.997	103.242	20.320	4.739	0.494
210.000	184.684	79.991	19.997	103.249	20.313	5.178	0.492
212.000	185.734	80.000	19.994	103.240	20.319	4.770	0.478
214.000	186.744	80.004	19.995	103.249	20.314	5.103	0.510
216.000	187.700	80.005	19.994	103.247	20.312	5.266	0.493
218.000	188.667	80.005	19.995	103.242	20.312	5.305	0.488
220.000	189.645	79.999	19.995	103.240	20.308	5.545	0.490
222.000	190.600	80.008	19.994	103.237	20.312	5.305	0.483
224.000	191.575	80.007	19.995	103.247	20.311	5.365	0.468
226.000	192.596	79.999	19.996	103.248	20.312	5.265	0.497
228.000	193.542	80.000	19.996	103.245	20.311	5.382	0.465
230.000	194.516	80.004	19.996	103.249	20.314	5.110	0.478
232.000	195.517	80.004	19.995	103.247	20.306	5.695	0.520
234.000	196.477	80.005	19.996	103.247	20.309	5.503	0.499
236.000	197.450	80.004	19.996	103.245	20.306	5.685	0.485
238.000	198.445	80.002	19.996	103.236	20.303	5.945	0.490
240.000	199.408	80.004	19.995	103.238	20.303	5.885	0.468
242.000	200.400	80.004	19.994	103.244	20.302	6.019	0.456
244.000	201.418	80.005	19.995	103.249	20.304	5.824	0.509
246.000	202.368	80.015	19.993	103.240	20.302	6.000	0.500
248.000	203.364	80.006	19.992	103.249	20.300	6.114	0.479
250.000	204.286	80.008	19.995	103.249	20.301	6.064	0.440
252.000	205.315	80.006	19.993	103.249	20.301	6.073	0.494
254.000	206.300	80.002	19.995	103.245	20.299	6.172	0.499
256.000	207.344	80.002	19.994	103.242	20.299	6.205	0.490
258.000	208.354	79.996	20.000	103.246	20.296	6.416	0.501
260.000	209.308	80.004	19.994	103.247	20.295	6.489	0.483
262.000	210.290	80.000	19.994	103.248	20.297	6.360	0.504
264.000	211.312	80.008	19.993	103.246	20.292	6.704	0.530
266.000	212.344	80.009	19.991	103.246	20.294	6.554	0.496
268.000	213.292	80.004	19.995	103.237	20.296	6.425	0.492
270.000	214.304	80.012	19.987	103.241	20.295	6.518	0.499
272.000	215.283	80.008	19.991	103.243	20.295	6.498	0.473
274.000	216.300	79.996	19.994	103.231	20.295	6.451	0.490
276.000	217.306	80.001	19.994	103.229	20.291	6.799	0.475
278.000	218.282	80.002	19.993	103.240	20.294	6.570	0.483
280.000	219.280	80.004	19.994	103.240	20.294	6.579	0.504
282.000	220.298	80.005	19.994	103.237	20.293	6.661	0.478
284.000	221.287	80.002	19.994	103.231	20.295	6.475	0.517
286.000	222.301	80.005	19.992	103.238	20.289	6.888	0.508
288.000	223.296	79.999	19.995	103.235	20.285	7.214	0.543
290.000	224.263	79.993	19.995	103.230	20.281	7.463	0.514
292.000	225.305	79.998	19.996	103.230	20.286	7.096	0.527
294.000	226.293	79.997	19.996	103.241	20.279	7.595	0.490
296.000	227.316	80.005	19.997	103.236	20.280	7.564	0.521
298.000	228.323	80.019	19.991	103.229	20.275	7.897	0.456
300.000	229.329	80.003	19.996	103.246	20.276	7.817	0.503
302.000	230.326	80.007	19.994	103.232	20.270	8.293	0.490
304.000	231.325	79.996	19.992	103.243	20.266	8.551	0.521
306.000	232.296	80.015	19.995	103.232	20.269	8.372	0.499
308.000	233.250	79.998	19.996	103.248	20.267	8.461	0.442
310.000	234.260	80.019	19.995	103.234	20.263	8.768	0.465
312.000	235.259	80.008	19.993	103.248	20.255	9.305	0.500
314.000	236.215	80.009	19.995	103.245	20.259	9.063	0.505
316.000	237.250	80.004	19.993	103.246	20.258	9.108	0.479
318.000	238.179	79.996	19.996	103.243	20.256	9.264	0.476
320.000	239.179	80.000	19.995	103.242	20.252	9.565	0.463
322.000	240.169	80.007	19.996	103.253	20.247	9.899	0.500
324.000	241.131	79.998	19.996	103.249	20.245	10.085	0.485
326.000	242.140	80.002	19.995	103.243	20.242	10.282	0.507
328.000	243.114	80.006	19.996	103.249	20.239	10.487	0.516
330.000	244.103	80.002	19.995	103.251	20.239	10.506	0.502
332.000	245.166	79.996	19.996	103.249	20.237	10.619	0.543
334.000	246.109	80.021	19.993	103.247	20.233	10.877	0.490
336.000	247.132	80.003	19.996	103.247	20.231	11.063	0.508
338.000	248.094	80.005	19.993	103.241	20.228	11.258	0.501
340.000	249.080	79.995	19.999	103.248	20.223	11.588	0.475
342.000	250.114	79.997	19.993	103.245	20.223	11.646	0.509
344.001	251.157	80.012	19.993	103.247	20.216	12.111	0.504
346.000	252.155	80.010	19.992	103.247	20.215	12.180	0.509
348.000	253.180	80.011	19.993	103.246	20.208	12.721	0.514
350.000	254.134	80.005	19.993	103.248	20.203	13.023	0.494
352.000	255.157	80.006	19.995	103.248	20.202	13.127	0.510
354.000	256.119	80.005	19.994	103.250	20.194	13.681	0.485
356.000	257.169	80.008	19.994	103.247	20.195	13.608	0.497
358.000	258.162	80.004	19.993	103.255	20.188	14.087	0.524
360.000	259.110	79.993	19.997	103.251	20.180	14.665	0.479
362.000	260.082	80.016	19.993	103.253	20.178	14.797	0.456
364.000	261.103	80.000	19.994	103.250	20.173	15.173	0.514
366.000	262.061	80.005	19.992	103.253	20.170	15.393	0.510
368.000	263.068	80.002	19.995	103.259	20.166	15.670	0.482
370.000	264.058	80.001	19.992	103.264	20.160	16.115	0.469
372.000	265.049	80.007	19.992	103.257	20.151	16.755	0.497
374.000	266.015	79.996	19.994	103.269	20.147	17.070	0.488
376.000	267.044	80.006	19.992	103.263	20.140	17.528	0.521
378.000	268.017	79.991	19.996	103.261	20.136	17.861	0.479
380.000	269.032	80.004	19.995	103.276	20.128	18.400	0.498
382.000	270.040	80.004	19.997	103.286	20.126	18.519	0.499
384.000	271.055	80.013	19.995	103.293	20.120	18.981	0.496
386.000	272.055	80.005	19.993	103.277	20.113	19.478	0.483
388.000	273.051	79.996	19.994	103.286	20.105	20.027	0.476
390.000	274.057	80.012	19.995	103.294	20.097	20.593	0.528
392.000	275.020	80.012	19.992	103.285	20.095	20.740	0.499
394.000	276.053	79.998	19.996	103.281	20.084	21.548	0.472
396.000	277.019	80.004	19.994	103.279	20.076	22.082	0.505
398.000	278.057	80.017	19.994	103.292	20.075	22.146	0.524
400.000	279.022	80.032	19.992	103.290	20.068	22.641	0.505
402.000	279.969	80.002	19.994	103.290	20.063	23.010	0.454
404.000	280.922	80.009	19.992	103.287	20.061	23.146	0.454
406.000	281.953	80.007	19.995	103.292	20.048	24.132	0.521
408.000	282.940	80.003	19.995	103.292	20.041	24.579	0.482
410.000	283.976	80.006	19.994	103.293	20.034	25.104	0.508
412.000	284.977	80.004	19.996	103.301	20.028	25.519	0.494
414.000	285.935	80.015	19.995	103.304	20.024	25.850	0.501
416.000	286.963	80.018	19.997	103.302	20.016	26.376	0.527
418.000	287.967	80.008	20.000	103.299	20.013	26.608	0.514
420.000	288.895	79.990	19.999	103.320	20.003	27.334	0.456
422.000	289.903	79.999	19.997	103.314	19.999	27.585	0.506
424.000	290.938	80.015	19.992	103.312	19.993	28.067	0.502
426.000	291.906	80.014	19.993	103.314	19.982	28.791	0.468
428.000	292.951	80.009	19.988	103.327	19.978	29.067	0.503
430.000	293.945	80.003	19.994	103.327	19.968	29.785	0.504
432.000	294.908	80.003	19.998	103.325	19.970	29.707	0.516
434.000	295.905	80.002	19.994	103.326	19.960	30.355	0.472
436.000	296.918	80.008	19.994	103.333	19.953	30.858	0.487
438.000	297.903	80.001	19.993	103.326	19.943	31.569	0.505
440.000	298.901	80.002	19.998	103.328	19.935	32.163	0.495
442.000	299.900	80.004	19.995	103.332	19.928	32.671	0.495
444.000	300.937	80.002	19.997	103.334	19.920	33.215	0.545
446.000	301.997	80.013	19.993	103.338	19.916	33.544	0.499
448.000	303.000	80.004	19.994	103.332	19.908	34.124	0.529
450.000	303.986	80.009	19.992	103.338	19.901	34.637	0.493
452.000	305.012	80.006	19.993	103.338	19.892	35.215	0.502
454.000	305.995	80.001	19.997	103.339	19.882	35.928	0.512
456.000	306.984	80.008	19.993	103.344	19.876	36.379	0.499
458.000	308.003	80.006	19.990	103.355	19.866	37.098	0.534
460.000	309.021	80.006	19.997	103.359	19.856	37.835	0.515
462.000	310.023	80.007	19.990	103.359	19.850	38.248	0.505
464.000	311.049	80.002	19.993	103.362	19.843	38.780	0.521
466.000	312.097	80.003	19.998	103.351	19.835	39.314	0.559
468.000	313.100	80.008	19.992	103.358	19.822	40.221	0.512
470.000	314.102	80.007	19.993	103.357	19.813	40.898	0.509
472.000	315.099	80.005	19.998	103.367	19.807	41.298	0.508
474.000	316.139	80.006	19.992	103.369	19.796	42.081	0.479
476.000	317.131	79.998	19.994	103.370	19.787	42.718	0.505
478.000	318.098	80.004	19.998	103.369	19.780	43.206	0.490
480.000	319.139	80.006	19.992	103.366	19.771	43.862	0.522
482.000	320.157	80.011	19.992	103.375	19.761	44.612	0.517
484.000	321.111	80.007	19.994	103.369	19.754	45.134	0.485
486.000	322.121	80.005	20.001	103.369	19.738	46.240	0.490
488.000	323.096	80.016	19.994	103.366	19.728	46.964	0.505
490.000	324.113	80.006	19.993	103.364	19.726	47.123	0.508
492.000	325.123	80.004	19.992	103.379	19.718	47.711	0.540
494.000	326.096	80.004	19.995	103.385	19.705	48.618	0.486
496.000	327.119	80.002	19.996	103.399	19.697	49.187	0.498
498.000	328.108	80.013	19.994	103.388	19.687	49.858	0.517
500.000	329.097	79.995	19.995	103.392	19.679	50.475	0.488
502.000	330.087	80.000	19.993	103.403	19.671	51.009	0.500
504.000	331.152	80.007	20.000	103.403	19.661	51.721	0.511
506.000	332.131	80.000	19.999	103.403	19.649	52.612	0.489
508.000	333.162	79.998	19.993	103.402	19.639	53.304	0.514
510.000	334.167	79.984	20.002	103.395	19.628	54.114	0.497
512.000	335.177	79.987	19.998	103.400	19.619	54.767	0.488
514.000	336.222	80.018	19.993	103.405	19.603	55.886	0.505
516.000	337.194	80.006	19.995	103.407	19.595	56.461	0.483
518.000	338.271	80.009	19.991	103.399	19.580	57.526	0.546
520.000	339.276	79.982	19.999	103.426	19.571	58.160	0.538
522.001	340.289	80.003	19.995	103.425	19.562	58.872	0.520
524.000	341.344	80.004	19.997	103.427	19.547	59.878	0.516
526.000	342.289	80.015	19.994	103.431	19.533	60.883	0.489
528.000	343.270	80.005	19.996	103.435	19.522	61.675	0.503
530.000	344.270	80.006	19.994	103.440	19.506	62.814	0.522
532.000	345.260	79.998	19.992	103.445	19.495	63.645	0.514
534.000	346.275	80.004	19.995	103.443	19.483	64.463	0.501
536.000	347.270	80.006	19.998	103.445	19.468	65.529	0.492
538.000	348.273	80.009	19.995	103.445	19.455	66.486	0.482
540.000	349.272	80.004	19.996	103.453	19.446	67.117	0.526
542.000	350.267	80.004	19.995	103.460	19.432	68.179	0.510
544.000	351.199	80.001	19.996	103.467	19.421	68.941	0.460
546.000	352.236	80.004	19.994	103.467	19.405	70.037	0.484
548.000	353.271	80.004	19.995	103.464	19.397	70.675	0.521
550.000	354.272	80.003	19.992	103.484	19.385	71.510	0.506
552.000	355.250	80.003	19.996	103.485	19.380	71.838	0.503
554.000	356.288	80.008	19.994	103.484	19.371	72.518	0.505
556.000	357.311	80.005	19.992	103.478	19.363	73.057	0.513
558.000	358.328	80.004	19.995	103.476	19.353	73.748	0.513
560.000	359.345	80.006	19.994	103.485	19.347	74.221	0.506
562.000	360.323	80.005	19.993	103.481	19.343	74.448	0.490
564.000	361.335	80.006	19.995	103.485	19.342	74.528	0.487
566.000	362.416	80.007	19.996	103.473	19.346	74.239	0.489
568.000	363.409	80.005	19.995	103.456	19.351	73.868	0.523
570.000	364.433	80.004	19.995	103.454	19.354	73.657	0.466
572.000	365.435	80.003	19.999	103.446	19.360	73.216	0.476
574.000	366.478	80.001	19.995	103.426	19.370	72.499	0.492
576.000	367.505	80.004	19.994	103.415	19.388	71.167	0.544
578.000	368.566	80.005	19.997	103.413	19.405	69.941	0.543
580.000	369.611	80.006	19.996	103.401	19.424	68.608	0.545
582.000	370.642	80.006	19.993	103.374	19.449	66.801	0.513
584.000	371.668	80.003	19.995	103.364	19.479	64.696	0.509
586.000	372.740	80.009	19.992	103.335	19.514	62.131	0.543
588.000	373.704	80.004	19.995	103.326	19.549	59.624	0.526
590.000	374.780	80.012	19.994	103.298	19.586	57.040	0.531
592.000	375.797	80.008	19.995	103.287	19.630	53.874	0.505
594.000	376.811	80.005	19.992	103.288	19.676	50.617	0.490
596.000	377.822	80.003	20.002	103.262	19.716	47.733	0.496
598.000	378.857	80.004	19.997	103.243	19.765	44.245	0.536
600.000	379.901	80.004	19.996	103.235	19.806	41.292	0.505
602.000	380.932	80.003	19.996	103.221	19.848	38.321	0.506
604.000	381.945	80.002	19.997	103.210	19.890	35.325	0.526
606.000	382.974	80.003	19.996	103.206	19.933	32.261	0.525
608.000	384.029	80.001	19.998	103.206	19.967	29.845	0.539
610.000	385.026	80.003	19.996	103.185	20.003	27.270	0.520
612.000	386.063	80.004	19.995	103.191	20.033	25.124	0.539
614.000	387.087	80.004	19.996	103.188	20.055	23.574	0.521
616.000	388.120	80.004	19.995	103.179	20.077	22.028	0.500
618.000	389.146	80.004	19.993	103.173	20.105	20.023	0.521
620.000	390.132	80.004	19.995	103.173	20.120	18.926	0.506
622.000	391.157	80.003	19.997	103.172	20.133	17.998	0.511
624.000	392.184	80.005	19.995	103.173	20.144	17.251	0.506
626.000	393.213	80.002	19.996	103.175	20.156	16.415	0.535
628.000	394.248	80.003	19.995	103.174	20.161	16.040	0.496
630.000	395.254	80.000	19.997	103.173	20.169	15.447	0.492
632.000	396.308	80.003	19.994	103.175	20.174	15.072	0.499
634.000	397.304	80.003	19.994	103.176	20.174	15.085	0.493
636.000	398.341	80.006	19.994	103.174	20.179	14.777	0.519
638.001	399.358	80.004	19.996	103.175	20.180	14.692	0.505
640.000	400.414	80.003	19.995	103.175	20.184	14.418	0.525
642.000	401.340	80.004	19.995	103.174	20.186	14.225	0.469
644.000	402.356	80.004	19.994	103.173	20.188	14.111	0.494
646.000	403.409	80.007	19.994	103.172	20.187	14.164	0.526
648.000	404.374	80.007	19.995	103.175	20.190	13.925	0.483
650.000	405.383	80.004	19.995	103.176	20.190	13.991	0.504
652.000	406.415	80.007	19.994	103.170	20.191	13.861	0.515
654.000	407.419	80.008	19.995	103.167	20.192	13.820	0.499
656.000	408.428	80.006	19.995	103.174	20.192	13.834	0.493
658.001	409.370	80.005	19.995	103.172	20.195	13.604	0.450
660.000	410.413	80.005	19.996	103.172	20.194	13.649	0.499
662.000	411.400	80.005	19.996	103.169	20.197	13.485	0.487
664.000	412.402	80.006	19.994	103.169	20.201	13.210	0.498
666.000	413.423	80.006	19.995	103.170	20.203	13.067	0.520
668.000	414.386	80.007	19.995	103.167	20.202	13.110	0.481
670.000	415.423	80.005	19.995	103.164	20.199	13.321	0.500
672.000	416.418	80.006	19.995	103.163	20.200	13.255	0.502
674.000	417.391	80.003	19.994	103.166	20.199	13.354	0.475
676.000	418.416	80.007	19.995	103.167	20.201	13.199	0.523
678.000	419.468	80.005	19.997	103.168	20.201	13.168	0.519
680.000	420.462	80.005	19.996	103.170	20.202	13.094	0.510
682.000	421.465	80.005	19.997	103.168	20.202	13.102	0.527
684.000	422.502	80.004	19.996	103.173	20.207	12.735	0.536
686.000	423.444	80.004	19.995	103.171	20.207	12.774	0.485
688.000	424.478	80.004	19.996	103.172	20.207	12.741	0.514
690.000	425.469	80.004	19.995	103.172	20.207	12.747	0.526
692.000	426.478	80.005	19.995	103.172	20.204	12.949	0.514
694.000	427.516	80.005	19.996	103.170	20.206	12.834	0.547
696.000	428.465	80.002	19.995	103.169	20.207	12.735	0.493
698.000	429.559	80.004	19.995	103.171	20.206	12.800	0.508
700.000	430.554	80.005	19.995	103.170	20.207	12.726	0.517
702.000	431.582	80.004	19.995	103.170	20.206	12.785	0.495
704.000	432.616	80.004	19.994	103.170	20.209	12.585	0.516
706.000	433.638	80.002	19.995	103.168	20.211	12.433	0.550
708.000	434.679	80.003	19.996	103.167	20.214	12.273	0.506
710.000	435.757	80.002	19.996	103.173	20.212	12.423	0.538
712.000	436.750	80.003	19.995	103.168	20.215	12.146	0.516
714.000	437.779	80.005	19.995	103.171	20.213	12.318	0.501
716.000	438.771	80.004	19.995	103.173	20.215	12.202	0.490
718.000	439.873	80.003	19.994	103.164	20.215	12.207	0.540
720.000	440.863	80.005	19.995	103.169	20.217	12.010	0.510
722.000	441.911	80.005	19.995	103.171	20.217	12.029	0.519
724.000	442.931	80.006	19.995	103.172	20.220	11.850	0.499
726.000	443.973	80.006	19.995	103.169	20.220	11.810	0.514
728.000	445.034	80.006	19.994	103.169	20.220	11.824	0.494
730.000	446.064	80.005	19.995	103.168	20.221	11.760	0.541
732.000	447.040	80.005	19.995	103.170	20.223	11.631	0.474
734.000	448.054	80.005	19.994	103.168	20.221	11.733	0.527
736.000	449.075	80.006	19.995	103.166	20.222	11.676	0.483
738.000	450.106	80.004	19.994	103.170	20.223	11.590	0.499
740.000	451.112	80.005	19.994	103.171	20.223	11.606	0.495
742.000	452.161	80.006	19.997	103.171	20.224	11.569	0.497
744.000	453.163	80.007	19.995	103.164	20.219	11.866	0.487
746.000	454.220	80.006	19.995	103.154	20.220	11.840	0.517
748.000	455.208	80.007	19.994	103.160	20.220	11.826	0.518
750.000	456.210	80.007	19.995	103.165	20.222	11.706	0.550
752.000	457.250	80.007	19.995	103.147	20.221	11.781	0.516
754.000	458.240	80.007	19.994	103.163	20.222	11.668	0.506
756.000	459.294	80.007	19.996	103.163	20.216	12.082	0.544
758.000	460.266	80.005	19.995	103.145	20.218	11.943	0.517
760.000	461.296	80.005	19.996	103.167	20.222	11.693	0.528
762.000	462.286	80.003	19.995	103.158	20.220	11.804	0.499
764.000	463.283	80.003	19.996	103.163	20.224	11.552	0.480
766.000	464.296	80.005	19.997	103.170	20.222	11.666	0.512
768.000	465.274	80.002	19.996	103.168	20.223	11.616	0.508
770.000	466.314	80.002	19.997	103.158	20.221	11.732	0.530
772.000	467.280	80.005	19.994	103.164	20.222	11.668	0.529
774.000	468.369	80.004	19.996	103.168	20.220	11.791	0.515
776.000	469.347	80.004	19.995	103.171	20.225	11.493	0.501
778.000	470.362	80.001	19.996	103.156	20.223	11.573	0.511
780.000	471.358	80.005	19.995	103.149	20.222	11.681	0.482
782.000	472.383	80.003	19.995	103.148	20.222	11.710	0.520
784.000	473.409	80.003	19.995	103.156	20.224	11.508	0.518
786.000	474.432	80.004	19.996	103.154	20.226	11.366	0.500
788.000	475.470	80.002	19.996	103.164	20.223	11.599	0.496
790.000	476.500	80.003	19.997	103.141	20.222	11.684	0.492
792.000	477.562	80.002	19.996	103.161	20.223	11.616	0.531
794.000	478.542	80.003	19.997	103.160	20.222	11.670	0.504
796.000	479.534	80.002	19.997	103.159	20.223	11.597	0.505
798.000	480.607	80.005	19.995	103.163	20.226	11.422	0.540
800.000	481.632	80.005	19.996	103.156	20.224	11.530	0.530
802.000	482.643	80.004	19.996	103.164	20.228	11.275	0.523
804.000	483.646	80.005	19.995	103.169	20.226	11.388	0.500
806.000	484.668	80.006	19.995	103.166	20.227	11.288	0.508
808.000	485.686	80.006	19.995	103.142	20.229	11.205	0.489
810.000	486.742	80.006	19.994	103.144	20.230	11.124	0.492
812.000	487.730	80.006	19.995	103.158	20.228	11.278	0.505
814.000	488.803	80.005	19.995	103.164	20.232	10.984	0.525
816.000	489.807	80.005	19.995	103.158	20.225	11.478	0.496
818.000	490.820	80.005	19.995	103.157	20.227	11.355	0.507
820.000	491.819	80.004	19.994	103.156	20.229	11.215	0.509
822.000	492.916	80.004	19.995	103.153	20.225	11.470	0.545
824.000	493.896	80.004	19.994	103.147	20.224	11.530	0.534
826.000	494.966	80.007	19.995	103.160	20.222	11.668	0.559
828.000	495.958	80.005	19.994	103.153	20.223	11.591	0.513
830.000	497.008	80.008	19.995	103.159	20.223	11.602	0.518
832.000	498.011	80.007	19.995	103.159	20.223	11.624	0.531
834.000	499.047	80.006	19.995	103.170	20.222	11.693	0.484
836.000	500.010	80.007	19.994	103.153	20.222	11.689	0.498
838.000	501.058	80.006	19.994	103.149	20.220	11.839	0.558
840.000	502.058	80.006	19.994	103.157	20.222	11.701	0.488
842.000	503.063	80.005	19.996	103.154	20.221	11.762	0.497
844.000	504.094	80.004	19.994	103.159	20.221	11.762	0.485
846.000	505.101	80.003	19.995	103.147	20.220	11.830	0.500
848.000	506.108	80.002	19.994	103.151	20.219	11.888	0.497
850.000	507.185	80.004	19.995	103.156	20.220	11.854	0.510
852.000	508.164	80.004	19.995	103.149	20.220	11.831	0.536
854.000	509.198	80.003	19.995	103.136	20.218	11.949	0.518
856.000	510.254	80.004	19.996	103.152	20.219	11.880	0.527
858.000	511.260	80.004	19.996	103.143	20.215	12.154	0.529
860.000	512.269	80.003	19.995	103.138	20.217	12.068	0.500
862.000	513.289	80.004	19.996	103.139	20.217	12.018	0.490
864.000	514.356	80.004	19.997	103.153	20.215	12.163	0.539
866.000	515.402	80.005	19.996	103.144	20.212	12.376	0.566
868.000	516.417	80.004	19.995	103.140	20.216	12.104	0.491
870.000	517.431	80.002	19.995	103.138	20.217	12.057	0.491
872.000	518.452	80.003	19.994	103.139	20.209	12.633	0.467
874.000	519.475	80.003	19.995	103.139	20.212	12.378	0.505
876.000	520.413	80.004	19.996	103.146	20.216	12.082	0.468
878.000	521.430	80.003	19.995	103.153	20.213	12.311	0.461
880.000	522.371	80.003	19.995	103.136	20.209	12.589	0.469
882.000	523.488	80.004	19.995	103.143	20.211	12.476	0.522
884.000	524.606	80.004	19.995	103.147	20.214	12.251	0.488
886.000	525.505	80.005	19.995	103.147	20.221	11.776	0.576
888.000	526.422	80.007	19.995	103.136	20.214	12.282	0.075
890.000	527.675	80.004	19.996	103.147	20.211	12.485	0.280
892.000	528.712	80.006	19.994	103.138	20.213	12.312	0.506
894.000	529.648	80.005	19.995	103.145	20.211	12.495	0.537
896.000	530.716	80.006	19.995	103.149	20.208	12.650	0.492
898.000	531.791	80.004	19.994	103.166	20.207	12.757	0.499
900.000	532.834	80.005	19.995	103.148	20.211	12.488	0.581
902.000	533.840	80.006	19.994	103.151	20.202	13.070	0.488
904.000	534.921	80.005	19.994	103.159	20.203	13.065	0.539
906.000	535.941	80.006	19.993	103.171	20.204	12.929	0.533
908.000	536.930	80.006	19.994	103.166	20.203	13.029	0.503
910.000	538.036	80.005	19.994	103.153	20.206	12.849	0.563
912.000	539.067	80.006	19.994	103.161	20.208	12.698	0.549
914.000	540.103	80.007	19.994	103.153	20.206	12.833	0.514
916.000	541.150	80.008	19.994	103.141	20.207	12.778	0.514
918.000	542.172	80.006	19.995	103.136	20.205	12.890	0.536
920.000	543.224	80.006	19.994	103.145	20.204	12.977	0.517
922.000	544.267	80.005	19.996	103.159	20.207	12.753	0.528
924.000	545.306	80.004	19.995	103.145	20.204	12.931	0.547
926.000	546.403	80.003	19.995	103.139	20.203	13.010	0.514
928.000	547.440	80.005	19.994	103.138	20.203	13.005	0.520
930.000	548.503	80.006	19.994	103.153	20.202	13.110	0.518
932.000	549.573	80.004	19.994	103.159	20.204	12.975	0.535
934.000	550.584	80.006	19.993	103.145	20.201	13.146	0.497
936.000	551.628	80.005	19.994	103.141	20.203	13.044	0.524
938.000	552.681	80.006	19.995	103.143	20.200	13.244	0.538
940.000	553.743	80.005	19.994	103.139	20.202	13.123	0.574
942.000	554.815	80.005	19.994	103.149	20.200	13.230	0.542
944.000	555.817	80.005	19.995	103.146	20.202	13.078	0.495
946.000	556.877	80.006	19.995	103.137	20.201	13.160	0.527
948.000	557.901	80.004	19.995	103.144	20.197	13.450	0.494
950.000	558.985	80.005	19.995	103.145	20.197	13.465	0.547
952.000	559.976	80.004	19.996	103.153	20.196	13.518	0.537
954.000	561.038	80.003	19.995	103.155	20.197	13.471	0.522
956.000	562.069	80.004	19.995	103.142	20.198	13.391	0.511
958.000	563.093	80.004	19.995	103.137	20.199	13.327	0.533
960.000	564.125	80.003	19.994	103.148	20.198	13.385	0.517
962.000	565.127	80.005	19.994	103.144	20.198	13.395	0.505
964.000	566.138	80.005	19.995	103.142	20.194	13.645	0.526
966.000	567.176	80.005	19.995	103.144	20.194	13.656	0.512
968.000	568.199	80.005	19.993	103.159	20.195	13.608	0.542
970.000	569.210	80.007	19.995	103.146	20.193	13.724	0.486
972.000	570.241	80.006	19.995	103.136	20.193	13.714	0.525
974.000	571.237	80.005	19.995	103.151	20.193	13.737	0.509
976.000	572.235	80.005	19.996	103.145	20.190	13.939	0.485
978.000	573.263	80.005	19.996	103.144	20.189	14.056	0.513
980.000	574.303	80.004	19.996	103.136	20.192	13.830	0.537
982.000	575.307	80.004	19.998	103.134	20.192	13.843	0.508
984.000	576.308	80.005	19.997	103.138	20.189	14.033	0.505
986.000	577.311	80.004	19.995	103.138	20.189	14.001	0.525
988.000	578.301	80.006	19.995	103.142	20.189	14.054	0.480
990.000	579.296	80.007	19.995	103.142	20.187	14.175	0.494
992.000	580.275	80.008	19.995	103.144	20.190	13.968	0.492
994.000	581.291	80.007	19.995	103.143	20.187	14.175	0.476
996.000	582.315	80.006	19.995	103.145	20.186	14.228	0.527
998.000	583.315	80.007	19.994	103.145	20.189	14.047	0.524
1000.000	584.307	80.008	19.995	103.154	20.184	14.389	0.498
1002.000	585.349	80.006	19.995	103.144	20.183	14.424	0.532
1004.000	586.360	80.007	19.995	103.137	20.183	14.444	0.508
1006.000	587.343	80.006	19.994	103.154	20.184	14.353	0.517
1008.000	588.309	80.005	19.996	103.159	20.183	14.451	0.482
1010.000	589.402	80.005	19.995	103.153	20.184	14.383	0.528
1012.000	590.452	80.006	19.995	103.139	20.182	14.545	0.550
1014.000	591.446	80.005	19.995	103.135	20.180	14.671	0.517
1016.000	592.505	80.004	19.995	103.145	20.180	14.633	0.520
1018.000	593.560	80.005	19.994	103.151	20.178	14.790	0.552
1020.000	594.640	80.005	19.994	103.147	20.181	14.592	0.550
1022.000	595.746	80.005	19.995	103.140	20.180	14.646	0.556
1024.000	596.762	80.005	19.995	103.151	20.181	14.582	0.539
1026.000	597.804	80.006	19.994	103.149	20.179	14.730	0.530
1027.999	598.834	80.005	19.994	103.141	20.176	14.932	0.517
1029.999	599.894	80.005	19.994	103.152	20.176	14.946	0.544
1032.000	600.959	80.006	19.994	103.150	20.175	15.036	0.525
1034.000	601.994	80.006	19.994	103.142	20.179	14.723	0.552
1036.000	603.035	80.005	19.995	103.150	20.173	15.158	0.515
1038.000	604.063	80.006	19.994	103.140	20.176	14.918	0.506
1040.000	605.145	80.005	19.994	103.143	20.176	14.962	0.514
1042.000	606.210	80.004	19.996	103.147	20.169	15.468	0.527
1043.999	607.172	80.005	19.995	103.142	20.172	15.227	0.504
1046.001	608.273	80.005	19.996	103.135	20.173	15.154	0.526
1048.001	609.349	80.005	19.996	103.138	20.170	15.414	0.554
1050.000	610.325	80.005	19.995	103.144	20.171	15.298	0.489
1052.000	611.347	80.005	19.994	103.141	20.165	15.714	0.482
1054.000	612.383	80.005	19.994	103.134	20.164	15.834	0.507
1056.000	613.414	80.006	19.995	103.140	20.165	15.763	0.483
1058.000	614.450	80.006	19.994	103.152	20.171	15.343	0.532
1060.000	615.517	80.005	19.995	103.136	20.166	15.643	0.537
1061.999	616.530	80.007	19.996	103.148	20.169	15.435	0.514
1063.999	617.548	80.007	19.993	103.139	20.164	15.790	0.511
1066.000	618.527	80.006	19.995	103.131	20.165	15.725	0.496
1068.000	619.522	80.005	19.995	103.145	20.167	15.612	0.454
1070.000	620.584	80.006	19.996	103.140	20.164	15.817	0.530
1071.999	621.596	80.005	19.995	103.136	20.163	15.868	0.509
1073.999	622.657	80.005	19.995	103.136	20.165	15.754	0.506
1076.000	623.672	80.008	19.995	103.144	20.163	15.896	0.537
1078.000	624.655	80.008	19.995	103.140	20.163	15.909	0.519
1079.999	625.679	80.008	19.996	103.146	20.161	15.989	0.551
1082.001	626.673	80.007	19.993	103.146	20.160	16.067	0.515
1083.999	627.684	80.007	19.994	103.147	20.160	16.069	0.503
1086.000	628.712	80.006	19.994	103.162	20.160	16.115	0.520
1088.001	629.697	80.004	19.995	103.144	20.161	15.996	0.521
1090.000	630.695	80.004	19.995	103.152	20.161	16.042	0.503
1092.000	631.733	80.005	19.993	103.153	20.159	16.160	0.495
1094.000	632.712	80.003	19.994	103.140	20.162	15.952	0.495
1095.999	633.746	80.005	19.994	103.148	20.157	16.339	0.486
1098.000	634.791	80.004	19.995	103.138	20.159	16.133	0.521
1100.001	635.786	80.006	19.995	103.137	20.156	16.355	0.510
1102.001	636.829	80.004	19.997	103.145	20.156	16.391	0.492
1104.000	637.828	80.005	19.995	103.151	20.153	16.592	0.483
1106.000	638.842	80.004	19.995	103.139	20.153	16.622	0.494
1108.000	639.843	80.005	19.994	103.148	20.154	16.546	0.502
1110.000	640.871	80.004	19.995	103.148	20.154	16.516	0.524
1112.001	641.860	80.005	19.995	103.144	20.153	16.581	0.490
1114.000	642.863	80.004	19.995	103.147	20.153	16.579	0.500
1116.000	643.849	80.004	19.995	103.140	20.154	16.550	0.511
1118.000	644.836	80.004	19.994	103.135	20.149	16.887	0.469
1120.000	645.871	80.004	19.996	103.140	20.152	16.666	0.506
1122.000	646.885	80.004	19.996	103.136	20.151	16.733	0.503
1124.001	647.882	80.006	19.993	103.140	20.147	17.009	0.505
1125.999	648.880	80.005	19.994	103.146	20.147	17.008	0.513
1128.000	649.934	80.004	19.995	103.135	20.148	16.947	0.530
1130.001	650.933	80.005	19.994	103.147	20.146	17.077	0.507
1132.000	651.900	80.007	19.994	103.144	20.146	17.104	0.493
1133.999	652.948	80.007	19.995	103.146	20.145	17.178	0.480
1136.000	653.946	80.006	19.996	103.144	20.145	17.150	0.491
1138.001	655.061	80.005	19.994	103.150	20.146	17.087	0.566
1139.999	656.049	80.006	19.995	103.142	20.144	17.205	0.523
1141.999	657.056	80.005	19.994	103.141	20.145	17.141	0.468
1144.000	658.075	80.005	19.995	103.131	20.144	17.249	0.484
1146.000	659.138	80.006	19.995	103.136	20.145	17.146	0.540
1147.999	660.131	80.005	19.995	103.138	20.145	17.146	0.506
1150.000	661.162	80.004	19.995	103.135	20.145	17.188	0.523
1152.000	662.180	80.005	19.994	103.141	20.145	17.173	0.509
1153.999	663.241	80.005	19.995	103.141	20.140	17.491	0.542
1155.999	664.277	80.005	19.995	103.134	20.141	17.462	0.519
1157.999	665.277	80.006	19.994	103.150	20.142	17.369	0.499
1160.000	666.316	80.006	19.995	103.142	20.142	17.383	0.506
1162.000	667.338	80.007	19.995	103.138	20.137	17.762	0.520
1164.000	668.386	80.006	19.994	103.154	20.139	17.607	0.532
1165.999	669.410	80.005	19.995	103.140	20.141	17.475	0.496
1167.999	670.394	80.004	19.995	103.137	20.138	17.672	0.488
1170.000	671.440	80.004	19.995	103.133	20.138	17.683	0.509
1172.000	672.467	80.005	19.996	103.146	20.138	17.687	0.506
1174.000	673.491	80.004	19.994	103.140	20.141	17.417	0.521
1176.001	674.532	80.002	19.996	103.133	20.138	17.678	0.522
1177.999	675.589	80.005	19.994	103.133	20.138	17.665	0.539
1179.999	676.604	80.004	19.994	103.136	20.137	17.723	0.509
1182.000	677.660	80.003	19.994	103.138	20.136	17.818	0.519
1184.001	678.666	80.005	19.994	103.134	20.137	17.698	0.513
1185.999	679.682	80.004	19.994	103.132	20.136	17.825	0.520
1187.999	680.717	80.006	19.994	103.133	20.134	17.914	0.494
1190.001	681.640	80.005	19.994	103.132	20.134	17.927	0.436
1191.999	682.736	80.006	19.993	103.133	20.134	17.925	0.507
1194.000	683.825	80.005	19.994	103.134	20.133	18.039	0.512
1195.999	684.865	80.004	19.995	103.140	20.129	18.283	0.535
1197.999	685.863	80.006	19.995	103.139	20.133	17.979	0.503
1200.000	686.898	80.005	19.994	103.139	20.133	17.989	0.499
1201.999	687.986	80.004	19.995	103.133	20.132	18.092	0.543
1203.999	688.986	80.004	19.994	103.138	20.130	18.214	0.495
1205.999	690.086	80.005	19.994	103.144	20.132	18.112	0.567
1207.999	691.160	80.005	19.994	103.142	20.131	18.144	0.545
1209.999	692.197	80.005	19.994	103.153	20.129	18.297	0.516
1212.001	693.278	80.005	19.994	103.168	20.131	18.131	0.531
1213.999	694.321	80.007	19.993	103.160	20.131	18.148	0.537
1215.999	695.408	80.005	19.994	103.154	20.129	18.319	0.562
1218.000	696.493	80.006	19.994	103.150	20.130	18.223	0.542
1220.000	697.548	80.007	19.994	103.149	20.130	18.261	0.529
1222.000	698.643	80.007	19.995	103.147	20.126	18.512	0.544
1223.999	699.651	80.005	19.994	103.149	20.127	18.477	0.516
1225.999	700.758	80.006	19.994	103.140	20.126	18.495	0.547
1227.999	701.759	80.006	19.995	103.141	20.126	18.531	0.515
1229.999	702.852	80.005	19.995	103.148	20.127	18.453	0.516
1231.999	703.899	80.007	19.994	103.146	20.124	18.674	0.519
1233.999	704.910	80.006	19.995	103.154	20.125	18.576	0.496
1236.001	705.951	80.005	19.994	103.151	20.124	18.681	0.525
1237.999	706.973	80.007	19.996	103.144	20.116	19.238	0.526
1240.000	708.037	80.008	19.995	103.138	20.123	18.747	0.511
1242.001	709.079	80.005	19.994	103.133	20.121	18.848	0.516
1243.999	710.138	80.008	19.994	103.134	20.120	18.936	0.515
1246.000	711.153	80.008	19.994	103.131	20.119	19.007	0.505
1247.999	712.214	80.007	19.993	103.140	20.118	19.118	0.520
1250.000	713.222	80.008	19.993	103.138	20.117	19.159	0.520
1251.999	714.247	80.005	19.995	103.134	20.115	19.266	0.533
1254.000	715.306	80.004	19.994	103.130	20.117	19.149	0.520
1256.000	716.298	80.005	19.996	103.128	20.118	19.115	0.497
1258.000	717.368	80.004	19.996	103.135	20.115	19.291	0.502
1259.999	718.378	80.004	19.996	103.145	20.117	19.178	0.495
1261.999	719.391	80.004	19.995	103.139	20.114	19.373	0.529
1263.999	720.412	80.005	19.996	103.138	20.118	19.082	0.525
1265.999	721.413	80.005	19.995	103.133	20.114	19.398	0.485
1267.999	722.429	80.005	19.995	103.136	20.114	19.349	0.508
1269.999	723.474	80.005	19.995	103.136	20.112	19.529	0.527
1271.999	724.439	80.005	19.994	103.138	20.111	19.575	0.475
1274.000	725.468	80.006	19.994	103.132	20.107	19.858	0.492
1275.999	726.507	80.005	19.994	103.141	20.106	19.966	0.524
1278.000	727.519	80.006	19.994	103.139	20.104	20.044	0.552
1279.999	728.518	80.006	19.994	103.134	20.106	19.931	0.516
1281.999	729.506	80.005	19.995	103.154	20.107	19.856	0.512
1284.000	730.518	80.004	19.995	103.143	20.104	20.056	0.489
1285.999	731.556	80.005	19.995	103.137	20.102	20.216	0.541
1288.000	732.532	80.005	19.995	103.137	20.106	19.968	0.518
1289.999	733.543	80.005	19.995	103.138	20.106	19.923	0.501
1292.000	734.531	80.004	19.995	103.145	20.110	19.679	0.515
1294.000	735.561	80.004	19.994	103.147	20.107	19.868	0.505
1295.999	736.600	80.006	19.994	103.139	20.106	19.950	0.520
1297.999	737.572	80.006	19.993	103.141	20.106	19.911	0.479
1300.000	738.576	80.008	19.994	103.146	20.107	19.883	0.514
1301.999	739.576	80.006	19.994	103.134	20.103	20.115	0.519
1303.999	740.589	80.005	19.994	103.139	20.101	20.323	0.474
1305.999	741.622	80.006	19.994	103.135	20.102	20.194	0.536
1307.999	742.631	80.007	19.994	103.136	20.099	20.405	0.519
1310.000	743.625	80.006	19.995	103.135	20.102	20.228	0.496