File: 01_Data/House_Wrap/Cone/House_Wrap_Cone_HF50Scan_220308_R1.csv
Names,Time,Stack TC,Smoke TC,Exh Press,Smoke Comp,Smoke Meas,CO Meter,CO2 Meter,O2 Meter,Sample Mass,Ext Coeff,Start Test,Flame Verif
Chan Gain,,500,500,1,1,1,1,1,1,1,1,1.0,1.0
Offset,,0,0,0.134161,0,0,0,0,0,0,0,0.0,0.0
Gain,,1,1,25.011,15.9695,16.7489,1,1,1,1.00099,1.01863,1.0,1.0
Units,sec,C,C,Pa,%,%,%,%,%,g,/m,,
Baseline,,29.6238,30.9675,150.327,117.851,114.403,0.00115011,0.0583555,21.0097,-834.856,0.265399,,
6,1.25,28.4312,29.5487,151.822,117.599,114.597,0.000932464,0.065416,21.001,177.897,0.231065,0.0,0.0
12,2.75,28.8222,29.4464,148.58,117.579,114.646,0.000966519,0.0642208,21.0019,177.857,0.225719,0.0,0.0
18,4.25,28.1311,29.6428,148.525,117.592,114.057,0.00107953,0.0631306,21.0032,177.847,0.272732,0.0,0.0
24,5.75,27.8844,28.993,151.166,117.614,113.888,0.00125078,0.0622112,21.0042,177.877,0.287663,0.0,0.0
30,7.25,28.2857,29.7896,151.417,117.611,113.511,0.00145014,0.0616161,21.0052,177.857,0.317086,0.0,0.0
36,8.75,28.7296,29.2215,148.593,117.613,114.454,0.00154276,0.0609844,21.0063,177.857,0.243266,0.0,0.0
42,10.25,29.1148,30.032,149.396,117.648,114.045,0.0015718,0.0603729,21.007,177.847,0.277952,0.0,0.0
48,11.75,28.4142,29.6295,146.668,117.638,112.715,0.00158918,0.0598189,21.0073,177.837,0.381986,0.0,0.0
54,13.25,28.5866,29.7792,146.566,117.664,112.617,0.00163537,0.0593746,21.0074,177.827,0.391693,0.0,0.0
60,14.75,28.6556,30.105,148.895,117.667,112.014,0.001679,0.0591453,21.0068,177.837,0.439937,0.0,0.0
66,16.25,28.9849,30.153,149.521,117.683,111.082,0.0016968,0.0592684,21.006,177.837,0.515799,0.0,0.0
72,17.75,28.77,29.949,152.179,117.698,111.341,0.00172784,0.0603711,21.0041,177.807,0.496165,0.0,0.0
78,19.25,28.8409,29.8003,151.499,117.738,111.149,0.00182699,0.0616907,21.0016,177.807,0.514598,0.0,0.0
84,20.75,28.7931,30.4348,151.16,117.739,111.404,0.00202741,0.0629579,21,177.807,0.49415,0.0,0.0
90,22.25,29.3335,30.1632,150.887,117.779,112.671,0.00220938,0.0638294,20.9992,177.787,0.396167,0.0,0.0
96,23.75,29.1287,30.7446,152.272,117.791,111.928,0.00222657,0.0642102,20.9987,177.787,0.456225,0.0,0.0
102,25.25,29.0288,29.9805,147.926,117.822,111.922,0.00212465,0.0641181,20.9994,177.777,0.459003,0.0,0.0
108,26.75,29.2059,30.2055,147.849,117.844,112.429,0.00204663,0.0635932,21.0002,177.787,0.420277,0.0,0.0
114,28.25,28.2341,29.909,147.91,117.848,112.663,0.00204564,0.0631547,21.0014,177.777,0.402064,0.0,0.0
120,29.75,28.7642,30.3475,151.383,117.869,113.139,0.00212268,0.0629105,21.0021,177.777,0.365991,0.0,0.0
126,31.25,29.413,30.0188,149.636,117.896,112.426,0.00218331,0.0628048,21.0025,177.777,0.424474,0.0,0.0
132,32.75,28.9941,30.4011,147.725,117.9,113.891,0.0022128,0.0625825,21.0026,177.777,0.309093,0.0,0.0
138,34.25,29.0164,30.5389,149.612,117.943,113.64,0.00218539,0.0622535,21.0032,177.767,0.332091,0.0,0.0
144,35.75,28.8263,30.5128,153.46,117.94,114.514,0.00212476,0.0619917,21.0041,177.777,0.26337,0.0,0.0
150,37.25,29.1354,30.3348,148.833,117.976,113.856,0.00205208,0.0616932,21.0048,177.767,0.317618,0.0,0.0
156,38.75,29.2985,30.7008,150.557,117.979,113.461,0.0020441,0.0611621,21.0061,177.757,0.348941,0.0,0.0
162,40.25,29.142,30.4932,152.814,118.006,113.777,0.00210476,0.0606818,21.0067,177.757,0.326128,0.0,0.0
168,41.75,28.9129,30.7301,148.764,118.005,113.446,0.00218052,0.0601214,21.0071,177.747,0.352024,0.0,0.0
174,43.25,28.9495,30.5697,143.762,118.026,113.453,0.00215408,0.0596365,21.0077,177.747,0.353047,0.0,0.0
180,44.75,29.2232,30.3714,151.737,118.026,114.156,0.00198948,0.0592439,21.0087,177.737,0.297865,0.0,0.0
186,46.25,29.0075,30.7523,153.669,118.035,113.496,0.00179353,0.0589289,21.0092,177.737,0.350371,0.0,0.0
192,47.75,29.1263,30.5241,150.216,118.04,113.491,0.00165616,0.0587096,21.0095,177.727,0.351102,0.0,0.0
198,49.25,29.353,30.5853,148.425,118.039,114.348,0.00153283,0.0584656,21.01,177.727,0.283794,0.0,0.0
204,50.75,29.4085,30.7428,146.311,118.041,114.103,0.00144528,0.0583,21.0103,177.727,0.303248,0.0,0.0
210,52.25,29.3386,30.5604,151.354,118.03,114.501,0.00137905,0.0582741,21.0105,177.717,0.271235,0.0,0.0
216,53.75,29.4721,30.6112,146.45,118.05,114.479,0.00133223,0.0581948,21.0106,177.717,0.274461,0.0,0.0
222,55.25,29.4217,30.5715,150.248,118.035,114.207,0.0012833,0.0581811,21.0106,177.717,0.294569,0.0,0.0
228,56.75,29.6476,30.489,148.598,118.044,114.257,0.00123542,0.0582044,21.0106,177.707,0.291312,0.0,0.0
234,58.25,29.4289,30.3773,148.479,118.028,113.408,0.00126399,0.0581978,21.0104,177.717,0.356815,0.0,0.0
240,59.75,29.4825,30.4309,149.229,118.044,114.203,0.00130765,0.058119,21.0098,177.707,0.295628,0.0,0.0
246,61.25,29.3051,31.0948,152.756,118.041,114.548,0.00134648,0.0580983,21.0094,177.707,0.268338,0.0,0.0
252,62.75,29.1499,30.5043,151.897,118.039,114.528,0.00144345,0.0581322,21.0092,177.717,0.269782,0.0,0.0
258,64.25,29.3587,30.8943,147.739,118.034,113.721,0.00155784,0.0581903,21.0091,177.697,0.332604,0.0,0.0
264,65.75,29.8767,30.7452,150.144,118.054,113.945,0.00160695,0.0581821,21.009,177.697,0.316583,0.0,0.0
270,67.25,28.8843,30.2713,151.924,118.046,113.579,0.00151552,0.0581199,21.009,177.707,0.344702,0.0,0.0
276,68.75,29.6164,30.5693,149.577,118.064,114.279,0.00138861,0.0581159,21.009,177.697,0.291106,0.0,0.0
282,70.25,29.4766,30.5855,151.298,118.046,114.042,0.00124526,0.0581141,21.009,177.697,0.308304,0.0,0.0
288,71.75,28.8028,29.7873,151.257,118.066,114.021,0.00120609,0.0580837,21.009,177.697,0.311459,0.0,0.0
294,73.25,29.3577,30.62,153.986,118.061,114.368,0.00126213,0.0579958,21.009,177.687,0.28397,0.0,0.0
300,74.75,29.509,30.9814,150.898,118.071,114.909,0.00135093,0.0579491,21.009,177.697,0.242597,0.0,0.0
306,76.25,30.0691,31.2875,151.405,118.069,113.807,0.00139633,0.0578021,21.009,177.687,0.328519,0.0,0.0
312,77.75,29.6144,31.0011,152.617,118.062,113.857,0.00141876,0.0576027,21.009,177.667,0.324071,0.0,0.0
318,79.25,29.69,30.832,152.513,118.082,114.753,0.00142024,0.0575537,21.009,177.656,0.255499,0.0,0.0
324,80.75,29.8451,30.9628,148.238,118.088,114.536,0.00139997,0.0575101,21.0095,177.667,0.272873,0.0,0.0
330,82.25,29.9317,31.123,148.282,118.096,114.599,0.0013609,0.0574211,21.0109,177.667,0.268597,0.0,0.0
336,83.75,29.9477,31.1105,149.306,118.089,114.561,0.00127006,0.0574951,21.0118,177.687,0.271034,0.0,0.0
342,85.25,29.7596,31.292,147.044,118.103,114.812,0.00119364,0.0575729,21.0112,177.656,0.252547,0.0,0.0
348,86.75,30.0132,30.9837,154.037,118.092,114.476,0.0011525,0.0575983,21.0108,177.646,0.277875,0.0,0.0
354,88.25,29.7518,31.3623,153.128,118.111,114.706,0.00116803,0.0575397,21.0107,177.656,0.261375,0.0,0.0
360,89.75,30.0995,31.0985,149.67,118.105,114.898,0.00118879,0.0575782,21.0106,177.646,0.245973,0.0,0.0
366,91.25,29.6603,31.1928,147.625,118.128,114.392,0.00116349,0.0575585,21.0108,177.646,0.287149,0.0,0.0
372,92.75,29.9005,30.9703,149.211,118.124,113.863,0.00103736,0.0575775,21.0101,177.656,0.328269,0.0,0.0
378,94.25,29.7591,30.9521,147.495,118.138,114.416,0.000952257,0.0575935,21.0096,177.656,0.286043,0.0,0.0
384,95.75,30.1914,31.6572,151.29,118.153,114.057,0.000972541,0.0576608,21.0093,177.646,0.315258,0.0,0.0
390,97.25,30.2472,30.7625,154.643,118.166,114.084,0.00109145,0.0577392,21.0092,177.646,0.314128,0.0,0.0
396,98.75,29.184,30.7273,150.874,118.17,113.834,0.00124125,0.0577881,21.0091,177.646,0.33402,0.0,0.0
402,100.25,30.3159,31.4243,153.118,118.15,113.504,0.00127019,0.0578132,21.0091,177.646,0.35847,0.0,0.0
408,101.75,29.9016,31.5988,146.288,118.17,113.698,0.00114599,0.0577122,21.0087,177.646,0.344739,0.0,0.0
414,103.25,30.5266,31.0853,150.411,118.16,114.153,0.00100328,0.0577038,21.0085,177.636,0.308283,0.0,0.0
420,104.75,30.3663,31.3546,150.701,118.171,114.684,0.000889789,0.0578341,21.0092,177.636,0.26766,0.0,0.0
426,106.25,29.4606,30.559,149.455,118.181,114.163,0.000889797,0.0577948,21.01,177.636,0.309067,0.0,0.0
432,107.75,30.4281,31.619,151.133,118.178,114.586,0.000969384,0.0577146,21.0103,177.636,0.275862,0.0,0.0
438,109.25,29.7461,30.7692,150.633,118.164,114.773,0.00103816,0.0578065,21.0105,177.636,0.260178,0.0,0.0
444,110.75,30.436,31.4512,150.58,118.184,113.61,0.00107829,0.0578823,21.0109,177.616,0.35268,0.0,0.0
450,112.25,30.1978,31.6095,147.688,118.174,113.844,0.00109078,0.057873,21.0119,177.636,0.333554,0.0,0.0
456,113.75,30.2505,31.5196,146.009,118.205,113.666,0.00109064,0.0577911,21.0125,177.636,0.349887,0.0,0.0
462,115.25,30.4143,31.4866,146.852,118.176,113.786,0.00109856,0.0578276,21.0121,177.626,0.338236,0.0,0.0
468,116.75,30.1773,31.7211,148.119,118.196,114.041,0.00112278,0.0579077,21.0115,177.636,0.319816,0.0,0.0
474,118.25,29.8803,32.0159,146.474,118.183,114.021,0.00117643,0.0578627,21.0112,177.626,0.320384,0.0,0.0
480,119.75,30.1941,31.4527,148.528,118.213,115.044,0.00121848,0.0577635,21.011,177.626,0.242797,0.0,0.0
486,121.25,30.0604,31.5024,151.373,118.193,114.471,0.00124599,0.0576517,21.0109,177.596,0.285904,0.0,0.0
492,122.75,29.8706,31.7931,150.296,118.21,114.454,0.00122291,0.057689,21.0108,177.606,0.28847,0.0,0.0
498,124.25,30.2348,31.6059,146.554,118.204,114.193,0.00118721,0.0577523,21.0108,177.616,0.308479,0.0,0.0
504,125.75,30.3273,31.4866,148.498,118.236,114.374,0.0011392,0.057727,21.0099,177.626,0.296767,0.0,0.0
510,127.25,30.242,31.5366,147.558,118.227,114.145,0.00108004,0.057764,21.0096,177.616,0.313934,0.0,0.0
516,128.75,29.9645,31.6734,153.259,118.238,113.709,0.0010113,0.0577922,21.0094,177.596,0.349017,0.0,0.0
522,130.25,30.3204,31.3131,149.9,118.239,114.13,0.00099133,0.0577805,21.0092,177.606,0.316055,0.0,0.0
528,131.75,30.2942,31.4851,150.789,118.258,114.079,0.000995576,0.0578147,21.0092,177.616,0.321491,0.0,0.0
534,133.25,29.9969,30.9447,149.897,118.263,114.71,0.00100301,0.0578776,21.0093,177.596,0.272592,0.0,0.0
540,134.75,29.9523,32.0127,146.895,118.255,114.206,0.00101547,0.05792,21.0096,177.586,0.31131,0.0,0.0
546,136.25,30.2696,31.4246,150.254,118.282,113.921,0.00102087,0.0579586,21.0098,177.596,0.335677,0.0,0.0
552,137.75,30.0142,31.4423,147.581,118.283,114.588,0.00102558,0.0580324,21.0099,177.586,0.283545,0.0,0.0
558,139.25,30.4193,31.8097,150.078,118.294,114.734,0.00103587,0.0579766,21.0099,177.596,0.273039,0.0,0.0
564,140.75,30.1171,31.251,151.192,118.289,114.769,0.00109026,0.0580115,21.0099,177.596,0.269928,0.0,0.0
570,142.25,30.3858,31.3109,146.013,118.309,114.643,0.00115975,0.0580879,21.01,177.586,0.28127,0.0,0.0
576,143.75,30.6364,31.6514,148.413,118.322,113.703,0.00122529,0.0581881,21.0097,177.576,0.355787,0.0,0.0
582,145.25,29.595,31.9647,150.041,118.33,114.931,0.00126204,0.0583441,21.0094,177.576,0.260451,0.0,0.0
588,146.75,30.7348,31.7227,153.076,118.323,114.894,0.00127913,0.0583632,21.0093,177.576,0.262797,0.0,0.0
594,148.25,30.1097,31.5528,148.326,118.349,114.44,0.00127418,0.0583858,21.0092,177.566,0.300114,0.0,0.0
600,149.75,30.3952,31.7902,148.871,118.344,114.378,0.00126567,0.0585502,21.0092,177.566,0.304542,0.0,0.0
606,151.25,29.9478,31.6284,151.315,118.375,115.295,0.00126967,0.0586234,21.0091,177.566,0.235547,0.0,0.0
612,152.75,30.0745,31.4695,151.106,118.363,114.36,0.00125964,0.0586538,21.0091,177.566,0.307375,0.0,0.0
618,154.25,30.5364,31.7676,150.253,118.389,113.831,0.00118969,0.0585678,21.0091,177.566,0.350833,0.0,0.0
624,155.75,30.5946,32.3357,150.76,118.374,114.497,0.00111738,0.0584218,21.0091,177.566,0.297525,0.0,0.0
630,157.25,30.6303,31.8418,147.981,118.399,114.928,0.00104405,0.0584327,21.0091,177.586,0.265914,0.0,0.0
636,158.75,30.0446,31.8348,151.17,118.385,114.992,0.00105225,0.05841,21.0091,177.566,0.259805,0.0,0.0
642,160.25,30.462,32.0759,148.762,118.418,114.35,0.00115428,0.0582794,21.0087,177.566,0.31233,0.0,0.0
648,161.75,30.6934,32.2318,153.407,118.409,113.861,0.00123552,0.0583698,21.0078,177.556,0.35001,0.0,0.0
654,163.25,30.0622,32.2274,149.668,118.434,114.847,0.00119417,0.058367,21.0073,177.556,0.274803,0.0,0.0
660,164.75,30.2792,31.8739,150.86,118.424,114.92,0.00110864,0.0584927,21.0071,177.546,0.268349,0.0,0.0
666,166.25,30.4958,31.8261,150.223,118.462,114.798,0.00110019,0.0584874,21.0069,177.546,0.280757,0.0,0.0
672,167.75,30.767,31.312,151.801,118.451,114.394,0.00121154,0.0584538,21.008,177.546,0.311396,0.0,0.0
678,169.25,30.4217,31.9231,151.183,118.486,114.737,0.00133154,0.0584962,21.0085,177.526,0.287293,0.0,0.0
684,170.75,30.8711,31.5662,146.476,118.494,114.549,0.00133553,0.058482,21.0088,177.516,0.302538,0.0,0.0
690,172.25,30.7925,31.5384,146.342,118.501,114.803,0.00125347,0.0584026,21.0089,177.516,0.283259,0.0,0.0
696,173.75,30.7145,31.6393,146.297,118.524,115.145,0.0010838,0.0583003,21.0089,177.526,0.258487,0.0,0.0
702,175.25,30.4212,31.7906,146.64,118.545,113.987,0.00102256,0.0582849,21.0088,177.516,0.350327,0.0,0.0
708,176.75,30.1862,31.2973,147.97,118.594,114.804,0.00106543,0.0583052,21.0088,177.516,0.290159,0.0,0.0
714,178.25,31.0304,32,153.119,118.589,115.028,0.00119314,0.0582664,21.0088,177.526,0.272424,0.0,0.0
720,179.75,30.5289,31.715,149.079,118.618,114.403,0.00133318,0.0583492,21.0088,177.506,0.323278,0.0,0.0
726,181.25,30.6979,31.6573,155,118.63,114.267,0.00141663,0.058274,21.0088,177.516,0.334822,0.0,0.0
732,182.75,30.1065,31.7015,149.493,118.648,114.597,0.0014309,0.0582994,21.0088,177.496,0.310437,0.0,0.0
738,184.25,30.6019,32.094,147.422,118.661,113.584,0.00140852,0.0582518,21.0088,177.496,0.39073,0.0,0.0
744,185.75,30.4835,31.9924,150.551,118.694,114.659,0.00136208,0.0582059,21.0096,177.506,0.309028,0.0,0.0
750,187.25,30.419,32.0615,149.553,118.69,114.772,0.00130377,0.0581957,21.0103,177.506,0.299933,0.0,0.0
756,188.75,30.654,32.1867,153.25,118.746,115.335,0.00125684,0.058224,21.0107,177.486,0.260409,0.0,0.0
762,190.25,30.6176,31.9582,148.548,118.735,114.939,0.00123589,0.0582391,21.0102,177.486,0.290305,0.0,0.0
768,191.75,30.1617,32.3042,147.836,118.766,115.27,0.0012733,0.0582471,21.0095,177.466,0.266943,0.0,0.0
774,193.25,30.6922,32.5563,152.979,118.784,114.136,0.00132573,0.0582658,21.0092,177.466,0.356615,0.0,0.0
780,194.75,30.0562,32.4435,148.99,118.823,114.437,0.00135318,0.0583483,21.009,177.466,0.336047,0.0,0.0
786,196.25,30.8125,32.3645,146.275,118.817,114.28,0.00134176,0.0583195,21.0091,177.456,0.347871,0.0,0.0
792,197.75,30.6472,32.9626,150.013,118.853,115.42,0.00129365,0.0583573,21.0096,177.466,0.261903,0.0,0.0
798,199.25,30.7809,32.3794,151.207,118.873,114.135,0.00126364,0.058422,21.0087,177.466,0.363403,0.0,0.0
804,200.75,30.7092,32.5913,144.761,118.89,114.913,0.00130534,0.0583844,21.0089,177.466,0.304064,0.0,0.0
810,202.25,30.5609,32.6501,148.837,118.922,115.1,0.00140109,0.0584423,21.0088,177.466,0.291909,0.0,0.0
816,203.75,30.8843,31.6003,145.35,118.972,114.088,0.00148623,0.0584685,21.0083,177.456,0.374558,0.0,0.0
822,205.25,30.5655,32.1236,149.195,118.958,114.704,0.00151545,0.0583891,21.0081,177.456,0.325384,0.0,0.0
828,206.75,31.0183,32.4709,146.896,118.979,115.411,0.00152642,0.0583763,21.0079,177.446,0.27206,0.0,0.0
834,208.25,31.0137,32.0011,147.872,118.999,115.728,0.00155741,0.0583811,21.0078,177.446,0.249061,0.0,0.0
840,209.75,30.7119,32.42,149.725,119.019,114.811,0.00163982,0.0583653,21.0078,177.436,0.32168,0.0,0.0
846,211.25,30.9471,32.6547,147.274,119.04,114.88,0.00172286,0.0583389,21.0078,177.426,0.317885,0.0,0.0
852,212.75,30.358,31.3294,152.438,119.061,115.338,0.00175381,0.05829,21.0078,177.446,0.28387,0.0,0.0
858,214.25,30.4735,32.359,146.218,119.088,115.045,0.00174989,0.0581793,21.0078,177.446,0.308598,0.0,0.0
864,215.75,30.7208,32.9266,148.297,119.089,114.336,0.00168554,0.0581051,21.0078,177.436,0.363939,0.0,0.0
870,217.25,31.0468,32.0854,150.949,119.126,115.891,0.00157505,0.0581422,21.0078,177.426,0.246024,0.0,0.0
876,218.75,30.7594,32.3202,150.302,119.129,114.968,0.00146697,0.0581619,21.0076,177.436,0.317625,0.0,0.0
882,220.25,31.1985,32.4394,149.242,119.141,115.119,0.00136677,0.0581475,21.0069,177.426,0.306864,0.0,0.0
888,221.75,30.4943,32.4292,146.916,119.135,115.63,0.00127399,0.0580567,21.0065,177.446,0.266803,0.0,0.0
894,223.25,30.8097,31.538,147.825,119.173,115.341,0.00115497,0.0579951,21.0063,177.446,0.292038,0.0,0.0
900,224.75,30.8747,31.966,147.774,119.162,114.727,0.00110013,0.0580509,21.0062,177.436,0.338917,0.0,0.0
906,226.25,31.0597,32.3909,150.644,119.184,114.394,0.00110538,0.0581418,21.0062,177.436,0.366515,0.0,0.0
912,227.75,30.9055,32.7632,147.542,119.175,115.03,0.00112783,0.0581322,21.0061,177.426,0.316256,0.0,0.0
918,229.25,31.0498,32.3959,152.371,119.204,114.567,0.001152,0.0581228,21.0063,177.406,0.354492,0.0,0.0
924,230.75,31.4305,32.3773,146.236,119.189,114.56,0.00117918,0.0580944,21.0074,177.416,0.353995,0.0,0.0
930,232.25,30.9842,32.5178,149.844,119.213,115.121,0.00122787,0.0581593,21.008,177.406,0.312077,0.0,0.0
936,233.75,30.9076,32.4009,148.265,119.201,114.553,0.00131061,0.058192,21.0075,177.406,0.355349,0.0,0.0
942,235.25,30.2196,33.774,147.417,119.231,115.17,0.00142013,0.0580889,21.0073,177.396,0.309584,0.0,0.0
948,236.75,31.5137,32.2189,145.131,119.217,114.863,0.00151653,0.0580788,21.0071,177.396,0.332466,0.0,0.0
954,238.25,31.4369,32.8171,147.148,119.24,115.137,0.00155667,0.0580425,21.007,177.386,0.312856,0.0,0.0
960,239.75,31.2254,32.4904,150.838,119.216,114.984,0.00157161,0.0580432,21.0067,177.396,0.322974,0.0,0.0
966,241.25,30.768,32.5717,147.493,119.235,114.544,0.00156195,0.0579928,21.0064,177.386,0.358586,0.0,0.0
972,242.75,30.9938,32.085,151.911,119.23,114.964,0.00152836,0.058015,21.0069,177.376,0.325506,0.0,0.0
978,244.25,31.1456,32.73,149.235,119.247,115.223,0.00147726,0.0580405,21.0073,177.386,0.306745,0.0,0.0
984,245.75,31.5112,32.4549,148.723,119.242,115.021,0.0014323,0.0580741,21.0075,177.376,0.322047,0.0,0.0
990,247.25,30.8225,32.1984,148.112,119.257,115.633,0.00141497,0.0580919,21.0076,177.366,0.27574,0.0,0.0
996,248.75,30.9862,32.5603,152.479,119.239,114.688,0.00144089,0.0581014,21.0077,177.376,0.347719,0.0,0.0
1002,250.25,31.1222,32.2133,149.289,119.233,114.635,0.00147424,0.0581312,21.008,177.376,0.351387,0.0,0.0
1008,251.75,30.7213,32.4693,153.512,119.23,115.067,0.00141666,0.0581577,21.0083,177.366,0.317525,0.0,0.0
1014,253.25,31.4507,32.6164,151.971,119.233,114.768,0.00131537,0.0582201,21.0084,177.376,0.34103,0.0,0.0
1020,254.75,30.6931,32.8945,152.534,119.245,115.187,0.00121316,0.0582868,21.0085,177.366,0.309334,0.0,0.0
1026,256.25,31.2234,32.5918,148.306,119.229,114.538,0.00113563,0.0582786,21.0086,177.366,0.358667,0.0,0.0
1032,257.75,31.2042,32.5921,150.871,119.235,115.676,0.00104976,0.0582973,21.0086,177.356,0.270702,0.0,0.0
1038,259.25,31.2649,32.4787,148.753,119.22,115.505,0.00100085,0.0582731,21.0086,177.366,0.282919,0.0,0.0
1044,260.75,31.1025,32.8369,147.449,119.216,114.899,0.00101315,0.0583657,21.0071,177.366,0.32957,0.0,0.0
1050,262.25,31.1647,32.3592,147.932,119.203,115.151,0.00106362,0.0584158,21.0063,177.366,0.309006,0.0,0.0
1056,263.75,31.2001,32.5579,147.28,119.21,114.677,0.00113178,0.0582667,21.0059,177.356,0.346403,0.0,0.0
1062,265.25,30.7244,32.7534,148.394,119.177,114.684,0.00121901,0.0582352,21.007,177.356,0.343398,0.0,0.0
1068,266.75,31.4563,32.829,152.859,119.181,115.783,0.0013263,0.0582451,21.0086,177.336,0.258473,0.0,0.0
1074,268.25,31.4432,33.1051,150.702,119.169,114.32,0.00139186,0.058264,21.0094,177.356,0.371214,0.0,0.0
1080,269.75,31.2026,32.706,149.462,119.17,116.266,0.00138973,0.0583436,21.0091,177.336,0.220397,0.0,0.0
1086,271.25,31.448,32.7562,146.906,119.158,114.804,0.00128302,0.0583428,21.0086,177.336,0.332583,0.0,0.0
1092,272.75,31.4794,32.3047,147.791,119.171,115.269,0.0012032,0.0582885,21.0083,177.336,0.297479,0.0,0.0
1098,274.25,30.8409,32.6532,148.829,119.144,115.094,0.00117456,0.0582201,21.0082,177.326,0.309031,0.0,0.0
1104,275.75,31.3612,33.1073,143.145,119.156,114.882,0.00120033,0.058199,21.0081,177.326,0.326388,0.0,0.0
1110,277.25,31.6067,33.0691,150.081,119.123,115.203,0.00125114,0.0582506,21.0085,177.316,0.299007,0.0,0.0
1116,278.75,31.1533,33.102,147.723,119.158,114.914,0.00129347,0.0582959,21.0094,177.326,0.32403,0.0,0.0
1122,280.25,31.5102,32.8108,151.047,119.129,114.809,0.00133242,0.0583111,21.0089,177.326,0.330065,0.0,0.0
1128,281.75,31.149,32.7679,149.215,119.132,114.204,0.00140167,0.0583255,21.0087,177.326,0.377432,0.0,0.0
1134,283.25,31.4804,32.9924,152.086,119.123,115.233,0.00146819,0.0582941,21.0088,177.326,0.296669,0.0,0.0
1140,284.75,31.2474,32.7462,149.613,119.129,115.085,0.00148968,0.0583444,21.0088,177.316,0.308572,0.0,0.0
1146,286.25,31.3245,33.18,151.322,119.123,114.891,0.00149669,0.0584061,21.0089,177.316,0.323224,0.0,0.0
1152,287.75,31.1066,32.8531,150.505,119.129,115.513,0.00153242,0.0584527,21.0087,177.316,0.275417,0.0,0.0
1158,289.25,31.3483,32.865,148.35,119.118,115.113,0.00161523,0.0584974,21.0078,177.306,0.305588,0.0,0.0
1164,290.75,31.3611,32.8748,145.835,119.116,115.123,0.00167109,0.0584965,21.0073,177.276,0.304609,0.0,0.0
1170,292.25,31.6614,32.632,150.356,119.132,114.207,0.00165451,0.0585344,21.007,177.306,0.377232,0.0,0.0
1176,293.75,31.4167,32.335,145.011,119.126,114.919,0.00164216,0.0586149,21.0065,177.286,0.321297,0.0,0.0
1182,295.25,32.117,33.0167,144.488,119.142,114.999,0.0016075,0.0586778,21.0062,177.286,0.316229,0.0,0.0
1188,296.75,31.4448,32.7755,149.033,119.136,115.223,0.00153116,0.0586532,21.0061,177.266,0.298412,0.0,0.0
1194,298.25,31.8956,33.1119,145.675,119.151,114.747,0.00143273,0.0586222,21.006,177.266,0.336524,0.0,0.0
1200,299.75,31.2253,33.1589,147.646,119.136,114.506,0.00132623,0.05866,21.0059,177.246,0.354157,0.0,0.0
1206,301.25,31.4586,32.6888,149.69,119.162,115.881,0.00125894,0.0586805,21.0059,177.276,0.249477,0.0,0.0
1212,302.75,31.5837,32.9188,147.751,119.141,115.082,0.00122389,0.0586768,21.0061,177.266,0.309684,0.0,0.0
1218,304.25,31.2346,33.0198,145.601,119.145,114.308,0.00121782,0.0586548,21.0064,177.266,0.370381,0.0,0.0
1224,305.75,30.6842,32.7305,146.798,119.144,115.761,0.00123025,0.0586429,21.0066,177.256,0.257392,0.0,0.0
1230,307.25,31.5785,32.6077,148.726,119.145,114.549,0.00126158,0.0586518,21.0062,177.246,0.351465,0.0,0.0
1236,308.75,31.4386,33.3386,149.13,119.136,115.822,0.00132669,0.0586903,21.0054,177.256,0.252077,0.0,0.0
1242,310.25,31.4225,33.1775,150.226,119.145,114.967,0.00138501,0.0587689,21.0049,177.256,0.318987,0.0,0.0
1248,311.75,31.313,32.9812,146.05,119.131,114.616,0.00142504,0.058868,21.0067,177.256,0.34526,0.0,0.0
1254,313.25,30.9425,32.6931,147.045,119.133,114.68,0.00140876,0.0588796,21.0082,177.246,0.340351,0.0,0.0
1260,314.75,31.6875,33.0854,150.625,119.116,115.826,0.00134945,0.0588841,21.0098,177.236,0.250226,0.0,0.0
1266,316.25,31.394,33.2389,150.493,119.125,115.258,0.00126588,0.0589488,21.0107,177.256,0.294877,0.0,0.0
1272,317.75,31.3206,32.8925,152.188,119.117,115.193,0.00117739,0.0589311,21.0102,177.256,0.299326,0.0,0.0
1278,319.25,31.7987,33.2893,151.879,119.107,115.245,0.00111721,0.0588619,21.0098,177.256,0.294551,0.0,0.0
1284,320.75,31.4254,33.0634,149.406,119.112,114.705,0.00111469,0.058903,21.0096,177.256,0.336867,0.0,0.0
1290,322.25,31.5412,32.8568,150.396,119.099,115.906,0.00118286,0.0588444,21.0095,177.236,0.242794,0.0,0.0
1296,323.75,31.5312,33.214,149.48,119.102,115.694,0.0012878,0.0587731,21.0094,177.216,0.259381,0.0,0.0
1302,325.25,31.2633,32.8624,149.575,119.099,115.569,0.00133187,0.0587057,21.0094,177.236,0.268878,0.0,0.0
1308,326.75,31.6244,32.583,149.309,119.088,114.797,0.00132203,0.0586657,21.0094,177.226,0.327912,0.0,0.0
1314,328.25,31.5477,33.286,146.396,119.075,114.776,0.00131543,0.0586939,21.0094,177.216,0.328556,0.0,0.0
1320,329.75,31.2926,33.0958,148.497,119.076,114.516,0.00137333,0.0587341,21.0094,177.226,0.348943,0.0,0.0
1326,331.25,31.2222,32.7958,152.179,119.055,114.941,0.00148201,0.0587625,21.0094,177.236,0.314173,0.0,0.0
1332,332.75,31.5469,32.9869,149.51,119.064,114.954,0.00157512,0.0587633,21.0094,177.226,0.313911,0.0,0.0
1338,334.25,31.6726,33.0825,146.857,119.034,114.457,0.00162142,0.0586753,21.0091,177.226,0.350348,0.0,0.0
1344,335.75,31.9138,33.2035,151.654,119.041,114.471,0.00162796,0.0585483,21.0084,177.216,0.34982,0.0,0.0
1350,337.25,31.7159,33.1362,151.208,119.017,114.118,0.00159579,0.0585381,21.0081,177.206,0.375563,0.0,0.0
1356,338.75,31.5232,33.26,146.769,119.023,114.221,0.00153326,0.0585684,21.0079,177.236,0.367921,0.0,0.0
1362,340.25,31.6706,33.2872,148.937,119.005,115.366,0.00142185,0.0585998,21.0078,177.216,0.277522,0.0,0.0
1368,341.75,32.0854,32.9433,145.792,119.008,114.216,0.00127796,0.0586125,21.0078,177.206,0.36726,0.0,0.0
1374,343.25,31.873,33.5028,149.367,118.985,115.139,0.00114333,0.058513,21.0077,177.196,0.29354,0.0,0.0
1380,344.75,31.5109,33.0873,145.845,119.014,114.91,0.00108476,0.0584849,21.009,177.206,0.31356,0.0,0.0
1386,346.25,31.6525,33.0968,144.38,118.976,115.26,0.00113849,0.05846,21.0099,177.196,0.283485,0.0,0.0
1392,347.75,31.7945,33.1742,147.562,118.978,115.68,0.00127392,0.0584428,21.0104,177.196,0.251158,0.0,0.0
1398,349.25,31.0553,33.0079,148.313,118.954,115.393,0.00136364,0.058273,21.0106,177.186,0.271618,0.0,0.0
1404,350.75,31.8103,33.4088,148.61,118.966,114.711,0.0013471,0.0582896,21.0107,177.206,0.325411,0.0,0.0
1410,352.25,31.5727,32.7323,152.01,118.955,115.126,0.00130209,0.0583971,21.0108,177.186,0.292338,0.0,0.0
1416,353.75,31.7188,32.8374,150.776,118.955,114.89,0.00125508,0.0583599,21.0108,177.176,0.310722,0.0,0.0
1422,355.25,31.4665,33.2948,149.471,118.944,114.528,0.00124224,0.0582858,21.0109,177.186,0.33803,0.0,0.0
1428,356.75,31.4076,33.4608,148.685,118.942,114.689,0.00126439,0.0582063,21.0107,177.166,0.32533,0.0,0.0
1434,358.25,31.435,32.8631,146.985,118.937,115.065,0.00130811,0.0581888,21.0101,177.176,0.295746,0.0,0.0
1440,359.75,31.5972,33.0282,151.27,118.922,115.718,0.00136003,0.0582471,21.0097,177.166,0.244027,0.0,0.0
1446,361.25,32.0419,32.9852,149.278,118.932,114.361,0.00144682,0.0583207,21.0096,177.166,0.350201,0.0,0.0
1452,362.75,31.645,33.0488,147.901,118.925,114.436,0.0014879,0.0583461,21.0095,177.166,0.343787,0.0,0.0
1458,364.25,31.5109,33.3406,150.894,118.931,115.636,0.00146394,0.0584177,21.0094,177.156,0.251077,0.0,0.0
1464,365.75,31.7693,33.1625,152.372,118.923,114.625,0.00135183,0.058491,21.0093,177.166,0.328884,0.0,0.0
1470,367.25,31.7095,33.3636,143.778,118.919,115.134,0.00123741,0.0584496,21.0089,177.156,0.289031,0.0,0.0
1476,368.75,31.5558,33.2655,150.748,118.909,115.671,0.00117998,0.0584264,21.0087,177.156,0.246704,0.0,0.0
1482,370.25,31.6512,33.3279,147.505,118.917,114.709,0.0012462,0.0583552,21.0086,177.126,0.32195,0.0,0.0
1488,371.75,31.9632,33.2543,150.738,118.908,114.773,0.00136448,0.0583289,21.0086,177.126,0.316278,0.0,0.0
1494,373.25,31.8939,32.9543,150.654,118.911,114.979,0.00143443,0.0582948,21.0085,177.136,0.300512,0.0,0.0
1500,374.75,31.6085,33.3122,152.28,118.898,114.816,0.0014623,0.058243,21.0085,177.136,0.312165,0.0,0.0
1506,376.25,31.7887,33.2928,152.938,118.912,115.307,0.00146635,0.0583165,21.0085,177.136,0.275121,0.0,0.0
1512,377.75,31.6418,33.2466,148.181,118.891,114.742,0.00149532,0.0584232,21.0085,177.136,0.317461,0.0,0.0
1518,379.25,31.9566,33.5159,152.559,118.889,115.44,0.00154422,0.0585015,21.0085,177.126,0.263067,0.0,0.0
1524,380.75,31.9359,33.3662,150.526,118.888,114.74,0.00159201,0.0585642,21.0085,177.126,0.317324,0.0,0.0
1530,382.25,31.9483,33.4102,149.677,118.888,114.814,0.00156736,0.0585158,21.0084,177.136,0.311555,0.0,0.0
1536,383.75,31.5352,33.6675,149.029,118.876,114.321,0.0015199,0.0584812,21.0084,177.106,0.349108,0.0,0.0
1542,385.25,31.6786,32.9308,151.225,118.893,115.515,0.00147879,0.0585265,21.0084,177.116,0.257586,0.0,0.0
1548,386.75,31.7189,33.5049,153.653,118.876,114.706,0.00144315,0.0585211,21.0084,177.116,0.319076,0.0,0.0
1554,388.25,31.1057,33.0839,146.529,118.896,115.416,0.00141177,0.0585572,21.0084,177.116,0.26548,0.0,0.0
1560,389.75,31.6711,33.4167,146.785,118.873,114.677,0.00141514,0.0584929,21.0084,177.106,0.321122,0.0,0.0
1566,391.25,31.8646,33.484,146.565,118.882,114.849,0.00143479,0.058423,21.0084,177.106,0.30837,0.0,0.0
1572,392.75,31.4917,33.3658,147.778,118.868,115.002,0.00140066,0.0584709,21.0084,177.096,0.295429,0.0,0.0
1578,394.25,31.6022,33.2295,150.999,118.862,115.227,0.00130043,0.0585052,21.0084,177.096,0.277568,0.0,0.0
1584,395.75,31.9181,33.3486,146.47,118.871,114.958,0.00121653,0.0584825,21.0084,177.086,0.299062,0.0,0.0
1590,397.25,31.7768,32.8897,149.374,118.864,114.935,0.0012012,0.0583712,21.0084,177.086,0.300376,0.0,0.0
1596,398.75,32.0463,33.2924,149.479,118.864,115.401,0.00126097,0.0582835,21.0084,177.086,0.26417,0.0,0.0
1602,400.25,32.1874,33.4438,147.313,118.868,114.313,0.00137186,0.0583844,21.0084,177.086,0.349125,0.0,0.0
1608,401.75,32.1527,33.454,147.771,118.869,114.696,0.0014728,0.0584593,21.0084,177.096,0.319396,0.0,0.0
1614,403.25,32.2711,33.3955,150.641,118.852,115.645,0.00148878,0.0584106,21.0088,177.076,0.244472,0.0,0.0
1620,404.75,31.9886,33.7441,147.538,118.853,115.468,0.00146185,0.0584395,21.0094,177.076,0.258219,0.0,0.0
1626,406.25,31.966,33.383,153.132,118.857,115.619,0.00149549,0.0585151,21.0097,177.076,0.246776,0.0,0.0
1632,407.75,31.7435,33.484,149.761,118.843,114.507,0.00155785,0.0584897,21.009,177.066,0.332083,0.0,0.0
1638,409.25,31.7063,33.6317,149.507,118.844,115.896,0.00158776,0.0584406,21.0084,177.056,0.224479,0.0,0.0
1644,410.75,32.2645,33.2616,148.676,118.83,115.047,0.00156351,0.0583742,21.0081,177.066,0.289036,0.0,0.0
1650,412.25,31.7478,33.7405,144.581,118.829,114.853,0.00148917,0.05836,21.0079,177.066,0.304023,0.0,0.0
1656,413.75,32.021,33.8424,149.929,118.85,115.369,0.00141467,0.0584373,21.0078,177.076,0.265564,0.0,0.0
1662,415.25,31.9802,34.0473,145.772,118.829,115.371,0.00138912,0.0582899,21.0078,177.076,0.263867,0.0,0.0
1668,416.75,32.1199,33.4063,146.211,118.848,115.676,0.00142031,0.0581444,21.0077,177.066,0.241734,0.0,0.0
1674,418.25,31.2622,33.2284,147.452,118.824,114.928,0.00145131,0.0580708,21.008,177.056,0.297929,0.0,0.0
1680,419.75,31.5484,33.7285,146.736,118.846,115.249,0.00144692,0.0580817,21.0082,177.066,0.274616,0.0,0.0
1686,421.25,31.9409,33.133,148.667,118.826,115.303,0.00138579,0.0580094,21.0084,177.046,0.268953,0.0,0.0
1692,422.75,31.7514,33.4684,149.073,118.831,115.362,0.00131542,0.0578861,21.0089,177.066,0.264762,0.0,0.0
1698,424.25,31.9227,33.6978,147.974,118.823,115.313,0.00127006,0.0578252,21.0098,177.046,0.267865,0.0,0.0
1704,425.75,31.6192,33.4368,149.681,118.834,114.008,0.00124946,0.0579012,21.0103,177.046,0.37044,0.0,0.0
1710,427.25,32.1252,33.0774,146.003,118.819,114.062,0.00123729,0.0579819,21.0108,177.056,0.365095,0.0,0.0
1716,428.75,31.8468,33.8288,147.866,118.827,114.333,0.0012049,0.0580448,21.0108,177.056,0.344486,0.0,0.0
1722,430.25,32.3513,33.6704,150.612,118.828,114.541,0.00112153,0.0580487,21.0107,177.046,0.328318,0.0,0.0
1728,431.75,32.2892,33.5799,147.954,118.869,114.691,0.00103685,0.0580231,21.0106,177.046,0.319754,0.0,0.0
1734,433.25,31.9796,33.7247,148.554,118.898,114.689,0.00102406,0.0579573,21.0101,177.046,0.321998,0.0,0.0
1740,434.75,31.6936,33.8587,146.421,118.932,115.365,0.00106992,0.0580014,21.0092,177.036,0.272147,0.0,0.0
1746,436.25,32.2506,33.3631,153.314,118.972,115.778,0.00111884,0.0580238,21.0087,177.016,0.243143,0.0,0.0
1752,437.75,31.5837,33.9092,147.98,118.984,114.958,0.00108823,0.0580789,21.0084,177.016,0.30752,0.0,0.0
1758,439.25,31.9099,33.5111,148.719,119.013,114.859,0.000964125,0.0581087,21.0083,177.026,0.317462,0.0,0.0
1764,440.75,32.1717,33.9001,148.245,119.028,114.891,0.000816958,0.0581693,21.0082,177.026,0.316092,0.0,0.0
1770,442.25,31.5993,33.9707,146.385,119.084,115.484,0.000760562,0.0582546,21.0082,177.026,0.274305,0.0,0.0
1776,443.75,32.0875,33.1039,148.679,119.087,114.618,0.000814215,0.0582163,21.0082,177.026,0.341811,0.0,0.0
1782,445.25,32.1628,33.7099,147.681,119.112,115.478,0.000914646,0.0581675,21.0082,177.036,0.276827,0.0,0.0
1788,446.75,32.2963,33.1567,147.933,119.117,114.888,0.000971322,0.0581639,21.0082,177.026,0.322987,0.0,0.0
1794,448.25,32.2486,33.7266,148.508,119.16,114.774,0.000979237,0.0581807,21.0082,177.016,0.335109,0.0,0.0
1800,449.75,32.0038,33.7786,149.344,119.165,115.928,0.000956516,0.0582498,21.0086,177.016,0.246075,0.0,0.0
1806,451.25,32.0258,34.003,148.833,119.202,114.834,0.000953295,0.0581179,21.0091,177.016,0.333597,0.0,0.0
1812,452.75,32.1862,33.9834,150.099,119.223,115.138,0.00100671,0.0580549,21.0094,177.006,0.311498,0.0,0.0
1818,454.25,32.2697,32.9578,148.022,119.23,116.78,0.00107931,0.0580192,21.0095,177.016,0.185535,0.0,0.0
1824,455.75,32.2129,33.6895,145.219,119.247,115.498,0.00113087,0.0579331,21.0096,177.016,0.285442,0.0,0.0
1830,457.25,31.9583,33.7319,148.141,119.28,115.393,0.00116669,0.057891,21.0096,176.996,0.296039,0.0,0.0
1836,458.75,32.7909,33.9462,139.861,119.288,115.288,0.00121957,0.0578309,21.0097,176.996,0.304776,0.0,0.0
1842,460.25,32.0407,33.6029,145.449,119.339,115.378,0.00129294,0.0577123,21.0105,176.986,0.301639,0.0,0.0
1848,461.75,31.824,33.6487,151.737,119.348,115.43,0.00132837,0.0576883,21.0116,176.996,0.298263,0.0,0.0
1854,463.25,32.0898,33.4091,151.856,119.402,115.572,0.00133024,0.0576861,21.0122,176.986,0.291354,0.0,0.0
1860,464.75,32.5897,33.537,151.719,119.407,116.011,0.00135839,0.0577047,21.0125,176.996,0.257838,0.0,0.0
1866,466.25,32.3449,33.7539,153.488,119.447,115.194,0.00140683,0.0576993,21.0127,176.986,0.323925,0.0,0.0
1872,467.75,32.3047,34.1361,152.507,119.443,115.932,0.00141794,0.0576319,21.0128,176.976,0.266601,0.0,0.0
1878,469.25,32.3314,33.4468,145.822,119.483,115.861,0.00136237,0.0576031,21.0128,176.976,0.275031,0.0,0.0
1884,470.75,32.2491,33.8036,150.764,119.5,115.185,0.00127724,0.0575664,21.0128,176.966,0.328572,0.0,0.0
1890,472.25,32.8436,33.1973,150.38,119.51,116.146,0.00122209,0.0575614,21.012,176.996,0.255139,0.0,0.0
1896,473.75,32.3506,34.0546,148.904,119.527,115.269,0.00121209,0.0576774,21.0112,176.976,0.324188,0.0,0.0
1902,475.25,32.5227,33.7008,148.286,119.548,115.057,0.00124899,0.0577544,21.0108,176.986,0.342097,0.0,0.0
1908,476.75,32.4786,33.5265,151.486,119.558,116.331,0.00126154,0.0577552,21.0106,176.966,0.244488,0.0,0.0
1914,478.25,32.6491,33.6309,149.112,119.569,116.931,0.0012254,0.0577556,21.0105,176.976,0.199314,0.0,0.0
1920,479.75,31.9623,33.8437,147.483,119.593,115.214,0.00117535,0.0577311,21.0104,176.966,0.333309,0.0,0.0
1926,481.25,32.2573,33.5899,145.486,119.593,115.698,0.00121731,0.0577681,21.0105,176.986,0.295884,0.0,0.0
1932,482.75,31.7581,33.2436,151.029,119.615,115.92,0.00132615,0.0577625,21.0111,176.986,0.280407,0.0,0.0
1938,484.25,31.8354,34.1125,147.614,119.623,115.677,0.00141812,0.0577779,21.0105,176.976,0.299723,0.0,0.0
1944,485.75,32.1977,34.1446,148.104,119.637,115.835,0.00135499,0.0577708,21.0102,176.976,0.288552,0.0,0.0
1950,487.25,32.7505,33.7651,147.837,119.649,116.039,0.00120872,0.0576472,21.011,176.976,0.273741,0.0,0.0
1956,488.75,32.1415,33.3396,147.081,119.653,115.437,0.00106967,0.057659,21.0104,176.956,0.320556,0.0,0.0
1962,490.25,31.789,33.7765,153.628,119.653,115.435,0.00100795,0.0577429,21.0104,176.956,0.320639,0.0,0.0
1968,491.75,32.1774,34.081,149.66,119.668,116.064,0.000996061,0.0578769,21.0106,176.946,0.273194,0.0,0.0
1974,493.25,31.8614,34.0605,149.151,119.666,116.029,0.00102206,0.0579197,21.0104,176.956,0.275841,0.0,0.0
1980,494.75,31.5804,33.3302,144.847,119.687,115.765,0.00105746,0.0579073,21.0103,176.956,0.297739,0.0,0.0
1986,496.25,32.1919,33.9561,145.482,119.687,115.719,0.00110149,0.0578565,21.0109,176.946,0.301251,0.0,0.0
1992,497.75,31.8752,33.9095,146.074,119.718,116.272,0.00109858,0.0578368,21.0112,176.946,0.261016,0.0,0.0
1998,499.25,32.0978,34.1886,148.968,119.708,115.313,0.00105659,0.0578665,21.0114,176.946,0.334211,0.0,0.0
2004,500.75,32.3858,33.6599,146.524,119.73,115.712,0.00103646,0.0579117,21.0115,176.946,0.305008,0.0,0.0
2010,502.25,31.8195,34.2433,150.599,119.727,116.004,0.00106795,0.0579537,21.0116,176.956,0.282278,0.0,0.0
2016,503.75,32.3045,33.5757,150.404,119.757,115.979,0.00113919,0.0579713,21.0116,176.956,0.286461,0.0,0.0
2022,505.25,32.3438,34.2186,149.081,119.747,116.278,0.00121645,0.0579494,21.0116,176.946,0.262655,0.0,0.0
2028,506.75,32.0241,33.9714,144.115,119.759,116.128,0.00127076,0.0579405,21.0116,176.936,0.275116,0.0,0.0
2034,508.25,32.461,34.1589,147.942,119.773,115.475,0.00125884,0.0579216,21.011,176.936,0.326577,0.0,0.0
2040,509.75,32.4419,34.2402,150.728,119.781,115.919,0.00120428,0.0579363,21.0102,176.936,0.292852,0.0,0.0
2046,511.25,32.5017,34.2355,149.487,119.786,115.808,0.00117296,0.058068,21.0102,176.906,0.301769,0.0,0.0
2052,512.75,32.2687,33.5716,148.043,119.794,115.631,0.00116773,0.0581333,21.0103,176.936,0.316047,0.0,0.0
2058,514.25,32.5586,33.6528,148.626,119.812,115.505,0.00113322,0.0580578,21.0104,176.916,0.327152,0.0,0.0
2064,515.75,32.436,33.4629,148.916,119.798,116.026,0.00105379,0.0580783,21.0101,176.916,0.285897,0.0,0.0
2070,517.25,32.6406,33.9205,147.146,119.821,115.331,0.000956951,0.0581369,21.0094,176.916,0.341261,0.0,0.0
2076,518.75,32.1937,33.631,149.042,119.813,117.041,0.000857917,0.0581397,21.0099,176.916,0.209187,0.0,0.0
2082,520.25,32.3906,33.9163,149.844,119.824,115.335,0.000786775,0.0581943,21.0106,176.916,0.341122,0.0,0.0
2088,521.75,32.2741,33.6558,151.453,119.819,115.511,0.000766162,0.0581967,21.0109,176.926,0.327184,0.0,0.0
2094,523.25,32.2192,34.2035,149.932,119.835,116.104,0.000786573,0.0582383,21.0113,176.906,0.282638,0.0,0.0
2100,524.75,32.3557,34.0448,146.598,119.822,115.305,0.000822915,0.0582509,21.0117,176.906,0.34339,0.0,0.0
2106,526.25,32.0346,33.7856,146.793,119.85,115.436,0.00085669,0.0583766,21.0124,176.916,0.335287,0.0,0.0
2112,527.75,32.3029,34.1254,150.324,119.836,116.193,0.000911844,0.0582994,21.0133,176.916,0.275829,0.0,0.0
2118,529.25,31.8712,33.6055,149.517,119.852,116.409,0.000960017,0.058243,21.0139,176.916,0.26042,0.0,0.0
2124,530.75,32.3315,34.0356,149.696,119.826,116.635,0.000952811,0.0583235,21.0141,176.906,0.24117,0.0,0.0
2130,532.25,32.2825,33.9852,149.925,119.843,116.333,0.000909171,0.0582991,21.0143,176.906,0.26561,0.0,0.0
2136,533.75,32.4418,33.7773,149.261,119.835,116.366,0.000833086,0.0582879,21.0144,176.906,0.262517,0.0,0.0
2142,535.25,32.5956,34.1316,149.634,119.851,115.713,0.000792502,0.0581543,21.0144,176.906,0.313944,0.0,0.0
2148,536.75,32.246,34.2077,149.167,119.832,116.558,0.000836057,0.0581501,21.0144,176.896,0.247481,0.0,0.0
2154,538.25,32.1268,33.8237,144.402,119.849,116.583,0.00094502,0.0581432,21.0145,176.896,0.246833,0.0,0.0
2160,539.75,32.7565,34.3522,147.336,119.83,116.166,0.0010642,0.058101,21.0145,176.906,0.277477,0.0,0.0
2166,541.25,32.4774,34.0015,145.793,119.83,116.537,0.00117018,0.0581134,21.0137,176.906,0.248979,0.0,0.0
2172,542.75,32.4862,33.8891,150.301,119.822,115.431,0.00120583,0.0581484,21.0126,176.896,0.333614,0.0,0.0
2178,544.25,31.8216,33.9125,147.075,119.83,116.351,0.00117503,0.0581534,21.0119,176.906,0.263259,0.0,0.0
2184,545.75,31.8625,34.3942,150.497,119.802,117.267,0.00112874,0.0581359,21.0112,176.906,0.19112,0.0,0.0
2190,547.25,32.3025,34.0502,147.129,119.827,116.332,0.00109348,0.0580672,21.0109,176.906,0.26453,0.0,0.0
2196,548.75,32.5846,34.1447,152.673,119.794,116.22,0.00103788,0.0580703,21.0107,176.896,0.270624,0.0,0.0
2202,550.25,32.4453,34.013,144.495,119.792,116.647,0.000972116,0.0580379,21.0106,176.876,0.237725,0.0,0.0
2208,551.75,32.5814,34.113,149.471,119.781,115.511,0.000891757,0.0580246,21.0109,176.886,0.324312,0.0,0.0
2214,553.25,32.1944,34.2926,151.408,119.758,115.585,0.000819366,0.0579449,21.0118,176.876,0.316947,0.0,0.0
2220,554.75,32.2738,34.0485,150.793,119.775,115.528,0.000780625,0.0577632,21.0114,176.886,0.322607,0.0,0.0
2226,556.25,32.0702,33.6739,146.727,119.736,116.377,0.000816824,0.0576591,21.0119,176.876,0.254275,0.0,0.0
2232,557.75,32.7149,33.5152,151.392,119.731,115.725,0.000933476,0.0577228,21.0123,176.876,0.304015,0.0,0.0
2238,559.25,32.5363,33.906,145.398,119.71,115.016,0.00103892,0.0577613,21.0125,176.886,0.357398,0.0,0.0
2244,560.75,32.4592,34.0058,146.472,119.726,116.497,0.00107357,0.0578103,21.0126,176.866,0.244331,0.0,0.0
2250,562.25,32.2681,33.7805,145.513,119.7,115.747,0.000996202,0.0577915,21.0121,176.866,0.300066,0.0,0.0
2256,563.75,32.7455,33.6327,145.811,119.696,116.496,0.000860589,0.0577731,21.0113,176.856,0.242155,0.0,0.0
2262,565.25,32.5821,33.9399,147.71,119.682,117.342,0.000723054,0.0578034,21.0112,176.846,0.176487,0.0,0.0
2268,566.75,32.3375,34.0507,148.99,119.686,115.333,0.000629325,0.0578154,21.0112,176.856,0.331029,0.0,0.0
2274,568.25,32.6889,33.5493,146.65,119.659,116.016,0.000621025,0.0579545,21.0113,176.856,0.276203,0.0,0.0
2280,569.75,32.1221,33.8505,145.833,119.671,116.317,0.000678345,0.0579788,21.0113,176.856,0.253956,0.0,0.0
2286,571.25,32.4359,34.1833,147.544,119.638,116.389,0.000733671,0.0578848,21.0113,176.856,0.245946,0.0,0.0
2292,572.75,32.3404,33.8319,153.834,119.671,116.268,0.000800392,0.0577962,21.0113,176.856,0.257762,0.0,0.0
2298,574.25,32.434,33.9073,153.733,119.632,116.937,0.000816606,0.0579067,21.0113,176.856,0.203581,0.0,0.0
2304,575.75,32.3468,34.0898,148.993,119.64,116.282,0.000732441,0.0579893,21.0113,176.866,0.254412,0.0,0.0
2310,577.25,32.6862,33.8192,146.094,119.634,116.09,0.000648698,0.0580326,21.0113,176.856,0.268716,0.0,0.0
2316,578.75,32.24,34.0926,147.351,119.626,115.959,0.000607519,0.0580699,21.0113,176.846,0.27825,0.0,0.0
2322,580.25,32.6849,33.9273,144.728,119.613,115.734,0.000592722,0.058148,21.0113,176.846,0.294575,0.0,0.0
2328,581.75,32.2778,33.9835,147.273,119.636,116.097,0.000593426,0.0582414,21.0113,176.866,0.26835,0.0,0.0
2334,583.25,31.9112,33.3606,149.941,119.61,115.9,0.000644171,0.0581893,21.0113,176.856,0.281579,0.0,0.0
2340,584.75,32.1472,33.9715,150.561,119.61,115.7,0.000767455,0.0580942,21.0113,176.856,0.296964,0.0,0.0
2346,586.25,32.49,34.0756,151.062,119.632,115.8,0.000888969,0.0581026,21.0111,176.846,0.290908,0.0,0.0
2352,587.75,32.2983,33.695,144.475,119.608,116.203,0.000953266,0.0581071,21.0103,176.866,0.25806,0.0,0.0
2358,589.25,32.1022,33.8022,147.913,119.604,115.798,0.000969583,0.0581095,21.0095,176.836,0.288988,0.0,0.0
2364,590.75,32.4526,34.0021,147.787,119.604,116.18,0.000986168,0.0580518,21.0087,176.836,0.259538,0.0,0.0
2370,592.25,32.2468,34.0979,149.69,119.607,114.951,0.00101764,0.0580607,21.0093,176.846,0.3548,0.0,0.0
2376,593.75,32.2237,33.1966,149.293,119.594,115.977,0.00104773,0.0580991,21.0096,176.836,0.274429,0.0,0.0
2382,595.25,32.2694,33.7039,147.696,119.595,116.769,0.00106833,0.0581052,21.0098,176.826,0.213671,0.0,0.0
2388,596.75,32.2354,33.8648,149.703,119.568,116.054,0.0010419,0.0582048,21.0099,176.806,0.266555,0.0,0.0
2394,598.25,32.5548,33.8003,148.706,119.585,116.219,0.000990793,0.0583833,21.0097,176.826,0.255166,0.0,0.0
2400,599.75,32.4463,34.1248,148.157,119.562,115.822,0.000960854,0.0584545,21.0091,176.816,0.283929,0.0,0.0
2406,601.25,31.9899,33.7065,147.96,119.573,116.158,0.00094673,0.058428,21.0089,176.816,0.258934,0.0,0.0
2412,602.75,32.3695,34.2084,148.769,119.56,116.887,0.000951399,0.0583636,21.0087,176.826,0.202058,0.0,0.0
2418,604.25,32.2996,33.7471,148.3,119.559,115.723,0.000983721,0.0582814,21.0086,176.816,0.291324,0.0,0.0
2424,605.75,31.4665,33.703,147.14,119.532,115.896,0.00101302,0.05824,21.0086,176.826,0.276032,0.0,0.0
2430,607.25,31.8867,33.1565,149.182,119.552,115.372,0.0010133,0.0583507,21.0083,176.816,0.317969,0.0,0.0
2436,608.75,31.6414,33.1676,146.306,119.493,116.111,0.000959811,0.0583847,21.008,176.826,0.256502,0.0,0.0
2442,610.25,31.8263,33.9529,148.224,119.504,115.765,0.000874287,0.0584138,21.0078,176.836,0.283972,0.0,0.0
2448,611.75,32.1664,33.7713,149.764,119.466,116.474,0.000879243,0.0585224,21.009,176.816,0.226652,0.0,0.0
2454,613.25,32.2809,33.3196,149.537,119.481,114.879,0.000905659,0.0586145,21.0101,176.816,0.35101,0.0,0.0
2460,614.75,32.0753,33.5156,150.326,119.461,115.266,0.000882006,0.058619,21.0106,176.816,0.31943,0.0,0.0
2466,616.25,31.6918,33.597,149.388,119.449,115.729,0.00082717,0.058543,21.0109,176.816,0.282767,0.0,0.0
2472,617.75,31.8504,33.4004,146.338,119.43,115.739,0.000781837,0.0584956,21.0111,176.806,0.280517,0.0,0.0
2478,619.25,31.3296,33.0846,150.066,119.422,116.423,0.000777196,0.0585342,21.0115,176.806,0.227256,0.0,0.0
2484,620.75,31.9355,33.5902,149.052,119.396,116.184,0.000823635,0.0585988,21.0118,176.806,0.24366,0.0,0.0
2490,622.25,31.5094,33.7713,150.658,119.374,115.914,0.000919971,0.0586289,21.012,176.806,0.262801,0.0,0.0
2496,623.75,31.7469,33.2649,152.809,119.363,115.89,0.00108398,0.0585506,21.0121,176.806,0.263891,0.0,0.0
2502,625.25,32.3572,33.237,150.438,119.331,115.903,0.00124624,0.0584482,21.0121,176.806,0.260382,0.0,0.0
2508,626.75,32.3636,33.1775,151.407,119.318,115.424,0.00126949,0.0583528,21.0121,176.796,0.296471,0.0,0.0
2514,628.25,31.5846,33.4586,145.546,119.277,115.47,0.00119465,0.0583162,21.0121,176.786,0.289806,0.0,0.0
2520,629.75,31.6117,33.6159,148.323,119.254,115.894,0.00111119,0.0585599,21.0121,176.776,0.255363,0.0,0.0
2526,631.25,32.1058,33.8365,148.416,119.214,115.422,0.000986648,0.0586504,21.0121,176.786,0.288816,0.0,0.0
2532,632.75,31.8592,34.0321,152.102,119.2,116.147,0.000834013,0.0586452,21.0121,176.786,0.231896,0.0,0.0
2538,634.25,32.1502,33.3792,148.691,119.155,114.614,0.000705695,0.0586781,21.0118,176.796,0.347135,0.0,0.0
2544,635.75,31.9189,33.25,148.671,119.183,115.889,0.00062539,0.058651,21.0116,176.786,0.25046,0.0,0.0
2550,637.25,31.841,33.8403,147.168,119.162,115.321,0.000599127,0.0586165,21.0114,176.796,0.292742,0.0,0.0
2556,638.75,32.6503,33.4984,143.754,119.19,115.309,0.000637157,0.058544,21.0114,176.786,0.295735,0.0,0.0
2562,640.25,32.1891,33.4285,146.389,119.186,116.073,0.000739064,0.0585375,21.0111,176.786,0.2365,0.0,0.0
2568,641.75,32.0261,34.016,147.978,119.209,115.257,0.000828862,0.0586559,21.0107,176.776,0.301201,0.0,0.0
2574,643.25,32.2034,33.8367,146.552,119.206,116.368,0.000842433,0.0586413,21.011,176.796,0.215285,0.0,0.0
2580,644.75,32.4113,33.7389,148.275,119.238,115.054,0.000807448,0.0586746,21.0111,176.796,0.319178,0.0,0.0
2586,646.25,32.0848,33.6644,144.869,119.231,115.138,0.00078707,0.058703,21.0112,176.776,0.312158,0.0,0.0
2592,647.75,32.0067,33.6913,145.225,119.27,115.508,0.000757487,0.0586979,21.011,176.776,0.286406,0.0,0.0
2598,649.25,32.1798,33.8147,151.278,119.27,115.897,0.000711854,0.0586816,21.0101,176.786,0.256331,0.0,0.0
2604,650.75,32.0652,33.8262,146.767,119.287,115.432,0.000675493,0.0586529,21.0096,176.786,0.293578,0.0,0.0
2610,652.25,32.1694,34.2295,150.497,119.303,116.138,0.000647881,0.0586376,21.0093,176.776,0.240232,0.0,0.0
2616,653.75,32.2398,33.5811,145.226,119.323,115.362,0.00063199,0.0586161,21.0094,176.766,0.301662,0.0,0.0
2622,655.25,30.993,33.1665,148.672,119.322,115.685,0.000629994,0.0585642,21.0102,176.756,0.276606,0.0,0.0
2628,656.75,31.9885,33.8977,147.57,119.34,116.011,0.000662229,0.058532,21.0106,176.756,0.252801,0.0,0.0
2634,658.25,31.3658,33.3293,143.925,119.364,116.153,0.000710629,0.0585386,21.0103,176.766,0.243654,0.0,0.0
2640,659.75,31.8326,33.6954,150.385,119.378,116.228,0.000761064,0.0585431,21.0101,176.766,0.238933,0.0,0.0
2646,661.25,31.9872,34.1375,151.072,119.412,115.522,0.000822377,0.058516,21.0101,176.766,0.295995,0.0,0.0
2652,662.75,31.7634,33.0448,146.782,119.418,115.202,0.000841992,0.0585865,21.01,176.766,0.321215,0.0,0.0
2658,664.25,32.0864,33.8862,148.39,119.431,115.84,0.000805402,0.0586645,21.0094,176.756,0.272783,0.0,0.0
2664,665.75,31.8808,33.9055,148.078,119.437,115.548,0.000760742,0.058589,21.0086,176.746,0.295838,0.0,0.0
2670,667.25,32.6046,33.6744,145.818,119.484,115.432,0.000752186,0.0585024,21.0084,176.756,0.308275,0.0,0.0
2676,668.75,32.1409,33.8372,145.881,119.5,115.187,0.00077616,0.0584427,21.009,176.746,0.328453,0.0,0.0
2682,670.25,32.1314,33.6556,150.415,119.518,115.582,0.000843037,0.0583519,21.0095,176.736,0.299204,0.0,0.0
2688,671.75,32.3514,33.7659,148.806,119.533,116.306,0.000901958,0.0583949,21.0097,176.746,0.244555,0.0,0.0
2694,673.25,32.0703,33.4717,150.512,119.557,115.749,0.000923182,0.0585005,21.0098,176.756,0.289244,0.0,0.0
2700,674.75,32.2614,33.4993,149.048,119.577,116.013,0.000935729,0.0584785,21.0099,176.736,0.27036,0.0,0.0
2706,676.25,32.2921,34.0167,149.353,119.602,116.027,0.000928502,0.0583852,21.0099,176.736,0.271193,0.0,0.0
2712,677.75,32.4305,33.5724,154.671,119.597,116.768,0.000899865,0.0584415,21.01,176.746,0.213859,0.0,0.0
2718,679.25,32.1085,33.8978,148.607,119.647,115.729,0.000869427,0.0584668,21.0097,176.756,0.297518,0.0,0.0
2724,680.75,31.9792,33.5934,151.011,119.631,116.091,0.000832411,0.0584518,21.0098,176.746,0.26838,0.0,0.0
2730,682.25,32.352,33.8489,146.568,119.682,116.64,0.000802523,0.058497,21.0109,176.756,0.230048,0.0,0.0
2736,683.75,32.1082,33.9753,150.335,119.688,116.731,0.000810137,0.0584839,21.0115,176.736,0.223481,0.0,0.0
2742,685.25,31.9969,33.433,152.714,119.708,115.772,0.000821785,0.0583862,21.0118,176.726,0.298676,0.0,0.0
2748,686.75,32.0831,33.4591,148.396,119.716,115.673,0.000786791,0.0582031,21.0119,176.736,0.30695,0.0,0.0
2754,688.25,32.252,33.6682,148.902,119.752,116.051,0.000729984,0.0582302,21.012,176.736,0.280511,0.0,0.0
2760,689.75,32.479,33.8725,148.197,119.754,115.837,0.000687523,0.0583383,21.0112,176.716,0.297161,0.0,0.0
2766,691.25,32.2368,33.9286,148.105,119.779,115.833,0.000678598,0.0583426,21.0106,176.716,0.299292,0.0,0.0
2772,692.75,31.7225,33.0429,149.563,119.797,116.09,0.00073674,0.0584234,21.0104,176.726,0.280862,0.0,0.0
2778,694.25,32.5288,34.0733,150.85,119.81,116.694,0.000842614,0.0584463,21.0105,176.726,0.235464,0.0,0.0
2784,695.75,32.2795,33.7795,147.758,119.815,116.274,0.000893887,0.0583716,21.0106,176.726,0.268058,0.0,0.0
2790,697.25,32.1325,33.6132,148.439,119.819,115.771,0.00085641,0.0583869,21.0106,176.716,0.307084,0.0,0.0
2796,698.75,32.4062,33.8759,148.871,119.856,116.333,0.000789063,0.058395,21.0106,176.726,0.266631,0.0,0.0
2802,700.25,32.1378,33.8311,147.136,119.857,116.779,0.000795007,0.058397,21.0116,176.726,0.23242,0.0,0.0
2808,701.75,32.2521,34.1415,147.241,119.875,117.069,0.000870458,0.0582069,21.0122,176.716,0.211654,0.0,0.0
2814,703.25,32.1058,33.7767,150.899,119.875,116.111,0.000969256,0.058187,21.0122,176.726,0.285028,0.0,0.0
2820,704.75,32.2198,33.7603,150.981,119.907,115.949,0.001064,0.0582212,21.0118,176.706,0.299902,0.0,0.0
2826,706.25,31.9339,34.1218,146.372,119.912,115.709,0.00105275,0.0582323,21.0106,176.706,0.318837,0.0,0.0
2832,707.75,32.1522,34.0343,145.737,119.927,115.847,0.000953731,0.0581921,21.0101,176.696,0.309276,0.0,0.0
2838,709.25,32.3292,33.7692,152.394,119.931,115.941,0.000830948,0.0581955,21.0106,176.696,0.302348,0.0,0.0
2844,710.75,32.2892,33.638,152.027,119.947,116.491,0.000783658,0.0581515,21.0109,176.706,0.261188,0.0,0.0
2850,712.25,32.1446,34.13,148.805,119.949,116.166,,0.0581012,,176.706,0.286414,0.0,0.0
2856,713.75,32.432,33.6847,147.649,119.968,116.291,,0.0580992,,176.716,0.278203,0.0,0.0
2862,715.25,32.2483,33.681,149.583,119.965,116.362,,,,176.696,0.272456,0.0,0.0
2868,716.75,32.0226,34.1728,149.23,119.999,116.059,,,,176.696,0.298299,0.0,0.0
2874,718.25,32.3167,33.7852,148.963,119.993,116.269,,,,176.706,0.281704,0.0,0.0
2880,719.75,32.023,33.6731,146.532,120.011,116.399,,,,176.696,0.273078,0.0,0.0
2886,721.25,32.6068,34.1917,150.833,120.007,116.485,,,,176.686,0.266195,0.0,0.0
2890,722.25,31.9861,33.53,145.505,120.019,116.269,,,,176.706,0.283628,0.0,0.0