File: 01_Data/House_Wrap/Cone/House_Wrap_Cone_HF25Scan_220401_R3.csv
Names,Time,Stack TC,Smoke TC,Exh Press,Smoke Comp,Smoke Meas,CO Meter,CO2 Meter,O2 Meter,Sample Mass,Ext Coeff,Start Test,Flame Verif
Chan Gain,,500,500,1,1,1,1,1,1,1,1,1.0,1.0
Offset,,0,0,0.133521,0,0,0,0,0,0,0,0.0,0.0
Gain,,1,1,25.011,13.1585,13.8929,1,1,1,1.00096,1.01488,1.0,1.0
Units,sec,C,C,Pa,%,%,%,%,%,g,/m,,
Baseline,,19.9892,20.8262,151.71,99.1432,98.0351,0.000754215,0.0664036,21.0266,-834.347,0.100131,,
7,1.5,19.5019,19.6674,150.196,98.3475,96.5705,0.000735255,0.066861,21.0284,185.208,0.162332,0.0,0.0
14,3.25,18.7711,19.7947,149.412,98.152,96.1893,0.000647916,0.0664218,21.0304,185.208,0.179819,0.0,0.0
21,5,19.1388,19.7644,146.785,97.9612,96.3118,0.000631458,0.0660049,21.0315,185.188,0.151167,0.0,0.0
28,6.75,18.7431,19.4935,151.87,97.8227,96.1914,0.000640399,0.065817,21.0318,185.188,0.149707,0.0,0.0
35,8.5,19.2781,20.2755,150.531,97.7295,95.5801,0.000572873,0.0657302,21.031,185.188,0.197987,0.0,0.0
42,10.25,19.1542,19.584,149.867,97.6833,95.7602,0.000525133,0.0656231,21.0306,185.198,0.177011,0.0,0.0
49,12,18.8853,19.4792,152.04,97.6841,96.3869,0.000595271,0.0656601,21.0304,185.168,0.119018,0.0,0.0
56,13.75,19.1183,19.7484,151.788,97.7524,96.1397,0.000707469,0.0659218,21.0292,185.188,0.148096,0.0,0.0
63,15.5,19.4111,20.3794,152.765,97.8464,96.1321,0.000781219,0.0666218,21.0274,185.168,0.157357,0.0,0.0
70,17.25,19.1626,20.1161,153.453,97.9917,96.3882,0.000794618,0.0676647,21.0259,185.178,0.146888,0.0,0.0
77,19,18.9239,20.0809,151.951,98.1616,96.6014,0.000817338,0.0684313,21.0243,185.158,0.142634,0.0,0.0
84,20.75,19.2023,20.1329,154.469,98.3379,97.2187,0.000857521,0.0690272,21.0236,185.158,0.101897,0.0,0.0
91,22.5,19.5355,20.0684,151.47,98.5322,97.3235,0.000818907,0.0695089,21.0223,185.158,0.109891,0.0,0.0
98,24.25,19.5311,20.4357,152.008,98.7162,97.2484,0.000741324,0.0697524,21.0214,185.168,0.13336,0.0,0.0
105,26,19.0739,20.2354,148.047,98.8503,97.4473,0.000645376,0.0698689,21.021,185.168,0.127263,0.0,0.0
112,27.75,19.0055,20.2779,146.707,98.9547,97.4138,0.000559013,0.0698909,21.0208,185.148,0.13972,0.0,0.0
119,29.5,18.8167,20.3473,155.822,99.0298,97.3095,0.000556433,0.0699186,21.0207,185.148,0.156011,0.0,0.0
126,31.25,19.3932,20.2676,150.044,99.0764,97.7576,0.000633229,0.0697129,21.0206,185.148,0.119292,0.0,0.0
133,33,19.1239,20.211,152.092,99.0619,97.3811,0.000748954,0.0693653,21.0215,185.138,0.152345,0.0,0.0
140,34.75,19.4333,20.0194,150.929,99.0458,97.5995,0.000748114,0.0691058,21.0218,185.148,0.130962,0.0,0.0
147,36.5,19.241,20.3371,150.087,99.0314,97.7021,0.000616854,0.0690056,21.0207,185.158,0.120309,0.0,0.0
154,38.25,19.0068,20.0105,151.994,98.9892,97.3069,0.00052255,0.0691368,21.0202,185.158,0.152597,0.0,0.0
161,40,19.5835,20.0222,150.28,98.9169,97.4375,0.000560208,0.0693058,21.0199,185.158,0.134154,0.0,0.0
168,41.75,19.5902,20.2323,152.238,98.8475,96.8897,0.000696448,0.0694951,21.0192,185.158,0.17809,0.0,0.0
175,43.5,19.4471,20.2789,153.037,98.7704,97.3324,0.000736126,0.069597,21.0193,185.158,0.130565,0.0,0.0
182,45.25,19.8358,19.7994,152.758,98.7872,97.209,0.000722395,0.069658,21.0194,185.168,0.143377,0.0,0.0
189,47,19.1871,19.9645,151.904,99.1069,96.9809,0.000733875,0.0697069,21.0204,185.168,0.193051,0.0,0.0
196,48.75,18.817,19.9181,154.52,99.3462,97.4566,0.000768809,0.0696346,21.0211,185.168,0.170962,0.0,0.0
203,50.5,19.0232,20.2151,153.846,99.4908,98.1786,0.000779461,0.069394,21.0215,185.158,0.118194,0.0,0.0
210,52.25,19.5915,20.2367,153.81,99.547,97.7245,0.000760832,0.0691463,21.0226,185.148,0.164492,0.0,0.0
217,54,19.0497,20.0231,154.024,99.5273,98.0574,0.000826904,0.0688262,21.0232,185.148,0.132465,0.0,0.0
224,55.75,19.4454,20.0588,154.324,99.3972,97.6325,0.00089634,0.0685909,21.0233,185.148,0.159473,0.0,0.0
231,57.5,19.0916,20.1119,149.08,99.178,97.4613,0.000904843,0.068329,21.0225,185.138,0.155446,0.0,0.0
238,59.25,19.406,20.2896,151.365,98.9876,96.654,0.00085886,0.0680116,21.0229,185.148,0.212389,0.0,0.0
245,61,19.6228,20.1723,153.81,99.1101,97.5062,0.000707212,0.0677257,21.0231,185.148,0.145248,0.0,0.0
252,62.75,19.5262,20.3868,152.995,99.2426,97.3764,0.000582047,0.0675587,21.0232,185.138,0.168997,0.0,0.0
259,64.5,18.9411,19.992,150.383,99.402,97.3048,0.000513736,0.0673037,21.0234,185.138,0.189838,0.0,0.0
266,66.25,18.9956,20.4789,147.475,99.539,97.3162,0.000504106,0.0672456,21.0235,185.128,0.201048,0.0,0.0
273,68,19.7551,20.1922,151.515,99.6643,97.7216,0.000555057,0.067216,21.0235,185.148,0.175242,0.0,0.0
280,69.75,19.2971,20.2536,150.287,99.7442,98.0836,0.000561774,0.0671275,21.0236,185.148,0.149454,0.0,0.0
287,71.5,19.1291,19.9657,150.225,99.7582,98.0824,0.000514806,0.0669952,21.0236,185.148,0.150824,0.0,0.0
294,73.25,19.4241,19.998,153.91,99.7221,97.9467,0.000507045,0.066714,21.0236,185.138,0.159921,0.0,0.0
301,75,19.3997,20.2665,149.301,99.6157,97.5147,0.000586491,0.0663746,21.0247,185.148,0.18977,0.0,0.0
308,76.75,19.2567,19.7259,153.43,99.4727,97.0619,0.000708232,0.066182,21.0258,185.168,0.218421,0.0,0.0
315,78.5,18.8521,20.1975,150.783,99.2671,97.3569,0.000809743,0.0660798,21.0263,185.148,0.172977,0.0,0.0
322,80.25,19.5208,20.5484,151.396,99.0314,96.5611,0.000849397,0.0660113,21.0266,185.128,0.22488,0.0,0.0
329,82,19.6005,20.2517,150.418,98.7539,96.5264,0.000793279,0.0660153,21.0267,185.138,0.203107,0.0,0.0
336,83.75,19.7686,19.9037,155.303,98.5013,96.1601,0.000716425,0.0659548,21.0268,185.148,0.214158,0.0,0.0
343,85.5,19.1997,20.1304,156.092,98.2475,96.1465,0.000696156,0.0658345,21.0272,185.158,0.192446,0.0,0.0
350,87.25,19.2076,20.07,151.967,98.0239,96.6341,0.000747449,0.0657639,21.0279,185.148,0.127125,0.0,0.0
357,89,19.4056,20.676,149.441,97.8616,95.6004,0.000819306,0.0657441,21.0281,185.148,0.208118,0.0,0.0
364,90.75,19.6698,20.4924,154.892,97.744,95.4762,0.00083203,0.0657084,21.0289,185.158,0.208983,0.0,0.0
371,92.5,19.8784,20.7267,152.623,97.7042,96.0354,0.000779238,0.0656997,21.0286,185.148,0.153371,0.0,0.0
378,94.25,19.4003,20.2929,152.879,97.7416,95.5745,0.00065781,0.065687,21.0284,185.148,0.199598,0.0,0.0
385,96,19.8615,20.112,153.77,97.8287,95.6784,0.000492957,0.0658462,21.0284,185.148,0.19786,0.0,0.0
392,97.75,19.4979,20.6408,153.313,97.9825,95.6046,0.000344864,0.0658926,21.028,185.138,0.218712,0.0,0.0
399,99.5,19.7367,20.6185,152.147,98.1833,96.5272,0.00024879,0.0659248,21.0277,185.138,0.15144,0.0,0.0
406,101.25,19.4919,20.4816,149.467,98.3853,96.3398,0.000239312,0.0658691,21.0275,185.148,0.187036,0.0,0.0
413,103,19.6107,20.6595,148.021,98.6154,96.0456,0.000307292,0.0657948,21.0275,185.158,0.235063,0.0,0.0
420,104.75,19.2583,20.3726,151.708,98.7768,96.799,0.000406687,0.0657043,21.0275,185.188,0.180063,0.0,0.0
427,106.5,20.084,20.7789,153.552,98.9169,96.6243,0.000500205,0.0656103,21.0284,185.178,0.208765,0.0,0.0
434,108.25,20.0465,20.2241,146.296,99.025,96.919,0.000599532,0.065364,21.0291,185.148,0.191373,0.0,0.0
441,110,19.2988,20.4434,151.797,99.08,97.0979,0.000651024,0.0651305,21.03,185.138,0.179898,0.0,0.0
448,111.75,19.9659,20.761,149.384,99.0687,97.053,0.00067718,0.0648486,21.0323,185.148,0.183009,0.0,0.0
455,113.5,18.9556,20.5861,154.403,99.0165,96.7736,0.000729856,0.0646229,21.0337,185.148,0.203983,0.0,0.0
462,115.25,19.9106,20.6966,150.254,98.96875,96.5251,0.000757014,0.0643599,21.0344,185.138,0.222572,0.0,0.0
469,117,19.381,20.571,153.107,98.9077,96.9292,0.000678941,0.0641483,21.0347,185.168,0.17989,0.0,0.0
476,118.75,19.7217,20.347,151.38,98.8274,96.4942,0.000622724,0.0639602,21.0349,185.158,0.212701,0.0,0.0
483,120.5,19.6467,20.3055,146.664,98.7479,96.3843,0.000658458,0.0639646,21.0349,185.158,0.215673,0.0,0.0
490,122.25,19.2714,20.1565,151.521,98.7302,96.2372,0.000731304,0.0640146,21.035,185.158,0.227679,0.0,0.0
497,124,19.3094,20.3856,151.051,98.974,97.0636,0.000772093,0.0640897,21.035,185.158,0.173518,0.0,0.0
504,125.75,19.7771,20.8135,152.406,99.2422,96.6913,0.000735198,0.064346,21.035,185.168,0.23182,0.0,0.0
511,127.5,19.6273,20.3771,154.683,99.4305,96.9643,0.000667123,0.0645755,21.035,185.178,0.223594,0.0,0.0
518,129.25,19.7129,20.5067,151.154,99.5129,97.0173,0.000591336,0.0646799,21.0347,185.158,0.226097,0.0,0.0
525,131,19.4415,20.8393,153.013,99.537,96.7282,0.000516156,0.0647785,21.0336,185.138,0.254825,0.0,0.0
532,132.75,20.1385,20.6619,153.633,99.4554,97.1182,0.000464594,0.0648871,21.0331,185.138,0.211705,0.0,0.0
539,134.5,19.8817,20.7482,153.681,99.2924,97.0788,0.000501656,0.0649758,21.0332,185.118,0.200713,0.0,0.0
546,136.25,19.6613,20.7419,149.361,99.0282,96.8321,0.000583803,0.0650654,21.0333,185.118,0.199649,0.0,0.0
553,138,19.9415,20.77,152.593,99.0358,96.1571,0.000635571,0.0653015,21.0321,185.118,0.262607,0.0,0.0
560,139.75,19.9279,20.5592,154.467,99.1482,97.0411,0.000680244,0.0655369,21.0309,185.128,0.19124,0.0,0.0
567,141.5,19.7967,20.6723,149.122,99.3008,96.7837,0.000673311,0.0660375,21.0293,185.128,0.228573,0.0,0.0
574,143.25,19.7032,20.192,148.697,99.4587,97.0517,0.000604397,0.0665347,21.0283,185.128,0.218097,0.0,0.0
581,145,19.8346,20.9589,152.745,99.5972,97.315,0.00052471,0.0668138,21.0277,185.118,0.20637,0.0,0.0
588,146.75,19.7673,20.6323,154.626,99.704,96.8673,0.00050626,0.0669356,21.0263,185.118,0.256964,0.0,0.0
595,148.5,19.7296,20.2184,151.286,99.7679,97.4689,0.000496771,0.067001,21.0255,185.118,0.207543,0.0,0.0
602,150.25,19.8964,21.1617,151.1,99.7626,97.2959,0.000486299,0.0669728,21.0256,185.128,0.22289,0.0,0.0
609,152,19.745,20.3884,156.746,99.692,97.5549,0.000474994,0.0670003,21.0264,185.138,0.19291,0.0,0.0
616,153.75,19.9863,20.2458,151.478,99.5566,97.1632,0.000492624,0.0670555,21.0268,185.118,0.216639,0.0,0.0
623,155.5,20.0199,20.6132,155.526,99.3482,97.0207,0.00054068,0.0670882,21.0269,185.118,0.211046,0.0,0.0
630,157.25,19.7966,20.698,154.854,99.0956,96.6171,0.000612078,0.0668798,21.0269,185.138,0.225497,0.0,0.0
637,159,20.2275,20.3747,151.997,98.8166,96.4289,0.000665823,0.0667334,21.0269,185.128,0.217751,0.0,0.0
644,160.75,20.1667,20.5733,150.754,98.5371,96.2868,0.000608607,0.0668703,21.0269,185.118,0.205658,0.0,0.0
651,162.5,19.8102,20.6858,154.143,98.2744,95.1497,0.000489433,0.0668914,21.0269,185.128,0.28766,0.0,0.0
658,164.25,19.765,20.4996,152.501,98.0516,95.77,0.000385066,0.0668675,21.0269,185.108,0.209601,0.0,0.0
665,166,19.8917,21.0934,157.628,97.893,95.7505,0.000329233,0.0670862,21.0261,185.108,0.197,0.0,0.0
672,167.75,19.899,21.0613,153.94,97.7705,95.4321,0.000386919,0.0672299,21.0253,185.108,0.21551,0.0,0.0
679,169.5,20.0636,21.0073,149.856,97.7448,95.1891,0.000476362,0.067452,21.0249,185.108,0.235861,0.0,0.0
686,171.25,19.8786,20.9771,150.02,97.7938,95.6894,0.000515772,0.0676941,21.0246,185.128,0.193655,0.0,0.0
693,173,19.9159,21.1387,153.627,97.8741,95.6869,0.000524568,0.0679657,21.0241,185.118,0.2012,0.0,0.0
700,174.75,19.6986,20.6911,149.949,98.0094,95.1506,0.000508566,0.0681454,21.0239,185.118,0.263539,0.0,0.0
707,176.5,19.8123,21.0444,148.837,98.1861,95.6012,0.000504326,0.067915,21.0238,185.128,0.237506,0.0,0.0
714,178.25,19.6445,20.4413,155.655,98.3608,96.0905,0.000511518,0.0677097,21.0237,185.138,0.207886,0.0,0.0
721,180,20.2992,20.9546,155.664,98.56,96.3127,0.000537079,0.0677247,21.0241,185.118,0.205335,0.0,0.0
728,181.75,19.4535,20.9437,153.204,98.713,96.2156,0.000584192,0.0677388,21.0247,185.118,0.228123,0.0,0.0
735,183.5,20.4768,20.7969,153.559,98.8591,96.166,0.000582346,0.0676722,21.025,185.118,0.245887,0.0,0.0
742,185.25,19.8361,21.0181,151.226,98.9732,96.9576,0.000547552,0.0673911,21.0251,185.108,0.183172,0.0,0.0
749,187,19.9312,21.0358,150.286,99.0607,96.0905,0.000514697,0.0673147,21.0252,185.108,0.27101,0.0,0.0
756,188.75,19.8401,20.8825,152.405,99.0888,96.6909,0.000533007,0.0672216,21.0252,185.108,0.218088,0.0,0.0
763,190.5,19.9119,21.1075,149.364,99.0788,96.6459,0.000588088,0.067203,21.0252,185.108,0.221325,0.0,0.0
770,192.25,19.8904,20.9511,155.204,99.0599,96.4314,0.000667795,0.0669938,21.0252,185.088,0.239413,0.0,0.0
777,194,19.9508,20.972,151.832,98.988,96.3428,0.000679303,0.066838,21.0252,185.098,0.241136,0.0,0.0
784,195.75,20.2725,20.7534,152.107,98.9286,96.1927,0.000587736,0.0668568,21.0252,185.098,0.249667,0.0,0.0
791,197.5,20.0187,20.8093,151.167,98.8571,96.5366,0.00048436,0.0669833,21.0252,185.098,0.211467,0.0,0.0
798,199.25,19.7675,20.9798,153.838,98.7852,96.5785,0.000435472,0.0670271,21.0252,185.098,0.201122,0.0,0.0
805,201,20.0418,20.9522,151.862,98.7419,96.3712,0.000490861,0.0671025,21.0252,185.108,0.216344,0.0,0.0
812,202.75,19.917,20.4892,149.987,98.6965,96.6256,0.000586935,0.0671453,21.0256,185.108,0.188783,0.0,0.0
819,204.5,19.8687,20.7595,155.279,98.6973,96.4581,0.000623833,0.0671213,21.0261,185.088,0.2043,0.0,0.0
826,206.25,20.4116,20.75,152.592,98.9567,96.8062,0.000586558,0.0671283,21.0263,185.088,0.1956,0.0,0.0
833,208,19.9937,20.851,149.28,99.1635,96.9088,0.000557602,0.0671353,21.0264,185.118,0.204754,0.0,0.0
840,209.75,19.7465,21.147,158.943,99.3314,97.2348,0.000624689,0.0672319,21.0265,185.088,0.18991,0.0,0.0
847,211.5,19.8849,21.1245,153.994,99.4277,97.2819,0.00071321,0.0672781,21.0265,185.098,0.194235,0.0,0.0
854,213.25,19.6898,20.8598,153.358,99.5016,97.106,0.000778016,0.0673486,21.0257,185.088,0.216964,0.0,0.0
861,215,19.6965,20.7239,148.551,99.5229,96.9745,0.000739143,0.067478,21.0245,185.088,0.230927,0.0,0.0
868,216.75,19.8336,21.1642,148.785,99.5052,96.9499,0.000630757,0.0675728,21.0239,185.098,0.231603,0.0,0.0
875,218.5,20.0607,20.9345,153.929,99.4221,96.4738,0.000566918,0.0675341,21.0236,185.088,0.267992,0.0,0.0
882,220.25,20.046,20.7789,151.756,99.2996,96.9563,0.000551638,0.0674582,21.0235,185.078,0.212606,0.0,0.0
889,222,20.5151,20.7928,153.714,99.1587,96.7753,0.000527935,0.067558,21.0234,185.088,0.216598,0.0,0.0
896,223.75,19.9213,20.8241,151.808,98.9744,96.5616,0.000526223,0.0676241,21.0234,185.078,0.219714,0.0,0.0
903,225.5,20.0295,20.4377,152.15,99.0185,96.3992,0.000514338,0.0676528,21.0234,185.098,0.238671,0.0,0.0
910,227.25,20.2112,20.8196,150.971,99.0856,96.6506,0.000431985,0.0675926,21.0238,185.108,0.22151,0.0,0.0
917,229,19.9728,20.9468,150.455,99.1816,96.3949,0.000305815,0.0674873,21.0248,185.098,0.253707,0.0,0.0
924,230.75,20.3449,20.6013,154.257,99.2707,96.1961,0.000227916,0.0673781,21.0257,185.088,0.280089,0.0,0.0
931,232.5,19.9516,20.7027,152.53,99.3747,96.7748,0.000226061,0.0671947,21.0262,185.078,0.236013,0.0,0.0
938,234.25,20.3333,20.7111,152.816,99.4743,97.4854,0.000306982,0.0669129,21.0264,185.078,0.179801,0.0,0.0
945,236,20.346,21.1318,153.358,99.5578,97.1903,0.000467987,0.0667808,21.0265,185.088,0.214261,0.0,0.0
952,237.75,20.1212,21.036,154.354,99.6261,96.7663,0.000553741,0.0668109,21.0265,185.098,0.259284,0.0,0.0
959,239.5,20.0913,20.6907,154.201,99.6956,97.2005,0.000561119,0.0668783,21.0271,185.078,0.225638,0.0,0.0
966,241.25,20.2602,21.0172,152.138,99.7438,97.0928,0.000472465,0.0669447,21.0268,185.078,0.239808,0.0,0.0
973,243,20.1652,21.3757,153.095,99.761,97.1182,0.000348232,0.0669007,21.0267,185.088,0.239017,0.0,0.0
980,244.75,20.0659,20.9565,150.876,99.7646,96.9325,0.000292385,0.0667329,21.0272,185.078,0.256378,0.0,0.0
987,246.5,19.6828,21.1318,154.502,99.7554,97.6715,0.0002927,0.066692,21.0284,185.068,0.187941,0.0,0.0
994,248.25,20.383,21.1111,153.324,99.7161,97.8225,0.000291975,0.0666226,21.0291,185.078,0.170681,0.0,0.0
1001,250,20.4998,20.9109,154.121,99.659,97.0038,0.000224006,0.0666021,21.0291,185.078,0.240409,0.0,0.0
1008,251.75,20.2599,20.5892,152.637,99.5727,96.7507,0.000189771,0.0666177,21.0281,185.078,0.255955,0.0,0.0
1015,253.5,19.4987,20.5277,147.553,99.486,97.1433,0.000272849,0.0665626,21.0277,185.078,0.212143,0.0,0.0
1022,255.25,19.5683,20.8946,150.036,99.3695,96.6341,0.000392842,0.0665988,21.0274,185.078,0.248503,0.0,0.0
1029,257,20.1605,20.966,152.377,99.2446,96.3525,0.000487415,0.0666367,21.0262,185.088,0.263281,0.0,0.0
1036,258.75,20.5133,20.6392,154.524,99.1141,96.8384,0.000429969,0.0667242,21.0255,185.098,0.206786,0.0,0.0
1043,260.5,19.9499,21.3273,152.152,98.9852,96.0973,0.000271937,0.0667035,21.0264,185.088,0.263595,0.0,0.0
1050,262.25,19.641,20.9324,153.07,98.8547,96.1711,0.000211864,0.0665718,21.0268,185.088,0.245018,0.0,0.0
1057,264,19.7277,20.7839,152.424,98.7222,96.1991,0.000364692,0.0665409,21.027,185.078,0.230485,0.0,0.0
1064,265.75,20.5576,20.9596,158.079,98.5893,96.0507,0.000502549,0.0665932,21.0268,185.078,0.232236,0.0,0.0
1071,267.5,19.6314,20.6073,151.767,98.4596,95.9981,0.000475231,0.0665474,21.0265,185.068,0.225389,0.0,0.0
1078,269.25,20.076,21.2669,152.262,98.3331,95.7102,0.000389997,0.0664975,21.0264,185.078,0.240682,0.0,0.0
1085,271,20.1816,20.9447,149.1,98.2234,96.0413,0.000337274,0.0664755,21.0264,185.078,0.200005,0.0,0.0
1092,272.75,19.7941,20.6576,149.24,98.1174,95.4728,0.000329831,0.0664345,21.0266,185.068,0.24325,0.0,0.0
1099,274.5,19.6306,20.825,152.951,98.0174,95.714,0.000354149,0.0663325,21.0269,185.068,0.211705,0.0,0.0
1106,276.25,20,20.296,151.98,97.946,95.5033,0.000380808,0.0663712,21.0273,185.068,0.224832,0.0,0.0
1113,278,20.1289,20.9755,152.083,97.8777,95.5737,0.000380324,0.0665728,21.0277,185.068,0.212067,0.0,0.0
1120,279.75,19.6644,20.7161,155.722,97.8283,95.3634,0.000383971,0.0667443,21.0277,185.068,0.227183,0.0,0.0
1127,281.5,19.9773,21.1576,149.248,97.795,95.1985,0.000416732,0.0668911,21.0275,185.058,0.239559,0.0,0.0
1134,283.25,20.1504,21.003,149.219,97.7636,95.0759,0.000505174,0.0669488,21.0268,185.068,0.248173,0.0,0.0
1141,285,20.0775,20.9696,154.168,97.7721,95.3231,0.00053956,0.0670404,21.0263,185.058,0.225827,0.0,0.0
1148,286.75,20.0898,21.1093,152.508,97.7817,95.2706,0.000504868,0.0671278,21.0256,185.068,0.231614,0.0,0.0
1155,288.5,19.6371,21.0817,149.516,97.8042,95.2748,0.000481515,0.0673414,21.0252,185.068,0.233266,0.0,0.0
1162,290.25,20.0248,20.8578,150.733,97.8339,95.3151,0.00053129,0.0674541,21.025,185.078,0.232207,0.0,0.0
1169,292,20.2483,20.9204,152.719,97.897,95.1557,0.000611881,0.0674591,21.0249,185.068,0.252845,0.0,0.0
1176,293.75,19.6604,20.9016,151.931,97.9632,95.0921,0.000604956,0.0672761,21.0251,185.068,0.264819,0.0,0.0
1183,295.5,20.0498,21.1103,154.771,98.0443,95.4775,0.000530352,0.0670361,21.0263,185.058,0.23618,0.0,0.0
1190,297.25,20.1606,21.1406,149.273,98.0913,95.8001,0.000460125,0.0668851,21.0279,185.058,0.210412,0.0,0.0
1197,299,20.1409,21.3044,148.151,98.1648,95.438,0.00045002,0.0667839,21.0281,185.038,0.25079,0.0,0.0
1204,300.75,19.8827,20.6597,150.144,98.2435,95.4995,0.00048736,0.0668593,21.0278,185.048,0.252192,0.0,0.0
1211,302.5,20.2016,20.8707,151.372,98.3291,95.8828,0.000467783,0.0669823,21.0277,185.058,0.224282,0.0,0.0
1218,304.25,19.8253,20.7693,154.957,98.4238,95.8518,0.000360822,0.0672349,21.0276,185.078,0.235732,0.0,0.0
1225,306,20.0763,20.7758,151.492,98.4961,96.0015,0.000274624,0.0674181,21.0275,185.058,0.228378,0.0,0.0
1232,307.75,20.381,20.9301,149.403,98.5772,96.439,0.000325544,0.0673181,21.0263,185.068,0.195224,0.0,0.0
1239,309.5,20.0093,20.8211,150.883,98.6519,95.5728,0.000451622,0.0672524,21.0267,185.048,0.282287,0.0,0.0
1246,311.25,19.9275,20.9987,150.288,98.731,96.5684,0.000527522,0.0673272,21.0271,185.058,0.197172,0.0,0.0
1253,313,20.0396,21.1607,147.748,98.7985,96.375,0.000486544,0.067467,21.0271,185.068,0.221095,0.0,0.0
1260,314.75,20.1947,20.9699,154.397,98.8571,96.5026,0.00043616,0.0676176,21.0261,185.068,0.214596,0.0,0.0
1267,316.5,20.0373,21.1645,152.656,98.9177,96.3826,0.000412718,0.0675628,21.0256,185.068,0.23113,0.0,0.0
1274,318.25,19.8832,20.9726,151.922,98.9611,96.4174,0.00044929,0.0673197,21.0251,185.068,0.231822,0.0,0.0
1281,320,20.4302,20.7913,152.23,98.994,95.9086,0.000569183,0.0669914,21.0235,185.068,0.281884,0.0,0.0
1288,321.75,20.3897,20.8569,152.639,99.0258,96.6447,0.000699829,0.0669044,21.0228,185.078,0.216679,0.0,0.0
1295,323.5,20.4996,21.0154,152.659,99.0595,96.4785,0.000768856,0.0668501,21.0234,185.078,0.235033,0.0,0.0
1302,325.25,19.8385,21.1918,154.208,99.0744,96.4454,0.000742623,0.0667987,21.0234,185.058,0.23942,0.0,0.0
1309,327,19.8144,21.0586,150.244,99.0888,96.9249,0.000593379,0.0667611,21.023,185.078,0.196566,0.0,0.0
1316,328.75,20.5304,20.9961,147.942,99.0864,96.609,0.00042065,0.0667231,21.0238,185.058,0.225409,0.0,0.0
1323,330.5,19.7255,21.5064,151.758,99.088,97.0945,0.000280076,0.0666519,21.0242,185.058,0.180931,0.0,0.0
1330,332.25,20.2949,20.7592,147.73,99.1021,96.7176,0.000251335,0.0666743,21.0244,185.068,0.21682,0.0,0.0
1337,334,19.7552,20.59,153.934,99.096,96.347,0.0002184,0.066718,21.0244,185.058,0.250453,0.0,0.0
1344,335.75,20.2513,21.1252,153.16,99.0868,96.7769,0.000132546,0.0667854,21.0245,185.058,0.209987,0.0,0.0
1351,337.5,20.3205,20.985,154.117,99.0631,96.7926,0.000102259,0.066868,21.0245,185.048,0.206415,0.0,0.0
1358,339.25,20.0607,21.2819,155.205,99.0491,96.6803,0.000228509,0.0668458,21.0245,185.058,0.215491,0.0,0.0
1365,341,20.3108,21.3484,154.207,99.0394,96.3483,0.000372581,0.0667603,21.0245,185.048,0.245247,0.0,0.0
1372,342.75,20.109,21.1451,149.467,99.0113,96.8689,0.000476884,0.0667173,21.0247,185.058,0.194742,0.0,0.0
1379,344.5,20.0085,20.9781,153.336,98.96875,96.6362,0.000573321,0.0666584,21.0248,185.058,0.212332,0.0,0.0
1386,346.25,20.3163,20.8943,151.334,98.9619,96.874,0.00060346,0.0666755,21.0259,185.058,0.189833,0.0,0.0
1393,348,20.0516,21.0484,150.922,98.9398,96.4017,0.000584539,0.0666514,21.0266,185.048,0.231356,0.0,0.0
1400,349.75,20.2872,20.8151,153.169,98.9145,96.2716,0.000555069,0.0665512,21.0272,185.048,0.241108,0.0,0.0
1407,351.5,20.1838,21.1471,152.256,98.8872,96.3233,0.000495675,0.0664806,21.0276,185.058,0.233868,0.0,0.0
1414,353.25,19.9704,21.0931,150.456,98.8692,96.7608,0.00044152,0.066322,21.0274,185.058,0.191893,0.0,0.0
1421,355,20.042,21.204,149.519,98.8398,96.2974,0.000419272,0.0661975,21.0265,185.058,0.231992,0.0,0.0
1428,356.75,19.9447,20.7823,151.498,98.8158,96.3699,0.00042146,0.0662635,21.0261,185.068,0.223121,0.0,0.0
1435,358.5,20.5243,21.4146,145.071,98.7884,96.0638,0.000461054,0.0662994,21.0259,185.058,0.248984,0.0,0.0
1442,360.25,19.8136,20.9001,149.279,98.7595,96.4276,0.000529765,0.0662431,21.027,185.058,0.212729,0.0,0.0
1449,362,19.4598,20.6088,155.628,98.7431,96.2699,0.000582331,0.0660378,21.0276,185.048,0.225819,0.0,0.0
1456,363.75,20.2871,21.0623,156.209,98.7254,96.1545,0.000641575,0.0658096,21.0278,185.058,0.234896,0.0,0.0
1463,365.5,19.9811,21.1447,152.355,98.7174,96.654,0.000715912,0.0658428,21.0297,185.058,0.188051,0.0,0.0
1470,367.25,19.5771,20.8034,145.5,98.6993,96.5251,0.000709436,0.0658632,21.031,185.048,0.1983,0.0,0.0
1477,369,19.8246,20.99,151.052,98.676,96.1189,0.000631599,0.0657338,21.0316,185.048,0.233739,0.0,0.0
1484,370.75,20.1988,20.7086,149.559,98.6628,96.5823,0.000494124,0.0657557,21.0317,185.048,0.189727,0.0,0.0
1491,372.5,20.0677,20.6094,152.092,98.6495,95.8781,0.000389541,0.0658332,21.0315,185.038,0.253681,0.0,0.0
1498,374.25,19.3984,20.5673,148.677,98.6415,96.1991,0.000353991,0.0656288,21.0321,185.038,0.223204,0.0,0.0
1505,376,20.1235,20.7593,153.904,98.6363,96.2639,0.000377319,0.0655563,21.0329,185.038,0.216732,0.0,0.0
1512,377.75,20.3739,21.2962,154.561,98.7415,96.0486,0.000472772,0.0654564,21.0333,185.038,0.246163,0.0,0.0
1519,379.5,20.4692,20.8576,150.551,98.8519,96.1872,0.000594779,0.0654682,21.0323,185.038,0.243273,0.0,0.0
1526,381.25,20.3902,20.9576,150.813,98.9459,96.4471,0.000745712,0.0654629,21.0318,185.048,0.227709,0.0,0.0
1533,383,20.0991,21.0625,151.942,99.0181,95.9566,0.000834346,0.0655386,21.032,185.048,0.279605,0.0,0.0
1540,384.75,19.9266,20.7931,150.824,99.1001,96.6226,0.000723214,0.0655708,21.0321,185.048,0.225385,0.0,0.0
1547,386.5,19.665,20.8411,149.304,99.1703,96.8897,0.000525667,0.0656378,21.0322,185.028,0.20712,0.0,0.0
1554,388.25,19.6473,20.6702,154.014,99.2414,96.4878,0.000360076,0.0656698,21.0314,185.028,0.250505,0.0,0.0
1561,390,19.9668,20.3689,151.861,99.2884,96.5166,0.000329819,0.0656467,21.0302,185.038,0.252059,0.0,0.0
1568,391.75,19.9113,20.7292,152.601,99.3354,96.52,0.000389853,0.0658278,21.0297,185.038,0.255959,0.0,0.0
1575,393.5,19.9815,20.6113,150.804,99.3816,96.6752,0.000478931,0.0658519,21.0294,185.038,0.245795,0.0,0.0
1582,395.25,20.4523,21.3866,150.926,99.4213,97.1763,0.000568214,0.0656598,21.0293,185.028,0.203327,0.0,0.0
1589,397,19.6142,20.9829,149.445,99.4322,96.8346,0.000628807,0.065579,21.0293,185.048,0.235657,0.0,0.0
1596,398.75,19.6219,20.3535,148.48,99.4566,97.1802,0.000701419,0.0655045,21.0292,185.038,0.20614,0.0,0.0
1603,400.5,20.0772,21.0497,156.024,99.4775,96.7362,0.000822765,0.0658027,21.0292,185.038,0.248767,0.0,0.0
1610,402.25,20.0412,21.3732,156.361,99.4888,97.1157,0.000922661,0.0660783,21.0292,185.018,0.21492,0.0,0.0
1617,404,19.9788,21.2638,150.908,99.4952,97.0033,0.00090344,0.0663453,21.0292,185.048,0.225801,0.0,0.0
1624,405.75,19.6693,21.0745,147.941,99.4992,96.7816,0.000816705,0.0667342,21.0292,185.068,0.246534,0.0,0.0
1631,407.5,20.1359,20.9734,149.63,99.4952,96.9181,0.000763486,0.067193,21.0292,185.078,0.233626,0.0,0.0
1638,409.25,19.9219,21.2464,153.646,99.4856,96.6383,0.000696336,0.0674903,21.0292,185.038,0.258503,0.0,0.0
1645,411,20.4091,21.122,155.856,99.4583,97.6075,0.000577616,0.0676324,21.0276,185.058,0.167219,0.0,0.0
1652,412.75,19.7927,20.9748,156.909,99.4687,96.7303,0.000412556,0.0675968,21.0262,185.048,0.248523,0.0,0.0
1659,414.5,19.6787,21.0293,155.186,99.4635,96.5802,0.000330843,0.0674211,21.0255,185.058,0.261879,0.0,0.0
1666,416.25,20.0554,20.9581,154.04,99.4691,96.9898,0.000359899,0.067094,21.0252,185.038,0.22471,0.0,0.0
1673,418,19.9951,21.2877,153.536,99.4795,97.0648,0.000489993,0.06688,21.025,185.048,0.21876,0.0,0.0
1680,419.75,20.3508,21.4519,152.61,99.4803,96.9584,0.000619087,0.066772,21.0254,185.038,0.228597,0.0,0.0
1687,421.5,19.3861,20.8765,152.464,99.4844,97.0568,0.000614387,0.0668396,21.0255,185.048,0.21993,0.0,0.0
1694,423.25,19.6114,20.6359,150.443,99.4988,96.4848,0.000484703,0.0669402,21.025,185.048,0.27384,0.0,0.0
1701,425,20.2348,21.1708,151.982,99.4968,97.0381,0.000370188,0.0671377,21.0245,185.028,0.222755,0.0,0.0
1708,426.75,19.7619,20.8757,150.68,99.504,96.9766,0.000320693,0.0672555,21.0242,185.038,0.229043,0.0,0.0
1715,428.5,19.7707,20.4962,151.604,99.504,97.4324,0.000333669,0.0672379,21.0241,185.038,0.187301,0.0,0.0
1722,430.25,19.969,21.0022,151.316,99.5036,97.1666,0.000396421,0.0672433,21.024,185.028,0.211588,0.0,0.0
1729,432,20.1174,21.1748,148.395,99.5181,96.8405,0.000426587,0.0672373,21.024,185.028,0.242804,0.0,0.0
1736,433.75,20.2486,20.7645,153.896,99.5201,97.0411,0.000460335,0.0670486,21.026,185.018,0.224566,0.0,0.0
1743,435.5,20.1115,20.8004,148.311,99.5225,97.0097,0.000515738,0.0670344,21.0285,185.028,0.227661,0.0,0.0
1750,437.25,20.2626,21.1015,156.915,99.5024,96.8711,0.000530121,0.0669199,21.0299,185.028,0.238596,0.0,0.0
1757,439,20.1781,20.7851,154.729,99.5141,97.0046,0.000470895,0.0666936,21.0305,185.018,0.227373,0.0,0.0
1764,440.75,19.5931,21.1455,152.979,99.5121,97.0402,0.000421093,0.0666325,21.0308,185.018,0.223925,0.0,0.0
1771,442.5,20.5403,21.3972,149.977,99.5233,97.1679,0.000396116,0.0664924,21.0312,185.028,0.213232,0.0,0.0
1778,444.25,20.0743,20.8027,150.273,99.5137,96.7888,0.000392133,0.0663861,21.0324,185.018,0.247165,0.0,0.0
1785,446,19.7574,21.0184,146.995,99.5149,97.3527,0.000395399,0.066305,21.0329,185.028,0.195557,0.0,0.0
1792,447.75,19.7801,21.0198,151.417,99.5189,97.1216,0.000390582,0.066278,21.0332,185.018,0.217071,0.0,0.0
1799,449.5,19.9082,21.0735,152.526,99.5157,96.7269,0.00034693,0.06636,21.0324,185.028,0.25304,0.0,0.0
1806,451.25,19.8659,20.922,158.705,99.5089,97.1573,0.000368318,0.0663752,21.0309,185.028,0.212909,0.0,0.0
1813,453,20.1639,20.607,149.825,99.5109,97.1361,0.000530168,0.0664828,21.0298,185.028,0.215031,0.0,0.0
1820,454.75,20.1063,20.3188,152.731,99.5084,97.0114,0.000628305,0.0666882,21.0292,185.028,0.226247,0.0,0.0
1827,456.5,19.8544,20.4069,151.063,99.5145,97.0597,0.00059278,0.0668118,21.029,185.028,0.222352,0.0,0.0
1834,458.25,20.3843,20.7075,147.245,99.5084,96.7608,0.000560186,0.0667943,21.0288,185.018,0.249271,0.0,0.0
1841,460,19.7355,20.8903,154.919,99.4936,97.0301,0.000506064,0.0668096,21.0287,185.018,0.223206,0.0,0.0
1848,461.75,19.7125,21.1191,155.345,99.4932,97.3073,0.000480037,0.0668398,21.0286,185.018,0.197766,0.0,0.0
1855,463.5,20.3919,20.665,152.975,99.4964,97.1072,0.000520613,0.066941,21.0286,184.998,0.216381,0.0,0.0
1862,465.25,20.2372,20.8865,151.001,99.4932,96.8117,0.000607522,0.0671198,21.0286,185.008,0.243226,0.0,0.0
1869,467,20.0305,21.044,154.713,99.4856,96.8575,0.000642234,0.0672607,21.0285,185.008,0.238334,0.0,0.0
1876,468.75,19.872,20.7916,148.41,99.4852,97.0419,0.000627141,0.067465,21.0279,185.018,0.221363,0.0,0.0
1883,470.5,20.2245,20.6661,150.889,99.5012,97.1522,0.000603335,0.0675725,21.027,185.028,0.212693,0.0,0.0
1890,472.25,20.1871,21.2869,149.681,99.4779,96.6557,0.000569691,0.0677495,21.0266,185.038,0.25622,0.0,0.0
1897,474,20.5068,20.3748,152.201,99.4815,96.894,0.000561984,0.0678827,21.0264,185.008,0.234624,0.0,0.0
1904,475.75,19.7188,20.7174,154.165,99.4735,97.2344,0.000563671,0.0681272,21.0263,185.028,0.202679,0.0,0.0
1911,477.5,20.459,21.3206,147.994,99.4884,96.8405,0.000577464,0.0681849,21.0262,185.018,0.240144,0.0,0.0
1918,479.25,19.975,21.1403,153.104,99.4791,96.9906,0.000599063,0.0683102,21.0262,185.028,0.225531,0.0,0.0
1925,481,20.0195,20.3564,148.45,99.4767,96.9029,0.000549965,0.0682592,21.0275,185.008,0.233374,0.0,0.0
1932,482.75,20.0019,20.5847,153.121,99.4747,97.0932,0.000471864,0.0680085,21.0287,185.018,0.215723,0.0,0.0
1939,484.5,20.2234,20.8303,149.438,99.4743,96.6866,0.000401188,0.0679,21.0293,185.008,0.253046,0.0,0.0
1946,486.25,19.9107,21.0653,150.934,99.4747,96.9567,0.000376567,0.0676408,21.0296,185.008,0.22825,0.0,0.0
1953,488,20.4918,21.2381,148.3,99.4767,96.6502,0.000380619,0.0674706,21.0301,185.018,0.25662,0.0,0.0
1960,489.75,19.6944,20.9933,154.378,99.4671,96.3004,0.000411246,0.0674013,21.0304,185.018,0.288034,0.0,0.0
1967,491.5,20.2999,21.2404,152.627,99.4639,96.8422,0.000522638,0.067217,21.0306,185.008,0.237797,0.0,0.0
1974,493.25,19.6257,20.4514,152.632,99.4687,97.1318,0.000610572,0.0672012,21.0307,185.008,0.211648,0.0,0.0
1981,495,20.3586,20.3875,153.036,99.4631,96.6667,0.000559064,0.0672896,21.0307,185.018,0.253875,0.0,0.0
1988,496.75,19.7108,20.5592,150.896,99.4579,96.8168,0.000454851,0.067072,21.0307,185.008,0.239596,0.0,0.0
1995,498.5,20.2059,20.517,150.792,99.4474,97.4269,0.000384936,0.0669154,21.0306,185.018,0.182738,0.0,0.0
2002,500.25,19.9926,21.1485,154.297,99.4462,96.9881,0.000410427,0.067009,21.0302,185.008,0.222817,0.0,0.0
2009,502,20.2449,21.0823,155.264,99.4382,97.0869,0.000439699,0.0670035,21.0301,185.008,0.213036,0.0,0.0
2016,503.75,19.6928,21.0434,152.212,99.4386,96.7078,0.000424007,0.0670259,21.0293,185.018,0.247895,0.0,0.0
2023,505.5,20.4131,21.3959,152.859,99.4273,96.4641,0.000383498,0.0669851,21.0277,185.008,0.269359,0.0,0.0
2030,507.25,19.8176,20.7509,147.936,99.4069,96.4861,0.000397548,0.066864,21.0281,184.998,0.265491,0.0,0.0
2037,509,20.3658,20.9742,148.259,99.4097,96.9758,0.000529467,0.0668937,21.0284,185.008,0.220674,0.0,0.0
2044,510.75,20.3696,21.1523,147.987,99.4004,97.1246,0.000616349,0.0668414,21.0284,185.008,0.206195,0.0,0.0
2051,512.5,20.3472,21.3104,150.918,99.39,96.6464,0.00060337,0.0666827,21.0285,184.998,0.249205,0.0,0.0
2058,514.25,20.2869,20.7633,152.592,99.3844,96.9703,0.000537421,0.0666182,21.0274,184.988,0.218914,0.0,0.0
2065,516,20.464,20.9342,153.672,99.3703,96.891,0.000515319,0.0666363,21.0268,185.008,0.224936,0.0,0.0
2072,517.75,20.7431,21.2481,151.775,99.3506,96.6315,0.000542539,0.0665628,21.0265,184.998,0.247047,0.0,0.0
2079,519.5,20.4046,21.3207,155.838,99.3334,96.6922,0.000621756,0.0666937,21.0255,185.008,0.239916,0.0,0.0
2086,521.25,20.2655,20.8163,152.075,99.3137,96.8164,0.000656608,0.066668,21.0251,185.008,0.226722,0.0,0.0
2093,523,19.9589,20.8845,149.285,99.2976,96.3814,0.000618234,0.0667746,21.0257,185.008,0.265372,0.0,0.0
2100,524.75,20.271,20.7126,157.291,99.2751,96.6124,0.000546452,0.0668684,21.0259,184.998,0.242037,0.0,0.0
2107,526.5,20.4954,20.7958,153.298,99.2792,96.849,0.000459735,0.067092,21.0261,185.008,0.220624,0.0,0.0
2114,528.25,20.2313,21.1279,154.242,99.2406,96.9482,0.000302648,0.067166,21.0261,185.008,0.208051,0.0,0.0
2121,530,20.3728,21.0524,152.54,99.2029,96.7748,0.000181061,0.0670905,21.0262,184.998,0.220603,0.0,0.0
2128,531.75,19.8404,20.7978,152.694,99.1884,96.4149,0.000204049,0.0671531,21.0262,184.998,0.25248,0.0,0.0
2135,533.5,20.4248,21.0467,155.894,99.1599,96.5688,0.000284225,0.0670975,21.0262,184.988,0.235722,0.0,0.0
2142,535.25,20.458,21.3422,149.785,99.1511,96.3784,0.000418258,0.0669735,21.0262,184.988,0.252495,0.0,0.0
2149,537,20.1993,20.9488,148.95,99.1165,96.1702,0.00052597,0.066943,21.0262,184.978,0.268643,0.0,0.0
2156,538.75,20.5417,21.7215,152.121,99.0993,96.8846,0.00057037,0.0670735,21.0262,184.978,0.201205,0.0,0.0
2163,540.5,20.094,21.2046,152.867,99.0784,97.0653,0.000609523,0.0670327,21.0262,184.998,0.182748,0.0,0.0
2170,542.25,20.5313,21.3003,149.458,99.0687,96.3042,0.000651021,0.0670443,21.0262,184.988,0.251957,0.0,0.0
2177,544,19.5496,20.7001,147.931,99.021,96.1372,0.000672475,0.067021,21.0262,184.998,0.263117,0.0,0.0
2184,545.75,19.9559,20.5189,149.678,98.9965,96.4501,0.000654511,0.0669863,21.0254,184.988,0.231987,0.0,0.0
2191,547.5,19.991,21.4034,152.773,98.9704,96.3131,0.00056613,0.0671866,21.0247,184.988,0.242288,0.0,0.0
2198,549.25,20.2454,21.1178,148.535,98.9475,96.3487,0.000512226,0.0672927,21.0242,184.998,0.236938,0.0,0.0
2205,551,19.8224,21.2183,151.205,98.8993,96.1143,0.000550798,0.0674362,21.0246,184.998,0.254292,0.0,0.0
2212,552.75,19.9826,20.6337,150.893,98.88,96.4289,0.00057628,0.067588,21.0252,184.998,0.223465,0.0,0.0
2219,554.5,20.72,21.0143,155.645,98.8382,96.2648,0.000596525,0.0677286,21.0255,184.988,0.234866,0.0,0.0
2226,556.25,20.7644,20.7735,153.711,98.8194,95.8612,0.000635458,0.0678817,21.0257,184.998,0.270571,0.0,0.0
2233,558,19.9183,20.9349,149.834,98.7997,96.7791,0.000664643,0.0679884,21.0258,184.998,0.183958,0.0,0.0
2240,559.75,20.4553,21.2001,154.213,98.7828,96.4297,0.000638969,0.0681516,21.0258,184.988,0.214633,0.0,0.0
2247,561.5,20.1877,21.0721,149.899,98.7266,95.99,0.000533818,0.0684204,21.026,184.998,0.250248,0.0,0.0
2254,563.25,19.8743,21.2943,153.659,98.7005,95.9536,0.00044623,0.0686592,21.0264,184.998,0.251276,0.0,0.0
2261,565,20.114,20.8514,155.854,98.6599,95.8832,0.000388321,0.0687564,21.0266,184.998,0.25415,0.0,0.0
2268,566.75,20.2249,21.211,153.364,98.6499,95.4444,0.000375321,0.0688458,21.0254,184.998,0.29408,0.0,0.0
2275,568.5,20.5402,20.9286,150.121,98.6531,95.7475,0.000449005,0.068871,21.0248,184.988,0.266139,0.0,0.0
2282,570.25,20.2097,21.0805,150.272,98.6595,96.0456,0.000520701,0.0688909,21.0246,184.998,0.239049,0.0,0.0
2289,572,20.4616,21.3292,153.162,98.6648,95.876,0.000467186,0.0686757,21.0241,184.978,0.255254,0.0,0.0
2296,573.75,20.3761,21.0511,150.096,98.6611,96.2415,0.000402225,0.0684959,21.0241,184.988,0.221057,0.0,0.0
2303,575.5,20.0844,21.113,148.292,98.6672,96.3161,0.000303205,0.068492,21.0252,184.998,0.214702,0.0,0.0
2310,577.25,20.2831,21.2843,154.172,98.6611,95.8043,0.000322116,0.0685241,21.0257,184.988,0.261584,0.0,0.0
2317,579,20.3002,21.4788,150.006,98.674,96.3793,0.000490238,0.0686284,21.0259,184.998,0.209479,0.0,0.0
2324,580.75,20.5541,21.1306,156.696,98.6764,96.0524,0.000650508,0.0688718,21.026,184.978,0.239942,0.0,0.0
2331,582.5,19.8266,21.1437,153.458,98.6913,96.1948,0.000662312,0.069239,21.0254,184.988,0.22809,0.0,0.0
2338,584.25,20.2437,21.3996,151.07,98.6852,97.4884,0.000564569,0.0697187,21.0246,184.988,0.10863,0.0,0.0
2345,586,20.8698,21.0321,152.508,98.7005,96.4556,0.000457183,0.0701971,21.0242,184.998,0.204823,0.0,0.0
2352,587.75,20.1056,21.4254,151.593,98.6957,96.5641,0.000404441,0.0705362,21.024,184.978,0.194378,0.0,0.0
2359,589.5,19.8698,21.352,152.44,98.7013,96.2101,0.000402119,0.0706144,21.0239,184.978,0.227583,0.0,0.0
2366,591.25,20.2346,21.436,153.78,98.7041,96.4874,0.000429084,0.0705055,21.0238,184.968,0.202216,0.0,0.0
2373,593,20.0078,21,153.584,98.7125,96.1151,0.000496434,0.0702672,21.0238,184.978,0.237389,0.0,0.0
2380,594.75,20.1464,21.2811,144.637,98.723,96.2194,0.000457878,0.0699982,21.0248,184.968,0.228675,0.0,0.0
2387,596.5,19.9744,21.0881,153.849,98.7254,96.0579,0.000354412,0.0697718,21.0252,184.968,0.243851,0.0,0.0
2394,598.25,19.6705,20.7101,153.283,98.7358,96.93,0.000248632,0.0695942,21.0243,184.978,0.16433,0.0,0.0
2401,600,20.6992,21.2118,152.532,98.7443,96.3759,0.0002455,0.0693308,21.0239,184.968,0.216131,0.0,0.0
2408,601.75,20.0858,21.2858,155.206,98.7435,95.9964,0.00028618,0.0689707,21.0237,184.968,0.25118,0.0,0.0
2415,603.5,19.4434,20.4357,154.535,98.7579,96.1406,0.000376978,0.0686849,21.0237,184.958,0.239124,0.0,0.0
2422,605.25,20.0737,20.7776,151.705,98.7708,96.1058,0.00047151,0.0684121,21.0241,184.868,0.243503,0.0,0.0
2429,607,20.0977,20.4299,150.558,98.7748,96.7117,0.000452908,0.0681145,21.0242,185.038,0.187918,0.0,0.0
2436,608.75,19.7249,20.9596,153.9,98.7836,96.5908,0.000401803,0.0678541,21.0243,184.998,0.199844,0.0,0.0
2443,610.5,19.2969,20.9852,149.558,98.7929,96.8694,0.000434731,0.0678294,21.0243,185.008,0.175039,0.0,0.0
2450,612.25,19.731,20.6549,151.902,98.8089,96.7095,0.000465993,0.0679101,21.0243,184.988,0.191188,0.0,0.0
2457,614,19.5869,20.4092,154.655,98.8194,96.7672,0.000435237,0.0679117,21.0243,184.968,0.186824,0.0,0.0
2464,615.75,19.8254,20.4475,153.214,98.8226,96.7223,0.000410497,0.0680849,21.0243,184.978,0.191249,0.0,0.0
2471,617.5,19.7302,21.1651,151.741,98.8471,96.2741,0.000460337,0.0683031,21.0243,184.968,0.234799,0.0,0.0
2478,619.25,19.7921,20.531,151.437,98.8394,96.2169,0.000520228,0.0686558,21.0247,184.978,0.239405,0.0,0.0
2485,621,20.0404,20.3742,150.525,98.8475,96.283,0.000533684,0.0689171,21.0246,184.978,0.234011,0.0,0.0
2492,622.75,20.03,20.6596,153.706,98.8579,96.5366,0.000525892,0.0689833,21.0242,184.978,0.21154,0.0,0.0
2499,624.5,19.9833,20.54,147.834,98.872,96.4072,0.000499403,0.0688038,21.0246,184.968,0.224739,0.0,0.0
2506,626.25,20.0471,20.3399,152.293,98.8768,96.378,0.000460057,0.0686034,21.0243,184.978,0.227874,0.0,0.0
2513,628,19.7284,20.6645,152.047,98.8864,96.5781,0.000421605,0.0683246,21.024,184.978,0.210276,0.0,0.0
2520,629.75,19.8359,20.6065,152.401,98.9025,96.7133,0.000413299,0.0680699,21.0239,184.978,0.199264,0.0,0.0
2527,631.5,19.6857,20.7613,157.183,98.8892,96.7697,0.00040281,0.067918,21.0248,184.978,0.192881,0.0,0.0
2534,633.25,19.7233,20.764,153.479,98.9013,96.7312,0.000306573,0.067857,21.0255,184.958,0.197516,0.0,0.0
2541,635,19.5953,20.8362,149.234,98.9246,96.5357,0.000117328,0.0678691,21.0258,184.968,0.217618,0.0,0.0
2548,636.75,19.759,20.6935,149.433,98.9218,96.5497,3.16331e-05,0.0678521,21.026,184.968,0.216076,0.0,0.0
2555,638.5,19.3648,20.4813,152.117,98.921,96.4823,0.000104692,0.0680298,21.0261,184.968,0.222221,0.0,0.0
2562,640.25,19.7058,20.7373,151.263,98.9346,96.049,0.000179896,0.0680444,21.0261,184.978,0.263522,0.0,0.0
2569,642,19.8391,21.0556,151.955,98.9483,96.2805,0.000203804,0.0680711,21.0262,184.968,0.24332,0.0,0.0
2576,643.75,20.1564,20.8314,152.704,98.9511,96.545,0.000228397,0.0680003,21.0265,184.968,0.219144,0.0,0.0
2583,645.5,19.7409,20.5936,153.154,98.9567,96.6888,0.00034142,0.0679688,21.0264,184.978,0.206406,0.0,0.0
2590,647.25,19.8514,20.8222,153.174,98.9635,96.0943,0.000521304,0.0679586,21.0261,184.968,0.261919,0.0,0.0
2597,649,19.7595,20.7668,152.001,98.9724,96.4933,0.000645883,0.0679779,21.026,184.958,0.225829,0.0,0.0
2604,650.75,19.6618,21.0468,152.536,98.9872,96.6213,0.000672467,0.0678605,21.026,184.958,0.215361,0.0,0.0
2611,652.5,19.701,20.2837,148.453,98.986,96.7244,0.000571592,0.0676548,21.026,184.968,0.205764,0.0,0.0
2618,654.25,20.0763,20.2675,147.963,99.0141,96.4992,0.000440288,0.0676442,21.0266,184.948,0.229037,0.0,0.0
2625,656,19.863,20.7807,152.948,99.0161,97.0831,0.000421532,0.0674787,21.0275,184.958,0.17552,0.0,0.0
2632,657.75,19.5037,21.2391,152.853,99.0181,96.2415,0.000531822,0.0673808,21.0279,184.958,0.253211,0.0,0.0
2639,659.5,20.0017,20.695,152.343,99.043,96.6392,0.000661722,0.0674041,21.0281,184.948,0.218738,0.0,0.0
2646,661.25,20.1052,20.8044,152.231,99.0454,96.7532,0.000666276,0.0674269,21.0282,184.968,0.208455,0.0,0.0
2653,663,19.7876,20.3869,153.45,99.0462,96.7808,0.000593489,0.0674661,21.0282,184.978,0.205991,0.0,0.0
2660,664.75,19.3639,20.7353,152.594,99.0631,96.3369,0.000534464,0.0675076,21.0283,184.978,0.248435,0.0,0.0
2667,666.5,20.0255,20.8324,152.911,99.076,96.8414,0.000432697,0.0674969,21.0281,184.968,0.203087,0.0,0.0
2674,668.25,19.7623,20.5177,154.288,99.0659,96.958,0.000300955,0.0675941,21.0271,184.968,0.191473,0.0,0.0
2681,670,19.7143,20.855,150.537,99.08,96.8189,0.000178222,0.0675482,21.0263,184.968,0.205514,0.0,0.0
2688,671.75,19.9978,20.8625,152.657,99.0816,96.4708,0.000175806,0.0675164,21.0259,184.968,0.237722,0.0,0.0
2695,673.5,19.84,20.597,155.036,99.0952,96.5238,0.00032784,0.0675288,21.0257,184.958,0.234058,0.0,0.0
2702,675.25,19.9355,20.7789,150.141,99.0952,97.1488,0.000464581,0.0676063,21.0256,184.958,0.176605,0.0,0.0
2709,677,19.7745,20.7288,151.223,99.092,96.6247,0.000520299,0.0675504,21.027,184.948,0.224469,0.0,0.0
2716,678.75,19.7403,20.9418,152.119,99.1262,96.9097,0.000525782,0.0674995,21.0279,184.958,0.201322,0.0,0.0
2723,680.5,19.9819,20.6585,151.104,99.1133,96.7227,0.000512181,0.0673938,21.0283,184.948,0.217362,0.0,0.0
2730,682.25,19.7105,20.8362,152.125,99.1177,96.6353,0.000453259,0.067248,21.0285,184.958,0.225801,0.0,0.0
2737,684,19.8464,20.6201,146.717,99.1105,96.6841,0.000380145,0.0671889,21.0286,184.958,0.220661,0.0,0.0
2744,685.75,19.9266,20.7852,154.697,99.1141,96.9258,0.000388876,0.0671914,21.0286,184.958,0.19876,0.0,0.0
2751,687.5,19.9279,20.8547,148.266,99.1157,96.4908,0.000540329,0.0673348,21.0287,184.958,0.23895,0.0,0.0
2758,689.25,19.7682,20.5162,153.925,99.1274,96.4399,0.000639334,0.0674427,21.0286,184.958,0.244691,0.0,0.0
2765,691,19.7704,20.6928,153.193,99.1117,96.7095,0.000620195,0.0674795,21.0286,184.958,0.218427,0.0,0.0
2772,692.75,19.6866,20.6363,152.294,99.1169,96.4831,0.000546686,0.0672576,21.0285,184.948,0.239762,0.0,0.0
2779,694.5,20.0705,20.3284,150.613,99.1153,96.7914,0.000528166,0.0672678,21.0274,184.948,0.211222,0.0,0.0
2786,696.25,19.8748,20.6516,149.686,99.1169,96.8198,0.00057324,0.067436,21.0268,184.958,0.208753,0.0,0.0
2793,698,19.892,20.4124,150.373,99.0989,96.6235,0.000614589,0.0675765,21.0265,184.938,0.225199,0.0,0.0
2800,699.75,19.8981,20.922,152.88,99.0908,96.7138,0.00064782,0.0675783,21.0263,184.948,0.21616,0.0,0.0
2807,701.5,19.8111,20.4892,147.861,99.0848,97.1598,0.000735575,0.0674379,21.0262,184.948,0.174658,0.0,0.0
2814,703.25,19.8566,20.7411,152.244,99.0788,96.6633,0.000812232,0.0673216,21.0262,184.948,0.219724,0.0,0.0
2821,705,19.8023,20.5942,154.162,99.0663,96.5891,0.000803792,0.0673937,21.0261,184.958,0.225441,0.0,0.0
2828,706.75,20.0078,20.5569,148.898,99.0531,96.7129,0.000781311,0.0675019,21.0261,184.938,0.212847,0.0,0.0
2835,708.5,19.0179,20.4184,154.316,99.035,96.6629,0.000779017,0.0675733,21.026,184.948,0.21583,0.0,0.0
2842,710.25,19.3735,21.1136,156.071,99.0306,96.8333,,0.0676639,,184.948,0.199748,0.0,0.0
2849,712,19.2113,20.5905,147.931,99.0033,96.3831,,0.0677867,,184.948,0.238785,0.0,0.0
2856,713.75,19.5406,20.5814,150.782,98.9872,96.6642,,,,184.938,0.211416,0.0,0.0
2863,715.5,19.2586,20.5983,152.394,98.9627,97.2963,,,,184.948,0.151183,0.0,0.0
2870,717.25,19.6519,20.7913,155.457,98.9414,96.3712,,,,184.948,0.23432,0.0,0.0
2877,719,19.8171,20.4194,152.398,98.9081,96.6069,,,,184.948,0.209571,0.0,0.0
2884,720.75,19.4182,20.711,149.632,98.9021,96.6464,,,,184.948,0.205396,0.0,0.0
2885,721,19.6252,20.9132,151.75,98.8856,96.5535,,,,184.948,0.21247,0.0,0.0