File: 01_Data/PMMA_R06/MCC/PMMA_R06_MCC_30K_min_211015_R1.txt
Sample ID:	C:\MCC\MCC Cal\Test\PMMA_R06_MCC_30K_min_211015_R1.txt
Sample Weight (mg):	4.25
Heating Rate (C/s):	0.5
Combustor Temp (C):	900
N2 Flow Rate (cc/min):	80
O2 Flow Rate (cc/min):	20
Calibration File:	C:\MCC\MCC Cal\Coeff1 JN10440_30_210304.txt.txt
T Correction Coefficients:	0	1.024463	0
Time Shift (s):	14
*
Time (s)	Temperature (C)	N2 flow rate (cc/min)	O2 flow rate (cc/min)	Flow Rate (cc/min)	Oxygen (%)	HRR (W/g)	Heating rate (C/s)
0.000	106.265	79.994	19.996	102.730	20.068	-0.093	0.009
2.000	106.235	79.994	19.995	102.747	20.063	0.243	-0.006
4.000	106.266	79.993	19.996	102.742	20.069	-0.214	0.029
6.000	106.228	79.993	19.996	102.747	20.065	0.091	0.024
8.000	106.238	79.993	19.996	102.747	20.067	-0.014	-0.019
10.000	106.251	79.992	19.996	102.741	20.064	0.167	0.007
12.000	106.252	79.993	19.996	102.737	20.066	0.062	0.019
14.000	106.288	79.992	19.996	102.741	20.063	0.293	-0.018
16.000	106.283	79.991	19.996	102.751	20.064	0.146	0.012
18.000	106.349	79.992	19.995	102.773	20.065	0.120	0.031
20.000	106.341	79.992	19.996	102.785	20.058	0.603	-0.009
22.000	106.337	79.992	19.995	102.792	20.055	0.884	-0.025
24.000	106.380	79.994	19.996	102.835	20.053	1.015	0.003
26.000	106.496	79.995	19.995	102.853	20.048	1.368	0.024
28.000	106.615	79.995	19.995	102.869	20.041	1.886	0.033
30.000	106.724	79.995	19.996	102.857	20.036	2.298	0.058
32.000	106.875	79.994	19.995	102.816	20.038	2.152	0.068
34.000	107.098	79.994	19.997	102.954	20.039	2.084	0.087
36.000	107.297	79.994	19.996	102.906	20.037	2.191	0.113
38.001	107.516	79.993	19.995	102.893	20.033	2.542	0.118
40.000	107.771	79.992	19.996	102.907	20.031	2.705	0.129
42.000	108.046	79.992	19.996	102.920	20.032	2.591	0.155
44.000	108.303	79.994	19.996	102.916	20.028	2.876	0.148
46.000	108.648	79.992	19.996	102.914	20.031	2.660	0.179
48.001	108.950	79.994	19.996	102.913	20.030	2.753	0.177
50.001	109.359	79.995	19.994	102.921	20.027	3.015	0.251
52.000	109.686	79.994	19.995	102.915	20.026	3.077	0.151
54.000	110.077	79.996	19.995	102.920	20.026	3.071	0.167
56.000	110.460	79.995	19.995	102.940	20.021	3.399	0.179
58.000	110.907	79.995	19.994	102.941	20.022	3.362	0.202
60.000	111.318	79.993	19.995	102.949	20.021	3.448	0.205
62.000	111.818	79.992	19.995	102.950	20.020	3.522	0.236
64.000	112.276	79.992	19.995	102.950	20.021	3.409	0.241
66.000	112.750	79.992	19.995	102.955	20.017	3.719	0.263
68.000	113.240	79.992	19.995	102.964	20.017	3.709	0.276
70.000	113.774	79.992	19.995	102.974	20.018	3.680	0.272
72.000	114.336	79.992	19.996	102.957	20.020	3.523	0.278
74.000	114.920	79.993	19.996	102.964	20.018	3.664	0.286
76.000	115.452	79.993	19.994	102.963	20.018	3.631	0.269
78.000	116.080	79.994	19.995	102.976	20.019	3.552	0.300
80.000	116.667	79.994	19.995	102.984	20.015	3.893	0.283
82.000	117.282	79.993	19.994	102.985	20.016	3.818	0.293
84.000	117.905	79.994	19.995	102.990	20.012	4.095	0.303
86.000	118.607	79.992	19.995	102.995	20.013	4.054	0.339
88.000	119.336	79.993	19.995	102.994	20.013	4.057	0.353
90.000	119.988	79.993	19.995	102.999	20.012	4.132	0.362
92.000	120.680	79.991	19.995	102.993	20.011	4.157	0.356
94.000	121.408	79.992	19.994	102.994	20.011	4.219	0.370
96.000	122.209	79.991	19.996	103.001	20.015	3.909	0.413
98.000	122.926	79.992	19.996	103.015	20.012	4.108	0.370
100.000	123.702	79.992	19.996	103.001	20.008	4.446	0.381
102.000	124.522	79.993	19.996	102.989	20.012	4.102	0.425
104.000	125.305	79.993	19.996	102.992	20.011	4.172	0.404
106.000	126.131	79.994	19.996	102.989	20.013	4.075	0.402
108.000	126.923	79.993	19.996	102.991	20.009	4.353	0.399
110.000	127.770	79.995	19.995	102.999	20.012	4.145	0.403
112.001	128.599	79.994	19.995	102.997	20.013	4.060	0.430
114.000	129.455	79.994	19.996	103.014	20.011	4.209	0.402
116.000	130.320	79.993	19.995	103.004	20.013	4.048	0.421
118.000	131.184	79.993	19.994	103.000	20.009	4.353	0.430
120.001	132.075	79.992	19.996	103.006	20.009	4.355	0.454
122.000	132.943	79.993	19.995	103.010	20.009	4.308	0.440
124.000	133.852	79.995	19.994	102.997	20.008	4.421	0.464
126.000	134.743	79.993	19.995	103.007	20.010	4.275	0.429
128.000	135.639	79.992	19.996	103.002	20.008	4.407	0.453
130.000	136.595	79.994	19.996	103.003	20.008	4.434	0.471
132.000	137.495	79.994	19.997	103.005	20.009	4.305	0.465
134.000	138.437	79.995	19.996	103.006	20.010	4.244	0.504
136.000	139.352	79.995	19.995	102.999	20.011	4.166	0.475
138.000	140.304	79.994	19.995	102.997	20.012	4.083	0.469
140.000	141.273	79.994	19.996	102.998	20.013	4.002	0.503
142.000	142.198	79.992	19.995	103.002	20.014	3.990	0.468
144.000	143.192	79.993	19.994	102.992	20.014	4.000	0.488
146.000	144.210	79.992	19.995	103.004	20.014	3.946	0.511
148.000	145.170	79.993	19.995	103.006	20.012	4.120	0.503
150.000	146.139	79.992	19.995	103.005	20.011	4.161	0.471
152.000	147.170	79.991	19.995	102.989	20.015	3.860	0.513
154.000	148.125	79.992	19.995	102.986	20.016	3.781	0.483
156.000	149.131	79.993	19.995	102.991	20.018	3.649	0.512
158.000	150.152	79.993	19.995	102.995	20.017	3.756	0.511
160.000	151.129	79.992	19.995	102.989	20.016	3.798	0.499
162.000	152.142	79.992	19.996	102.987	20.013	4.031	0.531
164.000	153.111	79.993	19.995	102.989	20.014	3.959	0.470
166.000	154.145	79.992	19.994	102.985	20.015	3.870	0.540
168.000	155.100	79.992	19.995	102.987	20.013	4.014	0.473
170.000	156.115	79.992	19.995	102.987	20.016	3.798	0.486
172.000	157.119	79.992	19.996	102.988	20.018	3.678	0.508
174.000	158.126	79.992	19.995	102.989	20.015	3.857	0.509
176.000	159.074	79.993	19.995	102.990	20.016	3.828	0.476
178.000	160.111	79.991	19.996	102.986	20.014	3.933	0.499
180.000	161.132	79.992	19.995	102.988	20.013	4.027	0.506
182.000	162.066	79.993	19.995	102.984	20.017	3.756	0.457
184.000	163.131	79.995	19.996	102.976	20.016	3.818	0.491
186.000	164.094	79.995	19.996	102.986	20.017	3.750	0.481
188.000	165.165	79.995	19.996	102.977	20.019	3.615	0.537
190.000	166.134	79.994	19.995	102.984	20.016	3.794	0.501
192.000	167.157	79.995	19.996	102.982	20.014	3.985	0.504
194.000	168.126	79.994	19.996	102.974	20.016	3.790	0.474
196.000	169.130	79.993	19.996	102.971	20.019	3.598	0.495
198.000	170.182	79.995	19.996	102.979	20.016	3.821	0.507
200.000	171.157	79.993	19.997	102.954	20.014	3.986	0.480
202.000	172.170	79.994	19.996	102.960	20.016	3.780	0.521
204.000	173.179	79.994	19.996	102.961	20.014	3.947	0.494
206.000	174.190	79.995	19.996	102.954	20.015	3.893	0.470
208.000	175.189	79.994	19.995	102.958	20.018	3.679	0.505
210.000	176.204	79.995	19.996	102.964	20.014	3.943	0.502
212.000	177.166	79.995	19.996	102.955	20.016	3.798	0.463
214.000	178.133	79.996	19.995	102.948	20.015	3.870	0.478
216.000	179.174	79.996	19.996	102.946	20.012	4.077	0.539
218.000	180.127	79.994	19.997	102.953	20.014	3.988	0.488
220.000	181.165	79.992	19.996	102.957	20.014	3.967	0.537
222.000	182.140	79.993	19.997	102.945	20.015	3.887	0.514
224.000	183.140	79.992	19.997	102.947	20.017	3.767	0.517
226.000	184.138	79.992	19.996	102.947	20.015	3.891	0.483
228.000	185.099	79.992	19.997	102.952	20.016	3.817	0.498
230.000	186.094	79.993	19.996	102.946	20.016	3.840	0.509
232.000	187.177	79.993	19.995	102.947	20.016	3.846	0.503
234.000	188.126	79.993	19.996	102.948	20.014	3.965	0.487
236.000	189.147	79.992	19.996	102.948	20.014	3.976	0.505
238.000	190.141	79.994	19.995	102.950	20.013	4.015	0.482
240.000	191.156	79.994	19.995	102.951	20.016	3.794	0.486
242.000	192.165	79.993	19.996	102.953	20.018	3.675	0.500
244.000	193.115	79.992	19.996	102.948	20.015	3.891	0.466
246.000	194.113	79.992	19.995	102.949	20.014	3.980	0.516
248.000	195.103	79.992	19.995	102.949	20.012	4.132	0.503
250.000	196.107	79.991	19.996	102.946	20.013	4.054	0.518
252.000	197.076	79.991	19.996	102.949	20.016	3.790	0.466
254.000	198.054	79.992	19.996	102.948	20.017	3.749	0.496
256.000	199.061	79.990	19.996	102.951	20.015	3.916	0.503
258.000	200.034	79.992	19.996	102.952	20.015	3.924	0.481
260.000	201.043	79.992	19.995	102.950	20.017	3.701	0.513
262.000	201.989	79.993	19.995	102.947	20.013	4.033	0.494
264.000	203.029	79.994	19.996	102.946	20.012	4.105	0.518
266.000	204.034	79.993	19.996	102.945	20.015	3.876	0.518
268.000	204.999	79.994	19.995	102.940	20.011	4.157	0.458
270.000	205.988	79.994	19.995	102.936	20.012	4.140	0.473
272.001	206.974	79.994	19.996	102.944	20.013	4.002	0.502
274.000	207.967	79.993	19.995	102.943	20.010	4.283	0.493
276.000	208.951	79.993	19.997	102.943	20.012	4.144	0.497
278.000	209.923	79.992	19.996	102.940	20.011	4.217	0.480
280.000	210.927	79.993	19.996	102.935	20.012	4.150	0.468
282.000	211.958	79.994	19.996	102.943	20.013	4.031	0.478
284.000	212.881	79.994	19.996	102.942	20.012	4.098	0.475
286.000	213.894	79.994	19.996	102.942	20.013	4.040	0.506
288.000	214.844	79.996	19.996	102.940	20.012	4.123	0.506
290.000	215.824	79.994	19.995	102.941	20.011	4.206	0.518
292.000	216.798	79.996	19.996	102.930	20.012	4.123	0.493
294.000	217.774	79.994	19.996	102.924	20.011	4.170	0.495
296.000	218.738	79.994	19.995	102.919	20.010	4.288	0.475
298.000	219.756	79.994	19.995	102.914	20.009	4.375	0.506
300.000	220.647	79.993	19.995	102.920	20.009	4.360	0.446
302.000	221.639	79.992	19.997	102.917	20.008	4.432	0.484
304.000	222.640	79.991	19.995	102.914	20.011	4.197	0.482
306.000	223.583	79.990	19.998	102.916	20.004	4.753	0.473
308.000	224.577	79.991	19.997	102.916	20.008	4.378	0.476
310.000	225.527	79.992	19.997	102.923	20.009	4.343	0.486
312.000	226.472	79.991	19.995	102.926	20.007	4.455	0.436
314.000	227.436	79.992	19.996	102.909	20.006	4.560	0.439
316.000	228.414	79.993	19.995	102.912	20.006	4.584	0.484
318.000	229.410	79.992	19.996	102.914	20.011	4.191	0.485
320.000	230.356	79.992	19.996	102.914	20.008	4.446	0.466
322.000	231.307	79.993	19.996	102.912	20.008	4.419	0.477
324.000	232.274	79.992	19.994	102.912	20.009	4.370	0.465
326.000	233.194	79.992	19.996	102.910	20.007	4.527	0.462
328.000	234.141	79.991	19.996	102.908	20.007	4.492	0.469
330.000	235.102	79.993	19.994	102.910	20.006	4.537	0.501
332.000	236.029	79.992	19.996	102.908	20.008	4.380	0.459
334.000	236.978	79.992	19.996	102.910	20.005	4.605	0.472
336.000	237.957	79.992	19.995	102.910	20.004	4.694	0.487
338.000	238.930	79.992	19.995	102.911	20.005	4.615	0.503
340.000	239.790	79.992	19.995	102.911	20.005	4.611	0.454
342.000	240.760	79.993	19.996	102.911	20.005	4.648	0.451
344.000	241.691	79.993	19.996	102.908	20.003	4.813	0.469
346.000	242.684	79.993	19.996	102.910	20.001	4.951	0.507
348.000	243.623	79.995	19.995	102.911	19.998	5.174	0.482
350.000	244.559	79.995	19.996	102.909	19.995	5.386	0.487
352.000	245.517	79.994	19.995	102.917	19.997	5.238	0.479
354.000	246.502	79.995	19.995	102.909	19.996	5.351	0.512
356.000	247.468	79.993	19.995	102.912	19.994	5.461	0.510
358.000	248.387	79.993	19.995	102.912	19.990	5.778	0.483
360.000	249.396	79.993	19.995	102.911	19.987	5.970	0.506
362.000	250.364	79.994	19.995	102.912	19.990	5.786	0.493
364.000	251.317	79.993	19.996	102.911	19.990	5.751	0.515
366.000	252.313	79.995	19.995	102.918	19.988	5.939	0.482
368.000	253.264	79.994	19.995	102.915	19.984	6.204	0.480
370.000	254.236	79.995	19.996	102.910	19.982	6.407	0.465
372.000	255.257	79.995	19.995	102.911	19.976	6.798	0.536
374.000	256.213	79.994	19.995	102.913	19.978	6.716	0.498
376.000	257.195	79.992	19.995	102.914	19.969	7.324	0.493
378.000	258.201	79.993	19.995	102.908	19.970	7.301	0.490
380.000	259.173	79.993	19.995	102.913	19.965	7.647	0.519
382.000	260.138	79.991	19.995	102.917	19.962	7.880	0.471
384.000	261.081	79.992	19.996	102.912	19.957	8.303	0.466
386.000	262.071	79.994	19.996	102.917	19.953	8.606	0.454
388.000	263.074	79.993	19.996	102.915	19.949	8.839	0.467
390.000	264.045	79.992	19.996	102.910	19.946	9.072	0.495
392.000	265.061	79.993	19.996	102.908	19.942	9.383	0.495
394.000	266.051	79.993	19.996	102.907	19.936	9.888	0.489
396.000	267.009	79.992	19.996	102.911	19.931	10.199	0.480
398.000	268.037	79.993	19.997	102.914	19.926	10.578	0.510
400.000	269.015	79.993	19.998	102.912	19.919	11.164	0.494
402.000	270.003	79.992	19.996	102.909	19.911	11.737	0.485
404.000	271.044	79.993	19.996	102.908	19.904	12.243	0.537
406.000	272.042	79.993	19.996	102.923	19.897	12.768	0.513
408.000	273.020	79.991	19.995	102.920	19.894	13.068	0.495
410.000	274.015	79.992	19.995	102.916	19.884	13.763	0.486
412.000	275.011	79.994	19.996	102.933	19.877	14.289	0.487
414.000	275.999	79.992	19.996	102.922	19.864	15.281	0.491
416.000	277.014	79.992	19.995	102.915	19.857	15.851	0.513
418.000	278.013	79.992	19.996	102.937	19.846	16.645	0.509
420.000	279.002	79.993	19.995	102.937	19.840	17.136	0.489
422.000	280.007	79.994	19.994	102.939	19.831	17.804	0.506
424.000	280.998	79.995	19.995	102.932	19.822	18.487	0.462
426.000	282.017	79.995	19.995	102.929	19.816	18.906	0.487
428.000	283.012	79.995	19.995	102.935	19.806	19.711	0.496
430.000	284.061	79.993	19.995	102.942	19.797	20.370	0.521
432.000	285.031	79.995	19.995	102.936	19.784	21.355	0.497
434.000	286.066	79.994	19.994	102.946	19.776	21.919	0.509
436.000	287.095	79.994	19.995	102.940	19.769	22.508	0.521
438.000	288.087	79.993	19.995	102.943	19.757	23.357	0.509
440.000	289.127	79.994	19.995	102.939	19.748	24.075	0.507
442.000	290.100	79.993	19.995	102.947	19.742	24.488	0.518
444.000	291.161	79.995	19.994	102.946	19.732	25.278	0.524
446.000	292.158	79.995	19.995	102.943	19.729	25.491	0.492
448.000	293.174	79.996	19.996	102.940	19.719	26.220	0.486
450.000	294.184	79.996	19.995	102.944	19.711	26.881	0.505
452.000	295.224	79.995	19.995	102.925	19.705	27.322	0.538
454.000	296.214	79.994	19.995	102.938	19.701	27.612	0.531
456.000	297.256	79.995	19.994	102.938	19.697	27.919	0.510
458.000	298.315	79.994	19.996	102.936	19.695	28.085	0.518
460.000	299.304	79.993	19.996	102.929	19.696	28.015	0.509
462.000	300.282	79.993	19.995	102.916	19.690	28.403	0.478
464.000	301.301	79.992	19.996	102.911	19.691	28.383	0.487
466.000	302.296	79.992	19.996	102.915	19.685	28.820	0.522
468.000	303.348	79.993	19.996	102.944	19.676	29.464	0.492
470.000	304.340	79.993	19.995	102.944	19.681	29.156	0.516
472.000	305.342	79.992	19.995	102.916	19.685	28.839	0.496
474.000	306.384	79.993	19.996	102.904	19.689	28.555	0.523
476.000	307.389	79.992	19.995	102.911	19.691	28.343	0.499
478.000	308.404	79.994	19.995	102.916	19.695	28.092	0.518
480.000	309.402	79.993	19.996	102.929	19.698	27.819	0.496
482.000	310.419	79.993	19.996	102.928	19.697	27.905	0.515
484.000	311.467	79.993	19.995	102.932	19.699	27.795	0.526
486.000	312.444	79.991	19.995	102.921	19.699	27.736	0.500
488.000	313.462	79.992	19.997	102.922	19.702	27.544	0.511
490.000	314.440	79.991	19.996	102.909	19.700	27.657	0.512
492.000	315.466	79.991	19.997	102.909	19.700	27.689	0.471
494.000	316.433	79.991	19.995	102.926	19.701	27.634	0.488
496.000	317.451	79.992	19.996	102.937	19.702	27.547	0.497
498.000	318.475	79.992	19.996	102.919	19.700	27.664	0.500
500.000	319.485	79.993	19.996	102.919	19.691	28.341	0.523
502.000	320.488	79.994	19.995	102.923	19.689	28.502	0.524
504.000	321.488	79.995	19.994	102.916	19.683	28.990	0.496
506.000	322.443	79.994	19.995	102.924	19.680	29.176	0.460
508.000	323.489	79.994	19.994	102.917	19.675	29.596	0.536
510.000	324.495	79.994	19.996	102.933	19.662	30.564	0.467
512.000	325.518	79.994	19.994	102.930	19.655	31.061	0.513
514.000	326.482	79.993	19.997	102.917	19.644	31.889	0.478
516.000	327.493	79.994	19.996	102.926	19.631	32.941	0.500
518.000	328.559	79.994	19.995	102.929	19.622	33.614	0.491
520.000	329.572	79.993	19.996	102.927	19.600	35.240	0.505
522.000	330.576	79.994	19.995	102.958	19.578	36.892	0.499
524.000	331.565	79.993	19.996	102.945	19.560	38.265	0.507
526.000	332.577	79.994	19.996	102.934	19.539	39.847	0.500
528.000	333.588	79.995	19.994	102.945	19.521	41.259	0.513
530.000	334.564	79.997	19.995	102.946	19.500	42.899	0.478
532.000	335.616	79.995	19.995	102.951	19.479	44.462	0.527
534.000	336.600	79.996	19.995	102.949	19.458	45.921	0.507
536.000	337.624	79.993	19.995	102.945	19.415	49.211	0.482
538.000	338.583	79.992	19.995	103.008	19.315	56.791	0.515
540.000	339.561	79.994	19.995	103.171	19.214	64.441	0.477
542.000	340.566	79.993	19.994	103.113	19.147	69.553	0.487
544.000	341.554	79.993	19.995	102.947	19.104	72.820	0.502
546.000	342.529	79.993	19.996	102.854	19.078	74.769	0.482
548.000	343.481	79.992	19.995	102.883	19.050	76.830	0.478
550.000	344.442	79.993	19.995	102.991	19.024	78.861	0.503
552.000	345.445	79.992	19.995	103.056	18.991	81.404	0.497
554.000	346.465	79.993	19.996	103.062	18.961	83.709	0.503
556.000	347.431	79.993	19.995	103.025	18.940	85.329	0.474
558.000	348.399	79.993	19.995	102.983	18.920	86.761	0.517
560.000	349.404	79.991	19.996	103.003	18.887	89.168	0.512
562.000	350.393	79.993	19.996	103.048	18.830	93.483	0.473
564.000	351.375	79.993	19.996	103.115	18.745	100.001	0.521
566.000	352.354	79.990	19.995	103.175	18.662	106.305	0.502
568.000	353.377	79.990	19.996	103.112	18.588	112.000	0.497
570.000	354.412	79.993	19.995	103.045	18.525	116.776	0.506
572.000	355.365	79.990	19.997	102.995	18.476	120.526	0.490
574.000	356.397	79.991	19.995	103.027	18.427	124.270	0.492
576.000	357.386	79.991	19.995	103.079	18.366	128.672	0.507
578.000	358.401	79.993	19.996	103.127	18.281	135.299	0.506
580.000	359.407	79.992	19.997	103.201	18.180	142.978	0.467
582.000	360.397	79.993	19.995	103.205	18.046	153.195	0.461
584.000	361.407	79.995	19.996	103.267	17.939	161.175	0.521
586.000	362.363	79.994	19.996	103.154	17.815	170.523	0.493
588.000	363.362	79.995	19.995	103.145	17.655	182.746	0.508
590.000	364.346	79.994	19.996	103.265	17.498	194.609	0.475
592.000	365.372	79.994	19.995	103.294	17.344	206.343	0.471
594.000	366.405	79.993	19.995	103.273	17.189	218.001	0.499
596.000	367.362	79.994	19.995	103.218	17.064	227.277	0.500
598.000	368.314	79.993	19.995	103.164	16.930	237.331	0.511
600.000	369.356	79.995	19.996	103.240	16.812	246.266	0.507
602.000	370.316	79.994	19.995	103.230	16.705	254.331	0.515
604.000	371.328	79.995	19.995	103.224	16.630	260.044	0.521
606.000	372.306	79.995	19.994	103.156	16.602	262.126	0.492
608.000	373.328	79.995	19.995	103.082	16.601	262.064	0.507
610.000	374.324	79.995	19.995	103.069	16.630	259.993	0.497
612.000	375.478	79.996	19.994	103.074	16.683	256.137	0.549
614.000	376.394	79.993	19.994	103.084	16.770	249.729	0.642
616.000	377.502	79.993	19.994	103.078	16.879	241.473	0.671
618.000	378.647	79.991	19.994	103.039	17.010	231.409	0.700
620.000	379.753	79.991	19.995	103.036	17.139	221.567	0.642
622.000	380.788	79.993	19.995	103.093	17.251	213.079	0.638
624.000	381.883	79.994	19.994	103.160	17.349	205.646	0.559
626.000	382.892	79.992	19.996	103.199	17.437	198.987	0.566
628.000	383.959	79.992	19.995	103.171	17.514	193.118	0.560
630.000	384.967	79.993	19.995	103.118	17.590	187.313	0.461
632.000	386.068	79.994	19.994	103.103	17.660	181.994	0.504
634.000	387.093	79.992	19.995	103.086	17.725	177.078	0.496
636.000	388.134	79.991	19.995	103.072	17.797	171.612	0.500
638.000	389.228	79.992	19.995	103.064	17.871	165.998	0.518
640.000	390.282	79.993	19.995	103.042	17.946	160.323	0.498
642.000	391.347	79.994	19.996	103.027	18.024	154.394	0.537
644.000	392.427	79.991	19.996	103.025	18.096	148.937	0.531
646.000	393.476	79.993	19.995	103.012	18.178	142.740	0.526
648.000	394.530	79.992	19.997	102.995	18.260	136.484	0.531
650.000	395.542	79.992	19.995	102.991	18.345	130.105	0.523
652.000	396.639	79.993	19.997	102.983	18.424	124.084	0.552
654.000	397.661	79.994	19.996	102.969	18.509	117.685	0.510
656.000	398.715	79.993	19.995	102.962	18.592	111.386	0.539
658.000	399.793	79.993	19.996	102.951	18.674	105.167	0.550
660.000	400.786	79.994	19.996	102.942	18.753	99.201	0.519
662.000	401.810	79.993	19.995	102.929	18.834	93.094	0.512
664.000	402.858	79.994	19.996	102.919	18.911	87.259	0.519
666.000	403.894	79.994	19.996	102.905	18.985	81.718	0.515
668.000	404.914	79.994	19.996	102.906	19.057	76.221	0.490
670.000	405.937	79.993	19.997	102.904	19.125	71.087	0.480
672.000	406.946	79.993	19.997	102.900	19.194	65.909	0.507
674.000	407.983	79.993	19.997	102.894	19.255	61.269	0.502
676.000	409.015	79.993	19.996	102.891	19.315	56.771	0.512
678.000	410.071	79.993	19.996	102.892	19.371	52.481	0.518
680.000	411.089	79.995	19.995	102.874	19.428	48.236	0.530
682.000	412.076	79.993	19.996	102.883	19.477	44.504	0.488
684.000	413.121	79.994	19.995	102.877	19.523	41.003	0.511
686.000	414.114	79.995	19.995	102.872	19.570	37.511	0.465
688.000	415.129	79.996	19.995	102.871	19.611	34.392	0.477
690.000	416.135	79.994	19.994	102.868	19.651	31.333	0.519
692.000	417.143	79.995	19.995	102.870	19.689	28.516	0.487
694.000	418.173	79.995	19.994	102.867	19.724	25.840	0.525
696.000	419.203	79.993	19.995	102.867	19.755	23.526	0.508
698.000	420.209	79.992	19.994	102.871	19.783	21.410	0.504
700.000	421.206	79.992	19.995	102.866	19.809	19.425	0.486
702.000	422.241	79.993	19.996	102.854	19.832	17.671	0.498
704.000	423.255	79.992	19.996	102.863	19.853	16.086	0.525
706.000	424.280	79.993	19.996	102.858	19.878	14.214	0.502
708.000	425.341	79.992	19.994	102.861	19.894	13.010	0.536
710.000	426.355	79.993	19.995	102.848	19.911	11.721	0.519
712.000	427.358	79.994	19.996	102.835	19.924	10.725	0.507
714.000	428.391	79.995	19.994	102.841	19.937	9.792	0.516
716.000	429.384	79.993	19.995	102.843	19.950	8.763	0.512
718.000	430.389	79.994	19.995	102.844	19.959	8.113	0.503
720.000	431.445	79.994	19.995	102.842	19.970	7.255	0.540
722.000	432.429	79.993	19.995	102.846	19.975	6.915	0.512
724.000	433.483	79.993	19.996	102.855	19.984	6.219	0.516
726.000	434.490	79.992	19.996	102.839	19.990	5.757	0.515
728.000	435.489	79.993	19.996	102.852	19.997	5.253	0.478
730.000	436.520	79.992	19.997	102.844	19.998	5.199	0.491
732.000	437.529	79.992	19.996	102.845	19.999	5.098	0.508
734.000	438.550	79.990	19.997	102.833	20.005	4.655	0.520
736.000	439.559	80.010	20.003	102.861	20.010	4.253	0.491
738.000	440.601	80.012	20.004	102.882	20.012	4.109	0.533
740.000	441.576	80.013	20.004	102.877	20.017	3.707	0.522
742.000	442.589	80.013	20.004	102.867	20.019	3.606	0.511
744.000	443.538	80.012	20.002	102.868	20.017	3.736	0.471
746.000	444.528	80.011	20.003	102.868	20.020	3.478	0.477
748.000	445.560	80.012	20.003	102.869	20.019	3.610	0.559
750.000	446.555	80.012	20.004	102.869	20.022	3.385	0.503
752.000	447.570	80.012	20.003	102.869	20.021	3.441	0.492
754.000	448.605	80.010	20.004	102.870	20.020	3.478	0.496
756.000	449.557	80.013	20.003	102.871	20.021	3.394	0.488
758.000	450.595	80.010	20.003	102.871	20.023	3.262	0.502
760.000	451.624	80.011	20.004	102.871	20.022	3.357	0.507
762.000	452.576	80.012	20.003	102.870	20.018	3.663	0.484
764.000	453.594	80.012	20.004	102.870	20.017	3.700	0.506
766.000	454.580	80.012	20.003	102.869	20.020	3.499	0.507
768.000	455.597	80.013	20.003	102.868	20.021	3.420	0.497
770.000	456.604	80.014	20.002	102.869	20.021	3.400	0.505
772.000	457.633	80.014	20.003	102.871	20.023	3.270	0.502
774.000	458.591	80.012	20.002	102.861	20.026	3.039	0.486
776.000	459.622	80.011	20.003	102.869	20.022	3.362	0.514
778.000	460.641	80.011	20.003	102.864	20.026	3.074	0.525
780.000	461.636	80.011	20.003	102.868	20.023	3.274	0.493
782.000	462.634	80.011	20.002	102.867	20.024	3.175	0.525
784.000	463.674	80.011	20.003	102.868	20.026	3.089	0.530
786.000	464.665	80.011	20.002	102.865	20.027	2.959	0.500
788.000	465.660	80.012	20.004	102.863	20.026	3.029	0.513
790.000	466.675	80.011	20.002	102.868	20.028	2.883	0.519
792.000	467.700	80.012	20.003	102.870	20.026	3.060	0.501
794.000	468.701	80.011	20.003	102.867	20.025	3.111	0.533
796.000	469.710	80.012	20.003	102.868	20.026	3.072	0.518
798.000	470.727	80.012	20.003	102.870	20.029	2.856	0.480
800.000	471.764	80.012	20.003	102.878	20.025	3.155	0.496
802.000	472.780	80.011	20.003	102.870	20.027	2.961	0.520
804.000	473.831	80.012	20.002	102.867	20.027	3.004	0.523
806.000	474.811	80.010	20.002	102.875	20.027	2.969	0.514
808.000	475.862	80.012	20.003	102.877	20.028	2.895	0.495
810.000	476.821	80.010	20.003	102.869	20.025	3.093	0.500
812.000	477.904	80.010	20.003	102.872	20.029	2.794	0.535
814.000	478.902	80.011	20.003	102.883	20.029	2.819	0.501
816.000	479.899	80.011	20.004	102.874	20.026	3.054	0.516
818.000	480.930	80.011	20.004	102.873	20.026	3.027	0.494
820.000	481.950	80.011	20.003	102.868	20.025	3.105	0.514
822.000	482.931	80.011	20.002	102.870	20.026	3.083	0.514
824.000	483.913	80.013	20.003	102.873	20.026	3.045	0.462
826.000	484.965	80.012	20.003	102.874	20.027	2.953	0.510
828.000	485.975	80.012	20.003	102.872	20.028	2.938	0.506
830.000	486.972	80.014	20.003	102.877	20.028	2.889	0.486
832.000	487.990	80.013	20.002	102.871	20.027	2.996	0.503
834.000	488.993	80.012	20.003	102.871	20.029	2.821	0.504
836.000	489.990	80.012	20.003	102.871	20.026	3.049	0.499
838.000	491.023	80.011	20.004	102.869	20.028	2.874	0.494
840.000	492.066	80.011	20.003	102.873	20.027	2.979	0.520
842.000	493.071	80.012	20.003	102.869	20.029	2.825	0.517
844.000	494.108	80.012	20.004	102.864	20.030	2.744	0.512
846.000	495.116	80.013	20.004	102.865	20.031	2.707	0.526
848.000	496.114	80.014	20.004	102.866	20.028	2.895	0.497
850.000	497.120	80.013	20.005	102.864	20.028	2.891	0.492
852.000	498.144	80.011	20.003	102.864	20.025	3.137	0.477
854.000	499.184	80.011	20.004	102.866	20.027	2.983	0.546
856.000	500.199	80.011	20.004	102.864	20.028	2.915	0.518
858.000	501.221	80.011	20.003	102.863	20.029	2.843	0.523
860.000	502.288	80.010	20.003	102.792	20.022	3.350	0.558
862.000	503.251	80.012	20.003	102.918	20.028	2.936	0.488
864.000	504.285	80.011	20.002	102.866	20.022	3.334	0.507
866.000	505.329	80.011	20.002	102.860	20.029	2.847	0.538
868.000	506.309	80.011	20.002	102.868	20.026	3.033	0.505
870.000	507.310	80.012	20.003	102.867	20.027	2.977	0.513
872.000	508.330	80.010	20.002	102.868	20.025	3.161	0.494
874.000	509.333	80.011	20.003	102.866	20.026	3.054	0.483
876.000	510.374	80.011	20.002	102.862	20.031	2.697	0.517
878.000	511.370	80.011	20.003	102.863	20.025	3.142	0.476
880.000	512.381	80.011	20.003	102.866	20.026	3.060	0.498
882.000	513.407	80.011	20.003	102.865	20.027	3.008	0.511
884.000	514.392	80.012	20.003	102.861	20.027	2.947	0.488
886.000	515.453	80.010	20.003	102.868	20.028	2.928	0.500
888.000	516.474	80.010	20.002	102.868	20.030	2.761	0.491
890.000	517.515	80.011	20.002	102.871	20.032	2.577	0.495
892.000	518.569	80.010	20.003	102.868	20.029	2.825	0.503
894.000	519.528	80.011	20.003	102.870	20.030	2.761	0.509
896.000	520.540	80.012	20.002	102.872	20.031	2.664	0.523
898.000	521.563	80.011	20.002	102.869	20.027	2.946	0.510
900.000	522.574	80.011	20.002	102.863	20.031	2.687	0.493
902.000	523.649	80.012	20.002	102.864	20.028	2.936	0.543
904.000	524.674	80.012	20.004	102.869	20.028	2.886	0.554
906.000	525.644	80.013	20.005	102.869	20.028	2.880	0.504
908.000	526.652	80.013	20.003	102.867	20.032	2.584	0.497
910.000	527.655	80.012	20.003	102.864	20.032	2.602	0.495
912.000	528.637	80.013	20.003	102.862	20.029	2.851	0.502
914.000	529.637	80.011	20.004	102.860	20.031	2.678	0.483
916.000	530.605	80.012	20.004	102.848	20.025	3.158	0.502
918.000	531.627	80.011	20.003	102.858	20.025	3.146	0.492
920.000	532.682	80.013	20.004	102.858	20.027	2.946	0.512
922.000	533.697	80.012	20.004	102.854	20.028	2.901	0.521
924.000	534.661	80.014	20.003	102.854	20.025	3.136	0.500
926.000	535.701	80.014	20.003	102.851	20.029	2.820	0.476
928.000	536.728	80.015	20.002	102.861	20.031	2.695	0.516
930.000	537.661	80.013	20.002	102.863	20.027	2.942	0.491
932.000	538.680	80.014	20.004	102.869	20.030	2.734	0.515
934.000	539.645	80.012	20.006	102.866	20.032	2.593	0.450
936.000	540.655	80.011	20.004	102.860	20.030	2.740	0.481
938.000	541.648	80.011	20.003	102.854	20.029	2.860	0.513
940.000	542.638	80.011	20.004	102.860	20.031	2.660	0.493
942.000	543.647	80.011	20.005	102.858	20.028	2.905	0.489
944.000	544.616	80.011	20.005	102.849	20.030	2.742	0.481
946.000	545.558	80.011	20.004	102.845	20.027	2.965	0.452
948.000	546.569	80.011	20.003	102.863	20.029	2.841	0.509
950.000	547.542	80.011	20.003	102.856	20.031	2.709	0.502
952.000	548.537	80.011	20.003	102.859	20.033	2.501	0.491
954.000	549.540	80.012	20.002	102.868	20.031	2.648	0.485
956.000	550.541	80.013	20.002	102.870	20.032	2.563	0.507
958.000	551.490	80.011	20.003	102.866	20.029	2.804	0.499
960.000	552.463	80.011	20.002	102.865	20.030	2.736	0.495
962.000	553.472	80.011	20.002	102.848	20.032	2.577	0.497
964.000	554.444	80.013	20.003	102.863	20.026	3.048	0.502
966.000	555.445	80.011	20.002	102.862	20.024	3.166	0.502
968.000	556.418	80.012	20.003	102.852	20.031	2.688	0.479
970.000	557.368	79.992	19.999	102.840	20.026	3.034	0.469
972.000	558.392	79.994	19.996	102.839	20.026	3.075	0.518
974.000	559.342	79.992	19.997	102.841	20.023	3.283	0.506
976.000	560.353	79.994	19.997	102.844	20.024	3.195	0.511
978.000	561.313	79.994	19.997	102.838	20.024	3.236	0.485
980.000	562.317	79.994	19.996	102.834	20.025	3.120	0.508
982.000	563.324	79.996	19.996	102.838	20.025	3.119	0.508
984.000	564.282	79.995	19.997	102.828	20.024	3.193	0.488
986.000	565.263	79.995	19.996	102.834	20.025	3.125	0.489
988.000	566.223	79.996	19.996	102.837	20.026	3.084	0.481
990.000	567.243	79.994	19.995	102.832	20.021	3.449	0.502
992.000	568.232	79.996	19.995	102.833	20.020	3.500	0.509
994.000	569.218	79.995	19.995	102.841	20.020	3.479	0.479
996.000	570.294	79.993	19.995	102.837	20.022	3.329	0.526
998.000	571.285	79.993	19.995	102.838	20.022	3.339	0.499
1000.000	572.309	80.012	20.003	102.856	20.024	3.224	0.520
1002.000	573.345	79.994	19.998	102.857	20.024	3.176	0.511
1004.000	574.427	79.995	19.996	102.848	20.023	3.280	0.521
1006.000	575.489	79.994	19.996	102.836	20.023	3.279	0.533
1008.000	576.555	79.994	19.995	102.846	20.021	3.427	0.511
1010.000	577.588	79.994	19.995	102.837	20.022	3.320	0.527
1012.000	578.668	79.996	19.995	102.848	20.027	2.995	0.538
1014.000	579.718	79.994	19.995	102.842	20.026	3.036	0.512
1016.000	580.767	79.993	19.996	102.853	20.026	3.018	0.535
1018.000	581.860	79.993	19.996	102.834	20.023	3.281	0.522
1020.000	582.871	79.993	19.996	102.833	20.022	3.329	0.508
1022.000	583.931	79.992	19.997	102.848	20.021	3.401	0.536
1024.001	584.962	79.991	19.995	102.847	20.023	3.310	0.540
1026.000	586.031	79.992	19.996	102.837	20.025	3.147	0.515
1028.000	587.132	79.992	19.997	102.841	20.025	3.149	0.545
1030.000	588.117	79.991	19.997	102.835	20.026	3.059	0.513
1032.000	589.172	79.993	19.996	102.829	20.025	3.152	0.508
1034.000	590.185	79.992	19.998	102.838	20.025	3.154	0.531
1036.000	591.251	79.993	19.996	102.830	20.021	3.456	0.552
1038.000	592.295	79.992	19.996	102.830	20.021	3.411	0.511
1040.000	593.307	79.992	19.997	102.835	20.020	3.487	0.541
1042.000	594.401	79.992	19.995	102.842	20.022	3.349	0.547
1044.000	595.442	79.994	19.995	102.842	20.022	3.345	0.537
1046.000	596.491	79.993	19.995	102.833	20.022	3.352	0.520
1048.000	597.490	79.994	19.996	102.827	20.023	3.245	0.497
1050.000	598.528	79.993	19.995	102.828	20.021	3.424	0.510
1052.000	599.553	79.994	19.995	102.829	20.022	3.349	0.520
1054.000	600.621	79.991	19.997	102.830	20.022	3.347	0.543
1056.001	601.602	79.991	19.999	102.835	20.026	3.028	0.486
1058.000	602.652	80.010	20.002	102.862	20.025	3.094	0.515
1060.000	603.695	79.993	20.002	102.857	20.026	3.065	0.500
1062.000	604.762	79.994	19.997	102.831	20.026	3.036	0.504
1064.000	605.794	79.993	19.996	102.835	20.024	3.238	0.480
1066.001	606.861	79.993	19.995	102.844	20.025	3.143	0.504
1068.001	607.922	79.993	19.996	102.840	20.022	3.358	0.533
1070.000	608.989	79.994	19.995	102.834	20.024	3.238	0.525
1072.000	610.054	79.992	19.995	102.838	20.021	3.399	0.529
1074.000	611.109	79.994	19.995	102.832	20.027	2.980	0.510
1076.000	612.187	79.994	19.995	102.833	20.022	3.327	0.557
1078.000	613.250	79.995	19.995	102.840	20.021	3.409	0.535
1080.000	614.329	79.993	19.996	102.835	20.021	3.418	0.533
1082.001	615.390	79.993	19.994	102.832	20.020	3.487	0.554
1084.000	616.496	79.995	19.995	102.832	20.022	3.370	0.533
1086.000	617.567	79.994	19.995	102.833	20.024	3.205	0.538
1088.000	618.623	79.995	19.995	102.835	20.024	3.166	0.527
1090.001	619.708	79.995	19.995	102.841	20.023	3.277	0.531
1092.000	620.764	79.994	19.995	102.844	20.023	3.302	0.536
1094.000	621.835	79.996	19.996	102.826	20.025	3.145	0.541
1096.000	622.909	79.994	19.996	102.839	20.023	3.256	0.539
1098.000	623.979	79.995	19.996	102.834	20.020	3.498	0.523
1100.000	625.034	79.991	19.997	102.825	20.023	3.310	0.526
1102.000	626.137	79.992	19.997	102.835	20.025	3.145	0.541
1104.000	627.186	79.991	19.996	102.840	20.024	3.213	0.528
1106.000	628.247	79.994	19.996	102.832	20.020	3.528	0.552
1108.000	629.276	79.993	19.995	102.835	20.025	3.160	0.496
1110.000	630.347	79.993	19.997	102.832	20.022	3.326	0.559
1112.000	631.399	79.992	19.996	102.827	20.024	3.184	0.525
1114.000	632.430	79.992	19.996	102.831	20.025	3.141	0.515
1116.000	633.489	79.993	19.996	102.829	20.019	3.576	0.513
1118.000	634.522	79.992	19.996	102.828	20.021	3.430	0.527
1120.000	635.589	79.992	19.997	102.828	20.021	3.411	0.512
1122.000	636.631	79.992	19.997	102.828	20.020	3.499	0.523
1124.000	637.610	79.991	19.997	102.827	20.021	3.464	0.448
1126.000	638.653	79.991	19.998	102.828	20.023	3.298	0.513
1128.000	639.682	79.991	19.996	102.835	20.024	3.201	0.497
1130.000	640.640	79.991	19.996	102.830	20.023	3.279	0.484
1132.001	641.638	79.991	19.996	102.829	20.022	3.324	0.536
1134.000	642.679	79.993	19.996	102.829	20.023	3.279	0.503
1136.000	643.663	79.992	19.996	102.830	20.019	3.572	0.486
1138.000	644.671	79.991	19.996	102.832	20.019	3.609	0.500
1140.001	645.650	79.993	19.995	102.831	20.020	3.487	0.485
1142.000	646.642	79.993	19.996	102.831	20.018	3.669	0.473
1144.000	647.665	79.993	19.994	102.831	20.022	3.361	0.495
1146.000	648.694	79.993	19.995	102.833	20.021	3.392	0.515
1148.000	649.698	79.993	19.994	102.833	20.019	3.572	0.484
1150.000	650.701	79.993	19.995	102.833	20.020	3.491	0.492
1152.000	651.726	79.992	19.994	102.833	20.019	3.553	0.515
1154.000	652.679	79.994	19.995	102.836	20.016	3.773	0.490
1156.000	653.706	79.993	19.996	102.830	20.019	3.615	0.504
1158.000	654.748	79.992	19.996	102.829	20.021	3.440	0.511
1160.000	655.747	79.992	19.996	102.835	20.022	3.380	0.541
1162.000	656.720	79.994	19.995	102.834	20.023	3.304	0.460
1164.001	657.755	79.994	19.996	102.829	20.020	3.481	0.480
1166.000	658.735	79.994	19.995	102.826	20.020	3.501	0.484
1168.001	659.770	79.993	19.995	102.828	20.021	3.448	0.517
1170.000	660.786	79.996	19.994	102.828	20.026	3.075	0.502
1172.000	661.810	79.996	19.995	102.830	20.022	3.364	0.499
1174.000	662.849	79.996	19.995	102.827	20.020	3.541	0.493
1176.000	663.852	79.995	19.995	102.826	20.020	3.520	0.505
1178.000	664.818	79.994	19.994	102.828	20.025	3.120	0.489
1180.000	665.834	79.994	19.995	102.832	20.021	3.400	0.502
1182.000	666.895	79.992	19.996	102.830	20.020	3.487	0.524
1184.000	667.889	79.993	19.996	102.832	20.020	3.520	0.487
1186.000	668.867	79.992	19.996	102.828	20.019	3.563	0.484
1188.000	669.902	79.993	19.996	102.828	20.019	3.551	0.497
1190.000	670.897	79.994	19.996	102.828	20.019	3.598	0.499
1192.000	671.929	79.992	19.996	102.827	20.017	3.695	0.509
1194.000	672.967	79.993	19.996	102.829	20.021	3.452	0.528
1196.000	673.956	79.993	19.996	102.829	20.018	3.667	0.531
1198.000	675.022	79.994	19.996	102.835	20.017	3.728	0.522
1200.000	676.060	79.993	19.995	102.834	20.017	3.707	0.518
1202.000	677.047	79.993	19.995	102.829	20.021	3.436	0.485
1204.000	678.100	79.993	19.996	102.831	20.012	4.085	0.520
1206.000	679.111	79.991	19.996	102.834	20.016	3.825	0.498
1208.000	680.090	79.992	19.996	102.838	20.016	3.773	0.498
1210.000	681.123	79.991	19.995	102.829	20.016	3.782	0.510
1212.000	682.141	79.992	19.995	102.830	20.019	3.604	0.583
1214.000	683.199	79.991	19.997	102.831	20.015	3.913	0.515
1216.000	684.196	79.991	19.997	102.843	20.018	3.676	0.498
1218.000	685.237	79.992	19.996	102.833	20.013	4.022	0.557
1220.001	686.212	79.993	19.998	102.828	20.016	3.777	0.527
1222.000	687.282	79.993	19.997	102.829	20.014	3.944	0.521
1224.001	688.326	79.995	19.996	102.830	20.014	3.938	0.527
1226.000	689.334	79.993	19.996	102.828	20.012	4.103	0.511
1228.000	690.277	79.994	19.995	102.826	20.015	3.884	0.460
1230.000	691.281	79.996	19.995	102.828	20.010	4.276	0.504
1232.000	692.341	79.993	19.996	102.827	20.012	4.107	0.522
1234.001	693.328	79.994	19.996	102.829	20.011	4.163	0.501
1236.001	694.345	79.994	19.996	102.834	20.013	4.043	0.505
1238.001	695.317	79.995	19.995	102.823	20.013	4.033	0.472
1240.000	696.370	79.994	19.995	102.831	20.013	4.002	0.532
1242.000	697.361	79.993	19.995	102.835	20.007	4.486	0.505
1244.000	698.359	79.994	19.994	102.829	20.012	4.138	0.502
1246.000	699.334	79.995	19.996	102.832	20.015	3.858	0.505
1248.000	700.390	79.996	19.994	102.834	20.011	4.185	0.514
1250.000	701.359	79.996	19.996	102.828	20.012	4.115	0.472
1252.000	702.376	79.996	19.995	102.827	20.014	3.959	0.525
1254.000	703.369	79.995	19.994	102.829	20.017	3.751	0.496
1256.000	704.383	79.994	19.994	102.827	20.015	3.909	0.485
1258.000	705.356	79.993	19.994	102.789	20.017	3.751	0.519
1260.000	706.341	79.995	19.994	102.809	20.013	3.998	0.493
1262.000	707.350	79.994	19.995	102.889	20.017	3.759	0.498
1264.000	708.350	79.993	19.995	102.827	20.017	3.724	0.539
1266.001	709.345	79.994	19.995	102.830	20.012	4.082	0.505
1268.000	710.328	79.994	19.995	102.833	20.016	3.780	0.487
1270.000	711.318	79.994	19.995	102.833	20.016	3.778	0.487
1272.000	712.327	79.993	19.994	102.831	20.012	4.115	0.512
1274.000	713.335	79.994	19.994	102.831	20.013	4.064	0.478
1276.000	714.315	79.993	19.995	102.832	20.012	4.119	0.477
1278.000	715.377	79.994	19.995	102.833	20.012	4.103	0.510
1280.000	716.436	79.993	19.996	102.833	20.011	4.158	0.528
1282.000	717.489	79.994	19.994	102.835	20.015	3.860	0.521
1284.000	718.486	79.993	19.996	102.831	20.013	4.025	0.492
1286.000	719.530	79.993	19.995	102.825	20.010	4.292	0.547
1288.000	720.606	79.994	19.996	102.830	20.013	4.062	0.517
1290.000	721.620	79.993	19.996	102.832	20.009	4.309	0.533
1292.000	722.681	79.993	19.996	102.827	20.008	4.435	0.512
1294.000	723.727	79.992	19.995	102.832	20.008	4.389	0.512
1296.000	724.800	79.992	19.996	102.836	20.008	4.434	0.532
1298.000	725.821	79.992	19.996	102.831	20.010	4.261	0.519
1300.000	726.854	79.992	19.996	102.832	20.009	4.342	0.527
1302.000	727.899	79.994	19.996	102.834	20.009	4.303	0.506
1304.000	728.964	79.993	19.996	102.828	20.008	4.375	0.526
1306.000	730.004	79.994	19.996	102.830	20.006	4.527	0.516
1308.001	731.091	79.994	19.996	102.828	20.010	4.249	0.524
1310.000	732.126	79.993	19.997	102.827	20.009	4.327	0.536
1312.000	733.231	79.993	19.996	102.827	20.011	4.181	0.571
1314.000	734.266	79.994	19.996	102.826	20.009	4.325	0.528
1316.000	735.327	79.995	19.996	102.825	20.009	4.327	0.516
1318.000	736.385	79.994	19.995	102.826	20.006	4.539	0.526
1320.000	737.430	79.994	19.995	102.826	20.010	4.241	0.567
1322.000	738.465	79.994	19.995	102.830	20.010	4.245	0.537
1324.000	739.496	79.994	19.995	102.830	20.008	4.391	0.532
1326.000	740.532	79.995	19.995	102.831	20.006	4.539	0.518
1328.001	741.581	79.995	19.994	102.828	20.007	4.511	0.505
1330.000	742.587	79.995	19.993	102.828	20.003	4.787	0.503
1331.500	743.384	79.994	19.994	102.830	20.006	4.575	0.549