File: 01_Data/PMMA_R06/MCC/PMMA_R06_MCC_30K_min_211015_R2.txt
Sample ID:	C:\MCC\MCC Cal\Test\PMMA_R06_MCC_30K_min_211015_R2.txt
Sample Weight (mg):	4.09
Heating Rate (C/s):	0.5
Combustor Temp (C):	900
N2 Flow Rate (cc/min):	80
O2 Flow Rate (cc/min):	20
Calibration File:	C:\MCC\MCC Cal\Coeff1 JN10440_30_210304.txt.txt
T Correction Coefficients:	0	1.024463	0
Time Shift (s):	14
*
Time (s)	Temperature (C)	N2 flow rate (cc/min)	O2 flow rate (cc/min)	Flow Rate (cc/min)	Oxygen (%)	HRR (W/g)	Heating rate (C/s)
0.000	106.657	79.996	19.995	102.724	20.024	-0.073	0.023
2.000	106.651	79.996	19.993	102.728	20.025	-0.124	0.000
4.000	106.627	79.996	19.994	102.722	20.024	-0.062	-0.010
6.000	106.624	79.994	19.994	102.738	20.024	-0.054	-0.003
8.000	106.638	79.995	19.996	102.746	20.019	0.325	0.007
10.000	106.634	79.992	19.996	102.744	20.019	0.287	0.006
12.000	106.630	79.994	19.995	102.761	20.016	0.582	0.005
14.000	106.665	79.992	19.995	102.761	20.011	0.921	0.029
16.000	106.703	79.993	19.995	102.811	20.009	1.120	0.025
18.000	106.744	79.992	19.996	102.833	20.005	1.430	0.022
20.000	106.828	79.993	19.996	102.866	20.005	1.416	0.093
22.000	106.934	79.993	19.996	102.864	20.003	1.559	0.068
24.000	107.044	79.996	19.995	102.861	19.998	1.977	0.051
26.000	107.202	79.994	19.996	102.870	19.997	2.056	0.106
28.000	107.384	79.994	19.996	102.887	19.993	2.322	0.091
30.000	107.595	79.995	19.994	102.881	19.994	2.279	0.087
32.000	107.772	79.995	19.995	102.897	19.993	2.372	0.100
34.000	108.034	79.992	19.996	102.902	19.990	2.586	0.086
35.999	108.291	79.993	19.996	102.911	19.987	2.852	0.134
37.999	108.594	79.993	19.996	102.922	19.985	3.019	0.148
39.999	108.915	79.993	19.995	102.925	19.984	3.060	0.162
42.000	109.252	79.992	19.995	102.932	19.981	3.334	0.199
43.999	109.581	79.991	19.995	102.942	19.984	3.029	0.199
46.000	109.959	79.992	19.996	102.941	19.983	3.117	0.206
48.000	110.373	79.992	19.997	102.937	19.984	3.036	0.198
49.999	110.775	79.994	19.995	102.940	19.985	3.019	0.203
51.999	111.193	79.993	19.996	102.941	19.984	3.096	0.201
53.999	111.665	79.996	19.996	102.937	19.984	3.058	0.260
56.000	112.110	79.994	19.996	102.937	19.982	3.236	0.212
58.000	112.579	79.994	19.996	102.935	19.978	3.548	0.249
59.999	113.106	79.995	19.994	102.939	19.983	3.148	0.262
61.999	113.579	79.993	19.994	102.942	19.985	3.003	0.276
63.999	114.141	79.994	19.995	102.945	19.979	3.454	0.299
65.999	114.645	79.993	19.995	102.951	19.981	3.283	0.243
67.999	115.180	79.995	19.994	102.954	19.981	3.268	0.257
69.999	115.738	79.997	19.995	102.949	19.978	3.555	0.276
71.999	116.299	79.993	19.996	102.960	19.978	3.566	0.286
73.999	116.904	79.995	19.995	102.964	19.980	3.412	0.298
75.999	117.518	79.994	19.995	102.952	19.979	3.459	0.287
77.999	118.102	79.994	19.994	102.949	19.977	3.575	0.286
79.999	118.794	79.996	19.995	102.961	19.976	3.661	0.326
82.000	119.446	79.996	19.995	102.964	19.975	3.785	0.352
83.999	120.062	79.995	19.994	102.965	19.975	3.745	0.306
85.999	120.715	79.994	19.995	102.975	19.973	3.965	0.318
87.999	121.434	79.996	19.995	102.980	19.977	3.618	0.362
89.999	122.120	79.995	19.995	102.980	19.977	3.619	0.347
91.999	122.865	79.994	19.995	102.986	19.976	3.717	0.378
93.999	123.601	79.994	19.996	102.983	19.974	3.816	0.361
95.999	124.295	79.992	19.994	102.981	19.971	4.073	0.376
98.000	125.067	79.994	19.995	102.982	19.970	4.124	0.371
99.999	125.834	79.993	19.996	102.990	19.972	4.035	0.375
101.999	126.660	79.991	19.995	103.001	19.970	4.146	0.391
103.999	127.448	79.993	19.995	102.996	19.966	4.454	0.408
105.999	128.221	79.993	19.995	102.995	19.969	4.244	0.396
107.999	129.039	79.994	19.996	102.985	19.970	4.198	0.422
109.999	129.884	79.992	19.996	102.992	19.970	4.198	0.412
111.999	130.664	79.992	19.996	102.992	19.968	4.307	0.387
113.999	131.503	79.992	19.996	102.989	19.968	4.329	0.405
115.999	132.366	79.993	19.995	102.989	19.970	4.155	0.409
118.001	133.206	79.993	19.995	103.000	19.968	4.324	0.425
120.000	134.147	79.994	19.995	103.007	19.969	4.262	0.436
122.000	134.988	79.993	19.996	103.001	19.968	4.348	0.440
123.999	135.879	79.993	19.996	103.015	19.972	3.979	0.461
125.999	136.786	79.992	19.996	103.010	19.967	4.373	0.431
127.999	137.697	79.994	19.995	103.011	19.970	4.167	0.448
130.000	138.637	79.992	19.995	102.990	19.969	4.219	0.472
132.000	139.525	79.992	19.995	103.000	19.970	4.185	0.444
134.000	140.523	79.994	19.997	103.010	19.965	4.529	0.477
136.000	141.430	79.992	19.996	103.004	19.969	4.225	0.461
138.000	142.401	79.993	19.996	102.988	19.967	4.407	0.473
140.000	143.323	79.994	19.995	102.989	19.967	4.426	0.476
142.000	144.336	79.994	19.996	102.999	19.967	4.390	0.490
144.000	145.331	79.994	19.996	102.989	19.965	4.565	0.476
146.000	146.269	79.994	19.996	102.987	19.967	4.417	0.479
148.000	147.229	79.992	19.995	102.983	19.969	4.214	0.499
150.000	148.226	79.993	19.995	102.985	19.968	4.282	0.516
152.000	149.222	79.993	19.995	102.990	19.971	4.092	0.481
154.000	150.180	79.995	19.994	102.982	19.973	3.961	0.510
156.000	151.179	79.996	19.996	102.979	19.967	4.381	0.498
158.000	152.147	79.995	19.995	102.979	19.968	4.295	0.497
160.000	153.159	79.996	19.995	102.980	19.967	4.385	0.515
162.000	154.146	79.995	19.995	102.979	19.967	4.362	0.490
164.000	155.149	79.995	19.996	102.980	19.965	4.583	0.493
166.000	156.138	79.995	19.996	102.979	19.968	4.349	0.475
168.000	157.152	79.995	19.995	102.976	19.967	4.420	0.523
170.000	158.084	79.993	19.995	102.980	19.971	4.098	0.474
172.000	159.124	79.992	19.995	102.982	19.966	4.447	0.485
174.000	160.100	79.993	19.996	102.983	19.968	4.355	0.467
176.000	161.097	79.992	19.995	102.984	19.968	4.334	0.490
178.000	162.129	79.992	19.996	102.984	19.966	4.445	0.504
180.000	163.128	79.994	19.995	102.981	19.968	4.357	0.506
182.000	164.102	79.992	19.995	102.978	19.969	4.266	0.498
184.000	165.170	79.993	19.996	102.973	19.970	4.180	0.522
186.000	166.127	79.992	19.995	102.977	19.970	4.157	0.450
188.000	167.192	79.994	19.995	102.973	19.967	4.422	0.507
190.000	168.151	79.994	19.995	102.962	19.969	4.255	0.493
192.000	169.169	79.994	19.995	102.963	19.972	4.043	0.503
194.000	170.161	79.993	19.995	102.951	19.972	4.011	0.512
196.000	171.130	79.994	19.995	102.952	19.972	3.966	0.483
198.000	172.116	79.994	19.995	102.948	19.972	4.043	0.515
200.000	173.110	79.994	19.996	102.942	19.972	3.996	0.500
202.000	174.103	79.991	19.996	102.948	19.975	3.754	0.494
204.000	175.065	79.993	19.996	102.941	19.975	3.791	0.512
206.000	176.031	79.992	19.996	102.941	19.977	3.628	0.474
208.000	177.019	79.993	19.996	102.941	19.970	4.127	0.517
210.000	177.957	79.992	19.995	102.948	19.973	3.896	0.481
212.000	178.975	79.995	19.995	102.948	19.970	4.147	0.522
214.000	179.976	79.993	19.996	102.956	19.970	4.187	0.508
216.000	180.939	79.993	19.995	102.953	19.970	4.161	0.473
218.000	181.919	79.994	19.996	102.948	19.971	4.099	0.504
220.000	182.882	79.994	19.995	102.953	19.966	4.502	0.493
222.000	183.884	79.995	19.996	102.954	19.971	4.091	0.488
224.000	184.854	79.994	19.997	102.967	19.967	4.373	0.502
226.000	185.849	79.994	19.996	102.948	19.972	4.037	0.499
228.000	186.833	79.993	19.996	102.949	19.969	4.225	0.471
230.000	187.879	79.994	19.997	102.956	19.970	4.196	0.496
232.000	188.845	79.993	19.997	102.952	19.971	4.092	0.487
234.000	189.849	79.992	19.997	102.953	19.967	4.407	0.477
236.000	190.831	79.994	19.996	102.945	19.969	4.257	0.494
238.000	191.835	79.993	19.996	102.943	19.968	4.315	0.498
240.000	192.828	79.994	19.996	102.955	19.970	4.161	0.488
242.000	193.843	79.996	19.995	102.945	19.971	4.114	0.501
244.000	194.828	79.994	19.994	102.942	19.972	4.013	0.484
246.000	195.842	79.995	19.995	102.944	19.968	4.322	0.496
248.000	196.787	79.997	19.995	102.944	19.968	4.305	0.476
250.000	197.808	79.996	19.995	102.944	19.969	4.227	0.516
252.000	198.810	79.994	19.995	102.946	19.968	4.305	0.495
254.000	199.835	79.993	19.996	102.945	19.971	4.107	0.475
256.000	200.814	79.993	19.996	102.944	19.968	4.325	0.496
258.000	201.837	79.993	19.996	102.945	19.969	4.212	0.502
260.000	202.833	79.994	19.995	102.942	19.968	4.330	0.491
262.000	203.820	79.994	19.995	102.943	19.970	4.186	0.519
264.000	204.849	79.993	19.995	102.941	19.969	4.219	0.502
266.000	205.869	79.992	19.995	102.933	19.968	4.345	0.508
268.000	206.851	79.993	19.996	102.930	19.971	4.092	0.505
270.000	207.827	79.992	19.995	102.937	19.969	4.250	0.474
272.000	208.863	79.994	19.996	102.920	19.970	4.185	0.531
274.000	209.819	79.995	19.996	102.934	19.968	4.349	0.483
276.000	210.828	79.995	19.994	102.937	19.968	4.353	0.498
278.000	211.826	79.994	19.995	102.932	19.968	4.292	0.488
280.000	212.746	79.994	19.995	102.935	19.966	4.470	0.457
282.000	213.762	79.994	19.996	102.912	19.968	4.286	0.495
284.000	214.728	79.992	19.995	102.921	19.966	4.480	0.453
286.000	215.676	79.994	19.996	102.918	19.966	4.469	0.477
288.000	216.632	79.992	19.996	102.915	19.968	4.352	0.465
290.000	217.610	79.993	19.996	102.907	19.971	4.093	0.475
292.000	218.547	79.992	19.996	102.912	19.970	4.180	0.470
294.000	219.565	79.993	19.996	102.916	19.971	4.115	0.473
296.000	220.519	79.993	19.996	102.932	19.967	4.420	0.483
298.000	221.480	79.995	19.996	102.915	19.967	4.377	0.460
300.000	222.452	79.994	19.996	102.905	19.967	4.374	0.496
302.000	223.407	79.993	19.996	102.919	19.969	4.258	0.498
304.000	224.412	79.995	19.995	102.923	19.972	4.008	0.481
306.000	225.356	79.993	19.995	102.923	19.968	4.342	0.487
308.000	226.328	79.994	19.995	102.926	19.972	4.035	0.485
310.000	227.254	79.993	19.996	102.916	19.968	4.332	0.465
312.000	228.274	79.994	19.995	102.906	19.966	4.467	0.526
314.000	229.216	79.992	19.995	102.916	19.964	4.671	0.491
316.000	230.240	79.995	19.995	102.920	19.965	4.551	0.506
318.000	231.229	79.993	19.996	102.915	19.966	4.459	0.518
320.000	232.184	79.994	19.996	102.917	19.967	4.422	0.503
322.000	233.185	79.994	19.996	102.931	19.963	4.750	0.521
324.000	234.127	79.995	19.996	102.936	19.966	4.503	0.477
326.000	235.099	79.995	19.996	102.938	19.964	4.664	0.478
328.000	236.031	79.995	19.996	102.934	19.961	4.853	0.458
330.000	237.032	79.994	19.997	102.926	19.961	4.887	0.489
332.000	238.032	79.995	19.996	102.927	19.960	4.939	0.511
334.000	239.008	79.993	19.995	102.926	19.960	4.979	0.477
336.000	239.983	79.993	19.996	102.923	19.962	4.814	0.481
338.000	241.010	79.994	19.995	102.934	19.955	5.321	0.484
340.000	242.049	79.993	19.995	102.930	19.957	5.167	0.520
342.000	243.083	79.993	19.994	102.939	19.957	5.163	0.529
344.000	244.086	79.994	19.995	102.939	19.956	5.244	0.511
346.000	245.092	79.994	19.995	102.927	19.953	5.512	0.513
348.000	246.141	79.993	19.995	102.925	19.953	5.519	0.541
350.000	247.170	79.995	19.995	102.928	19.950	5.703	0.530
352.000	248.160	79.994	19.995	102.930	19.950	5.707	0.484
354.000	249.252	79.995	19.995	102.928	19.950	5.756	0.539
356.000	250.257	79.994	19.995	102.918	19.949	5.779	0.504
358.000	251.316	79.992	19.995	102.920	19.948	5.884	0.503
360.000	252.370	79.995	19.996	102.935	19.945	6.141	0.492
362.000	253.392	79.993	19.995	102.917	19.942	6.347	0.507
364.000	254.408	79.993	19.995	102.927	19.941	6.407	0.517
366.000	255.453	79.994	19.995	102.911	19.940	6.492	0.519
368.000	256.471	79.993	19.996	102.911	19.935	6.884	0.485
370.000	257.509	79.993	19.995	102.911	19.930	7.300	0.512
372.000	258.551	79.992	19.996	102.914	19.931	7.220	0.506
374.000	259.569	79.994	19.995	102.911	19.926	7.604	0.542
376.000	260.559	79.993	19.994	102.911	19.922	7.936	0.513
378.000	261.577	79.995	19.996	102.909	19.919	8.171	0.496
380.000	262.634	79.994	19.995	102.912	19.915	8.502	0.511
382.000	263.664	79.995	19.996	102.912	19.912	8.753	0.517
384.000	264.642	79.994	19.995	102.910	19.905	9.262	0.510
386.000	265.655	79.994	19.995	102.906	19.902	9.491	0.529
388.000	266.637	79.994	19.995	102.905	19.895	10.028	0.487
390.000	267.662	79.994	19.996	102.915	19.890	10.423	0.505
392.000	268.662	79.993	19.995	102.918	19.888	10.594	0.505
394.000	269.654	79.993	19.996	102.911	19.884	10.943	0.512
396.000	270.623	79.994	19.995	102.915	19.877	11.448	0.490
398.000	271.703	79.994	19.997	102.909	19.871	11.935	0.513
400.000	272.685	79.995	19.996	102.906	19.864	12.498	0.486
402.000	273.673	79.995	19.995	102.915	19.855	13.202	0.484
404.000	274.674	79.995	19.996	102.908	19.847	13.836	0.505
406.000	275.664	79.996	19.995	102.908	19.841	14.275	0.505
408.000	276.619	79.996	19.996	102.905	19.836	14.671	0.464
410.000	277.651	79.996	19.997	102.912	19.825	15.533	0.511
412.000	278.619	79.995	19.997	102.904	19.816	16.248	0.500
414.000	279.595	79.995	19.996	102.914	19.806	17.015	0.498
416.000	280.587	79.994	19.996	102.925	19.802	17.355	0.506
418.000	281.496	79.992	19.996	102.910	19.790	18.261	0.457
420.000	282.469	79.993	19.997	102.903	19.784	18.766	0.466
422.000	283.505	79.993	19.997	102.917	19.775	19.505	0.502
424.000	284.460	79.994	19.996	102.913	19.767	20.120	0.467
426.000	285.429	79.994	19.996	102.907	19.755	21.025	0.533
428.000	286.383	79.994	19.995	102.906	19.745	21.833	0.471
430.000	287.382	79.994	19.995	102.920	19.733	22.716	0.511
432.000	288.322	79.994	19.996	102.940	19.697	25.599	0.484
434.000	289.300	79.993	19.995	102.987	19.668	27.914	0.506
436.000	290.299	79.992	19.995	102.958	19.659	28.569	0.477
438.000	291.280	79.993	19.995	102.883	19.661	28.461	0.502
440.000	292.259	79.995	19.995	102.857	19.661	28.437	0.471
442.000	293.236	79.994	19.994	102.873	19.658	28.667	0.476
444.000	294.189	79.992	19.997	102.938	19.662	28.306	0.477
446.000	295.196	79.992	19.994	102.951	19.661	28.449	0.496
448.000	296.173	79.993	19.996	102.946	19.663	28.236	0.510
450.000	297.146	79.992	19.995	102.935	19.660	28.467	0.496
452.000	298.166	79.995	19.994	102.927	19.661	28.459	0.500
454.000	299.168	79.995	19.995	102.932	19.661	28.438	0.511
456.000	300.135	79.994	19.995	102.927	19.660	28.495	0.494
458.000	301.171	79.996	19.995	102.935	19.661	28.391	0.500
460.000	302.177	79.996	19.996	102.938	19.665	28.107	0.514
462.000	303.177	79.996	19.995	102.921	19.667	27.972	0.520
464.000	304.186	79.996	19.993	102.922	19.669	27.769	0.486
466.000	305.169	79.997	19.995	102.927	19.673	27.470	0.489
468.000	306.195	79.995	19.996	102.926	19.673	27.466	0.465
470.000	307.193	79.995	19.995	102.928	19.672	27.517	0.496
472.000	308.211	79.995	19.994	102.927	19.673	27.493	0.510
474.000	309.279	79.996	19.995	102.934	19.669	27.782	0.531
476.000	310.267	79.994	19.996	102.939	19.667	27.979	0.514
478.000	311.345	79.993	19.996	102.938	19.669	27.818	0.546
480.000	312.382	79.996	19.996	102.926	19.669	27.816	0.543
482.000	313.458	79.994	19.996	102.914	19.670	27.742	0.506
484.000	314.440	79.996	19.995	102.911	19.663	28.262	0.498
486.000	315.439	79.997	19.996	102.922	19.656	28.813	0.472
488.000	316.479	79.996	19.995	102.935	19.650	29.235	0.506
490.000	317.509	79.997	19.995	102.930	19.629	30.931	0.503
492.000	318.536	79.994	19.995	102.972	19.594	33.742	0.500
494.000	319.588	79.996	19.995	102.991	19.582	34.665	0.531
496.000	320.599	79.995	19.995	102.914	19.582	34.622	0.508
498.000	321.616	79.994	19.995	102.861	19.581	34.713	0.490
500.000	322.622	79.992	19.996	102.869	19.564	36.043	0.517
502.000	323.656	79.993	19.996	102.981	19.551	37.100	0.509
504.000	324.644	79.992	19.997	102.982	19.545	37.517	0.454
506.000	325.726	79.991	19.997	102.926	19.536	38.256	0.499
508.000	326.693	79.993	19.997	102.914	19.529	38.817	0.503
510.000	327.773	79.993	19.997	102.929	19.514	39.950	0.529
512.000	328.788	79.992	19.997	102.960	19.499	41.122	0.532
514.000	329.802	79.993	19.997	102.952	19.482	42.481	0.523
516.000	330.828	79.993	19.996	102.946	19.458	44.389	0.528
518.000	331.802	79.993	19.996	102.954	19.436	46.128	0.506
520.000	332.843	79.994	19.997	102.949	19.417	47.610	0.518
522.000	333.801	79.993	19.997	102.950	19.395	49.313	0.508
524.000	334.839	79.994	19.994	102.937	19.377	50.758	0.504
526.000	335.884	79.993	19.994	102.949	19.355	52.509	0.558
528.000	336.828	79.994	19.995	102.958	19.331	54.391	0.506
530.000	337.842	79.993	19.995	102.966	19.298	56.960	0.502
532.000	338.837	79.992	19.996	102.984	19.270	59.171	0.471
534.000	339.836	79.993	19.996	102.982	19.237	61.770	0.485
536.000	340.811	79.994	19.996	102.976	19.203	64.444	0.475
538.000	341.848	79.996	19.996	102.978	19.175	66.657	0.516
540.000	342.783	79.993	19.996	102.988	19.138	69.539	0.474
542.000	343.822	79.997	19.995	102.991	19.103	72.440	0.530
544.000	344.790	79.995	19.996	103.010	19.059	75.902	0.515
546.000	345.783	79.995	19.995	103.016	18.996	80.635	0.522
548.000	346.734	79.995	19.995	103.073	18.924	86.221	0.460
550.000	347.699	79.994	19.994	103.052	18.836	93.197	0.475
552.000	348.721	79.995	19.995	103.081	18.693	104.699	0.515
554.000	349.645	79.995	19.995	103.221	18.598	112.410	0.479
556.000	350.685	79.995	19.995	103.050	18.564	114.852	0.488
558.000	351.681	79.996	19.995	102.879	18.539	116.611	0.495
560.000	352.682	79.995	19.995	102.836	18.497	120.020	0.506
562.000	353.650	79.995	19.995	103.026	18.397	128.008	0.488
564.000	354.740	79.996	19.994	103.349	18.292	136.213	0.518
566.000	355.731	79.995	19.995	103.300	18.231	140.769	0.503
568.000	356.712	79.994	19.995	103.058	18.150	147.136	0.485
570.000	357.741	79.994	19.994	103.018	18.033	156.667	0.486
572.000	358.843	79.996	19.995	103.147	17.936	164.871	0.540
574.000	359.901	79.995	19.996	103.249	17.888	168.448	0.524
576.000	361.153	79.994	19.995	103.027	17.851	170.852	0.469
578.000	362.161	79.992	19.996	102.948	17.816	173.189	0.373
580.000	363.193	79.993	19.995	103.053	17.709	181.697	0.614
582.000	364.069	79.994	19.995	103.412	17.527	196.574	0.687
584.000	365.247	79.993	19.996	103.571	17.396	207.098	0.636
586.000	366.178	79.993	19.996	103.287	17.328	212.067	0.480
588.000	367.244	79.994	19.995	102.922	17.270	216.543	0.556
590.000	368.279	79.994	19.995	102.896	17.206	221.360	0.526
592.000	369.309	79.993	19.995	103.102	17.134	227.003	0.541
594.000	370.366	79.994	19.995	103.327	17.079	231.337	0.551
596.000	371.410	79.993	19.996	103.249	17.044	234.137	0.511
598.000	372.530	79.995	19.995	103.105	17.032	235.226	0.542
600.000	373.587	79.993	19.995	103.031	17.053	233.788	0.538
602.000	374.758	79.994	19.997	103.019	17.108	229.493	0.597
604.000	375.808	79.994	19.997	103.005	17.188	223.083	0.571
606.000	376.921	79.993	19.997	103.005	17.276	216.127	0.550
608.000	378.005	79.994	19.998	103.065	17.351	210.119	0.553
610.000	379.140	79.992	19.996	103.156	17.422	204.599	0.560
612.000	380.259	79.993	19.995	103.187	17.471	200.739	0.536
614.000	381.296	79.992	19.996	103.190	17.520	196.827	0.540
616.000	382.447	79.994	19.995	103.151	17.566	193.129	0.528
618.000	383.543	79.994	19.996	103.107	17.603	190.235	0.564
620.000	384.640	79.994	19.995	103.100	17.644	186.964	0.546
622.000	385.710	79.994	19.995	103.098	17.684	183.859	0.524
624.000	386.771	79.994	19.994	103.093	17.730	180.243	0.560
626.000	387.884	79.994	19.994	103.070	17.774	176.775	0.570
628.000	388.906	79.993	19.995	103.056	17.829	172.435	0.517
630.000	389.974	79.995	19.995	103.049	17.887	167.841	0.523
632.000	391.027	79.994	19.994	103.037	17.948	163.032	0.540
634.000	392.134	79.993	19.995	103.036	18.012	157.968	0.549
636.000	393.169	79.994	19.995	103.032	18.081	152.596	0.518
638.000	394.278	79.993	19.995	103.022	18.158	146.523	0.539
640.000	395.288	79.994	19.994	103.011	18.235	140.462	0.521
642.000	396.364	79.994	19.995	102.999	18.313	134.320	0.541
644.000	397.421	79.996	19.994	102.994	18.391	128.124	0.530
646.000	398.448	79.996	19.994	102.984	18.471	121.910	0.532
648.000	399.518	79.996	19.995	102.982	18.559	114.994	0.540
650.000	400.534	79.998	19.994	102.967	18.634	109.033	0.469
652.000	401.591	79.997	19.994	102.949	18.718	102.493	0.516
654.000	402.613	79.997	19.994	102.942	18.795	96.411	0.512
656.000	403.690	79.994	19.995	102.941	18.868	90.686	0.523
658.000	404.676	79.996	19.996	102.939	18.943	84.779	0.476
660.000	405.711	79.994	19.997	102.936	19.020	78.727	0.527
662.000	406.731	79.993	19.996	102.929	19.088	73.377	0.498
664.000	407.780	79.992	19.996	102.911	19.157	67.934	0.506
666.000	408.784	79.993	19.996	102.906	19.219	63.121	0.498
668.000	409.786	79.992	19.995	102.902	19.283	58.090	0.469
670.000	410.824	79.994	19.997	102.900	19.344	53.262	0.510
672.000	411.841	79.995	19.993	102.896	19.396	49.186	0.500
674.000	412.905	79.993	19.995	102.896	19.449	45.081	0.512
676.000	413.873	79.994	19.996	102.888	19.500	41.077	0.476
678.000	414.905	79.994	19.995	102.883	19.548	37.294	0.525
680.000	415.896	79.994	19.996	102.882	19.588	34.102	0.486
682.000	416.904	79.995	19.997	102.879	19.629	30.949	0.508
684.000	417.909	79.993	19.995	102.872	19.665	28.084	0.496
686.000	418.893	79.995	19.996	102.875	19.699	25.430	0.500
688.000	419.930	79.993	19.995	102.885	19.732	22.817	0.506
690.000	420.931	79.988	19.998	102.869	19.756	20.956	0.474
692.000	421.955	79.993	19.996	102.868	19.782	18.886	0.510
694.000	422.936	79.994	19.996	102.867	19.809	16.818	0.493
696.000	423.948	79.993	19.998	102.867	19.825	15.507	0.497
698.000	424.931	79.993	19.996	102.870	19.851	13.533	0.507
700.000	425.935	79.994	19.996	102.868	19.865	12.418	0.537
702.000	426.935	79.993	19.995	102.867	19.882	11.036	0.501
704.000	427.964	79.994	19.994	102.868	19.894	10.103	0.491
706.000	428.979	79.996	19.994	102.865	19.907	9.078	0.499
708.000	430.002	79.995	19.995	102.865	19.918	8.204	0.493
710.000	430.949	79.994	19.996	102.866	19.928	7.470	0.509
712.000	431.977	79.995	19.995	102.859	19.936	6.825	0.515
714.000	432.937	79.995	19.996	102.858	19.944	6.207	0.472
716.000	434.008	79.995	19.995	102.862	19.946	6.003	0.529
718.000	435.023	79.994	19.995	102.858	19.956	5.290	0.530
720.000	436.004	79.995	19.996	102.859	19.960	4.933	0.491
722.000	437.069	79.995	19.996	102.862	19.964	4.624	0.544
724.000	438.020	79.994	19.994	102.865	19.966	4.489	0.488
726.000	439.024	79.995	19.994	102.862	19.969	4.231	0.487
728.000	440.034	79.997	19.995	102.855	19.967	4.432	0.475
730.000	441.039	79.997	19.994	102.858	19.973	3.929	0.482
732.000	442.028	79.997	19.994	102.861	19.972	3.987	0.472
734.000	443.035	79.997	19.995	102.861	19.975	3.753	0.489
736.000	444.050	79.996	19.994	102.861	19.977	3.642	0.465
738.000	445.065	79.996	19.995	102.862	19.979	3.432	0.540
740.000	446.073	79.996	19.994	102.862	19.977	3.575	0.483
742.000	447.036	79.995	19.994	102.866	19.979	3.421	0.474
744.000	448.033	79.995	19.996	102.865	19.982	3.237	0.517
746.000	449.089	79.993	19.994	102.866	19.981	3.291	0.509
748.000	450.106	79.993	19.994	102.866	19.978	3.543	0.526
750.000	451.156	79.994	19.997	102.865	19.981	3.312	0.524
752.000	452.134	79.994	19.995	102.866	19.980	3.389	0.524
754.000	453.148	79.994	19.995	102.865	19.981	3.303	0.506
756.000	454.245	79.995	19.998	102.865	19.980	3.366	0.549
758.000	455.284	79.996	19.993	102.863	19.980	3.340	0.562
760.000	456.278	79.993	19.996	102.865	19.980	3.413	0.518
762.000	457.269	79.994	19.995	102.866	19.980	3.364	0.481
764.000	458.312	79.993	19.995	102.864	19.978	3.492	0.528
766.000	459.364	79.992	19.995	102.861	19.980	3.396	0.541
768.000	460.367	79.993	19.995	102.867	19.977	3.612	0.521
770.000	461.375	79.992	19.996	102.865	19.980	3.404	0.515
772.000	462.382	79.992	19.997	102.866	19.982	3.216	0.496
774.000	463.423	79.993	19.994	102.867	19.980	3.359	0.480
776.000	464.412	79.995	19.995	102.867	19.980	3.363	0.495
778.000	465.407	79.993	19.995	102.864	19.981	3.263	0.523
780.000	466.438	79.992	19.997	102.861	19.980	3.342	0.513
782.000	467.463	79.993	19.993	102.865	19.980	3.406	0.518
784.000	468.458	79.996	19.996	102.862	19.983	3.166	0.494
786.000	469.470	79.994	19.994	102.858	19.979	3.436	0.499
788.000	470.538	79.992	19.997	102.863	19.981	3.312	0.531
790.000	471.511	79.995	19.997	102.854	19.982	3.243	0.474
792.000	472.508	79.996	19.996	102.861	19.984	3.034	0.509
794.000	473.498	79.993	19.994	102.864	19.983	3.130	0.484
796.000	474.544	79.993	19.994	102.863	19.985	2.980	0.518
798.000	475.560	79.995	19.995	102.860	19.985	2.999	0.514
800.000	476.570	79.996	19.994	102.857	19.983	3.139	0.524
802.000	477.571	79.994	19.996	102.859	19.983	3.115	0.529
804.000	478.549	79.995	19.994	102.862	19.984	3.051	0.530
806.000	479.590	79.994	19.995	102.861	19.983	3.126	0.494
808.000	480.614	79.995	19.994	102.852	19.981	3.282	0.506
810.000	481.623	79.995	19.997	102.857	19.982	3.246	0.501
812.000	482.604	79.993	19.996	102.861	19.981	3.271	0.497
814.000	483.599	79.996	19.995	102.856	19.981	3.304	0.483
816.000	484.595	79.996	19.994	102.861	19.979	3.436	0.477
818.000	485.615	79.995	19.994	102.862	19.984	3.094	0.485
820.000	486.646	79.995	19.993	102.862	19.982	3.233	0.515
822.000	487.636	79.992	19.994	102.860	19.983	3.145	0.511
824.000	488.645	79.995	19.993	102.864	19.981	3.282	0.500
826.000	489.681	79.991	19.993	102.862	19.984	3.083	0.518
828.000	490.669	79.992	19.993	102.861	19.984	3.074	0.499
830.000	491.707	79.993	19.994	102.862	19.984	3.027	0.527
832.000	492.720	80.001	19.992	102.859	19.986	2.916	0.516
834.000	493.756	79.996	19.993	102.858	19.986	2.942	0.498
836.000	494.795	79.994	19.995	102.863	19.989	2.683	0.539
838.000	495.845	79.995	19.995	102.861	19.988	2.753	0.506
840.000	496.871	79.995	19.995	102.860	19.989	2.655	0.539
842.000	497.891	79.995	19.995	102.857	19.989	2.706	0.520
844.000	498.896	79.992	19.996	102.863	19.989	2.652	0.512
846.000	499.881	79.990	19.999	102.859	19.989	2.704	0.509
848.000	500.940	79.995	19.995	102.858	19.989	2.631	0.523
850.000	501.930	79.995	19.994	102.864	19.989	2.638	0.480
852.000	502.974	79.994	19.994	102.858	19.984	3.059	0.521
854.000	504.019	79.991	20.000	102.858	19.983	3.158	0.532
856.000	504.994	79.990	20.000	102.856	19.983	3.173	0.524
858.000	506.060	79.993	19.994	102.852	19.985	3.012	0.486
860.000	507.059	79.981	20.009	102.861	19.981	3.276	0.497
862.000	508.094	79.995	19.994	102.859	19.982	3.222	0.515
864.000	509.142	79.994	19.996	102.863	19.979	3.425	0.506
866.000	510.127	79.988	20.001	102.860	19.982	3.216	0.534
868.000	511.163	79.998	19.997	102.857	19.982	3.239	0.516
870.000	512.194	79.989	20.005	102.862	19.981	3.316	0.508
872.000	513.245	79.993	19.997	102.860	19.977	3.633	0.532
874.000	514.307	79.996	19.994	102.853	19.980	3.413	0.510
876.000	515.346	79.996	19.996	102.864	19.982	3.222	0.542
878.000	516.405	79.994	19.996	102.862	19.981	3.274	0.545
880.000	517.450	79.993	19.995	102.855	19.983	3.111	0.539
882.000	518.471	79.997	19.991	102.855	19.981	3.265	0.515
884.000	519.536	79.995	19.995	102.858	19.983	3.139	0.555
886.000	520.586	79.985	19.996	102.861	19.982	3.222	0.543
888.000	521.636	79.994	19.997	102.863	19.986	2.918	0.533
890.000	522.695	79.993	19.999	102.862	19.984	3.051	0.524
892.000	523.708	79.999	19.992	102.854	19.983	3.145	0.534
894.000	524.810	79.999	19.991	102.858	19.984	3.089	0.515
896.000	525.858	79.993	19.993	102.861	19.981	3.306	0.506
898.000	526.931	79.995	19.992	102.858	19.982	3.237	0.541
900.000	527.959	79.993	19.995	102.860	19.980	3.393	0.557
902.000	529.029	79.995	19.996	102.862	19.982	3.209	0.551
904.000	530.074	79.994	19.995	102.849	19.980	3.378	0.530
906.000	531.141	79.998	19.990	102.853	19.979	3.447	0.544
908.000	532.150	79.995	19.994	102.864	19.982	3.254	0.493
910.000	533.224	79.994	19.989	102.855	19.983	3.172	0.506
912.000	534.302	79.993	19.994	102.861	19.984	3.072	0.543
914.000	535.360	79.992	19.997	102.857	19.983	3.149	0.543
916.000	536.408	79.993	19.997	102.858	19.982	3.185	0.528
918.000	537.455	79.993	19.994	102.856	19.983	3.113	0.526
920.000	538.464	79.990	19.995	102.847	19.981	3.308	0.486
922.000	539.554	79.996	19.994	102.849	19.980	3.380	0.544
924.000	540.567	79.997	19.993	102.856	19.984	3.064	0.531
926.000	541.609	79.992	20.000	102.856	19.984	3.081	0.562
928.000	542.643	79.995	19.997	102.850	19.983	3.126	0.525
930.000	543.686	79.993	19.998	102.859	19.983	3.162	0.515
932.000	544.680	79.996	19.994	102.846	19.985	3.016	0.496
934.000	545.698	79.993	19.997	102.848	19.985	2.989	0.521
936.000	546.730	79.990	19.993	102.860	19.985	2.986	0.484
938.000	547.767	79.992	20.001	102.860	19.983	3.123	0.512
940.000	548.768	79.995	19.993	102.851	19.984	3.020	0.505
942.000	549.830	79.994	19.995	102.855	19.985	3.014	0.516
944.000	550.858	79.995	19.991	102.852	19.985	2.995	0.511
946.000	551.860	79.994	19.996	102.857	19.983	3.121	0.494
948.000	552.848	79.996	19.995	102.854	19.982	3.223	0.478
950.000	553.887	79.991	19.995	102.853	19.982	3.189	0.510
952.000	554.872	79.995	19.995	102.851	19.981	3.288	0.497
954.000	555.903	79.994	19.998	102.858	19.984	3.064	0.516
956.000	556.909	79.993	19.994	102.858	19.982	3.192	0.506
958.000	557.892	79.995	19.997	102.835	19.982	3.194	0.489
960.000	558.828	79.993	20.000	102.837	19.986	2.873	0.472
962.000	559.858	79.994	19.996	102.845	19.984	3.097	0.491
964.000	560.814	79.994	19.997	102.854	19.986	2.922	0.490
966.000	561.808	79.994	19.997	102.866	19.985	2.988	0.520
968.000	562.824	79.992	19.993	102.857	19.985	2.978	0.513
970.000	563.794	79.996	19.996	102.848	19.985	3.010	0.492
972.000	564.804	79.995	19.995	102.837	19.984	3.046	0.489
974.000	565.813	80.000	19.994	102.844	19.983	3.157	0.514
976.000	566.807	79.995	19.993	102.848	19.984	3.059	0.518
978.000	567.814	79.999	19.994	102.837	19.984	3.024	0.516
980.000	568.867	80.000	19.991	102.852	19.983	3.149	0.519
982.000	569.874	79.996	19.998	102.841	19.980	3.342	0.522
984.000	570.886	79.991	20.003	102.834	19.981	3.333	0.544
986.000	571.915	80.000	19.995	102.836	19.979	3.427	0.507
988.000	572.962	79.991	19.995	102.833	19.977	3.587	0.539
990.000	574.043	79.994	19.995	102.848	19.981	3.333	0.527
992.000	575.085	79.996	19.996	102.852	19.979	3.468	0.519
994.000	576.132	79.998	19.992	102.844	19.980	3.380	0.552
996.000	577.136	79.993	19.994	102.842	19.982	3.235	0.514
998.000	578.183	79.992	20.000	102.841	19.981	3.273	0.518
1000.000	579.228	79.990	19.996	102.848	19.980	3.378	0.563
1002.000	580.261	79.994	19.994	102.858	19.980	3.339	0.514
1004.000	581.330	79.995	19.994	102.860	19.977	3.581	0.530
1006.000	582.380	79.996	19.995	102.849	19.980	3.369	0.508
1008.000	583.439	79.993	19.997	102.843	19.982	3.249	0.521
1010.000	584.483	79.995	19.994	102.838	19.980	3.368	0.509
1012.000	585.520	79.993	19.993	102.839	19.980	3.404	0.535
1014.000	586.596	79.990	20.000	102.852	19.975	3.793	0.507
1016.000	587.658	79.991	19.995	102.849	19.981	3.316	0.533
1018.000	588.633	79.988	19.993	102.845	19.981	3.256	0.510
1020.000	589.705	79.991	19.996	102.851	19.982	3.215	0.511
1022.000	590.731	79.994	19.993	102.863	19.983	3.151	0.478
1024.000	591.786	79.994	19.994	102.847	19.981	3.290	0.543
1026.000	592.840	79.992	19.994	102.853	19.982	3.236	0.494
1027.999	593.866	79.992	19.991	102.857	19.981	3.279	0.493
1029.999	594.927	79.998	19.992	102.844	19.983	3.127	0.531
1031.999	595.978	79.995	20.002	102.845	19.985	2.992	0.508
1033.999	597.030	79.995	19.998	102.840	19.980	3.343	0.537
1035.999	598.032	79.996	19.996	102.838	19.982	3.194	0.508
1037.999	599.074	79.991	19.999	102.839	19.983	3.164	0.534
1039.999	600.097	79.998	19.994	102.834	19.982	3.250	0.493
1041.999	601.137	79.989	19.999	102.835	19.981	3.296	0.516
1043.999	602.156	79.989	19.999	102.829	19.980	3.378	0.497
1046.000	603.183	79.995	19.995	102.841	19.978	3.525	0.517
1047.999	604.171	79.993	19.996	102.838	19.980	3.395	0.499
1049.999	605.200	79.993	20.001	102.843	19.982	3.249	0.486
1051.999	606.265	79.996	19.999	102.839	19.981	3.264	0.522
1053.999	607.283	79.995	19.993	102.836	19.979	3.446	0.533
1055.999	608.253	79.995	19.998	102.840	19.980	3.362	0.516
1057.999	609.288	79.995	19.992	102.843	19.981	3.275	0.515
1059.999	610.280	79.993	19.995	102.837	19.975	3.761	0.507
1062.000	611.327	79.992	19.998	102.831	19.980	3.390	0.520
1063.999	612.410	79.991	19.997	102.841	19.977	3.609	0.503
1065.999	613.398	79.996	19.997	102.829	19.978	3.555	0.509
1067.999	614.447	79.994	19.993	102.843	19.980	3.352	0.507
1069.999	615.479	79.994	19.993	102.854	19.983	3.117	0.529
1072.000	616.459	79.993	19.994	102.840	19.984	3.046	0.530
1073.999	617.511	79.992	19.995	102.835	19.983	3.151	0.525
1075.999	618.550	79.991	19.996	102.835	19.981	3.273	0.515
1077.999	619.554	79.987	20.006	102.837	19.981	3.288	0.515
1079.999	620.590	79.994	19.994	102.845	19.982	3.198	0.497
1081.999	621.577	79.992	19.996	102.836	19.978	3.493	0.489
1083.999	622.620	79.995	19.995	102.834	19.983	3.151	0.523
1085.999	623.673	79.995	19.992	102.858	19.981	3.327	0.518
1087.999	624.694	79.994	19.994	102.853	19.983	3.170	0.502
1090.000	625.721	79.993	19.995	102.843	19.989	2.676	0.536
1091.999	626.725	79.993	19.994	102.842	19.986	2.931	0.507
1093.999	627.763	79.996	19.995	102.836	19.980	3.348	0.525
1095.999	628.780	79.992	19.996	102.854	19.985	3.012	0.542
1097.999	629.777	79.994	19.995	102.854	19.983	3.108	0.540
1099.999	630.814	79.992	19.996	102.849	19.983	3.162	0.535
1101.999	631.844	79.995	19.994	102.848	19.983	3.140	0.519
1103.999	632.881	79.997	19.996	102.844	19.980	3.335	0.478
1105.999	633.927	79.992	19.993	102.834	19.982	3.210	0.503
1107.999	634.921	79.989	19.994	102.838	19.982	3.232	0.492
1109.999	635.952	79.996	19.995	102.845	19.981	3.307	0.513
1111.999	636.971	79.994	19.995	102.840	19.982	3.204	0.477
1113.999	638.024	79.995	19.993	102.838	19.979	3.431	0.535
1115.999	639.018	79.997	19.999	102.833	19.977	3.587	0.519
1117.999	640.005	79.993	19.994	102.828	19.982	3.187	0.511
1119.999	640.983	79.994	19.995	102.835	19.980	3.391	0.521
1121.999	642.011	79.999	19.993	102.836	19.978	3.545	0.503
1123.999	643.025	79.995	19.995	102.831	19.980	3.408	0.492
1125.999	644.000	79.995	19.992	102.829	19.981	3.290	0.486
1127.999	644.989	79.993	19.996	102.828	19.980	3.362	0.482
1130.000	645.999	79.993	19.995	102.831	19.981	3.279	0.499
1131.999	647.016	79.992	19.998	102.843	19.984	3.084	0.496
1133.999	648.014	79.992	19.994	102.836	19.981	3.266	0.485
1135.999	649.013	79.994	19.993	102.838	19.982	3.178	0.509
1137.999	650.051	79.993	19.995	102.831	19.980	3.339	0.500
1139.999	651.066	79.995	20.000	102.831	19.981	3.298	0.531
1141.999	652.085	79.996	19.989	102.834	19.985	2.986	0.504
1143.999	653.076	79.992	19.998	102.833	19.983	3.127	0.500
1145.999	654.124	79.998	19.999	102.834	19.977	3.572	0.496
1147.999	655.172	79.991	19.999	102.834	19.983	3.110	0.549
1149.999	656.161	79.993	19.995	102.840	19.980	3.367	0.483
1151.999	657.186	79.988	19.999	102.832	19.981	3.257	0.539
1153.999	658.223	79.991	19.997	102.829	19.982	3.181	0.527
1155.999	659.257	79.993	19.995	102.829	19.980	3.363	0.497
1157.999	660.278	79.994	19.994	102.828	19.981	3.319	0.522
1159.999	661.278	79.993	19.995	102.836	19.980	3.337	0.495
1161.999	662.280	79.995	19.995	102.830	19.982	3.247	0.506
1163.999	663.285	79.993	19.994	102.828	19.985	2.981	0.500
1165.999	664.312	79.998	19.996	102.840	19.982	3.234	0.510
1168.000	665.299	79.991	19.997	102.829	19.984	3.033	0.480
1170.000	666.304	79.994	19.998	102.827	19.980	3.382	0.515
1171.999	667.303	79.995	19.996	102.827	19.979	3.418	0.501
1173.999	668.290	79.992	19.996	102.828	19.979	3.424	0.492
1176.000	669.328	79.994	19.995	102.828	19.982	3.225	0.527
1177.999	670.330	79.996	19.995	102.830	19.984	3.033	0.486
1179.999	671.326	79.992	19.995	102.826	19.985	2.988	0.507
1181.999	672.337	79.992	19.996	102.830	19.986	2.902	0.505
1183.999	673.369	79.995	19.996	102.829	19.984	3.058	0.498
1185.999	674.386	79.990	19.998	102.830	19.985	2.958	0.517
1187.999	675.411	79.994	19.995	102.828	19.978	3.553	0.520
1189.999	676.403	79.994	19.995	102.828	19.980	3.384	0.496
1191.999	677.446	79.996	19.995	102.835	19.979	3.422	0.527
1193.999	678.447	79.995	19.994	102.828	19.980	3.337	0.521
1195.999	679.503	79.995	19.994	102.835	19.977	3.636	0.527
1197.999	680.401	79.995	19.995	102.834	19.980	3.390	0.487
1199.999	681.466	79.996	19.998	102.827	19.977	3.645	0.507
1202.000	682.439	79.989	19.997	102.830	19.978	3.508	0.473
1203.999	683.464	79.992	19.995	102.829	19.975	3.760	0.490
1205.999	684.447	79.995	19.993	102.823	19.977	3.572	0.511
1207.999	685.463	79.993	19.997	102.832	19.977	3.645	0.536
1209.999	686.466	79.995	19.997	102.835	19.980	3.411	0.481
1211.999	687.435	79.998	19.998	102.830	19.980	3.358	0.514
1213.999	688.392	79.996	20.000	102.825	19.980	3.411	0.466
1215.999	689.328	79.993	20.001	102.825	19.981	3.262	0.472
1217.999	690.345	79.995	19.997	102.825	19.979	3.471	0.502
1219.999	691.269	80.002	19.994	102.824	19.985	2.956	0.497
1221.999	692.199	80.001	19.993	102.825	19.980	3.403	0.457
1223.999	693.203	79.995	19.997	102.826	19.979	3.476	0.505
1225.999	694.099	79.995	19.996	102.822	19.981	3.279	0.428
1227.999	695.126	79.994	19.996	102.823	19.979	3.442	0.490
1229.999	696.083	79.995	19.997	102.823	19.978	3.561	0.523
1231.999	697.068	79.994	19.995	102.826	19.983	3.129	0.465
1233.999	697.994	79.994	19.996	102.824	19.978	3.525	0.463
1235.999	699.006	79.989	19.994	102.828	19.979	3.478	0.476
1238.000	700.045	79.994	19.995	102.831	19.980	3.386	0.532
1240.000	701.053	79.993	19.998	102.827	19.980	3.345	0.493
1241.999	702.125	79.993	19.996	102.823	19.979	3.437	0.523
1243.999	703.135	79.996	19.993	102.824	19.980	3.358	0.528
1245.999	704.129	79.994	19.997	102.841	19.979	3.442	0.507
1247.999	705.210	79.992	19.996	102.828	19.980	3.365	0.521
1249.999	706.234	79.994	19.995	102.823	19.978	3.523	0.516
1251.999	707.299	79.995	19.995	102.828	19.978	3.523	0.464
1254.001	708.369	79.995	19.995	102.832	19.978	3.538	0.527
1256.000	709.412	79.993	19.996	102.833	19.978	3.497	0.516
1257.999	710.494	79.995	19.995	102.829	19.978	3.532	0.517
1259.999	711.572	79.992	19.996	102.836	19.979	3.480	0.555
1261.999	712.632	79.993	19.996	102.828	19.978	3.527	0.516
1264.000	713.701	79.993	19.995	102.836	19.980	3.345	0.509
1265.999	714.778	79.994	19.994	102.832	19.978	3.557	0.528
1267.999	715.839	79.994	19.996	102.832	19.978	3.516	0.513
1270.000	716.902	79.995	19.996	102.839	19.981	3.332	0.533
1271.999	717.978	79.995	19.994	102.839	19.978	3.528	0.545
1273.999	719.043	79.995	19.995	102.837	19.974	3.866	0.516
1275.999	720.120	79.995	19.996	102.832	19.975	3.799	0.517
1277.999	721.192	79.995	19.996	102.827	19.977	3.589	0.550
1279.999	722.259	79.996	19.994	102.828	19.976	3.653	0.525
1281.999	723.258	79.993	19.994	102.835	19.975	3.750	0.506
1283.999	724.343	79.995	19.994	102.845	19.977	3.640	0.551
1285.999	725.347	79.994	19.995	102.837	19.975	3.797	0.482
1287.999	726.372	79.995	19.995	102.830	19.975	3.782	0.507
1289.999	727.412	79.994	19.995	102.827	19.973	3.918	0.515
1291.999	728.432	79.995	19.994	102.825	19.970	4.189	0.510
1293.999	729.501	79.996	19.995	102.825	19.976	3.683	0.490
1295.999	730.542	79.996	19.994	102.830	19.973	3.953	0.521
1297.999	731.552	79.997	19.996	102.848	19.975	3.782	0.524
1299.999	732.602	79.997	19.996	102.848	19.974	3.844	0.517
1301.999	733.648	79.995	19.995	102.851	19.976	3.707	0.519
1303.999	734.680	79.994	19.997	102.835	19.975	3.748	0.492
1306.000	735.672	79.996	19.996	102.825	19.975	3.760	0.480
1307.999	736.690	79.996	19.997	102.827	19.976	3.679	0.516
1309.999	737.758	79.996	19.996	102.823	19.977	3.643	0.532
1311.999	738.753	79.996	19.997	102.825	19.975	3.780	0.527
1313.999	739.774	79.994	19.997	102.828	19.975	3.784	0.498
1315.999	740.795	79.995	19.995	102.830	19.974	3.854	0.535
1317.999	741.832	79.993	19.996	102.825	19.975	3.726	0.501
1319.999	742.869	79.995	19.995	102.827	19.975	3.786	0.491
1321.499	743.604	79.993	19.996	102.826	19.977	3.606	0.504