File: 01_Data/PMMA_R06/MCC/PMMA_R06_MCC_30K_min_211015_R3.txt
Sample ID:	C:\MCC\MCC Cal\Test\PMMA_R06_MCC_30K_min_211015_R3.txt
Sample Weight (mg):	4.86
Heating Rate (C/s):	0.5
Combustor Temp (C):	900
N2 Flow Rate (cc/min):	80
O2 Flow Rate (cc/min):	20
Calibration File:	C:\MCC\MCC Cal\Coeff1 JN10440_30_210304.txt.txt
T Correction Coefficients:	0	1.024463	0
Time Shift (s):	14
*
Time (s)	Temperature (C)	N2 flow rate (cc/min)	O2 flow rate (cc/min)	Flow Rate (cc/min)	Oxygen (%)	HRR (W/g)	Heating rate (C/s)
0.000	108.474	79.990	19.999	102.709	20.015	0.076	0.015
2.000	108.423	79.991	19.999	102.722	20.016	0.043	0.002
4.000	108.435	79.996	19.994	102.710	20.015	0.090	0.018
6.000	108.424	79.994	19.996	102.715	20.013	0.236	0.012
8.000	108.395	79.994	19.995	102.721	20.013	0.203	-0.030
10.000	108.441	79.996	19.995	102.735	20.012	0.310	0.005
12.000	108.463	79.997	19.994	102.746	20.009	0.502	0.005
14.000	108.431	79.994	19.994	102.750	20.008	0.563	0.022
16.000	108.496	79.996	19.995	102.762	20.009	0.475	0.044
18.000	108.483	79.995	19.995	102.755	20.007	0.587	0.023
20.000	108.516	79.998	19.995	102.745	20.007	0.639	0.021
22.000	108.591	79.994	19.997	102.750	20.010	0.425	0.052
24.000	108.649	79.997	19.994	102.748	20.008	0.528	0.033
26.000	108.692	79.997	19.996	102.746	20.003	0.858	0.037
28.000	108.766	79.993	19.998	102.777	20.004	0.809	0.044
30.000	108.889	79.993	19.994	102.810	20.004	0.795	0.071
32.000	109.008	79.996	19.997	102.846	19.996	1.321	0.055
34.000	109.135	79.993	19.996	102.852	19.994	1.471	0.072
36.000	109.321	79.995	19.994	102.858	19.992	1.617	0.083
38.000	109.482	79.989	20.001	102.870	19.989	1.776	0.068
40.000	109.719	79.998	19.990	102.894	19.988	1.881	0.120
42.000	109.958	79.993	19.991	102.900	19.986	2.001	0.115
44.001	110.220	79.994	19.996	102.913	19.984	2.131	0.155
46.000	110.504	79.991	19.994	102.924	19.979	2.470	0.129
48.000	110.870	79.996	19.995	102.915	19.982	2.268	0.167
50.000	111.183	79.994	19.994	102.918	19.978	2.524	0.185
52.000	111.553	79.996	19.995	102.941	19.979	2.438	0.194
54.000	111.942	79.997	19.994	102.941	19.979	2.456	0.230
56.000	112.378	79.996	19.996	102.942	19.979	2.481	0.234
58.000	112.817	79.993	19.994	102.940	19.977	2.607	0.248
60.000	113.281	79.994	19.995	102.943	19.975	2.734	0.251
62.000	113.789	79.995	19.994	102.946	19.976	2.649	0.278
64.000	114.238	79.994	19.995	102.943	19.977	2.571	0.229
66.000	114.783	79.995	19.995	102.947	19.973	2.872	0.280
68.000	115.323	79.995	19.994	102.947	19.977	2.622	0.291
70.000	115.868	79.994	19.995	102.951	19.976	2.645	0.276
72.000	116.464	79.995	19.996	102.950	19.974	2.813	0.297
74.001	117.068	79.992	19.998	102.948	19.974	2.817	0.294
76.000	117.646	79.995	19.994	102.947	19.972	2.939	0.268
78.000	118.306	79.997	19.994	102.946	19.973	2.887	0.324
80.001	118.910	79.997	19.994	102.955	19.971	2.997	0.329
82.000	119.520	79.997	19.994	102.950	19.972	2.941	0.284
84.000	120.247	79.996	19.996	102.943	19.971	2.990	0.343
86.000	120.932	79.995	19.995	102.951	19.967	3.248	0.354
88.000	121.608	79.994	19.995	102.961	19.967	3.261	0.354
90.000	122.325	79.995	19.996	102.963	19.968	3.214	0.369
92.000	123.048	79.995	19.996	102.960	19.970	3.086	0.371
94.000	123.770	79.994	19.995	102.965	19.967	3.279	0.379
96.000	124.491	79.996	19.997	102.968	19.967	3.256	0.372
98.000	125.246	79.995	19.996	102.974	19.967	3.239	0.363
100.000	126.025	79.998	19.996	102.971	19.969	3.088	0.394
102.000	126.803	79.998	19.995	102.965	19.972	2.928	0.399
104.000	127.602	79.998	19.994	102.975	19.972	2.908	0.383
106.000	128.365	79.996	19.995	102.973	19.972	2.906	0.374
108.000	129.181	79.995	19.996	102.973	19.973	2.864	0.395
110.000	130.034	79.994	19.996	102.976	19.969	3.098	0.428
112.000	130.867	79.995	19.993	102.977	19.970	3.039	0.428
114.000	131.696	79.994	19.995	102.981	19.972	2.936	0.398
116.000	132.601	79.994	19.996	102.980	19.969	3.143	0.433
118.000	133.434	79.993	19.997	102.978	19.969	3.118	0.433
120.001	134.326	79.994	19.996	102.965	19.970	3.033	0.451
122.000	135.169	79.994	19.994	102.967	19.971	2.960	0.443
124.000	136.014	79.995	19.996	102.971	19.968	3.175	0.398
126.000	136.902	79.995	19.996	102.958	19.969	3.113	0.417
128.000	137.788	79.996	19.997	102.965	19.970	3.084	0.456
130.000	138.625	79.994	19.996	102.967	19.971	3.012	0.410
132.000	139.536	79.994	19.995	102.958	19.970	3.066	0.449
134.000	140.447	79.996	19.995	102.978	19.969	3.138	0.446
136.000	141.314	79.993	19.997	102.978	19.971	2.976	0.450
138.000	142.262	79.993	19.995	102.981	19.973	2.884	0.469
140.000	143.160	79.993	19.997	102.975	19.969	3.137	0.470
142.000	144.059	79.993	19.996	102.977	19.968	3.156	0.462
144.000	145.043	79.995	19.996	102.975	19.972	2.917	0.477
146.000	145.955	79.991	19.996	102.974	19.971	3.019	0.465
148.000	146.885	79.994	19.996	102.971	19.970	3.066	0.483
150.000	147.859	79.994	19.997	102.975	19.967	3.283	0.463
152.000	148.807	79.996	19.995	102.971	19.969	3.095	0.467
154.000	149.790	79.997	19.995	102.973	19.968	3.156	0.501
156.000	150.726	79.995	19.995	102.974	19.967	3.272	0.436
158.000	151.709	79.995	19.994	102.971	19.968	3.171	0.457
160.000	152.697	79.997	19.994	102.960	19.963	3.519	0.509
162.000	153.597	79.993	19.996	102.972	19.969	3.104	0.492
164.000	154.551	79.996	19.996	102.959	19.969	3.095	0.460
166.000	155.527	79.996	19.995	102.969	19.972	2.946	0.485
168.000	156.490	79.998	19.995	102.967	19.971	2.986	0.477
170.000	157.471	79.996	19.996	102.960	19.971	2.985	0.478
172.000	158.455	79.996	19.995	102.971	19.971	3.004	0.481
174.000	159.429	79.996	19.991	102.970	19.973	2.833	0.484
176.000	160.417	79.997	19.995	102.953	19.972	2.918	0.485
178.000	161.396	79.995	19.997	102.948	19.972	2.894	0.481
180.000	162.417	79.998	19.996	102.948	19.972	2.905	0.464
182.000	163.438	79.998	19.995	102.955	19.971	2.988	0.491
184.000	164.445	79.998	19.995	102.954	19.972	2.943	0.512
186.000	165.439	79.996	19.998	102.959	19.970	3.048	0.494
188.000	166.441	79.994	19.997	102.945	19.969	3.118	0.517
190.000	167.430	79.994	19.996	102.944	19.969	3.100	0.495
192.000	168.395	79.994	19.994	102.951	19.969	3.114	0.485
194.000	169.404	79.994	19.995	102.960	19.968	3.199	0.460
196.000	170.414	79.994	19.995	102.958	19.962	3.579	0.508
198.000	171.404	79.997	19.994	102.963	19.964	3.473	0.514
200.000	172.370	79.994	19.995	102.950	19.966	3.303	0.487
202.000	173.394	79.994	19.996	102.952	19.964	3.464	0.498
204.000	174.417	79.995	19.997	102.940	19.964	3.431	0.506
206.000	175.422	79.995	19.996	102.948	19.964	3.459	0.501
208.000	176.462	79.994	19.996	102.947	19.965	3.399	0.499
210.000	177.438	79.996	19.996	102.943	19.965	3.397	0.505
212.000	178.472	79.995	19.996	102.943	19.964	3.419	0.520
214.000	179.481	79.993	19.997	102.940	19.968	3.208	0.523
216.000	180.505	79.995	19.996	102.947	19.969	3.146	0.498
218.000	181.539	79.995	19.995	102.948	19.968	3.190	0.550
220.000	182.539	79.995	19.995	102.940	19.965	3.354	0.522
222.000	183.588	79.995	19.996	102.939	19.964	3.437	0.512
224.000	184.629	79.994	19.994	102.944	19.966	3.325	0.543
226.000	185.629	79.993	19.995	102.939	19.969	3.097	0.519
228.000	186.724	79.994	19.994	102.938	19.967	3.242	0.546
230.000	187.765	79.995	19.997	102.940	19.967	3.227	0.513
232.000	188.757	79.996	19.995	102.937	19.966	3.339	0.521
234.000	189.814	79.995	19.997	102.939	19.964	3.435	0.519
236.000	190.809	79.995	19.997	102.935	19.965	3.366	0.521
238.000	191.862	79.994	19.996	102.930	19.964	3.480	0.527
240.000	192.893	79.996	19.995	102.939	19.965	3.373	0.505
242.000	193.867	79.996	19.996	102.935	19.967	3.256	0.505
244.000	194.951	79.997	19.996	102.938	19.962	3.568	0.519
246.000	195.890	79.995	19.995	102.932	19.968	3.171	0.472
248.000	196.915	79.996	19.994	102.938	19.965	3.409	0.480
250.000	197.916	79.997	19.995	102.939	19.966	3.290	0.489
252.000	198.941	79.994	19.996	102.927	19.963	3.495	0.498
254.000	199.921	79.996	19.995	102.933	19.965	3.374	0.473
256.000	200.940	79.998	19.994	102.930	19.966	3.331	0.503
258.000	201.958	79.996	19.994	102.934	19.966	3.328	0.498
260.000	202.952	79.997	19.997	102.920	19.963	3.490	0.522
262.000	203.950	79.995	19.997	102.910	19.964	3.470	0.520
264.000	204.972	80.001	19.993	102.909	19.964	3.457	0.523
266.000	205.933	79.994	19.996	102.915	19.966	3.342	0.509
268.000	206.970	79.994	19.998	102.930	19.963	3.542	0.522
270.000	208.002	79.993	19.997	102.911	19.963	3.527	0.492
272.000	208.955	79.994	19.999	102.907	19.964	3.426	0.493
274.000	209.966	79.995	19.995	102.901	19.962	3.587	0.490
276.000	210.915	79.990	20.000	102.899	19.965	3.374	0.498
278.000	211.864	79.994	19.997	102.907	19.961	3.670	0.456
280.000	212.889	79.995	19.994	102.899	19.966	3.340	0.491
282.000	213.852	79.989	19.998	102.903	19.963	3.546	0.492
284.000	214.817	79.990	20.002	102.904	19.963	3.522	0.464
286.000	215.811	80.001	19.991	102.900	19.966	3.345	0.480
288.000	216.763	79.995	19.995	102.909	19.959	3.767	0.486
290.000	217.732	79.994	19.999	102.903	19.958	3.814	0.475
292.000	218.675	79.995	19.995	102.913	19.960	3.724	0.468
294.000	219.667	79.996	19.996	102.921	19.955	4.029	0.503
296.000	220.631	79.993	19.994	102.902	19.955	4.029	0.487
298.000	221.605	79.995	19.995	102.904	19.954	4.115	0.494
300.000	222.550	79.993	20.001	102.901	19.955	4.065	0.484
302.000	223.510	79.993	19.994	102.899	19.956	3.950	0.462
304.000	224.472	79.993	19.998	102.906	19.954	4.124	0.495
306.000	225.480	79.997	19.996	102.906	19.954	4.137	0.507
308.000	226.417	79.994	19.996	102.905	19.955	4.014	0.470
310.000	227.369	79.994	19.999	102.914	19.955	4.021	0.480
312.000	228.347	79.994	19.995	102.908	19.955	4.050	0.479
314.000	229.365	79.995	19.994	102.911	19.954	4.140	0.489
316.000	230.346	79.996	19.995	102.903	19.952	4.212	0.495
318.000	231.302	79.994	19.994	102.900	19.956	3.980	0.509
320.000	232.264	79.995	19.995	102.903	19.952	4.260	0.484
322.000	233.256	79.998	19.994	102.906	19.951	4.303	0.481
324.000	234.227	79.995	19.996	102.905	19.953	4.200	0.484
326.000	235.210	79.994	19.995	102.910	19.951	4.335	0.474
328.000	236.222	79.994	19.996	102.896	19.954	4.131	0.497
330.000	237.152	79.994	19.995	102.912	19.951	4.327	0.483
332.000	238.205	79.995	19.999	102.912	19.947	4.571	0.501
334.000	239.127	79.996	19.995	102.908	19.949	4.432	0.497
336.000	240.137	79.997	19.994	102.903	19.946	4.627	0.487
338.000	241.143	79.997	19.994	102.897	19.945	4.688	0.535
340.000	242.106	79.999	19.994	102.898	19.942	4.877	0.507
342.000	243.125	79.998	19.994	102.898	19.942	4.919	0.509
344.000	244.066	79.993	20.001	102.898	19.941	4.968	0.507
346.000	245.071	80.000	19.992	102.897	19.942	4.917	0.496
348.000	246.068	79.994	19.995	102.901	19.936	5.323	0.508
350.000	246.998	79.997	19.994	102.902	19.939	5.130	0.458
352.000	248.033	79.997	19.995	102.902	19.934	5.447	0.473
354.000	249.041	79.995	19.989	102.914	19.934	5.398	0.527
356.000	250.034	79.994	19.997	102.910	19.928	5.849	0.509
358.000	251.052	79.995	19.998	102.905	19.925	6.039	0.491
360.000	252.058	80.001	19.992	102.899	19.923	6.189	0.508
362.000	253.032	79.990	19.998	102.898	19.919	6.390	0.499
364.000	254.034	79.989	20.002	102.902	19.918	6.489	0.485
366.000	255.010	79.988	20.003	102.901	19.913	6.833	0.467
368.000	256.065	79.996	19.995	102.899	19.912	6.914	0.503
370.000	256.967	79.998	19.993	102.886	19.906	7.304	0.471
372.000	257.980	79.997	19.991	102.899	19.896	7.927	0.511
374.000	258.965	79.997	19.995	102.902	19.889	8.396	0.489
376.000	259.959	79.993	19.994	102.903	19.884	8.759	0.522
378.000	260.926	79.994	19.998	102.902	19.877	9.191	0.500
380.000	261.920	79.992	19.996	102.906	19.872	9.557	0.511
382.000	262.940	79.992	19.996	102.904	19.863	10.152	0.508
384.000	263.889	79.993	19.996	102.904	19.855	10.635	0.494
386.000	264.868	79.991	19.996	102.911	19.846	11.232	0.470
388.000	265.848	79.992	19.997	102.905	19.840	11.625	0.497
390.000	266.807	79.995	19.996	102.913	19.832	12.150	0.481
392.000	267.823	79.994	19.996	102.909	19.822	12.862	0.519
394.000	268.812	79.995	20.000	102.904	19.812	13.508	0.505
396.000	269.816	79.995	19.996	102.905	19.801	14.232	0.520
398.000	270.811	79.997	19.995	102.914	19.788	15.090	0.520
400.000	271.822	79.995	19.995	102.900	19.781	15.545	0.506
402.000	272.801	79.994	19.995	102.912	19.769	16.308	0.485
404.000	273.817	79.996	19.992	102.913	19.762	16.815	0.497
406.000	274.755	79.997	19.994	102.918	19.747	17.765	0.472
408.000	275.763	79.994	19.995	102.918	19.735	18.574	0.486
410.000	276.739	79.994	19.996	102.922	19.721	19.490	0.493
412.000	277.746	79.993	19.994	102.901	19.708	20.342	0.515
414.000	278.678	79.995	19.997	102.922	19.695	21.202	0.476
416.000	279.670	79.997	19.996	102.926	19.680	22.219	0.503
418.000	280.651	79.996	19.996	102.931	19.669	22.929	0.495
420.000	281.659	79.996	19.995	102.935	19.657	23.748	0.488
422.000	282.656	79.998	19.994	102.934	19.642	24.699	0.503
424.000	283.615	79.996	19.994	102.937	19.632	25.401	0.527
426.000	284.655	79.996	19.994	102.938	19.622	26.018	0.511
428.000	285.624	79.997	19.994	102.935	19.606	27.087	0.505
430.000	286.609	79.996	19.995	102.937	19.597	27.706	0.492
432.000	287.635	79.995	19.993	102.940	19.587	28.385	0.516
434.000	288.614	79.994	19.995	102.941	19.575	29.161	0.506
436.000	289.598	79.995	19.995	102.936	19.565	29.825	0.471
438.000	290.653	79.995	19.995	102.938	19.557	30.314	0.537
440.000	291.678	79.994	19.996	102.939	19.549	30.862	0.542
442.000	292.680	79.994	19.995	102.934	19.545	31.155	0.501
444.000	293.676	79.994	19.996	102.935	19.540	31.468	0.498
446.000	294.687	79.995	19.994	102.937	19.534	31.839	0.501
448.000	295.710	79.994	19.995	102.942	19.531	32.049	0.506
450.000	296.678	79.994	19.995	102.927	19.531	32.082	0.493
452.000	297.722	79.992	19.996	102.935	19.529	32.215	0.521
454.000	298.700	79.994	19.996	102.932	19.530	32.119	0.512
456.000	299.700	79.993	19.995	102.935	19.530	32.110	0.493
458.000	300.716	79.992	19.993	102.924	19.533	31.927	0.505
460.000	301.693	79.995	19.997	102.924	19.541	31.429	0.472
462.000	302.728	79.993	19.995	102.921	19.546	31.048	0.496
464.000	303.714	79.991	19.999	102.909	19.554	30.566	0.524
466.000	304.753	79.994	19.996	102.911	19.562	30.024	0.494
468.000	305.772	79.993	19.999	102.917	19.567	29.652	0.505
470.000	306.780	79.994	19.995	102.919	19.576	29.068	0.506
472.000	307.812	79.995	19.996	102.927	19.584	28.529	0.512
474.000	308.843	79.995	19.997	102.920	19.590	28.135	0.541
476.000	309.864	79.996	19.996	102.913	19.599	27.535	0.527
478.000	310.915	79.995	19.996	102.913	19.604	27.210	0.538
480.000	311.973	79.994	19.996	102.909	19.610	26.812	0.525
482.000	313.035	79.991	19.999	102.903	19.614	26.584	0.514
484.000	314.046	79.993	20.001	102.902	19.617	26.390	0.503
486.000	315.116	79.994	19.996	102.901	19.615	26.481	0.549
488.000	316.111	79.993	19.998	102.913	19.615	26.501	0.514
490.000	317.160	79.993	19.996	102.918	19.610	26.837	0.517
492.000	318.204	79.997	19.994	102.919	19.610	26.818	0.532
494.000	319.173	79.995	19.996	102.915	19.604	27.220	0.477
496.000	320.264	79.995	19.996	102.925	19.595	27.849	0.529
498.000	321.308	79.998	19.992	102.935	19.586	28.419	0.520
500.000	322.319	79.996	19.995	102.937	19.578	28.947	0.500
502.000	323.336	79.996	19.990	102.938	19.565	29.813	0.483
504.000	324.377	79.996	19.995	102.932	19.558	30.269	0.502
506.000	325.403	79.992	20.002	102.935	19.548	30.929	0.508
508.000	326.460	79.991	19.996	102.937	19.513	33.225	0.520
510.000	327.443	79.991	19.994	102.976	19.483	35.275	0.513
512.000	328.459	79.994	19.989	102.964	19.461	36.672	0.502
514.000	329.469	79.994	19.992	102.922	19.445	37.728	0.498
516.000	330.481	79.990	19.994	102.900	19.429	38.847	0.487
518.000	331.508	79.993	19.995	102.913	19.410	40.063	0.513
520.000	332.568	79.995	19.995	102.951	19.392	41.228	0.536
522.000	333.595	79.995	19.995	102.963	19.374	42.479	0.499
524.000	334.617	79.997	19.995	102.945	19.351	43.978	0.528
526.000	335.633	79.998	19.993	102.957	19.322	45.921	0.506
528.000	336.639	79.995	19.995	102.973	19.296	47.629	0.480
530.000	337.661	79.996	19.993	102.895	19.272	49.230	0.479
532.000	338.652	79.995	19.995	103.012	19.242	51.148	0.474
534.000	339.715	79.995	19.996	102.994	19.208	53.448	0.507
536.000	340.684	79.998	19.992	102.978	19.173	55.737	0.474
538.000	341.704	79.994	19.996	103.006	19.137	58.116	0.518
540.000	342.673	79.995	19.997	102.979	19.098	60.692	0.463
542.000	343.694	79.995	19.999	102.974	19.065	62.893	0.513
544.000	344.668	79.995	19.994	102.975	19.027	65.395	0.526
546.000	345.684	79.995	19.996	102.994	18.985	68.306	0.511
548.000	346.646	79.993	19.997	103.006	18.948	70.753	0.475
550.000	347.645	79.995	19.999	102.986	18.915	72.880	0.508
552.000	348.631	79.994	19.995	102.971	18.887	74.693	0.481
554.000	349.617	79.997	19.995	102.968	18.833	78.270	0.486
556.000	350.608	79.995	19.998	103.052	18.740	84.483	0.477
558.000	351.569	79.990	20.000	103.175	18.652	90.552	0.476
560.000	352.565	79.997	19.996	103.121	18.572	95.858	0.498
562.000	353.573	79.996	19.994	103.037	18.486	101.236	0.516
564.000	354.516	79.995	19.994	102.999	18.396	106.998	0.450
566.000	355.539	79.996	19.996	103.050	18.254	116.676	0.519
568.000	356.536	79.993	19.999	103.218	18.029	131.897	0.516
570.000	357.525	79.995	19.992	103.443	17.856	143.345	0.479
572.000	358.479	79.994	19.989	103.249	17.768	148.467	0.490
574.000	359.461	79.996	19.993	102.856	17.631	157.594	0.484
576.000	360.413	79.996	19.996	102.970	17.463	169.517	0.483
578.000	361.393	79.996	19.997	103.270	17.286	181.559	0.480
580.000	362.388	79.997	19.994	103.502	17.207	185.984	0.491
582.000	363.344	79.997	19.995	103.038	17.173	187.746	0.444
584.000	364.278	79.995	20.000	102.793	17.085	193.822	0.469
586.000	365.250	79.991	19.997	103.134	16.914	205.633	0.475
588.000	366.254	79.993	19.995	103.549	16.805	212.929	0.490
590.000	367.248	79.992	19.992	103.417	16.786	213.698	0.475
592.000	368.234	79.994	19.997	102.904	16.752	215.916	0.500
594.000	369.227	79.993	19.993	102.900	16.704	219.335	0.491
596.000	370.245	79.993	19.998	103.183	16.660	222.278	0.499
598.000	371.250	79.994	19.994	103.344	16.656	222.431	0.526
600.000	372.299	79.998	19.991	103.159	16.661	222.108	0.548
602.000	373.298	79.995	19.990	103.056	16.660	222.200	0.501
604.000	374.331	79.999	19.994	103.132	16.680	220.915	0.475
606.000	375.362	79.995	19.995	103.155	16.708	219.001	0.512
608.000	376.399	79.993	19.996	103.145	16.748	216.300	0.528
610.000	377.446	79.995	19.995	103.100	16.798	213.045	0.530
612.000	378.509	79.996	19.996	103.103	16.849	209.735	0.495
614.000	379.583	79.993	19.994	103.157	16.912	205.547	0.541
616.000	380.683	79.995	19.995	103.130	16.982	200.883	0.555
618.000	381.794	79.989	19.993	103.106	17.057	195.893	0.523
620.000	382.834	79.995	19.994	103.105	17.121	191.510	0.549
622.000	383.948	79.995	19.995	103.140	17.191	186.909	0.560
624.000	385.023	79.992	19.994	103.154	17.259	182.558	0.560
626.000	386.079	79.994	19.998	103.137	17.325	178.058	0.514
628.000	387.205	79.994	19.996	103.110	17.390	173.700	0.545
630.000	388.216	79.994	19.996	103.094	17.455	169.368	0.508
632.000	389.362	79.990	20.002	103.028	17.527	164.627	0.561
634.000	390.432	79.991	19.996	103.129	17.595	160.118	0.555
636.000	391.499	79.994	19.996	103.082	17.680	154.511	0.498
638.000	392.567	79.993	19.996	103.041	17.753	149.602	0.540
640.000	393.631	79.995	19.996	103.020	17.841	143.793	0.500
642.000	394.671	79.994	19.997	103.019	17.929	137.984	0.542
644.000	395.806	79.996	19.995	103.019	18.027	131.481	0.531
646.000	396.950	79.995	19.995	103.010	18.111	125.916	0.610
648.000	397.811	79.994	19.996	102.995	18.205	119.675	0.500
650.000	398.862	79.997	19.999	102.980	18.298	113.510	0.349
652.000	399.970	79.994	20.003	102.965	18.393	107.251	0.415
654.000	401.011	79.995	20.001	102.951	18.492	100.719	0.494
656.000	402.172	79.995	19.990	102.939	18.583	94.693	0.616
658.000	403.243	80.006	19.994	102.937	18.673	88.697	0.614
660.000	404.177	79.991	19.998	102.929	18.765	82.668	0.464
662.000	405.275	79.998	19.995	102.921	18.847	77.208	0.541
664.000	406.268	79.997	19.995	102.914	18.937	71.276	0.534
666.000	407.291	79.992	20.000	102.905	19.011	66.327	0.572
668.000	408.337	79.994	19.999	102.899	19.093	60.986	0.525
670.000	409.422	79.994	19.995	102.890	19.165	56.250	0.489
672.000	410.449	79.995	19.996	102.890	19.235	51.576	0.503
674.000	411.504	79.995	20.001	102.893	19.300	47.278	0.537
676.000	412.515	79.992	19.992	102.835	19.364	43.077	0.510
678.000	413.499	79.992	19.999	102.811	19.425	39.026	0.504
680.000	414.528	79.996	19.994	102.933	19.479	35.455	0.500
682.000	415.468	79.995	19.995	102.872	19.527	32.293	0.512
684.000	416.507	79.995	19.996	102.866	19.572	29.315	0.481
686.000	417.531	79.997	19.995	102.861	19.618	26.294	0.507
688.000	418.518	79.995	19.994	102.868	19.665	23.176	0.469
690.000	419.548	79.998	19.991	102.863	19.703	20.702	0.497
692.000	420.521	79.998	19.992	102.860	19.738	18.387	0.501
694.000	421.579	79.995	19.998	102.860	19.764	16.649	0.500
696.000	422.582	79.994	19.994	102.859	19.788	15.048	0.509
698.000	423.558	79.991	19.998	102.854	19.815	13.258	0.511
700.000	424.603	79.996	19.997	102.858	19.836	11.890	0.501
702.000	425.657	79.998	19.994	102.778	19.858	10.472	0.541
704.000	426.676	79.993	19.994	102.911	19.879	9.047	0.524
706.000	427.687	79.994	19.993	102.859	19.892	8.207	0.540
708.000	428.679	79.996	19.995	102.843	19.903	7.496	0.493
710.000	429.662	79.998	19.995	102.848	19.916	6.637	0.488
712.000	430.661	79.996	19.995	102.842	19.929	5.740	0.500
714.000	431.667	79.996	19.994	102.823	19.941	4.956	0.516
716.000	432.642	79.996	19.995	102.832	19.947	4.549	0.494
718.000	433.674	79.996	19.992	102.840	19.958	3.829	0.495
720.000	434.753	79.995	19.997	102.821	19.959	3.754	0.530
722.000	435.704	79.992	19.995	102.822	19.969	3.112	0.511
724.000	436.637	79.994	19.994	102.822	19.975	2.698	0.472
726.000	437.648	79.995	19.998	102.822	19.979	2.464	0.471
728.000	438.619	79.996	19.996	102.822	19.982	2.282	0.464
730.000	439.648	79.997	19.995	102.833	19.982	2.262	0.510
732.000	440.669	79.996	19.996	102.828	19.988	1.859	0.528
734.000	441.653	79.996	19.994	102.825	19.984	2.111	0.499
736.000	442.645	79.996	19.996	102.819	19.990	1.762	0.514
738.000	443.665	79.999	19.995	102.819	19.987	1.942	0.510
740.000	444.641	79.995	19.999	102.818	19.990	1.722	0.510
742.000	445.658	79.994	19.998	102.820	19.995	1.394	0.499
744.000	446.623	79.994	19.996	102.822	19.992	1.628	0.510
746.000	447.656	79.995	19.994	102.826	19.996	1.338	0.501
748.000	448.640	79.995	19.992	102.823	19.994	1.477	0.508
750.000	449.676	79.994	19.997	102.826	19.996	1.302	0.510
752.000	450.662	79.996	19.994	102.819	19.997	1.266	0.519
754.000	451.645	79.994	19.997	102.821	19.998	1.200	0.499
756.000	452.674	79.994	19.995	102.822	19.996	1.309	0.492
758.000	453.661	79.997	19.996	102.824	19.997	1.295	0.490
760.000	454.668	79.997	19.995	102.836	19.997	1.290	0.499
762.000	455.681	79.993	19.990	102.827	19.996	1.309	0.497
764.000	456.674	79.990	20.000	102.827	19.998	1.200	0.493
766.000	457.684	79.995	19.993	102.831	19.994	1.455	0.503
768.000	458.714	79.994	19.995	102.826	19.995	1.399	0.514
770.000	459.733	79.993	19.996	102.825	19.994	1.464	0.503
772.000	460.708	79.994	19.996	102.817	19.997	1.268	0.527
774.000	461.714	79.994	19.996	102.821	19.996	1.335	0.506
776.000	462.684	79.993	19.996	102.820	20.000	1.091	0.492
778.000	463.731	79.993	19.997	102.821	20.000	1.086	0.491
780.000	464.690	79.992	19.997	102.824	20.000	1.061	0.499
782.000	465.675	79.993	19.997	102.829	20.001	1.023	0.459
784.000	466.714	79.995	19.996	102.826	19.998	1.207	0.508
786.000	467.768	79.996	19.995	102.824	20.000	1.050	0.515
788.000	468.800	79.996	19.995	102.828	20.002	0.913	0.504
790.000	469.851	79.998	19.992	102.825	20.003	0.884	0.536
792.000	470.846	79.999	19.993	102.827	20.001	1.027	0.468
794.000	471.882	79.995	19.995	102.828	20.005	0.737	0.498
796.000	472.936	79.998	19.998	102.828	20.004	0.805	0.521
798.000	474.001	79.997	19.994	102.828	20.001	0.980	0.548
800.000	475.048	79.996	19.992	102.821	20.006	0.692	0.537
802.000	476.092	79.996	19.994	102.821	20.005	0.715	0.513
804.000	477.082	79.997	19.995	102.829	20.004	0.791	0.496
806.000	478.138	79.995	19.995	102.823	20.009	0.448	0.505
808.000	479.128	79.996	19.996	102.823	20.006	0.641	0.492
810.000	480.149	79.995	19.996	102.830	20.006	0.677	0.494
812.000	481.161	79.996	19.996	102.836	20.005	0.722	0.494
814.000	482.201	79.997	19.995	102.841	20.005	0.769	0.475
816.000	483.248	79.997	19.996	102.834	20.006	0.670	0.526
818.000	484.320	79.997	19.996	102.829	20.009	0.481	0.533
820.000	485.327	79.996	19.994	102.843	20.008	0.567	0.502
822.000	486.414	79.996	19.996	102.851	20.004	0.776	0.535
824.000	487.438	79.994	19.996	102.833	20.006	0.670	0.517
826.000	488.480	79.993	19.996	102.823	20.008	0.546	0.515
828.000	489.512	79.995	19.994	102.831	20.004	0.825	0.518
830.000	490.576	79.993	19.995	102.836	20.006	0.656	0.536
832.000	491.654	79.993	19.996	102.835	20.003	0.865	0.558
834.000	492.680	79.993	19.996	102.839	20.005	0.729	0.560
836.000	493.720	79.994	19.997	102.853	20.005	0.767	0.523
838.000	494.792	79.995	19.997	102.830	20.002	0.965	0.510
840.000	495.860	79.995	19.997	102.824	20.006	0.693	0.486
842.000	496.929	79.995	19.996	102.828	20.006	0.697	0.514
844.000	497.946	79.994	19.996	102.830	20.003	0.859	0.538
846.000	498.992	79.996	19.996	102.831	20.006	0.701	0.510
848.000	500.046	79.995	19.996	102.829	20.007	0.589	0.508
850.000	501.102	79.995	19.995	102.819	20.004	0.774	0.540
852.000	502.170	79.994	19.995	102.822	20.002	0.915	0.529
854.000	503.222	79.994	19.995	102.825	20.005	0.747	0.543
856.000	504.270	79.995	19.995	102.830	20.005	0.708	0.539
858.000	505.291	79.995	19.995	102.829	20.005	0.742	0.510
860.000	506.351	79.996	19.995	102.829	20.006	0.670	0.527
862.000	507.412	79.994	19.996	102.828	20.011	0.337	0.512
864.000	508.413	79.995	19.994	102.821	20.008	0.566	0.525
866.000	509.487	79.994	19.997	102.821	20.008	0.567	0.513
868.000	510.576	79.997	19.997	102.827	20.008	0.526	0.553
870.000	511.573	79.995	19.995	102.824	20.011	0.313	0.514
872.000	512.612	79.998	19.995	102.826	20.011	0.322	0.514
874.000	513.693	79.996	19.995	102.831	20.011	0.317	0.531
876.000	514.748	79.996	19.995	102.827	20.009	0.459	0.551
878.000	515.770	79.996	19.996	102.827	20.011	0.366	0.501
880.000	516.877	79.996	19.995	102.827	20.009	0.494	0.563
882.000	517.881	79.995	19.996	102.825	20.011	0.344	0.514
884.000	518.923	79.995	19.996	102.828	20.009	0.474	0.532
886.000	519.983	79.996	19.995	102.826	20.011	0.337	0.538
888.000	521.009	79.995	19.996	102.826	20.012	0.301	0.532
890.000	522.033	79.997	19.994	102.833	20.010	0.402	0.519
892.000	523.134	79.998	19.995	102.829	20.013	0.231	0.541
894.000	524.121	79.996	19.994	102.829	20.009	0.504	0.483
896.000	525.146	79.998	19.996	102.835	20.013	0.196	0.480
898.000	526.194	79.996	19.995	102.825	20.010	0.429	0.512
900.000	527.230	79.996	19.996	102.822	20.012	0.256	0.521
902.000	528.270	79.995	19.996	102.821	20.009	0.477	0.526
904.000	529.316	79.994	19.995	102.819	20.010	0.418	0.506
906.000	530.322	79.995	19.996	102.821	20.008	0.519	0.529
908.000	531.307	79.994	19.996	102.821	20.006	0.692	0.509
910.000	532.363	79.995	19.997	102.829	20.010	0.429	0.523
912.000	533.388	79.995	19.996	102.831	20.011	0.331	0.543
914.000	534.413	79.996	19.996	102.823	20.010	0.393	0.513
916.000	535.418	79.995	19.996	102.823	20.010	0.425	0.502
918.000	536.443	79.995	19.996	102.829	20.011	0.339	0.517
920.000	537.435	79.994	19.996	102.822	20.010	0.439	0.478
922.000	538.476	79.995	19.996	102.819	20.010	0.400	0.515
924.000	539.482	79.995	19.997	102.818	20.010	0.439	0.495
926.000	540.545	79.993	19.998	102.824	20.009	0.481	0.518
928.000	541.574	79.994	19.996	102.821	20.011	0.371	0.512
930.000	542.567	79.995	19.997	102.822	20.013	0.238	0.497
932.000	543.612	79.995	19.997	102.821	20.012	0.286	0.509
934.000	544.627	79.993	19.996	102.821	20.012	0.272	0.451
936.000	545.622	79.992	19.995	102.823	20.007	0.585	0.493
938.000	546.651	79.996	19.995	102.826	20.008	0.573	0.516
940.000	547.690	79.993	19.995	102.829	20.005	0.731	0.502
942.000	548.684	79.995	19.995	102.823	20.009	0.501	0.510
944.000	549.723	79.996	19.996	102.827	20.006	0.652	0.516
946.000	550.738	79.996	19.995	102.827	20.009	0.468	0.492
948.000	551.762	79.996	19.995	102.825	20.009	0.488	0.528
950.000	552.757	79.996	19.996	102.827	20.012	0.285	0.495
952.000	553.778	79.996	19.996	102.824	20.009	0.477	0.504
954.000	554.786	79.995	19.995	102.823	20.006	0.693	0.475
956.000	555.825	79.994	19.996	102.823	20.006	0.704	0.535
958.000	556.830	79.996	19.995	102.824	20.006	0.648	0.506
960.000	557.893	79.996	19.996	102.830	20.009	0.481	0.549
962.000	558.873	79.995	19.995	102.822	20.009	0.477	0.490
964.000	559.917	79.995	19.995	102.820	20.007	0.609	0.494
966.000	560.904	79.996	19.996	102.818	20.008	0.520	0.504
968.000	561.885	79.998	19.995	102.820	20.011	0.337	0.482
970.000	562.882	79.994	19.999	102.821	20.009	0.501	0.434
972.000	563.948	79.997	19.994	102.821	20.009	0.504	0.505
974.000	564.941	79.998	19.993	102.823	20.005	0.749	0.491
976.000	565.943	79.998	19.996	102.821	20.009	0.502	0.489
978.000	566.938	79.997	19.995	102.822	20.009	0.452	0.496
980.000	567.937	79.996	19.996	102.819	20.009	0.508	0.501
982.000	568.985	79.995	19.996	102.819	20.007	0.596	0.502
984.000	570.012	79.995	19.996	102.821	20.008	0.571	0.503
986.000	571.007	79.994	19.996	102.822	20.008	0.521	0.519
988.000	572.023	79.995	19.997	102.820	20.005	0.738	0.523
990.000	573.033	79.994	19.996	102.822	20.007	0.596	0.515
992.000	574.083	79.994	19.997	102.822	20.006	0.666	0.539
994.000	575.111	79.995	19.995	102.826	20.004	0.787	0.522
996.000	576.154	79.994	19.995	102.822	20.006	0.674	0.515
998.000	577.172	79.994	19.995	102.823	20.003	0.850	0.535
1000.000	578.158	79.994	19.996	102.825	20.003	0.850	0.494
1002.000	579.170	79.995	19.995	102.824	20.004	0.823	0.504
1004.000	580.202	79.994	19.996	102.823	20.003	0.902	0.507
1006.000	581.196	79.993	19.996	102.824	20.008	0.549	0.489
1008.000	582.155	79.991	19.996	102.823	20.006	0.672	0.482
1010.000	583.168	79.993	19.997	102.824	20.008	0.531	0.523
1012.000	584.149	79.994	19.997	102.834	20.005	0.711	0.491
1014.000	585.186	79.992	19.997	102.826	20.005	0.720	0.510
1016.000	586.202	79.994	19.997	102.827	20.004	0.773	0.530
1018.000	587.205	79.992	19.996	102.824	20.006	0.686	0.490
1020.000	588.217	79.994	19.996	102.826	20.005	0.711	0.520
1022.000	589.224	79.996	19.995	102.825	20.005	0.731	0.483
1024.000	590.240	79.996	19.996	102.824	20.007	0.618	0.494
1026.000	591.251	79.997	19.994	102.821	20.003	0.868	0.525
1028.000	592.278	79.996	19.994	102.823	20.006	0.706	0.497
1030.001	593.289	79.997	19.998	102.823	20.004	0.798	0.513
1032.000	594.324	79.996	19.995	102.825	20.007	0.620	0.500
1034.000	595.321	79.996	19.996	102.821	20.006	0.701	0.505
1036.000	596.353	79.996	19.996	102.820	20.007	0.589	0.533
1038.000	597.387	79.995	19.996	102.822	20.008	0.524	0.497
1040.000	598.375	79.996	19.996	102.823	20.006	0.692	0.500
1042.000	599.399	79.996	19.995	102.821	20.010	0.387	0.524
1044.000	600.396	79.994	19.998	102.819	20.011	0.342	0.496
1046.000	601.412	79.996	19.996	102.818	20.007	0.612	0.530
1048.000	602.475	80.000	19.994	102.810	20.008	0.522	0.498
1050.001	603.483	79.999	19.994	102.819	20.010	0.420	0.523
1052.000	604.470	79.998	19.994	102.816	20.008	0.555	0.499
1054.000	605.509	79.997	19.993	102.814	20.011	0.317	0.484
1056.000	606.519	79.996	19.995	102.810	20.007	0.578	0.507
1058.000	607.544	80.000	19.992	102.820	20.007	0.636	0.501
1060.000	608.523	79.995	19.992	102.819	20.004	0.783	0.486
1062.000	609.539	79.993	19.996	102.825	20.006	0.681	0.501
1064.000	610.500	79.995	19.997	102.822	20.003	0.841	0.493
1066.000	611.547	79.992	19.997	102.822	20.010	0.400	0.544
1068.000	612.556	79.994	19.997	102.820	20.009	0.502	0.489
1070.000	613.545	79.994	19.994	102.824	20.009	0.481	0.496
1072.000	614.582	79.995	19.996	102.824	20.007	0.594	0.514
1074.001	615.551	79.994	19.997	102.824	20.011	0.349	0.506
1076.000	616.544	79.995	19.996	102.813	20.011	0.373	0.501
1078.000	617.534	79.994	19.996	102.813	20.009	0.465	0.464
1080.001	618.562	79.993	19.997	102.821	20.010	0.385	0.530
1082.000	619.571	79.994	19.996	102.814	20.005	0.767	0.517
1084.000	620.572	79.994	19.996	102.821	20.010	0.409	0.505
1086.000	621.549	79.994	19.996	102.825	20.006	0.704	0.491
1088.000	622.595	79.995	19.995	102.822	20.008	0.519	0.513
1090.000	623.595	79.994	19.997	102.815	20.009	0.465	0.500
1092.000	624.615	79.995	19.996	102.823	20.005	0.715	0.497
1094.000	625.634	79.994	19.996	102.821	20.007	0.614	0.515
1096.000	626.609	79.993	19.997	102.820	20.006	0.704	0.481
1098.000	627.646	79.993	19.997	102.814	20.007	0.594	0.505
1100.000	628.655	79.995	19.997	102.818	20.004	0.785	0.508
1102.000	629.699	79.995	19.997	102.820	20.008	0.540	0.508
1104.000	630.685	79.994	19.997	102.818	20.008	0.511	0.517
1106.000	631.715	79.996	19.997	102.802	20.009	0.479	0.526
1108.000	632.714	79.996	19.996	102.812	20.007	0.589	0.489
1110.000	633.689	79.997	19.996	102.813	20.011	0.355	0.481
1112.000	634.756	79.995	19.996	102.808	20.004	0.774	0.521
1114.000	635.770	79.996	19.996	102.814	20.006	0.690	0.484
1116.000	636.809	79.996	19.996	102.812	20.005	0.749	0.528
1118.000	637.817	79.996	19.995	102.804	20.007	0.627	0.513
1120.000	638.843	79.995	19.995	102.806	20.006	0.666	0.496
1122.000	639.853	79.997	19.995	102.825	20.010	0.387	0.505
1124.000	640.900	79.995	19.996	102.825	20.008	0.551	0.504
1126.000	641.887	79.997	19.994	102.824	20.009	0.490	0.501
1128.000	642.892	79.997	19.995	102.822	20.008	0.513	0.501
1130.000	643.923	79.997	19.993	102.813	20.007	0.605	0.527
1132.000	644.948	79.997	19.995	102.822	20.010	0.393	0.534
1134.000	645.943	79.997	19.995	102.814	20.008	0.558	0.517
1136.000	647.017	79.995	19.997	102.820	20.008	0.537	0.518
1138.000	648.035	79.996	19.994	102.822	20.009	0.450	0.527
1140.000	649.025	79.996	19.995	102.816	20.005	0.713	0.515
1142.000	650.074	79.994	19.996	102.810	20.006	0.663	0.526
1144.000	651.063	79.996	19.996	102.817	20.007	0.636	0.470
1146.000	652.106	79.995	19.995	102.824	20.011	0.321	0.503
1148.000	653.109	79.995	19.995	102.824	20.009	0.454	0.528
1150.001	654.143	79.996	19.995	102.819	20.007	0.609	0.494
1152.000	655.118	79.995	19.996	102.818	20.007	0.619	0.487
1154.000	656.113	79.996	19.998	102.823	20.004	0.810	0.474
1156.000	657.136	79.995	19.996	102.818	20.008	0.569	0.496
1158.000	658.127	79.996	19.995	102.817	20.002	0.933	0.490
1160.000	659.169	79.996	19.996	102.818	20.005	0.742	0.536
1162.000	660.182	79.997	19.996	102.817	20.003	0.886	0.474
1164.000	661.133	79.995	19.996	102.807	20.006	0.701	0.489
1166.000	662.167	79.995	19.996	102.818	20.005	0.764	0.510
1168.000	663.117	79.994	19.996	102.820	20.008	0.560	0.464
1170.000	664.158	79.999	19.991	102.821	20.007	0.598	0.478
1172.000	665.118	79.994	19.995	102.813	20.006	0.664	0.481
1174.000	666.165	79.995	19.994	102.813	20.008	0.540	0.519
1176.000	667.165	79.994	19.996	102.818	20.008	0.562	0.511
1178.000	668.108	79.995	19.996	102.816	20.007	0.601	0.493
1180.000	669.118	79.993	19.996	102.811	20.004	0.782	0.520
1182.000	670.149	79.996	19.996	102.813	20.005	0.746	0.517
1184.000	671.097	79.995	19.996	102.799	20.002	0.960	0.492
1186.000	672.045	79.995	19.995	102.807	20.003	0.843	0.473
1188.000	673.067	79.995	19.995	102.813	20.004	0.778	0.499
1190.000	674.008	79.995	19.996	102.814	20.007	0.589	0.483
1192.000	674.995	79.995	19.996	102.813	20.004	0.794	0.524
1194.000	675.981	79.995	19.996	102.815	20.006	0.683	0.493
1196.001	676.948	79.996	19.995	102.821	20.007	0.621	0.486
1198.000	677.936	79.995	19.996	102.815	20.007	0.609	0.530
1200.000	678.976	79.996	19.995	102.825	20.005	0.724	0.530
1202.000	679.956	79.996	19.996	102.822	20.003	0.864	0.516
1204.000	680.994	79.997	19.995	102.823	20.005	0.751	0.507
1206.000	681.995	79.998	19.995	102.823	20.003	0.875	0.498
1208.001	683.040	79.996	19.994	102.826	20.002	0.906	0.509
1210.000	684.078	79.998	19.995	102.824	20.003	0.886	0.509
1212.000	685.106	79.997	19.995	102.822	20.005	0.724	0.515
1214.000	686.227	79.996	19.996	102.818	20.006	0.643	0.523
1216.000	687.222	79.996	19.996	102.817	20.003	0.868	0.534
1218.000	688.347	79.993	19.996	102.822	20.004	0.792	0.530
1220.000	689.393	79.995	19.996	102.823	20.002	0.920	0.532
1222.000	690.451	79.994	19.995	102.822	20.004	0.796	0.531
1224.000	691.560	79.994	19.995	102.822	20.006	0.706	0.532
1226.000	692.654	79.996	19.995	102.822	20.007	0.601	0.554
1228.000	693.723	79.994	19.995	102.822	20.002	0.936	0.560
1230.001	694.812	79.996	19.996	102.820	20.003	0.900	0.562
1232.000	695.914	79.996	19.995	102.819	20.002	0.909	0.547
1234.001	696.974	79.996	19.994	102.819	20.006	0.675	0.511
1236.000	698.075	79.995	19.995	102.808	20.004	0.785	0.570
1238.000	699.177	79.996	19.996	102.817	20.008	0.564	0.583
1240.000	700.236	79.996	19.994	102.818	20.007	0.614	0.527
1242.000	701.323	79.995	19.995	102.815	20.006	0.695	0.556
1244.000	702.378	79.995	19.996	102.823	20.005	0.758	0.537
1246.000	703.464	79.995	19.996	102.806	20.006	0.648	0.547
1248.000	704.518	79.994	19.996	102.813	20.004	0.828	0.533
1250.000	705.620	79.994	19.996	102.818	20.004	0.825	0.561
1252.000	706.681	79.994	19.995	102.817	20.003	0.863	0.529
1254.000	707.725	79.995	19.996	102.824	20.006	0.655	0.526
1256.000	708.804	79.995	19.993	102.819	20.006	0.670	0.524
1258.000	709.821	79.996	19.995	102.818	20.004	0.812	0.505
1260.000	710.869	79.996	19.996	102.807	20.003	0.862	0.528
1262.000	711.920	79.996	19.996	102.805	20.005	0.751	0.508
1264.000	712.999	79.996	19.995	102.802	20.008	0.517	0.511
1266.000	714.069	79.997	19.996	102.801	20.004	0.780	0.544
1268.000	715.132	79.996	19.995	102.808	20.006	0.695	0.539
1270.000	716.202	79.996	19.995	102.800	20.004	0.825	0.538
1272.000	717.234	79.998	19.995	102.801	20.003	0.854	0.514
1274.000	718.258	79.995	19.996	102.802	20.004	0.783	0.516
1276.000	719.323	79.995	19.995	102.806	20.007	0.611	0.525
1278.000	720.332	79.995	19.996	102.808	20.008	0.517	0.507
1280.000	721.414	79.997	19.996	102.793	20.008	0.535	0.504
1282.000	722.370	79.998	19.997	102.805	20.007	0.589	0.481
1284.000	723.460	79.998	19.996	102.812	20.009	0.486	0.545
1286.000	724.434	79.997	19.995	102.806	20.003	0.868	0.492
1288.000	725.464	79.998	19.994	102.808	20.003	0.888	0.487
1290.000	726.502	79.996	19.997	102.800	20.006	0.650	0.495
1292.000	727.510	79.997	19.995	102.810	20.007	0.583	0.504
1294.000	728.505	79.996	19.995	102.814	20.006	0.686	0.498
1296.000	729.517	79.996	19.995	102.805	20.008	0.513	0.489
1298.000	730.557	79.996	19.996	102.821	20.005	0.717	0.511
1300.000	731.541	79.995	19.995	102.819	20.008	0.519	0.509
1302.000	732.542	79.996	19.995	102.796	20.007	0.629	0.519
1304.000	733.548	79.996	19.995	102.812	20.004	0.825	0.493
1306.000	734.618	79.996	19.996	102.809	20.006	0.706	0.525
1308.000	735.596	79.997	19.995	102.801	20.005	0.713	0.519
1310.000	736.584	79.996	19.995	102.813	20.008	0.537	0.482
1312.000	737.621	79.996	19.996	102.823	20.010	0.385	0.501
1314.000	738.628	79.997	19.995	102.809	20.007	0.582	0.522
1316.000	739.639	79.997	19.996	102.817	20.009	0.506	0.490
1318.000	740.553	79.993	19.995	102.815	20.008	0.556	0.449
1320.000	741.655	79.996	19.994	102.819	20.008	0.510	0.491
1322.000	742.637	79.995	19.995	102.812	20.002	0.906	0.488
1324.000	743.693	79.993	19.994	102.814	20.007	0.605	0.507