File: 02_Data/Polyester_Fabric/Cone/Polyester_Fabric_Cone_HF50Scan_210326_R2.csv
Names,Time,Stack TC,Smoke TC,Exh Press,Smoke Comp,Smoke Meas,CO Meter,CO2 Meter,O2 Meter,Sample Mass,Ext Coeff,Start Test,Flame Verif
Chan Gain,,500,500,1,1,1,1,1,1,1,1,1.0,1.0
Offset,,0,0,0.138348,0,0,0,0,0,0,0,0.0,0.0
Gain,,1,1,25.011,13.5067,16.616,1,1,1,1.00091,1.04608,1.0,1.0
Units,sec,C,C,Pa,%,%,%,%,%,g,/m,,
Baseline,,33.0523,35.3776,162.512,101.598,98.7374,-0.00151783,0.047753,20.955,-0.00775707,0.262113,,
2,0.25,31.0079,32.7323,156.247,102.256,99.5817,-0.00161398,0.0485693,20.9567,477.975,0.24314,0.0,0.0
4,0.75,30.6203,32.5042,162.73,102.266,99.0057,-0.00158316,0.0488135,20.9566,478.045,0.297299,0.0,0.0
6,1.25,30.6953,32.3746,166.512,102.252,98.9332,-0.00155499,0.049131,20.9563,478.045,0.302802,0.0,0.0
8,1.75,30.5617,32.5224,163.65,102.284,99.7774,-0.00152929,0.0494959,20.9558,479.486,0.227636,0.0,0.0
10,2.25,30.7934,32.7582,161.748,102.272,99.4301,-0.00150783,0.0497915,20.9554,478.355,0.258637,0.0,0.0
12,2.75,30.6538,32.7677,163.808,102.284,99.7237,-0.00148987,0.0501295,20.9546,479.416,0.23258,0.0,0.0
14,3.25,30.32,32.9577,166.572,102.287,99.3388,-0.00147852,0.050492,20.954,481.448,0.268397,0.0,0.0
16,3.75,30.5274,32.7197,160.684,102.293,99.245,-0.00147221,0.0508069,20.9535,480.277,0.277545,0.0,0.0
18,4.25,30.5695,32.7317,161.803,102.286,99.7303,-0.00147415,0.0510809,20.9531,478.796,0.232196,0.0,0.0
20,4.75,31.1682,32.9219,159.415,102.286,99.568,-0.00148206,0.051324,20.9522,478.025,0.247101,0.0,0.0
22,5.25,30.7246,33.0803,164.037,102.299,99.5812,-0.00148848,0.0515399,20.9514,478.035,0.24707,0.0,0.0
24,5.75,30.569,32.9806,158.886,102.306,99.4879,-0.00150713,0.0517571,20.9508,478.015,0.256336,0.0,0.0
26,6.25,30.9521,33.1705,161.464,102.296,99.4362,-0.00153436,0.0519711,20.9503,478.015,0.260221,0.0,0.0
28,6.75,30.4763,32.9679,159.214,102.314,99.4255,-0.00156282,0.0521444,20.9499,478.025,0.262756,0.0,0.0
30,7.25,30.9991,33.1604,165.698,102.312,100.072,-0.00159164,0.0522841,20.9495,478.015,0.203216,0.0,0.0
32,7.75,31.2402,33.2989,162.172,102.321,99.8393,-0.00161864,0.0523973,20.9493,478.015,0.225313,0.0,0.0
34,8.25,31.1498,33.5242,168.2,102.316,99.7212,-0.00163015,0.0525313,20.9492,478.015,0.235698,0.0,0.0
36,8.75,30.5109,33.0249,157.223,102.338,99.2699,-0.00164791,0.0526779,20.949,478.015,0.279315,0.0,0.0
38,9.25,30.6786,33.4356,163.346,102.328,99.4423,-0.00166057,0.0528601,20.9488,478.005,0.262469,0.0,0.0
40,9.75,31.4936,33.1327,165.408,102.338,99.5006,-0.00167082,0.0530648,20.9482,478.015,0.25805,0.0,0.0
42,10.25,31.1359,32.8806,160.05,102.333,99.5351,-0.00167912,0.0533293,20.9478,477.995,0.254391,0.0,0.0
44,10.75,31.1994,33.8034,162.952,102.355,99.6233,-0.0016688,0.0536324,20.9474,478.015,0.248181,0.0,0.0
46,11.25,31.365,32.845,158.436,102.33,99.4306,-0.00166043,0.0537616,20.9471,478.015,0.263767,0.0,0.0
48,11.75,31.3667,33.308,167.271,102.349,99.4869,-0.00164148,0.0541568,20.9468,478.025,0.260237,0.0,0.0
50,12.25,31.1891,33.583,162.465,102.34,99.7394,-0.00162613,0.0544769,20.9466,478.015,0.236235,0.0,0.0
52,12.75,30.8079,33.6337,161.195,102.357,99.5569,-0.0016137,0.0547362,20.9465,478.015,0.254486,0.0,0.0
54,13.25,31.4387,33.0419,166.316,102.351,99.6081,-0.00157927,0.0551339,20.9461,478.015,0.249287,0.0,0.0
56,13.75,31.1942,33.4859,163.288,102.359,99.422,-0.00155138,0.0554561,20.9456,478.015,0.267149,0.0,0.0
58,14.25,31.0605,33.5703,158.562,102.369,99.6066,-0.00151982,0.0558378,20.9452,478.015,0.25098,0.0,0.0
60,14.75,30.4018,33.7333,163.304,102.366,99.0026,-0.00148618,0.0561469,20.9449,478.015,0.306601,0.0,0.0
62,15.25,31.5495,32.9014,163.546,102.357,98.8581,-0.00145189,0.0563974,20.9446,478.025,0.319154,0.0,0.0
64,15.75,31.2324,33.6156,164.569,102.367,99.3601,-0.00141776,0.0567075,20.9445,478.025,0.2736,0.0,0.0
66,16.25,31.7587,33.148,160.315,102.363,99.7511,-0.00138692,0.0569587,20.9445,478.025,0.237158,0.0,0.0
68,16.75,31.5033,33.6983,165.037,102.37,99.3135,-0.00135905,0.0572187,20.9445,478.015,0.278131,0.0,0.0
70,17.25,31.1911,33.9845,162.224,102.366,99.1872,-0.0013416,0.0574802,20.9444,478.015,0.289472,0.0,0.0
72,17.75,31.65,33.4737,160.728,102.374,98.9545,-0.00133208,0.057763,20.944,478.025,0.311768,0.0,0.0
74,18.25,31.4241,33.6823,164.924,102.367,98.6903,-0.00132566,0.0580559,20.9436,477.995,0.335634,0.0,0.0
76,18.75,31.8013,33.8514,162.723,102.378,98.9768,-0.00132161,0.0583356,20.9433,478.005,0.310069,0.0,0.0
78,19.25,31.0566,34.047,166.475,102.372,99.134,-0.00131832,0.0586003,20.943,477.995,0.294953,0.0,0.0
80,19.75,31.0463,34.2288,163.931,102.373,99.1431,-0.00130669,0.0588288,20.9428,477.995,0.294146,0.0,0.0
82,20.25,31.1513,34.0092,162.391,102.376,99.4909,-0.00128919,0.0590266,20.9422,477.985,0.262265,0.0,0.0
84,20.75,31.3252,34.1752,157.397,102.378,99.2318,-0.00125451,0.059307,20.9417,477.995,0.286379,0.0,0.0
86,21.25,31.0527,34.1858,160.46,102.364,99.0812,-0.00120795,0.0596423,20.9404,477.995,0.299134,0.0,0.0
88,21.75,31.0417,33.8985,160.804,102.38,98.6649,-0.00117024,0.0599139,20.9394,477.985,0.339175,0.0,1.0
90,22.25,31.1643,34.1709,161.242,102.372,98.4489,-0.00107515,0.0614927,20.9367,477.995,0.358585,0.0,1.0
92,22.75,31.3596,34.4678,158.434,102.378,97.4778,-0.000998122,0.0627715,20.9346,477.965,0.45006,0.0,1.0
94,23.25,31.6538,34.0931,160.684,102.366,96.1599,-0.000843172,0.0653726,20.9271,477.955,0.573859,0.0,1.0
96,23.75,31.284,34.2152,162.454,102.387,94.4227,-0.00060514,0.0688883,20.9184,477.955,0.743075,0.0,1.0
98,24.25,32.5542,34.7485,154.435,102.375,92.1089,-0.000503871,0.0717361,20.9127,477.955,0.969662,0.0,1.0
100,24.75,31.9344,34.7332,160.835,102.366,90.4629,-0.000330699,0.0775713,20.9031,477.835,1.13435,0.0,1.0
102,25.25,31.6879,34.6826,156.662,102.377,89.3696,-0.0001119,0.0822978,20.8953,477.905,1.24684,0.0,1.0
104,25.75,31.6949,35.2115,154.276,102.366,89.7966,0.000136006,0.0902124,20.8836,477.875,1.20218,0.0,1.0
106,26.25,30.907,33.7706,154.284,102.382,88.39,0.000336809,0.0966232,20.8741,477.855,1.34847,0.0,1.0
108,26.75,31.1213,33.8086,155.226,102.373,90.9137,0.000610725,0.109306,20.8665,477.825,1.08936,0.0,1.0
110,27.25,30.9343,34.541,157.806,102.376,90.7626,0.000932734,0.112717,20.8553,477.795,1.10488,0.0,0.0
112,27.75,31.3206,34.7778,157.034,102.368,89.8924,0.00127613,0.122744,20.8463,477.775,1.1925,0.0,0.0
114,28.25,31.5411,34.8672,152.762,102.373,89.3458,0.00162859,0.130865,20.8337,477.745,1.24899,0.0,0.0
116,28.75,31.8134,35.4966,155.335,102.373,86.0199,0.00200943,0.137443,20.8234,477.695,1.59706,0.0,0.0
118,29.25,31.7207,35.8457,157.564,102.371,86.0584,0.00240373,0.148557,20.8093,477.665,1.59273,0.0,0.0
120,29.75,32.2528,35.4283,157.415,102.37,86.3525,0.00283341,0.15756,20.7979,477.625,1.56138,0.0,0.0
122,30.25,32.4489,36.1507,151.073,102.381,85.4357,0.00328071,0.16832,20.777,477.585,1.66029,0.0,0.0
124,30.75,32.4796,37.4495,154.869,102.369,83.7522,0.00377712,0.180156,20.7601,477.545,1.84187,0.0,0.0
126,31.25,32.8411,37.1471,154.862,102.381,80.1276,0.00429989,0.192974,20.7374,477.475,2.24888,0.0,0.0
128,31.75,33.2495,38.1306,155.39,102.37,80.5779,0.00488436,0.206264,20.7191,477.475,2.1965,0.0,0.0
130,32.25,33.7336,38.3587,152.643,102.377,77.3164,0.00550271,0.220273,20.7043,477.395,2.57627,0.0,0.0
132,32.75,34.0143,39.3247,147.062,102.369,81.0556,0.00600357,0.234541,20.688,477.355,2.14211,0.0,0.0
134,33.25,34.4158,39.3708,147.836,102.373,77.7286,0.00640927,0.249342,20.671,477.304,2.52707,0.0,0.0
136,33.75,34.7442,40.0597,147.313,102.367,77.7545,0.00673788,0.264249,20.6573,477.214,2.52353,0.0,0.0
138,34.25,35.3851,40.5804,151.811,102.378,77.4447,0.0073675,0.276324,20.6428,477.144,2.56117,0.0,0.0
140,34.75,35.6417,41.6935,155.706,102.372,76.4016,0.00787748,0.292569,20.6282,477.064,2.68504,0.0,0.0
142,35.25,35.9751,42.0071,146.599,102.387,75.2597,0.00832025,0.305728,20.6164,477.024,2.82452,0.0,0.0
144,35.75,36.4298,42.147,149.273,102.381,74.9214,0.00870559,0.316387,20.6001,476.964,2.86537,0.0,0.0
146,36.25,36.5134,42.7327,150.372,102.389,75.0776,0.00900286,0.32808,20.5869,476.894,2.84693,0.0,0.0
148,36.75,36.7175,43.3208,148.838,102.373,74.7744,0.00923029,0.340305,20.5761,476.824,2.88266,0.0,0.0
150,37.25,37.2871,43.8249,153.847,102.393,79.33,0.00936666,0.350207,20.5673,476.764,2.34175,0.0,0.0
152,37.75,37.3383,44.3424,150.134,102.371,77.432,0.00943405,0.358277,20.5602,476.714,2.56201,0.0,0.0
154,38.25,37.6084,44.4385,152.942,102.405,81.2893,0.00948863,0.364814,20.5544,476.664,2.11898,0.0,0.0
156,38.75,37.8091,44.4361,151.828,102.38,78.9644,0.0093873,0.368892,20.5531,476.604,2.38296,0.0,0.0
158,39.25,38.0954,44.9807,149.523,102.387,79.9806,0.0092102,0.371099,20.5549,476.584,2.26629,0.0,0.0
160,39.75,38.4543,45.2424,161.084,102.403,83.34,0.00898124,0.372886,20.5622,476.534,1.89015,0.0,0.0
162,40.25,38.2027,45.3112,151.611,102.4,83.2908,0.00879577,0.370686,20.5681,476.524,1.8953,0.0,0.0
164,40.75,38.4119,45.6011,153.07,102.383,84.6949,0.00848993,0.368904,20.5729,476.474,1.74039,0.0,0.0
166,41.25,38.2694,45.5289,154.941,102.396,86.4986,0.00810214,0.363146,20.5844,476.424,1.54821,0.0,0.0
168,41.75,38.7953,45.4939,155.864,102.39,87.2774,0.00766913,0.358482,20.5937,476.414,1.46536,0.0,0.0
170,42.25,38.7676,45.2825,156.834,102.387,88.7054,0.0072114,0.350753,20.6075,476.394,1.31626,0.0,0.0
172,42.75,38.7725,45.6288,154.039,102.387,89.4569,0.00674471,0.344493,20.6187,476.364,1.23885,0.0,0.0
174,43.25,38.7218,45.2355,154.789,102.403,90.3422,0.00628037,0.336927,20.6335,476.334,1.14988,0.0,0.0
176,43.75,38.8532,45.5664,153.91,102.39,89.7358,0.00581597,0.328552,20.6456,476.324,1.21055,0.0,0.0
178,44.25,38.7692,45.5247,154.345,102.404,89.9776,0.00536036,0.318862,20.6638,476.314,1.18703,0.0,0.0
180,44.75,38.5263,45.4613,159.613,102.385,93.228,0.00491577,0.308397,20.6786,476.284,0.859694,0.0,0.0
182,45.25,38.5514,45.0081,158.256,102.409,92.8107,0.00448767,0.299921,20.6977,476.284,0.903079,0.0,0.0
184,45.75,38.3422,45.0479,159.617,102.394,93.6453,0.00414091,0.288007,20.7132,476.254,0.819559,0.0,0.0
186,46.25,38.3785,44.6758,157.856,102.404,94.9962,0.00372322,0.276138,20.7283,476.254,0.688987,0.0,0.0
188,46.75,38.7319,45.3346,160.363,102.39,95.0728,0.00338489,0.264525,20.7429,476.254,0.680412,0.0,0.0
190,47.25,37.9155,45.1554,157.675,102.397,96.5093,0.00311084,0.255119,20.7547,476.244,0.543388,0.0,0.0
192,47.75,37.7028,44.4123,162.89,102.391,96.7786,0.00278566,0.243153,20.7669,476.233,0.517306,0.0,0.0
194,48.25,37.988,44.4049,158.353,102.41,97.8521,0.00252227,0.233461,20.779,476.244,0.417782,0.0,0.0
196,48.75,37.6245,43.8265,158.849,102.405,98.3794,0.0022611,0.223407,20.7913,476.224,0.368017,0.0,0.0
198,49.25,37.6826,43.6597,162.212,102.415,99.2318,0.00204956,0.21328,20.8033,476.224,0.289703,0.0,0.0
200,49.75,37.8978,43.6568,160.326,102.398,98.9879,0.00183413,0.203057,20.8149,476.214,0.310771,0.0,0.0
202,50.25,37.4756,43.2024,160.445,102.42,99.6441,0.00165963,0.192958,20.826,476.203,0.252141,0.0,0.0
204,50.75,36.8298,43.0596,156.854,102.406,99.6086,0.00146814,0.184778,20.8371,476.203,0.254154,0.0,0.0
206,51.25,37.1396,42.9263,158.548,102.422,99.5356,0.00131304,0.174634,20.848,476.214,0.262324,0.0,0.0
208,51.75,37.0721,42.8799,158.79,102.404,99.3383,0.001141,0.166418,20.8568,476.203,0.278901,0.0,0.0
210,52.25,36.9751,42.5796,160.342,102.42,99.532,0.00100165,0.158698,20.8658,476.214,0.262504,0.0,0.0
212,52.75,37.9482,42.4861,160.968,102.414,99.6248,0.000877215,0.151488,20.873,476.214,0.253362,0.0,0.0
214,53.25,36.6723,41.5252,156.015,102.423,99.6639,0.00076602,0.144719,20.8802,476.214,0.250541,0.0,0.0
216,53.75,36.6604,41.8245,165.288,102.412,99.8829,0.000675952,0.138401,20.886,476.224,0.229472,0.0,0.0
218,54.25,36.8535,42.4141,159.335,102.44,99.8347,0.000620338,0.131733,20.8915,476.214,0.236373,0.0,0.0
220,54.75,35.5852,41.3665,159.449,102.421,99.6983,0.000590897,0.126332,20.8965,476.214,0.24722,0.0,0.0
222,55.25,35.4011,40.1423,157.463,102.434,99.8565,0.000592127,0.121195,20.9006,476.214,0.233888,0.0,0.0
224,55.75,35.5889,40.374,159.826,102.417,99.9879,0.000615691,0.116348,20.9039,476.224,0.22024,0.0,0.0
226,56.25,35.5076,39.8042,161.49,102.432,99.707,0.000634778,0.112422,20.9075,476.203,0.247459,0.0,0.0
228,56.75,35.0797,40.3931,164.163,102.425,99.6867,0.000650238,0.108071,20.9104,476.214,0.248625,0.0,0.0
230,57.25,35.447,39.9554,162.519,102.441,99.6993,0.000757013,0.104546,20.9129,476.203,0.248936,0.0,0.0
232,57.75,35.0115,39.2936,161.726,102.437,99.3865,0.000843501,0.101191,20.9151,476.214,0.277407,0.0,0.0
234,58.25,34.9575,39.9286,160.91,102.432,99.785,0.000957706,0.0980222,20.9174,476.203,0.240239,0.0,0.0
236,58.75,34.7023,39.2645,165.259,102.435,99.7577,0.00105021,0.0954558,20.9196,476.214,0.243016,0.0,0.0
238,59.25,34.8917,39.1788,162.325,102.447,100.101,0.00115829,0.0933771,20.9217,476.224,0.212554,0.0,0.0
240,59.75,34.7257,38.894,156.281,102.438,99.4367,0.00124583,0.0906904,20.9236,476.214,0.272884,0.0,0.0
242,60.25,34.7017,39.4578,159.852,102.455,99.8058,0.001345,0.0885141,20.9254,476.214,0.240395,0.0,0.0
244,60.75,35.16,38.7837,162.006,102.442,99.9656,0.00142533,0.0864452,20.927,476.214,0.224577,0.0,0.0
246,61.25,34.6618,38.557,159.272,102.452,100.035,0.00149234,0.0844939,20.9283,476.193,0.219135,0.0,0.0
248,61.75,34.2921,39.1554,164.84,102.472,99.3921,0.00154836,0.0825349,20.9294,476.193,0.28003,0.0,0.0
250,62.25,33.9059,38.0371,161.774,102.456,100.152,0.00159373,0.0809482,20.9303,476.193,0.208766,0.0,0.0
252,62.75,34.5403,38.054,159.085,102.462,99.5822,0.00161238,0.0793523,20.931,476.203,0.261569,0.0,0.0
254,63.25,34.4552,38.4065,159.767,102.447,100.491,0.00161119,0.0780597,20.9315,476.193,0.176925,0.0,0.0
256,63.75,34.0828,38.0519,161.264,102.463,99.8155,0.00159343,0.0767925,20.932,476.193,0.240211,0.0,0.0
258,64.25,34.2654,38.0144,157.285,102.452,100.258,0.00156392,0.075568,20.9324,476.203,0.198609,0.0,0.0
260,64.75,33.7744,37.5341,157.556,102.464,100.547,0.00153291,0.0745762,20.9327,476.203,0.173299,0.0,0.0
262,65.25,34.2629,37.4651,160.914,102.462,99.8063,0.00150141,0.0734223,20.9334,476.203,0.240939,0.0,0.0
264,65.75,33.8329,36.9302,157.22,102.471,100.119,0.00147589,0.0724877,20.9339,476.193,0.213077,0.0,0.0
266,66.25,33.9838,37.2947,160.195,102.453,99.6319,0.00145522,0.0715818,20.9344,476.183,0.256252,0.0,0.0
268,66.75,33.2924,37.3585,161.038,102.47,99.9311,0.00144951,0.070714,20.9348,476.193,0.230179,0.0,0.0
270,67.25,33.4924,37.4443,160.74,102.462,100.657,0.00144489,0.0698977,20.9355,476.193,0.163088,0.0,0.0
272,67.75,33.3385,37.2177,159.512,102.476,99.6568,0.00144115,0.0691344,20.9361,476.193,0.255995,0.0,0.0
274,68.25,33.4311,37.0919,163.849,102.453,100.555,0.00145363,0.0684241,20.9368,476.203,0.171646,0.0,0.0
276,68.75,33.4741,37.3931,162.222,102.471,100.11,0.00147769,0.0677659,20.9376,476.203,0.213914,0.0,0.0
278,69.25,32.7863,37.0078,163.17,102.462,100.115,0.00151561,0.0671691,20.9384,476.183,0.212627,0.0,0.0
280,69.75,33.2347,37.1347,159.146,102.47,99.7085,0.00154632,0.0666282,20.939,476.193,0.25068,0.0,0.0
282,70.25,32.9834,36.7832,157.394,102.47,99.8231,0.00157507,0.0661902,20.9394,476.203,0.240177,0.0,0.0
284,70.75,33.2757,37.1327,161.863,102.47,99.779,0.00160186,0.0656746,20.9394,476.203,0.244158,0.0,0.0
286,71.25,33.5929,36.8347,158.982,102.46,100.344,0.00162161,0.065257,20.9394,476.214,0.191506,0.0,0.0
288,71.75,33.0107,36.8239,158.612,102.47,99.6557,0.00163587,0.064841,20.9394,476.193,0.255572,0.0,0.0
290,72.25,33.5158,37.0434,163.741,102.465,99.9874,0.00164289,0.0644339,20.9395,476.193,0.224605,0.0,0.0
292,72.75,33.0996,36.4327,160.672,102.466,99.7217,0.0016445,0.0640829,20.9395,476.193,0.249097,0.0,0.0
294,73.25,32.7625,37.2156,157.184,102.478,99.6745,0.00164581,0.0637795,20.9395,476.193,0.254545,0.0,0.0
296,73.75,33.2987,36.275,164.948,102.487,99.5523,0.00164766,0.0635409,20.9395,476.193,0.266577,0.0,0.0
298,74.25,33.1942,36.5345,163.354,102.474,99.7541,0.00165082,0.0633539,20.9395,476.183,0.246813,0.0,0.0
300,74.75,32.7909,36.0337,159.791,102.48,99.743,0.00165338,0.0632025,20.9395,476.183,0.248392,0.0,0.0
302,75.25,32.6056,36.1152,158.753,102.478,99.8028,0.00168127,0.0630395,20.9398,476.183,0.242705,0.0,0.0
304,75.75,32.7849,36.1937,162.252,102.486,99.6349,0.00170385,0.0629075,20.9402,476.203,0.258888,0.0,0.0
306,76.25,32.6534,36.0954,161.368,102.486,99.9057,0.00173322,0.0627065,20.9405,476.203,0.233947,0.0,0.0
308,76.75,32.719,35.8932,163.563,102.488,100.116,0.001757,0.0626208,20.9408,476.203,0.214897,0.0,0.0
310,77.25,32.4672,36.0385,158.693,102.474,100.305,0.00177691,0.0624743,20.941,476.193,0.196249,0.0,0.0
312,77.75,32.6075,35.9884,161.327,102.479,99.8971,0.00179362,0.0622212,20.9412,476.183,0.234185,0.0,0.0
314,78.25,33.0638,35.8421,160.984,102.484,99.7293,0.00180716,0.0620162,20.9413,476.173,0.250021,0.0,0.0
316,78.75,32.867,35.4483,157.117,102.493,99.7673,0.00181812,0.0617724,20.9414,476.183,0.247372,0.0,0.0
318,79.25,32.7505,36.0637,161.493,102.473,100.252,0.00182699,0.061505,20.9415,476.183,0.201048,0.0,0.0
320,79.75,32.4389,35.931,160.503,102.489,100.484,0.00183419,0.0612177,20.9416,476.183,0.181338,0.0,0.0
322,80.25,32.2407,35.4896,165.634,102.495,99.7567,0.00184739,0.0609213,20.9417,476.183,0.248499,0.0,0.0
324,80.75,32.4546,35.2435,162.054,102.49,100.082,0.00185809,0.0606813,20.9417,476.193,0.218206,0.0,0.0
326,81.25,32.5656,35.3152,158.407,102.493,99.9808,0.00187536,0.0603654,20.9418,476.193,0.227757,0.0,0.0
328,81.75,32.5478,35.5953,165.041,102.496,100.176,0.00188935,0.0601095,20.9419,476.203,0.210079,0.0,0.0
330,82.25,32.7318,35.3344,165.148,102.465,100.087,0.00190069,0.0599022,20.9419,476.193,0.215442,0.0,0.0
332,82.75,32.1628,34.689,160.583,102.498,100.014,0.0019234,0.0595733,20.9422,476.203,0.225139,0.0,0.0
334,83.25,32.1723,35.5606,165.596,102.491,99.8692,0.0019418,0.0593069,20.9426,476.193,0.23778,0.0,0.0
336,83.75,32.3987,35.5574,167.52,102.512,99.7242,0.00196124,0.0589837,20.9429,476.193,0.253034,0.0,0.0
338,84.25,32.4098,35.1479,159.848,102.497,99.5827,0.00198107,0.058722,20.9432,476.173,0.264696,0.0,0.0
340,84.75,32.2114,35.001,161.455,102.505,99.854,0.00199972,0.05851,20.9434,476.183,0.240396,0.0,0.0
342,85.25,32.4523,34.8834,167.456,102.495,100.397,0.00201716,0.0582578,20.9436,476.193,0.189739,0.0,0.0
344,85.75,32.1345,35.9313,162.504,102.521,99.8956,0.00203518,0.0580535,20.9438,476.203,0.238052,0.0,0.0
346,86.25,32.1411,35.118,165.705,102.5,100.283,0.00205327,0.0578245,20.9443,476.203,0.200616,0.0,0.0
348,86.75,32.0041,34.5606,161.192,102.505,99.8373,0.00206663,0.0575818,20.9448,476.183,0.241935,0.0,0.0
350,87.25,32.1366,34.8485,158.98,102.496,100.122,0.00207628,0.0573429,20.9452,476.163,0.215042,0.0,0.0
352,87.75,31.7181,34.9956,162.328,102.525,99.9306,0.0020841,0.0571113,20.9455,476.163,0.235206,0.0,0.0
354,88.25,31.9844,35.0605,160.456,102.497,100.262,0.00207074,0.0568813,20.9457,476.153,0.202297,0.0,0.0
356,88.75,32.2635,34.8883,161.709,102.534,99.2912,0.00205992,0.056657,20.9459,476.143,0.294886,0.0,0.0
358,89.25,31.9755,34.9694,158.394,102.505,100.296,0.00205115,0.0564611,20.9461,476.143,0.199889,0.0,0.0
360,89.75,31.6414,35.413,161.748,102.506,100.009,0.00202682,0.0562898,20.9462,476.133,0.226342,0.0,0.0
362,90.25,31.9935,34.4737,162.772,102.506,99.2202,0.00200711,0.056151,20.9463,476.143,0.298977,0.0,0.0
364,90.75,32.2648,35.1096,161.911,102.538,99.5264,0.00198869,0.0560252,20.9464,476.133,0.273536,0.0,0.0
366,91.25,31.8957,34.9945,164.949,102.504,99.5366,0.00197377,0.0559233,20.9465,476.103,0.269577,0.0,0.0
368,91.75,31.8249,35.5046,160.139,102.521,99.6512,0.00196907,0.0558125,20.9465,476.073,0.260567,0.0,0.0
370,92.25,31.5779,34.6972,159.546,102.513,100.252,0.00196525,0.0556974,20.9466,476.083,0.204665,0.0,0.0
372,92.75,32.4251,34.8534,157.726,102.524,99.5589,0.00197078,0.0556042,20.9466,476.123,0.26929,0.0,0.0
374,93.25,31.593,34.7047,167.988,102.528,99.2693,0.00197526,0.0554884,20.9466,476.123,0.296385,0.0,0.0
376,93.75,31.7459,34.4903,165.714,102.541,99.9676,0.00197765,0.0553947,20.9467,476.173,0.233246,0.0,0.0
378,94.25,31.42,34.8901,161.68,102.518,99.7065,0.00197959,0.0553188,20.9471,476.173,0.255183,0.0,0.0
380,94.75,31.5304,34.4581,156.962,102.528,100.369,0.00197274,0.0552573,20.9475,476.193,0.19536,0.0,0.0
382,95.25,32.0001,34.4488,161.602,102.52,99.6547,0.00195962,0.0552145,20.9478,476.193,0.260093,0.0,0.0
384,95.75,31.8703,34.8495,162.698,102.534,99.7409,0.00194899,0.0551862,20.9481,476.203,0.25345,0.0,0.0
386,96.25,31.2026,34.3873,162.348,102.536,99.96,0.00191702,0.0551845,20.948,476.203,0.233466,0.0,0.0
388,96.75,31.6917,34.1801,163.119,102.541,100.232,0.00189112,0.0552021,20.9478,476.203,0.208946,0.0,0.0
390,97.25,31.4766,34.2127,161.917,102.547,99.8297,0.00186174,0.0552164,20.9476,476.193,0.246433,0.0,0.0
392,97.75,31.9901,34.4553,161,102.535,100.561,0.00183037,0.0552279,20.9474,476.193,0.17836,0.0,0.0
394,98.25,31.3156,33.7643,160.278,102.528,99.9189,0.00179978,0.0552373,20.9473,476.203,0.2365,0.0,0.0
396,98.75,31.4296,34.723,162.673,102.536,99.6299,0.00177035,0.0552315,20.9472,476.214,0.263819,0.0,0.0
398,99.25,31.8323,34.1211,161.039,102.549,99.9402,0.00174652,0.0552268,20.9471,476.193,0.236462,0.0,0.0
400,99.75,32.0848,34.3941,157.661,102.524,100.19,0.0017309,0.0552229,20.9471,476.193,0.211297,0.0,0.0
402,100.25,31.2376,33.9698,162.432,102.548,100.35,0.00171824,0.0552198,20.947,476.193,0.19881,0.0,0.0
404,100.75,30.989,34.3062,161.032,102.552,100.465,0.00171291,0.0552032,20.947,476.183,0.188742,0.0,0.0
406,101.25,31.5371,33.6839,162.102,102.548,99.7201,0.00170858,0.0551771,20.9469,476.193,0.25658,0.0,0.0
408,101.75,31.4785,33.5445,166.696,102.539,99.8854,0.00170508,0.0551559,20.9469,476.173,0.24057,0.0,0.0
410,102.25,31.6328,34.2051,157.844,102.579,99.7754,0.00170225,0.0551119,20.9469,476.163,0.254298,0.0,0.0
412,102.75,31.6743,33.6907,159.573,102.556,100.43,0.00169995,0.0550763,20.9468,476.163,0.192223,0.0,0.0
414,103.25,31.7124,34.2831,161.62,102.54,99.4392,0.00169809,0.0550609,20.9468,476.153,0.281802,0.0,0.0
416,103.75,31.1909,34.3083,161.807,102.546,100.163,0.00168921,0.0550484,20.9465,476.153,0.215742,0.0,0.0
418,104.25,31.661,34.0641,161.376,102.552,99.9529,0.00168202,0.0550517,20.946,476.143,0.23552,0.0,0.0
420,104.75,31.5867,34.381,162.548,102.548,99.2546,0.00167878,0.0550543,20.9456,476.153,0.299552,0.0,0.0
422,105.25,30.9765,33.7331,161.503,102.551,100.297,0.00167849,0.0550564,20.9452,476.143,0.203891,0.0,0.0
424,105.75,31.3227,33.5959,159.527,102.543,99.8327,0.00168213,0.0550582,20.9449,476.143,0.245822,0.0,0.0
426,106.25,31.3102,34.3973,160.617,102.575,100.405,0.00168552,0.0550328,20.9448,476.153,0.196191,0.0,0.0
428,106.75,31.5098,34.0166,160.981,102.549,99.8281,0.00169196,0.0550122,20.9446,476.153,0.24672,0.0,0.0
430,107.25,31.6945,33.7783,158.54,102.559,99.994,0.00169776,0.0550026,20.9449,476.133,0.232376,0.0,0.0
432,107.75,31.3276,34.112,159.27,102.552,99.6446,0.00169082,0.0550012,20.9451,476.143,0.263904,0.0,0.0
434,108.25,31.3519,33.8695,159.192,102.56,99.9605,0.00167473,0.055,20.9453,476.133,0.235597,0.0,0.0
436,108.75,31.6834,33.9246,156.951,102.548,99.7075,0.00166169,0.0549991,20.9455,476.143,0.257747,0.0,0.0
438,109.25,31.4059,33.4121,162.957,102.568,100.311,0.00160081,0.0549987,20.9456,476.133,0.204187,0.0,0.0
440,109.75,31.5189,33.919,159.506,102.554,100.228,0.0015515,0.0549444,20.9457,476.133,0.210461,0.0,0.0
442,110.25,31.3977,34.0726,164.798,102.567,99.6167,0.00151155,0.0549004,20.9458,476.133,0.2678,0.0,0.0
444,110.75,31.0439,33.7451,164.582,102.561,100.082,0.00142038,0.0548112,20.9458,476.113,0.224505,0.0,0.0
446,111.25,31.1663,34.1819,158.873,102.568,99.5797,0.00134652,0.0547389,20.9459,476.113,0.271358,0.0,0.0
448,111.75,31.5608,33.9086,163.62,102.565,100.065,0.00125733,0.0546402,20.9459,476.123,0.226418,0.0,0.0
450,112.25,31.4958,33.851,161.528,102.568,100.344,0.00118508,0.0545602,20.946,476.123,0.201136,0.0,0.0
452,112.75,31.3048,34.1984,165.725,102.56,99.8408,0.00111677,0.0544884,20.946,476.113,0.246587,0.0,0.0
454,113.25,31.4445,33.5813,160.829,102.575,99.7607,0.00106144,0.0544239,20.946,476.123,0.255282,0.0,0.0
456,113.75,31.4453,33.9898,159.755,102.565,99.9199,0.00102152,0.0543716,20.946,476.113,0.239763,0.0,0.0
458,114.25,31.2969,33.4264,164.22,102.557,99.9635,0.000989177,0.0542891,20.946,476.113,0.235058,0.0,0.0
460,114.75,30.9895,34.1015,162.634,102.564,100.169,0.000970066,0.0542222,20.9461,476.103,0.216807,0.0,0.0
462,115.25,31.4938,33.6395,159.488,102.575,99.5335,0.000960962,0.054147,20.9461,476.103,0.276164,0.0,0.0
464,115.75,31.5088,34.032,164.485,102.56,99.4245,0.000953587,0.0540669,20.9461,476.103,0.284893,0.0,0.0
466,116.25,31.5634,33.7689,159.542,102.576,99.9392,0.00094639,0.0540162,20.9461,476.093,0.23899,0.0,0.0
468,116.75,30.9478,33.7527,162.393,102.567,99.9539,0.000940561,0.0539878,20.9461,476.093,0.236828,0.0,0.0
470,117.25,31.13,33.4518,164.278,102.586,99.8799,0.000918457,0.0539648,20.9461,476.093,0.245323,0.0,0.0
472,117.75,31.3377,34.3229,160.79,102.568,99.9686,0.000884908,0.0539462,20.9461,476.103,0.235552,0.0,0.0
474,118.25,31.1727,33.8182,156.795,102.574,100.409,0.000844869,0.0539311,20.9461,476.113,0.195757,0.0,0.0
476,118.75,31.5055,33.7605,156.976,102.565,99.9706,0.000800858,0.0538787,20.9461,476.113,0.235071,0.0,0.0
478,119.25,31.4499,33.678,161.864,102.585,100.003,0.00076521,0.0538362,20.9461,476.113,0.233899,0.0,0.0
480,119.75,31.1195,33.6497,157.785,102.574,100.371,0.000720453,0.0537948,20.9461,476.113,0.199233,0.0,0.0
482,120.25,30.6942,33.4653,167.936,102.58,99.6781,0.0006842,0.0537549,20.9461,476.103,0.263367,0.0,0.0
484,120.75,31.4057,33.535,160.909,102.577,99.6613,0.000664606,0.0537367,20.9463,476.093,0.264613,0.0,0.0
486,121.25,30.8966,33.88,165.37,102.573,99.7648,0.000648736,0.0537346,20.9464,476.093,0.254687,0.0,0.0
488,121.75,31.2356,34.1656,165.568,102.566,100.155,0.000659099,0.0537329,20.9465,476.083,0.218218,0.0,0.0
490,122.25,31.3054,33.282,160.775,102.583,100.038,0.000667493,0.053745,20.9466,476.103,0.230542,0.0,0.0
492,122.75,31.661,33.3746,159.006,102.559,99.6811,0.000696302,0.0537547,20.9467,476.093,0.261133,0.0,0.0
494,123.25,31.3176,34.0931,158.846,102.574,99.534,0.000719637,0.0537365,20.9467,476.103,0.276081,0.0,0.0
496,123.75,30.7192,33.9444,162.809,102.567,99.6223,0.000738539,0.0537217,20.9468,476.093,0.267286,0.0,0.0
498,124.25,31.377,33.5964,159.921,102.583,99.6735,0.000764859,0.0536963,20.9468,476.103,0.264008,0.0,0.0
500,124.75,30.7861,33.8403,165.62,102.563,100.189,0.000786178,0.0536758,20.9468,476.103,0.214922,0.0,0.0
502,125.25,31.5982,33.853,166.133,102.583,100.457,0.000798553,0.0536591,20.9469,476.103,0.192203,0.0,0.0
504,125.75,31.137,33.9205,162.734,102.586,99.7602,0.000808576,0.0536456,20.9469,476.093,0.256286,0.0,0.0
506,126.25,31.5112,33.9161,158.706,102.578,99.6081,0.000816696,0.0536136,20.9469,476.093,0.26959,0.0,0.0
508,126.75,31.1107,33.8088,161.938,102.576,99.7724,0.000815547,0.0535686,20.9469,476.093,0.254283,0.0,0.0
510,127.25,31.6076,33.6107,157.743,102.588,99.9209,0.000807665,0.0535321,20.9473,476.113,0.241697,0.0,0.0
512,127.75,31.3637,33.73,165.314,102.575,99.6796,0.000793558,0.053516,20.9477,476.093,0.262747,0.0,0.0
514,128.25,31.3767,33.6845,163.907,102.586,99.7141,0.000775182,0.0535029,20.9479,476.083,0.260569,0.0,0.0
516,128.75,31.1183,34.128,154.772,102.575,99.9017,0.000753222,0.0534923,20.9482,476.093,0.242289,0.0,0.0
518,129.25,31.3264,33.7692,164.174,102.583,99.5021,0.000729067,0.0534555,20.9484,476.093,0.279837,0.0,0.0
520,129.75,31.1661,34.0289,164.947,102.582,99.8854,0.000709502,0.0534004,20.9485,476.083,0.244405,0.0,0.0
522,130.25,31.248,33.9652,159.401,102.582,99.6344,0.000682659,0.0533486,20.9486,476.093,0.26753,0.0,0.0
524,130.75,31.2343,33.2995,160.962,102.59,99.856,0.000660916,0.0533004,20.9487,476.093,0.247881,0.0,0.0
526,131.25,31.0776,33.2766,161.669,102.585,99.6745,0.000643305,0.0532543,20.9488,476.083,0.264062,0.0,0.0
528,131.75,31.2333,33.3255,160.652,102.587,99.672,0.000625375,0.0532106,20.9487,476.083,0.264517,0.0,0.0
530,132.25,30.9201,34.1597,160.065,102.587,99.7861,0.000610853,0.0531752,20.9486,476.073,0.253982,0.0,0.0
532,132.75,31.0901,33.8737,160.075,102.582,100.358,0.00060764,0.0531465,20.9485,476.093,0.201092,0.0,0.0
534,133.25,31.1319,33.9963,162.416,102.58,99.892,0.00060627,0.0531233,20.9485,476.083,0.243652,0.0,0.0
536,133.75,31.3422,33.6996,161.75,102.594,99.5579,0.000607786,0.05309,20.9485,476.083,0.275617,0.0,0.0
538,134.25,30.8389,34.1042,161.199,102.585,99.4625,0.000612487,0.0530501,20.9484,476.073,0.28367,0.0,0.0
540,134.75,31.522,33.6676,162.452,102.594,99.7724,0.000613079,0.0530178,20.9484,476.063,0.255868,0.0,0.0
542,135.25,31.7429,34.1997,162.945,102.578,100.152,0.000610665,0.052938,20.9484,476.073,0.219613,0.0,0.0
544,135.75,31.1161,33.4139,161.34,102.593,100.3,0.000599709,0.0528734,20.9483,476.073,0.207374,0.0,0.0
546,136.25,31.024,33.8569,160.876,102.599,100.352,0.000582735,0.0528459,20.9483,476.083,0.203113,0.0,0.0
548,136.75,31.3676,33.4684,159.978,102.59,99.8307,0.000568986,0.0527988,20.9483,476.073,0.250175,0.0,0.0
550,137.25,30.1209,33.6867,159.943,102.6,99.9037,0.000530994,0.0527606,20.9485,476.063,0.244387,0.0,0.0
552,137.75,31.1666,33.7296,159.43,102.596,100.085,0.000500221,0.0527164,20.9489,476.063,0.227443,0.0,0.0
554,138.25,30.7868,33.2938,159.562,102.598,99.6633,0.00046438,0.0526594,20.9493,476.063,0.26627,0.0,0.0
556,138.75,31.0133,33.8106,160.417,102.593,100.151,0.000425525,0.0525942,20.9495,476.063,0.221107,0.0,0.0
558,139.25,30.8062,33.6445,161.394,102.599,99.4991,0.000390844,0.0525625,20.9497,476.063,0.281556,0.0,0.0
560,139.75,30.8222,33.7263,162.638,102.589,99.6892,0.000359864,0.0525558,20.9499,476.053,0.263114,0.0,0.0
562,140.25,30.5051,33.3247,164.232,102.594,99.528,0.00033477,0.0525505,20.95,476.063,0.278412,0.0,0.0
564,140.75,31.0534,33.6122,161.24,102.592,99.4945,0.00030713,0.0525602,20.9499,476.063,0.28135,0.0,0.0
566,141.25,31.6322,33.6757,160.462,102.596,99.7348,0.00028474,0.0525808,20.9496,476.063,0.259541,0.0,0.0
568,141.75,31.2164,33.8123,159.296,102.593,99.7927,0.000255635,0.0525975,20.9493,476.053,0.253929,0.0,0.0
570,142.25,30.4876,33.5846,160.928,102.588,100.583,0.00023206,0.0525708,20.9491,476.053,0.181118,0.0,0.0
572,142.75,30.999,33.9207,162.246,102.597,100.136,0.000212964,0.0525492,20.949,476.053,0.222776,0.0,0.0
574,143.25,31.1113,33.8274,165.323,102.593,99.6202,0.000197496,0.0524781,20.9488,476.063,0.269833,0.0,0.0
576,143.75,30.6903,33.6908,160.066,102.6,99.5523,0.000193949,0.0524206,20.9487,476.073,0.276721,0.0,0.0
578,144.25,30.9854,33.6044,159.303,102.6,99.6816,0.00019916,0.0523472,20.9486,476.053,0.264809,0.0,0.0
580,144.75,31.1389,33.3707,162.118,102.607,100.283,0.000203381,0.0522878,20.949,476.063,0.210205,0.0,0.0
582,145.25,31.2966,33.3137,165.472,102.596,99.9007,0.000228754,0.0522396,20.9493,476.053,0.244261,0.0,0.0
584,145.75,31.0762,33.3637,162.743,102.589,99.8104,0.000249306,0.0522006,20.9493,476.053,0.251966,0.0,0.0
586,146.25,30.8132,33.6365,159.53,102.606,99.8469,0.000267173,0.0522092,20.9491,476.053,0.250122,0.0,0.0
588,146.75,30.8008,33.7561,165.711,102.61,99.6933,0.000281645,0.0522161,20.9492,476.063,0.264584,0.0,0.0
590,147.25,31.0867,33.7609,157.403,102.596,100.445,0.000286048,0.0522288,20.9495,476.063,0.19442,0.0,0.0
592,147.75,31.0181,33.8814,158.206,102.614,99.7835,0.000289613,0.0522454,20.9497,476.063,0.256649,0.0,0.0
594,148.25,31.3176,33.9582,160.696,102.59,99.9722,0.000284158,0.0522588,20.9499,476.063,0.237217,0.0,0.0
596,148.75,30.9232,33.3954,165.156,102.599,99.9853,0.000272229,0.052176,20.95,476.063,0.236818,0.0,0.0
598,149.25,31.2125,33.7321,162.906,102.589,100.072,0.000262567,0.052109,20.9501,476.063,0.227951,0.0,0.0
600,149.75,31.2339,33.4206,163.112,102.615,99.9762,0.000245117,0.0520546,20.9502,476.063,0.239019,0.0,0.0
602,150.25,30.9345,33.9044,160.029,102.597,99.5756,0.000222321,0.0520106,20.9503,476.063,0.274313,0.0,0.0
604,150.75,31.1498,33.5736,157.487,102.609,99.2455,0.000198084,0.051975,20.9502,476.073,0.305816,0.0,0.0
606,151.25,31.0682,34.1995,166.626,102.596,99.8023,0.000173258,0.0519461,20.9501,476.063,0.253376,0.0,0.0
608,151.75,31.6278,33.7972,163.571,102.615,99.8915,0.000153149,0.0519298,20.9501,476.063,0.246832,0.0,0.0
610,152.25,31.0345,33.4885,160.102,102.585,99.8449,0.00013686,0.0519229,20.95,476.063,0.248427,0.0,0.0
612,152.75,30.6078,34.0701,161.026,102.602,99.7034,0.000102961,0.0519173,20.95,476.063,0.262951,0.0,0.0
614,153.25,30.897,33.3183,161.304,102.606,99.6172,7.55025e-05,0.0518775,20.9499,476.063,0.27122,0.0,0.0
616,153.75,31.1575,33.3308,164.071,102.6,100.154,3.49935e-05,0.0518136,20.9499,476.063,0.221408,0.0,0.0
618,154.25,31.0611,33.3486,165.175,102.594,99.7237,2.18114e-06,0.0517619,20.9499,476.053,0.26042,0.0,0.0
620,154.75,30.7535,33.6848,164.953,102.601,100.06,-5.119e-05,0.0517066,20.9499,476.063,0.230164,0.0,0.0
622,155.25,31.0169,32.661,163.412,102.595,99.6933,-9.44206e-05,0.0516618,20.9501,476.053,0.263294,0.0,0.0
624,155.75,30.6416,34.0589,163.443,102.596,100.056,-0.000157448,0.0516537,20.9505,476.063,0.230094,0.0,0.0
626,156.25,30.7463,33.2234,158.882,102.58,99.9782,-0.000208501,0.0516725,20.9508,476.073,0.2357,0.0,0.0
628,156.75,30.9565,33.5052,161.809,102.599,99.7232,-0.000265686,0.0516877,20.9511,476.073,0.260909,0.0,0.0
630,157.25,31.2333,33.7947,162.454,102.592,99.7369,-0.000312005,0.0516331,20.9513,476.063,0.259023,0.0,0.0
632,157.75,31.0906,33.5594,163.876,102.6,100.222,-0.00035196,0.0515889,20.9514,476.063,0.215149,0.0,0.0
634,158.25,31.0422,32.9953,162.232,102.587,99.6852,-0.000384324,0.0515397,20.9516,476.063,0.263303,0.0,0.0
636,158.75,30.8165,34.2077,163.282,102.607,99.6147,-0.000410538,0.0514998,20.9517,476.073,0.271563,0.0,0.0
638,159.25,30.9415,33.4227,162.786,102.586,99.8773,-0.000421516,0.0514675,20.9518,476.063,0.245519,0.0,0.0
640,159.75,30.134,33.8422,163.621,102.602,99.7643,-0.000421178,0.0514414,20.9518,476.053,0.257351,0.0,0.0
642,160.25,31.7019,33.6194,160.174,102.581,100.531,-0.000410007,0.0513801,20.9519,476.053,0.185222,0.0,0.0
644,160.75,30.6226,33.4854,161.916,102.603,100.066,-0.000391152,0.0513304,20.9519,476.063,0.22979,0.0,0.0
646,161.25,30.8244,34.2291,162.45,102.574,99.5736,-0.000375879,0.0512902,20.952,476.063,0.272399,0.0,0.0
648,161.75,30.8783,33.6235,160.178,102.598,99.7774,-0.000341586,0.0512442,20.952,476.063,0.255807,0.0,0.0
650,162.25,30.5429,33.1615,161.722,102.592,99.8875,-0.000313809,0.0512069,20.952,476.063,0.245177,0.0,0.0
652,162.75,30.925,33.6356,158.997,102.593,99.9757,-0.000294515,0.0511838,20.9521,476.063,0.237113,0.0,0.0
654,163.25,30.8136,33.1884,160.764,102.585,99.8226,-0.000281772,0.0511714,20.9521,476.053,0.250441,0.0,0.0
656,163.75,31.0746,33.0215,161.997,102.612,99.6963,,0.0511614,,476.053,0.264489,0.0,0.0
658,164.25,30.7115,33.601,157.105,102.575,99.8449,,0.0511533,,476.063,0.24758,0.0,0.0
660,164.75,31.0493,33.6996,158.921,102.596,100.375,,0.0511467,,476.043,0.200843,0.0,0.0
662,165.25,31.3981,33.7703,160.605,102.588,99.6375,,0.0510745,,476.053,0.267766,0.0,0.0
664,165.75,30.9644,33.3526,167.395,102.581,100.074,,0.0510159,,476.053,0.227064,0.0,0.0
666,166.25,31.2204,33.5226,163.036,102.571,100.478,,0.0509819,,476.053,0.18916,0.0,0.0
668,166.75,30.6659,33.9602,163.394,102.584,99.9706,,,,476.053,0.236803,0.0,0.0
670,167.25,30.4179,33.1011,169.951,102.575,99.7967,,,,476.053,0.251971,0.0,0.0
672,167.75,30.6676,33.7863,163.957,102.584,99.8241,,,,476.043,0.250265,0.0,0.0
674,168.25,31.3226,33.3577,161.539,102.578,99.9194,,,,476.053,0.240952,0.0,0.0
676,168.75,30.8818,33.3782,161.779,102.583,99.9265,,,,476.053,0.240744,0.0,0.0
678,169.25,30.7796,33.5176,160.487,102.574,99.6451,,,,476.053,0.265849,0.0,0.0
680,169.75,30.9202,33.2441,162.966,102.578,100.122,,,,476.053,0.222354,0.0,0.0
682,170.25,31.4206,33.3356,158.936,102.587,99.606,,,,476.053,0.270551,0.0,0.0
684,170.75,30.8778,33.0832,160.333,102.569,99.7774,,,,476.043,0.253189,0.0,0.0
686,171.25,30.7207,33.4976,165.401,102.582,100.132,,,,476.043,0.221867,0.0,0.0
688,171.75,30.7356,33.1466,160.165,102.569,100.21,,,,476.053,0.213496,0.0,0.0
690,172.25,30.8385,33.4429,164.291,102.566,99.7861,,,,476.043,0.252138,0.0,0.0
692,172.75,31.1724,33.5571,160.835,102.567,100.501,,,,476.043,0.186735,0.0,0.0
694,173.25,30.9436,33.828,159.031,102.575,100.188,,,,476.053,0.21613,0.0,0.0
696,173.75,31.0016,33.6461,162.27,102.568,99.781,,,,476.043,0.252826,0.0,0.0
698,174.25,30.3816,33.5716,158.973,102.563,100.663,,,,476.053,0.171572,0.0,0.0
699,174.5,30.7343,33.0673,164.518,102.559,99.9651,,,,476.053,0.235104,0.0,0.0