File: 02_Data/Polyester_Fabric/Cone/Polyester_Fabric_Cone_HF50Scan_210326_R3.csv
Names,Time,Stack TC,Smoke TC,Exh Press,Smoke Comp,Smoke Meas,CO Meter,CO2 Meter,O2 Meter,Sample Mass,Ext Coeff,Start Test,Flame Verif
Chan Gain,,500,500,1,1,1,1,1,1,1,1,1.0,1.0
Offset,,0,0,0.138348,0,0,0,0,0,0,0,0.0,0.0
Gain,,1,1,25.011,13.5067,16.616,1,1,1,1.00091,1.04608,1.0,1.0
Units,sec,C,C,Pa,%,%,%,%,%,g,/m,,
Baseline,,33.4271,35.6733,162.606,102.014,99.2797,-0.00140461,0.0485151,20.9567,-0.0601381,0.249381,,
2,0.25,30.7746,33.1132,159.848,102.27,99.3637,-0.00130505,0.0490071,20.955,481.238,0.264548,0.0,0.0
4,0.75,30.6504,32.9965,163.973,102.273,99.5224,-0.00131651,0.0492216,20.9549,481.368,0.250161,0.0,0.0
6,1.25,30.8505,32.3858,162.735,102.267,99.5741,-0.00132638,0.0495158,20.9549,481.358,0.244839,0.0,0.0
8,1.75,30.6981,32.8443,163.853,102.275,99.4925,-0.00133437,0.049754,20.9548,481.708,0.253143,0.0,0.0
10,2.25,30.3805,33.1242,161.562,102.263,99.4194,-0.00132623,0.0500809,20.9548,481.769,0.258806,0.0,0.0
12,2.75,30.8028,32.7877,163.396,102.269,99.4737,-0.00131963,0.0503456,20.9548,483.84,0.254281,0.0,0.0
14,3.25,31.0376,32.8494,163.922,102.261,99.4914,-0.00130454,0.0506516,20.9543,482.799,0.251904,0.0,0.0
16,3.75,31.0757,33.2932,162.84,102.271,99.6076,-0.00129232,0.0509819,20.9535,482.99,0.242126,0.0,0.0
18,4.25,30.9876,33.2204,164.059,102.266,99.8712,-0.00128199,0.0512494,20.9531,481.839,0.217423,0.0,0.0
20,4.75,31.0172,33.1627,162.704,102.265,99.7389,-0.00126431,0.0517206,20.9521,481.008,0.229518,0.0,0.0
22,5.25,31.0829,33.3772,162.699,102.249,99.5416,-0.00124999,0.0521022,20.9512,481.959,0.246203,0.0,0.0
24,5.75,31.5725,33.5246,166.46,102.259,99.7201,-0.00123109,0.0526159,20.9497,481.118,0.230688,0.0,0.0
26,6.25,30.8717,33.4188,161.29,102.242,99.4347,-0.00121578,0.053216,20.9484,481.188,0.255479,0.0,0.0
28,6.75,31.1676,33.5848,161.565,102.257,99.2709,-0.00120824,0.0539837,20.9471,481.268,0.271938,0.0,1.0
30,7.25,30.9659,33.7533,159.23,102.251,99.7288,-0.00120214,0.054311,20.9459,481.288,0.229192,0.0,1.0
32,7.75,31.1576,33.4755,164.472,102.267,99.459,-0.00121182,0.0550048,20.9449,481.308,0.255453,0.0,1.0
34,8.25,31.3556,33.5771,163.663,102.244,99.8636,-0.00121965,0.0556876,20.9441,481.308,0.21616,0.0,1.0
36,8.75,31.1266,33.6205,160.484,102.249,99.4767,-0.001226,0.0562406,20.9434,481.308,0.252224,0.0,1.0
38,9.25,31.3819,33.9549,161.193,102.24,99.4499,-0.00123114,0.0568016,20.9429,481.338,0.253928,0.0,1.0
40,9.75,31.7081,33.8162,162.49,102.254,99.4002,-0.00127184,0.0573577,20.942,481.318,0.259772,0.0,1.0
42,10.25,31.7839,34.0271,158.807,102.236,99.4575,-0.00130481,0.0579849,20.941,481.298,0.252819,0.0,1.0
44,10.75,30.7164,32.6879,164.894,102.247,99.7774,-0.0013283,0.058652,20.9402,481.298,0.224344,0.0,1.0
46,11.25,30.0037,32.0925,159.781,102.235,99.5817,-0.00134445,0.0591924,20.9395,481.328,0.241326,0.0,1.0
48,11.75,29.9309,32.2902,162.261,102.244,98.8637,-0.00135754,0.0596301,20.939,481.288,0.308507,0.0,1.0
50,12.25,30.1902,32.4227,158.759,102.234,98.6152,-0.0013389,0.061384,20.9379,481.278,0.33071,0.0,0.0
52,12.75,30.1223,32.4736,161.166,102.245,97.9925,-0.00132381,0.0628048,20.9363,481.288,0.389797,0.0,0.0
54,13.25,29.5984,32.2393,158.438,102.232,97.5706,-0.00127383,0.0648296,20.9334,481.268,0.428204,0.0,0.0
56,13.75,29.7644,32.7174,162.38,102.249,96.6361,-0.00123334,0.0672564,20.9295,481.258,0.518109,0.0,0.0
58,14.25,30.0569,32.3408,161.97,102.232,96.1645,-0.00116158,0.0692221,20.9248,481.248,0.561444,0.0,0.0
60,14.75,30.0779,32.7582,161.621,102.236,95.5834,-0.00110345,0.0728619,20.9195,481.248,0.617396,0.0,0.0
62,15.25,30.2387,32.692,158.785,102.221,95.3877,-0.00100156,0.0758102,20.9137,481.228,0.634837,0.0,0.0
64,15.75,30.2636,32.9915,158.439,102.239,94.4115,-0.000919031,0.0801877,20.9078,481.218,0.73085,0.0,0.0
66,16.25,30.6968,33.1415,156.28,102.215,93.5485,-0.000852181,0.0837335,20.9018,481.218,0.812972,0.0,0.0
68,16.75,30.6178,33.2128,158.876,102.229,93.7072,-0.000749318,0.0883718,20.896,481.198,0.798712,0.0,0.0
70,17.25,30.9151,33.3878,159.554,102.209,92.9517,-0.000622154,0.0921288,20.8912,481.188,0.871184,0.0,0.0
72,17.75,30.8081,33.4221,158.823,102.228,93.7011,-0.000483235,0.0970704,20.8846,481.168,0.79916,0.0,0.0
74,18.25,30.8764,34.0227,159.21,102.213,92.8031,-0.000338387,0.101073,20.8793,481.138,0.886233,0.0,0.0
76,18.75,31.3409,34.252,162.51,102.216,92.0521,-0.00017221,0.104315,20.8724,481.098,0.96105,0.0,0.0
78,19.25,31.0984,34.0326,162.067,102.202,91.8295,6.35898e-06,0.109808,20.8653,481.098,0.982009,0.0,0.0
80,19.75,31.1545,34.3539,160.223,102.208,91.7534,0.000211593,0.114257,20.8583,481.088,0.990169,0.0,0.0
82,20.25,31.3861,34.5054,158.605,102.197,91.4735,0.000432366,0.119271,20.8505,481.068,1.01724,0.0,0.0
84,20.75,31.311,34.6494,156.102,102.204,90.7154,0.000678455,0.124601,20.8423,481.048,1.09423,0.0,0.0
86,21.25,31.4695,34.7489,155.143,102.181,90.8493,0.000938323,0.131634,20.8357,481.038,1.07859,0.0,0.0
88,21.75,32.2487,35.936,155.673,102.204,89.5948,0.00114882,0.137331,20.8258,481.028,1.20826,0.0,0.0
90,22.25,32.3373,36.0408,157.379,102.193,88.9822,0.00148835,0.143919,20.8178,480.978,1.27025,0.0,0.0
92,22.75,32.5761,35.7907,152.353,102.199,85.9955,0.00176337,0.151033,20.8081,480.938,1.58401,0.0,0.0
94,23.25,32.5002,35.8586,153.259,102.2,84.9362,0.00210888,0.159318,20.7972,480.918,1.69786,0.0,0.0
96,23.75,33.0203,37.0998,151.598,102.211,85.0534,0.00249922,0.168302,20.7884,480.868,1.68621,0.0,0.0
98,24.25,32.3903,37.0764,155.859,102.208,85.3074,0.00281539,0.178626,20.7741,480.848,1.65859,0.0,0.0
100,24.75,33.5723,37.6527,149.666,102.191,84.2705,0.00325611,0.18973,20.7626,480.808,1.76929,0.0,0.0
102,25.25,33.5991,37.7239,151.98,102.191,83.6812,0.00370809,0.198725,20.7456,480.748,1.83368,0.0,0.0
104,25.75,33.5691,37.7451,150.025,102.188,81.8887,0.0041597,0.212326,20.7319,480.728,2.03204,0.0,0.0
106,26.25,33.9927,38.5584,152.218,102.188,81.7513,0.00459905,0.223342,20.7207,480.658,2.04753,0.0,0.0
108,26.75,34.8516,38.8494,149.463,102.191,81.8111,0.0050211,0.234991,20.7055,480.608,2.04104,0.0,0.0
110,27.25,34.8424,39.1657,153.414,102.178,81.8294,0.00536296,0.246878,20.6931,480.567,2.03784,0.0,0.0
112,27.75,34.8815,40.0834,149.963,102.183,81.2751,0.00575984,0.258327,20.678,480.517,2.10065,0.0,0.0
114,28.25,35.7505,39.9105,156.461,102.184,81.4607,0.0060813,0.269239,20.6658,480.467,2.07983,0.0,0.0
116,28.75,35.3291,41.1042,153.216,102.178,82.3613,0.00642147,0.27944,20.6542,480.437,1.97839,0.0,0.0
118,29.25,35.9885,41.4968,148.875,102.168,78.8239,0.006697,0.288928,20.6434,480.377,2.38028,0.0,0.0
120,29.75,36.2383,41.933,151.346,102.173,81.0571,0.00692018,0.296613,20.6346,480.317,2.12437,0.0,0.0
122,30.25,36.0602,42.3004,150.742,102.164,80.2235,0.00714916,0.304765,20.6252,480.227,2.21846,0.0,0.0
124,30.75,36.6375,42.3628,154.198,102.165,78.3163,0.00733329,0.311368,20.6177,480.217,2.43934,0.0,0.0
126,31.25,36.0158,43.2519,157.734,102.167,82.3572,0.00748124,0.31759,20.6115,480.157,1.97788,0.0,0.0
128,31.75,37.1826,43.3918,153.818,102.167,80.552,0.00760108,0.32263,20.6066,480.117,2.18121,0.0,0.0
130,32.25,37.554,43.657,149.905,102.162,80.1322,0.00769815,0.327141,20.6025,480.037,2.22872,0.0,0.0
132,32.75,37.3068,44.0459,152.659,102.152,78.831,0.0077083,0.331179,20.5998,480.027,2.37805,0.0,0.0
134,33.25,37.4928,44.1001,159.481,102.174,78.9471,0.00771653,0.33445,20.5979,479.957,2.36647,0.0,0.0
136,33.75,37.7398,44.3395,152.726,102.157,80.3989,0.00764346,0.337403,20.5967,479.907,2.19774,0.0,0.0
138,34.25,37.3123,44.8193,153.114,102.18,80.6058,0.00758428,0.339795,20.5959,479.867,2.17623,0.0,0.0
140,34.75,38.0967,45.1637,150.991,102.165,81.9379,0.00746261,0.341733,20.5953,479.817,2.0245,0.0,0.0
142,35.25,38.8395,44.6774,154.473,102.159,82.9176,0.00729771,0.341058,20.5983,479.777,1.91488,0.0,0.0
144,35.75,38.3117,45.2293,152.44,102.15,83.4074,0.00707419,0.340512,20.6008,479.747,1.86009,0.0,0.0
146,36.25,38.6324,45.1323,153.44,102.156,85.2085,0.00681216,0.338048,20.61,479.727,1.66453,0.0,0.0
148,36.75,38.5901,45.2965,156.46,102.137,85.7379,0.00659992,0.334233,20.6174,479.697,1.60599,0.0,0.0
150,37.25,38.9929,45.3613,151.134,102.158,86.276,0.00626893,0.328865,20.6234,479.667,1.55048,0.0,0.0
152,37.75,38.6743,45.7265,160.123,102.141,88.2531,0.00585766,0.322468,20.6354,479.627,1.34109,0.0,0.0
154,38.25,38.5777,45.3405,157.679,102.152,90.7144,0.00552453,0.314542,20.6451,479.627,1.08964,0.0,0.0
156,38.75,38.5543,45.2234,155.586,102.132,90.3483,0.00507227,0.305652,20.6571,479.597,1.12489,0.0,0.0
158,39.25,38.7778,45.2395,155.93,102.141,92.0105,0.00470594,0.298452,20.6705,479.587,0.958458,0.0,0.0
160,39.75,38.8925,45.2409,158.071,102.146,93.0662,0.00425109,0.2863,20.6848,479.557,0.854215,0.0,0.0
162,40.25,38.5825,45.4983,158.669,102.148,92.7199,0.00388266,0.276457,20.6996,479.567,0.888611,0.0,0.0
164,40.75,38.3448,45.198,160.767,102.137,94.8745,0.00346855,0.268484,20.7166,479.567,0.676821,0.0,0.0
166,41.25,38.1679,44.8558,160.637,102.148,96.4312,0.00313311,0.255538,20.7347,479.557,0.528478,0.0,0.0
168,41.75,38.3651,44.8871,155.223,102.141,96.1853,0.00278408,0.245052,20.752,479.547,0.55128,0.0,0.0
170,42.25,38.4939,44.6141,155.034,102.146,97.2517,0.00250136,0.232393,20.7684,479.557,0.450588,0.0,0.0
172,42.75,37.9626,44.1419,162.361,102.149,97.6518,0.00222825,0.222139,20.7816,479.526,0.413176,0.0,0.0
174,43.25,37.7359,43.9926,156.979,102.155,97.8019,0.00200702,0.210118,20.7964,479.537,0.399601,0.0,0.0
176,43.75,38.2122,43.7318,158.674,102.15,99.2648,0.00182783,0.20038,20.8083,479.516,0.262915,0.0,0.0
178,44.25,37.5992,43.6097,157.026,102.145,99.9296,0.00165575,0.190742,20.8196,479.537,0.201224,0.0,0.0
180,44.75,37.929,43.2717,163.326,102.131,99.9402,0.00151637,0.18136,20.8303,479.537,0.198949,0.0,0.0
182,45.25,37.4514,43.3125,159.359,102.132,99.8525,0.00140591,0.172457,20.8403,479.516,0.207156,0.0,0.0
184,45.75,37.305,43.2042,159.831,102.132,99.5726,0.00131645,0.164073,20.8497,479.516,0.232878,0.0,0.0
186,46.25,36.961,42.8647,157.351,102.142,99.3941,0.00126234,0.157281,20.8583,479.516,0.25023,0.0,0.0
188,46.75,36.8342,43.1672,164.332,102.131,99.1679,0.00121851,0.148935,20.866,479.526,0.270132,0.0,0.0
190,47.25,36.6997,42.4872,162.793,102.138,98.7055,0.00121609,0.142174,20.8724,479.537,0.31369,0.0,0.0
192,47.75,36.9705,42.3221,162.036,102.139,99.4909,0.00121413,0.134804,20.8792,479.526,0.24107,0.0,0.0
194,48.25,36.6242,41.5308,159.649,102.149,99.6071,0.00124418,0.128834,20.8848,479.537,0.231218,0.0,0.0
196,48.75,36.5578,41.7671,162.643,102.123,99.9169,0.00129698,0.122687,20.8907,479.547,0.200388,0.0,0.0
198,49.25,36.338,41.5811,160.436,102.14,99.6664,0.00136303,0.117707,20.8954,479.537,0.22494,0.0,0.0
200,49.75,36.3167,41.6254,160.303,102.125,99.673,0.00143748,0.112652,20.9006,479.537,0.223036,0.0,0.0
202,50.25,34.8879,40.1294,163.903,102.136,99.3383,0.00149778,0.108557,20.9048,479.526,0.254862,0.0,0.0
204,50.75,35.4024,40.1066,165.117,102.133,100.163,0.0015777,0.10524,20.9082,479.526,0.178719,0.0,0.0
206,51.25,35.3078,39.856,164.566,102.13,99.6375,0.00167041,0.101588,20.911,479.526,0.22675,0.0,0.0
208,51.75,35.0381,40.0167,163.535,102.128,98.8013,0.00177078,0.0983584,20.9132,479.526,0.303896,0.0,0.0
210,52.25,35.232,40.101,162.709,102.142,99.458,0.00187485,0.0954983,20.915,479.516,0.244371,0.0,0.0
212,52.75,34.7342,40.2582,161.616,102.131,99.5087,0.00198381,0.0931816,20.9165,479.516,0.238693,0.0,0.0
214,53.25,35.4875,39.2627,163.761,102.137,99.5153,0.00209427,0.0911017,20.9177,479.526,0.238604,0.0,0.0
216,53.75,34.3011,39.4322,162.273,102.128,99.71,0.00218374,0.089417,20.9186,479.526,0.219889,0.0,0.0
218,54.25,34.376,38.7968,158.307,102.135,99.3317,0.00230191,0.0880096,20.9194,479.526,0.25536,0.0,0.0
220,54.75,34.9688,39.2216,159.878,102.116,99.2744,0.00239763,0.0868311,20.9198,479.537,0.258988,0.0,0.0
222,55.25,34.7324,38.6251,162.074,102.132,99.5361,0.00247516,0.0858051,20.9199,479.526,0.236205,0.0,0.0
224,55.75,34.459,38.5511,157.564,102.125,99.4681,0.00258496,0.0849099,20.9197,479.516,0.241841,0.0,0.0
226,56.25,34.3496,38.2317,155.568,102.14,99.3403,0.00267389,0.0841848,20.9193,479.516,0.255008,0.0,0.0
228,56.75,34.1245,38.8909,158.775,102.118,99.6841,0.00275569,0.0833537,20.919,479.516,0.221307,0.0,0.0
230,57.25,34.1534,38.4631,163.5,102.137,99.8353,0.00283075,0.0826805,20.9187,479.516,0.209184,0.0,0.0
232,57.75,33.7126,37.7537,161.084,102.127,99.2952,0.00289154,0.0821352,20.9185,479.507,0.25803,0.0,0.0
234,58.25,34.5485,38.0835,161.635,102.139,99.1111,0.00294274,0.0815083,20.9183,479.516,0.276129,0.0,0.0
236,58.75,33.478,38.1278,161.813,102.137,99.0199,0.00298597,0.0808338,20.9186,479.507,0.284436,0.0,0.0
238,59.25,33.8638,37.7551,160.883,102.154,99.891,0.00301708,0.0801522,20.9188,479.496,0.205577,0.0,0.0
240,59.75,33.619,38.0294,160.757,102.136,99.6263,0.00303876,0.0794783,20.9195,479.496,0.228296,0.0,0.0
242,60.25,34.0441,38.1764,161.692,102.151,99.7105,0.00305306,0.0789325,20.92,479.496,0.221916,0.0,0.0
244,60.75,33.7722,37.4547,159.399,102.142,99.4869,0.00306172,0.0780985,20.9209,479.496,0.241667,0.0,0.0
246,61.25,33.887,37.3196,165.129,102.145,99.672,0.00306221,0.0774229,20.9216,479.516,0.224871,0.0,0.0
248,61.75,33.6615,37.7566,160.938,102.151,100.043,0.00305675,0.0768757,20.9221,479.496,0.191317,0.0,0.0
250,62.25,33.3173,36.8158,159.502,102.166,99.6304,0.00304712,0.0760139,20.9226,479.496,0.230625,0.0,0.0
252,62.75,33.0172,37.0247,158.904,102.165,99.5427,0.00303463,0.0753158,20.9239,479.496,0.238634,0.0,0.0
254,63.25,33.3535,37.4543,155.358,102.165,99.492,0.00301996,0.0744805,20.9249,479.496,0.243272,0.0,0.0
256,63.75,32.6623,37.7204,163.431,102.155,99.6096,0.00300397,0.0736548,20.9257,479.486,0.23154,0.0,0.0
258,64.25,33.5185,37.4902,165.318,102.167,99.8895,0.00299102,0.0728519,20.9264,479.496,0.206902,0.0,0.0
260,64.75,33.521,36.8412,161.204,102.158,99.3956,0.00297728,0.0720597,20.927,479.496,0.251533,0.0,0.0
262,65.25,32.9797,36.7949,160.755,102.17,99.1639,0.00296322,0.0712904,20.9283,479.507,0.274063,0.0,0.0
264,65.75,33.4384,36.3716,156.756,102.172,99.5411,0.00295183,0.0705396,20.9294,479.496,0.239328,0.0,0.0
266,66.25,33.0686,36.5439,163.46,102.171,99.2273,0.00293148,0.0698166,20.9302,479.486,0.268273,0.0,0.0
268,66.75,33.0452,37.0154,162.212,102.168,99.3936,0.002915,0.069231,20.931,479.486,0.252646,0.0,0.0
270,67.25,33.336,36.4056,159.71,102.166,99.248,0.00288558,0.0684606,20.9315,479.476,0.265906,0.0,0.0
272,67.75,32.8799,36.2305,160.597,102.193,99.3135,0.0028572,0.0678365,20.932,479.476,0.262267,0.0,0.0
274,68.25,33.1725,36.1917,162.377,102.177,99.8327,0.00283012,0.0671823,20.9324,479.466,0.213009,0.0,0.0
276,68.75,33.1696,36.7674,160.29,102.177,99.2993,0.00280818,0.0665186,20.9327,479.476,0.262172,0.0,0.0
278,69.25,32.9174,36.4757,163.672,102.189,99.2612,0.00279287,0.065981,20.9332,479.476,0.266762,0.0,0.0
280,69.75,32.3935,36.7505,161.35,102.186,99.924,0.00278048,0.065317,20.9338,479.476,0.205363,0.0,0.0
282,70.25,32.682,36.2484,159.401,102.188,99.5969,0.00277785,0.0647791,20.9344,479.476,0.235706,0.0,0.0
284,70.75,32.3019,35.9308,159.069,102.194,99.425,0.00277572,0.0642091,20.9351,479.476,0.252039,0.0,0.0
286,71.25,32.6975,36.0322,161.783,102.186,99.6375,0.00277724,0.0637473,20.9356,479.486,0.231784,0.0,0.0
288,71.75,32.8681,36.138,163.343,102.202,99.5868,0.00278141,0.063198,20.936,479.486,0.237826,0.0,0.0
290,72.25,32.4385,36.29,169.464,102.196,99.1598,0.00277958,0.062753,20.9364,479.476,0.276769,0.0,0.0
292,72.75,32.3768,35.7634,154.875,102.195,99.8778,0.00277341,0.0622717,20.9366,479.466,0.210453,0.0,0.0
294,73.25,32.2518,36.0591,161.005,102.199,99.2597,0.00276842,0.0618819,20.9369,479.476,0.267753,0.0,0.0
296,73.75,32.69,35.6313,156.821,102.211,99.7724,0.00274585,0.0614884,20.9375,479.476,0.221555,0.0,0.0
298,74.25,32.181,35.7549,160.946,102.205,100.007,0.00272756,0.0610997,20.938,479.466,0.199469,0.0,0.0
300,74.75,32.7833,35.6852,163.85,102.208,99.4524,0.00268807,0.0607848,20.9384,479.466,0.250808,0.0,0.0
302,75.25,32.0176,35.5354,164.377,102.211,99.8804,0.00265608,0.0603955,20.9387,479.466,0.211663,0.0,0.0
304,75.75,33.0631,35.4468,159.397,102.216,99.3515,0.00260549,0.0600802,20.939,479.456,0.260863,0.0,0.0
306,76.25,32.4569,35.499,160.799,102.21,99.3971,0.00256452,0.0598114,20.9392,479.466,0.256057,0.0,0.0
308,76.75,32.8408,35.849,159.808,102.224,99.5584,0.0025116,0.0595937,20.9394,479.466,0.242441,0.0,0.0
310,77.25,31.9856,35.4497,162.702,102.212,100.054,0.00246874,0.0594103,20.9396,479.466,0.19582,0.0,0.0
312,77.75,32.5049,35.2641,158.587,102.234,100.049,0.00243403,0.0592553,20.9397,479.466,0.198199,0.0,0.0
314,78.25,32.3476,35.5802,161.166,102.23,100.149,0.00240591,0.0591157,20.9398,479.456,0.188754,0.0,0.0
316,78.75,32.5096,35.7043,157.946,102.226,99.746,0.00236692,0.0589899,20.9402,479.466,0.225349,0.0,0.0
318,79.25,32.7374,35.1862,163.522,102.23,100.066,0.00232075,0.0588738,20.941,479.456,0.196368,0.0,0.0
320,79.75,32.1821,35.4002,159.296,102.237,99.7714,0.00228076,0.0587671,20.9416,479.456,0.223979,0.0,0.0
322,80.25,32.3581,35.4155,162.457,102.232,99.5812,0.00224604,0.0586807,20.942,479.446,0.241041,0.0,0.0
324,80.75,32.3575,35.7696,157.183,102.24,99.2785,0.00222699,0.0586107,20.9424,479.446,0.269755,0.0,0.0
326,81.25,32.0016,35.4866,159.21,102.23,99.9686,0.00221973,0.0583796,20.9429,479.456,0.2053,0.0,0.0
328,81.75,32.1365,35.1826,166.271,102.249,99.4154,0.00222617,0.0581924,20.9433,479.446,0.257886,0.0,0.0
330,82.25,32.5546,35.4528,163.394,102.251,100.152,0.00224248,0.0580408,20.9436,479.446,0.190363,0.0,0.0
332,82.75,31.9008,35.3563,161.464,102.265,99.9301,0.00226347,0.0578515,20.9438,479.436,0.211983,0.0,0.0
334,83.25,31.9518,34.9505,159.922,102.248,100.27,0.00228749,0.0576982,20.9436,479.446,0.179285,0.0,0.0
336,83.75,32.5329,35.06,157.634,102.265,99.7369,0.00230694,0.0575607,20.9434,479.446,0.229741,0.0,0.0
338,84.25,31.9073,35.3282,162.07,102.253,99.498,0.00232146,0.0574492,20.9432,479.446,0.250631,0.0,0.0
340,84.75,31.932,35.2197,160.144,102.289,100.291,0.00233323,0.057359,20.9431,479.456,0.180997,0.0,0.0
342,85.25,32.3291,34.8447,159.109,102.287,99.6126,0.00234275,0.0572859,20.943,479.446,0.243138,0.0,0.0
344,85.75,32.7176,35.4883,161.15,102.293,99.7227,0.00231999,0.0571998,20.9429,479.446,0.233524,0.0,0.0
346,86.25,32.4864,35.036,170.071,102.295,101.037,0.00227412,0.0571301,20.9429,479.436,0.113558,0.0,0.0
348,86.75,31.9076,34.8945,157.756,102.298,99.8652,0.00220395,0.05702,20.9428,479.446,0.220867,0.0,0.0
350,87.25,32.0632,35.0182,156.95,102.289,99.2191,0.00211739,0.0569309,20.9428,479.436,0.279605,0.0,0.0
352,87.75,32.0888,34.7832,163.92,102.312,100.106,0.00202013,0.0568586,20.9432,479.436,0.200102,0.0,0.0
354,88.25,32.2413,34.8634,160.798,102.296,99.5351,0.00191692,0.0567063,20.9435,479.436,0.251064,0.0,0.0
356,88.75,32.1805,34.6366,165.192,102.312,99.1801,0.00181717,0.0565829,20.9438,479.436,0.28525,0.0,0.0
358,89.25,31.5657,34.8277,160.058,102.308,100.087,0.00172184,0.0564899,20.944,479.436,0.201414,0.0,0.0
360,89.75,32.196,35.1881,161.163,102.322,100.026,0.00164463,0.056421,20.9442,479.436,0.208289,0.0,0.0
362,90.25,31.657,34.6761,163.109,102.326,99.8114,0.00157228,0.0563793,20.9443,479.436,0.228357,0.0,0.0
364,90.75,31.3974,35.2302,161.9,102.342,100.439,0.00151368,0.0563583,20.9444,479.426,0.172193,0.0,0.0
366,91.25,31.9109,35.046,161.817,102.34,99.4113,0.00147234,0.0563412,20.9445,479.426,0.266469,0.0,0.0
368,91.75,31.7093,35.1699,162.99,102.346,99.889,0.00143885,0.0563274,20.9447,479.426,0.222965,0.0,0.0
370,92.25,31.6716,34.7011,161.998,102.356,99.4894,0.00141173,0.056302,20.9449,479.436,0.260668,0.0,0.0
372,92.75,32.0456,35.1039,158.382,102.375,99.9493,0.00140939,0.0562688,20.9451,479.446,0.220009,0.0,0.0
374,93.25,31.7676,35.0259,159.82,102.366,99.5944,0.00140749,0.0562419,20.9457,479.436,0.251917,0.0,0.0
376,93.75,32.2051,35.2046,160.526,102.378,100.237,0.00141454,0.0561672,20.9461,479.446,0.193984,0.0,0.0
378,94.25,32.0865,34.9531,166.639,102.372,99.9427,0.00142025,0.0561066,20.9465,479.446,0.220355,0.0,0.0
380,94.75,31.983,34.4126,161.326,102.386,100.018,0.00141629,0.0560505,20.9468,479.456,0.214761,0.0,0.0
382,95.25,31.7852,34.6242,162.528,102.398,99.9498,0.00141308,0.0559987,20.9471,479.466,0.222032,0.0,0.0
384,95.75,31.9747,34.8761,159.445,102.406,99.7176,0.00139499,0.0559568,20.9473,479.456,0.244117,0.0,0.0
386,96.25,31.8117,34.7196,161.595,102.394,99.8048,0.00136639,0.0559094,20.9474,479.446,0.235023,0.0,0.0
388,96.75,31.2203,34.5283,160.515,102.411,100.166,0.00132324,0.055871,20.9471,479.436,0.203394,0.0,0.0
390,97.25,31.7816,34.8258,160.746,102.401,99.9311,0.00127029,0.0558399,20.9469,479.446,0.224013,0.0,0.0
392,97.75,32.2636,34.6581,162.984,102.429,99.9539,0.00121645,0.0558147,20.9467,479.446,0.224466,0.0,0.0
394,98.25,31.7823,34.4641,161.359,102.418,100.12,0.00116298,0.0558211,20.9465,479.436,0.208176,0.0,0.0
396,98.75,31.4971,34.8671,159.665,102.434,99.5153,0.00111967,0.0558263,20.9464,479.446,0.265302,0.0,0.0
398,99.25,31.7578,34.2132,163.257,102.437,99.7709,0.00108266,0.0558587,20.9463,479.446,0.241988,0.0,0.0
400,99.75,31.5314,34.2525,158.179,102.44,99.6076,0.00105094,0.0559104,20.9462,479.436,0.257277,0.0,0.0
402,100.25,32.0933,34.7203,160.31,102.432,99.7009,0.00102524,0.0559875,20.9461,479.446,0.248019,0.0,0.0
404,100.75,31.7408,34.8,162.563,102.448,99.6471,0.00100443,0.0560818,20.946,479.436,0.254334,0.0,0.0
406,101.25,31.1949,34.3903,166.78,102.445,100.141,0.000996141,0.0561652,20.946,479.416,0.208745,0.0,0.0
408,101.75,31.7212,34.2096,163.696,102.456,100.409,0.000989427,0.0562391,20.9455,479.436,0.185241,0.0,0.0
410,102.25,31.8356,34.6505,157.238,102.458,99.601,0.000991332,0.0562989,20.9451,479.426,0.259471,0.0,0.0
412,102.75,31.4895,34.3547,159.984,102.455,99.6958,0.000992876,0.0563757,20.9447,479.436,0.250481,0.0,0.0
414,103.25,31.4092,34.2297,160.852,102.468,100.013,0.00100637,0.0564632,20.9443,479.426,0.222575,0.0,0.0
416,103.75,31.8399,34.3373,160.777,102.478,99.2957,0.0010173,0.0565341,20.9439,479.426,0.289446,0.0,0.0
418,104.25,31.273,34.9836,162.031,102.478,100.116,0.00103106,0.0566124,20.9437,479.426,0.214021,0.0,0.0
420,104.75,31.6517,33.6339,158.427,102.481,99.9286,0.0010364,0.0566946,20.9435,479.426,0.231409,0.0,0.0
422,105.25,31.3431,34.4904,158.368,102.486,100.075,0.0010355,0.0567611,20.9433,479.416,0.218405,0.0,0.0
424,105.75,31.7577,34.6087,162.791,102.486,100.09,0.00103477,0.0567748,20.9431,479.426,0.21713,0.0,0.0
426,106.25,31.5314,33.977,161.295,102.49,100.025,0.00100328,0.0567717,20.943,479.416,0.223367,0.0,0.0
428,106.75,31.8361,34.7812,161.535,102.5,99.9539,0.000949944,0.0567565,20.9429,479.416,0.230778,0.0,0.0
430,107.25,31.4042,34.3986,161.658,102.501,100.382,0.00088231,0.0567442,20.9428,479.416,0.191682,0.0,0.0
432,107.75,32.0301,34.6094,158.904,102.499,99.6578,0.000805535,0.0567343,20.9428,479.416,0.257968,0.0,0.0
434,108.25,31.1926,34.5425,161.008,102.512,99.7348,0.000728573,0.0567262,20.9427,479.426,0.252055,0.0,0.0
436,108.75,31.8306,34.641,161.1,102.514,99.7876,0.000652937,0.0566527,20.9427,479.416,0.247315,0.0,0.0
438,109.25,31.3623,34.096,159.046,102.519,100.548,0.000591029,0.0565931,20.9427,479.416,0.178162,0.0,0.0
440,109.75,31.7038,34.14,158.229,102.515,99.8099,0.000540307,0.0565518,20.9426,479.416,0.245374,0.0,0.0
442,110.25,31.1858,34.0744,162.208,102.531,99.8535,0.000503716,0.0565248,20.9426,479.396,0.242768,0.0,0.0
444,110.75,31.8122,33.7386,161.838,102.529,99.9027,0.000478124,0.0564817,20.9426,479.416,0.238138,0.0,0.0
446,111.25,31.0615,34.0134,158.881,102.528,99.9661,0.000457394,0.0564278,20.9426,479.426,0.232244,0.0,0.0
448,111.75,31.6109,34.1282,164.179,102.534,99.8221,0.000452807,0.0563559,20.9426,479.426,0.245989,0.0,0.0
450,112.25,31.3108,33.9713,159.029,102.545,99.5204,0.000449092,0.0562722,20.9426,479.426,0.274688,0.0,0.0
452,112.75,31.4175,33.8919,161.87,102.528,99.8865,0.000446083,0.0562115,20.9426,479.426,0.239554,0.0,0.0
454,113.25,31.322,34.0392,159.549,102.565,100.054,0.000454633,0.0561687,20.9425,479.426,0.227441,0.0,0.0
456,113.75,31.4752,34.1335,160.707,102.539,100.288,0.000461558,0.0561411,20.9425,479.416,0.20374,0.0,0.0
458,114.25,31.3377,34.1959,160.954,102.545,100.628,0.000470831,0.056125,20.9425,479.416,0.173177,0.0,0.0
460,114.75,31.4234,34.3997,165.195,102.536,99.747,0.000478342,0.056112,20.9425,479.416,0.253037,0.0,0.0
462,115.25,30.8952,34.4469,155.64,102.545,99.6228,0.000480571,0.0560663,20.9425,479.426,0.265286,0.0,0.0
464,115.75,31.4579,34.5359,161.026,102.544,99.9123,0.000478905,0.0559974,20.9425,479.416,0.238544,0.0,0.0
466,116.25,31.2517,34.188,161.71,102.553,100.395,0.000470489,0.0559416,20.9425,479.396,0.195162,0.0,0.0
468,116.75,31.4458,33.7492,165.71,102.552,99.8281,0.000457312,0.0558831,20.9425,479.396,0.247015,0.0,0.0
470,117.25,31.5214,33.9865,161.754,102.563,100.137,0.000439573,0.0558356,20.9425,479.406,0.219669,0.0,0.0
472,117.75,31.1445,34.0151,160.703,102.56,100.291,0.000418847,0.0557901,20.9425,479.396,0.205259,0.0,0.0
474,118.25,31.5948,33.6026,163.403,102.563,99.6912,0.000396923,0.0557469,20.9425,479.396,0.260568,0.0,0.0
476,118.75,31.0761,33.6937,160.51,102.558,99.7992,0.000374541,0.0557049,20.9425,479.396,0.250226,0.0,0.0
478,119.25,31.0114,34.254,159.229,102.569,100.034,0.000356412,0.0556645,20.9425,479.396,0.229623,0.0,0.0
480,119.75,31.433,34.3703,157.424,102.563,99.8337,0.000336593,0.0556318,20.9425,479.396,0.247535,0.0,0.0
482,120.25,31.6106,33.6559,161.967,102.564,99.8383,0.000315918,0.0556053,20.9425,479.386,0.24719,0.0,0.0
484,120.75,31.503,34.037,159.573,102.548,100.2,0.000292755,0.0555838,20.9425,479.386,0.212545,0.0,0.0
486,121.25,30.9972,34.123,161.476,102.564,100.21,0.000268218,0.05562,20.943,479.386,0.213044,0.0,0.0
488,121.75,31.4509,33.9806,159.949,102.556,100.106,0.000233593,0.0556494,20.9433,479.406,0.22184,0.0,0.0
490,122.25,31.8783,33.6727,161.127,102.58,99.7541,0.000192272,0.0556329,20.9436,479.406,0.256367,0.0,0.0
492,122.75,31.291,34.0534,158.84,102.568,99.7348,0.000145982,0.0556196,20.9439,479.386,0.25707,0.0,0.0
494,123.25,31.186,33.9741,159.844,102.589,99.6005,9.69496e-05,0.0555806,20.9441,479.386,0.271286,0.0,0.0
496,123.75,31.8447,34.1308,159.169,102.573,99.8819,5.7233e-05,0.0555236,20.9442,479.386,0.243958,0.0,0.0
498,124.25,31.3717,34.047,161.249,102.581,100.693,2.50626e-05,0.0554774,20.9443,479.366,0.170468,0.0,0.0
500,124.75,31.2423,33.6765,160.084,102.576,99.7937,-2.65708e-05,0.0554668,20.9443,479.366,0.252361,0.0,0.0
502,125.25,31.4624,34.0491,165.555,102.586,100.242,-6.83939e-05,0.0554583,20.9442,479.376,0.212037,0.0,0.0
504,125.75,31.8359,33.8658,160.736,102.571,100.02,-0.000101053,0.0554111,20.9441,479.386,0.231146,0.0,0.0
506,126.25,31.4932,34.2281,156.392,102.582,99.924,-0.000127507,0.0553729,20.944,479.376,0.240902,0.0,0.0
508,126.75,31.6072,33.6809,164.783,102.572,99.5792,-0.000148934,0.055342,20.944,479.386,0.271736,0.0,0.0
510,127.25,31.1616,33.9498,159.226,102.58,99.6405,-0.000158984,0.0553437,20.9439,479.386,0.266749,0.0,0.0
512,127.75,30.9707,34.1191,162.934,102.577,100.298,-0.000167124,0.0553451,20.9439,479.386,0.206122,0.0,0.0
514,128.25,31.088,33.3591,163.716,102.587,99.8003,-0.000168846,0.0553392,20.9438,479.386,0.252676,0.0,0.0
516,128.75,31.1613,33.5102,159.939,102.575,99.9306,-0.00017024,0.0553281,20.9438,479.386,0.239633,0.0,0.0
518,129.25,31.3407,34.058,159.182,102.587,100.13,-0.000170088,0.0553191,20.9438,479.386,0.222459,0.0,0.0
520,129.75,31.1416,33.7755,156.322,102.586,100.089,-0.00016881,0.0552716,20.9438,479.386,0.226113,0.0,0.0
522,130.25,30.9621,33.7104,165.243,102.6,100.028,-0.000167135,0.0552331,20.9438,479.376,0.2329,0.0,0.0
524,130.75,31.6215,33.7237,160.376,102.579,99.9524,-0.000165201,0.0551807,20.9438,479.376,0.238037,0.0,0.0
526,131.25,30.6197,33.6763,160.207,102.588,99.9346,-0.000166839,0.0551193,20.9437,479.396,0.240441,0.0,0.0
528,131.75,31.1745,34.0151,159.568,102.585,100.224,-0.00017105,0.0550695,20.9437,479.386,0.213635,0.0,0.0
530,132.25,30.7743,33.6774,159.685,102.593,99.745,-0.000174461,0.0550292,20.9437,479.376,0.25835,0.0,0.0
532,132.75,31.1905,34.3815,165.599,102.585,99.749,-0.000186968,0.0549613,20.9442,479.376,0.257276,0.0,0.0
534,133.25,31.5825,33.8797,163.412,102.596,100.325,-0.000197098,0.0548746,20.9445,479.386,0.20548,0.0,0.0
536,133.75,31.4706,33.6916,161.453,102.579,99.7724,-0.000214277,0.0547761,20.9448,479.376,0.254578,0.0,0.0
538,134.25,31.4988,34.3281,162.741,102.59,99.5442,-0.000236269,0.054671,20.9451,479.376,0.276548,0.0,0.0
540,134.75,30.5436,33.7907,159.391,102.587,99.5204,-0.000256646,0.0545858,20.9452,479.386,0.278448,0.0,0.0
542,135.25,31.4166,34.3481,161.085,102.604,99.6446,-0.00027546,0.0545168,20.9454,479.386,0.268587,0.0,0.0
544,135.75,31.158,33.7439,159.787,102.589,99.5533,-0.000292621,0.0544609,20.9455,479.376,0.275595,0.0,0.0
546,136.25,30.8357,34.663,159.869,102.588,100.025,-0.000308253,0.0544298,20.9456,479.376,0.23211,0.0,0.0
548,136.75,31.5136,33.8572,157.764,102.589,99.9884,-0.000322196,0.0544172,20.9457,479.366,0.235617,0.0,0.0
550,137.25,31.6216,33.8183,158.017,102.599,99.6106,-0.000334644,0.054407,20.9458,479.376,0.271237,0.0,0.0
552,137.75,31.1526,33.9214,157.756,102.578,99.6101,-0.000344727,0.0543988,20.9458,479.366,0.269403,0.0,0.0
554,138.25,31.0373,33.7703,159.627,102.594,99.7262,-0.000345587,0.0543921,20.9461,479.376,0.260186,0.0,0.0
556,138.75,31.3801,33.6566,160.449,102.586,99.8794,-0.000346283,0.0544001,20.9465,479.366,0.245369,0.0,0.0
558,139.25,31.2009,34.2962,160.077,102.593,99.8322,-0.000340758,0.0544066,20.9469,479.376,0.250293,0.0,0.0
560,139.75,31.1704,33.7832,160.945,102.585,99.8996,-0.000336282,0.0543717,20.9472,479.366,0.243396,0.0,0.0
562,140.25,30.981,33.6948,160.068,102.593,99.7906,-0.000332657,0.0543434,20.9474,479.376,0.254116,0.0,0.0
564,140.75,31.1369,34.3103,162.353,102.588,99.999,-0.0003419,0.0542535,20.9476,479.366,0.234567,0.0,0.0
566,141.25,31.4227,33.8521,163.283,102.581,100.184,-0.000349387,0.0541806,20.9478,479.366,0.216934,0.0,0.0
568,141.75,30.8735,33.8364,165.251,102.584,100.284,-0.000366412,0.0540681,20.9481,479.356,0.208094,0.0,0.0
570,142.25,31.3174,33.7845,162.099,102.584,100.034,-0.000380202,0.0539769,20.9486,479.366,0.230951,0.0,0.0
572,142.75,31.0326,33.4434,162.654,102.591,99.9549,-0.000392013,0.0538537,20.949,479.356,0.238837,0.0,0.0
574,143.25,31.4443,33.8302,161.829,102.58,99.6268,-0.000402157,0.0537095,20.9494,479.366,0.268046,0.0,0.0
576,143.75,31.2228,33.8221,158.686,102.582,99.9727,-0.00040204,0.0535927,20.9496,479.376,0.23647,0.0,0.0
578,144.25,31.6528,34.23,161.328,102.576,99.6846,-0.000394447,0.0534981,20.9498,479.366,0.262354,0.0,0.0
580,144.75,31.2275,33.47,160.5,102.581,99.1842,-0.000376117,0.0534214,20.95,479.376,0.30902,0.0,0.0
582,145.25,31.2154,34.1219,161.079,102.578,99.9448,-0.000350308,0.053346,20.9502,479.366,0.238625,0.0,0.0
584,145.75,31.2648,33.4277,157.785,102.598,99.783,-0.000321071,0.0532848,20.9503,479.366,0.255258,0.0,0.0
586,146.25,31.2642,33.7404,158.262,102.57,100.265,-0.000289889,0.053193,20.9504,479.356,0.208548,0.0,0.0
588,146.75,31.6252,34.183,163.322,102.587,99.7272,-0.000264631,0.0530806,20.9504,479.376,0.259393,0.0,0.0
590,147.25,31.6105,33.6332,159.175,102.575,100.201,-0.000244173,0.0529896,20.9505,479.356,0.214877,0.0,0.0
592,147.75,31.3168,33.8439,163.009,102.599,100.167,-0.000227602,0.0529158,20.9506,479.356,0.220099,0.0,0.0
594,148.25,31.058,33.5392,163.089,102.571,99.6983,-0.0002361,0.0528561,20.9508,479.356,0.260688,0.0,0.0
596,148.75,31.2897,34.1301,164.324,102.583,99.8611,-0.000242984,0.0527809,20.9511,479.366,0.246789,0.0,0.0
598,149.25,30.3172,33.5785,161.742,102.587,100.158,-0.00028388,0.05272,20.9511,479.356,0.21982,0.0,0.0
600,149.75,31.0381,33.7547,160.081,102.577,99.8276,-0.000317005,0.0526707,20.9509,479.356,0.249311,0.0,0.0
602,150.25,31.1549,33.375,160.275,102.573,99.5726,-0.000371848,0.0526096,20.9508,479.366,0.272455,0.0,0.0
604,150.75,30.736,33.5643,156.095,102.578,99.7384,-0.000416271,0.0525411,20.9506,479.366,0.257593,0.0,0.0
606,151.25,30.8257,33.7001,160.781,102.57,99.8276,-0.000466868,0.0524856,20.9505,479.366,0.248684,0.0,0.0
608,151.75,30.6051,33.2191,162.166,102.596,99.8611,-0.000507851,0.0524273,20.9504,479.356,0.247895,0.0,0.0
610,152.25,31.2842,33.7693,163.389,102.561,100.343,-0.000549573,0.05238,20.9506,479.366,0.200676,0.0,0.0
612,152.75,31.1209,33.5194,163.523,102.567,99.9478,-0.000583367,0.0523206,20.951,479.346,0.237349,0.0,0.0
614,153.25,31.2375,33.2415,161.329,102.559,100.004,-0.000609459,0.0522535,20.9512,479.356,0.231446,0.0,0.0
616,153.75,31.0976,33.3657,159.375,102.565,99.922,-0.00062944,0.052192,20.9515,479.356,0.239577,0.0,0.0
618,154.25,30.7573,33.9047,164.702,102.549,100.001,-0.000645624,0.0521359,20.9517,479.366,0.230924,0.0,0.0
620,154.75,30.9266,33.7529,162.953,102.561,99.5315,-0.000654887,0.0520835,20.9518,479.356,0.275135,0.0,0.0
622,155.25,30.5468,33.7953,165.25,102.568,99.8302,-0.000658929,0.0520346,20.9519,479.366,0.248268,0.0,0.0
624,155.75,31.4636,33.9348,161.924,102.563,100.244,-0.000666048,0.0520021,20.952,479.366,0.209871,0.0,0.0
626,156.25,31.5334,34.0913,161.671,102.557,100.487,-0.000675277,0.0519821,20.9521,479.356,0.187147,0.0,0.0
628,156.75,30.8338,33.4384,161.048,102.555,100.023,-0.000682752,0.0519659,20.9522,479.346,0.229346,0.0,0.0
630,157.25,31.1824,34.1443,158.927,102.548,99.6786,-0.000703422,0.0519316,20.9522,479.346,0.260408,0.0,0.0
632,157.75,30.9509,32.7783,164.568,102.549,99.5827,-0.000720164,0.0518848,20.9523,479.356,0.269307,0.0,0.0
634,158.25,31.1727,33.4976,159.978,102.54,99.9042,-0.000740135,0.051847,20.9523,479.366,0.238994,0.0,0.0
636,158.75,30.852,33.6619,161.874,102.558,100.467,-0.00076208,0.0517761,20.9523,479.366,0.189037,0.0,0.0
638,159.25,31.0005,33.6781,160.382,102.543,99.779,,0.0517187,,479.366,0.250764,0.0,0.0
640,159.75,31.5432,33.2167,163.106,102.559,100.195,,0.0516321,,479.366,0.213969,0.0,0.0
642,160.25,30.8343,33.5304,162.016,102.531,100.439,,0.0515619,,479.356,0.189177,0.0,0.0
644,160.75,31.0148,33.6083,157.298,102.545,99.9843,,0.0515051,,479.346,0.232043,0.0,0.0
646,161.25,30.9361,33.4565,162.932,102.542,100.092,,0.0514591,,479.346,0.221925,0.0,0.0
648,161.75,31.133,33.5495,159.988,102.545,99.3779,,0.0514007,,479.356,0.287835,0.0,0.0
650,162.25,30.9695,33.2919,158.931,102.533,99.4793,,,,479.356,0.277442,0.0,0.0
652,162.75,30.5262,33.983,155.688,102.541,99.6218,,,,479.356,0.265046,0.0,0.0
654,163.25,30.6957,33.1926,156.253,102.534,99.5599,,,,479.366,0.27012,0.0,0.0
656,163.75,30.5982,33.3428,159.546,102.563,100.184,,,,479.366,0.215395,0.0,0.0
658,164.25,30.8019,33.5651,162.742,102.524,100.404,,,,479.356,0.191673,0.0,0.0
660,164.75,30.6799,33.661,165.416,102.545,100.746,,,,479.376,0.162363,0.0,0.0
662,165.25,30.3651,33.2528,154.113,102.531,99.6334,,,,479.356,0.263087,0.0,0.0
664,165.75,31.0192,33.5109,161.974,102.546,100.17,,,,479.366,0.2151,0.0,0.0
666,166.25,30.5236,33.2369,160.935,102.536,100.042,,,,479.366,0.225965,0.0,0.0
668,166.75,31.0304,33.1097,161.366,102.545,99.922,,,,479.376,0.237806,0.0,0.0
670,167.25,30.921,33.9346,157.413,102.533,100.325,,,,479.386,0.199717,0.0,0.0
672,167.75,31.0707,33.2789,158.534,102.55,100.899,,,,479.366,0.148997,0.0,0.0
674,168.25,30.3661,33.2821,162.1,102.526,100.316,,,,479.356,0.199924,0.0,0.0
676,168.75,31.0751,33.6639,161.169,102.55,99.8636,,,,479.366,0.243605,0.0,0.0
678,169.25,30.817,33.5476,160.705,102.528,99.5939,,,,479.356,0.266398,0.0,0.0
680,169.75,30.7441,33.6967,160.813,102.541,100.168,,,,479.346,0.214834,0.0,0.0
681,170,30.6891,33.7228,162.433,102.529,99.5771,,,,479.356,0.268051,0.0,0.0