File: 02_Data/Polyester_Fabric/Cone/Polyester_Fabric_Cone_HF25Scan_210324_R2.csv
Names,Time,Stack TC,Smoke TC,Exh Press,Smoke Comp,Smoke Meas,CO Meter,CO2 Meter,O2 Meter,Sample Mass,Ext Coeff,Start Test,Flame Verif
Chan Gain,,500,500,1,1,1,1,1,1,1,1,1.0,1.0
Offset,,0,0,0.194005,0,0,0,0,0,0,0,0.0,0.0
Gain,,1,1,25.011,13.5067,16.616,1,1,1,1.00091,1.04608,1.0,1.0
Units,sec,C,C,Pa,%,%,%,%,%,g,/m,,
Baseline,,20.871,22.0636,167.91,101.812,100.925,0.000529793,0.113373,20.6972,-1.35506,0.0803034,,
2,0.25,18.1961,19.0977,165.38,101.638,100.813,0.000258225,0.118112,20.6813,469.628,0.074762,0.0,0.0
4,0.75,18.0242,19.6974,169.049,101.644,100.836,0.000258543,0.118446,20.6812,469.407,0.0732896,0.0,0.0
6,1.25,17.862,19.4366,168.578,101.649,100.751,0.000268431,0.118841,20.6812,469.658,0.0814085,0.0,0.0
8,1.75,18.3331,19.4643,167.692,101.646,100.8,0.000285108,0.119161,20.6811,469.607,0.0766693,0.0,0.0
10,2.25,18.3749,19.4315,169.661,101.646,100.894,0.000298617,0.119503,20.681,469.487,0.068216,0.0,0.0
12,2.75,18.6976,19.1208,169.009,101.642,100.78,0.000309559,0.11978,20.681,469.577,0.0781434,0.0,0.0
14,3.25,18.769,19.9424,164.883,101.649,100.771,0.000331846,0.120004,20.6813,469.567,0.0796454,0.0,0.0
16,3.75,18.3521,19.9504,167.913,101.653,100.815,0.000349898,0.120269,20.6818,469.507,0.0758795,0.0,0.0
18,4.25,18.5586,19.5907,164.106,101.659,100.862,0.000354758,0.120483,20.6825,469.547,0.072239,0.0,0.0
20,4.75,18.6509,20.118,166.356,101.644,100.699,0.000358694,0.120657,20.6832,469.818,0.0857563,0.0,0.0
22,5.25,18.6593,19.8237,170.554,101.647,100.754,0.000350902,0.120798,20.6838,469.778,0.0810279,0.0,0.0
24,5.75,18.7961,20.1414,164.975,101.643,100.589,0.00034459,0.120952,20.6843,469.688,0.0957144,0.0,0.0
26,6.25,18.7207,19.8364,165.269,101.66,100.696,0.000330939,0.121077,20.6849,469.387,0.0874109,0.0,0.0
28,6.75,18.6298,19.359,164.353,101.648,100.731,0.000319882,0.121179,20.6857,469.537,0.0831431,0.0,0.0
30,7.25,18.8328,19.8373,162.832,101.655,100.752,0.000309,0.121261,20.6862,469.858,0.0818736,0.0,0.0
32,7.75,18.6198,20.0901,164.32,101.648,100.702,0.000298453,0.121335,20.6867,470.278,0.0858061,0.0,0.0
34,8.25,18.6852,20.1796,164.575,101.647,100.824,0.00028991,0.121401,20.6871,470.238,0.0746568,0.0,0.0
36,8.75,18.5311,19.9086,169.674,101.66,100.744,0.000276893,0.121484,20.6874,469.678,0.0829762,0.0,0.0
38,9.25,18.934,20.0708,166.74,101.651,100.716,0.00026635,0.121577,20.6877,469.658,0.0848275,0.0,0.0
40,9.75,19.3859,20.3763,165.631,101.651,100.698,0.000241963,0.121652,20.6879,470.178,0.0864823,0.0,0.0
42,10.25,18.761,20.6052,163.928,101.648,100.741,0.000222209,0.121714,20.688,470.288,0.0822574,0.0,0.0
44,10.75,19.2947,20.4099,167.312,101.657,100.934,0.000198514,0.121734,20.6882,470.749,0.0654578,0.0,0.0
46,11.25,19.3031,20.1552,174.188,101.653,100.735,0.000172394,0.121724,20.6883,470.728,0.0832125,0.0,0.0
48,11.75,18.9047,20.4126,163.868,101.646,100.741,0.000151238,0.121717,20.6883,470.759,0.0819886,0.0,0.0
50,12.25,18.6645,19.9536,165.833,101.664,100.723,0.000138971,0.121655,20.6884,470.358,0.085325,0.0,0.0
52,12.75,19.2469,20.6647,163.165,101.646,100.836,0.000129035,0.121605,20.6885,469.758,0.0734295,0.0,0.0
54,13.25,18.9891,20.1683,164.095,101.665,100.687,0.000141706,0.121565,20.6886,469.257,0.0887176,0.0,0.0
56,13.75,19.1697,20.1785,168.3,101.653,100.708,0.000151969,0.121532,20.6888,469.037,0.0856696,0.0,0.0
58,14.25,19.0153,20.441,174.599,101.669,100.773,0.000194433,0.121506,20.6889,468.957,0.0812361,0.0,0.0
60,14.75,19.1045,20.1696,168.939,101.655,100.737,0.000228828,0.121498,20.6891,468.967,0.083297,0.0,0.0
62,15.25,18.8821,20.4219,172.861,101.668,100.565,0.000256689,0.121492,20.6892,468.967,0.100085,0.0,0.0
64,15.75,18.9535,20.402,169.174,101.67,100.607,0.000318325,0.121488,20.689,468.987,0.096431,0.0,0.0
66,16.25,18.8178,19.8557,168.866,101.657,100.581,0.000368251,0.121484,20.6887,468.927,0.0976368,0.0,0.0
68,16.75,18.7056,20.6501,170.593,101.657,100.612,0.000442911,0.121489,20.6882,468.887,0.0948246,0.0,0.0
70,17.25,19.034,20.3365,165.096,101.664,100.607,0.000503385,0.121499,20.6876,468.907,0.0958736,0.0,0.0
72,17.75,18.8606,20.6758,167.205,101.67,100.463,0.000557518,0.121544,20.6871,468.927,0.109612,0.0,0.0
74,18.25,19.465,20.6363,164.157,101.659,100.631,0.000606,0.121613,20.6867,469.017,0.0932903,0.0,0.0
76,18.75,19.0506,20.2937,167.254,101.663,100.404,0.000638835,0.121668,20.6863,469.087,0.114317,0.0,0.0
78,19.25,19.4544,20.6119,165.107,101.685,100.535,0.000659639,0.12175,20.6856,469.107,0.10434,0.0,0.0
80,19.75,19.1712,20.7213,169.882,101.658,100.497,0.000666839,0.121849,20.6851,469.167,0.10543,0.0,0.0
82,20.25,19.4295,20.5583,165.004,101.671,100.404,0.000663987,0.121984,20.6842,469.197,0.115107,0.0,0.0
84,20.75,19.3746,20.8866,166.872,101.654,100.463,0.000661677,0.122094,20.6834,469.247,0.108162,0.0,0.0
86,21.25,19.2015,20.6984,170.726,101.669,100.596,0.000643922,0.122241,20.6824,469.297,0.0973283,0.0,0.0
88,21.75,18.5964,21.2328,167.883,101.669,100.656,0.000629541,0.122412,20.6815,469.337,0.0919086,0.0,0.0
90,22.25,19.4737,20.6267,164.144,101.677,100.27,0.000617892,0.122653,20.6809,469.367,0.127907,0.0,0.0
92,22.75,19.426,20.6414,168.867,101.662,100.39,0.000609678,0.12294,20.6799,469.347,0.11554,0.0,0.0
94,23.25,19.0738,21.1895,174.081,101.685,100.253,0.000603025,0.123172,20.6786,469.387,0.130147,0.0,0.0
96,23.75,19.1684,21.2416,169.106,101.67,100.248,0.000609853,0.123623,20.6776,469.387,0.129234,0.0,0.0
98,24.25,19.5143,21.0458,165.208,101.678,99.8768,0.000615384,0.123989,20.6755,469.397,0.164016,0.0,0.0
100,24.75,19.6875,21.1945,169.881,101.672,100.175,0.000634531,0.124452,20.6738,469.417,0.136107,0.0,0.0
102,25.25,19.0438,21.1505,162.114,101.683,100.206,0.000650039,0.124979,20.6724,469.467,0.134194,0.0,0.0
104,25.75,19.7855,21.1389,166.67,101.683,100.051,0.000662601,0.125405,20.6708,469.387,0.148452,0.0,0.0
106,26.25,19.299,21.1773,164.369,101.682,99.9595,0.000686292,0.126111,20.6695,469.447,0.156799,0.0,0.0
108,26.75,19.6197,20.6996,164.254,101.676,100.101,0.000717646,0.126683,20.6684,469.287,0.143225,0.0,0.0
110,27.25,19.5056,21.1435,162.336,101.683,99.9666,0.000752703,0.127307,20.6676,469.327,0.156222,0.0,0.0
112,27.75,20.1483,20.7992,165.456,101.679,99.6542,0.000789793,0.127957,20.6669,469.347,0.184567,0.0,1.0
114,28.25,19.5823,21.8006,167.545,101.68,99.4859,0.0008382,0.128483,20.6658,469.457,0.200155,0.0,1.0
116,28.75,19.7378,21.7142,161.665,101.682,98.9063,0.000877409,0.129129,20.6646,469.487,0.253957,0.0,1.0
118,29.25,19.7624,21.9804,167.279,101.68,98.5021,0.000909169,0.129849,20.6636,469.457,0.291342,0.0,1.0
120,29.75,19.8236,21.2925,164.512,101.685,98.3307,0.000969197,0.13063,20.6621,469.427,0.307769,0.0,1.0
122,30.25,19.9669,22.0432,166.78,101.69,98.565,0.00101782,0.131441,20.6602,469.387,0.286453,0.0,1.0
124,30.75,19.8798,21.5796,168.158,101.687,98.4884,0.00108541,0.132281,20.6587,469.417,0.293287,0.0,1.0
126,31.25,19.9538,21.8282,165.192,101.69,98.5721,0.00114015,0.133126,20.6575,469.367,0.285755,0.0,1.0
128,31.75,18.9392,20.7281,169.107,101.69,98.1391,0.00119922,0.134008,20.6565,469.417,0.326119,0.0,1.0
130,32.25,18.7124,20.1275,171.086,101.692,98.0813,0.00124706,0.134902,20.6548,469.387,0.331711,0.0,1.0
132,32.75,18.2532,20.9279,163.084,101.682,97.6705,0.00128323,0.135625,20.6535,469.377,0.369328,0.0,0.0
134,33.25,18.984,19.6969,166.329,101.692,97.7015,0.00131021,0.13663,20.6515,469.377,0.367313,0.0,0.0
136,33.75,18.2949,20.5017,162.532,101.688,98.0696,0.00132495,0.137443,20.6499,469.417,0.332469,0.0,0.0
138,34.25,18.9137,20.1477,165.112,101.689,97.7755,0.0013305,0.138345,20.6477,469.397,0.360103,0.0,0.0
140,34.75,18.6326,20.7402,163.797,101.698,97.8095,0.001335,0.139294,20.6459,469.377,0.357771,0.0,0.0
142,35.25,18.5988,21.1209,164.773,101.687,97.3739,0.00133619,0.140283,20.6443,469.397,0.397685,0.0,0.0
144,35.75,18.6053,21.0363,165.918,101.688,97.6274,0.00133715,0.141283,20.6427,469.377,0.373898,0.0,0.0
146,36.25,19.536,21.114,167.669,101.69,98.0752,0.00135343,0.142337,20.6414,469.307,0.33217,0.0,0.0
148,36.75,18.7137,20.7482,160.774,101.679,97.7811,0.00138057,0.143409,20.6395,469.397,0.358649,0.0,0.0
150,37.25,18.9493,21.5586,165.881,101.68,97.6376,0.00141741,0.144277,20.638,469.287,0.372239,0.0,0.0
152,37.75,18.8818,21.3866,167.913,101.675,97.2735,0.00146063,0.145472,20.6363,469.347,0.406072,0.0,0.0
154,38.25,18.995,21.4722,162.872,101.667,97.0331,0.00149564,0.146439,20.6349,469.287,0.428031,0.0,0.0
156,38.75,19.1367,21.2299,162.254,101.672,97.3648,0.00154488,0.147526,20.6325,469.317,0.397168,0.0,0.0
158,39.25,19.2676,21.3605,161.697,101.675,96.6401,0.00158477,0.148679,20.6305,469.337,0.466013,0.0,0.0
160,39.75,19.0408,21.4923,164.695,101.681,97.0205,0.00162692,0.149613,20.6276,469.307,0.430494,0.0,0.0
162,40.25,19.7613,21.9838,166.321,101.662,96.989,0.00166105,0.151087,20.6253,469.297,0.431793,0.0,0.0
164,40.75,19.477,21.7744,163.614,101.676,96.7598,0.00169362,0.152281,20.6225,469.257,0.454731,0.0,0.0
166,41.25,19.657,21.9266,162.617,101.662,96.167,0.00172,0.153742,20.6202,469.257,0.509892,0.0,0.0
168,41.75,19.383,21.9428,163.193,101.668,96.0844,0.00175367,0.154926,20.6177,469.257,0.518303,0.0,0.0
170,42.25,19.4627,22.0756,165.969,101.672,95.5352,0.00178094,0.156477,20.615,469.217,0.571234,0.0,0.0
172,42.75,19.6707,22.0981,163.282,101.673,95.4064,0.00181986,0.157734,20.6129,469.237,0.583763,0.0,0.0
174,43.25,19.8409,22.2634,167.098,101.671,95.8248,0.00186655,0.159347,20.6102,469.257,0.543392,0.0,0.0
176,43.75,19.618,22.2288,163.997,101.668,96.093,0.00192251,0.160653,20.6081,469.207,0.517481,0.0,0.0
178,44.25,20.0167,22.5115,163.928,101.654,95.6108,0.00198418,0.162334,20.6061,469.207,0.562417,0.0,0.0
180,44.75,20.1871,22.7817,160.078,101.657,95.2868,0.00203413,0.163696,20.6043,469.197,0.593828,0.0,0.0
182,45.25,19.9634,22.5433,163.019,101.653,96.3496,0.00211281,0.165204,20.6024,469.207,0.491709,0.0,0.0
184,45.75,20.1287,22.9568,164.485,101.654,96.1731,0.00217654,0.166788,20.6004,469.197,0.508567,0.0,0.0
186,46.25,20.0312,22.7155,162.454,101.644,95.1037,0.00225531,0.168071,20.5984,469.167,0.61032,0.0,0.0
188,46.75,20.476,23.0244,163.691,101.651,95.2756,0.00231911,0.169936,20.5963,469.157,0.594345,0.0,0.0
190,47.25,20.3286,23.3485,165.11,101.653,94.8821,0.00238808,0.171447,20.5946,469.117,0.632544,0.0,0.0
192,47.75,20.0859,22.4215,160.182,101.641,95.2158,0.00244394,0.173285,20.5932,469.127,0.599178,0.0,0.0
194,48.25,20.2983,23.2683,162.348,101.633,95.1296,0.00248919,0.174774,20.5917,469.107,0.606821,0.0,0.0
196,48.75,20.2627,23.348,167.44,101.644,94.9287,0.00254339,0.176333,20.5904,469.077,0.627215,0.0,0.0
198,49.25,20.3067,23.1978,167.859,101.618,94.9196,0.00260311,0.177915,20.5892,469.057,0.625678,0.0,0.0
200,49.75,20.586,23.5297,169.154,101.636,94.371,0.00265147,0.179521,20.5881,469.037,0.680547,0.0,0.0
202,50.25,21.1743,24.5281,165.786,101.615,94.339,0.00273146,0.181113,20.5868,469.027,0.681756,0.0,0.0
204,50.75,20.8795,23.9919,164.49,101.63,94.1844,0.00279625,0.182403,20.5853,469.027,0.698151,0.0,0.0
206,51.25,21.2826,24.7118,163.387,101.615,94.4556,0.00287101,0.183909,20.5841,469.017,0.670382,0.0,0.0
208,51.75,21.433,24.3427,161.242,101.63,94.7837,0.00293157,0.185544,20.5827,468.967,0.639978,0.0,0.0
210,52.25,20.6336,23.5104,162.929,101.611,93.3031,0.00298584,0.186869,20.5816,468.997,0.782744,0.0,0.0
212,52.75,20.9708,24.0876,165.46,101.614,94.0282,0.00303448,0.188546,20.5807,468.937,0.711966,0.0,0.0
214,53.25,21.1028,24.1193,161.905,101.608,93.9004,0.00307976,0.189905,20.5799,468.907,0.723924,0.0,0.0
216,53.75,20.9445,24.1734,161.831,101.622,92.8994,0.00312171,0.191348,20.5784,468.897,0.823457,0.0,0.0
218,54.25,21.213,24.6875,160.69,101.605,92.1429,0.00315569,0.192824,20.5772,468.917,0.896966,0.0,0.0
220,54.75,21.1139,24.9837,165.112,101.603,92.295,0.00320923,0.194332,20.5758,468.837,0.881643,0.0,0.0
222,55.25,21.7184,24.8619,159.844,101.588,91.9228,0.0032526,0.195834,20.5742,468.717,0.917419,0.0,0.0
224,55.75,21.6565,25.0392,162.883,101.602,91.649,0.00331188,0.197317,20.5724,468.817,0.946022,0.0,0.0
226,56.25,22.5366,24.9459,163.767,101.592,90.9644,0.00341139,0.198759,20.5695,468.827,1.01389,0.0,0.0
228,56.75,22.0073,25.5719,161.236,101.579,91.4198,0.00343815,0.199927,20.5688,468.797,0.966914,0.0,0.0
230,57.25,21.4072,25.8204,156.59,101.589,92.6078,0.00354355,0.201556,20.5668,468.757,0.849361,0.0,0.0
232,57.75,22.0895,25.3908,161.832,101.59,91.0618,0.00362893,0.202874,20.5646,468.737,1.00396,0.0,0.0
234,58.25,23.3703,24.9189,161.432,101.579,89.251,0.00373913,0.20464,20.5616,468.717,1.18726,0.0,0.0
236,58.75,22.2922,26.0628,158.964,101.587,91.4329,0.00382839,0.20607,20.5581,468.707,0.966336,0.0,0.0
238,59.25,20.4649,27.1545,164.916,101.575,91.3645,0.00392429,0.208298,20.5542,468.667,0.972129,0.0,0.0
240,59.75,22.4168,26.054,159.564,101.577,88.8408,0.00402321,0.209261,20.5499,468.627,1.22931,0.0,0.0
242,60.25,22.2448,25.2961,164.477,101.571,88.6313,0.00415196,0.210907,20.5444,468.607,1.25045,0.0,0.0
244,60.75,22.4307,26.5876,164.409,101.575,88.9026,0.00425625,0.213515,20.5381,468.557,1.22278,0.0,0.0
246,61.25,21.8697,27.3926,159.885,101.562,88.6146,0.00437819,0.215628,20.5329,468.547,1.2514,0.0,0.0
248,61.75,22.0736,27.1546,158.158,101.563,86.1051,0.00451068,0.21806,20.5252,468.496,1.51505,0.0,0.0
250,62.25,22.9147,27.4727,160.976,101.558,88.5806,0.00466345,0.220677,20.519,468.476,1.25451,0.0,0.0
252,62.75,23.1472,27.3813,160.251,101.545,88.856,0.00482809,0.223483,20.5122,468.436,1.22487,0.0,0.0
254,63.25,23.4498,27.6795,156.604,101.55,86.2815,0.00496146,0.226371,20.5067,468.376,1.49507,0.0,0.0
256,63.75,23.8946,28.5738,160.808,101.553,88.1471,0.00507576,0.229446,20.5043,468.366,1.29912,0.0,0.0
258,64.25,23.906,28.3274,157.245,101.546,87.4904,0.00527123,0.232597,20.4977,468.336,1.36706,0.0,0.0
260,64.75,23.7145,28.3884,157.538,101.547,85.8155,0.00542956,0.235975,20.4923,468.286,1.54458,0.0,0.0
262,65.25,24.46,28.9587,155.787,101.543,86.9291,0.00561315,0.239454,20.4865,468.276,1.42583,0.0,0.0
264,65.75,24.4228,29.1856,164.529,101.54,85.9235,0.00576186,0.242271,20.4806,468.246,1.53237,0.0,0.0
266,66.25,24.5544,29.3722,156.572,101.535,85.6421,0.00588165,0.246295,20.4759,468.196,1.56206,0.0,0.0
268,66.75,24.4401,29.7916,156.6,101.535,85.453,0.00597809,0.248011,20.4721,468.126,1.58228,0.0,0.0
270,67.25,24.8321,29.8579,161.235,101.533,86.5954,0.00601721,0.251939,20.4691,468.106,1.46022,0.0,0.0
272,67.75,24.9794,30.3571,159.591,101.531,86.3819,0.0060489,0.256015,20.4667,468.056,1.48272,0.0,0.0
274,68.25,25.0735,30.4218,162.074,101.526,87.8094,0.0060435,0.259317,20.4651,468.116,1.33185,0.0,0.0
276,68.75,25.2412,30.5949,159.572,101.529,87.0584,0.00601116,0.2633,20.4643,468.036,1.411,0.0,0.0
278,69.25,25.2704,30.7548,162.681,101.517,88.0396,0.00594537,0.266526,20.4637,467.996,1.30704,0.0,0.0
280,69.75,25.4019,30.2517,163.625,101.538,88.718,0.00585645,0.269629,20.4662,467.976,1.2385,0.0,0.0
282,70.25,25.4941,30.9381,157.361,101.514,88.1805,0.00578442,0.272584,20.4683,467.936,1.29214,0.0,0.0
284,70.75,25.5058,30.6112,163.83,101.52,89.6414,0.00566748,0.275186,20.4699,467.956,1.14184,0.0,0.0
286,71.25,25.4642,30.6782,163.342,101.519,90.252,0.00552004,0.277482,20.4713,467.946,1.07945,0.0,0.0
288,71.75,25.4968,30.724,163.597,101.524,90.2302,0.00540061,0.279382,20.4755,467.896,1.08211,0.0,0.0
290,72.25,25.2948,30.782,165.949,101.519,93.0181,0.00522907,0.280958,20.4789,467.866,0.802472,0.0,0.0
292,72.75,25.5171,30.5277,159.77,101.523,93.3634,0.00502282,0.282234,20.4842,467.876,0.768842,0.0,0.0
294,73.25,25.5381,30.5831,159.285,101.509,92.476,0.00485575,0.282931,20.4886,467.836,0.855171,0.0,0.0
296,73.75,25.2794,31.0794,165.356,101.514,94.6453,0.00461233,0.283496,20.4961,467.806,0.642852,0.0,0.0
298,74.25,25.1165,30.5051,160.746,101.516,94.6504,0.00436365,0.283953,20.5022,467.796,0.642547,0.0,0.0
300,74.75,25.5122,30.5286,170.336,101.509,96.5134,0.00411585,0.283577,20.5141,467.796,0.463091,0.0,0.0
302,75.25,25.2429,29.8675,167.118,101.51,97.5676,0.00391513,0.2826,20.5238,467.796,0.363478,0.0,0.0
304,75.75,25.1172,29.7035,164.523,101.519,98.1249,0.00365739,0.281194,20.5347,467.796,0.311998,0.0,0.0
306,76.25,24.8042,29.6359,167.816,101.524,98.7851,0.00344862,0.279501,20.5462,467.786,0.250912,0.0,0.0
308,76.75,24.9596,29.8781,167.011,101.512,99.6066,0.00324642,0.27813,20.5571,467.776,0.173879,0.0,0.0
310,77.25,24.798,28.9171,165.167,101.502,100.222,0.00305284,0.275357,20.5672,467.776,0.116457,0.0,0.0
312,77.75,24.9502,28.9347,164.789,101.499,100.5,0.00289605,0.273112,20.5755,467.776,0.09078,0.0,0.0
314,78.25,24.4206,28.493,165.344,101.5,100.56,0.00273988,0.269611,20.584,467.776,0.0853846,0.0,0.0
316,78.75,24.5166,28.2477,164.774,101.498,100.475,0.00258715,0.266775,20.5926,467.756,0.0929471,0.0,0.0
318,79.25,24.0635,28.0286,166.855,101.496,100.557,0.00242532,0.262551,20.6009,467.776,0.0853358,0.0,0.0
320,79.75,23.7592,27.5746,171.594,101.496,100.449,0.00229423,0.25913,20.6089,467.816,0.095197,0.0,0.0
322,80.25,23.5836,27.1896,165.375,101.497,100.571,0.00215121,0.256359,20.6166,467.826,0.0841241,0.0,0.0
324,80.75,23.5351,27.4251,166.754,101.491,100.68,0.00203535,0.251611,20.6238,467.796,0.073576,0.0,0.0
326,81.25,23.0364,26.8119,165.236,101.502,100.639,0.00191329,0.247766,20.6304,467.796,0.078318,0.0,0.0
328,81.75,23.2358,26.4384,170.336,101.483,100.623,0.00181441,0.243545,20.6363,467.786,0.0780924,0.0,0.0
330,82.25,23.1303,26.6641,168.778,101.482,100.681,0.00172464,0.239131,20.6411,467.776,0.0727849,0.0,0.0
332,82.75,22.9158,26.7357,170.467,101.494,100.472,0.00164322,0.234733,20.6463,467.776,0.0928799,0.0,0.0
334,83.25,22.7655,25.9544,166.889,101.479,100.631,0.00157081,0.230431,20.651,467.796,0.0769806,0.0,0.0
336,83.75,22.5088,26.7486,167.701,101.458,100.681,0.00150635,0.226151,20.6552,467.836,0.070548,0.0,0.0
338,84.25,21.9423,25.1341,166.725,101.47,100.605,0.00145414,0.221968,20.6587,467.816,0.0785555,0.0,0.0
340,84.75,21.6678,24.8015,162.879,101.478,100.53,0.00140327,0.217827,20.6616,467.806,0.0861486,0.0,0.0
342,85.25,21.3485,24.291,168.503,101.467,100.531,0.00136206,0.213794,20.6643,467.806,0.0850042,0.0,0.0
344,85.75,21.714,24.288,173.411,101.449,100.643,0.00132417,0.209831,20.6664,467.826,0.0731951,0.0,0.0
346,86.25,21.3306,24.1945,167.258,101.455,100.619,0.00128942,0.205994,20.6686,467.836,0.0758806,0.0,0.0
348,86.75,20.9346,23.9901,167.024,101.444,100.619,0.00127461,0.202885,20.6695,467.816,0.0749486,0.0,0.0
350,87.25,21.0783,24.3225,165.95,101.474,100.578,0.00123638,0.198963,20.6714,467.806,0.0813879,0.0,0.0
352,87.75,21.1044,23.8554,166.174,101.447,100.63,0.00119381,0.195786,20.6732,467.816,0.0741555,0.0,0.0
354,88.25,21.1261,23.7772,166.879,101.464,100.435,0.00114001,0.192454,20.6747,467.826,0.0935037,0.0,0.0
356,88.75,20.7451,23.6286,165.213,101.454,100.456,0.00107904,0.189073,20.6763,467.826,0.0906631,0.0,0.0
358,89.25,20.1105,23.3317,169.173,101.46,100.542,0.00100521,0.186334,20.6777,467.796,0.0833978,0.0,0.0
360,89.75,20.6362,23.8983,167.061,101.445,100.685,0.000923408,0.184614,20.6787,467.806,0.0690596,0.0,0.0
362,90.25,20.6801,23.2686,171.262,101.46,100.622,0.000834657,0.181672,20.6796,467.816,0.0761713,0.0,0.0
364,90.75,21.0454,22.7232,167.878,101.459,100.613,0.00074253,0.178656,20.6808,467.816,0.0768916,0.0,0.0
366,91.25,19.9972,23.149,165.938,101.458,100.537,0.000667906,0.175642,20.6817,467.816,0.0836732,0.0,0.0
368,91.75,19.9799,22.6442,168.912,101.453,100.69,0.000585506,0.172822,20.6827,467.816,0.0692692,0.0,0.0
370,92.25,20.4336,22.6169,166.917,101.462,100.681,0.000518763,0.170197,20.6837,467.826,0.0708747,0.0,0.0
372,92.75,20.0629,22.3196,166.881,101.446,100.568,0.000468551,0.167744,20.6845,467.806,0.0797701,0.0,0.0
374,93.25,20.4081,22.8186,166.125,101.464,100.561,0.000431345,0.165464,20.6852,467.796,0.0820211,0.0,0.0
376,93.75,19.9336,22.392,165.789,101.45,100.544,0.000403135,0.163617,20.6857,467.796,0.0823637,0.0,0.0
378,94.25,20.5142,22.2322,163.945,101.45,100.639,0.000382017,0.161375,20.6861,467.816,0.0736303,0.0,0.0
380,94.75,19.6321,21.7668,165.358,101.448,100.56,0.000364911,0.15956,20.6865,467.856,0.0806972,0.0,0.0
382,95.25,19.7699,22.1483,165.022,101.446,100.632,0.000343354,0.157727,20.6868,467.816,0.0738582,0.0,0.0
384,95.75,20.0545,21.4548,168.739,101.435,100.637,0.000318961,0.155917,20.6871,467.746,0.0724648,0.0,0.0
386,96.25,19.6457,21.9091,169.437,101.432,100.535,0.000299203,0.1542,20.6874,467.766,0.0814725,0.0,0.0
388,96.75,19.6911,21.6892,168.339,101.444,100.605,0.000280763,0.152584,20.6879,467.776,0.076244,0.0,0.0
390,97.25,19.5393,21.5165,171.073,101.447,100.699,0.000265827,0.151275,20.6884,467.756,0.0679153,0.0,0.0
392,97.75,19.5974,20.839,171.796,101.439,100.508,0.000265924,0.149869,20.6889,467.726,0.0846432,0.0,0.0
394,98.25,19.4694,21.6573,168.317,101.453,100.649,0.000276978,0.148418,20.6891,467.766,0.073041,0.0,0.0
396,98.75,20.0139,21.2308,164.764,101.45,100.64,0.000285932,0.147244,20.6893,467.766,0.0735381,0.0,0.0
398,99.25,19.6497,21.5449,167.042,101.447,100.573,0.000313098,0.145803,20.6899,467.756,0.0794274,0.0,0.0
400,99.75,19.3859,21.418,170.815,101.439,100.58,0.000353026,0.144637,20.6908,467.746,0.0780631,0.0,0.0
402,100.25,19.4442,20.9969,164.267,101.449,100.667,0.000390509,0.143449,20.6916,467.796,0.071005,0.0,0.0
404,100.75,18.9931,20.8439,167.493,101.439,100.539,0.000425499,0.142269,20.6922,467.806,0.081737,0.0,0.0
406,101.25,19.4951,20.6943,165.395,101.447,100.557,0.000448056,0.141313,20.6926,467.796,0.0808989,0.0,0.0
408,101.75,19.2452,21.1593,165.472,101.435,100.52,0.00046112,0.140093,20.693,467.816,0.0831594,0.0,0.0
410,102.25,19.1833,20.8364,164.401,101.462,100.543,0.000464634,0.139105,20.6934,467.806,0.0834911,0.0,0.0
412,102.75,19.4,20.663,163.516,101.448,100.63,0.000461119,0.138085,20.6936,467.826,0.0742304,0.0,0.0
414,103.25,19.4939,20.86,170.369,101.464,100.69,0.00045249,0.137061,20.6938,467.816,0.0702299,0.0,0.0
416,103.75,19.358,20.9836,166.863,101.472,100.577,0.000440297,0.136122,20.6935,467.816,0.0812491,0.0,0.0
418,104.25,18.8644,20.7578,167.469,101.453,100.6,0.000425926,0.135263,20.6933,467.816,0.0774058,0.0,0.0
420,104.75,19.0502,20.8781,163.898,101.446,100.709,0.000410239,0.134567,20.6927,467.826,0.0668707,0.0,0.0
422,105.25,19.7789,21.26,164.597,101.456,100.628,0.000397533,0.133808,20.6922,467.816,0.0751689,0.0,0.0
424,105.75,19.4283,20.192,167.654,101.458,100.54,0.000388525,0.133121,20.6918,467.816,0.0833968,0.0,0.0
426,106.25,19.2538,20.4046,167.796,101.455,100.615,0.000382385,0.132499,20.691,467.816,0.0763341,0.0,0.0
428,106.75,18.9123,20.5249,164.536,101.456,100.639,0.000383833,0.131951,20.6904,467.806,0.0741436,0.0,0.0
430,107.25,19.393,21.1976,169.148,101.463,100.64,0.000390785,0.131468,20.6895,467.796,0.074723,0.0,0.0
432,107.75,19.1258,21.0507,165.014,101.464,100.566,0.000396416,0.131076,20.6887,467.786,0.0815126,0.0,0.0
434,108.25,19.2354,20.4895,164.98,101.463,100.716,0.000414406,0.130731,20.6882,467.796,0.0678816,0.0,0.0
436,108.75,19.5634,21.119,168.478,101.471,100.681,0.000428978,0.130452,20.6878,467.796,0.0716953,0.0,0.0
438,109.25,18.7004,20.7199,163.949,101.477,100.621,0.000450551,0.130219,20.6875,467.786,0.0777182,0.0,0.0
440,109.75,19.3706,20.6382,164.519,101.464,100.573,0.000468025,0.130023,20.6868,467.786,0.0809488,0.0,0.0
442,110.25,18.7211,20.1215,166.376,101.487,100.578,0.000484107,0.129864,20.6863,467.786,0.0825729,0.0,0.0
444,110.75,19.3279,20.3148,167.689,101.458,100.557,0.00049887,0.129695,20.6859,467.796,0.0818606,0.0,0.0
446,111.25,18.9547,20.1316,161.637,101.463,100.679,0.000509541,0.129558,20.6855,467.816,0.0712557,0.0,0.0
448,111.75,18.8625,20.3022,172.016,101.47,100.561,0.000517028,0.129425,20.6852,467.806,0.0825707,0.0,0.0
450,112.25,18.9918,20.6483,171.67,101.463,100.721,0.000523093,0.129298,20.685,467.806,0.0673745,0.0,0.0
452,112.75,19.1661,20.4385,164.206,101.469,100.67,0.000526784,0.129188,20.685,467.806,0.0724789,0.0,0.0
454,113.25,18.801,20.01,166.55,101.481,100.494,0.000529774,0.129092,20.6853,467.806,0.0896969,0.0,0.0
456,113.75,19.2319,20.3176,171.27,101.479,100.673,0.000535859,0.12897,20.6857,467.776,0.0732179,0.0,0.0
458,114.25,18.21,20.3199,169.502,101.483,100.616,0.000540789,0.128832,20.6862,467.776,0.0787399,0.0,0.0
460,114.75,18.2237,19.9951,166.826,101.481,100.648,0.000547225,0.128721,20.6869,467.796,0.075669,0.0,0.0
462,115.25,18.8714,20.5614,168.332,101.483,100.675,0.000552438,0.128519,20.6877,467.796,0.0733677,0.0,0.0
464,115.75,18.5524,19.8254,166.652,101.485,100.727,0.000551775,0.128356,20.6883,467.786,0.0688034,0.0,0.0
466,116.25,18.9323,20.2626,168.062,101.466,100.671,0.000551237,0.128151,20.6892,467.776,0.0721642,0.0,0.0
468,116.75,18.3125,20.2052,167.563,101.485,100.704,0.000539811,0.127919,20.69,467.776,0.0708834,0.0,0.0
470,117.25,18.7464,20.1362,167.224,101.484,100.641,0.00053494,0.127579,20.6903,467.796,0.0765391,0.0,0.0
472,117.75,18.3491,19.964,171.309,101.491,100.636,0.000526611,0.127304,20.6909,467.766,0.0776726,0.0,0.0
474,118.25,18.9703,19.9301,164.943,101.486,100.633,0.000519864,0.12697,20.6918,467.776,0.0774568,0.0,0.0
476,118.75,18.6422,19.6707,169.813,101.495,100.74,0.000489987,0.126663,20.6925,467.766,0.0685353,0.0,0.0
478,119.25,18.7226,19.5217,158.696,101.481,100.629,0.000465786,0.126382,20.6931,467.796,0.0773884,0.0,0.0
480,119.75,19.0399,19.8145,165.306,101.501,100.605,0.000446184,0.126154,20.6938,467.796,0.0813044,0.0,0.0
482,120.25,18.4466,19.7532,166.982,101.49,100.722,0.000413228,0.125955,20.6944,467.776,0.0697034,0.0,0.0
484,120.75,18.8845,19.7564,163.358,101.498,100.572,0.000386534,0.125614,20.6951,467.776,0.0841804,0.0,0.0
486,121.25,18.6156,19.3859,166.368,101.495,100.598,0.000363692,0.125338,20.6959,467.786,0.0814768,0.0,0.0
488,121.75,18.9294,20.0579,164.248,101.498,100.684,0.000345191,0.125115,20.6965,467.816,0.0739613,0.0,0.0
490,122.25,18.6119,20.0094,170.825,101.499,100.724,0.000334056,0.124759,20.697,467.826,0.0703016,0.0,0.0
492,122.75,18.3798,19.4496,164.485,101.507,100.665,0.000328503,0.124314,20.6974,467.796,0.0764913,0.0,0.0
494,123.25,18.779,20.3675,163.562,101.496,100.624,0.000326444,0.123953,20.6977,467.796,0.0791552,0.0,0.0
496,123.75,18.6262,19.7443,163.225,101.507,100.689,0.000324777,0.123564,20.698,467.796,0.0742445,0.0,0.0
498,124.25,18.3974,19.7162,168.195,101.497,100.574,0.000322851,0.123249,20.6983,467.796,0.0838,0.0,0.0
500,124.75,18.2555,20.033,166.439,101.51,100.614,0.000322333,0.122911,20.6984,467.796,0.0813467,0.0,0.0
502,125.25,18.1601,19.8314,166.638,101.513,100.523,0.000320227,0.122637,20.6986,467.806,0.0899644,0.0,0.0
504,125.75,18.6003,19.5711,166.521,101.531,100.744,0.000318521,0.122319,20.6987,467.816,0.071323,0.0,0.0
506,126.25,18.4481,19.577,170.588,101.514,100.661,0.00031714,0.122061,20.6988,467.806,0.0774481,0.0,0.0
508,126.75,18.3625,19.8696,168.494,101.528,100.738,0.00031724,0.121811,20.6989,467.806,0.0717007,0.0,0.0
510,127.25,18.5486,19.7534,163.37,101.524,100.698,0.000317322,0.121485,20.6989,467.786,0.0750137,0.0,0.0
512,127.75,18.3552,19.3581,167.268,101.532,100.626,0.000322525,0.121374,20.699,467.786,0.0822032,0.0,0.0
514,128.25,17.6466,19.9792,166.205,101.515,100.723,0.000331363,0.121185,20.699,467.796,0.0718939,0.0,0.0
516,128.75,17.7309,19.4666,168.396,101.528,100.679,0.00034366,0.120981,20.699,467.796,0.0770977,0.0,0.0
518,129.25,18.5721,19.921,165.013,101.522,100.674,0.000358245,0.12077,20.6991,467.796,0.0769622,0.0,0.0
520,129.75,17.9354,19.724,166.697,101.544,100.659,0.000370059,0.1206,20.6991,467.786,0.0803156,0.0,0.0
522,130.25,17.9908,19.2462,169.919,101.54,100.708,0.00038207,0.120337,20.6991,467.796,0.0754228,0.0,0.0
524,130.75,17.8352,19.7985,166.43,101.548,100.698,0.000391799,0.120124,20.6991,467.796,0.0771379,0.0,0.0
526,131.25,17.8355,19.7609,169.369,101.533,100.662,0.000398458,0.119887,20.6991,467.786,0.0790403,0.0,0.0
528,131.75,17.807,19.5517,168.578,101.533,100.68,0.000403852,0.119635,20.6989,467.796,0.0774145,0.0,0.0
530,132.25,17.5903,19.2883,166.15,101.528,100.656,0.000409443,0.119403,20.6985,467.786,0.0791021,0.0,0.0
532,132.75,17.8471,19.3472,166.57,101.559,100.721,0.000413971,0.119188,20.6739,467.776,0.0759815,0.0,0.0
534,133.25,18.2192,19.3999,165.666,101.55,100.817,0.000417639,0.118949,20.632,467.796,0.0664254,0.0,0.0
536,133.75,18.035,19.7839,166.295,101.552,100.663,0.000427934,0.118696,20.5981,467.796,0.0806159,0.0,0.0
538,134.25,17.5947,19.4931,168.594,101.542,100.621,0.000436273,0.118492,20.54,467.806,0.0836428,0.0,0.0
540,134.75,17.724,19.2912,165.148,101.559,100.728,0.000436924,0.117968,20.4655,467.776,0.0753349,0.0,0.0
542,135.25,17.4293,19.5068,164.731,101.55,100.72,0.000437451,0.117544,20.3981,467.816,0.0753284,0.0,0.0
544,135.75,17.9565,19.3638,165.818,101.556,100.601,0.000433381,0.117026,20.3373,467.816,0.0867131,0.0,0.0
546,136.25,18.3072,19.2782,170.589,101.556,100.661,0.000426037,0.11645,20.288,467.816,0.0811732,0.0,0.0
548,136.75,18.3577,19.4593,169.181,101.569,100.653,0.00041752,0.115984,20.2481,467.816,0.0831041,0.0,0.0
550,137.25,18.5884,19.5152,167.62,101.575,100.689,0.000408309,0.115496,20.2158,467.816,0.0804283,0.0,0.0
552,137.75,17.9025,19.7578,171.603,101.579,100.654,0.000398408,0.1151,20.1896,467.816,0.0839897,0.0,0.0
554,138.25,18.1718,19.0821,169.052,101.576,100.707,0.000390387,0.114808,20.1684,467.816,0.078793,0.0,0.0
556,138.75,18.3045,19.3044,168.04,101.577,100.669,0.000383891,0.114571,20.1508,467.816,0.0824168,0.0,0.0
558,139.25,18.1906,19.0811,165.383,100.975,100.68,0.000377411,0.114393,20.1365,467.816,0.0269191,0.0,0.0
560,139.75,18.2849,18.9916,171.417,65.9143,65.7114,0.000372162,0.114248,20.1251,467.816,0.0282998,0.0,0.0
562,140.25,18.0546,19.2917,164.66,2.72294,2.70577,0.00036791,0.114118,20.116,467.816,0.0580171,0.0,0.0
564,140.75,18.3188,19.501,164.831,0.269985,0.108515,0.000371788,0.114012,20.1086,467.816,8.36385,0.0,0.0
566,141.25,17.5575,19.8188,167.276,0.170235,0.0669344,0.000374929,0.113948,20.1027,467.816,8.5656,0.0,0.0
568,141.75,18.2916,19.3963,167.251,0.16364,0.0405663,0.000377473,0.113915,20.0978,467.816,12.7982,0.0,0.0
570,142.25,18.0726,19.1593,169.617,0.161991,0.0167336,0.000385635,0.113889,20.0939,467.816,20.8309,0.0,0.0
572,142.75,17.9065,19.3168,167.275,0.169823,-0.0339743,0.000392247,0.113853,20.2045,467.816,0,0.0,0.0
574,143.25,17.5082,19.4689,169.996,0.169823,0.00152124,0.000398823,0.113824,20.2941,467.816,43.2675,0.0,0.0
576,143.75,18.0852,19.3253,168.896,0.171472,-0.00760619,0.00039837,0.113808,20.3662,467.816,0,0.0,0.0
578,144.25,18.3041,19.266,171.12,0.153747,0.0202832,0.000392799,0.113801,20.4246,467.816,18.5864,0.0,0.0
580,144.75,18.0063,19.1766,169.359,0.175593,0.0486796,0.000381224,0.113796,20.4724,467.816,11.7722,0.0,0.0
582,145.25,18.121,19.1894,174.769,0.162403,0.00101416,0.000365492,0.113784,20.5111,467.816,46.5782,0.0,0.0
584,145.75,17.7277,19.4238,168.378,0.172296,-0.012677,0.000347614,0.113769,20.542,467.816,0,0.0,0.0
586,146.25,18.2136,19.2348,168.449,0.154984,-0.00405663,0.000328511,0.11377,20.567,467.816,0,0.0,0.0
588,146.75,18.5465,19.2925,171.782,0.159106,0.0370168,0.000313037,0.113784,20.5875,467.816,13.3806,0.0,0.0
590,147.25,18.3623,19.0705,169.065,0.156633,0.0466513,0.000300504,0.113818,20.6043,467.816,11.1141,0.0,0.0
592,147.75,17.7562,19.068,165.904,0.146328,0.00304247,0.000289133,0.113864,20.6179,467.816,35.5407,0.0,0.0
594,148.25,18.1521,19.0381,171.785,0.166937,-0.00912742,0.000279922,0.113902,20.6285,467.816,0,0.0,0.0
596,148.75,17.9148,19.0851,165.518,0.157045,-0.0887388,0.000269894,0.113933,20.6371,467.816,0,0.0,0.0
598,149.25,17.693,19.6595,164.055,0.153335,-0.00608495,0.000259461,0.113957,20.644,467.816,0,0.0,0.0
600,149.75,17.69,19.2663,168.87,0.157457,-0.025354,0.000248443,0.113948,20.6497,467.816,0,0.0,0.0
602,150.25,18.3044,19.4561,168.912,0.149625,0.0289035,0.000237207,0.113915,20.6542,467.816,15.0871,0.0,0.0
604,150.75,18.2181,19.3578,170.24,0.184662,0.0152124,0.000228106,0.113888,20.6581,467.816,22.9074,0.0,0.0
606,151.25,17.8273,19.186,165.557,0.166113,0.00456371,0.000215858,0.113811,20.6612,467.816,32.9839,0.0,0.0
608,151.75,17.6266,18.7379,165.724,0.160755,0.00304247,0.000205937,0.113749,20.6637,467.816,36.4036,0.0,0.0
610,152.25,17.9402,19.0785,163.738,0.183013,0.0471584,0.000207653,0.113699,20.6658,467.816,12.4432,0.0,0.0
612,152.75,17.5565,18.6861,168.583,0.145916,0.00709911,0.000209043,0.113659,20.6674,467.816,27.74,0.0,0.0
614,153.25,17.447,18.8533,170.153,0.191257,0.0349885,0.000230902,0.113619,20.6688,467.816,15.5865,0.0,0.0
616,153.75,18.3831,19.4984,162.715,0.157457,0.0238327,0.000248607,0.113581,20.6699,467.816,17.3254,0.0,0.0
618,154.25,17.7742,19.2895,166.398,0.151686,-0.00152124,0.000262949,0.113549,20.6708,467.816,0,0.0,0.0
620,154.75,17.8676,18.9863,168.78,0.180952,0.0223115,0.000298973,0.113496,20.6715,467.816,19.2068,0.0,0.0
622,155.25,17.3228,19.2108,166.727,0.154984,0.0202832,0.000328152,0.113454,20.6721,467.816,18.6599,0.0,0.0
624,155.75,17.6559,19.147,167.576,0.155808,-0.0152124,0.000359112,0.113474,20.6725,467.816,0,0.0,0.0
626,156.25,17.9508,19.3216,162.829,0.190845,0.0278893,0.00038419,0.11349,20.6729,467.816,17.6476,0.0,0.0
628,156.75,17.8071,19.2541,164.72,0.149625,0.038538,0.0004095,0.113518,20.6733,467.816,12.4473,0.0,0.0
630,157.25,17.6916,19.3559,166.775,0.155808,-0.0395522,0.000415733,0.113554,20.6735,467.816,0,0.0,0.0
632,157.75,17.9856,19.3928,169.634,0.15416,0.00811327,0.00041868,0.113582,20.6737,467.816,27.019,0.0,0.0
634,158.25,17.9642,19.209,172.531,0.157457,0.0187619,0.00041413,0.113592,20.6738,467.816,19.5206,0.0,0.0
636,158.75,17.4743,18.6922,167.535,0.155808,0.00405663,0.000408517,0.1136,20.674,467.816,33.477,0.0,0.0
638,159.25,17.6173,18.8881,171.383,0.16364,0.00760619,0.000402237,0.11362,20.6741,467.816,28.1588,0.0,0.0
640,159.75,17.6898,19.2644,168.916,0.158281,-0.00709911,0.00039715,0.113657,20.6741,467.816,0,0.0,0.0
642,160.25,17.6421,18.5589,167.04,0.177654,0.0654132,0.000395472,0.113677,20.6742,467.816,9.16801,0.0,0.0
644,160.75,17.7606,18.8992,170.396,0.150038,-0.0410734,0.000394113,0.11371,20.6743,467.816,0,0.0,0.0
646,161.25,17.2213,18.8543,166.944,0.164052,0.00912742,0.000393012,0.113736,20.6742,467.816,26.5089,0.0,0.0
648,161.75,17.658,19.1902,167.794,0.162403,0.0380309,0.000397901,0.113758,20.6741,467.816,13.3208,0.0,0.0
650,162.25,17.4146,19.1841,170.323,0.157869,0.0202832,0.000407065,0.113754,20.6737,467.816,18.8292,0.0,0.0
652,162.75,17.8909,19.0416,168.157,0.173533,0.00608495,0.000415709,0.113731,20.6733,467.816,30.745,0.0,0.0
654,163.25,17.8814,18.8376,168.85,0.168586,-0.0431017,0.00042271,0.113712,20.6731,467.816,0,0.0,0.0
656,163.75,17.7854,19.047,164.015,0.156633,0.0791043,0.000424527,0.113682,20.6732,467.816,6.26854,0.0,0.0
658,164.25,17.7402,19.0064,166.247,0.164877,-0.0025354,0.000422529,0.113644,20.6733,467.816,0,0.0,0.0
660,164.75,17.4265,18.9119,167.064,0.133138,0.0507079,0.000420911,0.113614,20.6734,467.816,8.85773,0.0,0.0
662,165.25,17.4548,18.697,166.117,0.156633,0.0212973,0.000406115,0.113589,20.6734,467.816,18.3093,0.0,0.0
664,165.75,17.5555,18.8736,170.228,0.177242,0.00659203,0.000381995,0.113569,20.6735,467.816,30.2046,0.0,0.0
666,166.25,17.9795,18.6545,168.632,0.139733,-0.00862034,0.000352189,0.113608,20.6737,467.816,0,0.0,0.0
668,166.75,17.8583,19.1806,168.018,0.155396,0.143503,0.000318806,0.113639,20.6738,467.816,0.730593,0.0,0.0
670,167.25,17.3277,18.5959,167.192,0.149213,0.0760619,0.00027836,0.113678,20.6739,467.816,6.18314,0.0,0.0
672,167.75,17.5399,18.4705,168.68,0.164052,0.00354955,0.000245598,0.11371,20.674,467.816,35.1754,0.0,0.0
674,168.25,17.7716,18.8601,168.466,0.151274,0.000507079,0.000224193,0.113736,20.674,467.816,52.2872,0.0,0.0
676,168.75,17.7528,18.9415,169.198,0.145504,0.0755548,0.000211472,0.113757,20.6741,467.816,6.0135,0.0,0.0
678,169.25,18.1471,18.7885,169.955,0.180128,-0.0152124,0.000201168,0.113774,20.6741,467.816,0,0.0,0.0
680,169.75,17.3491,18.6598,168.528,0.163228,0.0162265,0.000233066,0.113815,20.6742,467.816,21.1831,0.0,0.0
682,170.25,17.3331,18.9508,169.554,0.158694,-0.031946,0.000258904,0.113848,20.6742,467.816,0,0.0,0.0
684,170.75,17.9383,18.668,168.12,0.156633,-0.0329601,0.000315233,0.113853,20.6742,467.816,0,0.0,0.0
686,171.25,17.9097,18.5832,168.205,0.185486,-0.0212973,0.00036086,0.113838,20.6744,467.816,0,0.0,0.0
688,171.75,17.4491,19.0636,172.89,0.162403,-0.0299177,0.000423477,0.113826,20.6746,467.816,0,0.0,0.0
690,172.25,17.6656,19.298,164.573,0.154572,0.0273823,0.000474196,0.113774,20.6747,467.816,15.8817,0.0,0.0
692,172.75,17.4846,18.6326,170.099,0.156633,-0.00101416,0.000516565,0.113733,20.6748,467.816,0,0.0,0.0
694,173.25,17.6008,18.4995,168.297,0.19002,0.0324531,0.000552042,0.113714,20.6749,467.816,16.2173,0.0,0.0
696,173.75,17.3511,18.7165,170.92,0.154572,0.00709911,0.000568559,0.113699,20.6749,467.816,28.2688,0.0,0.0
698,174.25,17.8753,18.6111,166.289,0.145504,-0.0370168,0.00057094,0.113686,20.675,467.816,0,0.0,0.0
700,174.75,17.8609,18.1619,167.666,0.157869,-0.0354955,0.000572869,0.113676,20.675,467.816,0,0.0,0.0
702,175.25,17.6002,18.7648,165.628,0.142618,0.0228186,0.000519502,0.113661,20.675,467.816,16.8161,0.0,0.0
704,175.75,17.1201,18.9812,167.216,0.164877,0.0096345,0.000476274,0.113642,20.6751,467.816,26.0588,0.0,0.0
706,176.25,17.6071,18.8219,170.279,0.159518,-0.000507079,0.000408343,0.113641,20.6751,467.816,0,0.0,0.0
708,176.75,17.4205,18.7342,169.211,0.177242,-0.0172407,0.000353319,0.113653,20.6751,467.816,0,0.0,0.0
710,177.25,17.5512,18.886,164.457,0.168586,-0.00304247,0.000296565,0.113663,20.6751,467.816,0,0.0,0.0
712,177.75,17.7545,18.3779,166.529,0.160342,0.00557787,0.000250595,0.113671,20.6751,467.816,30.818,0.0,0.0
714,178.25,17.5593,18.774,168.152,0.144267,0.0263681,0.000218488,0.113677,20.6751,467.816,15.5949,0.0,0.0
716,178.75,17.0953,18.8789,168.598,0.15622,-0.0349885,0.000197099,0.113675,20.6752,467.816,0,0.0,0.0
718,179.25,17.7093,18.0469,167.408,0.145916,0.00811327,0.000188755,0.113667,20.6752,467.816,26.5147,0.0,0.0
720,179.75,17.2547,18.8603,168.175,0.152511,0.0806256,0.000190078,0.113646,20.6752,467.816,5.84904,0.0,0.0
722,180.25,17.7858,18.657,169.083,0.155808,-0.0278893,0.000191151,0.113616,20.6752,467.816,0,0.0,0.0
724,180.75,17.7135,18.7442,169.288,0.174769,0.0486796,0.000196895,0.113614,20.6752,467.816,11.729,0.0,0.0
726,181.25,17.4652,18.7849,166.898,0.144679,0.00709911,0.000201549,0.113631,20.6752,467.816,27.6619,0.0,0.0
728,181.75,17.5131,18.5896,169.178,0.15993,0.0202832,0.000205318,0.113667,20.6752,467.816,18.9482,0.0,0.0
730,182.25,17.1865,18.5901,174.258,0.155396,-0.00202832,0.000193617,0.113715,20.6752,467.816,0,0.0,0.0
732,182.75,17.4907,18.7694,169.573,0.18631,0.00152124,0.000170861,0.113755,20.6752,467.816,44.1178,0.0,0.0
734,183.25,17.46,18.6794,168.287,0.164464,0.00760619,0.00014089,0.113765,20.6752,467.816,28.2049,0.0,0.0
736,183.75,16.7523,18.9102,169.634,0.162816,0.0714981,0.000106229,0.113754,20.6747,467.816,7.55145,0.0,0.0
738,184.25,17.4611,18.6866,167.701,0.157045,-0.00557787,7.04612e-05,0.113759,20.6744,467.816,0,0.0,0.0
740,184.75,17.3289,18.3295,165.482,0.169823,-0.00862034,3.45673e-05,0.113776,20.6741,467.816,0,0.0,0.0
742,185.25,17.5753,18.3858,168.615,0.180128,0.0775831,4.8523e-06,0.11379,20.6738,467.816,7.72919,0.0,0.0
744,185.75,17.079,18.659,166.26,0.159518,-0.0314389,-1.97937e-05,0.113794,20.6736,467.816,0,0.0,0.0
746,186.25,17.2524,18.428,168.346,0.155396,0.0162265,-3.27062e-05,0.113791,20.6735,467.816,20.7319,0.0,0.0
748,186.75,17.9732,18.3669,167.305,0.171884,-0.00912742,-3.68198e-05,0.113781,20.6733,467.816,0,0.0,0.0
750,187.25,17.3726,18.9111,165.096,0.170235,0.0801185,-3.05371e-05,0.113767,20.6732,467.816,6.91579,0.0,0.0
752,187.75,17.3074,18.4494,170.146,0.144679,0.0268752,-1.67949e-05,0.113755,20.6732,467.816,15.4463,0.0,0.0
754,188.25,17.1604,18.3345,168.631,0.157457,0.0167336,-5.66368e-06,0.113718,20.6731,467.816,20.5704,0.0,0.0
756,188.75,17.5308,18.6787,168.399,0.15416,-0.0228186,3.3526e-06,0.113703,20.673,467.816,0,0.0,0.0
758,189.25,17.1739,18.6474,166.053,0.15416,-0.00811327,1.06558e-05,0.113703,20.673,467.816,0,0.0,0.0
760,189.75,16.9738,18.6299,169.536,0.154572,0.0111557,3.24107e-05,0.113711,20.6729,467.816,24.1213,0.0,0.0
762,190.25,17.3808,18.2492,165.715,0.16364,-0.0218044,5.00322e-05,0.113724,20.6727,467.816,0,0.0,0.0
764,190.75,17.5113,18.5468,173.761,0.161167,-0.0314389,6.79614e-05,0.113734,20.6725,467.816,0,0.0,0.0
766,191.25,17.2423,19.2293,170.125,0.147564,-0.00608495,8.2484e-05,0.113742,20.6724,467.816,0,0.0,0.0
768,191.75,17.085,18.6194,164.11,0.156633,-0.0562858,9.68134e-05,0.11372,20.6723,467.816,0,0.0,0.0
770,192.25,17.6115,18.6849,171.447,0.165701,-0.0613566,0.00011073,0.113676,20.6723,467.816,0,0.0,0.0
772,192.75,16.539,18.6851,169.22,0.155396,-0.063892,0.000128419,0.11364,20.6722,467.816,0,0.0,0.0
774,193.25,17.6499,18.7384,163.902,0.159106,0.0263681,,0.113639,,467.816,16.4933,0.0,0.0
776,193.75,17.206,18.8694,168.323,0.163228,-0.0131841,,0.113638,,467.816,0,0.0,0.0
778,194.25,17.4046,18.2198,164.688,0.149625,-0.0456371,,0.113637,,467.816,0,0.0,0.0
780,194.75,16.6274,18.4816,171.446,0.154572,0.0324531,,0.113636,,467.816,14.3227,0.0,0.0
782,195.25,17.2679,17.9447,168.614,0.14674,0.0329601,,0.113635,,467.816,13.7033,0.0,0.0
784,195.75,16.8339,18.5921,171.02,0.152923,-0.00760619,,0.11369,,467.816,0,0.0,0.0
786,196.25,17.1502,18.9429,169.208,0.157869,0.0025354,,,,467.816,37.9104,0.0,0.0
788,196.75,17.1638,18.4687,165.371,0.171884,0.0116628,,,,467.816,24.6875,0.0,0.0
790,197.25,17.3431,18.5855,166.298,0.145504,-0.0375239,,,,467.816,0,0.0,0.0
792,197.75,17.2731,18.5946,163.129,0.177654,-0.00354955,,,,467.816,0,0.0,0.0
794,198.25,17.3669,18.3417,163.262,0.168174,0.0547645,,,,467.816,10.2952,0.0,0.0
796,198.75,16.9945,18.1399,165.328,0.156633,0.0243398,,,,467.816,17.084,0.0,0.0
798,199.25,17.4076,19.0541,171.337,0.145091,-0.00456371,,,,467.816,0,0.0,0.0
800,199.75,16.8858,18.1697,169.613,0.145916,-0.0177478,,,,467.816,0,0.0,0.0
802,200.25,16.7617,18.3984,169.207,-7.38152,-8.80137,,,,467.816,-1.61433,0.0,0.0
804,200.75,17.6586,17.9932,162.097,-0.122833,-0.342785,,,,467.816,-9.41726,0.0,0.0
806,201.25,16.958,18.4713,168.399,0.141794,-0.00354955,,,,467.816,0,0.0,0.0
808,201.75,17.2157,18.1526,168.05,0.152923,0.00152124,,,,467.816,42.3057,0.0,0.0
810,202.25,17.4168,18.0145,166.918,0.237422,0.0476654,,,,467.816,14.7335,0.0,0.0
812,202.75,17.0824,17.9586,165.001,8.84109,9.68369,,,,467.816,-0.835326,0.0,0.0
814,203.25,17.3953,18.2606,165.808,0.342943,0.516207,,,,467.816,-3.7525,0.0,0.0
816,203.75,17.2866,18.5335,169.219,0.18425,0.00557787,,,,467.816,32.0933,0.0,0.0