File: 01_Data/Bean_Bag_Chair_Beads/MCC/Bean_Bag_Chair_Beads_MCC_30K_min_220315_R1.txt
Sample ID:	C:\MCC\MCC Cal\Test\Bean_Bag_Chair_Beads_MCC_30K_min_220315_R1.txt
Sample Weight (mg):	4.58
Heating Rate (C/s):	0.5
Combustor Temp (C):	900
N2 Flow Rate (cc/min):	80
O2 Flow Rate (cc/min):	20
Calibration File:	C:\MCC\MCC Cal\Coeff1 JN10440_30_210304.txt.txt
T Correction Coefficients:	0	1.024463	0
Time Shift (s):	14
*
Time (s)	Temperature (C)	N2 flow rate (cc/min)	O2 flow rate (cc/min)	Flow Rate (cc/min)	Oxygen (%)	HRR (W/g)	Heating rate (C/s)
0.000	107.328	80.011	19.994	103.704	19.983	-0.240	-0.001
2.000	107.309	80.013	19.995	103.708	19.978	0.091	0.005
4.000	107.295	80.014	19.995	103.703	19.979	0.031	-0.023
6.000	107.315	80.013	19.995	103.705	19.980	-0.023	0.001
8.000	107.295	80.014	19.994	103.702	19.978	0.130	0.005
10.000	107.292	80.014	19.994	103.701	19.978	0.101	0.040
12.000	107.275	80.013	19.993	103.708	19.979	0.019	-0.008
14.000	107.312	80.013	19.994	103.707	19.975	0.310	0.032
16.000	107.291	80.013	19.995	103.708	19.979	0.075	0.021
18.000	107.299	80.012	19.994	103.708	19.977	0.198	-0.018
20.000	107.313	80.011	19.996	103.708	19.974	0.385	0.007
22.000	107.329	80.014	19.994	103.710	19.975	0.343	-0.002
24.000	107.328	80.013	19.995	103.713	19.976	0.273	-0.008
26.000	107.316	80.014	19.994	103.720	19.968	0.805	-0.007
28.000	107.319	80.015	19.994	103.770	19.968	0.814	-0.023
30.000	107.396	80.015	19.994	103.794	19.961	1.326	0.024
32.000	107.424	80.015	19.992	103.811	19.960	1.404	0.004
34.000	107.524	80.015	19.992	103.829	19.954	1.792	0.051
36.000	107.653	80.016	19.993	103.878	19.952	1.988	0.071
38.000	107.809	80.014	19.993	103.906	19.946	2.404	0.082
40.000	108.006	80.012	19.993	103.909	19.943	2.590	0.062
42.001	108.226	80.012	19.993	103.910	19.941	2.720	0.125
44.000	108.492	80.012	19.993	103.919	19.940	2.813	0.103
46.000	108.775	80.012	19.993	103.929	19.939	2.889	0.170
48.001	109.148	80.012	19.994	103.935	19.943	2.600	0.169
50.001	109.452	80.012	19.994	103.915	19.938	2.968	0.166
52.000	109.806	80.011	19.994	103.908	19.941	2.763	0.181
54.000	110.205	80.010	19.995	103.910	19.940	2.833	0.203
56.000	110.631	80.010	19.994	103.908	19.936	3.098	0.203
58.001	111.077	80.011	19.993	103.907	19.939	2.891	0.247
60.000	111.584	80.011	19.994	103.915	19.939	2.899	0.282
62.000	112.061	80.012	19.994	103.910	19.939	2.892	0.259
64.000	112.574	80.012	19.994	103.918	19.937	3.047	0.284
66.000	113.018	80.014	19.994	103.917	19.938	2.954	0.235
68.000	113.561	80.011	19.995	103.924	19.935	3.126	0.235
70.000	114.116	80.012	19.994	103.942	19.935	3.175	0.255
72.000	114.694	80.012	19.995	103.942	19.934	3.198	0.279
74.000	115.285	80.012	19.995	103.942	19.936	3.119	0.307
76.000	115.880	80.011	19.995	103.940	19.933	3.328	0.322
78.000	116.478	80.011	19.994	103.942	19.931	3.444	0.319
80.000	117.125	80.012	19.995	103.946	19.932	3.356	0.347
82.000	117.787	80.011	19.995	103.951	19.934	3.266	0.328
84.000	118.450	80.012	19.996	103.944	19.934	3.216	0.309
86.000	119.160	80.012	19.995	103.945	19.934	3.252	0.354
88.000	119.835	80.015	19.994	103.945	19.932	3.356	0.371
90.000	120.544	80.013	19.995	103.951	19.932	3.340	0.379
92.000	121.226	80.013	19.995	103.952	19.934	3.249	0.336
94.000	122.010	80.012	19.994	103.946	19.933	3.319	0.391
96.000	122.779	80.013	19.994	103.941	19.929	3.558	0.375
98.000	123.558	80.014	19.993	103.950	19.929	3.564	0.383
100.000	124.337	80.012	19.994	103.960	19.929	3.580	0.405
102.000	125.108	80.013	19.995	103.961	19.931	3.475	0.375
104.000	125.885	80.014	19.994	103.967	19.925	3.841	0.421
106.000	126.744	80.011	19.993	103.972	19.928	3.653	0.385
108.000	127.549	80.012	19.994	103.983	19.929	3.601	0.394
110.000	128.374	80.012	19.994	103.979	19.930	3.527	0.431
112.000	129.221	80.012	19.994	103.983	19.931	3.467	0.448
114.000	130.066	80.013	19.994	103.977	19.925	3.868	0.411
116.001	130.949	80.013	19.994	103.970	19.931	3.465	0.436
118.001	131.838	80.014	19.994	103.980	19.931	3.463	0.451
120.000	132.678	80.015	19.993	103.974	19.929	3.587	0.425
122.000	133.608	80.013	19.994	103.979	19.928	3.623	0.465
124.000	134.574	80.013	19.994	103.971	19.929	3.569	0.462
126.000	135.416	80.013	19.993	103.970	19.930	3.517	0.444
128.000	136.372	80.012	19.993	103.975	19.928	3.626	0.466
130.000	137.313	80.012	19.994	103.974	19.926	3.787	0.459
132.000	138.269	80.012	19.993	103.956	19.930	3.527	0.464
134.000	139.195	80.011	19.994	103.961	19.927	3.699	0.475
136.000	140.139	80.011	19.994	103.960	19.927	3.742	0.473
138.000	141.092	80.012	19.995	103.975	19.931	3.451	0.465
140.000	142.010	80.012	19.995	103.964	19.929	3.600	0.468
142.000	142.988	80.012	19.993	103.969	19.932	3.387	0.481
144.000	143.984	80.012	19.996	103.960	19.933	3.284	0.513
146.000	144.955	80.011	19.995	103.960	19.932	3.388	0.480
148.000	145.955	80.012	19.994	103.972	19.933	3.336	0.497
150.000	146.911	80.012	19.994	103.958	19.933	3.301	0.484
152.000	147.895	80.012	19.994	103.963	19.932	3.352	0.497
154.000	148.893	80.012	19.995	103.966	19.932	3.404	0.515
156.000	149.896	80.013	19.995	103.953	19.935	3.140	0.514
158.000	150.894	80.011	19.994	103.950	19.933	3.293	0.500
160.000	151.882	80.011	19.995	103.952	19.933	3.307	0.484
162.000	152.828	80.011	19.994	103.955	19.933	3.334	0.482
164.000	153.861	80.012	19.996	103.957	19.930	3.507	0.515
166.000	154.771	80.010	19.995	103.957	19.927	3.724	0.426
168.000	155.794	80.012	19.993	103.953	19.931	3.456	0.487
170.000	156.785	80.012	19.994	103.949	19.934	3.204	0.506
172.000	157.773	80.013	19.995	103.946	19.931	3.450	0.515
174.000	158.779	80.012	19.994	103.948	19.930	3.487	0.493
176.000	159.736	80.014	19.994	103.947	19.929	3.584	0.488
178.000	160.675	80.013	19.994	103.949	19.929	3.555	0.490
180.000	161.730	80.012	19.994	103.950	19.933	3.320	0.516
182.000	162.727	80.012	19.994	103.944	19.933	3.291	0.508
184.001	163.709	80.012	19.994	103.941	19.933	3.309	0.523
186.000	164.724	80.013	19.996	103.943	19.933	3.316	0.480
188.000	165.713	80.011	19.995	103.945	19.932	3.340	0.488
190.000	166.697	80.012	19.995	103.944	19.930	3.491	0.487
192.000	167.736	80.013	19.995	103.944	19.932	3.347	0.517
194.000	168.713	80.012	19.993	103.945	19.933	3.322	0.500
196.000	169.718	80.013	19.993	103.943	19.931	3.463	0.525
198.000	170.695	80.015	19.993	103.943	19.932	3.355	0.500
200.000	171.710	80.013	19.995	103.942	19.934	3.266	0.529
202.000	172.689	80.013	19.993	103.938	19.935	3.184	0.491
204.000	173.703	80.015	19.993	103.938	19.936	3.108	0.501
206.000	174.683	80.014	19.994	103.931	19.931	3.467	0.499
208.000	175.705	80.012	19.993	103.934	19.935	3.163	0.517
210.000	176.674	80.012	19.994	103.941	19.932	3.372	0.498
212.000	177.697	80.011	19.994	103.941	19.935	3.172	0.483
214.000	178.676	80.012	19.993	103.936	19.933	3.320	0.499
216.000	179.689	80.011	19.995	103.928	19.935	3.194	0.503
218.000	180.666	80.011	19.994	103.925	19.930	3.502	0.464
220.000	181.693	80.011	19.994	103.933	19.935	3.149	0.532
222.000	182.635	80.012	19.994	103.925	19.937	3.031	0.475
224.000	183.658	80.013	19.993	103.926	19.934	3.246	0.488
226.000	184.645	80.012	19.994	103.937	19.932	3.362	0.527
228.000	185.658	80.012	19.994	103.924	19.935	3.168	0.519
230.000	186.691	80.012	19.994	103.932	19.937	3.000	0.536
232.000	187.650	80.012	19.993	103.920	19.940	2.819	0.493
234.000	188.643	80.013	19.995	103.934	19.936	3.116	0.458
236.000	189.628	80.011	19.994	103.925	19.937	3.036	0.452
238.000	190.609	80.012	19.993	103.925	19.932	3.380	0.465
240.000	191.648	80.011	19.994	103.927	19.937	3.033	0.485
242.000	192.655	80.011	19.993	103.924	19.936	3.060	0.549
244.000	193.631	80.011	19.995	103.930	19.936	3.110	0.492
246.000	194.615	80.010	19.995	103.920	19.937	3.043	0.502
248.000	195.631	80.010	19.995	103.919	19.934	3.211	0.491
250.000	196.603	80.010	19.994	103.930	19.935	3.131	0.488
252.000	197.578	80.010	19.994	103.925	19.933	3.327	0.474
254.000	198.623	80.013	19.995	103.914	19.934	3.205	0.509
256.000	199.604	80.011	19.995	103.924	19.936	3.061	0.492
258.000	200.593	80.012	19.993	103.921	19.934	3.230	0.500
260.000	201.551	80.033	19.996	103.908	19.932	3.354	0.491
262.001	202.531	80.012	19.993	103.914	19.935	3.135	0.503
264.000	203.486	80.013	19.994	103.909	19.934	3.217	0.465
266.000	204.499	80.012	19.994	103.909	19.938	2.922	0.474
268.000	205.472	80.012	19.993	103.907	19.936	3.119	0.494
270.000	206.478	80.011	19.995	103.906	19.934	3.261	0.518
272.000	207.425	80.011	19.995	103.906	19.936	3.098	0.497
274.000	208.420	80.013	19.995	103.908	19.936	3.075	0.465
276.000	209.458	80.011	19.994	103.909	19.934	3.212	0.508
278.001	210.469	80.013	19.994	103.902	19.936	3.071	0.500
280.000	211.426	80.014	19.995	103.903	19.935	3.183	0.503
282.000	212.424	80.015	19.995	103.903	19.935	3.187	0.494
284.000	213.444	80.014	19.994	103.902	19.935	3.177	0.518
286.000	214.396	80.013	19.995	103.902	19.935	3.172	0.486
288.000	215.417	80.013	19.995	103.902	19.935	3.160	0.475
290.000	216.363	80.013	19.994	103.900	19.938	2.937	0.471
292.000	217.409	80.016	19.994	103.902	19.939	2.875	0.490
294.000	218.372	80.012	19.995	103.903	19.940	2.800	0.478
296.000	219.410	80.015	19.994	103.904	19.936	3.079	0.520
298.000	220.362	80.010	19.993	103.905	19.933	3.286	0.473
300.000	221.311	80.014	19.994	103.908	19.934	3.228	0.474
302.000	222.352	80.011	19.995	103.906	19.934	3.207	0.529
304.000	223.336	80.012	19.993	103.906	19.933	3.278	0.506
306.001	224.345	80.010	19.994	103.906	19.934	3.238	0.507
308.000	225.302	80.015	19.994	103.904	19.934	3.251	0.484
310.000	226.317	80.013	19.993	103.907	19.931	3.435	0.471
312.000	227.280	80.009	19.994	103.905	19.927	3.732	0.501
314.000	228.228	80.009	19.994	103.907	19.932	3.399	0.494
316.000	229.304	80.012	19.994	103.903	19.931	3.447	0.548
318.000	230.248	80.012	19.994	103.907	19.931	3.464	0.476
320.000	231.328	80.012	19.994	103.903	19.932	3.377	0.545
322.000	232.264	80.013	19.994	103.907	19.935	3.178	0.486
324.000	233.115	80.013	19.993	103.908	19.930	3.484	0.458
326.000	234.200	80.011	19.994	103.907	19.930	3.522	0.396
328.000	235.090	80.010	19.994	103.908	19.930	3.537	0.321
330.000	236.207	80.011	19.993	103.904	19.934	3.261	0.551
332.000	237.206	80.012	19.992	103.906	19.930	3.532	0.482
334.000	238.223	80.012	19.993	103.901	19.932	3.394	0.445
336.000	239.235	80.011	19.994	103.903	19.928	3.656	0.497
338.000	240.210	80.012	19.994	103.888	19.932	3.361	0.456
340.000	241.183	80.012	19.993	103.886	19.931	3.456	0.509
342.000	242.178	80.014	19.994	103.898	19.931	3.429	0.485
344.000	243.184	80.014	19.994	103.889	19.932	3.344	0.502
346.000	244.180	80.013	19.993	103.891	19.929	3.567	0.486
348.000	245.154	80.014	19.994	103.898	19.931	3.423	0.504
350.000	246.202	80.012	19.995	103.888	19.929	3.588	0.505
352.000	247.165	80.012	19.993	103.889	19.931	3.476	0.510
354.000	248.177	80.008	19.994	103.900	19.932	3.365	0.464
356.000	249.186	80.013	19.994	103.893	19.931	3.445	0.513
358.000	250.224	80.012	19.996	103.894	19.929	3.561	0.527
360.000	251.264	80.009	19.994	103.892	19.928	3.674	0.496
362.000	252.256	80.014	19.995	103.896	19.934	3.210	0.477
364.000	253.213	80.015	19.993	103.901	19.934	3.253	0.491
366.000	254.216	80.012	19.994	103.899	19.931	3.435	0.483
368.000	255.252	80.016	19.994	103.899	19.930	3.534	0.513
370.000	256.219	80.014	19.993	103.904	19.928	3.662	0.513
372.000	257.249	80.012	19.994	103.899	19.931	3.466	0.523
374.000	258.238	80.012	19.994	103.896	19.932	3.346	0.529
376.000	259.249	80.012	19.995	103.899	19.930	3.541	0.539
378.000	260.211	80.008	19.996	103.893	19.934	3.257	0.477
380.000	261.203	80.011	19.997	103.901	19.927	3.695	0.483
382.000	262.241	80.010	19.995	103.904	19.930	3.532	0.534
384.000	263.233	80.011	19.995	103.890	19.931	3.450	0.467
386.000	264.228	80.010	19.995	103.890	19.931	3.462	0.493
388.000	265.243	80.016	19.994	103.879	19.925	3.880	0.495
390.000	266.255	80.011	19.995	103.901	19.928	3.648	0.516
392.000	267.259	80.015	19.994	103.893	19.927	3.719	0.510
394.000	268.279	80.013	19.993	103.887	19.925	3.847	0.527
396.000	269.223	80.013	19.993	103.871	19.922	4.061	0.498
398.000	270.250	80.011	19.993	103.883	19.924	3.919	0.510
400.000	271.268	80.017	19.993	103.881	19.926	3.762	0.486
402.000	272.277	80.013	19.993	103.878	19.923	4.037	0.464
404.000	273.273	80.012	19.994	103.873	19.925	3.874	0.494
406.000	274.233	80.012	19.995	103.882	19.922	4.045	0.469
408.000	275.231	80.017	19.994	103.874	19.922	4.099	0.488
410.000	276.263	80.013	19.994	103.869	19.925	3.838	0.507
412.000	277.240	80.014	19.993	103.868	19.926	3.793	0.480
414.000	278.259	80.000	19.996	103.872	19.920	4.227	0.507
416.000	279.249	80.009	19.994	103.878	19.920	4.249	0.470
418.000	280.234	80.011	19.995	103.873	19.921	4.117	0.509
420.000	281.262	80.002	19.994	103.877	19.917	4.401	0.500
422.000	282.268	80.015	19.994	103.885	19.922	4.112	0.532
424.000	283.232	80.016	19.994	103.869	19.919	4.260	0.473
426.000	284.220	80.010	19.995	103.881	19.921	4.149	0.506
428.000	285.229	80.013	19.993	103.894	19.921	4.171	0.506
430.000	286.218	80.014	19.994	103.878	19.916	4.522	0.480
432.000	287.205	80.013	19.994	103.867	19.912	4.795	0.512
434.000	288.192	80.007	19.994	103.866	19.907	5.105	0.495
436.000	289.241	80.012	19.994	103.866	19.912	4.809	0.537
438.000	290.195	80.008	19.994	103.866	19.910	4.931	0.498
440.000	291.208	80.018	19.995	103.872	19.910	4.940	0.497
442.000	292.214	80.010	19.995	103.880	19.909	4.996	0.480
444.000	293.216	80.014	19.994	103.877	19.907	5.170	0.511
446.000	294.248	80.015	19.993	103.879	19.908	5.072	0.478
448.000	295.173	80.009	19.994	103.871	19.906	5.238	0.489
450.000	296.174	80.013	19.995	103.871	19.905	5.277	0.456
452.000	297.212	80.012	19.994	103.866	19.903	5.442	0.500
454.000	298.225	80.017	19.994	103.864	19.903	5.398	0.525
456.000	299.216	80.018	19.994	103.865	19.901	5.544	0.529
458.000	300.208	80.010	19.993	103.863	19.899	5.717	0.485
460.000	301.188	80.013	19.993	103.862	19.896	5.942	0.500
462.000	302.163	80.012	19.994	103.870	19.896	5.899	0.492
464.000	303.195	80.017	19.992	103.873	19.894	6.060	0.499
466.000	304.176	80.016	19.994	103.867	19.895	6.012	0.519
468.000	305.191	80.003	19.995	103.868	19.886	6.628	0.512
470.000	306.231	80.016	19.993	103.874	19.883	6.862	0.512
472.000	307.180	80.013	19.995	103.866	19.887	6.538	0.497
474.000	308.217	80.014	19.993	103.861	19.886	6.645	0.518
476.000	309.177	80.018	19.995	103.871	19.885	6.665	0.502
478.000	310.213	80.018	19.993	103.865	19.880	7.037	0.498
480.000	311.199	80.016	19.995	103.867	19.878	7.194	0.464
482.000	312.209	80.006	19.996	103.864	19.876	7.368	0.501
484.000	313.225	80.005	19.995	103.863	19.869	7.851	0.524
486.000	314.253	80.007	19.994	103.869	19.870	7.748	0.518
488.000	315.250	80.017	19.994	103.863	19.865	8.107	0.480
490.000	316.261	80.013	19.995	103.865	19.863	8.273	0.508
492.000	317.247	80.008	19.995	103.866	19.861	8.423	0.500
494.000	318.237	80.004	19.994	103.867	19.853	8.928	0.542
496.000	319.265	80.013	19.993	103.871	19.851	9.123	0.486
498.000	320.244	80.010	19.993	103.871	19.850	9.163	0.514
500.000	321.253	80.007	19.996	103.870	19.838	9.994	0.493
502.000	322.202	80.011	19.994	103.868	19.841	9.818	0.487
504.000	323.221	80.011	19.993	103.871	19.830	10.578	0.504
506.000	324.229	80.014	19.993	103.873	19.828	10.711	0.493
508.000	325.183	80.013	19.993	103.875	19.827	10.825	0.475
510.000	326.269	80.013	19.992	103.869	19.820	11.285	0.518
512.000	327.249	80.013	19.993	103.866	19.810	12.037	0.483
514.000	328.229	80.011	19.992	103.866	19.809	12.046	0.506
516.000	329.221	80.013	19.994	103.868	19.805	12.390	0.505
518.000	330.200	80.003	19.995	103.868	19.798	12.820	0.501
520.000	331.208	80.012	19.993	103.866	19.791	13.378	0.519
522.000	332.217	80.007	19.994	103.869	19.783	13.905	0.475
524.000	333.233	80.015	19.993	103.864	19.778	14.303	0.507
526.000	334.248	80.012	19.993	103.870	19.776	14.442	0.509
528.000	335.280	80.013	19.993	103.869	19.767	15.014	0.494
530.000	336.296	80.013	19.994	103.870	19.768	14.953	0.542
532.000	337.267	80.013	19.993	103.869	19.764	15.290	0.481
534.000	338.300	80.013	19.993	103.869	19.764	15.288	0.490
536.000	339.304	80.014	19.993	103.868	19.758	15.652	0.489
538.000	340.295	80.015	19.992	103.868	19.756	15.800	0.489
540.000	341.355	80.013	19.993	103.866	19.751	16.180	0.543
542.000	342.348	80.015	19.993	103.864	19.743	16.765	0.485
544.000	343.343	80.011	19.993	103.861	19.740	16.947	0.504
546.000	344.313	80.010	19.995	103.863	19.729	17.732	0.482
548.000	345.344	80.011	19.995	103.865	19.726	17.954	0.519
550.000	346.347	80.012	19.995	103.864	19.723	18.162	0.460
552.000	347.343	80.012	19.995	103.864	19.720	18.390	0.512
554.000	348.357	80.008	19.995	103.863	19.708	19.196	0.482
556.000	349.421	80.011	19.994	103.865	19.702	19.663	0.530
558.000	350.372	80.013	19.995	103.884	19.685	20.829	0.510
560.000	351.358	80.012	19.994	103.872	19.674	21.614	0.507
562.000	352.400	80.012	19.994	103.867	19.670	21.942	0.508
564.000	353.407	80.014	19.994	103.867	19.654	23.055	0.483
566.000	354.383	80.012	19.994	103.868	19.642	23.870	0.524
568.000	355.348	80.011	19.995	103.869	19.632	24.627	0.472
570.000	356.350	80.013	19.994	103.872	19.622	25.334	0.500
572.000	357.344	80.010	19.994	103.885	19.607	26.351	0.505
574.000	358.372	80.011	19.993	103.880	19.595	27.253	0.541
576.000	359.350	80.010	19.995	103.882	19.576	28.530	0.504
578.000	360.305	80.010	19.995	103.886	19.560	29.700	0.511
580.000	361.313	80.009	19.995	103.871	19.541	31.029	0.491
582.000	362.311	80.009	19.995	103.876	19.517	32.762	0.475
584.000	363.316	80.009	19.995	103.887	19.498	34.093	0.519
586.000	364.314	80.011	19.995	103.878	19.475	35.716	0.507
588.001	365.348	80.011	19.994	103.874	19.459	36.875	0.541
590.000	366.313	80.015	19.992	103.889	19.431	38.809	0.491
592.000	367.323	80.014	19.994	103.891	19.404	40.716	0.473
594.000	368.307	80.011	19.994	103.877	19.381	42.391	0.478
596.000	369.355	80.013	19.992	103.899	19.356	44.171	0.528
598.000	370.317	80.013	19.994	103.897	19.317	46.872	0.498
600.000	371.319	80.012	19.993	103.905	19.292	48.701	0.491
602.000	372.329	80.013	19.993	103.904	19.254	51.358	0.482
604.000	373.371	80.014	19.993	103.900	19.218	53.928	0.526
606.000	374.342	80.012	19.994	103.904	19.177	56.840	0.491
608.000	375.376	80.013	19.993	103.904	19.133	59.954	0.515
610.000	376.422	80.015	19.994	103.905	19.090	62.992	0.488
612.000	377.390	80.011	19.992	103.906	19.052	65.677	0.498
614.000	378.380	80.014	19.994	103.904	18.995	69.717	0.493
616.000	379.400	80.011	19.996	103.917	18.939	73.662	0.507
618.000	380.449	80.016	19.993	103.927	18.892	77.002	0.526
620.000	381.421	80.012	19.995	103.936	18.827	81.658	0.513
622.000	382.441	80.011	19.994	103.928	18.775	85.311	0.550
624.000	383.435	80.015	19.993	103.914	18.713	89.680	0.490
626.000	384.487	80.025	19.991	103.913	18.644	94.612	0.516
628.000	385.457	80.009	19.993	103.943	18.566	100.145	0.473
630.000	386.466	80.012	19.992	103.948	18.478	106.352	0.494
632.000	387.461	80.014	19.994	103.969	18.393	112.393	0.501
634.000	388.481	80.012	19.993	103.950	18.298	119.096	0.490
636.000	389.462	80.012	19.995	103.945	18.204	125.763	0.482
638.000	390.456	80.010	19.993	103.969	18.110	132.422	0.509
640.000	391.522	80.015	19.993	103.965	18.005	139.895	0.535
642.000	392.472	80.014	19.993	103.956	17.902	147.217	0.485
644.000	393.512	80.010	19.994	103.968	17.796	154.733	0.498
646.000	394.552	80.006	19.994	103.977	17.693	162.013	0.533
648.000	395.517	80.004	19.996	103.987	17.575	170.275	0.490
650.000	396.546	80.014	19.994	103.986	17.444	179.526	0.492
652.000	397.599	80.012	19.993	104.012	17.300	189.828	0.531
654.000	398.567	80.007	19.995	104.025	17.129	202.195	0.494
656.000	399.619	80.007	19.994	104.058	16.989	212.419	0.541
658.000	400.621	80.018	19.992	103.952	16.890	218.910	0.470
660.000	401.652	80.013	19.992	103.934	16.780	226.226	0.511
662.000	402.614	80.008	19.994	103.960	16.622	237.444	0.493
664.000	403.630	80.012	19.993	104.057	16.322	259.429	0.504
666.000	404.666	80.014	19.993	104.228	16.083	276.798	0.527
668.000	405.692	80.013	19.995	104.138	15.949	285.935	0.531
670.000	406.666	80.016	19.993	103.870	15.832	294.121	0.477
672.000	407.697	80.024	19.992	103.766	15.690	304.119	0.504
674.000	408.624	80.013	19.996	103.915	15.539	314.912	0.470
676.000	409.619	80.018	19.994	104.254	15.385	325.752	0.463
678.000	410.651	80.009	19.994	104.224	15.224	337.107	0.498
680.000	411.627	80.017	19.995	104.092	15.055	349.188	0.458
682.000	412.631	80.013	19.995	104.079	14.886	361.180	0.473
684.000	413.592	80.023	19.993	104.087	14.730	372.247	0.504
686.000	414.534	80.006	19.995	104.091	14.586	382.374	0.483
688.000	415.487	80.011	19.994	104.062	14.438	392.749	0.488
690.000	416.459	80.002	19.994	104.071	14.305	402.299	0.491
692.000	417.511	80.018	19.993	104.090	14.167	412.257	0.513
694.000	418.487	80.015	19.992	104.113	14.071	419.129	0.461
696.000	419.431	80.020	19.992	104.064	13.995	424.501	0.465
698.000	420.400	80.003	19.995	104.054	13.935	428.823	0.455
700.000	421.430	80.023	19.992	104.059	13.896	431.732	0.507
702.000	422.337	80.019	19.994	104.117	13.883	432.454	0.446
704.000	423.328	80.011	19.994	104.122	13.882	432.396	0.485
706.000	424.260	80.016	19.994	104.113	13.915	430.073	0.488
708.000	425.282	80.011	19.993	104.117	13.942	428.469	0.504
710.000	426.249	80.014	19.993	104.146	13.997	424.846	0.463
712.000	427.276	80.018	19.992	104.185	14.129	415.383	0.481
714.000	428.284	79.988	19.995	104.130	14.295	403.471	0.480
716.000	429.270	80.010	19.994	104.103	14.476	390.581	0.504
718.000	430.262	80.007	19.995	104.117	14.666	377.151	0.501
720.000	431.279	79.999	19.994	104.235	14.881	361.813	0.497
722.000	432.303	80.006	19.994	104.239	15.119	344.885	0.535
724.001	433.335	80.020	19.992	104.199	15.370	326.986	0.512
726.000	434.379	80.014	19.993	104.183	15.632	308.380	0.536
728.000	435.439	80.011	19.993	104.174	15.896	289.614	0.523
730.000	436.454	80.014	19.993	104.183	16.166	270.410	0.533
732.000	437.446	80.013	19.994	104.166	16.436	251.259	0.512
734.000	438.547	80.004	19.995	104.139	16.715	231.458	0.509
736.000	439.594	80.021	19.993	104.122	16.983	212.426	0.528
738.000	440.665	80.013	19.993	104.103	17.253	193.294	0.546
740.000	441.700	80.026	19.997	104.097	17.511	174.962	0.502
742.000	442.730	80.020	19.994	104.080	17.747	158.184	0.532
744.000	443.813	80.014	19.995	104.075	17.976	141.984	0.541
746.000	444.850	80.005	19.995	104.061	18.183	127.291	0.498
748.000	445.955	80.022	19.994	104.051	18.374	113.729	0.513
750.000	446.982	80.012	19.995	104.039	18.551	101.152	0.559
752.000	448.055	80.005	19.998	104.020	18.706	90.164	0.495
754.000	449.131	80.019	19.992	104.002	18.848	80.112	0.507
756.000	450.202	80.017	19.993	103.998	18.973	71.241	0.553
758.000	451.239	80.022	19.992	103.986	19.085	63.298	0.515
760.000	452.280	80.011	19.996	103.954	19.186	56.192	0.531
762.000	453.293	80.003	19.996	103.942	19.263	50.729	0.503
764.000	454.373	80.015	19.994	103.940	19.344	45.001	0.527
766.000	455.453	80.005	19.995	103.909	19.412	40.188	0.545
768.000	456.486	80.014	19.992	103.910	19.468	36.202	0.494
770.000	457.503	80.009	19.993	103.905	19.512	33.060	0.540
772.000	458.571	80.009	19.996	103.889	19.557	29.878	0.528
774.000	459.610	80.025	19.994	103.866	19.604	26.567	0.536
776.000	460.641	80.011	19.995	103.875	19.631	24.669	0.508
778.000	461.648	80.015	19.992	103.862	19.666	22.176	0.519
780.000	462.694	80.012	19.994	103.858	19.693	20.266	0.524
782.000	463.726	80.018	19.994	103.838	19.720	18.378	0.518
784.000	464.741	80.009	19.994	103.834	19.738	17.118	0.527
786.000	465.734	80.009	19.994	103.828	19.760	15.509	0.552
788.000	466.772	80.024	19.991	103.828	19.777	14.359	0.520
790.000	467.755	80.017	19.992	103.830	19.796	12.994	0.500
792.000	468.788	80.024	19.992	103.820	19.809	12.070	0.525
794.000	469.772	80.025	19.992	103.831	19.826	10.892	0.496
796.000	470.796	80.004	19.995	103.835	19.848	9.336	0.508
798.000	471.812	80.004	19.993	103.838	19.861	8.377	0.497
800.000	472.795	80.018	19.994	103.845	19.874	7.482	0.499
802.000	473.805	80.014	19.994	103.869	19.896	5.925	0.488
804.000	474.834	80.013	19.995	103.872	19.908	5.061	0.517
806.000	475.824	80.020	19.993	103.866	19.916	4.520	0.482
808.000	476.884	80.009	19.993	103.856	19.922	4.065	0.557
810.000	477.882	80.018	19.993	103.863	19.923	4.039	0.498
812.000	478.880	80.015	19.992	103.844	19.926	3.768	0.514
814.000	479.907	80.014	19.994	103.843	19.925	3.898	0.449
816.000	480.928	80.018	19.992	103.824	19.927	3.739	0.549
818.000	481.950	80.014	19.993	103.840	19.936	3.100	0.536
820.000	482.927	80.004	19.995	103.836	19.932	3.357	0.480
822.000	483.958	80.015	19.992	103.824	19.934	3.216	0.500
824.000	484.954	80.006	19.993	103.832	19.939	2.894	0.527
826.000	485.978	80.016	19.993	103.834	19.937	3.001	0.475
828.000	486.917	80.016	19.993	103.837	19.938	2.929	0.498
830.000	487.942	80.006	19.995	103.830	19.940	2.805	0.482
832.000	488.978	80.015	19.994	103.834	19.939	2.891	0.498
834.000	490.035	80.014	19.995	103.816	19.946	2.400	0.548
836.000	491.020	80.014	19.994	103.831	19.940	2.782	0.490
838.000	492.007	80.014	19.996	103.840	19.941	2.708	0.523
840.000	493.048	80.012	19.995	103.832	19.939	2.873	0.522
842.000	494.062	80.018	19.993	103.831	19.940	2.803	0.507
844.000	495.116	80.004	19.996	103.841	19.941	2.722	0.539
846.000	496.132	80.008	19.996	103.834	19.934	3.212	0.514
848.000	497.138	80.025	19.999	103.821	19.939	2.884	0.503
850.000	498.120	80.014	19.994	103.815	19.942	2.641	0.475
852.000	499.126	80.016	19.994	103.824	19.943	2.571	0.488
854.000	500.164	80.002	19.994	103.820	19.943	2.564	0.488
856.000	501.132	80.015	19.994	103.827	19.943	2.563	0.511
858.000	502.128	80.011	19.994	103.816	19.945	2.485	0.503
860.000	503.119	80.012	19.995	103.854	19.943	2.603	0.511
862.000	504.125	80.014	19.994	103.850	19.945	2.421	0.515
864.000	505.169	80.015	19.993	103.809	19.945	2.479	0.501
866.000	506.156	80.018	19.992	103.808	19.949	2.175	0.520
868.000	507.167	80.018	19.993	103.821	19.945	2.477	0.551
870.000	508.156	80.015	19.993	103.816	19.948	2.260	0.524
872.000	509.176	80.016	19.995	103.796	19.949	2.148	0.506
874.001	510.208	80.007	19.996	103.795	19.951	2.009	0.496
876.000	511.225	80.014	19.997	103.796	19.946	2.351	0.537
878.000	512.217	80.010	19.996	103.797	19.952	1.933	0.538
880.000	513.250	80.014	19.993	103.799	19.948	2.250	0.505
882.000	514.263	80.015	19.995	103.812	19.949	2.161	0.469
884.000	515.290	80.013	19.991	103.801	19.949	2.167	0.528
886.000	516.329	80.002	19.995	103.815	19.945	2.464	0.529
888.000	517.345	80.012	19.996	103.809	19.951	2.045	0.536
890.000	518.391	80.011	19.992	103.796	19.947	2.286	0.502
892.000	519.384	80.010	19.993	103.793	19.953	1.908	0.501
894.000	520.431	80.014	19.993	103.803	19.949	2.156	0.524
896.000	521.404	80.015	19.993	103.812	19.948	2.216	0.497
898.000	522.424	80.012	19.994	103.804	19.948	2.229	0.507
900.000	523.516	80.020	19.991	103.810	19.949	2.191	0.553
902.000	524.508	80.008	19.993	103.813	19.949	2.191	0.526
904.000	525.537	80.011	19.994	103.814	19.952	1.983	0.516
906.000	526.554	80.012	19.994	103.804	19.946	2.373	0.526
908.000	527.552	80.008	19.996	103.801	19.946	2.349	0.502
910.000	528.555	80.011	19.995	103.820	19.946	2.373	0.501
912.000	529.587	80.008	19.994	103.821	19.945	2.416	0.509
914.000	530.635	80.019	19.994	103.817	19.947	2.303	0.523
916.000	531.636	80.015	19.988	103.804	19.946	2.379	0.506
918.000	532.646	80.013	19.995	103.800	19.951	2.005	0.484
920.000	533.708	80.015	19.994	103.817	19.949	2.173	0.532
922.000	534.685	80.012	19.993	103.821	19.947	2.276	0.511
924.000	535.704	80.012	19.998	103.819	19.947	2.299	0.508
926.000	536.748	80.014	19.993	103.815	19.947	2.274	0.510
928.000	537.772	80.012	19.993	103.813	19.947	2.317	0.533
930.000	538.799	80.014	19.993	103.812	19.948	2.251	0.490
932.000	539.835	80.018	19.991	103.817	19.946	2.348	0.524
934.000	540.805	80.010	19.996	103.818	19.943	2.557	0.507
936.000	541.838	80.014	19.993	103.820	19.951	2.042	0.533
938.000	542.886	80.013	19.993	103.810	19.944	2.508	0.527
940.000	543.867	80.011	19.993	103.813	19.946	2.400	0.507
942.000	544.862	80.012	19.990	103.821	19.946	2.412	0.494
944.000	545.914	80.012	19.993	103.816	19.944	2.553	0.511
946.000	546.859	80.013	19.994	103.816	19.943	2.625	0.501
948.000	547.936	80.012	19.995	103.805	19.946	2.350	0.504
950.000	548.918	80.011	19.995	103.806	19.945	2.418	0.509
952.000	549.953	80.013	19.994	103.805	19.944	2.501	0.497
954.000	550.933	80.018	19.993	103.817	19.946	2.400	0.504
956.000	551.928	80.013	19.994	103.822	19.944	2.539	0.476
958.000	552.950	80.014	19.991	103.822	19.944	2.526	0.491
960.000	553.970	80.014	19.993	103.821	19.941	2.740	0.511
962.000	555.006	80.014	19.993	103.823	19.944	2.508	0.525
964.000	556.012	80.011	19.993	103.820	19.945	2.419	0.509
966.000	557.024	80.012	19.995	103.822	19.943	2.619	0.500
968.000	558.051	80.010	19.998	103.818	19.946	2.388	0.521
970.000	559.051	80.012	19.995	103.808	19.950	2.129	0.526
972.000	560.025	80.011	19.994	103.797	19.942	2.638	0.477
974.000	561.037	80.005	19.997	103.806	19.943	2.568	0.482
976.000	562.080	80.012	19.995	103.810	19.940	2.772	0.512
978.000	563.107	80.010	20.003	103.821	19.943	2.602	0.545
980.000	564.120	80.010	19.998	103.813	19.944	2.535	0.508
982.000	565.090	80.011	19.992	103.826	19.941	2.760	0.481
984.000	566.106	80.015	19.991	103.810	19.939	2.845	0.492
986.000	567.085	80.014	19.992	103.813	19.947	2.292	0.491
988.000	568.104	80.014	19.994	103.820	19.946	2.350	0.491
990.000	569.067	80.013	19.993	103.820	19.949	2.193	0.478
992.000	570.080	80.013	19.995	103.809	19.944	2.491	0.490
994.000	571.100	80.012	19.999	103.814	19.945	2.423	0.493
996.000	572.111	80.012	19.992	103.820	19.944	2.507	0.524
998.000	573.130	80.010	19.991	103.821	19.946	2.413	0.505
1000.000	574.190	80.007	19.995	103.822	19.942	2.628	0.542
1002.000	575.296	80.013	19.994	103.822	19.945	2.441	0.582
1004.000	576.279	80.010	19.993	103.829	19.944	2.549	0.535
1006.000	577.288	80.014	19.994	103.828	19.946	2.413	0.539
1008.000	578.306	80.015	19.991	103.817	19.946	2.392	0.533
1010.000	579.327	80.011	19.995	103.813	19.950	2.080	0.478
1012.000	580.343	80.012	19.996	103.809	19.952	1.943	0.501
1014.000	581.367	80.009	19.997	103.817	19.948	2.257	0.530
1016.000	582.388	80.014	19.994	103.815	19.948	2.268	0.539
1018.000	583.427	80.010	19.990	103.811	19.947	2.297	0.534
1020.001	584.393	80.009	19.989	103.821	19.947	2.324	0.500
1022.000	585.465	80.020	19.992	103.814	19.950	2.096	0.536
1024.001	586.473	80.015	19.990	103.819	19.945	2.460	0.521
1026.001	587.445	80.013	19.996	103.817	19.943	2.582	0.495
1028.000	588.496	80.013	19.993	103.820	19.943	2.563	0.509
1030.000	589.501	80.013	19.991	103.820	19.945	2.456	0.477
1032.000	590.543	80.014	19.993	103.817	19.944	2.526	0.505
1034.000	591.555	80.014	19.997	103.821	19.943	2.601	0.599
1036.000	592.569	80.014	19.997	103.816	19.945	2.462	0.479
1038.000	593.536	80.015	19.994	103.819	19.948	2.245	0.508
1040.000	594.641	80.016	19.996	103.824	19.950	2.086	0.554
1042.000	595.592	80.015	19.993	103.823	19.946	2.394	0.535
1044.000	596.639	80.012	19.996	103.821	19.948	2.270	0.489
1046.000	597.622	80.014	19.992	103.817	19.946	2.363	0.483
1048.000	598.629	80.012	19.991	103.824	19.946	2.400	0.510
1050.000	599.617	80.015	19.993	103.824	19.945	2.429	0.434
1052.000	600.673	80.014	19.995	103.821	19.946	2.379	0.554
1054.000	601.711	80.013	19.993	103.824	19.945	2.449	0.546
1056.000	602.685	80.015	19.995	103.823	19.950	2.096	0.486
1058.000	603.681	80.011	19.994	103.825	19.947	2.340	0.499
1060.001	604.690	80.012	19.994	103.824	19.943	2.602	0.516
1062.001	605.750	80.011	19.993	103.825	19.947	2.286	0.513
1064.000	606.708	80.013	19.995	103.824	19.946	2.346	0.481
1066.000	607.685	80.011	19.999	103.826	19.952	1.943	0.478
1068.000	608.716	80.011	19.996	103.826	19.950	2.115	0.486
1070.000	609.718	80.013	19.996	103.827	19.948	2.251	0.501
1072.000	610.721	80.010	19.996	103.820	19.949	2.162	0.502
1074.001	611.679	80.012	19.994	103.822	19.949	2.146	0.472
1076.000	612.727	80.010	19.995	103.816	19.942	2.667	0.537
1078.000	613.730	80.011	19.998	103.816	19.944	2.514	0.489
1080.000	614.766	80.015	19.992	103.823	19.944	2.553	0.531
1082.000	615.782	80.012	19.993	103.823	19.944	2.491	0.513
1084.000	616.761	80.011	19.998	103.824	19.944	2.499	0.486
1086.001	617.743	80.013	19.995	103.820	19.944	2.536	0.467
1088.000	618.763	80.013	19.994	103.813	19.944	2.505	0.488
1090.000	619.774	80.013	19.992	103.822	19.945	2.427	0.496
1092.000	620.783	80.016	19.993	103.821	19.945	2.451	0.501
1094.001	621.798	80.016	19.991	103.824	19.943	2.580	0.514
1096.000	622.777	80.014	19.992	103.824	19.946	2.404	0.488
1098.000	623.794	80.013	19.996	103.824	19.942	2.656	0.523
1100.000	624.793	80.018	19.993	103.823	19.943	2.607	0.490
1102.000	625.805	80.013	19.993	103.823	19.943	2.621	0.495
1104.001	626.804	80.013	19.993	103.820	19.943	2.565	0.512
1106.001	627.816	80.013	19.993	103.817	19.937	3.032	0.500
1108.000	628.851	80.014	19.995	103.821	19.939	2.884	0.507
1110.000	629.836	80.015	19.992	103.825	19.945	2.460	0.504
1112.000	630.847	80.014	19.993	103.824	19.942	2.631	0.528
1114.000	631.875	80.014	19.994	103.826	19.938	2.914	0.516
1116.000	632.849	80.014	19.992	103.828	19.938	2.976	0.520
1118.000	633.878	80.014	19.992	103.824	19.942	2.668	0.521
1120.000	634.895	80.010	19.992	103.823	19.942	2.687	0.498
1122.000	635.891	80.012	19.993	103.824	19.942	2.683	0.488
1124.000	636.980	80.016	19.995	103.829	19.943	2.605	0.520
1126.001	637.980	80.012	19.994	103.826	19.944	2.518	0.496
1128.001	639.043	80.012	19.989	103.829	19.944	2.524	0.494
1130.000	640.035	80.015	19.990	103.830	19.939	2.863	0.532
1132.000	641.055	80.013	19.993	103.827	19.938	2.971	0.521
1134.000	642.072	80.011	19.994	103.819	19.942	2.692	0.514
1136.000	643.101	80.012	19.992	103.810	19.941	2.726	0.522
1138.000	644.104	80.013	19.995	103.825	19.940	2.776	0.489
1140.000	645.063	80.009	20.000	103.824	19.943	2.613	0.464
1142.000	646.034	80.015	19.994	103.817	19.939	2.852	0.450
1144.000	647.039	80.013	19.997	103.812	19.939	2.850	0.478
1146.000	648.064	80.012	19.995	103.817	19.938	2.945	0.513
1148.000	649.056	80.011	19.993	103.821	19.942	2.648	0.500
1150.000	650.070	80.012	19.995	103.816	19.941	2.728	0.511
1152.001	651.053	80.013	19.994	103.816	19.944	2.549	0.517
1154.000	652.038	80.012	19.994	103.824	19.943	2.580	0.481
1156.000	653.082	80.013	19.993	103.823	19.945	2.416	0.499
1158.001	654.062	80.012	19.993	103.824	19.944	2.545	0.490
1160.000	655.050	80.012	19.993	103.822	19.944	2.487	0.514
1162.000	656.089	80.012	19.995	103.824	19.939	2.852	0.515
1164.000	657.088	80.010	19.995	103.824	19.940	2.770	0.534
1166.000	658.100	80.010	19.996	103.821	19.938	2.945	0.529
1168.000	659.094	80.012	19.994	103.824	19.942	2.648	0.501
1170.001	660.066	80.012	19.996	103.825	19.939	2.883	0.488
1172.000	661.009	80.013	19.994	103.824	19.939	2.883	0.436
1174.000	662.024	80.013	19.995	103.824	19.940	2.795	0.496
1176.000	663.021	80.012	19.996	103.825	19.939	2.865	0.511
1178.000	664.030	80.013	19.995	103.826	19.938	2.912	0.490
1180.000	664.983	80.014	19.994	103.825	19.938	2.923	0.498
1182.000	665.993	80.014	19.994	103.826	19.941	2.722	0.488
1184.000	666.974	80.015	19.993	103.825	19.940	2.811	0.508
1186.001	667.970	80.014	19.994	103.826	19.942	2.669	0.491
1188.000	668.962	80.013	19.994	103.826	19.941	2.761	0.500
1190.000	669.919	80.014	19.993	103.828	19.943	2.608	0.498
1192.001	670.912	80.013	19.993	103.827	19.940	2.815	0.487
1194.000	671.850	80.014	19.993	103.827	19.937	3.036	0.483
1196.000	672.828	80.012	19.993	103.828	19.939	2.842	0.482
1198.000	673.851	80.013	19.993	103.825	19.941	2.733	0.502
1200.000	674.871	80.015	19.994	103.829	19.940	2.805	0.525
1202.000	675.865	80.015	19.993	103.829	19.941	2.701	0.493
1204.000	676.857	80.015	19.993	103.828	19.942	2.631	0.486
1206.000	677.850	80.015	19.993	103.822	19.944	2.514	0.455
1208.000	678.838	80.014	19.994	103.816	19.940	2.792	0.525
1210.000	679.852	80.014	19.993	103.824	19.942	2.687	0.529
1212.001	680.899	80.014	19.993	103.833	19.937	3.007	0.555
1214.001	681.934	80.014	19.994	103.826	19.938	2.925	0.531
1216.000	682.982	80.011	19.994	103.826	19.940	2.805	0.523
1218.000	684.055	80.013	19.992	103.824	19.940	2.825	0.519
1220.001	685.118	80.012	19.997	103.827	19.941	2.706	0.549
1222.000	686.227	80.013	19.994	103.829	19.942	2.687	0.550
1224.000	687.355	80.013	19.992	103.827	19.944	2.497	0.577
1226.000	688.474	80.012	19.993	103.826	19.941	2.751	0.564
1228.000	689.570	80.011	19.994	103.830	19.940	2.815	0.579
1230.000	690.720	80.012	19.993	103.831	19.940	2.809	0.572
1232.001	691.859	80.013	19.994	103.828	19.939	2.865	0.555
1234.001	693.055	80.012	19.994	103.827	19.943	2.615	0.587
1236.000	694.202	80.010	19.993	103.844	19.941	2.757	0.575
1238.000	695.341	80.012	19.995	103.834	19.943	2.592	0.591
1240.000	696.468	80.013	19.995	103.829	19.943	2.625	0.536
1242.001	697.602	80.013	19.995	103.826	19.941	2.702	0.578
1244.000	698.771	80.012	19.994	103.828	19.941	2.751	0.585
1246.000	699.902	80.011	19.995	103.826	19.937	2.987	0.571
1248.000	700.974	80.012	19.995	103.825	19.940	2.807	0.561
1250.000	702.109	80.010	19.994	103.828	19.941	2.718	0.554
1252.000	703.219	80.013	19.995	103.829	19.941	2.724	0.577
1254.000	704.338	80.012	19.994	103.829	19.943	2.600	0.563
1256.000	705.392	80.012	19.994	103.830	19.940	2.782	0.547
1258.000	706.525	80.013	19.994	103.828	19.942	2.683	0.536
1260.001	707.594	80.012	19.994	103.825	19.938	2.979	0.551
1262.001	708.683	80.012	19.994	103.826	19.940	2.830	0.540
1264.000	709.766	80.015	19.995	103.824	19.945	2.466	0.541
1266.000	710.876	80.013	19.994	103.829	19.940	2.770	0.569
1268.000	711.954	80.013	19.995	103.820	19.943	2.595	0.533
1270.000	713.007	80.014	19.995	103.823	19.939	2.867	0.507
1272.000	714.129	80.013	19.995	103.824	19.941	2.704	0.550
1274.001	715.215	80.013	19.995	103.832	19.941	2.721	0.536
1276.000	716.363	80.012	19.996	103.822	19.942	2.657	0.583
1278.000	717.519	80.014	19.995	103.809	19.944	2.497	0.600
1280.000	718.593	80.018	19.996	103.822	19.944	2.518	0.560
1282.000	719.707	80.014	19.994	103.832	19.941	2.725	0.556
1284.000	720.747	80.015	19.993	103.824	19.946	2.398	0.541
1286.000	721.877	80.015	19.993	103.802	19.946	2.351	0.563
1288.000	722.982	80.014	19.994	103.806	19.943	2.595	0.544
1290.000	724.128	80.015	19.993	103.807	19.943	2.596	0.578
1292.000	725.189	80.016	19.993	103.801	19.945	2.435	0.527
1294.000	726.239	80.014	19.994	103.796	19.942	2.632	0.527
1296.000	727.321	80.014	19.993	103.793	19.943	2.619	0.566
1298.000	728.402	80.013	19.994	103.800	19.943	2.605	0.534
1300.000	729.454	80.012	19.995	103.808	19.943	2.609	0.523
1302.000	730.548	80.012	19.993	103.817	19.943	2.613	0.542
1304.001	731.584	80.011	19.993	103.815	19.942	2.688	0.545
1306.000	732.689	80.012	19.993	103.821	19.943	2.568	0.533
1308.000	733.704	80.012	19.994	103.820	19.943	2.582	0.520
1310.001	734.748	80.012	19.994	103.815	19.941	2.739	0.531
1312.000	735.776	80.011	19.993	103.817	19.942	2.669	0.512
1314.000	736.817	80.011	19.993	103.815	19.942	2.648	0.515
1316.000	737.839	80.012	19.993	103.812	19.951	2.057	0.513
1318.000	738.935	80.012	19.993	103.796	19.947	2.332	0.559
1320.000	739.972	80.012	19.993	103.803	19.947	2.301	0.563
1322.000	741.004	80.013	19.993	103.819	19.946	2.409	0.507
1324.001	742.090	80.013	19.993	103.808	19.941	2.723	0.544
1326.000	743.144	80.012	19.993	103.797	19.942	2.663	0.509
1326.500	743.367	80.012	19.993	103.801	19.941	2.737	0.518