File: 01_Data/Bean_Bag_Chair_Beads/MCC/Bean_Bag_Chair_Beads_MCC_30K_min_220315_R2.txt
Sample ID:	C:\MCC\MCC Cal\Test\Bean_Bag_Chair_Beads_MCC_30K_min_220315_R2.txt
Sample Weight (mg):	4.73
Heating Rate (C/s):	0.5
Combustor Temp (C):	900
N2 Flow Rate (cc/min):	80
O2 Flow Rate (cc/min):	20
Calibration File:	C:\MCC\MCC Cal\Coeff1 JN10440_30_210304.txt.txt
T Correction Coefficients:	0	1.024463	0
Time Shift (s):	14
*
Time (s)	Temperature (C)	N2 flow rate (cc/min)	O2 flow rate (cc/min)	Flow Rate (cc/min)	Oxygen (%)	HRR (W/g)	Heating rate (C/s)
0.000	108.832	80.010	19.995	103.703	19.974	0.585	0.009
2.000	108.803	80.008	19.993	103.709	19.978	0.333	-0.023
4.000	108.837	80.010	19.993	103.706	19.974	0.637	0.010
6.000	108.844	80.010	19.993	103.705	19.975	0.539	0.004
8.000	108.835	80.011	19.994	103.708	19.979	0.248	0.003
10.000	108.771	80.011	19.994	103.735	19.974	0.611	-0.025
12.001	108.791	80.012	19.994	103.770	19.969	0.955	-0.002
14.000	108.851	80.012	19.992	103.805	19.963	1.374	0.018
16.000	108.934	80.011	19.994	103.838	19.956	1.854	0.079
18.000	109.006	80.012	19.994	103.856	19.956	1.856	0.047
20.000	109.175	80.011	19.993	103.851	19.950	2.229	0.064
22.000	109.342	80.011	19.994	103.859	19.947	2.471	0.070
24.000	109.526	80.010	19.993	103.871	19.943	2.729	0.107
26.000	109.736	80.012	19.994	103.891	19.945	2.567	0.101
28.000	110.002	80.012	19.993	103.904	19.944	2.690	0.155
30.000	110.261	80.012	19.994	103.906	19.941	2.834	0.134
32.000	110.574	80.012	19.993	103.910	19.938	3.105	0.134
34.000	110.931	80.013	19.993	103.905	19.935	3.274	0.188
36.000	111.254	80.012	19.993	103.924	19.936	3.224	0.172
38.001	111.598	80.013	19.993	103.933	19.931	3.549	0.176
40.000	112.043	80.013	19.993	103.943	19.929	3.725	0.204
42.000	112.464	80.013	19.993	103.943	19.930	3.624	0.224
44.000	112.921	80.012	19.993	103.944	19.929	3.658	0.239
46.000	113.368	80.011	19.993	103.949	19.929	3.660	0.212
48.000	113.929	80.009	19.993	103.961	19.929	3.699	0.292
50.000	114.454	80.010	19.994	103.966	19.926	3.890	0.287
52.000	115.005	80.011	19.994	103.970	19.925	3.942	0.259
54.001	115.577	80.009	19.993	103.983	19.925	3.987	0.263
56.000	116.206	80.010	19.994	103.982	19.922	4.194	0.291
58.000	116.867	80.008	19.996	103.983	19.924	4.022	0.292
60.000	117.550	80.009	19.994	103.985	19.924	4.011	0.350
62.000	118.205	80.011	19.994	103.981	19.924	4.053	0.367
64.000	118.928	80.011	19.994	103.983	19.924	4.055	0.358
66.000	119.560	80.010	19.993	103.982	19.922	4.163	0.332
68.001	120.367	80.011	19.994	103.981	19.926	3.920	0.399
70.000	121.062	80.010	19.994	103.977	19.924	4.016	0.385
72.000	121.812	80.010	19.993	103.971	19.923	4.124	0.359
74.001	122.599	80.009	19.994	103.967	19.923	4.073	0.388
76.000	123.373	80.010	19.994	103.972	19.927	3.816	0.405
78.000	124.219	80.010	19.993	103.957	19.927	3.856	0.436
80.001	125.006	80.010	19.995	103.961	19.927	3.824	0.404
82.000	125.777	80.009	19.994	103.959	19.926	3.869	0.340
84.000	126.672	80.010	19.994	103.953	19.928	3.787	0.424
86.001	127.496	80.010	19.994	103.960	19.926	3.893	0.459
88.000	128.300	80.011	19.994	103.973	19.925	3.983	0.430
90.001	129.195	80.011	19.995	103.979	19.922	4.144	0.425
92.000	130.055	80.010	19.994	103.970	19.924	4.046	0.435
94.000	130.925	80.013	19.994	103.975	19.923	4.095	0.423
96.000	131.804	80.013	19.995	103.973	19.922	4.166	0.425
98.000	132.706	80.014	19.994	103.974	19.920	4.319	0.440
100.000	133.604	80.013	19.994	103.981	19.920	4.304	0.459
102.000	134.507	80.011	19.994	103.981	19.922	4.167	0.432
104.000	135.442	80.013	19.993	103.977	19.922	4.195	0.468
106.000	136.356	80.012	19.993	103.979	19.923	4.111	0.464
108.001	137.324	80.011	19.994	103.978	19.922	4.154	0.488
110.001	138.246	80.012	19.994	103.980	19.925	3.992	0.476
112.000	139.140	80.012	19.993	103.973	19.921	4.260	0.448
114.000	140.118	80.010	19.993	103.965	19.919	4.405	0.485
116.001	141.057	80.012	19.992	103.958	19.921	4.218	0.513
118.000	142.030	80.013	19.994	103.955	19.920	4.328	0.472
120.000	142.984	80.012	19.994	103.973	19.920	4.322	0.465
122.001	143.975	80.012	19.992	103.966	19.917	4.484	0.477
124.000	144.981	80.013	19.993	103.972	19.921	4.261	0.510
126.000	145.951	80.011	19.992	103.978	19.921	4.274	0.500
128.000	146.871	80.011	19.993	103.974	19.919	4.389	0.461
130.000	147.872	80.012	19.994	103.971	19.917	4.502	0.479
132.000	148.862	80.013	19.994	103.968	19.918	4.477	0.512
134.000	149.859	80.011	19.993	103.966	19.918	4.413	0.524
136.000	150.875	80.011	19.993	103.978	19.915	4.633	0.509
138.000	151.862	80.011	19.993	103.974	19.917	4.485	0.495
140.000	152.876	80.011	19.993	103.955	19.916	4.566	0.533
142.000	153.833	80.011	19.993	103.955	19.918	4.441	0.474
144.000	154.824	80.011	19.993	103.958	19.915	4.638	0.484
146.000	155.759	80.011	19.994	103.942	19.917	4.506	0.450
148.000	156.777	80.011	19.993	103.943	19.916	4.606	0.492
150.000	157.756	80.011	19.993	103.942	19.915	4.681	0.479
152.000	158.770	80.011	19.993	103.947	19.916	4.588	0.505
154.000	159.761	80.011	19.993	103.949	19.917	4.530	0.483
156.000	160.789	80.012	19.994	103.941	19.914	4.703	0.490
158.000	161.787	80.010	19.993	103.942	19.916	4.573	0.497
160.000	162.744	80.011	19.994	103.938	19.917	4.494	0.510
162.000	163.732	80.009	19.994	103.948	19.917	4.500	0.519
164.000	164.737	80.010	19.994	103.945	19.918	4.468	0.493
166.000	165.743	80.009	19.994	103.936	19.916	4.571	0.502
168.000	166.777	80.009	19.995	103.943	19.916	4.612	0.508
170.000	167.769	80.011	19.994	103.941	19.917	4.485	0.468
172.000	168.782	80.011	19.994	103.937	19.912	4.884	0.483
174.000	169.779	80.010	19.995	103.923	19.917	4.517	0.500
176.000	170.776	80.011	19.994	103.931	19.920	4.280	0.491
178.000	171.804	80.012	19.993	103.938	19.919	4.389	0.532
180.000	172.747	80.012	19.994	103.925	19.920	4.322	0.458
182.000	173.787	80.012	19.994	103.936	19.917	4.489	0.503
184.000	174.746	80.011	19.995	103.942	19.918	4.428	0.493
186.000	175.730	80.010	19.993	103.943	19.919	4.395	0.473
188.000	176.762	80.011	19.995	103.928	19.917	4.500	0.505
190.000	177.756	80.011	19.994	103.923	19.918	4.460	0.482
192.000	178.776	80.011	19.995	103.938	19.920	4.301	0.498
194.000	179.731	80.011	19.995	103.917	19.920	4.323	0.492
196.000	180.776	80.010	19.994	103.923	19.922	4.162	0.490
198.000	181.743	80.012	19.995	103.940	19.923	4.107	0.530
200.000	182.781	80.012	19.993	103.922	19.923	4.096	0.522
202.000	183.693	80.013	19.992	103.912	19.917	4.500	0.492
204.000	184.724	80.013	19.993	103.920	19.916	4.566	0.504
206.000	185.746	80.014	19.993	103.929	19.920	4.322	0.527
208.000	186.723	80.014	19.993	103.911	19.918	4.413	0.506
210.000	187.762	80.012	19.993	103.908	19.921	4.253	0.522
212.000	188.765	80.013	19.993	103.931	19.920	4.281	0.509
214.000	189.736	80.012	19.993	103.928	19.920	4.282	0.499
216.000	190.681	80.011	19.994	103.914	19.919	4.378	0.490
218.000	191.642	80.010	19.992	103.920	19.923	4.103	0.465
220.000	192.667	80.011	19.993	103.913	19.921	4.222	0.492
222.000	193.618	80.012	19.995	103.909	19.920	4.290	0.482
224.000	194.601	80.010	19.994	103.913	19.918	4.425	0.493
226.000	195.561	80.011	19.993	103.905	19.917	4.482	0.450
228.000	196.525	80.010	19.994	103.913	19.917	4.510	0.454
230.000	197.547	80.013	19.994	103.897	19.915	4.637	0.488
232.000	198.565	80.011	19.994	103.905	19.917	4.500	0.518
234.000	199.513	80.011	19.992	103.914	19.918	4.418	0.492
236.000	200.482	80.012	19.993	103.915	19.915	4.614	0.429
238.000	201.447	80.011	19.993	103.906	19.917	4.510	0.505
240.000	202.413	80.010	19.993	103.906	19.913	4.784	0.450
242.000	203.402	80.010	19.994	103.905	19.916	4.571	0.499
244.000	204.339	80.011	19.993	103.906	19.915	4.665	0.459
246.000	205.325	80.009	19.992	103.907	19.920	4.316	0.491
248.000	206.268	80.011	19.995	103.907	19.918	4.475	0.460
250.000	207.263	80.009	19.994	103.910	19.919	4.398	0.504
252.000	208.274	80.011	19.994	103.906	19.918	4.426	0.493
254.000	209.303	80.009	19.995	103.907	19.917	4.479	0.522
256.000	210.229	80.009	19.994	103.907	19.913	4.777	0.472
258.000	211.230	80.011	19.994	103.912	19.913	4.810	0.497
260.000	212.199	80.010	19.994	103.908	19.914	4.691	0.521
262.000	213.170	80.010	19.993	103.887	19.914	4.748	0.443
264.000	214.184	80.012	19.994	103.845	19.912	4.871	0.474
266.000	215.108	80.012	19.995	103.951	19.916	4.576	0.468
268.000	216.109	80.013	19.994	103.927	19.915	4.664	0.474
270.000	217.056	80.012	19.994	103.901	19.915	4.653	0.471
272.000	218.042	80.012	19.994	103.901	19.914	4.745	0.519
274.000	218.954	80.013	19.994	103.901	19.910	4.966	0.456
276.000	220.003	80.012	19.994	103.894	19.913	4.784	0.497
278.000	220.950	80.011	19.994	103.896	19.914	4.740	0.492
280.000	221.924	80.011	19.995	103.902	19.911	4.944	0.481
282.000	222.953	80.013	19.994	103.903	19.908	5.147	0.497
284.000	223.949	80.012	19.995	103.897	19.908	5.151	0.491
286.000	224.873	80.012	19.995	103.893	19.907	5.214	0.462
288.000	225.872	80.014	19.994	103.894	19.910	5.011	0.480
290.000	226.835	80.012	19.995	103.889	19.911	4.923	0.499
292.000	227.800	80.013	19.994	103.899	19.905	5.304	0.514
294.000	228.785	80.013	19.994	103.896	19.911	4.890	0.446
296.000	229.811	80.012	19.995	103.892	19.910	4.984	0.514
298.000	230.824	80.012	19.994	103.900	19.909	5.087	0.527
300.000	231.755	80.011	19.995	103.887	19.908	5.119	0.469
302.000	232.731	80.011	19.993	103.896	19.906	5.237	0.498
304.000	233.967	80.011	19.993	103.901	19.908	5.158	0.483
306.000	234.625	80.009	19.993	103.891	19.902	5.542	0.487
308.000	235.800	80.011	19.993	103.883	19.904	5.416	0.349
310.000	236.756	80.010	19.994	103.878	19.902	5.561	0.456
312.000	237.780	80.009	19.993	103.888	19.902	5.563	0.524
314.000	238.763	80.011	19.995	103.890	19.907	5.194	0.500
316.000	239.675	80.010	19.994	103.886	19.908	5.115	0.430
318.000	240.672	80.011	19.992	103.894	19.908	5.106	0.476
320.000	241.662	80.011	19.994	103.888	19.909	5.091	0.476
322.000	242.660	80.011	19.992	103.901	19.907	5.171	0.495
324.000	243.620	80.010	19.994	103.901	19.909	5.085	0.484
326.000	244.612	80.011	19.992	103.903	19.903	5.492	0.480
328.000	245.681	80.010	19.994	103.890	19.905	5.353	0.523
330.000	246.678	80.010	19.994	103.898	19.907	5.212	0.504
332.000	247.695	80.011	19.993	103.890	19.906	5.294	0.500
334.000	248.691	80.011	19.994	103.877	19.904	5.377	0.471
336.000	249.753	80.010	19.993	103.879	19.905	5.356	0.558
338.000	250.738	80.011	19.993	103.907	19.902	5.549	0.496
340.000	251.776	80.011	19.994	103.890	19.904	5.430	0.508
342.000	252.784	80.011	19.993	103.880	19.902	5.518	0.513
344.000	253.761	80.013	19.994	103.878	19.900	5.674	0.498
346.000	254.782	80.013	19.993	103.876	19.898	5.801	0.529
348.000	255.806	80.014	19.993	103.888	19.900	5.682	0.501
350.000	256.758	80.015	19.994	103.887	19.899	5.714	0.497
352.000	257.783	80.013	19.993	103.890	19.903	5.492	0.488
354.000	258.795	80.012	19.995	103.882	19.904	5.378	0.507
356.000	259.811	80.013	19.994	103.868	19.902	5.519	0.507
358.000	260.792	80.012	19.994	103.888	19.903	5.492	0.525
360.000	261.766	80.013	19.994	103.885	19.904	5.379	0.487
362.000	262.792	80.013	19.994	103.893	19.901	5.589	0.506
364.000	263.774	80.011	19.993	103.889	19.900	5.657	0.499
366.000	264.753	80.012	19.993	103.881	19.897	5.855	0.498
368.000	265.824	80.012	19.995	103.883	19.897	5.871	0.496
370.000	266.826	80.011	19.994	103.876	19.897	5.879	0.512
372.000	267.806	80.012	19.994	103.888	19.901	5.595	0.485
374.000	268.829	80.014	19.992	103.881	19.898	5.810	0.506
376.000	269.879	80.013	19.993	103.873	19.903	5.491	0.515
378.000	270.863	80.013	19.993	103.873	19.898	5.845	0.537
380.000	271.872	80.012	19.994	103.875	19.896	5.944	0.514
382.000	272.884	80.011	19.994	103.869	19.896	5.944	0.502
384.000	273.853	80.010	19.995	103.871	19.897	5.851	0.479
386.000	274.902	80.011	19.995	103.866	19.893	6.131	0.530
388.000	275.887	80.009	19.995	103.870	19.897	5.905	0.468
390.000	276.896	80.010	19.995	103.868	19.888	6.516	0.519
392.000	277.844	80.010	19.995	103.868	19.890	6.330	0.506
394.000	278.824	80.010	19.995	103.871	19.891	6.283	0.471
396.000	279.862	80.010	19.993	103.883	19.893	6.150	0.520
398.000	280.873	80.011	19.994	103.880	19.890	6.384	0.521
400.000	281.837	80.011	19.995	103.866	19.889	6.458	0.479
402.000	282.824	80.011	19.993	103.865	19.889	6.417	0.489
404.000	283.814	80.011	19.994	103.868	19.886	6.608	0.479
406.000	284.787	80.012	19.994	103.864	19.888	6.522	0.497
408.000	285.802	80.011	19.993	103.866	19.885	6.701	0.493
410.000	286.786	80.011	19.993	103.866	19.883	6.831	0.498
412.000	287.752	80.011	19.993	103.866	19.884	6.779	0.469
414.000	288.803	80.011	19.994	103.867	19.883	6.872	0.492
416.000	289.761	80.010	19.994	103.866	19.877	7.252	0.488
418.000	290.752	80.011	19.994	103.866	19.877	7.217	0.507
420.000	291.750	80.011	19.994	103.867	19.873	7.519	0.512
422.000	292.769	80.011	19.995	103.867	19.873	7.512	0.491
424.000	293.742	80.011	19.993	103.867	19.873	7.519	0.487
426.000	294.756	80.010	19.992	103.866	19.873	7.512	0.523
428.000	295.715	80.013	19.994	103.870	19.870	7.709	0.469
430.000	296.664	80.012	19.994	103.865	19.870	7.750	0.468
432.000	297.626	80.013	19.994	103.867	19.868	7.898	0.483
434.000	298.648	80.012	19.994	103.867	19.866	8.000	0.474
436.000	299.591	80.013	19.994	103.865	19.855	8.763	0.511
438.000	300.601	80.013	19.995	103.865	19.859	8.454	0.468
440.000	301.570	80.013	19.993	103.862	19.855	8.765	0.492
442.000	302.553	80.012	19.993	103.868	19.854	8.802	0.524
444.000	303.533	80.012	19.994	103.870	19.853	8.912	0.473
446.000	304.530	80.013	19.993	103.866	19.855	8.783	0.510
448.000	305.530	80.014	19.995	103.874	19.845	9.473	0.500
450.000	306.512	80.011	19.993	103.874	19.844	9.480	0.509
452.000	307.472	80.012	19.994	103.864	19.845	9.475	0.459
454.001	308.482	80.013	19.994	103.864	19.842	9.632	0.489
456.000	309.491	80.013	19.993	103.866	19.840	9.751	0.511
458.000	310.507	80.012	19.994	103.865	19.836	10.077	0.488
460.000	311.490	80.013	19.995	103.867	19.831	10.401	0.467
462.000	312.500	80.013	19.992	103.864	19.830	10.491	0.504
464.000	313.515	80.013	19.993	103.867	19.833	10.246	0.493
466.000	314.551	80.012	19.994	103.867	19.831	10.431	0.494
468.000	315.582	80.012	19.994	103.866	19.823	10.971	0.545
470.000	316.525	80.012	19.993	103.864	19.820	11.156	0.472
472.000	317.565	80.010	19.994	103.865	19.817	11.380	0.511
474.000	318.536	80.011	19.994	103.863	19.813	11.650	0.452
476.000	319.574	80.011	19.994	103.862	19.814	11.578	0.505
478.000	320.587	80.011	19.994	103.862	19.805	12.185	0.529
480.000	321.584	80.012	19.995	103.859	19.805	12.210	0.514
482.000	322.580	80.010	19.994	103.865	19.799	12.575	0.492
484.000	323.554	80.011	19.995	103.865	19.798	12.666	0.505
486.000	324.559	80.010	19.994	103.862	19.790	13.192	0.533
488.000	325.574	80.012	19.995	103.862	19.788	13.319	0.512
490.000	326.595	80.012	19.995	103.862	19.786	13.484	0.533
492.000	327.567	80.012	19.996	103.862	19.779	13.934	0.498
494.000	328.598	80.011	19.995	103.862	19.772	14.426	0.499
496.000	329.599	80.012	19.995	103.863	19.766	14.825	0.534
498.000	330.622	80.012	19.995	103.861	19.764	14.977	0.506
500.000	331.614	80.012	19.994	103.862	19.759	15.322	0.519
502.000	332.598	80.011	19.994	103.858	19.750	15.949	0.480
504.000	333.619	80.012	19.994	103.864	19.748	16.066	0.478
506.000	334.640	80.010	19.994	103.865	19.742	16.519	0.496
508.000	335.648	80.013	19.993	103.868	19.738	16.764	0.512
510.000	336.649	80.012	19.994	103.861	19.731	17.249	0.526
512.000	337.676	80.012	19.993	103.869	19.727	17.549	0.511
514.000	338.669	80.013	19.994	103.873	19.719	18.097	0.506
516.000	339.693	80.013	19.994	103.868	19.713	18.484	0.513
518.000	340.695	80.013	19.994	103.865	19.707	18.908	0.511
520.000	341.669	80.012	19.993	103.865	19.696	19.667	0.496
522.000	342.679	80.012	19.993	103.863	19.691	20.018	0.501
524.000	343.676	80.013	19.994	103.860	19.689	20.106	0.480
526.000	344.624	80.013	19.994	103.868	19.671	21.377	0.469
528.000	345.660	80.012	19.993	103.868	19.665	21.745	0.483
530.000	346.674	80.013	19.993	103.857	19.655	22.428	0.490
532.000	347.688	80.013	19.993	103.862	19.643	23.289	0.497
534.000	348.670	80.012	19.992	103.867	19.637	23.718	0.488
536.000	349.685	80.013	19.993	103.875	19.624	24.578	0.529
538.000	350.719	80.013	19.993	103.865	19.608	25.646	0.527
540.000	351.677	80.014	19.992	103.863	19.594	26.620	0.489
542.000	352.684	80.015	19.993	103.864	19.584	27.318	0.509
544.000	353.688	80.014	19.994	103.863	19.565	28.621	0.524
546.000	354.710	80.013	19.992	103.863	19.551	29.594	0.499
548.000	355.679	80.013	19.994	103.864	19.536	30.596	0.487
550.000	356.707	80.014	19.993	103.867	19.522	31.599	0.499
552.000	357.694	80.013	19.993	103.873	19.500	33.059	0.496
554.000	358.744	80.010	19.993	103.873	19.481	34.371	0.522
556.000	359.695	80.013	19.994	103.866	19.464	35.529	0.480
558.000	360.749	80.011	19.994	103.868	19.444	36.910	0.529
560.000	361.757	80.010	19.993	103.860	19.419	38.624	0.510
562.000	362.759	80.012	19.994	103.863	19.394	40.326	0.507
564.000	363.764	80.012	19.994	103.865	19.373	41.777	0.509
566.000	364.732	80.013	19.994	103.863	19.349	43.458	0.484
568.000	365.741	80.012	19.993	103.865	19.314	45.849	0.489
570.000	366.750	80.010	19.994	103.884	19.290	47.473	0.521
572.000	367.802	80.012	19.993	103.894	19.259	49.639	0.524
574.000	368.737	80.012	19.994	103.899	19.231	51.497	0.494
576.000	369.806	80.012	19.994	103.900	19.196	53.946	0.520
578.000	370.798	80.011	19.994	103.897	19.164	56.123	0.471
580.000	371.802	80.011	19.994	103.902	19.128	58.559	0.473
582.000	372.816	80.011	19.994	103.902	19.090	61.207	0.523
584.000	373.820	80.011	19.994	103.903	19.043	64.414	0.519
586.000	374.849	80.011	19.995	103.905	19.002	67.229	0.487
588.000	375.916	80.011	19.995	103.903	18.951	70.747	0.503
590.000	376.940	80.011	19.995	103.902	18.907	73.764	0.552
592.000	377.896	80.010	19.996	103.901	18.849	77.725	0.497
594.000	378.909	80.010	19.995	103.905	18.797	81.318	0.496
596.000	379.950	80.010	19.995	103.904	18.739	85.279	0.517
598.000	380.962	80.012	19.994	103.915	18.678	89.484	0.515
600.000	381.936	80.013	19.995	103.925	18.618	93.595	0.502
602.000	382.969	80.013	19.993	103.912	18.553	98.008	0.514
604.000	383.971	80.013	19.994	103.935	18.475	103.391	0.484
606.000	384.972	80.012	19.993	103.931	18.401	108.493	0.530
608.000	385.979	80.012	19.994	103.942	18.324	113.726	0.505
610.000	387.001	80.014	19.994	103.937	18.251	118.736	0.494
612.000	388.026	80.012	19.994	103.938	18.174	124.043	0.526
614.000	389.041	80.013	19.994	103.931	18.098	129.293	0.505
616.000	390.063	80.014	19.994	103.933	18.023	134.395	0.538
618.000	391.039	80.013	19.992	103.951	17.943	139.921	0.518
620.000	392.039	80.013	19.994	103.937	17.852	146.176	0.528
622.001	393.052	80.012	19.993	103.972	17.751	153.185	0.513
624.000	394.117	80.014	19.994	104.002	17.649	160.195	0.504
626.000	395.127	80.013	19.992	103.987	17.553	166.792	0.499
628.000	396.116	80.014	19.993	103.979	17.441	174.200	0.502
630.000	397.117	80.015	19.992	103.965	17.315	182.766	0.488
632.000	398.109	80.013	19.993	104.013	17.133	195.345	0.529
634.000	399.119	80.014	19.993	104.086	16.917	210.311	0.508
636.000	400.129	80.014	19.994	104.075	16.691	226.219	0.509
638.000	401.125	80.010	19.993	103.996	16.562	235.028	0.516
640.000	402.150	80.013	19.993	103.864	16.456	242.286	0.525
642.000	403.071	80.013	19.993	103.874	16.339	250.027	0.478
644.000	404.165	80.013	19.993	103.944	16.207	258.808	0.595
646.000	405.089	80.011	19.993	104.115	16.043	270.081	0.513
648.000	406.065	80.012	19.995	104.172	15.791	287.918	0.484
650.000	407.063	80.011	19.994	104.158	15.594	301.637	0.490
652.000	408.090	80.012	19.994	104.080	15.447	311.462	0.513
654.000	409.063	80.012	19.994	103.963	15.313	320.517	0.480
656.000	410.021	80.011	19.996	103.923	15.165	330.756	0.489
658.000	411.027	80.010	19.994	104.028	15.003	341.964	0.487
660.000	411.974	80.011	19.995	104.193	14.843	352.943	0.482
662.000	412.936	80.011	19.993	104.162	14.700	362.476	0.484
664.000	413.876	80.011	19.993	104.079	14.539	373.680	0.477
666.000	414.824	80.011	19.992	104.066	14.397	384.071	0.462
668.000	415.770	80.011	19.994	104.105	14.243	394.284	0.481
670.000	416.739	80.012	19.994	104.117	14.174	398.209	0.501
672.000	417.727	80.011	19.994	104.060	14.114	401.828	0.475
674.001	418.688	80.011	19.995	104.029	13.889	418.316	0.479
676.000	419.689	80.013	19.996	104.203	13.718	430.942	0.470
678.000	420.640	80.010	19.994	104.236	13.701	431.951	0.469
680.000	421.643	80.010	19.995	104.058	13.722	430.173	0.490
682.000	422.585	80.012	19.994	103.821	13.758	427.643	0.488
684.000	423.573	80.013	19.994	103.879	13.816	423.526	0.468
686.000	424.546	80.013	19.996	104.261	13.863	420.536	0.489
688.000	425.550	80.013	19.994	104.288	13.940	415.388	0.508
690.000	426.528	80.013	19.994	104.170	14.052	408.084	0.484
692.000	427.528	80.014	19.994	104.162	14.198	397.590	0.474
694.000	428.565	80.011	19.995	104.131	14.381	384.298	0.507
696.000	429.539	80.016	19.995	104.130	14.570	371.090	0.485
698.000	430.583	80.014	19.994	104.197	14.653	366.166	0.523
700.000	431.589	80.014	19.994	104.309	14.796	356.841	0.519
702.000	432.612	80.013	19.993	104.261	15.050	339.040	0.500
704.000	433.620	80.016	19.993	104.091	15.342	318.673	0.527
706.000	434.672	80.013	19.992	103.966	15.634	298.560	0.505
708.000	435.696	80.014	19.993	103.996	15.924	278.614	0.504
710.000	436.688	80.016	19.993	104.267	16.218	258.444	0.485
712.000	437.755	80.017	19.993	104.252	16.497	239.222	0.527
714.000	438.797	80.016	19.994	104.135	16.774	220.210	0.516
716.000	439.839	80.012	19.994	104.087	17.051	201.159	0.550
718.000	440.858	80.013	19.993	104.064	17.309	183.447	0.520
720.000	441.867	80.012	19.994	104.063	17.560	166.194	0.520
722.000	442.934	80.015	19.992	104.061	17.791	150.346	0.539
724.000	443.976	80.012	19.993	104.044	18.017	134.804	0.509
726.000	444.998	80.011	19.992	104.038	18.215	121.211	0.530
728.000	446.064	80.010	19.993	104.029	18.398	108.705	0.529
730.000	447.054	80.013	19.993	104.011	18.569	96.947	0.494
732.000	448.115	80.013	19.994	103.989	18.718	86.691	0.514
734.000	449.106	80.013	19.993	103.981	18.852	77.503	0.483
736.000	450.185	80.013	19.992	103.957	18.973	69.238	0.544
738.000	451.233	80.012	19.994	103.953	19.076	62.160	0.516
740.000	452.250	80.014	19.994	103.950	19.166	55.960	0.486
742.000	453.280	80.012	19.993	103.942	19.255	49.894	0.512
744.000	454.300	80.013	19.993	103.930	19.325	45.048	0.531
746.000	455.338	80.014	19.994	103.916	19.384	41.004	0.500
748.000	456.398	80.013	19.992	103.906	19.430	37.879	0.540
750.000	457.410	80.014	19.994	103.889	19.477	34.614	0.511
752.000	458.432	80.014	19.992	103.872	19.522	31.530	0.517
754.000	459.463	80.011	19.993	103.865	19.559	29.035	0.499
756.000	460.502	80.015	19.995	103.860	19.589	26.945	0.520
758.000	461.538	80.012	19.995	103.863	19.616	25.120	0.525
760.000	462.548	80.012	19.995	103.847	19.640	23.488	0.519
762.000	463.572	80.013	19.994	103.834	19.668	21.558	0.500
764.000	464.583	80.014	19.995	103.826	19.687	20.276	0.506
766.001	465.589	80.013	19.993	103.823	19.709	18.785	0.504
768.000	466.540	80.016	19.993	103.815	19.722	17.884	0.455
770.000	467.575	80.014	19.994	103.817	19.744	16.382	0.526
772.000	468.569	80.011	19.993	103.805	19.756	15.533	0.519
774.000	469.557	80.008	19.995	103.806	19.773	14.377	0.481
776.000	470.578	80.008	19.994	103.818	19.787	13.419	0.514
778.000	471.608	80.008	19.993	103.819	19.801	12.485	0.506
780.000	472.648	80.011	19.995	103.825	19.817	11.350	0.514
782.000	473.647	80.013	19.993	103.828	19.829	10.507	0.496
784.000	474.638	80.012	19.994	103.833	19.840	9.793	0.510
786.000	475.644	80.012	19.993	103.844	19.847	9.287	0.497
788.000	476.672	80.011	19.995	103.846	19.855	8.745	0.514
790.000	477.667	80.012	19.993	103.838	19.860	8.383	0.462
792.000	478.694	80.013	19.993	103.844	19.865	8.071	0.524
794.001	479.723	80.013	19.995	103.839	19.875	7.406	0.492
796.000	480.743	80.012	19.993	103.832	19.872	7.614	0.503
798.000	481.767	80.015	19.993	103.830	19.872	7.595	0.506
800.000	482.788	80.016	19.993	103.831	19.872	7.617	0.532
802.000	483.805	80.014	19.992	103.840	19.873	7.524	0.504
804.000	484.802	80.013	19.993	103.829	19.872	7.569	0.498
806.000	485.800	80.013	19.995	103.834	19.871	7.655	0.480
808.000	486.833	80.013	19.995	103.835	19.879	7.144	0.492
810.000	487.867	80.012	19.994	103.830	19.876	7.291	0.498
812.000	488.836	80.013	19.993	103.828	19.876	7.306	0.488
814.000	489.889	80.017	19.994	103.827	19.880	7.016	0.528
816.000	490.894	80.013	19.993	103.838	19.875	7.407	0.501
818.000	491.879	80.009	19.994	103.844	19.879	7.095	0.502
820.000	492.914	80.013	19.993	103.828	19.876	7.293	0.521
822.000	493.928	80.010	19.994	103.824	19.875	7.414	0.493
824.000	495.019	80.011	19.993	103.836	19.872	7.566	0.517
826.000	496.038	80.013	19.995	103.834	19.872	7.607	0.500
828.000	497.025	80.012	19.993	103.831	19.873	7.499	0.459
830.000	498.090	80.013	19.993	103.832	19.874	7.480	0.511
832.000	499.125	80.014	19.994	103.831	19.873	7.547	0.515
834.000	500.164	80.014	19.993	103.834	19.875	7.416	0.518
836.000	501.156	80.011	19.992	103.838	19.876	7.343	0.519
838.000	502.201	80.012	19.993	103.842	19.881	6.945	0.516
840.000	503.197	80.012	19.993	103.840	19.877	7.274	0.491
842.000	504.232	80.011	19.993	103.837	19.877	7.261	0.498
844.000	505.247	80.012	19.995	103.837	19.876	7.299	0.506
846.000	506.288	80.007	19.992	103.833	19.878	7.145	0.542
848.000	507.289	80.010	19.994	103.837	19.879	7.130	0.525
850.000	508.323	80.012	19.993	103.836	19.874	7.475	0.529
852.000	509.365	80.012	19.995	103.827	19.873	7.503	0.508
854.000	510.363	80.015	19.993	103.835	19.875	7.369	0.496
856.000	511.391	80.014	19.995	103.831	19.874	7.451	0.532
858.000	512.368	80.010	19.993	103.822	19.879	7.142	0.491
860.000	513.407	80.008	19.995	103.831	19.872	7.617	0.491
862.000	514.438	80.013	19.995	103.825	19.877	7.255	0.538
864.000	515.475	80.010	19.995	103.825	19.874	7.434	0.509
866.001	516.446	80.017	19.994	103.828	19.879	7.129	0.516
868.000	517.451	80.024	19.993	103.828	19.879	7.084	0.500
870.000	518.468	80.000	19.995	103.830	19.875	7.352	0.495
872.000	519.492	80.015	19.993	103.825	19.878	7.207	0.503
874.000	520.507	80.012	19.992	103.828	19.879	7.128	0.521
876.000	521.475	80.016	19.993	103.827	19.877	7.243	0.480
878.000	522.510	80.018	19.992	103.830	19.875	7.368	0.519
880.000	523.523	80.008	19.994	103.828	19.880	7.008	0.511
882.000	524.489	80.017	19.993	103.824	19.874	7.444	0.502
884.000	525.526	80.010	19.995	103.827	19.875	7.374	0.497
886.000	526.552	80.023	19.993	103.835	19.875	7.402	0.485
888.000	527.549	80.014	19.996	103.842	19.877	7.266	0.518
890.000	528.626	80.006	19.995	103.838	19.878	7.204	0.547
892.001	529.654	80.007	19.995	103.827	19.877	7.281	0.504
894.000	530.737	80.013	19.995	103.839	19.874	7.454	0.552
896.000	531.782	80.010	19.995	103.851	19.876	7.335	0.523
898.000	532.847	80.013	19.994	103.831	19.878	7.181	0.541
900.000	533.916	80.018	19.994	103.830	19.871	7.693	0.560
902.000	534.984	80.020	19.993	103.843	19.875	7.414	0.563
904.000	536.088	80.019	19.992	103.851	19.875	7.416	0.543
906.000	537.169	80.010	19.993	103.844	19.874	7.462	0.520
908.000	538.281	80.013	19.994	103.855	19.873	7.493	0.537
910.000	539.324	80.018	19.993	103.846	19.874	7.471	0.525
912.000	540.432	80.011	19.993	103.851	19.874	7.436	0.545
914.000	541.523	80.014	19.993	103.849	19.877	7.230	0.529
916.000	542.645	80.013	19.994	103.838	19.875	7.368	0.552
918.000	543.748	80.009	19.993	103.848	19.876	7.305	0.552
920.000	544.807	80.014	19.992	103.844	19.870	7.738	0.551
922.000	545.938	80.023	19.991	103.852	19.874	7.475	0.556
924.000	547.000	80.007	19.994	103.855	19.870	7.760	0.543
926.000	548.168	80.017	19.993	103.826	19.871	7.660	0.582
928.000	549.261	80.012	19.993	103.845	19.875	7.389	0.553
930.000	550.332	80.013	19.993	103.839	19.875	7.372	0.538
932.000	551.424	80.008	19.996	103.836	19.870	7.718	0.560
934.000	552.492	80.007	19.995	103.849	19.876	7.321	0.507
936.000	553.588	80.018	19.993	103.856	19.876	7.303	0.511
938.000	554.680	80.016	19.992	103.851	19.870	7.752	0.549
940.000	555.806	80.016	19.991	103.839	19.873	7.526	0.547
942.000	556.834	80.021	19.992	103.830	19.870	7.718	0.507
944.000	557.892	80.018	19.994	103.841	19.871	7.661	0.534
946.000	558.988	80.012	19.994	103.854	19.871	7.626	0.557
948.000	560.076	80.022	19.993	103.833	19.874	7.427	0.508
950.000	561.133	80.024	19.992	103.836	19.871	7.625	0.529
952.000	562.181	80.013	19.993	103.837	19.871	7.687	0.513
954.000	563.271	80.013	19.994	103.842	19.875	7.375	0.549
956.000	564.341	80.009	19.994	103.835	19.869	7.802	0.527
958.000	565.471	80.022	19.992	103.830	19.869	7.805	0.550
960.000	566.507	80.014	19.994	103.835	19.874	7.473	0.543
962.000	567.574	80.013	19.994	103.836	19.877	7.240	0.559
964.000	568.606	80.016	19.993	103.837	19.870	7.746	0.532
966.000	569.662	80.021	19.993	103.827	19.870	7.755	0.566
968.000	570.719	80.012	19.994	103.839	19.871	7.690	0.550
970.000	571.790	80.012	19.993	103.845	19.872	7.563	0.543
972.000	572.893	80.020	19.994	103.852	19.867	7.898	0.569
974.000	573.911	80.003	19.997	103.845	19.869	7.766	0.564
976.000	575.042	80.026	19.993	103.827	19.874	7.442	0.538
978.000	576.141	80.008	19.995	103.838	19.874	7.455	0.533
980.000	577.167	80.008	19.994	103.829	19.871	7.628	0.497
982.000	578.243	79.998	19.996	103.831	19.873	7.547	0.546
984.000	579.275	80.013	19.994	103.835	19.871	7.634	0.503
986.000	580.329	80.017	19.994	103.855	19.869	7.814	0.512
988.000	581.438	80.012	19.995	103.854	19.874	7.435	0.550
990.000	582.495	80.020	19.994	103.853	19.873	7.493	0.529
992.000	583.625	80.012	19.994	103.854	19.873	7.525	0.575
994.000	584.631	80.006	19.995	103.835	19.874	7.430	0.550
996.000	585.690	80.008	19.993	103.841	19.871	7.666	0.497
998.000	586.763	80.019	19.992	103.843	19.872	7.564	0.559
1000.000	587.845	80.011	19.992	103.840	19.874	7.443	0.546
1002.000	588.857	80.013	19.992	103.843	19.874	7.475	0.534
1004.000	589.901	80.011	19.996	103.849	19.872	7.620	0.527
1006.000	590.974	80.011	19.994	103.838	19.873	7.547	0.516
1008.000	592.020	80.017	19.992	103.838	19.867	7.903	0.555
1010.000	593.060	80.014	19.992	103.845	19.872	7.588	0.490
1012.000	594.096	80.010	19.995	103.852	19.869	7.788	0.529
1014.000	595.150	80.018	19.994	103.847	19.869	7.778	0.510
1016.000	596.200	80.020	19.993	103.836	19.872	7.618	0.503
1018.000	597.215	80.007	19.993	103.836	19.871	7.679	0.535
1020.000	598.244	80.007	19.996	103.838	19.870	7.703	0.533
1022.000	599.303	80.015	19.996	103.849	19.870	7.726	0.503
1024.000	600.320	80.010	19.995	103.848	19.868	7.867	0.506
1026.000	601.374	80.016	19.993	103.844	19.871	7.632	0.536
1028.001	602.416	80.016	19.995	103.839	19.867	7.940	0.521
1030.000	603.482	80.012	19.992	103.842	19.870	7.757	0.538
1032.000	604.457	80.006	19.995	103.849	19.865	8.063	0.491
1034.001	605.512	80.014	19.992	103.845	19.870	7.709	0.492
1036.000	606.546	80.019	19.993	103.858	19.871	7.681	0.533
1038.000	607.601	80.009	19.993	103.847	19.869	7.778	0.528
1040.000	608.618	80.020	19.994	103.842	19.868	7.893	0.539
1042.000	609.606	80.010	19.993	103.832	19.872	7.621	0.499
1044.000	610.656	80.014	19.992	103.832	19.865	8.036	0.510
1046.000	611.688	80.002	19.993	103.836	19.864	8.143	0.548
1048.000	612.712	80.013	19.994	103.834	19.865	8.055	0.541
1050.000	613.670	80.011	19.994	103.830	19.869	7.815	0.479
1052.000	614.735	80.013	19.994	103.829	19.866	8.032	0.494
1054.000	615.761	80.016	19.992	103.830	19.868	7.887	0.508
1056.000	616.758	80.022	19.993	103.833	19.864	8.109	0.510
1058.000	617.787	80.007	19.996	103.841	19.866	8.005	0.481
1060.001	618.784	80.016	19.993	103.825	19.865	8.087	0.461
1062.000	619.773	80.018	19.993	103.836	19.866	7.982	0.501
1064.000	620.746	80.014	19.994	103.835	19.864	8.139	0.509
1066.001	621.700	80.007	19.995	103.831	19.867	7.962	0.459
1068.000	622.714	79.999	19.995	103.831	19.864	8.137	0.509
1070.000	623.703	80.004	19.993	103.831	19.862	8.281	0.477
1072.000	624.707	80.013	19.993	103.832	19.862	8.280	0.519
1074.001	625.705	80.013	19.995	103.830	19.859	8.502	0.525
1076.001	626.674	80.005	19.993	103.829	19.866	8.005	0.484
1078.001	627.671	80.014	19.993	103.826	19.866	8.029	0.523
1080.001	628.661	80.012	19.994	103.833	19.860	8.398	0.486
1082.000	629.641	80.011	19.995	103.822	19.865	8.069	0.533
1084.000	630.592	80.011	19.994	103.823	19.866	7.995	0.486
1086.000	631.597	80.014	19.995	103.798	19.868	7.827	0.529
1088.000	632.592	80.012	19.992	103.839	19.867	7.924	0.500
1090.000	633.623	80.013	19.993	103.825	19.868	7.868	0.491
1092.000	634.651	80.011	19.996	103.793	19.868	7.837	0.517
1094.000	635.642	80.010	19.994	103.798	19.868	7.859	0.515
1096.000	636.651	80.009	19.996	103.797	19.864	8.124	0.497
1098.000	637.684	80.013	19.992	103.806	19.865	8.047	0.512
1100.001	638.687	80.013	19.997	103.825	19.870	7.753	0.504
1102.000	639.683	80.013	19.994	103.814	19.865	8.075	0.473
1104.000	640.724	80.010	19.991	103.807	19.870	7.697	0.525
1106.001	641.732	80.015	19.997	103.808	19.868	7.830	0.516
1108.000	642.726	80.012	19.990	103.828	19.866	8.012	0.517
1110.000	643.701	80.014	19.993	103.848	19.867	7.946	0.501
1112.000	644.668	80.013	19.994	103.820	19.867	7.960	0.486
1114.000	645.664	80.012	19.993	103.793	19.868	7.871	0.504
1116.001	646.667	80.012	19.994	103.808	19.870	7.759	0.496
1118.000	647.723	80.013	19.997	103.806	19.873	7.496	0.497
1120.000	648.707	80.014	19.994	103.808	19.873	7.516	0.504
1122.001	649.704	80.013	19.994	103.803	19.874	7.479	0.491
1124.000	650.685	80.016	19.992	103.807	19.867	7.939	0.463
1126.000	651.733	80.012	19.992	103.806	19.871	7.689	0.490
1128.000	652.723	80.014	19.993	103.812	19.869	7.826	0.486
1130.000	653.780	80.013	19.994	103.826	19.869	7.771	0.511
1132.000	654.751	80.019	19.995	103.807	19.871	7.650	0.480
1134.000	655.810	80.016	19.992	103.804	19.867	7.918	0.509
1136.000	656.795	80.018	19.993	103.808	19.868	7.866	0.455
1138.000	657.799	80.010	19.992	103.812	19.869	7.777	0.488
1140.000	658.847	80.016	19.998	103.812	19.864	8.150	0.504
1142.001	659.841	80.013	19.994	103.820	19.866	8.034	0.509
1144.000	660.895	80.014	19.993	103.818	19.859	8.513	0.543
1146.001	661.935	80.010	19.995	103.814	19.862	8.256	0.531
1148.000	662.999	80.013	19.992	103.821	19.864	8.161	0.522
1150.000	664.045	80.013	19.994	103.825	19.864	8.155	0.518
1152.000	665.118	80.011	19.995	103.821	19.862	8.302	0.554
1154.000	666.146	80.012	19.996	103.822	19.864	8.144	0.543
1156.000	667.170	80.015	19.993	103.819	19.865	8.047	0.481
1158.001	668.244	80.010	19.993	103.822	19.864	8.164	0.536
1160.000	669.324	80.013	19.996	103.823	19.862	8.280	0.570
1162.000	670.364	80.015	19.991	103.823	19.862	8.296	0.529
1164.000	671.412	80.012	19.992	103.819	19.860	8.384	0.528
1166.000	672.451	80.014	19.996	103.819	19.867	7.950	0.489
1168.001	673.535	80.010	19.998	103.822	19.864	8.148	0.549
1170.000	674.591	80.017	19.991	103.818	19.862	8.308	0.552
1172.000	675.651	80.016	19.993	103.814	19.862	8.261	0.544
1174.000	676.694	80.017	19.990	103.820	19.867	7.916	0.527
1176.000	677.748	80.014	19.989	103.824	19.865	8.097	0.513
1178.000	678.726	80.011	19.993	103.825	19.862	8.287	0.512
1180.000	679.779	80.012	19.997	103.827	19.862	8.299	0.501
1182.001	680.781	80.014	19.993	103.813	19.861	8.346	0.500
1184.000	681.790	80.011	19.994	103.816	19.861	8.341	0.514
1186.001	682.763	80.008	19.997	103.812	19.861	8.341	0.485
1188.001	683.766	80.016	19.994	103.817	19.863	8.195	0.509
1190.001	684.711	80.012	19.996	103.810	19.863	8.195	0.523
1192.000	685.662	80.015	19.992	103.802	19.864	8.140	0.471
1194.000	686.627	80.013	19.998	103.805	19.862	8.308	0.484
1196.000	687.584	80.013	19.989	103.812	19.862	8.267	0.484
1198.000	688.532	80.011	19.996	103.820	19.864	8.152	0.482
1200.000	689.477	80.012	19.994	103.807	19.861	8.372	0.483
1202.001	690.469	80.020	19.991	103.813	19.862	8.272	0.479
1204.000	691.412	80.011	19.997	103.820	19.861	8.350	0.444
1206.000	692.377	80.017	19.991	103.824	19.862	8.262	0.478
1208.001	693.323	80.015	19.994	103.812	19.860	8.442	0.504
1210.000	694.272	80.014	19.993	103.801	19.862	8.306	0.462
1212.000	695.278	80.014	19.995	103.822	19.861	8.325	0.500
1214.000	696.251	80.020	19.993	103.806	19.861	8.313	0.493
1216.000	697.289	80.013	19.990	103.805	19.861	8.312	0.540
1218.000	698.285	80.012	19.991	103.810	19.859	8.455	0.520
1220.000	699.306	80.014	19.992	103.823	19.858	8.554	0.488
1222.000	700.333	80.011	19.993	103.822	19.861	8.375	0.510
1224.000	701.349	80.012	19.998	103.821	19.859	8.460	0.508
1226.000	702.381	80.014	19.995	103.820	19.856	8.664	0.511
1228.000	703.422	80.018	19.991	103.821	19.856	8.694	0.498
1230.000	704.497	80.018	19.990	103.821	19.857	8.595	0.532
1232.000	705.506	80.011	19.996	103.821	19.857	8.616	0.549
1234.000	706.564	80.013	19.993	103.815	19.856	8.718	0.533
1236.000	707.606	80.008	19.992	103.823	19.855	8.749	0.505
1238.000	708.646	80.012	19.990	103.826	19.858	8.557	0.556
1240.000	709.722	80.013	19.992	103.828	19.857	8.636	0.519
1242.000	710.732	80.012	19.999	103.827	19.858	8.515	0.472
1244.000	711.796	80.017	19.992	103.825	19.856	8.666	0.563
1246.001	712.859	80.011	19.995	103.820	19.857	8.624	0.511
1248.000	713.906	80.014	19.992	103.816	19.857	8.630	0.542
1250.000	714.955	80.013	19.987	103.822	19.854	8.796	0.526
1252.000	716.019	80.011	19.996	103.823	19.857	8.646	0.532
1254.000	717.055	80.010	19.993	103.828	19.860	8.394	0.516
1256.000	718.084	80.016	19.997	103.819	19.857	8.641	0.498
1258.001	719.042	80.012	19.995	103.817	19.860	8.381	0.496
1260.000	720.033	80.018	19.996	103.822	19.859	8.446	0.506
1262.000	721.036	80.013	19.993	103.813	19.857	8.603	0.501
1264.001	722.013	80.014	19.990	103.820	19.859	8.502	0.476
1266.000	723.043	80.008	19.996	103.825	19.858	8.572	0.510
1268.000	724.007	80.014	19.994	103.822	19.855	8.767	0.511
1270.000	724.948	80.008	19.991	103.826	19.858	8.569	0.487
1272.001	725.934	80.012	19.991	103.831	19.857	8.612	0.474
1274.000	726.885	80.011	19.993	103.827	19.858	8.578	0.483
1276.000	727.877	80.012	19.994	103.821	19.859	8.451	0.496
1278.001	728.887	80.012	19.996	103.823	19.856	8.688	0.522
1280.000	729.830	80.016	19.994	103.822	19.854	8.848	0.474
1282.000	730.790	80.012	19.995	103.823	19.854	8.826	0.483
1284.001	731.793	80.014	19.994	103.821	19.854	8.814	0.517
1286.000	732.803	80.010	19.993	103.822	19.853	8.889	0.480
1288.000	733.771	80.013	19.997	103.824	19.854	8.813	0.478
1290.000	734.774	80.014	19.994	103.820	19.854	8.808	0.478
1292.000	735.819	80.014	19.994	103.823	19.851	9.046	0.517
1294.001	736.782	80.013	19.994	103.815	19.850	9.087	0.500
1296.000	737.793	80.014	19.994	103.819	19.855	8.757	0.500
1298.000	738.879	80.014	19.994	103.823	19.853	8.890	0.555
1300.000	739.885	80.015	19.993	103.823	19.853	8.881	0.509
1302.000	740.930	80.014	19.993	103.824	19.850	9.091	0.503
1304.001	742.001	80.015	19.993	103.823	19.850	9.102	0.543
1306.000	743.040	80.015	19.993	103.822	19.849	9.149	0.572
1308.000	744.137	80.015	19.992	103.828	19.847	9.274	0.544
1310.000	745.168	80.016	19.993	103.828	19.847	9.302	0.512