File: 01_Data/Bean_Bag_Chair_Beads/MCC/Bean_Bag_Chair_Beads_MCC_30K_min_220315_R3.txt
Sample ID:	C:\MCC\MCC Cal\Test\Bean_Bag_Chair_Beads_MCC_30K_min_220315_R3.txt
Sample Weight (mg):	4.44
Heating Rate (C/s):	0.5
Combustor Temp (C):	900
N2 Flow Rate (cc/min):	80
O2 Flow Rate (cc/min):	20
Calibration File:	C:\MCC\MCC Cal\Coeff1 JN10440_30_210304.txt.txt
T Correction Coefficients:	0	1.024463	0
Time Shift (s):	14
*
Time (s)	Temperature (C)	N2 flow rate (cc/min)	O2 flow rate (cc/min)	Flow Rate (cc/min)	Oxygen (%)	HRR (W/g)	Heating rate (C/s)
0.000	108.205	80.013	19.994	103.746	19.926	0.020	-0.005
2.000	108.188	80.011	19.994	103.743	19.926	0.071	-0.041
4.000	108.207	80.011	19.994	103.747	19.927	-0.024	0.004
6.000	108.163	80.011	19.994	103.760	19.929	-0.159	-0.010
8.000	108.156	80.011	19.992	103.752	19.930	-0.244	-0.000
10.000	108.148	80.010	19.993	103.750	19.925	0.107	-0.003
12.000	108.150	80.010	19.993	103.749	19.925	0.113	-0.008
14.000	108.184	80.010	19.992	103.752	19.925	0.093	0.007
16.000	108.198	80.012	19.994	103.753	19.922	0.315	-0.002
18.000	108.191	80.011	19.993	103.762	19.923	0.284	0.002
20.000	108.163	80.011	19.994	103.753	19.922	0.377	-0.010
22.000	108.190	80.011	19.993	103.763	19.921	0.407	0.010
24.000	108.201	80.012	19.993	103.756	19.921	0.447	-0.026
26.000	108.253	80.011	19.993	103.755	19.922	0.333	0.055
28.000	108.264	80.011	19.994	103.771	19.919	0.595	0.045
30.000	108.277	80.009	19.993	103.785	19.921	0.437	0.011
32.000	108.308	80.009	19.993	103.784	19.920	0.498	-0.001
34.000	108.285	80.011	19.994	103.785	19.915	0.864	0.022
36.000	108.405	80.009	19.994	103.786	19.915	0.880	0.047
38.000	108.433	80.009	19.994	103.783	19.911	1.166	0.044
40.000	108.488	80.011	19.994	103.786	19.910	1.212	0.042
42.000	108.585	80.010	19.994	103.802	19.910	1.248	0.041
44.000	108.684	80.011	19.995	103.816	19.909	1.292	0.074
46.001	108.784	80.013	19.994	103.839	19.908	1.354	0.051
48.000	108.884	80.012	19.994	103.847	19.907	1.445	0.033
50.001	109.047	80.012	19.994	103.865	19.901	1.914	0.074
52.001	109.239	80.012	19.993	103.888	19.894	2.367	0.101
54.000	109.419	80.011	19.994	103.906	19.894	2.415	0.077
56.000	109.686	80.012	19.993	103.935	19.890	2.711	0.116
58.001	109.936	80.014	19.994	103.942	19.892	2.512	0.133
60.001	110.260	80.013	19.994	103.942	19.888	2.797	0.162
62.000	110.575	80.012	19.994	103.940	19.888	2.837	0.172
64.000	110.875	80.011	19.994	103.933	19.892	2.533	0.184
66.001	111.223	80.011	19.994	103.945	19.886	2.966	0.191
68.000	111.625	80.011	19.994	103.941	19.887	2.871	0.197
70.000	112.009	80.012	19.994	103.944	19.889	2.746	0.190
72.000	112.481	80.011	19.994	103.948	19.889	2.735	0.229
74.001	112.863	80.012	19.993	103.973	19.884	3.119	0.182
76.000	113.348	80.011	19.995	103.966	19.883	3.173	0.243
78.001	113.831	80.015	19.993	103.970	19.879	3.462	0.239
80.001	114.345	80.014	19.993	103.981	19.880	3.391	0.259
82.000	114.845	80.013	19.993	103.961	19.883	3.199	0.253
84.000	115.407	80.013	19.993	103.964	19.878	3.541	0.303
86.000	115.943	80.013	19.993	103.972	19.881	3.365	0.278
88.000	116.497	80.012	19.993	103.983	19.877	3.627	0.287
90.000	117.082	80.012	19.994	103.998	19.877	3.622	0.285
92.000	117.672	80.012	19.993	103.994	19.873	3.960	0.334
94.000	118.320	80.011	19.994	103.980	19.875	3.806	0.291
96.000	118.973	80.011	19.993	103.986	19.870	4.141	0.342
98.000	119.624	80.012	19.994	104.002	19.867	4.347	0.308
100.001	120.314	80.011	19.993	104.003	19.870	4.138	0.354
102.000	121.049	80.012	19.993	104.017	19.873	3.925	0.368
104.000	121.760	80.012	19.993	104.008	19.868	4.276	0.387
106.001	122.453	80.013	19.993	104.002	19.871	4.104	0.361
108.001	123.262	80.011	19.992	104.003	19.870	4.159	0.378
110.000	123.986	80.012	19.993	103.992	19.867	4.395	0.368
112.000	124.757	80.012	19.994	103.987	19.867	4.338	0.379
114.000	125.633	80.012	19.993	103.996	19.867	4.357	0.431
116.000	126.433	80.011	19.993	104.020	19.868	4.308	0.429
118.000	127.220	80.011	19.993	104.013	19.869	4.226	0.406
120.000	128.051	80.012	19.993	103.994	19.865	4.487	0.418
122.000	128.900	80.011	19.993	104.003	19.864	4.579	0.407
124.000	129.780	80.010	19.993	104.008	19.866	4.464	0.438
126.000	130.613	80.011	19.993	104.006	19.863	4.692	0.420
128.000	131.481	80.010	19.994	104.008	19.863	4.635	0.438
130.000	132.385	80.010	19.993	104.002	19.865	4.544	0.444
132.000	133.303	80.013	19.993	104.011	19.866	4.415	0.466
134.000	134.191	80.011	19.993	104.027	19.867	4.367	0.441
136.000	135.123	80.013	19.993	104.148	19.870	4.174	0.479
138.000	136.020	80.012	19.994	104.076	19.870	4.152	0.454
140.000	136.982	80.012	19.995	104.008	19.869	4.216	0.494
142.000	137.867	80.012	19.994	103.993	19.868	4.307	0.461
144.000	138.835	80.012	19.993	104.015	19.866	4.414	0.437
146.000	139.776	80.011	19.993	103.999	19.867	4.381	0.470
148.000	140.728	80.011	19.993	103.992	19.868	4.321	0.463
150.000	141.712	80.012	19.995	103.988	19.868	4.310	0.507
152.000	142.632	80.012	19.994	103.989	19.867	4.339	0.460
154.001	143.611	80.012	19.993	103.987	19.866	4.461	0.484
156.000	144.620	80.011	19.994	103.988	19.865	4.477	0.506
158.001	145.587	80.012	19.994	103.985	19.865	4.502	0.510
160.000	146.567	80.013	19.994	103.979	19.865	4.521	0.452
162.000	147.538	80.012	19.994	103.959	19.863	4.632	0.485
164.000	148.552	80.014	19.994	103.967	19.865	4.537	0.497
166.000	149.553	80.013	19.994	103.970	19.864	4.567	0.520
168.000	150.505	80.012	19.994	103.979	19.866	4.472	0.471
170.000	151.500	80.013	19.994	103.979	19.864	4.585	0.506
172.000	152.478	80.012	19.994	103.978	19.863	4.659	0.478
174.000	153.480	80.011	19.995	103.957	19.868	4.301	0.492
176.000	154.413	80.010	19.994	103.979	19.868	4.291	0.468
178.000	155.412	80.011	19.995	103.982	19.867	4.357	0.481
180.000	156.403	80.011	19.993	103.979	19.868	4.277	0.501
182.000	157.372	80.012	19.993	103.983	19.870	4.120	0.461
184.000	158.389	80.011	19.993	103.983	19.867	4.349	0.479
186.000	159.346	80.011	19.993	103.982	19.865	4.500	0.463
188.000	160.368	80.012	19.994	103.981	19.869	4.235	0.524
190.000	161.347	80.012	19.994	103.984	19.867	4.400	0.474
192.000	162.389	80.011	19.993	103.979	19.866	4.406	0.528
194.000	163.361	80.012	19.994	103.976	19.870	4.142	0.492
196.000	164.362	80.012	19.993	103.991	19.872	4.025	0.517
198.000	165.397	80.011	19.994	103.981	19.871	4.082	0.516
200.000	166.337	80.012	19.993	103.985	19.868	4.263	0.467
202.000	167.331	80.011	19.993	103.984	19.870	4.152	0.480
204.000	168.335	80.011	19.993	103.979	19.869	4.194	0.491
206.000	169.390	80.009	19.993	103.982	19.872	3.983	0.519
208.000	170.348	80.012	19.993	103.983	19.869	4.222	0.525
210.000	171.364	80.011	19.993	103.980	19.868	4.305	0.508
212.000	172.351	80.011	19.993	103.986	19.869	4.239	0.502
214.000	173.362	80.012	19.993	103.986	19.868	4.257	0.538
216.001	174.322	80.013	19.993	103.987	19.870	4.148	0.464
218.000	175.352	80.012	19.992	103.986	19.871	4.099	0.523
220.000	176.304	80.012	19.993	103.986	19.872	4.002	0.472
222.000	177.262	80.014	19.994	103.985	19.869	4.236	0.465
224.000	178.295	80.014	19.993	103.982	19.871	4.061	0.497
226.000	179.257	80.013	19.994	103.979	19.874	3.860	0.524
228.000	180.184	80.012	19.994	103.972	19.872	4.008	0.499
230.000	181.233	80.013	19.993	103.953	19.872	4.009	0.494
232.000	182.198	80.011	19.994	103.955	19.871	4.102	0.491
234.000	183.179	80.012	19.995	103.949	19.872	3.987	0.466
236.000	184.090	80.012	19.994	103.959	19.871	4.087	0.455
238.000	185.136	80.011	19.993	103.925	19.868	4.285	0.495
240.000	186.130	80.012	19.995	103.949	19.868	4.283	0.474
242.000	187.099	80.012	19.994	103.948	19.868	4.325	0.477
244.000	188.062	80.013	19.994	103.940	19.871	4.090	0.487
246.000	189.063	80.014	19.993	103.943	19.872	3.992	0.494
248.000	190.057	80.014	19.993	103.942	19.870	4.151	0.496
250.000	190.976	80.013	19.994	103.942	19.870	4.159	0.480
252.000	191.999	80.014	19.993	103.942	19.869	4.221	0.509
254.000	193.023	80.014	19.994	103.940	19.869	4.186	0.521
256.000	193.965	80.013	19.994	103.924	19.872	4.005	0.521
258.000	195.001	80.013	19.994	103.917	19.866	4.411	0.477
260.000	195.888	80.010	19.994	103.909	19.866	4.409	0.479
262.000	197.049	80.010	19.993	103.907	19.870	4.146	0.624
264.000	197.904	80.009	19.994	103.938	19.869	4.188	0.480
266.000	198.839	80.009	19.994	103.946	19.870	4.164	0.522
268.000	199.879	80.011	19.994	103.945	19.865	4.478	0.486
270.000	200.831	80.010	19.995	103.945	19.870	4.134	0.460
272.000	201.811	80.009	19.995	103.944	19.871	4.057	0.446
274.000	202.828	80.011	19.994	103.946	19.871	4.059	0.527
276.000	203.831	80.011	19.994	103.948	19.873	3.910	0.477
278.000	204.777	80.011	19.994	103.947	19.869	4.252	0.505
280.000	205.776	80.013	19.993	103.946	19.872	4.033	0.513
282.000	206.774	80.011	19.993	103.947	19.871	4.037	0.501
284.000	207.830	80.012	19.993	103.948	19.869	4.226	0.556
286.000	208.797	80.011	19.993	103.948	19.869	4.246	0.506
288.000	209.794	80.011	19.993	103.946	19.869	4.192	0.539
290.000	210.793	80.010	19.993	103.945	19.868	4.305	0.526
292.000	211.772	80.011	19.993	103.945	19.870	4.110	0.518
294.000	212.725	80.011	19.995	103.942	19.868	4.277	0.478
296.000	213.732	80.012	19.994	103.945	19.868	4.259	0.500
298.000	214.719	80.010	19.993	103.945	19.868	4.269	0.483
300.000	215.682	80.012	19.994	103.945	19.872	3.977	0.498
302.000	216.661	80.012	19.994	103.942	19.872	3.985	0.491
304.000	217.672	80.013	19.994	103.942	19.870	4.178	0.534
306.000	218.643	80.013	19.994	103.942	19.870	4.156	0.495
308.000	219.627	80.012	19.993	103.942	19.870	4.154	0.515
310.000	220.632	80.012	19.993	103.941	19.868	4.293	0.480
312.000	221.610	80.013	19.993	103.942	19.868	4.264	0.478
314.000	222.587	80.014	19.993	103.941	19.867	4.379	0.487
316.000	223.578	80.014	19.993	103.942	19.866	4.427	0.501
318.000	224.611	80.012	19.993	103.943	19.865	4.480	0.497
320.000	225.545	80.013	19.993	103.944	19.867	4.397	0.460
322.000	226.569	80.013	19.993	103.946	19.864	4.559	0.522
324.000	227.519	80.013	19.994	103.944	19.864	4.607	0.516
326.000	228.466	80.013	19.993	103.944	19.866	4.424	0.502
328.000	229.504	80.012	19.993	103.945	19.865	4.544	0.510
330.000	230.454	80.013	19.993	103.945	19.867	4.337	0.493
332.000	231.437	80.013	19.993	103.939	19.867	4.389	0.463
334.000	232.444	80.015	19.993	103.943	19.867	4.383	0.494
336.000	233.406	80.013	19.994	103.944	19.871	4.079	0.484
338.000	234.392	80.015	19.994	103.942	19.868	4.254	0.492
340.000	235.393	80.015	19.994	103.936	19.866	4.472	0.493
342.000	236.366	80.013	19.993	103.937	19.863	4.649	0.462
344.000	237.394	80.011	19.993	103.942	19.862	4.723	0.505
346.000	238.374	80.011	19.994	103.945	19.862	4.735	0.486
348.000	239.356	80.011	19.994	103.944	19.867	4.383	0.494
350.000	240.373	80.011	19.993	103.945	19.869	4.226	0.506
352.000	241.329	80.012	19.993	103.946	19.867	4.331	0.473
354.000	242.297	80.012	19.994	103.947	19.867	4.388	0.499
356.000	243.274	80.010	19.994	103.946	19.867	4.326	0.470
358.000	244.275	80.012	19.994	103.943	19.865	4.511	0.524
360.000	245.228	80.011	19.993	103.941	19.862	4.740	0.468
362.000	246.250	80.012	19.994	103.937	19.866	4.446	0.516
364.000	247.277	80.012	19.995	103.933	19.864	4.595	0.500
366.000	248.267	80.011	19.994	103.913	19.863	4.625	0.509
368.000	249.244	80.012	19.994	103.928	19.863	4.686	0.478
370.000	250.254	80.010	19.995	103.928	19.865	4.540	0.485
372.000	251.301	80.011	19.995	103.937	19.863	4.674	0.478
374.000	252.289	80.012	19.996	103.930	19.860	4.892	0.498
376.000	253.267	80.012	19.995	103.929	19.861	4.769	0.491
378.000	254.221	80.012	19.994	103.928	19.863	4.629	0.445
380.000	255.265	80.012	19.993	103.913	19.863	4.686	0.529
382.000	256.237	80.011	19.994	103.912	19.862	4.693	0.480
384.000	257.283	80.012	19.994	103.916	19.862	4.694	0.545
386.000	258.256	80.013	19.993	103.924	19.862	4.734	0.484
388.000	259.201	80.013	19.994	103.922	19.858	5.052	0.484
390.000	260.200	80.015	19.994	103.929	19.860	4.841	0.501
392.000	261.163	80.012	19.993	103.908	19.859	4.926	0.484
394.000	262.171	80.014	19.993	103.924	19.863	4.678	0.511
396.000	263.186	80.014	19.993	103.926	19.860	4.851	0.530
398.000	264.139	80.013	19.993	103.936	19.858	4.988	0.476
400.000	265.124	80.013	19.993	103.924	19.855	5.212	0.482
402.000	266.126	80.012	19.993	103.913	19.857	5.113	0.509
404.000	267.043	80.013	19.994	103.928	19.859	4.969	0.474
406.000	268.038	80.013	19.994	103.929	19.855	5.256	0.497
408.000	269.007	80.012	19.994	103.929	19.857	5.127	0.490
410.000	270.023	80.014	19.994	103.916	19.856	5.150	0.518
412.000	271.015	80.012	19.994	103.914	19.853	5.378	0.518
414.000	271.990	80.013	19.994	103.922	19.854	5.298	0.480
416.000	273.006	80.013	19.993	103.926	19.853	5.363	0.518
418.000	274.035	80.013	19.994	103.925	19.855	5.226	0.507
420.000	274.990	80.014	19.993	103.934	19.853	5.382	0.493
422.000	275.970	80.013	19.994	103.937	19.852	5.488	0.479
424.000	276.935	80.016	19.993	103.925	19.855	5.258	0.466
426.000	277.940	80.013	19.993	103.918	19.852	5.488	0.460
428.000	279.006	80.013	19.993	103.906	19.852	5.472	0.519
430.000	279.972	80.011	19.993	103.923	19.851	5.506	0.474
432.000	280.989	80.011	19.994	103.919	19.851	5.558	0.518
434.000	281.960	80.012	19.993	103.909	19.848	5.717	0.494
436.000	282.981	80.010	19.994	103.922	19.843	6.123	0.498
438.000	283.990	80.013	19.994	103.905	19.846	5.904	0.515
440.000	285.007	80.011	19.994	103.907	19.841	6.236	0.482
442.000	286.003	80.011	19.994	103.911	19.840	6.333	0.518
444.000	287.028	80.012	19.994	103.906	19.841	6.284	0.505
446.000	288.015	80.013	19.993	103.915	19.837	6.544	0.491
448.000	289.004	80.013	19.994	103.925	19.837	6.575	0.487
450.000	289.981	80.012	19.994	103.926	19.837	6.588	0.474
452.000	290.985	80.014	19.994	103.926	19.837	6.557	0.502
454.000	292.001	80.011	19.994	103.921	19.833	6.871	0.522
456.000	293.034	80.013	19.994	103.925	19.836	6.625	0.527
458.000	293.945	80.013	19.994	103.916	19.830	7.040	0.457
460.000	294.981	80.010	19.993	103.921	19.830	7.061	0.486
462.000	296.012	80.010	19.993	103.922	19.825	7.451	0.519
464.000	297.000	80.009	19.995	103.913	19.821	7.695	0.523
466.000	298.008	80.009	19.995	103.922	19.821	7.750	0.505
468.000	299.023	80.008	19.995	103.916	19.815	8.127	0.517
470.000	300.049	80.010	19.994	103.922	19.812	8.341	0.500
472.000	301.008	80.011	19.994	103.932	19.813	8.318	0.457
474.000	302.023	80.013	19.995	103.928	19.812	8.348	0.501
476.000	303.032	80.011	19.995	103.929	19.809	8.588	0.479
478.000	304.020	80.013	19.995	103.906	19.803	9.059	0.468
480.000	305.044	80.013	19.993	103.907	19.799	9.327	0.492
482.000	306.019	80.014	19.993	103.909	19.798	9.400	0.500
484.000	307.050	80.012	19.992	103.909	19.793	9.742	0.523
486.000	308.059	80.012	19.993	103.910	19.790	9.955	0.489
488.000	309.048	80.011	19.994	103.909	19.784	10.419	0.528
490.000	310.054	80.013	19.993	103.915	19.784	10.413	0.500
492.000	311.040	80.013	19.993	103.907	19.780	10.734	0.498
494.000	312.098	80.012	19.994	103.905	19.779	10.781	0.505
496.000	313.154	80.013	19.993	103.907	19.779	10.811	0.523
498.000	314.161	80.012	19.993	103.920	19.775	11.051	0.537
500.000	315.159	80.013	19.994	103.914	19.775	11.097	0.496
502.000	316.172	80.015	19.994	103.905	19.768	11.602	0.487
504.000	317.173	80.014	19.993	103.913	19.770	11.459	0.486
506.000	318.195	80.015	19.994	103.904	19.765	11.791	0.494
508.000	319.198	80.015	19.994	103.902	19.767	11.628	0.479
510.000	320.237	80.015	19.993	103.901	19.761	12.114	0.503
512.000	321.207	80.012	19.993	103.908	19.759	12.236	0.512
514.000	322.187	80.012	19.993	103.905	19.753	12.649	0.484
516.000	323.187	80.011	19.994	103.911	19.754	12.592	0.471
518.000	324.213	80.012	19.994	103.905	19.750	12.870	0.485
520.000	325.197	80.010	19.993	103.906	19.747	13.134	0.531
522.000	326.234	80.012	19.993	103.911	19.745	13.245	0.507
524.000	327.248	80.011	19.993	103.912	19.742	13.506	0.523
526.000	328.200	80.012	19.993	103.907	19.741	13.564	0.477
528.000	329.190	80.012	19.993	103.912	19.740	13.651	0.466
530.000	330.185	80.014	19.993	103.909	19.735	13.964	0.492
532.000	331.216	80.012	19.994	103.924	19.728	14.532	0.504
534.000	332.232	80.012	19.995	103.916	19.723	14.853	0.525
536.000	333.265	80.013	19.994	103.919	19.720	15.100	0.519
538.000	334.262	80.012	19.994	103.908	19.718	15.221	0.525
540.000	335.298	80.012	19.994	103.909	19.714	15.566	0.484
542.000	336.299	80.012	19.995	103.905	19.711	15.782	0.501
544.000	337.293	80.011	19.993	103.907	19.703	16.313	0.498
546.000	338.264	80.012	19.994	103.914	19.699	16.659	0.481
548.000	339.271	80.011	19.993	103.915	19.693	17.103	0.485
550.000	340.268	80.011	19.994	103.915	19.684	17.751	0.511
552.000	341.289	80.011	19.995	103.916	19.682	17.833	0.509
554.000	342.258	80.012	19.993	103.912	19.673	18.549	0.469
556.000	343.236	80.010	19.995	103.907	19.667	18.942	0.492
558.000	344.244	80.014	19.995	103.909	19.658	19.623	0.500
560.000	345.280	80.013	19.994	103.921	19.651	20.137	0.509
562.000	346.304	80.014	19.994	103.916	19.643	20.699	0.519
564.000	347.264	80.013	19.994	103.911	19.633	21.411	0.516
566.000	348.252	80.014	19.993	103.910	19.625	22.026	0.474
568.000	349.271	80.014	19.993	103.912	19.616	22.681	0.523
570.000	350.312	80.012	19.995	103.908	19.602	23.692	0.515
572.000	351.244	80.014	19.994	103.915	19.591	24.536	0.462
574.000	352.325	80.015	19.995	103.910	19.585	24.957	0.528
576.000	353.317	80.012	19.994	103.901	19.572	25.935	0.524
578.000	354.337	80.012	19.994	103.903	19.562	26.664	0.497
580.000	355.329	80.013	19.994	103.905	19.546	27.837	0.499
582.000	356.364	80.011	19.993	103.906	19.536	28.528	0.502
584.000	357.371	80.014	19.993	103.920	19.520	29.721	0.512
586.000	358.337	80.015	19.994	103.914	19.500	31.185	0.523
588.000	359.378	80.015	19.994	103.912	19.489	31.940	0.508
590.000	360.345	80.014	19.993	103.924	19.471	33.282	0.484
592.000	361.394	80.014	19.994	103.929	19.452	34.677	0.520
594.000	362.353	80.014	19.994	103.928	19.431	36.229	0.451
596.000	363.360	80.014	19.994	103.925	19.410	37.733	0.485
598.000	364.337	80.013	19.993	103.919	19.390	39.231	0.487
600.000	365.339	80.012	19.993	103.941	19.365	41.061	0.525
602.000	366.374	80.012	19.994	103.929	19.341	42.772	0.526
604.000	367.348	80.012	19.994	103.934	19.315	44.681	0.486
606.000	368.396	80.013	19.993	103.938	19.289	46.559	0.533
608.000	369.386	80.013	19.992	103.936	19.257	48.933	0.497
610.000	370.383	80.012	19.994	103.943	19.225	51.257	0.489
612.000	371.378	80.012	19.994	103.944	19.190	53.832	0.513
614.000	372.356	80.011	19.994	103.942	19.147	56.977	0.488
616.000	373.371	80.016	19.992	103.937	19.119	59.011	0.505
618.000	374.390	80.010	19.994	103.937	19.071	62.483	0.501
620.000	375.371	80.013	19.993	103.938	19.031	65.456	0.489
622.000	376.352	80.010	19.994	103.945	18.980	69.159	0.509
624.000	377.321	80.008	19.994	103.948	18.930	72.821	0.491
626.000	378.330	80.012	19.994	103.949	18.886	76.042	0.515
628.000	379.297	80.010	19.994	103.945	18.830	80.150	0.496
630.000	380.338	80.013	19.993	103.942	18.779	83.870	0.527
632.000	381.281	80.011	19.994	103.958	18.726	87.765	0.493
634.000	382.322	80.010	19.995	103.954	18.660	92.548	0.506
636.000	383.275	80.012	19.994	103.962	18.599	97.073	0.492
638.000	384.247	80.009	19.995	103.979	18.543	101.131	0.463
640.000	385.289	80.013	19.995	103.980	18.475	106.098	0.478
642.000	386.260	80.011	19.992	103.983	18.398	111.755	0.494
644.000	387.214	80.010	19.994	103.988	18.324	117.164	0.444
646.000	388.251	80.014	19.995	104.004	18.247	122.799	0.486
648.000	389.226	80.012	19.993	104.011	18.153	129.669	0.507
650.000	390.164	80.013	19.993	103.995	18.061	136.361	0.458
652.000	391.179	80.014	19.994	103.994	17.952	144.380	0.498
654.000	392.152	80.014	19.998	104.014	17.849	151.961	0.488
656.000	393.187	80.011	19.995	104.020	17.738	160.164	0.494
658.000	394.254	80.012	19.994	104.016	17.635	167.599	0.510
660.000	395.274	80.014	19.994	103.995	17.538	174.608	0.516
662.000	396.229	80.009	19.996	104.017	17.423	183.032	0.474
664.000	397.279	80.012	19.996	104.052	17.288	193.074	0.508
666.000	398.234	80.013	19.995	104.107	17.136	204.324	0.480
668.000	399.305	80.013	19.994	104.116	17.012	213.277	0.506
670.000	400.317	80.013	19.995	104.030	16.873	223.126	0.524
672.000	401.294	80.012	19.993	104.024	16.690	236.521	0.487
674.000	402.254	80.016	19.994	104.075	16.488	251.595	0.476
676.000	403.252	80.018	19.992	104.147	16.253	268.777	0.500
678.000	404.234	80.015	19.994	104.170	16.052	283.338	0.480
680.001	405.234	80.010	19.994	104.043	15.917	293.053	0.511
682.000	406.223	80.010	19.992	103.916	15.678	311.215	0.522
684.000	407.267	80.010	19.993	104.083	15.506	324.015	0.522
686.000	408.246	80.012	19.993	104.111	15.414	330.475	0.517
688.000	409.243	80.011	19.994	104.104	15.329	336.429	0.504
690.000	410.202	80.010	19.999	104.016	15.219	344.513	0.526
692.000	411.219	80.011	19.992	104.076	15.084	354.451	0.503
694.000	412.179	80.012	19.994	104.313	14.953	364.026	0.493
696.000	413.171	80.013	19.994	104.260	14.821	373.668	0.502
698.000	414.169	80.012	19.991	104.162	14.679	384.060	0.492
700.000	415.140	80.014	19.993	104.123	14.551	393.440	0.480
702.000	416.164	80.010	19.995	104.143	14.431	402.216	0.509
704.000	417.162	80.011	19.997	104.153	14.317	410.633	0.500
706.000	418.150	80.008	19.994	104.152	14.219	417.884	0.506
708.000	419.153	80.008	19.996	104.161	14.138	423.734	0.506
710.000	420.131	80.016	19.995	104.151	14.076	428.327	0.497
712.000	421.187	80.013	19.994	104.145	14.039	431.178	0.521
714.000	422.198	80.010	19.996	104.172	14.026	431.985	0.495
716.000	423.193	80.003	19.995	104.165	14.025	431.971	0.526
718.000	424.219	80.010	19.995	104.172	14.050	430.112	0.509
720.000	425.245	80.006	19.994	104.190	14.095	427.023	0.513
722.000	426.277	79.996	19.994	104.184	14.168	421.867	0.524
724.000	427.314	80.010	19.993	104.191	14.283	413.379	0.534
726.000	428.342	80.015	19.994	104.172	14.434	402.318	0.532
728.000	429.359	80.020	19.994	104.158	14.603	389.757	0.522
730.000	430.422	80.016	19.989	104.179	14.790	376.029	0.522
732.000	431.452	80.018	19.982	104.235	15.005	360.300	0.529
734.000	432.539	80.025	19.993	104.257	15.229	343.786	0.535
736.000	433.569	80.006	19.998	104.236	15.470	326.161	0.535
738.000	434.721	80.013	19.994	104.208	15.725	307.468	0.567
740.000	435.778	80.009	19.994	104.193	15.991	287.936	0.528
742.000	436.866	80.012	19.995	104.169	16.260	268.203	0.560
744.000	437.961	80.010	19.994	104.151	16.531	248.391	0.557
746.000	439.016	80.007	19.995	104.140	16.806	228.280	0.527
748.000	440.143	80.017	19.994	104.136	17.071	208.870	0.535
750.000	441.209	80.011	19.998	104.119	17.331	189.803	0.539
752.000	442.333	80.014	19.994	104.101	17.574	172.031	0.571
754.000	443.437	80.011	19.993	104.103	17.808	154.915	0.541
756.000	444.561	80.014	19.991	104.103	18.023	139.149	0.544
758.000	445.647	80.010	19.993	104.095	18.224	124.474	0.564
760.000	446.740	80.012	19.993	104.076	18.406	111.105	0.564
762.000	447.854	80.012	19.995	104.064	18.576	98.694	0.530
764.000	448.928	80.018	20.001	104.038	18.724	87.864	0.559
766.000	449.997	80.013	19.999	104.020	18.858	78.048	0.565
768.000	451.122	80.009	19.993	104.017	18.972	69.747	0.546
770.000	452.208	80.008	19.997	104.013	19.072	62.462	0.520
772.000	453.289	80.003	19.995	103.983	19.164	55.725	0.541
774.000	454.410	80.009	19.993	103.977	19.240	50.151	0.566
776.000	455.508	80.014	19.991	103.963	19.311	44.988	0.544
778.000	456.549	80.008	19.996	103.945	19.372	40.492	0.526
780.000	457.644	80.011	19.992	103.943	19.417	37.221	0.558
782.000	458.721	80.017	19.992	103.936	19.466	33.643	0.547
784.000	459.820	80.017	19.988	103.904	19.502	30.985	0.537
786.000	460.859	80.016	19.989	103.908	19.534	28.652	0.555
788.000	461.877	80.008	19.993	103.898	19.565	26.450	0.550
790.000	462.947	80.011	19.993	103.902	19.595	24.215	0.528
792.000	463.996	80.008	19.995	103.905	19.620	22.419	0.532
794.000	465.068	80.002	19.994	103.900	19.640	20.940	0.540
796.000	466.105	80.025	20.000	103.903	19.657	19.684	0.531
798.000	467.158	80.012	20.000	103.921	19.678	18.150	0.523
800.000	468.209	80.015	19.992	103.916	19.688	17.418	0.530
802.000	469.273	80.014	19.991	103.910	19.712	15.645	0.535
804.000	470.329	80.015	19.991	103.910	19.720	15.075	0.530
806.000	471.405	80.006	19.995	103.918	19.730	14.383	0.542
808.000	472.433	80.015	19.992	103.911	19.744	13.370	0.529
810.000	473.454	80.010	19.995	103.911	19.761	12.126	0.534
812.000	474.523	80.018	19.991	103.905	19.774	11.187	0.519
814.000	475.582	80.005	19.995	103.909	19.789	10.039	0.553
816.000	476.620	80.014	19.992	103.904	19.799	9.356	0.529
818.000	477.646	80.013	19.993	103.907	19.809	8.586	0.495
820.000	478.690	80.014	19.994	103.907	19.812	8.349	0.541
822.000	479.706	80.017	19.994	103.911	19.819	7.882	0.519
824.000	480.755	80.012	19.991	103.916	19.824	7.510	0.530
826.000	481.801	80.014	19.995	103.907	19.827	7.248	0.524
828.000	482.899	80.009	19.992	103.905	19.828	7.222	0.540
830.000	483.891	80.009	19.994	103.904	19.831	7.025	0.506
832.000	484.914	80.019	19.993	103.900	19.832	6.952	0.530
834.000	485.916	80.012	19.993	103.900	19.827	7.252	0.500
836.000	486.965	80.011	19.993	103.901	19.833	6.829	0.534
838.000	488.069	80.015	19.993	103.904	19.831	7.022	0.513
840.000	489.040	80.016	19.992	103.904	19.828	7.196	0.534
842.000	490.045	80.012	19.993	103.900	19.831	7.023	0.521
844.000	491.083	80.013	19.993	103.900	19.830	7.064	0.505
846.000	492.141	80.011	19.996	103.901	19.828	7.174	0.535
848.000	493.173	80.017	19.993	103.903	19.832	6.937	0.523
850.000	494.201	80.018	19.993	103.902	19.829	7.110	0.553
852.000	495.192	80.018	19.994	103.899	19.830	7.069	0.489
854.000	496.221	80.012	19.993	103.896	19.832	6.892	0.520
856.000	497.238	80.004	19.997	103.887	19.832	6.898	0.548
858.000	498.258	80.012	19.995	103.846	19.833	6.815	0.499
860.000	499.275	80.013	19.994	103.862	19.835	6.680	0.524
862.000	500.255	80.020	19.992	103.866	19.833	6.870	0.499
864.000	501.295	80.016	19.994	103.867	19.835	6.676	0.519
866.000	502.275	80.013	19.994	103.870	19.837	6.553	0.483
868.000	503.271	80.010	19.995	103.876	19.834	6.805	0.495
870.000	504.319	80.007	19.996	103.874	19.839	6.423	0.503
872.000	505.346	80.011	19.995	103.867	19.832	6.934	0.520
874.000	506.376	80.010	19.994	103.867	19.835	6.702	0.518
876.000	507.383	80.011	19.995	103.870	19.836	6.644	0.497
878.000	508.395	80.012	19.994	103.869	19.832	6.904	0.494
880.000	509.417	80.012	19.993	103.865	19.830	7.093	0.487
882.000	510.448	80.012	19.994	103.866	19.833	6.858	0.494
884.000	511.481	80.010	19.995	103.866	19.830	7.093	0.503
886.000	512.480	80.009	19.994	103.874	19.829	7.119	0.488
888.000	513.489	80.011	19.993	103.871	19.831	6.985	0.526
890.000	514.553	80.009	19.993	103.869	19.837	6.544	0.534
892.000	515.546	80.010	19.994	103.871	19.834	6.757	0.533
894.000	516.594	80.015	19.995	103.867	19.834	6.751	0.502
896.000	517.610	80.012	19.994	103.874	19.830	7.035	0.500
898.000	518.627	80.015	19.994	103.867	19.835	6.711	0.509
900.000	519.625	80.012	19.993	103.863	19.834	6.739	0.506
902.000	520.706	80.014	19.994	103.863	19.833	6.813	0.516
904.000	521.724	80.014	19.993	103.863	19.834	6.753	0.520
906.000	522.730	80.014	19.994	103.866	19.832	6.898	0.475
908.000	523.759	80.014	19.993	103.862	19.832	6.944	0.531
910.000	524.751	80.014	19.994	103.863	19.831	6.954	0.497
912.000	525.801	80.013	19.994	103.869	19.835	6.677	0.515
914.000	526.808	80.015	19.994	103.865	19.831	6.977	0.506
916.000	527.813	80.014	19.992	103.865	19.833	6.875	0.489
918.000	528.864	80.014	19.994	103.871	19.834	6.789	0.527
920.000	529.878	80.014	19.994	103.865	19.832	6.898	0.493
922.000	530.915	80.015	19.992	103.865	19.834	6.783	0.512
924.000	531.941	80.014	19.994	103.864	19.832	6.920	0.532
926.000	532.938	80.015	19.994	103.871	19.832	6.888	0.512
928.000	533.943	80.014	19.994	103.872	19.833	6.857	0.478
930.000	534.996	80.015	19.993	103.869	19.832	6.934	0.521
932.000	536.026	80.014	19.993	103.863	19.829	7.125	0.506
934.000	537.037	80.015	19.993	103.865	19.830	7.031	0.506
936.000	538.040	80.012	19.994	103.872	19.832	6.928	0.497
938.000	539.082	80.011	19.994	103.877	19.828	7.224	0.501
940.000	540.121	80.011	19.994	103.872	19.830	7.033	0.522
942.000	541.125	80.011	19.994	103.869	19.829	7.145	0.520
944.000	542.135	80.011	19.994	103.876	19.829	7.165	0.482
946.000	543.136	80.012	19.994	103.874	19.828	7.181	0.512
948.000	544.153	80.012	19.994	103.874	19.830	7.085	0.506
950.000	545.139	80.010	19.994	103.868	19.831	7.014	0.485
952.000	546.138	80.012	19.993	103.870	19.829	7.157	0.487
954.000	547.182	80.013	19.995	103.874	19.829	7.150	0.504
956.000	548.201	80.011	19.994	103.876	19.829	7.149	0.503
958.000	549.201	80.011	19.994	103.874	19.829	7.130	0.497
960.000	550.245	80.012	19.995	103.872	19.826	7.383	0.521
962.000	551.274	80.011	19.994	103.875	19.827	7.246	0.529
964.000	552.245	80.012	19.994	103.867	19.824	7.466	0.479
966.000	553.265	80.012	19.995	103.872	19.823	7.576	0.507
968.000	554.296	80.011	19.996	103.880	19.821	7.688	0.505
970.000	555.327	80.010	19.996	103.885	19.825	7.445	0.488
972.000	556.343	80.011	19.995	103.872	19.826	7.325	0.537
974.000	557.338	80.011	19.995	103.872	19.822	7.675	0.474
976.000	558.369	80.012	19.995	103.866	19.824	7.504	0.520
978.000	559.376	80.012	19.994	103.883	19.826	7.371	0.515
980.000	560.405	80.012	19.995	103.882	19.826	7.357	0.509
982.000	561.416	80.014	19.994	103.875	19.823	7.563	0.506
984.000	562.452	80.014	19.994	103.868	19.825	7.427	0.493
986.000	563.489	80.015	19.994	103.864	19.827	7.262	0.534
988.000	564.478	80.014	19.993	103.864	19.823	7.554	0.501
990.000	565.459	80.015	19.994	103.864	19.824	7.520	0.497
992.000	566.442	80.014	19.994	103.861	19.828	7.218	0.508
994.000	567.470	80.013	19.994	103.870	19.826	7.376	0.528
996.000	568.459	80.012	19.994	103.876	19.827	7.290	0.483
998.000	569.504	80.012	19.994	103.875	19.827	7.292	0.523
1000.000	570.474	80.013	19.994	103.873	19.826	7.364	0.496
1002.000	571.478	80.013	19.994	103.883	19.823	7.600	0.530
1004.000	572.497	80.013	19.993	103.888	19.825	7.423	0.502
1006.000	573.514	80.015	19.994	103.873	19.827	7.279	0.495
1008.000	574.588	80.013	19.993	103.869	19.826	7.379	0.538
1010.000	575.630	80.015	19.994	103.872	19.828	7.171	0.511
1012.000	576.625	80.014	19.993	103.879	19.828	7.239	0.490
1014.000	577.629	80.016	19.994	103.872	19.819	7.837	0.527
1016.000	578.597	80.017	19.993	103.884	19.823	7.571	0.526
1018.000	579.628	80.014	19.992	103.881	19.818	7.912	0.473
1020.000	580.681	80.012	19.993	103.881	19.822	7.618	0.491
1022.000	581.659	80.012	19.993	103.881	19.821	7.699	0.495
1024.001	582.719	80.013	19.993	103.885	19.821	7.705	0.529
1026.000	583.722	80.011	19.993	103.884	19.820	7.809	0.506
1028.000	584.705	80.012	19.994	103.889	19.822	7.649	0.498
1030.001	585.702	80.012	19.995	103.871	19.821	7.732	0.507
1032.000	586.716	80.011	19.994	103.881	19.818	7.954	0.531
1034.001	587.780	80.012	19.995	103.875	19.818	7.973	0.522
1036.000	588.795	80.012	19.994	103.881	19.816	8.081	0.500
1038.000	589.824	80.011	19.994	103.886	19.814	8.199	0.492
1040.001	590.868	80.012	19.994	103.877	19.814	8.216	0.493
1042.000	591.925	80.011	19.994	103.888	19.819	7.840	0.536
1044.000	592.966	80.013	19.994	103.893	19.818	7.919	0.512
1046.000	594.000	80.012	19.994	103.891	19.816	8.055	0.515
1048.001	595.048	80.013	19.994	103.883	19.818	7.943	0.543
1050.000	596.122	80.013	19.994	103.890	19.817	7.983	0.498
1052.001	597.197	80.012	19.994	103.887	19.816	8.068	0.533
1054.001	598.238	80.012	19.994	103.899	19.817	8.033	0.512
1056.000	599.290	80.012	19.995	103.886	19.819	7.867	0.549
1058.000	600.408	80.012	19.994	103.874	19.818	7.930	0.556
1060.001	601.391	80.011	19.994	103.881	19.815	8.165	0.547
1062.000	602.482	80.012	19.995	103.896	19.815	8.158	0.512
1064.000	603.545	80.013	19.995	103.879	19.814	8.250	0.501
1066.000	604.586	80.012	19.994	103.886	19.814	8.206	0.526
1068.000	605.634	80.013	19.995	103.880	19.815	8.141	0.536
1070.000	606.698	80.014	19.995	103.887	19.816	8.094	0.529
1072.000	607.762	80.013	19.995	103.880	19.814	8.226	0.512
1074.000	608.791	80.014	19.995	103.887	19.815	8.139	0.503
1076.000	609.815	80.013	19.994	103.890	19.813	8.312	0.538
1078.001	610.862	80.012	19.995	103.882	19.813	8.268	0.518
1080.000	611.901	80.013	19.993	103.890	19.815	8.159	0.524
1082.000	612.967	80.012	19.993	103.890	19.812	8.362	0.525
1084.000	614.027	80.012	19.993	103.880	19.813	8.333	0.544
1086.000	615.085	80.013	19.993	103.887	19.811	8.479	0.530
1088.000	616.168	80.014	19.994	103.889	19.811	8.462	0.548
1090.000	617.189	80.014	19.993	103.882	19.811	8.438	0.528
1092.000	618.247	80.015	19.993	103.894	19.812	8.357	0.542
1094.000	619.309	80.017	19.993	103.889	19.814	8.193	0.559
1096.000	620.369	80.014	19.993	103.873	19.813	8.295	0.575
1098.000	621.377	80.015	19.993	103.868	19.818	7.946	0.520
1100.000	622.446	80.015	19.993	103.882	19.813	8.276	0.526
1102.000	623.475	80.014	19.993	103.869	19.814	8.241	0.526
1104.000	624.528	80.015	19.993	103.872	19.811	8.434	0.527
1106.000	625.586	80.013	19.993	103.876	19.814	8.201	0.515
1108.000	626.604	80.013	19.994	103.871	19.814	8.219	0.514
1110.000	627.620	80.012	19.993	103.865	19.815	8.190	0.539
1112.000	628.679	80.012	19.993	103.851	19.815	8.127	0.519
1114.000	629.693	80.012	19.994	103.855	19.815	8.142	0.496
1116.001	630.763	80.012	19.993	103.868	19.818	7.951	0.507
1118.000	631.758	80.012	19.993	103.867	19.815	8.143	0.495
1120.001	632.812	80.013	19.994	103.863	19.815	8.189	0.515
1122.001	633.869	80.015	19.994	103.872	19.816	8.112	0.532
1124.000	634.875	80.014	19.994	103.861	19.812	8.341	0.537
1126.000	635.934	80.013	19.993	103.877	19.813	8.298	0.536
1128.000	636.921	80.014	19.995	103.862	19.812	8.379	0.506
1130.000	637.945	80.014	19.993	103.868	19.812	8.383	0.491
1132.001	638.991	80.013	19.994	103.875	19.814	8.243	0.497
1134.000	640.032	80.015	19.995	103.872	19.813	8.318	0.502
1136.000	641.052	80.012	19.994	103.879	19.815	8.183	0.535
1138.000	642.063	80.012	19.994	103.867	19.817	8.008	0.518
1140.000	643.056	80.011	19.994	103.862	19.816	8.097	0.508
1142.000	644.038	80.013	19.994	103.866	19.815	8.125	0.504
1144.000	645.065	80.013	19.994	103.865	19.814	8.225	0.510
1146.001	646.072	80.012	19.994	103.865	19.816	8.109	0.503
1148.000	647.066	80.014	19.993	103.865	19.818	7.955	0.516
1150.000	648.095	80.013	19.993	103.863	19.813	8.317	0.478
1152.001	649.134	80.014	19.994	103.856	19.816	8.067	0.523
1154.000	650.137	80.014	19.993	103.866	19.815	8.152	0.493
1156.000	651.182	80.014	19.994	103.864	19.814	8.198	0.509
1158.000	652.169	80.014	19.993	103.853	19.813	8.278	0.512
1160.000	653.183	80.014	19.994	103.850	19.813	8.324	0.520
1162.001	654.170	80.013	19.995	103.859	19.815	8.173	0.498
1164.000	655.180	80.013	19.995	103.859	19.814	8.216	0.483
1166.001	656.181	80.013	19.994	103.854	19.810	8.512	0.487
1168.000	657.184	80.013	19.995	103.861	19.813	8.306	0.490
1170.000	658.185	80.013	19.995	103.861	19.813	8.288	0.524
1172.000	659.212	80.014	19.995	103.861	19.813	8.280	0.510
1174.000	660.167	80.014	19.994	103.860	19.815	8.172	0.496
1176.001	661.178	80.014	19.995	103.862	19.812	8.355	0.507
1178.000	662.191	80.017	19.994	103.862	19.816	8.083	0.472
1180.001	663.194	80.017	19.993	103.860	19.814	8.193	0.487
1182.000	664.220	80.016	19.993	103.862	19.811	8.483	0.487
1184.000	665.207	80.017	19.993	103.862	19.810	8.507	0.534
1186.000	666.198	80.015	19.993	103.858	19.813	8.304	0.500
1188.000	667.200	80.015	19.994	103.862	19.810	8.491	0.490
1190.001	668.242	80.014	19.994	103.861	19.814	8.237	0.512
1192.000	669.190	80.014	19.994	103.862	19.810	8.497	0.475
1194.000	670.222	80.014	19.994	103.864	19.813	8.326	0.500
1196.000	671.191	80.013	19.994	103.865	19.812	8.352	0.498
1198.000	672.225	80.013	19.994	103.865	19.812	8.386	0.522
1200.000	673.252	80.013	19.995	103.866	19.810	8.548	0.500
1202.001	674.234	80.013	19.994	103.866	19.811	8.461	0.503
1204.000	675.275	80.013	19.994	103.865	19.808	8.676	0.501
1206.000	676.314	80.014	19.994	103.867	19.809	8.568	0.533
1208.000	677.310	80.014	19.994	103.867	19.812	8.352	0.487
1210.000	678.343	80.013	19.993	103.867	19.808	8.694	0.550
1212.001	679.355	80.014	19.993	103.865	19.808	8.678	0.517
1214.000	680.389	80.014	19.993	103.867	19.808	8.640	0.506
1216.000	681.353	80.014	19.993	103.868	19.811	8.459	0.501
1218.000	682.377	80.013	19.994	103.866	19.812	8.380	0.509
1220.001	683.373	80.012	19.993	103.867	19.808	8.636	0.507
1222.001	684.377	80.013	19.994	103.868	19.807	8.727	0.501
1224.000	685.378	80.012	19.994	103.869	19.807	8.773	0.503
1226.000	686.378	80.011	19.994	103.869	19.807	8.757	0.502
1228.000	687.385	80.011	19.994	103.868	19.805	8.870	0.502
1230.000	688.356	80.012	19.994	103.872	19.806	8.808	0.507
1232.001	689.378	80.014	19.995	103.866	19.805	8.884	0.506
1234.000	690.372	80.013	19.994	103.864	19.807	8.773	0.492
1236.000	691.369	80.013	19.995	103.863	19.804	8.969	0.470
1238.000	692.351	80.014	19.994	103.863	19.802	9.111	0.481
1240.000	693.374	80.015	19.994	103.863	19.801	9.188	0.542
1242.000	694.353	80.014	19.994	103.862	19.803	9.038	0.460
1244.001	695.367	80.015	19.994	103.863	19.806	8.848	0.527
1246.000	696.385	80.016	19.993	103.862	19.804	8.975	0.510
1248.000	697.393	80.014	19.993	103.865	19.803	9.003	0.493
1250.001	698.368	80.013	19.995	103.865	19.803	9.055	0.497
1252.001	699.395	80.014	19.994	103.867	19.801	9.206	0.519
1254.000	700.402	80.015	19.995	103.872	19.797	9.460	0.510
1256.000	701.447	80.014	19.995	103.863	19.803	9.039	0.566
1258.000	702.404	80.015	19.995	103.863	19.801	9.211	0.502
1260.000	703.460	80.015	19.994	103.863	19.801	9.150	0.550
1262.000	704.466	80.015	19.995	103.861	19.800	9.275	0.511
1264.000	705.441	80.016	19.995	103.863	19.802	9.109	0.488
1266.000	706.394	80.016	19.994	103.865	19.799	9.337	0.465
1268.000	707.464	80.015	19.995	103.870	19.802	9.128	0.499
1270.000	708.481	80.014	19.994	103.873	19.799	9.291	0.514
1272.000	709.528	80.015	19.995	103.865	19.801	9.166	0.534
1274.000	710.487	80.013	19.994	103.866	19.802	9.131	0.499
1276.001	711.476	80.014	19.994	103.868	19.800	9.272	0.503
1278.000	712.506	80.013	19.993	103.866	19.797	9.437	0.476
1280.000	713.495	80.013	19.993	103.867	19.800	9.266	0.499
1282.001	714.538	80.012	19.993	103.865	19.800	9.278	0.508
1284.001	715.507	80.014	19.992	103.870	19.798	9.389	0.499
1286.000	716.535	80.014	19.994	103.867	19.796	9.570	0.513
1288.000	717.576	80.014	19.993	103.873	19.797	9.493	0.487
1290.000	718.542	80.013	19.994	103.874	19.795	9.633	0.511
1292.000	719.512	80.013	19.993	103.870	19.797	9.488	0.472
1294.000	720.535	80.014	19.993	103.871	19.797	9.439	0.533
1296.001	721.525	80.013	19.994	103.885	19.799	9.341	0.504
1298.001	722.536	80.014	19.994	103.888	19.795	9.613	0.495
1300.001	723.564	80.014	19.995	103.881	19.799	9.358	0.518
1302.001	724.565	80.014	19.994	103.879	19.797	9.447	0.518
1304.000	725.549	80.014	19.994	103.865	19.797	9.434	0.522
1306.000	726.591	80.012	19.994	103.873	19.800	9.259	0.521
1308.000	727.611	80.013	19.993	103.866	19.798	9.429	0.510
1310.000	728.647	80.014	19.994	103.874	19.799	9.350	0.515
1312.001	729.653	80.013	19.993	103.882	19.796	9.544	0.503
1314.001	730.661	80.015	19.995	103.878	19.793	9.781	0.519
1316.000	731.678	80.014	19.994	103.890	19.795	9.625	0.520
1318.000	732.670	80.015	19.993	103.868	19.795	9.590	0.515
1320.001	733.708	80.016	19.993	103.875	19.793	9.761	0.507
1322.000	734.712	80.015	19.993	103.879	19.793	9.753	0.480
1324.001	735.727	80.017	19.993	103.873	19.792	9.872	0.515
1326.001	736.699	80.015	19.994	103.877	19.791	9.931	0.482
1328.000	737.687	80.016	19.994	103.881	19.792	9.865	0.510
1330.000	738.734	80.014	19.993	103.873	19.788	10.112	0.496
1332.000	739.713	80.014	19.994	103.877	19.789	10.088	0.476
1334.000	740.672	80.014	19.995	103.885	19.789	10.060	0.481
1336.000	741.684	80.014	19.994	103.897	19.792	9.841	0.483
1338.000	742.700	80.013	19.995	103.881	19.793	9.768	0.497
1340.000	743.700	80.014	19.995	103.890	19.786	10.307	0.500