File: 01_Data/LW_Gypsum/Cone/LW_Gypsum_Cone_HF50Scan_220506_R3.csv
Names,Time,Stack TC,Smoke TC,Exh Press,Smoke Comp,Smoke Meas,CO Meter,CO2 Meter,O2 Meter,Sample Mass,Ext Coeff,Start Test,Flame Verif
Chan Gain,,500,500,1,1,1,1,1,1,1,1,1.0,1.0
Offset,,0,0,0.135316,0,0,0,0,0,0,0,0.0,0.0
Gain,,1,1,25.011,13.8443,15.4071,1,1,1,1.00079,1.02936,1.0,1.0
Units,sec,C,C,Pa,%,%,%,%,%,g,/m,,
Baseline,,31.0786,32.1165,136.308,104.387,104.47,0.000196138,0.0418081,21.0043,-447.133,-0.00722223,,
2,0.25,30.1266,31.3041,138.811,104.618,104.717,0.000161841,0.0440265,21.0021,114.831,-0.00854469,0.0,0.0
4,0.75,29.2789,30.1584,137.084,104.603,104.513,0.000138002,0.0438834,21.0024,114.821,0.00774779,0.0,0.0
6,1.25,28.4092,29.7826,135.864,104.607,104.642,0.000129459,0.0436862,21.0026,114.831,-0.00301118,0.0,0.0
8,1.75,28.7154,29.3313,135.222,104.602,104.672,0.000132229,0.0435265,21.0028,114.801,-0.00607721,0.0,0.0
10,2.25,28.7735,29.8951,134.744,104.604,104.502,0.000139543,0.0433614,21.0029,114.891,0.0088318,0.0,0.0
12,2.75,27.6935,29.6414,136.828,104.591,104.606,0.000150029,0.0431956,21.0031,114.841,-0.00130468,0.0,0.0
14,3.25,28.3568,29.1024,134.965,104.604,104.609,0.000155988,0.0430613,21.0031,114.841,-0.000462323,0.0,0.0
16,3.75,28.6728,29.349,136.801,104.577,104.657,0.000158534,0.0428984,21.0032,114.781,-0.00693572,0.0,0.0
18,4.25,28.9136,30.0712,138.905,104.599,104.329,0.000158696,0.0427664,21.0033,114.821,0.0233577,0.0,0.0
20,4.75,28.5813,29.7212,134.454,104.56,104.566,0.000157115,0.0426594,21.0033,114.761,-0.000521528,0.0,0.0
22,5.25,28.5562,30.1385,136.635,104.576,104.564,0.000155835,0.0425322,21.0034,114.801,0.00106772,0.0,0.0
24,5.75,29.1423,29.5668,131.002,104.558,104.607,0.000159614,0.0424291,21.0034,114.71,-0.00423553,0.0,0.0
26,6.25,28.8259,29.9445,134.536,104.566,104.548,0.000162675,0.0423185,21.0034,114.791,0.00149606,0.0,0.0
28,6.75,28.9589,30.1194,138.084,104.545,104.414,0.000172378,0.0422289,21.0035,114.72,0.011366,0.0,0.0
30,7.25,28.7843,30.1692,136.806,104.547,104.508,0.000180238,0.0421021,21.0035,114.741,0.00341906,0.0,0.0
32,7.75,28.9681,30.3226,134.981,104.529,104.804,0.000186604,0.0419995,21.0035,114.741,-0.0237431,0.0,0.0
34,8.25,29.3652,29.8905,134.868,104.532,104.495,0.000192966,0.0419298,21.0035,114.68,0.0031662,0.0,0.0
36,8.75,29.3134,29.9802,136.095,104.506,104.409,0.000198119,0.0418734,21.0035,114.741,0.008378,0.0,0.0
38,9.25,28.9881,29.8131,134.314,104.513,104.399,0.000202292,0.0418684,21.0035,114.741,0.00981676,0.0,0.0
40,9.75,29.3033,30.0423,132.223,104.492,104.737,0.000207574,0.0418643,21.0035,114.69,-0.0212008,0.0,0.0
42,10.25,28.8766,29.798,137.67,104.49,104.461,0.000213564,0.0418539,21.0041,114.68,0.00251841,0.0,0.0
44,10.75,28.8803,30.056,134.64,104.47,104.436,0.000215881,0.0418391,21.0047,114.68,0.00292086,0.0,0.0
46,11.25,29.2459,29.9142,135.297,104.476,104.333,0.000215475,0.041827,21.0051,114.69,0.0123722,0.0,0.0
48,11.75,28.9423,29.9238,137.413,104.457,104.255,0.000201762,0.0418173,21.0055,114.62,0.017453,0.0,0.0
50,12.25,29.3527,30.3188,135.357,104.46,104.227,0.00019599,0.0417552,21.0057,114.62,0.0202254,0.0,0.0
52,12.75,29.373,29.8502,136.044,104.446,104.325,0.000186119,0.0417049,21.0059,114.62,0.0105113,0.0,0.0
54,13.25,28.8607,29.9911,135.784,104.441,104.609,0.000160073,0.0416641,21.0058,114.59,-0.0145139,0.0,0.0
56,13.75,29.2964,30.2295,136.242,104.432,104.423,0.000138976,0.0416311,21.0056,114.54,0.000730842,0.0,0.0
58,14.25,28.8711,30.5882,139.398,104.43,103.903,0.000113466,0.0416187,21.0054,114.57,0.0456687,0.0,0.0
60,14.75,29.1511,30.5235,131.414,104.404,103.945,9.28029e-05,0.0416226,21.0052,114.48,0.0398408,0.0,0.0
62,15.25,28.7376,29.8337,138.205,104.412,104.091,8.0498e-05,0.0416236,21.0051,114.52,0.0277638,0.0,0.0
64,15.75,29.3101,30.3589,136.079,104.394,104.182,7.452e-05,0.0416525,21.005,114.5,0.0183199,0.0,0.0
66,16.25,29.4044,30.5134,134.804,104.4,104.438,7.79115e-05,0.0416759,21.0049,114.51,-0.00334659,0.0,0.0
68,16.75,29.5661,29.8897,140.223,104.377,103.945,8.8069e-05,0.0416813,21.0048,114.46,0.0375011,0.0,0.0
70,17.25,29.2382,29.8463,135.913,104.382,104.339,9.62966e-05,0.0416857,21.0047,114.43,0.00374185,0.0,0.0
72,17.75,29.1545,30.6578,133.578,104.358,104.474,0.00012102,0.0416964,21.0047,114.42,-0.0100941,0.0,0.0
74,18.25,29.4587,30.5886,130.857,104.36,104.19,0.000153094,0.0417114,21.0047,114.39,0.0147851,0.0,0.0
76,18.75,29.1209,30.4723,133.068,104.345,103.775,0.000189915,0.0417236,21.0046,114.39,0.049517,0.0,0.0
78,19.25,29.5156,30.5177,135.262,104.339,103.907,0.00021974,0.0417606,21.0046,114.41,0.0374807,0.0,0.0
80,19.75,29.3122,30.5611,133.748,104.328,103.459,0.000270419,0.0417906,21.0046,114.38,0.0755153,0.0,0.0
82,20.25,29.5851,30.8413,136.219,104.326,103.399,0.000311469,0.0418419,21.0046,114.37,0.0805821,0.0,0.0
84,20.75,29.5474,30.4246,131.951,104.321,103.407,0.00034802,0.0418836,21.0046,114.26,0.0794821,0.0,0.0
86,21.25,29.5995,30.5819,133.08,104.311,103.145,0.000410522,0.0419715,21.0046,114.18,0.101506,0.0,0.0
88,21.75,29.6568,30.5926,134.721,104.301,103.108,0.000461149,0.0420427,21.0045,114.24,0.10384,0.0,0.0
90,22.25,29.771,30.105,134.246,104.291,102.998,0.000527587,0.0422087,21.0045,114.28,0.112643,0.0,0.0
92,22.75,29.6564,30.9892,133.655,104.275,102.829,0.000604289,0.0423433,21.0045,114.26,0.126137,0.0,0.0
94,23.25,29.6849,30.1829,138.176,104.277,102.311,0.00069252,0.0424951,21.0045,114.22,0.171933,0.0,0.0
96,23.75,29.9406,30.5679,134.114,104.256,101.635,0.000787478,0.04258,21.0037,114.14,0.229937,0.0,0.0
98,24.25,29.7208,30.7302,137.83,104.237,101.614,0.000889893,0.0427254,21.0029,114.09,0.230129,0.0,0.0
100,24.75,30.0708,30.7507,136.831,104.225,101.396,0.000995799,0.0429515,21.0019,114.1,0.248512,0.0,0.0
102,25.25,29.8112,30.7318,138.473,104.217,101.192,0.00110903,0.0431347,21.0011,114.06,0.265965,0.0,0.0
104,25.75,29.7727,30.3128,136.084,104.197,101.155,0.00122546,0.0435902,20.9996,114.08,0.267517,0.0,0.0
106,26.25,29.3382,30.8367,136.971,104.19,100.463,0.00134086,0.0442354,20.9983,114.08,0.328925,0.0,0.0
108,26.75,29.5675,30.2882,134.884,104.181,99.9522,0.00145331,0.0467228,20.9934,114.01,0.374135,0.0,0.0
110,27.25,29.8922,30.7631,133.369,104.163,99.2036,0.00155847,0.050506,20.9894,114.05,0.44051,0.0,0.0
112,27.75,29.3031,30.8964,139.708,104.169,99.1467,0.00165632,0.060496,20.97,113.98,0.446202,0.0,0.0
114,28.25,29.8631,30.7641,137.539,104.143,101.541,0.00173558,0.074821,20.9543,113.9,0.228437,0.0,0.0
116,28.75,29.8248,30.5469,127.23,104.124,106.389,0.00181643,0.0864242,20.9416,113.78,-0.194269,0.0,1.0
118,29.25,29.5461,30.7632,120.572,104.12,106.927,0.0018969,0.114123,20.9056,113.8,-0.240176,0.0,1.0
120,29.75,30.0888,30.5536,121.37,104.109,108.612,0.00197553,0.136559,20.8764,113.67,-0.382283,0.0,1.0
122,30.25,30.0155,31.2215,121.541,104.098,108.148,0.00205134,0.172887,20.8323,113.56,-0.344611,0.0,1.0
124,30.75,30.622,31.2594,114.687,104.095,109.318,0.00211274,0.202313,20.7965,113.54,-0.442087,0.0,1.0
126,31.25,31.0925,31.3149,118.865,104.075,108.836,0.00218562,0.241285,20.7676,113.45,-0.403915,0.0,1.0
128,31.75,31.7513,31.7258,114.803,104.067,108.735,0.00224466,0.272852,20.7365,113.339,-0.396146,0.0,1.0
130,32.25,32.1944,31.9872,115.1,104.051,108.811,0.00229248,0.302789,20.7046,113.209,-0.403863,0.0,1.0
132,32.75,32.8453,32.6712,117.334,104.045,108.369,0.00234949,0.33097,20.6746,113.119,-0.367664,0.0,1.0
134,33.25,33.4408,33.2503,117.228,104.026,109.14,0.00239568,0.353796,20.6468,113.029,-0.433295,0.0,1.0
136,33.75,33.5613,33.7457,117.608,104.016,108.655,0.00243431,0.374534,20.6242,112.999,-0.394016,0.0,1.0
138,34.25,34.42,33.8447,115.124,103.996,108.203,0.0024656,0.391333,20.6059,112.869,-0.358037,0.0,1.0
140,34.75,34.8481,34.9035,116.027,103.992,108.63,0.00248728,0.404939,20.5911,112.749,-0.394002,0.0,0.0
142,35.25,35.6461,34.4621,119.714,103.968,108.099,0.00250485,0.413104,20.5791,112.719,-0.351821,0.0,0.0
144,35.75,37.0136,34.7896,116.643,103.974,109.046,0.00251908,0.419717,20.5693,112.619,-0.430099,0.0,0.0
146,36.25,37.207,36.0321,117.574,103.949,108.124,0.00253548,0.422058,20.5661,112.569,-0.355591,0.0,0.0
148,36.75,36.6457,36.8535,122.35,103.938,108.079,0.00254876,0.421241,20.5675,112.479,-0.352814,0.0,0.0
150,37.25,38.0104,37.1083,119.866,103.916,107.294,0.00260955,0.414019,20.5738,112.449,-0.288882,0.0,0.0
152,37.75,38.2162,37.2127,124.879,103.911,107.155,0.00265879,0.40817,20.5834,112.399,-0.277567,0.0,0.0
154,38.25,38.3261,37.5841,124.886,103.892,106.889,0.00281118,0.39849,20.5962,112.319,-0.256842,0.0,0.0
156,38.75,39.156,38.0041,124.539,103.884,106.924,0.00293462,0.386203,20.6112,112.309,-0.260439,0.0,0.0
158,39.25,39.0011,38.364,123.09,103.87,107.47,0.00312699,0.37625,20.6301,112.229,-0.307711,0.0,0.0
160,39.75,38.9929,39.0645,127.427,103.864,106.088,0.00325277,0.358039,20.6517,112.118,-0.191291,0.0,0.0
162,40.25,38.8109,39.7787,125.698,103.839,105.914,0.00357826,0.343287,20.6609,112.068,-0.178642,0.0,0.0
164,40.75,39.2198,39.6745,124.192,103.835,105.41,0.00394128,0.323533,20.6817,112.018,-0.135895,0.0,0.0
166,41.25,39.8063,39.5111,129.182,103.809,106.062,0.00423532,0.307532,20.7031,112.048,-0.193868,0.0,0.0
168,41.75,40.1223,39.8481,135.491,103.815,104.811,0.00473799,0.290353,20.7296,112.028,-0.0861998,0.0,0.0
170,42.25,40.1222,39.9032,132.865,103.793,104.758,0.00514515,0.272642,20.751,111.998,-0.0835731,0.0,0.0
172,42.75,39.7427,39.7204,130.899,103.791,104.547,0.00564618,0.254862,20.7684,111.938,-0.0655823,0.0,0.0
174,43.25,40.1008,39.7059,136.299,103.763,104.463,0.00620614,0.245656,20.789,111.898,-0.060737,0.0,0.0
176,43.75,40.1287,39.9946,134.551,103.76,104.226,0.0066597,0.229914,20.8057,111.888,-0.0404104,0.0,0.0
178,44.25,39.4295,40.2001,132.724,103.742,103.988,0.00724257,0.211838,20.8224,111.848,-0.0213928,0.0,0.0
180,44.75,39.9436,40.2461,134.878,103.749,104.166,0.0077147,0.197196,20.8389,111.858,-0.0361871,0.0,0.0
182,45.25,39.8366,39.844,132.51,103.72,104.177,0.00822622,0.18353,20.8538,111.808,-0.0397439,0.0,0.0
184,45.75,39.3317,39.3213,133.715,103.735,104.32,0.00864056,0.170835,20.8674,111.818,-0.0507593,0.0,0.0
186,46.25,39.3596,39.6517,132.734,103.697,103.999,0.00904342,0.160552,20.8793,111.788,-0.0261938,0.0,0.0
188,46.75,39.2546,38.8415,140.572,103.699,104.042,0.00936974,0.150255,20.8897,111.718,-0.0298017,0.0,0.0
190,47.25,38.8687,39.6603,134.649,103.678,104.193,0.00966455,0.141914,20.8986,111.618,-0.0447715,0.0,0.0
192,47.75,39.0844,39.3781,132.63,103.677,103.983,0.00990334,0.134198,20.9063,111.628,-0.0266494,0.0,0.0
194,48.25,39.0382,38.6998,133.249,103.65,104.045,0.0101031,0.127948,20.9129,111.598,-0.034356,0.0,0.0
196,48.75,38.185,39.575,132.859,103.657,104.634,0.0102649,0.122373,20.9187,111.588,-0.0847144,0.0,0.0
198,49.25,38.568,39.0587,133.578,103.632,104.226,0.010396,0.117856,20.9234,111.508,-0.0515977,0.0,0.0
200,49.75,38.6272,39.2685,135.576,103.634,103.915,0.0104742,0.113934,20.9272,111.448,-0.0244079,0.0,0.0
202,50.25,38.4181,38.8925,135.271,103.62,104.432,0.0105376,0.110757,20.9303,111.448,-0.0704122,0.0,0.0
204,50.75,38.4307,39.1794,130.895,103.618,104.199,0.0105686,0.108082,20.9328,111.478,-0.0504865,0.0,0.0
206,51.25,38.206,38.9699,132.376,103.605,103.874,0.0105937,0.105823,20.9348,111.448,-0.0233891,0.0,0.0
208,51.75,38.6883,39.3103,134.605,103.607,104.059,0.0106053,0.10384,20.9365,111.378,-0.0393347,0.0,0.0
210,52.25,38.1797,39.2911,134.862,103.596,104.149,0.010607,0.102096,20.9382,111.308,-0.0481179,0.0,0.0
212,52.75,37.9219,39.1975,132.481,103.594,103.753,0.0105989,0.100684,20.9397,111.298,-0.0138358,0.0,0.0
214,53.25,37.876,38.704,130.683,103.573,104.067,0.010584,0.0994451,20.9417,111.258,-0.0429333,0.0,0.0
216,53.75,37.5349,38.5585,132.827,103.58,104.342,0.0105566,0.0983563,20.9433,111.278,-0.0661786,0.0,0.0
218,54.25,37.7072,38.74,131.919,103.563,104.122,0.0105205,0.0974453,20.9447,111.218,-0.0485936,0.0,0.0
220,54.75,37.7072,39.2917,135.074,103.555,103.89,0.0104913,0.0966812,20.9458,111.168,-0.0291284,0.0,0.0
222,55.25,37.4558,39.0304,134.685,103.544,104.159,0.0104677,0.0959748,20.9466,111.188,-0.0534312,0.0,0.0
224,55.75,37.2504,38.0777,134.158,103.556,103.708,0.010384,0.095324,20.9463,111.168,-0.0132219,0.0,0.0
226,56.25,37.4636,38.4278,134.165,103.539,103.751,0.0103162,0.0947823,20.9452,111.148,-0.0184645,0.0,0.0
228,56.75,37.4415,38.1491,136.503,103.53,103.989,0.0102613,0.0943305,20.9443,111.108,-0.0399168,0.0,0.0
230,57.25,37.2481,38.3632,133.119,103.509,104.255,0.0101738,0.0939644,20.9433,111.118,-0.0648786,0.0,0.0
232,57.75,37.1135,38.1153,131.315,103.52,104.539,0.010103,0.0936679,20.9426,111.058,-0.0884056,0.0,0.0
234,58.25,36.8075,38.4724,134.933,103.503,104.61,0.0100241,0.093413,20.942,111.068,-0.0960509,0.0,0.0
236,58.75,36.7554,38.0577,134.991,103.491,104.551,0.00996019,0.0932066,20.9415,111.048,-0.0920412,0.0,0.0
238,59.25,37.2563,38.3671,136.163,103.48,103.966,0.00989202,0.0929665,20.9411,110.998,-0.0423433,0.0,0.0
240,59.75,36.9586,38.7441,133.46,103.473,104.132,0.0098368,0.0927066,20.9408,110.948,-0.057336,0.0,0.0
242,60.25,36.5023,38.263,132.708,103.474,104.035,0.00977692,0.092496,20.9405,110.938,-0.048823,0.0,0.0
244,60.75,36.5294,37.6825,137.942,103.465,103.862,0.00972842,0.0921734,20.9403,110.928,-0.0345256,0.0,0.0
246,61.25,36.2448,38.0221,132.815,103.453,103.573,0.00965884,0.0919121,20.9402,110.897,-0.0104578,0.0,0.0
248,61.75,36.3892,37.8456,136.79,103.449,103.861,0.00960249,0.0916059,20.94,110.877,-0.0359201,0.0,0.0
250,62.25,36.8913,37.7054,133.066,103.441,103.504,0.00952832,0.0912727,20.9399,110.867,-0.00542612,0.0,0.0
252,62.75,36.61,38.1258,136.941,103.436,103.704,0.00944256,0.0907819,20.9398,110.817,-0.0233627,0.0,0.0
254,63.25,36.4386,37.5186,135.672,103.434,103.642,0.0093731,0.0903843,20.9397,110.787,-0.0181415,0.0,0.0
256,63.75,36.3697,37.9318,135.745,103.426,103.71,0.00924259,0.0899024,20.9401,110.767,-0.0247841,0.0,0.0
258,64.25,36.3044,37.5162,136.391,103.418,103.808,0.00913688,0.0893683,20.9409,110.757,-0.0340324,0.0,0.0
260,64.75,36.1165,37.2371,138.581,103.41,103.606,0.00902084,0.0887541,20.9415,110.727,-0.0170144,0.0,0.0
262,65.25,36.3644,37.9433,136.165,103.404,103.653,0.00889947,0.0880933,20.9424,110.597,-0.0217063,0.0,0.0
264,65.75,36.5353,37.6393,134.891,103.394,103.755,0.00878531,0.087558,20.9431,110.517,-0.0314386,0.0,0.0
266,66.25,36.1789,37.6178,136.367,103.396,104.078,0.00867858,0.0869177,20.9442,110.527,-0.0593181,0.0,0.0
268,66.75,36.8058,37.8035,132.526,103.389,104.062,0.00858355,0.086399,20.945,110.547,-0.0585212,0.0,0.0
270,67.25,36.2064,37.4436,131.347,103.39,103.884,0.00849885,0.0859499,20.9457,110.467,-0.0430501,0.0,0.0
272,67.75,35.6739,37.6153,135.423,103.382,103.758,0.00843024,0.08556,20.9463,110.467,-0.0327959,0.0,0.0
274,68.25,35.701,37.3242,134.363,103.38,103.694,0.00837091,0.0852442,20.9467,110.497,-0.0273727,0.0,0.0
276,68.75,35.3542,37.2737,134.803,103.373,103.625,0.00832285,0.0848506,20.9471,110.437,-0.0219836,0.0,0.0
278,69.25,35.469,37.3794,136.419,103.38,103.542,0.00828016,0.0845318,20.9474,110.327,-0.01406,0.0,0.0
280,69.75,35.5589,37.5019,130.802,103.366,103.826,0.00824558,0.0843011,20.9476,110.487,-0.0400471,0.0,0.0
282,70.25,35.0543,36.9654,133.209,103.37,103.862,0.00823084,0.0841143,20.9477,110.357,-0.0428997,0.0,0.0
284,70.75,35.5858,37.7287,134.885,103.35,103.682,0.00819244,0.0840318,20.9479,110.317,-0.0290064,0.0,0.0
286,71.25,35.1686,37.1974,133.46,103.375,103.45,0.00813114,0.083965,20.9481,110.377,-0.00654523,0.0,0.0
288,71.75,35.5275,37.2361,133.3,103.363,103.684,0.00811465,0.083842,20.9481,110.357,-0.0279482,0.0,0.0
290,72.25,35.7407,37.2906,134.791,103.353,103.709,0.00804407,0.0837424,20.9483,110.357,-0.0309665,0.0,0.0
292,72.75,35.6779,37.3639,134.485,103.362,104.226,0.00802508,0.0835602,20.9483,110.307,-0.0751107,0.0,0.0
294,73.25,34.9607,37.3126,135.772,103.347,103.442,0.00796633,0.0834345,20.9484,110.277,-0.00831952,0.0,0.0
296,73.75,35.0423,36.2629,136.638,103.338,104.15,0.00791874,0.0832195,20.9484,110.267,-0.0706948,0.0,0.0
298,74.25,35.5721,36.8936,133.909,103.343,103.71,0.00785768,0.0828841,20.9487,110.227,-0.0320537,0.0,0.0
300,74.75,35.4154,36.9239,136.078,103.341,104.029,0.00780821,0.0827391,20.9491,110.207,-0.0598723,0.0,0.0
302,75.25,35.3308,36.6408,136.65,103.342,103.587,0.0077596,0.0822983,20.9494,110.167,-0.0213912,0.0,0.0
304,75.75,35.4577,36.5941,129.365,103.331,103.843,0.00771252,0.0821249,20.9497,110.087,-0.0447017,0.0,0.0
306,76.25,35.0527,36.7888,134.884,103.341,103.68,0.00766778,0.0818284,20.9499,110.087,-0.0296176,0.0,0.0
308,76.75,35.0577,36.8611,134.479,103.329,103.701,0.00762559,0.0814369,20.9503,110.057,-0.0324523,0.0,0.0
310,77.25,34.9868,36.4601,132.252,103.35,103.527,0.00759141,0.0811198,20.9506,110.057,-0.0154465,0.0,0.0
312,77.75,35.3222,36.668,132.94,103.333,103.491,0.00755059,0.0807254,20.9508,110.007,-0.0138056,0.0,0.0
314,78.25,34.984,36.3316,137.267,103.338,103.307,0.00750568,0.080406,20.951,109.977,0.00277344,0.0,0.0
316,78.75,35.0329,36.9289,133.878,103.342,103.465,0.00746931,0.0801187,20.9516,109.997,-0.0107704,0.0,0.0
318,79.25,34.2616,36.7732,133.049,103.348,103.735,0.0074359,0.0798604,20.952,110.007,-0.0338168,0.0,0.0
320,79.75,34.5448,36.0439,135.27,103.33,104.013,0.00740529,0.0796512,20.9524,109.917,-0.0594448,0.0,0.0
322,80.25,35.062,36.4992,130.986,103.35,103.76,0.0073805,0.0794817,20.9527,109.927,-0.0357229,0.0,0.0
324,80.75,35.176,36.1602,136.171,103.342,103.606,0.00736042,0.0793444,20.953,109.897,-0.0230761,0.0,0.0
326,81.25,34.9994,36.4859,131.228,103.35,104.439,0.00734284,0.0792332,20.9532,109.907,-0.0946144,0.0,0.0
328,81.75,34.0117,36.2622,132.402,103.334,103.758,0.00732742,0.0790853,20.9538,109.937,-0.0369987,0.0,0.0
330,82.25,34.4249,37.0123,133.727,103.352,103.964,0.00731492,0.0789134,20.9543,109.857,-0.0533565,0.0,0.0
332,82.75,34.3748,36.7307,133.312,103.346,103.972,0.0073073,0.0787597,20.9547,109.937,-0.0544902,0.0,0.0
334,83.25,34.6123,36.3475,132.979,103.351,103.783,0.00730113,0.0786221,20.955,109.787,-0.0376164,0.0,0.0
336,83.75,33.9895,36.3836,135.741,103.334,104.111,0.00730737,0.0785107,20.9552,109.737,-0.0677168,0.0,0.0
338,84.25,34.4799,36.4635,137.556,103.356,103.317,0.00731242,0.0784205,20.9555,109.787,0.00334266,0.0,0.0
340,84.75,34.3295,36.4643,132.804,103.353,103.554,0.00731651,0.0783908,20.9556,109.797,-0.0175661,0.0,0.0
342,85.25,34.6504,36.5052,133.964,103.35,103.705,0.00733107,0.0784058,20.9558,109.737,-0.0308974,0.0,0.0
344,85.75,34.1968,36.4828,137.601,103.356,103.851,0.00734286,0.078418,20.9559,109.677,-0.0431815,0.0,0.0
346,86.25,34.6852,36.2291,132.659,103.364,104.053,0.00734649,0.0784828,20.956,109.596,-0.0600381,0.0,0.0
348,86.75,34.2711,36.1758,135.409,103.352,103.579,0.00734411,0.0785353,20.956,109.596,-0.0198123,0.0,0.0
350,87.25,33.9907,36.2024,134.371,103.364,103.76,0.00732247,0.078491,20.9561,109.576,-0.0345051,0.0,0.0
352,87.75,34.2757,36.137,134.378,103.365,103.453,0.00728721,0.078377,20.9561,109.576,-0.00763594,0.0,0.0
354,88.25,33.7575,35.9051,133.66,103.364,103.844,0.0072383,0.0782847,20.9562,109.556,-0.0417896,0.0,0.0
356,88.75,34.2011,35.8275,134.007,103.36,103.565,0.00718037,0.0780942,20.9567,109.536,-0.0178778,0.0,0.0
358,89.25,34.0284,35.3094,134.309,103.382,103.702,0.00709233,0.0778358,20.957,109.406,-0.0279207,0.0,0.0
360,89.75,33.5583,35.0956,137.306,103.366,103.539,0.00702103,0.0775686,20.9573,109.256,-0.0150686,0.0,0.0
362,90.25,34.0517,35.8612,136.057,103.381,103.377,0.00693216,0.0773002,20.9576,109.386,0.000339058,0.0,0.0
364,90.75,33.4072,36.0208,132.131,103.369,103.977,0.00686017,0.0770322,20.9578,109.416,-0.0529418,0.0,0.0
366,91.25,33.7946,35.7599,136.022,103.389,103.798,0.00680186,0.0767695,20.9579,109.416,-0.0356046,0.0,0.0
368,91.75,33.7434,35.423,136.988,103.384,103.426,0.00672852,0.0765496,20.9581,109.396,-0.00367233,0.0,0.0
370,92.25,33.2715,35.614,134.008,103.386,103.679,0.00666911,0.0763649,20.9582,109.376,-0.0255456,0.0,0.0
372,92.75,33.7912,35.2775,133.849,103.384,103.593,0.00661837,0.0761864,20.9583,109.406,-0.0182741,0.0,0.0
374,93.25,33.1989,35.6301,135.91,103.397,103.498,0.00657491,0.0760158,20.9583,109.326,-0.00884799,0.0,0.0
376,93.75,33.8737,35.8194,133.243,103.385,103.528,0.00653841,0.0758777,20.9584,109.286,-0.0125056,0.0,0.0
378,94.25,33.418,36.0077,135.259,103.402,103.679,0.00650766,0.0756971,20.9584,109.206,-0.0241435,0.0,0.0
380,94.75,33.7505,35.4242,134.866,103.413,104.049,0.00648145,0.0755509,20.9585,109.196,-0.0553907,0.0,0.0
382,95.25,33.8177,35.4585,131.363,103.433,103.803,0.00645903,0.0754108,20.9585,109.226,-0.0321769,0.0,0.0
384,95.75,33.8767,35.4617,131.312,103.41,103.683,0.00644023,0.0752777,20.9585,109.086,-0.0237738,0.0,0.0
386,96.25,32.8286,35.2933,135.229,103.42,103.659,0.00642441,0.0751411,20.959,109.206,-0.0208372,0.0,0.0
388,96.75,32.9656,35.3807,134.565,103.432,104.187,0.00641352,0.0750044,20.9594,109.166,-0.0657194,0.0,0.0
390,97.25,33.5602,35.7517,137.31,103.456,104.254,0.00640644,0.074901,20.9597,109.146,-0.0694012,0.0,0.0
392,97.75,33.2174,35.5862,133.822,103.439,103.756,0.0064007,0.0748236,20.9599,109.056,-0.0275698,0.0,0.0
394,98.25,33.9467,35.0158,132.827,103.432,103.741,0.00639017,0.0747321,20.9601,109.026,-0.0268917,0.0,0.0
396,98.75,33.61,35.8224,131.236,103.445,104.39,0.00637634,0.074632,20.9609,109.056,-0.0821625,0.0,0.0
398,99.25,33.8192,35.3223,136.467,103.444,104.21,0.00635402,0.0745509,20.9615,109.036,-0.0666053,0.0,0.0
400,99.75,33.5402,35.4267,132.863,103.463,103.938,0.00632594,0.0743077,20.962,109.056,-0.0414079,0.0,0.0
402,100.25,33.4182,35.071,133.61,103.469,104.348,0.00629209,0.0741107,20.9624,109.016,-0.0763623,0.0,0.0
404,100.75,33.4115,34.8983,139.75,103.475,103.715,0.00625467,0.0738278,20.9627,108.966,-0.0209111,0.0,0.0
406,101.25,33.7096,35.4492,137.15,103.478,103.993,0.00622436,0.0735985,20.9634,108.916,-0.0448537,0.0,0.0
408,101.75,33.1583,34.9332,134.628,103.485,103.882,0.00618218,0.0734129,20.964,108.916,-0.0345467,0.0,0.0
410,102.25,33.3641,35.7535,129.598,103.485,103.641,0.00613215,0.0731254,20.9643,108.846,-0.0136019,0.0,0.0
412,102.75,33.574,35.3871,137.032,103.514,104.064,0.00609162,0.0728925,20.9645,108.886,-0.0478469,0.0,0.0
414,103.25,33.6401,35.2901,135.883,103.496,103.788,0.00602161,0.0725942,20.9647,108.866,-0.0254927,0.0,0.0
416,103.75,33.3039,35.4795,136.536,103.518,103.624,0.00596489,0.0723526,20.9649,108.856,-0.0092111,0.0,0.0
418,104.25,33.0844,35.5492,133.098,103.526,103.809,0.0058955,0.0720344,20.965,108.796,-0.0245979,0.0,0.0
420,104.75,33.8315,35.2239,131.682,103.546,103.969,0.00581817,0.0716662,20.9655,108.786,-0.0368009,0.0,0.0
422,105.25,33.6629,35.2604,136.119,103.545,104.058,0.00578521,0.071368,20.9658,108.756,-0.0446271,0.0,0.0
424,105.75,32.6569,34.8428,137.928,103.564,103.756,0.00569435,0.0709074,20.9662,108.756,-0.0166968,0.0,0.0
426,106.25,33.2026,35.0402,135.355,103.587,104.221,0.00558972,0.0705342,20.9665,108.766,-0.0550897,0.0,0.0
428,106.75,33.1458,35.0629,135.71,103.593,103.685,0.00550497,0.0700735,20.9667,108.746,-0.00805233,0.0,0.0
430,107.25,33.3678,35.2816,134.155,103.605,103.837,0.00537337,0.0695577,20.9672,108.746,-0.020164,0.0,0.0
432,107.75,33.2356,35.2214,134.33,103.61,103.695,0.00526677,0.0691399,20.9677,108.696,-0.0074431,0.0,0.0
434,108.25,32.9643,35.5162,132.856,103.612,103.919,0.00511766,0.0688178,20.9681,108.706,-0.0266488,0.0,0.0
436,108.75,32.8227,34.9126,136.451,103.631,103.822,0.00497227,0.0682671,20.9683,108.676,-0.0165723,0.0,0.0
438,109.25,33.1416,35.1395,131.618,103.638,104.348,0.00483236,0.0676555,20.9685,108.646,-0.0616674,0.0,0.0
440,109.75,33.3908,35.08,134.968,103.655,104.031,0.00477271,0.0670111,20.9686,108.556,-0.0326895,0.0,0.0
442,110.25,33.2149,34.7069,133.832,103.667,104.066,0.00463753,0.0664892,20.9692,108.516,-0.0347158,0.0,0.0
444,110.75,32.827,34.9814,137.435,103.677,103.778,0.00452803,0.0658061,20.9701,108.526,-0.00875264,0.0,0.0
446,111.25,32.856,35.1594,135.038,103.687,104.032,0.00441724,0.0652528,20.9712,108.526,-0.0300118,0.0,0.0
448,111.75,32.9873,35.2519,136.061,103.706,103.982,0.00432749,0.0645861,20.9722,108.546,-0.0239514,0.0,0.0
450,112.25,33.0102,34.7883,137.917,103.707,103.865,0.00425479,0.0640461,20.9729,108.536,-0.013783,0.0,0.0
452,112.75,33.089,34.8716,133.311,103.713,103.843,0.00417259,0.0637154,20.974,108.456,-0.0112737,0.0,0.0
454,113.25,33.0724,34.7486,134.678,103.723,104.157,0.004106,0.0631497,20.9748,108.446,-0.0376932,0.0,0.0
456,113.75,32.6588,34.9166,136.274,103.74,103.888,0.00401528,0.0624188,20.9755,108.406,-0.0128435,0.0,0.0
458,114.25,32.9632,35.0258,134.038,103.744,103.859,0.00394179,0.0618267,20.9761,108.375,-0.00993843,0.0,0.0
460,114.75,33.1588,34.6419,132.54,103.763,103.973,0.00386163,0.061182,20.9765,108.406,-0.018252,0.0,0.0
462,115.25,32.8549,34.5315,134.505,103.762,104.06,0.00377813,0.0605114,20.9773,108.386,-0.0259498,0.0,0.0
464,115.75,32.7971,34.6265,132.566,103.782,104.267,0.0036886,0.0599681,20.978,108.426,-0.0421194,0.0,0.0
466,116.25,33.1298,35.0515,131.013,103.78,104.05,0.00359637,0.0592147,20.9789,108.375,-0.0234717,0.0,0.0
468,116.75,32.7281,34.7926,135.196,103.799,104.082,0.00349464,0.0586045,20.9797,108.295,-0.0245957,0.0,0.0
470,117.25,32.9694,34.8719,134.994,103.797,104.367,0.00338792,0.0579955,20.9808,108.325,-0.0495016,0.0,0.0
472,117.75,32.9749,34.7651,135.696,103.83,104.475,0.00330148,0.057399,20.9816,108.245,-0.0559128,0.0,0.0
474,118.25,32.484,34.892,134.919,103.811,104.422,0.00315826,0.0567941,20.9823,108.245,-0.0529332,0.0,0.0
476,118.75,33.0477,34.6537,136.032,103.862,103.975,0.00304224,0.0561945,20.9829,108.255,-0.00977518,0.0,0.0
478,119.25,33.1108,34.8484,136.054,103.854,104.092,0.00290277,0.0555871,20.9834,108.185,-0.0207126,0.0,0.0
480,119.75,32.5449,35.2758,133.262,103.868,103.799,0.00274885,0.0549856,20.9842,108.155,0.00598277,0.0,0.0
482,120.25,33.1241,34.1131,130.994,103.868,104.484,0.00259923,0.0544983,20.9848,108.195,-0.0534117,0.0,0.0
484,120.75,33.3893,34.5367,137.989,103.891,104.04,0.00245559,0.0538861,20.9854,108.195,-0.0129562,0.0,0.0
486,121.25,32.1277,34.1813,136.455,103.896,104.279,0.00232518,0.0533902,20.9858,108.155,-0.0332177,0.0,0.0
488,121.75,32.9703,34.8983,136.403,103.922,103.899,0.00220689,0.0528669,20.9866,108.195,0.00197389,0.0,0.0
490,122.25,32.4737,34.5028,138.421,103.913,103.966,0.00210725,0.0523335,20.9872,108.175,-0.00459307,0.0,0.0
492,122.75,32.4068,34.7849,132.363,103.939,104.362,0.00198721,0.0518085,20.9882,108.155,-0.0366361,0.0,0.0
494,123.25,32.5643,34.4914,133.202,103.931,103.933,0.00194854,0.0512996,20.9889,108.075,-0.00015554,0.0,0.0
496,123.75,33.1189,34.6275,132.705,103.966,103.994,0.0018824,0.0508302,20.9896,108.065,-0.00238184,0.0,0.0
498,124.25,32.264,35.0885,134.394,103.967,104.271,0.00182883,0.0503986,20.9905,108.015,-0.0263995,0.0,0.0
500,124.75,33.0731,34.7076,135.846,103.98,104.255,0.00178544,0.0499917,20.9913,107.975,-0.0239141,0.0,0.0
502,125.25,32.9803,34.3542,134.836,103.99,103.987,0.00168848,0.0496107,20.9922,107.965,0.000244338,0.0,0.0
504,125.75,33.0058,34.3497,134.764,104.012,104.459,0.00160995,0.0490919,20.9933,107.935,-0.0387422,0.0,0.0
506,126.25,31.7696,33.9163,136.01,104.021,104.33,0.00154633,0.0489028,20.9942,107.925,-0.0267509,0.0,0.0
508,126.75,32.0944,33.8926,137.917,104.05,104.037,0.0014585,0.0485793,20.9949,107.905,0.00108925,0.0,0.0
510,127.25,32.1314,34.2375,134.366,104.029,104.78,0.00142105,0.0483173,20.9952,107.885,-0.0649144,0.0,0.0
512,127.75,32.5449,34.418,134.298,104.076,104.135,0.00134556,0.0479015,20.9957,107.895,-0.00504485,0.0,0.0
514,128.25,32.021,34.3234,130.924,104.063,104.103,0.0012741,0.0475647,20.9962,107.895,-0.00344889,0.0,0.0
516,128.75,32.5315,34.2684,133.169,104.095,103.988,0.00121304,0.0472276,20.9965,107.875,0.00933397,0.0,0.0
518,129.25,32.318,34.4657,135.913,104.093,104.198,0.00116071,0.0468968,20.9972,107.855,-0.00911682,0.0,0.0
520,129.75,32.6612,34.4877,134.382,104.126,104.182,0.00111451,0.0466287,20.9978,107.885,-0.00491508,0.0,0.0
522,130.25,32.0498,34.3403,138.318,104.122,104.125,0.00107365,0.0464859,20.9978,107.845,-0.000267488,0.0,0.0
524,130.75,32.0361,34.111,137.357,104.153,103.912,0.00103865,0.0462417,20.9979,107.805,0.0208923,0.0,0.0
526,131.25,31.9128,33.9935,135.364,104.158,104.681,0.00100858,0.0460153,20.9979,107.825,-0.0452237,0.0,0.0
528,131.75,32.0454,34.1861,135.42,104.183,104.534,0.000984228,0.0458063,20.9979,107.815,-0.0303644,0.0,0.0
530,132.25,32.0459,33.9888,134.246,104.187,104.781,0.0009645,0.0456155,20.9979,107.785,-0.0512951,0.0,0.0
532,132.75,32.2455,33.6143,133.729,104.212,104.596,0.00094852,0.0454417,20.9979,107.825,-0.0331567,0.0,0.0
534,133.25,31.4928,33.8339,137.794,104.221,104.332,0.000937484,0.045301,20.9979,107.805,-0.00966527,0.0,0.0
536,133.75,32.1518,34.1483,135.911,104.235,104.687,0.000930262,0.0451869,20.9984,107.805,-0.0390471,0.0,0.0
538,134.25,32.5266,34.3744,136.176,104.254,104.497,0.000923776,0.0450874,20.9987,107.795,-0.0210422,0.0,0.0
540,134.75,31.654,34.0257,133.248,104.268,104.79,0.000917951,0.0450004,20.999,107.775,-0.0451106,0.0,0.0
542,135.25,31.5627,33.8452,133.742,104.288,105.243,0.000913232,0.0449299,20.9993,107.685,-0.0823227,0.0,0.0
544,135.75,32.2692,33.9017,132.587,104.304,104.752,0.000899743,0.0447779,20.9997,107.605,-0.0386855,0.0,0.0
546,136.25,32.0913,34.0313,131.907,104.322,105.118,0.000888816,0.0446548,21.0002,107.585,-0.0686268,0.0,0.0
548,136.75,32.2827,33.8209,134.652,104.343,104.799,0.00085581,0.0445122,21.0007,107.565,-0.0393703,0.0,0.0
550,137.25,31.8041,34.2898,134.429,104.361,105.106,0.000829076,0.0443582,21.001,107.585,-0.0642493,0.0,0.0
552,137.75,32.1962,33.168,139.052,104.378,104.743,0.00077363,0.0442335,21.0013,107.555,-0.0315179,0.0,0.0
554,138.25,32.4322,33.7635,134.134,104.391,104.817,0.000728718,0.0441189,21.0016,107.595,-0.0367826,0.0,0.0
556,138.75,32.2224,34.1951,133.927,104.408,105.15,0.000651351,0.044026,21.0017,107.595,-0.0639886,0.0,0.0
558,139.25,32.2695,33.7448,136.981,104.425,104.684,0.000588683,0.0439102,21.0019,107.625,-0.0223494,0.0,0.0
560,139.75,31.8161,34.0576,133.011,104.451,104.866,0.000537922,0.0438163,21.002,107.605,-0.0358023,0.0,0.0
562,140.25,31.6819,33.3917,140.836,104.46,104.358,0.000467901,0.0437403,21.0021,107.575,0.00879524,0.0,0.0
564,140.75,32.077,34.062,133.353,104.473,104.384,0.000411183,0.0436787,21.0022,107.615,0.00768971,0.0,0.0
566,141.25,32.2921,33.9756,134.826,104.49,105.116,0.000370058,0.043636,21.0023,107.545,-0.0539553,0.0,0.0
568,141.75,31.7129,33.5302,132.489,104.511,104.709,0.000336746,0.0436078,21.0023,107.495,-0.0170851,0.0,0.0
570,142.25,31.3009,33.5915,131.282,104.533,104.959,0.000319906,0.043585,21.0024,107.485,-0.0366588,0.0,0.0
572,142.75,31.8388,33.8586,135.203,104.539,104.949,0.000315393,0.0435665,21.0024,107.515,-0.0353398,0.0,0.0
574,143.25,31.749,33.6222,133.342,104.561,104.925,0.000326327,0.0435515,21.0024,107.515,-0.0314521,0.0,0.0
576,143.75,32.1172,33.5432,133.576,104.582,104.681,0.000348314,0.0434851,21.0025,107.475,-0.00853015,0.0,0.0
578,144.25,32.2275,33.8152,135.705,104.594,104.764,0.000380089,0.0434314,21.0025,107.465,-0.0146039,0.0,0.0
580,144.75,32.042,33.7753,135.056,104.618,104.773,0.000418394,0.0433736,21.0025,107.415,-0.0132946,0.0,0.0
582,145.25,31.6996,34.3697,133.456,104.64,105.197,0.000459585,0.0433139,21.0025,107.395,-0.0479113,0.0,0.0
584,145.75,31.829,33.7681,133.674,104.653,105.711,0.000502097,0.0432584,21.003,107.395,-0.0907897,0.0,0.0
586,146.25,31.9578,33.4591,131.976,104.672,105.154,0.000536531,0.0432071,21.0033,107.425,-0.0415085,0.0,0.0
588,146.75,31.5906,33.5406,135.436,104.678,104.789,0.000576499,0.0431512,21.0036,107.435,-0.00960924,0.0,0.0
590,147.25,31.81,33.4059,137.68,104.7,104.919,0.000619741,0.0430931,21.0038,107.405,-0.0188571,0.0,0.0
592,147.75,32.2459,33.8261,135.276,104.709,104.739,0.000654767,0.0430318,21.004,107.405,-0.00257618,0.0,0.0
594,148.25,31.9898,33.4595,135.334,104.737,105.029,0.000683138,0.0429693,21.0042,107.355,-0.0251883,0.0,0.0
596,148.75,31.8809,33.8603,134.911,104.745,105.087,0.000707952,0.0429187,21.0041,107.345,-0.0294664,0.0,0.0
598,149.25,31.7678,34.0185,134.597,104.774,104.893,0.000750385,0.0428991,21.004,107.365,-0.0102569,0.0,0.0
600,149.75,31.8121,33.7407,136.276,104.788,104.941,0.000788382,0.0429024,21.0039,107.345,-0.0131793,0.0,0.0
602,150.25,31.7118,33.1489,133.984,104.802,104.634,0.00081916,0.0429052,21.0039,107.295,0.0144745,0.0,0.0
604,150.75,31.8806,33.4628,132.318,104.805,105.674,0.000835628,0.0429217,21.0038,107.305,-0.0746158,0.0,0.0
606,151.25,31.7329,33.4593,135.09,104.827,104.911,0.000848968,0.0429479,21.0038,107.295,-0.00720449,0.0,0.0
608,151.75,31.9237,33.5433,134.355,104.84,105.197,0.000841649,0.042959,21.0037,107.275,-0.0306468,0.0,0.0
610,152.25,31.744,33.3385,134.384,104.86,105.338,0.00083572,0.0429924,21.0037,107.245,-0.0410002,0.0,0.0
612,152.75,31.9339,33.5355,134.264,104.866,105.27,0.0008163,0.0430322,21.0034,107.255,-0.0347617,0.0,0.0
614,153.25,31.7447,33.1834,132.185,104.89,105.232,0.000787415,0.0430645,21.003,107.215,-0.0294216,0.0,0.0
616,153.75,31.966,33.6051,134.007,104.895,105.494,0.000764017,0.0430907,21.0027,107.195,-0.0514288,0.0,0.0
618,154.25,32.0837,32.9941,137.022,104.912,105.185,,0.0430976,,107.145,-0.0234911,0.0,0.0
620,154.75,31.8454,33.5852,138.804,104.942,105.143,,0.0430904,,107.175,-0.0172037,0.0,0.0
622,155.25,31.5932,33.9101,139.536,104.918,104.868,,0.0430774,,107.165,0.00433683,0.0,0.0
624,155.75,31.7847,33.5455,139.495,104.93,105.199,,0.0430604,,107.155,-0.0231387,0.0,0.0
626,156.25,31.4935,33.6864,132.595,104.965,105.06,,0.0430467,,107.135,-0.00816814,0.0,0.0
628,156.75,31.7776,33.4125,136.056,104.969,104.984,,0.0430356,,107.145,-0.0012923,0.0,0.0
630,157.25,32.1727,34.2025,135.669,104.985,105.103,,,,107.145,-0.0101362,0.0,0.0
632,157.75,31.7012,33.3227,136.139,104.989,105.065,,,,107.125,-0.00654039,0.0,0.0
634,158.25,31.8654,33.551,134.772,104.997,105.267,,,,107.115,-0.0231328,0.0,0.0
636,158.75,31.9016,33.7343,134.826,105.009,105.376,,,,107.074,-0.0315444,0.0,0.0
638,159.25,32.1418,33.6038,134.098,105.024,105.217,,,,107.054,-0.0166041,0.0,0.0
640,159.75,31.4613,33.8161,134.875,105.024,104.859,,,,107.014,0.0141951,0.0,0.0
642,160.25,31.806,33.279,136.489,105.047,104.889,,,,107.014,0.0135621,0.0,0.0
644,160.75,31.8534,33.626,138.499,105.038,105.477,,,,107.004,-0.0377321,0.0,0.0
646,161.25,31.7375,33.7547,133.775,105.065,105.066,,,,106.984,-0.000120019,0.0,0.0
648,161.75,31.4957,33.5387,139.033,105.055,105.186,,,,106.944,-0.0112941,0.0,0.0
650,162.25,31.5756,33.3679,137.154,105.06,105.704,,,,106.934,-0.0551514,0.0,0.0
652,162.75,31.3943,33.1813,135.236,105.075,105.083,,,,107.004,-0.000743281,0.0,0.0
654,163.25,31.3352,33.389,137.065,105.098,105.165,,,,106.924,-0.00577347,0.0,0.0
656,163.75,31.5726,33.1808,134.449,105.088,105.046,,,,106.934,0.00361058,0.0,0.0
658,164.25,31.7134,32.6195,133.766,105.108,105.295,,,,106.894,-0.0160741,0.0,0.0
660,164.75,31.2214,33.1548,134.699,105.108,105.579,,,,106.884,-0.0403628,0.0,0.0