File: 01_Data/LW_Gypsum/Cone/LW_Gypsum_Cone_HF75Scan_220506_R2.csv
Names,Time,Stack TC,Smoke TC,Exh Press,Smoke Comp,Smoke Meas,CO Meter,CO2 Meter,O2 Meter,Sample Mass,Ext Coeff,Start Test,Flame Verif
Chan Gain,,500,500,1,1,1,1,1,1,1,1,1.0,1.0
Offset,,0,0,0.135316,0,0,0,0,0,0,0,0.0,0.0
Gain,,1,1,25.011,13.8443,15.4071,1,1,1,1.00079,1.02936,1.0,1.0
Units,sec,C,C,Pa,%,%,%,%,%,g,/m,,
Baseline,,40.7725,42.2975,132.232,105.169,106.32,5.55934e-05,0.0418662,21.0007,-447.632,-0.0982467,,
2,0.25,38.9169,40.8314,135.078,104.828,105.658,0.000509199,0.0437689,20.9981,113.029,-0.0712481,0.0,0.0
4,0.75,38.157,40.1548,130.58,104.819,106.053,0.000533834,0.0437276,20.9983,112.979,-0.105738,0.0,0.0
6,1.25,37.6826,39.382,134.82,104.822,105.733,0.000548962,0.0436684,20.9985,112.959,-0.0781438,0.0,0.0
8,1.75,37.5972,38.8249,133.014,104.829,105.536,0.000561216,0.0436205,20.9986,112.959,-0.0607213,0.0,0.0
10,2.25,37.6238,39.135,136.503,104.826,105.857,0.000557869,0.0435546,20.9987,112.969,-0.0883344,0.0,0.0
12,2.75,37.3597,39.0161,131.094,104.819,105.947,0.000555158,0.0435012,20.9988,112.989,-0.0966504,0.0,0.0
14,3.25,38.0697,39.3252,127.455,104.831,105.5,0.00052764,0.0434579,20.9988,112.979,-0.0574054,0.0,0.0
16,3.75,38.1185,39.8215,132.065,104.83,105.841,0.00050535,0.0434636,20.9989,112.979,-0.0866432,0.0,0.0
18,4.25,38.0016,39.4213,133.981,104.826,105.703,0.000458375,0.0434681,20.9989,112.949,-0.0751699,0.0,0.0
20,4.75,37.7582,39.681,132.237,104.837,105.172,0.000420326,0.0434718,20.999,112.949,-0.0288396,0.0,0.0
22,5.25,37.8211,39.4156,132.272,104.833,105.569,0.000389506,0.0434748,20.999,112.899,-0.0631365,0.0,0.0
24,5.75,37.8193,39.5331,133.598,104.822,105.451,0.000338053,0.0434987,20.9988,112.869,-0.0540159,0.0,0.0
26,6.25,38.0261,39.2279,134.023,104.837,105.141,0.000296377,0.0435372,20.9984,112.869,-0.0261749,0.0,0.0
28,6.75,38.3631,39.848,130.396,104.827,105.244,0.000269841,0.0435899,20.9979,112.799,-0.0358466,0.0,0.0
30,7.25,37.9438,39.5604,133.617,104.84,105.118,0.000248347,0.0436518,20.9973,112.769,-0.0238645,0.0,0.0
32,7.75,37.567,39.7378,133.555,104.835,104.892,0.000253817,0.0437162,20.9967,112.739,-0.00489031,0.0,0.0
34,8.25,37.7379,39.7085,133.582,104.835,104.872,0.000256149,0.0437812,20.9965,112.729,-0.00315385,0.0,0.0
36,8.75,38.2611,39.7208,131.757,104.833,104.592,0.000289058,0.0438339,20.9959,112.689,0.0207484,0.0,0.0
38,9.25,38.6623,40.0841,131.582,104.838,104.972,0.000315715,0.0439444,20.9952,112.659,-0.0115582,0.0,0.0
40,9.75,38.6284,40.0876,130.763,104.835,104.755,0.000372285,0.0440339,20.9947,112.629,0.00689598,0.0,0.0
42,10.25,38.2065,39.5305,130.567,104.833,103.702,0.000418108,0.044142,20.9942,112.629,0.0979525,0.0,0.0
44,10.75,38.2994,39.9051,135.2,104.826,103.131,0.000490188,0.0442618,20.9938,112.559,0.147249,0.0,0.0
46,11.25,38.6057,40.1127,130.689,104.822,103.279,0.00058004,0.0443271,20.9931,112.569,0.133928,0.0,0.0
48,11.75,39.0636,39.8797,131.03,104.818,102.908,0.000652821,0.0444388,20.9925,112.549,0.166051,0.0,0.0
50,12.25,38.9021,40.0434,131.581,104.823,102.32,0.000711773,0.044565,20.9911,112.459,0.218247,0.0,0.0
52,12.75,38.3823,40.1848,131.895,104.827,101.669,0.000890328,0.0446993,20.99,112.439,0.276148,0.0,0.0
54,13.25,39.0304,40.2268,131.025,104.825,101.456,0.00103496,0.0453155,20.9868,112.429,0.294975,0.0,0.0
56,13.75,38.5187,40.1705,131.027,104.821,99.7989,0.0011847,0.0462713,20.9822,112.409,0.443336,0.0,0.0
58,14.25,38.6913,40.3816,132.388,104.829,98.7513,0.00133533,0.0470455,20.9704,112.299,0.539273,0.0,0.0
60,14.75,39.2813,40.2449,130.338,104.828,102.628,0.00148166,0.0509339,20.9536,112.229,0.191547,0.0,0.0
62,15.25,38.7901,40.279,124.355,104.813,109.649,0.00160018,0.0570189,20.9287,112.158,-0.407301,0.0,0.0
64,15.75,38.9397,40.0213,116.205,104.809,109.847,0.00169133,0.0619477,20.8985,112.048,-0.423949,0.0,1.0
66,16.25,39.305,39.7212,115.846,104.82,109.978,0.00176515,0.077996,20.8599,111.938,-0.433742,0.0,1.0
68,16.75,39.0677,40.5413,110.545,104.809,109.114,0.001814,0.0909951,20.8161,111.768,-0.363458,0.0,1.0
70,17.25,40.3177,40.6516,109.991,104.813,110.122,0.00185358,0.112277,20.7728,111.668,-0.446167,0.0,1.0
72,17.75,40.538,41.2131,108.272,104.804,109.408,0.00188441,0.129516,20.7307,111.608,-0.38818,0.0,1.0
74,18.25,41.378,41.792,111.731,104.813,109.69,0.00190939,0.153098,20.6966,111.488,-0.410705,0.0,1.0
76,18.75,41.8291,41.8634,116.594,104.8,109.228,0.00192963,0.1722,20.669,111.398,-0.373631,0.0,1.0
78,19.25,42.6317,42.8876,107.781,104.808,109.697,0.00194601,0.196007,20.6379,111.318,-0.411686,0.0,1.0
80,19.75,42.9609,43.1558,112.375,104.805,109.875,0.0019849,0.21529,20.6127,111.218,-0.426559,0.0,1.0
82,20.25,44.1418,44.1953,110.573,104.793,109.253,0.00203944,0.237571,20.5928,111.098,-0.376273,0.0,1.0
84,20.75,44.1392,43.7545,109.632,104.791,109.347,0.00211119,0.255618,20.5773,111.048,-0.384224,0.0,1.0
86,21.25,44.791,44.785,108.231,104.806,109.008,0.00219412,0.272803,20.5647,110.897,-0.354915,0.0,0.0
88,21.75,45.4954,45.0918,109.621,104.794,108.776,0.00226129,0.289035,20.5545,110.827,-0.336747,0.0,0.0
90,22.25,46.2611,45.6397,114.588,104.797,109.239,0.00242068,0.302182,20.5462,110.717,-0.374894,0.0,0.0
92,22.75,46.7429,46.2714,113.81,104.787,108.768,0.00254979,0.312831,20.5422,110.667,-0.336668,0.0,0.0
94,23.25,47.6911,47.1725,114.379,104.792,107.972,0.00282345,0.322378,20.5388,110.587,-0.269903,0.0,0.0
96,23.75,47.8318,47.3015,116.858,104.778,108.934,0.00304512,0.330939,20.5519,110.527,-0.351199,0.0,0.0
98,24.25,48.388,47.655,120.775,104.777,108.432,0.00348717,0.336456,20.5625,110.447,-0.309629,0.0,0.0
100,24.75,48.7634,48.1268,116.197,104.772,108.172,0.00384522,0.33965,20.5863,110.407,-0.288346,0.0,0.0
102,25.25,49.6745,49.2366,120.243,104.764,108.01,0.00445192,0.339619,20.6056,110.367,-0.275526,0.0,0.0
104,25.75,49.4031,49.4386,122.307,104.763,107.874,0.00494335,0.337238,20.6286,110.327,-0.264272,0.0,0.0
106,26.25,49.7827,49.5934,123.124,104.753,107.638,0.00559835,0.332523,20.6538,110.307,-0.245328,0.0,0.0
108,26.75,50.0016,49.6866,128.284,104.779,108.311,0.00636014,0.326197,20.6743,110.217,-0.299373,0.0,0.0
110,27.25,50.5924,49.7851,125.371,104.762,107.419,0.00697719,0.318242,20.7013,110.217,-0.226128,0.0,0.0
112,27.75,50.6547,50.6562,130.915,104.757,106.586,0.00776727,0.309249,20.7232,110.107,-0.156333,0.0,0.0
114,28.25,50.4195,50.6708,127.939,104.748,106.765,0.00851802,0.301966,20.7479,110.097,-0.172222,0.0,0.0
116,28.75,50.2744,50.6233,128.707,104.741,106.089,0.00922583,0.290032,20.768,110.057,-0.115442,0.0,0.0
118,29.25,50.2608,50.2194,130.621,104.748,106.065,0.00986861,0.280366,20.789,110.047,-0.112779,0.0,0.0
120,29.75,49.5483,50.3216,128.719,104.746,106.5,0.0104518,0.270063,20.806,110.007,-0.149915,0.0,0.0
122,30.25,49.5534,50.1389,128.205,104.724,106.432,0.0109241,0.259491,20.8224,109.947,-0.146099,0.0,0.0
124,30.75,49.5274,50.0922,129.014,104.726,106.555,0.0113594,0.24933,20.8357,109.927,-0.156322,0.0,0.0
126,31.25,48.7325,49.4676,130.575,104.721,106.815,0.011712,0.239662,20.8472,109.887,-0.178733,0.0,0.0
128,31.75,48.6304,49.4364,133.043,104.722,106.63,0.0119872,0.230563,20.8571,109.837,-0.163026,0.0,0.0
130,32.25,48.71,49.7852,127.71,104.711,106.872,0.0122102,0.222052,20.8651,109.817,-0.184456,0.0,0.0
132,32.75,48.9925,49.6448,128.426,104.707,106.618,0.0123909,0.214112,20.8725,109.787,-0.163302,0.0,0.0
134,33.25,48.711,49.2614,129.36,104.701,106.676,0.0124926,0.20674,20.8784,109.757,-0.168746,0.0,0.0
136,33.75,48.4586,49.4026,130.286,104.718,106.607,0.0125349,0.200768,20.8833,109.727,-0.1614,0.0,0.0
138,34.25,48.1243,49.5551,127.51,104.691,106.42,0.0125374,0.194144,20.8872,109.687,-0.147944,0.0,0.0
140,34.75,48.3751,49.4892,132.264,104.697,105.82,0.012511,0.188778,20.8906,109.646,-0.0963843,0.0,0.0
142,35.25,48.0899,48.5783,128.804,104.708,107.203,0.0124586,0.183556,20.8936,109.636,-0.21263,0.0,0.0
144,35.75,47.6938,48.7638,128.374,104.7,105.951,0.0123883,0.178538,20.8964,109.616,-0.10728,0.0,0.0
146,36.25,47.8935,49.3037,127.581,104.686,107.142,0.0122977,0.174473,20.8991,109.566,-0.209451,0.0,0.0
148,36.75,48.2787,49.6486,132.276,104.699,106.428,0.0121941,0.170482,20.9014,109.516,-0.147854,0.0,0.0
150,37.25,47.8187,49.7379,129.319,104.683,106.95,0.0120767,0.166621,20.9036,109.506,-0.193449,0.0,0.0
152,37.75,47.7196,49.1716,135.513,104.689,106.594,0.0119513,0.162625,20.9054,109.466,-0.162835,0.0,0.0
154,38.25,48.2127,48.7898,134.052,104.671,106.856,0.011817,0.159388,20.9073,109.446,-0.186527,0.0,0.0
156,38.75,48.068,49.4293,128.441,104.681,106.368,0.0116786,0.156348,20.9088,109.406,-0.144356,0.0,0.0
158,39.25,47.3789,49.0055,130,104.686,106.591,0.0115665,0.153509,20.9101,109.366,-0.162891,0.0,0.0
160,39.75,47.2999,48.1748,129.045,104.678,106.95,0.0114436,0.150806,20.9111,109.326,-0.193886,0.0,0.0
162,40.25,47.6073,48.8478,130.317,104.666,107.439,0.0113152,0.148255,20.9119,109.266,-0.236058,0.0,0.0
164,40.75,47.5454,48.7711,129.552,104.667,106.736,0.0112111,0.145817,20.913,109.246,-0.176717,0.0,0.0
166,41.25,47.4911,48.6074,125.911,104.654,106.331,0.0111027,0.143507,20.9139,109.216,-0.143572,0.0,0.0
168,41.75,47.5296,48.8708,128.716,104.657,105.867,0.0110149,0.141636,20.9146,109.206,-0.103782,0.0,0.0
170,42.25,47.209,48.9885,129.927,104.653,106.029,0.0109438,0.139415,20.9152,109.146,-0.117898,0.0,0.0
172,42.75,47.1225,49.1579,129.396,104.671,106.295,0.0108575,0.137616,20.9157,109.106,-0.139002,0.0,0.0
174,43.25,47.0715,48.3639,131.246,104.65,106.154,0.0107617,0.135818,20.916,109.076,-0.128911,0.0,0.0
176,43.75,46.8184,48.4708,128.308,104.667,106.208,0.0106842,0.134055,20.9155,109.066,-0.131935,0.0,0.0
178,44.25,47.0151,48.3374,131.029,104.636,105.911,0.0105517,0.132627,20.915,109.016,-0.109336,0.0,0.0
180,44.75,46.956,48.5789,123.285,104.647,106.599,0.0104045,0.13095,20.9151,108.966,-0.166885,0.0,0.0
182,45.25,46.8918,48.5029,137.47,104.643,106.42,0.0102493,0.129591,20.9152,108.906,-0.151986,0.0,0.0
184,45.75,47.0476,48.5372,125.629,104.647,106.693,0.0100891,0.128491,20.9157,108.916,-0.174843,0.0,0.0
186,46.25,46.8984,48.7285,129.196,104.634,106.704,0.00992826,0.127231,20.9161,108.866,-0.176856,0.0,0.0
188,46.75,46.5837,48.6835,128.859,104.631,106.591,0.00979797,0.125877,20.9168,108.846,-0.167554,0.0,0.0
190,47.25,47.0575,48.402,131.492,104.632,106.584,0.00965729,0.124552,20.9179,108.836,-0.166886,0.0,0.0
192,47.75,46.2565,48.3983,130.459,104.625,107.199,0.00951173,0.123273,20.9187,108.816,-0.219494,0.0,0.0
194,48.25,46.7011,48.5062,129.766,104.634,106.799,0.00937793,0.122046,20.9194,108.786,-0.184962,0.0,0.0
196,48.75,46.5607,48.0597,129.222,104.625,106.183,0.00925525,0.120879,20.92,108.756,-0.133424,0.0,0.0
198,49.25,46.7921,48.5795,129.725,104.623,105.657,0.00914199,0.119934,20.9209,108.746,-0.0888344,0.0,0.0
200,49.75,46.3955,48.3684,128.952,104.628,106.206,0.00903774,0.118777,20.9216,108.686,-0.135169,0.0,0.0
202,50.25,46.2071,48.2721,131.181,104.621,106.453,0.0089414,0.11784,20.9221,108.686,-0.156715,0.0,0.0
204,50.75,45.8513,48.1921,126.091,104.623,106.726,0.00885265,0.116875,20.9226,108.646,-0.17967,0.0,0.0
206,51.25,46.2875,48.4203,134.18,104.627,106.77,0.00877415,0.115908,20.9234,108.646,-0.18312,0.0,0.0
208,51.75,46.5151,48.2317,129.529,104.631,107.483,0.00870462,0.115007,20.9241,108.636,-0.242837,0.0,0.0
210,52.25,46.0697,47.9394,127.925,104.614,106.225,0.0086483,0.114172,20.9251,108.596,-0.138047,0.0,0.0
212,52.75,46.3808,48.105,128.781,104.612,106.082,0.00858888,0.113378,20.9259,108.566,-0.126031,0.0,0.0
214,53.25,46.0492,47.6879,128.555,104.607,106.456,0.00854074,0.112629,20.9265,108.556,-0.158233,0.0,0.0
216,53.75,46.1028,47.9444,130.423,104.604,105.861,0.00850175,0.11189,20.927,108.506,-0.107818,0.0,0.0
218,54.25,46.5725,47.4954,127.541,104.605,107.021,0.00843128,0.111173,20.9274,108.436,-0.206185,0.0,0.0
220,54.75,46.1441,48.1159,131.356,104.608,106.051,0.0083742,0.110416,20.9278,108.406,-0.123641,0.0,0.0
222,55.25,45.9718,47.4315,131.686,104.609,106.38,0.00831873,0.109644,20.9281,108.365,-0.151548,0.0,0.0
224,55.75,45.7307,47.6689,130.5,104.606,106.061,0.00826549,0.109019,20.9287,108.315,-0.124741,0.0,0.0
226,56.25,46.4245,47.6942,132.558,104.604,105.788,0.00822038,0.108316,20.9292,108.285,-0.1016,0.0,0.0
228,56.75,45.8692,47.6978,127.718,104.601,106.457,0.00818206,0.107567,20.9301,108.285,-0.15886,0.0,0.0
230,57.25,45.5036,48.113,131.493,104.591,106.535,0.00814773,0.106961,20.9308,108.265,-0.16624,0.0,0.0
232,57.75,45.3028,47.575,129.448,104.591,106.366,0.00811695,0.106331,20.9314,108.225,-0.151959,0.0,0.0
234,58.25,45.2099,47.919,129.375,104.592,106.08,0.00808081,0.105696,20.9318,108.225,-0.127545,0.0,0.0
236,58.75,45.7405,47.8014,130.155,104.597,106.808,0.00804145,0.105086,20.9322,108.175,-0.188893,0.0,0.0
238,59.25,45.4738,47.7635,130.648,104.595,107.208,0.0079964,0.104506,20.9325,108.165,-0.22276,0.0,0.0
240,59.75,45.2048,47.5157,133.491,104.59,106.399,0.00794804,0.10392,20.9332,108.125,-0.154865,0.0,0.0
242,60.25,45.6306,47.5291,128.929,104.582,106.554,0.00790888,0.10334,20.9338,108.075,-0.168713,0.0,0.0
244,60.75,45.0053,47.4202,132.671,104.575,106.035,0.00786793,0.10287,20.9342,108.045,-0.125241,0.0,0.0
246,61.25,45.0841,47.2456,131.892,104.582,105.594,0.00782647,0.102295,20.9346,107.995,-0.0870225,0.0,0.0
248,61.75,45.4699,47.4249,130.044,104.573,106.644,0.00779486,0.101829,20.9349,107.985,-0.17705,0.0,0.0
250,62.25,45.3017,47.4227,136.617,104.58,106.083,0.00777103,0.101229,20.9353,107.985,-0.12885,0.0,0.0
252,62.75,45.6054,47.4299,125.437,104.573,106.673,0.00775174,0.100744,20.9359,107.965,-0.179514,0.0,0.0
254,63.25,45.211,47.1026,130.865,104.584,105.966,0.0077286,0.100249,20.9364,107.925,-0.118587,0.0,0.0
256,63.75,45.0567,47.4122,132.565,104.583,106.085,0.00770986,0.0997553,20.9368,107.875,-0.128755,0.0,0.0
258,64.25,45.191,47.216,128.379,104.588,106.924,0.00768283,0.09929,20.9371,107.855,-0.199432,0.0,0.0
260,64.75,45.2262,47.1992,130.803,104.588,107.703,0.00765028,0.0988541,20.9373,107.835,-0.265021,0.0,0.0
262,65.25,45.396,47.5051,126.87,104.583,106.208,0.00762391,0.098501,20.9375,107.785,-0.139155,0.0,0.0
264,65.75,45.3903,47.2165,132.083,104.574,106.473,0.00760256,0.0980348,20.9377,107.765,-0.16255,0.0,0.0
266,66.25,45.505,47.2452,131.381,104.586,105.94,0.00754653,0.0976571,20.9387,107.715,-0.116085,0.0,0.0
268,66.75,45.2057,46.8796,127.344,104.578,106.154,0.00750114,0.0972419,20.9395,107.675,-0.13511,0.0,0.0
270,67.25,45.1973,47.6504,129.373,104.578,106.258,0.00744191,0.0968071,20.9402,107.635,-0.143904,0.0,0.0
272,67.75,44.9012,47.0377,127.756,104.569,106.259,0.00739394,0.096455,20.9407,107.625,-0.14479,0.0,0.0
274,68.25,44.873,47.1341,130.762,104.574,105.557,0.00729735,0.0961697,20.9416,107.605,-0.0844662,0.0,0.0
276,68.75,44.6488,47.2357,130.17,104.578,105.752,0.00726489,0.0956618,20.9419,107.585,-0.100774,0.0,0.0
278,69.25,44.0497,46.8904,128.475,104.581,106.179,0.0071884,0.0952504,20.9426,107.545,-0.136934,0.0,0.0
280,69.75,44.6615,46.884,131.884,104.575,106.526,0.00710756,0.0947926,20.9431,107.545,-0.166909,0.0,0.0
282,70.25,44.3526,46.825,131.107,104.581,105.876,0.00702177,0.0944217,20.9435,107.495,-0.111111,0.0,0.0
284,70.75,44.5119,47.1425,128.655,104.597,106.149,0.006934,0.0940122,20.9439,107.505,-0.132992,0.0,0.0
286,71.25,44.8484,46.5449,127.342,104.588,106.921,0.00686291,0.0933988,20.9441,107.445,-0.199194,0.0,0.0
288,71.75,44.2116,46.8679,130.764,104.588,106.186,0.00677921,0.0932338,20.9446,107.405,-0.136991,0.0,0.0
290,72.25,44.6069,46.711,130.863,104.604,106.389,0.00671141,0.0927858,20.9452,107.385,-0.152744,0.0,0.0
292,72.75,43.9421,46.9959,132.888,104.584,106.272,0.0066453,0.0924229,20.9456,107.345,-0.144596,0.0,0.0
294,73.25,44.939,46.8681,125.915,104.607,106.686,0.00659176,0.0920183,20.946,107.315,-0.177674,0.0,0.0
296,73.75,44.3445,46.5042,136.614,104.595,106.699,0.00654774,0.0916907,20.9463,107.275,-0.179846,0.0,0.0
298,74.25,44.8517,46.5601,129.277,104.617,106.516,0.00651149,0.0913009,20.9465,107.265,-0.162381,0.0,0.0
300,74.75,44.2672,46.446,129.661,104.6,106.278,0.00648213,0.0909852,20.9467,107.225,-0.143726,0.0,0.0
302,75.25,44.3825,47.3244,131.798,104.621,105.999,0.00644069,0.0906327,20.9469,107.205,-0.118219,0.0,0.0
304,75.75,43.9914,46.7577,127.139,104.618,106.179,0.00639124,0.0903473,20.9475,107.155,-0.133725,0.0,0.0
306,76.25,43.8938,46.2421,130.864,104.631,106.223,0.00632506,0.0900143,20.9479,107.135,-0.136276,0.0,0.0
308,76.75,44.2383,46.6203,131.873,104.63,106.477,0.00624794,0.089653,20.9487,107.094,-0.157979,0.0,0.0
310,77.25,44.8353,46.975,130.745,104.634,106.141,0.00616395,0.0893604,20.9494,107.064,-0.129103,0.0,0.0
312,77.75,44.1096,46.6209,130.21,104.624,106.356,0.00607654,0.0888887,20.9504,107.044,-0.1482,0.0,0.0
314,78.25,44.6422,46.7125,130.796,104.626,106.062,0.00600574,0.0885067,20.9512,107.034,-0.123074,0.0,0.0
316,78.75,44.4134,46.069,129.693,104.627,106.858,0.00592486,0.0880665,20.952,107.014,-0.190517,0.0,0.0
318,79.25,44.2712,46.4054,131.939,104.644,106.962,0.00585935,0.0875924,20.9529,106.984,-0.197794,0.0,0.0
320,79.75,44.1383,46.368,132.342,104.634,106.424,0.00579391,0.0870923,20.9537,106.954,-0.153111,0.0,0.0
322,80.25,43.733,46.3548,131.015,104.659,106.689,0.0057409,0.0865827,20.9543,106.924,-0.173504,0.0,0.0
324,80.75,44.4408,46.6374,129.694,104.646,106.726,0.00566828,0.0861699,20.955,106.894,-0.177705,0.0,0.0
326,81.25,43.3709,46.1886,129.084,104.656,105.903,0.00560945,0.0855187,20.9557,106.884,-0.106982,0.0,0.0
328,81.75,44.0204,46.6634,129.342,104.657,106.233,0.00552214,0.0849912,20.9564,106.864,-0.134971,0.0,0.0
330,82.25,44.2652,46.2783,129.035,104.667,107.361,0.00541572,0.0843574,20.9573,106.814,-0.229465,0.0,0.0
332,82.75,43.7976,46.7542,133.998,104.672,106.106,0.00530356,0.083844,20.9581,106.814,-0.122859,0.0,0.0
334,83.25,43.878,46.5246,130.71,104.681,106.808,0.00518933,0.0832493,20.959,106.784,-0.181674,0.0,0.0
336,83.75,43.986,46.1745,132.414,104.686,106.655,0.00509682,0.0827675,20.9599,106.744,-0.168193,0.0,0.0
338,84.25,44.3496,46.8486,128.343,104.685,106.727,0.00497623,0.082247,20.9608,106.734,-0.174467,0.0,0.0
340,84.75,43.9042,46.3996,130.858,104.686,106.727,0.00487856,0.0817081,20.9618,106.724,-0.174394,0.0,0.0
342,85.25,43.8498,46.1794,130.51,104.697,106.085,0.00477937,0.0812716,20.9626,106.714,-0.118984,0.0,0.0
344,85.75,44.3423,46.253,129.035,104.691,105.659,0.00468096,0.0806705,20.9638,106.684,-0.0831635,0.0,0.0
346,86.25,43.8921,46.2986,127.993,104.705,106.921,0.0045799,0.0801836,20.9648,106.654,-0.189133,0.0,0.0
348,86.75,44.0235,46.1734,130.365,104.716,106.618,0.00447882,0.0794604,20.9661,106.624,-0.162498,0.0,0.0
350,87.25,43.6332,46.0965,126.82,104.723,106.287,0.00436788,0.0788746,20.9671,106.564,-0.133842,0.0,0.0
352,87.75,43.8368,45.8742,127.514,104.727,106.919,0.00425185,0.0781255,20.9679,106.554,-0.187003,0.0,0.0
354,88.25,44.0909,46.03,135.432,104.744,105.784,0.00415787,0.0775187,20.969,106.534,-0.0891785,0.0,0.0
356,88.75,44.2985,45.6651,130.863,104.752,106.74,0.00408174,0.0768611,20.9699,106.504,-0.169749,0.0,0.0
358,89.25,43.7297,46.1974,131.597,104.76,106.238,0.00396464,0.076179,20.9706,106.464,-0.126518,0.0,0.0
360,89.75,44.1115,46.2672,129.972,104.76,106.989,0.00381989,0.0756265,20.9708,106.454,-0.19011,0.0,0.0
362,90.25,44.3295,46.5441,133.825,104.785,106.716,0.00375818,0.0749047,20.9709,106.414,-0.164883,0.0,0.0
364,90.75,43.9969,45.8161,127.824,104.783,106.341,0.00359887,0.0743201,20.9713,106.394,-0.133223,0.0,0.0
366,91.25,42.9432,45.9195,131.195,104.795,106.411,0.00346984,0.0738465,20.9717,106.374,-0.13819,0.0,0.0
368,91.75,43.7204,46.2221,129.008,104.808,106.452,0.00333114,0.072956,20.9724,106.374,-0.140532,0.0,0.0
370,92.25,44.2076,45.9747,131.166,104.825,106.683,0.00321879,0.0722347,20.9731,106.364,-0.158637,0.0,0.0
372,92.75,43.4387,45.877,130.148,104.823,107.056,0.00310217,0.0716505,20.9737,106.334,-0.190325,0.0,0.0
374,93.25,43.4278,46.0055,132.625,104.854,107.415,0.00300771,0.0712501,20.9741,106.314,-0.217873,0.0,0.0
376,93.75,43.8102,46.5563,130.443,104.845,106.549,0.00292222,0.0705655,20.9745,106.284,-0.145617,0.0,0.0
378,94.25,43.4617,46.3598,130.166,104.863,106.564,0.00284488,0.0697237,20.9748,106.274,-0.145324,0.0,0.0
380,94.75,43.6245,46.205,130.979,104.88,106.45,0.00277715,0.0690418,20.9751,106.264,-0.13411,0.0,0.0
382,95.25,44.0104,45.8474,132.108,104.896,106.527,0.0027177,0.0682708,20.9756,106.254,-0.139379,0.0,0.0
384,95.75,43.3241,45.9838,127.745,104.907,106.275,0.00266955,0.0676462,20.976,106.204,-0.116971,0.0,0.0
386,96.25,43.2911,46.0666,132.115,104.903,106.542,0.00261067,0.0670108,20.9763,106.184,-0.139996,0.0,0.0
388,96.75,43.8756,46.1858,128.078,104.913,106.64,0.0025451,0.0663797,20.9765,106.144,-0.147448,0.0,0.0
390,97.25,43.1502,46.3986,127.759,104.927,106.088,0.00249199,0.0658685,20.9767,106.134,-0.0993119,0.0,0.0
392,97.75,43.526,46.0371,127.656,104.947,106.698,0.00240153,0.0651804,20.9771,106.134,-0.149475,0.0,0.0
394,98.25,43.8045,46.232,129.206,104.958,106.884,0.00236297,0.0646231,20.9774,106.094,-0.164197,0.0,0.0
396,98.75,43.6189,45.9563,129.562,104.972,106.835,0.00225571,0.0639259,20.9779,106.074,-0.158789,0.0,0.0
398,99.25,43.5247,45.4173,128.367,104.986,105.907,0.00216884,0.0633612,20.9783,106.064,-0.0789147,0.0,0.0
400,99.75,43.2381,45.9158,132.463,105.005,107.022,0.00206933,0.0629038,20.9788,106.024,-0.171794,0.0,0.0
402,100.25,43.0611,45.7822,131.13,105.005,106.754,0.00198874,0.0622605,20.9794,106.014,-0.149118,0.0,0.0
404,100.75,43.6016,45.9568,129.242,105.041,106.997,0.00190041,0.0617394,20.98,106.014,-0.166528,0.0,0.0
406,101.25,43.3127,45.8198,129.425,105.055,107.965,0.00182887,0.0613952,20.9804,106.024,-0.246698,0.0,0.0
408,101.75,43.6853,45.9677,129.719,105.08,107.712,0.00175394,0.0608067,20.981,105.994,-0.223378,0.0,0.0
410,102.25,43.3352,46.324,132.78,105.088,107.016,0.00169326,0.0602798,20.9816,105.974,-0.164164,0.0,0.0
412,102.75,43.5511,45.4526,129.369,105.109,106.916,0.0016441,0.0598078,20.9822,105.954,-0.153891,0.0,0.0
414,103.25,43.3276,45.8034,130.512,105.115,106.565,0.00158974,0.0592483,20.9826,105.924,-0.123751,0.0,0.0
416,103.75,43.4897,46.232,131.137,105.148,106.95,0.00154444,0.0587952,20.983,105.904,-0.153455,0.0,0.0
418,104.25,43.0397,45.8779,128.409,105.151,106.107,0.00150659,0.058251,20.9835,105.864,-0.0817796,0.0,0.0
420,104.75,43.3785,45.7964,130.277,105.179,106.843,0.00147594,0.0578102,20.9841,105.844,-0.141715,0.0,0.0
422,105.25,43.0645,45.7229,128.595,105.185,106.493,0.00145951,0.0573601,20.9849,105.803,-0.111515,0.0,0.0
424,105.75,43.2307,45.4797,129.876,105.214,106.166,0.0014462,0.0569115,20.9857,105.783,-0.0813354,0.0,0.0
426,106.25,42.9756,45.1784,128.632,105.217,106.609,0.00144755,0.0565483,20.9863,105.783,-0.118673,0.0,0.0
428,106.75,42.7334,45.4531,130.423,105.249,107.468,0.00144863,0.0561042,20.987,105.773,-0.188424,0.0,0.0
430,107.25,42.6368,45.4803,127.807,105.247,106.91,0.00145589,0.0557446,20.9876,105.713,-0.141518,0.0,0.0
432,107.75,43.3104,45.7371,129.812,105.271,107.421,0.00146751,0.0553452,20.988,105.693,-0.182552,0.0,0.0
434,108.25,43.1895,45.2856,128.717,105.29,106.835,0.00147948,0.0550217,20.9884,105.673,-0.131542,0.0,0.0
436,108.75,43.1575,45.3902,130.673,105.3,107.158,0.00149147,0.054678,20.9891,105.663,-0.157893,0.0,0.0
438,109.25,42.7414,45.6498,127.865,105.311,106.974,0.00150119,0.0543996,20.9897,105.623,-0.141442,0.0,0.0
440,109.75,43.2394,45.5625,130.446,105.34,107.382,0.00150012,0.0541741,20.9902,105.593,-0.173366,0.0,0.0
442,110.25,42.9224,45.3113,130.855,105.343,106.768,0.00149122,0.053869,20.9906,105.583,-0.121326,0.0,0.0
444,110.75,43.1336,45.5964,129.488,105.373,107.255,0.0014687,0.0535718,20.9909,105.573,-0.159785,0.0,0.0
446,111.25,42.7567,45.5911,130.306,105.356,107.714,0.00143669,0.0532859,20.9911,105.533,-0.199824,0.0,0.0
448,111.75,42.9569,45.8264,125.576,105.392,107.04,0.00141076,0.0530544,20.9914,105.523,-0.14012,0.0,0.0
450,112.25,42.9016,45.1378,133.29,105.386,107.027,0.00138976,0.0527988,20.9915,105.523,-0.139555,0.0,0.0
452,112.75,43.0595,45.3919,128.789,105.397,106.621,0.00133643,0.0525918,20.9926,105.493,-0.10428,0.0,0.0
454,113.25,43.3413,45.8021,128.22,105.415,107.605,0.00128686,0.0523598,20.9935,105.483,-0.185682,0.0,0.0
456,113.75,42.8654,45.259,133.054,105.412,107.021,0.00124099,0.0521138,20.9942,105.473,-0.1368,0.0,0.0
458,114.25,43.2004,45.4214,129.239,105.414,107.496,0.00119746,0.0519146,20.9947,105.453,-0.176629,0.0,0.0
460,114.75,43.1664,45.1114,133.757,105.434,107.093,0.00115648,0.0517533,20.9952,105.433,-0.140945,0.0,0.0
462,115.25,43.5692,44.938,128.413,105.426,107.341,0.00112328,0.051473,20.9956,105.413,-0.162537,0.0,0.0
464,115.75,43.4344,45.4873,131.105,105.447,107.078,0.0010856,0.0512461,20.9961,105.393,-0.138595,0.0,0.0
466,116.25,43.0293,45.5546,130.714,105.433,107.21,0.00105507,0.0510078,20.9967,105.393,-0.150959,0.0,0.0
468,116.75,43.4796,45.5844,130.241,105.453,106.67,0.00103034,0.0508149,20.9972,105.373,-0.103568,0.0,0.0
470,117.25,42.9384,45.5943,132.855,105.449,108.149,0.00101998,0.0505499,20.9976,105.353,-0.228283,0.0,0.0
472,117.75,42.9294,45.2932,128.972,105.457,108.143,0.00101159,0.0503353,20.9978,105.333,-0.22716,0.0,0.0
474,118.25,43.0593,45.3798,127.86,105.442,107.58,0.00101179,0.050147,20.9979,105.313,-0.181236,0.0,0.0
476,118.75,42.8459,45.333,128.609,105.447,107.447,0.00101826,0.0499946,20.998,105.273,-0.169702,0.0,0.0
478,119.25,43.6621,45.0085,131.086,105.433,107.961,0.00102796,0.0498497,20.9981,105.253,-0.214017,0.0,0.0
480,119.75,43.1126,45.4702,129.499,105.439,108.395,0.00103982,0.0497129,20.9982,105.233,-0.249659,0.0,0.0
482,120.25,43.5297,45.314,129.599,105.423,106.83,0.00104217,0.0496022,20.9983,105.223,-0.119735,0.0,0.0
484,120.75,43.015,45.3371,127.82,105.425,107.324,0.00104408,0.0494625,20.9983,105.193,-0.161186,0.0,0.0
486,121.25,43.6803,45.1083,132.907,105.409,106.782,0.00102023,0.0493043,20.9986,105.173,-0.116798,0.0,0.0
488,121.75,42.8383,45.496,131.08,105.396,106.737,0.00100091,0.0491689,20.999,105.153,-0.114139,0.0,0.0
490,122.25,43.3903,45.1748,131.523,105.39,107.357,0.00096746,0.0490529,20.9994,105.153,-0.166999,0.0,0.0
492,122.75,43.1457,45.1932,131.9,105.38,106.922,0.000924341,0.0489518,20.9997,105.133,-0.131136,0.0,0.0
494,123.25,43.5445,45.3362,130.582,105.363,106.452,0.000889415,0.0488634,20.9999,105.103,-0.0928264,0.0,0.0
496,123.75,43.1584,44.59,132.049,105.34,107.157,0.000836983,0.0487633,21.0001,105.103,-0.154483,0.0,0.0
498,124.25,42.7806,45.4844,127.175,105.324,106.374,0.000794513,0.0486564,21.0002,105.083,-0.0895383,0.0,0.0
500,124.75,43.0107,45.2409,129.322,105.305,107.3,0.000772181,0.0485341,21.0004,105.043,-0.16949,0.0,0.0
502,125.25,43.2738,45.1164,133.133,105.277,107.528,0.000754092,0.0484029,21.0004,105.033,-0.191051,0.0,0.0
504,125.75,43.1294,45.6204,130.428,105.269,107.014,0.000749567,0.0482966,21.0005,105.103,-0.148481,0.0,0.0
506,126.25,42.6608,45.2313,134.093,105.236,107.222,0.000752434,0.0481834,21.0006,105.073,-0.168863,0.0,0.0
508,126.75,43.2044,45.7991,129.55,105.211,106.777,0.000763058,0.0480916,21.0006,105.103,-0.133426,0.0,0.0
510,127.25,42.4508,45.1479,128.963,105.198,107.219,0.000776813,0.0480173,21.0008,105.063,-0.171849,0.0,0.0
512,127.75,42.5169,44.7746,130.221,105.166,106.368,0.000787955,0.0479571,21.001,105.063,-0.102653,0.0,0.0
514,128.25,42.7006,45.5663,127.946,105.122,107.866,0.00079698,0.0478798,21.0014,105.033,-0.232701,0.0,0.0
516,128.75,43.2099,45.3255,129.451,105.094,106.939,0.00080429,0.0477914,21.0019,105.043,-0.157143,0.0,0.0
518,129.25,43.3632,45.2694,127.454,105.062,106.031,0.000794509,0.0477538,21.0023,105.053,-0.0829539,0.0,0.0
520,129.75,42.8669,44.9638,128.393,105.025,107.129,0.000786586,0.0476358,21.0026,105.023,-0.179127,0.0,0.0
522,130.25,43.1874,45.435,132.638,104.99,106.656,0.00076365,0.0475188,21.0029,105.003,-0.142186,0.0,0.0
524,130.75,43.1817,45.0347,128.896,104.945,106.363,0.000730205,0.0474048,21.0031,104.973,-0.121242,0.0,0.0
526,131.25,43.2265,45.3792,130.304,104.912,106.351,0.000693591,0.0473124,21.0033,104.963,-0.123007,0.0,0.0
528,131.75,42.8773,45.035,127.32,104.858,106.786,0.000655363,0.0472647,21.0034,104.943,-0.164473,0.0,0.0
530,132.25,42.6677,45.6843,129.015,104.825,106.777,0.000621225,0.0472261,21.0035,104.913,-0.166596,0.0,0.0
532,132.75,42.6911,44.6915,129.408,104.779,107.084,0.000590717,0.047202,21.0036,104.903,-0.196411,0.0,0.0
534,133.25,42.3165,45.39,130.677,104.736,106.672,0.000571718,0.0471888,21.0037,104.883,-0.165367,0.0,0.0
536,133.75,43.107,45.0786,131.518,104.676,106.438,0.000561469,0.0471782,21.0038,104.873,-0.150735,0.0,0.0
538,134.25,43.2537,45.2402,132.505,104.634,106.92,0.000553168,0.0470746,21.0038,104.833,-0.195176,0.0,0.0
540,134.75,42.8055,45.3891,128.039,104.573,106.63,0.000546444,0.0469906,21.0039,104.803,-0.175931,0.0,0.0
542,135.25,42.798,44.9481,129.273,104.534,106.084,0.000565129,0.0468955,21.0032,104.783,-0.132904,0.0,0.0
544,135.75,43.0232,45.427,132.611,104.469,106.142,0.000580264,0.0468184,21.002,104.763,-0.143447,0.0,0.0
546,136.25,43.0771,45.0311,131.735,104.451,106.222,0.000608217,0.0467696,21.001,104.763,-0.151854,0.0,0.0
548,136.75,42.5985,44.8232,131.383,104.392,105.921,0.000630859,0.04673,21.0002,104.763,-0.131353,0.0,0.0
550,137.25,42.1735,44.7829,129.204,104.349,105.306,0.000649199,0.046698,20.9996,104.753,-0.0824645,0.0,0.0
552,137.75,42.8243,44.7621,131.743,104.291,105.227,0.000690709,0.0466585,20.999,104.733,-0.0806984,0.0,0.0
554,138.25,42.9285,45.0847,129.975,104.259,105.974,,0.0466264,,104.703,-0.147323,0.0,0.0
556,138.75,42.6541,45.3167,130.705,104.205,105.6,,0.0466141,,104.703,-0.120066,0.0,0.0
558,139.25,42.5162,45.3274,130.346,104.162,105.918,,0.0466041,,104.693,-0.151014,0.0,0.0
560,139.75,42.2696,45.1259,126.933,104.108,105.42,,0.046596,,104.663,-0.113155,0.0,0.0
562,140.25,42.4858,45.3533,132.503,104.056,105.404,,0.0465886,,104.643,-0.116294,0.0,0.0
564,140.75,42.686,44.8603,134.156,104.006,105.712,,0.0465827,,104.643,-0.146929,0.0,0.0
566,141.25,42.0857,45.13,128.19,103.975,105.404,,,,104.623,-0.123299,0.0,0.0
568,141.75,42.4798,44.8189,126.545,103.917,106.741,,,,104.603,-0.242079,0.0,0.0
570,142.25,42.8099,45.3416,129.692,103.893,106.189,,,,104.583,-0.197393,0.0,0.0
572,142.75,43.3289,45.2469,127.949,103.847,105.207,,,,104.572,-0.117453,0.0,0.0
574,143.25,42.8284,44.8345,133.451,103.803,105.401,,,,104.552,-0.137999,0.0,0.0
576,143.75,43.2545,44.6977,125.879,103.787,105.608,,,,104.532,-0.156988,0.0,0.0
578,144.25,43.1084,44.5994,129.961,103.749,105.247,,,,104.512,-0.129447,0.0,0.0
580,144.75,42.1842,45.2275,130.133,103.699,104.751,,,,104.482,-0.091092,0.0,0.0
582,145.25,42.4022,44.5202,131.856,103.665,105.439,,,,104.452,-0.153173,0.0,0.0
584,145.75,41.9644,44.3948,132.825,103.626,104.962,,,,104.462,-0.115675,0.0,0.0
586,146.25,43.0842,45.5634,130.896,103.604,105.227,,,,104.462,-0.140333,0.0,0.0
588,146.75,42.9759,44.9895,128.26,103.573,106,,,,104.452,-0.209149,0.0,0.0
590,147.25,42.7888,45.0475,133.096,103.555,105.661,,,,104.452,-0.181845,0.0,0.0
592,147.75,43.087,44.7561,132.556,103.517,105.038,,,,104.442,-0.131725,0.0,0.0
594,148.25,43.1793,44.9284,133.315,103.498,105.283,,,,104.392,-0.154379,0.0,0.0
596,148.75,42.8011,44.7185,130.865,103.476,105.386,,,,104.392,-0.16516,0.0,0.0