File: 01_Data/LW_Gypsum/Cone/LW_Gypsum_Cone_HF75Scan_220506_R3.csv
Names,Time,Stack TC,Smoke TC,Exh Press,Smoke Comp,Smoke Meas,CO Meter,CO2 Meter,O2 Meter,Sample Mass,Ext Coeff,Start Test,Flame Verif
Chan Gain,,500,500,1,1,1,1,1,1,1,1,1.0,1.0
Offset,,0,0,0.135316,0,0,0,0,0,0,0,0.0,0.0
Gain,,1,1,25.011,13.8443,15.4071,1,1,1,1.00079,1.02936,1.0,1.0
Units,sec,C,C,Pa,%,%,%,%,%,g,/m,,
Baseline,,41.7806,43.3714,131.571,104.846,106.689,8.58321e-05,0.0419702,21.0042,-447.74,-0.157288,,
2,0.25,41.0417,42.6057,136.086,104.484,106.655,0.000190158,0.0444327,20.996,113.56,-0.185703,0.0,0.0
4,0.75,39.5215,41.7849,131.456,104.518,107.422,0.000223045,0.0444786,20.996,113.51,-0.24744,0.0,0.0
6,1.25,39.232,40.8127,132.711,104.527,106.052,0.000251396,0.044548,20.996,113.45,-0.130842,0.0,0.0
8,1.75,39.5687,41.0742,131.246,104.542,106.497,0.000274361,0.0446041,20.9959,113.439,-0.167317,0.0,0.0
10,2.25,39.0337,41.0407,135.287,104.566,106.752,0.000291756,0.0446853,20.9959,113.419,-0.186786,0.0,0.0
12,2.75,39.1086,40.7385,131.147,104.577,107.165,0.000305847,0.0447832,20.9959,113.45,-0.220723,0.0,0.0
14,3.25,39.6054,41.4536,129.883,104.591,106.885,0.000318466,0.0448625,20.9957,113.439,-0.195954,0.0,0.0
16,3.75,39.1893,41.3418,132.642,104.611,107.717,0.000328687,0.0449267,20.9953,113.399,-0.264236,0.0,0.0
18,4.25,39.7564,41.0367,128.921,104.618,106.547,0.000344198,0.0449788,20.9949,113.399,-0.164902,0.0,0.0
20,4.75,39.6568,41.0551,129.618,104.645,106.936,0.000356762,0.0450209,20.9947,113.399,-0.195578,0.0,0.0
22,5.25,40.0877,41.3141,129.48,104.658,106.125,0.00038623,0.045055,20.9945,113.349,-0.125702,0.0,0.0
24,5.75,39.9139,40.7025,128.759,104.683,106.131,0.0004101,0.0450556,20.9947,113.309,-0.124035,0.0,0.0
26,6.25,40.0367,41.3869,131.223,104.677,104.95,0.000429434,0.045056,20.9949,113.289,-0.0235677,0.0,0.0
28,6.75,39.7646,41.6646,131.176,104.694,105.591,0.000474954,0.0450563,20.9951,113.219,-0.0770804,0.0,0.0
30,7.25,40.1198,41.3909,132.556,104.709,104.793,0.000538697,0.0450566,20.9948,113.159,-0.00727667,0.0,0.0
32,7.75,39.5499,41.1448,133.482,104.729,105.727,0.000610049,0.0450433,20.9946,113.129,-0.0855919,0.0,0.0
34,8.25,40.1022,41.211,131.436,104.722,105.067,0.000685592,0.0450325,20.9944,113.139,-0.0297002,0.0,0.0
36,8.75,40.1945,41.4119,133.454,104.739,105.095,0.000746781,0.0450237,20.9942,113.169,-0.0305864,0.0,0.0
38,9.25,40.2638,41.2831,131.806,104.741,104.915,0.000879603,0.0450166,20.994,113.109,-0.0149549,0.0,0.0
40,9.75,40.1769,41.5849,131.711,104.752,105.37,0.000915333,0.0450109,20.994,113.039,-0.0530956,0.0,0.0
42,10.25,39.9689,41.9029,131.353,104.76,104.133,0.0010261,0.0450062,20.9934,113.059,0.054227,0.0,0.0
44,10.75,40.1634,41.5923,130.67,104.772,103.814,0.00111583,0.0450567,20.9926,112.949,0.0829309,0.0,0.0
46,11.25,40.4353,41.7924,133.566,104.77,103.928,0.00125039,0.0450976,20.9914,112.909,0.0728218,0.0,0.0
48,11.75,40.0744,42.0155,129.568,104.783,103.075,0.00135938,0.0453343,20.9901,112.829,0.14836,0.0,0.0
50,12.25,40.6885,42.0245,132.968,104.778,102.639,0.00149627,0.0456077,20.9851,112.859,0.186221,0.0,0.0
52,12.75,40.4695,42.0038,130.587,104.802,101.697,0.00160716,0.0466974,20.9775,112.749,0.271536,0.0,0.0
54,13.25,40.1042,42.2151,132.519,104.789,100.306,0.0017085,0.0485608,20.9714,112.599,0.394784,0.0,0.0
56,13.75,40.4761,41.8496,125.597,104.799,105.084,0.00180095,0.0530566,20.9664,112.589,-0.0245234,0.0,0.0
58,14.25,39.9548,42.13,123.77,104.795,109.662,0.00187584,0.0593861,20.945,112.549,-0.409873,0.0,1.0
60,14.75,40.5678,42.1303,118.5,104.795,110.023,0.0019365,0.0741907,20.9276,112.389,-0.439558,0.0,1.0
62,15.25,40.5749,42.4632,118.006,104.799,111.607,0.00198442,0.0861824,20.9037,112.309,-0.568343,0.0,1.0
64,15.75,40.8579,42.0745,111.017,104.804,111.092,0.00202324,0.103498,20.8757,112.199,-0.52612,0.0,1.0
66,16.25,41.3872,42.3981,118.125,104.797,110.535,0.00205275,0.124366,20.8419,112.199,-0.481339,0.0,1.0
68,16.75,41.926,43.1089,108.371,104.806,110.252,0.00207494,0.141269,20.8046,112.058,-0.457384,0.0,1.0
70,17.25,42.365,42.9051,105.711,104.8,110.658,0.00209354,0.15496,20.7744,111.928,-0.491141,0.0,1.0
72,17.75,43.0701,43.4091,108.767,104.798,110.296,0.00210919,0.185124,20.7272,111.878,-0.461694,0.0,1.0
74,18.25,44.3139,43.6005,109.024,104.797,110.094,0.00213211,0.209556,20.689,111.748,-0.445237,0.0,1.0
76,18.75,44.4402,44.7224,111.912,104.801,110.014,0.0021599,0.23756,20.6528,111.658,-0.438314,0.0,1.0
78,19.25,44.4129,44.3936,116.538,104.79,110.188,0.00218241,0.260243,20.6235,111.568,-0.45353,0.0,1.0
80,19.75,45.2347,45.0417,108.45,104.791,111.032,0.00224815,0.282191,20.5998,111.428,-0.522317,0.0,0.0
82,20.25,45.9042,45.7826,108.686,104.795,110.185,0.0023014,0.303185,20.5806,111.328,-0.452824,0.0,0.0
84,20.75,46.9223,46.7385,113.638,104.779,110.118,0.00234453,0.321478,20.565,111.308,-0.448732,0.0,0.0
86,21.25,47.8629,47.2793,112.083,104.771,110.163,0.00249667,0.337455,20.5524,111.188,-0.453127,0.0,0.0
88,21.75,48.0063,47.7412,112.9,104.776,110.354,0.00270244,0.35013,20.5421,111.108,-0.468396,0.0,0.0
90,22.25,49.203,48.5533,115.622,104.775,109.936,0.00294342,0.360158,20.5391,111.028,-0.434126,0.0,0.0
92,22.75,49.5952,49.0004,113.774,104.769,109.222,0.00313861,0.368281,20.5415,110.988,-0.375822,0.0,0.0
94,23.25,50.2445,49.7269,113.348,104.754,109.69,0.00354929,0.371832,20.5519,110.907,-0.415691,0.0,0.0
96,23.75,50.8851,50.4904,118.995,104.76,109.458,0.00388194,0.371983,20.5679,110.837,-0.396077,0.0,0.0
98,24.25,51.3226,50.529,123.435,104.745,108.79,0.00447793,0.372105,20.5911,110.737,-0.34218,0.0,0.0
100,24.75,51.1588,51.0037,121.808,104.749,108.725,0.00496067,0.364959,20.6189,110.717,-0.33643,0.0,0.0
102,25.25,51.4669,51.4285,125.006,104.728,109.273,0.00572005,0.359171,20.6474,110.667,-0.383591,0.0,0.0
104,25.75,52.0318,52.0702,127.781,104.746,108.224,0.00633515,0.348048,20.6759,110.617,-0.29496,0.0,0.0
106,26.25,51.8939,51.6162,128.184,104.725,107.139,0.00715572,0.339038,20.7034,110.597,-0.205746,0.0,0.0
108,26.75,52.627,52.4233,127.9,104.719,107.14,0.00782039,0.32542,20.7295,110.507,-0.206412,0.0,0.0
110,27.25,51.8073,51.8339,127.337,104.702,107.053,0.00835877,0.314389,20.7507,110.507,-0.200499,0.0,0.0
112,27.75,51.5651,52.0216,130.114,104.698,107.636,0.00912115,0.299809,20.7709,110.507,-0.249945,0.0,0.0
114,28.25,51.4939,52.0272,129.136,104.689,106.875,0.00973868,0.288,20.7899,110.457,-0.186625,0.0,0.0
116,28.75,50.9739,51.9901,126.273,104.698,107.833,0.010307,0.274494,20.8053,110.417,-0.266378,0.0,0.0
118,29.25,51.0366,51.4281,126.64,104.673,107.445,0.0108287,0.263554,20.8208,110.367,-0.235991,0.0,0.0
120,29.75,50.9702,51.505,127.517,104.659,107.673,0.0112858,0.254693,20.8334,110.307,-0.256371,0.0,0.0
122,30.25,50.6954,51.8225,127.792,104.65,106.993,0.0118581,0.243186,20.8501,110.307,-0.199903,0.0,0.0
124,30.75,50.5658,51.2455,129.333,104.653,108.08,0.0120188,0.233866,20.8549,110.287,-0.290891,0.0,0.0
126,31.25,50.8557,51.4791,128.059,104.634,108.582,0.0122937,0.224831,20.8641,110.237,-0.334426,0.0,0.0
128,31.75,50.428,51.2407,129.422,104.629,107.428,0.012498,0.216174,20.8715,110.217,-0.238357,0.0,0.0
130,32.25,50.0256,50.9375,128.36,104.607,107.439,0.0126471,0.208242,20.8788,110.167,-0.241278,0.0,0.0
132,32.75,50.6097,51.0456,127.971,104.602,107.026,0.0127334,0.200989,20.8847,110.137,-0.206837,0.0,0.0
134,33.25,49.6232,51.4204,127.958,104.582,107.689,0.0127722,0.191694,20.89,110.077,-0.264312,0.0,0.0
136,33.75,50.0332,50.7131,127.405,104.57,108.194,0.0128037,0.188617,20.8942,110.017,-0.307576,0.0,0.0
138,34.25,49.9999,51.1748,127.101,104.565,107.947,0.0127732,0.183353,20.8977,110.057,-0.287426,0.0,0.0
140,34.75,49.4808,51.1039,128.641,104.555,108.032,0.0126981,0.177888,20.9017,110.027,-0.295383,0.0,0.0
142,35.25,49.636,50.8393,132.035,104.56,108.495,0.0126043,0.173461,20.9051,109.987,-0.333645,0.0,0.0
144,35.75,49.7464,51.1373,125.94,104.525,108.37,0.0124987,0.168805,20.9077,109.977,-0.326223,0.0,0.0
146,36.25,49.4519,51.0912,130.206,104.528,107.519,0.0123808,0.165035,20.9099,109.917,-0.254778,0.0,0.0
148,36.75,49.3209,50.7579,128.878,104.501,107.548,0.0122563,0.160772,20.9117,109.857,-0.259523,0.0,0.0
150,37.25,49.0761,50.6937,125.879,104.487,106.863,0.0121555,0.157319,20.9133,109.817,-0.203031,0.0,0.0
152,37.75,48.9191,50.9536,131.254,104.482,107.086,0.0120738,0.153971,20.9149,109.817,-0.222281,0.0,0.0
154,38.25,49.7371,50.7704,130.03,104.464,107.67,0.0118905,0.150762,20.9153,109.767,-0.272957,0.0,0.0
156,38.75,48.8958,51.0884,128.084,104.465,107.576,0.0117419,0.148162,20.9149,109.707,-0.264919,0.0,0.0
158,39.25,48.9404,50.8448,128.522,104.451,107.928,0.0115479,0.145322,20.9148,109.727,-0.295711,0.0,0.0
160,39.75,48.8484,50.5844,128.534,104.455,108.212,0.0113908,0.143022,20.9149,109.727,-0.318996,0.0,0.0
162,40.25,48.6812,51.1178,133.666,104.44,106.989,0.0112051,0.141158,20.915,109.636,-0.217721,0.0,0.0
164,40.75,48.9797,50.4939,130.631,104.444,107.444,0.0110547,0.139085,20.9155,109.616,-0.255724,0.0,0.0
166,41.25,48.8606,50.3617,130.331,104.431,107.857,0.0109329,0.136898,20.916,109.626,-0.291522,0.0,0.0
168,41.75,48.2826,50.315,130.856,104.433,106.984,0.0107886,0.13462,20.9163,109.576,-0.217869,0.0,0.0
170,42.25,48.784,50.2009,128.329,104.422,106.705,0.0106718,0.132775,20.9166,109.596,-0.195296,0.0,0.0
172,42.75,48.449,50.2239,126.96,104.416,107.353,0.010567,0.131074,20.917,109.546,-0.250506,0.0,0.0
174,43.25,48.4206,49.252,128.922,104.403,107.185,0.0104821,0.129509,20.9176,109.416,-0.237433,0.0,0.0
176,43.75,48.3795,49.9266,130.502,104.395,107.259,0.010406,0.128242,20.9181,109.456,-0.244343,0.0,0.0
178,44.25,48.1453,50.4157,127.942,104.391,107.047,0.0103378,0.126725,20.9184,109.426,-0.226876,0.0,0.0
180,44.75,48.4446,49.5483,129.249,104.381,107.047,0.0102672,0.125495,20.9192,109.306,-0.227717,0.0,0.0
182,45.25,48.2183,50.1591,133.699,104.366,108.003,0.0101962,0.124242,20.9202,109.336,-0.309268,0.0,0.0
184,45.75,48.3706,50.2536,128.591,104.367,106.912,0.0101082,0.122994,20.9211,109.326,-0.217533,0.0,0.0
186,46.25,48.0033,50.1352,129.149,104.356,108.147,0.0100093,0.121777,20.9217,109.276,-0.322205,0.0,0.0
188,46.75,48.0608,49.6616,127.849,104.346,106.869,0.00988475,0.120605,20.9223,109.196,-0.215746,0.0,0.0
190,47.25,48.0743,49.9471,126.805,104.352,107.599,0.00974382,0.119457,20.9227,109.136,-0.276644,0.0,0.0
192,47.75,47.7485,50.0297,130.276,104.344,107.426,0.00962967,0.118349,20.9231,109.136,-0.262846,0.0,0.0
194,48.25,47.9401,49.7053,128.561,104.337,107.402,0.00947559,0.11726,20.9234,109.086,-0.261449,0.0,0.0
196,48.75,47.7541,49.7872,134.991,104.318,106.564,0.00929534,0.116206,20.9241,108.966,-0.19238,0.0,0.0
198,49.25,47.8255,49.7994,133.525,104.332,106.732,0.0091196,0.115132,20.9246,108.986,-0.205421,0.0,0.0
200,49.75,47.6841,49.6064,128.871,104.304,107.324,0.00887841,0.114064,20.9255,109.006,-0.257664,0.0,0.0
202,50.25,47.5762,49.6732,127.094,104.309,107.523,0.00871501,0.113198,20.9259,109.026,-0.274017,0.0,0.0
204,50.75,47.4539,49.5451,128.874,104.312,106.915,0.00858265,0.112135,20.9267,108.916,-0.222601,0.0,0.0
206,51.25,47.6271,49.6675,129.714,104.303,107.453,0.00852623,0.111274,20.927,108.956,-0.268643,0.0,0.0
208,51.75,47.2096,49.8938,131.083,104.291,107.029,0.00837965,0.110576,20.9278,108.956,-0.233921,0.0,0.0
210,52.25,47.5013,49.6058,132.672,104.283,106.914,0.00826092,0.109719,20.9287,108.846,-0.225008,0.0,0.0
212,52.75,47.2879,49.4267,128.937,104.283,107.329,0.00811848,0.108612,20.9294,108.816,-0.260041,0.0,0.0
214,53.25,47.5999,49.2132,132.531,104.27,107.298,0.00800309,0.107906,20.93,108.846,-0.258487,0.0,0.0
216,53.75,47.0015,49.2502,131.661,104.256,107.247,0.00786591,0.107158,20.9304,108.856,-0.255384,0.0,0.0
218,54.25,47.1859,48.9075,128.874,104.265,107.166,0.00775479,0.106756,20.9308,108.806,-0.247841,0.0,0.0
220,54.75,46.9073,49.1026,129.878,104.235,106.55,0.00766478,0.106069,20.9311,108.786,-0.198392,0.0,0.0
222,55.25,47.0796,49.6047,129.485,104.247,106.219,0.00753823,0.105248,20.9313,108.716,-0.169233,0.0,0.0
224,55.75,47.1568,49.2381,131.257,104.225,107.091,0.00743572,0.104583,20.9315,108.746,-0.244977,0.0,0.0
226,56.25,46.5163,49.2746,127.517,104.236,107.049,0.00733897,0.103822,20.9319,108.676,-0.24042,0.0,0.0
228,56.75,47.0438,48.6089,127.229,104.222,106.983,0.0072606,0.103206,20.9324,108.716,-0.23615,0.0,0.0
230,57.25,46.9263,49.4606,132.131,104.23,106.62,0.00720461,0.102546,20.9331,108.676,-0.20473,0.0,0.0
232,57.75,46.9836,48.6302,128.376,104.209,107.388,0.00715925,0.101867,20.9338,108.576,-0.271348,0.0,0.0
234,58.25,46.8388,49.2742,128.735,104.219,107.008,0.00713872,0.101317,20.9344,108.516,-0.238472,0.0,0.0
236,58.75,46.9375,49.6434,129.116,104.199,107.156,0.00712209,0.100608,20.9349,108.496,-0.252682,0.0,0.0
238,59.25,46.3713,48.9806,130.286,104.2,106.327,0.00712116,0.100033,20.9353,108.506,-0.182487,0.0,0.0
240,59.75,46.7366,48.8911,129.392,104.189,106.79,0.0071204,0.0993461,20.9356,108.426,-0.222604,0.0,0.0
242,60.25,46.7782,49.4489,131.134,104.195,106.81,0.00711978,0.0987896,20.9359,108.426,-0.223801,0.0,0.0
244,60.75,46.5605,49.0955,129.329,104.187,107.478,0.00712677,0.098214,20.9368,108.446,-0.280843,0.0,0.0
246,61.25,46.5624,48.8828,133.208,104.189,107.044,0.00713243,0.0977479,20.9382,108.285,-0.244084,0.0,0.0
248,61.75,46.5633,48.8409,128.332,104.175,107.199,0.00713702,0.0973042,20.9394,108.325,-0.258374,0.0,0.0
250,62.25,46.0696,48.5552,128.307,104.182,106.539,0.00713614,0.0968853,20.9403,108.305,-0.202048,0.0,0.0
252,62.75,46.454,48.7362,128.963,104.183,107.153,0.00713128,0.096546,20.941,108.325,-0.253796,0.0,0.0
254,63.25,46.594,48.3639,129.859,104.216,106.715,0.0071221,0.0961764,20.9417,108.265,-0.213977,0.0,0.0
256,63.75,46.4111,48.4225,127.039,104.207,106.905,0.00710994,0.0957918,20.9421,108.235,-0.230765,0.0,0.0
258,64.25,46.8761,48.7404,129.691,104.252,106.778,0.00709221,0.0954802,20.9428,108.255,-0.216156,0.0,0.0
260,64.75,46.2115,48.2188,129.396,104.258,107.602,0.00707076,0.0950894,20.9435,108.225,-0.285037,0.0,0.0
262,65.25,46.3382,48.8144,129.031,104.294,106.64,0.00704814,0.0947729,20.9441,108.205,-0.200837,0.0,0.0
264,65.75,46.4097,48.5336,128.403,104.312,106.679,0.00702509,0.0944073,20.9445,108.165,-0.202608,0.0,0.0
266,66.25,46.4303,48.3928,129.129,104.358,107.386,0.0069979,0.0940128,20.9449,108.135,-0.258317,0.0,0.0
268,66.75,46.4247,48.6507,125.645,104.364,108.01,0.0069682,0.0936205,20.9457,108.105,-0.31004,0.0,0.0
270,67.25,46.6457,48.7559,126.43,104.402,108.361,0.006933,0.0932373,20.9463,108.105,-0.336142,0.0,0.0
272,67.75,46.4998,48.2121,127.978,104.416,107.352,0.00689446,0.0928904,20.9468,108.065,-0.250423,0.0,0.0
274,68.25,46.4478,48.9416,128.624,104.452,107.37,0.00686324,0.0925767,20.9472,108.045,-0.248821,0.0,0.0
276,68.75,46.1218,48.5289,130.722,104.469,107.421,0.00682026,0.0922572,20.9475,108.015,-0.251556,0.0,0.0
278,69.25,46.2583,48.2241,129.811,104.505,108.785,0.00676954,0.0919394,20.9482,107.995,-0.362425,0.0,0.0
280,69.75,46.0504,48.5065,128.036,104.54,107.164,0.0067186,0.091682,20.9487,107.935,-0.223819,0.0,0.0
282,70.25,46.0714,48.443,126.42,104.546,108.096,0.00666847,0.0913077,20.9492,107.915,-0.301566,0.0,0.0
284,70.75,46.2094,48.8827,128.447,104.563,108.141,0.00662132,0.0910045,20.9496,107.885,-0.303836,0.0,0.0
286,71.25,46.1459,48.2998,131.515,104.598,107.272,0.00657725,0.090607,20.95,107.825,-0.227925,0.0,0.0
288,71.75,45.7762,48.946,125.901,104.596,107.532,0.00653827,0.090285,20.9504,107.805,-0.249933,0.0,0.0
290,72.25,46.3837,48.3833,125.329,104.631,107.537,0.00650376,0.0900242,20.9509,107.815,-0.247414,0.0,0.0
292,72.75,45.2499,48.4846,129.888,104.645,107.453,0.0064758,0.0896619,20.9516,107.795,-0.239029,0.0,0.0
294,73.25,45.7369,48.568,133.894,104.667,107.428,0.00644446,0.0893104,20.9523,107.795,-0.235039,0.0,0.0
296,73.75,46.1889,48.4435,129.856,104.699,107.046,0.00641907,0.0889733,20.9531,107.765,-0.200198,0.0,0.0
298,74.25,45.7091,48.0873,127.368,104.709,106.932,0.00638733,0.0886204,20.9538,107.705,-0.189678,0.0,0.0
300,74.75,45.672,48.5624,129.612,104.742,107.68,0.00636162,0.0882627,20.9543,107.665,-0.249787,0.0,0.0
302,75.25,46.1417,48.6641,128.684,104.764,108.745,0.00634079,0.0879729,20.9547,107.665,-0.336755,0.0,0.0
304,75.75,46.1135,48.4821,127.433,104.767,107.574,0.00628543,0.087614,20.9551,107.595,-0.238723,0.0,0.0
306,76.25,45.7827,48.5457,129.034,104.792,107.845,0.00624059,0.0873233,20.9554,107.575,-0.259319,0.0,0.0
308,76.75,45.8137,48.2066,127.15,104.803,107.542,0.00616086,0.0868948,20.9556,107.555,-0.232945,0.0,0.0
310,77.25,45.9177,48.562,125.902,104.843,106.791,0.00609628,0.0865477,20.9558,107.505,-0.166257,0.0,0.0
312,77.75,45.5892,48.6855,130.229,104.843,107.271,0.00599442,0.0861359,20.9564,107.465,-0.206757,0.0,0.0
314,78.25,45.7233,48.4064,131.069,104.847,107.231,0.00591191,0.0856849,20.9573,107.435,-0.202988,0.0,0.0
316,78.75,45.2798,48.2094,126.213,104.871,108.11,0.00576012,0.0853196,20.9588,107.465,-0.274726,0.0,0.0
318,79.25,45.4988,48.1539,131.17,104.903,107.139,0.00571929,0.084762,20.9593,107.435,-0.190463,0.0,0.0
320,79.75,44.9549,48.1572,132.843,104.904,107.428,0.00562995,0.0843103,20.9601,107.435,-0.214616,0.0,0.0
322,80.25,45.8409,48.3638,129.774,104.925,106.987,0.00554003,0.0837242,20.9607,107.385,-0.175724,0.0,0.0
324,80.75,45.1371,47.9561,133.312,104.933,108.47,0.00544837,0.0832494,20.9616,107.385,-0.299373,0.0,0.0
326,81.25,45.3642,48.0806,130.767,104.961,108.402,0.0053572,0.0826309,20.9627,107.345,-0.291336,0.0,0.0
328,81.75,45.1349,47.8295,135.019,104.961,106.839,0.00528336,0.0817789,20.9635,107.325,-0.160089,0.0,0.0
330,82.25,45.1126,47.9346,128.735,104.968,108.167,0.00515449,0.0814629,20.9642,107.275,-0.271074,0.0,0.0
332,82.75,45.2406,47.9824,130.523,104.976,106.619,0.00505011,0.0809226,20.9648,107.255,-0.14028,0.0,0.0
334,83.25,44.8799,47.6175,129.728,104.991,107.262,0.00496556,0.0803037,20.9657,107.245,-0.193202,0.0,0.0
336,83.75,44.7601,47.7719,127.249,105.01,107.849,0.00489707,0.0796392,20.9664,107.235,-0.240872,0.0,0.0
338,84.25,45.1056,48.2739,132.268,105.01,107.627,0.00475178,0.0789203,20.9667,107.185,-0.222267,0.0,0.0
340,84.75,45.6649,48.018,129.778,105.017,107.128,0.00463409,0.0781754,20.9665,107.165,-0.179738,0.0,0.0
342,85.25,45.2086,47.912,130.599,105.023,107.448,0.00449823,0.077572,20.9666,107.165,-0.206138,0.0,0.0
344,85.75,45.3101,47.4817,129.261,105.034,107.202,0.00438819,0.0770832,20.9669,107.135,-0.184468,0.0,0.0
346,86.25,44.8246,48.0796,131.956,105.034,106.979,0.00425856,0.0766873,20.9674,107.084,-0.165638,0.0,0.0
348,86.75,45.1716,47.6662,128.139,105.052,107.739,0.00415356,0.0757906,20.968,107.074,-0.228021,0.0,0.0
350,87.25,44.7925,47.4193,132.636,105.047,107.391,0.00402807,0.0750642,20.9689,107.054,-0.199325,0.0,0.0
352,87.75,44.5261,47.4289,129.986,105.052,108.007,0.00392642,0.0741606,20.9701,107.014,-0.250454,0.0,0.0
354,88.25,44.8328,47.6125,126.76,105.05,107.22,0.00380368,0.0734288,20.9713,106.984,-0.184629,0.0,0.0
356,88.75,45.2381,47.7993,131.788,105.067,107.497,0.00370426,0.0725483,20.9725,106.974,-0.206509,0.0,0.0
358,89.25,45.1178,48.1575,132.478,105.062,107.845,0.00362373,0.0718352,20.9734,106.924,-0.236087,0.0,0.0
360,89.75,45.0036,47.4142,127.566,105.074,107.753,0.00349982,0.0709976,20.9742,106.864,-0.227352,0.0,0.0
362,90.25,45.3032,47.8376,128.074,105.087,107.653,0.00339945,0.070319,20.9748,106.844,-0.217829,0.0,0.0
364,90.75,44.7744,47.2654,132.092,105.083,107.707,0.00330016,0.0694549,20.9753,106.794,-0.222727,0.0,0.0
366,91.25,44.5123,47.4433,135.581,105.08,108.026,0.00320353,0.0687549,20.9766,106.844,-0.249706,0.0,0.0
368,91.75,44.7226,47.3629,128.189,105.089,107.951,0.00311435,0.0680296,20.9776,106.794,-0.242656,0.0,0.0
370,92.25,44.9553,47.674,132.518,105.078,107.395,0.00303228,0.0672997,20.9784,106.774,-0.196951,0.0,0.0
372,92.75,44.4299,47.2416,129.982,105.096,107.699,0.00295426,0.0667085,20.9791,106.754,-0.220895,0.0,0.0
374,93.25,44.6915,47.3663,129.167,105.087,108.365,0.00288066,0.0660571,20.9801,106.714,-0.277341,0.0,0.0
376,93.75,44.8163,46.716,129.585,105.097,107.8,0.00280694,0.0653741,20.9809,106.684,-0.22929,0.0,0.0
378,94.25,44.185,47.3408,131.471,105.089,107.89,0.00273452,0.0647204,20.9815,106.674,-0.237466,0.0,0.0
380,94.75,45.1163,46.8393,129.255,105.105,107.605,0.00266432,0.0641003,20.9821,106.684,-0.212281,0.0,0.0
382,95.25,44.4342,47.5554,130.214,105.092,107.753,0.00259708,0.0634974,20.9825,106.684,-0.225827,0.0,0.0
384,95.75,45.2121,47.4964,130.963,105.107,107.71,0.00254261,0.0629186,20.9828,106.644,-0.220933,0.0,0.0
386,96.25,45.0138,47.0021,129.657,105.106,108.15,0.0024716,0.0623278,20.9831,106.654,-0.257788,0.0,0.0
388,96.75,44.8657,47.2439,132.267,105.111,107.832,0.00238988,0.0617393,20.9838,106.594,-0.230809,0.0,0.0
390,97.25,44.7229,47.5221,127.883,105.102,107.848,0.00230513,0.0612627,20.9843,106.524,-0.232834,0.0,0.0
392,97.75,44.4376,47.5973,131.599,105.111,107.508,0.0022198,0.0606312,20.9847,106.534,-0.203605,0.0,0.0
394,98.25,44.2361,47.5651,128.392,105.106,107.828,0.00213853,0.0601197,20.9851,106.554,-0.23093,0.0,0.0
396,98.75,44.7128,47.3106,128.932,105.111,107.389,0.00206178,0.0595555,20.9858,106.544,-0.193533,0.0,0.0
398,99.25,44.4182,46.9854,127.748,105.1,108.66,0.00199194,0.0590985,20.9864,106.504,-0.300711,0.0,0.0
400,99.75,44.5683,47.147,129.138,105.11,108.647,0.00192848,0.0586351,20.9869,106.474,-0.298897,0.0,0.0
402,100.25,44.7831,47.1526,131.871,105.107,108.467,0.00187707,0.0581758,20.9873,106.464,-0.284172,0.0,0.0
404,100.75,44.6905,47.3016,128.22,105.116,107.281,0.00181845,0.0578038,20.9878,106.444,-0.184115,0.0,0.0
406,101.25,45.0256,47.4361,128.772,105.098,107.313,0.00177097,0.0573527,20.9884,106.414,-0.188252,0.0,0.0
408,101.75,44.5953,46.8377,128.971,105.115,108.496,0.0017203,0.0569873,20.9891,106.364,-0.285872,0.0,0.0
410,102.25,44.6892,46.6972,130.594,105.109,107.761,0.00167926,0.0565415,20.9896,106.354,-0.225007,0.0,0.0
412,102.75,44.4697,46.6353,128.056,105.108,107.991,0.00164602,0.0561805,20.9901,106.344,-0.244361,0.0,0.0
414,103.25,44.0993,46.9265,132.032,105.1,107.737,0.00159849,0.0557383,20.9905,106.334,-0.223758,0.0,0.0
416,103.75,44.4907,46.7658,126.024,105.116,108.498,0.00155999,0.0553801,20.9908,106.314,-0.285956,0.0,0.0
418,104.25,44.5028,47.2506,130.122,105.091,108.097,0.0015186,0.0550116,20.991,106.264,-0.254655,0.0,0.0
420,104.75,44.012,46.9342,130.483,105.103,107.172,0.0014759,0.0546426,20.9912,106.204,-0.176092,0.0,0.0
422,105.25,44.1149,46.9879,128.522,105.098,107.093,0.00143111,0.0543437,20.9914,106.204,-0.16983,0.0,0.0
424,105.75,44.3051,46.7525,128.926,105.103,107.995,0.00138566,0.0539656,20.9915,106.224,-0.245039,0.0,0.0
426,106.25,44.7185,46.9992,132.144,105.098,107.502,0.00134884,0.0536593,20.9916,106.214,-0.204221,0.0,0.0
428,106.75,44.0614,46.8205,129.035,105.102,107.561,0.0013031,0.0533296,20.9917,106.214,-0.208865,0.0,0.0
430,107.25,44.2194,46.8507,129.245,105.087,107.502,0.00125172,0.0530626,20.992,106.144,-0.205086,0.0,0.0
432,107.75,43.7039,46.5705,129.034,105.081,106.856,0.00120056,0.052789,20.9924,106.114,-0.151282,0.0,0.0
434,108.25,44.5499,47.0472,131.276,105.08,106.879,0.00115052,0.0525159,20.9927,106.084,-0.153338,0.0,0.0
436,108.75,44.5135,46.639,129.418,105.078,108.133,0.001103,0.0522947,20.993,106.074,-0.258692,0.0,0.0
438,109.25,43.9172,46.6366,128.227,105.081,107.203,0.00105821,0.0521155,20.9932,106.044,-0.180593,0.0,0.0
440,109.75,44.3531,46.8033,129.536,105.068,107.261,0.00102192,0.0518072,20.9934,106.064,-0.186513,0.0,0.0
442,110.25,44.2567,46.6182,130.602,105.078,107.75,0.000992536,0.0515575,20.9935,106.054,-0.226712,0.0,0.0
444,110.75,43.995,46.4667,129.344,105.062,107.527,0.000968732,0.0512873,20.9936,105.994,-0.209435,0.0,0.0
446,111.25,43.8034,46.6772,130.783,105.056,106.79,0.00094945,0.0510684,20.9937,106.044,-0.147857,0.0,0.0
448,111.75,44.2226,46.0283,132.695,105.046,107.857,0.000948336,0.0508096,20.994,106.054,-0.238454,0.0,0.0
450,112.25,44.4024,46.6096,131.715,105.039,107.037,0.000947434,0.0506,20.9945,106.034,-0.170082,0.0,0.0
452,112.75,43.8024,46.2314,131.7,105.07,107.762,0.000952748,0.0503486,20.9949,105.994,-0.228463,0.0,0.0
454,113.25,44.2869,46.761,130.818,105.025,107.565,0.000957052,0.0501451,20.9952,105.974,-0.215789,0.0,0.0
456,113.75,44.3824,46.64,126.436,105.021,108.065,0.000956911,0.0499802,20.9954,105.954,-0.257975,0.0,0.0
458,114.25,43.9177,46.0946,131.41,105.016,108.384,0.000956798,0.0497243,20.9956,105.934,-0.284973,0.0,0.0
460,114.75,43.9716,46.4359,128.903,105.005,107.126,0.000949708,0.0495171,20.9958,105.934,-0.180557,0.0,0.0
462,115.25,43.7939,45.7768,134.049,104.997,107.431,0.000937667,0.0493278,20.9959,105.884,-0.207008,0.0,0.0
464,115.75,43.8484,46.6983,129.241,104.985,107.15,0.000918375,0.0491552,20.996,105.874,-0.184322,0.0,0.0
466,116.25,43.8809,46.2041,130.609,104.972,107.528,0.000894165,0.0489868,20.9961,105.874,-0.217249,0.0,0.0
468,116.75,44.0252,46.2964,130.159,104.967,107.609,0.000874554,0.0488246,20.9961,105.803,-0.224477,0.0,0.0
470,117.25,43.427,46.4824,128.111,104.943,107.691,0.000847865,0.048679,20.9962,105.783,-0.233375,0.0,0.0
472,117.75,43.6449,45.9393,126.346,104.93,107.82,0.000816523,0.0485482,20.9962,105.813,-0.245373,0.0,0.0
474,118.25,44.4321,46.3813,128.616,104.915,107.486,0.000789865,0.0484422,20.9963,105.743,-0.218565,0.0,0.0
476,118.75,44.1919,46.0451,129.613,104.911,107.654,0.000767128,0.0483563,20.9963,105.743,-0.233062,0.0,0.0
478,119.25,43.8151,46.6829,128.478,104.879,107.527,0.000753795,0.0482868,20.9963,105.713,-0.225208,0.0,0.0
480,119.75,43.7305,46.3168,126.845,104.863,107.334,0.00074757,0.0482033,20.9964,105.683,-0.210275,0.0,0.0
482,120.25,44.0072,46.0564,130.561,104.846,107.528,0.000748884,0.0481357,20.9964,105.683,-0.228085,0.0,0.0
484,120.75,44.2207,46.314,132.825,104.816,107.458,0.000755669,0.0480238,20.9968,105.673,-0.224788,0.0,0.0
486,121.25,43.9535,46.0873,132.124,104.807,107.938,0.000761164,0.0478817,20.9972,105.673,-0.265761,0.0,0.0
488,121.75,44.0641,46.3311,128.113,104.786,106.925,0.000771655,0.047738,20.9975,105.673,-0.182457,0.0,0.0
490,122.25,43.1802,46.2095,128.756,104.777,107.196,0.000780153,0.0475958,20.9977,105.633,-0.206103,0.0,0.0
492,122.75,43.6585,46.1323,128.452,104.768,107.43,0.000779869,0.0474807,20.9978,105.613,-0.226567,0.0,0.0
494,123.25,43.8598,46.2947,134.162,104.737,107.584,0.000779639,0.0473875,20.9978,105.623,-0.242178,0.0,0.0
496,123.75,43.9031,46.1007,130.536,104.716,108.072,0.000779452,0.0473191,20.9978,105.613,-0.284833,0.0,0.0
498,124.25,43.9782,45.9028,129.337,104.694,107.177,0.00075274,0.0472702,20.9978,105.623,-0.211652,0.0,0.0
500,124.75,43.4885,46.5688,129.464,104.675,106.461,0.000731103,0.0472305,20.9979,105.593,-0.152759,0.0,0.0
502,125.25,43.2282,46.5213,130.783,104.648,107.008,0.000704686,0.0471433,20.9979,105.563,-0.201358,0.0,0.0
504,125.75,44.2315,45.6368,127.907,104.644,107.368,0.000675287,0.0470727,20.9979,105.533,-0.231984,0.0,0.0
506,126.25,44.0461,45.8328,129.836,104.609,107.228,0.000650838,0.0469655,20.9979,105.493,-0.223295,0.0,0.0
508,126.75,43.5469,46.2863,132.72,104.585,108.009,0.000630463,0.0468337,20.9979,105.543,-0.290829,0.0,0.0
510,127.25,43.4045,46.2954,124.292,104.593,107.249,0.000622215,0.0467269,20.9979,105.503,-0.22635,0.0,0.0
512,127.75,43.8458,46.1829,127.452,104.597,107.539,0.000622963,0.0466676,20.9979,105.483,-0.250453,0.0,0.0
514,128.25,43.505,46.3187,128.337,104.606,107.362,0.000636913,0.0466195,20.9979,105.473,-0.234791,0.0,0.0
516,128.75,44.0116,46.3217,130.622,104.62,107.435,0.000660222,0.0465877,20.9979,105.463,-0.239791,0.0,0.0
518,129.25,43.6923,46.4329,133.527,104.634,106.9,0.000679102,0.0465684,20.9979,105.463,-0.193433,0.0,0.0
520,129.75,43.7723,46.0339,132.311,104.635,106.903,0.000709019,0.046517,20.9979,105.423,-0.193597,0.0,0.0
522,130.25,43.5746,45.7012,130.786,104.642,106.734,0.000746414,0.0464433,20.998,105.383,-0.178706,0.0,0.0
524,130.75,43.3725,45.5826,131.714,104.641,106.267,0.000776705,0.0463693,20.9982,105.413,-0.139194,0.0,0.0
526,131.25,43.5971,46.028,127.825,104.657,107.233,0.000807602,0.0462964,20.9983,105.333,-0.219575,0.0,0.0
528,131.75,43.7237,45.7481,132.424,104.662,106.199,0.000838354,0.0462375,20.9984,105.373,-0.131612,0.0,0.0
530,132.25,43.6177,46.1761,133.249,104.678,106.993,0.000863264,0.0461897,20.9984,105.323,-0.197501,0.0,0.0
532,132.75,43.4175,45.7361,127.491,104.673,107.254,0.000877316,0.046151,20.9985,105.343,-0.219971,0.0,0.0
534,133.25,43.4025,46.0296,129.525,104.694,107.192,0.000888698,0.0461196,20.9985,105.343,-0.212919,0.0,0.0
536,133.75,43.4134,45.9084,131.734,104.705,107.167,0.00087944,0.0460943,20.9988,105.283,-0.209836,0.0,0.0
538,134.25,43.683,45.7846,131.286,104.708,107.073,0.000867078,0.0460737,20.9989,105.313,-0.20173,0.0,0.0
540,134.75,43.2539,45.779,130.831,104.724,107.534,0.000858194,0.046057,20.999,105.263,-0.239088,0.0,0.0
542,135.25,43.4193,46.0893,129.804,104.724,107.458,0.000843002,0.0460172,20.9991,105.243,-0.232722,0.0,0.0
544,135.75,43.1056,45.8193,132.431,104.724,107.504,0.000822434,0.0459848,20.9992,105.223,-0.236632,0.0,0.0
546,136.25,42.8868,45.8635,126.051,104.744,107.168,0.000798338,0.0459451,20.9993,105.183,-0.206603,0.0,0.0
548,136.75,44.0424,46.1479,131.9,104.727,106.791,0.000775009,0.0458992,20.9993,105.163,-0.176156,0.0,0.0
550,137.25,43.8247,46.0685,130.945,104.743,107.736,,0.045835,,105.123,-0.254369,0.0,0.0
552,137.75,43.2036,45.6249,125.852,104.734,107.921,,0.0458077,,105.083,-0.270644,0.0,0.0
554,138.25,43.4634,45.945,131.001,104.762,107.728,,0.0457202,,105.093,-0.252133,0.0,0.0
556,138.75,43.4017,45.9398,131.241,104.753,107.644,,0.0456494,,105.133,-0.245765,0.0,0.0
558,139.25,43.8685,45.5042,132.99,104.779,107.493,,0.0455848,,105.043,-0.230877,0.0,0.0
560,139.75,43.732,45.8098,129.456,104.776,107.026,,0.0455261,,105.023,-0.191788,0.0,0.0
562,140.25,43.71,45.3474,133.196,104.779,106.526,,,,105.033,-0.149379,0.0,0.0
564,140.75,42.9801,45.5146,130.789,104.769,106.471,,,,105.063,-0.145516,0.0,0.0
566,141.25,43.1047,45.8689,133.286,104.779,107.338,,,,105.043,-0.217946,0.0,0.0
568,141.75,43.3773,45.3177,132.495,104.767,107.493,,,,104.953,-0.231933,0.0,0.0
570,142.25,42.982,45.7509,131.501,104.79,107.128,,,,104.993,-0.199263,0.0,0.0
572,142.75,43.3648,45.556,129.945,104.779,107.436,,,,104.963,-0.226169,0.0,0.0
574,143.25,43.5045,45.7354,131.775,104.804,107.839,,,,104.903,-0.257712,0.0,0.0
576,143.75,42.5879,45.503,129.319,104.783,108.033,,,,104.893,-0.275778,0.0,0.0
578,144.25,42.9292,45.133,127.773,104.789,107.891,,,,104.833,-0.263428,0.0,0.0
580,144.75,43.2559,45.2083,130.264,104.804,107.004,,,,104.883,-0.187557,0.0,0.0
582,145.25,43.3667,45.8096,129.87,104.81,107.803,,,,104.863,-0.25421,0.0,0.0
584,145.75,42.9863,44.6125,131.424,104.803,107.18,,,,104.803,-0.202572,0.0,0.0
586,146.25,43.0622,45.7864,130.745,104.81,106.72,,,,104.873,-0.16309,0.0,0.0
588,146.75,43.0918,45.9227,129.29,104.798,106.818,,,,104.853,-0.172384,0.0,0.0
590,147.25,42.7763,45.421,131.244,104.818,107.447,,,,104.903,-0.223733,0.0,0.0
592,147.75,43.2719,45.4899,130.543,104.813,107.096,,,,104.853,-0.194529,0.0,0.0