File: 01_Data/LW_Gypsum/Cone/LW_Gypsum_Cone_HF25Scan_220506_R1.csv
Names,Time,Stack TC,Smoke TC,Exh Press,Smoke Comp,Smoke Meas,CO Meter,CO2 Meter,O2 Meter,Sample Mass,Ext Coeff,Start Test,Flame Verif
Chan Gain,,500,500,1,1,1,1,1,1,1,1,1.0,1.0
Offset,,0,0,0.135316,0,0,0,0,0,0,0,0.0,0.0
Gain,,1,1,25.011,13.8443,15.4071,1,1,1,1.00079,1.02936,1.0,1.0
Units,sec,C,C,Pa,%,%,%,%,%,g,/m,,
Baseline,,17.538,18.1008,142.469,105.45,104.459,0.000475671,0.0463184,20.9937,-446.339,0.0852805,,
3,0.5,17.0745,18.1489,141.885,105.168,104.148,0.000470544,0.0522745,20.9899,117.313,0.0880319,0.0,0.0
6,1.25,16.5935,17.4763,142.104,105.152,104.147,0.000473256,0.0517429,20.9907,117.273,0.0867761,0.0,0.0
9,2,16.5667,16.3642,144.045,105.137,104.205,0.000466793,0.0512724,20.9913,117.273,0.0803751,0.0,0.0
12,2.75,16.7173,17.3503,140.193,105.114,104.189,0.000458483,0.050807,20.9918,117.273,0.0798096,0.0,0.0
15,3.5,16.7459,17.1187,145.072,105.109,104.145,0.00042492,0.0503455,20.9921,117.253,0.0832018,0.0,0.0
18,4.25,16.6154,16.7372,143.499,105.086,104.07,0.000385996,0.0498998,20.9927,117.232,0.0876886,0.0,0.0
21,5,16.3208,17.1108,144.273,105.07,104.156,0.000351458,0.049477,20.9934,117.222,0.0788878,0.0,0.0
24,5.75,16.7295,17.2378,143.169,105.051,104.088,0.00033579,0.0491281,20.9939,117.232,0.0830845,0.0,0.0
27,6.5,16.9907,17.4502,142.932,105.043,104.095,0.000340633,0.0488349,20.9943,117.212,0.0817822,0.0,0.0
30,7.25,15.9872,17.3115,141.465,105.032,104.027,0.000344164,0.0485846,20.9945,117.232,0.0868667,0.0,0.0
33,8,17.0606,17.234,139.86,105.035,103.92,0.000398327,0.0483439,20.9947,117.222,0.0963904,0.0,0.0
36,8.75,16.6587,16.884,143.474,105.01,103.998,0.000458324,0.0481413,20.9949,117.182,0.0873955,0.0,0.0
39,9.5,16.4825,16.9041,145.017,104.986,104.028,0.000511443,0.0479607,20.995,117.172,0.0827891,0.0,0.0
42,10.25,16.5475,17.0893,140.106,104.984,103.927,0.000551253,0.0477923,20.995,117.202,0.0913815,0.0,0.0
45,11,16.7729,17.2963,141.76,104.972,104.008,0.000569946,0.0476695,20.9951,117.172,0.0832679,0.0,0.0
48,11.75,16.8791,17.0617,143.332,104.955,104.043,0.000580397,0.0475801,20.9951,117.122,0.0787939,0.0,0.0
51,12.5,17.2019,17.2978,140.589,104.949,103.971,0.000581316,0.0474567,20.9951,117.172,0.0845306,0.0,0.0
54,13.25,16.6406,17.2645,142.823,104.938,103.958,0.000579814,0.0472854,20.9952,117.122,0.0847289,0.0,0.0
57,14,17.0239,17.7389,144.08,104.922,103.993,0.000578719,0.0471258,20.9952,117.142,0.0802855,0.0,0.0
60,14.75,16.7278,16.8723,142.07,104.91,103.928,0.000571039,0.0469513,20.9952,117.152,0.084939,0.0,0.0
63,15.5,16.8374,17.77,140.71,104.889,104.047,0.000573885,0.0468513,20.995,117.142,0.0727545,0.0,0.0
66,16.25,16.6973,17.5691,144.199,104.903,104.08,0.000586547,0.04679,20.9944,117.092,0.0710588,0.0,0.0
69,17,16.8522,17.6159,141.557,104.87,103.884,0.000607724,0.0469195,20.9934,117.072,0.0852877,0.0,0.0
72,17.75,17.1339,17.1415,146.627,104.869,103.832,0.000635216,0.0470282,20.9926,117.072,0.0897117,0.0,0.0
75,18.5,16.7201,17.0641,144.754,104.85,104.058,0.000655257,0.0471319,20.9921,117.072,0.0683928,0.0,0.0
78,19.25,16.6176,17.3572,145.802,104.836,103.774,0.000660211,0.0472075,20.9922,117.062,0.0918685,0.0,0.0
81,20,16.7969,17.2731,145.069,104.843,103.817,0.000650813,0.0472897,20.993,117.042,0.088842,0.0,0.0
84,20.75,17.0186,17.618,141.414,104.827,103.866,0.000628757,0.0473613,20.9936,117.042,0.0831709,0.0,0.0
87,21.5,16.4145,17.3657,143.986,104.822,103.732,0.000600617,0.047392,20.994,117.022,0.0943912,0.0,0.0
90,22.25,16.582,17.3049,139.486,104.816,103.883,0.00055948,0.0473777,20.9949,117.032,0.0807485,0.0,0.0
93,23,16.7276,17.5067,143.505,104.812,103.684,0.000517455,0.0473092,20.9956,117.042,0.0977662,0.0,0.0
96,23.75,16.7066,17.2468,143.171,104.814,103.752,0.000481109,0.0472379,20.9961,116.982,0.0919399,0.0,0.0
99,24.5,16.905,17.2489,140.32,104.794,103.862,0.000444851,0.0471492,20.9965,117.002,0.0806951,0.0,0.0
102,25.25,17.2705,17.7572,140.739,104.809,103.821,0.000392644,0.0470574,20.9968,117.032,0.085486,0.0,0.0
105,26,16.6377,17.6008,142.39,104.803,103.854,0.000336524,0.0469789,20.9969,117.012,0.0820776,0.0,0.0
108,26.75,16.6406,17.0986,142.691,104.79,103.807,0.000283478,0.0469217,20.9971,117.062,0.0851107,0.0,0.0
111,27.5,16.8134,17.8494,139.84,104.775,103.839,0.000237224,0.0468393,20.9972,117.042,0.0810194,0.0,0.0
114,28.25,17.1884,17.479,139.4,104.771,103.868,0.000205996,0.0467404,20.9973,116.972,0.0781205,0.0,0.0
117,29,16.616,17.637,140.677,104.781,103.837,0.00018749,0.0466317,20.9973,116.982,0.0817331,0.0,0.0
120,29.75,16.8314,17.3427,143.106,104.774,103.8,0.000198041,0.046475,20.9971,116.972,0.0843408,0.0,0.0
123,30.5,17.1081,17.0442,141.773,104.76,103.84,0.000218981,0.0463465,20.9968,116.962,0.0797051,0.0,0.0
126,31.25,17.0117,17.7328,140.269,104.76,103.884,0.000243066,0.0462284,20.9966,116.932,0.0757843,0.0,0.0
129,32,16.9603,17.1246,140.018,104.768,103.781,0.000266045,0.0461713,20.9971,116.932,0.0854668,0.0,0.0
132,32.75,16.8393,17.7597,142.572,104.757,103.702,0.000291391,0.0461791,20.9974,116.882,0.0913592,0.0,0.0
135,33.5,17.4733,17.236,138.579,104.754,103.815,0.000312279,0.0461849,20.9977,116.882,0.0813256,0.0,0.0
138,34.25,16.76,17.9329,143.651,104.757,103.747,0.000328534,0.0461891,20.9978,116.882,0.0874339,0.0,0.0
141,35,16.4101,17.0737,141.216,104.754,103.665,0.000325924,0.0462192,20.998,116.862,0.0944157,0.0,0.0
144,35.75,17.2184,17.4709,137.906,104.765,103.873,0.000317857,0.0462385,20.9981,116.852,0.0772796,0.0,0.0
147,36.5,16.6942,17.5326,143.527,104.755,103.722,0.000291361,0.0462282,20.9981,116.802,0.0894942,0.0,0.0
150,37.25,16.9928,17.6028,139.183,104.751,103.746,0.000263616,0.0461663,20.9982,116.832,0.0870831,0.0,0.0
153,38,16.8821,18.0093,141.751,104.76,103.694,0.000241698,0.0460981,20.9982,116.812,0.0922744,0.0,0.0
156,38.75,16.6983,18.0522,141.786,104.761,103.856,0.000228971,0.0459806,20.9982,116.802,0.0783094,0.0,0.0
159,39.5,16.9046,17.6546,142.019,104.751,103.733,0.000247295,0.0458802,20.9983,116.762,0.0882248,0.0,0.0
162,40.25,16.5931,17.109,142.473,104.751,103.741,0.000276317,0.0458315,20.9983,116.762,0.0874562,0.0,0.0
165,41,16.604,17.5854,143.223,104.752,103.693,0.000304153,0.0458153,20.9982,116.762,0.0917779,0.0,0.0
168,41.75,17.2064,16.9234,141.596,104.754,103.683,0.000324445,0.0457746,20.998,116.772,0.0928593,0.0,0.0
171,42.5,17.154,17.4948,138.918,104.756,103.777,0.000344395,0.0456953,20.9985,116.712,0.0847791,0.0,0.0
174,43.25,17.0878,17.6552,145.049,104.749,103.613,0.000351707,0.0455989,20.9991,116.732,0.0984902,0.0,0.0
177,44,16.3695,17.1016,139.598,104.754,103.708,0.000348248,0.0455286,20.9995,116.722,0.0906484,0.0,0.0
180,44.75,17.2964,17.7954,141.559,104.756,103.692,0.000335966,0.0454638,20.9998,116.712,0.0921913,0.0,0.0
183,45.5,17.1509,17.4324,142.103,104.744,103.807,0.000319785,0.0454107,21.0001,116.682,0.0811411,0.0,0.0
186,46.25,16.5324,17.4926,139.693,104.739,103.915,0.000306175,0.0453334,21.0002,116.692,0.071266,0.0,0.0
189,47,16.8503,17.4787,140.307,104.741,103.695,0.000298422,0.0452499,21.0004,116.662,0.0906665,0.0,0.0
192,47.75,17.265,17.3623,139.44,104.744,103.772,0.000309954,0.0451703,21.0005,116.652,0.0841734,0.0,0.0
195,48.5,16.8665,17.7731,139.73,104.754,103.804,0.000318361,0.0451,21.0005,116.602,0.0822291,0.0,0.0
198,49.25,17.0238,17.7388,140.519,104.746,103.727,0.000343399,0.0450624,21.0006,116.632,0.0882472,0.0,0.0
201,50,17.2135,17.8935,138.99,104.742,103.753,0.000359748,0.0450336,21.0006,116.622,0.0856278,0.0,0.0
204,50.75,17.1074,17.2793,139.847,104.747,103.716,0.000368412,0.0450004,21.0006,116.602,0.0892981,0.0,0.0
207,51.5,16.827,17.9467,139.739,104.745,103.805,0.00035582,0.0449762,21.0007,116.602,0.0813779,0.0,0.0
210,52.25,16.9666,17.6573,145.537,104.731,103.788,0.000337004,0.0449586,21.0007,116.612,0.0816125,0.0,0.0
213,53,17.2828,17.7787,142.442,104.736,103.809,0.000316009,0.0449457,21.0007,116.632,0.0802908,0.0,0.0
216,53.75,16.7319,17.7315,141.962,104.739,103.82,0.000295283,0.0449363,21.0007,116.622,0.0795226,0.0,0.0
219,54.5,17.153,17.7372,138.913,104.74,103.865,0.000276562,0.0449295,21.0007,116.572,0.0757523,0.0,0.0
222,55.25,17.3313,17.6127,137.369,104.725,103.876,0.000261373,0.0448858,21.0007,116.552,0.0734923,0.0,0.0
225,56,17.3589,17.8928,144.253,104.717,103.714,0.000250301,0.0448811,21.0007,116.542,0.0869115,0.0,0.0
228,56.75,17.0826,17.4462,141.722,104.725,103.836,0.000242863,0.0448892,21.0007,116.532,0.0770085,0.0,0.0
231,57.5,16.9699,17.7078,142.764,104.71,103.736,0.000238524,0.0448952,21.0007,116.532,0.0843696,0.0,0.0
234,58.25,17.0081,18.0577,141.797,104.711,103.638,0.000233644,0.0449402,21.0007,116.542,0.0930404,0.0,0.0
237,59,17.3101,17.5885,146.646,104.697,103.833,0.000243829,0.0449903,21.0007,116.492,0.0747756,0.0,0.0
240,59.75,17.6192,17.864,141.001,104.713,103.679,0.000251254,0.0450269,21.0007,116.462,0.0896179,0.0,0.0
243,60.5,17.4962,17.4825,142.656,104.696,103.6,0.000285882,0.0450536,21.0007,116.452,0.0949653,0.0,0.0
246,61.25,17.2176,17.4884,143.574,104.701,103.748,0.000317152,0.0451016,21.0007,116.432,0.0825811,0.0,0.0
249,62,17.2162,17.6254,138.982,104.678,103.683,0.000342517,0.0451854,21.0007,116.432,0.086226,0.0,0.0
252,62.75,17.2091,17.5909,138.935,104.683,103.535,0.000350162,0.0452078,21.0007,116.462,0.0996103,0.0,0.0
255,63.5,17.3454,17.8017,143.383,104.671,103.671,0.000345402,0.0452241,21.0007,116.422,0.08663,0.0,0.0
258,64.25,17.3489,17.4478,144.257,104.669,103.649,0.000332173,0.045236,21.0003,116.382,0.0883719,0.0,0.0
261,65,17.4046,17.7468,141.608,104.666,103.753,0.000318725,0.0452583,20.9998,116.382,0.0790692,0.0,0.0
264,65.75,17.4836,17.6859,143.469,104.657,103.68,0.000302417,0.0452803,20.9996,116.362,0.084649,0.0,0.0
267,66.5,17.3678,17.6295,143.44,104.661,103.67,0.000300837,0.0452963,20.9994,116.392,0.0858731,0.0,0.0
270,67.25,17.2352,17.8589,141.126,104.644,103.582,0.000315349,0.045308,20.9993,116.362,0.0920805,0.0,0.0
273,68,17.3549,17.7459,144.48,104.64,103.711,0.00034022,0.0452778,20.9993,116.352,0.0805298,0.0,0.0
276,68.75,18.0267,17.6115,141.48,104.63,103.556,0.00036206,0.0452559,20.9992,116.342,0.0931736,0.0,0.0
279,69.5,17.3808,17.9177,141.096,104.629,103.588,0.000387291,0.0452612,20.9992,116.322,0.0903489,0.0,0.0
282,70.25,17.0969,17.6978,138.113,104.634,103.59,0.000407405,0.0453018,20.9991,116.322,0.0905045,0.0,0.0
285,71,17.6989,18.2053,141.417,104.628,103.552,0.000415723,0.0453507,20.9991,116.292,0.0933547,0.0,0.0
288,71.75,17.7012,17.5369,144.585,104.63,103.535,0.000405228,0.0453757,20.9991,116.272,0.0949771,0.0,0.0
291,72.5,16.8467,18.1032,139.365,104.628,103.456,0.000387816,0.0453465,20.9991,116.272,0.101682,0.0,0.0
294,73.25,17.6527,18.0633,146.402,104.618,103.428,0.00036187,0.0453253,20.9991,116.232,0.103347,0.0,0.0
297,74,18.076,17.749,142.341,104.648,103.454,0.000328432,0.0452904,20.9991,116.222,0.103679,0.0,0.0
300,74.75,17.1534,18.2409,142.716,104.654,103.385,0.000281279,0.0452922,20.9991,116.222,0.110223,0.0,0.0
303,75.5,17.6314,17.5508,143.493,104.682,103.509,0.000233905,0.0452978,20.9991,116.212,0.101753,0.0,0.0
306,76.25,17.7579,17.6986,142.212,104.709,103.494,0.00018987,0.0452898,20.9991,116.202,0.105361,0.0,0.0
309,77,17.3984,18.0585,140.425,104.711,103.408,0.000141527,0.0453032,20.9991,116.182,0.11309,0.0,0.0
312,77.75,17.603,17.8935,141.117,104.726,103.424,0.000103878,0.0452859,20.9991,116.172,0.112969,0.0,0.0
315,78.5,17.818,17.8743,140.544,104.745,103.274,7.92053e-05,0.0452617,20.9991,116.182,0.127677,0.0,0.0
318,79.25,17.3517,17.9387,142.499,104.755,103.252,6.77145e-05,0.0452635,20.9991,116.152,0.130483,0.0,0.0
321,80,17.4835,17.7801,141.542,104.784,103.324,8.16497e-05,0.0453361,20.9991,116.122,0.126743,0.0,0.0
324,80.75,17.4298,17.8253,143.222,104.78,103.341,0.000104482,0.0455112,20.9991,116.122,0.124859,0.0,0.0
327,81.5,17.2119,17.6576,141.286,104.794,103.17,0.000142797,0.0457474,20.9991,116.112,0.141026,0.0,0.0
330,82.25,17.8158,17.7945,147.467,104.82,103.189,0.000206817,0.0460066,20.9991,116.102,0.141564,0.0,0.0
333,83,17.1164,18.1979,144.362,104.833,103.4,0.000261735,0.0461986,20.9991,116.092,0.124315,0.0,0.0
336,83.75,17.4952,18.1354,140.168,104.841,103.152,0.000315875,0.0463141,20.9991,116.072,0.146672,0.0,0.0
339,84.5,17.0846,18.7954,144.512,104.84,103.169,0.000372544,0.0464391,20.9991,116.072,0.145117,0.0,0.0
342,85.25,17.4088,18.1403,140.767,104.861,103.125,0.000422299,0.0465475,20.9991,116.032,0.150764,0.0,0.0
345,86,17.5248,17.7347,139.269,104.868,103.009,0.000462805,0.0466072,20.9991,116.032,0.16152,0.0,0.0
348,86.75,17.6726,17.9905,144.277,104.866,103.067,0.000493419,0.0466365,20.9991,116.002,0.156192,0.0,0.0
351,87.5,17.2591,18.0728,139.021,104.869,103.173,0.000515737,0.0466333,20.9991,116.002,0.147298,0.0,0.0
354,88.25,17.5159,17.7395,139.753,104.861,103.174,0.000529595,0.0466698,20.9991,115.992,0.146447,0.0,0.0
357,89,17.8265,18.4635,141.789,104.881,103.015,0.000540573,0.0467235,20.9993,115.951,0.162076,0.0,0.0
360,89.75,17.5819,18.3391,142.015,104.867,103.025,0.000551834,0.0467742,20.9988,115.911,0.160005,0.0,0.0
363,90.5,17.8325,18.2902,139.447,104.887,103.012,0.000565759,0.0468655,20.9984,115.901,0.16291,0.0,0.0
366,91.25,17.6654,18.1049,141.914,104.873,103.029,0.000585684,0.0469552,20.9981,115.911,0.160149,0.0,0.0
369,92,17.7047,17.9465,142.261,104.883,102.873,0.000612281,0.0471367,20.998,115.901,0.174671,0.0,0.0
372,92.75,17.7384,17.8235,140.723,104.901,103.021,0.000643806,0.0472548,20.9978,115.861,0.163327,0.0,0.0
375,93.5,17.202,18.5007,143.815,104.878,102.758,0.000678742,0.0473164,20.9977,115.831,0.18443,0.0,0.0
378,94.25,17.8124,18.0937,144.482,104.888,103.21,0.00073178,0.0473471,20.9976,115.831,0.145612,0.0,0.0
381,95,17.3497,18.6042,142.365,104.881,102.819,0.000793412,0.047345,20.9976,115.831,0.179236,0.0,0.0
384,95.75,17.8781,17.8492,142.671,104.873,102.766,0.000850041,0.0474015,20.9975,115.821,0.183248,0.0,0.0
387,96.5,17.8111,18.2961,141.24,104.868,102.57,0.000894589,0.0474699,20.9975,115.821,0.200062,0.0,0.0
390,97.25,17.5007,18.0528,142.485,104.876,102.529,0.000906708,0.0475456,20.9975,115.801,0.204313,0.0,0.0
393,98,17.4228,18.3717,139.447,104.872,102.619,0.000880735,0.0476253,20.9975,115.771,0.196116,0.0,0.0
396,98.75,18.0009,18.3445,142.703,104.88,102.72,0.000811859,0.0476253,20.9975,115.751,0.187881,0.0,0.0
399,99.5,17.291,18.2932,139.59,104.881,102.37,0.000756568,0.0476252,20.9974,115.731,0.218757,0.0,0.0
402,100.25,17.2044,18.3845,140.375,104.884,102.443,0.000707573,0.047722,20.9974,115.711,0.212585,0.0,0.0
405,101,17.8432,18.4393,136.371,104.894,102.326,0.00068046,0.0478333,20.9974,115.711,0.223819,0.0,0.0
408,101.75,17.8636,18.3836,139.605,104.894,102.713,0.000671495,0.0479319,20.9974,115.681,0.189778,0.0,0.0
411,102.5,17.257,18.6408,143.153,104.884,102.55,0.000683427,0.0481005,20.9968,115.651,0.203142,0.0,0.0
414,103.25,17.5612,18.3397,142.123,104.893,102.122,0.000692126,0.0482914,20.9964,115.631,0.241772,0.0,0.0
417,104,17.4794,18.556,140.396,104.906,102.185,0.000698467,0.0484595,20.996,115.601,0.237293,0.0,0.0
420,104.75,17.7137,18.1729,142.064,104.908,102.256,0.000677265,0.0486402,20.9958,115.601,0.231245,0.0,0.0
423,105.5,17.8977,18.3888,146.865,104.921,102.018,0.000661808,0.0487583,20.9956,115.581,0.253328,0.0,0.0
426,106.25,17.9572,18.0789,144.256,104.912,102.325,0.000653908,0.0488386,20.9955,115.571,0.225435,0.0,0.0
429,107,17.3569,18.3271,143.463,104.933,102.296,0.000663718,0.0488584,20.9954,115.541,0.229826,0.0,0.0
432,107.75,18.0692,18.3368,143.617,104.925,102.079,0.000698427,0.0488657,20.9953,115.501,0.248283,0.0,0.0
435,108.5,17.7875,18.4991,143.002,104.923,102.087,0.000744268,0.0488588,20.9953,115.511,0.247435,0.0,0.0
438,109.25,17.9586,18.8084,140.818,104.926,102.07,0.000786443,0.0489096,20.9952,115.461,0.249186,0.0,0.0
441,110,17.6093,18.2389,143.896,104.93,102.292,0.000839602,0.0489683,20.9952,115.431,0.22994,0.0,0.0
444,110.75,17.927,18.4743,142.502,104.93,102.177,0.000878356,0.0490111,20.9952,115.421,0.240072,0.0,0.0
447,111.5,17.9803,18.0654,137.657,104.931,102.109,0.000911061,0.0490423,20.9952,115.421,0.24613,0.0,0.0
450,112.25,18.019,18.4568,144.378,104.946,102.316,0.000942522,0.049065,20.995,115.411,0.229163,0.0,0.0
453,113,17.5966,18.4542,141.448,104.956,102.1,0.000969005,0.0490816,20.9949,115.351,0.249185,0.0,0.0
456,113.75,17.5109,18.7622,142.761,104.954,102.28,0.000991735,0.0490722,20.9948,115.341,0.233054,0.0,0.0
459,114.5,18.0444,18.4746,141.874,104.961,102.292,0.00101157,0.0490287,20.9949,115.271,0.23263,0.0,0.0
462,115.25,18.1076,18.1836,138.903,104.956,101.886,0.00103466,0.0490399,20.995,115.261,0.268052,0.0,0.0
465,116,18.072,18.5083,139.089,104.972,102.113,0.00105474,0.0491214,20.9951,115.241,0.249329,0.0,0.0
468,116.75,18.2665,18.5006,142.444,104.98,101.869,0.00108856,0.0492088,20.9952,115.201,0.271623,0.0,0.0
471,117.5,18.0615,18.4081,141.001,104.978,102.511,0.00116158,0.0493523,20.9952,115.171,0.214649,0.0,0.0
474,118.25,18.1377,18.6424,142.232,104.967,102.013,0.00121481,0.049536,20.9952,115.161,0.257742,0.0,0.0
477,119,18.2862,18.4564,144.441,104.979,102.01,0.00134874,0.0496898,20.9953,115.161,0.259014,0.0,0.0
480,119.75,17.4794,19.1698,141.364,104.986,101.93,0.00148524,0.0498676,20.9953,115.121,0.266789,0.0,0.0
483,120.5,17.8201,18.4024,147.273,104.987,102.198,0.00160131,0.0499973,20.9953,115.101,0.243073,0.0,0.0
486,121.25,18.0712,18.5227,144.672,104.992,101.99,0.00170152,0.0499754,20.9953,115.091,0.261973,0.0,0.0
489,122,18.0772,18.6534,144.45,105.014,101.825,0.00176591,0.0499953,20.9953,115.071,0.278444,0.0,0.0
492,122.75,17.996,18.6543,141.464,105.009,102.039,0.00180518,0.0500709,20.9953,115.031,0.259051,0.0,0.0
495,123.5,17.8905,18.6826,140.919,105.011,101.698,0.00182068,0.0501668,20.9953,115.011,0.289454,0.0,0.0
498,124.25,18.1977,18.8711,143.098,105.008,101.872,0.0018217,0.0502398,20.9952,114.981,0.273761,0.0,0.0
501,125,18.1455,18.6457,138.63,104.998,101.261,0.00182244,0.0502686,20.995,114.971,0.327235,0.0,0.0
504,125.75,17.9158,18.5696,139.669,105.04,101.877,0.00181605,0.0503283,20.9948,114.951,0.276074,0.0,0.0
507,126.5,18.2187,18.2658,139.443,105.022,101.362,0.00182111,0.0504144,20.9945,114.931,0.320333,0.0,0.0
510,127.25,17.7378,18.9206,141.576,105.041,101.368,0.00184493,0.0505498,20.9939,114.901,0.321345,0.0,0.0
513,128,17.9739,18.7659,143.828,105.022,101.73,0.00188963,0.0508037,20.9934,114.881,0.287596,0.0,0.0
516,128.75,18.1593,18.7688,140.208,105.035,101.339,0.00197426,0.0510102,20.9931,114.821,0.323396,0.0,0.0
519,129.5,18.2443,18.6866,138.637,105.042,101.825,0.00206273,0.0511975,20.9928,114.801,0.280835,0.0,0.0
522,130.25,17.8736,18.6323,140.785,105.049,101.53,0.00213865,0.0513728,20.9927,114.761,0.307602,0.0,0.0
525,131,18.1504,18.5639,143.209,105.042,101.457,0.00223742,0.0515278,20.9925,114.761,0.31354,0.0,0.0
528,131.75,17.9366,18.9156,138.11,105.05,101.172,0.00233703,0.0516453,20.9924,114.731,0.339625,0.0,0.0
531,132.5,18.3456,18.4292,141.034,105.07,101.518,0.00245685,0.0517186,20.9924,114.7,0.310536,0.0,0.0
534,133.25,17.7645,18.4624,141.758,105.074,100.799,0.00259295,0.0518265,20.9923,114.68,0.375118,0.0,0.0
537,134,18.2707,18.8984,141.458,105.057,101.05,0.00271886,0.0519284,20.9923,114.65,0.351165,0.0,0.0
540,134.75,18.345,18.6338,143.023,105.071,101.003,0.00278187,0.0520802,20.9924,114.63,0.356566,0.0,0.0
543,135.5,18.6818,18.3945,141.344,105.087,100.27,0.00288468,0.0522052,20.9927,114.58,0.423595,0.0,0.0
546,136.25,18.0447,18.7348,138.259,105.081,100.197,0.00297284,0.0523208,20.9923,114.55,0.429736,0.0,0.0
549,137,18.5053,19.1603,140.51,105.099,100.562,0.00307725,0.0524636,20.992,114.54,0.398427,0.0,0.0
552,137.75,18.1233,19.0976,144.083,105.099,100.949,0.00318765,0.0525636,20.9918,114.49,0.363713,0.0,0.0
555,138.5,18.5806,18.3906,139.744,105.107,100.971,0.00328275,0.0527179,20.9916,114.51,0.362504,0.0,0.0
558,139.25,18.6473,19.1199,141.679,105.108,100.767,0.00337782,0.0528712,20.9915,114.46,0.380886,0.0,0.0
561,140,18.3338,18.5132,140.813,105.109,100.245,0.00346842,0.0530004,20.9914,114.43,0.427848,0.0,0.0
564,140.75,18.5063,18.5413,139.116,105.108,100.333,0.00355213,0.0532692,20.9914,114.38,0.419852,0.0,0.0
567,141.5,17.8861,18.8393,139.115,105.132,100.454,0.00363577,0.0534795,20.9911,114.35,0.411017,0.0,0.0
570,142.25,17.9027,18.9957,142.07,105.133,100.966,0.0037548,0.0536573,20.9905,114.32,0.365175,0.0,0.0
573,143,18.1463,19.2405,144.915,105.133,100.458,0.00387475,0.0538822,20.9901,114.3,0.410715,0.0,0.0
576,143.75,18.3879,18.853,142.906,105.131,99.97,0.00401131,0.0540868,20.9897,114.25,0.454538,0.0,0.0
579,144.5,18.5815,18.8171,138.763,105.152,100.311,0.0041316,0.0543913,20.9895,114.22,0.425501,0.0,0.0
582,145.25,18.1477,18.9335,142.696,105.151,100.816,0.00425475,0.054695,20.9894,114.16,0.380129,0.0,0.0
585,146,18.3668,19.0765,143.034,105.161,100.381,0.00436463,0.0550085,20.9892,114.12,0.420079,0.0,0.0
588,146.75,18.0694,18.8431,141.807,105.163,101.353,0.00447912,0.0553352,20.9885,114.09,0.333253,0.0,0.0
591,147.5,19.0205,19.0357,140.177,105.178,100.929,0.00457313,0.0558453,20.9878,113.99,0.372385,0.0,0.0
594,148.25,18.3535,19.1346,141.246,105.173,101.78,0.00462999,0.05677,20.9868,114.01,0.296096,0.0,0.0
597,149,18.5377,18.8052,141.771,105.18,101.532,0.00465146,0.0583895,20.9843,113.97,0.318716,0.0,0.0
600,149.75,18.3589,19.2281,137.449,105.173,102.929,0.00460914,0.0612867,20.9772,113.95,0.194715,0.0,0.0
603,150.5,18.19,19.4619,135.758,105.19,104.13,0.0045151,0.0663344,20.9633,113.88,0.0915073,0.0,1.0
606,151.25,18.3992,19.1424,136.651,105.201,104.791,0.00442649,0.0768014,20.9504,113.88,0.0352658,0.0,1.0
609,152,18.6997,19.0189,137.106,105.198,104.86,0.00432761,0.0891083,20.9323,113.77,0.0290997,0.0,1.0
612,152.75,18.4013,19.1065,135.04,105.192,105.162,0.00424776,0.102815,20.9191,113.71,0.00256361,0.0,1.0
615,153.5,18.7947,19.0333,137.498,105.198,105.566,0.00417629,0.117497,20.9007,113.7,-0.0315817,0.0,1.0
618,154.25,18.6728,19.4689,129.993,105.21,105.732,0.00414346,0.134773,20.8849,113.6,-0.0446395,0.0,1.0
621,155,18.8645,19.5907,133.566,105.213,106.047,0.0041577,0.147368,20.869,113.54,-0.0712883,0.0,1.0
624,155.75,19.3816,20.2395,132.733,105.219,106.346,0.00423338,0.162989,20.8531,113.429,-0.0961673,0.0,1.0
627,156.5,19.845,19.3774,136.088,105.212,106.314,0.00441511,0.175325,20.8415,113.369,-0.0941445,0.0,1.0
630,157.25,20.0066,19.659,133.409,105.217,105.759,0.00454758,0.185939,20.833,113.299,-0.0463915,0.0,1.0
633,158,20.2305,19.9649,132.088,105.226,105.286,0.00480736,0.193543,20.8269,113.239,-0.00515148,0.0,1.0
636,158.75,20.8059,20.5708,134.462,105.226,105.471,0.00511137,0.198191,20.8224,113.189,-0.0209893,0.0,1.0
639,159.5,20.7624,20.4287,133.493,105.22,105.138,0.00541003,0.200144,20.8229,113.149,0.00701106,0.0,1.0
642,160.25,21.3069,20.4516,134.101,105.245,104.92,0.00569191,0.1991,20.8233,113.079,0.0279419,0.0,1.0
645,161,21.2181,21.0453,134.355,105.245,104.874,0.00600711,0.194117,20.8304,113.059,0.0319135,0.0,0.0
648,161.75,21.7875,21.689,143.14,105.233,104.8,0.00637568,0.185711,20.8408,113.019,0.0372567,0.0,0.0
651,162.5,21.8309,21.355,135.415,105.238,104.536,0.00670164,0.177532,20.8526,112.969,0.0604467,0.0,0.0
654,163.25,21.9057,21.8315,140.339,105.247,104.497,0.0069369,0.168064,20.8612,112.949,0.0645387,0.0,0.0
657,164,21.75,21.462,138.829,105.247,104.473,0.00735182,0.157491,20.8754,112.879,0.066616,0.0,0.0
660,164.75,21.8918,22.3099,140.645,105.244,104.434,0.0077046,0.148219,20.8876,112.829,0.0698124,0.0,0.0
663,165.5,21.9696,21.8833,140.253,105.243,104.449,0.00804778,0.137847,20.899,112.819,0.0684398,0.0,0.0
666,166.25,21.562,21.712,138.633,105.25,104.51,0.00841652,0.131783,20.9078,112.789,0.0636591,0.0,0.0
669,167,21.6933,21.7448,141.122,105.25,104.418,0.00868533,0.1238,20.9149,112.769,0.0716568,0.0,0.0
672,167.75,21.825,21.9341,142.821,105.253,104.383,0.00894064,0.116475,20.9212,112.709,0.0750019,0.0,0.0
675,168.5,21.8037,21.8052,140.12,105.239,104.418,0.00917102,0.110786,20.9262,112.679,0.0707597,0.0,0.0
678,169.25,21.4836,21.8928,139.55,105.26,104.333,0.00934705,0.106041,20.9299,112.649,0.0798566,0.0,0.0
681,170,20.4745,21.0809,143.712,105.241,104.508,0.009488,0.102292,20.9325,112.629,0.0630605,0.0,0.0
684,170.75,21.1018,21.3382,141.146,105.24,104.509,0.00959707,0.099362,20.9344,112.599,0.0629429,0.0,0.0
687,171.5,21.1746,21.2231,142.138,105.239,104.307,0.00967928,0.0971016,20.9359,112.569,0.0803602,0.0,0.0
690,172.25,20.7117,21.7922,141.498,105.261,104.35,0.00973921,0.0953294,20.9375,112.509,0.0784652,0.0,0.0
693,173,20.5158,21.2465,137.464,105.242,104.32,0.00977208,0.0939408,20.9387,112.489,0.0794383,0.0,0.0
696,173.75,20.6796,21.5405,141.755,105.231,104.35,0.00979604,0.0928539,20.9396,112.459,0.0758505,0.0,0.0
699,174.5,20.6207,21.1907,142.24,105.24,104.438,0.00977745,0.0920222,20.9402,112.419,0.0690796,0.0,0.0
702,175.25,20.8155,21.0353,140.037,105.239,104.444,0.00974874,0.0913744,20.9407,112.409,0.0684782,0.0,0.0
705,176,20.8349,21.1502,137.708,105.24,104.353,0.00972134,0.0908844,20.941,112.359,0.0764044,0.0,0.0
708,176.75,20.8026,21.0027,142.614,105.239,104.415,0.00967795,0.0904858,20.9413,112.349,0.0709669,0.0,0.0
711,177.5,20.1185,20.9871,139.79,105.234,104.386,0.00962991,0.0901776,20.9415,112.329,0.0730535,0.0,0.0
714,178.25,20.5992,20.6735,140.841,105.234,104.424,0.00956798,0.0899923,20.9416,112.329,0.0697964,0.0,0.0
717,179,20.77,21.2384,140.859,105.223,104.497,0.00948877,0.089871,20.9417,112.269,0.0625528,0.0,0.0
720,179.75,20.111,21.3482,143.553,105.217,104.453,0.00938944,0.0897449,20.9418,112.199,0.0658211,0.0,0.0
723,180.5,20.6854,21.2008,140.866,105.22,104.387,0.0092993,0.0895783,20.9418,112.128,0.0716942,0.0,0.0
726,181.25,20.0345,20.9835,140.286,105.209,104.289,0.00923358,0.089374,20.9419,112.078,0.0793327,0.0,0.0
729,182,21.2715,20.8123,140.137,105.203,104.441,0.00910131,0.0891317,20.9424,112.098,0.0656458,0.0,0.0
732,182.75,20.334,21.1709,148.4,105.201,104.294,0.00896466,0.0888556,20.9429,112.118,0.078192,0.0,0.0
735,183.5,19.955,20.6405,143.76,105.189,104.401,0.00881882,0.0886543,20.9432,112.078,0.0678682,0.0,0.0
738,184.25,20.4154,20.5185,140.7,105.179,104.345,0.0086628,0.0882123,20.944,111.968,0.0718789,0.0,0.0
741,185,20.1793,20.7357,137.156,105.179,104.297,0.00849719,0.0877956,20.9447,111.968,0.0760618,0.0,0.0
744,185.75,20.1451,20.5151,143.428,105.171,104.329,0.00834764,0.0873305,20.9451,111.968,0.0725324,0.0,0.0
747,186.5,19.8455,21.2269,147.63,105.152,104.266,0.00822634,0.0867156,20.9467,111.938,0.0763906,0.0,0.0
750,187.25,19.8736,20.823,141.157,105.15,104.29,0.00812005,0.0860265,20.9478,111.908,0.0741329,0.0,0.0
753,188,20.3189,20.4144,139.061,105.152,104.303,0.00804125,0.0853134,20.9487,111.898,0.0731389,0.0,0.0
756,188.75,19.8901,20.7652,141.139,105.131,104.229,0.00798155,0.0846756,20.9493,111.888,0.0777524,0.0,0.0
759,189.5,19.2532,20.3166,142.829,105.122,104.466,0.00791482,0.0841969,20.9497,111.878,0.0565304,0.0,0.0
762,190.25,19.7932,20.8246,139.947,105.102,104.24,0.00784115,0.083842,20.95,111.838,0.0743485,0.0,0.0
765,191,19.6003,20.6758,139.521,105.1,104.413,0.00776297,0.083544,20.9503,111.808,0.0592683,0.0,0.0
768,191.75,19.5737,21.2828,137.009,105.098,104.167,0.00768234,0.0832304,20.9504,111.788,0.0803047,0.0,0.0
771,192.5,19.6965,20.7855,142.119,105.079,104.235,0.00759684,0.0829317,20.9506,111.748,0.0728004,0.0,0.0
774,193.25,19.8818,20.8524,135.839,105.055,104.32,0.007542,0.0826644,20.9513,111.768,0.0634389,0.0,0.0
777,194,19.8761,20.9801,139.036,105.057,104.292,0.00750522,0.0823517,20.9518,111.718,0.0660252,0.0,0.0
780,194.75,19.6917,20.6959,140.478,105.041,104.316,0.00749156,0.0820824,20.9522,111.688,0.0625699,0.0,0.0
783,195.5,19.3608,20.2561,141.226,105.037,104.189,0.0075041,0.0818396,20.9525,111.668,0.0732019,0.0,0.0
786,196.25,19.7154,20.574,141.498,105.019,104.428,0.00749363,0.081613,20.9527,111.658,0.0509182,0.0,0.0
789,197,20.3177,20.0948,142.163,105,104.221,0.00744353,0.0813102,20.9534,111.608,0.0671898,0.0,0.0
792,197.75,19.8961,20.653,140.652,104.985,104.142,0.00736461,0.0810308,20.954,111.588,0.0728047,0.0,0.0
795,198.5,19.6578,20.6392,145.299,104.973,104.149,0.00726553,0.0805917,20.9544,111.598,0.0711805,0.0,0.0
798,199.25,20.0907,20.4532,140.95,104.951,104.196,0.00715966,0.0801754,20.9547,111.548,0.0652515,0.0,0.0
801,200,19.6366,21.2047,140.656,104.938,104.096,0.00708303,0.0798308,20.9553,111.528,0.07273,0.0,0.0
804,200.75,19.9113,20.1267,138.369,104.921,104.221,0.00697852,0.0793836,20.956,111.488,0.0603932,0.0,0.0
807,201.5,20.1042,20.3044,141.52,104.899,104.116,0.00690233,0.0789201,20.9565,111.458,0.0675958,0.0,0.0
810,202.25,19.5248,20.6898,141.365,104.882,104.101,0.00684679,0.0784586,20.9568,111.448,0.0674452,0.0,0.0
813,203,19.7676,20.6428,139.752,104.866,104.017,0.00682939,0.0781446,20.9571,111.378,0.0734389,0.0,0.0
816,203.75,19.3683,20.7518,143.595,104.857,104.07,0.0068167,0.0776309,20.9579,111.388,0.068068,0.0,0.0
819,204.5,19.9178,20.8505,144.654,104.833,104.009,0.00681244,0.077192,20.9586,111.368,0.0712222,0.0,0.0
822,205.25,19.7508,20.6275,143.077,104.82,103.878,0.00680359,0.0767925,20.9594,111.338,0.0814856,0.0,0.0
825,206,19.912,20.361,143.035,104.793,104.107,0.00678368,0.0763654,20.9599,111.328,0.05931,0.0,0.0
828,206.75,19.7161,20.0651,143.009,104.79,103.938,0.00675548,0.0760034,20.9603,111.278,0.073676,0.0,0.0
831,207.5,19.7327,20.4851,141.771,104.768,104.102,0.00672908,0.0756531,20.9606,111.248,0.0576513,0.0,0.0
834,208.25,19.7037,20.9019,140.062,104.762,104.02,0.00669386,0.0752216,20.9614,111.248,0.0641678,0.0,0.0
837,209,19.3434,20.4828,141.626,104.742,103.893,0.00666361,0.0748636,20.962,111.198,0.0734784,0.0,0.0
840,209.75,19.6924,20.416,139.821,104.73,104.016,0.00663371,0.0745286,20.9625,111.218,0.0617264,0.0,0.0
843,210.5,19.537,20.4396,137.85,104.715,103.833,0.00659823,0.074257,20.9628,111.208,0.0764205,0.0,0.0
846,211.25,19.4845,20.686,144.714,104.696,104.111,0.0065456,0.0740473,20.963,111.188,0.0506067,0.0,0.0
849,212,19.806,19.6922,140.866,104.678,103.85,0.00647144,0.0738161,20.9632,111.128,0.0717369,0.0,0.0
852,212.75,19.8664,20.2593,144.919,104.666,103.901,0.00635008,0.0735826,20.9633,111.118,0.066225,0.0,0.0
855,213.5,19.4351,20.7063,139.156,104.657,103.885,0.00621032,0.0733014,20.9634,111.118,0.0668532,0.0,0.0
858,214.25,19.3974,20.3696,140.082,104.648,103.936,0.00608365,0.0730181,20.9635,111.108,0.0617125,0.0,0.0
861,215,19.2048,20.7705,136.479,104.627,103.893,0.00598074,0.0727431,20.9641,111.088,0.0635704,0.0,0.0
864,215.75,19.3327,20.6708,138.81,104.628,103.841,0.00589398,0.07247,20.9646,111.088,0.0682165,0.0,0.0
867,216.5,19.1296,20.2765,140.987,104.626,103.773,0.00581068,0.072197,20.965,111.068,0.0739194,0.0,0.0
870,217.25,19.3038,20.5509,142.87,104.634,103.89,0.00572891,0.0718611,20.9653,111.048,0.064435,0.0,0.0
873,218,19.2364,19.7965,137.738,104.662,103.989,0.0056408,0.0716163,20.9654,111.038,0.0583005,0.0,0.0
876,218.75,19.0146,21.0308,137.464,104.705,103.951,0.00554318,0.0712814,20.9662,111.028,0.0653242,0.0,0.0
879,219.5,19.2939,20.7973,143.281,104.775,103.85,0.00544606,0.0709725,20.9668,110.988,0.0800796,0.0,0.0
882,220.25,19.0412,19.9743,141.364,104.781,103.851,0.0053564,0.0706363,20.9672,110.978,0.0805842,0.0,0.0
885,221,19.3393,20.4909,145.249,104.801,104.092,0.0052777,0.070268,20.9681,110.958,0.061348,0.0,0.0
888,221.75,19.4792,20.0224,143.818,104.803,103.996,0.00522209,0.0698749,20.9687,110.938,0.0697771,0.0,0.0
891,222.5,19.3839,20.408,139.837,104.813,103.901,0.00518155,0.0694651,20.9692,110.907,0.0788632,0.0,0.0
894,223.25,19.0853,20.4343,142.288,104.819,103.932,0.00517313,0.0690883,20.9696,110.867,0.076714,0.0,0.0
897,224,19.0829,20.4724,141.981,104.816,104.042,0.00517194,0.0688136,20.9698,110.847,0.0669088,0.0,0.0
900,224.75,18.8283,20.0787,140.432,104.814,103.958,0.00516668,0.0686133,20.97,110.817,0.0740304,0.0,0.0
903,225.5,19.1398,20.3416,139.668,104.813,104.015,0.00515172,0.0683893,20.9706,110.807,0.0690583,0.0,0.0
906,226.25,19.2278,20.3112,136.133,104.811,103.928,0.00510132,0.0681755,20.9712,110.787,0.0764664,0.0,0.0
909,227,19.4451,20.41,145.525,104.809,103.947,0.00504773,0.0679335,20.9716,110.787,0.0745738,0.0,0.0
912,227.75,18.8795,20.6306,141.397,104.784,103.99,0.00494211,0.0675814,20.972,110.767,0.0686737,0.0,0.0
915,228.5,19.0125,20.3055,139.687,104.792,103.934,0.00483673,0.06726,20.9719,110.747,0.0741841,0.0,0.0
918,229.25,18.9122,20.3994,143.49,104.762,103.815,0.0046968,0.0669149,20.9719,110.737,0.0820531,0.0,0.0
921,230,19.7064,20.1752,142.53,104.75,104.001,0.0045948,0.0666634,20.9719,110.687,0.0647396,0.0,0.0
924,230.75,19.1866,20.5006,141.604,104.736,103.945,0.00447659,0.066246,20.9721,110.667,0.068475,0.0,0.0
927,231.5,18.9563,20.1265,140.176,104.729,104.041,0.00438072,0.0657905,20.9724,110.627,0.0594897,0.0,0.0
930,232.25,19.496,20.4897,145.025,104.715,103.903,0.00429423,0.0653941,20.9727,110.627,0.070293,0.0,0.0
933,233,18.994,19.9669,141.588,104.706,103.848,0.00420141,0.0649548,20.9733,110.607,0.0743058,0.0,0.0
936,233.75,19.4052,20.082,140.681,104.689,103.741,0.00412147,0.0645705,20.9741,110.607,0.0820968,0.0,0.0
939,234.5,19.5122,19.972,140.13,104.686,103.734,0.00405279,0.064037,20.9751,110.577,0.0825331,0.0,0.0
942,235.25,18.6781,20.0367,140.645,104.673,103.965,0.00399388,0.0635526,20.9759,110.547,0.0612902,0.0,0.0
945,236,18.9799,19.8072,143.041,104.665,103.757,0.00393377,0.0631587,20.9764,110.537,0.078669,0.0,0.0
948,236.75,19.1746,20.1943,140.901,104.634,103.79,0.00388262,0.0626768,20.9768,110.537,0.0731026,0.0,0.0
951,237.5,18.9919,19.7766,142.312,104.637,103.922,0.00380856,0.06223,20.9771,110.527,0.0619488,0.0,0.0
954,238.25,19.8338,19.3755,141.168,104.627,103.788,0.00372084,0.0617774,20.9773,110.497,0.0727652,0.0,0.0
957,239,18.93,19.5722,141.785,104.615,103.74,0.00362603,0.0613001,20.9774,110.497,0.0759177,0.0,0.0
960,239.75,19.4428,20.0649,136.776,104.609,103.931,0.00350554,0.060734,20.978,110.477,0.0586887,0.0,0.0
963,240.5,19.0695,19.9725,140.095,104.582,103.76,0.00335548,0.0602282,20.9788,110.447,0.0712766,0.0,0.0
966,241.25,19.0257,20.2671,138.417,104.577,103.668,0.00320513,0.0596456,20.9798,110.427,0.0788632,0.0,0.0
969,242,18.6719,19.8969,149.856,104.566,103.756,0.00305488,0.0591635,20.9805,110.427,0.0702535,0.0,0.0
972,242.75,19.101,19.5973,144.46,104.559,103.815,0.00290391,0.0587139,20.9812,110.397,0.0644842,0.0,0.0
975,243.5,19.1932,19.6607,139.169,104.536,103.639,0.00281436,0.0581724,20.9819,110.377,0.077858,0.0,0.0
978,244.25,18.8966,19.9591,141.493,104.52,103.733,0.00267803,0.0576686,20.9827,110.387,0.0681684,0.0,0.0
981,245,19.3665,19.5046,140.936,104.51,103.765,0.00256847,0.0572048,20.9832,110.357,0.0646231,0.0,0.0
984,245.75,19.151,20.0525,138.984,104.496,103.552,0.00249517,0.0567808,20.9836,110.337,0.0819358,0.0,0.0
987,246.5,18.9435,19.581,141.494,104.461,103.577,0.00246487,0.0564144,20.9839,110.317,0.0767321,0.0,0.0
990,247.25,18.9667,19.5952,145.892,104.459,103.567,0.0024565,0.055991,20.9841,110.297,0.0774109,0.0,0.0
993,248,19.0307,19.5529,140.157,104.433,103.623,0.00245697,0.0553523,20.9855,110.287,0.0702289,0.0,0.0
996,248.75,19.1502,20.3672,141.655,104.423,103.643,0.00244515,0.0548366,20.9866,110.267,0.0676674,0.0,0.0
999,249.5,19.077,19.6052,139.935,104.4,103.725,0.00241988,0.0543749,20.9873,110.247,0.0586064,0.0,0.0
1002,250.25,18.8561,19.3359,145.535,104.396,103.494,0.00237296,0.0539023,20.9878,110.237,0.0784012,0.0,0.0
1005,251,18.3149,19.6218,143.991,104.402,103.5,0.00234898,0.053391,20.9881,110.207,0.078302,0.0,0.0
1008,251.75,18.2569,19.605,150.295,104.386,103.516,0.00223861,0.052929,20.9885,110.197,0.0755922,0.0,0.0
1011,252.5,19.227,20.4363,139.585,104.364,103.403,0.00210374,0.0525187,20.9887,110.187,0.0835399,0.0,0.0
1014,253.25,19.0341,19.6079,140.335,104.375,103.606,0.00197265,0.0522196,20.9889,110.167,0.0667336,0.0,0.0
1017,254,18.1093,19.4564,144.473,104.384,103.442,0.00182175,0.0519451,20.9891,110.157,0.0818547,0.0,0.0
1020,254.75,18.9007,19.8099,139.256,104.383,103.433,0.00168024,0.0514719,20.9894,110.147,0.0825661,0.0,0.0
1023,255.5,18.3342,19.6673,141.091,104.39,103.421,0.00155347,0.0509912,20.9901,110.137,0.0842096,0.0,0.0
1026,256.25,18.7546,19.5061,141.457,104.385,103.492,0.00144362,0.0505457,20.9912,110.117,0.0775742,0.0,0.0
1029,257,18.8682,19.9216,142.953,104.383,103.673,0.00134902,0.0501804,20.992,110.097,0.0616527,0.0,0.0
1032,257.75,18.4022,19.7702,142.164,104.385,103.593,0.00127387,0.0497591,20.9925,110.087,0.0687624,0.0,0.0
1035,258.5,19.2424,19.9618,141.968,104.39,103.465,0.00118765,0.0494248,20.993,110.077,0.0803154,0.0,0.0
1038,259.25,18.5603,19.7005,137.015,104.385,103.626,0.00113419,0.0491766,20.9932,110.067,0.0658937,0.0,0.0
1041,260,18.8185,19.7521,142.552,104.387,103.532,0.00100695,0.049008,20.9934,110.047,0.0742749,0.0,0.0
1044,260.75,18.7709,19.6469,143.609,104.399,103.574,0.000895743,0.0488035,20.9936,110.037,0.0716493,0.0,0.0
1047,261.5,18.312,19.8819,138.75,104.397,103.523,0.00078311,0.0486198,20.9937,110.037,0.0759679,0.0,0.0
1050,262.25,18.1061,19.3727,143.943,104.389,103.551,0.000685523,0.0484444,20.994,110.017,0.0727716,0.0,0.0
1053,263,18.1983,19.3586,140.183,104.386,103.493,0.000613177,0.0482417,20.9942,109.997,0.0776425,0.0,0.0
1056,263.75,18.7756,19.5438,140.868,104.411,103.322,0.000566268,0.0480176,20.9944,109.977,0.0945883,0.0,0.0
1059,264.5,18.7539,19.4705,142.893,104.392,103.416,0.000542923,0.0477592,20.9952,109.967,0.0848484,0.0,0.0
1062,265.25,18.4102,19.9496,145.53,104.386,103.689,0.00054559,0.0475089,20.9958,109.957,0.0605119,0.0,0.0
1065,266,18.3308,19.0811,139.378,104.397,103.629,0.000581196,0.0472898,20.9962,109.947,0.0666673,0.0,0.0
1068,266.75,18.0211,19.4031,142.483,104.418,103.458,0.0006416,0.0471881,20.9964,109.927,0.0833415,0.0,0.0
1071,267.5,18.2387,19.3169,139.884,104.398,103.55,0.000690721,0.0470925,20.9967,109.917,0.0737037,0.0,0.0
1074,268.25,18.4598,19.553,139.48,104.397,103.526,0.000735228,0.0469862,20.9968,109.897,0.0757213,0.0,0.0
1077,269,18.0374,19.6228,140.716,104.386,103.603,0.000767675,0.0468952,20.9969,109.887,0.0680114,0.0,0.0
1080,269.75,18.2352,19.3878,140.925,104.4,103.607,0.00079012,0.0467944,20.997,109.867,0.0688863,0.0,0.0
1083,270.5,18.2253,18.6506,143.67,104.401,103.44,0.000805331,0.0466721,20.9971,109.867,0.0835175,0.0,0.0
1086,271.25,18.4355,19.5515,142.45,104.389,103.406,0.000815333,0.0465694,20.9977,109.847,0.0854913,0.0,0.0
1089,272,18.0069,19.3874,143.3,104.399,103.577,0.000819487,0.0464959,20.9982,109.847,0.0713994,0.0,0.0
1092,272.75,18.0312,19.4133,140.298,104.404,103.508,0.00081715,0.0464545,20.9983,109.827,0.0778655,0.0,0.0
1095,273.5,18.0232,19.0409,140.683,104.4,103.56,0.00080511,0.0464437,20.9984,109.807,0.0728698,0.0,0.0
1098,274.25,18.3232,19.494,140.865,104.411,103.584,0.000796332,0.0464358,20.9985,109.797,0.0717294,0.0,0.0
1101,275,18.2637,19.2415,142.172,104.396,103.499,0.000776156,0.0463903,20.9983,109.797,0.0779135,0.0,0.0
1104,275.75,18.2713,18.6981,140.879,104.418,103.468,0.000767484,0.0463356,20.998,109.787,0.0825213,0.0,0.0
1107,276.5,18.2057,19.1884,140.103,104.407,103.542,0.000773273,0.0462592,20.9979,109.767,0.075131,0.0,0.0
1110,277.25,18.5371,18.888,141.161,104.405,103.507,,0.0462106,,109.747,0.077984,0.0,0.0
1113,278,17.7072,18.9238,146.968,104.407,103.577,,0.0461874,,109.747,0.0720936,0.0,0.0
1116,278.75,17.5981,19.0136,141.322,104.403,103.561,,0.0461705,,109.737,0.0731581,0.0,0.0
1119,279.5,18.1072,19.096,140.462,104.408,103.504,,0.0460767,,109.727,0.0784812,0.0,0.0
1122,280.25,18.47,18.9833,145.395,104.408,103.527,,,,109.707,0.0765891,0.0,0.0
1125,281,17.5839,18.9968,140.981,104.4,103.571,,,,109.707,0.0719644,0.0,0.0
1128,281.75,18.4658,18.7209,144.283,104.411,103.525,,,,109.687,0.076969,0.0,0.0
1131,282.5,17.5068,18.9437,139.281,104.419,103.473,,,,109.677,0.0822163,0.0,0.0
1134,283.25,18.0536,19.3339,143.484,104.409,103.637,,,,109.636,0.067036,0.0,0.0
1137,284,18.36,18.8566,141.129,104.415,103.464,,,,109.636,0.0825523,0.0,0.0
1140,284.75,18.3993,19.4835,144.11,104.425,103.429,,,,109.616,0.086549,0.0,0.0
1143,285.5,18.4702,19.0063,140.288,104.419,103.386,,,,109.616,0.0897362,0.0,0.0
1146,286.25,17.8154,18.5931,139.853,104.421,103.613,,,,109.606,0.0701478,0.0,0.0
1149,287,17.8937,19.4353,139.547,104.419,103.426,,,,109.596,0.086243,0.0,0.0
1152,287.75,18.2647,18.6915,138.847,104.422,103.556,,,,109.606,0.0751801,0.0,0.0
1153,288,18.1852,18.7488,142.184,104.412,103.544,,,,109.616,0.0753648,0.0,0.0