File: 01_Data/LW_Gypsum/Cone/LW_Gypsum_Cone_HF75Scan_220506_R1.csv
Names,Time,Stack TC,Smoke TC,Exh Press,Smoke Comp,Smoke Meas,CO Meter,CO2 Meter,O2 Meter,Sample Mass,Ext Coeff,Start Test,Flame Verif
Chan Gain,,500,500,1,1,1,1,1,1,1,1,1.0,1.0
Offset,,0,0,0.135316,0,0,0,0,0,0,0,0.0,0.0
Gain,,1,1,25.011,13.8443,15.4071,1,1,1,1.00079,1.02936,1.0,1.0
Units,sec,C,C,Pa,%,%,%,%,%,g,/m,,
Baseline,,39.189,40.713,132.491,104.624,106.098,0.000486203,0.0416808,20.9986,-447.495,-0.126163,,
2,0.25,38.4469,40.3972,133.623,104.252,105.554,0.000632095,0.0460283,20.9945,109.957,-0.112021,0.0,0.0
4,0.75,37.3471,39.21,135.794,104.263,105.812,0.00062252,0.0460067,20.9949,109.797,-0.133162,0.0,0.0
6,1.25,37.1968,38.5963,131.302,104.236,105.084,0.000596357,0.0459892,20.9951,109.687,-0.0731817,0.0,0.0
8,1.75,37.0073,38.1904,129.581,104.225,105.784,0.0005586,0.0459751,20.9953,109.697,-0.134087,0.0,0.0
10,2.25,36.9653,38.5037,134.267,104.22,105.922,0.000525479,0.0459136,20.9955,109.737,-0.146205,0.0,0.0
12,2.75,36.9986,38.6384,132.514,104.186,105.73,0.000496368,0.0458188,20.9961,109.747,-0.132839,0.0,0.0
14,3.25,37.446,38.6242,133.628,104.184,106.299,0.000477862,0.045742,20.9965,109.687,-0.181446,0.0,0.0
16,3.75,37.2096,39.0402,129.931,104.169,106.526,0.00046744,0.0456392,20.9965,109.677,-0.20207,0.0,0.0
18,4.25,37.2403,38.5142,130.94,104.157,105.907,0.000466614,0.0455558,20.9964,109.646,-0.150379,0.0,0.0
20,4.75,37.2956,38.9053,135.222,104.156,104.961,0.000472798,0.0454883,20.9968,109.677,-0.0695059,0.0,0.0
22,5.25,37.5247,38.7626,132.001,104.141,105.93,0.000477808,0.0454336,20.9972,109.586,-0.153811,0.0,0.0
24,5.75,37.2396,39.3027,132.143,104.139,105.05,0.000502374,0.0453822,20.9974,109.636,-0.0786937,0.0,0.0
26,6.25,37.0049,38.9165,134.295,104.122,105.139,0.000522272,0.0453341,20.9976,109.556,-0.0878312,0.0,0.0
28,6.75,37.4066,39.049,128.925,104.115,105.273,0.000568571,0.0452952,20.9978,109.526,-0.0999187,0.0,0.0
30,7.25,37.5914,39.2916,128.681,104.104,105.029,0.000606072,0.0452094,20.9979,109.516,-0.0798757,0.0,0.0
32,7.75,37.8405,38.5408,132.866,104.092,105.141,0.000636449,0.0451399,20.998,109.556,-0.0905576,0.0,0.0
34,8.25,37.3639,39.0913,132.603,104.095,104.865,0.000706975,0.04507,20.9981,109.556,-0.0665267,0.0,0.0
36,8.75,37.376,38.9796,134.536,104.091,104.461,0.000764102,0.0450135,20.9982,109.566,-0.0320526,0.0,0.0
38,9.25,37.4392,39.2442,130.044,104.085,104.807,0.000799278,0.0449319,20.9982,109.476,-0.0624661,0.0,0.0
40,9.75,37.117,39.2491,130.69,104.072,104.37,0.00085943,0.0448338,20.9983,109.516,-0.02585,0.0,0.0
42,10.25,37.6975,38.8068,130.255,104.054,104.159,0.000917707,0.0447543,20.9983,109.386,-0.00911197,0.0,0.0
44,10.75,37.5446,39.2151,131.486,104.072,103.098,0.000973511,0.0446899,20.9979,109.376,0.0848953,0.0,0.0
46,11.25,37.1749,39.1384,130.871,104.056,104.788,0.00103146,0.0446377,20.9976,109.276,-0.0632206,0.0,0.0
48,11.75,37.4353,39.3252,132.243,104.041,103.191,0.00108987,0.0446026,20.9969,109.266,0.0740325,0.0,0.0
50,12.25,37.6015,39.4494,133.713,104.021,103.402,0.00116142,0.044591,20.9963,109.216,0.053859,0.0,0.0
52,12.75,37.8818,38.7552,129.551,104.029,103.13,0.0012412,0.0445712,20.9955,109.216,0.0783606,0.0,0.0
54,13.25,37.7448,39.6269,134.575,104.021,102.29,0.00134352,0.0445551,20.9947,109.146,0.151525,0.0,0.0
56,13.75,37.324,39.4228,135.004,104.006,102.069,0.00146033,0.0445921,20.9933,109.176,0.169734,0.0,0.0
58,14.25,38.1947,38.941,132.173,103.994,100.887,0.00155494,0.044667,20.9921,109.156,0.273924,0.0,0.0
60,14.75,38.061,39.7382,132.833,104,101.079,0.00167513,0.0447277,20.9911,109.076,0.257205,0.0,0.0
62,15.25,37.8825,39.3151,132.375,103.98,100.157,0.00181166,0.0451568,20.9882,109.056,0.338188,0.0,0.0
64,15.75,37.7662,39.4438,131.695,103.985,99.474,0.00192226,0.0455044,20.9858,108.996,0.400466,0.0,0.0
66,16.25,37.8275,39.7183,132.566,103.972,97.6948,0.00202274,0.0480442,20.9838,108.936,0.562328,0.0,0.0
68,16.75,38.7618,39.4541,128.835,103.986,103.542,0.00211394,0.0501014,20.9705,108.816,0.0386651,0.0,0.0
70,17.25,38.1577,39.4277,123.503,103.966,107.977,0.00218461,0.0552594,20.9597,108.676,-0.341864,0.0,1.0
72,17.75,38.251,40.1232,120.863,103.967,108.908,0.00223896,0.0625798,20.9273,108.656,-0.419234,0.0,1.0
74,18.25,38.1512,39.6476,114.757,103.956,109.048,0.00228235,0.0685093,20.9012,108.506,-0.431833,0.0,1.0
76,18.75,38.6655,39.8663,114.472,103.96,109.693,0.00231691,0.0868414,20.8455,108.416,-0.484724,0.0,1.0
78,19.25,39.586,40.4178,118.408,103.936,109.545,0.00234491,0.10169,20.8004,108.345,-0.474616,0.0,1.0
80,19.75,39.6763,40.6435,110.012,103.945,108.319,0.00239318,0.119747,20.7526,108.275,-0.372202,0.0,1.0
82,20.25,40.4933,40.9134,109.705,103.939,108.296,0.00243229,0.1398,20.7038,108.155,-0.370758,0.0,1.0
84,20.75,41.3478,41.2703,108.725,103.944,108.788,0.00250056,0.156043,20.6594,107.975,-0.411305,0.0,1.0
86,21.25,42.3502,42.2476,111.53,103.933,108.019,0.00255586,0.178945,20.6191,107.885,-0.348189,0.0,1.0
88,21.75,42.7896,42.5591,111.21,103.941,108.251,0.002627,0.197496,20.5865,107.815,-0.366808,0.0,1.0
90,22.25,43.4741,42.7859,110.629,103.929,108.637,0.00270835,0.220243,20.5601,107.765,-0.400093,0.0,1.0
92,22.75,44.4038,43.5275,110.823,103.931,108.18,0.00277425,0.238667,20.5386,107.675,-0.361728,0.0,1.0
94,23.25,45.0904,44.4922,111.024,103.917,108.578,0.00286948,0.258789,20.5213,107.515,-0.396119,0.0,0.0
96,23.75,45.8541,45.2355,113.441,103.925,109.12,0.00298429,0.275088,20.5084,107.425,-0.440505,0.0,0.0
98,24.25,46.4305,45.3656,108.664,103.912,108.659,0.00307728,0.291685,20.498,107.345,-0.403358,0.0,0.0
100,24.75,47.306,46.657,110.715,103.909,108.669,0.00325932,0.305128,20.4925,107.235,-0.404399,0.0,0.0
102,25.25,47.6638,46.8874,114.936,103.908,107.381,0.00340677,0.316017,20.4908,107.215,-0.296822,0.0,0.0
104,25.75,48.3894,47.6949,118.489,103.909,108.058,0.00371091,0.324837,20.4999,107.175,-0.353503,0.0,0.0
106,26.25,48.5699,47.7661,115.358,103.906,108.014,0.00395726,0.330775,20.5168,107.004,-0.350106,0.0,0.0
108,26.75,49.8445,49.1374,117.455,103.915,108.355,0.00438091,0.335584,20.5306,106.974,-0.377863,0.0,0.0
110,27.25,49.692,49.0234,123.591,103.895,107.742,0.00492576,0.335618,20.5661,106.894,-0.328313,0.0,0.0
112,27.75,49.767,49.517,123.509,103.898,107.479,0.00558441,0.335645,20.5949,106.874,-0.306002,0.0,0.0
114,28.25,50.0515,49.9731,129.093,103.896,107.298,0.0063135,0.330689,20.6317,106.854,-0.290962,0.0,0.0
116,28.75,50.2994,50.0363,128.149,103.896,106.789,0.00690406,0.326675,20.6616,106.834,-0.248008,0.0,0.0
118,29.25,50.3849,50.3391,131.046,103.88,106.187,0.00764574,0.320215,20.6858,106.864,-0.198298,0.0,0.0
120,29.75,49.9442,49.9117,129.23,103.883,106.16,0.00848349,0.312094,20.7162,106.774,-0.195761,0.0,0.0
122,30.25,50.0935,51.0203,131.682,103.871,106.078,0.00916206,0.305517,20.7409,106.714,-0.189865,0.0,0.0
124,30.75,49.3332,50.2987,126.328,103.869,104.752,0.00997068,0.294704,20.7662,106.704,-0.0764366,0.0,0.0
126,31.25,49.0441,50.1413,130.399,103.871,105.669,0.0109999,0.285946,20.7866,106.634,-0.154978,0.0,0.0
128,31.75,49.1743,50.0734,130.56,103.878,106.142,0.0113367,0.276653,20.8054,106.594,-0.194719,0.0,0.0
130,32.25,48.5532,50.288,129.878,103.86,106.282,0.0119773,0.267147,20.8206,106.614,-0.208133,0.0,0.0
132,32.75,49.0813,50.0971,132.993,103.862,105.896,0.0125544,0.259448,20.8342,106.564,-0.175134,0.0,0.0
134,33.25,49.6276,49.8094,129.019,103.847,105.23,0.0130219,0.249946,20.8452,106.474,-0.119504,0.0,0.0
136,33.75,48.7699,49.9323,131.183,103.85,106.117,0.0134706,0.24225,20.8546,106.444,-0.194946,0.0,0.0
138,34.25,49.0279,49.757,129.652,103.84,106.526,0.013834,0.230275,20.8626,106.334,-0.230644,0.0,0.0
140,34.75,48.4217,49.9912,128.759,103.842,106.126,0.0141518,0.227054,20.8693,106.344,-0.196404,0.0,0.0
142,35.25,48.5444,49.2723,132.139,103.842,105.942,0.0144092,0.219733,20.875,106.304,-0.180826,0.0,0.0
144,35.75,48.0729,49.6279,129.803,103.836,106.321,0.0146177,0.213804,20.8796,106.304,-0.213545,0.0,0.0
146,36.25,48.2512,49.4984,129.54,103.833,105.479,0.0147762,0.207373,20.8837,106.184,-0.142035,0.0,0.0
148,36.75,48.4074,49.6603,132.618,103.828,105.958,0.0149045,0.202164,20.8871,106.204,-0.183364,0.0,0.0
150,37.25,48.0862,49.2254,127.729,103.819,105.985,0.014973,0.196542,20.8898,106.234,-0.186492,0.0,0.0
152,37.75,47.5199,49.3385,133.243,103.815,106.28,0.0149965,0.191988,20.892,106.234,-0.211945,0.0,0.0
154,38.25,47.8009,49.2113,129.761,103.816,105.822,0.0150155,0.187609,20.8938,106.194,-0.172842,0.0,0.0
156,38.75,47.733,49.5694,128.395,103.811,105.796,0.0149416,0.183442,20.8952,106.174,-0.17096,0.0,0.0
158,39.25,47.6584,49.2227,132.992,103.81,105.779,0.0148817,0.180066,20.8964,106.154,-0.169625,0.0,0.0
160,39.75,47.2879,49.1337,128.051,103.816,106.81,0.0147311,0.176637,20.8982,106.124,-0.256739,0.0,0.0
162,40.25,47.3281,48.7594,128.822,103.805,106.207,0.0145569,0.173234,20.8997,106.114,-0.206516,0.0,0.0
164,40.75,46.9648,49.2111,129.792,103.807,105.83,0.0143688,0.170478,20.9017,105.944,-0.174253,0.0,0.0
166,41.25,47.4263,48.9509,134.263,103.814,105.935,0.0141671,0.167116,20.9034,105.914,-0.182647,0.0,0.0
168,41.75,47.5244,49.3403,131.436,103.808,105.674,0.0139592,0.164393,20.9056,105.874,-0.160857,0.0,0.0
170,42.25,47.4916,48.5382,130.884,103.789,105.834,0.0137908,0.161262,20.9074,105.854,-0.176161,0.0,0.0
172,42.75,46.9129,49.0462,130.537,103.788,106.266,0.0135937,0.158725,20.9089,105.854,-0.213098,0.0,0.0
174,43.25,47.2904,48.7233,130.333,103.796,105.458,0.0133794,0.155902,20.9105,105.894,-0.14346,0.0,0.0
176,43.75,47.5404,48.9939,129.561,103.773,106.116,0.013166,0.153616,20.9118,105.904,-0.201591,0.0,0.0
178,44.25,47.0787,48.2144,134.529,103.773,106.488,0.0129575,0.15114,20.9133,105.874,-0.233145,0.0,0.0
180,44.75,47.0912,48.7079,127.646,103.77,106.019,0.0127583,0.149134,20.9146,105.844,-0.193563,0.0,0.0
182,45.25,47.0119,48.5902,128.573,103.768,105.425,0.0125698,0.146675,20.9155,105.723,-0.142991,0.0,0.0
184,45.75,46.68,48.2513,131.189,103.768,105.457,0.012417,0.144682,20.9163,105.753,-0.145805,0.0,0.0
186,46.25,46.6092,48.3789,130.658,103.76,106.172,0.0122484,0.142659,20.917,105.643,-0.207491,0.0,0.0
188,46.75,46.1691,48.2206,126.656,103.749,106.178,0.0120713,0.140653,20.9176,105.753,-0.20893,0.0,0.0
190,47.25,46.5177,48.3926,132.756,103.75,106.555,0.0119279,0.138709,20.9181,105.723,-0.240827,0.0,0.0
192,47.75,46.6229,48.0846,126.902,103.735,105.848,0.011729,0.136847,20.9187,105.743,-0.182107,0.0,0.0
194,48.25,45.9766,48.3275,128.284,103.741,105.841,0.0115679,0.135339,20.9194,105.793,-0.180951,0.0,0.0
196,48.75,46.2177,48.34,130.885,103.746,105.816,0.0113473,0.133665,20.9204,105.823,-0.178382,0.0,0.0
198,49.25,46.3496,48.2839,130.02,103.747,105.598,0.0111687,0.131903,20.9217,105.663,-0.159637,0.0,0.0
200,49.75,45.9604,48.5008,131.418,103.724,105.062,0.0110239,0.130476,20.9227,105.583,-0.115672,0.0,0.0
202,50.25,45.4286,48.201,130.296,103.737,106.72,0.0108041,0.128801,20.9237,105.473,-0.255905,0.0,0.0
204,50.75,45.9424,48.0565,129.558,103.712,106.265,0.0106261,0.127444,20.9248,105.433,-0.2196,0.0,0.0
206,51.25,46.5537,48.1563,128.51,103.719,105.867,0.0104187,0.126005,20.9256,105.423,-0.185109,0.0,0.0
208,51.75,45.4113,48.0594,129.248,103.711,106.285,0.0102508,0.124534,20.9263,105.443,-0.221351,0.0,0.0
210,52.25,46.022,48.2263,132.582,103.732,106.521,0.0100491,0.123342,20.9271,105.413,-0.239539,0.0,0.0
212,52.75,46.3809,47.5721,128.798,103.705,105.921,0.00988577,0.12179,20.928,105.353,-0.190893,0.0,0.0
214,53.25,45.6061,48.3677,128.363,103.714,106.218,0.00968799,0.120532,20.9291,105.223,-0.215457,0.0,0.0
216,53.75,45.5161,47.4412,126.639,103.702,105.814,0.00952778,0.118954,20.9305,105.233,-0.182047,0.0,0.0
218,54.25,45.8822,47.4603,129.277,103.699,105.284,0.00934018,0.117676,20.9315,105.283,-0.137009,0.0,0.0
220,54.75,45.3642,47.6109,129.511,103.687,106.454,0.00918823,0.116194,20.9324,105.283,-0.237814,0.0,0.0
222,55.25,45.4093,47.7345,130.628,103.706,105.644,0.00901868,0.114993,20.9331,105.233,-0.167183,0.0,0.0
224,55.75,45.8069,47.6132,128.356,103.674,105.896,0.00888136,0.113673,20.9337,105.273,-0.191454,0.0,0.0
226,56.25,44.9689,47.3792,130.369,103.678,105.403,0.00877012,0.112603,20.9342,105.083,-0.149005,0.0,0.0
228,56.75,45.3256,47.7264,128.528,103.675,105.782,0.0086261,0.111582,20.9348,105.053,-0.181637,0.0,0.0
230,57.25,45.646,47.5769,133.968,103.667,105.649,0.00850944,0.110617,20.9355,105.023,-0.171044,0.0,0.0
232,57.75,44.8307,47.7684,129.675,103.662,106.133,0.00839251,0.109659,20.9361,105.043,-0.212708,0.0,0.0
234,58.25,45.5127,47.9667,131.488,103.66,105.625,0.0082776,0.108725,20.9369,105.073,-0.169546,0.0,0.0
236,58.75,45.4705,47.6743,129.238,103.65,105.689,0.00818452,0.107757,20.9377,105.003,-0.175858,0.0,0.0
238,59.25,45.0796,47.3536,129.882,103.66,105.289,0.00806784,0.106781,20.9383,104.963,-0.140762,0.0,0.0
240,59.75,45.1477,46.9757,130.422,103.636,105.037,0.00797333,0.10599,20.939,104.923,-0.12126,0.0,0.0
242,60.25,45.0903,47.3198,131.38,103.648,105.377,0.00785928,0.104892,20.9399,104.973,-0.149406,0.0,0.0
244,60.75,45.4488,47.4957,129.78,103.631,105.867,0.00775245,0.104002,20.9407,104.923,-0.192799,0.0,0.0
246,61.25,45.3788,47.3665,130.976,103.641,105.862,0.00770005,0.103281,20.9412,104.833,-0.191434,0.0,0.0
248,61.75,44.4457,47.5282,128.497,103.63,105.763,0.00761046,0.102296,20.9422,104.793,-0.183966,0.0,0.0
250,62.25,44.616,46.5871,128.224,103.632,105.758,0.00751667,0.101498,20.9429,104.793,-0.183303,0.0,0.0
252,62.75,44.6186,47.7467,128.831,103.626,105.379,0.00744071,0.100588,20.9436,104.763,-0.151481,0.0,0.0
254,63.25,44.4505,47.0486,130.938,103.626,106.113,0.00737917,0.0998508,20.9441,104.723,-0.21415,0.0,0.0
256,63.75,44.7914,46.9786,130.927,103.622,105.261,0.00730813,0.0989767,20.9449,104.743,-0.141732,0.0,0.0
258,64.25,44.6308,46.778,129.262,103.619,106.185,0.00725058,0.098604,20.9456,104.723,-0.220862,0.0,0.0
260,64.75,44.9007,46.8965,129.079,103.617,105.793,0.00718652,0.0977175,20.9461,104.733,-0.187715,0.0,0.0
262,65.25,44.4004,47.0772,127.288,103.614,105.4,0.0071261,0.0969995,20.9466,104.623,-0.154285,0.0,0.0
264,65.75,44.4383,46.6452,130.509,103.599,105.245,0.00706949,0.0962722,20.947,104.603,-0.142312,0.0,0.0
266,66.25,44.5349,47.2129,134.558,103.61,106.478,0.00702364,0.095552,20.9473,104.633,-0.246586,0.0,0.0
268,66.75,44.2538,46.9159,131.592,103.592,104.995,0.00696283,0.0949687,20.9477,104.552,-0.121451,0.0,0.0
270,67.25,44.0632,46.9834,129.82,103.614,105.298,0.00691358,0.0941781,20.9483,104.542,-0.14554,0.0,0.0
272,67.75,44.6763,46.7035,132.391,103.586,105.492,0.00682889,0.0935377,20.9488,104.462,-0.164684,0.0,0.0
274,68.25,43.8935,46.7963,130.667,103.588,104.628,0.0067603,0.0927427,20.9492,104.462,-0.0902613,0.0,0.0
276,68.75,44.6472,46.7099,132.733,103.579,104.748,0.00670473,0.0920987,20.9499,104.412,-0.101335,0.0,0.0
278,69.25,43.9711,46.4731,129.322,103.574,104.929,0.00665973,0.0913423,20.9505,104.442,-0.117372,0.0,0.0
280,69.75,43.547,46.3376,130.536,103.561,105.491,0.00654631,0.0907296,20.9512,104.392,-0.166777,0.0,0.0
282,70.25,44.2431,46.4132,132.221,103.569,104.984,0.00645445,0.0899849,20.952,104.422,-0.12247,0.0,0.0
284,70.75,43.9203,46.4765,131.018,103.564,105.869,0.00638004,0.0893817,20.9526,104.352,-0.198701,0.0,0.0
286,71.25,44.0556,46.8173,130.516,103.551,105.346,0.00628752,0.0888931,20.9532,104.362,-0.155139,0.0,0.0
288,71.75,43.8873,46.7636,128.887,103.549,105.183,0.00621257,0.0884973,20.9539,104.302,-0.141291,0.0,0.0
290,72.25,44.1044,46.337,132.239,103.545,105.805,0.00613575,0.0877483,20.9544,104.302,-0.194943,0.0,0.0
292,72.75,43.954,46.2771,131.689,103.543,105.257,0.00607353,0.0871417,20.9548,104.272,-0.148256,0.0,0.0
294,73.25,43.4342,45.6587,130.514,103.554,105.631,0.00600082,0.0864617,20.9556,104.252,-0.179348,0.0,0.0
296,73.75,43.8368,46.2061,130.566,103.534,106.102,0.00594193,0.0857413,20.9567,104.202,-0.221225,0.0,0.0
298,74.25,43.5515,46.3352,134.885,103.533,106.276,0.00586575,0.0851577,20.9578,104.192,-0.236092,0.0,0.0
300,74.75,43.7922,45.9483,124.422,103.511,105.165,0.00580404,0.0845619,20.9589,104.172,-0.143147,0.0,0.0
302,75.25,43.8998,46.1077,129.835,103.52,105.535,0.00571324,0.0839684,20.96,104.152,-0.174052,0.0,0.0
304,75.75,43.8905,46.1014,130.511,103.509,105.078,0.00563969,0.083379,20.9611,104.102,-0.135785,0.0,0.0
306,76.25,43.7724,46.0634,127.607,103.508,105.571,0.00552575,0.0828038,20.9622,104.072,-0.178218,0.0,0.0
308,76.75,43.8631,45.9479,132.116,103.501,105.616,0.00543345,0.0822221,20.9633,104.072,-0.182667,0.0,0.0
310,77.25,43.5192,45.7881,129.9,103.509,105.8,0.0053587,0.0816466,20.9642,104.072,-0.197673,0.0,0.0
312,77.75,43.4263,46.1342,131.917,103.499,105.344,0.00521305,0.0810575,20.9652,104.032,-0.159547,0.0,0.0
314,78.25,43.8826,45.8369,132.337,103.492,105.233,0.00509508,0.0804696,20.9662,104.032,-0.150698,0.0,0.0
316,78.75,43.5131,46.1086,128.603,103.498,105.318,0.00496519,0.0798777,20.967,103.942,-0.157444,0.0,0.0
318,79.25,43.5356,46.0629,135.267,103.486,104.984,0.00482908,0.0792942,20.9681,103.952,-0.129806,0.0,0.0
320,79.75,43.3528,46.423,129.191,103.474,105.213,0.00471884,0.0788215,20.969,103.922,-0.150471,0.0,0.0
322,80.25,43.9708,45.9844,125.588,103.483,105.136,0.0045901,0.0780953,20.9697,103.912,-0.143077,0.0,0.0
324,80.75,42.917,46.1528,131.901,103.477,105.781,0.00445032,0.0775072,20.9702,103.902,-0.198867,0.0,0.0
326,81.25,43.589,46.0361,133.899,103.46,105.47,0.00426599,0.0768719,20.9707,103.902,-0.173696,0.0,0.0
328,81.75,43.255,45.9444,130.129,103.47,105.802,0.00411669,0.0762143,20.9715,103.832,-0.20126,0.0,0.0
330,82.25,43.2418,45.9638,132.22,103.462,105.883,0.00395518,0.0756816,20.9722,103.782,-0.208899,0.0,0.0
332,82.75,43.5433,45.9667,128.249,103.453,105.658,0.00378784,0.0750171,20.9727,103.782,-0.19041,0.0,0.0
334,83.25,43.3901,45.879,130.955,103.469,105.742,0.00361567,0.0744788,20.9732,103.742,-0.196159,0.0,0.0
336,83.75,43.6152,45.7879,131.798,103.446,104.587,0.00344323,0.0738696,20.9739,103.742,-0.0990393,0.0,0.0
338,84.25,43.0525,45.975,129.938,103.438,104.584,0.00330356,0.0732204,20.9746,103.742,-0.0994556,0.0,0.0
340,84.75,43.1822,46.0792,131.434,103.434,105.004,0.00315578,0.0725216,20.9751,103.712,-0.13604,0.0,0.0
342,85.25,43.3119,45.7179,129.441,103.443,105.399,0.0030049,0.0717999,20.976,103.672,-0.169168,0.0,0.0
344,85.75,42.9938,45.9965,131.718,103.435,105.077,0.00286475,0.0710712,20.9766,103.632,-0.142272,0.0,0.0
346,86.25,43.014,45.7497,128.598,103.422,105.606,0.00273509,0.0703513,20.9772,103.612,-0.188641,0.0,0.0
348,86.75,43.4549,45.4172,128.716,103.43,105.918,0.00263006,0.0697682,20.9777,103.622,-0.214672,0.0,0.0
350,87.25,42.8818,45.5985,132.82,103.423,104.955,0.00250729,0.0690634,20.9785,103.562,-0.132793,0.0,0.0
352,87.75,43.1442,45.5861,134.574,103.432,105.234,0.00240784,0.0684925,20.9791,103.572,-0.1559,0.0,0.0
354,88.25,43.2395,45.7761,130.373,103.433,105.171,0.00229813,0.067879,20.9799,103.552,-0.150455,0.0,0.0
356,88.75,42.8643,45.3943,127.143,103.426,104.993,0.00220927,0.067246,20.9807,103.522,-0.135771,0.0,0.0
358,89.25,42.5807,45.623,133.066,103.415,105.024,0.00210694,0.0667333,20.9814,103.482,-0.139401,0.0,0.0
360,89.75,43.0058,45.227,132.248,103.408,105.46,0.00202405,0.0660858,20.9819,103.482,-0.177427,0.0,0.0
362,90.25,42.7085,45.4227,132.928,103.427,105.821,0.00193023,0.0655613,20.9823,103.462,-0.206626,0.0,0.0
364,90.75,42.3695,45.5664,128.903,103.406,104.558,0.00185423,0.0649179,20.9831,103.432,-0.100023,0.0,0.0
366,91.25,42.7303,45.4756,133.524,103.407,104.78,0.00179267,0.0643968,20.9838,103.412,-0.119057,0.0,0.0
368,91.75,42.6448,45.1707,129.946,103.415,104.715,0.00173005,0.0637972,20.9843,103.382,-0.11284,0.0,0.0
370,92.25,43.0106,45.34,131.949,103.397,105.456,0.00166784,0.0633116,20.9847,103.372,-0.178061,0.0,0.0
372,92.75,42.7056,45.8899,129.613,103.403,104.983,0.00161746,0.0627135,20.985,103.382,-0.136876,0.0,0.0
374,93.25,42.5592,45.4265,129.199,103.39,105.089,0.00157281,0.0622291,20.9853,103.342,-0.147152,0.0,0.0
376,93.75,42.3388,45.0048,129.682,103.402,104.483,0.00153321,0.0618367,20.9855,103.301,-0.093896,0.0,0.0
378,94.25,42.7758,45.0197,133.609,103.386,104.837,0.00149795,0.061328,20.9856,103.261,-0.125881,0.0,0.0
380,94.75,42.6337,45.0543,133.67,103.399,105.363,0.00146651,0.0609158,20.9861,103.241,-0.169903,0.0,0.0
382,95.25,42.2979,45.2845,132.272,103.387,105.296,0.00143659,0.060582,20.9865,103.221,-0.165249,0.0,0.0
384,95.75,42.4021,45.0695,137.148,103.391,105.128,0.00140833,0.060161,20.9869,103.171,-0.150437,0.0,0.0
386,96.25,42.0997,44.8924,129.512,103.388,104.828,0.00138417,0.0596843,20.9871,103.211,-0.124849,0.0,0.0
388,96.75,42.3485,45.1139,134.301,103.394,105.362,0.00136346,0.0592982,20.9878,103.141,-0.170302,0.0,0.0
390,97.25,42.094,45.0181,129.467,103.378,105.187,0.00134476,0.0588492,20.9883,103.091,-0.156587,0.0,0.0
392,97.75,42.8562,45.0228,130.329,103.383,105.638,0.00132071,0.0584855,20.989,103.081,-0.194809,0.0,0.0
394,98.25,42.6273,44.8536,130.873,103.373,105.906,0.00131424,0.0580546,20.9891,103.101,-0.218574,0.0,0.0
396,98.75,42.6736,44.7915,131.467,103.39,104.554,0.00129617,0.0577057,20.9894,103.091,-0.1011,0.0,0.0
398,99.25,42.4959,45.2418,132.727,103.381,104.483,0.00127523,0.057314,20.9897,103.081,-0.0957816,0.0,0.0
400,99.75,42.4177,44.8491,130.948,103.386,105.196,0.00125826,0.0569968,20.9898,103.091,-0.15673,0.0,0.0
402,100.25,42.364,44.8178,128.414,103.383,105.656,0.00122395,0.0566718,20.99,103.061,-0.196373,0.0,0.0
404,100.75,42.3829,45.0385,131.232,103.409,105.691,0.00119615,0.0562963,20.9901,103.041,-0.197058,0.0,0.0
406,101.25,42.4745,44.5111,126.176,103.38,105.891,0.00115187,0.0561165,20.9902,103.021,-0.216663,0.0,0.0
408,101.75,42.3239,44.8951,129.335,103.404,105.002,0.001116,0.0558089,20.9903,103.031,-0.13842,0.0,0.0
410,102.25,42.5317,44.7226,132.939,103.378,105.222,0.00107124,0.0555598,20.9904,103.011,-0.15965,0.0,0.0
412,102.75,42.2412,45.0989,128.988,103.39,105.387,0.00103498,0.055222,20.9909,103.021,-0.172769,0.0,0.0
414,103.25,42.3272,44.5377,128.454,103.386,105.95,0.000987485,0.0549483,20.9912,103.011,-0.221197,0.0,0.0
416,103.75,42.6996,44.792,132.06,103.415,106.24,0.000949016,0.0546586,20.9916,102.971,-0.243338,0.0,0.0
418,104.25,42.0509,44.5847,129.384,103.402,105.661,0.000903875,0.0544239,20.9918,102.961,-0.195151,0.0,0.0
420,104.75,42.1729,44.512,132.136,103.402,105.11,0.00085473,0.0541909,20.992,102.931,-0.147899,0.0,0.0
422,105.25,42.4045,44.8045,131.461,103.387,104.805,0.000814922,0.0539634,20.9922,102.891,-0.122975,0.0,0.0
424,105.75,41.8884,44.236,129.808,103.393,105.269,0.000776326,0.0537434,20.9923,102.871,-0.162316,0.0,0.0
426,106.25,42.7113,45.209,129.806,103.399,105.108,0.000739346,0.053533,20.9925,102.841,-0.148036,0.0,0.0
428,106.75,42.2404,44.8207,132.126,103.405,105.211,0.000711933,0.0533053,20.9925,102.821,-0.156361,0.0,0.0
430,107.25,42.0209,44.7276,128.632,103.403,104.997,0.000692015,0.0530693,20.9926,102.811,-0.138089,0.0,0.0
432,107.75,42.4473,44.8385,130.725,103.41,105.465,0.000675882,0.0528781,20.9927,102.761,-0.177679,0.0,0.0
434,108.25,42.0138,44.6191,127.595,103.407,105.164,0.000671262,0.0526732,20.9927,102.721,-0.152137,0.0,0.0
436,108.75,41.8709,44.4733,133.185,103.428,105.357,0.000667519,0.0524621,20.9928,102.671,-0.166793,0.0,0.0
438,109.25,41.9014,44.5639,129.405,103.419,105.384,0.000683805,0.0522768,20.9928,102.661,-0.169945,0.0,0.0
440,109.75,42.3828,44.6601,129.983,103.439,105.112,0.000696996,0.0521139,20.9928,102.671,-0.144815,0.0,0.0
442,110.25,41.8197,44.9648,132.617,103.422,104.681,0.000737884,0.0519818,20.9928,102.661,-0.109216,0.0,0.0
444,110.75,42.6526,44.2199,129.621,103.422,104.492,0.000771004,0.0518205,20.9929,102.591,-0.0929748,0.0,0.0
446,111.25,42.353,44.51,133.443,103.435,105.166,0.00080483,0.0516899,20.9929,102.571,-0.149864,0.0,0.0
448,111.75,42.1123,44.4063,128.485,103.447,105.097,0.000838527,0.0515161,20.9929,102.521,-0.142858,0.0,0.0
450,112.25,42.2134,44.1877,138.644,103.442,104.962,0.000865822,0.0513753,20.9929,102.491,-0.131662,0.0,0.0
452,112.75,41.749,43.6644,131.038,103.453,104.862,0.000887931,0.0511661,20.9929,102.471,-0.122162,0.0,0.0
454,113.25,41.8791,44.0218,131.093,103.457,104.495,0.000905839,0.0509967,20.9929,102.461,-0.0900803,0.0,0.0
456,113.75,42.3174,45.1676,132.317,103.464,105.803,0.0009178,0.050838,20.9929,102.451,-0.201859,0.0,0.0
458,114.25,41.8832,44.577,130.905,103.464,104.752,0.000925197,0.0506901,20.9929,102.511,-0.111728,0.0,0.0
460,114.75,41.143,44.2912,131.374,103.466,105.297,0.00092835,0.0505704,20.9929,102.471,-0.158391,0.0,0.0
462,115.25,41.2474,44.0904,131.347,103.477,106.196,0.000922863,0.0504519,20.9929,102.491,-0.23416,0.0,0.0
464,115.75,41.5618,44.4932,128.265,103.488,105.183,0.000918419,0.0503366,20.9929,102.441,-0.146671,0.0,0.0
466,116.25,41.7566,44.3348,132.732,103.494,105.245,0.00091482,0.0502075,20.9929,102.421,-0.151522,0.0,0.0
468,116.75,41.6198,44.4373,130.851,103.492,105.245,0.000904653,0.0500708,20.993,102.401,-0.151666,0.0,0.0
470,117.25,42.4108,44.296,132.885,103.501,105.44,0.000896419,0.04996,20.9931,102.401,-0.167584,0.0,0.0
472,117.75,41.7175,44.5674,132.508,103.516,105.197,0.000892166,0.0498841,20.9932,102.431,-0.14549,0.0,0.0
474,118.25,42.1688,44.3929,131.401,103.519,104.98,0.000888721,0.0497545,20.9933,102.381,-0.126607,0.0,0.0
476,118.75,41.9753,44.3231,132.532,103.522,104.955,0.000883513,0.0496494,20.9936,102.381,-0.124206,0.0,0.0
478,119.25,41.5921,44.9217,132.046,103.519,106.176,0.000879295,0.0495643,20.994,102.361,-0.228869,0.0,0.0
480,119.75,41.7244,44.3458,133.33,103.535,106.245,0.000875879,0.0494954,20.9944,102.371,-0.233304,0.0,0.0
482,120.25,41.7972,43.9998,129.828,103.542,105.904,0.000879154,0.0493581,20.9947,102.341,-0.203661,0.0,0.0
484,120.75,41.5146,43.9923,130.013,103.542,105.726,0.000881806,0.0492469,20.9949,102.301,-0.188454,0.0,0.0
486,121.25,42.0654,44.5109,129.476,103.551,106.049,0.000896042,0.0491025,20.9951,102.311,-0.215265,0.0,0.0
488,121.75,41.9879,44.2049,129.225,103.563,104.944,0.000907573,0.0489855,20.9952,102.261,-0.119584,0.0,0.0
490,122.25,41.8593,44.0719,132.733,103.564,104.662,0.000918822,0.0488907,20.9954,102.231,-0.0952453,0.0,0.0
492,122.75,41.7286,44.4153,127.992,103.571,105.87,0.000929651,0.0488275,20.9955,102.231,-0.198309,0.0,0.0
494,123.25,41.5794,44.3406,127.004,103.573,105.483,0.000935878,0.0487764,20.9955,102.211,-0.165024,0.0,0.0
496,123.75,41.4426,43.9042,130.195,103.574,105.068,0.000938631,0.0486992,20.9952,102.191,-0.1293,0.0,0.0
498,124.25,41.7462,44.1567,133.639,103.594,105.535,0.000939805,0.0486045,20.995,102.161,-0.167646,0.0,0.0
500,124.75,41.4135,44.6086,131.853,103.59,105.17,0.000924892,0.0485278,20.9947,102.151,-0.136705,0.0,0.0
502,125.25,41.8321,43.8177,131.424,103.597,105.497,0.000912812,0.0484657,20.9945,102.141,-0.164092,0.0,0.0
504,125.75,42.1207,44.0718,127.778,103.599,105.063,0.000875247,0.0484154,20.9943,102.111,-0.126683,0.0,0.0
506,126.25,41.5528,44.084,129.492,103.619,106.292,0.000844819,0.048361,20.9942,102.111,-0.229933,0.0,0.0
508,126.75,41.557,44.1818,128.155,103.628,105.563,0.000820173,0.0483027,20.9941,102.101,-0.16704,0.0,0.0
510,127.25,41.7631,43.9672,130.618,103.631,105.241,0.000779689,0.0482711,20.994,102.101,-0.139224,0.0,0.0
512,127.75,41.8431,44.0025,130.137,103.628,105.995,0.000746897,0.048217,20.9939,102.131,-0.203885,0.0,0.0
514,128.25,42.2223,43.9015,132.049,103.64,105.491,0.000716717,0.0481053,20.9941,102.081,-0.159813,0.0,0.0
516,128.75,41.8851,43.5053,131.429,103.642,105.156,0.00069227,0.0480148,20.9944,102.051,-0.130926,0.0,0.0
518,129.25,41.4616,44.2884,127.993,103.651,104.814,0.000670055,0.0479272,20.9947,102.01,-0.100756,0.0,0.0
520,129.75,42.0423,44.3662,131.076,103.645,105.405,0.000652061,0.0478435,20.9949,101.96,-0.152081,0.0,0.0
522,130.25,41.3874,44.2115,132.487,103.666,106.467,0.000636279,0.0477756,20.9951,101.92,-0.240694,0.0,0.0
524,130.75,41.99,44.1224,133.982,103.662,105.078,0.000623496,0.047707,20.9953,101.88,-0.122495,0.0,0.0
526,131.25,41.9602,44.0972,132.934,103.673,105.086,0.000619493,0.0476515,20.9954,101.91,-0.122225,0.0,0.0
528,131.75,41.7159,44.0744,128.193,103.662,105.09,0.000621966,0.0475658,20.9955,101.89,-0.123505,0.0,0.0
530,132.25,41.6474,43.9052,132.684,103.684,105.83,0.000623969,0.0474964,20.9956,101.87,-0.184993,0.0,0.0
532,132.75,41.7307,44.2229,130.918,103.679,106.084,0.000649737,0.047413,20.9956,101.9,-0.207075,0.0,0.0
534,133.25,41.8613,44.1499,136.197,103.697,105.293,0.000670609,0.0473454,20.9957,101.88,-0.137886,0.0,0.0
536,133.75,41.6309,44.5435,132.896,103.691,105.483,0.000687515,0.0472764,20.9957,101.78,-0.15479,0.0,0.0
538,134.25,41.4919,43.8999,128.316,103.711,106.184,0.000721745,0.0472077,20.9957,101.73,-0.212756,0.0,0.0
540,134.75,41.1479,43.9963,131.402,103.712,105.655,0.000749471,0.047152,20.9958,101.72,-0.16763,0.0,0.0
542,135.25,41.5032,44.2364,130.37,103.74,105.227,0.000760655,0.0471476,20.9958,101.76,-0.128562,0.0,0.0
544,135.75,41.9026,44.1882,131.284,103.72,105.059,0.00077978,0.0471441,20.9958,101.83,-0.115797,0.0,0.0
546,136.25,41.4884,43.8786,131.803,103.74,105.82,0.000790821,0.0471198,20.9958,101.74,-0.179255,0.0,0.0
548,136.75,41.3984,44.0754,130.986,103.737,105.206,0.000795757,0.0470808,20.9958,101.72,-0.126926,0.0,0.0
550,137.25,41.1554,43.8018,134.699,103.757,105.379,0.000797848,0.0470492,20.9958,101.63,-0.140039,0.0,0.0
552,137.75,41.7995,44.3346,133.723,103.759,106.022,0.000797825,0.0470101,20.9954,101.59,-0.194799,0.0,0.0
554,138.25,41.5017,44.0805,132.14,103.769,105.914,0.000800223,0.0469934,20.9951,101.55,-0.184739,0.0,0.0
556,138.75,41.3311,44.0365,131.883,103.762,104.839,,0.0469363,,101.68,-0.0931874,0.0,0.0
558,139.25,41.7568,43.6788,126.134,103.791,105.752,,0.0468643,,101.71,-0.169031,0.0,0.0
560,139.75,41.1918,43.5451,134.261,103.775,105.341,,0.0467988,,101.66,-0.135272,0.0,0.0
562,140.25,40.8134,43.8771,130.526,103.787,106.266,,0.0467394,,101.6,-0.213132,0.0,0.0
564,140.75,40.8141,43.0816,130.925,103.792,104.94,,0.0467055,,101.58,-0.0993941,0.0,0.0
566,141.25,41.4512,44.3106,130.6,103.819,106.187,,0.046691,,101.57,-0.203624,0.0,0.0
568,141.75,41.4963,43.5717,132.882,103.8,105.526,,,,101.6,-0.148965,0.0,0.0
570,142.25,41.5497,43.5967,131.045,103.811,105.39,,,,101.6,-0.136334,0.0,0.0
572,142.75,40.9633,43.7421,128.477,103.801,106.131,,,,101.62,-0.200486,0.0,0.0
574,143.25,41.479,43.4353,127.084,103.812,105.184,,,,101.65,-0.118526,0.0,0.0
576,143.75,41.2081,43.1784,130.822,103.81,106.507,,,,101.56,-0.23158,0.0,0.0
578,144.25,41.4685,43.5379,131.757,103.822,105.424,,,,101.54,-0.138319,0.0,0.0
580,144.75,41.3517,43.3516,126.959,103.811,105.453,,,,101.49,-0.141694,0.0,0.0
582,145.25,41.682,43.6204,129.927,103.827,105.495,,,,101.46,-0.143917,0.0,0.0
584,145.75,41.3723,43.5682,133.375,103.825,105.753,,,,101.49,-0.166094,0.0,0.0
586,146.25,41.4152,43.9393,130.925,103.831,105.522,,,,101.49,-0.145887,0.0,0.0
588,146.75,41.3641,43.5984,133.551,103.834,106.503,,,,101.43,-0.229206,0.0,0.0
590,147.25,41.2227,43.5956,129.408,103.848,105.978,,,,101.42,-0.183357,0.0,0.0
592,147.75,41.5135,43.7401,132.292,103.845,106.11,,,,101.43,-0.194864,0.0,0.0
594,148.25,41.2476,43.7215,130.144,103.85,105.413,,,,101.41,-0.134855,0.0,0.0
596,148.75,41.1493,43.8847,131.72,103.849,105.805,,,,101.41,-0.168456,0.0,0.0
598,149.25,41.395,43.5626,131.221,103.85,105.698,,,,101.4,-0.159229,0.0,0.0
599,149.5,41.4113,44.0111,132.592,103.851,105.828,,,,101.37,-0.170234,0.0,0.0