File: 01_Data/LW_Gypsum/Cone/LW_Gypsum_Cone_HF25Scan_220506_R3.csv
Names,Time,Stack TC,Smoke TC,Exh Press,Smoke Comp,Smoke Meas,CO Meter,CO2 Meter,O2 Meter,Sample Mass,Ext Coeff,Start Test,Flame Verif
Chan Gain,,500,500,1,1,1,1,1,1,1,1,1.0,1.0
Offset,,0,0,0.135316,0,0,0,0,0,0,0,0.0,0.0
Gain,,1,1,25.011,13.8443,15.4071,1,1,1,1.00079,1.02936,1.0,1.0
Units,sec,C,C,Pa,%,%,%,%,%,g,/m,,
Baseline,,19.1003,19.689,141.985,104.422,103.488,0.000310451,0.0461938,21.0015,-446.465,0.0811218,,
3,0.5,18.987,19.3459,145.673,103.733,102.906,-8.74336e-05,0.0576224,20.9883,115.271,0.0722665,0.0,0.0
6,1.25,17.7374,17.9184,141.335,103.737,102.857,-0.000117545,0.0566204,20.9899,115.211,0.0769712,0.0,0.0
9,2,17.8442,17.8776,139.663,103.718,102.78,-0.000142744,0.0554436,20.9911,115.211,0.0820062,0.0,0.0
12,2.75,17.3386,18.1995,142.534,103.724,102.813,-0.000143072,0.0543681,20.9921,115.211,0.0795931,0.0,0.0
15,3.5,17.7111,17.9179,147.507,103.706,102.775,-0.000117892,0.0534914,20.9933,115.211,0.0814344,0.0,0.0
18,4.25,17.3742,18.1362,142.121,103.698,102.824,-6.92237e-05,0.0525033,20.9942,115.181,0.0763991,0.0,0.0
21,5,17.4681,18.1038,139.834,103.7,102.757,7.46092e-06,0.0516757,20.9953,115.181,0.0824478,0.0,0.0
24,5.75,18.033,18.6335,137.659,103.686,102.718,7.90218e-05,0.050889,20.9964,115.181,0.0847417,0.0,0.0
27,6.5,17.7673,18.4028,141.923,103.673,102.79,0.000137865,0.0501218,20.9977,115.181,0.0772017,0.0,0.0
30,7.25,17.4672,18.1014,143.572,103.684,102.811,0.000182664,0.0494674,20.9986,115.171,0.0763361,0.0,0.0
33,8,17.7908,18.3063,139.215,103.679,102.751,0.000218576,0.0488927,20.9993,115.171,0.0811869,0.0,0.0
36,8.75,17.8612,17.8901,140.585,103.669,102.617,0.000253349,0.048376,20.9998,115.171,0.0920869,0.0,0.0
39,9.5,16.9964,18.3243,141.9,103.656,102.64,0.000278698,0.0478993,21.0001,115.161,0.0889571,0.0,0.0
42,10.25,17.0167,18.1545,140.668,103.655,102.873,0.000319527,0.0473808,21.0004,115.171,0.0683896,0.0,0.0
45,11,17.2401,18.3443,142.916,103.648,102.804,0.000351194,0.0469486,21.0011,115.151,0.0738286,0.0,0.0
48,11.75,17.5857,18.3004,143.103,103.643,102.747,0.000369662,0.046596,21.0017,115.141,0.0784311,0.0,0.0
51,12.5,17.7362,18.3292,141.267,103.634,102.699,0.000378962,0.0463146,21.0027,115.131,0.0817544,0.0,0.0
54,13.25,17.5558,18.5776,140.305,103.634,102.588,0.00036862,0.0461023,21.0034,115.131,0.0916298,0.0,0.0
57,14,17.3177,18.3868,139.963,103.648,102.654,0.000331802,0.0459353,21.0039,115.111,0.087017,0.0,0.0
60,14.75,17.6673,18.3516,142.749,103.636,102.735,0.000274866,0.0458364,21.0043,115.091,0.0788387,0.0,0.0
63,15.5,17.7134,18.4995,139.13,103.634,102.645,0.00022053,0.0457222,21.0046,115.071,0.0865821,0.0,0.0
66,16.25,17.9847,18.3861,142.075,103.621,102.785,0.000168906,0.0455808,21.0048,115.091,0.0731656,0.0,0.0
69,17,17.8403,18.3238,143.976,103.627,102.747,0.000133805,0.0454506,21.0049,115.091,0.0770267,0.0,0.0
72,17.75,17.8521,18.2201,139.964,103.63,102.739,0.000112548,0.0453442,21.005,115.091,0.0779882,0.0,0.0
75,18.5,17.6394,18.7979,143.167,103.617,102.79,0.000127952,0.0451892,21.0051,115.091,0.0723061,0.0,0.0
78,19.25,18.0794,18.4245,143.077,103.607,102.691,0.000164472,0.0450833,21.0052,115.091,0.0801425,0.0,0.0
81,20,18.3316,18.6509,141.002,103.628,102.705,0.000215197,0.0450184,21.0052,115.071,0.0808573,0.0,0.0
84,20.75,17.6415,18.195,143.441,103.609,102.758,0.000274954,0.0449903,21.0052,115.061,0.0744895,0.0,0.0
87,21.5,17.1822,18.2941,144.844,103.614,102.747,0.00033178,0.0449835,21.0053,115.071,0.0758494,0.0,0.0
90,22.25,18.5368,18.2282,141.665,103.609,102.685,0.000382035,0.0449843,21.0053,115.071,0.0809,0.0,0.0
93,23,18.1502,18.585,142.458,103.599,102.693,0.0004241,0.0449462,21.0053,115.051,0.079273,0.0,0.0
96,23.75,17.5036,18.8688,137.739,103.599,102.807,0.000460796,0.0448506,21.0053,115.031,0.0693509,0.0,0.0
99,24.5,18.2366,18.7109,138.495,103.599,102.829,0.000481355,0.044752,21.0053,115.021,0.0673693,0.0,0.0
102,25.25,17.3012,18.6349,141.035,103.588,102.647,0.000503386,0.0447188,21.0053,115.011,0.0824456,0.0,0.0
105,26,17.8525,18.4181,145.26,103.599,102.657,0.000512564,0.0447081,21.0053,115.011,0.0824979,0.0,0.0
108,26.75,18.4156,18.376,141.292,103.583,102.695,0.000512018,0.0447061,21.0053,115.001,0.0777438,0.0,0.0
111,27.5,17.8898,18.4585,140.648,103.592,102.637,0.000508535,0.0447051,21.0053,114.991,0.0836455,0.0,0.0
114,28.25,18.0195,18.8374,144.244,103.58,102.727,0.000467505,0.0446497,21.0053,114.981,0.0747169,0.0,0.0
117,29,18.1049,18.6735,142.129,103.596,102.744,0.000404708,0.0445791,21.0053,114.981,0.0745919,0.0,0.0
120,29.75,18.467,18.5962,146.785,103.602,102.822,0.000330752,0.0445154,21.0051,114.981,0.0682464,0.0,0.0
123,30.5,18.1188,18.9412,141.428,103.598,102.683,0.000255178,0.0444828,21.0049,114.961,0.0801126,0.0,0.0
126,31.25,18.062,18.7765,141.695,103.6,102.677,0.000185787,0.0444828,21.0048,114.911,0.0807517,0.0,0.0
129,32,18.0665,18.2551,140.375,103.596,102.654,0.00012654,0.0444828,21.0047,114.881,0.0824467,0.0,0.0
132,32.75,18.044,18.9212,142.308,103.596,102.644,8.50645e-05,0.0444899,21.0047,114.881,0.0833565,0.0,0.0
135,33.5,18.2248,18.3085,143.019,103.587,102.642,5.48288e-05,0.0445074,21.0046,114.871,0.0827485,0.0,0.0
138,34.25,17.6776,18.7252,143.997,103.593,102.663,3.96498e-05,0.0445201,21.0046,114.851,0.081444,0.0,0.0
141,35,18.3034,18.6712,140.24,103.598,102.616,2.85843e-05,0.0445564,21.0046,114.861,0.0860234,0.0,0.0
144,35.75,17.5453,18.7709,141.2,103.6,102.716,2.56644e-05,0.0445945,21.0046,114.841,0.0773618,0.0,0.0
147,36.5,17.9647,18.8829,143.151,103.614,102.617,3.79734e-05,0.0445951,21.0044,114.801,0.0872612,0.0,0.0
150,37.25,18.3675,18.6001,143.442,103.605,102.634,5.31017e-05,0.0445841,21.0039,114.791,0.0850403,0.0,0.0
153,38,18.3906,19.0092,144.856,103.61,102.712,9.67539e-05,0.0445566,21.0035,114.791,0.0785762,0.0,0.0
156,38.75,18.1176,18.4749,140.504,103.622,102.688,0.000147356,0.044558,21.0033,114.761,0.0817566,0.0,0.0
159,39.5,18.5797,18.5037,141.243,103.617,102.694,0.000185512,0.0445957,21.0035,114.751,0.0807773,0.0,0.0
162,40.25,18.1807,18.2963,141.291,103.617,102.788,0.000215496,0.0445651,21.004,114.731,0.0725495,0.0,0.0
165,41,17.9245,18.8959,142.79,103.619,102.626,0.000233919,0.0445575,21.0044,114.71,0.0869168,0.0,0.0
168,41.75,18.2976,18.3767,141.164,103.635,102.758,0.000242277,0.044577,21.0047,114.72,0.0767769,0.0,0.0
171,42.5,18.1885,19.0123,141.462,103.642,102.669,0.000239698,0.0446105,21.005,114.7,0.0851416,0.0,0.0
174,43.25,17.8254,18.3303,141.575,103.623,102.686,0.000244689,0.0446079,21.0051,114.69,0.0820275,0.0,0.0
177,44,18.5597,18.4898,139.907,103.628,102.676,0.000255302,0.0445944,21.0052,114.67,0.0833469,0.0,0.0
180,44.75,18.6521,18.8922,145.008,103.642,102.611,0.000274966,0.0445265,21.0047,114.65,0.0903436,0.0,0.0
183,45.5,17.8769,18.0487,146.882,103.643,102.868,0.000304968,0.0445177,21.0043,114.66,0.0677347,0.0,0.0
186,46.25,18.3198,19.0904,138.468,103.65,102.757,0.000346847,0.0445287,21.004,114.67,0.0781056,0.0,0.0
189,47,17.8884,18.568,139.269,103.64,102.658,0.000400168,0.044556,21.0038,114.65,0.0859445,0.0,0.0
192,47.75,18.02,18.6798,142.116,103.661,102.733,0.000447933,0.044583,21.0037,114.62,0.0811699,0.0,0.0
195,48.5,17.6518,18.9761,143.181,103.666,102.713,0.000503117,0.044615,21.0036,114.59,0.08343,0.0,0.0
198,49.25,18.2909,18.6344,143.545,103.674,102.853,0.000541013,0.0446189,21.0035,114.59,0.0717422,0.0,0.0
201,50,17.8186,18.4557,140.781,103.667,102.841,0.00055431,0.0445946,21.0034,114.59,0.0722313,0.0,0.0
204,50.75,18.4214,19.3924,138.196,103.687,102.791,0.000541201,0.0445741,21.0031,114.58,0.0784119,0.0,0.0
207,51.5,18.4724,19.0939,138.651,103.698,102.756,0.000497253,0.0445715,21.0029,114.6,0.0823838,0.0,0.0
210,52.25,18.4035,18.8504,141.035,103.686,102.742,0.000444732,0.0446055,21.0028,114.58,0.0825608,0.0,0.0
213,53,18.3572,18.8649,138.849,103.688,102.741,0.000385671,0.0446303,21.0027,114.57,0.0828275,0.0,0.0
216,53.75,18.4391,18.4421,141.349,103.685,102.71,0.000322024,0.0446555,21.0026,114.55,0.085293,0.0,0.0
219,54.5,18.1009,18.6087,142.737,103.705,102.814,0.000248161,0.0446861,21.0025,114.54,0.0778911,0.0,0.0
222,55.25,18.2546,18.9036,143.714,103.703,102.744,0.000194314,0.044689,21.0025,114.53,0.0839409,0.0,0.0
225,56,18.0132,18.9967,143.719,103.71,102.764,0.000143031,0.0446718,21.0025,114.5,0.0827165,0.0,0.0
228,56.75,18.4121,18.7982,144.367,103.722,102.761,0.000100518,0.0446736,21.0024,114.47,0.0841083,0.0,0.0
231,57.5,18.6454,18.0844,142.591,103.715,102.676,8.99777e-05,0.0446992,21.0027,114.42,0.0909638,0.0,0.0
234,58.25,18.3232,18.457,145.272,103.722,102.847,9.10128e-05,0.0447044,21.0033,114.44,0.0764728,0.0,0.0
237,59,18.2909,19.2909,143.915,103.724,102.775,0.000124391,0.0447024,21.0038,114.41,0.0830162,0.0,0.0
240,59.75,18.3827,19.3127,143.11,103.719,102.786,0.000159029,0.0447152,21.0041,114.41,0.08162,0.0,0.0
243,60.5,18.2066,19.0456,141.312,103.735,102.847,0.000181745,0.0447489,21.0043,114.39,0.0775763,0.0,0.0
246,61.25,18.8036,18.8871,140.939,103.742,102.723,0.000193969,0.0447349,21.0045,114.36,0.0890647,0.0,0.0
249,62,18.7184,19.229,141.395,103.748,102.876,0.000171972,0.0447246,21.0046,114.35,0.0762358,0.0,0.0
252,62.75,18.5207,18.8733,143.661,103.749,102.904,0.000155936,0.0447171,21.0047,114.35,0.0737923,0.0,0.0
255,63.5,18.4816,19.0637,142.919,103.775,102.864,0.000123651,0.0447503,21.0048,114.34,0.0796251,0.0,0.0
258,64.25,17.7958,18.5698,148.297,103.787,102.909,0.000103725,0.0447881,21.0049,114.35,0.076651,0.0,0.0
261,65,17.8622,18.8944,143.363,103.776,102.815,9.04099e-05,0.0448214,21.0049,114.33,0.0839867,0.0,0.0
264,65.75,18.3511,18.722,142.46,103.774,102.735,8.98504e-05,0.0447915,21.0049,114.31,0.0908264,0.0,0.0
267,66.5,17.9625,18.9309,138.99,103.784,102.838,9.40174e-05,0.0447537,21.0049,114.31,0.0826621,0.0,0.0
270,67.25,18.7305,19.3991,138.869,103.79,102.795,9.97409e-05,0.0447383,21.0049,114.32,0.0869712,0.0,0.0
273,68,18.1401,18.9442,140.943,103.792,102.73,0.000104997,0.0447241,21.005,114.32,0.0929019,0.0,0.0
276,68.75,18.6883,19.3432,142.43,103.789,102.924,0.000107111,0.0447046,21.005,114.29,0.0755879,0.0,0.0
279,69.5,18.1227,18.7658,138.821,103.799,102.888,0.000108653,0.0446639,21.005,114.27,0.0796144,0.0,0.0
282,70.25,18.1995,19.1449,141.965,103.814,102.817,9.43295e-05,0.0446206,21.005,114.26,0.0872078,0.0,0.0
285,71,19.112,19.1698,138.715,103.808,102.731,7.78725e-05,0.0445833,21.005,114.26,0.0942155,0.0,0.0
288,71.75,18.8439,18.8835,142.037,103.815,102.722,6.33109e-05,0.044556,21.005,114.24,0.0955895,0.0,0.0
291,72.5,18.3864,18.8135,138.643,103.829,102.8,5.26955e-05,0.0445769,21.005,114.22,0.0899386,0.0,0.0
294,73.25,18.3923,19.0428,143.151,103.834,102.678,5.09723e-05,0.0446094,21.005,114.2,0.101082,0.0,0.0
297,74,18.6184,18.7035,143.454,103.844,102.732,5.86141e-05,0.0446912,21.005,114.19,0.0972519,0.0,0.0
300,74.75,18.0665,18.6898,140.852,103.833,102.679,7.50155e-05,0.0447779,21.005,114.19,0.100968,0.0,0.0
303,75.5,18.0705,19.3335,140.049,103.838,102.647,0.000107576,0.0448456,21.005,114.17,0.104106,0.0,0.0
306,76.25,18.2808,18.4389,141.799,103.849,102.549,0.000131312,0.0448827,21.005,114.16,0.113751,0.0,0.0
309,77,18.5373,19.3594,139.007,103.862,102.752,0.00017391,0.0449291,21.005,114.15,0.0969804,0.0,0.0
312,77.75,18.5523,18.9368,142.965,103.876,102.691,0.000216382,0.0449765,21.005,114.12,0.103525,0.0,0.0
315,78.5,18.7447,19.2173,141.517,103.869,102.65,0.000248429,0.0450168,21.005,114.11,0.106654,0.0,0.0
318,79.25,18.3855,19.5145,138.202,103.879,102.536,0.000261479,0.0450462,21.005,114.1,0.117477,0.0,0.0
321,80,19.0116,19.3291,139.572,103.893,102.62,0.000270993,0.0450676,21.005,114.07,0.111316,0.0,0.0
324,80.75,18.5437,19.0224,142.084,103.899,102.586,0.000265802,0.0450446,21.0048,114.06,0.11481,0.0,0.0
327,81.5,18.7708,18.6903,140.953,103.92,102.444,0.000254946,0.0450492,21.0045,114.04,0.129116,0.0,0.0
330,82.25,18.8978,19.0498,138.824,103.926,102.561,0.00024378,0.0450891,21.0045,114.04,0.119317,0.0,0.0
333,83,18.5536,19.0658,145.039,103.934,102.529,0.000242512,0.0451183,21.0045,114.02,0.122907,0.0,0.0
336,83.75,18.3001,19.4626,139.372,103.939,102.497,0.000251098,0.0452373,21.0045,114.01,0.126202,0.0,0.0
339,84.5,18.5856,19.0278,138.446,103.947,102.343,0.00027362,0.0453241,21.0045,113.99,0.140494,0.0,0.0
342,85.25,18.5504,19.5669,143.137,103.956,102.626,0.000298474,0.0453738,21.0045,113.98,0.116248,0.0,0.0
345,86,18.8748,19.3139,139.715,103.958,102.299,0.000320823,0.0454043,21.0045,113.95,0.145271,0.0,0.0
348,86.75,18.2026,19.1054,144.154,103.984,102.232,0.0003382,0.0454652,21.0045,113.94,0.153404,0.0,0.0
351,87.5,18.8635,19.3725,139.074,103.972,102.196,0.000353279,0.0455096,21.0045,113.93,0.155612,0.0,0.0
354,88.25,18.9209,19.5256,141.304,103.975,102.378,0.000369106,0.0455419,21.0045,113.93,0.139727,0.0,0.0
357,89,18.3249,19.0287,138.052,103.997,102.177,0.000387153,0.045701,21.0045,113.92,0.159479,0.0,0.0
360,89.75,19.1614,19.3786,141.13,103.998,102.228,0.000403749,0.0458169,21.0045,113.89,0.154989,0.0,0.0
363,90.5,18.2074,18.9887,145.494,104.007,102.114,0.000415847,0.0459015,21.0045,113.88,0.165929,0.0,0.0
366,91.25,18.5804,18.9315,140.785,104.02,102.212,0.000426502,0.045847,21.0045,113.87,0.158266,0.0,0.0
369,92,19.1509,19.5383,143.209,104.022,101.987,0.000431859,0.0458073,21.0045,113.82,0.178447,0.0,0.0
372,92.75,18.4929,19.0796,142.382,104.017,102.008,0.000434736,0.0457783,21.0043,113.79,0.176096,0.0,0.0
375,93.5,18.5712,19.6576,142.078,104.024,101.963,0.000421359,0.0458514,21.0041,113.78,0.180717,0.0,0.0
378,94.25,18.4809,19.1466,138.428,104.043,102.026,0.000407991,0.0459449,21.0036,113.77,0.176752,0.0,0.0
381,95,18.8227,18.964,137.46,104.042,101.914,0.00039791,0.046013,21.003,113.75,0.186624,0.0,0.0
384,95.75,18.8357,19.0804,141.533,104.051,101.947,0.000391074,0.0460356,21.0026,113.72,0.184478,0.0,0.0
387,96.5,19.1918,19.406,142.39,104.059,101.941,0.000393477,0.0460619,21.0022,113.7,0.185675,0.0,0.0
390,97.25,18.5265,18.5523,144.695,104.064,101.709,0.000394348,0.0461177,21.002,113.67,0.206676,0.0,0.0
393,98,18.7312,19.2752,142.187,104.092,101.892,0.000419429,0.046139,21.0018,113.66,0.192867,0.0,0.0
396,98.75,18.7498,19.3484,141.74,104.082,102.031,0.000457012,0.0461546,21.0017,113.65,0.179739,0.0,0.0
399,99.5,18.7207,19.2769,140.079,104.086,102.029,0.00049772,0.0461659,21.0016,113.65,0.180273,0.0,0.0
402,100.25,18.7257,19.1299,143.379,104.101,101.896,0.000536084,0.0461548,21.0016,113.61,0.193261,0.0,0.0
405,101,18.4692,19.5937,139.759,104.115,101.782,0.000576041,0.0461753,21.0015,113.58,0.204679,0.0,0.0
408,101.75,18.8967,19.1687,144.547,104.116,101.84,0.000621088,0.0462391,21.0015,113.56,0.199659,0.0,0.0
411,102.5,19.1583,19.3375,146.55,104.128,101.757,0.000672403,0.046363,21.0015,113.55,0.208026,0.0,0.0
414,103.25,18.844,19.5748,142.821,104.129,101.744,0.000726871,0.0464323,21.0018,113.54,0.209231,0.0,0.0
417,104,18.8423,19.7523,142.055,104.141,102.088,0.000756041,0.0464468,21.002,113.53,0.179722,0.0,0.0
420,104.75,19.2008,19.4043,142.807,104.141,101.621,0.000783382,0.0464962,21.0022,113.52,0.221228,0.0,0.0
423,105.5,18.5539,19.3517,140.02,104.136,101.885,0.000792438,0.0465321,21.0023,113.48,0.197381,0.0,0.0
426,106.25,18.8313,19.521,139.005,104.142,101.639,0.000764591,0.0466622,21.0024,113.47,0.219634,0.0,0.0
429,107,18.5518,19.1065,139.492,104.146,101.697,0.000729683,0.0467237,21.0025,113.45,0.214901,0.0,0.0
432,107.75,18.6294,19.6231,138.8,104.168,101.544,0.000679255,0.0468335,21.0025,113.45,0.230311,0.0,0.0
435,108.5,18.515,19.1654,141.835,104.171,101.557,0.00063405,0.0468922,21.0026,113.429,0.229439,0.0,0.0
438,109.25,18.6161,19.2498,137.376,104.165,101.672,0.000609558,0.0468982,21.0026,113.399,0.218763,0.0,0.0
441,110,18.6507,19.532,139.711,104.178,101.424,0.000612091,0.046922,21.0026,113.369,0.241857,0.0,0.0
444,110.75,18.8973,19.2164,141.621,104.189,101.548,0.000640007,0.046968,21.0026,113.319,0.231765,0.0,0.0
447,111.5,18.8562,19.3302,143.586,104.194,101.549,0.000660357,0.0470503,21.0027,113.319,0.232163,0.0,0.0
450,112.25,19.253,19.1133,140.617,104.204,101.622,0.000718378,0.0471684,21.0027,113.299,0.226522,0.0,0.0
453,113,18.6461,19.2616,143.836,104.201,101.56,0.000760675,0.0473514,21.0025,113.299,0.231787,0.0,0.0
456,113.75,18.9889,19.6513,143.746,104.212,101.119,0.000790237,0.0474847,21.0023,113.279,0.272067,0.0,0.0
459,114.5,19.0523,19.6584,145.306,104.217,101.753,0.000809613,0.0475809,21.0016,113.249,0.216013,0.0,0.0
462,115.25,19.0453,19.299,144.847,104.228,101.426,0.000839252,0.0476438,21.001,113.239,0.246052,0.0,0.0
465,116,19.0336,19.8022,141.432,104.221,101.419,0.000877783,0.0476775,21.0006,113.219,0.246052,0.0,0.0
468,116.75,19.1054,19.5232,142.75,104.237,101.48,0.000913087,0.0477214,21.0003,113.189,0.242003,0.0,0.0
471,117.5,19.248,19.488,141.8,104.239,101.23,0.000952625,0.0477534,21.0001,113.169,0.264469,0.0,0.0
474,118.25,18.6057,19.569,140.614,104.238,101.268,0.000981448,0.0477768,21,113.149,0.261042,0.0,0.0
477,119,18.9524,19.5889,140.075,104.234,101.183,0.00103525,0.0478131,20.9998,113.119,0.268267,0.0,0.0
480,119.75,18.6442,19.489,139.987,104.242,101.291,0.00109021,0.0479347,20.9998,113.089,0.259276,0.0,0.0
483,120.5,19.2526,19.6475,140.863,104.25,101.366,0.00113698,0.0480639,20.9997,113.079,0.253351,0.0,0.0
486,121.25,18.6831,19.4049,138.534,104.254,101.1,0.00120045,0.0481716,20.9992,113.059,0.27737,0.0,0.0
489,122,18.6821,19.2929,137.47,104.248,101.574,0.00129028,0.0482559,20.9987,113.029,0.234627,0.0,0.0
492,122.75,18.855,19.8303,137.895,104.247,101.445,0.00139478,0.0483174,20.9983,113.009,0.246098,0.0,0.0
495,123.5,18.5598,19.8862,139.644,104.253,100.976,0.00150591,0.0483486,20.9982,112.989,0.28839,0.0,0.0
498,124.25,18.9032,19.5474,139.747,104.25,100.976,0.00161291,0.0483875,20.9982,112.929,0.288134,0.0,0.0
501,125,18.9964,19.5889,141.031,104.25,101.054,0.00168772,0.0484531,20.9982,112.909,0.281126,0.0,0.0
504,125.75,19.1878,19.2456,140.075,104.261,100.879,0.00173679,0.0485553,20.9982,112.889,0.297678,0.0,0.0
507,126.5,19.2913,19.6225,138.886,104.28,101.153,0.00177256,0.048653,20.9981,112.859,0.274863,0.0,0.0
510,127.25,19.4411,19.8284,143.126,104.266,101.507,0.00178304,0.0487242,20.9977,112.849,0.242181,0.0,0.0
513,128,19.3098,19.5984,142.538,104.271,101.302,0.00178749,0.0488536,20.9972,112.839,0.2608,0.0,0.0
516,128.75,19.4509,19.6377,139.295,104.28,101.08,0.00178527,0.0489479,20.9962,112.819,0.28145,0.0,0.0
519,129.5,18.9555,19.6725,141.822,104.302,100.686,0.00180444,0.0491254,20.9955,112.789,0.318582,0.0,0.0
522,130.25,18.8532,19.309,144.314,104.296,101.217,0.00184514,0.0493011,20.9949,112.789,0.270662,0.0,0.0
525,131,19.4321,19.6234,145.44,104.305,101.038,0.00190733,0.0493904,20.9945,112.759,0.287305,0.0,0.0
528,131.75,19.2546,19.2303,140.307,104.324,101.199,0.00198879,0.0495235,20.9943,112.739,0.274627,0.0,0.0
531,132.5,19.2435,19.7569,141.184,104.324,100.685,0.00204818,0.0496637,20.9941,112.699,0.320598,0.0,0.0
534,133.25,19.3625,19.7256,140.149,104.328,100.896,0.00217321,0.0497904,20.9939,112.669,0.302057,0.0,0.0
537,134,19.0667,19.8095,141.213,104.325,100.762,0.00227411,0.0499508,20.9937,112.639,0.313765,0.0,0.0
540,134.75,19.417,19.8544,140.884,104.324,100.583,0.00235439,0.0500966,20.9934,112.599,0.329681,0.0,0.0
543,135.5,19.0425,19.5438,142.103,104.343,100.685,0.0024173,0.0503376,20.9932,112.569,0.322243,0.0,0.0
546,136.25,19.5172,20.158,145.137,104.362,100.817,0.0024823,0.0505562,20.9931,112.559,0.312053,0.0,0.0
549,137,19.3237,19.9783,143.156,104.358,101.185,0.00256873,0.0507889,20.9927,112.529,0.278733,0.0,0.0
552,137.75,19.1081,19.8145,141.98,104.359,100.665,0.00264839,0.0510168,20.9921,112.489,0.325452,0.0,0.0
555,138.5,19.1672,20.1696,137.024,104.366,100.143,0.00276744,0.0512781,20.9916,112.469,0.372931,0.0,0.0
558,139.25,19.048,19.8257,140.423,104.371,100.279,0.00285424,0.0515091,20.9913,112.449,0.361126,0.0,0.0
561,140,19.698,20.0382,141.809,104.375,100.332,0.0029838,0.0517358,20.9904,112.419,0.356787,0.0,0.0
564,140.75,18.8191,20.0055,139.485,104.384,100.168,0.00310887,0.0519418,20.9898,112.369,0.37225,0.0,0.0
567,141.5,19.8345,19.9985,138.789,104.391,100.411,0.00323244,0.0521094,20.9893,112.359,0.350997,0.0,0.0
570,142.25,18.9145,19.9338,140.206,104.393,100.442,0.00335561,0.0523674,20.989,112.329,0.348426,0.0,0.0
573,143,19.7886,19.8539,137.339,104.4,99.5506,0.00349789,0.0526342,20.9887,112.299,0.429468,0.0,0.0
576,143.75,19.5561,20.0177,138.55,104.4,99.908,0.00361881,0.0529635,20.9886,112.279,0.397113,0.0,0.0
579,144.5,19.5727,20.0798,140.596,104.412,98.9789,0.00371428,0.0532617,20.9884,112.239,0.482498,0.0,0.0
582,145.25,19.3698,19.8482,142.254,104.414,100.09,0.00379263,0.0534928,20.9879,112.209,0.381846,0.0,0.0
585,146,19.1379,19.9187,139.154,104.427,99.4176,0.00385558,0.053667,20.9873,112.158,0.443883,0.0,0.0
588,146.75,19.1041,20.1809,139.767,104.421,99.8078,0.00391141,0.0539105,20.9863,112.098,0.40796,0.0,0.0
591,147.5,19.3652,20.0714,136.87,104.43,99.4745,0.00397489,0.0542514,20.9851,112.078,0.438936,0.0,0.0
594,148.25,19.3014,19.8907,144.225,104.447,100,0.00401872,0.0545695,20.984,112.018,0.392881,0.0,0.0
597,149,19.1214,19.9309,142.473,104.444,100.103,0.00404038,0.0569411,20.9835,111.988,0.383294,0.0,0.0
600,149.75,19.589,20.5242,139.4,104.438,101.199,0.00406541,0.061607,20.981,111.938,0.284464,0.0,0.0
603,150.5,19.2741,20.1549,140.323,104.447,103.798,0.00393837,0.0700306,20.9724,111.898,0.0563186,0.0,1.0
606,151.25,19.134,20.2063,129.883,104.469,104.983,0.00376251,0.0866686,20.9583,111.808,-0.0443074,0.0,1.0
609,152,19.8015,20.3086,134.415,104.486,104.603,0.00356667,0.0951724,20.9393,111.668,-0.0101125,0.0,1.0
612,152.75,19.5922,20.409,134.678,104.477,104.994,0.00336892,0.112015,20.9146,111.618,-0.0445876,0.0,1.0
615,153.5,20.3103,20.7823,136.263,104.476,105.476,0.00322476,0.139062,20.8919,111.538,-0.0859727,0.0,1.0
618,154.25,19.8854,20.8614,130.804,104.487,105.302,0.00314057,0.163513,20.8617,111.468,-0.0702316,0.0,1.0
621,155,21.4953,20.6352,128.222,104.502,105.703,0.00313786,0.185795,20.8397,111.398,-0.103126,0.0,1.0
624,155.75,21.1295,20.8793,127.92,104.502,106.009,0.00320472,0.202039,20.8236,111.318,-0.129272,0.0,1.0
627,156.5,21.2582,20.9807,130.28,104.492,104.737,0.00337816,0.213385,20.8119,111.218,-0.0211641,0.0,1.0
630,157.25,21.7204,21.399,133.694,104.52,104.502,0.00358966,0.22003,20.8084,111.188,0.0015757,0.0,1.0
633,158,21.9654,21.585,133.292,104.511,104.513,0.00391768,0.222091,20.8097,111.128,-0.000161461,0.0,0.0
636,158.75,22.2223,22.0935,133.198,104.528,104.532,0.00422442,0.219124,20.8144,111.088,-0.000334765,0.0,0.0
639,159.5,22.8168,21.9292,134.592,104.519,104.064,0.00456365,0.213421,20.8214,111.018,0.0393286,0.0,0.0
642,160.25,22.5569,22.457,136.204,104.538,104.18,0.00491542,0.205843,20.8265,111.008,0.030976,0.0,0.0
645,161,22.8719,23.1171,136.059,104.55,103.953,0.00535049,0.197052,20.8364,110.968,0.0517027,0.0,0.0
648,161.75,22.3536,22.7428,135.606,104.553,104.01,0.00587741,0.185135,20.8475,110.928,0.0469763,0.0,0.0
651,162.5,22.5265,22.8369,140.781,104.544,104.142,0.0063891,0.174454,20.8594,110.887,0.034793,0.0,0.0
654,163.25,23.5006,22.7558,142.279,104.55,103.625,0.00668876,0.163256,20.8716,110.837,0.0802556,0.0,0.0
657,164,23.3057,23.8897,138.734,104.566,103.728,0.00714656,0.151553,20.8796,110.827,0.0726734,0.0,0.0
660,164.75,22.3825,23.0517,137.021,104.562,103.875,0.00757488,0.141512,20.8913,110.777,0.0595431,0.0,0.0
663,165.5,22.8252,23.0523,140.099,104.561,103.856,0.00796751,0.131308,20.9032,110.757,0.0611459,0.0,0.0
666,166.25,22.3538,23.1079,140.956,104.577,103.744,0.00834901,0.122288,20.9131,110.727,0.0721939,0.0,0.0
669,167,22.6496,22.8479,142.524,104.578,103.699,0.00865901,0.117205,20.9209,110.657,0.0762689,0.0,0.0
672,167.75,22.7883,22.702,141.198,104.586,103.674,0.00893955,0.110307,20.9272,110.637,0.0790916,0.0,0.0
675,168.5,22.2651,22.8176,137.122,104.585,103.789,0.00915847,0.104891,20.9323,110.627,0.0689547,0.0,0.0
678,169.25,21.9849,22.7632,138.316,104.594,103.811,0.00927037,0.100777,20.935,110.597,0.0679163,0.0,0.0
681,170,22.3467,23.1277,140.988,104.599,103.754,0.00939784,0.0973451,20.9385,110.537,0.0731902,0.0,0.0
684,170.75,22.825,22.5359,141.745,104.615,103.831,0.00948445,0.0947051,20.9413,110.497,0.0679815,0.0,0.0
687,171.5,22.3302,22.5346,141.176,104.622,103.883,0.00954755,0.0927217,20.9433,110.487,0.0640278,0.0,0.0
690,172.25,22.153,22.306,141.268,104.645,103.819,0.00959811,0.091777,20.9448,110.457,0.071519,0.0,0.0
693,173,22.2567,22.785,139.535,104.623,103.839,0.00963695,0.0907437,20.9459,110.457,0.0678661,0.0,0.0
696,173.75,21.848,21.9388,136.468,104.632,103.863,0.00966869,0.0900898,20.9461,110.397,0.0666599,0.0,0.0
699,174.5,22.1696,22.1469,139.741,104.633,103.791,0.00969182,0.0897313,20.9461,110.357,0.0729126,0.0,0.0
702,175.25,21.4294,22.3852,137.407,104.626,103.766,0.00969974,0.0894699,20.9461,110.327,0.0744969,0.0,0.0
705,176,22.0458,22.5455,143.835,104.638,103.972,0.0096992,0.089238,20.9457,110.257,0.0576149,0.0,0.0
708,176.75,21.7705,22.667,143.415,104.64,103.926,0.00969611,0.0890512,20.945,110.247,0.0617638,0.0,0.0
711,177.5,21.4614,21.9402,141.413,104.641,103.776,0.00969386,0.0889532,20.945,110.257,0.0749133,0.0,0.0
714,178.25,21.3901,22.3717,137.929,104.647,104.015,0.00970123,0.0889398,20.9446,110.217,0.0547427,0.0,0.0
717,179,21.8137,22.2347,138.332,104.658,103.897,0.0097104,0.0890295,20.9441,110.197,0.0659407,0.0,0.0
720,179.75,21.4933,21.922,140.752,104.656,103.954,0.00971936,0.0891343,20.9438,110.167,0.0606979,0.0,0.0
723,180.5,20.9851,22.0881,139.775,104.655,103.93,0.00972703,0.0891744,20.9441,110.167,0.0627452,0.0,0.0
726,181.25,21.7424,22.1453,140.292,104.648,103.811,0.00972065,0.0891414,20.9444,110.127,0.0724705,0.0,0.0
729,182,21.27,22.2123,146.037,104.661,103.958,0.00969554,0.0889598,20.9446,110.057,0.0608091,0.0,0.0
732,182.75,21.0883,22.3775,141.934,104.678,103.994,0.00963581,0.088717,20.9448,110.037,0.0592352,0.0,0.0
735,183.5,21.8232,22.3487,139.883,104.671,103.859,0.00957169,0.0884275,20.9451,110.027,0.0703048,0.0,0.0
738,184.25,21.4948,22.8214,144.22,104.672,103.741,0.00948975,0.0881047,20.9457,109.997,0.0806759,0.0,0.0
741,185,21.6861,22.1723,142.893,104.681,103.752,0.00938082,0.0877387,20.9462,109.977,0.0804988,0.0,0.0
744,185.75,21.3571,21.954,142.827,104.691,103.955,0.00925924,0.0872483,20.9468,109.937,0.0637136,0.0,0.0
747,186.5,20.8974,21.5885,140.292,104.703,103.657,0.00913437,0.0867139,20.9479,109.927,0.0907049,0.0,0.0
750,187.25,21.0416,21.8962,137.456,104.703,103.948,0.00898595,0.0862159,20.949,109.907,0.0653103,0.0,0.0
753,188,21.1775,21.4185,142.377,104.711,103.774,0.00887775,0.0856676,20.9501,109.877,0.0811315,0.0,0.0
756,188.75,21.1852,22.1654,140.689,104.713,103.861,0.00870576,0.0851499,20.9508,109.837,0.0737849,0.0,0.0
759,189.5,21.5875,21.9935,136.111,104.717,104.026,0.00853774,0.084745,20.9514,109.817,0.059772,0.0,0.0
762,190.25,20.9796,21.7629,143.353,104.713,103.816,0.00837533,0.0844381,20.9518,109.807,0.0777097,0.0,0.0
765,191,20.9759,22.1834,140.509,104.706,103.803,0.00821974,0.0841357,20.9521,109.767,0.0782358,0.0,0.0
768,191.75,21.1126,22.0914,140.9,104.732,103.974,0.00806877,0.0838138,20.9523,109.747,0.0656554,0.0,0.0
771,192.5,21.0263,22.3321,138.94,104.724,103.902,0.00793811,0.0834056,20.9524,109.727,0.0712126,0.0,0.0
774,193.25,21.4219,21.7719,137.883,104.724,103.796,0.00783498,0.0829704,20.9532,109.707,0.0804114,0.0,0.0
777,194,21.3401,21.6295,141.471,104.727,103.785,0.00776694,0.0825075,20.9537,109.677,0.0815336,0.0,0.0
780,194.75,21.3065,22.2122,140.216,104.73,103.905,0.00771733,0.0820214,20.9541,109.646,0.0714368,0.0,0.0
783,195.5,21.1793,21.896,140.372,104.739,104.031,0.00769993,0.0814607,20.9544,109.596,0.0612624,0.0,0.0
786,196.25,20.5347,21.6533,140.391,104.741,103.986,0.00769524,0.0809205,20.955,109.586,0.0653594,0.0,0.0
789,197,21.1071,22.0329,141.662,104.741,103.985,0.00766806,0.0804525,20.9556,109.546,0.0654812,0.0,0.0
792,197.75,21.1165,21.7105,142.859,104.74,103.966,0.00761773,0.080125,20.9557,109.526,0.067005,0.0,0.0
795,198.5,20.7272,21.5379,138.288,104.759,104.059,0.00754617,0.0798922,20.9558,109.506,0.0605621,0.0,0.0
798,199.25,20.9931,21.8872,136.684,104.742,103.922,0.00745406,0.0797224,20.9559,109.486,0.0709445,0.0,0.0
801,200,20.6104,21.8184,141.036,104.744,103.944,0.00735675,0.0794222,20.956,109.466,0.0692527,0.0,0.0
804,200.75,20.8412,21.696,141.7,104.738,103.904,0.00726336,0.0791071,20.956,109.436,0.0722516,0.0,0.0
807,201.5,21.0396,21.7062,140.535,104.741,103.831,0.00717216,0.0788147,20.9565,109.406,0.0787693,0.0,0.0
810,202.25,20.8329,21.8271,139.836,104.741,104.023,0.00710568,0.0785644,20.957,109.396,0.062061,0.0,0.0
813,203,20.5551,21.9495,141.014,104.727,104.035,0.00703977,0.078272,20.9577,109.346,0.059912,0.0,0.0
816,203.75,21.0027,21.6696,140.574,104.737,103.827,0.0069797,0.0779758,20.9585,109.336,0.0788462,0.0,0.0
819,204.5,20.6221,21.6543,143.058,104.751,103.94,0.00692805,0.0776981,20.9591,109.296,0.070198,0.0,0.0
822,205.25,21.0846,21.4544,143.79,104.742,103.818,0.00687297,0.0773857,20.9596,109.266,0.0800593,0.0,0.0
825,206,20.4102,21.7562,143.013,104.738,104.015,0.0068097,0.0771112,20.9599,109.236,0.0625774,0.0,0.0
828,206.75,20.4877,21.9397,143.015,104.728,103.868,0.00673675,0.0767152,20.9601,109.246,0.0744468,0.0,0.0
831,207.5,20.7787,21.4699,139.921,104.736,103.826,0.00663391,0.0763759,20.9606,109.226,0.0788141,0.0,0.0
834,208.25,20.7565,21.4463,138.079,104.74,103.974,0.0065192,0.0760421,20.961,109.196,0.0662335,0.0,0.0
837,209,20.8641,21.7492,143.997,104.741,103.884,0.00641862,0.0756469,20.9613,109.186,0.0742226,0.0,0.0
840,209.75,20.4206,21.3061,138.805,104.746,103.935,0.00629752,0.0752725,20.962,109.166,0.0701745,0.0,0.0
843,210.5,20.5009,21.5833,139.356,104.741,103.944,0.00619063,0.0749624,20.9627,109.146,0.0690348,0.0,0.0
846,211.25,20.9222,21.4845,140.965,104.748,104.046,0.00609825,0.0747364,20.9632,109.136,0.0606808,0.0,0.0
849,212,20.5116,21.5166,139.832,104.747,104.002,0.00601975,0.0744756,20.9635,109.096,0.064403,0.0,0.0
852,212.75,20.5324,21.5162,141.923,104.719,103.968,0.00595192,0.0742445,20.964,109.066,0.065057,0.0,0.0
855,213.5,20.6547,21.5308,137.712,104.726,104.034,0.00589334,0.0738413,20.9648,109.036,0.0598425,0.0,0.0
858,214.25,20.5233,21.7813,141.275,104.734,103.868,0.00583503,0.0734377,20.9659,109.016,0.0749517,0.0,0.0
861,215,20.9039,22.0327,144.696,104.733,103.974,0.00576073,0.0730318,20.9668,108.996,0.0656918,0.0,0.0
864,215.75,20.4844,21.3289,139.514,104.716,103.848,0.00570657,0.0726249,20.9674,108.966,0.0751481,0.0,0.0
867,216.5,20.1652,21.5555,138.161,104.722,103.923,0.00561581,0.0722186,20.9679,108.936,0.0691523,0.0,0.0
870,217.25,20.0836,21.5906,141.638,104.72,103.89,0.00556943,0.0718208,20.9685,108.916,0.0718298,0.0,0.0
873,218,20.7839,21.2872,139.089,104.705,103.883,0.00547881,0.0715075,20.9692,108.906,0.071172,0.0,0.0
876,218.75,20.8803,21.9411,136.905,104.692,103.916,0.00537046,0.0711228,20.97,108.886,0.0671813,0.0,0.0
879,219.5,20.2949,21.2016,138.135,104.698,103.787,0.00529147,0.0708424,20.9706,108.836,0.0789347,0.0,0.0
882,220.25,20.5632,21.7272,143.361,104.688,103.853,0.00519069,0.0704397,20.9712,108.826,0.072289,0.0,0.0
885,221,20.2345,21.5262,142.148,104.687,103.871,0.00508064,0.0699024,20.9716,108.826,0.0706262,0.0,0.0
888,221.75,20.4989,20.9963,139.626,104.672,103.803,0.00496935,0.0693876,20.972,108.806,0.0752026,0.0,0.0
891,222.5,20.6261,21.0688,136.945,104.679,103.887,0.0048601,0.0689546,20.9726,108.786,0.0685808,0.0,0.0
894,223.25,19.9632,21.3173,137.88,104.679,103.899,0.00478046,0.0685405,20.9733,108.766,0.0675189,0.0,0.0
897,224,20.0706,21.12,138.17,104.678,103.828,0.00471888,0.0681605,20.9738,108.726,0.0735863,0.0,0.0
900,224.75,20.3494,20.9363,141.402,104.666,103.981,0.00468139,0.0677878,20.9742,108.706,0.0592854,0.0,0.0
903,225.5,20.233,21.3323,142.758,104.651,103.857,0.00466434,0.0674752,20.9745,108.666,0.0687592,0.0,0.0
906,226.25,20.1133,20.9987,139.755,104.652,103.734,0.0046641,0.0670913,20.9753,108.646,0.0795034,0.0,0.0
909,227,20.6397,21.3507,138.054,104.643,103.767,0.00467133,0.0667323,20.9759,108.626,0.0759092,0.0,0.0
912,227.75,20.1673,20.8467,140.788,104.631,103.796,0.00467528,0.0663352,20.9762,108.576,0.0723157,0.0,0.0
915,228.5,20.6719,21.445,141.762,104.623,103.797,0.00467736,0.0658703,20.9771,108.546,0.0715468,0.0,0.0
918,229.25,20.1208,21.0064,140.133,104.618,103.875,0.00465778,0.065481,20.9778,108.536,0.0643538,0.0,0.0
921,230,19.7463,21.0931,140.342,104.61,103.688,0.00462666,0.0651111,20.9784,108.536,0.0799099,0.0,0.0
924,230.75,20.4536,21.3435,138.432,104.598,103.862,0.00457515,0.0648401,20.9787,108.526,0.0637884,0.0,0.0
927,231.5,19.7772,21.0132,140.411,104.588,103.73,0.00450075,0.064404,20.979,108.496,0.0744073,0.0,0.0
930,232.25,20.2973,20.772,140.778,104.597,103.851,0.0044084,0.0640337,20.9794,108.466,0.0646605,0.0,0.0
933,233,20.2063,20.7219,141.503,104.574,103.664,0.00430286,0.0635301,20.9801,108.476,0.0789304,0.0,0.0
936,233.75,20.2291,20.3975,140.864,104.576,103.759,0.00418834,0.0630839,20.9807,108.446,0.0708067,0.0,0.0
939,234.5,19.9012,20.4655,138.811,104.559,103.756,0.00405089,0.0626234,20.9813,108.416,0.0696746,0.0,0.0
942,235.25,20.0926,21.1374,139.859,104.557,103.691,0.00390769,0.0621905,20.9821,108.416,0.0751001,0.0,0.0
945,236,19.6626,20.4591,143.445,104.551,103.689,0.00376913,0.0616997,20.9827,108.375,0.0747574,0.0,0.0
948,236.75,20.2348,20.8414,139.75,104.537,103.626,0.00364429,0.0613418,20.9831,108.355,0.0790009,0.0,0.0
951,237.5,19.8731,20.7483,139.207,104.521,103.683,0.00351254,0.0608865,20.9835,108.325,0.0726947,0.0,0.0
954,238.25,20.0411,20.9632,141.989,104.532,103.673,0.00337813,0.0603794,20.9837,108.325,0.0745033,0.0,0.0
957,239,19.7611,21.5823,143.303,104.52,103.618,0.0032606,0.0599308,20.9841,108.295,0.0782016,0.0,0.0
960,239.75,20.0086,21.4627,141.596,104.505,103.877,0.00316402,0.0594688,20.9848,108.275,0.0543747,0.0,0.0
963,240.5,20.301,21.0001,140.237,104.498,103.656,0.00308921,0.0590603,20.9853,108.245,0.0730215,0.0,0.0
966,241.25,20.0458,20.9178,143.129,104.496,103.752,0.00303294,0.0586398,20.9857,108.255,0.064528,0.0,0.0
969,242,19.6662,20.5568,138.765,104.501,103.693,0.00299192,0.058275,20.9859,108.225,0.0700869,0.0,0.0
972,242.75,19.6538,20.8689,140.707,104.513,103.666,0.00293394,0.0579,20.986,108.205,0.0734795,0.0,0.0
975,243.5,20.0381,20.8996,140.811,104.485,103.63,0.0028797,0.057487,20.9859,108.195,0.0741425,0.0,0.0
978,244.25,19.3808,20.5962,140.943,104.488,103.644,0.00276364,0.0570265,20.9863,108.195,0.0732094,0.0,0.0
981,245,19.251,20.5544,139.221,104.495,103.582,0.00265276,0.056612,20.9867,108.205,0.0792762,0.0,0.0
984,245.75,19.8554,20.5805,140.288,104.497,103.744,0.002527,0.056175,20.9871,108.195,0.0652921,0.0,0.0
987,246.5,19.429,20.2666,141.707,104.487,103.799,0.00238502,0.0557067,20.9882,108.155,0.0596297,0.0,0.0
990,247.25,19.3952,20.4633,139.415,104.478,103.528,0.00226745,0.0553015,20.9894,108.165,0.0824158,0.0,0.0
993,248,19.1348,20.7689,137.424,104.479,103.58,0.00215768,0.0548291,20.9902,108.145,0.0780202,0.0,0.0
996,248.75,19.3447,20.8209,139.712,104.476,103.527,0.0020586,0.0543378,20.9909,108.135,0.0824339,0.0,0.0
999,249.5,19.4188,20.725,144.297,104.466,103.663,0.0019803,0.0538572,20.9913,108.095,0.0696319,0.0,0.0
1002,250.25,19.4221,20.6586,138.652,104.45,103.777,0.00192063,0.0533322,20.9917,108.015,0.0583379,0.0,0.0
1005,251,19.2479,20.2995,140.282,104.473,103.586,0.00186136,0.0528851,20.9921,108.005,0.0769349,0.0,0.0
1008,251.75,19.7573,20.5386,145.323,104.46,103.65,0.00180439,0.052449,20.9929,107.955,0.070308,0.0,0.0
1011,252.5,19.1322,20.4157,139.551,104.482,103.658,0.00175086,0.0520536,20.9934,107.965,0.0714753,0.0,0.0
1014,253.25,19.1584,20.4437,141.678,104.461,103.551,0.00168934,0.051643,20.9938,107.955,0.0789827,0.0,0.0
1017,254,19.4929,20.843,145.636,104.471,103.748,0.00163601,0.0512915,20.9941,107.955,0.0627377,0.0,0.0
1020,254.75,19.16,19.9128,141.564,104.484,103.698,0.00160621,0.0507833,20.9942,107.975,0.0682485,0.0,0.0
1023,255.5,19.5156,20.6837,140.755,104.476,103.629,0.00157525,0.0503584,20.9948,107.975,0.0735393,0.0,0.0
1026,256.25,19.1868,20.2034,138.57,104.474,103.712,0.00155874,0.0500256,20.9955,107.965,0.0661085,0.0,0.0
1029,257,19.4126,20.3686,141.305,104.484,103.655,0.00154674,0.0497248,20.996,107.955,0.0718981,0.0,0.0
1032,257.75,19.9543,20.6733,141.481,104.476,103.687,0.00153755,0.0495031,20.9963,107.945,0.0684974,0.0,0.0
1035,258.5,19.1845,20.7033,141.719,104.479,103.599,0.00152692,0.0492471,20.9965,107.925,0.0763393,0.0,0.0
1038,259.25,19.206,20.4291,137.425,104.47,103.854,0.00148298,0.0489829,20.9967,107.895,0.0533475,0.0,0.0
1041,260,19.5126,20.6957,136.485,104.472,103.659,0.00142431,0.0487114,20.9967,107.865,0.0705483,0.0,0.0
1044,260.75,19.1843,20.1462,141.41,104.471,103.79,0.00135999,0.0486008,20.9966,107.865,0.0590598,0.0,0.0
1047,261.5,19.1733,20.2417,138.538,104.466,103.781,0.00129567,0.0483908,20.9965,107.865,0.0593581,0.0,0.0
1050,262.25,19.0132,20.8475,137.758,104.465,103.9,0.0012367,0.0481813,20.9965,107.865,0.0490181,0.0,0.0
1053,263,19.1051,20.334,140.728,104.472,103.601,0.00118041,0.0479918,20.9964,107.865,0.0756285,0.0,0.0
1056,263.75,19.0961,20.1446,140.237,104.476,103.772,0.0011337,0.047815,20.9964,107.845,0.0610155,0.0,0.0
1059,264.5,19.3189,20.2173,140.202,104.464,103.667,0.00107427,0.0476318,20.9964,107.845,0.0691213,0.0,0.0
1062,265.25,19.2534,20.3081,140.22,104.458,103.667,0.00102012,0.0474608,20.9963,107.815,0.0686513,0.0,0.0
1065,266,19.1989,20.6738,144.815,104.453,103.592,0.000963481,0.0473117,20.9963,107.805,0.0746859,0.0,0.0
1068,266.75,19.3503,20.3352,139.282,104.459,103.631,0.000892841,0.0472102,20.9982,107.785,0.0718747,0.0,0.0
1071,267.5,18.9282,20.4064,140.589,104.454,103.503,0.000805143,0.0471484,20.9992,107.735,0.0826227,0.0,0.0
1074,268.25,19.4012,20.3147,141.089,104.467,103.64,0.000709281,0.0470605,20.9997,107.745,0.0717529,0.0,0.0
1077,269,19.8841,20.5334,141.046,104.455,103.723,0.000611189,0.0469231,21.0007,107.715,0.0635191,0.0,0.0
1080,269.75,19.0261,20.3889,140.926,104.472,103.596,0.000485964,0.0468093,21.0016,107.695,0.0760426,0.0,0.0
1083,270.5,19.2133,20.6533,141.884,104.466,103.593,0.000425814,0.0467207,21.0019,107.675,0.0757726,0.0,0.0
1086,271.25,19.5017,20.4894,146.279,104.471,103.488,0.000356323,0.046656,21.0025,107.665,0.0853634,0.0,0.0
1089,272,19.3121,20.1726,139.455,104.464,103.742,0.000309276,0.0466021,21.003,107.675,0.0626083,0.0,0.0
1092,272.75,19.4207,20.2584,141.134,104.49,103.849,0.000281588,0.0465305,21.0033,107.645,0.0556286,0.0,0.0
1095,273.5,19.3081,20.1626,140.612,104.478,103.626,0.000270074,0.0464949,21.0036,107.635,0.0739311,0.0,0.0
1098,274.25,18.8338,20.0952,140.926,104.482,103.461,0.000271987,0.0464609,21.0037,107.655,0.0886469,0.0,0.0
1101,275,19.2713,20.4413,141.125,104.481,103.566,0.000268564,0.0464483,21.0039,107.605,0.0793914,0.0,0.0
1104,275.75,19.3603,19.8202,140.118,104.478,103.646,,0.0464005,,107.565,0.0722473,0.0,0.0
1107,276.5,19.2456,20.0288,142.44,104.488,103.67,,0.046352,,107.535,0.0709167,0.0,0.0
1110,277.25,19.1751,20.2875,143.055,104.48,103.783,,0.0462966,,107.535,0.0603996,0.0,0.0
1113,278,18.9829,20.0879,141.273,104.474,103.673,,0.0462318,,107.505,0.0695069,0.0,0.0
1116,278.75,18.8237,20.1777,142.739,104.468,103.567,,,,107.485,0.0782187,0.0,0.0
1119,279.5,19.1329,20.3136,140.162,104.488,103.502,,,,107.515,0.0856257,0.0,0.0
1122,280.25,19.5275,20.3954,142.068,104.481,103.661,,,,107.515,0.071156,0.0,0.0
1125,281,19.6971,19.8777,141.719,104.47,103.676,,,,107.515,0.0688906,0.0,0.0
1128,281.75,19.0183,20.0762,141.039,104.452,103.669,,,,107.525,0.0680124,0.0,0.0
1131,282.5,19.4691,20.1581,142.067,104.465,103.647,,,,107.505,0.0709926,0.0,0.0
1134,283.25,18.9196,19.9412,139.2,104.463,103.678,,,,107.495,0.0680701,0.0,0.0
1137,284,19.4506,20.2624,142.39,104.461,103.655,,,,107.505,0.0699256,0.0,0.0
1140,284.75,19.3107,20.3274,143.557,104.447,103.603,,,,107.495,0.0732734,0.0,0.0
1143,285.5,19.3267,20.169,140.565,104.447,103.766,,,,107.455,0.0591004,0.0,0.0
1145,286,19.3523,20.4008,141.76,104.452,103.638,,,,107.445,0.0705974,0.0,0.0