File: 01_Data/R13_Fiberglass_Insulation/MCC/R13_Fiberglass_Insulation1_MCC_30K_min_220125_R3.txt
Sample ID:	C:\MCC\MCC Cal\Test\Fiberglas_Inaulation1_MCC_30K_min_220125_R3.txt
Sample Weight (mg):	4.84
Heating Rate (C/s):	0.5
Combustor Temp (C):	900
N2 Flow Rate (cc/min):	80
O2 Flow Rate (cc/min):	20
Calibration File:	C:\MCC\MCC Cal\Coeff1 JN10440_30_210304.txt.txt
T Correction Coefficients:	0	1.024463	0
Time Shift (s):	14
*
Time (s)	Temperature (C)	N2 flow rate (cc/min)	O2 flow rate (cc/min)	Flow Rate (cc/min)	Oxygen (%)	HRR (W/g)	Heating rate (C/s)
0.000	113.114	80.007	19.993	103.766	20.014	-0.134	0.000
2.000	113.147	80.007	19.994	103.775	20.013	-0.068	0.030
4.000	113.174	80.006	19.993	103.801	20.012	-0.039	-0.002
6.000	113.159	80.006	19.994	103.797	20.017	-0.342	0.006
8.000	113.137	80.008	19.993	103.786	20.018	-0.423	-0.014
9.999	113.166	80.006	19.993	103.771	20.015	-0.202	0.003
11.999	113.147	80.007	19.994	103.798	20.019	-0.469	-0.010
13.999	113.164	80.008	19.994	103.829	20.018	-0.412	0.006
15.999	113.156	80.006	19.993	103.821	20.016	-0.285	-0.018
17.999	113.176	80.008	19.993	103.819	20.012	-0.009	0.004
20.000	113.253	80.008	19.993	103.855	20.006	0.384	0.041
21.999	113.268	80.009	19.992	103.863	20.001	0.728	0.036
23.999	113.360	80.009	19.993	103.908	19.997	0.960	0.043
25.999	113.437	80.008	19.993	103.875	19.995	1.118	0.059
27.999	113.635	80.007	19.992	103.995	19.987	1.634	0.094
29.999	113.797	80.009	19.993	103.986	19.985	1.761	0.119
31.999	114.000	80.007	19.993	103.967	19.986	1.715	0.110
33.999	114.256	80.008	19.993	103.972	19.984	1.818	0.134
35.999	114.509	80.007	19.994	103.959	19.984	1.827	0.149
37.999	114.822	80.007	19.993	103.988	19.986	1.740	0.130
39.999	115.169	80.008	19.993	103.993	19.987	1.626	0.181
41.999	115.486	80.008	19.994	103.984	19.982	1.972	0.179
43.999	115.842	80.009	19.994	103.985	19.984	1.873	0.155
45.999	116.257	80.009	19.994	103.990	19.985	1.768	0.195
47.999	116.693	80.008	19.993	103.988	19.983	1.919	0.237
49.999	117.141	80.010	19.995	103.988	19.981	2.022	0.217
51.999	117.584	80.009	19.993	103.989	19.981	2.059	0.276
53.999	118.087	80.007	19.993	103.990	19.982	2.002	0.258
56.000	118.603	80.007	19.993	103.997	19.978	2.216	0.229
58.000	119.183	80.006	19.994	103.997	19.974	2.511	0.263
59.999	119.685	80.007	19.994	103.994	19.976	2.401	0.272
61.999	120.286	80.005	19.993	103.990	19.980	2.100	0.264
64.000	120.870	80.006	19.995	104.000	19.978	2.215	0.269
66.000	121.516	80.006	19.994	104.022	19.984	1.843	0.307
67.999	122.145	80.006	19.995	104.029	19.985	1.765	0.326
69.999	122.794	80.007	19.995	104.060	19.984	1.857	0.309
71.999	123.424	80.005	19.995	104.055	19.985	1.798	0.321
73.999	124.132	80.008	19.993	104.008	19.984	1.853	0.352
75.999	124.822	80.008	19.993	103.996	19.978	2.251	0.373
77.999	125.536	80.007	19.994	104.001	19.979	2.212	0.381
80.000	126.279	80.008	19.994	104.027	19.980	2.124	0.375
81.999	127.006	80.007	19.993	104.025	19.978	2.267	0.400
83.999	127.765	80.007	19.993	104.024	19.980	2.140	0.389
85.999	128.506	80.008	19.993	104.023	19.978	2.267	0.388
87.999	129.341	80.007	19.993	104.034	19.981	2.021	0.425
89.999	130.099	80.008	19.993	104.032	19.980	2.096	0.386
91.999	130.907	80.007	19.993	104.013	19.980	2.087	0.390
93.999	131.728	80.008	19.993	104.014	19.983	1.908	0.407
95.999	132.521	80.008	19.993	104.006	19.983	1.945	0.410
98.000	133.373	80.007	19.994	104.015	19.981	2.017	0.427
99.999	134.223	80.008	19.994	104.021	19.982	1.971	0.420
101.999	135.103	80.009	19.994	104.028	19.984	1.854	0.439
104.000	135.981	80.009	19.995	104.037	19.986	1.739	0.438
105.999	136.874	80.010	19.992	104.022	19.985	1.763	0.451
108.000	137.748	80.009	19.993	104.023	19.984	1.851	0.421
109.999	138.634	80.009	19.993	104.024	19.984	1.838	0.490
111.999	139.577	80.009	19.994	104.004	19.983	1.892	0.476
113.999	140.433	80.009	19.992	103.994	19.984	1.815	0.450
115.999	141.338	80.009	19.993	104.008	19.983	1.936	0.459
117.999	142.285	80.008	19.993	104.016	19.988	1.584	0.449
119.999	143.229	80.009	19.993	104.023	19.988	1.596	0.482
121.999	144.097	80.008	19.993	104.018	19.988	1.568	0.477
123.999	145.024	80.010	19.994	104.021	19.988	1.546	0.448
125.999	145.965	80.009	19.992	104.016	19.988	1.586	0.470
127.999	146.886	80.010	19.993	104.008	19.990	1.474	0.461
130.000	147.838	80.007	19.993	104.019	19.988	1.558	0.482
132.000	148.836	80.009	19.993	104.016	19.989	1.492	0.525
134.000	149.776	80.010	19.994	104.012	19.990	1.452	0.482
136.000	150.734	80.008	19.994	104.014	19.992	1.295	0.458
138.000	151.715	80.008	19.993	104.010	19.988	1.610	0.485
140.000	152.646	80.006	19.993	103.996	19.992	1.323	0.483
142.000	153.635	80.007	19.994	103.998	19.991	1.391	0.504
144.000	154.595	80.006	19.994	103.994	19.993	1.266	0.485
146.000	155.552	80.006	19.994	104.019	19.993	1.240	0.493
148.000	156.582	80.006	19.994	103.995	19.993	1.269	0.517
150.000	157.507	80.007	19.995	103.984	19.997	1.004	0.496
152.000	158.485	80.007	19.995	103.987	19.997	0.942	0.485
154.000	159.461	80.007	19.995	103.992	19.997	0.960	0.463
156.000	160.441	80.007	19.996	103.989	19.997	1.006	0.490
158.000	161.437	80.008	19.995	103.985	19.998	0.933	0.494
160.000	162.409	80.007	19.995	103.982	20.000	0.771	0.479
162.000	163.363	80.007	19.994	103.981	19.998	0.931	0.493
164.000	164.365	80.007	19.995	103.978	20.002	0.644	0.510
166.000	165.339	80.007	19.996	103.984	20.004	0.488	0.477
168.000	166.370	80.007	19.994	103.993	20.001	0.686	0.530
170.000	167.289	80.007	19.994	103.982	19.999	0.824	0.481
172.000	168.283	80.007	19.994	103.984	19.999	0.870	0.492
174.000	169.252	80.006	19.994	103.986	20.000	0.780	0.501
176.000	170.204	80.006	19.994	103.987	20.000	0.798	0.481
178.000	171.243	80.006	19.992	103.982	20.002	0.657	0.511
180.000	172.221	80.008	19.993	103.986	20.000	0.752	0.515
182.000	173.166	80.008	19.993	103.985	20.003	0.585	0.506
184.000	174.143	80.009	19.994	103.987	20.004	0.475	0.472
186.000	175.115	80.008	19.994	103.985	20.004	0.535	0.483
188.000	176.089	80.008	19.993	103.979	20.004	0.478	0.525
190.000	177.039	80.010	19.993	103.976	20.008	0.250	0.470
192.000	178.033	80.008	19.993	103.976	20.003	0.552	0.491
194.000	178.966	80.007	19.994	103.973	20.006	0.350	0.465
196.000	180.008	80.009	19.993	103.988	20.006	0.366	0.492
198.000	180.961	80.009	19.994	103.982	20.009	0.195	0.479
200.000	181.964	80.009	19.993	103.961	20.014	-0.177	0.519
202.000	182.891	80.010	19.993	103.968	20.014	-0.132	0.456
204.000	183.919	80.009	19.993	103.981	20.011	0.042	0.494
206.000	184.918	80.010	19.992	103.976	20.012	-0.055	0.527
208.000	185.906	80.011	19.993	103.962	20.011	0.053	0.502
210.000	186.962	80.012	19.993	103.953	20.012	-0.024	0.523
212.000	187.921	80.011	19.992	103.949	20.013	-0.074	0.488
214.000	188.899	80.010	19.995	103.968	20.011	0.006	0.495
216.000	189.875	80.010	19.993	103.964	20.014	-0.140	0.481
218.000	190.890	80.008	19.994	103.964	20.011	0.037	0.489
220.000	191.824	80.007	19.993	103.974	20.012	-0.055	0.469
222.000	192.794	80.007	19.994	103.976	20.011	0.024	0.474
224.000	193.797	80.007	19.995	103.951	20.011	0.042	0.480
226.000	194.826	80.008	19.995	103.950	20.011	0.037	0.498
228.000	195.765	80.008	19.994	103.947	20.012	-0.055	0.489
230.000	196.689	80.008	19.995	103.946	20.012	-0.040	0.433
232.000	197.697	80.008	19.994	103.947	20.012	-0.039	0.494
234.000	198.726	80.008	19.994	103.944	20.016	-0.289	0.499
236.000	199.706	80.008	19.994	103.943	20.010	0.094	0.503
238.000	200.677	80.008	19.994	103.947	20.011	0.059	0.468
240.000	201.667	80.009	19.993	103.951	20.011	0.029	0.482
242.000	202.676	80.008	19.994	103.955	20.016	-0.269	0.483
244.000	203.644	80.007	19.994	103.955	20.018	-0.416	0.498
246.000	204.594	80.007	19.995	103.956	20.018	-0.417	0.477
248.000	205.613	80.006	19.995	103.952	20.017	-0.362	0.506
250.000	206.614	80.006	19.994	103.950	20.020	-0.568	0.502
252.000	207.637	80.006	19.995	103.953	20.019	-0.497	0.542
254.000	208.668	80.007	19.995	103.949	20.018	-0.403	0.503
256.000	209.633	80.006	19.994	103.951	20.020	-0.552	0.463
258.000	210.606	80.006	19.994	103.948	20.018	-0.434	0.470
260.000	211.694	80.007	19.995	103.953	20.015	-0.215	0.555
262.000	212.655	80.008	19.994	103.955	20.021	-0.609	0.512
264.000	213.628	80.009	19.994	103.951	20.020	-0.594	0.491
266.000	214.646	80.009	19.993	103.947	20.017	-0.390	0.480
268.000	215.675	80.009	19.994	103.946	20.021	-0.640	0.530
270.000	216.687	80.008	19.992	103.946	20.023	-0.754	0.523
272.000	217.667	80.009	19.994	103.947	20.022	-0.679	0.498
274.000	218.650	80.008	19.993	103.945	20.023	-0.798	0.494
276.000	219.680	80.008	19.992	103.946	20.021	-0.634	0.516
278.000	220.669	80.008	19.993	103.945	20.022	-0.730	0.509
280.000	221.693	80.008	19.993	103.943	20.024	-0.837	0.482
282.000	222.734	80.008	19.993	103.942	20.025	-0.914	0.542
284.000	223.732	80.007	19.995	103.942	20.022	-0.726	0.500
286.000	224.739	80.009	19.994	103.945	20.024	-0.844	0.506
288.000	225.752	80.009	19.993	103.944	20.027	-1.055	0.477
290.000	226.780	80.010	19.993	103.944	20.025	-0.888	0.512
292.000	227.786	80.009	19.994	103.945	20.028	-1.089	0.501
294.000	228.827	80.009	19.993	103.941	20.028	-1.098	0.534
296.000	229.871	80.011	19.992	103.940	20.029	-1.138	0.527
298.000	230.878	80.008	19.994	103.939	20.028	-1.094	0.511
300.000	231.867	80.007	19.993	103.934	20.028	-1.105	0.503
302.000	232.882	80.007	19.994	103.936	20.028	-1.094	0.484
304.000	233.867	80.007	19.994	103.933	20.028	-1.124	0.499
306.000	234.869	80.006	19.993	103.934	20.026	-0.941	0.523
308.000	235.887	80.008	19.994	103.936	20.026	-0.974	0.526
310.000	236.894	80.007	19.994	103.919	20.027	-1.026	0.514
312.000	237.913	80.007	19.994	103.922	20.026	-0.938	0.486
314.000	238.910	80.006	19.994	103.932	20.026	-0.949	0.463
316.000	239.900	80.006	19.993	103.924	20.024	-0.850	0.491
318.000	240.925	80.007	19.994	103.925	20.025	-0.894	0.535
320.000	241.930	80.007	19.994	103.930	20.027	-1.065	0.523
322.000	242.916	80.008	19.994	103.947	20.027	-1.015	0.500
324.000	243.918	80.007	19.994	103.950	20.027	-1.048	0.468
326.000	244.941	80.006	19.993	103.944	20.029	-1.173	0.514
328.000	245.924	80.008	19.994	103.933	20.030	-1.230	0.513
330.000	246.984	80.007	19.994	103.925	20.028	-1.103	0.544
332.000	247.957	80.006	19.995	103.930	20.029	-1.175	0.495
334.000	248.995	80.007	19.994	103.940	20.028	-1.101	0.534
336.000	250.033	80.008	19.994	103.937	20.028	-1.070	0.543
338.000	251.059	80.007	19.994	103.939	20.029	-1.140	0.504
340.000	252.052	80.007	19.995	103.925	20.029	-1.166	0.477
342.000	253.100	80.008	19.996	103.911	20.027	-1.066	0.494
344.000	254.105	80.007	19.996	103.918	20.026	-0.958	0.508
346.000	255.119	80.008	19.994	103.935	20.027	-1.039	0.539
348.000	256.139	80.008	19.996	103.918	20.029	-1.142	0.508
350.000	257.143	80.008	19.994	103.916	20.028	-1.123	0.520
352.000	258.120	80.009	19.994	103.916	20.028	-1.101	0.511
354.000	259.139	80.009	19.994	103.923	20.030	-1.225	0.513
356.000	260.177	80.009	19.994	103.924	20.029	-1.171	0.539
358.000	261.147	80.008	19.994	103.928	20.027	-1.013	0.490
360.000	262.164	80.008	19.994	103.916	20.028	-1.092	0.488
362.000	263.174	80.008	19.994	103.917	20.032	-1.371	0.475
364.000	264.163	80.009	19.993	103.932	20.025	-0.877	0.484
366.000	265.227	80.009	19.993	103.919	20.032	-1.377	0.530
368.000	266.204	80.009	19.993	103.919	20.031	-1.281	0.484
370.000	267.203	80.010	19.993	103.924	20.030	-1.234	0.494
372.000	268.233	80.009	19.992	103.916	20.029	-1.178	0.493
374.000	269.240	80.009	19.994	103.912	20.031	-1.274	0.509
376.000	270.275	80.009	19.992	103.909	20.028	-1.127	0.522
378.000	271.336	80.008	19.992	103.908	20.031	-1.327	0.503
380.000	272.355	80.006	19.993	103.911	20.029	-1.140	0.561
382.000	273.379	80.007	19.993	103.912	20.033	-1.412	0.517
384.000	274.374	80.007	19.993	103.915	20.031	-1.278	0.493
386.000	275.393	80.006	19.993	103.912	20.030	-1.206	0.506
388.000	276.408	80.006	19.993	103.915	20.028	-1.129	0.496
390.000	277.393	80.008	19.994	103.919	20.031	-1.294	0.506
392.000	278.417	80.007	19.993	103.912	20.031	-1.283	0.516
394.000	279.444	80.007	19.994	103.910	20.032	-1.371	0.504
396.000	280.461	80.007	19.994	103.910	20.030	-1.257	0.483
398.000	281.462	80.008	19.994	103.907	20.032	-1.390	0.484
400.000	282.446	80.008	19.993	103.909	20.034	-1.504	0.486
402.000	283.480	80.008	19.994	103.893	20.034	-1.482	0.506
404.000	284.499	80.007	19.997	103.906	20.032	-1.386	0.513
406.000	285.472	80.007	19.994	103.907	20.036	-1.627	0.502
408.000	286.485	80.007	19.995	103.905	20.031	-1.303	0.483
410.000	287.518	80.006	19.995	103.906	20.034	-1.535	0.529
412.000	288.498	80.008	19.994	103.900	20.035	-1.596	0.469
414.000	289.500	80.008	19.994	103.902	20.035	-1.570	0.526
416.000	290.511	80.008	19.995	103.907	20.033	-1.447	0.492
418.000	291.533	80.007	19.995	103.906	20.033	-1.412	0.511
420.000	292.541	80.008	19.995	103.905	20.036	-1.640	0.519
422.000	293.538	80.009	19.993	103.908	20.035	-1.585	0.503
424.000	294.511	80.008	19.993	103.908	20.034	-1.535	0.516
426.000	295.513	80.010	19.994	103.907	20.034	-1.472	0.497
428.000	296.487	80.008	19.995	103.908	20.035	-1.564	0.484
430.000	297.485	80.008	19.995	103.912	20.037	-1.706	0.491
432.000	298.496	80.008	19.995	103.910	20.041	-1.974	0.492
434.000	299.518	80.007	19.994	103.894	20.039	-1.807	0.553
436.000	300.447	80.007	19.996	103.876	20.041	-1.994	0.467
438.000	301.458	80.006	19.996	103.880	20.041	-2.002	0.489
440.000	302.429	80.007	19.995	103.900	20.040	-1.923	0.489
442.000	303.470	80.009	19.994	103.897	20.041	-1.965	0.513
444.000	304.463	80.008	19.994	103.900	20.043	-2.116	0.519
446.000	305.448	80.008	19.994	103.891	20.043	-2.075	0.502
448.000	306.462	80.009	19.993	103.903	20.043	-2.099	0.491
450.000	307.504	80.009	19.993	103.905	20.042	-2.018	0.512
452.000	308.501	80.009	19.993	103.885	20.045	-2.215	0.525
454.000	309.473	80.010	19.994	103.901	20.042	-2.057	0.490
456.000	310.422	80.009	19.993	103.907	20.041	-1.991	0.461
458.000	311.488	80.009	19.993	103.898	20.044	-2.141	0.504
460.000	312.475	80.007	19.994	103.897	20.042	-2.062	0.523
462.000	313.527	80.006	19.994	103.897	20.041	-1.982	0.510
464.000	314.493	80.007	19.996	103.892	20.043	-2.090	0.471
466.000	315.507	80.007	19.993	103.901	20.043	-2.101	0.484
468.000	316.521	80.007	19.994	103.899	20.045	-2.229	0.514
470.000	317.497	80.007	19.994	103.904	20.047	-2.366	0.506
472.000	318.488	80.007	19.994	103.901	20.043	-2.117	0.472
474.000	319.472	80.007	19.993	103.906	20.050	-2.580	0.466
476.000	320.508	80.007	19.995	103.891	20.045	-2.272	0.521
478.000	321.488	80.006	19.994	103.878	20.046	-2.308	0.504
480.000	322.464	80.008	19.993	103.890	20.045	-2.230	0.491
482.000	323.497	80.008	19.993	103.895	20.046	-2.298	0.513
484.000	324.469	80.008	19.993	103.880	20.046	-2.309	0.481
486.000	325.477	80.008	19.994	103.891	20.051	-2.658	0.492
488.000	326.467	80.008	19.993	103.888	20.049	-2.494	0.527
490.000	327.428	80.006	19.993	103.892	20.050	-2.597	0.495
492.000	328.424	80.008	19.994	103.903	20.048	-2.456	0.487
494.000	329.463	80.005	19.993	103.906	20.050	-2.582	0.499
496.000	330.477	80.006	19.994	103.879	20.048	-2.454	0.509
498.000	331.508	80.006	19.994	103.888	20.049	-2.507	0.507
500.000	332.546	80.007	19.994	103.884	20.049	-2.485	0.539
502.000	333.574	80.008	19.994	103.907	20.050	-2.570	0.541
504.000	334.612	80.008	19.994	103.903	20.052	-2.735	0.512
506.000	335.607	80.010	19.994	103.896	20.051	-2.643	0.493
508.000	336.637	80.008	19.995	103.901	20.052	-2.729	0.505
510.000	337.671	80.009	19.994	103.899	20.051	-2.654	0.499
512.000	338.713	80.008	19.994	103.898	20.050	-2.570	0.514
514.000	339.744	80.009	19.994	103.896	20.050	-2.553	0.509
516.000	340.793	80.008	19.994	103.898	20.049	-2.527	0.523
518.000	341.817	80.006	19.993	103.892	20.051	-2.654	0.529
520.000	342.814	80.009	19.994	103.895	20.052	-2.726	0.485
522.000	343.873	80.007	19.994	103.895	20.054	-2.871	0.515
524.000	344.865	80.007	19.997	103.905	20.054	-2.814	0.494
526.000	345.910	80.008	19.996	103.890	20.057	-3.073	0.504
528.000	346.923	80.008	19.995	103.898	20.054	-2.839	0.490
530.000	347.992	80.009	19.995	103.906	20.055	-2.939	0.529
532.000	349.007	80.010	19.994	103.900	20.057	-3.027	0.513
534.000	350.096	80.009	19.993	103.886	20.056	-3.003	0.499
536.000	351.106	80.008	19.995	103.890	20.059	-3.209	0.491
538.000	352.149	80.009	19.995	103.872	20.061	-3.300	0.541
540.000	353.169	80.007	19.994	103.874	20.058	-3.137	0.508
542.000	354.228	80.008	19.994	103.880	20.055	-2.913	0.535
544.000	355.214	80.007	19.994	103.886	20.055	-2.933	0.497
546.000	356.240	80.006	19.994	103.876	20.061	-3.288	0.504
548.000	357.230	80.007	19.994	103.873	20.056	-3.001	0.477
550.000	358.299	80.007	19.994	103.873	20.057	-3.043	0.551
552.000	359.323	80.008	19.993	103.872	20.060	-3.222	0.506
554.000	360.335	80.006	19.994	103.884	20.059	-3.174	0.493
556.000	361.370	80.006	19.993	103.884	20.059	-3.157	0.524
558.000	362.416	80.008	19.994	103.876	20.059	-3.168	0.500
560.000	363.426	80.006	19.993	103.873	20.060	-3.220	0.487
562.000	364.409	80.008	19.994	103.878	20.060	-3.255	0.485
564.000	365.427	80.005	19.994	103.875	20.062	-3.406	0.527
566.000	366.484	80.008	19.993	103.880	20.061	-3.291	0.534
568.000	367.448	80.008	19.994	103.878	20.060	-3.229	0.488
570.000	368.429	80.006	19.994	103.885	20.061	-3.332	0.486
572.000	369.488	80.007	19.994	103.875	20.063	-3.418	0.493
574.000	370.465	80.006	19.993	103.892	20.061	-3.332	0.504
576.000	371.486	80.006	19.994	103.878	20.060	-3.212	0.488
578.000	372.535	80.007	19.993	103.875	20.062	-3.356	0.532
580.000	373.559	80.007	19.994	103.881	20.059	-3.194	0.504
582.000	374.536	80.007	19.995	103.877	20.062	-3.372	0.493
584.000	375.564	80.008	19.994	103.874	20.060	-3.269	0.511
586.000	376.565	80.009	19.994	103.876	20.060	-3.271	0.519
588.000	377.601	80.009	19.994	103.870	20.061	-3.295	0.526
590.000	378.599	80.008	19.994	103.871	20.063	-3.468	0.507
592.000	379.622	80.010	19.994	103.868	20.061	-3.297	0.501
594.000	380.650	80.008	19.994	103.868	20.064	-3.519	0.531
596.000	381.622	80.007	19.996	103.872	20.063	-3.464	0.486
598.000	382.659	80.008	19.994	103.875	20.062	-3.385	0.488
600.000	383.627	80.007	19.994	103.872	20.063	-3.478	0.491
602.000	384.672	80.008	19.994	103.869	20.066	-3.647	0.547
604.000	385.684	80.007	19.995	103.870	20.065	-3.580	0.491
606.000	386.650	80.008	19.995	103.868	20.065	-3.583	0.491
608.000	387.700	80.008	19.994	103.868	20.064	-3.528	0.519
610.000	388.690	80.009	19.993	103.866	20.065	-3.563	0.507
612.000	389.682	80.010	19.994	103.864	20.064	-3.497	0.491
614.000	390.658	80.009	19.994	103.861	20.062	-3.403	0.516
616.000	391.680	80.009	19.995	103.866	20.062	-3.357	0.507
618.000	392.715	80.009	19.993	103.865	20.065	-3.554	0.520
620.000	393.729	80.008	19.995	103.861	20.065	-3.554	0.511
622.000	394.721	80.006	19.994	103.859	20.064	-3.544	0.480
624.000	395.727	80.006	19.995	103.852	20.067	-3.726	0.516
626.000	396.698	80.005	19.995	103.856	20.067	-3.733	0.510
628.000	397.703	80.005	19.995	103.857	20.068	-3.772	0.479
630.000	398.695	80.005	19.994	103.870	20.068	-3.763	0.523
632.000	399.652	80.006	19.994	103.874	20.067	-3.721	0.506
634.000	400.601	80.006	19.996	103.843	20.066	-3.677	0.468
636.000	401.589	80.005	19.994	103.848	20.069	-3.881	0.469
638.000	402.538	80.005	19.994	103.850	20.067	-3.682	0.487
640.000	403.527	80.005	19.994	103.859	20.070	-3.904	0.543
642.000	404.467	80.006	19.994	103.873	20.070	-3.914	0.481
644.000	405.381	80.005	19.996	103.865	20.073	-4.117	0.470
646.000	406.336	80.007	19.994	103.866	20.070	-3.906	0.476
648.000	407.287	80.005	19.994	103.855	20.070	-3.929	0.492
650.000	408.198	80.006	19.994	103.844	20.071	-4.007	0.457
652.000	409.122	80.008	19.995	103.848	20.075	-4.220	0.436
654.000	410.117	80.007	19.994	103.855	20.070	-3.914	0.465
656.000	411.055	80.006	19.994	103.850	20.069	-3.817	0.450
658.000	411.999	80.006	19.994	103.844	20.070	-3.905	0.444
660.000	412.935	80.007	19.993	103.835	20.067	-3.708	0.449
662.000	413.856	80.006	19.993	103.837	20.068	-3.779	0.463
664.000	414.786	80.008	19.994	103.851	20.069	-3.843	0.451
666.000	415.745	80.009	19.994	103.864	20.069	-3.864	0.482
668.000	416.648	80.010	19.994	103.868	20.072	-4.029	0.488
670.000	417.601	80.009	19.994	103.864	20.074	-4.215	0.484
672.000	418.590	80.010	19.994	103.849	20.071	-3.985	0.478
674.000	419.492	80.009	19.994	103.848	20.072	-4.059	0.486
676.000	420.420	80.009	19.994	103.849	20.071	-3.963	0.479
678.000	421.370	80.009	19.994	103.850	20.071	-3.994	0.473
680.000	422.333	80.008	19.995	103.859	20.073	-4.119	0.463
682.000	423.310	80.008	19.994	103.850	20.073	-4.119	0.475
684.000	424.269	80.008	19.994	103.853	20.069	-3.853	0.487
686.000	425.222	80.008	19.994	103.862	20.072	-4.038	0.516
688.000	426.191	80.008	19.994	103.853	20.068	-3.805	0.493
690.000	427.146	80.008	19.995	103.845	20.073	-4.140	0.487
692.000	428.130	80.009	19.994	103.849	20.071	-3.951	0.482
694.000	429.076	80.009	19.994	103.849	20.073	-4.109	0.469
696.000	430.051	80.009	19.993	103.854	20.072	-4.030	0.473
698.000	431.025	80.008	19.993	103.841	20.071	-4.013	0.483
700.000	431.987	80.007	19.995	103.849	20.073	-4.094	0.504
702.000	432.977	80.006	19.994	103.861	20.072	-4.048	0.460
704.000	433.964	80.006	19.996	103.864	20.075	-4.228	0.515
706.000	434.960	80.006	19.994	103.867	20.074	-4.197	0.509
708.000	435.949	80.006	19.994	103.854	20.075	-4.223	0.505
710.000	436.923	80.006	19.995	103.863	20.076	-4.292	0.479
712.000	437.917	80.006	19.994	103.863	20.074	-4.200	0.468
714.000	438.890	80.006	19.995	103.860	20.075	-4.277	0.482
716.000	439.902	80.006	19.994	103.862	20.073	-4.127	0.494
718.000	440.917	80.007	19.995	103.863	20.071	-4.013	0.534
720.000	441.923	80.007	19.995	103.852	20.073	-4.083	0.480
722.000	442.929	80.007	19.995	103.846	20.072	-4.059	0.527
724.000	443.961	80.008	19.995	103.855	20.074	-4.191	0.475
726.000	445.015	80.008	19.993	103.858	20.073	-4.127	0.505
728.000	446.018	80.007	19.994	103.855	20.073	-4.090	0.519
730.000	447.074	80.008	19.994	103.865	20.073	-4.116	0.536
732.000	448.092	80.008	19.994	103.868	20.073	-4.110	0.521
734.000	449.101	80.007	19.993	103.857	20.077	-4.413	0.525
736.000	450.166	80.007	19.995	103.850	20.075	-4.263	0.526
738.000	451.253	80.008	19.994	103.862	20.078	-4.461	0.548
740.000	452.325	80.006	19.994	103.849	20.074	-4.195	0.542
742.000	453.350	80.007	19.993	103.854	20.080	-4.588	0.528
744.000	454.377	80.007	19.994	103.856	20.081	-4.683	0.512
746.000	455.468	80.008	19.994	103.862	20.079	-4.511	0.543
748.000	456.531	80.007	19.994	103.848	20.080	-4.555	0.542
750.000	457.558	80.008	19.993	103.854	20.078	-4.417	0.512
752.000	458.613	80.009	19.992	103.861	20.077	-4.369	0.530
754.000	459.723	80.008	19.993	103.858	20.079	-4.531	0.519
756.000	460.746	80.008	19.994	103.858	20.078	-4.450	0.515
758.000	461.783	80.008	19.993	103.866	20.079	-4.512	0.520
760.000	462.839	80.008	19.995	103.863	20.083	-4.817	0.538
762.000	463.874	80.008	19.994	103.849	20.086	-4.994	0.508
764.000	464.914	80.008	19.995	103.857	20.085	-4.951	0.524
766.000	465.933	80.008	19.995	103.861	20.084	-4.839	0.516
768.000	466.986	80.008	19.994	103.841	20.080	-4.594	0.527
770.000	467.998	80.010	19.994	103.834	20.082	-4.698	0.535
772.000	469.054	80.009	19.993	103.857	20.084	-4.823	0.516
774.000	470.123	80.010	19.993	103.840	20.088	-5.093	0.526
776.000	471.171	80.010	19.993	103.839	20.086	-4.983	0.524
778.000	472.185	80.009	19.995	103.834	20.088	-5.124	0.509
780.000	473.226	80.009	19.994	103.844	20.087	-5.076	0.536
782.000	474.276	80.007	19.995	103.849	20.090	-5.242	0.506
784.000	475.359	80.007	19.994	103.843	20.089	-5.168	0.531
786.000	476.414	80.007	19.994	103.851	20.090	-5.232	0.534
788.000	477.451	80.006	19.994	103.855	20.087	-5.041	0.536
790.000	478.489	80.008	19.994	103.846	20.092	-5.359	0.508
792.000	479.548	80.007	19.994	103.845	20.089	-5.173	0.514
794.000	480.602	80.008	19.995	103.846	20.091	-5.351	0.524
796.000	481.684	80.007	19.994	103.846	20.094	-5.498	0.532
798.000	482.682	80.007	19.995	103.842	20.094	-5.542	0.503
800.000	483.705	80.006	19.994	103.837	20.093	-5.435	0.503
802.000	484.747	80.007	19.996	103.830	20.095	-5.579	0.514
804.000	485.766	80.007	19.995	103.834	20.094	-5.504	0.515
806.000	486.811	80.006	19.995	103.832	20.096	-5.639	0.492
808.000	487.840	80.008	19.994	103.838	20.097	-5.690	0.525
810.000	488.868	80.007	19.994	103.831	20.096	-5.625	0.512
812.000	489.916	80.006	19.995	103.829	20.100	-5.910	0.549
814.000	490.908	80.006	19.994	103.835	20.100	-5.913	0.485
816.000	491.937	80.006	19.994	103.834	20.100	-5.948	0.478
818.000	492.988	80.006	19.994	103.839	20.096	-5.671	0.535
820.000	493.993	80.006	19.994	103.844	20.099	-5.849	0.505
822.000	495.050	80.008	19.992	103.835	20.096	-5.650	0.531
824.000	496.048	80.008	19.995	103.835	20.100	-5.895	0.523
826.000	497.039	80.008	19.995	103.833	20.098	-5.814	0.518
828.000	498.074	80.009	19.994	103.834	20.102	-6.025	0.495
830.000	499.088	80.009	19.993	103.835	20.101	-6.001	0.508
832.000	500.059	80.008	19.993	103.832	20.101	-5.985	0.496
834.000	501.066	80.009	19.995	103.834	20.099	-5.871	0.508
836.000	502.024	80.009	19.994	103.836	20.100	-5.924	0.489
838.000	503.047	80.007	19.993	103.832	20.098	-5.786	0.493
840.000	504.107	80.008	19.994	103.832	20.099	-5.853	0.514
842.000	505.068	80.007	19.994	103.839	20.101	-6.005	0.497
844.000	506.128	80.008	19.994	103.850	20.100	-5.933	0.522
846.000	507.130	80.009	19.993	103.832	20.101	-5.974	0.511
848.000	508.160	80.009	19.994	103.828	20.101	-5.998	0.498
850.000	509.194	80.007	19.994	103.837	20.101	-6.020	0.516
852.000	510.239	80.010	19.993	103.836	20.101	-6.004	0.531
854.000	511.326	80.010	19.993	103.834	20.102	-6.083	0.542
856.000	512.348	80.011	19.994	103.832	20.106	-6.297	0.529
858.000	513.439	80.009	19.993	103.837	20.101	-5.985	0.548
860.000	514.526	80.009	19.994	103.847	20.105	-6.252	0.553
862.000	515.562	80.008	19.994	103.842	20.103	-6.114	0.524
864.000	516.696	80.006	19.994	103.845	20.101	-5.984	0.570
866.000	517.744	80.007	19.994	103.835	20.101	-6.010	0.524
868.000	518.892	80.007	19.994	103.830	20.101	-5.956	0.563
870.000	519.952	80.005	19.993	103.836	20.099	-5.839	0.575
872.000	521.010	80.007	19.994	103.846	20.103	-6.103	0.546
874.000	522.145	80.007	19.996	103.845	20.101	-5.981	0.574
876.000	523.232	80.007	19.994	103.850	20.104	-6.179	0.548
878.000	524.320	80.007	19.993	103.846	20.103	-6.141	0.545
880.000	525.385	80.007	19.994	103.850	20.102	-6.075	0.537
882.000	526.491	80.008	19.995	103.841	20.105	-6.251	0.514
884.000	527.603	80.007	19.995	103.832	20.106	-6.354	0.557
886.000	528.678	80.008	19.995	103.833	20.104	-6.209	0.556
888.000	529.763	80.006	19.993	103.830	20.104	-6.191	0.527
890.000	530.813	80.006	19.994	103.832	20.110	-6.585	0.508
892.000	531.926	80.007	19.995	103.833	20.105	-6.275	0.525
894.000	532.985	80.006	19.994	103.831	20.108	-6.482	0.548
896.000	534.060	80.006	19.994	103.831	20.104	-6.202	0.557
898.000	535.179	80.006	19.995	103.832	20.107	-6.422	0.556
900.000	536.230	80.006	19.995	103.832	20.108	-6.481	0.579
902.000	537.310	80.006	19.995	103.831	20.108	-6.427	0.542
904.000	538.380	80.007	19.995	103.831	20.105	-6.255	0.553
906.000	539.398	80.008	19.994	103.830	20.106	-6.356	0.517
908.000	540.458	80.008	19.995	103.831	20.115	-6.916	0.520
910.000	541.568	80.009	19.995	103.831	20.107	-6.369	0.542
912.000	542.580	80.007	19.994	103.831	20.110	-6.602	0.538
914.000	543.676	80.008	19.993	103.830	20.109	-6.536	0.553
916.000	544.706	80.007	19.994	103.831	20.106	-6.339	0.519
918.000	545.749	80.007	19.993	103.832	20.108	-6.431	0.515
920.000	546.785	80.007	19.994	103.831	20.109	-6.521	0.503
922.000	547.927	80.009	19.993	103.831	20.101	-5.979	0.541
924.000	548.931	80.008	19.994	103.832	20.102	-6.062	0.550
926.000	550.041	80.008	19.994	103.832	20.115	-6.894	0.555
928.000	551.076	80.008	19.994	103.828	20.108	-6.444	0.622
930.000	552.105	80.009	19.993	103.828	20.113	-6.782	0.553
932.000	553.085	80.009	19.995	103.828	20.108	-6.461	0.649
934.000	553.933	80.008	19.993	103.826	20.109	-6.543	0.728
936.000	554.924	80.010	19.993	103.833	20.112	-6.745	0.394
938.000	556.367	80.008	19.993	103.836	20.112	-6.749	0.475
940.000	557.439	80.009	19.994	103.829	20.111	-6.626	0.807
942.000	558.383	80.008	19.993	103.833	20.113	-6.805	0.446
944.000	559.361	80.007	19.995	103.835	20.113	-6.823	0.593
946.000	560.417	80.008	19.994	103.829	20.112	-6.749	0.523
948.000	561.366	80.007	19.994	103.832	20.111	-6.652	0.451
950.000	562.477	80.007	19.993	103.833	20.110	-6.560	0.433
952.000	563.421	80.007	19.994	103.845	20.114	-6.841	0.529
954.000	564.485	80.007	19.993	103.840	20.114	-6.868	0.513
956.000	565.515	80.007	19.995	103.839	20.115	-6.942	0.506
958.000	566.564	80.008	19.994	103.836	20.111	-6.643	0.488
960.000	567.521	80.008	19.994	103.833	20.110	-6.624	0.545
962.000	568.509	80.008	19.993	103.835	20.115	-6.894	0.483
964.000	569.515	80.008	19.994	103.834	20.114	-6.831	0.487
966.000	570.576	80.008	19.993	103.836	20.112	-6.739	0.522
968.000	571.609	80.008	19.995	103.839	20.113	-6.760	0.526
970.000	572.579	80.007	19.993	103.830	20.111	-6.670	0.498
972.000	573.597	80.007	19.996	103.828	20.109	-6.554	0.536
974.000	574.617	80.006	19.995	103.829	20.112	-6.738	0.500
976.000	575.687	80.007	19.993	103.829	20.114	-6.879	0.498
978.000	576.696	80.006	19.995	103.828	20.114	-6.850	0.526
980.000	577.708	80.008	19.992	103.831	20.113	-6.802	0.516
982.000	578.638	80.007	19.994	103.833	20.116	-7.013	0.502
984.000	579.608	80.008	19.995	103.827	20.114	-6.861	0.512
986.000	580.607	80.006	19.994	103.844	20.114	-6.886	0.496
988.000	581.601	80.010	19.995	103.850	20.114	-6.888	0.527
990.000	582.599	80.009	19.995	103.830	20.113	-6.824	0.483
992.000	583.565	80.008	19.996	103.827	20.116	-6.975	0.473
994.000	584.553	80.007	19.995	103.827	20.116	-6.986	0.486
996.000	585.519	80.008	19.996	103.827	20.118	-7.119	0.504
998.000	586.515	80.007	19.996	103.825	20.117	-7.085	0.512
1000.000	587.429	80.008	19.995	103.828	20.116	-7.017	0.472
1002.000	588.454	80.009	19.995	103.829	20.116	-7.002	0.494
1004.000	589.386	80.008	19.995	103.831	20.118	-7.120	0.473
1006.000	590.376	80.008	19.993	103.827	20.112	-6.730	0.488
1008.000	591.339	80.009	19.995	103.821	20.115	-6.894	0.494
1010.000	592.322	80.010	19.994	103.832	20.116	-6.997	0.505
1012.000	593.289	80.009	19.994	103.832	20.114	-6.872	0.504
1014.000	594.298	80.009	19.994	103.831	20.115	-6.933	0.522
1016.000	595.267	80.008	19.993	103.831	20.114	-6.883	0.487
1018.000	596.287	80.010	19.993	103.829	20.115	-6.926	0.519
1020.000	597.227	80.009	19.993	103.829	20.115	-6.914	0.475
1022.000	598.223	80.008	19.993	103.831	20.115	-6.894	0.473
1024.000	599.220	80.007	19.994	103.832	20.114	-6.874	0.491
1025.999	600.181	80.006	19.995	103.833	20.116	-6.995	0.467
1027.999	601.201	80.006	19.993	103.837	20.116	-6.988	0.490
1029.999	602.162	80.007	19.994	103.835	20.117	-7.089	0.495
1031.999	603.158	80.007	19.995	103.829	20.115	-6.909	0.492
1033.999	604.125	80.008	19.995	103.833	20.115	-6.910	0.495
1035.999	605.133	80.006	19.995	103.833	20.114	-6.844	0.499
1038.000	606.100	80.007	19.993	103.830	20.116	-6.973	0.485
1039.999	607.131	80.009	19.994	103.829	20.116	-6.984	0.485
1041.999	608.112	80.008	19.994	103.828	20.115	-6.942	0.494
1043.999	609.099	80.008	19.994	103.828	20.114	-6.853	0.523
1045.999	610.111	80.007	19.995	103.825	20.115	-6.892	0.482
1047.999	611.098	80.007	19.995	103.824	20.116	-6.963	0.504
1049.999	612.106	80.008	19.996	103.838	20.119	-7.202	0.498
1051.999	613.091	80.007	19.996	103.832	20.119	-7.202	0.482
1053.999	614.104	80.009	19.996	103.827	20.118	-7.094	0.476
1056.000	615.135	80.007	19.995	103.826	20.118	-7.142	0.520
1057.999	616.163	80.007	19.995	103.825	20.115	-6.913	0.509
1059.999	617.168	80.007	19.996	103.817	20.119	-7.217	0.540
1061.999	618.164	80.007	19.995	103.822	20.115	-6.912	0.503
1063.999	619.176	80.008	19.996	103.828	20.113	-6.824	0.508
1065.999	620.176	80.008	19.995	103.827	20.118	-7.105	0.510
1067.999	621.216	80.009	19.995	103.832	20.118	-7.105	0.518
1069.999	622.167	80.009	19.995	103.834	20.116	-6.964	0.487
1071.999	623.222	80.009	19.993	103.831	20.119	-7.166	0.516
1073.999	624.213	80.009	19.993	103.831	20.117	-7.089	0.517
1075.999	625.211	80.008	19.995	103.824	20.118	-7.105	0.488
1077.999	626.181	80.007	19.995	103.830	20.118	-7.131	0.493
1079.999	627.240	80.008	19.995	103.832	20.116	-6.975	0.495
1081.999	628.239	80.008	19.996	103.832	20.122	-7.399	0.478
1083.999	629.231	80.008	19.997	103.826	20.117	-7.057	0.489
1085.999	630.217	80.008	19.995	103.832	20.119	-7.173	0.482
1087.999	631.281	80.008	19.995	103.824	20.115	-6.936	0.501
1089.999	632.249	80.008	19.995	103.827	20.115	-6.940	0.474
1091.999	633.287	80.008	19.994	103.831	20.119	-7.162	0.519
1093.999	634.301	80.010	19.993	103.824	20.116	-7.024	0.502
1095.999	635.362	80.011	19.994	103.830	20.117	-7.070	0.505
1097.999	636.366	80.009	19.994	103.828	20.117	-7.057	0.476
1099.999	637.355	80.009	19.994	103.827	20.118	-7.147	0.518
1101.999	638.322	80.009	19.994	103.829	20.120	-7.288	0.485
1103.999	639.337	80.007	19.993	103.825	20.118	-7.122	0.483
1105.999	640.368	80.008	19.994	103.817	20.116	-6.991	0.525
1107.999	641.360	80.007	19.994	103.825	20.114	-6.852	0.526
1109.999	642.356	80.008	19.994	103.827	20.117	-7.089	0.499
1111.999	643.370	80.008	19.995	103.838	20.115	-6.892	0.475
1113.999	644.356	80.008	19.994	103.841	20.120	-7.231	0.505
1115.999	645.366	80.008	19.995	103.829	20.116	-6.983	0.489
1118.000	646.330	80.007	19.994	103.830	20.119	-7.225	0.458
1119.999	647.390	80.007	19.994	103.833	20.118	-7.151	0.512
1121.999	648.404	80.007	19.993	103.839	20.121	-7.316	0.495
1124.000	649.406	80.007	19.997	103.823	20.118	-7.094	0.505
1125.999	650.402	80.008	19.995	103.826	20.116	-7.016	0.498
1127.999	651.432	80.008	19.994	103.816	20.117	-7.071	0.491
1129.999	652.498	80.007	19.993	103.816	20.118	-7.150	0.537
1132.000	653.507	80.007	19.993	103.830	20.118	-7.135	0.590
1134.000	654.392	80.005	19.994	103.829	20.120	-7.241	0.547
1135.999	655.482	80.006	19.993	103.823	20.115	-6.947	0.489
1137.999	656.604	80.006	19.995	103.807	20.120	-7.287	0.529
1139.999	657.551	80.007	19.994	103.827	20.121	-7.312	0.503
1141.999	658.592	80.007	19.995	103.832	20.122	-7.413	0.515
1143.999	659.656	80.006	19.995	103.831	20.122	-7.428	0.528
1145.999	660.669	80.007	19.994	103.829	20.120	-7.256	0.509
1147.999	661.722	80.007	19.995	103.834	20.110	-6.578	0.512
1149.999	662.809	80.007	19.995	103.826	20.120	-7.267	0.508
1151.999	663.861	80.008	19.994	103.832	20.121	-7.357	0.517
1154.000	664.895	80.006	19.994	103.846	20.118	-7.114	0.513
1155.999	665.930	80.007	19.994	103.844	20.120	-7.290	0.529
1157.999	666.993	80.008	19.994	103.831	20.120	-7.268	0.520
1159.999	668.003	80.007	19.994	103.830	20.123	-7.436	0.489
1161.999	668.805	80.008	19.992	103.835	20.117	-7.066	0.281
1163.999	670.156	80.007	19.994	103.832	20.119	-7.210	0.545
1165.999	671.122	80.007	19.995	103.828	20.118	-7.137	0.549
1167.999	672.140	80.009	19.995	103.825	20.117	-7.037	0.497
1169.999	673.195	80.009	19.995	103.827	20.115	-6.894	0.507
1171.999	674.229	80.009	19.995	103.826	20.114	-6.881	0.529
1173.999	675.292	80.009	19.996	103.826	20.116	-7.008	0.495
1175.999	676.319	80.009	19.994	103.833	20.116	-7.000	0.505
1177.999	677.339	80.008	19.994	103.833	20.117	-7.089	0.529
1179.999	678.381	80.008	19.995	103.826	20.119	-7.165	0.524
1181.999	679.429	80.007	19.995	103.828	20.114	-6.871	0.581
1183.999	680.420	80.006	19.997	103.831	20.117	-7.035	0.501
1185.999	681.533	80.007	19.996	103.841	20.115	-6.905	0.530
1187.999	682.574	80.006	19.996	103.840	20.117	-7.043	0.529
1189.999	683.589	80.006	19.996	103.830	20.119	-7.223	0.513
1191.999	684.627	80.006	19.994	103.841	20.118	-7.120	0.487
1194.000	685.731	80.007	19.994	103.836	20.115	-6.931	0.542
1195.999	686.741	80.008	19.994	103.830	20.117	-7.062	0.520
1197.999	687.778	80.008	19.994	103.831	20.116	-7.011	0.529
1200.001	688.792	80.006	19.994	103.838	20.118	-7.127	0.526
1201.999	689.839	80.007	19.993	103.830	20.118	-7.126	0.543
1203.999	690.901	80.006	19.994	103.826	20.118	-7.122	0.526
1205.999	691.911	80.007	19.994	103.834	20.119	-7.172	0.524
1208.000	692.890	80.007	19.993	103.855	20.116	-7.013	0.499
1209.999	693.937	80.005	19.995	103.828	20.115	-6.940	0.480
1211.999	694.978	80.006	19.995	103.830	20.117	-7.057	0.520
1213.999	696.000	80.004	19.993	103.832	20.115	-6.937	0.501
1215.999	697.017	80.006	19.995	103.832	20.115	-6.944	0.502
1218.000	698.062	80.005	19.994	103.830	20.116	-6.997	0.517
1219.999	699.045	80.006	19.995	103.833	20.118	-7.129	0.501
1221.999	700.052	80.007	19.993	103.840	20.114	-6.885	0.522
1223.999	701.095	80.005	19.995	103.840	20.118	-7.147	0.513
1225.999	702.120	80.006	19.994	103.833	20.119	-7.208	0.494
1227.999	703.164	80.009	19.994	103.852	20.113	-6.793	0.474
1229.999	704.154	80.008	19.993	103.866	20.116	-6.978	0.494
1231.999	705.177	80.009	19.994	103.841	20.117	-7.038	0.511
1233.999	706.203	80.010	19.994	103.827	20.118	-7.118	0.512
1235.999	707.249	80.009	19.994	103.828	20.118	-7.129	0.502
1237.999	708.282	80.009	19.994	103.828	20.114	-6.835	0.532
1240.000	709.273	80.007	19.994	103.825	20.112	-6.732	0.519
1242.000	710.319	80.007	19.995	103.828	20.112	-6.709	0.513
1243.999	711.330	80.006	19.996	103.835	20.115	-6.956	0.499
1246.000	712.404	80.008	19.996	103.832	20.117	-7.041	0.514
1247.999	713.437	80.008	19.995	103.827	20.118	-7.143	0.536
1250.000	714.445	80.008	19.995	103.834	20.117	-7.031	0.525
1251.999	715.499	80.009	19.995	103.831	20.113	-6.763	0.533
1253.999	716.562	80.008	19.993	103.843	20.115	-6.956	0.503
1255.999	717.531	80.009	19.993	103.843	20.113	-6.795	0.476
1257.999	718.568	80.009	19.993	103.828	20.112	-6.730	0.533
1259.999	719.611	80.009	19.994	103.817	20.115	-6.945	0.528
1261.999	720.672	80.008	19.995	103.823	20.113	-6.808	0.534
1263.999	721.710	80.005	19.994	103.823	20.113	-6.804	0.518
1265.999	722.722	80.007	19.995	103.825	20.115	-6.896	0.518
1267.999	723.755	80.005	19.995	103.822	20.118	-7.133	0.516
1270.000	724.818	80.006	19.995	103.826	20.115	-6.933	0.526
1271.999	725.828	80.006	19.995	103.832	20.117	-7.072	0.522
1274.000	726.902	80.005	19.995	103.828	20.119	-7.173	0.553
1275.999	727.906	80.006	19.996	103.822	20.118	-7.142	0.540
1277.999	728.958	80.006	19.993	103.830	20.116	-7.006	0.529
1279.999	729.983	80.006	19.994	103.832	20.118	-7.140	0.539
1281.999	731.005	80.006	19.995	103.832	20.121	-7.334	0.511
1283.999	732.042	80.005	19.994	103.833	20.120	-7.257	0.513
1285.999	733.037	80.008	19.994	103.833	20.116	-7.023	0.515
1287.999	734.056	80.007	19.994	103.833	20.115	-6.917	0.525
1289.999	735.067	80.007	19.994	103.831	20.115	-6.930	0.496
1291.999	736.024	80.007	19.994	103.828	20.114	-6.887	0.493
1293.999	737.023	80.006	19.994	103.818	20.117	-7.089	0.474
1295.999	737.992	80.007	19.995	103.830	20.116	-6.977	0.479
1297.999	738.970	80.006	19.994	103.827	20.118	-7.093	0.484
1299.999	739.914	80.007	19.995	103.813	20.118	-7.138	0.482
1301.999	740.851	80.007	19.994	103.817	20.117	-7.085	0.480
1303.999	741.824	80.008	19.995	103.816	20.119	-7.198	0.468
1305.999	742.793	80.007	19.993	103.836	20.120	-7.290	0.482
1307.999	743.743	80.007	19.995	103.814	20.118	-7.145	0.472
1308.499	743.998	80.008	19.994	103.811	20.116	-6.976	0.475