File: 01_Data/Hemp_Sheets/Cone/Hemp_Sheet_Cone_HF25Scan_220524_R3.csv
Names,Time,Stack TC,Smoke TC,Exh Press,Smoke Comp,Smoke Meas,CO Meter,CO2 Meter,O2 Meter,Sample Mass,Ext Coeff,Start Test,Flame Verif
Chan Gain,,500,500,1,1,1,1,1,1,1,1,1.0,1.0
Offset,,0,0,0.139323,0,0,0,0,0,0,0,0.0,0.0
Gain,,1,1,25.011,13.8491,15.2622,1,1,1,1.00087,1.03118,1.0,1.0
Units,sec,C,C,Pa,%,%,%,%,%,g,/m,,
Baseline,,24.0041,24.7222,145.874,104.878,104.658,0.000285402,0.0434353,21.0017,-452.392,0.0190202,,
2,0.25,23.0026,23.8644,144.68,105.198,104.822,0.000320826,0.0492811,20.995,564.231,0.0323376,0.0,0.0
4,0.75,22.2074,23.2077,144.59,105.194,105.02,0.000338805,0.0491813,20.9949,564.521,0.0149847,0.0,0.0
6,1.25,21.3446,22.4059,146.651,105.231,105.077,0.000352156,0.0491005,20.9949,564.221,0.013289,0.0,0.0
8,1.75,21.2298,22.4557,144.875,105.237,105.149,0.00036297,0.0491579,20.9949,564.391,0.00754607,0.0,0.0
10,2.25,21.6213,22.611,140.419,105.278,104.815,0.000370454,0.0492045,20.9949,564.291,0.0398471,0.0,0.0
12,2.75,21.7848,22.2645,146.726,105.282,105.414,0.000375368,0.0494608,20.9949,564.341,-0.011298,0.0,0.0
14,3.25,21.574,22.5623,145.68,105.299,105.191,0.000379347,0.0496685,20.9949,564.311,0.00931823,0.0,0.0
16,3.75,21.8607,22.278,143.384,105.299,105.349,0.00038742,0.049905,20.9949,564.291,-0.00428836,0.0,0.0
18,4.25,22.0089,22.9954,143.937,105.329,105.45,0.000393959,0.0500966,20.9949,564.331,-0.0104214,0.0,0.0
20,4.75,22.2721,22.3071,146.487,105.32,105.401,0.000399255,0.0502015,20.9949,564.291,-0.00694803,0.0,0.0
22,5.25,22.0425,22.4552,146.428,105.358,105.28,0.000396273,0.0502411,20.9949,564.351,0.00671427,0.0,0.0
24,5.75,21.7146,22.7515,142.659,105.356,104.926,0.000393857,0.0502731,20.9949,564.321,0.0370372,0.0,0.0
26,6.25,21.6971,22.964,147.399,105.376,105.039,0.000385841,0.0501625,20.9949,564.361,0.0289503,0.0,0.0
28,6.75,21.7345,22.5843,145.173,105.377,104.911,0.000379348,0.0500728,20.9949,564.331,0.0401359,0.0,0.0
30,7.25,22.3038,22.316,143.367,105.395,104.899,0.000369243,0.0499283,20.9949,564.351,0.0427002,0.0,0.0
32,7.75,22.0636,23.0988,144.836,105.399,104.878,0.000361057,0.0497465,20.9949,564.331,0.0448378,0.0,0.0
34,8.25,21.8961,22.5615,152.643,105.415,104.71,0.00035685,0.0495992,20.9949,564.341,0.060766,0.0,0.0
36,8.75,21.9157,22.6938,146.962,105.405,104.291,0.000353442,0.0494526,20.9949,564.301,0.0961038,0.0,0.0
38,9.25,22.3655,22.8374,148.811,105.425,104.439,0.000376135,0.0493339,20.9946,564.321,0.0850065,0.0,0.0
40,9.75,22.1579,22.5431,145.348,105.423,104.556,0.000394516,0.049347,20.9942,564.321,0.0746655,0.0,0.0
42,10.25,22.3492,23.0509,143.879,105.446,104.394,0.000456724,0.0493576,20.9937,564.261,0.090694,0.0,0.0
44,10.75,22.4807,22.4335,142.199,105.443,104.315,0.000507112,0.0495165,20.993,564.271,0.0973072,0.0,0.0
46,11.25,21.741,23.3669,147.307,105.446,104.501,0.000547926,0.0496453,20.9925,564.261,0.0813802,0.0,0.0
48,11.75,21.8878,23.1774,144.212,105.439,104.16,0.000632013,0.0513374,20.9905,564.261,0.110436,0.0,0.0
50,12.25,22.5923,22.9211,146.461,105.455,104.01,0.000700124,0.0527081,20.9874,564.231,0.12477,0.0,0.0
52,12.75,22.2274,23.3766,145.614,105.452,104.861,0.00076621,0.0571097,20.9849,564.231,0.0508895,0.0,0.0
54,13.25,22.511,22.7713,146.668,105.46,105.92,0.000829565,0.0636371,20.9745,564.191,-0.0394034,0.0,0.0
56,13.75,22.5756,23.0596,138.448,105.453,106.542,0.00089177,0.075394,20.9662,564.101,-0.0929258,0.0,1.0
58,14.25,21.8733,23.2389,143.305,105.461,108.056,0.000951954,0.0907398,20.9461,564.401,-0.219888,0.0,1.0
60,14.75,22.2656,23.0039,140.842,105.457,107.454,0.0010116,0.10317,20.9299,563.811,-0.169699,0.0,1.0
62,15.25,22.341,23.3912,138.079,105.464,109.116,0.00106971,0.130245,20.8957,564.021,-0.307868,0.0,1.0
64,15.75,22.9243,23.1678,136.334,105.468,109.007,0.00113282,0.152176,20.8681,563.981,-0.298577,0.0,1.0
66,16.25,23.323,23.9285,131.307,105.482,108.843,0.00119836,0.178665,20.8286,563.781,-0.283728,0.0,1.0
68,16.75,23.6209,23.5525,125.498,105.467,110.123,0.00127391,0.207975,20.7967,563.871,-0.390745,0.0,1.0
70,17.25,24.0802,23.7091,128.736,105.474,110.568,0.00135533,0.231716,20.7708,563.671,-0.426629,0.0,1.0
72,17.75,24.596,23.9909,127.732,105.463,110.506,0.00142128,0.262733,20.7381,563.691,-0.422578,0.0,1.0
74,18.25,25.0263,24.2801,126.902,105.474,110.381,0.0014747,0.287857,20.7115,563.581,-0.411373,0.0,1.0
76,18.75,24.2679,22.9916,123.734,105.464,110.269,0.00155976,0.313207,20.69,563.581,-0.403003,0.0,0.0
78,19.25,24.7586,23.3766,128.233,105.47,110.645,0.00166627,0.33374,20.6727,563.481,-0.433277,0.0,0.0
80,19.75,25.3674,24.1926,124.799,105.488,110.459,0.00176027,0.351624,20.6587,563.451,-0.416514,0.0,0.0
82,20.25,26.3825,23.8106,126.216,105.463,109.983,0.00184337,0.366109,20.6473,563.38,-0.379589,0.0,0.0
84,20.75,26.317,24.8473,127.348,105.458,110.528,0.00190424,0.377842,20.6381,563.3,-0.424729,0.0,0.0
86,21.25,27.413,24.8828,128.917,105.453,109.049,0.00194774,0.38024,20.6307,563.25,-0.303248,0.0,0.0
88,21.75,28.1129,25.5599,126.009,105.457,109.297,0.00198041,0.382183,20.6246,563.2,-0.323527,0.0,0.0
90,22.25,28.4856,25.2815,132.384,105.461,108.096,0.00200456,0.383756,20.6346,563.22,-0.223202,0.0,0.0
92,22.75,29.4834,25.7166,135.716,105.451,107.163,0.0020357,0.374421,20.6427,563.14,-0.145705,0.0,0.0
94,23.25,29.3231,26.564,133.909,105.454,106.586,0.00207136,0.362234,20.6597,563.13,-0.0965696,0.0,0.0
96,23.75,29.7081,27.1361,138.527,105.445,107.023,0.00213695,0.348199,20.6735,563.09,-0.134335,0.0,0.0
98,24.25,29.8397,27.2228,132.333,105.455,106.903,0.00222312,0.333121,20.6883,563.1,-0.123379,0.0,0.0
100,24.75,29.875,27.2156,134.487,105.444,107.129,0.00229291,0.317569,20.7037,563.03,-0.143411,0.0,0.0
102,25.25,29.9378,27.9977,136.207,105.441,107.353,0.00234945,0.301992,20.7161,563.05,-0.162562,0.0,0.0
104,25.75,30.1168,27.8306,141.064,105.429,106.127,0.00255865,0.286694,20.7292,562.99,-0.059654,0.0,0.0
106,26.25,30.1128,28.5695,139.328,105.427,106.978,0.00272811,0.274303,20.7427,562.97,-0.13215,0.0,0.0
108,26.75,29.9834,28.2946,140.064,105.425,106.914,0.00288152,0.258801,20.7516,562.96,-0.126822,0.0,0.0
110,27.25,30.0674,28.409,141.37,105.417,106.603,0.00314387,0.246243,20.7669,562.91,-0.10115,0.0,0.0
112,27.75,29.7079,27.875,142.028,105.415,106.281,0.0034405,0.233403,20.7793,562.92,-0.0740171,0.0,0.0
114,28.25,30.7758,28.4469,146.288,105.414,105.87,0.00375648,0.220601,20.7941,562.89,-0.0390195,0.0,0.0
116,28.75,30.1001,28.8759,140.319,105.407,106.245,0.00408903,0.210232,20.8061,562.88,-0.0715773,0.0,0.0
118,29.25,29.7924,28.1883,141.643,105.403,106.145,0.00442735,0.198052,20.8207,562.87,-0.0634099,0.0,0.0
120,29.75,29.639,28.9225,143.373,105.396,105.699,0.00476381,0.192859,20.8324,562.86,-0.0259261,0.0,0.0
122,30.25,29.2997,28.7569,146.629,105.383,106.13,0.00509252,0.182758,20.8446,562.88,-0.063885,0.0,0.0
124,30.75,29.4943,29.0242,140.003,105.384,106.161,0.00540423,0.173476,20.8545,562.91,-0.0664319,0.0,0.0
126,31.25,29.7283,28.2406,143.496,105.368,105.799,0.00569763,0.164876,20.8646,562.89,-0.0369258,0.0,0.0
128,31.75,29.5116,28.7451,143.901,105.363,105.754,0.00593529,0.156938,20.8729,562.92,-0.0334585,0.0,0.0
130,32.25,29.0045,28.3118,139.27,105.345,105.693,0.00617203,0.14953,20.8795,562.89,-0.0298736,0.0,0.0
132,32.75,29.346,28.7488,146.517,105.35,105.484,0.00640361,0.142649,20.8871,562.87,-0.0114464,0.0,0.0
134,33.25,29.3117,28.4392,150.342,105.328,105.307,0.00660639,0.136182,20.8933,562.86,0.00178011,0.0,0.0
136,33.75,29.3973,28.7956,146.821,105.327,105.367,0.00678433,0.13014,20.9004,562.85,-0.00345231,0.0,0.0
138,34.25,29.4007,28.6387,148.722,105.319,105.025,0.00692847,0.125246,20.9062,562.85,0.0252951,0.0,0.0
140,34.75,29.2988,28.8346,144.71,105.319,105.444,0.00704275,0.119524,20.9116,562.85,-0.0108132,0.0,0.0
142,35.25,29.2258,28.7556,143.437,105.289,105.168,0.00713532,0.114888,20.9166,562.84,0.0104104,0.0,0.0
144,35.75,28.7381,28.5339,142.532,105.283,105.33,0.00720038,0.11038,20.9206,562.85,-0.00402837,0.0,0.0
146,36.25,28.7674,28.1805,141.911,105.274,104.959,0.00724415,0.10605,20.9264,562.84,0.0271444,0.0,0.0
148,36.75,28.5148,28.8097,146.501,105.272,105.312,0.00727299,0.102542,20.931,562.84,-0.00341618,0.0,0.0
150,37.25,27.9979,28.5109,144.626,105.242,105.138,0.00729041,0.0987713,20.9361,562.86,0.00901984,0.0,0.0
152,37.75,28.3231,28.4245,140.835,105.244,105.462,0.00730187,0.0957168,20.9402,562.85,-0.0186826,0.0,0.0
154,38.25,27.2653,27.3061,143.285,105.213,105.267,0.00730878,0.0929441,20.944,562.87,-0.00458018,0.0,0.0
156,38.75,26.8072,26.6408,148.215,105.22,105.49,0.00731437,0.0904294,20.947,562.89,-0.0231139,0.0,0.0
158,39.25,26.5813,26.3164,141.076,105.183,105.169,0.0073076,0.0882106,20.9497,562.88,0.00120762,0.0,0.0
160,39.75,26.4652,26.9388,142.796,105.181,105.131,0.00730212,0.0862496,20.9521,562.9,0.00427124,0.0,0.0
162,40.25,25.8473,26.5844,146.863,105.154,105.235,0.00727919,0.0845303,20.9541,562.88,-0.0069831,0.0,0.0
164,40.75,25.7199,26.1786,143.483,105.162,104.741,0.00724398,0.0830199,20.9556,562.89,0.0362811,0.0,0.0
166,41.25,26.0299,25.939,143.713,105.119,104.916,0.00721546,0.0817965,20.9573,562.87,0.0174603,0.0,0.0
168,41.75,26.0331,25.6606,143.573,105.132,104.992,0.00714225,0.0805431,20.9587,562.86,0.012084,0.0,0.0
170,42.25,26.3392,26.5405,142.727,105.098,105.519,0.00703787,0.0795279,20.9593,562.87,-0.0361322,0.0,0.0
172,42.75,25.9547,26.6891,144.227,105.11,105.135,0.00695331,0.0784805,20.9598,562.87,-0.00215741,0.0,0.0
174,43.25,26.0979,27.0106,144.145,105.071,105.15,0.00682608,0.0774294,20.9607,562.86,-0.00682231,0.0,0.0
176,43.75,25.9417,26.3717,145.401,105.066,104.804,0.00672302,0.0765781,20.9618,562.81,0.0226,0.0,0.0
178,44.25,26.317,26.7242,139.791,105.033,104.782,0.00660079,0.0755839,20.9627,562.85,0.0216878,0.0,0.0
180,44.75,26.2757,26.6753,143.359,105.031,104.696,0.00646691,0.0745043,20.9635,562.83,0.0288665,0.0,0.0
182,45.25,25.8574,26.7612,143.905,105.005,105.105,0.00630866,0.0736299,20.9641,562.84,-0.00865322,0.0,0.0
184,45.75,25.6417,26.5336,145.312,104.996,105.39,0.00613566,0.072316,20.9659,562.86,-0.0338357,0.0,0.0
186,46.25,25.6614,25.9159,148.045,104.969,104.804,0.00599553,0.0712517,20.9673,562.86,0.0142235,0.0,0.0
188,46.75,25.5033,26.1243,143.358,104.961,105.141,0.00593579,0.0697848,20.9679,562.84,-0.0155258,0.0,0.0
190,47.25,25.4053,25.7507,143.424,104.932,104.632,0.00568099,0.0685966,20.9692,562.84,0.0258639,0.0,0.0
192,47.75,25.5053,26.04,144.902,104.914,105.167,0.00547461,0.0672296,20.9705,562.86,-0.0217372,0.0,0.0
194,48.25,25.1759,26.2181,144.466,104.884,104.78,0.00519366,0.0657582,20.972,562.86,0.0090263,0.0,0.0
196,48.75,25.7222,26.3325,144.376,104.902,104.991,0.0049661,0.0645664,20.9736,562.84,-0.00767863,0.0,0.0
198,49.25,25.177,26.0829,143.647,104.902,104.51,0.00467204,0.0628609,20.9756,562.84,0.0338686,0.0,0.0
200,49.75,25.0766,26.1462,141.401,104.92,104.5,0.00443385,0.0621338,20.9778,562.84,0.036323,0.0,0.0
202,50.25,24.9917,25.9054,150.629,104.915,104.501,0.00414379,0.0608905,20.9801,562.84,0.0357688,0.0,0.0
204,50.75,24.9633,25.7391,145.6,104.936,104.768,0.00390884,0.0593223,20.9823,562.82,0.0145185,0.0,0.0
206,51.25,24.7813,26.0405,143.95,104.925,104.889,0.00362778,0.058052,20.9846,562.82,0.00312115,0.0,0.0
208,51.75,24.995,25.8072,145.299,104.947,104.519,0.00340012,0.0566812,20.9869,562.84,0.0369652,0.0,0.0
210,52.25,25.0067,25.6235,142.012,104.953,104.642,0.0031484,0.0555709,20.9887,562.84,0.0268767,0.0,0.0
212,52.75,24.593,25.6539,144.556,104.963,104.791,0.00294451,0.0543572,20.9902,562.85,0.0147984,0.0,0.0
214,53.25,25.1796,25.3387,147.199,104.971,104.935,0.00275236,0.0533741,20.9914,562.85,0.00307588,0.0,0.0
216,53.75,24.6261,26.005,144.263,104.985,104.881,0.0025724,0.0523319,20.9928,562.87,0.00897675,0.0,0.0
218,54.25,24.3316,25.3049,141.716,104.977,105.123,0.00242664,0.0514877,20.9939,562.86,-0.0125435,0.0,0.0
220,54.75,24.4588,25.5895,145.014,104.987,104.81,0.00228538,0.0506538,20.9951,562.88,0.0153065,0.0,0.0
222,55.25,24.0076,25.5207,145.085,105,104.932,0.00217096,0.0499783,20.9962,562.88,0.00591042,0.0,0.0
224,55.75,24.5885,25.2858,145.614,105.016,104.961,0.00205966,0.0493377,20.9972,562.88,0.00472713,0.0,0.0
226,56.25,23.9577,25.5194,143.889,105.007,105.186,0.00195276,0.0487348,20.9979,562.84,-0.0153989,0.0,0.0
228,56.75,24.0521,25.2545,150.66,105.022,105.229,0.00184501,0.0482465,20.9985,562.86,-0.0178133,0.0,0.0
230,57.25,24.0609,25.0693,145.617,105.022,104.66,0.00173869,0.0476463,20.9995,562.84,0.0312814,0.0,0.0
232,57.75,24.0084,25.8987,143.668,105.028,105.187,0.00162887,0.0471601,21.0002,562.87,-0.0137394,0.0,0.0
234,58.25,23.8538,25.1609,148.283,105.046,104.564,0.00151859,0.0466299,21.0013,562.85,0.0416119,0.0,0.0
236,58.75,23.9656,25.4333,147.308,105.05,105.28,0.00141582,0.0462004,21.0021,562.85,-0.0197778,0.0,0.0
238,59.25,23.6194,25.5801,142.447,105.048,104.948,0.00132049,0.0458525,21.0028,562.86,0.00858139,0.0,0.0
240,59.75,23.7525,25.1629,145.023,105.063,104.925,0.00124327,0.045448,21.0033,562.85,0.0119354,0.0,0.0
242,60.25,23.8528,25.5949,147.178,105.071,104.968,0.00116794,0.0451204,21.0038,562.84,0.0088938,0.0,0.0
244,60.75,23.2785,24.9519,144.275,105.07,105.388,0.0010954,0.0448277,21.0042,562.84,-0.0272704,0.0,0.0
246,61.25,23.4314,24.9422,146.135,105.083,104.718,0.00102579,0.0445907,21.0045,562.82,0.0314555,0.0,0.0
248,61.75,24.5229,24.6836,146.139,105.096,104.686,0.000959626,0.0443441,21.0047,562.81,0.0353188,0.0,0.0
250,62.25,24.2582,25.218,146.553,105.098,104.969,0.000891346,0.0441444,21.0049,562.82,0.0111417,0.0,0.0
252,62.75,23.9077,24.7297,142.834,105.114,104.912,0.00082282,0.0439009,21.005,562.84,0.0174625,0.0,0.0
254,63.25,23.1427,24.8526,147.325,105.129,104.954,0.000767314,0.0437036,21.0052,562.82,0.015004,0.0,0.0
256,63.75,23.3531,25.0188,147.501,105.133,104.946,0.000700529,0.0435079,21.0053,562.84,0.0160912,0.0,0.0
258,64.25,23.8957,24.6193,146.627,105.135,104.92,0.000646433,0.0433172,21.0054,562.84,0.0185612,0.0,0.0
260,64.75,23.1329,25.0943,146.591,105.146,105.04,0.000602616,0.0431626,21.0054,562.84,0.00915234,0.0,0.0
262,65.25,23.0844,24.1618,147.036,105.152,105.131,0.000571554,0.0429966,21.0055,562.83,0.00176717,0.0,0.0
264,65.75,23.0918,24.6152,142.438,105.16,104.865,0.000550381,0.0428621,21.0058,562.81,0.025409,0.0,0.0
266,66.25,23.3384,24.7386,144.897,105.164,105.062,0.000542805,0.0427804,21.0061,562.81,0.00875483,0.0,0.0
268,66.75,23.5579,24.9625,146.298,105.17,104.73,0.000545286,0.0427142,21.0065,562.82,0.0379371,0.0,0.0
270,67.25,23.1475,24.7846,147.945,105.188,104.882,0.000547295,0.0426606,21.0069,562.81,0.0263187,0.0,0.0
272,67.75,22.9674,24.5577,151.824,105.19,105.235,0.000553391,0.04259,21.0071,562.82,-0.00386062,0.0,0.0
274,68.25,22.9892,24.6961,145.703,105.2,104.737,0.000562352,0.0425327,21.0069,562.83,0.039874,0.0,0.0
276,68.75,23.1304,24.4051,142.418,105.215,104.904,0.000564502,0.0424581,21.0067,562.83,0.0267563,0.0,0.0
278,69.25,23.1925,24.2031,140.052,105.219,104.884,0.000561647,0.0423721,21.0066,562.83,0.0288869,0.0,0.0
280,69.75,22.6013,24.594,145.402,105.23,105.077,0.000549122,0.0423025,21.0064,562.8,0.0131802,0.0,0.0
282,70.25,22.7855,24.1606,142.705,105.237,104.949,0.000529786,0.0422325,21.0063,562.8,0.0247875,0.0,0.0
284,70.75,22.1333,24.2102,144.659,105.239,104.979,0.000502005,0.0421759,21.0063,562.82,0.0223999,0.0,0.0
286,71.25,22.7469,24.6529,142.842,105.238,105.383,0.000468594,0.0421371,21.0062,562.81,-0.0124733,0.0,0.0
288,71.75,22.6521,24.4976,143.553,105.253,105.266,0.000433244,0.0421122,21.0061,562.83,-0.00112205,0.0,0.0
290,72.25,22.952,24.6,142.912,105.272,105.417,0.000397151,0.042092,21.0061,562.84,-0.0124527,0.0,0.0
292,72.75,23.024,24.147,146.425,105.271,105.055,0.000362818,0.0420483,21.0061,562.85,0.0186258,0.0,0.0
294,73.25,22.6836,24.4214,145.467,105.285,105.368,0.000330419,0.042013,21.006,562.83,-0.00708616,0.0,0.0
296,73.75,22.5754,24.3195,146.421,105.281,105.069,0.000304176,0.0419163,21.006,562.81,0.0182933,0.0,0.0
298,74.25,22.7095,24.0287,146.039,105.322,105.015,0.000291395,0.0418307,21.0058,562.82,0.0263907,0.0,0.0
300,74.75,23.0889,24.1285,146.555,105.315,104.964,0.000281042,0.041755,21.0054,562.81,0.0301842,0.0,0.0
302,75.25,22.2928,23.4636,146.046,105.345,105.176,0.000281582,0.0417008,21.005,562.85,0.0145573,0.0,0.0
304,75.75,22.6799,24.0127,146.54,105.332,105.518,0.000290052,0.0416634,21.0048,562.8,-0.0159228,0.0,0.0
306,76.25,22.7479,24.1731,143.231,105.344,105.265,0.000296913,0.0416331,21.0045,562.8,0.00679616,0.0,0.0
308,76.75,22.4083,24.0783,146.876,105.354,104.908,0.000305695,0.0416085,21.0044,562.79,0.0383816,0.0,0.0
310,77.25,22.6313,24.0295,143.915,105.38,105.105,0.000315711,0.0415886,21.0041,562.81,0.0236228,0.0,0.0
312,77.75,22.5098,23.8397,142.086,105.362,105.143,0.000323186,0.0415869,21.0038,562.8,0.0188883,0.0,0.0
314,78.25,22.0318,24.1786,151.021,105.39,105.193,0.000328667,0.0415984,21.0036,562.78,0.0169243,0.0,0.0
316,78.75,22.3554,23.7615,145.63,105.387,105.108,0.000335019,0.0416076,21.0035,562.79,0.0239627,0.0,0.0
318,79.25,22.7674,23.5372,144.581,105.41,105.232,0.000341887,0.0416008,21.0033,562.78,0.0153022,0.0,0.0
320,79.75,22.5785,23.6808,145.091,105.398,105.246,0.000352552,0.0415952,21.0032,562.79,0.0130822,0.0,0.0
322,80.25,22.4914,23.9808,145.713,105.425,105.456,0.000365785,0.0416051,21.0036,562.79,-0.00270533,0.0,0.0
324,80.75,22.0002,24.0107,149.947,105.417,105.563,0.000376502,0.0416259,21.0039,562.83,-0.0125062,0.0,0.0
326,81.25,21.8583,23.9358,143.421,105.437,105.229,0.000392842,0.0416428,21.0041,562.83,0.0178596,0.0,0.0
328,81.75,22.4014,23.6921,144.388,105.439,105.307,0.000412968,0.0416565,21.0043,562.82,0.0113571,0.0,0.0
330,82.25,22.6413,23.5493,150.048,105.46,105.578,0.000426717,0.0416676,21.0044,562.79,-0.0101569,0.0,0.0
332,82.75,21.6696,23.5365,147.535,105.451,105.37,0.00043137,0.0416357,21.0045,562.78,0.006933,0.0,0.0
334,83.25,22.1764,23.8999,145.889,105.472,105.349,0.000434858,0.0416099,21.0046,562.8,0.0105526,0.0,0.0
336,83.75,22.0094,23.6314,144.543,105.472,105.295,0.000433665,0.0415746,21.0047,562.81,0.0151128,0.0,0.0
338,84.25,22.4902,23.6458,141.19,105.486,105.262,0.000429508,0.0415332,21.0048,562.84,0.019223,0.0,0.0
340,84.75,22.2816,23.6574,145.125,105.487,104.988,0.000423271,0.0414996,21.0048,562.83,0.0428601,0.0,0.0
342,85.25,22.3503,23.723,147.322,105.521,105.562,0.000418856,0.0414724,21.0049,562.84,-0.00354131,0.0,0.0
344,85.75,21.8096,23.4243,141.805,105.509,105.419,0.000415855,0.0414608,21.0049,562.84,0.00766458,0.0,0.0
346,86.25,22.1106,23.6991,140.306,105.524,105.335,0.000413423,0.0414273,21.0049,562.86,0.016201,0.0,0.0
348,86.75,21.9199,23.1519,148.99,105.513,105.622,0.000413878,0.0414002,21.005,562.86,-0.00938073,0.0,0.0
350,87.25,22.5777,23.2155,143.396,105.537,105.343,0.000414246,0.0413919,21.005,562.86,0.0166843,0.0,0.0
352,87.75,22.2106,23.1372,146.022,105.542,105.43,0.000414544,0.0413851,21.005,562.84,0.00957136,0.0,0.0
354,88.25,22.2084,23.6207,143.97,105.564,105.014,0.000414785,0.0414069,21.0051,562.85,0.0472871,0.0,0.0
356,88.75,22.3274,23.263,142.594,105.549,105.494,0.000407327,0.0414174,21.0052,562.83,0.00471097,0.0,0.0
358,89.25,21.8797,23.7675,147.647,105.573,105.645,0.000394398,0.0414194,21.0053,562.79,-0.00611552,0.0,0.0
360,89.75,22.3402,23.6643,144.688,105.571,105.195,0.000376274,0.0414211,21.0054,562.76,0.0323086,0.0,0.0
362,90.25,22.2853,23.6338,143.64,105.58,105.264,0.000354708,0.0414224,21.0054,562.72,0.0271444,0.0,0.0
364,90.75,21.3366,23.3769,147.674,105.577,105.52,0.000330866,0.0414235,21.0055,562.74,0.00486401,0.0,0.0
366,91.25,21.8222,23.118,144.736,105.596,105.239,0.000305818,0.0414243,21.0055,562.78,0.030642,0.0,0.0
368,91.75,22.5026,22.852,143.856,105.601,105.577,0.00028107,0.0414251,21.0056,562.8,0.00206256,0.0,0.0
370,92.25,21.7797,23.4749,143.915,105.615,105.488,0.000257009,0.0414256,21.0056,562.78,0.0108413,0.0,0.0
372,92.75,21.1694,23.1812,145.185,105.612,105.521,0.000236246,0.0414261,21.0056,562.81,0.00782942,0.0,0.0
374,93.25,22.0664,23.1038,143.138,105.625,105.595,0.000218281,0.0414193,21.0056,562.77,0.00252935,0.0,0.0
376,93.75,21.781,23.4518,143.97,105.624,105.331,0.000203729,0.0414073,21.0057,562.8,0.025108,0.0,0.0
378,94.25,21.7536,23.1436,146.18,105.64,105.433,0.000191942,0.0413905,21.0057,562.78,0.0176917,0.0,0.0
380,94.75,21.6453,23.5455,145.211,105.634,105.227,0.000182395,0.0413704,21.0057,562.79,0.0349407,0.0,0.0
382,95.25,21.8355,23.2921,147.047,105.645,105.34,0.000170203,0.0413613,21.0057,562.8,0.0261574,0.0,0.0
384,95.75,22.4102,23.3609,149.666,105.652,105.73,0.000156314,0.0413603,21.0057,562.81,-0.00660218,0.0,0.0
386,96.25,21.4643,23.0734,143.978,105.655,105.565,0.000145065,0.0413596,21.0057,562.8,0.00769582,0.0,0.0
388,96.75,21.8693,23.2864,146.322,105.66,105.749,0.000134742,0.041359,21.0057,562.81,-0.00758744,0.0,0.0
390,97.25,21.8873,23.2832,145.868,105.667,105.442,0.000126381,0.0413585,21.0057,562.81,0.0192477,0.0,0.0
392,97.75,22.103,23.3256,143.621,105.671,105.607,0.00012566,0.0413444,21.0057,562.82,0.00551601,0.0,0.0
394,98.25,21.481,23.4711,141.196,105.674,105.742,0.000125076,0.0413331,21.0057,562.81,-0.00586842,0.0,0.0
396,98.75,21.9167,22.9513,145.195,105.68,106.028,0.000127787,0.0413239,21.0057,562.77,-0.02972,0.0,0.0
398,99.25,21.5339,23.038,143.582,105.687,105.598,0.00013285,0.0413164,21.0053,562.76,0.00768505,0.0,0.0
400,99.75,21.9433,22.5633,144.001,105.691,105.811,0.000136951,0.0413104,21.0049,562.75,-0.0102438,0.0,0.0
402,100.25,21.8206,22.3129,144.856,105.697,105.486,0.000140273,0.0413198,21.0046,562.75,0.0180619,0.0,0.0
404,100.75,21.7901,22.8808,148.186,105.709,105.238,0.000142964,0.0413404,21.0044,562.77,0.0403828,0.0,0.0
406,101.25,21.9489,23.1125,148.677,105.706,105.845,0.000145143,0.0413571,21.0042,562.77,-0.0119204,0.0,0.0
408,101.75,21.7572,23.0287,144.084,105.698,105.673,0.000146909,0.0413706,21.0041,562.76,0.00212832,0.0,0.0
410,102.25,21.224,22.7953,144.839,105.685,105.377,0.000160445,0.0413958,21.0039,562.76,0.026395,0.0,0.0
412,102.75,21.6292,23.1711,143.908,105.717,105.503,0.00017141,0.0414292,21.0038,562.8,0.0183234,0.0,0.0
414,103.25,21.8045,23.2278,140.406,105.713,105.369,0.000186346,0.0414419,21.0038,562.83,0.0294265,0.0,0.0
416,103.75,21.4108,22.8847,146.677,105.716,105.458,0.000198444,0.0414393,21.0037,562.82,0.0221611,0.0,0.0
418,104.25,21.1983,23.4423,144.802,105.722,105.383,0.000194925,0.0414371,21.0036,562.83,0.0289858,0.0,0.0
420,104.75,21.3881,22.5552,144.282,105.731,105.939,0.000192074,0.0414218,21.0036,562.83,-0.0177879,0.0,0.0
422,105.25,21.6211,22.1288,141.417,105.734,106.003,0.000178936,0.0414094,21.0036,562.82,-0.0229814,0.0,0.0
424,105.75,21.4815,23.2666,142.928,105.729,105.603,0.000158548,0.0414136,21.0035,562.84,0.0107497,0.0,0.0
426,106.25,21.2806,22.8884,144.085,105.726,105.917,0.00013885,0.04143,21.0035,562.79,-0.0162766,0.0,0.0
428,106.75,21.7334,22.9123,145.074,105.736,105.501,0.000120029,0.0414289,21.0035,562.79,0.0201462,0.0,0.0
430,107.25,21.4872,22.9078,147.091,105.74,105.727,0.000104785,0.0414151,21.0035,562.79,0.00112029,0.0,0.0
432,107.75,21.1522,22.8208,148.329,105.746,106.053,0.000102115,0.0414111,21.0035,562.77,-0.0261846,0.0,0.0
434,108.25,21.6712,22.5859,147.16,105.736,105.522,9.99534e-05,0.0414143,21.0035,562.81,0.0183137,0.0,0.0
436,108.75,21.7152,22.7362,145.719,105.75,105.297,9.82022e-05,0.0414313,21.0034,562.79,0.0387714,0.0,0.0
438,109.25,21.457,23.0128,144.487,105.749,105.677,0.000113659,0.0414579,21.0034,562.81,0.00610869,0.0,0.0
440,109.75,21.8193,22.6687,145.18,105.75,105.54,0.000126179,0.0414723,21.0035,562.8,0.0180221,0.0,0.0
442,110.25,21.5414,22.599,140.803,105.742,105.641,0.00013632,0.0414776,21.0037,562.8,0.0086762,0.0,0.0
444,110.75,21.543,23.328,151.675,105.764,105.386,0.000166332,0.0414818,21.0037,562.78,0.0323978,0.0,0.0
446,111.25,21.2954,23.1339,149.699,105.757,105.506,0.000190642,0.0414498,21.0036,562.8,0.0214382,0.0,0.0
448,111.75,21.2582,22.702,148.56,105.765,105.861,0.000218814,0.0413919,21.0036,562.8,-0.00821178,0.0,0.0
450,112.25,21.3942,22.6342,144.862,105.769,105.477,0.000241632,0.0413451,21.0036,562.83,0.0250026,0.0,0.0
452,112.75,21.6068,22.7814,143.596,105.764,105.315,0.000259478,0.0413071,21.0035,562.84,0.0385201,0.0,0.0
454,113.25,21.3727,22.6371,145.623,105.754,105.456,0.000273359,0.04129,21.0035,562.83,0.0255392,0.0,0.0
456,113.75,21.2996,22.965,145.978,105.768,105.525,0.000271277,0.0412761,21.0035,562.83,0.0207809,0.0,0.0
458,114.25,22.3721,22.3296,147.377,105.75,105.397,0.000269591,0.0412721,21.0035,562.84,0.0302132,0.0,0.0
460,114.75,21.0989,22.6279,143.924,105.77,105.732,0.000248852,0.0412752,21.0035,562.84,0.00321386,0.0,0.0
462,115.25,21.2012,22.4171,143.773,105.755,105.476,0.000232053,0.041285,21.0035,562.84,0.0239304,0.0,0.0
464,115.75,21.5613,22.8482,140.819,105.767,105.688,0.000218446,0.0412993,21.0035,562.83,0.00674983,0.0,0.0
466,116.25,21.0436,22.483,142.091,105.752,105.58,0.000184433,0.0413038,21.0034,562.84,0.0147737,0.0,0.0
468,116.75,21.8307,22.5099,142.946,105.77,105.693,0.000156881,0.0413009,21.0034,562.82,0.00660113,0.0,0.0
470,117.25,21.1217,22.4076,145.784,105.752,105.661,0.000133355,0.0413058,21.0034,562.82,0.00775724,0.0,0.0
472,117.75,21.6488,22.6426,145.788,105.773,106.035,0.000114299,0.0413161,21.0034,562.83,-0.0223977,0.0,0.0
474,118.25,21.4762,23.0564,143.624,105.76,105.758,0.000103321,0.0413246,21.0034,562.84,0.000154196,0.0,0.0
476,118.75,21.4921,22.8855,146.525,105.787,105.896,9.84405e-05,0.0413041,21.0034,562.85,-0.0093559,0.0,0.0
478,119.25,21.6275,22.8446,146.636,105.757,105.527,9.44874e-05,0.0412876,21.0034,562.84,0.0196416,0.0,0.0
480,119.75,21.694,22.6285,143.606,105.769,105.884,0.000102177,0.0412598,21.0034,562.82,-0.00976393,0.0,0.0
482,120.25,21.6691,22.7874,143.876,105.758,105.641,0.000108405,0.0412245,21.0034,562.81,0.0100173,0.0,0.0
484,120.75,21.8292,22.2395,146.407,105.765,105.655,0.000125555,0.0411815,21.0034,562.81,0.00943241,0.0,0.0
486,121.25,21.2426,22.3992,145.73,105.746,105.92,0.000139446,0.0411337,21.0034,562.81,-0.0148956,0.0,0.0
488,121.75,21.6588,22.5857,143.08,105.762,105.691,0.000161597,0.0411166,21.0034,562.8,0.00603326,0.0,0.0
490,122.25,21.5267,22.1286,141.963,105.754,105.689,0.000179538,0.041122,21.0034,562.8,0.00558605,0.0,0.0
492,122.75,20.9182,22.3168,141.355,105.754,105.738,0.000194071,0.0411265,21.0034,562.79,0.00135748,0.0,0.0
494,123.25,21.1674,22.7236,143.942,105.756,105.936,0.000225226,0.0411164,21.0034,562.79,-0.01538,0.0,0.0
496,123.75,21.0002,22.4655,143.237,105.753,105.618,0.000250462,0.0411083,21.0034,562.79,0.0115348,0.0,0.0
498,124.25,21.1678,23.1098,146.509,105.765,105.568,0.000287871,0.0411153,21.0034,562.78,0.0168522,0.0,0.0
500,124.75,21.3548,22.6922,145.92,105.762,105.661,0.000318173,0.041121,21.0034,562.83,0.00866111,0.0,0.0
502,125.25,21.3989,22.3094,146.226,105.753,105.614,0.000347567,0.0411472,21.0034,562.84,0.0118902,0.0,0.0
504,125.75,20.9978,22.9142,151.65,105.764,105.931,0.000371376,0.0411877,21.0034,562.84,-0.0143275,0.0,0.0
506,126.25,21.2433,22.3088,147.374,105.763,105.816,0.000376115,0.0412205,21.0034,562.83,-0.00453487,0.0,0.0
508,126.75,21.451,22.135,144.211,105.761,105.866,0.000379953,0.0412743,21.0034,562.85,-0.00893493,0.0,0.0
510,127.25,21.2751,22.491,147.276,105.758,105.785,0.000357618,0.0413179,21.0034,562.83,-0.00234023,0.0,0.0
512,127.75,21.7626,22.1972,146.143,105.766,105.633,0.000339527,0.0413396,21.0034,562.83,0.0114185,0.0,0.0
514,128.25,21.211,22.3859,146.826,105.756,105.9,0.000303079,0.0413572,21.0034,562.82,-0.0123896,0.0,0.0
516,128.75,21.299,22.2961,148.554,105.758,105.78,0.000273556,0.0413715,21.0034,562.82,-0.00193846,0.0,0.0
518,129.25,20.8753,22.2783,146.724,105.756,105.507,0.000249643,0.041383,21.0034,562.84,0.0213264,0.0,0.0
520,129.75,20.9993,22.7166,147.941,105.754,105.748,0.000223303,0.0414059,21.0034,562.84,0.000560701,0.0,0.0
522,130.25,21.6855,21.9484,145.641,105.757,105.561,0.000195696,0.0414245,21.0034,562.85,0.0167274,0.0,0.0
524,130.75,20.9567,22.2382,148.019,105.755,105.664,0.000173334,0.0414396,21.0033,562.83,0.00780679,0.0,0.0
526,131.25,20.9328,22.117,145.312,105.757,105.728,0.000174586,0.0414518,21.0031,562.84,0.00252719,0.0,0.0
528,131.75,21.1483,22.1986,141.299,105.753,105.949,0.0001756,0.0414617,21.003,562.87,-0.0167465,0.0,0.0
530,132.25,21.4729,22.4272,146.211,105.746,106.106,0.000176421,0.0414962,21.0029,562.88,-0.0307121,0.0,0.0
532,132.75,21.0606,22.3298,140.942,105.76,106.204,0.000208575,0.0415241,21.0029,562.85,-0.0379295,0.0,0.0
534,133.25,21.2743,22.3443,144.142,105.754,105.828,0.00023462,0.0415468,21.0032,562.85,-0.00632917,0.0,0.0
536,133.75,20.9426,22.0326,142.718,105.756,105.851,0.000260563,0.0415651,21.0041,562.85,-0.008099,0.0,0.0
538,134.25,20.6616,22.9125,142.031,105.75,105.885,0.000279664,0.0415512,21.0044,562.83,-0.011542,0.0,0.0
540,134.75,21.1106,22.4101,147.98,105.754,105.586,0.000293414,0.0415142,21.0044,562.81,0.0144001,0.0,0.0
542,135.25,21.4477,22.1909,144.592,105.75,105.71,0.000303276,0.0414842,21.0044,562.83,0.00346609,0.0,0.0
544,135.75,21.3306,22.2258,150.449,105.757,105.511,0.000310116,0.0414599,21.0044,562.86,0.0210391,0.0,0.0
546,136.25,21.5295,21.8228,143.835,105.752,105.782,0.000315657,0.0414947,21.0044,562.88,-0.0025279,0.0,0.0
548,136.75,21.2179,22.376,144.741,105.752,105.613,0.000316319,0.041535,21.0044,562.86,0.0119053,0.0,0.0
550,137.25,21.5116,22.1348,144.208,105.755,105.752,0.000312173,0.0415458,21.0044,562.85,0.000238302,0.0,0.0
552,137.75,21.2684,22.229,146.186,105.749,105.999,0.00030532,0.04155,21.0044,562.85,-0.0213222,0.0,0.0
554,138.25,20.9872,22.4645,145.409,105.763,105.883,0.000293602,0.0415404,21.0044,562.84,-0.010227,0.0,0.0
556,138.75,20.6101,21.9785,143.223,105.746,105.899,0.00028411,0.0415327,21.0044,562.83,-0.0130618,0.0,0.0
558,139.25,21.1077,21.766,140.352,105.757,105.62,0.000263103,0.0415537,21.0046,562.83,0.0117771,0.0,0.0
560,139.75,21.1261,22.1658,142.97,105.753,106.016,0.000246087,0.0415707,21.005,562.84,-0.0224274,0.0,0.0
562,140.25,21.0965,22.2896,144.472,105.758,105.631,0.000228603,0.0415832,21.0054,562.85,0.0108876,0.0,0.0
564,140.75,21.5507,21.9687,146.733,105.76,105.689,0.000214441,0.041582,21.0058,562.85,0.00612809,0.0,0.0
566,141.25,20.9745,22.0523,143.058,105.746,106.013,0.000200422,0.04158,21.0061,562.84,-0.0228436,0.0,0.0
568,141.75,21.4592,22.567,145.928,105.759,105.653,0.000186774,0.0416193,21.006,562.85,0.00908555,0.0,0.0
570,142.25,21.0624,22.3042,144.924,105.757,106.089,0.000169986,0.0416511,21.0058,562.84,-0.0283396,0.0,0.0
572,142.75,21.5192,21.7199,145.333,105.745,105.623,0.000151229,0.0416701,21.0057,562.83,0.0104848,0.0,0.0
574,143.25,21.2862,22.2498,146.878,105.754,105.662,0.000136036,0.0416794,21.0056,562.84,0.00785851,0.0,0.0
576,143.75,21.3563,21.9674,143.631,105.748,105.879,0.000116726,0.0416797,21.0055,562.84,-0.01117,0.0,0.0
578,144.25,21.1542,21.9462,145.38,105.751,105.926,9.47819e-05,0.0416735,21.0055,562.86,-0.0149388,0.0,0.0
580,144.75,21.3306,22.206,141.06,105.745,105.958,7.57334e-05,0.0416757,21.0054,562.88,-0.0181856,0.0,0.0
582,145.25,20.9669,22.4671,146.351,105.75,105.697,5.91579e-05,0.0416839,21.0054,562.86,0.00454284,0.0,0.0
584,145.75,21.2448,22.6748,148.144,105.737,105.889,4.50955e-05,0.0416906,21.0054,562.87,-0.0130251,0.0,0.0
586,146.25,21.3429,22.463,147.227,105.749,105.779,3.31323e-05,0.0417232,21.0058,562.86,-0.00257806,0.0,0.0
588,146.75,21.2111,21.9499,141.941,105.739,105.78,,0.0417497,,562.86,-0.00356558,0.0,0.0
590,147.25,21.4422,22.275,145.52,105.755,105.824,,0.0417711,,562.87,-0.00593532,0.0,0.0
592,147.75,21.5903,22.7739,144.898,105.726,105.354,,0.0417885,,562.88,0.031866,0.0,0.0
594,148.25,21.4178,22.2811,146.51,105.753,105.837,,0.0418025,,562.87,-0.00715793,0.0,0.0
596,148.75,21.2037,22.0716,144.28,105.75,105.599,,0.0418548,,562.87,0.0129218,0.0,0.0
598,149.25,20.8394,22.1802,143.028,105.736,105.578,,0.0418971,,562.9,0.0134839,0.0,0.0
600,149.75,21.4027,22.4893,147.091,105.732,105.898,,,,562.9,-0.0141752,0.0,0.0
602,150.25,20.9094,21.9767,143.212,105.732,105.808,,,,562.88,-0.00645758,0.0,0.0
604,150.75,21.1445,22.2404,142.789,105.725,105.388,,,,562.87,0.0288762,0.0,0.0
606,151.25,21.04,21.6999,145.697,105.736,105.432,,,,562.86,0.026094,0.0,0.0
608,151.75,20.7508,22.1389,147.765,105.726,105.29,,,,562.85,0.0373862,0.0,0.0
610,152.25,21.4541,21.8524,146.165,105.733,105.639,,,,562.84,0.00804058,0.0,0.0
612,152.75,21.2705,22.1308,144.746,105.72,105.584,,,,562.85,0.0116307,0.0,0.0
614,153.25,21.0287,22.1034,145.441,105.736,105.544,,,,562.88,0.0165089,0.0,0.0
616,153.75,21.5182,22.0396,143.112,105.71,105.719,,,,562.86,-0.000765629,0.0,0.0
618,154.25,20.7196,22.6409,143.699,105.71,105.417,,,,562.83,0.0251316,0.0,0.0
620,154.75,21.2999,22.0402,146.779,105.701,105.479,,,,562.85,0.0189465,0.0,0.0
622,155.25,21.0756,21.8448,146.283,105.708,105.841,,,,562.84,-0.0113455,0.0,0.0
624,155.75,20.9924,22.096,146.61,105.699,105.758,,,,562.84,-0.00501659,0.0,0.0
626,156.25,21.1698,21.9967,143.691,105.7,105.88,,,,562.83,-0.0153362,0.0,0.0
628,156.75,21.1504,22.0867,145.859,105.688,105.519,,,,562.84,0.0145422,0.0,0.0
630,157.25,21.4977,22.1998,146.732,105.696,105.299,,,,562.87,0.034019,0.0,0.0