File: 01_Data/Hemp_Sheets/Cone/Hemp_Sheet_Cone_HF25Scan_220524_R2.csv
Names,Time,Stack TC,Smoke TC,Exh Press,Smoke Comp,Smoke Meas,CO Meter,CO2 Meter,O2 Meter,Sample Mass,Ext Coeff,Start Test,Flame Verif
Chan Gain,,500,500,1,1,1,1,1,1,1,1,1.0,1.0
Offset,,0,0,0.139323,0,0,0,0,0,0,0,0.0,0.0
Gain,,1,1,25.011,13.8491,15.2622,1,1,1,1.00087,1.03118,1.0,1.0
Units,sec,C,C,Pa,%,%,%,%,%,g,/m,,
Baseline,,23.3891,23.9943,146.028,105.132,104.973,0.000264809,0.0420669,21.0027,-452.384,0.0137725,,
2,0.25,21.8699,23.2722,146.788,104.946,104.511,2.24676e-05,0.0499377,20.9944,575.311,0.0376181,0.0,0.0
4,0.75,21.7842,23.1494,144.972,104.956,104.818,5.48047e-05,0.050054,20.9941,575.601,0.011888,0.0,0.0
6,1.25,21.1012,22.1525,146.129,104.944,104.595,8.09977e-05,0.0501625,20.9941,575.571,0.0301057,0.0,0.0
8,1.75,20.9204,21.824,145.259,104.942,104.591,0.000104636,0.0502634,20.9942,575.431,0.0303185,0.0,0.0
10,2.25,21.2026,22.2994,142.599,104.958,104.94,0.000123782,0.0503451,20.9942,575.601,0.00158174,0.0,0.0
12,2.75,20.839,21.5979,140.733,104.948,104.923,0.00013687,0.0504113,20.9942,575.411,0.00219301,0.0,0.0
14,3.25,20.8303,21.7155,143.278,104.955,105.162,0.00014747,0.0506289,20.9942,575.551,-0.017876,0.0,0.0
16,3.75,19.7033,20.552,150.729,104.95,104.656,0.000157268,0.0508052,20.994,575.461,0.0253725,0.0,0.0
18,4.25,19.6726,20.1952,142.551,104.963,105.179,0.000165203,0.0510574,20.9936,575.431,-0.0186291,0.0,0.0
20,4.75,19.1086,20.1648,143.811,104.978,105.077,0.000171631,0.0512617,20.9933,575.461,-0.00853828,0.0,0.0
22,5.25,19.4015,20.1406,146.033,104.962,105.085,0.00017926,0.0514819,20.993,575.431,-0.0106038,0.0,0.0
24,5.75,19.6828,20.3273,147.024,104.96,105.126,0.000185439,0.0516603,20.9928,575.411,-0.0143534,0.0,0.0
26,6.25,20.1421,20.1863,147.102,104.968,104.74,0.000194077,0.0517364,20.9929,575.471,0.0197007,0.0,0.0
28,6.75,19.9531,20.6843,145.262,104.967,104.569,0.000201074,0.051798,20.9932,575.441,0.0343606,0.0,0.0
30,7.25,19.801,20.453,146.196,104.969,104.564,0.000207951,0.0517543,20.9934,575.441,0.0349869,0.0,0.0
32,7.75,20.0383,20.8304,141.038,104.976,104.197,0.000213522,0.0516348,20.9935,575.451,0.0673786,0.0,0.0
34,8.25,19.9053,20.6533,146.711,104.973,104.357,0.000220457,0.0515379,20.9937,575.471,0.0531849,0.0,0.0
36,8.75,19.6677,20.6701,147.261,104.973,104.024,0.000226074,0.0511861,20.9938,575.491,0.0821731,0.0,0.0
38,9.25,19.9402,20.2221,144.788,104.971,104.063,0.000242667,0.0509012,20.9939,575.441,0.0786302,0.0,0.0
40,9.75,20.2161,20.8619,141.348,104.98,103.925,0.000256108,0.0505337,20.9939,575.361,0.0913868,0.0,0.0
42,10.25,20.2967,20.5191,151.585,104.981,104.059,0.000285495,0.0502361,20.994,575.411,0.0797515,0.0,0.0
44,10.75,20.0609,20.3473,147.793,104.983,103.915,0.000325949,0.0500087,20.9942,575.391,0.0924521,0.0,0.0
46,11.25,19.8393,20.5826,147.11,104.993,104.165,0.000358716,0.0498245,20.9944,575.431,0.0715818,0.0,0.0
48,11.75,20.1656,20.7869,145.345,104.991,103.988,0.000421033,0.0496616,20.9945,575.441,0.0868223,0.0,0.0
50,12.25,19.9405,20.5574,145.751,104.99,103.53,0.000503707,0.0495297,20.9946,575.431,0.126663,0.0,0.0
52,12.75,20.1011,20.756,148.176,104.983,103.285,0.000608437,0.0494228,20.9947,575.421,0.147552,0.0,0.0
54,13.25,20.0233,20.6417,147.9,104.974,103.814,0.000727257,0.0502258,20.9935,575.431,0.100526,0.0,0.0
56,13.75,19.7027,20.8133,145.068,104.987,102.843,0.000854922,0.0508762,20.9925,575.471,0.186636,0.0,0.0
58,14.25,20.09,20.7008,147.043,104.981,102.544,0.000986609,0.0578656,20.9825,575.481,0.212502,0.0,0.0
60,14.75,20.2551,20.7303,145.731,104.991,103.969,0.00111318,0.063527,20.9744,575.401,0.0884423,0.0,0.0
62,15.25,20.409,20.3298,142.817,104.997,106.007,0.00123362,0.0767191,20.946,575.401,-0.0866169,0.0,1.0
64,15.75,19.9154,20.4851,135.655,104.992,108.226,0.00134788,0.0951505,20.923,575.411,-0.2744,0.0,1.0
66,16.25,20.1964,20.4309,135.458,104.984,107.926,0.00145547,0.118615,20.8856,575.331,-0.249987,0.0,1.0
68,16.75,20.2353,20.8795,133.269,104.996,109.728,0.00154262,0.145302,20.8553,575.231,-0.398789,0.0,1.0
70,17.25,21.2179,20.953,133.616,104.967,108.667,0.00163399,0.166919,20.8159,575.141,-0.313339,0.0,1.0
72,17.75,20.7528,21.6905,127.541,104.981,108.98,0.001708,0.199624,20.784,575.071,-0.338151,0.0,1.0
74,18.25,21.8278,21.3575,124.931,104.979,109.538,0.00177695,0.226114,20.7581,575.011,-0.384492,0.0,1.0
76,18.75,21.7858,21.4602,125.436,104.986,110.25,0.00184091,0.257796,20.7267,574.901,-0.442528,0.0,1.0
78,19.25,22.6481,21.8313,129.158,104.961,109.295,0.00189272,0.283458,20.7012,574.88,-0.365961,0.0,1.0
80,19.75,23.4178,22.3019,125.527,104.975,110.257,0.00193835,0.310502,20.6797,574.77,-0.44405,0.0,1.0
82,20.25,22.7997,20.8665,130.526,104.964,109.504,0.00197532,0.332408,20.6614,574.77,-0.382997,0.0,0.0
84,20.75,22.8679,20.8638,124.733,104.988,109.614,0.00200848,0.351467,20.6466,574.68,-0.390069,0.0,0.0
86,21.25,23.5448,21.9458,125.131,104.976,109.545,0.00203823,0.368089,20.6346,574.59,-0.385399,0.0,0.0
88,21.75,24.8872,22.0949,129.391,104.983,109.089,0.00207199,0.381552,20.6249,574.52,-0.347086,0.0,0.0
90,22.25,25.1864,22.8443,127.582,104.982,110.155,0.00210803,0.389393,20.617,574.47,-0.435057,0.0,0.0
92,22.75,25.1008,22.9804,126.989,104.988,109.765,0.00213723,0.395745,20.6107,574.42,-0.402441,0.0,0.0
94,23.25,26.3626,23.5755,133.058,104.977,108.744,0.00221764,0.396435,20.6055,574.37,-0.318934,0.0,0.0
96,23.75,26.406,23.8193,130.632,104.989,107.873,0.00233386,0.392985,20.6114,574.35,-0.245135,0.0,0.0
98,24.25,27.005,24.2211,129.547,104.978,106.509,0.00249531,0.383755,20.6163,574.3,-0.130962,0.0,0.0
100,24.75,27.5896,24.4084,135.783,104.997,106.63,0.00268665,0.370485,20.6342,574.29,-0.139562,0.0,0.0
102,25.25,27.4672,24.9663,140.958,104.985,106.317,0.00284164,0.359737,20.6486,574.27,-0.114063,0.0,0.0
104,25.75,28.0267,25.1256,139.959,104.991,105.492,0.00311096,0.35103,20.6604,574.26,-0.0431395,0.0,0.0
106,26.25,27.9833,25.6063,139.294,104.987,106.737,0.00345853,0.327105,20.683,574.24,-0.149558,0.0,0.0
108,26.75,28.2378,25.4433,141.077,105.002,105.99,0.00385006,0.307726,20.7013,574.25,-0.0847494,0.0,0.0
110,27.25,28.0574,25.7775,141.21,104.985,105.068,0.0042662,0.283955,20.7279,574.27,-0.00712069,0.0,0.0
112,27.75,27.8979,26.0523,147.337,104.988,105.665,0.00470003,0.2647,20.7495,574.22,-0.0581231,0.0,0.0
114,28.25,28.1573,26.4983,140.013,104.982,105.645,0.00513851,0.245486,20.7727,574.23,-0.056918,0.0,0.0
116,28.75,27.8834,26.239,145.456,105,105.03,0.00549368,0.226665,20.7914,574.21,-0.00259424,0.0,0.0
118,29.25,27.6885,26.1378,140.748,104.992,105.236,0.00593712,0.21142,20.8094,574.23,-0.0210379,0.0,0.0
120,29.75,27.5893,26.4623,148.289,105.011,105.176,0.00629631,0.195062,20.8264,574.25,-0.014234,0.0,0.0
122,30.25,28.1068,25.9798,142.425,104.995,105.586,0.00663768,0.181813,20.8402,574.25,-0.0507231,0.0,0.0
124,30.75,27.0648,26.2779,143.534,105.002,105.057,0.00695958,0.168924,20.8544,574.23,-0.00477492,0.0,0.0
126,31.25,27.3411,26.1124,146.778,104.996,105.281,0.00722032,0.158484,20.8659,574.24,-0.0245934,0.0,0.0
128,31.75,26.7616,26.7495,147.234,105.007,105.907,0.00744919,0.148289,20.8761,574.24,-0.0772346,0.0,0.0
130,32.25,26.8815,26.2565,144.032,104.993,105.423,0.00763457,0.140031,20.8851,574.23,-0.0369328,0.0,0.0
132,32.75,27.1065,26.1123,146.346,105.007,105.403,0.0077575,0.132098,20.8924,574.23,-0.0340127,0.0,0.0
134,33.25,27.3406,26.1603,145.807,105.012,104.94,0.00783258,0.125673,20.9,574.24,0.00617011,0.0,0.0
136,33.75,26.3443,26.2065,145.914,105.005,105.019,0.00785959,0.120469,20.9062,574.24,-0.00119862,0.0,0.0
138,34.25,26.9647,25.8007,146.04,105.005,105.285,0.00785104,0.114943,20.913,574.21,-0.0240361,0.0,0.0
140,34.75,26.2608,26.5847,141.44,105.012,105.193,0.00784411,0.110467,20.9185,574.2,-0.0155269,0.0,0.0
142,35.25,26.704,26.6162,144.936,104.986,105.079,0.00776934,0.106221,20.9242,574.19,-0.00800996,0.0,0.0
144,35.75,26.1053,26.1038,143.572,104.999,104.794,0.00770878,0.102222,20.9289,574.2,0.0176928,0.0,0.0
146,36.25,26.3894,26.5332,144.662,105,104.827,0.00760323,0.0989831,20.9339,574.21,0.0149114,0.0,0.0
148,36.75,25.9648,26.3478,145.248,104.992,105.329,0.00748607,0.0953487,20.9381,574.22,-0.0290016,0.0,0.0
150,37.25,26.0009,25.7979,146.735,104.994,105.424,0.00736267,0.0924048,20.9423,574.21,-0.0368998,0.0,0.0
152,37.75,26.2451,25.6061,145.499,104.997,105.447,0.00722387,0.0892463,20.9457,574.21,-0.0386784,0.0,0.0
154,38.25,25.7465,25.7904,147.395,104.99,105.702,0.00707646,0.0866879,20.9493,574.21,-0.0611303,0.0,0.0
156,38.75,25.5991,25.7748,142.185,105.003,105.152,0.00695707,0.0840085,20.9523,574.2,-0.0128031,0.0,0.0
158,39.25,25.5846,25.2059,142.531,104.989,104.915,0.00679598,0.0818382,20.9546,574.18,0.00636838,0.0,0.0
160,39.75,25.5969,25.7045,146.159,104.983,104.91,0.00660757,0.0795015,20.9579,574.17,0.0062283,0.0,0.0
162,40.25,23.6524,24.1979,147.519,104.978,105.033,0.00645495,0.0776087,20.9605,574.13,-0.00473176,0.0,0.0
164,40.75,23.5111,23.6293,144.913,104.99,105.21,0.00622308,0.0754838,20.9629,574.13,-0.0189387,0.0,0.0
166,41.25,23.7226,23.3649,144.066,104.98,104.834,0.00603527,0.0737627,20.965,574.13,0.0125977,0.0,0.0
168,41.75,23.2587,24.3889,145.388,104.999,105.057,0.00577024,0.07175,20.9667,574.14,-0.00506999,0.0,0.0
170,42.25,23.4708,23.9678,141.799,104.976,105.142,0.00555557,0.0701197,20.9681,574.16,-0.0142913,0.0,0.0
172,42.75,24.0515,24.5425,143.054,104.988,105.041,0.00533219,0.0684669,20.9692,574.14,-0.00461255,0.0,0.0
174,43.25,24.6869,25.1052,143.316,104.98,104.967,0.00510672,0.066829,20.9714,574.16,0.00107501,0.0,0.0
176,43.75,23.0134,23.7971,145.08,104.982,105.02,0.00487666,0.0655023,20.9737,574.19,-0.00327756,0.0,0.0
178,44.25,24.0242,24.4199,143.495,104.979,104.887,0.00464764,0.0639067,20.9759,574.21,0.00786821,0.0,0.0
180,44.75,24.1936,24.8771,146.949,104.981,105.101,0.0044213,0.0626142,20.9778,574.16,-0.0103679,0.0,0.0
182,45.25,24.2227,24.8775,144.48,104.973,105.018,0.00420122,0.0613727,20.9792,574.18,-0.00392211,0.0,0.0
184,45.75,24.1482,24.5741,144.492,104.972,104.823,0.00402296,0.0601918,20.9809,574.19,0.0128303,0.0,0.0
186,46.25,24.0597,24.1855,143.431,104.975,105.073,0.00387856,0.0590697,20.9822,574.17,-0.0084719,0.0,0.0
188,46.75,24.167,25.2627,144.859,104.966,105.036,0.00369115,0.0580116,20.9836,574.08,-0.00606534,0.0,0.0
190,47.25,24.1462,24.6116,146.236,104.974,104.832,0.00347596,0.0569745,20.9851,574.05,0.0122122,0.0,0.0
192,47.75,24.0248,24.4251,144.884,104.98,104.87,0.00323062,0.0559725,20.9866,574.07,0.00946365,0.0,0.0
194,48.25,23.8792,24.9571,146.624,104.956,105.037,0.00303191,0.0551609,20.988,574.03,-0.00698364,0.0,0.0
196,48.75,23.9617,24.1391,146.899,104.959,104.664,0.00283235,0.0545035,20.9891,574.08,0.0254531,0.0,0.0
198,49.25,23.5954,24.0186,150.533,104.947,104.813,0.00263597,0.0535336,20.99,574.07,0.0116016,0.0,0.0
200,49.75,23.7661,24.7183,145.684,104.943,105.197,0.00244353,0.0527479,20.9908,574.08,-0.0218994,0.0,0.0
202,50.25,23.3574,24.1795,149.415,104.958,105.044,0.0022576,0.0519822,20.9918,574.13,-0.00740667,0.0,0.0
204,50.75,23.5817,24.1019,146.017,104.935,104.48,0.00210699,0.0512454,20.9926,574.13,0.0392545,0.0,0.0
206,51.25,23.1626,24.2986,147.149,104.946,105.007,0.00192046,0.0505624,20.9938,574.12,-0.00528956,0.0,0.0
208,51.75,23.3737,24.1154,145.185,104.92,105.052,0.00176938,0.0499316,20.9947,574.17,-0.0113266,0.0,0.0
210,52.25,23.0276,23.8059,146.374,104.931,105.158,0.00160079,0.0493344,20.9956,574.18,-0.0195546,0.0,0.0
212,52.75,23.4009,24.0849,145.827,104.919,105.245,0.00146424,0.0487731,20.9966,574.19,-0.0281006,0.0,0.0
214,53.25,22.765,24.2155,147.423,104.923,104.977,0.00135363,0.0482394,20.9974,574.17,-0.00464923,0.0,0.0
216,53.75,22.7692,23.9861,147.967,104.912,104.884,0.00123368,0.047736,20.9981,574.17,0.00239352,0.0,0.0
218,54.25,22.944,23.6784,145.679,104.923,104.879,0.00113651,0.0473283,20.9986,574.17,0.00381963,0.0,0.0
220,54.75,22.9054,24.06,146.723,104.902,104.993,0.00106388,0.0469162,20.999,574.16,-0.00787559,0.0,0.0
222,55.25,22.4924,24.2918,144.675,104.909,104.791,0.00100505,0.0465823,20.9993,574.17,0.0101799,0.0,0.0
224,55.75,22.6097,23.5719,144.908,104.908,105.123,0.000967106,0.0463119,20.9996,574.16,-0.0185135,0.0,0.0
226,56.25,22.4144,23.9213,151.018,104.899,105.005,0.000936376,0.0460247,20.9998,574.18,-0.00913732,0.0,0.0
228,56.75,22.927,23.5522,145.682,104.901,104.833,0.000909056,0.0457921,21,574.2,0.00586192,0.0,0.0
230,57.25,22.5171,23.6751,147.532,104.924,104.946,0.000886926,0.0455354,21.0002,574.19,-0.00188669,0.0,0.0
232,57.75,22.3255,23.7128,145.243,104.923,104.86,0.00084836,0.0453275,21.0003,574.19,0.00542979,0.0,0.0
234,58.25,22.5605,23.3999,143.232,104.941,104.93,0.000831919,0.0451592,21.0004,574.19,0.000971501,0.0,0.0
236,58.75,22.64,23.8706,147.2,104.944,105.083,0.000779536,0.0450228,21.0004,574.19,-0.0119728,0.0,0.0
238,59.25,22.6445,23.8235,142.599,104.966,104.923,0.000737106,0.0449396,21.0005,574.18,0.0037237,0.0,0.0
240,59.75,22.1731,23.6378,145.225,104.964,105.461,0.000702738,0.0448722,21.0006,574.16,-0.0427581,0.0,0.0
242,60.25,22.2702,23.442,141.948,105,105.318,0.000650647,0.0447767,21.0006,574.15,-0.0273537,0.0,0.0
244,60.75,22.0532,23.1312,150.314,105.008,104.902,0.000608453,0.0446993,21.0007,574.16,0.00913618,0.0,0.0
246,61.25,22.1321,23.8822,143.927,105.027,105.137,0.000569811,0.0446448,21.0007,574.19,-0.00940933,0.0,0.0
248,61.75,22.2238,23.6552,146.32,105.031,105.255,0.000534492,0.0445516,21.0011,574.19,-0.0192904,0.0,0.0
250,62.25,22.4695,23.2922,145.814,105.064,105.243,0.000505883,0.0444761,21.0015,574.21,-0.0153746,0.0,0.0
252,62.75,21.9208,23.4541,146.054,105.073,105.247,0.000486347,0.0443195,21.0018,574.21,-0.0149706,0.0,0.0
254,63.25,22.3687,23.7088,147.216,105.101,104.926,0.000470522,0.0441926,21.0021,574.22,0.0150535,0.0,0.0
256,63.75,22.0756,23.1338,142.515,105.105,104.977,0.000467402,0.0440612,21.0023,574.22,0.0109651,0.0,0.0
258,64.25,21.9412,23.4987,144.191,105.136,105.048,0.000464874,0.0439288,21.0024,574.22,0.00752129,0.0,0.0
260,64.75,22.3145,23.1859,143.349,105.141,104.991,0.000462827,0.0438145,21.0026,574.21,0.012925,0.0,0.0
262,65.25,22.2153,23.5465,145.474,105.156,104.937,0.000461168,0.0437154,21.0027,574.2,0.0188937,0.0,0.0
264,65.75,22.1219,23.4395,145.892,105.163,104.87,0.000456635,0.0436352,21.0027,574.2,0.0252553,0.0,0.0
266,66.25,22.25,23.2595,148.934,105.187,104.822,0.000450091,0.0435974,21.0028,574.21,0.0314329,0.0,0.0
268,66.75,21.7329,23.4333,142.912,105.176,105.285,0.000444791,0.0435668,21.0029,574.23,-0.00930247,0.0,0.0
270,67.25,21.7522,23.0156,147.352,105.201,105.337,0.000434438,0.0435134,21.0032,574.23,-0.0116797,0.0,0.0
272,67.75,22.1856,23.5805,142.672,105.215,105.375,0.000426051,0.0434443,21.0036,574.23,-0.0137194,0.0,0.0
274,68.25,21.6927,23.1414,150.412,105.241,105.256,0.000419897,0.0433667,21.0039,574.22,-0.00129837,0.0,0.0
276,68.75,22.0665,23.02,141.57,105.234,105.31,0.000415485,0.0432846,21.0042,574.22,-0.00656117,0.0,0.0
278,69.25,21.6208,23.0012,143.595,105.268,105.121,0.000411912,0.043218,21.0044,574.22,0.012602,0.0,0.0
280,69.75,21.893,23.2837,145.091,105.29,105.312,0.000405191,0.0431914,21.0046,574.2,-0.00188723,0.0,0.0
282,70.25,21.4231,22.8417,146.166,105.296,105.078,0.000396303,0.0431698,21.0049,574.21,0.0187259,0.0,0.0
284,70.75,21.6891,23.5657,152.354,105.29,105.254,0.000389103,0.043138,21.0051,574.23,0.00315134,0.0,0.0
286,71.25,21.35,23.359,148.316,105.327,105.249,0.000383271,0.0430993,21.0053,574.22,0.00667333,0.0,0.0
288,71.75,21.4173,22.801,148.403,105.317,105.403,0.000378548,0.0430679,21.0054,574.22,-0.0074056,0.0,0.0
290,72.25,21.2583,23.3009,145.837,105.349,105.742,0.000369875,0.0430425,21.0053,574.21,-0.0337318,0.0,0.0
292,72.75,21.6045,22.8042,148.732,105.344,105.537,0.000362849,0.043022,21.005,574.23,-0.0165434,0.0,0.0
294,73.25,21.0639,23.1796,147.136,105.361,105.603,0.000357797,0.0430053,21.0048,574.23,-0.0207623,0.0,0.0
296,73.75,21.3506,22.6843,144.064,105.375,105.36,0.000354278,0.0429509,21.0046,574.22,0.00128417,0.0,0.0
298,74.25,21.2639,23.1684,145.216,105.38,105.48,0.000351428,0.0429069,21.0044,574.23,-0.00858738,0.0,0.0
300,74.75,21.0693,22.924,149.067,105.403,105.429,0.000354859,0.0428712,21.0043,574.23,-0.00223345,0.0,0.0
302,75.25,20.9632,22.9045,144.621,105.398,105.662,0.000362805,0.0428423,21.0046,574.22,-0.0226279,0.0,0.0
304,75.75,21.1525,22.2388,146.152,105.398,105.44,0.000382895,0.0428189,21.0048,574.24,-0.0036686,0.0,0.0
306,76.25,21.1308,22.5163,142.978,105.402,105.326,0.000390015,0.0427999,21.0047,574.24,0.00648907,0.0,0.0
308,76.75,21.6615,22.4832,141.881,105.421,105.022,0.000407935,0.0427845,21.0045,574.24,0.0343155,0.0,0.0
310,77.25,21.1901,22.97,145.15,105.428,105.084,0.000427619,0.0427448,21.0044,574.24,0.0295576,0.0,0.0
312,77.75,20.7025,22.3816,146.721,105.428,105.407,0.000447393,0.0427127,21.0043,574.22,0.00185665,0.0,0.0
314,78.25,21.5969,22.7041,146.133,105.438,104.909,0.000466857,0.0426866,21.0046,574.21,0.0454827,0.0,0.0
316,78.75,20.9436,22.7499,150.304,105.44,105.249,0.0004839,0.0426565,21.0049,574.21,0.0163948,0.0,0.0
318,79.25,21.4143,22.1785,145.329,105.454,105.373,0.000498853,0.0426484,21.0049,574.2,0.00698688,0.0,0.0
320,79.75,20.9783,22.7178,146.494,105.454,105.416,0.000510965,0.0425937,21.0047,574.19,0.00326991,0.0,0.0
322,80.25,21.2285,22.6413,146.485,105.448,105.443,0.000508648,0.0425494,21.0045,574.19,0.00040759,0.0,0.0
324,80.75,20.7846,22.8447,142.055,105.454,105.733,0.000506771,0.0425271,21.0044,574.18,-0.0239063,0.0,0.0
326,81.25,21.4155,22.2723,144.047,105.447,105.27,0.000489939,0.0425091,21.0042,574.2,0.0151343,0.0,0.0
328,81.75,21.024,22.4795,143.546,105.465,105.686,0.000462525,0.0425353,21.0042,574.23,-0.0189754,0.0,0.0
330,82.25,21.0936,22.2286,144.88,105.457,105.344,0.00044032,0.0425566,21.0041,574.23,0.00967908,0.0,0.0
332,82.75,20.9587,22.4386,146.884,105.465,105.434,0.000398108,0.0425875,21.0043,574.22,0.00269321,0.0,0.0
334,83.25,21.0589,22.3155,143.732,105.459,105.376,0.000363917,0.0426125,21.0046,574.21,0.00706553,0.0,0.0
336,83.75,21.031,22.1722,146.33,105.463,105.215,0.000332399,0.0426184,21.0049,574.21,0.0212758,0.0,0.0
338,84.25,20.8625,22.1329,140.191,105.448,105.394,0.000303428,0.0426102,21.0051,574.21,0.00463984,0.0,0.0
340,84.75,21.1134,22.3501,145.078,105.44,105.92,0.000279962,0.0426037,21.0053,574.22,-0.0410644,0.0,0.0
342,85.25,21.0785,22.1953,145.394,105.435,105.525,0.000260954,0.0425711,21.0054,574.21,-0.00770993,0.0,0.0
344,85.75,20.5803,22.1457,141.146,105.422,105.827,0.000245558,0.0425447,21.0056,574.21,-0.0346713,0.0,0.0
346,86.25,20.4674,22.32,144.41,105.417,105.34,0.000233087,0.0425161,21.0057,574.21,0.00663561,0.0,0.0
348,86.75,20.7859,22.357,146.451,105.41,105.481,0.000222986,0.0424865,21.0057,574.19,-0.00609556,0.0,0.0
350,87.25,21.267,22.4458,144.131,105.405,105.22,0.000209961,0.0424697,21.0058,574.2,0.0159438,0.0,0.0
352,87.75,20.703,22.2256,142.372,105.392,105.287,0.000199411,0.0424626,21.0058,574.22,0.00901553,0.0,0.0
354,88.25,20.3739,22.0306,147.246,105.375,105.431,0.000186406,0.0424568,21.0059,574.21,-0.00486824,0.0,0.0
356,88.75,20.9893,22.4918,145.08,105.361,105.301,0.00017186,0.042493,21.0055,574.2,0.00513128,0.0,0.0
358,89.25,20.4866,21.9913,138.483,105.354,105.481,0.000155619,0.0425223,21.0052,574.19,-0.0109568,0.0,0.0
360,89.75,20.8394,22.2571,144.766,105.338,105.237,0.000138452,0.0425733,21.0049,574.18,0.00873114,0.0,0.0
362,90.25,20.9693,21.9647,148.011,105.346,105.303,0.000120726,0.0426147,21.0047,574.17,0.00366442,0.0,0.0
364,90.75,21.2297,21.9909,147.941,105.317,105.044,0.00010293,0.0426409,21.0045,574.17,0.0235045,0.0,0.0
366,91.25,20.7586,21.4806,142.541,105.289,105.177,8.78787e-05,0.0426558,21.0044,574.18,0.00964892,0.0,0.0
368,91.75,20.155,22.0657,149.426,105.286,105.094,7.51141e-05,0.0426678,21.0043,574.18,0.0165239,0.0,0.0
370,92.25,20.5764,22.2374,148.771,105.254,105.013,6.47747e-05,0.0426775,21.0042,574.19,0.020782,0.0,0.0
372,92.75,20.6038,22.2375,144.362,105.246,105.25,5.63998e-05,0.0426854,21.0041,574.2,-0.000346143,0.0,0.0
374,93.25,20.5369,21.7043,146.341,105.227,105.309,4.83428e-05,0.0426509,21.004,574.21,-0.00702249,0.0,0.0
376,93.75,21.1808,22.1502,143.323,105.23,105.083,4.06707e-05,0.042623,21.0038,574.22,0.0126957,0.0,0.0
378,94.25,20.6151,22.0178,144.724,105.188,105.079,3.44563e-05,0.0426004,21.0037,574.21,0.0094184,0.0,0.0
380,94.75,20.0356,22.0345,146.529,105.171,104.96,2.8213e-05,0.042582,21.0038,574.2,0.018162,0.0,0.0
382,95.25,20.3458,22.3033,141.151,105.139,105.142,2.31559e-05,0.0425672,21.0041,574.2,-0.000249631,0.0,0.0
384,95.75,20.2191,21.9687,142.585,105.128,105.478,2.35162e-05,0.0425415,21.0044,574.19,-0.0300759,0.0,0.0
386,96.25,20.0683,21.7756,146.308,105.104,105.359,2.78188e-05,0.0425207,21.0046,574.18,-0.0219572,0.0,0.0
388,96.75,20.3864,21.8928,146.537,105.084,105.526,3.32143e-05,0.0425039,21.0047,574.18,-0.0379317,0.0,0.0
390,97.25,20.5956,21.8055,141.097,105.062,105.146,3.9304e-05,0.0424903,21.0049,574.18,-0.00730253,0.0,0.0
392,97.75,20.3553,21.5107,146.64,105.035,104.723,4.42366e-05,0.0424792,21.005,574.16,0.0268595,0.0,0.0
394,98.25,20.4446,21.7869,146.775,104.998,104.767,4.94414e-05,0.0424631,21.005,574.16,0.0199159,0.0,0.0
396,98.75,20.2479,21.9428,147.342,104.973,104.82,5.36572e-05,0.0424436,21.0051,574.16,0.0132201,0.0,0.0
398,99.25,20.3155,21.8432,147.332,104.923,104.71,6.55431e-05,0.0424278,21.0052,574.18,0.0183363,0.0,0.0
400,99.75,20.5901,22.0916,147.543,104.909,104.991,7.51707e-05,0.0424831,21.0052,574.2,-0.00705595,0.0,0.0
402,100.25,20.1627,21.6936,143.576,104.884,104.961,0.000103548,0.042528,21.0053,574.2,-0.0067144,0.0,0.0
404,100.75,20.543,21.9945,146.144,104.864,104.482,0.000126533,0.0425779,21.0053,574.19,0.0330113,0.0,0.0
406,101.25,20.2216,21.5078,143.122,104.838,104.46,0.000173013,0.0426183,21.0051,574.18,0.0327191,0.0,0.0
408,101.75,20.4005,21.9783,148.245,104.81,105.212,0.000210662,0.0426239,21.0047,574.18,-0.0345874,0.0,0.0
410,102.25,20.5606,21.848,146.055,104.774,105.084,0.00024626,0.0426283,21.0044,574.18,-0.0266691,0.0,0.0
412,102.75,20.2372,21.7787,144.103,104.756,105.201,0.000279688,0.0426183,21.0046,574.18,-0.0383399,0.0,0.0
414,103.25,20.7673,21.272,151.107,104.703,105.039,0.000306764,0.0426102,21.0048,574.17,-0.0289881,0.0,0.0
416,103.75,20.1801,21.3494,145.062,104.679,104.812,0.000317789,0.0425491,21.0047,574.17,-0.0115193,0.0,0.0
418,104.25,20.4861,21.4864,146.257,104.626,104.887,0.000326719,0.0424996,21.0044,574.16,-0.0225544,0.0,0.0
420,104.75,20.3705,21.2493,145.173,104.592,104.727,0.000331401,0.0424524,21.0041,574.14,-0.01165,0.0,0.0
422,105.25,20.1832,21.7399,147.177,104.552,104.598,0.000333535,0.0424076,21.0039,574.13,-0.00397335,0.0,0.0
424,105.75,20.864,22.1329,144.779,104.567,104.673,0.000334747,0.0423714,21.0038,574.14,-0.0091384,0.0,0.0
426,106.25,20.3072,21.3609,144.421,104.559,104.183,0.00033682,0.0424102,21.0037,574.15,0.0325751,0.0,0.0
428,106.75,20.3232,21.5713,145.567,104.566,104.613,0.000338498,0.0424416,21.0035,574.14,-0.00409148,0.0,0.0
430,107.25,20.4774,21.6555,144.967,104.568,104.513,0.000342281,0.0424742,21.0035,574.12,0.00474977,0.0,0.0
432,107.75,20.4316,21.5581,145.326,104.579,105.02,0.000345346,0.0425071,21.0034,574.14,-0.0380887,0.0,0.0
434,108.25,20.5055,21.5757,142.427,104.565,104.293,0.000366009,0.0425308,21.0033,574.16,0.0235088,0.0,0.0
436,108.75,20.3898,21.1607,144.45,104.583,104.142,0.000382746,0.0425281,21.0033,574.16,0.0382152,0.0,0.0
438,109.25,19.984,21.7507,146.517,104.58,104.414,0.000396303,0.0425235,21.0033,574.15,0.0143279,0.0,0.0
440,109.75,20.0909,21.6539,144.665,104.587,104.412,0.000448528,0.0425198,21.0032,574.16,0.015187,0.0,0.0
442,110.25,20.3071,21.9382,144.6,104.596,104.84,0.00049083,0.0425167,21.0032,574.18,-0.0211282,0.0,0.0
444,110.75,20.2987,21.7748,147.048,104.612,104.375,0.000531164,0.0425143,21.0032,574.19,0.0205324,0.0,0.0
446,111.25,20.4256,21.3834,144.75,104.592,104.616,0.000563835,0.0425123,21.0032,574.16,-0.00206627,0.0,0.0
448,111.75,20.4083,21.8904,145.638,104.606,104.732,0.00057816,0.0425107,21.0032,574.14,-0.0108467,0.0,0.0
450,112.25,20.2251,21.9323,156.37,104.603,104.89,0.000589764,0.0424958,21.0032,574.14,-0.0248416,0.0,0.0
452,112.75,20.5988,21.406,144.6,104.603,104.788,0.000588243,0.0424837,21.0032,574.13,-0.0160416,0.0,0.0
454,113.25,20.2588,21.127,146.113,104.602,104.808,0.000587011,0.0424882,21.0031,574.11,-0.0178069,0.0,0.0
456,113.75,20.1049,21.4626,146.763,104.613,105.24,0.000586012,0.0425048,21.0031,574.11,-0.0540039,0.0,0.0
458,114.25,20.1684,21.6569,143.697,104.614,104.908,0.000585204,0.0425455,21.0031,574.14,-0.0253849,0.0,0.0
460,114.75,20.146,21.6011,142.057,104.625,104.566,0.00058838,0.0425785,21.0031,574.14,0.00509464,0.0,0.0
462,115.25,20.859,21.7801,148.448,104.63,104.611,0.000594402,0.0425916,21.0031,574.12,0.00170141,0.0,0.0
464,115.75,20.6867,21.6701,146.512,104.627,104.894,0.000599279,0.0426022,21.0031,574.12,-0.0230841,0.0,0.0
466,116.25,20.1849,21.5153,150.703,104.623,104.879,0.00060323,0.0426516,21.0031,574.12,-0.0220475,0.0,0.0
468,116.75,20.2601,21.4171,144.484,104.621,104.726,0.000594938,0.0426917,21.0031,574.09,-0.00908443,0.0,0.0
470,117.25,20.1435,21.2868,144.056,104.611,104.689,0.000577878,0.0428533,21.0036,574.13,-0.00674624,0.0,0.0
472,117.75,20.3337,21.5105,144.271,104.597,104.652,0.000553213,0.0431005,21.0039,574.11,-0.00476898,0.0,0.0
474,118.25,20.1255,21.0258,143.175,104.591,104.37,0.000523472,0.0433007,21.0038,574.16,0.0191487,0.0,0.0
476,118.75,20.0118,21.3424,143.328,104.589,104.78,0.00048599,0.0434629,21.0036,574.11,-0.016451,0.0,0.0
478,119.25,20.5525,21.4009,142.944,104.597,104.665,0.000443578,0.0438958,21.0031,574.15,-0.00581933,0.0,0.0
480,119.75,19.9714,21.0983,146.217,104.596,104.773,0.000398391,0.044518,21.0027,574.14,-0.0153395,0.0,0.0
482,120.25,19.5592,21.0864,145.256,104.599,104.512,0.00035204,0.045101,21.0023,574.12,0.00749866,0.0,0.0
484,120.75,19.7818,21.184,140.871,104.598,104.518,0.000306214,0.0456444,21.002,574.12,0.0069427,0.0,0.0
486,121.25,19.8012,21.0984,145.317,104.602,104.824,0.000261643,0.0460845,21.0018,574.16,-0.0191694,0.0,0.0
488,121.75,20.4541,21.7509,145.186,104.603,104.672,0.000224904,0.0463181,21.0016,574.12,-0.00598388,0.0,0.0
490,122.25,19.921,20.6907,145.343,104.595,104.86,0.000194573,0.0465073,21.0019,574.08,-0.022929,0.0,0.0
492,122.75,20.2937,21.0388,140.066,104.606,104.732,0.000170004,0.0465241,21.0021,574.11,-0.0108829,0.0,0.0
494,123.25,20.1399,21.1847,143.516,104.606,104.58,0.000160995,0.0465377,21.0023,574.11,0.00231698,0.0,0.0
496,123.75,19.6529,20.8942,143.231,104.608,104.369,0.000153697,0.0464531,21.0025,574.15,0.0206508,0.0,0.0
498,124.25,20.0901,21.3917,144.511,104.619,104.521,0.000147148,0.0463272,21.0026,574.14,0.00848659,0.0,0.0
500,124.75,20.1147,21.5545,144.521,104.61,104.265,0.000141271,0.0461735,21.0027,574.14,0.02988,0.0,0.0
502,125.25,19.9344,21.0081,144.986,104.614,104.65,0.00013651,0.046049,21.0028,574.11,-0.00314596,0.0,0.0
504,125.75,20.2746,20.6943,146.472,104.609,104.312,0.000112016,0.0458527,21.0029,574.1,0.0257306,0.0,0.0
506,126.25,19.7972,21.0413,146.101,104.623,104.749,9.21753e-05,0.0456936,21.0031,574.11,-0.0108688,0.0,0.0
508,126.75,19.7343,21.5393,147.956,104.617,104.498,5.55435e-05,0.0455361,21.0033,574.13,0.01032,0.0,0.0
510,127.25,19.4954,21.1047,146.038,104.616,104.644,2.58717e-05,0.0453826,21.0034,574.08,-0.00243999,0.0,0.0
512,127.75,20.4104,20.6857,142.187,104.616,104.731,-1.3451e-06,0.0452583,21.0035,574.1,-0.00992585,0.0,0.0
514,128.25,20.1791,20.982,148.165,104.637,104.605,-2.62551e-05,0.0450493,21.0036,574.09,0.00277405,0.0,0.0
516,128.75,19.6713,21.2606,149.018,104.634,104.514,-3.67565e-05,0.04488,21.0037,574.11,0.0103706,0.0,0.0
518,129.25,20.4714,21.4246,146.516,104.639,104.138,-4.52626e-05,0.0446998,21.0037,574.11,0.0434032,0.0,0.0
520,129.75,19.8145,21.2364,143.827,104.616,104.335,-5.21526e-05,0.0445151,21.0038,574.12,0.0243735,0.0,0.0
522,130.25,19.8744,21.3616,142.848,104.641,104.9,-2.7493e-05,0.0443296,21.0038,574.12,-0.0224371,0.0,0.0
524,130.75,20.4324,21.0695,145.218,104.623,104.68,-7.51879e-06,0.0441471,21.0038,574.11,-0.00495455,0.0,0.0
526,131.25,19.8037,21.0752,143.386,104.631,104.528,2.68143e-05,0.0439849,21.0039,574.1,0.00890673,0.0,0.0
528,131.75,19.7164,21.1977,146.471,104.628,104.601,5.46241e-05,0.0438406,21.0039,574.09,0.00240538,0.0,0.0
530,132.25,20.5868,21.046,147.967,104.643,104.467,8.16105e-05,0.0437165,21.0039,574.1,0.0152107,0.0,0.0
532,132.75,20.1048,21.0644,145.143,104.629,104.545,0.000107484,0.0436096,21.0039,574.09,0.00727563,0.0,0.0
534,133.25,20.1378,21.5488,142.938,104.647,104.451,0.000127167,0.0435229,21.0039,574.09,0.0169878,0.0,0.0
536,133.75,20.081,21.2412,146.298,104.643,104.399,0.000141963,0.0433846,21.0039,574.11,0.0211037,0.0,0.0
538,134.25,20.6163,20.9903,145.385,104.649,104.452,0.000146302,0.0432726,21.0039,574.1,0.0169771,0.0,0.0
540,134.75,20.4134,21.3955,140.53,104.633,104.59,0.000142936,0.0432105,21.0039,574.1,0.00373017,0.0,0.0
542,135.25,19.8797,21.1374,142.167,104.656,104.478,0.00014021,0.0431861,21.004,574.12,0.0153388,0.0,0.0
544,135.75,19.9121,20.4232,146.762,104.644,104.4,0.000136791,0.0431447,21.0042,574.13,0.0210929,0.0,0.0
546,136.25,19.9989,20.9555,145.887,104.652,104.69,0.000134021,0.0430919,21.0046,574.13,-0.00328296,0.0,0.0
548,136.75,20.5789,21.0442,143.24,104.636,104.731,0.000131778,0.0430419,21.0049,574.13,-0.00821233,0.0,0.0
550,137.25,20.3043,21.1771,143.767,104.645,104.677,0.000136969,0.042995,21.0052,574.13,-0.00277652,0.0,0.0
552,137.75,20.0889,20.8022,145.552,104.652,104.308,0.000147481,0.042957,21.0054,574.13,0.0297812,0.0,0.0
554,138.25,19.8139,20.8603,147.999,104.65,104.214,0.000159629,0.0429262,21.0055,574.14,0.0377975,0.0,0.0
556,138.75,20.3099,21.0261,150.594,104.636,104.592,0.000169469,0.0429012,21.0057,574.12,0.00378837,0.0,0.0
558,139.25,20.5093,21.1509,145.104,104.655,104.887,0.000177439,0.042881,21.0058,574.14,-0.0199939,0.0,0.0
560,139.75,20.4963,21.3933,141.461,104.635,104.659,0.000180071,0.0428919,21.0059,574.15,-0.00207975,0.0,0.0
562,140.25,20.2298,21.1194,144.591,104.668,104.816,0.000178762,0.0429008,21.0058,574.15,-0.0127135,0.0,0.0
564,140.75,20.0054,21.3283,147.568,104.638,104.805,0.000175153,0.0429079,21.0058,574.14,-0.0143825,0.0,0.0
566,141.25,19.9033,21.1914,143.687,104.659,105.036,0.000169936,0.0429137,21.0058,574.16,-0.0324688,0.0,0.0
568,141.75,19.9702,21.0241,144.25,104.641,104.86,0.000165711,0.0429184,21.0058,574.16,-0.0189095,0.0,0.0
570,142.25,20.493,21.042,144.313,104.653,104.756,0.000162288,0.0429007,21.0058,574.17,-0.00884211,0.0,0.0
572,142.75,19.6717,21.1349,145.301,104.644,104.716,0.000159515,0.0428669,21.0058,574.16,-0.00626712,0.0,0.0
574,143.25,20.4446,21.1532,144.282,104.655,104.633,0.000156059,0.0428396,21.0058,574.18,0.00185126,0.0,0.0
576,143.75,19.9278,21.1961,141.442,104.636,104.597,0.00015326,0.0428175,21.0057,574.19,0.00330871,0.0,0.0
578,144.25,19.9699,21.2549,143.061,104.655,104.701,0.000143349,0.0427996,21.0057,574.18,-0.00402567,0.0,0.0
580,144.75,19.9034,20.9802,146.797,104.651,104.239,0.000128443,0.0428123,21.0053,574.17,0.035728,0.0,0.0
582,145.25,19.9383,20.5437,147.348,104.654,104.431,0.000116368,0.0428226,21.0049,574.17,0.0193069,0.0,0.0
584,145.75,20.1135,21.1355,148.254,104.642,104.46,9.69111e-05,0.042831,21.0047,574.17,0.0157457,0.0,0.0
586,146.25,20.2055,21.1772,144.958,104.655,104.566,8.11508e-05,0.0428378,21.0044,574.17,0.00776478,0.0,0.0
588,146.75,20.0374,21.2038,144.382,104.65,104.763,7.28417e-05,0.0428146,21.0042,574.21,-0.00977742,0.0,0.0
590,147.25,19.8885,21.318,146.38,104.655,104.431,7.01224e-05,0.0427699,21.0045,574.17,0.0193392,0.0,0.0
592,147.75,20.37,21.6227,148.13,104.657,104.511,7.49255e-05,0.0427338,21.0047,574.16,0.0127032,0.0,0.0
594,148.25,20.0494,20.9679,145.509,104.658,104.841,,0.0427318,,574.17,-0.0157964,0.0,0.0
596,148.75,19.5787,20.6101,148.364,104.646,104.417,,0.0427301,,574.16,0.0198632,0.0,0.0
598,149.25,19.6715,20.6329,146.023,104.645,104.73,,0.0427073,,574.17,-0.00728311,0.0,0.0
600,149.75,20.0206,20.8373,144.094,104.643,104.571,,0.0426694,,574.18,0.0061852,0.0,0.0
602,150.25,20.1975,20.4607,142.409,104.652,104.516,,0.0426387,,574.17,0.0117082,0.0,0.0
604,150.75,20.2628,21.0885,143.739,104.647,104.524,,0.0426139,,574.14,0.0106205,0.0,0.0
606,151.25,19.817,21.3515,144.821,104.649,104.653,,,,574.14,-0.000350995,0.0,0.0
608,151.75,20.1128,20.9477,148.864,104.643,104.463,,,,574.12,0.0155369,0.0,0.0
610,152.25,19.8133,21.0239,146.937,104.647,104.419,,,,574.15,0.0196943,0.0,0.0
612,152.75,20.1132,21.2034,147.888,104.637,104.454,,,,574.15,0.0158286,0.0,0.0
614,153.25,20.4982,20.8783,143.898,104.637,104.662,,,,574.16,-0.00213853,0.0,0.0
616,153.75,20.2211,21.1365,146.078,104.647,104.072,,,,574.16,0.0497668,0.0,0.0
618,154.25,19.1369,21.1208,145.938,104.649,104.669,,,,574.16,-0.00172384,0.0,0.0
620,154.75,20.3976,21.1275,143.903,104.64,104.254,,,,574.16,0.0334851,0.0,0.0
622,155.25,19.7576,21.2146,145.725,104.638,104.268,,,,574.16,0.0320132,0.0,0.0
624,155.75,19.7924,20.851,146.827,104.631,104.614,,,,574.15,0.00153322,0.0,0.0
626,156.25,19.9796,20.8647,147.099,104.643,104.349,,,,574.19,0.025423,0.0,0.0
628,156.75,20.0181,21.1859,145.478,104.634,104.493,,,,574.15,0.0122251,0.0,0.0
630,157.25,19.7689,20.8975,144.862,104.647,104.638,,,,574.14,0.000787129,0.0,0.0
632,157.75,19.4482,20.9801,144.892,104.641,104.425,,,,574.15,0.0186215,0.0,0.0
634,158.25,19.5432,20.7177,145.792,104.626,104.967,,,,574.15,-0.0293803,0.0,0.0
636,158.75,20.4157,20.8993,143.786,104.635,104.372,,,,574.14,0.0227473,0.0,0.0
637,159,19.5559,20.4444,143.895,104.646,104.48,,,,574.14,0.0143775,0.0,0.0