File: 01_Data/Plastic_Laminate_Countertop_Particle_Board/MCC/Plastic_Laminate_Countertop_Particle_Board_MCC_30K_min_211216_R3.txt
Sample ID:	C:\MCC\MCC Cal\Test\Countertop_Plastic_LaminateB_MCC_30K_min_211216_R3.txt
Sample Weight (mg):	4.08
Heating Rate (C/s):	0.5
Combustor Temp (C):	900
N2 Flow Rate (cc/min):	80
O2 Flow Rate (cc/min):	20
Calibration File:	C:\MCC\MCC Cal\Coeff1 JN10440_30_210304.txt.txt
T Correction Coefficients:	0	1.024463	0
Time Shift (s):	14
*
Time (s)	Temperature (C)	N2 flow rate (cc/min)	O2 flow rate (cc/min)	Flow Rate (cc/min)	Oxygen (%)	HRR (W/g)	Heating rate (C/s)
-0.001	112.906	80.003	19.995	103.040	19.977	-0.210	-0.022
2.000	112.895	80.003	19.996	103.032	19.974	0.002	0.004
4.000	112.884	80.002	19.995	103.023	19.977	-0.215	-0.005
6.000	112.945	80.004	19.997	103.030	19.973	0.140	0.019
8.000	112.908	80.003	19.995	103.030	19.972	0.223	0.023
10.000	112.869	80.003	19.994	103.033	19.971	0.279	-0.011
12.000	112.839	80.004	19.995	103.055	19.970	0.378	-0.003
14.000	112.845	80.004	19.995	103.091	19.966	0.672	0.015
16.000	112.900	80.004	19.996	103.102	19.963	0.930	0.038
18.000	112.894	80.004	19.995	103.123	19.959	1.249	-0.005
20.000	112.939	80.003	19.995	103.122	19.956	1.447	0.022
22.000	113.058	80.003	19.996	103.143	19.956	1.475	0.052
24.000	113.128	80.003	19.996	103.143	19.952	1.797	0.044
26.000	113.232	80.004	19.994	103.137	19.954	1.628	0.041
28.000	113.400	80.003	19.995	103.120	19.955	1.529	0.065
30.000	113.545	80.004	19.995	103.111	19.951	1.837	0.058
32.000	113.690	80.005	19.995	103.129	19.950	1.899	0.079
33.999	113.873	80.003	19.994	103.147	19.949	1.977	0.089
36.000	114.075	80.004	19.993	103.178	19.948	2.088	0.073
37.999	114.304	80.005	19.993	103.185	19.942	2.520	0.116
39.999	114.517	80.006	19.994	103.199	19.941	2.665	0.107
41.999	114.818	80.005	19.992	103.196	19.942	2.541	0.140
43.999	115.051	80.004	19.994	103.218	19.940	2.751	0.139
45.999	115.331	80.005	19.995	103.214	19.937	2.917	0.145
47.999	115.669	80.005	19.994	103.226	19.932	3.387	0.155
49.999	116.015	80.003	19.993	103.228	19.933	3.254	0.149
51.999	116.386	80.002	19.995	103.249	19.933	3.293	0.168
53.999	116.778	80.002	19.995	103.259	19.928	3.695	0.197
55.999	117.248	80.002	19.994	103.259	19.926	3.830	0.239
57.999	117.684	80.003	19.994	103.260	19.930	3.482	0.211
59.999	118.199	80.004	19.994	103.257	19.927	3.772	0.260
61.999	118.639	80.003	19.995	103.258	19.926	3.794	0.250
63.999	119.172	80.003	19.995	103.258	19.926	3.848	0.279
65.999	119.722	80.003	19.994	103.258	19.923	4.060	0.251
67.999	120.251	80.005	19.995	103.260	19.925	3.888	0.270
69.999	120.842	80.005	19.993	103.265	19.927	3.729	0.300
71.999	121.454	80.004	19.994	103.260	19.928	3.702	0.313
73.999	122.085	80.004	19.995	103.270	19.928	3.669	0.315
75.999	122.658	80.004	19.994	103.264	19.926	3.856	0.320
78.000	123.299	80.003	19.994	103.261	19.928	3.646	0.302
79.999	124.032	80.002	19.992	103.264	19.927	3.751	0.343
81.999	124.687	80.004	19.995	103.265	19.929	3.610	0.341
83.999	125.386	80.003	19.996	103.269	19.932	3.338	0.338
86.000	126.112	80.002	19.994	103.265	19.930	3.539	0.347
87.999	126.810	80.002	19.995	103.275	19.929	3.582	0.343
89.999	127.529	80.002	19.995	103.274	19.924	3.995	0.347
91.999	128.328	80.002	19.995	103.276	19.927	3.778	0.404
93.999	129.093	80.003	19.995	103.279	19.928	3.645	0.411
95.999	129.864	80.003	19.994	103.279	19.925	3.931	0.401
97.999	130.606	80.004	19.994	103.284	19.927	3.761	0.376
99.999	131.381	80.006	19.994	103.288	19.926	3.789	0.376
101.999	132.186	80.005	19.995	103.295	19.927	3.772	0.411
103.999	132.992	80.005	19.995	103.293	19.922	4.137	0.394
105.999	133.792	80.005	19.995	103.299	19.930	3.505	0.391
107.999	134.620	80.005	19.994	103.293	19.930	3.535	0.381
110.000	135.447	80.002	19.995	103.294	19.928	3.638	0.404
111.999	136.323	80.003	19.996	103.299	19.929	3.610	0.428
113.999	137.149	80.004	19.995	103.299	19.928	3.685	0.443
115.999	138.039	80.003	19.996	103.295	19.928	3.638	0.457
117.999	138.881	80.004	19.993	103.295	19.929	3.576	0.416
119.999	139.819	80.005	19.996	103.293	19.931	3.462	0.451
121.999	140.714	80.004	19.995	103.297	19.931	3.421	0.432
123.999	141.609	80.004	19.994	103.296	19.923	4.023	0.427
126.000	142.481	80.005	19.994	103.294	19.919	4.377	0.492
127.999	143.397	80.006	19.994	103.295	19.920	4.332	0.479
130.000	144.360	80.006	19.995	103.294	19.924	3.984	0.480
132.000	145.287	80.005	19.994	103.292	19.920	4.315	0.458
134.000	146.182	80.002	19.995	103.287	19.920	4.302	0.506
136.000	147.073	80.005	19.993	103.279	19.922	4.167	0.489
138.000	148.017	80.005	19.994	103.279	19.925	3.872	0.436
140.000	149.012	80.003	19.994	103.285	19.916	4.590	0.477
142.000	149.953	80.004	19.993	103.284	19.921	4.248	0.496
144.000	150.827	80.004	19.995	103.290	19.926	3.852	0.433
146.000	151.810	80.004	19.994	103.289	19.922	4.117	0.449
148.000	152.824	80.004	19.994	103.273	19.922	4.162	0.552
150.000	153.741	80.004	19.994	103.280	19.924	3.994	0.424
152.000	154.795	80.003	19.995	103.278	19.920	4.314	0.536
154.000	155.640	80.004	19.992	103.270	19.919	4.405	0.368
156.000	156.635	80.005	19.994	103.271	19.919	4.375	0.518
158.000	157.615	80.005	19.993	103.284	19.920	4.321	0.472
160.000	158.606	80.004	19.994	103.275	19.921	4.257	0.472
162.000	159.605	80.004	19.994	103.271	19.923	4.076	0.511
164.000	160.513	80.004	19.995	103.276	19.924	3.998	0.481
166.000	161.515	80.005	19.993	103.275	19.922	4.101	0.494
168.000	162.465	80.004	19.994	103.270	19.920	4.277	0.465
170.000	163.469	80.002	19.994	103.275	19.919	4.394	0.459
172.000	164.492	80.004	19.996	103.272	19.917	4.520	0.465
174.000	165.461	80.005	19.994	103.262	19.919	4.411	0.512
176.000	166.480	80.005	19.995	103.264	19.921	4.178	0.479
178.000	167.466	80.004	19.995	103.265	19.917	4.555	0.518
180.000	168.452	80.004	19.994	103.263	19.917	4.524	0.519
182.000	169.410	80.004	19.994	103.262	19.918	4.473	0.455
184.000	170.414	80.005	19.995	103.262	19.914	4.739	0.486
186.000	171.390	80.005	19.995	103.259	19.915	4.696	0.499
188.000	172.358	80.005	19.996	103.259	19.917	4.572	0.495
190.000	173.353	80.005	19.995	103.259	19.920	4.331	0.501
192.000	174.427	80.005	19.994	103.258	19.918	4.458	0.579
194.000	175.328	80.005	19.995	103.260	19.917	4.503	0.498
196.001	176.259	80.005	19.994	103.259	19.916	4.640	0.460
198.000	177.287	80.005	19.994	103.258	19.912	4.950	0.509
200.000	178.261	80.004	19.994	103.261	19.915	4.705	0.516
202.000	179.233	80.006	19.995	103.257	19.917	4.544	0.451
204.000	180.258	80.006	19.994	103.257	19.914	4.771	0.501
206.000	181.270	80.006	19.995	103.256	19.918	4.428	0.523
208.000	182.204	80.005	19.995	103.256	19.915	4.709	0.489
210.000	183.189	80.006	19.995	103.255	19.914	4.744	0.499
212.000	184.145	80.006	19.995	103.257	19.917	4.567	0.456
214.000	185.138	80.005	19.995	103.255	19.914	4.772	0.501
216.000	186.137	80.005	19.995	103.255	19.913	4.830	0.490
218.000	187.160	80.004	19.995	103.255	19.910	5.064	0.500
220.000	188.151	80.005	19.995	103.259	19.910	5.103	0.458
222.000	189.165	80.005	19.996	103.259	19.911	5.036	0.511
224.000	190.120	80.004	19.994	103.259	19.909	5.129	0.474
226.000	191.129	80.004	19.994	103.258	19.907	5.318	0.498
228.000	192.084	80.005	19.994	103.260	19.911	5.019	0.478
230.000	193.078	80.004	19.994	103.261	19.910	5.120	0.519
232.000	194.017	80.004	19.995	103.264	19.910	5.077	0.468
234.000	195.019	80.005	19.995	103.261	19.909	5.171	0.475
236.000	195.987	80.004	19.995	103.260	19.908	5.221	0.493
238.000	196.923	80.004	19.995	103.259	19.908	5.234	0.477
240.000	197.936	80.003	19.994	103.257	19.907	5.322	0.485
242.000	198.962	80.004	19.994	103.259	19.908	5.236	0.507
244.000	199.931	80.003	19.994	103.257	19.906	5.423	0.511
246.000	200.910	80.003	19.995	103.259	19.902	5.692	0.505
248.000	201.881	80.004	19.994	103.252	19.901	5.767	0.471
250.000	202.873	80.005	19.994	103.261	19.902	5.711	0.496
252.000	203.857	80.004	19.994	103.258	19.902	5.681	0.507
254.000	204.865	80.003	19.994	103.258	19.904	5.560	0.515
256.000	205.864	80.005	19.994	103.254	19.905	5.519	0.503
258.000	206.847	80.005	19.994	103.258	19.903	5.620	0.527
260.000	207.830	80.004	19.995	103.256	19.897	6.095	0.514
262.000	208.816	80.005	19.995	103.255	19.899	5.983	0.457
264.000	209.843	80.004	19.995	103.252	19.898	6.024	0.504
266.000	210.785	80.006	19.994	103.249	19.899	5.988	0.478
268.000	211.800	80.007	19.994	103.249	19.894	6.346	0.501
270.000	212.797	80.006	19.994	103.244	19.897	6.129	0.522
272.000	213.811	80.004	19.995	103.252	19.895	6.235	0.524
274.000	214.791	80.004	19.994	103.249	19.890	6.656	0.500
276.000	215.735	80.005	19.996	103.249	19.893	6.447	0.489
278.000	216.743	80.005	19.995	103.244	19.893	6.449	0.489
280.000	217.741	80.002	19.995	103.248	19.893	6.465	0.484
282.000	218.725	80.004	19.996	103.243	19.895	6.280	0.520
284.000	219.727	80.005	19.994	103.254	19.893	6.437	0.510
286.000	220.708	80.005	19.995	103.253	19.889	6.778	0.496
288.000	221.702	80.006	19.995	103.242	19.886	7.015	0.513
290.000	222.749	80.006	19.994	103.247	19.887	6.913	0.557
292.000	223.776	80.006	19.995	103.255	19.884	7.172	0.521
294.000	224.746	80.005	19.994	103.256	19.879	7.522	0.507
296.000	225.731	80.004	19.995	103.249	19.880	7.458	0.524
298.000	226.758	80.003	19.994	103.252	19.879	7.568	0.507
300.000	227.711	80.003	19.994	103.242	19.878	7.604	0.518
302.000	228.757	80.003	19.995	103.243	19.877	7.716	0.540
304.000	229.716	80.003	19.995	103.255	19.880	7.456	0.468
306.000	230.792	80.001	19.995	103.246	19.877	7.718	0.519
308.000	231.747	80.002	19.996	103.257	19.869	8.359	0.489
310.000	232.778	80.002	19.997	103.256	19.867	8.445	0.515
312.000	233.786	80.002	19.994	103.257	19.863	8.806	0.509
314.000	234.787	80.002	19.995	103.258	19.860	9.036	0.498
316.000	235.768	80.003	19.995	103.250	19.861	8.933	0.499
318.000	236.858	80.004	19.994	103.260	19.860	9.055	0.598
320.000	237.838	80.003	19.994	103.256	19.859	9.145	0.574
322.000	238.825	80.004	19.994	103.256	19.856	9.317	0.508
324.000	239.754	80.003	19.994	103.256	19.855	9.451	0.482
326.000	240.732	80.003	19.993	103.254	19.853	9.588	0.497
328.000	241.718	80.004	19.995	103.257	19.849	9.921	0.509
330.000	242.770	80.003	19.994	103.257	19.843	10.409	0.525
332.000	243.724	80.002	19.995	103.257	19.848	9.949	0.451
334.000	244.743	80.003	19.994	103.256	19.845	10.246	0.509
336.000	245.793	80.002	19.994	103.258	19.842	10.440	0.507
338.000	246.839	80.004	19.994	103.258	19.840	10.623	0.539
340.000	247.839	80.003	19.995	103.256	19.838	10.799	0.458
342.000	248.864	80.004	19.994	103.256	19.832	11.244	0.553
344.000	249.862	80.006	19.995	103.259	19.829	11.491	0.527
346.000	250.893	80.006	19.994	103.257	19.828	11.575	0.489
348.000	251.912	80.005	19.994	103.259	19.825	11.774	0.507
350.000	252.919	80.004	19.994	103.263	19.820	12.169	0.486
352.000	253.929	80.004	19.995	103.259	19.817	12.428	0.490
354.000	254.919	80.006	19.994	103.262	19.813	12.734	0.507
356.000	255.947	80.004	19.994	103.263	19.810	12.977	0.499
358.000	256.979	80.005	19.993	103.265	19.809	13.099	0.543
360.000	257.941	80.005	19.994	103.280	19.801	13.711	0.479
362.000	259.002	80.005	19.994	103.292	19.797	14.014	0.500
364.000	260.029	80.005	19.994	103.270	19.795	14.148	0.491
366.000	260.998	80.005	19.995	103.278	19.788	14.693	0.478
368.000	262.012	80.006	19.995	103.283	19.786	14.862	0.500
370.000	263.046	80.005	19.994	103.283	19.777	15.556	0.496
372.000	264.078	80.006	19.995	103.291	19.776	15.700	0.546
374.000	265.095	80.005	19.995	103.295	19.769	16.255	0.511
376.000	266.135	80.005	19.995	103.297	19.763	16.694	0.514
378.000	267.159	80.004	19.995	103.284	19.756	17.257	0.506
380.000	268.170	80.004	19.996	103.291	19.751	17.679	0.499
382.000	269.170	80.002	19.995	103.294	19.749	17.812	0.511
384.000	270.207	80.003	19.995	103.297	19.741	18.405	0.487
386.000	271.248	80.004	19.996	103.298	19.738	18.690	0.499
388.000	272.297	80.004	19.994	103.298	19.733	19.078	0.511
390.000	273.320	80.004	19.995	103.296	19.728	19.429	0.515
392.000	274.289	80.004	19.995	103.297	19.717	20.315	0.484
394.000	275.317	80.003	19.994	103.296	19.720	20.132	0.504
396.000	276.321	80.005	19.996	103.291	19.708	21.052	0.493
398.000	277.345	80.003	19.996	103.293	19.706	21.202	0.504
400.000	278.375	80.003	19.996	103.297	19.698	21.860	0.512
402.000	279.379	80.003	19.996	103.295	19.690	22.434	0.521
404.000	280.398	80.004	19.997	103.297	19.685	22.831	0.495
406.000	281.375	80.005	19.996	103.297	19.683	22.998	0.486
408.000	282.330	80.004	19.996	103.294	19.677	23.520	0.486
410.000	283.296	80.003	19.995	103.295	19.673	23.835	0.473
412.000	284.321	80.004	19.996	103.292	19.668	24.226	0.495
414.000	285.267	80.004	19.997	103.311	19.659	24.899	0.492
416.000	286.233	80.002	19.995	103.302	19.660	24.866	0.492
418.000	287.225	80.004	19.994	103.311	19.650	25.639	0.515
420.000	288.197	80.004	19.995	103.313	19.645	26.034	0.487
422.000	289.183	80.004	19.994	103.316	19.640	26.393	0.500
424.000	290.192	80.006	19.995	103.324	19.634	26.908	0.487
426.000	291.193	80.004	19.995	103.310	19.626	27.571	0.504
428.000	292.160	80.005	19.995	103.313	19.626	27.520	0.480
430.000	293.103	80.005	19.994	103.312	19.620	28.000	0.482
432.000	294.077	80.004	19.994	103.317	19.612	28.620	0.464
434.000	295.043	80.004	19.995	103.326	19.608	28.948	0.473
436.000	296.086	80.005	19.995	103.336	19.601	29.535	0.516
438.000	297.062	80.003	19.994	103.327	19.596	29.939	0.475
440.000	298.036	80.005	19.994	103.324	19.590	30.389	0.507
442.000	299.027	80.003	19.994	103.319	19.584	30.827	0.500
444.000	299.962	80.004	19.994	103.330	19.579	31.228	0.482
446.000	300.944	80.004	19.994	103.337	19.573	31.691	0.487
448.000	301.971	80.005	19.994	103.344	19.563	32.515	0.505
450.000	302.952	80.008	19.994	103.338	19.559	32.816	0.506
452.000	303.936	80.008	19.995	103.336	19.550	33.524	0.488
454.000	304.891	80.007	19.993	103.333	19.548	33.710	0.476
456.000	305.869	80.006	19.995	103.336	19.538	34.493	0.507
458.000	306.888	80.005	19.995	103.337	19.532	34.988	0.517
460.000	307.878	80.005	19.994	103.335	19.525	35.493	0.492
462.000	308.879	80.005	19.995	103.336	19.521	35.846	0.523
464.000	309.848	80.005	19.994	103.348	19.511	36.594	0.481
466.000	310.838	80.004	19.996	103.338	19.502	37.309	0.511
468.000	311.826	80.004	19.996	103.348	19.495	37.885	0.523
470.000	312.839	80.005	19.995	103.345	19.492	38.096	0.499
472.000	313.854	80.003	19.996	103.363	19.483	38.876	0.505
474.000	314.873	80.003	19.996	103.346	19.474	39.535	0.513
476.000	315.870	80.004	19.995	103.358	19.469	39.941	0.467
478.000	316.882	80.004	19.996	103.365	19.459	40.730	0.514
480.000	317.868	80.005	19.995	103.360	19.452	41.315	0.492
482.000	318.921	80.004	19.995	103.372	19.444	41.937	0.520
484.000	319.926	80.004	19.997	103.375	19.432	42.879	0.502
486.000	320.944	80.003	19.995	103.372	19.427	43.250	0.534
488.000	321.983	80.003	19.994	103.374	19.419	43.936	0.501
490.000	323.020	80.003	19.995	103.378	19.408	44.748	0.532
492.000	324.021	80.002	19.995	103.375	19.402	45.227	0.483
494.000	325.040	80.002	19.995	103.376	19.395	45.810	0.483
496.000	326.051	80.002	19.996	103.375	19.385	46.628	0.513
498.000	327.081	80.001	19.996	103.381	19.379	47.114	0.537
500.000	328.139	80.002	19.996	103.381	19.370	47.804	0.518
502.000	329.135	80.003	19.995	103.384	19.359	48.639	0.500
504.000	330.146	80.002	19.995	103.386	19.351	49.291	0.501
506.000	331.220	80.003	19.995	103.383	19.339	50.274	0.540
508.000	332.252	80.003	19.994	103.384	19.331	50.852	0.537
510.000	333.302	80.005	19.995	103.401	19.322	51.606	0.524
512.000	334.352	80.004	19.993	103.415	19.310	52.515	0.533
514.000	335.375	80.004	19.995	103.408	19.307	52.771	0.532
516.000	336.391	80.005	19.995	103.412	19.297	53.606	0.505
518.000	337.440	80.004	19.994	103.411	19.282	54.797	0.496
520.000	338.484	80.004	19.994	103.411	19.271	55.645	0.510
522.000	339.464	80.005	19.995	103.415	19.262	56.356	0.493
524.000	340.507	80.006	19.994	103.413	19.252	57.136	0.480
526.000	341.553	80.004	19.994	103.418	19.239	58.211	0.516
528.000	342.537	80.006	19.995	103.419	19.230	58.915	0.498
530.000	343.545	80.005	19.994	103.418	19.225	59.274	0.503
532.000	344.560	80.006	19.995	103.423	19.216	60.024	0.495
534.000	345.571	80.006	19.996	103.443	19.205	60.869	0.491
536.000	346.632	80.007	19.995	103.434	19.193	61.798	0.512
538.000	347.663	80.007	19.994	103.442	19.175	63.217	0.549
540.000	348.587	80.006	19.995	103.444	19.164	64.104	0.507
542.000	349.589	80.006	19.994	103.442	19.157	64.702	0.516
544.000	350.723	80.005	19.994	103.449	19.147	65.443	0.578
546.000	351.733	80.002	19.994	103.449	19.141	65.932	0.712
548.000	353.055	80.003	19.996	103.448	19.131	66.747	0.716
550.000	353.890	80.005	19.994	103.449	19.122	67.442	0.413
552.000	354.675	80.004	19.995	103.447	19.112	68.234	0.371
554.000	355.447	80.004	19.994	103.452	19.103	68.916	0.457
556.000	356.570	80.002	19.995	103.451	19.103	68.905	0.390
558.000	357.747	80.003	19.995	103.455	19.096	69.493	0.552
560.000	358.650	80.004	19.995	103.454	19.097	69.422	0.480
562.000	359.697	80.004	19.995	103.456	19.096	69.394	0.515
564.000	360.721	80.004	19.995	103.457	19.093	69.677	0.533
566.000	361.683	80.005	19.996	103.454	19.095	69.583	0.495
568.000	362.660	80.004	19.994	103.452	19.101	69.083	0.489
570.000	363.752	80.004	19.994	103.446	19.103	68.896	0.489
572.000	364.728	80.003	19.995	103.386	19.112	68.161	0.503
574.000	365.786	80.003	19.995	103.387	19.123	67.274	0.509
576.000	366.785	80.002	19.994	103.406	19.138	66.083	0.471
578.000	367.840	80.002	19.995	103.459	19.157	64.611	0.556
580.000	368.873	80.003	19.997	103.397	19.173	63.286	0.513
582.000	369.927	80.003	19.996	103.378	19.195	61.554	0.502
584.000	370.966	80.002	19.996	103.344	19.222	59.415	0.516
586.000	372.000	80.004	19.996	103.334	19.252	57.059	0.496
588.000	373.054	80.003	19.996	103.332	19.285	54.440	0.509
590.000	374.083	80.003	19.996	103.305	19.318	51.829	0.523
592.000	375.120	80.005	19.997	103.295	19.353	49.079	0.515
594.000	376.149	80.006	19.996	103.282	19.388	46.287	0.503
596.000	377.133	80.005	19.996	103.259	19.424	43.457	0.485
598.000	378.201	80.005	19.996	103.255	19.461	40.515	0.503
600.000	379.182	80.004	19.995	103.250	19.501	37.397	0.478
602.000	380.274	80.004	19.996	103.218	19.537	34.486	0.534
604.000	381.266	80.005	19.995	103.188	19.572	31.760	0.510
606.000	382.276	80.005	19.995	103.185	19.609	28.856	0.488
608.000	383.342	80.005	19.995	103.263	19.641	26.345	0.527
610.000	384.340	80.005	19.995	103.202	19.670	24.036	0.518
612.000	385.356	80.005	19.994	103.199	19.695	22.077	0.541
614.000	386.350	80.007	19.993	103.192	19.720	20.109	0.474
616.000	387.371	80.007	19.994	103.180	19.742	18.376	0.485
618.000	388.431	80.006	19.995	103.185	19.761	16.801	0.507
620.000	389.430	80.006	19.993	103.182	19.775	15.735	0.507
622.000	390.463	80.007	19.994	103.181	19.788	14.682	0.500
624.000	391.452	80.005	19.993	103.181	19.799	13.869	0.491
626.000	392.463	80.002	19.995	103.179	19.807	13.217	0.512
628.000	393.481	80.004	19.994	103.181	19.814	12.681	0.513
630.000	394.518	80.002	19.995	103.178	19.821	12.128	0.514
632.000	395.556	80.003	19.995	103.182	19.826	11.688	0.519
634.000	396.568	80.004	19.994	103.183	19.829	11.448	0.495
636.000	397.556	80.003	19.995	103.183	19.831	11.285	0.512
638.000	398.576	80.002	19.994	103.182	19.836	10.923	0.527
640.000	399.596	80.005	19.994	103.183	19.840	10.612	0.473
642.000	400.602	80.004	19.994	103.181	19.843	10.387	0.503
644.000	401.623	80.004	19.994	103.184	19.848	9.983	0.502
646.000	402.610	80.004	19.994	103.181	19.842	10.453	0.505
648.000	403.633	80.006	19.995	103.181	19.846	10.137	0.504
650.000	404.654	80.004	19.994	103.179	19.845	10.236	0.520
652.000	405.664	80.005	19.995	103.182	19.845	10.212	0.532
654.000	406.626	80.003	19.994	103.180	19.848	10.008	0.462
656.000	407.686	80.003	19.995	103.178	19.850	9.832	0.535
658.000	408.705	80.005	19.995	103.181	19.849	9.901	0.517
660.000	409.695	80.004	19.995	103.179	19.850	9.791	0.512
662.000	410.729	80.003	19.996	103.178	19.854	9.486	0.501
664.000	411.720	80.003	19.996	103.179	19.855	9.433	0.491
666.000	412.725	80.005	19.995	103.180	19.856	9.349	0.513
668.000	413.706	80.004	19.995	103.179	19.859	9.119	0.484
670.000	414.727	80.004	19.993	103.178	19.857	9.252	0.514
672.000	415.727	80.005	19.995	103.179	19.856	9.340	0.484
674.000	416.758	80.006	19.995	103.179	19.856	9.306	0.507
676.000	417.756	80.005	19.994	103.178	19.856	9.328	0.517
678.000	418.733	80.004	19.995	103.179	19.858	9.166	0.484
680.000	419.720	80.005	19.994	103.173	19.861	8.970	0.481
682.000	420.733	80.004	19.995	103.176	19.858	9.184	0.482
684.000	421.734	80.004	19.994	103.174	19.859	9.143	0.495
686.000	422.751	80.004	19.995	103.182	19.860	9.003	0.523
688.000	423.693	80.003	19.995	103.178	19.862	8.906	0.484
690.000	424.685	80.004	19.995	103.166	19.861	8.962	0.478
692.000	425.697	80.004	19.995	103.173	19.863	8.811	0.504
694.000	426.703	80.005	19.995	103.177	19.863	8.773	0.516
696.000	427.738	80.008	19.996	103.179	19.868	8.405	0.527
698.000	428.704	80.007	19.995	103.178	19.865	8.662	0.509
700.000	429.695	80.006	19.994	103.173	19.863	8.825	0.521
702.000	430.712	80.005	19.994	103.171	19.866	8.569	0.514
704.000	431.698	80.004	19.993	103.177	19.868	8.403	0.499
706.000	432.729	80.004	19.995	103.170	19.873	8.004	0.525
708.000	433.730	80.004	19.993	103.175	19.871	8.124	0.503
710.000	434.748	80.004	19.994	103.180	19.871	8.146	0.510
712.000	435.770	80.005	19.996	103.179	19.872	8.075	0.496
714.000	436.758	80.004	19.995	103.172	19.873	7.991	0.480
716.000	437.752	80.002	19.994	103.162	19.876	7.770	0.510
718.000	438.779	80.003	19.995	103.173	19.879	7.526	0.483
720.000	439.800	80.005	19.994	103.167	19.876	7.733	0.508
722.000	440.823	80.004	19.996	103.172	19.879	7.510	0.508
724.000	441.846	80.004	19.995	103.166	19.878	7.628	0.505
726.000	442.852	80.004	19.994	103.171	19.879	7.489	0.514
728.000	443.854	80.004	19.994	103.167	19.879	7.523	0.507
730.000	444.892	80.004	19.995	103.156	19.880	7.457	0.517
732.000	445.875	80.004	19.994	103.172	19.880	7.472	0.517
734.000	446.899	80.005	19.994	103.177	19.884	7.098	0.517
736.000	447.925	80.003	19.994	103.174	19.883	7.248	0.476
738.000	448.932	80.001	19.993	103.175	19.885	7.028	0.497
740.000	449.940	80.005	19.994	103.175	19.888	6.799	0.482
742.000	450.967	80.003	19.995	103.177	19.889	6.768	0.533
744.000	451.970	80.003	19.994	103.173	19.889	6.754	0.505
746.000	452.987	80.003	19.995	103.174	19.889	6.720	0.496
748.000	454.020	80.004	19.994	103.160	19.890	6.642	0.515
750.000	455.010	80.005	19.995	103.161	19.891	6.612	0.505
752.000	456.036	80.005	19.995	103.158	19.894	6.369	0.516
754.000	457.082	80.006	19.995	103.160	19.891	6.574	0.533
756.000	458.109	80.005	19.995	103.168	19.895	6.292	0.528
758.000	459.160	80.005	19.994	103.167	19.899	5.921	0.545
760.000	460.101	80.005	19.995	103.169	19.898	5.996	0.471
762.000	461.157	80.005	19.994	103.165	19.897	6.082	0.522
764.000	462.197	80.006	19.995	103.167	19.899	5.953	0.524
766.000	463.201	80.003	19.994	103.162	19.903	5.619	0.512
768.000	464.244	80.006	19.995	103.172	19.900	5.843	0.509
770.000	465.276	80.004	19.994	103.177	19.901	5.792	0.521
772.000	466.257	80.004	19.994	103.180	19.902	5.699	0.500
774.000	467.322	80.007	19.994	103.176	19.904	5.570	0.522
776.000	468.339	80.005	19.995	103.168	19.909	5.194	0.509
778.000	469.380	80.006	19.996	103.155	19.905	5.457	0.529
780.000	470.387	80.005	19.995	103.173	19.904	5.587	0.516
782.000	471.379	80.006	19.996	103.170	19.903	5.669	0.502
784.000	472.444	80.008	19.996	103.162	19.904	5.570	0.523
786.000	473.503	80.005	19.996	103.154	19.902	5.731	0.545
788.000	474.545	80.005	19.994	103.166	19.905	5.480	0.550
790.000	475.540	80.004	19.996	103.161	19.903	5.636	0.523
792.000	476.551	80.005	19.994	103.164	19.905	5.442	0.503
794.000	477.557	80.003	19.994	103.150	19.908	5.227	0.498
796.000	478.587	80.004	19.994	103.156	19.909	5.154	0.528
798.000	479.603	80.004	19.993	103.169	19.908	5.265	0.536
800.000	480.588	80.005	19.994	103.158	19.910	5.062	0.502
802.000	481.627	80.003	19.995	103.168	19.910	5.082	0.517
804.000	482.636	80.004	19.994	103.170	19.908	5.256	0.475
806.000	483.644	80.004	19.993	103.175	19.908	5.203	0.502
808.000	484.668	80.005	19.994	103.160	19.905	5.456	0.525
810.000	485.690	80.005	19.995	103.163	19.907	5.310	0.505
812.000	486.671	80.004	19.993	103.166	19.906	5.400	0.497
814.000	487.718	80.005	19.995	103.144	19.906	5.422	0.511
816.000	488.739	80.004	19.995	103.158	19.905	5.443	0.523
818.000	489.733	80.003	19.994	103.157	19.906	5.357	0.499
820.000	490.774	80.004	19.995	103.146	19.910	5.089	0.523
822.000	491.750	80.004	19.994	103.155	19.911	4.992	0.530
824.000	492.793	80.003	19.995	103.154	19.909	5.185	0.518
826.000	493.829	80.005	19.995	103.149	19.913	4.847	0.483
828.000	494.867	80.004	19.995	103.152	19.908	5.270	0.513
830.000	495.871	80.002	19.993	103.150	19.909	5.138	0.533
832.000	496.884	80.003	19.995	103.159	19.914	4.790	0.515
834.000	497.974	80.005	19.994	103.148	19.913	4.867	0.525
836.000	498.994	80.006	19.995	103.155	19.913	4.861	0.506
838.000	500.001	80.006	19.993	103.167	19.914	4.745	0.511
840.000	501.026	80.006	19.995	103.169	19.913	4.848	0.491
842.000	502.033	80.005	19.995	103.144	19.911	4.989	0.503
844.000	502.998	80.004	19.995	103.147	19.909	5.177	0.467
846.000	504.076	80.005	19.995	103.143	19.910	5.046	0.536
848.000	505.052	80.004	19.995	103.143	19.913	4.859	0.459
850.000	506.103	80.005	19.994	103.147	19.914	4.732	0.506
852.000	507.081	80.006	19.996	103.139	19.911	5.011	0.480
854.000	508.122	80.005	19.996	103.142	19.911	4.970	0.491
856.000	509.164	80.005	19.994	103.149	19.910	5.069	0.526
858.000	510.148	80.004	19.994	103.142	19.911	5.020	0.489
860.000	511.177	80.008	19.994	103.145	19.912	4.900	0.515
862.000	512.193	80.007	19.995	103.142	19.909	5.173	0.510
864.000	513.203	80.006	19.995	103.139	19.908	5.213	0.498
866.000	514.211	80.008	19.995	103.140	19.912	4.942	0.483
868.000	515.311	80.006	19.996	103.149	19.911	4.988	0.566
870.000	516.302	80.006	19.996	103.156	19.913	4.829	0.512
872.000	517.320	80.003	19.995	103.157	19.912	4.930	0.496
874.000	518.321	80.004	19.996	103.151	19.909	5.157	0.504
876.000	519.356	80.004	19.996	103.139	19.910	5.099	0.494
878.000	520.416	80.002	19.994	103.146	19.916	4.584	0.508
880.000	521.424	80.003	19.997	103.140	19.916	4.637	0.498
882.000	522.390	80.003	19.995	103.150	19.913	4.859	0.500
884.000	523.509	80.003	19.995	103.143	19.913	4.842	0.536
886.000	524.500	80.003	19.994	103.143	19.913	4.820	0.493
888.000	525.502	80.003	19.994	103.143	19.912	4.942	0.497
890.000	526.547	80.004	19.994	103.144	19.911	5.040	0.510
892.000	527.590	80.005	19.994	103.143	19.913	4.812	0.524
894.000	528.627	80.003	19.994	103.149	19.915	4.660	0.537
896.000	529.626	80.003	19.994	103.148	19.914	4.734	0.526
898.000	530.615	80.003	19.996	103.144	19.915	4.708	0.491
900.000	531.672	80.002	19.995	103.154	19.914	4.754	0.499
902.000	532.672	80.001	19.995	103.156	19.912	4.900	0.504
904.000	533.712	80.004	19.994	103.148	19.912	4.955	0.492
906.000	534.763	80.006	19.994	103.157	19.916	4.629	0.517
908.000	535.754	80.005	19.994	103.145	19.914	4.730	0.474
910.000	536.806	80.004	19.996	103.146	19.915	4.667	0.506
912.000	537.824	80.004	19.995	103.150	19.913	4.882	0.481
914.000	538.833	80.004	19.993	103.146	19.912	4.895	0.532
916.000	539.818	80.006	19.994	103.139	19.914	4.762	0.512
918.000	540.842	80.006	19.994	103.141	19.912	4.925	0.496
920.000	541.861	80.005	19.994	103.140	19.917	4.562	0.501
922.000	542.879	80.006	19.993	103.140	19.914	4.749	0.516
924.000	543.865	80.006	19.993	103.140	19.915	4.713	0.489
926.000	544.894	80.007	19.993	103.150	19.911	5.026	0.523
928.000	545.914	80.007	19.994	103.148	19.912	4.917	0.495
930.000	547.031	80.006	19.995	103.139	19.910	5.088	0.568
932.000	548.030	80.004	19.994	103.142	19.909	5.142	0.515
934.000	549.107	80.004	19.995	103.142	19.909	5.136	0.542
936.000	550.161	80.004	19.995	103.149	19.909	5.183	0.542
938.000	551.214	80.005	19.995	103.145	19.913	4.861	0.516
940.000	552.297	80.006	19.994	103.147	19.910	5.078	0.503
942.000	553.399	80.007	19.994	103.140	19.911	4.991	0.556
944.000	554.433	80.007	19.996	103.147	19.907	5.323	0.553
946.000	555.511	80.007	19.994	103.147	19.909	5.172	0.548
948.000	556.599	80.006	19.994	103.143	19.912	4.949	0.557
950.000	557.680	80.006	19.994	103.146	19.910	5.048	0.536
952.000	558.727	80.005	19.996	103.161	19.907	5.333	0.528
954.000	559.805	80.004	19.996	103.157	19.911	4.972	0.542
956.000	560.865	80.004	19.995	103.147	19.908	5.239	0.509
958.000	561.925	80.006	19.995	103.139	19.909	5.157	0.532
960.000	563.006	80.002	19.995	103.143	19.907	5.297	0.527
962.000	564.076	80.003	19.994	103.148	19.911	5.030	0.530
964.000	565.083	80.004	19.995	103.145	19.911	5.000	0.540
966.000	566.135	80.004	19.994	103.146	19.909	5.193	0.535
968.000	567.219	80.004	19.995	103.146	19.908	5.256	0.525
970.000	568.267	80.003	19.995	103.146	19.907	5.299	0.508
972.000	569.355	80.004	19.995	103.143	19.910	5.074	0.530
974.000	570.385	80.004	19.995	103.140	19.910	5.093	0.524
976.000	571.436	80.004	19.996	103.138	19.905	5.444	0.531
978.000	572.455	80.005	19.996	103.138	19.909	5.149	0.503
980.000	573.509	80.005	19.995	103.141	19.908	5.213	0.533
982.000	574.569	80.003	19.995	103.151	19.910	5.060	0.541
984.000	575.607	80.004	19.994	103.100	19.913	4.826	0.498
986.000	576.663	80.003	19.996	103.195	19.911	5.013	0.517
988.000	577.694	80.004	19.993	103.142	19.913	4.867	0.494
990.000	578.701	80.005	19.995	103.145	19.913	4.856	0.543
992.000	579.764	80.005	19.993	103.141	19.910	5.090	0.544
994.000	580.786	80.005	19.995	103.142	19.914	4.755	0.539
996.000	581.834	80.005	19.995	103.140	19.911	4.964	0.531
998.000	582.832	80.006	19.995	103.140	19.914	4.796	0.488
1000.000	583.897	80.005	19.994	103.141	19.916	4.586	0.567
1002.000	584.875	80.007	19.992	103.140	19.913	4.865	0.522
1004.000	585.901	80.007	19.995	103.140	19.913	4.824	0.514
1006.000	586.887	80.004	19.993	103.138	19.908	5.241	0.484
1008.000	587.892	80.006	19.995	103.144	19.909	5.138	0.514
1010.000	588.915	80.002	19.993	103.144	19.909	5.150	0.511
1012.000	589.948	80.004	19.995	103.147	19.906	5.387	0.543
1014.000	590.965	80.005	19.996	103.146	19.911	5.022	0.496
1016.000	591.993	80.003	19.994	103.144	19.913	4.880	0.515
1018.000	593.020	80.006	19.994	103.144	19.911	5.030	0.503
1020.000	594.041	80.006	19.995	103.142	19.909	5.136	0.515
1022.000	595.094	80.007	19.994	103.143	19.908	5.207	0.515
1024.000	596.077	80.006	19.993	103.144	19.910	5.108	0.510
1025.999	597.086	80.006	19.993	103.142	19.909	5.183	0.482
1028.000	598.136	80.007	19.995	103.145	19.908	5.213	0.518
1029.999	599.162	80.008	19.994	103.145	19.909	5.150	0.505
1031.999	600.205	80.005	19.992	103.151	19.907	5.341	0.480
1033.999	601.235	80.003	19.994	103.142	19.911	5.037	0.511
1035.999	602.290	80.003	19.997	103.144	19.909	5.168	0.535
1037.999	603.308	80.004	19.995	103.142	19.911	4.983	0.530
1040.000	604.340	80.003	19.995	103.141	19.911	5.007	0.506
1041.999	605.407	80.002	19.994	103.137	19.910	5.112	0.510
1043.999	606.441	80.003	19.995	103.139	19.909	5.157	0.500
1045.999	607.453	80.003	19.994	103.139	19.910	5.078	0.504
1047.999	608.545	80.004	19.996	103.139	19.910	5.090	0.576
1049.999	609.600	80.004	19.994	103.140	19.906	5.369	0.519
1052.000	610.651	80.004	19.996	103.140	19.912	4.929	0.535
1053.999	611.700	80.005	19.994	103.142	19.906	5.419	0.523
1055.999	612.760	80.005	19.996	103.142	19.909	5.178	0.534
1057.999	613.778	80.003	19.996	103.139	19.912	4.886	0.521
1059.999	614.834	80.003	19.996	103.138	19.913	4.858	0.518
1061.999	615.877	80.003	19.995	103.135	19.909	5.138	0.531
1063.999	616.958	80.003	19.995	103.136	19.908	5.213	0.537
1066.000	618.005	80.004	19.994	103.137	19.909	5.189	0.526
1067.999	619.009	80.004	19.995	103.137	19.912	4.962	0.494
1069.999	620.056	80.002	19.995	103.132	19.910	5.069	0.502
1071.999	621.143	80.004	19.996	103.138	19.909	5.153	0.558
1073.999	622.167	80.005	19.995	103.140	19.909	5.146	0.520
1075.999	623.135	80.004	19.994	103.142	19.910	5.065	0.473
1077.999	624.227	80.004	19.993	103.143	19.910	5.080	0.516
1079.999	625.232	80.005	19.996	103.142	19.908	5.209	0.529
1081.999	626.251	80.005	19.993	103.145	19.912	4.925	0.508
1084.000	627.288	80.006	19.994	103.142	19.909	5.151	0.513
1085.999	628.341	80.006	19.994	103.143	19.912	4.960	0.509
1087.999	629.371	80.005	19.995	103.144	19.912	4.949	0.522
1089.999	630.402	80.005	19.995	103.143	19.913	4.880	0.557
1091.999	631.358	80.006	19.994	103.143	19.911	4.985	0.506
1093.999	632.409	80.004	19.995	103.142	19.908	5.275	0.511
1095.999	633.464	80.005	19.994	103.148	19.911	4.981	0.525
1097.999	634.480	80.005	19.993	103.143	19.908	5.236	0.545
1099.999	635.518	80.006	19.994	103.144	19.909	5.148	0.515
1101.999	636.588	80.004	19.994	103.144	19.910	5.088	0.549
1103.999	637.567	80.006	19.994	103.142	19.911	4.996	0.524
1105.999	638.573	80.007	19.993	103.134	19.910	5.050	0.497
1107.999	639.624	80.008	19.993	103.139	19.910	5.116	0.541
1109.999	640.626	80.007	19.994	103.137	19.910	5.080	0.510
1111.999	641.645	80.006	19.995	103.139	19.911	5.032	0.514
1113.999	642.642	80.007	19.993	103.136	19.909	5.146	0.476
1115.999	643.674	80.007	19.994	103.139	19.909	5.153	0.473
1117.999	644.673	80.006	19.994	103.139	19.909	5.165	0.523
1120.000	645.728	80.004	19.995	103.148	19.909	5.131	0.516
1121.999	646.709	80.006	19.995	103.141	19.909	5.198	0.493
1123.999	647.723	80.005	19.994	103.139	19.910	5.101	0.496
1125.999	648.706	80.004	19.995	103.140	19.907	5.350	0.472
1127.999	649.743	80.004	19.995	103.140	19.909	5.191	0.509
1129.999	650.748	80.003	19.995	103.139	19.908	5.260	0.470
1131.999	651.758	80.004	19.996	103.139	19.912	4.940	0.484
1133.999	652.775	80.004	19.996	103.139	19.914	4.740	0.520
1135.999	653.787	80.005	19.995	103.137	19.910	5.045	0.509
1137.999	654.811	80.004	19.995	103.135	19.909	5.181	0.505
1139.999	655.735	80.003	19.995	103.138	19.909	5.150	0.479
1141.999	656.741	80.005	19.995	103.135	19.912	4.938	0.485
1143.999	657.751	80.004	19.994	103.135	19.909	5.125	0.497
1145.999	658.761	80.004	19.995	103.141	19.908	5.254	0.534
1147.999	659.714	80.004	19.995	103.141	19.911	4.994	0.472
1149.999	660.655	80.004	19.996	103.138	19.910	5.095	0.509
1151.999	661.668	80.003	19.996	103.138	19.911	5.020	0.499
1153.999	662.663	80.003	19.995	103.140	19.911	5.028	0.502
1155.999	663.629	80.003	19.996	103.143	19.911	4.968	0.493
1157.999	664.600	80.004	19.995	103.142	19.910	5.116	0.470
1159.999	665.562	80.004	19.995	103.142	19.910	5.082	0.479
1161.999	666.591	80.005	19.995	103.141	19.911	5.034	0.520
1164.000	667.574	80.005	19.994	103.139	19.909	5.154	0.496
1165.999	668.556	80.005	19.994	103.139	19.911	4.991	0.488
1167.999	669.585	80.004	19.995	103.140	19.913	4.878	0.486
1169.999	670.584	80.005	19.995	103.139	19.911	5.021	0.520
1171.999	671.552	80.005	19.994	103.138	19.908	5.242	0.478
1173.999	672.570	80.006	19.994	103.127	19.907	5.309	0.492
1176.000	673.566	80.004	19.995	103.132	19.912	4.927	0.520
1177.999	674.596	80.004	19.995	103.136	19.913	4.830	0.502
1179.999	675.636	80.004	19.996	103.130	19.913	4.845	0.492
1182.000	676.642	80.005	19.995	103.125	19.914	4.738	0.506
1183.999	677.623	80.006	19.994	103.136	19.910	5.041	0.496
1185.999	678.681	80.006	19.995	103.130	19.908	5.246	0.513
1187.999	679.690	80.007	19.994	103.133	19.909	5.169	0.502
1189.999	680.767	80.007	19.993	103.138	19.913	4.875	0.533
1191.999	681.810	80.007	19.995	103.140	19.907	5.279	0.551
1193.999	682.864	80.006	19.995	103.139	19.905	5.442	0.503
1195.999	683.916	80.006	19.994	103.132	19.908	5.239	0.526
1197.999	684.957	80.006	19.994	103.124	19.903	5.664	0.523
1199.999	685.948	80.005	19.994	103.125	19.907	5.288	0.513
1201.999	687.027	80.006	19.996	103.134	19.906	5.412	0.545
1203.999	688.039	80.005	19.994	103.136	19.907	5.337	0.494
1206.000	689.064	80.004	19.994	103.136	19.908	5.234	0.490
1207.999	690.050	80.004	19.995	103.141	19.908	5.213	0.474
1209.999	691.054	80.004	19.994	103.137	19.907	5.331	0.476
1211.999	692.060	80.004	19.993	103.136	19.908	5.243	0.485
1213.999	693.072	80.004	19.995	103.144	19.907	5.307	0.516
1215.999	694.094	80.005	19.994	103.080	19.905	5.440	0.511
1217.999	695.087	80.004	19.994	103.138	19.910	5.115	0.496
1219.999	696.147	80.005	19.994	103.194	19.908	5.242	0.533
1221.999	697.118	80.005	19.995	103.134	19.907	5.354	0.491
1223.999	698.152	80.004	19.994	103.140	19.905	5.473	0.511
1225.999	699.150	80.005	19.995	103.138	19.904	5.592	0.483
1227.999	700.201	80.003	19.995	103.129	19.907	5.313	0.550
1229.999	701.131	80.004	19.995	103.126	19.908	5.236	0.485
1231.999	702.149	80.004	19.994	103.139	19.902	5.715	0.487
1233.999	703.189	80.004	19.996	103.136	19.904	5.585	0.528
1235.999	704.202	80.004	19.995	103.137	19.908	5.250	0.490
1237.999	705.204	80.005	19.995	103.128	19.906	5.413	0.484
1239.999	706.182	80.005	19.996	103.132	19.909	5.126	0.499
1241.999	707.194	80.005	19.995	103.133	19.907	5.315	0.512
1244.000	708.218	80.007	19.996	103.126	19.905	5.495	0.506
1245.999	709.213	80.006	19.995	103.120	19.907	5.326	0.526
1247.999	710.199	80.007	19.994	103.113	19.903	5.658	0.518
1249.999	711.221	80.005	19.994	103.114	19.902	5.727	0.485
1251.999	712.293	80.007	19.997	103.132	19.905	5.500	0.517
1253.999	713.294	80.006	19.995	103.119	19.904	5.545	0.518
1256.000	714.245	80.004	19.996	103.128	19.904	5.552	0.540
1257.999	715.271	80.004	19.995	103.126	19.906	5.410	0.495
1260.000	716.261	80.005	19.996	103.129	19.906	5.418	0.523
1261.999	717.333	80.005	19.996	103.123	19.900	5.894	0.517
1263.999	718.290	80.005	20.000	103.134	19.902	5.694	0.505
1265.999	719.331	80.007	19.995	103.136	19.902	5.690	0.512
1267.999	720.336	80.007	19.995	103.133	19.903	5.637	0.523
1270.000	721.335	80.008	19.995	103.129	19.905	5.495	0.481
1272.000	722.386	80.007	19.994	103.125	19.906	5.401	0.512
1274.000	723.374	80.008	19.993	103.116	19.907	5.334	0.497
1275.999	724.372	80.007	19.994	103.112	19.908	5.270	0.479
1277.999	725.409	80.006	19.996	103.125	19.907	5.336	0.511
1279.999	726.400	80.005	19.994	103.119	19.909	5.143	0.488
1281.999	727.410	80.004	19.994	103.134	19.911	5.004	0.490
1283.999	728.424	80.004	19.994	103.121	19.905	5.470	0.525
1285.999	729.443	80.005	19.997	103.133	19.907	5.350	0.506
1287.999	730.528	80.004	19.994	103.130	19.910	5.118	0.525
1289.999	731.599	80.005	19.994	103.118	19.908	5.257	0.510
1291.999	732.651	80.002	19.993	103.137	19.907	5.344	0.516
1293.999	733.759	80.005	19.995	103.142	19.906	5.388	0.547
1295.999	734.817	80.003	19.996	103.137	19.910	5.090	0.555
1297.999	735.830	80.003	19.993	103.129	19.907	5.286	0.505
1299.999	736.897	80.005	19.996	103.123	19.910	5.088	0.503
1301.999	737.990	80.006	19.996	103.132	19.908	5.262	0.540
1303.999	739.035	80.005	19.996	103.135	19.909	5.129	0.541
1305.999	740.095	80.005	19.996	103.136	19.910	5.062	0.536
1307.999	741.134	80.006	19.993	103.139	19.911	5.034	0.516
1309.999	742.208	80.004	19.995	103.140	19.905	5.440	0.533
1311.999	743.279	80.004	19.995	103.140	19.906	5.365	0.529