File: 01_Data/PC/Cone/PC_Cone_HF25Scan_220216_R3.csv
Names,Time,Stack TC,Smoke TC,Exh Press,Smoke Comp,Smoke Meas,CO Meter,CO2 Meter,O2 Meter,Sample Mass,Ext Coeff,Start Test,Flame Verif
Chan Gain,,500,500,1,1,1,1,1,1,1,1,1.0,1.0
Offset,,0,0,0.140898,0,0,0,0,0,0,0,0.0,0.0
Gain,,1,1,25.011,12.9668,12.6588,1,1,1,1.00088,1.01977,1.0,1.0
Units,sec,C,C,Pa,%,%,%,%,%,g,/m,,
Baseline,,21.4637,22.6278,160.909,98.1535,100.184,-0.00285997,0.060626,20.9851,-873.01,-0.183042,,
7,1.5,20.8377,20.6877,158.171,97.573,97.9851,-0.00276773,0.0696236,20.9731,59.9026,-0.0377008,0.0,0.0
14,3.25,20.2134,21.6621,159.12,97.3351,97.9654,-0.00284082,0.0696705,20.9739,60.0928,-0.0577319,0.0,0.0
21,5,20.8001,21.4016,161.521,97.1262,97.8727,-0.00289876,0.0702917,20.9738,60.0628,-0.068485,0.0,0.0
28,6.75,20.7921,21.4724,160.452,96.9489,98.3227,-0.00291052,0.0710513,20.9738,60.0427,-0.125868,0.0,0.0
35,8.5,20.439,21.7617,161.553,96.8583,97.5713,-0.0028888,0.0711737,20.9744,60.0828,-0.0656089,0.0,0.0
42,10.25,20.5542,21.48,162.613,96.827,98.2161,-0.00285337,0.0706118,20.9762,60.0728,-0.127414,0.0,0.0
49,12,21.0239,21.7298,159.716,96.8346,97.3816,-0.00279379,0.0693777,20.9784,60.0828,-0.0503953,0.0,0.0
56,13.75,20.9344,21.9069,159.431,96.9046,97.4156,-0.00275901,0.0680947,20.9807,60.0628,-0.0470495,0.0,0.0
63,15.5,20.5136,21.3061,159.922,96.994,97.8634,-0.00283947,0.0664866,20.983,60.0728,-0.0798181,0.0,0.0
70,17.25,20.7245,21.5972,160.974,97.1523,98.3339,-0.00298434,0.0651575,20.9853,60.0828,-0.108139,0.0,0.0
77,19,20.5645,22.2837,161.749,97.2805,98.2551,-0.0030884,0.0640563,20.9864,60.0628,-0.089169,0.0,0.0
84,20.75,20.9086,22.3398,157.365,97.4471,98.6074,-0.00309928,0.0631115,20.9869,60.0728,-0.105882,0.0,0.0
91,22.5,20.5091,22.2571,162.116,97.5987,98.6229,-0.00307562,0.0622731,20.9876,60.0628,-0.0933818,0.0,0.0
98,24.25,21.0298,22.1641,163.008,97.7419,98.5514,-0.00312094,0.0616835,20.989,60.0828,-0.0737777,0.0,0.0
105,26,20.7367,22.2135,161.07,97.8694,98.6518,-0.00316584,0.0612705,20.9897,60.0828,-0.0712363,0.0,0.0
112,27.75,20.4809,22.515,159.944,97.9715,98.9354,-0.00320918,0.0609135,20.99,60.0527,-0.0875837,0.0,0.0
119,29.5,20.8137,22.4326,157.513,98.0486,99.2128,-0.00320639,0.0607815,20.9902,60.0628,-0.105586,0.0,0.0
126,31.25,20.9135,22.2675,160.576,98.0941,99.5748,-0.00312934,0.0607822,20.9903,60.0628,-0.134012,0.0,0.0
133,33,20.9874,22.4518,157.751,98.1468,98.4428,-0.00299816,0.0607182,20.9905,60.0628,-0.0269466,0.0,0.0
140,34.75,21.1611,22.3044,160.002,98.1388,99.0304,-0.00291164,0.0606279,20.9909,60.0427,-0.0809021,0.0,0.0
147,36.5,21.521,22.0631,159.495,98.1155,99.1525,-0.00292877,0.0605384,20.991,60.0427,-0.0940504,0.0,0.0
154,38.25,21.0878,21.2272,159.901,98.0874,98.2964,-0.00302969,0.0605435,20.9911,60.0628,-0.0190437,0.0,0.0
161,40,21.145,22.1491,161.795,98.0403,99.4921,-0.00309194,0.0605619,20.9902,60.0628,-0.131491,0.0,0.0
168,41.75,21.0195,22.5413,162.333,97.9972,99.4705,-0.00308618,0.0605389,20.9896,60.0628,-0.133483,0.0,0.0
175,43.5,21.3814,22.5835,160.618,97.9422,99.1162,-0.0030631,0.060596,20.9888,60.0628,-0.106591,0.0,0.0
182,45.25,21.2401,22.017,160.334,97.8868,99.0382,-0.00303764,0.0606063,20.9884,60.0527,-0.104605,0.0,0.0
189,47,21.3226,22.0646,162.625,97.8527,98.5781,-0.00297597,0.060716,20.9887,60.0527,-0.0660622,0.0,0.0
196,48.75,21.0467,22.561,162.368,97.8155,99.1077,-0.00285062,0.0607952,20.989,60.0427,-0.117397,0.0,0.0
203,50.5,20.7988,21.5832,164.767,97.7673,99.1923,-0.00277558,0.060798,20.9892,60.0427,-0.129445,0.0,0.0
210,52.25,20.7406,21.6992,159.106,97.7447,98.5584,-0.0028191,0.0608484,20.9893,60.0227,-0.0741551,0.0,0.0
217,54,21.4668,21.8968,156.857,97.7229,99.0409,-0.00296614,0.0608069,20.9893,60.0427,-0.119833,0.0,0.0
224,55.75,21.4398,22.1106,160.422,97.8535,99.1332,-0.00312158,0.0608555,20.9893,60.0327,-0.116223,0.0,0.0
231,57.5,21.5709,22.5564,163.425,98.0308,99.6416,-0.00315772,0.0608993,20.9894,60.0227,-0.14579,0.0,0.0
238,59.25,21.2943,22.5056,159.437,98.1828,99.1139,-0.00317043,0.0607755,20.9894,60.0227,-0.0844339,0.0,0.0
245,61,21.1084,22.3562,163.489,98.3031,99.3727,-0.00317341,0.0606283,20.9894,60.0227,-0.0968101,0.0,0.0
252,62.75,20.9955,21.9497,160.925,98.4202,99.8359,-0.00317712,0.0606078,20.9894,60.0127,-0.127757,0.0,0.0
259,64.5,21.4645,22.5712,162.858,98.4993,99.9889,-0.00320468,0.0607384,20.9894,60.0227,-0.134263,0.0,0.0
266,66.25,21.5031,22.6248,160.866,98.5373,99.9194,-0.00319295,0.0607505,20.9894,60.0127,-0.124591,0.0,0.0
273,68,20.8238,22.2975,160.712,98.5579,99.9754,-0.00314097,0.0606662,20.9894,60.0127,-0.127737,0.0,0.0
280,69.75,21.5785,22.611,155.501,98.5666,99.511,-0.00310268,0.0606508,20.988,60.0227,-0.0853016,0.0,0.0
287,71.5,21.1478,22.6286,164.555,98.5801,99.9224,-0.0030825,0.0606178,20.9879,60.0227,-0.120989,0.0,0.0
294,73.25,21.6599,22.2762,170.239,98.5536,99.8757,-0.0030083,0.060567,20.9878,60.0227,-0.119209,0.0,0.0
301,75,21.0137,22.0512,158.038,98.5144,99.2916,-0.00278371,0.0605418,20.9878,60.0127,-0.0702958,0.0,0.0
308,76.75,21.1944,22.2362,160.703,98.4511,99.1038,-0.00261041,0.0605789,20.9877,60.0127,-0.059116,0.0,0.0
315,78.5,21.4604,22.5217,162.199,98.4166,99.4929,-0.00263602,0.0606863,20.9877,60.0027,-0.0972899,0.0,0.0
322,80.25,21.103,22.3312,159.228,98.3628,99.6713,-0.00283445,0.0606645,20.9877,60.0027,-0.118216,0.0,0.0
329,82,21.3739,22.1538,159.017,98.2979,98.855,-0.00306215,0.0606151,20.9877,60.0127,-0.0505578,0.0,0.0
336,83.75,21.2003,22.8278,160.643,98.2168,99.5014,-0.00319445,0.0606629,20.9877,60.0127,-0.116236,0.0,0.0
343,85.5,20.8901,21.6487,158.46,98.1551,99.5763,-0.00323705,0.0606362,20.9877,60.0127,-0.128596,0.0,0.0
350,87.25,21.4205,22.2412,161.685,98.0787,98.5557,-0.00323407,0.0606609,20.9877,60.0127,-0.0433964,0.0,0.0
357,89,20.9051,22.0225,161.965,98.0245,99.0563,-0.0032273,0.0606565,20.9873,59.9927,-0.09367,0.0,0.0
364,90.75,21.5792,22.6177,157.832,98.0257,98.9462,-0.00316458,0.0604894,20.9863,59.9927,-0.0836131,0.0,0.0
371,92.5,21.561,22.097,157.3,98.0387,99.1305,-0.00306227,0.0604495,20.9867,59.9927,-0.0990655,0.0,0.0
378,94.25,21.2869,22.4755,163.906,98.0763,99.1042,-0.00300938,0.0604587,20.9881,59.9927,-0.0932654,0.0,0.0
385,96,21.28,22.2477,161.223,98.0985,99.1251,-0.00305825,0.0605598,20.9889,60.0027,-0.0931275,0.0,0.0
392,97.75,21.0389,22.32,159.957,98.1234,99.494,-0.00315424,0.0605007,20.9893,60.0027,-0.124086,0.0,0.0
399,99.5,21.2882,22.5313,162.885,98.1309,99.1649,-0.00319903,0.0606005,20.9895,59.9827,-0.0937589,0.0,0.0
406,101.25,21.4644,22.8843,156.378,98.1555,99.5234,-0.00314028,0.0606077,20.9888,60.0027,-0.123804,0.0,0.0
413,103,21.3048,22.6659,163.755,98.1741,99.3495,-0.00306577,0.0605579,20.9881,60.0127,-0.10647,0.0,0.0
420,104.75,21.6902,22.6544,164.401,98.184,99.1235,-0.00305474,0.0604653,20.9879,60.0027,-0.0851972,0.0,0.0
427,106.5,21.0223,22.3565,163.922,98.1958,99.2031,-0.00306386,0.0604159,20.9888,59.9927,-0.0912948,0.0,0.0
434,108.25,21.3624,22.6326,161.347,98.2247,99.2325,-0.00300168,0.0605481,20.9893,59.9927,-0.0913104,0.0,0.0
441,110,21.6172,22.6889,158.914,98.2496,99.0285,-0.00290861,0.0606178,20.9887,59.9927,-0.0706333,0.0,0.0
448,111.75,21.351,22.7937,158.508,98.2769,99.776,-0.00286129,0.0606874,20.988,59.9827,-0.135419,0.0,0.0
455,113.5,21.5741,22.6792,158.153,98.3177,99.0111,-0.00285767,0.0607714,20.9877,59.9827,-0.062869,0.0,0.0
462,115.25,21.2883,22.7023,162.676,98.3193,99.4202,-0.00291928,0.0607796,20.9875,59.9727,-0.0996106,0.0,0.0
469,117,21.4535,22.7579,161.334,98.3458,100.149,-0.00299824,0.0608729,20.9882,59.9727,-0.162515,0.0,0.0
476,118.75,21.5219,22.7965,158.586,98.3854,99.3519,-0.00297124,0.0609092,20.9886,59.9727,-0.0874453,0.0,0.0
483,120.5,21.6089,23.0438,164.746,98.4135,99.9429,-0.00288009,0.0607898,20.9888,59.9827,-0.137951,0.0,0.0
490,122.25,21.4228,22.8065,159.625,98.4178,99.6485,-0.0028295,0.0607053,20.9889,59.9727,-0.111169,0.0,0.0
497,124,22.1219,22.8195,161.45,98.453,99.6072,-0.00284961,0.0607145,20.989,59.9627,-0.104257,0.0,0.0
504,125.75,20.9179,22.117,159.271,98.491,100.02,-0.00295421,0.0608952,20.9881,59.9727,-0.137816,0.0,0.0
511,127.5,21.7444,23.0444,160.574,98.516,99.3913,-0.00305828,0.0610262,20.9874,59.9627,-0.0791274,0.0,0.0
518,129.25,21.8223,22.7229,161.598,98.5326,100.153,-0.00309932,0.0610672,20.987,59.9627,-0.145921,0.0,0.0
525,131,22.0412,22.6814,163.135,98.5441,99.5948,-0.00304615,0.0610868,20.9869,59.9727,-0.0948813,0.0,0.0
532,132.75,21.8707,23.0783,161.167,98.5864,99.9514,-0.00296992,0.0611423,20.9868,59.9827,-0.123007,0.0,0.0
539,134.5,21.9995,22.7714,160.624,98.582,99.5435,-0.00292191,0.0612029,20.9868,59.9727,-0.086817,0.0,0.0
546,136.25,22.1317,23.0351,161.263,98.6062,100.046,-0.00292971,0.0612614,20.9868,59.9727,-0.129679,0.0,0.0
553,138,22.2188,22.9693,161.858,98.6133,99.6957,-0.00296069,0.0613222,20.9867,59.9827,-0.0976488,0.0,0.0
560,139.75,21.6515,23.2178,164.485,98.637,100.131,-0.00296123,0.0613263,20.9855,59.9627,-0.134509,0.0,0.0
567,141.5,21.6697,23.1952,159.634,98.6549,99.9348,-0.00293753,0.0614301,20.9843,59.9627,-0.115311,0.0,0.0
574,143.25,21.563,22.8391,163,98.6663,99.5755,-0.00291568,0.0614621,20.9837,59.9627,-0.0820531,0.0,0.0
581,145,22.0742,23.02,158.625,98.6699,100.551,-0.00294993,0.061423,20.9834,59.9627,-0.168899,0.0,0.0
588,146.75,22.3282,23.1754,159.247,98.6976,99.7942,-0.00302452,0.061488,20.9833,59.9527,-0.0988413,0.0,0.0
595,148.5,21.6929,22.9628,160.473,98.7035,100.482,-0.00306747,0.0615264,20.9832,59.9527,-0.159731,0.0,0.0
602,150.25,21.6502,23.3467,159.696,98.7063,99.788,-0.0030571,0.0615587,20.9832,59.9627,-0.0974985,0.0,0.0
609,152,22.2224,22.9291,160.556,98.7071,100.124,-0.00308316,0.0616177,20.9832,59.9627,-0.12747,0.0,0.0
616,153.75,21.6561,22.6306,161.456,98.7146,100.219,-0.00313003,0.0618018,20.9832,59.9527,-0.135274,0.0,0.0
623,155.5,21.5942,23.014,160.367,98.7372,100.038,-0.00313687,0.0618777,20.9826,59.9527,-0.11708,0.0,0.0
630,157.25,21.7403,23.3443,164.063,98.7459,99.7293,-0.00307358,0.062013,20.9817,59.9527,-0.0886472,0.0,0.0
637,159,22.2659,23.5986,161.423,98.7538,99.6609,-0.00300373,0.0621432,20.9813,59.9727,-0.0817953,0.0,0.0
644,160.75,21.9669,23.0641,160.329,98.7546,100.006,-0.00293903,0.0620706,20.9821,59.9527,-0.112634,0.0,0.0
651,162.5,21.7355,23.1309,158.241,98.7609,100.541,-0.0029115,0.0619082,20.9829,59.9627,-0.159792,0.0,0.0
658,164.25,21.6392,23.0574,159.535,98.7819,99.7285,-0.0029682,0.0619278,20.984,59.9627,-0.0853161,0.0,0.0
665,166,21.9617,22.6928,159.52,98.7775,100.198,-0.0030623,0.0619301,20.9842,59.9426,-0.127747,0.0,0.0
672,167.75,21.6895,23.3072,158.496,98.7811,100.427,-0.00305697,0.0619258,20.9835,59.9426,-0.147853,0.0,0.0
679,169.5,21.9933,23.1857,158.955,98.7831,99.8742,-0.00298164,0.062026,20.9831,59.9326,-0.0982623,0.0,0.0
686,171.25,22.2253,23.7441,161.84,98.7965,100.084,-0.00292264,0.0621304,20.983,59.9627,-0.115847,0.0,0.0
693,173,21.6211,23.0741,155.697,98.7977,100.437,-0.00293441,0.0621438,20.9829,59.9527,-0.147174,0.0,0.0
700,174.75,22.1603,23.4509,160.895,98.8048,99.9646,-0.00299439,0.0621401,20.9829,59.9426,-0.104385,0.0,0.0
707,176.5,22.3168,23.858,160.364,98.7957,100.356,-0.00304785,0.062185,20.9822,59.9426,-0.14016,0.0,0.0
714,178.25,22.0342,23.526,163.681,98.7993,99.7123,-0.00306152,0.0623161,20.9813,59.9426,-0.0822839,0.0,0.0
721,180,21.9206,23.3671,159.609,98.8048,100.567,-0.00307878,0.0623219,20.9809,59.9426,-0.158117,0.0,0.0
728,181.75,22.4969,23.716,161.746,98.8048,99.9306,-0.00316956,0.0622746,20.9811,59.9426,-0.101343,0.0,0.0
735,183.5,21.9062,23.1451,159.663,98.7989,100.257,-0.00328297,0.0623738,20.9813,59.9527,-0.131088,0.0,0.0
742,185.25,21.9321,22.9718,161.568,98.7977,100.103,-0.00335652,0.0622458,20.9821,59.9326,-0.117431,0.0,0.0
749,187,21.8715,23.1014,159.183,98.8013,100.249,-0.00328462,0.0621157,20.9832,59.9126,-0.130115,0.0,0.0
756,188.75,22.5289,23.8568,161.744,98.8009,99.5292,-0.00316236,0.0620799,20.9834,59.9326,-0.065698,0.0,0.0
763,190.5,21.443,22.873,163.227,98.8052,100.294,-0.0030755,0.0621557,20.9826,59.9226,-0.133789,0.0,0.0
770,192.25,22.2808,23.1916,158.986,98.7926,100.057,-0.00311055,0.0622379,20.9818,59.9126,-0.113789,0.0,0.0
777,194,22.4535,23.7029,158.997,98.8005,99.8653,-0.00320177,0.0623182,20.9814,59.9326,-0.0958901,0.0,0.0
784,195.75,22.3513,23.7504,161.083,98.8088,99.8819,-0.00331859,0.062473,20.9812,59.9226,-0.0966258,0.0,0.0
791,197.5,22.2102,23.5067,160.638,98.8001,100.437,-0.00330969,0.0625632,20.9811,59.9226,-0.146994,0.0,0.0
798,199.25,22.2889,23.4855,160.024,98.7835,99.97,-0.00317667,0.0626533,20.981,59.9326,-0.106804,0.0,0.0
805,201,22.1961,23.9098,156.767,98.7937,100.379,-0.00302617,0.062674,20.981,59.9326,-0.14237,0.0,0.0
812,202.75,22.1619,23.8712,162.378,98.8032,99.868,-0.00291915,0.0627462,20.981,59.9326,-0.0958815,0.0,0.0
819,204.5,22.3841,23.7696,158.445,98.7965,100.248,-0.00286937,0.0628685,20.981,59.9326,-0.130441,0.0,0.0
826,206.25,22.3507,23.4732,159.547,98.8036,100.329,-0.00286659,0.0629153,20.981,59.9226,-0.137032,0.0,0.0
833,208,22.3301,23.7656,159.209,98.7747,100.335,-0.00285602,0.0627771,20.981,59.9426,-0.140165,0.0,0.0
840,209.75,22.4387,23.5112,162.795,98.785,99.9414,-0.00282255,0.0627814,20.9823,59.9026,-0.104102,0.0,0.0
847,211.5,22.3204,23.3295,159.363,98.787,99.9955,-0.00283114,0.0627968,20.9829,59.9226,-0.108763,0.0,0.0
854,213.25,22.4803,23.5527,159.069,98.7854,100.358,-0.00296188,0.0627517,20.9832,59.9226,-0.141263,0.0,0.0
861,215,22.2433,23.5075,165.777,98.774,99.8923,-0.00305738,0.0626845,20.9833,59.9126,-0.100713,0.0,0.0
868,216.75,22.6438,24.1091,158.49,98.7684,100.28,-0.00305891,0.0626914,20.9834,59.9226,-0.135881,0.0,0.0
875,218.5,21.8288,23.3067,160.192,98.77,100.026,-0.00297398,0.06277,20.9834,59.9226,-0.113033,0.0,0.0
882,220.25,22.1558,23.7456,160.7,98.7664,100.055,-0.00287151,0.0628724,20.9835,59.9126,-0.115981,0.0,0.0
889,222,22.0625,23.1258,155.083,98.7526,100.052,-0.0027977,0.0628446,20.9835,59.9326,-0.116924,0.0,0.0
896,223.75,22.5555,24.2838,159.67,98.7467,100.013,-0.00274944,0.0628511,20.9835,59.9026,-0.114007,0.0,0.0
903,225.5,22.3326,24.1685,159.276,98.7407,99.8888,-0.00274082,0.0629129,20.9837,59.9026,-0.103412,0.0,0.0
910,227.25,22.324,24.0194,158.194,98.7387,99.4338,-0.00273808,0.0629445,20.9848,59.9026,-0.0627449,0.0,0.0
917,229,22.1582,23.1568,161.324,98.7245,100.311,-0.00270771,0.0629839,20.9853,59.9026,-0.14265,0.0,0.0
924,230.75,22.0618,24.2216,160.885,98.7087,100.205,-0.00270825,0.0629324,20.9855,59.9126,-0.134571,0.0,0.0
931,232.5,22.2682,23.3877,161.978,98.7154,99.9688,-0.00275443,0.0628565,20.9856,59.9026,-0.112866,0.0,0.0
938,234.25,22.2993,24.0477,163.239,98.7043,99.6045,-0.00286778,0.0628392,20.9857,59.9026,-0.0812126,0.0,0.0
945,236,22.4706,23.6564,159.505,98.6996,99.9823,-0.00306779,0.0628003,20.9853,59.8926,-0.115509,0.0,0.0
952,237.75,22.4373,24.0208,156.802,98.6853,99.484,-0.00327297,0.0628314,20.9843,59.8926,-0.0721033,0.0,0.0
959,239.5,22.3973,24.2528,160.735,98.675,100.358,-0.00340101,0.0628814,20.9839,59.9026,-0.151266,0.0,0.0
966,241.25,22.5312,23.661,161.138,98.6762,100.619,-0.00343831,0.0628766,20.9837,59.9026,-0.174441,0.0,0.0
973,243,22.318,23.8835,162.871,98.6655,99.8769,-0.00338266,0.0630161,20.9836,59.8926,-0.109154,0.0,0.0
980,244.75,22.8244,24.0688,156.778,98.6545,100.369,-0.00325843,0.0632388,20.9838,59.8826,-0.154165,0.0,0.0
987,246.5,22.5132,23.9031,159.323,98.6323,99.8738,-0.00313228,0.0633347,20.9838,59.8826,-0.111892,0.0,0.0
994,248.25,22.438,24.1544,161.878,98.6216,100.288,-0.0030622,0.0634047,20.9829,59.8626,-0.14991,0.0,0.0
1001,250,22.2686,23.5076,161.666,98.6074,100.158,-0.0030199,0.063392,20.9825,59.8626,-0.139582,0.0,0.0
1008,251.75,22.0983,23.9815,160.115,98.5927,99.7695,-0.00296764,0.063502,20.9822,59.8726,-0.106134,0.0,0.0
1015,253.5,21.8213,24.4076,159.122,98.5634,100.009,-0.00292854,0.0635323,20.9821,59.8726,-0.130241,0.0,0.0
1022,255.25,22.3298,23.7728,160.586,98.5587,99.9051,-0.00291138,0.0634542,20.9823,59.8726,-0.121371,0.0,0.0
1029,257,22.6651,23.9686,159.011,98.5377,100.068,-0.00290272,0.0636183,20.9827,59.8626,-0.137826,0.0,0.0
1036,258.75,21.9639,23.8042,161.179,98.5282,100.093,-0.00289578,0.0635329,20.9829,59.8626,-0.140932,0.0,0.0
1043,260.5,22.9388,23.6616,160.558,98.5045,100.064,-0.00289208,0.0636881,20.982,59.8626,-0.140498,0.0,0.0
1050,262.25,22.1729,23.8814,163.536,98.4863,99.9008,-0.00285448,0.063827,20.9814,59.8626,-0.127566,0.0,0.0
1057,264,22.4181,23.8368,156.91,98.493,99.5446,-0.00284938,0.0637368,20.9811,59.8626,-0.0950042,0.0,0.0
1064,265.75,22.4188,23.8299,159.463,98.4835,99.5566,-0.00294061,0.0638458,20.9806,59.8626,-0.0969433,0.0,0.0
1071,267.5,22.5682,23.7736,157.488,98.4788,100.009,-0.00311782,0.0638733,20.9803,59.8626,-0.137929,0.0,0.0
1078,269.25,22.6905,24.0757,160.336,98.4427,100.367,-0.00324039,0.0638086,20.9801,59.8626,-0.17314,0.0,0.0
1085,271,22.2839,24.0565,160.171,98.4348,99.7219,-0.00328899,0.0639303,20.9801,59.8526,-0.11621,0.0,0.0
1092,272.75,22.1012,23.5838,163.442,98.4241,100.043,-0.00326807,0.0641052,20.98,59.8526,-0.145932,0.0,0.0
1099,274.5,22.6617,24.3777,159.167,98.4008,99.8425,-0.00319324,0.0642692,20.98,59.8426,-0.130107,0.0,0.0
1106,276.25,22.5417,24.0947,160.404,98.3703,99.9093,-0.00316548,0.0643219,20.9798,59.8526,-0.138864,0.0,0.0
1113,278,22.3619,23.9545,165.29,98.3589,99.625,-0.00315978,0.0642986,20.9793,59.8326,-0.114413,0.0,0.0
1120,279.75,22.2547,24.0167,156.369,98.3537,99.6281,-0.00314587,0.0642154,20.9786,59.8426,-0.115159,0.0,0.0
1127,281.5,22.6991,24.3879,155.888,98.3244,99.7853,-0.00322141,0.0642859,20.9782,59.8426,-0.131929,0.0,0.0
1134,283.25,23.1418,24.6003,158.296,98.3054,99.2452,-0.00335755,0.0642871,20.9781,59.8426,-0.085111,0.0,0.0
1141,285,22.7824,24.1206,156.245,98.286,99.4508,-0.00343749,0.0643689,20.978,59.8426,-0.105381,0.0,0.0
1148,286.75,22.8294,24.3714,162.802,98.2793,100.042,-0.00336917,0.0644608,20.9776,59.8426,-0.159035,0.0,0.0
1155,288.5,22.4635,24.1118,155.892,98.2809,99.9564,-0.00318794,0.0645035,20.9773,59.8426,-0.151219,0.0,0.0
1162,290.25,22.8543,24.3102,158.962,98.2465,98.9709,-0.00310188,0.0645228,20.9772,59.8326,-0.0657211,0.0,0.0
1169,292,22.8477,24.0014,159.389,98.2287,99.2271,-0.00311646,0.064437,20.9771,59.8326,-0.0904621,0.0,0.0
1176,293.75,22.9629,24.4157,161.909,98.2093,98.6198,-0.0031354,0.0642941,20.9771,59.8326,-0.0373131,0.0,0.0
1183,295.5,22.8868,24.2385,161.704,98.2093,99.674,-0.00314462,0.0643314,20.9771,59.8225,-0.132432,0.0,0.0
1190,297.25,22.8788,23.8693,162.759,98.1871,99.377,-0.00317104,0.0643539,20.9775,59.8326,-0.10775,0.0,0.0
1197,299,22.9401,24.5183,163.196,98.1626,99.4183,-0.00320328,0.064343,20.9777,59.8225,-0.113705,0.0,0.0
1204,300.75,22.629,24.3058,159.834,98.1384,99.3913,-0.00321198,0.0644384,20.9778,59.8225,-0.113472,0.0,0.0
1211,302.5,23.2706,24.5176,158.955,98.1289,99.5423,-0.00320223,0.0645019,20.9773,59.8225,-0.127922,0.0,0.0
1218,304.25,22.9934,24.6681,163.155,98.1072,99.4457,-0.00320741,0.0645819,20.9769,59.8326,-0.121223,0.0,0.0
1225,306,22.9471,24.2457,160.342,98.0787,99.2792,-0.00322775,0.0645841,20.9763,59.8225,-0.108831,0.0,0.0
1232,307.75,23.2512,24.9044,160.539,98.0482,99.3298,-0.0032395,0.064671,20.975,59.8326,-0.116169,0.0,0.0
1239,309.5,23.2515,24.4123,164.308,98.0423,99.4631,-0.00314852,0.0648617,20.9742,59.8125,-0.128705,0.0,0.0
1246,311.25,22.5405,24.2537,158.709,98.0162,99.2108,-0.00301181,0.0649583,20.9739,59.8125,-0.108372,0.0,0.0
1253,313,23.4771,24.5199,164.969,98.0332,99.3685,-0.00290911,0.0649234,20.9737,59.8025,-0.12102,0.0,0.0
1260,314.75,22.9448,24.8945,163.886,98.1147,100.099,-0.00286515,0.0650079,20.9736,59.8125,-0.179107,0.0,0.0
1267,316.5,22.5134,23.9904,158.342,98.1923,99.5975,-0.00292338,0.0651093,20.9735,59.8125,-0.127115,0.0,0.0
1274,318.25,23.5546,24.8375,159.138,98.2611,99.8599,-0.00307423,0.0650722,20.9735,59.8225,-0.144373,0.0,0.0
1281,320,22.6588,24.291,158.375,98.3272,100.05,-0.00321075,0.065268,20.9735,59.8125,-0.155368,0.0,0.0
1288,321.75,23.2731,24.7572,161.858,98.3822,99.1884,-0.00328181,0.0653806,20.9735,59.8225,-0.0730079,0.0,0.0
1295,323.5,22.7707,24.9562,160.961,98.4198,99.9734,-0.00328484,0.0654146,20.9735,59.8225,-0.140107,0.0,0.0
1302,325.25,23.0209,24.614,163.081,98.4665,99.8687,-0.00326676,0.0654345,20.9735,59.8326,-0.126491,0.0,0.0
1309,327,22.9987,24.678,157.69,98.508,99.6957,-0.00323916,0.0654631,20.9734,59.8125,-0.107202,0.0,0.0
1316,328.75,22.9276,24.4433,160.883,98.5302,99.9081,-0.00321133,0.0655273,20.9734,59.8225,-0.124235,0.0,0.0
1323,330.5,22.8723,24.576,160.304,98.55,99.9251,-0.00320804,0.0654651,20.9734,59.8125,-0.12396,0.0,0.0
1330,332.25,23.2416,24.4992,155.575,98.5619,99.9016,-0.00321062,0.0654282,20.9734,59.7925,-0.120772,0.0,0.0
1337,334,22.6666,24.354,157.076,98.5658,100.285,-0.00322635,0.065526,20.9734,59.8025,-0.154662,0.0,0.0
1344,335.75,23.0086,24.4628,160.164,98.5666,100.067,-0.00319244,0.0654579,20.9734,59.8125,-0.135169,0.0,0.0
1351,337.5,22.6591,24.3479,165.28,98.5646,99.6953,-0.00308688,0.0652513,20.9734,59.7925,-0.10203,0.0,0.0
1358,339.25,22.6936,24.9261,155.408,98.5389,99.637,-0.00293748,0.0653164,20.9734,59.8025,-0.0991292,0.0,0.0
1365,341,23.4703,24.5478,165.891,98.5223,99.6818,-0.00280904,0.065249,20.9734,59.8025,-0.104661,0.0,0.0
1372,342.75,23.5779,24.6478,159.816,98.5061,100.218,-0.00274254,0.0653187,20.9734,59.8125,-0.154124,0.0,0.0
1379,344.5,23.3934,24.7127,155.199,98.4784,100.378,-0.00278701,0.0652582,20.9734,59.8125,-0.170938,0.0,0.0
1386,346.25,23.0531,24.187,161.846,98.4257,99.7787,-0.00290331,0.0651605,20.9734,59.8125,-0.122129,0.0,0.0
1393,348,22.9163,24.6229,160.673,98.4,100.037,-0.00297598,0.0651399,20.9746,59.8025,-0.147573,0.0,0.0
1400,349.75,23.3143,24.6292,158.487,98.366,100.048,-0.00300233,0.0650968,20.9758,59.8125,-0.151634,0.0,0.0
1407,351.5,23.3043,24.2793,160.55,98.3157,99.8494,-0.00302778,0.0650707,20.9764,59.8025,-0.138469,0.0,0.0
1414,353.25,23.0577,24.527,159.874,98.2663,99.8602,-0.00308455,0.0650762,20.9767,59.8225,-0.143939,0.0,0.0
1421,355,22.5117,24.3451,161.178,98.1986,99.6045,-0.00315864,0.065053,20.9768,59.8225,-0.127163,0.0,0.0
1428,356.75,23.5684,24.8965,158.513,98.1511,99.6381,-0.00319702,0.0650419,20.9769,59.8025,-0.134507,0.0,0.0
1435,358.5,23.1408,24.3063,161.849,98.0791,99.8143,-0.00322039,0.0649967,20.9769,59.8225,-0.156875,0.0,0.0
1442,360.25,23.5444,24.8016,162.265,97.9956,99.5609,-0.00324488,0.0650368,20.9769,59.7925,-0.141753,0.0,0.0
1449,362,23.1001,24.3547,159.771,97.9038,99.3816,-0.00326576,0.0652015,20.9759,59.8025,-0.134017,0.0,0.0
1456,363.75,22.8737,23.8155,158.796,97.8104,98.2597,-0.00327418,0.0654087,20.9752,59.7825,-0.0410007,0.0,0.0
1463,365.5,23.3971,24.8463,162.285,97.7269,99.5948,-0.00325665,0.0655453,20.9749,59.7925,-0.169368,0.0,0.0
1470,367.25,22.8359,24.5215,160.04,97.7269,99.3982,-0.00319274,0.0656794,20.9748,59.8025,-0.151688,0.0,0.0
1477,369,22.9459,24.311,161.881,97.7265,99.4198,-0.00309987,0.0657347,20.9747,59.7925,-0.153672,0.0,0.0
1484,370.75,23.0799,24.9025,158.641,97.7324,98.7392,-0.00302363,0.0657131,20.9743,59.7725,-0.0916729,0.0,0.0
1491,372.5,23.1623,24.636,158.797,97.7629,99.6184,-0.00305052,0.0656139,20.9733,59.7925,-0.168188,0.0,0.0
1498,374.25,22.9653,24.5132,158.875,97.7906,98.7894,-0.00316421,0.0657715,20.9719,59.7925,-0.0908978,0.0,0.0
1505,376,23.5023,24.4982,159.008,97.7926,98.9505,-0.00324193,0.0659607,20.971,59.7825,-0.105292,0.0,0.0
1512,377.75,23.0659,24.7058,161.917,97.7965,99.2823,-0.0032812,0.06596,20.9706,59.7925,-0.13488,0.0,0.0
1519,379.5,23.1926,24.6964,158.664,97.8322,99.8409,-0.00324585,0.0659146,20.9703,59.8125,-0.181813,0.0,0.0
1526,381.25,23.5607,24.7378,158.967,97.8563,99.3561,-0.00316173,0.0658281,20.9702,59.7925,-0.136062,0.0,0.0
1533,383,23.0429,24.3913,159.85,97.8753,99.2777,-0.00312774,0.065795,20.9708,59.7925,-0.127262,0.0,0.0
1540,384.75,23.1767,24.7122,159.037,97.8899,98.8195,-0.00318988,0.0657832,20.9716,59.7825,-0.0845459,0.0,0.0
1547,386.5,23.3623,24.2042,158.496,97.9172,99.5427,-0.00326382,0.0659172,20.972,59.8025,-0.147276,0.0,0.0
1554,388.25,23.2436,24.4891,160.135,97.9572,99.9634,-0.00333421,0.0658608,20.9722,59.7825,-0.181352,0.0,0.0
1561,390,23.3873,24.5193,157.874,97.9715,99.4573,-0.00344176,0.0657703,20.9723,59.7825,-0.13465,0.0,0.0
1568,391.75,22.971,24.4896,162.568,97.9992,99.7467,-0.00361515,0.0657336,20.9713,59.7525,-0.158108,0.0,0.0
1575,393.5,23.3664,25.1433,163.761,98.009,99.7536,-0.00370731,0.0658543,20.9711,59.7725,-0.157828,0.0,0.0
1582,395.25,22.8667,24.0939,154.198,98.0367,99.3627,-0.00371609,0.0659087,20.972,59.7625,-0.120173,0.0,0.0
1589,397,23.401,24.7339,153.989,98.0637,99.6744,-0.00370764,0.0657557,20.9732,59.7825,-0.145741,0.0,0.0
1596,398.75,23.1637,24.5482,157.764,98.0747,100.322,-0.00365665,0.0655906,20.974,59.7725,-0.202684,0.0,0.0
1603,400.5,23.1915,24.8403,160.508,98.0941,99.9993,-0.00355274,0.0654742,20.9743,59.7725,-0.172072,0.0,0.0
1610,402.25,23.0422,24.5834,159.241,98.1179,99.3785,-0.00338865,0.065317,20.9745,59.7625,-0.1142,0.0,0.0
1617,404,23.2072,24.643,162.881,98.1313,99.7532,-0.0032443,0.0652428,20.9746,59.7625,-0.14664,0.0,0.0
1624,405.75,23.0514,24.9662,155.934,98.1412,99.7185,-0.00318942,0.065255,20.9746,59.7625,-0.14262,0.0,0.0
1631,407.5,23.3808,25.1184,158.26,98.1388,99.8293,-0.00318047,0.0651751,20.9746,59.7425,-0.152777,0.0,0.0
1638,409.25,24.0402,24.3953,160.418,98.1214,99.9333,-0.00316846,0.065176,20.9746,59.7525,-0.16367,0.0,0.0
1645,411,23.3478,25.0401,157.385,98.125,99.8305,-0.00314964,0.0651591,20.9746,59.7725,-0.154143,0.0,0.0
1652,412.75,22.8398,24.6764,159.456,98.0914,99.8676,-0.00311794,0.0650327,20.975,59.7725,-0.160532,0.0,0.0
1659,414.5,23.2463,24.895,159.684,98.0771,99.958,-0.00313449,0.064953,20.9753,59.7925,-0.169925,0.0,0.0
1666,416.25,23.6404,25.0952,162.364,98.0375,99.6006,-0.00320296,0.0649042,20.9752,59.7925,-0.141499,0.0,0.0
1673,418,23.6268,24.5351,161.221,97.9932,99.3793,-0.00326403,0.0648632,20.9747,59.7925,-0.125641,0.0,0.0
1680,419.75,23.417,24.78,155.744,97.9596,99.5554,-0.0032835,0.0647352,20.9745,59.7625,-0.144555,0.0,0.0
1687,421.5,22.996,24.648,157.783,97.9109,99.4565,-0.00330669,0.064738,20.9744,59.7925,-0.14011,0.0,0.0
1694,423.25,23.525,25.0299,160.382,97.8436,99.8618,-0.00338337,0.0647338,20.9742,59.7925,-0.182632,0.0,0.0
1701,425,23.1018,25.0301,157.517,97.7772,98.867,-0.00345157,0.0648516,20.9729,59.7925,-0.0991577,0.0,0.0
1708,426.75,23.0505,24.5319,163.311,97.7138,98.6264,-0.00340914,0.0652266,20.972,59.7625,-0.0831487,0.0,0.0
1715,428.5,23.2489,25.0426,160.749,97.6438,98.8485,-0.00323934,0.0655931,20.9706,59.7825,-0.109688,0.0,0.0
1722,430.25,23.7414,25.0089,161.075,97.5647,99.3302,-0.00310468,0.0659419,20.9697,59.7825,-0.160431,0.0,0.0
1729,432,23.4521,25.0567,160.534,97.4764,99.0888,-0.0031136,0.066265,20.9693,59.7925,-0.146755,0.0,0.0
1736,433.75,22.9562,24.8258,158.775,97.4107,98.7334,-0.00319216,0.0666157,20.9686,59.7925,-0.120642,0.0,0.0
1743,435.5,23.3817,24.8475,161.566,97.3355,98.8222,-0.00315482,0.0669158,20.968,59.8025,-0.135595,0.0,0.0
1750,437.25,23.1472,24.8474,160.142,97.2615,98.9269,-0.00304333,0.0672041,20.9668,59.8025,-0.151871,0.0,0.0
1757,439,23.5072,25.1918,161.062,97.1729,98.1736,-0.00297768,0.0674843,20.966,59.7825,-0.0916482,0.0,0.0
1764,440.75,23.3001,24.7493,162.364,97.1211,99.0192,-0.00297615,0.067751,20.9656,59.8025,-0.173144,0.0,0.0
1771,442.5,23.1753,24.7516,157.767,97.0633,98.7055,-0.00299922,0.0679881,20.9654,59.7825,-0.150084,0.0,0.0
1778,444.25,23.3601,24.5254,159.918,96.9925,98.4985,-0.00302785,0.068355,20.965,59.7625,-0.137829,0.0,0.0
1785,446,23.472,24.5646,161.891,96.9477,98.7967,-0.00298811,0.0686311,20.9636,59.7525,-0.168998,0.0,0.0
1792,447.75,23.3273,24.7811,158.535,96.8785,98.3212,-0.00294638,0.0688896,20.9628,59.7825,-0.132228,0.0,0.0
1799,449.5,23.4909,24.6681,157.648,96.8579,98.3266,-0.00292974,0.0690968,20.9624,59.7825,-0.134621,0.0,0.0
1806,451.25,23.4103,24.7825,159.506,96.8179,98.3196,-0.00290558,0.0693091,20.9622,59.7625,-0.13768,0.0,0.0
1813,453,22.8851,24.5383,157.445,96.8092,98.4734,-0.00293571,0.0694348,20.9621,59.7725,-0.152462,0.0,0.0
1820,454.75,23.3077,25.1103,158.172,96.7942,98.6067,-0.00299988,0.0694432,20.9621,59.7725,-0.165951,0.0,0.0
1827,456.5,22.9748,24.8127,156.135,96.8148,98.517,-0.00302443,0.0694344,20.9621,59.7725,-0.155915,0.0,0.0
1834,458.25,23.3294,24.5053,157.045,96.8729,98.4305,-0.00302122,0.0693653,20.9621,59.7725,-0.142681,0.0,0.0
1841,460,23.5246,24.5674,160.088,96.8856,98.2022,-0.00300732,0.0694008,20.9621,59.7625,-0.120738,0.0,0.0
1848,461.75,23.0835,24.1398,163.982,96.9355,98.6449,-0.00298806,0.069244,20.9621,59.7525,-0.156373,0.0,0.0
1855,463.5,23.8995,25.0974,157.539,96.9905,98.8033,-0.00297028,0.069026,20.9625,59.7525,-0.165651,0.0,0.0
1862,465.25,23.1236,24.5771,159.861,97.0613,98.8261,-0.00298796,0.0688337,20.9627,59.7625,-0.161183,0.0,0.0
1869,467,23.518,25.0365,158.172,97.1385,98.5924,-0.00304432,0.0687556,20.9628,59.7725,-0.132894,0.0,0.0
1876,468.75,23.4693,24.8957,163.44,97.2275,99.2626,-0.00307481,0.0686524,20.9638,59.7825,-0.185305,0.0,0.0
1883,470.5,23.4678,25.1041,161.375,97.3031,99.0741,-0.00306703,0.0685322,20.9645,59.7825,-0.161349,0.0,0.0
1890,472.25,23.6711,24.9976,158.724,97.4119,99.0281,-0.00301443,0.068334,20.9649,59.7825,-0.147199,0.0,0.0
1897,474,23.7079,24.7958,157.626,97.5128,99.1935,-0.00297011,0.0682483,20.965,59.7625,-0.152861,0.0,0.0
1904,475.75,23.3928,25.014,162.059,97.6212,99.5002,-0.00300251,0.0679757,20.9651,59.7625,-0.170538,0.0,0.0
1911,477.5,23.3583,25.1744,158.964,97.7119,98.9651,-0.00312993,0.0678444,20.9652,59.7625,-0.114007,0.0,0.0
1918,479.25,23.3653,24.9731,163.499,97.8239,98.9126,-0.00325748,0.0676766,20.9652,59.7525,-0.09901,0.0,0.0
1925,481,23.0341,24.5109,162.317,97.9434,99.7065,-0.00328276,0.0675352,20.9652,59.7425,-0.159598,0.0,0.0
1932,482.75,23.5515,24.9204,158.47,98.0542,100.01,-0.00325217,0.0674098,20.9658,59.7325,-0.176651,0.0,0.0
1939,484.5,23.4081,24.9842,159.799,98.1594,99.8212,-0.00321893,0.0672261,20.9667,59.7225,-0.150174,0.0,0.0
1946,486.25,23.285,25.0651,161.369,98.2706,100.019,-0.00318386,0.0669612,20.9669,59.7425,-0.15772,0.0,0.0
1953,488,23.4471,24.6093,160.841,98.3648,99.5948,-0.00314199,0.0668545,20.9667,59.7525,-0.111168,0.0,0.0
1960,489.75,23.4462,25.1248,159.407,98.4578,100.107,-0.00308605,0.0668073,20.966,59.7525,-0.148641,0.0,0.0
1967,491.5,23.5438,25.1754,161.103,98.5171,99.5396,-0.00299956,0.0668019,20.9657,59.7425,-0.0923608,0.0,0.0
1974,493.25,23.304,24.8681,157.38,98.5789,100.161,-0.00285704,0.0668102,20.9655,59.7225,-0.142444,0.0,0.0
1981,495,23.4582,25.0175,160.082,98.6327,100.765,-0.00274874,0.0667638,20.9655,59.7325,-0.19136,0.0,0.0
1988,496.75,23.086,24.2692,161.032,98.7011,100.647,-0.00277719,0.0666933,20.9648,59.7425,-0.174619,0.0,0.0
1995,498.5,23.4235,24.8998,159.235,98.7435,100.527,-0.00293334,0.0666981,20.9635,59.7325,-0.160166,0.0,0.0
2002,500.25,23.2948,24.7119,156.412,98.7819,100.879,-0.00303278,0.066891,20.9629,59.7525,-0.187917,0.0,0.0
2009,502,23.6036,24.9317,161.238,98.7969,100.845,-0.00305489,0.0669966,20.9636,59.7225,-0.183541,0.0,0.0
2016,503.75,23.3232,24.8389,161.835,98.8151,100.935,-0.00308498,0.0670221,20.9641,59.7225,-0.189839,0.0,0.0
2023,505.5,23.3967,24.8549,165.318,98.8068,100.574,-0.00314961,0.0669435,20.9643,59.7225,-0.15859,0.0,0.0
2030,507.25,23.3489,24.8706,156.729,98.793,100.593,-0.0031865,0.0669226,20.9645,59.7225,-0.161494,0.0,0.0
2037,509,23.484,25.1973,153.767,98.7569,100.723,-0.00318217,0.0669454,20.9652,59.7225,-0.176291,0.0,0.0
2044,510.75,23.6179,25.1166,156.178,98.7289,100.163,-0.00316925,0.0669941,20.9659,59.7425,-0.128983,0.0,0.0
2051,512.5,23.2701,24.8947,161.456,98.6893,100.912,-0.00316138,0.0669774,20.9662,59.7325,-0.199252,0.0,0.0
2058,514.25,23.483,24.8188,163.765,98.6422,100.277,-0.00314384,0.0669903,20.9663,59.7124,-0.14701,0.0,0.0
2065,516,23.4122,24.9777,160.062,98.5856,100.427,-0.0031252,0.0668661,20.9664,59.7225,-0.165573,0.0,0.0
2072,517.75,23.3111,25.1318,160.408,98.5302,100.233,-0.00315306,0.0668378,20.9662,59.7225,-0.153243,0.0,0.0
2079,519.5,23.4225,25.3578,157.431,98.4728,100.496,-0.00325667,0.0668239,20.9659,59.7225,-0.181935,0.0,0.0
2086,521.25,23.5063,24.6684,157.094,98.4083,99.6683,-0.00329326,0.0667446,20.9657,59.7124,-0.113801,0.0,0.0
2093,523,23.5236,24.9846,159.575,98.3327,100.046,-0.00321081,0.0667124,20.9657,59.7124,-0.154554,0.0,0.0
2100,524.75,23.249,25.0895,158.163,98.2734,100.269,-0.00313777,0.0665638,20.9657,59.7024,-0.179829,0.0,0.0
2107,526.5,23.1361,24.936,156.88,98.2283,99.6953,-0.0031518,0.0664808,20.9666,59.7225,-0.132609,0.0,0.0
2114,528.25,23.0209,24.6271,158.586,98.1654,99.7324,-0.00319368,0.0664735,20.9673,59.7024,-0.141668,0.0,0.0
2121,530,23.8206,24.9823,158.9,98.1293,99.8687,-0.00320299,0.0663518,20.9676,59.7225,-0.157173,0.0,0.0
2128,531.75,23.9557,25.1716,162.687,98.0732,99.8865,-0.00321126,0.0663464,20.9684,59.6924,-0.163889,0.0,0.0
2135,533.5,23.427,25.0542,159.346,98.049,100.201,-0.00328675,0.0661366,20.9691,59.7124,-0.194242,0.0,0.0
2142,535.25,23.7342,24.8825,156.386,98.0257,99.8927,-0.00335662,0.0661008,20.9694,59.7024,-0.168774,0.0,0.0
2149,537,23.1346,24.9874,161.498,98.1111,99.6999,-0.00333426,0.0660807,20.9696,59.7024,-0.143698,0.0,0.0
2156,538.75,23.2277,24.8961,158.012,98.2025,99.9696,-0.0032929,0.0659944,20.9697,59.6924,-0.159529,0.0,0.0
2163,540.5,23.2064,24.5888,152.964,98.2896,100.016,-0.00326767,0.0659858,20.9697,59.6924,-0.155715,0.0,0.0
2170,542.25,23.9388,25.2212,162.324,98.3731,100.12,-0.00325297,0.0660418,20.9697,59.6824,-0.157478,0.0,0.0
2177,544,23.7471,25.3951,159.344,98.4435,100.673,-0.00325285,0.0659668,20.9697,59.6924,-0.200365,0.0,0.0
2184,545.75,23.7903,25.3038,161.7,98.4985,100.128,-0.0032415,0.0658386,20.9697,59.6924,-0.146734,0.0,0.0
2191,547.5,23.7503,25.3907,161.45,98.5215,99.8715,-0.00320386,0.0657296,20.9697,59.6924,-0.121738,0.0,0.0
2198,549.25,23.5593,24.9086,159.002,98.5599,100.431,-0.00323791,0.065657,20.9697,59.6824,-0.168217,0.0,0.0
2205,551,23.4124,25.0292,156.757,98.6002,100.447,-0.00332957,0.0656159,20.9697,59.6824,-0.165966,0.0,0.0
2212,552.75,23.3428,24.9174,167.489,98.5931,100.37,-0.00342039,0.065654,20.97,59.6824,-0.159763,0.0,0.0
2219,554.5,23.693,25.1327,158.484,98.5848,100.553,-0.00353771,0.065603,20.9707,59.6824,-0.176856,0.0,0.0
2226,556.25,23.7269,25.0458,161.905,98.5721,100.422,-0.00365067,0.0654218,20.9709,59.6924,-0.166347,0.0,0.0
2233,558,23.5828,25.2038,159.646,98.5733,100.422,-0.00366016,0.0652499,20.971,59.6924,-0.166205,0.0,0.0
2240,559.75,23.7076,24.6807,158.919,98.5373,100.094,-0.00357388,0.0649763,20.971,59.6924,-0.140244,0.0,0.0
2247,561.5,23.9219,25.0216,158.344,98.4851,100.484,-0.00345317,0.0648221,20.9718,59.6824,-0.17972,0.0,0.0
2254,563.25,23.5492,25.3892,162.933,98.4336,100.157,-0.00334047,0.0647218,20.9726,59.6924,-0.155218,0.0,0.0
2261,565,23.3525,24.6321,164,98.3723,100.07,-0.00323606,0.0644932,20.9732,59.6924,-0.153096,0.0,0.0
2268,566.75,23.501,25.2715,161.552,98.3145,100.024,-0.00313901,0.064418,20.9744,59.7024,-0.154206,0.0,0.0
2275,568.5,24.069,24.9769,159.026,98.237,100.597,-0.00304886,0.0641491,20.975,59.7024,-0.21239,0.0,0.0
2282,570.25,23.9302,25.2956,156.196,98.1432,100.255,-0.00300668,0.0639865,20.9753,59.6824,-0.190412,0.0,0.0
2289,572,23.6573,24.8449,159.209,98.0609,99.584,-0.00305664,0.0640658,20.9755,59.6924,-0.137877,0.0,0.0
2296,573.75,23.3962,24.8182,158.016,97.9623,99.6845,-0.00306728,0.0640331,20.9755,59.6924,-0.155888,0.0,0.0
2303,575.5,24.0443,24.8721,156.881,97.8709,99.968,-0.00298267,0.0638931,20.9756,59.6924,-0.189648,0.0,0.0
2310,577.25,23.8741,24.838,154.669,97.7661,98.6943,-0.00291681,0.0638378,20.9764,59.7024,-0.0845335,0.0,0.0
2317,579,23.36,25.5927,159.296,97.7657,99.2665,-0.00292589,0.0638314,20.9775,59.6724,-0.136276,0.0,0.0
2324,580.75,23.7875,25.1108,162.508,97.7831,99.7617,-0.00300619,0.0638748,20.978,59.6924,-0.179202,0.0,0.0
2331,582.5,23.9799,24.9543,159.129,97.7946,99.8726,-0.00313154,0.0640128,20.9772,59.6824,-0.188089,0.0,0.0
2338,584.25,23.4867,25.1185,157.45,97.8231,99.8614,-0.00324434,0.0640934,20.9767,59.6724,-0.184479,0.0,0.0
2345,586,23.519,25.3183,161.595,97.8207,99.856,-0.00333557,0.0640338,20.9765,59.6824,-0.184212,0.0,0.0
2352,587.75,23.2785,25.2609,163.245,97.846,99.827,-0.00336647,0.0640053,20.9763,59.6824,-0.179301,0.0,0.0
2359,589.5,23.1627,25.1408,156.832,97.8674,99.7896,-0.00335929,0.064095,20.9763,59.6724,-0.173989,0.0,0.0
2366,591.25,23.6737,25.3308,162.838,97.8951,99.9248,-0.00334414,0.0641967,20.9763,59.6624,-0.183569,0.0,0.0
2373,593,23.5474,25.2576,158.121,97.9062,100.026,-0.00329889,0.0642106,20.9762,59.6624,-0.191613,0.0,0.0
2380,594.75,23.2027,24.4175,155.917,97.9216,99.805,-0.00323453,0.0642572,20.9762,59.6724,-0.17042,0.0,0.0
2387,596.5,23.5074,25.1059,158.764,97.954,99.771,-0.00321025,0.0643479,20.9762,59.6824,-0.164409,0.0,0.0
2394,598.25,23.1351,24.4724,159.488,97.977,100.398,-0.00321813,0.0642933,20.9762,59.6924,-0.218387,0.0,0.0
2401,600,23.086,24.8557,159.736,97.9904,99.6006,-0.00318191,0.0643973,20.9759,59.6724,-0.145796,0.0,0.0
2408,601.75,23.4116,25.1568,162.159,97.9995,99.5466,-0.00309,0.064472,20.9748,59.6624,-0.140107,0.0,0.0
2415,603.5,23.2063,25.4559,158.476,98.0272,100.23,-0.00299503,0.0646417,20.9739,59.6824,-0.198815,0.0,0.0
2422,605.25,23.508,25.4175,161.135,98.0371,100.176,-0.00298139,0.0646436,20.9735,59.6724,-0.193083,0.0,0.0
2429,607,23.5319,24.9115,161.351,98.047,99.5269,-0.00301575,0.0645156,20.9734,59.6724,-0.134003,0.0,0.0
2436,608.75,23.8159,25.8305,157.518,98.0522,99.8885,-0.00302296,0.0643628,20.9733,59.6624,-0.165975,0.0,0.0
2443,610.5,23.5041,24.9019,159.357,98.0573,100.398,-0.00303068,0.0642632,20.9732,59.6624,-0.210987,0.0,0.0
2450,612.25,23.5236,25.3818,156.521,98.0921,100.371,-0.0030428,0.064192,20.9731,59.6824,-0.205469,0.0,0.0
2457,614,23.6487,25.1987,161.098,98.1056,99.9808,-0.00301981,0.0641932,20.9727,59.6724,-0.169367,0.0,0.0
2464,615.75,23.8773,25.0753,158.003,98.1052,100.398,-0.00299507,0.0640734,20.9737,59.6724,-0.20662,0.0,0.0
2471,617.5,23.2497,25.137,158.741,98.1088,99.6628,-0.00307089,0.0639955,20.9742,59.6724,-0.140587,0.0,0.0
2478,619.25,23.5659,25.1009,155.239,98.1278,100.275,-0.00323269,0.0639314,20.9744,59.6724,-0.193645,0.0,0.0
2485,621,23.8724,25.6907,158.571,98.1388,100.032,-0.0033201,0.0639329,20.9745,59.6524,-0.170897,0.0,0.0
2492,622.75,23.4162,25.0707,155.992,98.1337,99.7579,-0.00329697,0.0640303,20.9748,59.6624,-0.146839,0.0,0.0
2499,624.5,23.8436,25.2197,156.862,98.11,100.01,-0.00320349,0.064044,20.9759,59.6724,-0.171561,0.0,0.0
2506,626.25,22.9858,24.8222,154.858,98.1254,100.269,-0.00319835,0.064053,20.9764,59.6724,-0.193276,0.0,0.0
2513,628,23.9629,24.7908,160.323,98.1103,100.271,-0.00322828,0.0640145,20.9767,59.6724,-0.194854,0.0,0.0
2520,629.75,21.9936,24.0187,155.912,98.0929,100.052,-0.00318576,0.063917,20.9768,59.6624,-0.176878,0.0,0.0
2527,631.5,23.0449,24.4593,158.255,98.0668,100.096,-0.00312617,0.0639112,20.9768,59.6624,-0.183232,0.0,0.0
2534,633.25,22.3696,23.9487,152.202,98.0304,99.8734,-0.00310005,0.0639109,20.9771,59.6624,-0.166611,0.0,0.0
2541,635,23.6065,24.2743,160.879,98.0146,99.6277,-0.00315954,0.0639907,20.9774,59.6724,-0.146022,0.0,0.0
2548,636.75,22.2715,23.6331,155.433,97.9928,100.187,-0.0032102,0.0640136,20.9776,59.6624,-0.198128,0.0,0.0
2555,638.5,22.8912,24.2271,162.641,97.9461,99.9275,-0.00319152,0.0638728,20.9789,59.6524,-0.179148,0.0,0.0
2562,640.25,22.7212,24.5768,158.877,97.8903,99.9333,-0.00313555,0.0636902,20.9795,59.6624,-0.184764,0.0,0.0
2569,642,22.5306,24.5042,157.955,97.8575,100.055,-0.00308544,0.0636371,20.9797,59.6624,-0.198653,0.0,0.0
2576,643.75,22.9409,24.5455,154.464,97.8187,99.9367,-0.00306625,0.0636874,20.9799,59.6724,-0.191623,0.0,0.0
2583,645.5,22.9209,24.8546,158.703,97.7779,99.6671,-0.00308306,0.0637423,20.9793,59.6624,-0.171183,0.0,0.0
2590,647.25,22.9767,24.465,160.266,97.7131,99.6006,-0.00315817,0.0639025,20.9776,59.6724,-0.171155,0.0,0.0
2597,649,22.7873,24.9085,159.685,97.6557,99.6818,-0.00321519,0.0643647,20.9764,59.6424,-0.183693,0.0,0.0
2604,650.75,23.0319,24.7345,161.84,97.6082,99.7822,-0.0031858,0.0648467,20.9758,59.6524,-0.197053,0.0,0.0
2611,652.5,23.0627,24.5676,159.924,97.5374,99.2487,-0.0031193,0.0650721,20.9755,59.6524,-0.155591,0.0,0.0
2618,654.25,23.5453,24.503,157.202,97.4594,99.6482,-0.00307018,0.0650917,20.9754,59.6524,-0.198674,0.0,0.0
2625,656,23.4311,24.5248,156.979,97.3874,99.6652,-0.00301104,0.065025,20.9758,59.6324,-0.206813,0.0,0.0
2632,657.75,22.937,24.8571,160.953,97.3165,99.3387,-0.00298694,0.0648698,20.9749,59.6524,-0.183974,0.0,0.0
2639,659.5,22.9573,24.6058,156.197,97.2556,99.3221,-0.0030385,0.0647782,20.9743,59.6324,-0.188081,0.0,0.0
2646,661.25,23.2325,24.7387,158.417,97.1887,98.9559,-0.00315654,0.0645945,20.9741,59.6324,-0.161189,0.0,0.0
2653,663,23.415,24.8786,161.308,97.1092,99.2866,-0.00325779,0.064592,20.9739,59.6324,-0.198356,0.0,0.0
2660,664.75,23.4493,24.7242,162.642,97.0486,99.3642,-0.00334932,0.0646274,20.9739,59.6324,-0.210929,0.0,0.0
2667,666.5,22.7773,25.1823,163.607,97.0122,99.2572,-0.00342338,0.0645783,20.9739,59.6324,-0.204646,0.0,0.0
2674,668.25,23.2355,24.885,153.508,96.9564,98.5387,-0.00346428,0.0645447,20.9738,59.6324,-0.144799,0.0,0.0
2681,670,22.5901,23.7521,170.691,96.9212,99.2584,-0.00344948,0.064485,20.9742,59.6324,-0.213146,0.0,0.0
2688,671.75,23.1728,24.2139,162.472,96.8579,98.7233,-0.00341736,0.064356,20.9744,59.6524,-0.170642,0.0,0.0
2695,673.5,22.661,24.5368,159.686,96.829,98.896,-0.00345342,0.0643323,20.9745,59.6424,-0.188944,0.0,0.0
2702,675.25,22.9107,24.994,161.624,96.8065,98.935,-0.00354451,0.0641737,20.9755,59.6424,-0.194556,0.0,0.0
2709,677,22.6997,23.8465,159.438,96.7807,99.3515,-0.00353623,0.0640746,20.9762,59.6424,-0.234508,0.0,0.0
2716,678.75,23.366,24.5202,157.348,96.7712,98.7511,-0.0034655,0.0640005,20.9766,59.6324,-0.181169,0.0,0.0
2723,680.5,23.5365,24.9774,158.406,96.7709,99.0084,-0.00345751,0.0638462,20.9767,59.6324,-0.204482,0.0,0.0
2730,682.25,23.237,24.9998,160.07,96.7803,98.7898,-0.00345282,0.0636808,20.9768,59.6424,-0.183827,0.0,0.0
2737,684,23.2827,24.7103,158.596,96.7942,99.1911,-0.00341208,0.0636675,20.9768,59.6224,-0.218819,0.0,0.0
2744,685.75,22.8347,24.4094,158.738,96.8049,98.6893,-0.00334746,0.0638192,20.9769,59.6324,-0.17246,0.0,0.0
2751,687.5,23.1593,25.4277,159.911,96.8302,98.4278,-0.00326992,0.063974,20.9765,59.6324,-0.146382,0.0,0.0
2758,689.25,23.0834,24.5868,159.725,96.8718,99.0316,-0.00321449,0.0638079,20.9763,59.6424,-0.197253,0.0,0.0
2765,691,22.957,25.5126,162.545,96.903,99.2031,-0.00317905,0.0636404,20.9761,59.6324,-0.209847,0.0,0.0
2772,692.75,23.5244,24.4505,157.002,96.9529,99.129,-0.00312346,0.0636467,20.9769,59.6324,-0.198555,0.0,0.0
2779,694.5,22.8034,24.6198,157.733,96.9909,98.9872,-0.00307381,0.0635587,20.9772,59.6324,-0.182247,0.0,0.0
2786,696.25,23.448,24.5749,154.659,97.0518,98.8531,-0.00304781,0.0633932,20.9774,59.6224,-0.164506,0.0,0.0
2793,698,22.8036,24.709,161.524,97.1191,99.4415,-0.00307214,0.0632964,20.9775,59.6224,-0.211392,0.0,0.0
2800,699.75,22.8365,24.6951,158.173,97.1844,99.3082,-0.00311436,0.0633409,20.9775,59.6224,-0.193382,0.0,0.0
2807,701.5,23.6563,24.2077,160.558,97.2279,99.3233,-0.00309675,0.0632878,20.9775,59.6224,-0.190733,0.0,0.0
2814,703.25,23.2394,24.5991,162.422,97.2979,99.5705,-0.00302677,0.0631743,20.9775,59.6224,-0.206532,0.0,0.0
2821,705,22.979,24.6486,161.366,97.3759,99.7942,-0.00299631,0.0632413,20.9775,59.6124,-0.21944,0.0,0.0
2828,706.75,23.0175,24.2983,161.196,97.4392,100.152,-0.00302645,0.0631764,20.9775,59.6224,-0.245599,0.0,0.0
2835,708.5,23.6293,25.0988,161.018,97.514,99.4083,-0.00304966,0.0631238,20.9779,59.6224,-0.172101,0.0,0.0
2842,710.25,23.5,25.2458,161.169,97.586,98.7569,-0.00301833,0.0632664,20.9782,59.6124,-0.106693,0.0,0.0
2849,712,23.1611,24.5693,158.016,97.6664,99.8205,-0.00300507,0.0634489,20.9783,59.6324,-0.195151,0.0,0.0
2856,713.75,22.9583,24.64,155.766,97.7392,100.124,-0.00303865,0.0635815,20.9783,59.6224,-0.215689,0.0,0.0
2863,715.5,23.5928,24.6321,158.064,97.7803,99.8668,-0.00311703,0.0635528,20.9777,59.6124,-0.188873,0.0,0.0
2870,717.25,23.6965,24.8519,156.046,97.8472,99.9622,-0.00326015,0.0634948,20.9769,59.6124,-0.191299,0.0,0.0
2877,719,23.1964,24.9864,158.29,97.9192,99.7154,-0.00338853,0.0632769,20.9762,59.6124,-0.1626,0.0,0.0
2884,720.75,23.4713,24.7688,159.96,97.9924,100.208,-0.00347777,0.0631881,20.9759,59.6023,-0.199959,0.0,0.0
2891,722.5,22.7269,24.6084,162.062,98.0514,100.252,-0.00345583,0.0632899,20.9758,59.6124,-0.198577,0.0,0.0
2898,724.25,22.5567,24.5471,158.401,98.1131,100.368,-0.0033563,0.0633443,20.9757,59.6023,-0.203247,0.0,0.0
2905,726,23.3792,24.843,158.773,98.1677,100.607,-0.00317361,0.0633233,20.9757,59.6023,-0.219523,0.0,0.0
2912,727.75,23.7444,24.5677,159.849,98.2378,100.13,-0.00307132,0.063284,20.9757,59.6124,-0.170689,0.0,0.0
2919,729.5,23.4059,25.096,160.421,98.3038,100.925,-0.00305836,0.0633278,20.9761,59.6023,-0.235352,0.0,0.0
2926,731.25,22.3861,23.9198,155.358,98.3767,100.772,-0.00311047,0.0632827,20.9763,59.6023,-0.215193,0.0,0.0
2933,733,23.1734,24.6828,160.499,98.4107,100.363,-0.00315631,0.0633571,20.9764,59.6124,-0.175744,0.0,0.0
2940,734.75,23.1289,25.0987,162.004,98.4815,100.799,-0.00318976,0.0633426,20.9765,59.6224,-0.208098,0.0,0.0
2947,736.5,22.772,24.611,159.247,98.5496,100.77,-0.00322681,0.0634339,20.9765,59.6124,-0.199312,0.0,0.0
2954,738.25,23.2031,24.5101,157.212,98.584,101.198,,0.0634266,,59.6124,-0.234104,0.0,0.0
2961,740,23.0274,25.1966,156.774,98.6343,101.126,,0.0634639,,59.6224,-0.223156,0.0,0.0
2968,741.75,23.573,24.8433,156.871,98.6699,101.162,,,,59.6224,-0.223105,0.0,0.0
2975,743.5,23.0675,24.0207,161.559,98.7122,100.933,,,,59.6124,-0.198987,0.0,0.0
2982,745.25,23.2345,24.5188,158.809,98.7387,100.977,,,,59.6124,-0.200556,0.0,0.0
2989,747,23.5606,24.7358,161.081,98.7633,101.456,,,,59.6124,-0.2406,0.0,0.0
2995,748.5,23.8315,24.8041,156.68,98.768,101.137,,,,59.5923,-0.21206,0.0,0.0