File: 01_Data/PC/Cone/PC_Cone_HF75Scan_220216_R2.csv
Names,Time,Stack TC,Smoke TC,Exh Press,Smoke Comp,Smoke Meas,CO Meter,CO2 Meter,O2 Meter,Sample Mass,Ext Coeff,Start Test,Flame Verif
Chan Gain,,500,500,1,1,1,1,1,1,1,1,1.0,1.0
Offset,,0,0,0.140898,0,0,0,0,0,0,0,0.0,0.0
Gain,,1,1,25.011,12.9668,12.6588,1,1,1,1.00088,1.01977,1.0,1.0
Units,sec,C,C,Pa,%,%,%,%,%,g,/m,,
Baseline,,51.3302,54.3321,148.198,98.3241,96.01,-0.00296662,0.0646734,20.9692,-873.544,0.21316,,
7,1.5,47.5255,49.1914,144.322,98.341,95.7742,-0.00257726,0.0842448,20.9412,59.8726,0.236591,0.0,0.0
14,3.25,47.6049,49.6184,149.768,98.3351,95.6498,-0.00265497,0.0823526,20.9443,60.0327,0.247676,0.0,0.0
21,5,47.3027,49.7162,151.406,98.3209,96.1798,-0.00284476,0.0799624,20.9469,60.0027,0.196949,0.0,0.0
28,6.75,47.2025,49.9535,151.045,98.3181,95.7124,-0.00310318,0.0777501,20.9514,59.9827,0.240278,0.0,0.0
35,8.5,47.7623,49.8615,147.296,98.3038,97.2086,-0.00322507,0.0756976,20.955,59.9927,0.100226,0.0,0.0
42,10.25,47.7475,50.4841,147.892,98.292,96.4205,-0.00322128,0.0737802,20.9575,59.9527,0.171963,0.0,0.0
49,12,47.3774,50.4802,142.344,98.2817,95.7398,-0.0032582,0.0722381,20.9592,59.9527,0.234401,0.0,0.0
56,13.75,47.8547,50.0574,145.85,98.2595,95.8062,-0.00324514,0.0709156,20.9601,59.9026,0.226178,0.0,0.0
63,15.5,48.0032,50.1362,150.029,98.2469,95.3372,-0.00314907,0.0699828,20.9604,59.8826,0.268922,0.0,0.0
70,17.25,47.8683,50.7394,147.233,98.2366,95.6057,-0.00303945,0.0693666,20.9606,59.9026,0.242829,0.0,0.0
77,19,47.9318,51.0822,151.67,98.2235,95.7301,-0.0029654,0.0688819,20.9607,59.9226,0.230008,0.0,0.0
84,20.75,48.2372,50.8622,149.767,98.199,96.4471,-0.00296132,0.0685796,20.9616,59.9126,0.161024,0.0,0.0
91,22.5,47.9648,51.4271,147.348,98.1772,96.2014,-0.00303297,0.0682157,20.9624,59.9026,0.181858,0.0,0.0
98,24.25,48.1147,50.9544,148.314,98.1701,96.0137,-0.00317552,0.0680131,20.9632,59.9026,0.198684,0.0,0.0
105,26,48.1912,51.1401,152.366,98.1527,95.0344,-0.00321695,0.0675621,20.9642,59.9026,0.288806,0.0,0.0
112,27.75,48.3143,50.9334,147.571,98.1574,96.2146,-0.00313015,0.0669778,20.9648,59.9226,0.178833,0.0,0.0
119,29.5,48.6482,51.4114,147.826,98.197,94.6067,-0.00306223,0.0666454,20.9651,59.9126,0.333189,0.0,0.0
126,31.25,48.6707,51.4783,149.802,98.2461,96.7091,-0.00311257,0.0662713,20.9652,59.9326,0.141052,0.0,0.0
133,33,48.439,51.1508,142.323,98.294,96.2068,-0.00319001,0.0662554,20.9653,59.9126,0.191986,0.0,0.0
140,34.75,48.1929,51.39,151.646,98.3383,96.6921,-0.00318866,0.0663604,20.9663,59.8826,0.151016,0.0,0.0
147,36.5,48.3181,51.2859,150.184,98.3779,96.1022,-0.00315955,0.0665158,20.967,59.9126,0.209356,0.0,0.0
154,38.25,48.2892,51.4358,146.202,98.4162,96.3741,-0.00315348,0.0664999,20.9678,59.9026,0.187567,0.0,0.0
161,40,48.3896,51.6927,145.711,98.4641,96.033,-0.00319729,0.0664416,20.9683,59.8926,0.223636,0.0,0.0
168,41.75,48.8093,51.5575,147.571,98.4894,95.9538,-0.00326219,0.0664916,20.9684,59.8826,0.233315,0.0,0.0
175,43.5,48.6359,52.2148,144.823,98.5061,95.2743,-0.00326509,0.0664975,20.9675,59.8426,0.298401,0.0,0.0
182,45.25,48.9642,51.9307,148.604,98.5373,94.7002,-0.00314503,0.0664988,20.9666,59.8526,0.355301,0.0,0.0
189,47,48.6636,51.5554,149.787,98.5642,95.6772,-0.00292471,0.0665482,20.9659,59.8526,0.26593,0.0,0.0
196,48.75,49.0001,51.7641,144.812,98.5872,94.417,-0.00272091,0.066778,20.9655,59.8726,0.386615,0.0,0.0
203,50.5,49.0959,52.2867,148.123,98.5963,95.2051,-0.00264504,0.0670097,20.9654,59.8526,0.313085,0.0,0.0
210,52.25,49.252,51.9817,150.703,98.6137,94.4816,-0.00267229,0.0673705,20.9653,59.8426,0.38291,0.0,0.0
217,54,48.7471,52.3598,148.817,98.6291,93.9083,-0.00266868,0.0677563,20.9637,59.8526,0.438753,0.0,0.0
224,55.75,49.1489,52.0517,146.001,98.6343,94.0701,-0.00253087,0.068294,20.962,59.8326,0.423814,0.0,0.0
231,57.5,48.8873,52.5764,149.768,98.6363,93.9732,-0.00218626,0.0695005,20.9608,59.7925,0.43322,0.0,0.0
238,59.25,49.3657,52.7407,144.593,98.6355,80.8662,-0.00140149,0.0889248,20.9378,59.7024,1.77686,0.0,1.0
245,61,49.7527,53.2965,140.72,98.6347,81.0779,-0.000478336,0.127327,20.8712,59.6324,1.7534,0.0,1.0
252,62.75,50.4124,54.4874,140.416,98.626,79.997,0.00109047,0.168656,20.8027,59.5523,1.87267,0.0,1.0
259,64.5,50.7217,54.9508,138.019,98.603,66.9982,0.00313015,0.2235,20.7298,59.3521,3.4568,0.0,1.0
266,66.25,51.3135,56.5491,136.054,98.5888,61.3726,0.00590879,0.283843,20.6457,59.202,4.24003,0.0,0.0
273,68,52.476,57.951,134.101,98.5749,59.6887,0.00895336,0.347629,20.5361,58.9117,4.48765,0.0,0.0
280,69.75,53.3989,60.3321,133.959,98.5583,53.7116,0.0122802,0.422463,20.4176,58.7016,5.42999,0.0,0.0
287,71.5,55.4244,61.8823,132.424,98.5302,48.0432,0.015241,0.495124,20.3212,58.4513,6.42511,0.0,0.0
294,73.25,56.8245,63.9683,127.075,98.5076,48.3399,0.0186124,0.564848,20.2275,58.1811,6.36799,0.0,0.0
301,75,58.1152,66.1163,126.289,98.4724,47.9825,0.0219658,0.624921,20.1419,57.8608,6.43116,0.0,0.0
308,76.75,59.6745,69.1519,123.949,98.4483,43.3081,0.024871,0.689341,20.0509,57.5305,7.34584,0.0,0.0
315,78.5,62.078,71.3326,124.673,98.417,42.1344,0.0270305,0.744266,19.9907,57.2203,7.58876,0.0,0.0
322,80.25,63.822,73.1923,118.745,98.3735,43.5816,0.0290334,0.791228,19.9271,56.7999,7.28273,0.0,0.0
329,82,65.6257,75.6167,123.183,98.3161,39.9096,0.030279,0.823976,19.8845,56.5296,8.06485,0.0,0.0
336,83.75,67.4029,78.1211,116.627,98.2599,42.8132,0.0312515,0.849337,19.8535,56.0993,7.43152,0.0,0.0
343,85.5,68.9792,80.2805,124.625,98.22,41.8486,0.0320249,0.867916,19.8382,55.789,7.63173,0.0,0.0
350,87.25,70.09,82.3729,120.176,98.161,37.3646,0.0325009,0.880997,19.8284,55.4487,8.64017,0.0,0.0
357,89,71.3388,84.0069,126.388,98.0977,40.8465,0.0327665,0.886317,19.8211,55.0884,7.8374,0.0,0.0
364,90.75,72.5975,85.6428,125.01,98.0245,40.5992,0.0329087,0.891709,19.8119,54.7581,7.88503,0.0,0.0
371,92.5,73.7078,87.3556,123.146,97.956,41.7667,0.0330903,0.899143,19.8036,54.3677,7.62519,0.0,0.0
378,94.25,75.2044,89.3915,124.232,97.8951,39.4461,0.0333239,0.904784,19.7995,54.0074,8.13097,0.0,0.0
385,96,76.1213,90.5081,120.733,97.8401,39.8413,0.0334613,0.906075,19.7987,53.7072,8.03677,0.0,0.0
392,97.75,77.4194,91.973,124.944,97.7815,39.4341,0.033547,0.904677,19.798,53.3569,8.12331,0.0,0.0
399,99.5,78.5465,93.2364,118.215,97.8001,40.4783,0.0338787,0.907564,19.7951,52.9865,7.89122,0.0,0.0
406,101.25,79.3842,94.9048,120.674,97.8017,38.7464,0.0344889,0.912753,19.7865,52.5762,8.28251,0.0,0.0
413,103,80.4973,96.2055,119.475,97.8282,36.8906,0.0351885,0.922327,19.7706,52.2759,8.724,0.0,0.0
420,104.75,81.4387,97.0792,126.236,97.825,40.7595,0.0357283,0.933687,19.7547,51.8255,7.83156,0.0,0.0
427,106.5,82.4918,98.608,120.463,97.8496,39.7482,0.0359668,0.941614,19.7476,51.4252,8.05857,0.0,0.0
434,108.25,83.3458,99.5214,122.909,97.8769,39.5766,0.0359772,0.942544,19.7487,51.0949,8.09975,0.0,0.0
441,110,84.131,100.887,123.275,97.8852,39.9089,0.0359826,0.938919,19.751,50.7246,8.02573,0.0,0.0
448,111.75,84.8773,101.524,122.272,97.9073,38.2187,0.0361225,0.938725,19.751,50.3843,8.41484,0.0,0.0
455,113.5,85.996,102.486,127.447,97.9275,39.0524,0.0363817,0.941719,19.7473,50.0139,8.22366,0.0,0.0
462,115.25,86.61,103.982,120.433,97.9434,39.4163,0.0364278,0.943939,19.7457,49.6436,8.14213,0.0,0.0
469,117,87.5751,104.638,122.106,97.9576,39.3394,0.0363001,0.942479,19.7497,49.2833,8.1609,0.0,0.0
476,118.75,87.877,105.852,124.083,97.9897,43.1559,0.0362664,0.934214,19.7625,48.8529,7.33557,0.0,0.0
483,120.5,88.8008,106.108,119.926,98.0075,39.0999,0.0364026,0.92627,19.7707,48.5627,8.22008,0.0,0.0
490,122.25,89.3628,106.643,123.873,98.0435,40.1712,0.0365785,0.921805,19.7755,48.2123,7.98158,0.0,0.0
497,124,90.565,106.696,123.796,98.0775,40.5683,0.0367918,0.9195,19.7769,47.852,7.89668,0.0,0.0
504,125.75,90.4659,107.855,121.027,98.1325,36.9914,0.0369593,0.92142,19.7701,47.5317,8.72737,0.0,0.0
511,127.5,91.5438,108.62,120.777,98.1424,40.3551,0.0367662,0.931463,19.7547,47.1714,7.94975,0.0,0.0
518,129.25,92.022,109.058,126.137,98.1673,39.7192,0.0365365,0.940708,19.7434,46.7511,8.09409,0.0,0.0
525,131,92.2263,110.497,123.275,98.201,38.6093,0.0369169,0.952428,19.7308,46.4208,8.35068,0.0,0.0
532,132.75,93.6029,110.754,125.321,98.2223,36.4985,0.0376922,0.969054,19.7086,45.9704,8.85556,0.0,0.0
539,134.5,93.8795,112.199,120.909,98.2595,38.1898,0.0381625,0.983843,19.699,45.6101,8.45375,0.0,0.0
546,136.25,94.5065,112.505,119.649,98.2781,40.5351,0.0379131,0.981929,19.702,45.2197,7.92229,0.0,0.0
553,138,95.2912,112.626,121.714,98.2987,38.8465,0.0374724,0.967901,19.7177,44.9094,8.30479,0.0,0.0
560,139.75,94.7414,113.755,112.014,98.3126,38.0074,0.0374077,0.95747,19.7262,44.4991,8.50138,0.0,0.0
567,141.5,95.6815,113.857,120.385,98.3343,39.4897,0.0378801,0.955182,19.7287,44.0987,8.16113,0.0,0.0
574,143.25,96.5082,113.822,120.337,98.3422,37.8293,0.0387239,0.963356,19.7102,43.6784,8.5461,0.0,0.0
581,145,97.2133,115.052,116.68,98.349,38.4698,0.0397829,0.981102,19.6753,43.3381,8.39652,0.0,0.0
588,146.75,96.6931,116.315,115.581,98.364,36.782,0.0404963,1.00464,19.651,42.9277,8.79922,0.0,0.0
595,148.5,97.4767,116.576,126.798,98.3818,38.8055,0.0399475,1.01109,19.6394,42.5274,8.32178,0.0,0.0
602,150.25,97.877,116.618,121.465,98.3988,39.9772,0.0380353,0.992114,19.6723,42.2071,8.05723,0.0,0.0
609,152,97.8893,116.503,120.389,98.3889,43.1698,0.0352111,0.959543,19.7288,41.9268,7.36906,0.0,0.0
616,153.75,98.1376,116.237,127.306,98.3937,42.4825,0.032511,0.910035,19.798,41.6065,7.51305,0.0,0.0
623,155.5,97.957,116.075,125.992,98.3961,48.2989,0.0299728,0.866047,19.8609,41.3163,6.36543,0.0,0.0
630,157.25,97.7452,116.107,126.746,98.4063,50.1671,0.0275362,0.819043,19.9268,41.026,6.02688,0.0,0.0
637,159,97.4789,115.545,125.311,98.3881,52.949,0.0255961,0.781797,19.9924,40.8158,5.54245,0.0,0.0
644,160.75,97.3918,115.26,131.724,98.3806,52.2544,0.0238931,0.746856,20.0414,40.5456,5.65989,0.0,0.0
651,162.5,96.5585,114.896,134.018,98.3695,54.2092,0.0222912,0.717148,20.0819,40.3254,5.33036,0.0,0.0
658,164.25,97.3113,113.363,129.862,98.3806,54.5769,0.0205596,0.687487,20.1218,40.1052,5.27088,0.0,0.0
665,166,96.5809,112.852,128.481,98.3541,58.2566,0.0188954,0.66275,20.1628,39.895,4.68482,0.0,0.0
672,167.75,96.1477,112.534,126.898,98.3581,58.9361,0.0175908,0.637467,20.1941,39.6448,4.58144,0.0,0.0
679,169.5,95.6221,111.838,124.071,98.3177,59.5569,0.0160102,0.615086,20.2238,39.4647,4.48404,0.0,0.0
686,171.25,95.6046,110.94,132.3,98.311,61.5959,0.0147671,0.597867,20.2468,39.2745,4.1823,0.0,0.0
693,173,94.6429,110.152,130.725,98.2805,62.4408,0.0136973,0.578495,20.2731,39.0943,4.05766,0.0,0.0
700,174.75,94.3929,109.799,133.791,98.2536,65.3251,0.0129537,0.561444,20.2975,38.8841,3.65127,0.0,0.0
707,176.5,94.0457,108.501,131.305,98.2287,65.9698,0.0124619,0.543567,20.3169,38.754,3.56115,0.0,0.0
714,178.25,93.6968,108.051,128.205,98.2097,66.5601,0.0121345,0.529657,20.3354,38.5839,3.47973,0.0,0.0
721,180,92.9438,107.07,133.944,98.2018,65.366,0.0117963,0.51776,20.3512,38.4338,3.64095,0.0,0.0
728,181.75,92.7754,106.655,130.819,98.1634,66.353,0.0113406,0.50677,20.3662,38.2736,3.50338,0.0,0.0
735,183.5,92.5018,105.701,132.285,98.1531,67.8102,0.0106791,0.494749,20.3797,38.0734,3.30812,0.0,0.0
742,185.25,91.9705,105.192,133.01,98.125,66.0606,0.0100166,0.483078,20.3977,37.9133,3.5394,0.0,0.0
749,187,91.3702,104.547,130.703,98.1155,69.2554,0.00933037,0.470527,20.4194,37.7632,3.11605,0.0,0.0
756,188.75,90.8909,103.47,132.86,98.0779,69.8392,0.00883469,0.458014,20.434,37.633,3.03754,0.0,0.0
763,190.5,90.4413,102.786,133.768,98.0387,70.492,0.00848208,0.447478,20.4501,37.533,2.95073,0.0,0.0
770,192.25,89.9788,102.229,135.687,98.0134,69.9048,0.008366,0.438038,20.4601,37.3328,3.02325,0.0,0.0
777,194,89.9028,101.135,130.851,97.9794,68.8799,0.00839772,0.430594,20.4689,37.2027,3.15226,0.0,0.0
784,195.75,89.3429,101.392,131.858,97.9552,72.0972,0.00843373,0.426233,20.4743,37.0826,2.74171,0.0,0.0
791,197.5,88.8593,100.226,128.478,97.9129,69.2431,0.00842329,0.423093,20.4768,36.9224,3.09916,0.0,0.0
798,199.25,88.4397,100.083,133.508,97.8749,69.0762,0.00838382,0.420897,20.4781,36.8123,3.11727,0.0,0.0
805,201,88.1705,98.951,133.514,97.8571,71.9334,0.00828201,0.418011,20.4814,36.6622,2.75309,0.0,0.0
812,202.75,87.6505,98.535,133.675,97.8171,72.1362,0.00818137,0.413575,20.4868,36.5421,2.72424,0.0,0.0
819,204.5,86.9896,97.8729,136.764,97.7819,72.7223,0.00807365,0.406183,20.4973,36.392,2.64864,0.0,0.0
826,206.25,87.2845,97.3107,131.196,97.7534,72.1644,0.00796192,0.40057,20.5052,36.2719,2.71492,0.0,0.0
833,208,86.208,97.3845,133.442,97.7253,71.4663,0.0078377,0.396351,20.5102,36.1417,2.7993,0.0,0.0
840,209.75,86.2048,96.3687,133.582,97.6956,71.5714,0.00768663,0.393735,20.5142,36.0016,2.78344,0.0,0.0
847,211.5,85.7841,96.1675,135.052,97.6802,73.566,0.0074937,0.390762,20.5196,35.9115,2.53615,0.0,0.0
854,213.25,85.8223,95.2791,131.708,97.6521,73.2156,0.00729533,0.386571,20.5247,35.7714,2.57628,0.0,0.0
861,215,84.7999,95.5334,128.709,97.622,72.6558,0.00718081,0.384115,20.5283,35.6913,2.64218,0.0,0.0
868,216.75,84.5325,95.1031,132.114,97.5852,72.0786,0.00712083,0.382597,20.53,35.5512,2.71015,0.0,0.0
875,218.5,84.8374,94.5476,131.38,97.5674,72.2274,0.00707109,0.381746,20.5306,35.4111,2.69008,0.0,0.0
882,220.25,84.6561,93.7457,134.687,97.5227,72.1478,0.00701277,0.382018,20.5299,35.251,2.69584,0.0,0.0
889,222,84.2453,93.2675,137.23,97.478,72.888,0.00691749,0.381987,20.5296,35.1309,2.60044,0.0,0.0
896,223.75,83.952,93.3576,134.895,97.4729,74.0747,0.00676965,0.380528,20.5313,35.0107,2.45549,0.0,0.0
903,225.5,84.2237,92.8646,136.274,97.4598,73.8742,0.00665298,0.378008,20.5352,34.8706,2.47854,0.0,0.0
910,227.25,84.0307,92.2725,135.031,97.4269,75.0564,0.00668131,0.375498,20.5394,34.7405,2.33351,0.0,0.0
917,229,83.6363,91.8815,132.147,97.4293,74.3823,0.00678918,0.373364,20.5425,34.6404,2.41443,0.0,0.0
924,230.75,83.1955,92.1075,132.724,97.3949,73.0402,0.00678644,0.371767,20.5449,34.5103,2.57415,0.0,0.0
931,232.5,83.4811,91.0493,135.956,97.3814,73.6,0.00660347,0.370596,20.5461,34.3702,2.50462,0.0,0.0
938,234.25,82.4052,91.0653,132.198,97.37,74.5306,0.00647532,0.36886,20.5467,34.2901,2.39116,0.0,0.0
945,236,82.6408,90.8426,136.471,97.3379,73.4165,0.00653711,0.368028,20.5483,34.19,2.52295,0.0,0.0
952,237.75,82.7911,90.5037,135.597,97.3229,75.4477,0.00665996,0.367207,20.5501,34.0899,2.27743,0.0,0.0
959,239.5,82.4355,90.1988,132.187,97.3098,74.3042,0.00666468,0.364889,20.5521,33.9398,2.41285,0.0,0.0
966,241.25,82.2015,89.8393,133.421,97.2948,75.8197,0.00650733,0.363799,20.5524,33.8197,2.23085,0.0,0.0
973,243,81.1309,90.325,133.494,97.294,74.7887,0.00635266,0.365565,20.5481,33.6796,2.35326,0.0,0.0
980,244.75,81.7426,90.0748,134.069,97.2655,75.1607,0.00630638,0.368046,20.5453,33.5795,2.30625,0.0,0.0
987,246.5,82.0552,89.3649,133.498,97.2509,74.4429,0.00642223,0.369613,20.5469,33.4994,2.39074,0.0,0.0
994,248.25,82.2194,89.0341,134.16,97.2338,73.2959,0.00660594,0.370684,20.5473,33.3593,2.52808,0.0,0.0
1001,250,81.525,89.085,132.428,97.2295,74.1184,0.00678889,0.371812,20.5475,33.2292,2.42786,0.0,0.0
1008,251.75,81.6861,89.0363,135.935,97.2046,74.6171,0.00681743,0.372282,20.5492,33.0891,2.36557,0.0,0.0
1015,253.5,81.6763,88.8559,133.855,97.2077,75.6722,0.00668305,0.370244,20.5527,32.999,2.24027,0.0,0.0
1022,255.25,81.2867,89.1021,134.204,97.2065,72.9448,0.00652782,0.3681,20.555,32.8889,2.56852,0.0,0.0
1029,257,81.3519,88.7251,135.826,97.1951,74.385,0.0064267,0.368912,20.5536,32.7488,2.39258,0.0,0.0
1036,258.75,81.4564,88.4373,132.269,97.1796,74.3927,0.0063866,0.370969,20.5521,32.6487,2.39023,0.0,0.0
1043,260.5,80.8573,88.9966,137.786,97.1685,75.4632,0.00637758,0.371139,20.5514,32.5086,2.2614,0.0,0.0
1050,262.25,81.0552,88.6938,134.775,97.1713,74.4023,0.00637457,0.370518,20.5511,32.3884,2.3883,0.0,0.0
1057,264,81.0467,88.6529,131.054,97.1654,74.524,0.00641299,0.372021,20.5477,32.2784,2.37313,0.0,0.0
1064,265.75,80.5759,88.4752,136.239,97.1709,75.0096,0.00652391,0.373836,20.5453,32.1282,2.31555,0.0,0.0
1071,267.5,80.5532,88.9065,135.246,97.1796,73.5123,0.00664119,0.375882,20.5425,31.9981,2.49672,0.0,0.0
1078,269.25,81.3347,88.126,133.421,97.163,75.6335,0.00665655,0.37834,20.5381,31.908,2.24072,0.0,0.0
1085,271,80.8281,88.6676,134.53,97.1741,73.284,0.00659678,0.38024,20.5348,31.7479,2.52404,0.0,0.0
1092,272.75,80.4696,87.956,131.878,97.1717,74.6948,0.00652321,0.381291,20.5329,31.6078,2.35324,0.0,0.0
1099,274.5,81.0253,88.223,134.264,97.1701,73.3852,0.00642393,0.381789,20.533,31.4977,2.51133,0.0,0.0
1106,276.25,80.9944,87.772,131.625,97.1725,74.1157,0.0063836,0.381312,20.5333,31.3776,2.42294,0.0,0.0
1113,278,80.7412,88.4689,134.57,97.1871,74.5955,0.00642301,0.37962,20.5343,31.2675,2.36656,0.0,0.0
1120,279.75,80.6774,88.3859,137.802,97.1935,74.0431,0.00645396,0.378705,20.5363,31.1373,2.43364,0.0,0.0
1127,281.5,80.9659,88.5044,133.651,97.2061,75.6521,0.00649809,0.378269,20.5373,31.0473,2.2425,0.0,0.0
1134,283.25,80.4867,88.4154,131.479,97.2144,73.583,0.00657413,0.377877,20.5377,30.9172,2.49133,0.0,0.0
1141,285,80.6147,88.42,135.897,97.2144,75.5988,0.00658689,0.378261,20.5375,30.787,2.24957,0.0,0.0
1148,286.75,80.4762,88.2828,133.443,97.2378,74.4549,0.0064703,0.379617,20.5359,30.6569,2.3881,0.0,0.0
1155,288.5,80.6603,87.6856,135.261,97.2639,73.8352,0.006286,0.380146,20.5343,30.5568,2.46526,0.0,0.0
1162,290.25,80.9901,87.8498,130.071,97.256,75.6088,0.00613727,0.380709,20.5339,30.4167,2.2522,0.0,0.0
1169,292,80.622,88.301,132.563,97.294,74.3958,0.00611238,0.380918,20.5341,30.2866,2.40037,0.0,0.0
1176,293.75,80.9598,87.9943,130.57,97.315,74.0968,0.00618598,0.380567,20.5336,30.1865,2.43833,0.0,0.0
1183,295.5,80.7154,88.2109,135.571,97.3308,73.542,0.00625794,0.380913,20.5327,30.0364,2.50701,0.0,0.0
1190,297.25,80.9817,88.5393,134.259,97.3506,73.5497,0.00635571,0.382311,20.5308,29.9263,2.50788,0.0,0.0
1197,299,80.9581,87.8471,135.046,97.3656,74.0133,0.00648236,0.383619,20.5296,29.7862,2.45306,0.0,0.0
1204,300.75,80.2775,88.3629,131.743,97.3937,75.467,0.00652901,0.383698,20.5303,29.6661,2.28165,0.0,0.0
1211,302.5,81.0012,87.9785,134.895,97.4139,76.7832,0.00643495,0.382799,20.5325,29.5359,2.12884,0.0,0.0
1218,304.25,80.6031,87.4785,131.038,97.4535,76.2242,0.00625681,0.381209,20.5341,29.4158,2.19783,0.0,0.0
1225,306,80.9517,88.2712,131.898,97.4586,75.0147,0.00607834,0.379936,20.535,29.2757,2.34139,0.0,0.0
1232,307.75,80.3895,87.8273,132.257,97.4792,76.3911,0.00592928,0.378708,20.5369,29.1756,2.18063,0.0,0.0
1239,309.5,80.3146,88.6675,133.611,97.5069,74.0635,0.00589877,0.377544,20.5382,29.0956,2.45996,0.0,0.0
1246,311.25,80.8858,87.6764,135.918,97.5374,74.5615,0.00596964,0.37637,20.5386,28.9654,2.40282,0.0,0.0
1253,313,80.7508,88.0083,130.331,97.5461,74.0894,0.00607732,0.375852,20.5389,28.8153,2.46043,0.0,0.0
1260,314.75,80.6704,87.6986,132.077,97.5765,77.4179,0.00610616,0.37603,20.5399,28.7152,2.07012,0.0,0.0
1267,316.5,80.8217,87.8927,134.447,97.6224,76.1045,0.0060194,0.376499,20.5406,28.5951,2.22739,0.0,0.0
1274,318.25,81.0307,87.9081,132.531,97.6505,77.0942,0.00591327,0.376415,20.5409,28.425,2.11438,0.0,0.0
1281,320,80.4113,88.0135,134.514,97.6782,75.9453,0.00592307,0.376193,20.5406,28.3449,2.25123,0.0,0.0
1288,321.75,80.188,87.8707,130.89,97.7039,73.9279,0.00604201,0.37648,20.5402,28.2548,2.49442,0.0,0.0
1295,323.5,80.5674,87.8364,136.223,97.7408,75.0761,0.00606094,0.377622,20.54,28.0847,2.35993,0.0,0.0
1302,325.25,80.5359,88.2486,132.187,97.7847,76.9578,0.00594276,0.377272,20.5405,27.9946,2.1425,0.0,0.0
1309,327,80.7629,88.2365,130.212,97.8187,75.6926,0.0057844,0.375893,20.5424,27.8645,2.2939,0.0,0.0
1316,328.75,80.9277,87.3569,131.608,97.8539,75.2623,0.00569188,0.375108,20.5435,27.7744,2.34812,0.0,0.0
1323,330.5,80.879,87.668,132.624,97.8872,76.7059,0.00573321,0.374723,20.544,27.6643,2.1812,0.0,0.0
1330,332.25,80.2567,88.0482,133.49,97.918,75.574,0.00593103,0.37589,20.5411,27.5342,2.317,0.0,0.0
1337,334,79.972,88.6447,136.313,97.956,75.1155,0.00614066,0.378651,20.537,27.4041,2.37491,0.0,0.0
1344,335.75,79.8318,87.8606,132.138,97.9869,75.3755,0.00622451,0.380813,20.5349,27.2539,2.34682,0.0,0.0
1351,337.5,80.3105,88.3754,134.004,98.0193,77.4705,0.00609841,0.380328,20.5346,27.1639,2.10455,0.0,0.0
1358,339.25,80.8899,87.8023,135.707,98.053,76.4359,0.0058621,0.378394,20.5377,27.0237,2.22788,0.0,0.0
1365,341,80.6273,87.723,133.225,98.0826,76.2424,0.00565317,0.374465,20.5436,26.9337,2.25327,0.0,0.0
1372,342.75,80.933,88.5332,131.341,98.1147,78.3076,0.00553102,0.371494,20.547,26.7935,2.01711,0.0,0.0
1379,344.5,80.0264,87.8191,134.051,98.1475,75.5134,0.00555475,0.371006,20.5459,26.6834,2.34513,0.0,0.0
1386,346.25,80.1722,88.1649,131.131,98.178,76.3277,0.00558546,0.372572,20.5446,26.5633,2.25195,0.0,0.0
1393,348,80.5005,87.7988,135.447,98.2049,76.371,0.00557508,0.372904,20.5439,26.4432,2.24933,0.0,0.0
1400,349.75,80.2568,88.0189,133.683,98.2429,75.3067,0.00561428,0.372872,20.5436,26.3231,2.37833,0.0,0.0
1407,351.5,80.1154,87.7892,135.242,98.2686,77.5906,0.0057281,0.372345,20.5443,26.173,2.11341,0.0,0.0
1414,353.25,80.4678,87.5971,135.276,98.288,76.655,0.00571166,0.371373,20.5454,26.0829,2.2237,0.0,0.0
1421,355,80.2041,87.9794,129.126,98.3371,76.5634,0.00555729,0.371033,20.546,25.9528,2.23886,0.0,0.0
1428,356.75,80.3049,87.6749,133.436,98.3596,76.7728,0.00535218,0.37071,20.5465,25.8327,2.21648,0.0,0.0
1435,358.5,80.3439,87.7168,130.741,98.3889,78.5622,0.00524214,0.369032,20.5494,25.7426,2.01304,0.0,0.0
1442,360.25,80.3305,87.6652,135.752,98.4103,77.6659,0.00519284,0.366004,20.5547,25.6225,2.11762,0.0,0.0
1449,362,80.0868,87.6797,133.678,98.4317,80.1407,0.00510042,0.364385,20.5577,25.5124,1.83897,0.0,0.0
1456,363.75,80.6989,86.8223,141.017,98.4641,77.946,0.00498468,0.363995,20.558,25.4323,2.09031,0.0,0.0
1463,365.5,80.4725,87.3212,138.625,98.4827,78.9226,0.00490008,0.363838,20.5581,25.3122,1.98061,0.0,0.0
1470,367.25,80.4955,87.3324,135.613,98.508,78.1693,0.00489079,0.362782,20.5581,25.1721,2.06871,0.0,0.0
1477,369,80.4451,86.9177,131.938,98.5223,77.9653,0.00499737,0.364215,20.5565,25.042,2.09337,0.0,0.0
1484,370.75,80.3737,87.1871,132.703,98.5468,77.3322,0.00517072,0.367468,20.5525,24.9219,2.16854,0.0,0.0
1491,372.5,80.0155,87.7479,134.584,98.5824,77.7428,0.0053058,0.370893,20.5479,24.8318,2.1244,0.0,0.0
1498,374.25,79.9726,86.9,129.605,98.5998,77.669,0.00541389,0.374001,20.5421,24.7517,2.13447,0.0,0.0
1505,376,79.8917,87.8163,134.614,98.6161,76.6128,0.00547506,0.376769,20.5369,24.6216,2.25842,0.0,0.0
1512,377.75,80.9822,87.122,134.549,98.6343,77.8216,0.00549629,0.378554,20.5344,24.4715,2.12004,0.0,0.0
1519,379.5,80.6609,87.2851,131.515,98.6572,77.348,0.00551334,0.37878,20.5332,24.4014,2.17673,0.0,0.0
1526,381.25,81.0315,87.6048,132.898,98.6885,77.3581,0.00556759,0.379914,20.5317,24.2713,2.1784,0.0,0.0
1533,383,79.7553,88.1689,134.881,98.6909,77.4338,0.0056523,0.382162,20.5289,24.1512,2.16987,0.0,0.0
1540,384.75,80.5286,87.8063,135.46,98.7257,76.3158,0.00577002,0.384499,20.5275,24.0011,2.30312,0.0,0.0
1547,386.5,80.5945,87.7357,134.689,98.7324,75.9399,0.00586978,0.387313,20.5223,23.881,2.34789,0.0,0.0
1554,388.25,80.6526,87.7439,128.592,98.7645,75.5211,0.00591099,0.39105,20.517,23.7809,2.40026,0.0,0.0
1561,390,80.4514,87.5704,134.642,98.7653,76.7179,0.00590289,0.393828,20.5135,23.6207,2.25969,0.0,0.0
1568,391.75,80.4019,88.3949,138.16,98.7771,77.9796,0.0058535,0.395247,20.5127,23.5407,2.11484,0.0,0.0
1575,393.5,80.9654,87.5548,135.642,98.8036,76.9833,0.00573772,0.394676,20.5123,23.3405,2.23227,0.0,0.0
1582,395.25,80.7043,87.8398,134.527,98.8309,77.049,0.00565017,0.394484,20.512,23.2504,2.22711,0.0,0.0
1589,397,80.6275,88.2065,131.549,98.8484,77.7919,0.00558703,0.395186,20.5119,23.1503,2.14285,0.0,0.0
1596,398.75,80.6688,88.3199,131.333,98.8491,77.4852,0.0055297,0.395302,20.5118,23.0102,2.17827,0.0,0.0
1603,400.5,80.6593,88.2031,135.142,98.8764,77.3847,0.00551365,0.395042,20.5112,22.9201,2.19234,0.0,0.0
1610,402.25,80.9302,88.2981,133.522,98.8721,76.7739,0.00554772,0.395063,20.5106,22.76,2.26283,0.0,0.0
1617,404,81.0862,88.0533,133.738,98.901,77.7146,0.00558902,0.395556,20.5112,22.6499,2.1565,0.0,0.0
1624,405.75,80.6861,87.9023,131.671,98.8832,78.8036,0.00558955,0.394435,20.5128,22.5298,2.03041,0.0,0.0
1631,407.5,80.9703,88.1252,134.838,98.914,78.2474,0.0053973,0.39287,20.5153,22.3997,2.09658,0.0,0.0
1638,409.25,81.1283,87.9398,130.99,98.9224,78.2964,0.00517209,0.393514,20.5151,22.3096,2.09172,0.0,0.0
1645,411,80.9021,88.4698,132.732,98.9315,78.8759,0.00505291,0.395042,20.5141,22.1695,2.02658,0.0,0.0
1652,412.75,80.712,87.7035,130.512,98.9481,79.6149,0.00501727,0.39565,20.5137,22.0293,1.94466,0.0,0.0
1659,414.5,81.5436,87.6945,136.31,98.9465,79.3441,0.00495999,0.395879,20.5139,21.9193,1.975,0.0,0.0
1666,416.25,80.9918,88.3686,130.938,98.9485,78.624,0.0048644,0.396609,20.5152,21.7791,2.05673,0.0,0.0
1673,418,81.1568,88.2856,134.13,98.9564,78.1705,0.00485133,0.395323,20.5168,21.639,2.1092,0.0,0.0
1680,419.75,80.993,88.4595,135.488,98.9801,78.6518,0.00493735,0.393251,20.5176,21.5389,2.05643,0.0,0.0
1687,421.5,80.7527,88.3172,134.306,98.9805,78.172,0.00493462,0.393844,20.5154,21.4088,2.1112,0.0,0.0
1694,423.25,80.9682,88.3009,132.866,98.9734,78.4807,0.0047858,0.395038,20.5135,21.2887,2.07531,0.0,0.0
1701,425,81.3249,88.0896,131.851,98.9928,78.7387,0.00460035,0.395854,20.5124,21.1686,2.04769,0.0,0.0
1708,426.75,81.0442,88.1758,128.232,98.9956,80.5517,0.00438058,0.39477,20.5138,21.0585,1.84431,0.0,0.0
1715,428.5,81.3678,88.3706,131.751,98.9908,79.3673,0.00420634,0.393429,20.5153,20.8984,1.97639,0.0,0.0
1722,430.25,80.9416,88.4492,132.578,98.99,79.3742,0.00409139,0.392463,20.5177,20.8083,1.97553,0.0,0.0
1729,432,80.8339,88.735,137.342,98.9964,80.4084,0.00397452,0.390038,20.5209,20.6982,1.86031,0.0,0.0
1736,433.75,80.9179,88.5047,133.841,99.0098,80.6688,0.00387618,0.386215,20.5264,20.5681,1.83261,0.0,0.0
1743,435.5,81.1348,87.3571,135.836,99.009,80.1137,0.00385093,0.383085,20.5297,20.448,1.89431,0.0,0.0
1750,437.25,81.0334,88.1135,130.369,99.0074,80.8681,0.00387066,0.381667,20.5324,20.3579,1.81031,0.0,0.0
1757,439,80.411,88.62,131.995,99.0003,81.3483,0.00384452,0.379845,20.5351,20.2378,1.75671,0.0,0.0
1764,440.75,81.0944,87.6031,135.129,98.9908,82.5131,0.00365633,0.377347,20.5395,20.1477,1.62868,0.0,0.0
1771,442.5,81.2414,87.909,136.271,99.0015,82.0692,0.00339313,0.373458,20.546,20.0376,1.6779,0.0,0.0
1778,444.25,80.3446,87.9527,136.112,98.994,81.6817,0.00320542,0.36987,20.5499,19.9375,1.71955,0.0,0.0
1785,446,80.8577,87.6114,132.378,98.9849,80.4347,0.00313112,0.367912,20.552,19.8074,1.85635,0.0,0.0
1792,447.75,81.0866,87.3309,137.661,98.994,81.9328,0.00314091,0.366777,20.552,19.7473,1.69209,0.0,0.0
1799,449.5,80.3497,87.8328,133.079,98.99,80.2438,0.00316639,0.366638,20.552,19.6172,1.87806,0.0,0.0
1806,451.25,80.3976,87.8102,136.367,98.9932,81.3761,0.00312176,0.366559,20.552,19.5071,1.75301,0.0,0.0
1813,453,80.3385,87.7026,131.782,98.99,80.1384,0.00300401,0.365068,20.5535,19.4171,1.88983,0.0,0.0
1820,454.75,80.0658,87.9318,136.996,98.9738,81.6388,0.0027979,0.362962,20.5559,19.2869,1.72243,0.0,0.0
1827,456.5,80.9169,86.9818,131.158,98.973,81.2788,0.00266124,0.361516,20.558,19.2069,1.76189,0.0,0.0
1834,458.25,80.5182,87.0908,135.264,98.9785,82.6012,0.00260248,0.361259,20.559,19.0467,1.61803,0.0,0.0
1841,460,80.0604,87.3124,131.364,98.9595,81.5894,0.00258916,0.360281,20.5603,18.9967,1.72656,0.0,0.0
1848,461.75,80.5239,86.9495,133.558,98.956,81.8223,0.0025646,0.357587,20.563,18.8666,1.70073,0.0,0.0
1855,463.5,79.7767,87.0827,132.769,98.9532,81.6199,0.00254479,0.356083,20.5645,18.7465,1.72264,0.0,0.0
1862,465.25,80.0048,87.4051,136.542,98.9512,82.2689,0.00256986,0.355411,20.5645,18.6864,1.65161,0.0,0.0
1869,467,79.6647,87.3539,132.444,98.9398,81.4661,0.00264363,0.354721,20.5655,18.5963,1.73829,0.0,0.0
1876,468.75,80.2178,86.6842,137.979,98.9224,81.9637,0.00267271,0.352944,20.5673,18.4962,1.68225,0.0,0.0
1883,470.5,79.8352,86.8945,131.498,98.9172,82.7545,0.00263976,0.350356,20.5702,18.3861,1.59589,0.0,0.0
1890,472.25,80.0341,86.5576,134.484,98.9133,82.5254,0.00257714,0.347365,20.5748,18.2761,1.62033,0.0,0.0
1897,474,79.9143,86.9531,132.684,98.9069,81.9189,0.0025104,0.345368,20.5773,18.186,1.68574,0.0,0.0
1904,475.75,79.7656,86.3269,134.807,98.8741,80.7866,0.00253817,0.344693,20.578,18.0959,1.80728,0.0,0.0
1911,477.5,79.8856,86.1343,131.473,98.8741,82.8739,0.00266296,0.344716,20.5778,18.0158,1.57909,0.0,0.0
1918,479.25,79.1119,86.6769,137.357,98.8547,80.9809,0.00274411,0.344961,20.5777,17.9157,1.78403,0.0,0.0
1925,481,79.3921,86.3861,137.052,98.8571,81.5735,0.00281224,0.343765,20.5795,17.7956,1.71903,0.0,0.0
1932,482.75,79.1885,85.4863,134.988,98.8262,83.011,0.00288125,0.342347,20.5809,17.6955,1.55997,0.0,0.0
1939,484.5,79.6893,85.719,133.508,98.8076,80.461,0.00287608,0.34142,20.5816,17.6055,1.83739,0.0,0.0
1946,486.25,78.8644,86.1926,136.065,98.804,81.3595,0.00273792,0.340676,20.5828,17.5254,1.73773,0.0,0.0
1953,488,79.3476,85.4298,136.197,98.7922,83.4306,0.00253861,0.33937,20.5849,17.4453,1.51179,0.0,0.0
1960,489.75,79.784,86.0663,133.798,98.7653,82.9299,0.0025294,0.33861,20.5863,17.3653,1.5632,0.0,0.0
1967,491.5,79.0652,85.5581,132.334,98.7427,82.549,0.00260992,0.339145,20.587,17.2451,1.60234,0.0,0.0
1974,493.25,78.7751,85.8947,133.73,98.7233,80.7978,0.00264327,0.33902,20.5878,17.1551,1.79239,0.0,0.0
1981,495,78.55,85.267,133.656,98.719,83.2069,0.00256994,0.337875,20.5901,17.065,1.52918,0.0,0.0
1988,496.75,79.0632,85.609,133.106,98.7063,84.0796,0.0024878,0.337896,20.5912,16.9449,1.4347,0.0,0.0
1995,498.5,79.4205,84.914,137.031,98.6822,83.723,0.00247576,0.339132,20.5907,16.8548,1.47053,0.0,0.0
2002,500.25,78.9507,85.3422,138.77,98.6806,82.8762,0.00252925,0.339308,20.5909,16.7747,1.56132,0.0,0.0
2009,502,78.8059,84.8258,135.326,98.6608,82.226,0.00266211,0.338982,20.5909,16.6947,1.62998,0.0,0.0
2016,503.75,78.661,85.0904,136.214,98.6422,82.9778,0.002758,0.33849,20.5907,16.5645,1.54688,0.0,0.0
2023,505.5,78.6035,84.8068,133.511,98.6319,82.4547,0.00276524,0.338339,20.5896,16.4745,1.60251,0.0,0.0
2030,507.25,78.4574,84.9746,132.414,98.5998,82.0773,0.00272448,0.338675,20.5891,16.4344,1.64065,0.0,0.0
2037,509,78.5482,84.7367,135.823,98.5848,84.4049,0.00267441,0.338892,20.5888,16.2943,1.38914,0.0,0.0
2044,510.75,78.5575,84.9105,135.41,98.5797,81.9178,0.0026669,0.338431,20.5883,16.2242,1.65622,0.0,0.0
2051,512.5,78.4992,84.8066,132.708,98.5706,83.8277,0.00267849,0.33782,20.5887,16.0941,1.44923,0.0,0.0
2058,514.25,78.6128,84.6311,134.788,98.5516,80.9323,0.00269617,0.337684,20.5894,16.0141,1.76194,0.0,0.0
2065,516,78.3818,84.7125,138.039,98.5326,82.5142,0.0026981,0.337244,20.5898,15.924,1.58705,0.0,0.0
2072,517.75,78.5578,84.4674,138.631,98.5191,82.8905,0.00265058,0.335536,20.5928,15.8339,1.54513,0.0,0.0
2079,519.5,78.2087,84.2267,135.716,98.5136,84.8225,0.00260724,0.33318,20.595,15.7338,1.33853,0.0,0.0
2086,521.25,78.8515,84.2726,133.459,98.4871,82.2511,0.00259615,0.332439,20.596,15.6437,1.61148,0.0,0.0
2093,523,78.2408,84.3659,139.618,98.4712,82.5768,0.00261431,0.333054,20.5954,15.5236,1.5747,0.0,0.0
2100,524.75,78.4288,84.1049,135.761,98.457,84.5833,0.00264563,0.333136,20.5949,15.4536,1.35864,0.0,0.0
2107,526.5,78.1215,83.972,134.233,98.4606,80.9871,0.00270746,0.332875,20.5947,15.3735,1.74761,0.0,0.0
2114,528.25,78.3631,84.0392,134.631,98.4372,83.1992,0.00274672,0.332701,20.5958,15.2734,1.50444,0.0,0.0
2121,530,78.2404,84.2304,136.23,98.4052,83.322,0.00269725,0.331901,20.5963,15.1233,1.48833,0.0,0.0
2128,531.75,78.1315,84.0393,132.049,98.3885,82.1526,0.00260075,0.331404,20.5958,15.0732,1.61325,0.0,0.0
2135,533.5,78.0171,84.2564,139.215,98.3747,82.559,0.00250921,0.332314,20.5939,14.9732,1.56785,0.0,0.0
2142,535.25,78.1485,83.9785,136.642,98.3695,81.3522,0.00244447,0.334065,20.5918,14.9231,1.69911,0.0,0.0
2149,537,78.0514,83.9253,131.586,98.3375,83.5411,0.00242865,0.335064,20.5909,14.833,1.45869,0.0,0.0
2156,538.75,78.3548,84.2466,132.316,98.3383,83.3375,0.0023852,0.335219,20.5904,14.7229,1.48059,0.0,0.0
2163,540.5,78.1913,83.8056,136.768,98.2999,83.9424,0.00235355,0.334634,20.5922,14.6228,1.41239,0.0,0.0
2170,542.25,78.2099,83.8125,133.14,98.2936,82.7858,0.00237334,0.332917,20.5947,14.5628,1.53593,0.0,0.0
2177,544,78.4012,84.1668,133.216,98.269,83.9216,0.00244407,0.331475,20.5962,14.4727,1.41181,0.0,0.0
2184,545.75,78.1795,83.8187,136.115,98.2595,84.5041,0.00249325,0.330864,20.5974,14.3726,1.34906,0.0,0.0
2191,547.5,77.9053,83.8026,136.099,98.2417,82.8264,0.00246287,0.330779,20.598,14.2825,1.52683,0.0,0.0
2198,549.25,77.7842,84.0014,134.897,98.2271,83.9757,0.00237768,0.330117,20.599,14.1925,1.40223,0.0,0.0
2205,551,77.6759,83.6905,139.373,98.2255,85.4162,0.00225847,0.328847,20.5998,14.1224,1.24993,0.0,0.0
2212,552.75,77.866,83.9967,134.101,98.2109,84.5335,0.00216805,0.327267,20.601,14.0123,1.34152,0.0,0.0
2219,554.5,77.305,84.1192,134.75,98.2002,84.6197,0.0021348,0.326878,20.6016,13.9222,1.33144,0.0,0.0
2226,556.25,77.7003,83.7838,138.315,98.1946,84.146,0.00213831,0.327229,20.6019,13.8121,1.38114,0.0,0.0
2233,558,77.918,83.7302,137.138,98.1931,83.8405,0.00211199,0.326427,20.6033,13.7421,1.41354,0.0,0.0
2240,559.75,77.3005,83.8637,135.603,98.1851,85.6175,0.00204093,0.32508,20.6039,13.642,1.2252,0.0,0.0
2247,561.5,77.8271,83.6525,136.63,98.1788,83.8857,0.00199985,0.325128,20.6042,13.5719,1.40742,0.0,0.0
2254,563.25,77.4438,83.7209,138.454,98.1673,83.8037,0.00211482,0.326237,20.6036,13.5119,1.41511,0.0,0.0
2261,565,77.6744,83.5202,136.069,98.1871,84.3315,0.00238565,0.327113,20.6033,13.4118,1.36076,0.0,0.0
2268,566.75,77.8841,83.4585,137.103,98.2196,84.4705,0.00258318,0.327138,20.6032,13.3217,1.34898,0.0,0.0
2275,568.5,77.4792,83.7079,132.598,98.2445,84.2619,0.00250183,0.325795,20.6062,13.2316,1.37337,0.0,0.0
2282,570.25,77.3788,83.5032,134.672,98.2587,85.3811,0.00237209,0.323452,20.6103,13.1616,1.25664,0.0,0.0
2289,572,77.0924,83.5688,137.596,98.2813,85.1593,0.00227274,0.322031,20.6127,13.0715,1.28195,0.0,0.0
2296,573.75,77.3521,83.541,136.195,98.3161,85.6368,0.00228888,0.320542,20.6147,13.0014,1.23511,0.0,0.0
2303,575.5,77.0794,83.2461,143.252,98.3224,84.8217,0.0023858,0.319818,20.6156,12.9213,1.32123,0.0,0.0
2310,577.25,77.2581,83.6773,136.272,98.3399,86.0235,0.00245007,0.319612,20.616,12.8213,1.19696,0.0,0.0
2317,579,77.5856,83.3154,138.093,98.3608,84.7865,0.00240883,0.318352,20.618,12.7512,1.32843,0.0,0.0
2324,580.75,77.1922,83.1784,135.471,98.3846,86.073,0.00235516,0.316253,20.6202,12.6811,1.19589,0.0,0.0
2331,582.5,77.2426,83.2906,137.68,98.4135,86.6413,0.0024244,0.313974,20.6237,12.5911,1.13965,0.0,0.0
2338,584.25,77.2709,83.3042,134.502,98.4146,87.6217,0.00244958,0.312041,20.6252,12.501,1.0391,0.0,0.0
2345,586,77.4466,82.7741,136.685,98.4301,87.8473,0.00236015,0.311345,20.625,12.4209,1.0175,0.0,0.0
2352,587.75,77.1616,82.6005,134.806,98.4507,86.331,0.0022486,0.311414,20.6248,12.3609,1.17512,0.0,0.0
2359,589.5,76.9332,82.6919,137.756,98.4701,87.0623,0.00222357,0.311101,20.625,12.3008,1.10142,0.0,0.0
2366,591.25,76.8794,82.8905,133.259,98.4693,86.6185,0.00223367,0.309872,20.626,12.2307,1.14707,0.0,0.0
2373,593,77.2459,82.7524,141.376,98.4815,88.5168,0.00225012,0.307667,20.6295,12.1206,0.954256,0.0,0.0
2380,594.75,76.8559,82.7862,135.484,98.4966,87.2509,0.00229766,0.303903,20.6362,12.0506,1.08448,0.0,0.0
2387,596.5,76.9003,82.2818,135.077,98.5211,87.2134,0.00240945,0.300204,20.6423,11.9905,1.09055,0.0,0.0
2394,598.25,77.258,82.8173,137.573,98.529,87.1732,0.00250997,0.29679,20.6462,11.9205,1.09539,0.0,0.0
2401,600,76.5941,82.4904,140.266,98.5243,89.1121,0.00259078,0.293188,20.6504,11.8404,0.898177,0.0,0.0
2408,601.75,76.5614,82.0807,133.221,98.5318,89.0322,0.00264748,0.290122,20.6558,11.7904,0.906892,0.0,0.0
2415,603.5,76.4923,82.0086,138.649,98.5492,88.8985,0.00275356,0.286578,20.6601,11.7103,0.921911,0.0,0.0
2422,605.25,76.5566,81.8015,133.582,98.5662,88.0378,0.00282446,0.284379,20.6622,11.6502,1.01049,0.0,0.0
2429,607,76.2407,81.3974,139.224,98.5674,89.1264,0.00287137,0.282353,20.665,11.6102,0.900658,0.0,0.0
2436,608.75,76.1956,81.6076,135.068,98.5797,90.4697,0.00293537,0.279015,20.6718,11.5401,0.767962,0.0,0.0
2443,610.5,75.6883,81.2482,137.528,98.5864,89.8794,0.00297053,0.27539,20.6771,11.4701,0.827129,0.0,0.0
2450,612.25,76.1954,81.4533,136.732,98.5931,90.0308,0.00302497,0.271463,20.6809,11.41,0.812681,0.0,0.0
2457,614,75.5091,81.041,138.444,98.5963,91.7248,0.00312675,0.267745,20.6852,11.36,0.646218,0.0,0.0
2464,615.75,75.7926,80.3741,140.639,98.6141,90.9943,0.00323374,0.265033,20.6892,11.3099,0.719362,0.0,0.0
2471,617.5,75.3291,80.7319,138.103,98.6113,91.4289,0.0032548,0.262691,20.6915,11.2499,0.676489,0.0,0.0
2478,619.25,74.7531,80.8437,143.758,98.6291,92.3452,0.00321895,0.260851,20.6926,11.2098,0.588896,0.0,0.0
2485,621,74.9738,80.0435,135.123,98.6382,90.8131,0.00317266,0.259857,20.6943,11.1398,0.739381,0.0,0.0
2492,622.75,74.9116,80.0986,139.973,98.6402,92.9606,0.0031715,0.258582,20.6956,11.0897,0.530485,0.0,0.0
2499,624.5,74.8211,80.1093,140.601,98.6517,93.6444,0.00323542,0.255994,20.6994,10.9997,0.465968,0.0,0.0
2506,626.25,74.8393,79.733,135.937,98.6549,92.4468,0.00337492,0.253109,20.7033,10.9696,0.581392,0.0,0.0
2513,628,74.5152,79.6112,137.116,98.6667,92.9514,0.00359192,0.250236,20.7054,10.9296,0.533782,0.0,0.0
2520,629.75,73.9581,79.7448,136.026,98.6556,92.8749,0.00385275,0.248098,20.7075,10.8695,0.540141,0.0,0.0
2527,631.5,74.3338,79.1863,138.28,98.6663,93.3168,0.00403871,0.2465,20.7102,10.8295,0.498644,0.0,0.0
2534,633.25,74.554,78.8565,134.421,98.6604,94.3753,0.00411681,0.243214,20.7149,10.7695,0.397208,0.0,0.0
2541,635,74.4404,78.7664,135.562,98.6651,93.7618,0.00417094,0.239151,20.7206,10.7294,0.455977,0.0,0.0
2548,636.75,74.4859,78.2678,138.736,98.6616,93.967,0.00431446,0.235348,20.7251,10.6694,0.436104,0.0,0.0
2555,638.5,74.1215,78.5251,135.231,98.6612,92.8173,0.00469107,0.232604,20.7291,10.6594,0.546189,0.0,0.0
2562,640.25,74.0646,78.2277,139.664,98.6556,95.1236,0.0050727,0.22911,20.7331,10.5993,0.326131,0.0,0.0
2569,642,73.8671,77.9906,144.196,98.6509,94.2362,0.0055141,0.224258,20.7395,10.5593,0.409539,0.0,0.0
2576,643.75,73.5386,78.0888,143.174,98.6588,94.9308,0.00602096,0.219673,20.7461,10.5393,0.344564,0.0,0.0
2583,645.5,73.3463,77.7029,139.179,98.6307,94.8922,0.00653949,0.215118,20.7511,10.5292,0.345658,0.0,0.0
2590,647.25,72.8516,77.459,141.855,98.6177,93.2422,0.00697601,0.211233,20.755,10.4792,0.50138,0.0,0.0
2597,649,72.8123,77.0531,139.54,98.6145,95.2747,0.00724626,0.208189,20.7589,10.4492,0.308205,0.0,0.0
2604,650.75,72.6018,76.8558,137.054,98.6097,95.0757,0.00728448,0.205097,20.7641,10.4292,0.326473,0.0,0.0
2611,652.5,72.2054,76.8422,139.315,98.5907,96.283,0.00721432,0.201888,20.7696,10.3891,0.21188,0.0,0.0
2618,654.25,72.2592,76.3607,139.757,98.5884,93.792,0.00707734,0.199034,20.7724,10.3691,0.44614,0.0,0.0
2625,656,72.1567,75.7963,142.702,98.5828,95.3512,0.00704505,0.197002,20.7738,10.3191,0.298154,0.0,0.0
2632,657.75,71.9144,75.9148,139.721,98.5583,94.9988,0.00708415,0.195912,20.7745,10.269,0.329042,0.0,0.0
2639,659.5,71.3191,75.4633,141.202,98.5528,95.265,0.00714235,0.195415,20.7748,10.269,0.30351,0.0,0.0
2646,661.25,71.4607,75.3409,145.116,98.5361,95.338,0.00727102,0.194546,20.7756,10.239,0.295148,0.0,0.0
2653,663,71.4542,74.8344,142.343,98.5148,95.9797,0.00736006,0.193273,20.777,10.229,0.233204,0.0,0.0
2660,664.75,71.3469,74.6948,138.473,98.51,95.3156,0.00736143,0.191024,20.7809,10.1889,0.29488,0.0,0.0
2667,666.5,71.2552,74.7923,140.208,98.4938,94.983,0.00731852,0.18987,20.7829,10.1589,0.324677,0.0,0.0
2674,668.25,70.7106,74.6716,138.987,98.4602,95.4767,0.00726286,0.1899,20.7837,10.1189,0.275245,0.0,0.0
2681,670,70.6049,74.475,140.981,98.4277,95.7954,0.00727568,0.189779,20.784,10.0388,0.242486,0.0,0.0
2688,671.75,70.7589,74.2917,141.884,98.4143,95.0313,0.00731486,0.189107,20.7842,10.0388,0.312903,0.0,0.0
2695,673.5,70.3465,74.0143,142.774,98.3972,95.7607,0.00733951,0.18853,20.7843,9.99878,0.242964,0.0,0.0
2702,675.25,70.3116,74.0616,139.915,98.3723,95.3137,0.00735783,0.188053,20.7848,9.94874,0.282547,0.0,0.0
2709,677,70.3146,73.5998,141.323,98.36,95.3824,0.00738879,0.1873,20.786,9.92872,0.274981,0.0,0.0
2716,678.75,69.9782,73.6608,138.515,98.3319,95.3585,0.00743214,0.186192,20.788,9.9087,0.274671,0.0,0.0
2723,680.5,70.1636,73.4341,141.376,98.3114,95.1402,0.00740547,0.185115,20.7889,9.84865,0.293298,0.0,0.0
2730,682.25,69.746,73.1545,141.485,98.2896,95.9924,0.00727377,0.184209,20.7894,9.80861,0.211547,0.0,0.0
2737,684,69.6174,73.2664,138.992,98.2572,95.9094,0.00725162,0.184235,20.7896,9.79861,0.216336,0.0,0.0
2744,685.75,69.5757,73.1969,141.212,98.2358,94.6906,0.00733327,0.185428,20.7897,9.76858,0.328798,0.0,0.0
2751,687.5,69.7304,72.8397,144.218,98.2033,94.8489,0.00738887,0.185804,20.7895,9.72854,0.310891,0.0,0.0
2758,689.25,69.3294,73.1765,142.117,98.1855,96.2945,0.00730525,0.185277,20.7892,9.71854,0.173962,0.0,0.0
2765,691,69.2455,72.9796,139.583,98.1634,95.9051,0.0071958,0.184694,20.7895,9.68851,0.208191,0.0,0.0
2772,692.75,69.3434,72.6362,139.194,98.1289,95.3245,0.00717424,0.184136,20.7904,9.68851,0.259375,0.0,0.0
2779,694.5,68.8914,72.9205,138.538,98.123,95.1113,0.00716731,0.183283,20.7908,9.66849,0.278867,0.0,0.0
2786,696.25,69.0779,72.5775,142.297,98.0973,95.3801,0.00712991,0.182626,20.7911,9.61845,0.25127,0.0,0.0
2793,698,68.8134,72.605,138.592,98.0759,95.8398,0.00715162,0.182545,20.7905,9.58842,0.20631,0.0,0.0
2800,699.75,68.7652,72.3222,140.598,98.0668,95.5752,0.00726152,0.18298,20.7897,9.5684,0.230213,0.0,0.0
2807,701.5,68.9219,71.8526,143.709,98.0399,96.0778,0.00733823,0.183444,20.7893,9.53838,0.18084,0.0,0.0
2814,703.25,68.3655,72.3773,138.726,98.0158,95.734,0.0073277,0.184152,20.7891,9.50835,0.210707,0.0,0.0
2821,705,68.6429,71.9843,141.831,97.9869,95.5123,0.0073065,0.184603,20.789,9.47832,0.228814,0.0,0.0
2828,706.75,67.7432,71.5615,143.444,97.962,95.9669,0.00731527,0.184485,20.7891,9.45831,0.184054,0.0,0.0
2835,708.5,68.1476,70.9963,140.505,97.9105,95.5153,0.00736075,0.184341,20.7901,9.38825,0.221549,0.0,0.0
2842,710.25,67.7781,71.4218,142.319,97.888,94.8007,0.00740462,0.184087,20.7911,9.34821,0.286674,0.0,0.0
2849,712,67.7754,71.1332,144.582,97.8622,94.0813,0.00745302,0.183771,20.7916,9.34821,0.352456,0.0,0.0
2856,713.75,67.2593,71.05,145.628,97.8262,95.4578,0.007534,0.183549,20.7927,9.34821,0.219239,0.0,0.0
2863,715.5,67.0532,70.561,143.995,97.7973,95.3361,0.00760884,0.183171,20.7948,9.31818,0.228007,0.0,0.0
2870,717.25,66.6736,70.3546,142.326,97.7835,96.2513,0.00758102,0.182737,20.7958,9.30818,0.141278,0.0,0.0
2877,719,67.5062,70.826,146.937,97.7958,95.2824,0.00748367,0.182004,20.7965,9.29817,0.232902,0.0,0.0
2884,720.75,67.5221,70.9108,141.907,97.8112,95.9071,0.00740664,0.181241,20.7983,9.26814,0.175859,0.0,0.0
2891,722.5,67.5031,70.4649,143.622,97.8155,95.4852,0.00738073,0.180049,20.8003,9.19808,0.215691,0.0,0.0
2898,724.25,67.6453,70.5573,140.572,97.8211,94.9301,0.00743352,0.179767,20.8012,9.19808,0.268357,0.0,0.0
2905,726,66.7497,70.504,142.844,97.8397,95.5142,0.00756221,0.180034,20.8017,9.16805,0.215184,0.0,0.0
2912,727.75,67.0464,70.469,137.563,97.8373,95.926,0.00769026,0.180333,20.8019,9.13803,0.176482,0.0,0.0
2919,729.5,66.8511,70.4044,140.423,97.8484,95.2144,0.00776688,0.180444,20.8019,9.108,0.2441,0.0,0.0
2926,731.25,67.1053,70.4766,140.481,97.8555,95.632,0.0077769,0.180332,20.8016,9.07797,0.205603,0.0,0.0
2933,733,67.2498,69.7087,140.325,97.8694,95.5826,0.00788139,0.180474,20.8014,9.03794,0.211496,0.0,0.0
2940,734.75,66.7458,70.2464,139.906,97.8895,96.0373,0.00805568,0.18111,20.8013,9.02793,0.170888,0.0,0.0
2947,736.5,66.6166,70.192,138.045,97.9141,95.3782,0.00806151,0.181445,20.8013,8.98789,0.234728,0.0,0.0
2954,738.25,66.9047,70.5709,141.963,97.9287,96.4402,0.00787166,0.181151,20.8022,8.97789,0.137014,0.0,0.0
2961,740,66.7602,70.2139,142.316,97.9291,95.4083,0.00770548,0.181076,20.8031,8.94786,0.233276,0.0,0.0
2968,741.75,66.492,69.7492,142.519,97.9525,95.2129,0.0076083,0.181266,20.8038,8.91783,0.253755,0.0,0.0
2975,743.5,66.4556,69.8302,143.017,97.9766,94.8899,0.0075716,0.181145,20.8041,8.89781,0.286352,0.0,0.0
2982,745.25,66.7586,69.6314,142.011,97.9802,95.4725,0.00757118,0.180622,20.8042,8.85778,0.231927,0.0,0.0
2989,747,66.1309,70.3242,142.89,97.9999,96.6909,0.00750466,0.180679,20.8049,8.84777,0.120294,0.0,0.0
2996,748.75,66.9094,69.9082,139.66,98.0079,95.3751,0.00736958,0.181192,20.8059,8.79773,0.243582,0.0,0.0
3003,750.5,66.5676,70.1357,144.321,98.03,95.3272,0.00723823,0.181222,20.8063,8.78772,0.250098,0.0,0.0
3010,752.25,66.9606,69.8817,143.216,98.0375,95.6301,0.00720871,0.181139,20.8065,8.74768,0.222409,0.0,0.0
3017,754,65.996,69.8417,148.887,98.047,96.288,0.00723561,0.181123,20.8068,8.72767,0.161946,0.0,0.0
3024,755.75,66.8943,69.6218,142.27,98.0597,95.7452,0.00724532,0.180939,20.807,8.67762,0.213668,0.0,0.0
3031,757.5,66.4861,69.7712,140.486,98.0799,95.481,0.007237,0.180644,20.8077,8.6576,0.240231,0.0,0.0
3038,759.25,66.1846,69.8483,138.001,98.1036,95.3094,0.00725359,0.180564,20.8086,8.60756,0.25848,0.0,0.0
3045,761,66.8004,69.9534,140.406,98.1044,94.6689,0.00732188,0.180689,20.8081,8.62758,0.31887,0.0,0.0
3052,762.75,65.9665,69.3794,138.318,98.1301,95.5826,0.00747876,0.181675,20.8055,8.60756,0.2353,0.0,0.0
3059,764.5,66.0625,69.5591,140.768,98.1313,95.1344,0.00758427,0.182455,20.8039,8.56752,0.277445,0.0,0.0
3066,766.25,66.4897,69.3874,139.235,98.1531,95.7425,0.00769022,0.182471,20.8041,8.57753,0.222436,0.0,0.0
3073,768,66.1822,69.466,142.276,98.1515,95.9287,0.00781962,0.181898,20.8045,8.52749,0.204911,0.0,0.0
3080,769.75,65.8504,69.1695,143.181,98.1681,95.8487,0.00783432,0.181435,20.8047,8.48745,0.213885,0.0,0.0
3087,771.5,66.2445,69.3523,140.44,98.1729,95.6714,0.00774884,0.181456,20.8047,8.48745,0.230882,0.0,0.0
3094,773.25,66.0577,69.3417,142.075,98.1843,96.2262,0.00758553,0.181484,20.8048,8.44742,0.180209,0.0,0.0
3101,775,66.2713,69.3395,142.765,98.1851,95.0664,0.00749698,0.181533,20.8048,8.40738,0.288745,0.0,0.0
3108,776.75,66.0491,69.3564,136.719,98.1919,95.7792,0.00742181,0.181993,20.8048,8.37736,0.222541,0.0,0.0
3115,778.5,65.8058,69.4405,141.501,98.1942,95.8808,0.00732081,0.182531,20.8039,8.29729,0.213273,0.0,0.0
3122,780.25,65.8935,69.5032,143.067,98.2081,95.1576,0.00722825,0.183113,20.8032,8.31731,0.282262,0.0,0.0
3129,782,65.6459,69.3276,141.64,98.2184,96.0017,0.00714471,0.183577,20.8025,8.26726,0.204197,0.0,0.0
3136,783.75,65.5858,69.2192,141.894,98.2188,95.6621,0.0069942,0.182837,20.8037,8.29729,0.235931,0.0,0.0
3143,785.5,65.991,69.4099,140.138,98.2128,95.9171,0.00679622,0.181276,20.805,8.26726,0.21158,0.0,0.0
3150,787.25,65.7128,69.3124,142.502,98.2041,95.1387,0.00670539,0.179115,20.8075,8.26726,0.28368,0.0,0.0
3157,789,65.7525,69.374,140.203,98.2215,96.2988,0.00682169,0.176964,20.8092,8.1972,0.176847,0.0,0.0
3164,790.75,65.6632,69.2862,139.85,98.2271,96.8589,0.00704392,0.177372,20.8088,8.10712,0.125469,0.0,0.0
3171,792.5,65.8799,69.0377,143.989,98.2239,96.5777,0.00730635,0.179365,20.8053,8.10712,0.151192,0.0,0.0
3178,794.25,65.4454,68.9453,139.306,98.233,95.9998,0.00746719,0.18145,20.8028,8.0871,0.205712,0.0,0.0
3185,796,65.9179,69.2137,144.961,98.2358,95.4311,0.00745908,0.182831,20.801,8.06709,0.259109,0.0,0.0
3192,797.75,65.7198,68.8103,139.242,98.2397,95.9612,0.00737687,0.183856,20.8002,8.04707,0.209924,0.0,0.0
3199,799.5,65.4134,69.1686,139.121,98.235,95.6061,0.00729318,0.183899,20.7996,8.01704,0.242648,0.0,0.0
3206,801.25,65.3625,68.3667,140.425,98.2433,95.8433,0.00713288,0.183686,20.7993,7.95699,0.221239,0.0,0.0
3213,803,65.7941,68.6674,139.748,98.2524,95.6625,0.00698618,0.183382,20.7999,7.967,0.238958,0.0,0.0
3220,804.75,65.3389,68.924,140.511,98.2579,95.4188,0.00686792,0.182696,20.8006,7.88693,0.262285,0.0,0.0
3227,806.5,64.9404,68.8837,139.634,98.2726,95.0645,0.00691296,0.182422,20.8019,7.90694,0.296891,0.0,0.0
3234,808.25,65.3883,68.9704,139.832,98.2698,96.0295,0.00707904,0.182467,20.8027,7.84689,0.206291,0.0,0.0
3241,810,65.033,68.9529,139.573,98.2734,95.4531,0.00716374,0.18224,20.8031,7.84689,0.260469,0.0,0.0
3248,811.75,65.5843,68.5472,141.707,98.294,95.1383,0.00715579,0.181942,20.8033,7.77683,0.291896,0.0,0.0
3255,813.5,65.3715,68.2216,142.097,98.2971,95.2175,0.00713606,0.181289,20.8035,7.78684,0.28474,0.0,0.0
3262,815.25,65.4248,68.4318,142.005,98.3086,95.7796,,0.181036,,7.7468,0.233134,0.0,0.0
3269,817,64.84,68.4651,145.048,98.3157,95.0579,,0.181003,,7.71678,0.301435,0.0,0.0
3276,818.75,65.0017,68.2438,143.097,98.3181,96.6387,,,,7.68675,0.154113,0.0,0.0
3283,820.5,65.2142,68.8609,141.649,98.3462,95.9129,,,,7.67674,0.224114,0.0,0.0
3290,822.25,64.8322,68.4969,144.727,98.3525,96.0724,,,,7.65672,0.209822,0.0,0.0
3297,824,65.2976,68.557,143.477,98.3596,95.4172,,,,7.61669,0.271684,0.0,0.0
3301,825,64.7747,68.3353,140.863,98.3502,95.8715,,,,7.60668,0.22833,0.0,0.0