File: 01_Data/PC/Cone/PC_Cone_HF25Scan_220216_R1.csv
Names,Time,Stack TC,Smoke TC,Exh Press,Smoke Comp,Smoke Meas,CO Meter,CO2 Meter,O2 Meter,Sample Mass,Ext Coeff,Start Test,Flame Verif
Chan Gain,,500,500,1,1,1,1,1,1,1,1,1.0,1.0
Offset,,0,0,0.140898,0,0,0,0,0,0,0,0.0,0.0
Gain,,1,1,25.011,12.9668,12.6588,1,1,1,1.00088,1.01977,1.0,1.0
Units,sec,C,C,Pa,%,%,%,%,%,g,/m,,
Baseline,,21.5881,22.7172,157.469,97.8289,99.0087,-0.0024965,0.0638354,20.9823,-873.374,-0.10721,,
12,2.75,20.2395,20.5519,156.742,98.9778,100.723,-0.00241974,0.0733783,20.9728,59.172,-0.156381,0.0,0.0
24,5.75,20.0739,20.9762,159.452,98.9592,100.986,-0.00240537,0.0724063,20.9737,59.162,-0.181362,0.0,0.0
36,8.75,20.1499,21.2871,159.757,98.916,100.57,-0.00253654,0.0717022,20.9737,59.172,-0.148296,0.0,0.0
48,11.75,20.4867,21.075,160.308,98.8282,100.471,-0.00263106,0.0706973,20.9733,59.172,-0.147478,0.0,0.0
60,14.75,20.5133,21.3698,156.335,98.7316,100.812,-0.00264414,0.0696829,20.9732,59.172,-0.186507,0.0,0.0
72,17.75,20.1632,21.4686,158.882,98.5852,100.464,-0.00278326,0.0688007,20.9732,59.162,-0.168844,0.0,0.0
84,20.75,20.7194,21.7485,156.921,98.4467,100.382,-0.00279828,0.0683247,20.9732,59.162,-0.174124,0.0,0.0
96,23.75,20.406,21.3518,158.232,98.3232,100.213,-0.00264765,0.0677264,20.9732,59.172,-0.170292,0.0,0.0
108,26.75,20.5687,21.4388,158.554,98.2235,100.224,-0.00254021,0.0678136,20.9717,59.172,-0.18037,0.0,0.0
120,29.75,20.9916,22.0416,156.535,98.364,99.9846,-0.00254533,0.0678434,20.9711,59.162,-0.146182,0.0,0.0
132,32.75,20.4472,21.8159,156.6,98.5555,100.167,-0.00251014,0.0679616,20.9695,59.1419,-0.145045,0.0,0.0
144,35.75,20.8821,21.6505,160.513,98.7091,100.707,-0.00249115,0.0681059,20.9696,59.1419,-0.179222,0.0,0.0
156,38.75,20.6599,21.1829,162.244,98.7645,100.605,-0.00273402,0.0679011,20.9722,59.1319,-0.165208,0.0,0.0
168,41.75,20.8042,21.8211,159.589,98.755,100.633,-0.00278252,0.0678149,20.9731,59.1219,-0.168541,0.0,0.0
180,44.75,21.1259,22.0228,159.472,98.6596,100.469,-0.00268584,0.0676946,20.9748,59.1419,-0.162612,0.0,0.0
192,47.75,20.848,21.5134,159.967,98.4902,100.062,-0.00260729,0.0676047,20.9752,59.1319,-0.141654,0.0,0.0
204,50.75,20.9101,21.3572,156.678,98.2631,100.318,-0.00263847,0.0672659,20.9754,59.152,-0.185176,0.0,0.0
216,53.75,20.6208,22.1362,159.504,97.9501,99.7575,-0.00279917,0.0672959,20.9741,59.152,-0.163557,0.0,0.0
228,56.75,20.9222,21.4361,158.406,97.9766,99.8761,-0.00279173,0.0672748,20.9734,59.1419,-0.171765,0.0,0.0
240,59.75,21.1678,21.477,156.055,98.0197,99.9916,-0.00264253,0.067207,20.973,59.1419,-0.178167,0.0,0.0
252,62.75,20.3981,21.624,158.519,98.0807,100.004,-0.00269796,0.0671942,20.9745,59.1319,-0.173748,0.0,0.0
264,65.75,21.0387,21.8949,157.293,98.1384,99.8525,-0.0027455,0.067246,20.9746,59.1119,-0.15489,0.0,0.0
276,68.75,20.9334,22.297,156.11,98.197,100.035,-0.00277061,0.0672833,20.9739,59.1019,-0.165908,0.0,0.0
288,71.75,21.0176,22.4129,159.036,98.2318,99.8954,-0.00299669,0.0674604,20.9737,59.1019,-0.150222,0.0,0.0
300,74.75,20.923,22.5394,155.81,98.275,99.856,-0.00306176,0.0673831,20.9731,59.1319,-0.142766,0.0,0.0
312,77.75,21.3106,22.433,154.428,98.2944,100.33,-0.0028397,0.0673731,20.9729,59.1319,-0.183329,0.0,0.0
324,80.75,21.3484,22.5994,153.286,98.288,100.284,-0.00261736,0.0672776,20.9728,59.1319,-0.179806,0.0,0.0
336,83.75,20.8315,22.0134,153.386,98.2326,100.16,-0.00272386,0.0671014,20.9728,59.1119,-0.17385,0.0,0.0
348,86.75,20.9576,22.5361,153.077,98.1626,99.7382,-0.00265009,0.0669331,20.9728,59.1019,-0.14244,0.0,0.0
360,89.75,20.9451,22.395,156.004,98.0454,99.9843,-0.00273965,0.0668223,20.9728,59.1119,-0.175164,0.0,0.0
372,92.75,20.9944,22.7152,151.361,97.8911,99.5469,-0.00294024,0.0666246,20.9728,59.1119,-0.150044,0.0,0.0
384,95.75,20.9861,22.2905,154.646,97.7388,99.766,-0.00296821,0.0665633,20.9737,59.1019,-0.183639,0.0,0.0
396,98.75,21.2954,22.4133,159.541,97.5749,99.0899,-0.00295572,0.0664894,20.9747,59.1219,-0.137822,0.0,0.0
408,101.75,20.6685,22.418,154.978,97.3834,99.4689,-0.00305441,0.0663394,20.975,59.1119,-0.189544,0.0,0.0
420,104.75,20.9845,22.2586,159.331,97.2113,98.8431,-0.00311811,0.0663363,20.9752,59.1219,-0.14891,0.0,0.0
432,107.75,21.3663,22.6536,155.367,97.0823,98.9624,-0.00298477,0.0663244,20.9757,59.1119,-0.171586,0.0,0.0
444,110.75,21.376,22.6845,160.402,96.9853,98.9416,-0.00269924,0.0660216,20.9767,59.0919,-0.178638,0.0,0.0
456,113.75,21.1739,22.4312,159.201,96.9505,98.5487,-0.00251469,0.0659807,20.9778,59.0819,-0.146258,0.0,0.0
468,116.75,21.4131,22.929,158.319,96.9675,98.9111,-0.00265176,0.0659408,20.9771,59.0619,-0.17752,0.0,0.0
480,119.75,21.4251,22.7442,158.342,97.0289,99.2966,-0.00259626,0.0660974,20.9747,59.0419,-0.206664,0.0,0.0
492,122.75,21.3886,22.9649,158.441,97.142,99.1077,-0.00257412,0.0667493,20.9723,59.0719,-0.179201,0.0,0.0
504,125.75,21.7702,22.8528,154.434,97.2837,99.365,-0.00265461,0.0674728,20.9681,59.0819,-0.189358,0.0,0.0
516,128.75,21.4252,22.8623,155.723,97.4717,99.6659,-0.00264665,0.0681568,20.9666,59.0819,-0.199143,0.0,0.0
528,131.75,21.4734,23.0406,155.575,97.6822,99.9889,-0.00271655,0.0686814,20.9656,59.0919,-0.208784,0.0,0.0
540,134.75,21.8082,23.2599,154.597,97.9073,99.6269,-0.00277538,0.0688904,20.9659,59.0919,-0.155745,0.0,0.0
552,137.75,21.4075,23.5436,155.056,98.1194,99.9298,-0.00289117,0.0688838,20.966,59.0719,-0.163541,0.0,0.0
564,140.75,21.179,23.0977,155.117,98.3185,100.638,-0.00305766,0.0686337,20.966,59.0719,-0.208542,0.0,0.0
576,143.75,21.1462,23.1996,161.588,98.4906,100.731,-0.00305998,0.0684926,20.966,59.0619,-0.2012,0.0,0.0
588,146.75,22.0594,23.2355,157.015,98.6469,100.774,-0.00309948,0.0685889,20.966,59.0619,-0.190823,0.0,0.0
600,149.75,22.3492,22.7821,157.329,98.7649,101.292,-0.00296939,0.0686055,20.9669,59.0819,-0.226004,0.0,0.0
612,152.75,21.7973,22.7118,159.16,98.8598,101.215,-0.00281181,0.0684647,20.9695,59.0619,-0.210614,0.0,0.0
624,155.75,22.0635,23.2456,160.94,98.918,101.357,-0.00280487,0.0684611,20.9703,59.0719,-0.217874,0.0,0.0
636,158.75,21.5509,23.1633,156.668,98.956,101.474,-0.00277918,0.0682746,20.9705,59.0619,-0.22473,0.0,0.0
648,161.75,21.7699,23.087,157.048,98.9647,100.787,-0.00265116,0.0683215,20.9715,59.0519,-0.16322,0.0,0.0
660,164.75,21.0812,22.6031,159.159,98.9334,100.575,-0.00281531,0.0679086,20.9724,59.0719,-0.147203,0.0,0.0
672,167.75,21.9446,22.6743,154.459,98.899,101.231,-0.00308671,0.0678522,20.9712,59.0519,-0.208504,0.0,0.0
684,170.75,22.3917,23.5826,158.698,98.8551,100.972,-0.00311756,0.0678579,20.9713,59.0519,-0.189577,0.0,0.0
696,173.75,21.9844,23.2105,159.41,98.7898,100.573,-0.00294195,0.0677571,20.9722,59.0619,-0.160029,0.0,0.0
708,176.75,22.3304,23.373,159.019,98.679,101.353,-0.00266277,0.0673408,20.9724,59.0619,-0.239207,0.0,0.0
720,179.75,22.3315,23.4241,155.8,98.5864,101.052,-0.00255003,0.0672545,20.9724,59.0619,-0.22097,0.0,0.0
732,182.75,21.591,23.1957,155.204,98.4962,100.869,-0.00272753,0.067067,20.974,59.0419,-0.212971,0.0,0.0
744,185.75,22.2249,23.5082,159.354,98.3913,100.541,-0.00281261,0.0669641,20.9732,59.0419,-0.193297,0.0,0.0
756,188.75,22.3992,23.2149,154.934,98.3228,100.535,-0.00282392,0.0668915,20.9727,59.0318,-0.199008,0.0,0.0
768,191.75,21.8202,23.0586,154.75,98.237,100.239,-0.00271908,0.0669623,20.9735,59.0218,-0.180454,0.0,0.0
780,194.75,22.0578,23.4501,156.623,98.1974,100.041,-0.00269664,0.0668171,20.9739,59.0318,-0.166425,0.0,0.0
792,197.75,21.6639,23.5861,156.668,98.3798,100.679,-0.00292605,0.0667882,20.9747,59.0419,-0.206671,0.0,0.0
804,200.75,21.9718,23.3854,153.233,98.5334,100.896,-0.00304503,0.0668288,20.9752,59.0318,-0.211957,0.0,0.0
816,203.75,21.6525,23.1916,157.242,98.6485,100.878,-0.00312378,0.0668135,20.9753,59.0318,-0.199899,0.0,0.0
828,206.75,22.2166,23.6586,155.638,98.7205,100.962,-0.00308834,0.0669046,20.9754,59.0318,-0.20087,0.0,0.0
840,209.75,22.3705,23.6429,155.062,98.7617,101.031,-0.00311603,0.0669644,20.9764,59.0318,-0.203232,0.0,0.0
852,212.75,21.9635,23.6341,162.37,98.7486,101.13,-0.00321788,0.0665919,20.9773,59.0318,-0.213201,0.0,0.0
864,215.75,21.7729,23.5467,160.418,98.7158,100.981,-0.00300787,0.066186,20.9776,58.9918,-0.202943,0.0,0.0
876,218.75,21.9974,23.4518,156.95,98.6513,100.989,-0.00273276,0.0659379,20.9776,59.0018,-0.209508,0.0,0.0
888,221.75,22.4815,23.4196,157.57,98.55,100.96,-0.00265363,0.0657112,20.9765,58.9918,-0.216098,0.0,0.0
900,224.75,22.5206,23.4692,154.751,98.4222,100.924,-0.00284281,0.0658703,20.9762,58.9818,-0.224523,0.0,0.0
912,227.75,22.264,23.7407,155.398,98.252,100.62,-0.00294781,0.0660096,20.9744,58.9918,-0.213013,0.0,0.0
924,230.75,22.2443,24.114,155.485,98.0637,100.715,-0.00308118,0.06635,20.9739,58.9718,-0.238658,0.0,0.0
936,233.75,22.1963,23.4205,153.345,97.9564,100.251,-0.00309016,0.0666499,20.9738,58.9818,-0.207142,0.0,0.0
948,236.75,21.942,22.9469,152.286,97.9912,100.451,-0.00317376,0.0669099,20.9708,58.9718,-0.221801,0.0,0.0
960,239.75,22.3428,23.6893,155.947,98.0423,100.44,-0.00327453,0.0674777,20.9686,58.9618,-0.216109,0.0,0.0
972,242.75,21.9375,22.7396,157.064,98.0953,100.345,-0.00332638,0.0679829,20.9668,58.9718,-0.202873,0.0,0.0
984,245.75,22.3429,24.0326,155.106,98.1345,100.335,-0.00342581,0.0685495,20.9669,58.9818,-0.198407,0.0,0.0
996,248.75,22.5421,23.6132,155.408,98.1701,100.26,-0.00332056,0.0692132,20.966,58.9818,-0.188408,0.0,0.0
1008,251.75,22.4839,24.054,153.87,98.1899,100.255,-0.00315082,0.0698735,20.9634,58.9818,-0.186157,0.0,0.0
1020,254.75,21.9806,23.7601,157.93,98.2033,100.588,-0.00317922,0.0705084,20.9627,58.9918,-0.214664,0.0,0.0
1032,257.75,22.3544,23.8732,156.82,98.2299,100.758,-0.00299468,0.0708312,20.9625,58.9718,-0.227353,0.0,0.0
1044,260.75,22.2662,24.0044,156.351,98.231,100.24,-0.00288331,0.0709821,20.9627,58.9718,-0.181133,0.0,0.0
1056,263.75,22.3044,23.8415,155.346,98.2338,100.463,-0.00309337,0.0710984,20.9641,58.9718,-0.200716,0.0,0.0
1068,266.75,22.3579,23.8722,156.987,98.2425,100.349,-0.00325744,0.0710978,20.9633,58.9818,-0.189805,0.0,0.0
1080,269.75,22.8809,23.9789,154.931,98.2457,100.799,-0.00317534,0.0713045,20.9619,58.9718,-0.229511,0.0,0.0
1092,272.75,22.7207,23.4635,158.005,98.2469,100.447,-0.00293379,0.0712743,20.9618,58.9918,-0.198151,0.0,0.0
1104,275.75,22.7316,24.0307,155.26,98.254,100.223,-0.00277332,0.0711484,20.9632,58.9518,-0.177527,0.0,0.0
1116,278.75,22.45,24.1939,155.232,98.2473,100.778,-0.00279419,0.0707544,20.9653,58.9518,-0.227516,0.0,0.0
1128,281.75,22.4294,24.4076,156.483,98.2564,100.872,-0.00278352,0.0701026,20.9676,58.9518,-0.235016,0.0,0.0
1140,284.75,23.1729,24.1346,158.684,98.239,100.619,-0.00291915,0.0693674,20.9712,58.9718,-0.214134,0.0,0.0
1152,287.75,22.8585,24.3948,156.652,98.2477,100.333,-0.00313682,0.0686365,20.9742,58.9418,-0.187855,0.0,0.0
1164,290.75,22.6721,24.4323,155.54,98.2461,100.56,-0.00328585,0.0679059,20.976,58.9518,-0.208264,0.0,0.0
1176,293.75,23.3047,23.9957,156.753,98.2477,100.175,-0.0032053,0.0669077,20.9785,58.9418,-0.173757,0.0,0.0
1188,296.75,22.7809,23.6204,153.004,98.2417,100.405,-0.00291978,0.0661384,20.9798,58.9518,-0.194869,0.0,0.0
1200,299.75,22.4288,24.1077,151.941,98.2413,100.686,-0.00274185,0.0655032,20.9802,58.9418,-0.219892,0.0,0.0
1212,302.75,22.5653,23.9946,151.818,98.2378,100.351,-0.00295491,0.0652997,20.9807,58.9318,-0.190374,0.0,0.0
1224,305.75,22.9423,24.492,157.664,98.2358,100.087,-0.00306754,0.0653637,20.9795,58.9618,-0.16697,0.0,0.0
1236,308.75,22.5033,24.5463,156.117,98.2386,100.002,-0.00291317,0.0653613,20.9791,58.9618,-0.159118,0.0,0.0
1248,311.75,22.953,24.2549,157.08,98.2397,100.521,-0.0028649,0.0654208,20.9788,58.9618,-0.205368,0.0,0.0
1260,314.75,22.4577,24.4464,154.369,98.2235,100.073,-0.00281321,0.0654112,20.9776,58.9618,-0.166912,0.0,0.0
1272,317.75,23.1745,24.2857,156.478,98.2136,100.325,-0.00270318,0.0651973,20.9772,58.9418,-0.190266,0.0,0.0
1284,320.75,22.9267,24.1455,156.193,98.1828,100.176,-0.00266189,0.0648156,20.9771,58.9318,-0.179771,0.0,0.0
1296,323.75,22.9645,24.2452,153.453,98.1507,100.096,-0.00270927,0.0647034,20.9787,58.9618,-0.175548,0.0,0.0
1308,326.75,23.2293,24.5657,157.619,98.1147,100.014,-0.00277999,0.0646926,20.9797,58.9718,-0.171509,0.0,0.0
1320,329.75,22.8444,24.3245,155.743,98.085,100.134,-0.00283828,0.0645848,20.9801,58.9518,-0.184955,0.0,0.0
1332,332.75,23.2016,24.5682,158.883,98.0383,100.186,-0.00306104,0.0645898,20.9789,58.9318,-0.193802,0.0,0.0
1344,335.75,22.8165,24.4873,155.496,97.9984,100.486,-0.00332515,0.0645631,20.9785,58.9117,-0.224246,0.0,0.0
1356,338.75,22.7699,24.6356,153.137,97.9806,100.266,-0.00329927,0.0644782,20.9786,58.9117,-0.206247,0.0,0.0
1368,341.75,23.0606,24.8021,157.048,98.0142,99.9186,-0.00328527,0.0643374,20.9802,58.9518,-0.172139,0.0,0.0
1380,344.75,22.8091,24.4839,156.231,98.2287,100.299,-0.00322485,0.0642395,20.9807,58.9818,-0.186587,0.0,0.0
1392,347.75,22.9821,24.3349,157.207,98.4226,100.221,-0.00306605,0.0640061,20.9816,58.9518,-0.161985,0.0,0.0
1404,350.75,23.0733,24.4914,153.248,98.5789,100.075,-0.0029996,0.06379,20.9827,58.9618,-0.134712,0.0,0.0
1416,353.75,23.4856,24.6434,154.442,98.6766,100.691,-0.00296935,0.0637176,20.983,58.9518,-0.180791,0.0,0.0
1428,356.75,23.6166,25.1578,154.961,98.7415,100.114,-0.00293143,0.0635621,20.9831,58.9217,-0.123452,0.0,0.0
1440,359.75,22.8868,24.7871,153.479,98.7605,100.886,-0.00291406,0.063196,20.9837,58.9217,-0.190504,0.0,0.0
1452,362.75,23.2629,24.3529,153.024,98.7197,100.249,-0.00302977,0.0628292,20.987,58.9418,-0.137498,0.0,0.0
1464,365.75,23.1418,24.7865,155.443,98.618,100.954,-0.00290344,0.0622546,20.9879,58.9217,-0.209408,0.0,0.0
1476,368.75,23.364,24.5838,156.522,98.4526,99.5775,-0.00286311,0.0618828,20.9882,58.8917,-0.101621,0.0,0.0
1488,371.75,23.5304,24.5779,155.046,98.1935,100.758,-0.002936,0.0618274,20.9883,58.9318,-0.230599,0.0,0.0
1500,374.75,23.1852,24.7512,157.786,98.2263,100.074,-0.00306279,0.0618791,20.9883,58.9217,-0.166729,0.0,0.0
1512,377.75,23.2736,24.6204,157.224,98.3331,99.919,-0.00311094,0.0618842,20.9892,58.9217,-0.143112,0.0,0.0
1524,380.75,23.5949,25.2388,154.329,98.4811,100.35,-0.00331449,0.0616166,20.9901,58.9117,-0.168139,0.0,0.0
1536,383.75,23.3506,24.7816,157.111,98.6086,100.376,-0.00336732,0.0615747,20.9895,58.9017,-0.158948,0.0,0.0
1548,386.75,23.5037,24.7899,156.624,98.738,100.74,-0.0032275,0.0615118,20.9894,58.9117,-0.179555,0.0,0.0
1560,389.75,23.005,25.1332,155.614,98.8476,100.864,-0.0031138,0.0614055,20.9899,58.9217,-0.1806,0.0,0.0
1572,392.75,23.6632,25.4595,157.165,98.9295,100.911,-0.00307145,0.0612289,20.9901,58.9318,-0.17737,0.0,0.0
1584,395.75,23.6094,25.2292,157.648,98.9556,100.468,-0.0029888,0.0609751,20.9901,58.8817,-0.135642,0.0,0.0
1596,398.75,23.8381,25.1239,158.148,98.9243,100.617,-0.00301645,0.0608062,20.9897,58.9117,-0.15177,0.0,0.0
1608,401.75,23.2719,24.7789,153.265,98.8298,100.588,-0.0028808,0.0607957,20.9894,58.9217,-0.15775,0.0,0.0
1620,404.75,23.4982,24.6304,153.656,98.6853,99.9356,-0.00277659,0.0605513,20.9903,58.8817,-0.112618,0.0,0.0
1632,407.75,23.396,25.5431,152.909,98.4792,100.212,-0.00272119,0.060584,20.9917,58.9017,-0.156016,0.0,0.0
1644,410.75,23.3856,24.9952,156.427,98.2006,98.9142,-0.00274405,0.0605701,20.9921,58.9017,-0.0647673,0.0,0.0
1656,413.75,23.7077,25.1462,154.271,97.905,99.5427,-0.00278362,0.0605245,20.9922,58.8817,-0.148397,0.0,0.0
1668,416.75,24.1273,25.6482,155.583,97.6003,99.6659,-0.00293887,0.0603609,20.9922,58.8817,-0.187348,0.0,0.0
1680,419.75,23.4576,24.8602,155.64,97.3284,99.0807,-0.00313956,0.0604494,20.9926,58.8917,-0.159614,0.0,0.0
1692,422.75,23.9836,25.0427,160.345,97.1124,98.0959,-0.00305355,0.0603574,20.9929,58.9017,-0.0901454,0.0,0.0
1704,425.75,23.8787,25.4031,156.95,96.9786,98.6422,-0.00302899,0.0601565,20.993,58.8817,-0.152149,0.0,0.0
1716,428.75,23.878,25.4568,158.204,96.9248,98.4641,-0.00313689,0.060201,20.9909,58.9017,-0.140949,0.0,0.0
1728,431.75,24.0618,25.4667,156.794,97.0059,98.2215,-0.00305009,0.0600411,20.9902,58.8817,-0.111398,0.0,0.0
1740,434.75,24.0386,25.442,154.353,97.148,98.3625,-0.00298642,0.0598799,20.99,58.8817,-0.111139,0.0,0.0
1752,437.75,23.7485,25.3636,148.14,97.3688,98.8589,-0.00313982,0.0598724,20.99,58.8817,-0.135863,0.0,0.0
1764,440.75,23.8659,25.419,155.409,97.6149,99.156,-0.0032495,0.0599616,20.9896,58.9117,-0.14012,0.0,0.0
1776,443.75,24.0733,25.8329,155.526,97.846,100.151,-0.00307417,0.060119,20.9893,58.9017,-0.208297,0.0,0.0
1788,446.75,23.5084,25.6009,154.265,98.0557,99.4681,-0.00292833,0.0598889,20.9891,58.8917,-0.127929,0.0,0.0
1800,449.75,24.0889,25.1465,154.729,98.1938,99.8471,-0.00310218,0.0597777,20.9899,58.8717,-0.149357,0.0,0.0
1812,452.75,23.9309,25.3268,156.758,98.2797,100.058,-0.0032251,0.0598468,20.9925,58.8817,-0.160415,0.0,0.0
1824,455.75,24.2594,25.3258,155.207,98.2651,99.5157,-0.00300873,0.0598867,20.9932,58.8917,-0.113126,0.0,0.0
1836,458.75,24.0124,25.1894,153.855,98.1946,99.6814,-0.00277886,0.0599414,20.9934,58.8717,-0.134425,0.0,0.0
1848,461.75,24.1423,25.9078,157.2,98.1333,99.2615,-0.00280822,0.0599316,20.9942,58.8617,-0.102251,0.0,0.0
1860,464.75,24.4216,25.6072,156.325,98.0221,99.742,-0.00311548,0.0598687,20.9937,58.8717,-0.155597,0.0,0.0
1872,467.75,23.9142,25.3404,157.103,97.9366,98.969,-0.00326895,0.0600437,20.9919,58.8817,-0.0938026,0.0,0.0
1884,470.75,23.8766,25.0552,154.811,98.15625,99.3623,-0.00320472,0.0600146,20.9914,58.8717,-0.10924,0.0,0.0
1896,473.75,23.8798,24.7455,151.661,98.5274,99.535,-0.00303676,0.0602153,20.9925,58.8717,-0.0910104,0.0,0.0
1908,476.75,24.3601,25.7224,151.691,98.717,100.066,-0.00303475,0.0601276,20.9932,58.8717,-0.121394,0.0,0.0
1920,479.75,24.187,25.6038,157.656,98.715,99.4245,-0.00317942,0.0599908,20.9934,58.8717,-0.0640621,0.0,0.0
1932,482.75,23.6631,25.6181,152.164,98.5183,99.4708,-0.00310764,0.0600923,20.9931,58.8617,-0.0860719,0.0,0.0
1944,485.75,24.1043,24.7614,150.722,98.1942,99.382,-0.00298342,0.0598915,20.9928,58.8717,-0.107553,0.0,0.0
1956,488.75,23.8473,25.6073,163.415,98.3228,99.7196,-0.00282799,0.0597599,20.9927,58.8817,-0.126184,0.0,0.0
1968,491.75,24.0865,25.5774,153.767,98.5191,99.6045,-0.00299791,0.0597769,20.9927,58.8617,-0.0980122,0.0,0.0
1980,494.75,24.0922,25.9303,152.847,98.7348,99.6493,-0.00321461,0.0597392,20.9927,58.8417,-0.0824744,0.0,0.0
1992,497.75,23.891,25.6207,152.412,98.8812,99.409,-0.00331573,0.0597537,20.9945,58.8517,-0.0476231,0.0,0.0
2004,500.75,24.3399,25.4682,159.025,98.9481,99.8046,-0.00341741,0.0597441,20.9952,58.8717,-0.0771023,0.0,0.0
2016,503.75,24.3576,26.2178,156.126,98.8998,100.142,-0.00330375,0.0596189,20.9953,58.8717,-0.111645,0.0,0.0
2028,506.75,24.4262,25.5318,156.894,98.6897,98.9837,-0.00307784,0.0596393,20.9954,58.8517,-0.0266107,0.0,0.0
2040,509.75,24.1493,25.9978,153.27,98.3846,99.6864,-0.00305913,0.0598563,20.9954,58.8617,-0.117588,0.0,0.0
2052,512.75,24.1864,25.387,156.597,98.0043,98.5054,-0.00314871,0.0598739,20.9939,58.8617,-0.0456244,0.0,0.0
2064,515.75,23.8494,25.7769,155.032,97.5888,97.8711,-0.00303254,0.0600669,20.9934,58.8417,-0.0258396,0.0,0.0
2076,518.75,24.3485,25.8149,152.86,97.2437,97.6076,-0.00301308,0.0600766,20.9931,58.8417,-0.033413,0.0,0.0
2088,521.75,24.6751,25.6824,156.217,97.002,97.8271,-0.00314145,0.0601855,20.991,58.8517,-0.0757687,0.0,0.0
2100,524.75,24.3714,25.6507,159.211,96.9525,98.1983,-0.00330271,0.0602334,20.99,58.8517,-0.114214,0.0,0.0
2112,527.75,24.4137,25.8363,153.941,97.0676,97.3179,-0.00334214,0.0604164,20.9897,58.8517,-0.0230322,0.0,0.0
2124,530.75,24.516,25.3347,155.562,97.3379,97.1216,-0.00327099,0.0604997,20.9896,58.8717,0.0198976,0.0,0.0
2136,533.75,24.831,26.1806,151.609,97.6818,98.3973,-0.00321672,0.0605687,20.9896,58.8417,-0.0652818,0.0,0.0
2148,536.75,24.12,25.6608,159.273,97.9715,98.2207,-0.00321541,0.0604708,20.9896,58.8317,-0.0227308,0.0,0.0
2160,539.75,24.4304,26.0506,159.391,98.2057,99.0378,-0.0031669,0.0603208,20.9896,58.8217,-0.0754719,0.0,0.0
2172,542.75,24.5021,25.9684,156.339,98.2837,98.7793,-0.00306775,0.0603704,20.9901,58.8217,-0.0450001,0.0,0.0
2184,545.75,24.3222,25.7947,160.195,98.216,98.558,-0.00298693,0.0602493,20.9907,58.8317,-0.0310922,0.0,0.0
2196,548.75,24.1889,25.6113,152.504,98.0949,98.2265,-0.00297337,0.0601485,20.9923,58.8517,-0.0119919,0.0,0.0
2208,551.75,24.7545,25.8145,152.999,97.9596,98.0272,-0.00318653,0.0599439,20.9929,58.8317,-0.00617053,0.0,0.0
2220,554.75,24.2526,25.7147,155.253,97.8951,98.3501,-0.00336896,0.0599936,20.9921,58.8217,-0.041485,0.0,0.0
2232,557.75,24.621,25.7928,153.328,98.442,98.568,-0.00324704,0.0599657,20.9928,58.8117,-0.0114478,0.0,0.0
2244,560.75,24.3244,25.7954,150.943,98.7035,98.855,-0.00295314,0.0599808,20.9931,58.8317,-0.0137224,0.0,0.0
2256,563.75,24.433,25.7635,157.587,98.6687,98.3953,-0.00285495,0.0600717,20.9927,58.8117,0.0248183,0.0,0.0
2268,566.75,24.4924,26.1745,155.826,98.3228,98.0009,-0.002968,0.0599678,20.9913,58.8317,0.0293388,0.0,0.0
2280,569.75,24.7366,25.8585,155.174,98.2864,98.5599,-0.0031855,0.0600992,20.9911,58.8217,-0.0248547,0.0,0.0
2292,572.75,24.4138,26.5681,154.292,98.5492,98.5533,-0.00332603,0.06012,20.9911,58.8417,-0.000375902,0.0,0.0
2304,575.75,24.7202,26.2239,151.927,98.7922,98.6538,-0.00318332,0.0601408,20.9911,58.8417,0.0125392,0.0,0.0
2316,578.75,24.5062,26.0102,151.417,98.9437,98.8218,-0.00294634,0.0599724,20.9911,58.7916,0.0110269,0.0,0.0
2328,581.75,24.7639,26.0593,157.913,98.9125,99.2039,-0.00303505,0.0600202,20.9911,58.8016,-0.0263177,0.0,0.0
2340,584.75,24.4041,25.7554,155.139,98.694,98.5089,-0.00326352,0.0599264,20.9911,58.7916,0.0167934,0.0,0.0
2352,587.75,25.0191,26.4725,155.443,98.3078,97.4716,-0.00332294,0.0600403,20.9911,58.8217,0.0764106,0.0,0.0
2364,590.75,24.789,26.1658,158.923,97.8606,97.2074,-0.00305277,0.060001,20.9907,58.8117,0.0599122,0.0,0.0
2376,593.75,25.0338,26.3771,156.878,97.4349,97.603,-0.00284789,0.0596797,20.992,58.8217,-0.0154228,0.0,0.0
2388,596.75,25.0692,26.3854,152.958,97.1254,97.3322,-0.0027776,0.0595647,20.9924,58.8217,-0.0190245,0.0,0.0
2400,599.75,24.94,26.3303,150.601,96.9822,96.7303,-0.00278978,0.0595454,20.9917,58.8117,0.0232603,0.0,0.0
2412,602.75,25.0672,26.1827,153.625,97.0384,96.6963,-0.00302589,0.059567,20.9919,58.8117,0.0315865,0.0,0.0
2424,605.75,24.9111,26.2697,156.24,97.2516,97.0892,-0.00337811,0.0595525,20.9923,58.8016,0.014955,0.0,0.0
2436,608.75,24.6819,26.5114,149.323,97.5508,96.5584,-0.00352503,0.0594736,20.9925,58.7916,0.0914697,0.0,0.0
2448,611.75,24.4973,26.0224,154.993,97.8492,97.4929,-0.00352305,0.0592886,20.9923,58.8016,0.0326299,0.0,0.0
2460,614.75,25.0365,25.8998,153.392,98.0866,97.6501,-0.00327922,0.0592644,20.9934,58.8217,0.0398943,0.0,0.0
2472,617.75,24.9146,25.9639,155.217,98.2397,97.8642,-0.00305458,0.0591276,20.9937,58.8217,0.034266,0.0,0.0
2484,620.75,24.8143,25.8652,156.893,98.3027,98.5962,-0.0029276,0.0590472,20.9938,58.8117,-0.0266733,0.0,0.0
2496,623.75,24.6442,25.8688,157.741,98.2556,98.2211,-0.00295969,0.0591623,20.993,58.8117,0.00313883,0.0,0.0
2508,626.75,25.0481,26.6252,157.126,98.1555,97.7649,-0.0029489,0.0607301,20.9904,58.8016,0.0356681,0.0,0.0
2520,629.75,24.612,26.1897,155.578,98.0593,97.7448,-0.00301279,0.0622734,20.9883,58.7816,0.0287382,0.0,0.0
2532,632.75,24.8415,26.0612,156.97,97.9382,97.7579,-0.00301574,0.0631754,20.9878,58.7916,0.0164826,0.0,0.0
2544,635.75,25.0157,25.8249,152.538,97.8713,97.4948,-0.00296689,0.0629221,20.9894,58.8117,0.0344795,0.0,0.0
2556,638.75,24.8947,26.6199,157.903,97.8409,97.1672,-0.00297761,0.0623864,20.9914,58.7816,0.0618017,0.0,0.0
2568,641.75,24.5107,26.3043,154.63,98.1883,97.9951,-0.00300009,0.0618224,20.9919,58.7816,0.0176182,0.0,0.0
2580,644.75,24.6626,26.0653,151.644,98.4162,98.432,-0.00309846,0.0613259,20.9921,58.7716,-0.00143545,0.0,0.0
2592,647.75,25.4109,26.4355,156.9,98.5725,98.466,-0.00315544,0.0610669,20.9921,58.7616,0.00967099,0.0,0.0
2604,650.75,24.1203,26.2691,157.616,98.6675,98.6036,-0.00315312,0.0609935,20.9922,58.7716,0.00579916,0.0,0.0
2616,653.75,25.0118,26.3125,155.309,98.6837,98.9876,-0.00322094,0.0608892,20.9922,58.7916,-0.027498,0.0,0.0
2628,656.75,25.1485,26.5625,155.812,98.6659,99.0382,-0.00335796,0.0606277,20.9922,58.7916,-0.0336838,0.0,0.0
2640,659.75,24.9847,26.049,154.482,98.6165,98.2706,-0.00332673,0.0605109,20.9907,58.8016,0.0314324,0.0,0.0
2652,662.75,24.6327,26.2194,159.736,98.5025,98.794,-0.00317035,0.060657,20.9901,58.8016,-0.0264343,0.0,0.0
2664,665.75,24.5545,26.2877,154.814,98.3743,98.5622,-0.0028906,0.0606665,20.99,58.7816,-0.0170728,0.0,0.0
2676,668.75,25.3149,26.1194,152.974,98.2116,98.0469,-0.00276115,0.0608159,20.9899,58.7816,0.01502,0.0,0.0
2688,671.75,24.8544,26.4454,156.026,98.1412,97.9449,-0.00273026,0.0609551,20.9885,58.7716,0.017913,0.0,0.0
2700,674.75,24.6947,26.2421,151.22,98.1812,98.1945,-0.00285528,0.06092,20.9885,58.7816,-0.00120881,0.0,0.0
2712,677.75,24.8738,26.4707,159.724,98.2306,97.9047,-0.00297684,0.060889,20.9885,58.7716,0.029731,0.0,0.0
2724,680.75,24.8802,26.5766,152.787,98.2726,98.5846,-0.00300754,0.0610532,20.9894,58.7916,-0.028358,0.0,0.0
2736,683.75,25.0049,26.3844,156.084,98.3224,98.5657,-0.00302115,0.0611251,20.9901,58.7816,-0.0221032,0.0,0.0
2748,686.75,24.78,26.3076,149.761,98.3775,98.6797,-0.00305488,0.0609642,20.9886,58.7616,-0.027437,0.0,0.0
2760,689.75,24.6789,25.855,153.587,98.4269,98.0291,-0.00304099,0.0609085,20.9898,58.7716,0.0362278,0.0,0.0
2772,692.75,25.0061,26.1246,154.875,98.4566,98.1477,-0.00298761,0.0610045,20.9894,58.7516,0.028109,0.0,0.0
2784,695.75,24.846,26.6631,153.501,98.4669,98.381,-0.00297247,0.0610906,20.989,58.7716,0.0078024,0.0,0.0
2796,698.75,24.9476,26.2547,156.809,98.4859,98.7164,-0.00305153,0.0611373,20.9887,58.7716,-0.0209103,0.0,0.0
2808,701.75,24.8255,26.5641,151.496,98.5033,98.1404,-0.00317551,0.0615207,20.9872,58.7716,0.0330198,0.0,0.0
2820,704.75,24.3838,26.2634,151.593,98.5195,98.0419,-0.0032155,0.0616467,20.9874,58.7516,0.0434755,0.0,0.0
2832,707.75,24.9144,26.2834,153.7,98.5346,98.6082,-0.00319186,0.0616648,20.9874,58.7616,-0.00668275,0.0,0.0
2844,710.75,24.8657,26.5379,151.548,98.5536,97.9797,-0.0030281,0.0618145,20.9874,58.7516,0.0522431,0.0,0.0
2856,713.75,24.819,26.8652,156.236,98.55,99.0675,-0.00298716,0.0617794,20.9874,58.7616,-0.0468539,0.0,0.0
2868,716.75,24.5752,25.7439,150.766,98.5444,98.9617,-0.00311495,0.0617192,20.9874,58.7516,-0.0377939,0.0,0.0
2880,719.75,24.7622,26.5642,155.598,98.5357,98.7689,-0.00321375,0.0617938,20.9874,58.7616,-0.0211422,0.0,0.0
2892,722.75,24.2671,26.0167,155.363,98.5247,98.1373,-0.00323562,0.0617391,20.9874,58.7516,0.0352411,0.0,0.0
2904,725.75,24.7386,26.2542,153.972,98.4974,98.755,-0.00322997,0.061945,20.9875,58.7516,-0.0233685,0.0,0.0
2916,728.75,24.2584,26.1594,154.487,98.4867,97.9387,-0.0031239,0.0620481,20.9888,58.7516,0.0499094,0.0,0.0
2928,731.75,24.3711,26.3458,158.877,98.4606,99.0633,-0.00293591,0.0620117,20.9893,58.7616,-0.0545915,0.0,0.0
2940,734.75,24.926,26.2874,156.688,98.4222,98.4548,-0.00284064,0.0618441,20.9895,58.7516,-0.00296713,0.0,0.0
2952,737.75,24.8966,26.424,153.27,98.402,98.8813,-0.00285213,0.0617346,20.9895,58.7616,-0.0434677,0.0,0.0
2964,740.75,24.5728,26.2454,159.334,98.3877,98.0998,-0.00310551,0.061949,20.9895,58.7516,0.0262176,0.0,0.0
2976,743.75,25.1225,26.0673,156.02,98.3577,98.5603,-0.00335106,0.0622434,20.9895,58.7216,-0.018409,0.0,0.0
2988,746.75,25.0884,26.2038,154.899,98.3482,98.0774,-0.00328204,0.0623648,20.988,58.7416,0.024663,0.0,0.0
3000,749.75,24.962,26.3083,156.082,98.3201,98.2145,-0.00325448,0.0625741,20.9869,58.7516,0.00960707,0.0,0.0
3012,752.75,24.7466,26.0434,157.042,98.307,98.3459,-0.00309236,0.0626259,20.9862,58.7416,-0.00353624,0.0,0.0
3024,755.75,24.8018,26.2957,155.872,98.2872,98.923,-0.00297186,0.0628242,20.9861,58.7416,-0.0576804,0.0,0.0
3036,758.75,24.8821,26.3959,155.437,98.256,98.1516,-0.00283122,0.0628595,20.986,58.7516,0.00951014,0.0,0.0
3048,761.75,24.5477,25.8548,154.197,98.2409,98.4776,-0.0028025,0.063067,20.986,58.7516,-0.0215249,0.0,0.0
3060,764.75,24.4016,26.7291,155.863,98.218,99.0884,-0.00296817,0.0631179,20.986,58.7416,-0.0789246,0.0,0.0
3072,767.75,24.9056,26.2911,156.416,98.1966,98.1311,-0.00302601,0.0628377,20.9863,58.7616,0.00596966,0.0,0.0
3084,770.75,24.6242,26.1685,151.005,98.1851,98.6074,-0.00291615,0.0630074,20.9867,58.7516,-0.038391,0.0,0.0
3096,773.75,24.5749,26.1903,154.394,98.1618,98.748,-0.00301039,0.0630503,20.9867,58.7516,-0.053265,0.0,0.0
3108,776.75,24.8206,26.0585,159.847,98.1479,98.8987,-0.00312458,0.0630637,20.9867,58.7216,-0.0681653,0.0,0.0
3120,779.75,24.6038,26.4453,158.413,98.1907,98.3501,-0.00298715,0.0632673,20.9861,58.7416,-0.0145154,0.0,0.0
3132,782.75,24.8411,26.741,154.405,98.2508,99.0644,-0.00298109,0.0632672,20.9859,58.7416,-0.0737713,0.0,0.0
3144,785.75,25.3213,26.284,159.132,98.3312,99.3124,-0.00313814,0.0631889,20.9856,58.7416,-0.088827,0.0,0.0
3156,788.75,24.6914,25.771,154.418,98.385,98.9308,-0.00321028,0.0635306,20.9841,58.7216,-0.0494881,0.0,0.0
3168,791.75,24.6526,25.7609,156.043,98.4515,99.2,-0.00326281,0.0636193,20.9837,58.7216,-0.0677592,0.0,0.0
3180,794.75,24.6836,25.8805,155.082,98.5065,99.0455,-0.00320663,0.0636542,20.9835,58.7116,-0.0488174,0.0,0.0
3192,797.75,23.9817,25.6487,156.042,98.546,99.3407,-0.00305085,0.0635428,20.9847,58.7216,-0.0718415,0.0,0.0
3204,800.75,24.5216,26.2124,155.018,98.5903,99.1714,-0.00285234,0.0636137,20.9854,58.7416,-0.0525699,0.0,0.0
3216,803.75,24.8116,25.9544,154.545,98.6161,99.2812,-0.00293371,0.063486,20.9856,58.7316,-0.0601267,0.0,0.0
3228,806.75,24.505,26.2411,152.073,98.6438,98.9269,-0.00309516,0.0631467,20.9856,58.7216,-0.0256386,0.0,0.0
3240,809.75,24.3974,26.4534,155.063,98.664,99.5311,-0.003173,0.063008,20.9856,58.7316,-0.0782764,0.0,0.0
3252,812.75,24.8419,26.0344,153.426,98.6758,98.9424,-0.00313533,0.0630471,20.9856,58.7316,-0.0241298,0.0,0.0
3264,815.75,25.1227,26.1475,158.077,98.6786,99.2375,-0.00276489,0.0632619,20.9856,58.7416,-0.0505224,0.0,0.0
3276,818.75,24.6354,26.1511,153.369,98.6841,99.4202,-0.00263043,0.063273,20.9846,58.7116,-0.0664769,0.0,0.0
3288,821.75,24.9567,25.781,153.555,98.6794,98.5224,-0.00283984,0.0634981,20.9817,58.7216,0.0142396,0.0,0.0
3300,824.75,24.6479,26.245,157.531,98.6695,99.132,-0.00295973,0.0640244,20.9796,58.7116,-0.0418364,0.0,0.0
3312,827.75,25.2746,26.3188,159.858,98.6537,99.4484,-0.00302444,0.0642504,20.98,58.7216,-0.0717765,0.0,0.0
3324,830.75,24.3246,26.0293,154.159,98.6291,99.5319,-0.0031191,0.0640988,20.9806,58.7216,-0.0815037,0.0,0.0
3336,833.75,24.1438,25.711,158.046,98.6026,99.3383,-0.00307744,0.0639358,20.9827,58.7116,-0.0664973,0.0,0.0
3348,836.75,24.5923,26.5031,157.708,98.5571,99.7822,-0.0028707,0.0638013,20.9833,58.7316,-0.110509,0.0,0.0
3360,839.75,24.7185,26.2642,156.699,98.5096,99.6729,-0.00274612,0.0638388,20.9831,58.7116,-0.105013,0.0,0.0
3372,842.75,24.6037,25.8448,153.329,98.455,99.4025,-0.00295334,0.0639039,20.9814,58.7116,-0.0856703,0.0,0.0
3384,845.75,25.035,25.8471,152.815,98.3917,98.7052,-0.00312034,0.0641554,20.9803,58.7216,-0.0284532,0.0,0.0
3396,848.75,24.9382,25.9918,158.442,98.3205,98.2539,-0.00305526,0.064331,20.9793,58.7016,0.00605492,0.0,0.0
3408,851.75,24.2862,25.8506,154.45,98.2164,99.1,-0.00301675,0.0644288,20.9781,58.7016,-0.0801145,0.0,0.0
3420,854.75,24.8165,26.5174,153.611,98.0854,98.9115,-0.00299905,0.0644722,20.9777,58.7016,-0.0750186,0.0,0.0
3432,857.75,24.6962,26.3354,151.038,97.9663,98.0048,-0.00302684,0.0645204,20.9776,58.7016,-0.00351117,0.0,0.0
3444,860.75,24.4975,26.2019,156.947,97.8369,98.6368,-0.00302426,0.064676,20.9776,58.6915,-0.0728359,0.0,0.0
3456,863.75,24.3625,25.8196,154.277,97.8512,98.3115,-0.00306679,0.0648191,20.9764,58.6915,-0.0419853,0.0,0.0
3468,866.75,24.7703,26.1213,157.509,97.8642,98.4591,-0.00302429,0.0652515,20.9758,58.7016,-0.0542096,0.0,0.0
3480,869.75,24.7728,26.4768,156.046,97.8816,98.7249,-0.00304105,0.0655385,20.9759,58.6915,-0.0767329,0.0,0.0
3492,872.75,24.8813,26.11,155.417,97.9113,98.7851,-0.00323791,0.0658477,20.9759,58.6915,-0.0794797,0.0,0.0
3504,875.75,24.5374,26.3036,150.999,97.9287,98.6171,-0.00338198,0.0660656,20.9759,58.6915,-0.0626595,0.0,0.0
3516,878.75,24.7592,26.1751,156.627,97.9509,98.6348,-0.00317352,0.0659419,20.9759,58.7016,-0.0622467,0.0,0.0
3528,881.75,24.8076,26.5507,153.181,97.996,98.8794,-0.00303925,0.0658287,20.9759,58.7016,-0.080278,0.0,0.0
3540,884.75,24.4973,25.9558,152.86,98.028,98.8929,-0.00310598,0.0658444,20.9767,58.7016,-0.0785755,0.0,0.0
3552,887.75,24.9637,25.9418,157.951,98.0561,99.0837,-0.00313908,0.0659037,20.9761,58.6715,-0.0932579,0.0,0.0
3564,890.75,24.6365,26.0721,152.241,98.0945,99.4179,-0.00323387,0.066163,20.9768,58.6815,-0.119875,0.0,0.0
3576,893.75,24.3776,26.328,157.545,98.1246,99.0478,-0.00321299,0.0664478,20.9773,58.6815,-0.0837708,0.0,0.0
3588,896.75,24.2022,26.4161,151.686,98.1487,99.1375,-0.00310593,0.0664014,20.9775,58.7016,-0.0896612,0.0,0.0
3600,899.75,24.7205,26.0187,156.246,98.1978,99.144,-0.00289924,0.0661025,20.9791,58.7016,-0.0857828,0.0,0.0
3612,902.75,25.0236,25.9519,155.396,98.2409,99.5319,-0.00273056,0.0658085,20.9796,58.6915,-0.116781,0.0,0.0
3624,905.75,24.6269,26.4803,155.83,98.269,99.3453,-0.00283407,0.065826,20.9802,58.6715,-0.0974381,0.0,0.0
3636,908.75,24.7735,25.7578,153.2,98.2892,99.438,-0.00300096,0.0656852,20.9805,58.6915,-0.103946,0.0,0.0
3648,911.75,24.7223,26.0341,154.037,98.2951,99.8112,-0.00296258,0.0653825,20.9806,58.6815,-0.136914,0.0,0.0
3660,914.75,24.5604,25.9584,158.951,98.2924,99.1112,-0.00295642,0.0651994,20.981,58.6915,-0.0742083,0.0,0.0
3672,917.75,24.5681,25.6538,156.266,98.2643,99.839,-0.00296199,0.0648305,20.9825,58.6815,-0.142215,0.0,0.0
3684,920.75,24.8903,26.2351,156.085,98.233,99.1282,-0.00316367,0.0645558,20.9831,58.6415,-0.0811459,0.0,0.0
3696,923.75,24.4987,26.1421,156.279,98.1784,99.2661,-0.00331597,0.0644572,20.9833,58.6815,-0.0985566,0.0,0.0
3708,926.75,24.8561,26.0727,153.534,98.1009,98.6866,-0.00323194,0.0643975,20.9829,58.6915,-0.0532537,0.0,0.0
3720,929.75,24.9813,25.9382,153.766,98.0284,99.7756,-0.00303694,0.0643447,20.9814,58.6915,-0.158033,0.0,0.0
3732,932.75,24.8414,25.9267,149.984,97.9153,99.0895,-0.00302221,0.0642624,20.9806,58.6615,-0.106642,0.0,0.0
3744,935.75,23.8952,25.8698,152.363,97.7962,99.0969,-0.00319458,0.0643384,20.9806,58.6815,-0.118193,0.0,0.0
3756,938.75,24.2245,25.9956,153.511,97.7016,98.8601,-0.00331206,0.064354,20.9819,58.6915,-0.105445,0.0,0.0
3768,941.75,24.4865,25.619,152.054,97.5836,98.415,-0.00343412,0.0643364,20.9822,58.6715,-0.0758897,0.0,0.0
3780,944.75,24.7754,26.1957,156.604,97.4503,98.6484,-0.00333036,0.0641604,20.9823,58.6615,-0.109306,0.0,0.0
3792,947.75,24.7666,25.9802,157.064,97.315,98.3424,-0.00308732,0.0641078,20.9827,58.6615,-0.0939491,0.0,0.0
3804,950.75,24.2564,26.2537,158.927,97.1962,98.1763,-0.00296897,0.064004,20.9831,58.6715,-0.0897458,0.0,0.0
3816,953.75,24.839,25.9696,155.855,97.0985,98.0164,-0.00280436,0.064063,20.9843,58.6815,-0.0841616,0.0,0.0
3828,956.75,24.8245,26.7228,155.664,97.0344,97.9059,-0.00283313,0.0640132,20.984,58.6815,-0.0799795,0.0,0.0
3840,959.75,24.8677,26.2607,157.029,96.9814,97.9905,-0.00307378,0.0644642,20.9815,58.6615,-0.0925957,0.0,0.0
3852,962.75,24.713,25.8287,151.505,96.9719,98.191,-0.00327667,0.0664119,20.9753,58.6715,-0.111756,0.0,0.0
3864,965.75,24.4885,26.0495,155.245,96.9909,97.2271,-0.00333808,0.0694331,20.9692,58.6715,-0.0217622,0.0,0.0
3876,968.75,25.0029,25.4392,157.265,97.0613,98.2327,-0.00319691,0.0710031,20.9677,58.6715,-0.107311,0.0,0.0
3888,971.75,24.9181,27.0047,152.5,97.1717,98.3876,-0.00303872,0.0709162,20.9696,58.6815,-0.111236,0.0,0.0
3900,974.75,24.9596,25.797,151.949,97.3154,98.8071,-0.00295449,0.070046,20.9721,58.6915,-0.136086,0.0,0.0
3912,977.75,24.9444,26.1187,159.16,97.5017,98.5761,-0.0030356,0.0689192,20.9744,58.6615,-0.098031,0.0,0.0
3924,980.75,24.9342,26.4508,154.056,97.7075,98.9528,-0.00304583,0.0681672,20.976,58.6715,-0.113288,0.0,0.0
3936,983.75,24.7931,26.3521,155.78,97.9125,99.0849,-0.0028473,0.0676422,20.975,58.6615,-0.106476,0.0,0.0
3948,986.75,24.9373,25.9381,157.449,98.1171,99.3167,-0.00279407,0.0672275,20.9759,58.6615,-0.108706,0.0,0.0
3960,989.75,24.8603,26.4403,160.229,98.3193,99.7699,-0.00313269,0.066713,20.976,58.6215,-0.131013,0.0,0.0
3972,992.75,24.5747,26.4448,154.911,98.5049,99.9282,-0.00333595,0.0666437,20.9758,58.6515,-0.128332,0.0,0.0
3984,995.75,25.3885,26.1174,157.547,98.6505,99.5439,-0.00329161,0.0665238,20.9757,58.6415,-0.0806423,0.0,0.0
3996,998.75,24.9281,26.2985,153.256,98.7692,100.066,-0.00330255,0.0662962,20.977,58.6415,-0.116663,0.0,0.0
4008,1001.75,25.0177,26.397,158.705,98.8733,99.9843,-0.00321309,0.0661334,20.9768,58.6415,-0.0999519,0.0,0.0
4020,1004.75,24.8779,26.5786,156.573,98.9239,99.6907,-0.00293792,0.0661718,20.9768,58.6415,-0.0690642,0.0,0.0
4032,1007.75,24.556,26.7533,157.58,98.956,100.51,-0.00284071,0.0660248,20.9771,58.6215,-0.139355,0.0,0.0
4044,1010.75,24.3606,25.8036,154.396,98.9417,100.082,-0.00300671,0.0658344,20.9767,58.6315,-0.102466,0.0,0.0
4056,1013.75,24.9008,26.4778,155.745,98.9065,99.9468,-0.00315133,0.0660575,20.9749,58.6315,-0.0935924,0.0,0.0
4068,1016.75,24.7736,26.1878,155.08,98.8373,100.13,-0.00319605,0.0660072,20.9745,58.6115,-0.116197,0.0,0.0
4080,1019.75,24.8333,27.0677,155.902,98.734,99.6026,-0.00308919,0.0660593,20.9758,58.6115,-0.0783501,0.0,0.0
4092,1022.75,25.293,26.7278,157.622,98.6355,99.8564,-0.0029467,0.0660271,20.9762,58.6215,-0.110047,0.0,0.0
4104,1025.75,24.6587,26.3395,155.126,98.5045,99.7973,-0.00295358,0.0659298,20.9763,58.6215,-0.116638,0.0,0.0
4116,1028.75,24.9925,26.6342,158.354,98.3877,100.072,-0.00296185,0.065998,20.9769,58.6415,-0.151832,0.0,0.0
4128,1031.75,25.6058,26.0796,155.027,98.2825,99.5794,-0.00296882,0.0659823,20.9778,58.6315,-0.117268,0.0,0.0
4140,1034.75,25.0167,27.1016,155.243,98.2025,99.8282,-0.00295524,0.0657499,20.9792,58.6415,-0.146869,0.0,0.0
4152,1037.75,25.0382,26.2622,152.345,98.142,99.6246,-0.00303815,0.0655375,20.9802,58.6315,-0.134123,0.0,0.0
4164,1040.75,24.834,26.4593,158.092,98.3375,100.339,-0.00330381,0.0652028,20.9808,58.6215,-0.180232,0.0,0.0
4176,1043.75,24.8821,26.3791,157.239,98.491,100.045,-0.00338448,0.0650646,20.9803,58.6415,-0.139993,0.0,0.0
4188,1046.75,25.5249,26.1722,153.907,98.6117,100.736,-0.00312257,0.0648858,20.9802,58.6215,-0.190621,0.0,0.0
4200,1049.75,25.0495,26.1452,156.268,98.6833,99.7644,-0.00307989,0.0646775,20.9801,58.6115,-0.0974656,0.0,0.0
4212,1052.75,24.9538,26.9182,152.725,98.6988,100.602,-0.00315627,0.0645309,20.9813,58.6115,-0.17085,0.0,0.0
4224,1055.75,25.0153,26.4595,154.34,98.6956,100.196,-0.0030147,0.0643858,20.982,58.6215,-0.134996,0.0,0.0
4236,1058.75,24.9728,26.6356,150.505,98.6485,99.4531,-0.00299417,0.0644281,20.9822,58.6115,-0.0726596,0.0,0.0
4248,1061.75,24.7027,26.5122,153.434,98.5729,100.689,-0.00285175,0.0644134,20.9822,58.6215,-0.189954,0.0,0.0
4260,1064.75,24.6378,26.1949,157.532,98.4495,100.292,-0.00270063,0.06445,20.983,58.6315,-0.165847,0.0,0.0
4272,1067.75,24.8403,26.6331,155.481,98.2766,100.051,-0.00276004,0.064144,20.9833,58.6215,-0.160116,0.0,0.0
4284,1070.75,25.1504,26.3742,150.497,98.0565,99.5435,-0.00295458,0.0647899,20.9815,58.6415,-0.134629,0.0,0.0
4296,1073.75,25.063,26.6667,151.996,97.8741,99.7722,-0.00304181,0.067353,20.9778,58.6415,-0.171815,0.0,0.0
4308,1076.75,25.3465,26.8549,149.73,97.9014,98.6642,-0.00286693,0.0704342,20.9714,58.6215,-0.0694269,0.0,0.0
4320,1079.75,25.158,26.4451,154.149,97.9481,100.042,-0.00282512,0.072414,20.9693,58.6415,-0.189233,0.0,0.0
4332,1082.75,24.5941,26.2877,152.02,97.992,99.5315,-0.00296819,0.0727355,20.9687,58.6215,-0.13944,0.0,0.0
4344,1085.75,25.0437,26.6808,154.139,98.0407,99.6702,-0.00299432,0.0722703,20.9699,58.6215,-0.147453,0.0,0.0
4356,1088.75,24.7276,26.4919,153.81,98.1064,99.5898,-0.00304363,0.0716092,20.9705,58.6315,-0.134247,0.0,0.0
4368,1091.75,25.1572,26.6117,156.129,98.1566,100.128,-0.00323084,0.0710248,20.9712,58.6015,-0.177907,0.0,0.0
4380,1094.75,24.5079,26.357,152.289,98.2255,99.7127,-0.00326088,0.0705111,20.9728,58.6115,-0.134421,0.0,0.0
4392,1097.75,24.7288,26.3166,154.171,98.2667,99.6408,-0.00316814,0.0698422,20.9731,58.6115,-0.124225,0.0,0.0
4404,1100.75,24.7002,26.6334,155.753,98.2876,100.347,-0.0031026,0.0693163,20.9732,58.6115,-0.185457,0.0,0.0
4416,1103.75,24.6776,26.6041,153.87,98.2568,99.5334,-0.00311859,0.0696924,20.972,58.6015,-0.11548,0.0,0.0
4428,1106.75,25.214,26.2733,155.901,98.218,99.4538,-0.0029512,0.0699929,20.9706,58.6215,-0.111856,0.0,0.0
4440,1109.75,25.0374,26.7514,156.769,98.1222,100.006,-0.00275393,0.0700735,20.9702,58.6315,-0.170133,0.0,0.0
4452,1112.75,24.8452,26.5595,154.679,98.0213,100.183,-0.00276323,0.0701963,20.9701,58.6115,-0.195114,0.0,0.0
4464,1115.75,24.6401,26.5839,150.349,97.9066,99.3862,-0.00275662,0.0704963,20.9701,58.6215,-0.134182,0.0,0.0
4476,1118.75,24.9768,26.3094,158.397,97.7546,99.6903,-0.00280983,0.0704311,20.97,58.6115,-0.175398,0.0,0.0
4488,1121.75,24.9386,26.9934,157.514,97.6086,99.146,-0.002923,0.0701705,20.9693,58.6315,-0.139794,0.0,0.0
4500,1124.75,25.024,26.8028,157.101,97.4843,99.703,-0.00311536,0.0694609,20.9709,58.6215,-0.201309,0.0,0.0
4512,1127.75,24.6403,26.456,156.159,97.3458,98.991,-0.00315995,0.0693519,20.9715,58.6115,-0.149919,0.0,0.0
4524,1130.75,25.0931,26.5974,151.376,97.2295,99.0737,-0.00297975,0.0692651,20.9716,58.6115,-0.168084,0.0,0.0
4536,1133.75,24.9432,26.7086,154.408,97.1191,99.1069,-0.0028778,0.0689312,20.9717,58.5815,-0.181246,0.0,0.0
4548,1136.75,24.5125,26.6058,158.498,97.0395,98.6422,-0.00287707,0.0687843,20.9698,58.5915,-0.146529,0.0,0.0
4560,1139.75,24.7742,25.9347,152.669,96.9873,98.918,-0.00287307,0.0685332,20.9689,58.6115,-0.176324,0.0,0.0
4572,1142.75,24.8651,26.5944,150.509,96.9553,98.3617,-0.00287586,0.0685146,20.9691,58.5915,-0.128832,0.0,0.0
4584,1145.75,24.814,26.5329,154.551,96.9624,98.7786,-0.00291313,0.0689537,20.9691,58.5815,-0.166003,0.0,0.0
4596,1148.75,25.3444,26.2603,151.422,96.9822,98.0291,-0.00314531,0.0696068,20.967,58.5815,-0.0960491,0.0,0.0
4608,1151.75,25.1054,26.578,154.748,97.0332,98.709,-0.00306489,0.0698895,20.9672,58.5815,-0.153172,0.0,0.0
4620,1154.75,24.765,26.4055,154.579,97.11,98.8574,-0.00297325,0.069761,20.968,58.5915,-0.159531,0.0,0.0
4632,1157.75,24.4932,26.8459,156.938,97.1931,98.6916,-0.00305903,0.0696823,20.9682,58.5815,-0.13687,0.0,0.0
4644,1160.75,24.8371,26.6614,151.345,97.2904,98.9509,-0.00292275,0.0696039,20.9682,58.5815,-0.15138,0.0,0.0
4656,1163.75,25.1081,26.6184,153.837,97.4091,98.8535,-0.0027604,0.0699692,20.9683,58.5815,-0.131666,0.0,0.0
4668,1166.75,25.0326,26.3184,159.069,97.5516,99.2812,-0.00274923,0.0702345,20.9683,58.5714,-0.157209,0.0,0.0
4680,1169.75,24.9409,26.6249,159.509,97.6937,99.8328,-0.00285255,0.0712273,20.9667,58.5614,-0.193759,0.0,0.0
4692,1172.75,25.2668,26.6276,154.662,97.8401,99.4098,-0.00298008,0.0717593,20.9661,58.5614,-0.142379,0.0,0.0
4704,1175.75,24.994,26.4004,151.278,97.9956,99.3016,-0.00301106,0.0715965,20.966,58.5714,-0.118432,0.0,0.0
4716,1178.75,25.0746,26.6799,154.517,98.1365,100.068,-0.00296786,0.0711458,20.9674,58.5714,-0.174395,0.0,0.0
4728,1181.75,25.1562,26.5835,151.823,98.286,100.169,-0.00292757,0.0705356,20.9709,58.5915,-0.169746,0.0,0.0
4740,1184.75,24.7385,26.8133,155.504,98.4412,100.249,-0.00296466,0.0698181,20.9739,58.5915,-0.162778,0.0,0.0
4752,1187.75,25.3021,26.6614,149.738,98.5876,100.05,-0.00300999,0.068925,20.9752,58.5815,-0.131712,0.0,0.0
4764,1190.75,24.8796,26.2817,152.177,98.7023,100.1,-0.00292631,0.0684307,20.9747,58.5815,-0.125794,0.0,0.0
4776,1193.75,25.0718,26.0151,155.83,98.8112,100.809,-0.00286035,0.0681901,20.9728,58.5815,-0.179064,0.0,0.0
4788,1196.75,24.5617,26.8268,154.045,98.901,100.897,-0.00286964,0.0681165,20.9723,58.5915,-0.178713,0.0,0.0
4800,1199.75,24.9556,26.5084,155.4,98.9342,100.4,-0.0028949,0.0678871,20.9722,58.5815,-0.131553,0.0,0.0
4812,1202.75,24.9432,26.5427,152.549,98.9659,100.911,-0.00295546,0.067568,20.9712,58.5915,-0.174079,0.0,0.0
4824,1205.75,24.2075,26.0851,157.116,98.9287,101.081,-0.00295067,0.0677628,20.9706,58.5815,-0.192531,0.0,0.0
4836,1208.75,24.748,26.5363,155.553,98.8824,100.524,-0.00289832,0.0683717,20.969,58.5714,-0.147283,0.0,0.0
4848,1211.75,24.363,26.287,154.969,98.7922,100.808,-0.00281918,0.0683636,20.9702,58.5714,-0.180714,0.0,0.0
4860,1214.75,24.9463,26.5021,157.209,98.6727,100.612,-0.00293339,0.0679946,20.9719,58.5714,-0.174111,0.0,0.0
4872,1217.75,24.9718,26.6135,151.31,98.5745,100.237,-0.00315998,0.0677041,20.9736,58.5714,-0.149632,0.0,0.0
4884,1220.75,25.2332,26.6906,158.094,98.4542,100.878,-0.0031736,0.0676022,20.973,58.5915,-0.217569,0.0,0.0
4896,1223.75,24.8964,26.802,152.168,98.3296,100.254,-0.00308501,0.0678429,20.9714,58.6015,-0.173405,0.0,0.0
4908,1226.75,24.7732,26.8118,156.7,98.2302,100.638,-0.00316622,0.0690244,20.9685,58.5815,-0.216644,0.0,0.0
4920,1229.75,24.8681,25.9791,157.176,98.1634,100.018,-0.0031459,0.0701523,20.9679,58.5714,-0.167418,0.0,0.0
4932,1232.75,24.527,26.03,158.102,98.3486,100.327,-0.00307064,0.0702692,20.9682,58.5614,-0.178156,0.0,0.0
4944,1235.75,23.8367,26.1657,155.321,98.4677,100.631,-0.00314412,0.0702401,20.9681,58.5514,-0.19443,0.0,0.0
4956,1238.75,23.9689,25.8589,156.229,98.5801,100.774,-0.00325299,0.0704998,20.9681,58.5815,-0.196924,0.0,0.0
4968,1241.75,24.4206,26.0836,153.66,98.6643,100.586,-0.00321056,0.0705454,20.9681,58.6015,-0.172529,0.0,0.0
4980,1244.75,23.9546,25.8286,156.9,98.7205,100.514,-0.00299945,0.0702671,20.9691,58.5815,-0.161077,0.0,0.0
4992,1247.75,23.8598,25.6766,153.191,98.736,100.807,-0.00306481,0.0694752,20.9718,58.5915,-0.185735,0.0,0.0
5004,1250.75,24.3131,25.9732,149.965,98.7387,100.7,-0.00314681,0.068538,20.974,58.6015,-0.175915,0.0,0.0
5016,1253.75,24.9177,26.0402,157.199,98.7221,100.861,-0.00316407,0.0675235,20.9757,58.6115,-0.191754,0.0,0.0
5028,1256.75,24.9195,26.0631,154.801,98.7055,100.712,-0.00315304,0.0667195,20.9769,58.6015,-0.179991,0.0,0.0
5040,1259.75,24.5375,26.3119,157.98,98.6659,101.017,-0.00307065,0.0663895,20.9787,58.6015,-0.210644,0.0,0.0
5052,1262.75,24.2013,26.0909,154.882,98.6311,100.674,-0.00301297,0.0657982,20.9804,58.5815,-0.183371,0.0,0.0
5064,1265.75,24.6775,25.9014,154.034,98.6105,101.21,-0.00301752,0.0652153,20.9827,58.5815,-0.232757,0.0,0.0
5076,1268.75,24.4586,25.556,150.667,98.5971,100.59,-0.00297615,0.0646479,20.9842,58.5915,-0.178973,0.0,0.0
5088,1271.75,24.4547,26.1282,153.725,98.6149,101.014,-0.00297223,0.0640401,20.9846,58.5714,-0.215034,0.0,0.0
5100,1274.75,24.5291,25.5751,154.993,98.6082,101.005,-0.00299593,0.0637316,20.9848,58.5614,-0.214789,0.0,0.0
5112,1277.75,24.1903,25.9789,154.72,98.6212,101.14,-0.00302446,0.0634367,20.9848,58.5614,-0.225571,0.0,0.0
5124,1280.75,23.7371,25.5436,157.455,98.6295,100.762,-0.00320324,0.0632206,20.985,58.5614,-0.191373,0.0,0.0
5136,1283.75,24.6429,25.7491,151.82,98.6545,100.479,-0.00339096,0.0630949,20.9852,58.5614,-0.163938,0.0,0.0
5148,1286.75,24.6794,26.2395,156.547,98.6655,100.616,-0.00337183,0.0630789,20.9852,58.5614,-0.1751,0.0,0.0
5160,1289.75,24.4562,26.1312,155.695,98.7035,100.904,-0.00327813,0.0631048,20.9852,58.5714,-0.197242,0.0,0.0
5172,1292.75,24.6641,25.9468,157.231,98.715,100.541,-0.00325362,0.0629126,20.9852,58.5614,-0.163916,0.0,0.0
5184,1295.75,24.496,25.5707,154.62,98.738,101.055,-0.00308164,0.0627251,20.9852,58.5815,-0.207502,0.0,0.0
5196,1298.75,23.8932,26.59,155.054,98.7455,101.581,-0.00299011,0.0628659,20.9846,58.6015,-0.253243,0.0,0.0
5208,1301.75,24.5521,26.649,155.385,98.749,101.228,-0.00308083,0.0631579,20.9834,58.5815,-0.221806,0.0,0.0
5220,1304.75,24.6989,26.0101,156.652,98.7526,100.622,-0.00312745,0.0634163,20.9825,58.5714,-0.167794,0.0,0.0
5232,1307.75,24.7359,26.3487,155.216,98.7233,100.507,-0.00315114,0.063541,20.9804,58.5614,-0.160207,0.0,0.0
5244,1310.75,24.3158,25.8364,153.097,98.6608,100.986,-0.00332529,0.0636084,20.9797,58.5815,-0.208407,0.0,0.0
5256,1313.75,24.6091,26.2643,153.063,98.6121,100.58,-0.00349283,0.0637204,20.9808,58.5915,-0.176715,0.0,0.0
5268,1316.75,24.5926,26.5312,160.028,98.5472,100.435,-0.00334592,0.0634647,20.9814,58.5815,-0.16971,0.0,0.0
5280,1319.75,24.6977,26.1326,152.705,98.4352,100.446,-0.00303086,0.0630843,20.9816,58.5915,-0.18088,0.0,0.0
5292,1322.75,24.3084,26.4646,154.492,98.2785,100.473,-0.00309653,0.0629069,20.9826,58.5915,-0.197574,0.0,0.0
5304,1325.75,24.7183,26.2573,157.468,98.1752,99.9143,-0.00305969,0.0628692,20.9837,58.5714,-0.157071,0.0,0.0
5316,1328.75,24.3147,26.174,154.985,98.2318,100.086,-0.00284043,0.0627735,20.9848,58.5714,-0.167295,0.0,0.0
5328,1331.75,24.8498,26.2257,152.97,98.307,100.318,-0.00284718,0.0626563,20.9851,58.5214,-0.181179,0.0,0.0
5340,1334.75,24.4595,26.1677,150.187,98.404,100.514,-0.0029983,0.0624261,20.9856,58.5514,-0.189808,0.0,0.0
5352,1337.75,24.7396,26.5438,151.602,98.5104,100.184,-0.00312161,0.062147,20.9875,58.5514,-0.150727,0.0,0.0
5364,1340.75,24.4812,26.7577,155.803,98.6252,100.586,,0.0617958,,58.5614,-0.176081,0.0,0.0
5376,1343.75,24.1684,26.2811,156.364,98.7478,100.277,,,,58.5514,-0.137504,0.0,0.0
5388,1346.75,24.2632,26.0267,153.701,98.829,100.277,,,,58.5714,-0.130123,0.0,0.0
5400,1349.75,24.3781,26.3758,157.317,98.8947,100.974,,,,58.5815,-0.186099,0.0,0.0
5406,1351.25,24.8708,26.2301,158.815,98.9239,100.874,,,,58.5815,-0.174583,0.0,0.0