File: 01_Data/PC/Cone/PC_Cone_HF75Scan_220216_R3.csv
Names,Time,Stack TC,Smoke TC,Exh Press,Smoke Comp,Smoke Meas,CO Meter,CO2 Meter,O2 Meter,Sample Mass,Ext Coeff,Start Test,Flame Verif
Chan Gain,,500,500,1,1,1,1,1,1,1,1,1.0,1.0
Offset,,0,0,0.140898,0,0,0,0,0,0,0,0.0,0.0
Gain,,1,1,25.011,12.9668,12.6588,1,1,1,1.00088,1.01977,1.0,1.0
Units,sec,C,C,Pa,%,%,%,%,%,g,/m,,
Baseline,,52.8947,55.3235,149.387,98.0133,97.4744,-0.00323831,0.0644696,20.9647,-873.527,0.0494235,,
7,1.5,49.3942,51.6582,148.359,97.9093,97.926,-0.00258449,0.0722029,20.9575,59.6324,-0.00151917,0.0,0.0
14,3.25,49.7191,51.4888,145.132,97.8907,96.5785,-0.00273553,0.0714916,20.9585,59.4522,0.120725,0.0,0.0
21,5,49.5756,52.1217,147.862,97.8789,96.8416,-0.00296808,0.0704607,20.9609,59.4522,0.0953057,0.0,0.0
28,6.75,49.2549,51.9021,145.232,97.8832,97.5269,-0.00316457,0.0695569,20.9626,59.4822,0.0326225,0.0,0.0
35,8.5,50.0363,52.0984,148.851,97.8816,97.4921,-0.00333726,0.0685305,20.9641,59.4622,0.035667,0.0,0.0
42,10.25,49.9909,51.9201,151.077,97.8559,97.0421,-0.00342418,0.0673257,20.9664,59.4222,0.0747061,0.0,0.0
49,12,49.8148,52.2439,147.727,97.8448,96.8837,-0.00339462,0.0663557,20.9675,59.4122,0.0883068,0.0,0.0
56,13.75,49.4941,52.6066,149.104,97.8448,96.3092,-0.00328536,0.0658666,20.9682,59.3721,0.141505,0.0,0.0
63,15.5,50.5694,52.6515,145.441,97.8444,95.8831,-0.00323571,0.0654423,20.968,59.4122,0.181134,0.0,0.0
70,17.25,49.7231,52.7464,146.237,97.8369,96.4738,-0.00328033,0.0651744,20.9672,59.3721,0.125508,0.0,0.0
77,19,50.201,52.6192,149.729,97.8282,97.1394,-0.0033545,0.064884,20.9668,59.3521,0.0632048,0.0,0.0
84,20.75,50.2038,52.7771,149.923,97.8262,97.7347,-0.00333875,0.0646465,20.9666,59.3621,0.00837027,0.0,0.0
91,22.5,50.5071,53.012,146.885,97.8254,96.4715,-0.003277,0.0644884,20.9666,59.3822,0.124673,0.0,0.0
98,24.25,50.0144,52.6677,151.109,97.8175,96.6847,-0.00319239,0.0644275,20.9665,59.3521,0.104198,0.0,0.0
105,26,50.8142,52.4823,146.953,97.8246,97.0521,-0.00311978,0.0644414,20.9665,59.3621,0.0709227,0.0,0.0
112,27.75,50.159,53.4591,147.043,97.8195,95.8395,-0.003124,0.0646128,20.9659,59.3521,0.182927,0.0,0.0
119,29.5,50.5509,53.0497,147.868,97.8211,96.8775,-0.00319176,0.0648617,20.965,59.3621,0.086706,0.0,0.0
126,31.25,50.027,53.1591,147.331,97.8163,95.3697,-0.00322223,0.0650864,20.9646,59.3721,0.226591,0.0,0.0
133,33,50.3784,53.0239,149.815,97.8136,97.1131,-0.00325939,0.0652176,20.9644,59.3721,0.0642858,0.0,0.0
140,34.75,50.454,53.6961,150.916,97.8306,96.7628,-0.00338129,0.0653341,20.9636,59.3822,0.098175,0.0,0.0
147,36.5,50.7343,53.289,150.042,97.8266,96.1535,-0.00351849,0.0656186,20.9623,59.3822,0.154312,0.0,0.0
154,38.25,50.3173,53.3028,152.257,97.8282,97.7108,-0.00357305,0.0660563,20.9609,59.3321,0.0107436,0.0,0.0
161,40,51.0609,53.1809,149.76,97.8294,96.5704,-0.00354976,0.0664562,20.9602,59.3521,0.11587,0.0,0.0
168,41.75,51.0992,53.5072,146.905,97.827,96.6519,-0.00358058,0.0667875,20.9599,59.3321,0.108105,0.0,0.0
175,43.5,51.2809,54.0815,144.006,97.8306,95.1252,-0.00362364,0.0670835,20.9597,59.3221,0.25086,0.0,0.0
182,45.25,50.9323,54.2414,148.685,97.8369,95.282,-0.00362056,0.0675284,20.9591,59.3121,0.236702,0.0,0.0
189,47,51.3225,53.6889,148.888,97.8424,94.6307,-0.00353582,0.0679001,20.9586,59.3221,0.298567,0.0,0.0
196,48.75,50.4659,53.9164,147.729,97.8527,94.6987,-0.00329916,0.0683526,20.9578,59.3121,0.293083,0.0,0.0
203,50.5,51.1274,54.0967,148.163,97.8504,93.1179,-0.00294527,0.0686948,20.9569,59.262,0.443451,0.0,0.0
210,52.25,51.465,54.2357,146.964,97.8523,92.5492,-0.00233212,0.0753732,20.9426,59.232,0.498428,0.0,1.0
217,54,51.4128,55.0164,139.253,97.8682,78.4942,-0.00139708,0.109791,20.8898,59.1419,1.97331,0.0,1.0
224,55.75,52.0348,55.6854,145.072,97.8591,81.9077,-0.0002545,0.147564,20.8347,59.152,1.59169,0.0,1.0
231,57.5,51.0719,55.2729,140.791,97.8721,73.6587,0.00124484,0.193372,20.7648,59.1019,2.54244,0.0,1.0
238,59.25,52.0571,56.0715,141.365,97.8796,68.975,0.00326708,0.245838,20.6906,58.8217,3.13082,0.0,0.0
245,61,53.0632,57.8175,137.901,97.8891,63.5928,0.00567905,0.306045,20.6116,58.6315,3.85844,0.0,0.0
252,62.75,53.7716,59.6702,129.308,97.9093,54.2084,0.00923056,0.37464,20.499,58.4113,5.28854,0.0,0.0
259,64.5,55.4058,61.2493,129.514,97.9018,51.1298,0.0128876,0.444424,20.379,58.1411,5.81086,0.0,0.0
266,66.25,56.8942,63.1991,129.502,97.924,48.2062,0.0167801,0.529445,20.2696,57.8708,6.3396,0.0,0.0
273,68,58.268,65.5001,125.045,97.9307,44.4612,0.0209595,0.610751,20.1605,57.5606,7.06362,0.0,0.0
280,69.75,60.0918,68.3249,125.798,97.9473,44.7598,0.024208,0.687245,20.0717,57.2303,7.00526,0.0,0.0
287,71.5,61.8062,71.0959,124.529,97.9378,40.8951,0.0269562,0.75186,19.9865,56.9,7.81216,0.0,0.0
294,73.25,63.7189,73.5216,120.888,97.9699,42.2055,0.0287375,0.800115,19.9223,56.5497,7.53295,0.0,0.0
301,75,65.5814,75.8829,126.667,97.9687,40.2863,0.0297168,0.831622,19.8861,56.2294,7.94915,0.0,0.0
308,76.75,66.9012,78.2839,123.956,97.9766,44.2109,0.0301231,0.850409,19.867,55.8791,7.11832,0.0,0.0
315,78.5,68.3634,80.52,126.235,97.9928,44.0718,0.030243,0.860974,19.8573,55.4787,7.14798,0.0,0.0
322,80.25,70.2675,82.3012,124.462,97.9932,42.3898,0.0302704,0.862459,19.8562,55.1685,7.49611,0.0,0.0
329,82,71.1546,83.8846,129.544,98.0019,41.3819,0.030224,0.862987,19.8557,54.8382,7.71217,0.0,0.0
336,83.75,72.5997,85.7014,124.225,98.0185,41.8416,0.0301973,0.862314,19.8573,54.4778,7.61486,0.0,0.0
343,85.5,73.3515,87.2461,126.01,98.0379,46.2997,0.0302636,0.859109,19.8617,54.1876,6.71096,0.0,0.0
350,87.25,74.2057,88.448,129.721,98.0498,40.5096,0.0304994,0.855332,19.8643,53.8473,7.90711,0.0,0.0
357,89,75.9722,90.19,121.891,98.0561,44.1869,0.0310013,0.852095,19.8656,53.477,7.13043,0.0,0.0
364,90.75,76.7342,90.6457,122.005,98.0676,40.7425,0.0316406,0.853001,19.8619,53.1567,7.85745,0.0,0.0
371,92.5,77.9039,91.8923,125.586,98.0929,39.9761,0.0323395,0.856539,19.8569,52.8464,8.02964,0.0,0.0
378,94.25,78.8946,93.68,118.559,98.11,40.7707,0.0331546,0.864619,19.8477,52.4461,7.85512,0.0,0.0
385,96,79.7439,95.0101,119.823,98.1214,40.8179,0.0341037,0.876317,19.8293,52.1358,7.84583,0.0,0.0
392,97.75,81.2534,96.3246,121.758,98.1254,39.686,0.0354659,0.886009,19.8154,51.7655,8.09775,0.0,0.0
399,99.5,81.4074,97.4061,118.982,98.1404,35.6899,0.0367607,0.895499,19.7965,51.3851,9.04849,0.0,0.0
406,101.25,82.3007,99.0145,125.598,98.1709,39.0779,0.0378532,0.910472,19.7725,51.0448,8.24002,0.0,0.0
413,103,83.6849,100.092,120.736,98.1832,38.685,0.0391123,0.932016,19.7364,50.7145,8.33153,0.0,0.0
420,104.75,84.8673,101.391,121.924,98.1935,38.4652,0.0400492,0.955198,19.7115,50.2742,8.38344,0.0,0.0
427,106.5,85.7098,102.542,121.148,98.2073,35.1166,0.0406929,0.967214,19.6967,49.8638,9.19944,0.0,0.0
434,108.25,86.7593,103.569,120.517,98.2235,36.0662,0.0410018,0.972771,19.6885,49.5135,8.96225,0.0,0.0
441,110,87.6457,104.856,120.089,98.2251,39.803,0.041096,0.979487,19.6812,49.0831,8.08049,0.0,0.0
448,111.75,88.292,105.967,124.89,98.2366,38.753,0.041135,0.990756,19.6623,48.7528,8.32069,0.0,0.0
455,113.5,89.3597,107.472,115.507,98.2477,35.8834,0.0411159,1.00186,19.6481,48.3224,9.00988,0.0,0.0
462,115.25,90.1404,108.629,118.257,98.269,39.2282,0.0410972,1.00716,19.6422,47.9321,8.21463,0.0,0.0
469,117,90.9788,109.535,122.04,98.2829,40.9407,0.0411719,1.00284,19.6478,47.6018,7.83365,0.0,0.0
476,118.75,91.6431,110.574,123.577,98.2766,40.2554,0.0416581,0.999168,19.6536,47.1614,7.98408,0.0,0.0
483,120.5,92.4335,111.36,112.463,98.2868,39.1478,0.0424396,1.008,19.6334,46.7711,8.23459,0.0,0.0
490,122.25,93.3499,112.412,116.844,98.2963,36.3949,0.0430727,1.03097,19.612,46.2806,8.88771,0.0,0.0
497,124,94.2319,113.221,119.146,98.311,39.4256,0.0430992,1.03653,19.6043,45.9403,8.17354,0.0,0.0
504,125.75,94.6517,114.168,120.076,98.3217,39.7907,0.0424518,1.02185,19.6263,45.53,8.09206,0.0,0.0
511,127.5,95.5335,114.505,126.072,98.33,43.0597,0.0413866,0.998203,19.6572,45.2097,7.38654,0.0,0.0
518,129.25,95.7791,115.284,124.312,98.3367,38.0789,0.0400981,0.977774,19.6818,44.8294,8.48678,0.0,0.0
525,131,96.1284,115.652,122.755,98.3474,41.0632,0.0385468,0.956525,19.7132,44.5291,7.8128,0.0,0.0
532,132.75,96.0319,115.787,125.827,98.3585,40.6448,0.0371381,0.931823,19.7539,44.1588,7.90542,0.0,0.0
539,134.5,96.235,115.171,120.131,98.3517,42.6591,0.0359919,0.903665,19.7968,43.8585,7.47213,0.0,0.0
546,136.25,96.7946,115.35,122.168,98.3612,42.5099,0.0350459,0.875953,19.8288,43.5482,7.50432,0.0,0.0
553,138,96.8077,115.306,126.246,98.3727,44.4512,0.0344318,0.858169,19.8442,43.2079,7.10592,0.0,0.0
560,139.75,97.1195,115.635,121.439,98.3684,39.5677,0.0339173,0.854051,19.8499,42.9077,8.14656,0.0,0.0
567,141.5,96.814,115.456,120.646,98.3533,40.4431,0.0333398,0.854936,19.8458,42.5474,7.94945,0.0,0.0
574,143.25,96.9765,115.581,117.744,98.3703,41.3294,0.032618,0.857992,19.8428,42.2171,7.75709,0.0,0.0
581,145,97.3295,115.607,124.307,98.3743,43.9841,0.0314687,0.854147,19.8486,41.9168,7.20056,0.0,0.0
588,146.75,96.6431,115.487,123.743,98.3648,46.348,0.0300492,0.837788,19.8792,41.6166,6.73141,0.0,0.0
595,148.5,97.4228,114.911,125.952,98.3862,46.6856,0.0287994,0.813943,19.9145,41.3563,6.66842,0.0,0.0
602,150.25,97.3985,115.042,126.405,98.3711,47.2574,0.0277425,0.793507,19.9393,41.0561,6.55817,0.0,0.0
609,152,97.341,114.557,124.08,98.3688,50.7161,0.026532,0.771056,19.9702,40.8158,5.92611,0.0,0.0
616,153.75,97.3835,112.988,128.706,98.3652,47.624,0.0251901,0.746226,20.0108,40.5156,6.4885,0.0,0.0
623,155.5,96.9097,113.479,124.03,98.3715,52.6295,0.023856,0.72205,20.0441,40.2554,5.59508,0.0,0.0
630,157.25,96.5805,112.681,126.67,98.3509,51.8078,0.022523,0.702279,20.0682,40.0151,5.73397,0.0,0.0
637,159,96.3889,112.629,126.331,98.3434,52.4016,0.0213886,0.687258,20.0863,39.805,5.63135,0.0,0.0
644,160.75,96.1487,112.186,125.002,98.3482,53.5837,0.0203589,0.671105,20.1064,39.5447,5.43222,0.0,0.0
651,162.5,95.9241,111.399,131.145,98.3383,54.0098,0.0194151,0.65278,20.1352,39.3646,5.36047,0.0,0.0
658,164.25,95.6655,110.557,125.647,98.3201,56.4355,0.0183325,0.634857,20.1629,39.1344,4.96582,0.0,0.0
665,166,94.3841,109.907,131.633,98.324,59.3638,0.0172288,0.61327,20.1944,38.9142,4.51367,0.0,0.0
672,167.75,94.4116,109.485,126.24,98.3157,57.4797,0.0161973,0.597497,20.2188,38.754,4.80142,0.0,0.0
679,169.5,94.2118,108.985,131.276,98.2991,58.4938,0.0153646,0.585233,20.2341,38.5338,4.64347,0.0,0.0
686,171.25,93.9756,107.989,129.336,98.2951,59.4183,0.0145825,0.574443,20.2476,38.2636,4.50284,0.0,0.0
693,173,93.6952,107.79,131.21,98.2809,57.7915,0.0139701,0.565609,20.259,38.0734,4.74987,0.0,0.0
700,174.75,93.0996,107.192,131.637,98.2667,58.7897,0.0135376,0.557215,20.2725,37.8933,4.59538,0.0,0.0
707,176.5,93.127,107.049,128.971,98.2576,61.8861,0.0132806,0.550211,20.2808,37.7431,4.13541,0.0,0.0
714,178.25,92.8003,105.99,128.839,98.2524,60.9164,0.0131691,0.54416,20.2896,37.573,4.27621,0.0,0.0
721,180,92.2461,105.278,132.611,98.2338,60.7159,0.0131899,0.539372,20.2955,37.3628,4.304,0.0,0.0
728,181.75,92.2026,105.11,129.834,98.2263,63.3328,0.013267,0.536231,20.2989,37.1726,3.92584,0.0,0.0
735,183.5,91.7481,105.054,129.972,98.2018,62.063,0.0132627,0.531986,20.3033,36.9525,4.10479,0.0,0.0
742,185.25,91.6499,104.217,134.065,98.1891,61.82,0.0130748,0.525624,20.3105,36.7623,4.13872,0.0,0.0
749,187,91.2636,103.911,130.693,98.165,64.1286,0.0127133,0.51933,20.3204,36.6021,3.80855,0.0,0.0
756,188.75,90.9415,103.237,131.156,98.1606,63.2977,0.0123313,0.511915,20.3329,36.462,3.92483,0.0,0.0
763,190.5,90.5885,102.929,133.727,98.1293,62.1036,0.0120558,0.504311,20.3439,36.2819,4.09234,0.0,0.0
770,192.25,90.4376,102.083,133.293,98.1088,63.8196,0.0118051,0.497327,20.3526,36.1217,3.84665,0.0,0.0
777,194,89.9952,101.966,132.455,98.0894,65.8922,0.011657,0.490622,20.3605,35.9215,3.55899,0.0,0.0
784,195.75,89.964,101.007,128.833,98.0633,65.1578,0.0115571,0.48536,20.3669,35.7514,3.65686,0.0,0.0
791,197.5,89.4406,100.849,133.051,98.0348,66.9878,0.0114481,0.483211,20.3706,35.6113,3.40649,0.0,0.0
798,199.25,89.159,100.359,128.836,98.0122,64.0699,0.0112842,0.482252,20.3725,35.4011,3.80282,0.0,0.0
805,201,89.1631,100.189,131.924,97.9932,66.754,0.01117,0.481347,20.3727,35.281,3.43397,0.0,0.0
812,202.75,88.6386,99.6757,132.757,97.9584,65.6121,0.0110867,0.482274,20.3694,35.1108,3.58514,0.0,0.0
819,204.5,88.849,99.6698,129.493,97.9252,65.0299,0.011065,0.483628,20.367,34.9307,3.66183,0.0,0.0
826,206.25,88.6894,99.359,134.288,97.8638,68.1201,0.011122,0.484622,20.3658,34.7705,3.24094,0.0,0.0
833,208,88.5778,98.9916,131.428,97.8314,65.3204,0.0112316,0.485364,20.3647,34.6404,3.61339,0.0,0.0
840,209.75,88.1178,98.9502,132.662,97.8076,67.9512,0.0113812,0.487228,20.3642,34.4002,3.258,0.0,0.0
847,211.5,88.3117,98.5002,130.939,97.7704,66.581,0.011411,0.490077,20.3629,34.2601,3.43683,0.0,0.0
854,213.25,87.6395,99.0277,134.204,97.7332,65.1609,0.0113196,0.490703,20.3627,34.0799,3.62628,0.0,0.0
861,215,87.8148,97.9541,129.189,97.6917,65.9238,0.0112018,0.489835,20.364,33.9698,3.51835,0.0,0.0
868,216.75,87.7383,98.4776,130.061,97.658,64.073,0.011078,0.486873,20.3691,33.7897,3.77,0.0,0.0
875,218.5,87.5251,97.7399,129.41,97.6082,66.2607,0.0109927,0.482015,20.3772,33.6195,3.4651,0.0,0.0
882,220.25,87.4771,97.1387,132.534,97.5686,67.1369,0.0110324,0.477988,20.381,33.5194,3.34397,0.0,0.0
889,222,86.9047,97.5581,138.879,97.5239,66.9878,0.0112108,0.475775,20.3829,33.3293,3.35976,0.0,0.0
896,223.75,87.5991,97.3866,129.991,97.4962,63.6932,0.0113893,0.474822,20.3838,33.1791,3.80834,0.0,0.0
903,225.5,86.7419,97.1321,129.965,97.4543,65.2547,0.0114646,0.474809,20.383,33.009,3.58784,0.0,0.0
910,227.25,86.9601,96.5875,128.597,97.4151,68.2924,0.0114406,0.475188,20.3826,32.8589,3.17723,0.0,0.0
917,229,86.7194,96.974,135.743,97.3735,65.0886,0.0114692,0.475401,20.3824,32.6887,3.60322,0.0,0.0
924,230.75,86.589,96.1796,134.191,97.3324,67.7032,0.0115399,0.475858,20.3824,32.4985,3.24714,0.0,0.0
931,232.5,86.2847,96.1788,131.955,97.3094,67.0712,0.0115247,0.47498,20.3871,32.3484,3.32893,0.0,0.0
938,234.25,86.4218,96.1327,135.453,97.2778,67.9118,0.0113843,0.472741,20.3908,32.1983,3.2146,0.0,0.0
945,236,85.8889,95.9938,131.436,97.2485,66.4071,0.0112862,0.470863,20.3931,32.0281,3.41233,0.0,0.0
952,237.75,86.0543,95.4163,130.982,97.2208,66.5284,0.0113647,0.469998,20.3942,31.868,3.39346,0.0,0.0
959,239.5,85.9197,96.1993,132.07,97.2049,67.2783,0.0115568,0.470581,20.3948,31.6978,3.29174,0.0,0.0
966,241.25,85.6598,95.6423,129.515,97.1828,65.2822,0.0118329,0.470387,20.3952,31.5577,3.55912,0.0,0.0
973,243,85.4745,95.95,132.773,97.1551,66.7931,0.0120145,0.468441,20.3971,31.3675,3.3519,0.0,0.0
980,244.75,85.5573,95.7751,131.734,97.1412,66.5257,0.0119375,0.465906,20.3997,31.2474,3.3865,0.0,0.0
987,246.5,85.3541,95.4298,136.071,97.1345,67.5947,0.0116141,0.462592,20.404,31.0973,3.24329,0.0,0.0
994,248.25,85.6604,95.0123,136.709,97.1242,68.6369,0.0112032,0.457797,20.4109,30.9372,3.10546,0.0,0.0
1001,250,86.0484,94.3188,135.834,97.1147,70.91,0.0108891,0.452483,20.4183,30.8271,2.81314,0.0,0.0
1008,251.75,85.225,94.7993,133.921,97.1036,71.3033,0.0107016,0.446027,20.4291,30.687,2.76264,0.0,0.0
1015,253.5,86.155,93.3861,132.988,97.1116,70.29,0.0105591,0.439571,20.4366,30.5368,2.89141,0.0,0.0
1022,255.25,85.6938,93.7762,136.837,97.1258,70.3047,0.0104027,0.432583,20.4446,30.3667,2.89085,0.0,0.0
1029,257,85.2486,93.3592,133.337,97.1282,70.7289,0.0102939,0.427398,20.4537,30.2265,2.83726,0.0,0.0
1036,258.75,85.3947,93.3231,127.084,97.1377,69.5707,0.0102135,0.424429,20.4596,30.1165,2.98583,0.0,0.0
1043,260.5,84.2042,94.1435,133.243,97.1357,70.5268,0.0100494,0.421583,20.4648,29.9763,2.86355,0.0,0.0
1050,262.25,84.3656,93.5971,133.443,97.1634,71.6239,0.00982217,0.418468,20.4678,29.8462,2.72801,0.0,0.0
1057,264,84.2675,93.169,134.599,97.1804,70.9104,0.00962992,0.415557,20.4721,29.6961,2.81914,0.0,0.0
1064,265.75,85.1171,91.9808,137.812,97.1947,72.0396,0.00960912,0.412484,20.4771,29.596,2.67912,0.0,0.0
1071,267.5,84.0702,92.0548,134.62,97.2105,71.8894,0.00969793,0.408821,20.4817,29.4659,2.69926,0.0,0.0
1078,269.25,84.9571,91.566,135.697,97.2354,70.8007,0.00970666,0.405971,20.4846,29.2957,2.83805,0.0,0.0
1085,271,83.7021,91.4138,135.498,97.2663,72.1802,0.0095552,0.402268,20.4902,29.2157,2.66827,0.0,0.0
1092,272.75,83.7742,91.6282,132.104,97.2778,73.7209,0.00919941,0.398286,20.4961,29.0455,2.4804,0.0,0.0
1099,274.5,83.7402,91.4485,132.469,97.2979,74.7075,0.00887537,0.394706,20.5005,28.9955,2.36333,0.0,0.0
1106,276.25,83.6409,91.3915,134.981,97.3161,73.7386,0.00868178,0.391563,20.5051,28.8353,2.48178,0.0,0.0
1113,278,83.0092,91.1364,131.012,97.3522,72.3077,0.0086316,0.388575,20.5078,28.6752,2.66038,0.0,0.0
1120,279.75,83.2957,90.9191,130.873,97.387,73.938,0.00857182,0.38671,20.5102,28.5651,2.46413,0.0,0.0
1127,281.5,82.6742,91.1022,134.75,97.3965,74.6249,0.0084842,0.385136,20.5115,28.485,2.38229,0.0,0.0
1134,283.25,83.0345,90.3323,136.73,97.4246,75.4396,0.00842493,0.383848,20.5124,28.3849,2.28773,0.0,0.0
1141,285,82.7445,90.4329,130.79,97.4547,73.2724,0.00837332,0.3826,20.5146,28.2148,2.55124,0.0,0.0
1148,286.75,82.7868,90.0856,133.387,97.4903,74.4568,0.00828945,0.380702,20.5173,28.0847,2.41107,0.0,0.0
1155,288.5,82.0696,90.0758,131.412,97.5025,73.7611,0.00822704,0.379416,20.5184,27.9846,2.49617,0.0,0.0
1162,290.25,82.3321,89.9358,137.341,97.5314,76.0859,0.00820503,0.3787,20.5191,27.8745,2.22123,0.0,0.0
1169,292,82.1993,89.641,134.433,97.5647,75.4798,0.00823049,0.378661,20.5194,27.7344,2.29583,0.0,0.0
1176,293.75,82.4894,89.1525,131.961,97.6098,75.1062,0.00820874,0.378598,20.5195,27.6343,2.34434,0.0,0.0
1183,295.5,81.881,89.3162,138.692,97.6066,76.3185,0.00810388,0.377522,20.5212,27.5242,2.20082,0.0,0.0
1190,297.25,81.6731,89.6019,135.257,97.6268,75.756,0.00802604,0.375458,20.5242,27.3941,2.26884,0.0,0.0
1197,299,81.5667,89.4174,133.188,97.6592,75.999,0.00798545,0.373494,20.5271,27.294,2.24317,0.0,0.0
1204,300.75,81.5543,88.7234,134.469,97.683,74.6214,0.00796937,0.371971,20.5286,27.1839,2.40898,0.0,0.0
1211,302.5,81.2846,88.6041,135.762,97.721,74.0492,0.00803412,0.371263,20.5314,27.0638,2.48131,0.0,0.0
1218,304.25,81.7571,88.3176,138.396,97.7368,75.5992,0.00810728,0.369962,20.5346,26.9837,2.29746,0.0,0.0
1225,306,81.7041,88.6952,138.086,97.7728,74.3664,0.00804142,0.367872,20.5374,26.8636,2.44782,0.0,0.0
1232,307.75,81.3206,88.0509,133.733,97.8029,75.2464,0.00789113,0.366692,20.539,26.7135,2.34534,0.0,0.0
1239,309.5,81.3367,88.261,132.684,97.8302,75.9086,0.00776961,0.366098,20.5409,26.6034,2.26946,0.0,0.0
1246,311.25,81.0218,87.9925,133.908,97.8824,74.8192,0.0077082,0.364333,20.543,26.5133,2.40355,0.0,0.0
1253,313,81.285,88.0226,135.013,97.8852,75.5625,0.0076352,0.362832,20.5443,26.4132,2.31537,0.0,0.0
1260,314.75,80.8694,87.546,135.536,97.9153,75.4473,0.00751282,0.361808,20.5449,26.2931,2.33176,0.0,0.0
1267,316.5,80.9747,87.5942,136.006,97.9592,75.2874,0.00739651,0.361749,20.5451,26.153,2.35475,0.0,0.0
1274,318.25,80.2957,87.9427,135.642,97.9999,76.587,0.00736078,0.361885,20.5453,26.0429,2.20538,0.0,0.0
1281,320,80.8145,87.0694,131.064,98.0249,74.5997,0.0073564,0.361836,20.5445,25.9428,2.44283,0.0,0.0
1288,321.75,80.5471,87.1278,135.407,98.0565,74.3359,0.00734907,0.363078,20.5432,25.7927,2.47741,0.0,0.0
1295,323.5,80.6571,86.8442,133.449,98.0961,74.7095,0.00737589,0.364343,20.5419,25.7226,2.43618,0.0,0.0
1302,325.25,80.0051,87.4812,138.286,98.1388,76.0438,0.00750703,0.364865,20.5421,25.5825,2.28172,0.0,0.0
1309,327,80.1922,87.1279,136.88,98.1606,75.0842,0.00767027,0.365132,20.5415,25.4924,2.3973,0.0,0.0
1316,328.75,80.3652,87.1057,138.261,98.184,74.7585,0.00777418,0.366798,20.5388,25.3723,2.43832,0.0,0.0
1323,330.5,80.0611,87.3037,136.639,98.2136,74.6422,0.00782956,0.369728,20.5353,25.2622,2.45494,0.0,0.0
1330,332.25,80.5345,86.9403,137.068,98.2397,76.2528,0.00791059,0.373006,20.5307,25.1221,2.26636,0.0,0.0
1337,334,80.2352,86.7068,129.512,98.2762,73.6977,0.00799877,0.376277,20.5253,25.042,2.57456,0.0,0.0
1344,335.75,79.9452,87.2154,136.028,98.3035,74.1933,0.00803921,0.380756,20.519,24.9119,2.51708,0.0,0.0
1351,337.5,80.0581,87.0321,131.463,98.3355,74.2312,0.00801769,0.384277,20.5145,24.7918,2.51543,0.0,0.0
1358,339.25,80.3284,87.1394,136.499,98.3541,73.7726,0.00801011,0.386147,20.5123,24.6416,2.57256,0.0,0.0
1365,341,80.4258,86.8755,136.37,98.3941,75.8785,0.00803221,0.386743,20.5113,24.5115,2.32443,0.0,0.0
1372,342.75,80.5701,87.1229,136.042,98.423,74.7129,0.00799863,0.386969,20.5097,24.3914,2.46552,0.0,0.0
1379,344.5,80.298,87.109,140.857,98.4578,74.0434,0.00790144,0.387296,20.5089,24.2313,2.54921,0.0,0.0
1386,346.25,80.353,87.1141,135.868,98.4942,74.5418,0.00778144,0.388867,20.5084,24.1512,2.49251,0.0,0.0
1393,348,80.641,86.8575,134.452,98.5377,73.7688,0.00780174,0.391549,20.5044,23.9811,2.58971,0.0,0.0
1400,349.75,80.4331,87.2002,133.582,98.5611,71.7634,0.00806387,0.395986,20.4984,23.8509,2.83837,0.0,0.0
1407,351.5,80.3689,87.7487,133.992,98.5868,68.5581,0.00836389,0.403108,20.4883,23.7509,3.24944,0.0,0.0
1414,353.25,80.6031,87.6643,133.05,98.6097,70.1629,0.00868293,0.412478,20.4733,23.5607,3.04455,0.0,0.0
1421,355,80.5497,87.9606,138.588,98.6458,68.139,0.00900234,0.423274,20.457,23.4206,3.30965,0.0,0.0
1428,356.75,80.8986,88.2689,133.753,98.6944,69.5641,0.00926131,0.432315,20.4447,23.2604,3.1289,0.0,0.0
1435,358.5,81.039,88.3375,135.434,98.696,69.1797,0.00944395,0.437832,20.4389,23.1403,3.17861,0.0,0.0
1442,360.25,81.0933,88.6623,133.531,98.717,69.7175,0.00955264,0.439838,20.4373,22.9802,3.11124,0.0,0.0
1449,362,81.184,88.9134,137.254,98.7439,71.1395,0.00956058,0.44013,20.4365,22.8601,2.93306,0.0,0.0
1456,363.75,81.333,88.973,133.276,98.785,70.1973,0.00953497,0.439721,20.4362,22.6799,3.05606,0.0,0.0
1463,365.5,81.3506,88.4428,134.057,98.7819,69.8075,0.00947168,0.439686,20.4366,22.5598,3.10558,0.0,0.0
1470,367.25,81.526,89.1928,134.038,98.8028,70.1212,0.00944876,0.439633,20.4362,22.4197,3.06737,0.0,0.0
1477,369,81.6128,88.8863,132.103,98.8183,68.4921,0.0095195,0.441202,20.4336,22.2796,3.27904,0.0,0.0
1484,370.75,82.1265,89.3563,140.047,98.8309,71.476,0.00963877,0.44326,20.4315,22.1294,2.89873,0.0,0.0
1491,372.5,82.0424,89.5133,132.743,98.8468,71.0715,0.00968511,0.444639,20.432,21.9893,2.95093,0.0,0.0
1498,374.25,81.9501,89.7677,132.665,98.8812,70.589,0.00959835,0.443706,20.4335,21.8192,3.01498,0.0,0.0
1505,376,81.8922,89.9773,131.323,98.8887,69.0978,0.00950363,0.44316,20.4344,21.659,3.20665,0.0,0.0
1512,377.75,82.452,89.6546,134.866,98.8978,70.3093,0.00944999,0.443802,20.4333,21.5389,3.052,0.0,0.0
1519,379.5,82.5591,89.8722,132.126,98.9125,69.9848,0.00938628,0.445596,20.4319,21.3688,3.0947,0.0,0.0
1526,381.25,82.5931,89.8577,131.526,98.9322,70.4928,0.00929312,0.445353,20.4315,21.2487,3.03179,0.0,0.0
1533,383,82.1697,90.4215,136.327,98.9267,73.2001,0.0092809,0.442449,20.4359,21.0685,2.69417,0.0,0.0
1540,384.75,82.5319,90.1948,135.507,98.9481,72.3943,0.0093374,0.438521,20.4395,20.9684,2.79513,0.0,0.0
1547,386.5,82.4831,90.543,129.375,98.9489,72.7559,0.00932918,0.436185,20.4429,21.4588,2.75064,0.0,0.0
1554,388.25,82.5238,90.4455,133.806,98.9631,74.0465,0.0092244,0.43394,20.4465,32.3884,2.59462,0.0,0.0
1561,390,82.5029,90.4878,133.708,98.9595,72.1258,0.00912514,0.430794,20.4507,39.9251,2.82941,0.0,0.0
1568,391.75,82.2206,90.4005,133.769,98.9615,73.2708,0.0090575,0.428102,20.4534,45.2998,2.68869,0.0,0.0
1575,393.5,82.7949,89.7143,133.159,98.9671,73.4999,0.00899184,0.42587,20.4555,49.5035,2.66126,0.0,0.0
1582,395.25,82.6876,90.2214,131.383,98.9916,73.4725,0.0087961,0.424104,20.4598,52.5862,2.66682,0.0,0.0
1589,397,82.5082,89.9667,132.083,98.9754,74.2073,0.0086193,0.421971,20.4647,55.5288,2.57634,0.0,0.0
1596,398.75,82.6432,90.0446,137.21,98.9967,73.3871,0.00852521,0.420031,20.467,58.6415,2.67769,0.0,0.0
1603,400.5,82.2684,89.8225,135.407,98.975,73.5969,0.00849202,0.419927,20.4671,61.8443,2.65019,0.0,0.0
1610,402.25,82.5178,90.3072,135.044,98.994,72.4727,0.00845196,0.420025,20.467,64.937,2.7896,0.0,0.0
1617,404,82.3415,89.7134,134.739,98.9857,74.2343,0.00831982,0.419162,20.4677,69.1607,2.57401,0.0,0.0
1624,405.75,82.4739,90.0103,132.998,98.9849,75.54,0.00820924,0.417498,20.4703,71.9332,2.41796,0.0,0.0
1631,407.5,82.4893,90.1169,140.622,98.9833,74.6712,0.00807216,0.41406,20.4742,77.5982,2.5213,0.0,0.0
1638,409.25,82.4141,89.9092,135.067,98.994,73.7081,0.00786005,0.410944,20.4776,82.5025,2.63839,0.0,0.0
1645,411,82.4883,89.7219,131.575,98.9916,73.4984,0.00773524,0.408062,20.4814,80.6208,2.66367,0.0,0.0
1652,412.75,81.8129,89.2044,132.222,98.9845,73.4578,0.00777773,0.40608,20.4834,84.4342,2.66797,0.0,0.0
1659,414.5,82.0788,89.4763,134.835,98.9738,73.5439,0.00777648,0.405191,20.4853,86.3258,2.65651,0.0,0.0
1666,416.25,82.3641,89.3768,134.859,98.971,74.2018,0.00763313,0.404015,20.4876,89.1383,2.5766,0.0,0.0
1673,418,81.8532,89.7353,132.618,98.9793,75.5315,0.00748325,0.401688,20.4906,91.4403,2.41847,0.0,0.0
1680,419.75,81.9051,89.3992,129.695,98.9722,74.6762,0.00749255,0.399756,20.4942,92.181,2.5197,0.0,0.0
1687,421.5,81.7808,89.6275,139.362,98.9568,75.2542,0.00754622,0.398258,20.4958,93.9625,2.44934,0.0,0.0
1694,423.25,81.7588,89.3967,135.18,98.9734,76.0987,0.00752065,0.397799,20.4967,94.2828,2.35102,0.0,0.0
1701,425,82.076,89.0912,131.226,98.958,73.2882,0.00731035,0.398011,20.4969,96.0043,2.68625,0.0,0.0
1708,426.75,82.1281,88.8449,133.725,98.9524,75.6107,0.00706784,0.399362,20.4968,97.6858,2.40666,0.0,0.0
1715,428.5,81.6145,89.1816,132.419,98.9481,76.7353,0.00684332,0.39926,20.4967,100.048,2.2742,0.0,0.0
1722,430.25,82.1341,88.6364,137.19,98.9378,75.0552,0.00673153,0.398524,20.4967,99.7876,2.4713,0.0,0.0
1729,432,81.695,89.077,136.343,98.9398,77.2329,0.00672631,0.399028,20.4967,101.759,2.21563,0.0,0.0
1736,433.75,81.7723,88.6223,136.873,98.9338,77.5798,0.00678985,0.399834,20.4962,104.061,2.17501,0.0,0.0
1743,435.5,81.5654,88.8016,133.857,98.9085,75.8062,0.00686421,0.399648,20.4956,102.95,2.37959,0.0,0.0
1750,437.25,81.7299,88.8871,132.623,98.9073,75.9835,0.00693154,0.400296,20.4942,105.873,2.35859,0.0,0.0
1757,439,81.6192,89.0952,133.611,98.9014,75.6957,0.00696212,0.401565,20.4935,108.395,2.392,0.0,0.0
1764,440.75,81.7161,88.7591,135.597,98.8954,76.4548,0.00690567,0.402376,20.4943,109.866,2.3022,0.0,0.0
1771,442.5,81.7189,88.7599,138.016,98.8871,78.1871,0.00673035,0.400987,20.4974,109.796,2.10103,0.0,0.0
1778,444.25,81.714,88.6169,132.425,98.8622,77.7923,0.00647657,0.399489,20.4995,111.178,2.14406,0.0,0.0
1785,446,81.7758,88.9257,130.379,98.8559,76.7809,0.00623836,0.398896,20.5015,119.185,2.26055,0.0,0.0
1792,447.75,81.4712,88.9145,135.604,98.8499,76.694,0.00617765,0.397554,20.5038,121.857,2.27015,0.0,0.0
1799,449.5,81.6205,88.6364,141.515,98.844,76.9768,0.00616491,0.395389,20.5065,116.472,2.23669,0.0,0.0
1806,451.25,81.8853,88.7341,132.398,98.8167,77.4454,0.00607528,0.39302,20.5098,115.712,2.17992,0.0,0.0
1813,453,81.6835,88.4099,134.391,98.8218,77.8529,0.00595351,0.390544,20.5134,114.39,2.13344,0.0,0.0
1820,454.75,81.4572,88.292,134.739,98.8147,77.7664,0.00584368,0.387936,20.5171,113.77,2.14274,0.0,0.0
1827,456.5,81.4682,88.7219,132.762,98.8013,78.7376,0.00574608,0.385244,20.5216,111.418,2.0305,0.0,0.0
1834,458.25,81.4311,88.3262,136.227,98.785,79.0466,0.00564642,0.381388,20.5267,111.778,1.99399,0.0,0.0
1841,460,81.3062,88.0805,137.003,98.7653,78.9713,0.00552466,0.37631,20.534,112.179,2.00073,0.0,0.0
1848,461.75,81.3503,88.1321,136.598,98.7637,80.4733,0.0054276,0.371341,20.5394,111.718,1.83204,0.0,0.0
1855,463.5,80.788,87.8715,131.738,98.7526,77.8931,0.00528071,0.366874,20.5443,113.95,2.12255,0.0,0.0
1862,465.25,80.9711,87.6362,135.335,98.7573,79.3159,0.00508191,0.363924,20.5492,116.312,1.96106,0.0,0.0
1869,467,80.8077,87.6415,138.898,98.7296,80.6433,0.00482629,0.360941,20.5524,123.769,1.81008,0.0,0.0
1876,468.75,80.7289,87.7095,130.412,98.7249,81.2293,0.00462047,0.357901,20.5567,125.66,1.74488,0.0,0.0
1883,470.5,80.7852,87.3971,139.641,98.7344,81.0821,0.00449593,0.355366,20.5599,128.153,1.76197,0.0,0.0
1890,472.25,80.7344,87.117,135.13,98.7126,79.8413,0.00446943,0.353952,20.5629,130.945,1.89795,0.0,0.0
1897,474,80.14,86.581,139.007,98.6924,79.9723,0.00453562,0.352681,20.5644,132.677,1.88146,0.0,0.0
1904,475.75,80.2171,86.7268,136.68,98.6734,80.6286,0.00464545,0.351536,20.565,133.517,1.80662,0.0,0.0
1911,477.5,80.2322,86.8022,136.837,98.6671,80.5649,0.00470672,0.350466,20.5662,142.215,1.81312,0.0,0.0
1918,479.25,79.8701,86.7437,134.481,98.664,80.7723,0.00468644,0.349196,20.5686,142.815,1.78983,0.0,0.0
1925,481,80.0882,86.4421,135.797,98.6604,81.1053,0.00464412,0.346972,20.5719,143.116,1.7527,0.0,0.0
1932,482.75,80.3042,86.4454,138.783,98.6481,82.4887,0.00462853,0.344308,20.5762,141.955,1.6003,0.0,0.0
1939,484.5,79.9296,86.0895,137.657,98.6382,80.7499,0.00462769,0.341904,20.5791,146.018,1.78998,0.0,0.0
1946,486.25,79.8329,86.5551,133.727,98.6339,81.9413,0.00458694,0.341091,20.5804,146.599,1.65857,0.0,0.0
1953,488,79.5148,86.3365,137.448,98.6398,81.234,0.0044199,0.341459,20.5806,147.57,1.73666,0.0,0.0
1960,489.75,79.8217,85.9549,136.971,98.6184,82.4362,0.00417522,0.340768,20.5819,155.096,1.60331,0.0,0.0
1967,491.5,79.4107,85.915,130.886,98.6082,81.0342,0.00403479,0.338959,20.5835,158.399,1.75581,0.0,0.0
1974,493.25,79.4447,85.6936,136.136,98.6256,81.2788,0.00403163,0.338021,20.5845,156.377,1.73044,0.0,0.0
1981,495,79.3034,85.6078,134.395,98.6216,81.2305,0.00414586,0.337731,20.5849,150.792,1.73539,0.0,0.0
1988,496.75,79.3252,85.4799,132.97,98.6129,82.6371,0.00416642,0.33709,20.5856,152.614,1.58103,0.0,0.0
1995,498.5,79.0906,85.3669,136.024,98.6125,82.1213,0.00409918,0.335126,20.5874,154.816,1.637,0.0,0.0
2002,500.25,79.1485,85.0181,135.039,98.6002,81.6798,0.00397926,0.332978,20.5899,160.451,1.68411,0.0,0.0
2009,502,78.8628,84.9688,138.25,98.607,82.0584,0.00391933,0.330695,20.5926,159.86,1.64336,0.0,0.0
2016,503.75,79.1261,84.7299,138.438,98.6038,83.2784,0.00386346,0.328222,20.5958,160.701,1.51106,0.0,0.0
2023,505.5,78.7047,84.5255,137.495,98.5951,82.4493,0.00387681,0.326509,20.5975,161.732,1.59976,0.0,0.0
2030,507.25,78.4016,84.8562,137.345,98.5896,83.2571,0.00402927,0.325636,20.5984,158.449,1.51205,0.0,0.0
2037,509,78.4321,84.5462,136.877,98.5852,83.1609,0.00415539,0.324655,20.5988,157.118,1.52199,0.0,0.0
2044,510.75,77.9425,84.4983,138.705,98.5923,83.8783,0.00415915,0.323876,20.6001,156.507,1.4458,0.0,0.0
2051,512.5,78.3355,84.6228,136.91,98.5876,83.2413,0.00405437,0.322899,20.6008,155.667,1.51357,0.0,0.0
2058,514.25,78.6019,84.0687,137.065,98.5678,83.6743,0.00396906,0.321722,20.603,154.115,1.46536,0.0,0.0
2065,516,78.1943,84.1202,140.327,98.5638,83.1227,0.00390463,0.320137,20.605,154.616,1.52417,0.0,0.0
2072,517.75,78.3763,83.8151,135.961,98.5619,84.4879,0.00380808,0.318701,20.6073,153.475,1.37826,0.0,0.0
2079,519.5,78.0752,83.8338,134.312,98.569,84.4725,0.00371001,0.317319,20.61,152.544,1.38054,0.0,0.0
2086,521.25,77.9771,83.4713,137.519,98.5539,84.165,0.00361788,0.315355,20.6128,153.305,1.4118,0.0,0.0
2093,523,77.6122,83.7931,136.929,98.5579,83.4302,0.00351458,0.312461,20.6163,146.248,1.4906,0.0,0.0
2100,524.75,77.8977,83.4329,135.746,98.5547,85.3374,0.00338597,0.311014,20.6184,144.377,1.28812,0.0,0.0
2107,526.5,77.5494,83.2458,133.13,98.5662,85.5317,0.00329419,0.309849,20.6208,140.924,1.26881,0.0,0.0
2114,528.25,77.476,83.1885,136.117,98.5524,84.5451,0.00332773,0.308005,20.6227,140.463,1.37135,0.0,0.0
2121,530,77.2793,83.0283,141.051,98.5512,84.863,0.00341015,0.306201,20.6248,137.14,1.33766,0.0,0.0
2128,531.75,77.5459,82.62,137.438,98.5397,85.5325,0.00343514,0.305155,20.6258,136.59,1.26633,0.0,0.0
2135,533.5,77.2695,82.9187,136.462,98.5433,86.3577,0.00342814,0.304223,20.6283,136.82,1.18076,0.0,0.0
2142,535.25,77.0064,82.8227,139.79,98.5342,86.8846,0.00345759,0.303176,20.6312,136.6,1.12552,0.0,0.0
2149,537,77.0543,81.9933,136.643,98.5322,86.0463,0.00349171,0.30096,20.6358,135.599,1.21207,0.0,0.0
2156,538.75,77.1832,81.9651,138.233,98.5251,86.6783,0.00349932,0.298763,20.6384,135.639,1.14596,0.0,0.0
2163,540.5,76.7418,82.04,139.41,98.5243,87.1636,0.00346027,0.297163,20.6398,133.487,1.09595,0.0,0.0
2170,542.25,76.9512,81.6479,137.613,98.5215,85.9393,0.00340006,0.295504,20.6431,134.898,1.22223,0.0,0.0
2177,544,76.743,81.711,138.733,98.5029,85.6704,0.0033739,0.294148,20.6455,135.509,1.24857,0.0,0.0
2184,545.75,76.3163,81.5468,138.252,98.4946,86.5868,0.00342497,0.292964,20.6485,134.768,1.15265,0.0,0.0
2191,547.5,76.2647,81.4408,136.783,98.4871,86.1529,0.00347177,0.291492,20.6504,134.068,1.1969,0.0,0.0
2198,549.25,76.3315,80.9971,142.84,98.491,86.7788,0.00338858,0.290052,20.6523,129.023,1.13251,0.0,0.0
2205,551,76.5065,81.2881,141.557,98.4681,87.3641,0.00314468,0.288314,20.6545,128.803,1.0703,0.0,0.0
2212,552.75,76.0804,81.0041,136.671,98.4653,88.0869,0.00287241,0.286144,20.6574,128.022,0.99634,0.0,0.0
2219,554.5,76.3876,81.0708,139.414,98.4479,87.7786,0.00272747,0.284002,20.6611,126.411,1.02612,0.0,0.0
2226,556.25,76.1929,80.6383,137.517,98.4467,87.0457,0.00278743,0.282028,20.6632,126.701,1.10101,0.0,0.0
2233,558,75.8395,80.8173,136.805,98.4392,87.0094,0.00292025,0.27989,20.6646,125.18,1.10406,0.0,0.0
2240,559.75,75.9692,80.7344,135.431,98.434,87.5916,0.00302305,0.276723,20.6674,121.857,1.04394,0.0,0.0
2247,561.5,75.5768,80.3418,135.254,98.4222,88.4457,0.00309083,0.273469,20.6718,119.175,0.95605,0.0,0.0
2254,563.25,75.2732,80.3241,141.743,98.4154,89.9671,0.00319189,0.270573,20.6775,119.135,0.802881,0.0,0.0
2261,565,75.0651,80.2142,141.809,98.4139,89.2068,0.00325538,0.267216,20.6827,119.025,0.878652,0.0,0.0
2268,566.75,75.3762,80.0164,140.011,98.4032,90.2062,0.00318512,0.264468,20.6879,118.734,0.778022,0.0,0.0
2275,568.5,75.0389,79.9592,138.14,98.3996,91.2983,0.00301708,0.261844,20.692,99.4273,0.670048,0.0,0.0
2282,570.25,75.3883,79.609,134.922,98.4016,90.1482,0.00279842,0.258622,20.6962,98.2763,0.783626,0.0,0.0
2289,572,74.9565,79.4499,140.752,98.3779,91.4184,0.00267324,0.25517,20.7019,97.886,0.656305,0.0,0.0
2296,573.75,74.6153,79.2054,142.916,98.3771,90.2174,0.00265291,0.251693,20.708,95.0034,0.774536,0.0,0.0
2303,575.5,74.5559,79.366,135.701,98.3624,91.3141,0.00268254,0.248343,20.7134,92.4012,0.665114,0.0,0.0
2310,577.25,74.7981,78.696,142.113,98.3509,90.7528,0.00273626,0.245237,20.717,90.6096,0.719229,0.0,0.0
2317,579,74.6943,78.7579,139.93,98.3418,92.2031,0.00276499,0.242769,20.7201,90.6596,0.576584,0.0,0.0
2324,580.75,74.4976,78.394,136.174,98.3399,92.708,0.0027879,0.240328,20.7237,89.6687,0.52755,0.0,0.0
2331,582.5,74.047,78.4727,136.635,98.3335,92.7775,0.00287908,0.237463,20.7264,89.4586,0.520269,0.0,0.0
2338,584.25,73.8952,78.4104,143.664,98.3173,93.8167,0.00304039,0.233936,20.7305,89.6988,0.419153,0.0,0.0
2345,586,73.79,77.7802,135.069,98.311,92.905,0.0031835,0.229841,20.7363,87.3067,0.505932,0.0,0.0
2352,587.75,73.1351,78.1121,141.31,98.3126,94.4194,0.00335468,0.226252,20.7426,86.0756,0.361442,0.0,0.0
2359,589.5,73.0998,77.9888,145.549,98.3118,93.8859,0.00359089,0.222435,20.7471,84.0238,0.412058,0.0,0.0
2366,591.25,72.9279,77.7289,139.489,98.3007,94.8625,0.00385302,0.218205,20.7512,82.7527,0.31848,0.0,0.0
2373,593,73.2535,77.0251,141.575,98.3023,94.4908,0.00410605,0.215065,20.7555,81.5316,0.353737,0.0,0.0
2380,594.75,72.8805,77.3383,140.502,98.2979,94.4147,0.00437064,0.212105,20.7607,80.3306,0.360548,0.0,0.0
2387,596.5,73.2387,76.6876,137.906,98.3019,94.3792,0.00459814,0.209691,20.7637,85.6853,0.364278,0.0,0.0
2394,598.25,72.6399,76.4511,141.498,98.2821,95.4083,0.00480514,0.207148,20.767,84.5743,0.265461,0.0,0.0
2401,600,72.4757,76.4819,143.159,98.271,94.8412,0.00503854,0.205088,20.7692,82.1722,0.317783,0.0,0.0
2408,601.75,71.9277,76.2448,140.613,98.2714,94.6797,0.00520195,0.203411,20.7706,80.3806,0.333062,0.0,0.0
2415,603.5,72.2984,75.7561,140.74,98.2619,95.5262,0.00529266,0.202068,20.7728,79.5499,0.252584,0.0,0.0
2422,605.25,71.807,75.687,145.106,98.252,95.1665,0.00532923,0.200671,20.7735,76.6673,0.285426,0.0,0.0
2429,607,71.3816,75.8028,143.234,98.2512,93.5903,0.0053443,0.199803,20.7739,76.5773,0.434749,0.0,0.0
2436,608.75,71.6078,75.2078,137.609,98.2397,94.871,0.00535149,0.199446,20.7753,74.4754,0.312131,0.0,0.0
2443,610.5,71.4092,74.9902,139.936,98.2421,95.5686,0.0054204,0.198671,20.7761,71.693,0.246804,0.0,0.0
2450,612.25,71.7479,74.5238,140.272,98.233,94.8795,0.00550378,0.197812,20.7775,69.1507,0.310717,0.0,0.0
2457,614,70.7515,74.9367,142.6,98.2259,94.769,0.0055527,0.197078,20.778,68.6603,0.320492,0.0,0.0
2464,615.75,70.7204,74.9819,140.395,98.2065,94.7357,0.00553199,0.196528,20.7772,66.9988,0.321863,0.0,0.0
2471,617.5,70.9245,74.4411,141.373,98.2069,95.272,0.00545507,0.196117,20.7769,65.4475,0.27141,0.0,0.0
2478,619.25,71.219,73.3292,139.531,98.2077,95.7,0.00546628,0.195813,20.7767,64.7969,0.231383,0.0,0.0
2485,621,70.744,73.847,138.549,98.1828,95.0834,0.00559232,0.1961,20.776,63.756,0.28693,0.0,0.0
2492,622.75,71.0365,73.5853,139.163,98.1737,95.321,0.00571573,0.196637,20.7751,61.5641,0.263776,0.0,0.0
2499,624.5,70.3091,74.0413,139.802,98.1657,95.0572,0.00575764,0.196371,20.7746,60.0127,0.287851,0.0,0.0
2506,626.25,70.2659,73.7943,141.024,98.161,94.3823,0.00573396,0.195846,20.7757,58.6015,0.351156,0.0,0.0
2513,628,70.462,73.4361,140.794,98.1796,95.4725,0.00567762,0.195748,20.7773,57.8708,0.250117,0.0,0.0
2520,629.75,70.156,73.2196,143.603,98.2093,94.4302,0.00565165,0.194997,20.7792,57.1302,0.351014,0.0,0.0
2527,631.5,70.1764,73.3045,140.435,98.2386,95.5439,0.00566395,0.193902,20.7807,55.799,0.248793,0.0,0.0
2534,633.25,70.0127,73.5558,141.949,98.2603,95.8584,0.00568318,0.193293,20.7822,54.608,0.221382,0.0,0.0
2541,635,69.8895,73.201,139.755,98.2785,94.864,0.00564563,0.192551,20.7832,53.4169,0.316318,0.0,0.0
2548,636.75,69.5475,73.2829,146.248,98.2884,94.8435,0.00558371,0.191918,20.7839,50.9848,0.319149,0.0,0.0
2555,638.5,69.6913,73.0615,137.124,98.3046,96.5955,0.00553971,0.192121,20.7848,50.094,0.156895,0.0,0.0
2562,640.25,69.4772,72.6304,140.71,98.3256,95.5864,0.00552328,0.191788,20.7848,47.2915,0.25274,0.0,0.0
2569,642,69.5635,72.2855,141.506,98.341,95.7842,0.0055852,0.191976,20.7846,45.3699,0.235653,0.0,0.0
2576,643.75,69.4898,71.8774,143.016,98.3509,95.7386,0.00574182,0.193363,20.7841,42.7075,0.240811,0.0,0.0
2583,645.5,69.0242,72.336,141.685,98.3668,96.5418,0.00594495,0.194607,20.7831,42.3072,0.16752,0.0,0.0
2590,647.25,68.9234,72.1412,142.594,98.3842,95.2696,0.00605876,0.194941,20.7823,41.2362,0.287761,0.0,0.0
2597,649,68.1434,71.3863,143.8,98.4131,96.5441,0.00601185,0.194547,20.7826,39.9651,0.171515,0.0,0.0
2604,650.75,68.3049,71.7106,141.498,98.4206,96.094,0.00599233,0.193355,20.7852,38.5639,0.213997,0.0,0.0
2611,652.5,68.5119,71.5069,140.381,98.4325,95.1159,0.00603321,0.192268,20.7868,37.6931,0.306598,0.0,0.0
2618,654.25,67.6774,71.4529,138.405,98.4455,95.5424,0.006066,0.192114,20.7875,36.7523,0.267764,0.0,0.0
2625,656,68.0104,71.3619,138.385,98.457,95.8209,0.00611311,0.192563,20.7879,35.2009,0.242767,0.0,0.0
2632,657.75,68.3393,71.7553,139.985,98.4633,95.6162,0.0062191,0.192845,20.7882,34.3402,0.262476,0.0,0.0
2639,659.5,68.0615,71.0963,140.207,98.4728,95.8109,0.006389,0.192936,20.7875,32.9289,0.245142,0.0,0.0
2646,661.25,68.1639,71.5257,144.748,98.4819,96.5333,0.00649958,0.193211,20.7871,32.3484,0.178774,0.0,0.0
2653,663,67.6576,70.6691,141.962,98.4906,95.8572,0.00647568,0.193546,20.7869,31.0473,0.242433,0.0,0.0
2660,664.75,67.7385,70.986,145.498,98.51,95.2886,0.00635816,0.193387,20.7869,30.8771,0.297418,0.0,0.0
2667,666.5,67.9997,70.3746,145.238,98.5258,96.2891,0.00616891,0.193116,20.7868,29.606,0.205416,0.0,0.0
2674,668.25,67.592,70.9658,140.056,98.5405,95.1978,0.00609082,0.193216,20.7864,28.415,0.308711,0.0,0.0
2681,670,67.8044,70.7703,142.629,98.5448,95.7297,0.00606961,0.193135,20.7861,28.1447,0.25926,0.0,0.0
2688,671.75,67.5595,70.5578,143.681,98.5452,95.9766,0.00608434,0.193299,20.786,26.7835,0.236257,0.0,0.0
2695,673.5,67.3668,70.9386,140.993,98.5623,95.2739,0.0062089,0.193717,20.786,25.7526,0.303538,0.0,0.0
2702,675.25,67.6027,70.9809,138.094,98.546,96.373,0.00629159,0.194009,20.786,24.5916,0.199463,0.0,0.0
2709,677,67.3264,70.5126,141.198,98.5583,95.3427,0.00624733,0.194045,20.786,23.6308,0.296725,0.0,0.0
2716,678.75,66.4456,70.1452,139.127,98.5761,95.3025,0.00615024,0.193961,20.7864,22.9001,0.302111,0.0,0.0
2723,680.5,67.4888,71.0473,140.114,98.5761,96.3865,0.00603815,0.19383,20.7866,22.2696,0.200938,0.0,0.0
2730,682.25,66.6348,70.2728,145.293,98.5757,96.9899,0.00599254,0.193262,20.7873,21.589,0.145074,0.0,0.0
2737,684,66.7162,70.8765,140.695,98.5765,95.9809,0.00600122,0.192768,20.7882,20.8183,0.2387,0.0,0.0
2744,685.75,67.2296,70.5786,143.104,98.5789,95.6003,0.00598753,0.192528,20.7895,20.2978,0.274449,0.0,0.0
2751,687.5,67.1011,69.9119,142.761,98.5959,96.3467,0.00596191,0.192277,20.7904,19.2969,0.206426,0.0,0.0
2758,689.25,66.7914,70.4324,141.957,98.6074,95.6757,0.00598148,0.191825,20.7912,18.7765,0.269989,0.0,0.0
2765,691,66.7656,70.4008,143.175,98.6026,95.0997,0.00606479,0.191156,20.7921,17.8657,0.323574,0.0,0.0
2772,692.75,66.7478,69.726,140.266,98.6224,95.7189,0.00616697,0.190845,20.792,17.3552,0.267309,0.0,0.0
2779,694.5,66.3457,70.4094,143.521,98.62,95.9704,0.00629835,0.191416,20.7917,17.4753,0.24362,0.0,0.0
2786,696.25,66.6133,70.2867,144.765,98.6228,95.5065,0.00638435,0.191775,20.7916,16.2843,0.287222,0.0,0.0
2793,698,66.3502,70.5869,137.232,98.618,95.5775,0.00643366,0.191804,20.7916,15.8139,0.280136,0.0,0.0
2800,699.75,66.5827,70.1902,141.144,98.6224,96.1215,0.00644837,0.19153,20.7922,14.763,0.229768,0.0,0.0
2807,701.5,66.8842,69.5469,137.322,98.6287,97.1093,0.00649022,0.191082,20.793,14.763,0.138882,0.0,0.0
2814,703.25,66.6136,69.9717,139.866,98.6331,96.1644,0.00657835,0.191037,20.7935,14.0724,0.226747,0.0,0.0
2821,705,66.8513,69.7399,139.983,98.637,95.8398,0.00666801,0.191238,20.7937,13.682,0.257343,0.0,0.0
2828,706.75,66.5065,70.0582,137.783,98.6402,95.7715,0.0067563,0.191238,20.7938,12.9914,0.264015,0.0,0.0
2835,708.5,66.5769,69.9511,143.646,98.6461,96.0067,0.00682057,0.191146,20.794,12.3208,0.242605,0.0,0.0
2842,710.25,66.0624,69.4837,142.039,98.6469,95.8252,0.0068876,0.191476,20.7943,12.0606,0.25961,0.0,0.0
2849,712,66.6092,69.8807,143.397,98.6687,96.8427,0.00693706,0.191552,20.7945,11.3099,0.167095,0.0,0.0
2856,713.75,65.8281,69.4959,141.407,98.6564,95.2638,0.00692286,0.191326,20.7946,10.8695,0.313024,0.0,0.0
2863,715.5,66.1275,69.5459,141.01,98.6545,95.2955,0.00683317,0.190834,20.7951,10.5793,0.309872,0.0,0.0
2870,717.25,66.2712,69.3168,141.991,98.6549,96.4131,0.00664296,0.190096,20.7953,10.4992,0.205608,0.0,0.0
2877,719,66.1406,69.4271,142.645,98.6802,95.3276,0.00649798,0.189624,20.795,10.0488,0.309194,0.0,0.0
2884,720.75,65.887,69.7691,141.491,98.6608,96.2057,0.0064846,0.189754,20.7946,9.28816,0.225414,0.0,0.0
2891,722.5,66.218,69.6232,141.881,98.6746,95.1989,0.00658654,0.190202,20.7944,7.35646,0.320771,0.0,0.0
2898,724.25,66.0885,69.8692,139.369,98.6636,96.1396,0.00672626,0.190543,20.7933,7.34645,0.23181,0.0,0.0
2905,726,66.1159,69.3907,143.132,98.6723,95.8723,0.00681558,0.190754,20.7926,7.30642,0.257508,0.0,0.0
2912,727.75,65.9268,69.4378,138.839,98.6731,96.0705,0.0068089,0.190535,20.7935,7.27639,0.239108,0.0,0.0
2919,729.5,66.0471,69.4685,140.597,98.6683,96.6604,0.00672594,0.190065,20.7939,7.25637,0.183917,0.0,0.0
2926,731.25,66.3145,69.8502,138.418,98.6699,96.1887,0.00661521,0.1895,20.7941,7.24636,0.22782,0.0,0.0
2933,733,66.0116,69.3861,143.297,98.6774,96.1605,0.00655718,0.189483,20.7942,7.16629,0.231124,0.0,0.0
2940,734.75,65.7505,69.665,138.354,98.6707,97.734,0.00651234,0.189581,20.7942,7.13627,0.0853277,0.0,0.0
2947,736.5,65.6903,69.4655,142.053,98.6671,95.484,0.00644523,0.189705,20.7942,7.10624,0.293341,0.0,0.0
2954,738.25,65.3923,69.7397,141.772,98.6746,96.0794,0.00634994,0.189987,20.7943,7.08622,0.238423,0.0,0.0
2961,740,65.7837,69.7172,144.732,98.6683,96.3115,0.00625628,0.189881,20.7948,7.02617,0.216259,0.0,0.0
2968,741.75,66,69.2014,143.416,98.6727,95.622,0.00621973,0.189528,20.7955,7.04619,0.280932,0.0,0.0
2975,743.5,66.2304,69.244,143.585,98.6731,95.5795,0.00630807,0.189613,20.7958,7.00615,0.284944,0.0,0.0
2982,745.25,65.8017,69.4433,142.23,98.6616,95.97,0.00647197,0.190162,20.796,7.00615,0.247424,0.0,0.0
2989,747,65.4192,68.7631,142.968,98.6485,95.7939,0.00657757,0.190806,20.7961,6.9461,0.262675,0.0,0.0
2996,748.75,65.7862,69.1888,141.827,98.6477,96.5781,0.00669749,0.190758,20.7961,6.93609,0.18967,0.0,0.0
3003,750.5,65.7408,69.2358,141.067,98.6382,95.8422,0.0067397,0.19042,20.7967,6.90607,0.257234,0.0,0.0
3010,752.25,65.8654,68.8733,142.009,98.6438,97.2271,0.006663,0.189948,20.7976,6.88605,0.129398,0.0,0.0
3017,754,65.7694,69.5122,137.211,98.6287,96.5557,0.00655761,0.189453,20.798,6.86603,0.190022,0.0,0.0
3024,755.75,65.539,69.6135,143.843,98.6367,95.7425,0.00647236,0.189037,20.7982,6.81599,0.266399,0.0,0.0
3031,757.5,64.7401,68.9792,138.755,98.6109,96.0461,0.00649953,0.188755,20.7983,6.80598,0.235739,0.0,0.0
3038,759.25,65.9032,69.0563,140.928,98.5852,96.1504,,0.188826,,6.74592,0.223697,0.0,0.0
3045,761,65.406,69.4776,142.948,98.5907,95.9233,,,,6.70589,0.245358,0.0,0.0
3052,762.75,65.9397,68.7759,142.581,98.5714,96.3146,,,,6.68587,0.207179,0.0,0.0
3059,764.5,65.5018,69.0908,144.278,98.5725,95.0193,,,,6.63583,0.328407,0.0,0.0
3066,766.25,65.3616,69.2808,139.432,98.571,97.0359,,,,6.64584,0.140405,0.0,0.0
3073,768,65.9214,68.8721,144.658,98.5425,95.3407,,,,6.68587,0.295469,0.0,0.0
3076,768.75,65.0355,69.3994,138.954,98.5389,95.9503,,,,6.65585,0.238132,0.0,0.0