File: 01_Data/PC/Cone/PC_Cone_HF75Scan_220216_R1.csv
Names,Time,Stack TC,Smoke TC,Exh Press,Smoke Comp,Smoke Meas,CO Meter,CO2 Meter,O2 Meter,Sample Mass,Ext Coeff,Start Test,Flame Verif
Chan Gain,,500,500,1,1,1,1,1,1,1,1,1.0,1.0
Offset,,0,0,0.140898,0,0,0,0,0,0,0,0.0,0.0
Gain,,1,1,25.011,12.9668,12.6588,1,1,1,1.00088,1.01977,1.0,1.0
Units,sec,C,C,Pa,%,%,%,%,%,g,/m,,
Baseline,,45.5722,48.9438,148.697,97.6294,96.8898,-0.00292437,0.0619228,20.9712,-873.385,0.068123,,
7,1.5,44.1092,46.8278,151.039,98.1159,97.6571,-0.0023157,0.0682991,20.9661,59.3421,0.0419282,0.0,0.0
14,3.25,44.304,46.6459,148.493,98.0724,97.1228,-0.00241691,0.0677736,20.9678,59.2921,0.0870323,0.0,0.0
21,5,44.1166,47.176,149.584,98.009,96.514,-0.00255249,0.0667189,20.9697,59.3021,0.137508,0.0,0.0
28,6.75,44.0409,47.4559,146.924,97.9434,96.1999,-0.00272382,0.0653339,20.972,59.252,0.160668,0.0,0.0
35,8.5,43.9049,47.5796,148.178,97.8749,97.4848,-0.00290649,0.0640162,20.974,59.2721,0.0357254,0.0,0.0
42,10.25,44.3196,47.0497,150,97.829,97.6014,-0.00300637,0.0627064,20.9767,59.242,0.0208307,0.0,0.0
49,12,43.8163,47.175,147.629,97.8064,96.0214,-0.00305803,0.0616819,20.9781,59.222,0.164766,0.0,0.0
56,13.75,44.5265,47.7908,147.861,97.9726,96.8597,-0.00311138,0.0610169,20.9787,59.152,0.102196,0.0,0.0
63,15.5,44.871,47.3038,150.175,98.1851,96.9486,-0.00317213,0.060462,20.9795,59.202,0.113374,0.0,0.0
70,17.25,44.4046,47.6308,148.098,98.3743,97.4288,-0.00323285,0.0599952,20.9798,59.162,0.0863944,0.0,0.0
77,19,44.6208,47.6436,147.626,98.5207,97.2032,-0.00325334,0.0595375,20.98,59.202,0.120436,0.0,0.0
84,20.75,44.6745,47.5012,146.224,98.6374,97.4724,-0.00323027,0.0592917,20.9801,59.202,0.106283,0.0,0.0
91,22.5,44.5511,47.6298,148.414,98.6849,97.3164,-0.00321766,0.0591293,20.9801,59.222,0.124923,0.0,0.0
98,24.25,45.0267,47.8991,151.313,98.6655,97.1066,-0.00320385,0.0589286,20.98,59.242,0.142468,0.0,0.0
105,26,44.9582,47.5671,146.49,98.6066,97.8696,-0.00315299,0.0586695,20.9796,59.202,0.0671122,0.0,0.0
112,27.75,44.7498,48.0151,146.74,98.4875,97.2596,-0.00309371,0.058719,20.9795,59.192,0.112228,0.0,0.0
119,29.5,44.5902,48.2838,149.716,98.2908,96.9853,-0.00309633,0.0587875,20.9798,59.222,0.11961,0.0,0.0
126,31.25,44.927,48.2126,145.542,98.1784,96.9381,-0.00315969,0.0588609,20.9804,59.152,0.113724,0.0,0.0
133,33,45.0682,48.0693,147.377,98.2698,97.2522,-0.00321905,0.0589283,20.9813,59.1319,0.093113,0.0,0.0
140,34.75,45.1297,48.4503,148.388,98.3866,97.2372,-0.00324686,0.0588593,20.9823,59.172,0.10512,0.0,0.0
147,36.5,45.4644,48.7058,148.491,98.5231,97.5899,-0.00324899,0.0587187,20.9828,59.1319,0.0851354,0.0,0.0
154,38.25,45.5103,48.6569,147.453,98.6636,97.384,-0.00325145,0.05871,20.983,59.1219,0.116774,0.0,0.0
161,40,45.4001,48.8281,149.907,98.7767,97.4203,-0.00317492,0.058745,20.9831,59.1419,0.123694,0.0,0.0
168,41.75,45.1852,48.8239,146.99,98.8776,97.5597,-0.0030254,0.0589377,20.9832,59.172,0.120032,0.0,0.0
175,43.5,45.8088,48.8778,144.065,98.9449,97.0177,-0.00290164,0.059171,20.9832,59.152,0.17595,0.0,0.0
182,45.25,45.5935,49.0595,150.881,98.9667,96.4668,-0.00280242,0.0594023,20.9826,59.172,0.228856,0.0,0.0
189,47,45.6845,49.2005,146.581,98.9493,95.2202,-0.00272541,0.0597741,20.9818,59.162,0.343637,0.0,0.0
196,48.75,45.4695,48.9471,152.022,98.8812,96.3115,-0.00268274,0.060163,20.9813,59.152,0.23554,0.0,0.0
203,50.5,45.6851,48.7795,145.858,98.787,95.1893,-0.00257204,0.0604813,20.9801,59.152,0.331861,0.0,0.0
210,52.25,45.5495,48.7901,152.018,98.6398,94.1064,-0.00223194,0.0615811,20.9795,59.1119,0.420865,0.0,0.0
217,54,45.9824,49.2936,138.691,98.4558,70.572,-0.0015493,0.0723527,20.9628,59.0318,2.97857,0.0,1.0
224,55.75,46.7065,50.3264,146.097,98.2449,84.5034,-0.00049039,0.112166,20.9002,58.9117,1.34781,0.0,1.0
231,57.5,46.4353,50.9133,142.537,98.0328,78.6874,0.000798899,0.150734,20.8393,58.7616,1.96636,0.0,1.0
238,59.25,47.7047,51.9679,139.675,97.808,71.87,0.00235421,0.193121,20.7588,58.6815,2.75648,0.0,1.0
245,61,48.6273,53.1992,131.033,97.6034,64.6926,0.00418597,0.241491,20.6897,58.5114,3.67891,0.0,0.0
252,62.75,49.5689,54.8015,137.14,97.423,64.3882,0.00623238,0.295252,20.6247,58.3212,3.70455,0.0,0.0
259,64.5,50.403,56.7716,137.861,97.2615,57.4952,0.0093934,0.347408,20.5299,58.1911,4.70259,0.0,0.0
266,66.25,51.8787,58.3747,131.931,97.1547,50.0199,0.0128924,0.409455,20.4274,57.9309,5.93865,0.0,0.0
273,68,52.6583,59.8002,128.548,97.0851,48.5303,0.0165714,0.484869,20.3294,57.6306,6.20269,0.0,0.0
280,69.75,55.0553,62.9093,122.971,97.074,45.7747,0.0198303,0.557003,20.2326,57.3804,6.72458,0.0,0.0
287,71.5,56.941,64.983,122.252,97.0942,43.8524,0.022578,0.624659,20.1303,56.98,7.11022,0.0,0.0
294,73.25,58.8844,67.0723,126.121,97.197,44.8931,0.0245282,0.680596,20.0594,56.6297,6.90987,0.0,0.0
301,75,60.1566,70.0373,130.791,97.328,44.2472,0.0260363,0.72059,20.0197,56.3295,7.05156,0.0,0.0
308,76.75,61.3054,71.8742,126.343,97.4744,44.3867,0.0270931,0.74607,20.0008,56.0392,7.03686,0.0,0.0
315,78.5,62.8081,73.7551,121.407,97.6482,45.2497,0.0277225,0.763713,19.984,55.6589,6.88053,0.0,0.0
322,80.25,64.4321,75.7316,131.464,97.8397,43.6677,0.0281169,0.777139,19.9712,55.3086,7.21639,0.0,0.0
329,82,65.4977,77.3005,125.651,97.9956,42.063,0.0283948,0.784919,19.9629,54.9783,7.56556,0.0,0.0
336,83.75,66.9516,78.9045,128.123,98.1452,40.5656,0.0285029,0.791263,19.9594,54.698,7.90345,0.0,0.0
343,85.5,68.328,80.6504,127.239,98.2417,44.2294,0.0284445,0.793012,19.9625,54.4078,7.13874,0.0,0.0
350,87.25,68.9757,81.486,125.52,98.3118,42.5934,0.0284738,0.78955,19.9682,54.0775,7.48228,0.0,0.0
357,89,70.0897,83.4003,124.131,98.3387,41.779,0.0287299,0.786302,19.9715,53.7472,7.65741,0.0,0.0
364,90.75,71.1212,84.3448,125.334,98.3221,40.0027,0.0291071,0.785309,19.9701,53.4469,8.04455,0.0,0.0
371,92.5,72.2072,85.7979,121.501,98.2473,38.7047,0.0296563,0.788328,19.9588,53.0966,8.33281,0.0,0.0
378,94.25,72.9091,86.7595,124.396,98.1535,39.6129,0.0302625,0.796748,19.9435,52.7563,8.11679,0.0,0.0
385,96,73.9059,88.0977,116.109,98.0502,39.8486,0.030976,0.80996,19.9237,52.416,8.05431,0.0,0.0
392,97.75,75.3619,89.4029,123.767,97.9679,39.1335,0.0315237,0.822678,19.9083,52.0557,8.20878,0.0,0.0
399,99.5,76.1564,90.7968,118.679,97.882,37.6338,0.032137,0.832949,19.898,51.7254,8.55048,0.0,0.0
406,101.25,77.7527,92.0731,125.434,97.806,38.2176,0.0325736,0.839909,19.8911,51.3751,8.40585,0.0,0.0
413,103,78.13,93.076,122.305,97.7969,38.1426,0.0331675,0.846368,19.8839,51.0148,8.42258,0.0,0.0
420,104.75,78.6403,94.7253,123.267,98.0633,41.4186,0.0337816,0.853162,19.871,50.6445,7.70983,0.0,0.0
427,106.5,79.6419,95.3306,124.657,98.305,39.5565,0.0343437,0.864094,19.8507,50.2541,8.14333,0.0,0.0
434,108.25,80.7396,96.2595,122.533,98.4748,41.7408,0.0349398,0.876936,19.8331,49.8838,7.67798,0.0,0.0
441,110,81.3756,97.5888,121.233,98.5836,39.4349,0.0357028,0.887634,19.8197,49.4634,8.19621,0.0,0.0
448,111.75,82.4525,98.285,124.622,98.6469,38.2674,0.0366197,0.895381,19.8107,49.1432,8.47078,0.0,0.0
455,113.5,82.9189,99.7755,117.639,98.662,35.8726,0.0375013,0.90592,19.787,48.8229,9.05022,0.0,0.0
462,115.25,83.8812,100.73,123.808,98.6093,36.8234,0.038311,0.919191,19.7702,48.3625,8.81146,0.0,0.0
469,117,85.0185,101.551,124.401,98.5025,35.7714,0.0390752,0.932917,19.749,47.9921,9.06103,0.0,0.0
476,118.75,84.9788,102.591,123.893,98.3517,36.0283,0.0398286,0.946753,19.731,47.5918,8.98331,0.0,0.0
483,120.5,86.6258,103.708,120.298,98.178,35.9178,0.0405497,0.959839,19.7125,47.1614,8.99497,0.0,0.0
490,122.25,87.3988,104.919,126.514,98.1847,36.7121,0.0411799,0.969175,19.7029,46.7811,8.79993,0.0,0.0
497,124,88.2765,105.488,113.702,98.252,35.8205,0.0417604,0.977835,19.6922,46.4308,9.02599,0.0,0.0
504,125.75,88.4002,107.052,123.756,98.3422,37.4245,0.0421886,0.984229,19.6813,46.0404,8.64235,0.0,0.0
511,127.5,89.4616,107.657,121.375,98.4459,36.5525,0.0424078,0.993161,19.6665,45.6501,8.86265,0.0,0.0
518,129.25,90.0333,108.359,119.311,98.552,35.8178,0.0421024,1.00374,19.6574,45.2497,9.05393,0.0,0.0
525,131,90.3337,108.737,116.991,98.6454,37.1065,0.0412655,1.00826,19.6548,44.8094,8.7462,0.0,0.0
532,132.75,91.6828,110.132,116.496,98.7201,37.6335,0.0405495,1.0043,19.6566,44.439,8.62684,0.0,0.0
539,134.5,92.6341,110.784,120.6,98.8171,39.6462,0.0402839,1.00548,19.6497,44.0587,8.16956,0.0,0.0
546,136.25,92.8211,111.876,117.446,98.8646,35.5091,0.0401588,1.01693,19.6338,43.6283,9.15968,0.0,0.0
553,138,93.5727,112.257,121.2,98.9105,38.2628,0.0395368,1.02598,19.6262,43.1979,8.49573,0.0,0.0
560,139.75,94.2547,113.069,126.071,98.9291,43.4205,0.038204,1.01868,19.6456,42.8777,7.36623,0.0,0.0
567,141.5,94.4391,113.406,119.953,98.9473,42.3751,0.0361843,0.99245,19.7013,42.5674,7.58588,0.0,0.0
574,143.25,94.6475,113.331,125.218,98.9354,43.4085,0.0339251,0.948789,19.7566,42.1971,7.36927,0.0,0.0
581,145,94.8696,113.251,125.1,98.9093,49.1457,0.0315457,0.903359,19.8213,41.9468,6.25649,0.0,0.0
588,146.75,94.9124,112.822,129.269,98.8523,50.1768,0.0290573,0.857757,19.8882,41.6666,6.0656,0.0,0.0
595,148.5,94.5184,112.635,130.675,98.7854,49.4903,0.0266263,0.80891,19.9642,41.3863,6.18278,0.0,0.0
602,150.25,94.5255,112.259,128.845,98.7166,51.3145,0.0242984,0.774131,20.0228,41.1561,5.85275,0.0,0.0
609,152,94.2626,111.552,126.415,98.6291,54.3683,0.0221297,0.738008,20.0688,40.9259,5.32771,0.0,0.0
616,153.75,93.9686,111.088,127.26,98.5203,57.0695,0.0200963,0.703673,20.1187,40.6557,4.8841,0.0,0.0
623,155.5,93.3494,110.252,127.987,98.4067,59.2603,0.0185364,0.670176,20.1684,40.4555,4.53681,0.0,0.0
630,157.25,93.1988,109.841,132.18,98.2817,57.749,0.0172685,0.639234,20.2096,40.2654,4.75652,0.0,0.0
637,159,93.0336,109.284,130.359,98.1527,58.916,0.0160881,0.613457,20.2389,40.1553,4.5658,0.0,0.0
644,160.75,92.3252,108.426,137.918,98.0419,62.4053,0.0150144,0.5899,20.2702,39.9551,4.04101,0.0,0.0
651,162.5,92.2521,107.81,130.24,97.9145,62.199,0.0140767,0.569462,20.2956,39.7849,4.059,0.0,0.0
658,164.25,91.3545,106.762,129.611,97.7989,61.6898,0.0133089,0.552347,20.317,39.5848,4.12196,0.0,0.0
665,166,91.1208,106.2,131.958,97.6818,63.4317,0.0125657,0.538523,20.3329,39.3245,3.86216,0.0,0.0
672,167.75,90.9312,105.467,131.597,97.5809,64.4392,0.0118785,0.523616,20.3545,39.1644,3.71195,0.0,0.0
679,169.5,90.2116,104.721,135.358,97.4792,67.016,0.0112139,0.506929,20.3744,39.0143,3.35189,0.0,0.0
686,171.25,89.5758,104.06,135.782,97.3925,68.3345,0.0102768,0.486329,20.401,38.8341,3.16965,0.0,0.0
693,173,88.9459,103.135,132.094,97.3142,69.1021,0.00936247,0.471668,20.4255,38.6539,3.06252,0.0,0.0
700,174.75,88.8029,102.063,134.968,97.2418,70.1938,0.00857099,0.45574,20.4474,38.5338,2.91564,0.0,0.0
707,176.5,88.3236,101.514,140.206,97.1875,70.3452,0.00799662,0.440045,20.4703,38.3537,2.89138,0.0,0.0
714,178.25,87.957,100.738,138.095,97.1377,72.8988,0.0075443,0.423324,20.4911,38.1635,2.56782,0.0,0.0
721,180,87.3196,100.112,133.303,97.0997,71.7719,0.00713776,0.410443,20.5073,38.1135,2.70368,0.0,0.0
728,181.75,86.6779,99.3532,135.298,97.0767,73.1739,0.00681804,0.398602,20.523,37.9734,2.52852,0.0,0.0
735,183.5,86.4543,98.3582,132.175,97.072,74.6167,0.0065084,0.389505,20.5336,37.8733,2.35341,0.0,0.0
742,185.25,85.2974,97.4514,134.014,97.0617,73.2542,0.00629081,0.38187,20.5414,37.7331,2.51732,0.0,0.0
749,187,85.626,96.8847,132.018,97.0625,73.9028,0.00616906,0.375725,20.5505,37.583,2.43853,0.0,0.0
756,188.75,85.1565,96.3086,135.507,97.0763,75.1958,0.00621691,0.369024,20.5597,37.5129,2.28466,0.0,0.0
763,190.5,84.2692,95.4283,136.422,97.0902,74.4958,0.00633334,0.363567,20.5653,37.3728,2.3696,0.0,0.0
770,192.25,83.4019,94.2897,139.652,97.1191,76.8323,0.00641654,0.358946,20.5718,37.2727,2.09601,0.0,0.0
777,194,83.6217,94.1921,139.752,97.1365,74.6082,0.00643456,0.354012,20.5778,37.1426,2.36037,0.0,0.0
784,195.75,83.2638,93.4843,131.98,97.1682,74.9934,0.00640331,0.348016,20.5864,37.0926,2.31722,0.0,0.0
791,197.5,82.5893,92.7897,133.505,97.2069,74.0346,0.0063597,0.34271,20.5946,36.9224,2.4359,0.0,0.0
798,199.25,82.4703,92.6511,138.526,97.2576,75.0602,0.00634489,0.337958,20.6022,36.8624,2.31749,0.0,0.0
805,201,81.8341,91.7556,136.831,97.2888,76.7164,0.00634807,0.334261,20.6066,36.7423,2.12514,0.0,0.0
812,202.75,81.5301,91.2359,131.164,97.3344,75.783,0.00634123,0.331742,20.6087,36.6422,2.23882,0.0,0.0
819,204.5,81.0897,90.6811,131.399,97.3886,76.7975,0.00625161,0.329653,20.6097,36.5521,2.12484,0.0,0.0
826,206.25,80.9977,90.5006,134.156,97.4337,75.051,0.0061099,0.328539,20.6102,36.432,2.33477,0.0,0.0
833,208,80.8943,89.9014,137.545,97.4839,75.9441,0.00602102,0.3278,20.6104,36.2919,2.23356,0.0,0.0
840,209.75,80.2353,89.4894,136.484,97.5409,76.1771,0.00608315,0.326883,20.6106,36.2318,2.21139,0.0,0.0
847,211.5,79.5278,88.5525,134.281,97.5951,77.1819,0.0061743,0.32649,20.6098,36.1217,2.09914,0.0,0.0
854,213.25,79.5857,88.4122,136.233,97.6608,75.9777,0.00619059,0.326945,20.6091,36.0116,2.24582,0.0,0.0
861,215,79.616,88.3513,138.983,97.7225,74.5414,0.00619392,0.327984,20.6087,35.8815,2.4222,0.0,0.0
868,216.75,79.4806,88.1319,131.089,97.7684,74.5136,0.00635609,0.328782,20.6079,35.7614,2.42973,0.0,0.0
875,218.5,79.2838,87.7554,133.948,97.8361,75.4137,0.00662313,0.32953,20.6074,35.6513,2.32851,0.0,0.0
882,220.25,78.7119,87.5763,133.947,97.8753,75.7467,0.00681376,0.329748,20.6079,35.5712,2.29268,0.0,0.0
889,222,78.4635,87.0879,136.92,97.9291,76.7627,0.0068142,0.329649,20.6081,35.4511,2.17841,0.0,0.0
896,223.75,78.7886,86.8113,137.392,97.9608,76.4135,0.00668837,0.329314,20.6083,35.341,2.22209,0.0,0.0
903,225.5,78.4961,86.7064,138.844,98.0023,75.9623,0.00654076,0.328815,20.6093,35.2309,2.27886,0.0,0.0
910,227.25,77.9295,86.4959,139.982,98.0316,78.0472,0.00645554,0.328001,20.6106,35.1008,2.03932,0.0,0.0
917,229,78.1669,86.2401,137.12,98.066,77.3136,0.00649173,0.326978,20.6118,34.9907,2.12694,0.0,0.0
924,230.75,77.6528,85.8853,136.355,98.0973,77.1027,0.00650065,0.325989,20.6134,34.8906,2.15423,0.0,0.0
931,232.5,77.5789,85.2904,131.166,98.1139,77.2993,0.00644293,0.324829,20.6151,34.8206,2.13296,0.0,0.0
938,234.25,77.5989,85.3482,135.797,98.1329,77.214,0.00628584,0.323762,20.6164,34.6905,2.14458,0.0,0.0
945,236,77.6222,85.555,135.451,98.1638,77.7799,0.00610583,0.322665,20.6169,34.5704,2.08206,0.0,0.0
952,237.75,77.2863,85.0998,136.564,98.1927,77.2831,0.00588941,0.321644,20.6187,34.5003,2.14202,0.0,0.0
959,239.5,77.3681,84.9056,137.367,98.2014,77.5647,0.00583442,0.320854,20.6195,34.3702,2.11027,0.0,0.0
966,241.25,76.9488,84.355,137.631,98.2116,77.7475,0.00594005,0.320485,20.619,34.2901,2.09016,0.0,0.0
973,243,77.0404,84.5188,137.645,98.2405,76.8562,0.00609352,0.320706,20.6176,34.2,2.19592,0.0,0.0
980,244.75,76.3442,84.2094,136.121,98.2564,77.0138,0.00615056,0.3212,20.6168,34.0599,2.17904,0.0,0.0
987,246.5,76.997,84.3784,137.56,98.2579,77.664,0.00616599,0.321605,20.6165,33.9398,2.10398,0.0,0.0
994,248.25,76.52,83.7834,131.579,98.2694,75.727,0.00625277,0.322136,20.6163,33.8597,2.33096,0.0,0.0
1001,250,76.7696,84.2902,133.704,98.2833,77.3256,0.00640837,0.322453,20.6162,33.7396,2.14535,0.0,0.0
1008,251.75,76.8047,84.0273,136.596,98.2821,75.8286,0.0065362,0.32242,20.6156,33.6395,2.32012,0.0,0.0
1015,253.5,76.4461,83.7828,131.009,98.2983,77.3751,0.00660986,0.322801,20.6147,33.4794,2.141,0.0,0.0
1022,255.25,76.4922,84.1065,135.752,98.2936,75.1452,0.00670244,0.324442,20.6125,33.3993,2.40214,0.0,0.0
1029,257,76.4636,83.5846,134.701,98.3015,75.6107,0.00678321,0.326707,20.6084,33.2692,2.34762,0.0,0.0
1036,258.75,76.3589,83.7778,133.376,98.309,74.881,0.00676144,0.328927,20.6043,33.1791,2.43506,0.0,0.0
1043,260.5,76.2491,83.5181,131.786,98.3296,76.4263,0.00671089,0.330731,20.6026,33.0991,2.25421,0.0,0.0
1050,262.25,76.369,83.939,136.459,98.305,76.0415,0.00669026,0.331915,20.6026,32.979,2.29713,0.0,0.0
1057,264,76.0126,83.3474,133.052,98.3027,76.2176,0.00669884,0.333183,20.6014,32.8689,2.27621,0.0,0.0
1064,265.75,76.2097,83.5022,139.319,98.3066,75.6969,0.00665709,0.33403,20.6006,32.7388,2.3379,0.0,0.0
1071,267.5,76.1967,83.4293,130.165,98.3181,76.0148,0.00654113,0.33428,20.5993,32.6086,2.30145,0.0,0.0
1078,269.25,76.0992,83.4077,135.736,98.3177,76.7736,0.00636927,0.334544,20.5986,32.5186,2.21257,0.0,0.0
1085,271,75.4569,82.6889,136.188,98.3126,75.9866,0.00623459,0.334673,20.5983,32.3784,2.30427,0.0,0.0
1092,272.75,76.3643,83.6055,138.56,98.3173,77.6381,0.00618936,0.334507,20.5994,32.2683,2.11236,0.0,0.0
1099,274.5,76.5757,83.5309,134.849,98.311,76.4745,0.0062151,0.333611,20.6011,32.2183,2.24687,0.0,0.0
1106,276.25,75.9384,83.0854,136.474,98.3141,76.7987,0.00624442,0.332417,20.6018,32.0682,2.20932,0.0,0.0
1113,278,76.2576,83.1245,135.754,98.3102,77.3186,0.00627561,0.331587,20.6019,31.9881,2.1486,0.0,0.0
1120,279.75,75.9645,83.1554,135.257,98.3042,76.881,0.00639499,0.331257,20.6018,31.898,2.19884,0.0,0.0
1127,281.5,76.2378,83.5978,139.824,98.2959,76.5248,0.00647409,0.331163,20.6018,31.7279,2.23963,0.0,0.0
1134,283.25,76.4473,83.7106,133.52,98.2975,77.5694,0.00640653,0.33135,20.602,31.6378,2.11849,0.0,0.0
1141,285,76.1111,83.2552,135.531,98.2975,75.1638,0.00621089,0.331963,20.6014,31.5177,2.4003,0.0,0.0
1148,286.75,75.632,82.4913,137.824,98.2876,76.5982,0.00608856,0.332595,20.6009,31.4476,2.2303,0.0,0.0
1155,288.5,75.9791,83.4372,134.513,98.286,77.4029,0.0060248,0.332621,20.601,31.3375,2.13667,0.0,0.0
1162,290.25,76.1539,83.1807,136.186,98.2959,77.7536,0.00607089,0.332247,20.6015,31.2174,2.09712,0.0,0.0
1169,292,75.9546,82.9577,135.342,98.2971,77.0088,0.00612485,0.331591,20.6033,31.0973,2.18333,0.0,0.0
1176,293.75,75.8916,83.0957,139.581,98.2825,78.6592,0.0061427,0.330772,20.6046,30.9972,1.99232,0.0,0.0
1183,295.5,75.9651,82.911,136.255,98.286,78.4602,0.00613374,0.32988,20.6052,30.8871,2.0153,0.0,0.0
1190,297.25,75.9047,82.9785,137.13,98.2849,78.4467,0.00617015,0.329315,20.6055,30.787,2.01673,0.0,0.0
1197,299,76.2326,83.3108,133.565,98.2896,76.4436,0.00621234,0.329066,20.6056,30.6769,2.24854,0.0,0.0
1204,300.75,75.7738,82.9734,133.134,98.2777,77.9468,0.00614701,0.328955,20.6057,30.5769,2.07327,0.0,0.0
1211,302.5,76.0775,83.3038,133.904,98.2868,77.5624,0.00599225,0.328386,20.6068,30.4467,2.11832,0.0,0.0
1218,304.25,75.764,83.1632,136.525,98.271,77.9298,0.00586013,0.327758,20.6075,30.3467,2.07461,0.0,0.0
1225,306,76.4098,83.1329,136.576,98.2825,78.7654,0.00581747,0.327039,20.6086,30.2466,1.98025,0.0,0.0
1232,307.75,75.9206,82.8165,138.383,98.2872,77.3074,0.0057907,0.326302,20.6101,30.1665,2.14781,0.0,0.0
1239,309.5,75.8715,83.0477,134.456,98.2841,79.0142,0.00568599,0.325469,20.6108,30.0364,1.95218,0.0,0.0
1246,311.25,75.7588,82.7309,137.889,98.2809,77.9286,0.00552977,0.324291,20.6122,29.9363,2.07564,0.0,0.0
1253,313,75.9467,82.7428,132.785,98.2762,78.5363,0.00541,0.322906,20.6138,29.8162,2.00572,0.0,0.0
1260,314.75,76.0835,82.7065,134.665,98.2864,78.8091,0.00528861,0.321408,20.6161,29.7161,1.97565,0.0,0.0
1267,316.5,76.375,83.4753,135.51,98.286,77.5103,0.00516928,0.320367,20.6173,29.636,2.12426,0.0,0.0
1274,318.25,75.9945,82.6233,136.364,98.2722,78.376,0.00507829,0.319724,20.619,29.5459,2.02364,0.0,0.0
1281,320,75.9461,82.4487,136.756,98.2829,78.9014,0.00502592,0.319376,20.6201,29.4359,1.96485,0.0,0.0
1288,321.75,75.833,82.7612,132.109,98.2801,78.8091,0.0049783,0.318296,20.6215,29.3358,1.97507,0.0,0.0
1295,323.5,75.7098,82.2988,138.463,98.2817,78.3938,0.00493898,0.316887,20.6237,29.2357,2.02248,0.0,0.0
1302,325.25,75.5044,82.4689,131.835,98.2781,81.6145,0.00494946,0.315756,20.6257,29.1856,1.662,0.0,0.0
1309,327,75.723,82.5865,143.523,98.2789,80.3172,0.00495779,0.315202,20.6266,29.0355,1.8054,0.0,0.0
1316,328.75,74.913,81.6467,135.616,98.2817,79.3696,0.00497855,0.314295,20.628,28.9654,1.91182,0.0,0.0
1323,330.5,75.0233,81.86,135.965,98.2959,80.2809,0.00497195,0.312509,20.6291,28.8854,1.81099,0.0,0.0
1330,332.25,75.5556,82.46,134.834,98.2817,80.7565,0.00489223,0.310849,20.6314,28.7352,1.75686,0.0,0.0
1337,334,75.1843,81.9845,140.836,98.2853,82.3887,0.0048171,0.308767,20.6358,28.6552,1.57819,0.0,0.0
1344,335.75,75.2239,82.0063,137.063,98.2801,81.1571,0.00477451,0.306365,20.6403,28.5751,1.71245,0.0,0.0
1351,337.5,75.2419,81.945,138.625,98.3086,81.3603,0.00472052,0.303883,20.644,28.475,1.69267,0.0,0.0
1358,339.25,75.5456,82.3605,134.001,98.3007,82.1971,0.00462683,0.301471,20.6473,28.3949,1.60042,0.0,0.0
1365,341,75.6338,82.2521,136.257,98.2983,82.8271,0.00448041,0.299327,20.6505,28.3349,1.5319,0.0,0.0
1372,342.75,74.9218,81.1317,138.086,98.3031,83.1544,0.00439892,0.297757,20.6515,28.2048,1.49706,0.0,0.0
1379,344.5,74.4548,80.8185,134.018,98.3066,80.3806,0.00439229,0.296808,20.652,28.1747,1.80086,0.0,0.0
1386,346.25,75.2595,81.6985,138.49,98.3122,81.4708,0.00441847,0.296305,20.6523,28.0446,1.68086,0.0,0.0
1393,348,75.1,82.1318,134.691,98.3038,81.1629,0.00448024,0.296081,20.6518,27.9846,1.71397,0.0,0.0
1400,349.75,74.7752,81.4164,135.097,98.3042,82.1739,0.00456275,0.296354,20.651,27.8745,1.60327,0.0,0.0
1407,351.5,74.8205,81.3385,135.836,98.305,81.363,0.00463753,0.296965,20.6506,27.7944,1.69205,0.0,0.0
1414,353.25,74.2457,81.3855,137.527,98.3197,82.2415,0.00471831,0.298001,20.6502,27.6843,1.59732,0.0,0.0
1421,355,75.1831,81.5663,136.447,98.3106,81.4886,0.00473276,0.298842,20.6487,27.5742,1.67876,0.0,0.0
1428,356.75,74.8528,81.1756,136.655,98.3149,83.0249,0.00461737,0.299367,20.6479,27.4941,1.51207,0.0,0.0
1435,358.5,74.7967,81.7416,138.295,98.3126,82.2052,0.00446686,0.298708,20.6491,27.3941,1.60062,0.0,0.0
1442,360.25,74.2833,80.9785,141.313,98.3153,83.5341,0.00443715,0.29712,20.6517,27.334,1.45742,0.0,0.0
1449,362,74.5447,81.1638,137.28,98.3157,82.8214,0.00448717,0.29538,20.6543,27.2439,1.53411,0.0,0.0
1456,363.75,74.7859,81.1087,139.089,98.2955,82.6371,0.00452117,0.293488,20.6576,27.1038,1.5522,0.0,0.0
1463,365.5,74.37,80.7955,137.055,98.3126,83.7257,0.00456218,0.291733,20.66,27.0438,1.43667,0.0,0.0
1470,367.25,73.9581,80.3083,131.223,98.3035,82.09,0.00455089,0.290349,20.6621,26.9637,1.61233,0.0,0.0
1477,369,74.3066,80.578,136.347,98.3133,83.3259,0.00441257,0.289479,20.6631,26.9036,1.47956,0.0,0.0
1484,370.75,74.0388,80.6062,137.802,98.3058,81.4414,0.00419409,0.289295,20.6624,26.8236,1.68351,0.0,0.0
1491,372.5,74.4428,81.0178,133.331,98.3066,81.7682,0.00411396,0.289879,20.6619,26.7135,1.64775,0.0,0.0
1498,374.25,74.2278,80.5943,137.045,98.3086,82.1932,0.00414774,0.290694,20.6614,26.6334,1.60156,0.0,0.0
1505,376,74.0869,80.273,138.639,98.3054,84.0247,0.00418994,0.291598,20.6598,26.5433,1.40413,0.0,0.0
1512,377.75,74.5695,80.7425,134.884,98.2963,83.0864,0.00421538,0.292519,20.6575,26.4532,1.50377,0.0,0.0
1519,379.5,74.3119,80.7342,137.873,98.2963,82.3485,0.00429462,0.293087,20.6561,26.3732,1.58356,0.0,0.0
1526,381.25,74.2963,80.6173,139.12,98.2963,81.9023,0.00446295,0.294017,20.6545,26.2531,1.63216,0.0,0.0
1533,383,74.4355,80.5923,138.206,98.3046,82.4192,0.00461426,0.295635,20.6515,26.193,1.57664,0.0,0.0
1540,384.75,74.275,80.646,134.738,98.3015,80.5382,0.00455132,0.297227,20.6487,26.0929,1.78287,0.0,0.0
1547,386.5,74.3847,80.4857,139.355,98.269,81.9278,0.00437739,0.29961,20.6453,26.0128,1.62689,0.0,0.0
1554,388.25,74.5743,80.718,133.34,98.2678,82.6529,0.00416936,0.302997,20.6407,25.8727,1.54796,0.0,0.0
1561,390,74.3872,80.8829,132.672,98.2615,81.1637,0.0040686,0.306957,20.6333,25.8127,1.71003,0.0,0.0
1568,391.75,74.5059,81.0428,142.593,98.2659,81.1629,0.00408519,0.310868,20.628,25.7126,1.71052,0.0,0.0
1575,393.5,73.9301,80.4901,131.42,98.2504,80.5881,0.00416417,0.313077,20.6255,25.5925,1.77269,0.0,0.0
1582,395.25,74.8651,81.455,138.405,98.2295,80.1554,0.00419387,0.314006,20.6243,25.4824,1.81894,0.0,0.0
1589,397,74.9101,81.1229,136.7,98.2271,81.601,0.00415358,0.314297,20.6237,25.4123,1.65883,0.0,0.0
1596,398.75,74.807,81.2105,135.164,98.2386,80.9995,0.00410023,0.315134,20.6235,25.3022,1.72606,0.0,0.0
1603,400.5,74.2356,80.7975,135.38,98.2188,78.2871,0.00410525,0.317327,20.6211,25.2121,2.02893,0.0,0.0
1610,402.25,75.0631,81.4653,135.421,98.2132,79.2278,0.00422042,0.32188,20.6157,25.082,1.92158,0.0,0.0
1617,404,74.5056,81.1748,136.827,98.1871,78.9246,0.00435065,0.326,20.6097,24.9919,1.9535,0.0,0.0
1624,405.75,74.9224,81.841,133.102,98.1927,79.5164,0.00447886,0.330041,20.6036,24.8819,1.88718,0.0,0.0
1631,407.5,74.9759,81.5792,138.858,98.1705,78.6507,0.00460381,0.333611,20.5988,24.7718,1.98309,0.0,0.0
1638,409.25,74.9425,81.842,135.327,98.1547,78.9253,0.00471786,0.336501,20.5948,24.6817,1.95046,0.0,0.0
1645,411,75.292,82.1287,133.659,98.1392,76.6665,0.00478861,0.340969,20.5893,24.5416,2.2088,0.0,0.0
1652,412.75,75.7549,82.4613,136.261,98.1325,79.7946,0.00484427,0.34431,20.5855,24.4515,1.85046,0.0,0.0
1659,414.5,75.3075,82.1148,131.695,98.1226,78.2501,0.00488204,0.345275,20.5837,24.3114,2.0244,0.0,0.0
1666,416.25,75.6806,82.4853,138.505,98.1127,78.9775,0.00488004,0.347134,20.582,24.2113,1.94073,0.0,0.0
1673,418,75.9348,82.8762,133.466,98.1016,77.6416,0.00492819,0.349807,20.5758,24.0611,2.09232,0.0,0.0
1680,419.75,75.7923,82.8451,135.149,98.0775,77.0965,0.0050916,0.354651,20.5679,23.961,2.15314,0.0,0.0
1687,421.5,76.0668,82.8395,133.826,98.0795,74.893,0.00539197,0.360557,20.5618,23.861,2.41272,0.0,0.0
1694,423.25,76.3504,83.4052,131.865,98.0577,73.7981,0.00568426,0.366756,20.552,23.6908,2.54247,0.0,0.0
1701,425,76.4786,83.9166,130.025,98.0352,72.0365,0.00586479,0.373994,20.54,23.5807,2.75653,0.0,0.0
1708,426.75,76.6738,84.0724,136.177,98.0221,74.6264,0.00598887,0.381819,20.5285,23.4306,2.43938,0.0,0.0
1715,428.5,76.592,84.0111,132.566,98.0067,73.3284,0.00612513,0.387178,20.5216,23.3005,2.59493,0.0,0.0
1722,430.25,77.1183,84.2751,135.424,98.0007,71.7646,0.00635919,0.392656,20.5142,23.1703,2.78722,0.0,0.0
1729,432,77.1012,84.5473,129.939,97.9762,68.5956,0.00671844,0.398666,20.5015,23.0002,3.18898,0.0,0.0
1736,433.75,77.2315,84.7251,135.107,97.9505,71.8584,0.00699528,0.405258,20.4939,22.8601,2.77094,0.0,0.0
1743,435.5,77.9325,85.6249,131.532,97.9501,73.3771,0.00698196,0.407877,20.491,22.6899,2.58383,0.0,0.0
1750,437.25,78.0295,85.5707,129.735,97.9184,71.7418,0.00677258,0.407418,20.4935,22.5898,2.78255,0.0,0.0
1757,439,77.8448,85.3755,134.933,97.9133,74.0597,0.00660477,0.406175,20.4969,22.4397,2.49764,0.0,0.0
1764,440.75,77.6786,85.3485,133.818,97.884,73.2241,0.00649193,0.404307,20.4989,22.3096,2.59646,0.0,0.0
1771,442.5,77.8876,85.6827,131.753,97.8614,75.2762,0.0062976,0.402603,20.5005,22.1695,2.34716,0.0,0.0
1778,444.25,78.1285,86.1574,130.705,97.8531,75.9136,0.00604809,0.400595,20.5034,22.0494,2.27097,0.0,0.0
1785,446,78.6866,86.6503,132.51,97.8413,75.7742,0.00580748,0.399119,20.5064,21.8992,2.28633,0.0,0.0
1792,447.75,78.5495,86.3764,136.274,97.8223,74.4927,0.00568694,0.399622,20.5063,21.7791,2.43716,0.0,0.0
1799,449.5,78.7672,86.9499,135.448,97.8001,75.0398,0.00570141,0.401609,20.5013,21.629,2.36969,0.0,0.0
1806,451.25,78.7632,86.5831,137.032,97.7839,73.4736,0.00575132,0.404234,20.4961,21.4789,2.55687,0.0,0.0
1813,453,79.2031,86.9282,134.212,97.7637,74.8134,0.00577506,0.407183,20.4914,21.3387,2.39338,0.0,0.0
1820,454.75,79.1475,87.2618,134.707,97.7388,73.6989,0.00579069,0.410829,20.4864,21.2286,2.52537,0.0,0.0
1827,456.5,79.1689,87.3509,133.161,97.7103,71.498,0.00585332,0.414395,20.4811,21.0485,2.79396,0.0,0.0
1834,458.25,79.6179,87.7286,133.369,97.7071,72.725,0.00598951,0.417999,20.4754,20.9284,2.64147,0.0,0.0
1841,460,79.7651,87.81,133.727,97.679,71.7947,0.00612461,0.421534,20.4708,20.7883,2.75406,0.0,0.0
1848,461.75,80.0749,88.476,127.677,97.6711,72.9448,0.00620711,0.424321,20.467,20.6181,2.61117,0.0,0.0
1855,463.5,80.0531,88.3792,127.845,97.6395,72.7987,0.00627465,0.425702,20.465,20.488,2.6262,0.0,0.0
1862,465.25,80.2779,88.6779,131.667,97.6106,73.0398,0.00634752,0.425974,20.4642,20.3479,2.59398,0.0,0.0
1869,467,80.1684,88.6491,134.904,97.5888,71.488,0.00644284,0.426442,20.4637,20.1977,2.78409,0.0,0.0
1876,468.75,80.0439,88.8433,134.598,97.569,72.7296,0.00645863,0.42684,20.4652,20.0476,2.62824,0.0,0.0
1883,470.5,79.8325,88.3373,130.943,97.5484,72.5198,0.00633896,0.427451,20.4664,19.9075,2.65219,0.0,0.0
1890,472.25,80.4981,88.925,131.639,97.5176,73.2843,0.00625647,0.427418,20.4669,19.7974,2.55555,0.0,0.0
1897,474,81.1363,89.588,134.805,97.5033,74.2034,0.00623137,0.426428,20.469,19.6473,2.44276,0.0,0.0
1904,475.75,80.7715,89.3901,134.633,97.4903,77.1112,0.00613621,0.423588,20.4749,19.5071,2.09772,0.0,0.0
1911,477.5,80.9258,89.4594,132.375,97.48,75.958,0.00597279,0.41907,20.481,19.347,2.23156,0.0,0.0
1918,479.25,80.6902,89.2057,138.673,97.4479,75.9901,0.00576271,0.413943,20.4866,19.2769,2.22484,0.0,0.0
1925,481,80.7762,89.2036,133.428,97.4364,76.4633,0.0054924,0.40906,20.4934,19.1568,2.16825,0.0,0.0
1932,482.75,81.1448,89.2951,136.106,97.4174,74.1508,0.00523217,0.4066,20.4961,19.0067,2.44122,0.0,0.0
1939,484.5,81.2606,89.6347,133.467,97.3961,75.8904,0.00508599,0.406023,20.4955,18.8666,2.23182,0.0,0.0
1946,486.25,80.9724,89.4943,135.394,97.3814,74.8424,0.00498881,0.406123,20.4953,18.7164,2.35487,0.0,0.0
1953,488,81.426,89.9445,137.101,97.3557,74.9216,0.0049428,0.406553,20.4951,18.6264,2.34305,0.0,0.0
1960,489.75,81.0036,89.1816,130.479,97.3403,75.795,0.00493352,0.406348,20.495,18.4562,2.23795,0.0,0.0
1967,491.5,81.3015,89.6536,133.366,97.3102,74.0357,0.00479386,0.405368,20.4966,18.3461,2.44526,0.0,0.0
1974,493.25,81.1972,89.4315,136.089,97.3019,75.9256,0.00462505,0.404072,20.4988,18.226,2.21902,0.0,0.0
1981,495,81.6242,89.9344,134.069,97.2651,77.3917,0.00445274,0.40094,20.5044,18.0959,2.04456,0.0,0.0
1988,496.75,81.4141,90.087,135.789,97.256,75.5485,0.00432375,0.397945,20.5097,17.9458,2.25933,0.0,0.0
1995,498.5,80.7456,89.0311,129.432,97.2406,78.6259,0.00422061,0.395151,20.5132,17.8457,1.90076,0.0,0.0
2002,500.25,81.3915,89.6218,133.118,97.241,78.6429,0.00412186,0.39275,20.5158,17.7056,1.89886,0.0,0.0
2009,502,80.4437,88.808,131.654,97.2251,76.5263,0.0040791,0.39067,20.5176,17.6055,2.14147,0.0,0.0
2016,503.75,81.3341,89.3158,132.437,97.2006,78.2416,0.00410942,0.38904,20.5194,17.4553,1.94092,0.0,0.0
2023,505.5,81.0416,89.1066,137.092,97.1947,77.6165,0.0041725,0.387896,20.5209,17.3452,2.01213,0.0,0.0
2030,507.25,80.2961,88.705,131.583,97.18,77.8583,0.00415043,0.385895,20.5234,17.2451,1.98295,0.0,0.0
2037,509,80.8135,89.1337,136.157,97.1824,79.0111,0.00399143,0.382576,20.5288,17.115,1.8517,0.0,0.0
2044,510.75,80.6789,88.2903,138.366,97.1507,77.4944,0.00376584,0.379164,20.5326,17.0049,2.02216,0.0,0.0
2051,512.5,80.9167,88.6814,132.791,97.1484,79.8803,0.00353902,0.376254,20.5358,16.9249,1.75069,0.0,0.0
2058,514.25,80.7316,88.5474,138.671,97.1488,80.5788,0.00332837,0.373031,20.5408,16.8048,1.67285,0.0,0.0
2065,516,80.6192,88.5392,137.907,97.1579,79.3132,0.00314356,0.370591,20.5465,16.7347,1.8153,0.0,0.0
2072,517.75,80.8214,88.5036,132.666,97.1238,78.9172,0.00304704,0.368524,20.5501,16.5846,1.85694,0.0,0.0
2079,519.5,80.4331,88.5482,130.825,97.1108,79.2865,0.00295281,0.366658,20.5534,16.5045,1.81397,0.0,0.0
2086,521.25,80.4644,88.1269,132.458,97.1112,78.0306,0.00286936,0.365168,20.556,16.3944,1.95684,0.0,0.0
2093,523,80.3467,88.1089,135.623,97.1052,78.3957,0.00278023,0.363275,20.5602,16.2643,1.91454,0.0,0.0
2100,524.75,80.1536,87.8846,135.042,97.0993,78.2783,0.00269784,0.360897,20.5631,16.1542,1.9274,0.0,0.0
2107,526.5,80.132,87.8998,136.168,97.0922,79.7648,0.00267627,0.358759,20.5655,16.0841,1.75846,0.0,0.0
2114,528.25,80.1456,87.9868,133.433,97.0847,79.2112,0.00265494,0.35692,20.5674,15.964,1.82007,0.0,0.0
2121,530,79.632,87.1829,136.892,97.0791,80.9195,0.00257263,0.355256,20.5701,15.8339,1.62869,0.0,0.0
2128,531.75,80.1402,87.7036,130.934,97.0858,80.8133,0.00253464,0.353339,20.5728,15.7638,1.64106,0.0,0.0
2135,533.5,79.5704,86.9058,130.171,97.0641,80.8272,0.00255998,0.351466,20.5749,15.6537,1.63752,0.0,0.0
2142,535.25,79.9424,87.4938,131.651,97.0581,79.9935,0.00256557,0.349846,20.5767,15.5737,1.72971,0.0,0.0
2149,537,79.6125,87.0052,136.219,97.0641,80.3346,0.00256989,0.348498,20.5779,15.4736,1.69219,0.0,0.0
2156,538.75,79.9394,87.2395,130.471,97.0767,79.4874,0.0025757,0.347847,20.5774,15.3835,1.7882,0.0,0.0
2163,540.5,79.8891,86.9893,134.366,97.0554,80.5734,0.0025553,0.347069,20.5786,15.2534,1.66485,0.0,0.0
2170,542.25,79.5451,86.5875,134.973,97.049,80.177,0.00253507,0.345178,20.5813,15.1933,1.70838,0.0,0.0
2177,544,78.9225,86.464,132.107,97.0629,81.5573,0.00244495,0.343472,20.5836,15.0732,1.55696,0.0,0.0
2184,545.75,79.7264,86.9689,139.473,97.0566,81.2626,0.00229768,0.342078,20.5855,14.9631,1.58877,0.0,0.0
2191,547.5,79.352,86.4969,131.957,97.0661,81.1517,0.0021585,0.340139,20.5889,14.9231,1.60186,0.0,0.0
2198,549.25,79.2277,86.637,132.72,97.0562,81.7385,0.00211443,0.338403,20.5922,14.823,1.53649,0.0,0.0
2205,551,79.3507,86.5677,136.79,97.051,81.4495,0.00209598,0.336029,20.5953,14.7029,1.5677,0.0,0.0
2212,552.75,79.4048,85.8537,137.916,97.068,82.3566,0.00205219,0.333205,20.5977,14.6128,1.4702,0.0,0.0
2219,554.5,78.9167,85.97,130.659,97.0791,81.426,0.00201913,0.331269,20.6009,14.4927,1.57288,0.0,0.0
2226,556.25,78.3203,85.7636,130.649,97.0708,83.5337,0.00205903,0.330075,20.6032,14.4427,1.3435,0.0,0.0
2233,558,79.0873,85.8486,129.986,97.0684,82.0962,0.00212386,0.328163,20.6059,14.3526,1.49856,0.0,0.0
2240,559.75,78.6973,85.4096,136.774,97.0823,82.7255,0.00214821,0.325369,20.608,14.2625,1.43153,0.0,0.0
2247,561.5,78.7727,85.3471,136.543,97.0874,83.4619,0.00206697,0.322779,20.611,14.1925,1.35273,0.0,0.0
2254,563.25,78.3566,85.2521,136.19,97.0973,82.61,0.00199114,0.320998,20.6135,14.1024,1.44541,0.0,0.0
2261,565,78.1214,84.5804,138.282,97.0985,83.835,0.00191272,0.319053,20.6163,14.0123,1.31384,0.0,0.0
2268,566.75,78.6138,85.0573,136.708,97.1096,82.7151,0.00184645,0.317351,20.6185,13.9222,1.43517,0.0,0.0
2275,568.5,78.3149,84.6127,133.735,97.104,83.487,0.00176268,0.31594,20.6206,13.8522,1.35157,0.0,0.0
2282,570.25,77.6975,84.2075,137.208,97.1191,83.701,0.00162142,0.314628,20.6229,13.7321,1.33006,0.0,0.0
2289,572,77.7383,84.3306,137.361,97.1242,84.6085,0.00150982,0.31213,20.6258,13.702,1.23407,0.0,0.0
2296,573.75,77.9079,84.6443,134.358,97.1393,84.0046,0.00153615,0.309861,20.6288,13.5919,1.29952,0.0,0.0
2303,575.5,77.5462,84.1603,137.362,97.1527,84.0147,0.00168433,0.307939,20.631,13.5219,1.29969,0.0,0.0
2310,577.25,78.0727,84.7021,134.499,97.184,84.2283,0.00177266,0.306372,20.6327,13.4318,1.27985,0.0,0.0
2317,579,77.7162,83.9605,135.55,97.1856,84.7514,0.00178426,0.304933,20.6339,13.3517,1.22462,0.0,0.0
2324,580.75,76.9553,83.302,136.597,97.2243,83.5631,0.00181339,0.303264,20.6362,13.2616,1.3545,0.0,0.0
2331,582.5,77.3987,83.5429,136.371,97.2358,83.1354,0.00188366,0.302136,20.6376,13.2316,1.40145,0.0,0.0
2338,584.25,77.4735,83.6575,137.817,97.254,84.7715,0.00191346,0.301676,20.6395,13.1315,1.2288,0.0,0.0
2345,586,77.2152,83.3783,133.919,97.2766,84.761,0.00190582,0.301178,20.6416,13.0415,1.23197,0.0,0.0
2352,587.75,77.0303,82.9907,139.194,97.3035,85.0326,0.00190259,0.300421,20.6432,12.9614,1.20583,0.0,0.0
2359,589.5,77.1068,82.878,133.484,97.3268,85.4703,0.00192574,0.29953,20.645,12.8813,1.16205,0.0,0.0
2366,591.25,76.7965,83.0928,133.479,97.3628,85.2459,0.00193467,0.298605,20.6463,12.8313,1.18888,0.0,0.0
2373,593,77.222,83.319,133.303,97.4028,86.0622,0.00193606,0.297566,20.6478,12.7612,1.1073,0.0,0.0
2380,594.75,76.664,82.9646,134.53,97.4337,84.8147,0.00203097,0.296324,20.6495,12.6811,1.24074,0.0,0.0
2387,596.5,76.8777,82.9026,140.24,97.4709,86.7004,0.00217627,0.294959,20.6518,12.6111,1.04746,0.0,0.0
2394,598.25,76.8428,82.8779,135.203,97.5045,86.1433,0.00222448,0.294091,20.6533,12.501,1.10821,0.0,0.0
2401,600,76.6334,82.6303,135.815,97.5567,86.9024,0.00218153,0.292966,20.6558,12.4509,1.03451,0.0,0.0
2408,601.75,76.6286,82.483,137.367,97.6011,87.4931,0.00203452,0.291308,20.6582,12.3709,0.977982,0.0,0.0
2415,603.5,76.7071,82.4354,136.786,97.6418,87.3212,0.00192381,0.289573,20.6605,12.2908,0.999311,0.0,0.0
2422,605.25,76.3117,82.1306,136.368,97.6917,86.53,0.00187288,0.287628,20.663,12.2207,1.0853,0.0,0.0
2429,607,75.9653,81.507,139.508,97.734,86.3882,0.0018318,0.286677,20.664,12.1507,1.10384,0.0,0.0
2436,608.75,76.0632,81.8834,138.824,97.7661,87.6322,0.00183437,0.286585,20.6642,12.1006,0.978885,0.0,0.0
2443,610.5,76.2511,82.1669,139.188,97.7942,87.0596,0.00190704,0.285907,20.6643,12.0606,1.04009,0.0,0.0
2450,612.25,75.9717,81.3959,133.372,97.8318,86.4218,0.00192818,0.285521,20.6643,12.0005,1.1093,0.0,0.0
2457,614,76.0159,81.8068,136.464,97.865,87.7314,0.00187903,0.285848,20.6637,11.8604,0.977803,0.0,0.0
2464,615.75,75.8133,81.5777,141.989,97.9137,88.4824,0.00183575,0.286786,20.6628,11.8004,0.906003,0.0,0.0
2471,617.5,75.9448,81.5185,135.037,97.9525,87.4332,0.00183621,0.287515,20.6624,11.7103,1.01625,0.0,0.0
2478,619.25,75.6327,81.1725,135.146,97.994,88.2252,0.0018592,0.287685,20.6627,11.6602,0.939388,0.0,0.0
2485,621,75.7645,81.096,135.197,98.0102,88.8085,0.00187062,0.286906,20.6635,11.5702,0.881918,0.0,0.0
2492,622.75,75.4663,81.4755,134.977,98.0435,88.321,0.00184901,0.285265,20.665,11.5301,0.934193,0.0,0.0
2499,624.5,75.3074,81.1463,135.143,98.0842,88.3584,0.00185342,0.283741,20.6668,11.4501,0.934117,0.0,0.0
2506,626.25,75.2679,81.4105,137.341,98.1012,87.4251,0.0018807,0.282191,20.6679,11.4,1.03066,0.0,0.0
2513,628,75.4116,81.4222,137.427,98.1262,87.8381,0.00192517,0.280531,20.6695,11.2999,0.990779,0.0,0.0
2520,629.75,75.3335,81.0888,141.033,98.1523,88.5918,0.00198963,0.279123,20.6711,11.2199,0.91673,0.0,0.0
2527,631.5,75.2646,80.989,137.683,98.1899,89.2597,0.00213889,0.278056,20.6734,11.1498,0.852966,0.0,0.0
2534,633.25,75.3827,81.1189,137.422,98.2109,87.8999,0.00227392,0.276766,20.6762,11.0897,0.992203,0.0,0.0
2541,635,74.8731,80.373,136.403,98.2358,88.98,0.00241589,0.274562,20.6803,11.0597,0.88522,0.0,0.0
2548,636.75,75.4057,81.0348,132.966,98.2651,89.1569,0.00249983,0.271992,20.6827,10.9997,0.870116,0.0,0.0
2555,638.5,75.4555,80.982,141.494,98.309,89.6966,0.00251091,0.270159,20.6848,10.9296,0.82013,0.0,0.0
2562,640.25,75.0255,80.6075,135.82,98.3288,88.8726,0.00242378,0.268494,20.6869,10.8595,0.904487,0.0,0.0
2569,642,75.8836,81.363,139.572,98.3462,89.3961,0.00232452,0.266765,20.6901,10.8095,0.853537,0.0,0.0
2576,643.75,75.7492,81.1478,137.706,98.3798,90.2004,0.00234506,0.264954,20.6919,10.7795,0.776473,0.0,0.0
2583,645.5,75.767,81.3182,138.264,98.4028,90.0563,0.00252137,0.263175,20.6938,10.7294,0.792861,0.0,0.0
2590,647.25,75.2133,80.8317,134.892,98.4325,90.4631,0.00266248,0.261389,20.6955,10.6594,0.755243,0.0,0.0
2597,649,75.3747,80.8641,141.149,98.4317,90.9209,0.00283771,0.259561,20.698,10.6093,0.710019,0.0,0.0
2604,650.75,75.2952,80.5851,134.219,98.4712,90.941,0.00313045,0.257965,20.6999,10.5292,0.711638,0.0,0.0
2611,652.5,75.2357,80.7646,134.357,98.4768,89.9929,0.00339664,0.256679,20.7014,10.4692,0.805881,0.0,0.0
2618,654.25,74.872,80.1661,138.615,98.5084,91.4803,0.00355004,0.254967,20.7031,10.4192,0.662125,0.0,0.0
2625,656,75.0172,80.329,137.414,98.5357,91.9972,0.00358244,0.253102,20.7062,10.3491,0.614202,0.0,0.0
2632,657.75,74.7247,80.1054,142.236,98.5472,91.9516,0.00359894,0.250677,20.7085,10.3291,0.619678,0.0,0.0
2639,659.5,74.5599,80.0138,138.816,98.5797,91.9238,0.00373951,0.248208,20.7125,10.259,0.625329,0.0,0.0
2646,661.25,74.435,79.6762,138.568,98.5998,92.1764,0.00399046,0.245716,20.7171,10.1889,0.602607,0.0,0.0
2653,663,74.3162,79.3461,135.441,98.6256,92.8293,0.00425208,0.242672,20.7214,10.1789,0.541805,0.0,0.0
2660,664.75,74.2997,79.4734,137.676,98.639,91.797,0.00445502,0.239848,20.7239,10.1189,0.643053,0.0,0.0
2667,666.5,74.233,79.2263,139.946,98.6525,92.9309,0.0046815,0.236794,20.7271,10.0688,0.53446,0.0,0.0
2674,668.25,74.238,78.8969,136.208,98.6762,92.5898,0.00494076,0.234165,20.7304,10.0288,0.569508,0.0,0.0
2681,670,73.2589,78.0864,143.207,98.6873,92.9174,0.00528688,0.231356,20.7328,9.93873,0.538919,0.0,0.0
2688,671.75,74.3252,79.009,138.691,98.6841,93.3214,0.00556927,0.228949,20.7355,9.93873,0.499814,0.0,0.0
2695,673.5,73.3952,78.1918,141.066,98.7011,94.033,0.00573925,0.226265,20.7386,9.88869,0.433405,0.0,0.0
2702,675.25,72.7734,78.2226,136.558,98.7071,94.1366,0.00580943,0.22318,20.7425,9.84865,0.424099,0.0,0.0
2709,677,73.094,78.0388,137.375,98.7289,93.4296,0.00588754,0.220079,20.7457,9.80861,0.493504,0.0,0.0
2716,678.75,73.0321,77.8389,138.54,98.7348,94.1883,0.00598674,0.217891,20.7489,9.74856,0.421692,0.0,0.0
2723,680.5,72.9644,77.4237,141.878,98.7391,93.9052,0.00605456,0.21631,20.7512,9.69852,0.449019,0.0,0.0
2730,682.25,73.0851,77.5767,145.706,98.7546,95.0827,0.00612756,0.214183,20.7534,9.66849,0.338948,0.0,0.0
2737,684,72.4342,77.3159,140.172,98.768,95.3875,0.00631451,0.212282,20.7556,9.66849,0.311537,0.0,0.0
2744,685.75,72.4837,76.9914,136.687,98.7759,94.5947,0.00645416,0.210887,20.7568,9.60844,0.386905,0.0,0.0
2751,687.5,72.9436,77.5335,143.999,98.789,94.4595,0.00651086,0.209675,20.7585,9.57841,0.400883,0.0,0.0
2758,689.25,72.1491,77.0102,144.002,98.7961,94.2509,0.0065824,0.208466,20.7594,9.54839,0.421305,0.0,0.0
2765,691,72.6118,76.9596,144.241,98.8088,95.1526,0.00668226,0.207273,20.7612,9.54839,0.337282,0.0,0.0
2772,692.75,71.7573,76.3838,143.177,98.823,94.3181,0.00676185,0.206247,20.763,9.50835,0.417363,0.0,0.0
2779,694.5,71.4606,75.9625,138.738,98.8393,95.7174,0.00679371,0.205208,20.7645,9.42828,0.2871,0.0,0.0
2786,696.25,71.4596,75.6902,140.884,98.8341,94.6542,0.00681331,0.203955,20.7661,9.40826,0.386547,0.0,0.0
2793,698,71.6087,76.0123,144.505,98.8491,95.345,0.00679604,0.203003,20.7678,9.34821,0.322867,0.0,0.0
2800,699.75,71.2321,75.4305,142.63,98.8721,95.5795,0.00674764,0.202132,20.7686,9.34821,0.302971,0.0,0.0
2807,701.5,71.3075,75.4985,142.392,98.8745,96.5171,0.00669376,0.201183,20.7701,9.29817,0.215862,0.0,0.0
2814,703.25,70.9678,75.178,138.528,98.8737,95.6023,0.00666498,0.199862,20.7729,9.29817,0.30098,0.0,0.0
2821,705,70.958,75.0655,138.375,98.882,95.119,0.00667615,0.199045,20.7748,9.25813,0.347066,0.0,0.0
2828,706.75,70.559,74.7047,139.182,98.8824,96.0631,0.00666868,0.198014,20.7774,9.20809,0.258747,0.0,0.0
2835,708.5,70.7588,75.4529,137.229,98.8974,94.7694,0.0066097,0.197035,20.7796,9.16805,0.381402,0.0,0.0
2842,710.25,70.4977,74.8707,142.681,98.9093,96.0554,0.00659316,0.195835,20.7814,9.14804,0.261901,0.0,0.0
2849,712,70.3907,74.7799,142.774,98.9101,95.1843,0.00664759,0.194387,20.7823,9.11801,0.34347,0.0,0.0
2856,713.75,70.1925,74.2048,138.676,98.9121,95.1105,0.00668188,0.193569,20.7827,9.07797,0.350586,0.0,0.0
2863,715.5,70.7344,74.6792,137.868,98.9061,96.3904,0.00664429,0.193548,20.7829,9.07797,0.230478,0.0,0.0
2870,717.25,69.4972,73.1606,139.908,98.9303,95.5914,0.00657117,0.193692,20.7832,9.03794,0.307111,0.0,0.0
2877,719,69.8798,73.7456,142.897,98.9228,96.1752,0.00650409,0.193311,20.7844,8.97789,0.251973,0.0,0.0
2884,720.75,69.9175,74.012,142.905,98.9109,96.2265,0.00643376,0.192796,20.7848,8.94786,0.246121,0.0,0.0
2891,722.5,69.4944,73.5626,139.511,98.9081,95.8487,0.00628252,0.192678,20.7851,8.89781,0.281063,0.0,0.0
2898,724.25,69.427,73.3618,140.286,98.937,94.8146,0.00612332,0.192861,20.785,8.86779,0.380716,0.0,0.0
2905,726,69.3238,73.0944,138.634,98.897,95.9279,0.00608827,0.192725,20.7849,8.84777,0.272672,0.0,0.0
2912,727.75,69.2901,73.1355,140.779,98.8915,96.4325,0.00607592,0.192261,20.7848,8.83776,0.225247,0.0,0.0
2919,729.5,69.5303,72.9914,137.65,98.8804,95.3616,0.00607498,0.191779,20.7848,8.82775,0.324137,0.0,0.0
2926,731.25,68.86,72.9857,139.329,98.8859,95.2001,0.00604196,0.191376,20.7852,8.78772,0.339798,0.0,0.0
2933,733,68.5695,72.619,145.46,98.8856,96.0921,0.0059386,0.191191,20.7862,8.7677,0.256337,0.0,0.0
2940,734.75,68.7385,72.6002,140.243,98.8733,94.9243,0.00575138,0.191157,20.7866,8.74768,0.364608,0.0,0.0
2947,736.5,69.2806,72.8474,140.277,98.8796,96.0639,0.0056448,0.190969,20.7873,8.68763,0.258425,0.0,0.0
2954,738.25,68.8055,72.4736,139.583,98.8567,96.0581,0.00569048,0.190694,20.7893,8.66761,0.256889,0.0,0.0
2961,740,68.5801,72.4126,137.515,98.8551,95.6057,0.00579586,0.189887,20.7905,8.62758,0.298972,0.0,0.0
2968,741.75,68.4558,72.5318,139.788,98.8282,95.5277,0.00588548,0.18912,20.7911,8.60756,0.303841,0.0,0.0
2975,743.5,68.3384,72.388,141.072,98.8088,95.7811,0.00592632,0.189095,20.7914,8.59755,0.278386,0.0,0.0
2982,745.25,68.9768,72.0818,141.469,98.7941,95.6336,0.00593914,0.189227,20.7915,8.56752,0.290854,0.0,0.0
2989,747,68.5574,71.9822,143.862,98.7839,95.9507,0.00586359,0.189375,20.7908,8.49746,0.260304,0.0,0.0
2996,748.75,68.1479,72.1433,140.588,98.7676,97.1657,0.00569426,0.189227,20.7904,8.46744,0.146277,0.0,0.0
3003,750.5,67.7333,71.6893,138.949,98.7455,95.4431,0.00548572,0.188747,20.7902,8.43741,0.304278,0.0,0.0
3010,752.25,68.4318,72.1778,142.711,98.7197,95.9094,0.00535748,0.188624,20.7901,8.41739,0.258352,0.0,0.0
3017,754,68.1849,71.7536,141.538,98.7122,95.309,0.00529912,0.188867,20.79,8.39738,0.31384,0.0,0.0
3024,755.75,68.2678,71.4243,141.962,98.6988,95.9376,0.00532152,0.189162,20.79,8.35734,0.253822,0.0,0.0
3031,757.5,67.8713,71.1819,140.111,98.6833,95.9577,0.00542503,0.189689,20.7894,8.32731,0.25055,0.0,0.0
3038,759.25,67.6714,71.4881,140.602,98.643,96.1898,0.00554065,0.190106,20.7885,8.31731,0.225273,0.0,0.0
3045,761,68.1809,71.8508,142.408,98.6212,95.6181,0.00558883,0.190164,20.7881,8.26726,0.276628,0.0,0.0
3052,762.75,67.9465,71.8467,142.322,98.603,94.6141,0.00556426,0.19002,20.7881,8.27727,0.369404,0.0,0.0
3059,764.5,67.569,71.4929,142.049,98.586,95.9515,0.00550855,0.189952,20.7891,8.21722,0.242298,0.0,0.0
3066,766.25,68.1331,71.4276,141.788,98.548,95.7054,0.00546247,0.190175,20.7889,8.18719,0.261821,0.0,0.0
3073,768,67.809,71.3823,142.494,98.5346,96.4545,0.00541829,0.190431,20.7887,8.1972,0.190859,0.0,0.0
3080,769.75,67.6099,71.6995,143.319,98.5132,94.9961,0.00535959,0.190682,20.7875,8.15716,0.3252,0.0,0.0
3087,771.5,67.4959,71.216,141.393,98.493,95.4025,0.00536243,0.190995,20.7872,8.13715,0.285181,0.0,0.0
3094,773.25,67.4182,71.876,143.894,98.4673,95.1754,0.00545645,0.190965,20.7876,8.07709,0.304169,0.0,0.0
3101,775,67.6923,71.1234,136.409,98.4455,95.0707,0.00555446,0.190571,20.7885,8.04707,0.312037,0.0,0.0
3108,776.75,66.9862,70.9014,136.735,98.4154,95.5265,0.00556236,0.190187,20.7889,8.04707,0.266514,0.0,0.0
3115,778.5,67.4003,71.2803,143.345,98.415,95.3067,0.00552362,0.189779,20.7901,7.99702,0.287085,0.0,0.0
3122,780.25,66.7675,70.4541,140.997,98.3668,95.3438,0.0054544,0.189583,20.7909,7.97701,0.279215,0.0,0.0
3129,782,67.5123,71.0945,137.866,98.3442,94.9324,0.00534765,0.18936,20.7903,7.967,0.315849,0.0,0.0
3136,783.75,67.1301,70.8841,139.395,98.3224,94.4132,0.00530284,0.189427,20.7898,7.90694,0.362928,0.0,0.0
3143,785.5,67.3209,70.9237,135.753,98.3046,95.0228,0.00533824,0.189821,20.7896,7.83688,0.303735,0.0,0.0
3150,787.25,67.308,70.8008,147.824,98.2781,95.1746,0.00541523,0.190071,20.7888,7.82687,0.287041,0.0,0.0
3157,789,66.8641,71.1184,144.199,98.2635,94.9888,0.0054879,0.190278,20.7879,7.84689,0.30319,0.0,0.0
3164,790.75,66.9017,71.1193,136.703,98.2441,96.0979,0.00552621,0.190523,20.7875,7.82687,0.197581,0.0,0.0
3171,792.5,67.4457,71.462,144.058,98.2148,95.2735,0.00554835,0.190246,20.7888,7.79685,0.271985,0.0,0.0
3178,794.25,67.0941,70.6237,143.225,98.2014,95.9484,0.00551533,0.190073,20.7901,7.78684,0.207617,0.0,0.0
3185,796,66.93,70.8425,140.089,98.1764,95.2322,0.00544835,0.190186,20.791,7.72679,0.272371,0.0,0.0
3192,797.75,67.0987,70.7647,138.59,98.157,95.2754,0.00531205,0.190229,20.7918,7.72679,0.266542,0.0,0.0
3199,799.5,66.6396,70.52,138.947,98.144,96.004,0.00521771,0.190037,20.7921,7.66673,0.197204,0.0,0.0
3206,801.25,66.8646,70.5601,144.329,98.1285,94.959,0.00518294,0.18976,20.7923,7.60668,0.293699,0.0,0.0
3213,803,66.4082,70.0935,140.997,98.1068,95.6726,0.00514657,0.189774,20.7924,7.59667,0.224751,0.0,0.0
3220,804.75,66.483,70.5453,138.873,98.0929,95.0409,0.00511309,0.189858,20.7932,7.60668,0.28274,0.0,0.0
3227,806.5,66.6606,70.8006,140.637,98.1468,96.4765,0.00514441,0.189787,20.7939,7.57665,0.153541,0.0,0.0
3234,808.25,66.7624,70.8114,141.566,98.1958,95.8035,0.00525798,0.189743,20.7939,7.53662,0.220629,0.0,0.0
3241,810,66.7766,70.3783,144.082,98.2354,96.789,0.0053467,0.18995,20.7939,7.49658,0.132686,0.0,0.0
3248,811.75,67.0739,70.5786,138.787,98.2698,95.5829,0.00534423,0.189895,20.7949,7.44654,0.247987,0.0,0.0
3255,813.5,66.4449,70.3415,143.045,98.305,95.3206,0.00518113,0.18959,20.7956,7.44654,0.275776,0.0,0.0
3262,815.25,66.3365,70.6115,140.781,98.3379,95.841,0.00506177,0.189259,20.7959,7.3965,0.230063,0.0,0.0
3269,817,66.7353,70.3179,141.666,98.3842,95.6992,0.00503778,0.189434,20.796,7.3965,0.247517,0.0,0.0
3276,818.75,66.6871,70.7801,136.256,98.4119,96.461,0.00517752,0.189638,20.7969,7.36647,0.179106,0.0,0.0
3283,820.5,66.7606,70.9666,140.043,98.4321,95.6672,0.00530782,0.189659,20.7973,7.30642,0.254866,0.0,0.0
3290,822.25,66.0765,70.7948,138.224,98.4661,95.6316,0.00540756,0.189302,20.7975,7.27639,0.261282,0.0,0.0
3297,824,66.1933,70.976,142.118,98.4867,95.6888,0.00542167,0.188653,20.7976,7.26638,0.257804,0.0,0.0
3304,825.75,66.8813,70.6941,140.014,98.5072,95.5806,,0.188569,,7.24636,0.269791,0.0,0.0
3311,827.5,66.7512,70.2722,139.905,98.5235,96.0118,,0.188937,,7.20633,0.231006,0.0,0.0
3318,829.25,66.7772,70.3525,136.063,98.5413,95.2967,,,,7.19632,0.299495,0.0,0.0
3325,831,66.7286,70.8246,138.887,98.5452,96.1392,,,,7.15629,0.221111,0.0,0.0
3332,832.75,66.6243,70.7526,135.93,98.5761,95.0158,,,,7.13627,0.329058,0.0,0.0
3339,834.5,66.6164,70.8826,141.474,98.5789,97.4697,,,,7.08622,0.101218,0.0,0.0
3344,835.75,66.7381,70.4879,141.81,98.5935,95.6699,,,,7.11625,0.269274,0.0,0.0