File: 01_Data/PC/Cone/PC_Cone_HF50Scan_220216_R2.csv
Names,Time,Stack TC,Smoke TC,Exh Press,Smoke Comp,Smoke Meas,CO Meter,CO2 Meter,O2 Meter,Sample Mass,Ext Coeff,Start Test,Flame Verif
Chan Gain,,500,500,1,1,1,1,1,1,1,1,1.0,1.0
Offset,,0,0,0.140898,0,0,0,0,0,0,0,0.0,0.0
Gain,,1,1,25.011,12.9668,12.6588,1,1,1,1.00088,1.01977,1.0,1.0
Units,sec,C,C,Pa,%,%,%,%,%,g,/m,,
Baseline,,36.7706,38.6198,153.538,98.284,99.0449,-0.00283172,0.0710775,20.953,-873.158,-0.0689065,,
7,1.5,35.1567,36.796,155.863,97.9018,98.4185,-0.00277789,0.0755159,20.9514,60.0427,-0.0470876,0.0,0.0
14,3.25,35.3653,36.7754,156.748,97.8872,98.3752,-0.00281613,0.0750099,20.9538,60.2129,-0.0444921,0.0,0.0
21,5,35.3495,36.8657,152.156,97.8698,97.9348,-0.00282006,0.0739807,20.9561,60.1929,-0.00594751,0.0,0.0
28,6.75,35.4013,36.7366,151.018,97.8551,97.8835,-0.00281817,0.0729657,20.9577,60.1628,-0.00259111,0.0,0.0
35,8.5,34.9889,36.7552,153.711,97.848,98.3957,-0.00281528,0.072021,20.9595,60.1528,-0.0499342,0.0,0.0
42,10.25,35.4914,36.9163,156.02,97.8266,99.173,-0.00282982,0.0711436,20.9606,60.1228,-0.122274,0.0,0.0
49,12,35.498,37.4502,154.076,97.8084,97.5671,-0.00281339,0.0702929,20.9621,60.0928,0.0221009,0.0,0.0
56,13.75,35.2407,37.2054,153.084,97.8037,98.3834,-0.00270682,0.0695145,20.9638,60.0928,-0.0528632,0.0,0.0
63,15.5,35.6771,37.172,152.82,97.7985,98.9095,-0.00262291,0.0687678,20.9648,60.0828,-0.101047,0.0,0.0
70,17.25,35.8486,37.7435,148.301,97.7926,98.6677,-0.00257998,0.0680455,20.9653,60.0928,-0.0796916,0.0,0.0
77,19,35.657,37.83,152.848,97.8856,98.4757,-0.0025873,0.0674305,20.9657,60.1128,-0.0537649,0.0,0.0
84,20.75,36.0222,38.0481,151.641,98.0019,97.8665,-0.0027047,0.0669536,20.966,60.1028,0.012373,0.0,0.0
91,22.5,36.1122,37.1973,151.76,98.1187,97.6335,-0.00288431,0.0663343,20.9683,60.0928,0.0443393,0.0,0.0
98,24.25,35.3514,37.4918,155.285,98.2061,99.1626,-0.00295341,0.0657488,20.9708,60.0828,-0.0866991,0.0,0.0
105,26,35.8105,37.6025,151.435,98.2963,98.6507,-0.00295932,0.0649043,20.9733,60.1028,-0.0321896,0.0,0.0
112,27.75,36.169,37.7543,149.12,98.3747,98.0871,-0.00290468,0.0640137,20.9746,60.0728,0.0261932,0.0,0.0
119,29.5,36.0178,38.0019,152.569,98.4606,98.9393,-0.00283077,0.0632913,20.9763,60.0828,-0.0433868,0.0,0.0
126,31.25,35.7971,38.2385,155.66,98.5266,99.4125,-0.00281262,0.0626819,20.9766,60.0728,-0.0800693,0.0,0.0
133,33,36.2105,37.86,151.09,98.5658,99.0586,-0.00278862,0.0621532,20.9776,60.0728,-0.0446143,0.0,0.0
140,34.75,35.7049,38.2973,150.46,98.5915,99.3719,-0.00278217,0.061799,20.9784,60.0928,-0.070528,0.0,0.0
147,36.5,36.6545,38.2481,153.289,98.6331,98.8153,-0.00277272,0.0615348,20.9788,60.1128,-0.0165066,0.0,0.0
154,38.25,36.4071,38.3459,153.033,98.6552,99.9,-0.00275132,0.061239,20.979,60.0828,-0.112163,0.0,0.0
161,40,36.293,38.1857,158.857,98.6438,98.7438,-0.00275186,0.0609662,20.9791,60.0828,-0.00906552,0.0,0.0
168,41.75,36.4207,38.34,151.688,98.637,99.4666,-0.00280573,0.0608068,20.9797,60.0828,-0.0749164,0.0,0.0
175,43.5,35.9935,38.239,160.327,98.6026,98.9609,-0.00281124,0.0606587,20.9806,60.0527,-0.0324449,0.0,0.0
182,45.25,36.2596,38.1941,151.928,98.5702,99.3237,-0.00272855,0.0606081,20.981,60.0728,-0.0681197,0.0,0.0
189,47,36.1297,38.1689,152.373,98.5286,98.697,-0.00265359,0.0605406,20.9823,60.0628,-0.0152781,0.0,0.0
196,48.75,36.1756,38.6147,151.283,98.453,98.4676,-0.00271435,0.0605083,20.983,60.0527,-0.00132133,0.0,0.0
203,50.5,36.4138,38.7614,156.908,98.3593,98.434,-0.00278668,0.0603494,20.9833,60.0628,-0.00679214,0.0,0.0
210,52.25,36.5606,38.5736,149.43,98.2619,98.7202,-0.00273986,0.0601611,20.9835,60.0327,-0.0416258,0.0,0.0
217,54,36.6246,38.8181,149.898,98.1464,98.3934,-0.00270709,0.0599779,20.9835,60.0728,-0.0224881,0.0,0.0
224,55.75,36.2811,38.7214,151.266,98.1206,98.8481,-0.00274595,0.0598942,20.9836,60.0828,-0.0660756,0.0,0.0
231,57.5,36.5869,38.6969,154.704,98.161,98.4243,-0.00277094,0.0598781,20.9836,60.0527,-0.0239635,0.0,0.0
238,59.25,36.7788,38.9928,158.78,98.2136,99.2974,-0.00278375,0.059826,20.9836,60.0628,-0.0981685,0.0,0.0
245,61,36.5031,38.5938,156.07,98.2671,98.2752,-0.00281762,0.0598277,20.9836,60.0327,-0.000741156,0.0,0.0
252,62.75,36.3621,38.6754,153.909,98.33,98.872,-0.00291322,0.0597316,20.9836,60.0427,-0.0491788,0.0,0.0
259,64.5,36.806,38.9632,149.848,98.381,98.2103,-0.00296056,0.0595514,20.9833,60.0427,0.0155373,0.0,0.0
266,66.25,36.9246,39.4262,154.727,98.4522,99.5261,-0.00289986,0.0595958,20.9831,60.0327,-0.0970403,0.0,0.0
273,68,36.9256,39.1825,153.553,98.5191,98.7963,-0.00280135,0.0595077,20.9841,60.0427,-0.0251349,0.0,0.0
280,69.75,36.9811,39.1485,154.274,98.6042,98.6967,-0.00274378,0.0593643,20.9839,60.0427,-0.00838397,0.0,0.0
287,71.5,37.2147,39.1473,152.001,98.6501,98.981,-0.00276077,0.0593926,20.9834,60.0728,-0.0299537,0.0,0.0
294,73.25,37.3768,39.2825,153.368,98.7047,97.7262,-0.00281876,0.0595683,20.9832,60.0427,0.0891188,0.0,0.0
301,75,36.942,39.4882,150.414,98.7597,97.824,-0.00293519,0.0596755,20.9831,60.0027,0.0851608,0.0,0.0
308,76.75,37.5028,39.3622,152.37,98.8191,98.3011,-0.0031082,0.0598098,20.983,60.0227,0.0470139,0.0,0.0
315,78.5,37.5416,39.5664,155.842,98.8642,97.8939,-0.00322372,0.0598035,20.983,60.0027,0.0882266,0.0,0.0
322,80.25,37.4759,39.9434,152.454,98.8796,98.8025,-0.00329827,0.0598475,20.983,60.0127,0.00697772,0.0,0.0
329,82,37.0364,39.6571,153.495,98.903,98.1129,-0.00331255,0.059883,20.983,60.0427,0.0717415,0.0,0.0
336,83.75,37.115,39.7832,154.999,98.9065,99.0049,-0.00321897,0.0598385,20.9831,60.0127,-0.00889686,0.0,0.0
343,85.5,37.0655,39.7278,151.581,98.8998,98.3057,-0.00309677,0.0597392,20.9837,60.0127,0.0538957,0.0,0.0
350,87.25,37.9768,39.6282,149.509,98.8642,97.9669,-0.00301534,0.0596296,20.9845,59.9827,0.0815571,0.0,0.0
357,89,37.7801,40.1532,154.165,98.8017,98.8423,-0.00300886,0.0594589,20.9843,59.9827,-0.00367866,0.0,0.0
364,90.75,37.7058,39.8332,148.71,98.7289,98.5897,-0.00306676,0.0593432,20.9852,60.0027,0.0126211,0.0,0.0
371,92.5,37.4969,40.0107,151.492,98.6628,98.3633,-0.00313508,0.0592173,20.9859,59.9627,0.0271958,0.0,0.0
378,94.25,37.7795,40.2882,153.586,98.5512,96.9996,-0.00315455,0.0591642,20.9862,59.9927,0.141957,0.0,0.0
385,96,37.7237,40.1264,150.648,98.4313,97.3241,-0.0030809,0.0591022,20.9864,59.9827,0.101191,0.0,0.0
392,97.75,37.8341,40.2593,152.781,98.3027,97.343,-0.00299405,0.0590517,20.9865,59.9727,0.0877567,0.0,0.0
399,99.5,37.7267,40.8119,151.453,98.165,97.1,-0.00298396,0.0590071,20.9865,59.9527,0.0975738,0.0,0.0
406,101.25,37.4202,40.3321,156.892,98.0257,96.8702,-0.00301141,0.0588966,20.9865,59.9527,0.106073,0.0,0.0
413,103,37.7959,40.4878,154.602,97.8606,96.8064,-0.00300333,0.0587521,20.9865,59.9527,0.0968892,0.0,0.0
420,104.75,38.4677,40.5713,149.499,97.6921,95.2403,-0.00291938,0.0586952,20.9865,59.9727,0.227368,0.0,0.0
427,106.5,37.9181,40.5382,147.151,97.5437,96.3227,-0.00285048,0.0588149,20.9865,59.9627,0.112675,0.0,0.0
434,108.25,38.0014,40.3771,147.727,97.4289,95.965,-0.00283765,0.0588186,20.9865,59.9527,0.135427,0.0,0.0
441,110,37.39,40.281,152.986,97.2948,95.6204,-0.00285584,0.0588809,20.9865,59.9426,0.155282,0.0,0.0
448,111.75,37.9947,40.5223,152.441,97.1685,95.1279,-0.00286698,0.0589388,20.9872,59.9326,0.189867,0.0,0.0
455,113.5,38.0951,40.8981,151.46,97.0787,94.915,-0.00280634,0.0590915,20.9867,59.9527,0.201632,0.0,0.0
462,115.25,37.7938,40.6511,147.961,97.036,94.7922,-0.00272316,0.0592182,20.9874,59.9226,0.209278,0.0,0.0
469,117,38.4126,40.911,149.994,96.9822,94.9722,-0.00268351,0.0593144,20.9877,59.9226,0.187343,0.0,0.0
476,118.75,38.3808,41.0088,150.945,96.9711,94.2127,-0.00276903,0.0592799,20.9869,59.9026,0.258145,0.0,0.0
483,120.5,37.9568,40.7765,155.77,96.9806,94.5631,-0.00290214,0.0594071,20.9865,59.9026,0.225815,0.0,0.0
490,122.25,38.2571,40.623,151.998,97.0387,93.9658,-0.00290872,0.0594189,20.9874,59.9126,0.287855,0.0,0.0
497,124,38.5012,41.1483,152.902,97.1076,94.9954,-0.00277739,0.0594354,20.988,59.8826,0.196723,0.0,0.0
504,125.75,38.0639,41.1528,150.858,97.1903,94.9726,-0.00258605,0.0594235,20.9873,59.8526,0.206485,0.0,0.0
511,127.5,38.7786,41.2494,152.168,97.3055,94.9513,-0.00252941,0.059518,20.9867,59.8626,0.219079,0.0,0.0
518,129.25,38.7353,41.3015,153.749,97.4285,94.2401,-0.00257958,0.0597955,20.9864,59.8225,0.297641,0.0,0.0
525,131,38.6797,41.182,148.58,97.5643,94.73,-0.00260165,0.0599853,20.9863,59.8326,0.263717,0.0,0.0
532,132.75,38.241,41.822,152.375,97.698,94.3919,-0.00254799,0.0600961,20.9862,59.8326,0.307949,0.0,0.0
539,134.5,38.2923,41.4204,155.395,97.8203,94.6732,-0.00249501,0.0601861,20.9858,59.8426,0.292524,0.0,0.0
546,136.25,38.697,41.421,153.324,97.9588,95.1534,-0.00245514,0.0603276,20.9848,59.8125,0.259924,0.0,0.0
553,138,38.7236,40.989,153.304,98.0819,95.7286,-0.00246461,0.060433,20.9843,59.7725,0.217242,0.0,0.0
560,139.75,38.5644,41.8916,152.289,98.1713,95.3206,-0.00256769,0.0605012,20.9849,59.7825,0.263596,0.0,0.0
567,141.5,39.0568,41.9466,156.483,98.2255,94.8903,-0.00270346,0.0605072,20.9856,59.7425,0.309013,0.0,0.0
574,143.25,38.7915,40.8991,151.417,98.2678,95.841,-0.00260365,0.0606136,20.9855,59.7225,0.223689,0.0,0.0
581,145,39.0205,41.339,158.26,98.2532,91.0062,-0.00230932,0.0615884,20.9834,59.7124,0.685388,0.0,0.0
588,146.75,39.225,41.3421,150.58,98.2239,90.854,-0.00198421,0.0646667,20.9813,59.6824,0.697696,0.0,0.0
595,148.5,38.9725,41.934,150.193,98.1543,93.2272,-0.00189129,0.0666478,20.9803,59.7124,0.460695,0.0,0.0
602,150.25,39.3008,41.7571,155.465,98.0648,91.8287,-0.00196325,0.0665998,20.981,59.6924,0.587742,0.0,0.0
609,152,39.3821,41.685,151.567,97.9948,94.5785,-0.00210413,0.0656635,20.9832,59.6724,0.317416,0.0,0.0
616,153.75,39.4665,42.0326,151.398,97.9275,94.1644,-0.00227815,0.0643879,20.9848,59.6624,0.350528,0.0,0.0
623,155.5,39.196,41.6243,149.421,97.8357,94.3645,-0.00244809,0.0633444,20.9844,59.6824,0.323149,0.0,0.0
630,157.25,39.5063,41.9012,152.002,97.7716,94.0114,-0.0025081,0.0627749,20.9842,59.6524,0.35082,0.0,0.0
637,159,39.0281,41.7871,150.444,97.7435,93.9396,-0.00243915,0.0623081,20.984,59.6424,0.355089,0.0,0.0
644,160.75,38.9257,41.7653,154.46,98.0193,94.3494,-0.0024004,0.0618304,20.985,59.6023,0.34135,0.0,0.0
651,162.5,39.1147,42,150.929,98.2627,94.6975,-0.00245615,0.0614542,20.9856,59.5923,0.330591,0.0,0.0
658,164.25,38.8403,42.3021,149.346,98.4459,94.2467,-0.00253051,0.0613266,20.9859,59.5723,0.389944,0.0,0.0
665,166,39.187,42.1122,148.612,98.5718,95.5076,-0.00252533,0.0612784,20.9861,59.5823,0.282483,0.0,0.0
672,167.75,39.3998,41.8202,151.038,98.6141,95.012,-0.0023697,0.0621291,20.9836,59.6023,0.332867,0.0,0.0
679,169.5,38.8559,42.3692,149.819,98.6133,91.2678,-0.00196947,0.0674786,20.969,59.5523,0.692444,0.0,0.0
686,171.25,39.8338,42.3693,145.584,98.533,85.0141,-0.00147937,0.0790535,20.9455,59.5323,1.3201,0.0,1.0
693,173,39.6674,42.749,147.038,98.3917,89.2972,-0.000894711,0.093329,20.925,59.5223,0.867577,0.0,1.0
700,174.75,39.8025,43.132,148.802,98.1998,88.1579,2.64688e-05,0.109395,20.9018,59.4922,0.96497,0.0,1.0
707,176.5,40.0918,43.3377,148.178,98.1202,79.1077,0.00156356,0.135304,20.8409,59.3221,1.92668,0.0,1.0
714,178.25,40.7217,43.7016,139.316,98.2227,64.953,0.00391272,0.182777,20.7453,59.182,3.69955,0.0,1.0
721,180,40.7822,45.814,136.042,98.3343,57.8498,0.00668248,0.252511,20.6794,58.9818,4.74571,0.0,1.0
728,181.75,42.5491,46.7653,128.141,98.4606,55.8236,0.0108792,0.319985,20.5735,58.7916,5.07612,0.0,0.0
735,183.5,44.2133,48.9405,129.35,98.5888,49.7712,0.0154899,0.39393,20.4353,58.4814,6.11433,0.0,0.0
742,185.25,45.8309,51.4538,121.222,98.7158,48.059,0.0200672,0.487028,20.281,58.1411,6.43899,0.0,0.0
749,187,47.6664,54.0126,129.929,98.8218,41.8864,0.024863,0.577762,20.1581,57.8108,7.67829,0.0,0.0
756,188.75,49.8909,57.0252,124.38,98.8598,41.339,0.0287243,0.662933,20.04,57.4104,7.79941,0.0,0.0
763,190.5,51.7692,59.6303,130.096,98.8895,46.4608,0.0316908,0.732149,19.9505,57.0801,6.75726,0.0,0.0
770,192.25,53.7547,62.6411,122.324,98.8931,46.4114,0.0337804,0.798156,19.8674,56.6698,6.7671,0.0,0.0
777,194,55.8861,65.484,120.28,98.8167,45.4317,0.0350998,0.85383,19.8118,56.2994,6.95104,0.0,0.0
784,195.75,58.1993,68.331,130.446,98.7059,47.031,0.0357897,0.892259,19.7767,55.9091,6.63151,0.0,0.0
791,197.5,59.637,70.6454,120.399,98.5694,44.0216,0.0361154,0.918801,19.7595,55.5388,7.21066,0.0,0.0
798,199.25,61.7237,73.1265,126.269,98.3767,43.249,0.0361522,0.932644,19.755,55.1584,7.35155,0.0,0.0
805,201,63.1515,75.1807,123.067,98.184,45.5302,0.0359078,0.93782,19.758,54.8081,6.8742,0.0,0.0
812,202.75,64.6906,76.8039,125.521,97.9509,44.3461,0.03564,0.938751,19.7626,54.4778,7.08865,0.0,0.0
819,204.5,66.0687,78.785,120.461,97.7214,44.6235,0.0353903,0.938601,19.77,54.0675,7.01189,0.0,0.0
826,206.25,67.4439,80.4162,129.237,97.5089,43.7786,0.0351617,0.934982,19.7825,53.8073,7.16341,0.0,0.0
833,208,68.218,81.8887,126.52,97.3351,43.5341,0.0346234,0.923433,19.8075,53.3669,7.19757,0.0,0.0
840,209.75,69.3859,83.1656,121.231,97.1685,44.1885,0.0338477,0.907512,19.8373,53.0466,7.04877,0.0,0.0
847,211.5,70.2575,84.1802,126.804,97.0538,46.8591,0.0328637,0.88633,19.8715,52.7163,6.51328,0.0,0.0
854,213.25,70.7261,84.6507,127.959,96.9992,46.0822,0.0319065,0.863697,19.9077,52.416,6.6578,0.0,0.0
861,215,71.414,85.4789,122.251,96.9984,47.2821,0.0309819,0.844927,19.9318,52.1158,6.42778,0.0,0.0
868,216.75,72.2988,86.5443,124.992,97.0411,45.6511,0.0301987,0.831877,19.9502,51.7555,6.74575,0.0,0.0
875,218.5,72.784,87.2125,125.46,97.1393,45.9717,0.0295565,0.819336,19.9688,51.4552,6.69218,0.0,0.0
882,220.25,73.3054,87.5424,128.852,97.273,46.6018,0.029011,0.806527,19.9862,51.1349,6.58272,0.0,0.0
889,222,73.7591,87.8574,127.098,97.4384,48.0745,0.0284947,0.79517,19.9982,50.8146,6.31961,0.0,0.0
896,223.75,73.6939,88.0477,131.481,97.6319,45.9076,0.0280822,0.786543,20.0045,50.5544,6.74992,0.0,0.0
903,225.5,74.3157,88.3447,131.183,97.8005,47.478,0.027923,0.780488,20.0075,50.2441,6.46447,0.0,0.0
910,227.25,75.025,89.1232,124.551,97.9406,45.9509,0.0279437,0.778229,20.008,49.9439,6.76973,0.0,0.0
917,229,75.3717,89.9428,128.697,98.0807,45.7565,0.0280191,0.779022,20.0059,49.6336,6.82042,0.0,0.0
924,230.75,75.7907,90.0586,124.339,98.1942,48.4461,0.0279348,0.780079,20.0044,49.3133,6.31984,0.0,0.0
931,232.5,76.2369,90.79,127.722,98.2532,50.4596,0.0276085,0.777746,20.0115,49.003,5.96095,0.0,0.0
938,234.25,75.8954,90.9041,124.695,98.2583,49.6255,0.0271918,0.772922,20.0186,48.7328,6.11052,0.0,0.0
945,236,76.8362,91.1792,128.091,98.2172,48.0192,0.0269038,0.768671,20.022,48.4425,6.40111,0.0,0.0
952,237.75,77.0251,91.3792,128.591,98.1432,49.2342,0.0268154,0.767595,20.0209,48.1623,6.17085,0.0,0.0
959,239.5,77.4821,92.0273,129.858,98.0276,49.3678,0.0268235,0.770832,20.0195,47.822,6.13606,0.0,0.0
966,241.25,77.795,92.3635,125.34,97.9137,46.501,0.0268427,0.769778,20.02,47.5518,6.66081,0.0,0.0
973,243,78.1479,92.4688,132.641,97.8088,50.995,0.0266711,0.763962,20.0307,47.2615,5.82598,0.0,0.0
980,244.75,78.1483,92.4986,129.706,97.7225,47.6368,0.0261157,0.754371,20.0468,46.9512,6.42747,0.0,0.0
987,246.5,78.6831,93.0117,131.969,97.8804,50.8756,0.0252304,0.743325,20.0668,46.701,5.85349,0.0,0.0
994,248.25,78.5614,92.5702,132.976,98.2077,48.7242,0.024343,0.73067,20.0851,46.4108,6.26986,0.0,0.0
1001,250,78.803,92.9466,128.357,98.4289,51.9527,0.0237269,0.720239,20.0974,46.1405,5.71608,0.0,0.0
1008,251.75,78.8786,92.865,126.943,98.5551,51.1855,0.0233541,0.712931,20.1065,45.8503,5.86063,0.0,0.0
1015,253.5,78.9757,92.9095,128.358,98.5749,52.5441,0.023017,0.703882,20.1193,45.6001,5.62808,0.0,0.0
1022,255.25,78.9851,92.6628,132.956,98.5353,51.0004,0.0226791,0.69651,20.1293,45.3598,5.89123,0.0,0.0
1029,257,79.3865,92.6152,133.301,98.3707,52.5522,0.0222405,0.689114,20.1404,45.1296,5.60815,0.0,0.0
1036,258.75,79.1079,92.736,129.959,98.1005,52.0867,0.0218048,0.682823,20.1478,44.8194,5.66313,0.0,0.0
1043,260.5,79.0365,92.3788,129.971,98.1503,54.3073,0.0214556,0.676598,20.156,44.5992,5.29422,0.0,0.0
1050,262.25,78.9858,92.3767,131.237,98.305,53.8047,0.0212324,0.672085,20.16,44.3389,5.39149,0.0,0.0
1057,264,79.1776,92.7456,127.72,98.4455,51.4609,0.0210635,0.670418,20.1591,44.1087,5.80267,0.0,0.0
1064,265.75,79.0214,92.4357,130.229,98.5907,52.8397,0.0210927,0.669804,20.1577,43.8885,5.57934,0.0,0.0
1071,267.5,79.799,92.871,124.108,98.7158,51.6235,0.0213372,0.671479,20.1513,43.5482,5.79897,0.0,0.0
1078,269.25,79.6195,92.712,127.152,98.8262,52.2401,0.0217331,0.676477,20.1406,43.278,5.70276,0.0,0.0
1085,271,79.5746,92.1809,128.73,98.8741,52.3421,0.0223609,0.682368,20.1291,43.0478,5.68965,0.0,0.0
1092,272.75,79.9014,93.0406,129.194,98.8879,48.6736,0.0229969,0.694966,20.1112,42.7375,6.3409,0.0,0.0
1099,274.5,79.9572,93.0525,127.86,98.9006,46.8104,0.0239263,0.711645,20.08,42.4573,6.6912,0.0,0.0
1106,276.25,81.3094,94.3375,127.581,98.8856,51.5679,0.0246026,0.727796,20.0578,42.127,5.82398,0.0,0.0
1113,278,80.025,93.7198,129.668,98.8531,49.0711,0.0251021,0.743308,20.0356,41.8568,6.26499,0.0,0.0
1120,279.75,81.2712,94.4847,124.808,98.7823,51.3118,0.0252865,0.751743,20.0263,41.5265,5.85918,0.0,0.0
1127,281.5,80.9838,94.2272,125.648,98.6675,50.5376,0.0254068,0.755125,20.026,41.2462,5.98477,0.0,0.0
1134,283.25,81.1879,94.2126,126.356,98.5852,49.3501,0.0255446,0.755321,20.0285,40.936,6.19001,0.0,0.0
1141,285,81.4964,94.6667,124.955,98.4732,50.1324,0.025517,0.75396,20.0319,40.6457,6.03916,0.0,0.0
1148,286.75,81.8599,95.1273,125.024,98.3363,49.5452,0.0250785,0.752582,20.0346,40.3454,6.13211,0.0,0.0
1155,288.5,82.1524,94.9422,126.762,98.2006,52.1265,0.0242408,0.749097,20.0472,40.0852,5.66542,0.0,0.0
1162,290.25,82.0423,95.365,127.988,98.068,52.4904,0.0233738,0.740739,20.0611,39.835,5.5911,0.0,0.0
1169,292,82.4248,95.4882,128.101,97.9394,53.2198,0.0223367,0.730444,20.0756,39.5848,5.45592,0.0,0.0
1176,293.75,82.2334,95.4509,137.312,97.8211,54.2161,0.0214042,0.720846,20.091,39.3145,5.2792,0.0,0.0
1183,295.5,82.0119,95.4184,133.068,97.698,53.4875,0.020621,0.709193,20.1071,39.0143,5.38896,0.0,0.0
1190,297.25,82.1756,95.1644,130.318,97.5587,57.0459,0.0198121,0.697481,20.1251,38.8041,4.80005,0.0,0.0
1197,299,82.0959,94.6395,129.202,97.4479,56.3061,0.0189865,0.687146,20.1399,38.5438,4.90665,0.0,0.0
1204,300.75,81.9392,94.84,127.362,97.3569,56.8836,0.0182245,0.676807,20.1561,38.2936,4.80701,0.0,0.0
1211,302.5,82.805,94.8368,129.226,97.2738,57.0957,0.0175915,0.66717,20.1722,38.0634,4.76608,0.0,0.0
1218,304.25,81.6816,94.4548,130.483,97.1947,59.562,0.0170226,0.657251,20.1871,37.8432,4.38052,0.0,0.0
1225,306,81.7496,94.0852,132.129,97.1341,60.7163,0.0162735,0.645544,20.2007,37.633,4.20324,0.0,0.0
1232,307.75,81.7454,94.0182,132.489,97.1017,62.3605,0.0157177,0.634892,20.2178,37.3728,3.96124,0.0,0.0
1239,309.5,82.2612,93.0839,131.508,97.0708,62.2979,0.0151717,0.625448,20.2296,37.1526,3.96738,0.0,0.0
1246,311.25,82.4507,94.0058,132.798,97.0625,63.4309,0.0146297,0.619306,20.2374,36.9825,3.80538,0.0,0.0
1253,313,81.3738,93.4406,132.596,97.049,62.5853,0.0141095,0.613306,20.2441,36.7623,3.9242,0.0,0.0
1260,314.75,81.3531,93.2078,133.428,97.0783,64.3542,0.0136699,0.606322,20.2565,36.5621,3.67757,0.0,0.0
1267,316.5,81.2813,93.2521,131.839,97.1238,63.0126,0.0133543,0.598428,20.2664,36.3619,3.87022,0.0,0.0
1274,318.25,81.5189,92.8368,133.637,97.1377,63.5862,0.0131268,0.59094,20.2732,36.1317,3.79043,0.0,0.0
1281,320,81.0008,92.4084,132.415,97.1713,64.0703,0.0128841,0.583768,20.2837,35.9716,3.72569,0.0,0.0
1288,321.75,80.785,92.0212,131.293,97.2291,65.9617,0.0125996,0.575671,20.3002,35.7714,3.47075,0.0,0.0
1295,323.5,80.5989,91.4771,136.431,97.2991,66.9317,0.0123711,0.564704,20.3188,35.5812,3.3466,0.0,0.0
1302,325.25,79.4292,91.0322,136.884,97.3569,69.0491,0.0122962,0.554414,20.333,35.4311,3.07331,0.0,0.0
1309,327,79.3434,90.5682,133.608,97.423,69.3829,0.0123117,0.54578,20.3433,35.241,3.03624,0.0,0.0
1316,328.75,79.6618,90.308,144.267,97.4788,70.8316,0.0122923,0.536082,20.3592,35.0308,2.85651,0.0,0.0
1323,330.5,79.2606,89.7691,133.597,97.5627,69.0345,0.0121739,0.526521,20.371,34.8706,3.09409,0.0,0.0
1330,332.25,79.1779,89.8597,128.924,97.63,67.5692,0.0119529,0.519269,20.3769,34.7205,3.29218,0.0,0.0
1337,334,78.5523,89.2033,135.484,97.6909,69.4254,0.0116117,0.515135,20.3809,34.5503,3.05533,0.0,0.0
1344,335.75,78.8424,89.0398,136.078,97.7352,70.8834,0.0111245,0.512645,20.3847,34.3302,2.87347,0.0,0.0
1351,337.5,78.5376,88.6168,134.121,97.7993,71.4841,0.0105409,0.509554,20.387,34.15,2.80385,0.0,0.0
1358,339.25,78.0076,87.6742,136.755,97.8777,67.4668,0.0101556,0.507991,20.3882,33.9598,3.32841,0.0,0.0
1365,341,77.5923,87.7641,131.285,97.9141,66.382,0.0100382,0.508334,20.3856,33.7697,3.47673,0.0,0.0
1372,342.75,78.2349,87.9636,132.276,97.9695,65.429,0.0102351,0.512384,20.3776,33.5695,3.61115,0.0,0.0
1379,344.5,78.1567,87.7046,135.297,98.0166,64.9071,0.0104809,0.517201,20.3687,33.3693,3.68709,0.0,0.0
1386,346.25,77.7624,87.3315,136.257,98.0708,63.9339,0.010667,0.522162,20.3618,33.1992,3.82717,0.0,0.0
1393,348,77.8786,87.7095,133.048,98.1278,65.3776,0.0106876,0.525286,20.358,33.049,3.63262,0.0,0.0
1400,349.75,77.5773,87.5531,139.034,98.1527,68.4855,0.0104224,0.524576,20.3613,32.8288,3.21945,0.0,0.0
1407,351.5,77.7382,87.1869,134.411,98.1954,66.5215,0.00992899,0.519412,20.3736,32.6787,3.48363,0.0,0.0
1414,353.25,77.4931,86.8077,138.725,98.2196,69.7866,0.00918376,0.511287,20.3864,32.4885,3.05719,0.0,0.0
1421,355,77.2024,86.4503,136.188,98.2437,70.1513,0.00836665,0.501282,20.4031,32.3584,3.01276,0.0,0.0
1428,356.75,76.8236,85.9372,133.446,98.2797,71.4617,0.00774058,0.49118,20.4172,32.2283,2.85049,0.0,0.0
1435,358.5,76.9913,85.7631,132.263,98.2872,73.0885,0.00739427,0.483559,20.4278,32.0481,2.64982,0.0,0.0
1442,360.25,76.686,85.5219,139.78,98.2951,72.4908,0.00723967,0.477344,20.4331,31.888,2.72398,0.0,0.0
1449,362,76.5129,85.3985,138.914,98.3173,72.4271,0.00711639,0.4727,20.4398,31.7579,2.73387,0.0,0.0
1456,363.75,76.2378,84.7457,137.827,98.3284,72.7443,0.00702749,0.468266,20.4466,31.5978,2.69579,0.0,0.0
1463,365.5,76.3601,84.8315,133.996,98.3308,72.5782,0.00689353,0.464841,20.4496,31.4476,2.71646,0.0,0.0
1470,367.25,76.1121,84.7564,138.669,98.3256,73.5146,0.00662501,0.462224,20.4509,31.2975,2.60131,0.0,0.0
1477,369,75.9432,84.2613,131.902,98.3331,73.1321,0.00615409,0.457884,20.4554,31.1774,2.64865,0.0,0.0
1484,370.75,76.3601,83.8434,137.665,98.3343,73.7197,0.00564393,0.452171,20.4672,31.0573,2.57718,0.0,0.0
1491,372.5,74.8939,83.3727,131.417,98.3351,75.2735,0.00524982,0.444704,20.4812,30.9071,2.39067,0.0,0.0
1498,374.25,75.3254,83.5562,133.562,98.3391,78.9524,0.00503127,0.437099,20.4929,30.747,1.96419,0.0,0.0
1505,376,74.8793,82.8632,137.804,98.3319,75.9855,0.00484644,0.430082,20.501,30.6369,2.30617,0.0,0.0
1512,377.75,74.6234,82.2563,136.163,98.3371,77.9198,0.00466175,0.424149,20.5093,30.5168,2.08177,0.0,0.0
1519,379.5,74.3985,82.0444,132.497,98.3379,76.8825,0.00454308,0.418988,20.5151,30.3767,2.20173,0.0,0.0
1526,381.25,73.1991,81.3358,139.17,98.3256,78.2389,0.00451928,0.414361,20.5185,30.2766,2.04417,0.0,0.0
1533,383,73.9657,81.4104,137.949,98.3224,76.9768,0.00458174,0.410606,20.524,30.1265,2.18936,0.0,0.0
1540,384.75,73.7659,81.1312,133.906,98.3205,77.6385,0.00461559,0.406021,20.5302,30.0064,2.11261,0.0,0.0
1547,386.5,73.47,80.6884,139.834,98.3296,80.0627,0.00443618,0.401449,20.5365,29.8963,1.8384,0.0,0.0
1554,388.25,73.1968,80.2537,139.524,98.3165,78.9914,0.00409108,0.396869,20.5407,29.7661,1.95771,0.0,0.0
1561,390,73.1534,80.3394,135.289,98.3062,79.7814,0.00369491,0.392964,20.5462,29.6661,1.86776,0.0,0.0
1568,391.75,73.1705,79.7844,142.473,98.3185,80.6012,0.00337871,0.389067,20.5536,29.5359,1.77743,0.0,0.0
1575,393.5,72.4508,79.5764,136.432,98.3181,81.8853,0.00311363,0.382732,20.5654,29.4359,1.636,0.0,0.0
1582,395.25,72.909,79.0138,142.765,98.309,82.8391,0.00290917,0.375705,20.5763,29.3258,1.53158,0.0,0.0
1589,397,72.2268,78.5911,138.273,98.2995,81.3877,0.00281377,0.369694,20.5842,29.2357,1.68883,0.0,0.0
1596,398.75,72.2334,78.6271,133.51,98.3003,82.0723,0.00272384,0.365226,20.5888,29.1356,1.61398,0.0,0.0
1603,400.5,71.5074,77.9128,137.596,98.294,83.04,0.00263405,0.361754,20.592,29.0455,1.50854,0.0,0.0
1610,402.25,71.4548,77.8587,142.435,98.292,83.9061,0.00266826,0.357536,20.5985,28.9554,1.41554,0.0,0.0
1617,404,70.8176,77.3711,136.284,98.2975,83.4866,0.00278777,0.353417,20.6045,28.8453,1.46089,0.0,0.0
1624,405.75,71.1209,77.23,140.732,98.2963,84.0386,0.00286909,0.347787,20.6135,28.7252,1.40182,0.0,0.0
1631,407.5,70.9007,76.957,140.529,98.2904,83.6736,0.00290099,0.341779,20.6203,28.6352,1.44023,0.0,0.0
1638,409.25,70.6146,76.844,142.989,98.2951,84.0784,0.00286234,0.33765,20.6236,28.5551,1.39748,0.0,0.0
1645,411,70.3909,76.1365,143.046,98.2884,85.2188,0.00271115,0.335136,20.6267,28.455,1.27635,0.0,0.0
1652,412.75,70.1724,76.0485,133.491,98.2694,85.5337,0.00245197,0.332142,20.6301,28.3449,1.24164,0.0,0.0
1659,414.5,70.3176,75.8285,137.918,98.2722,83.7126,0.0022514,0.329373,20.6333,28.2848,1.4344,0.0,0.0
1666,416.25,70.0132,75.1854,138.927,98.2876,85.8798,0.00214901,0.326003,20.6388,28.1948,1.20717,0.0,0.0
1673,418,69.3763,74.908,138.415,98.2809,85.8377,0.00213969,0.322654,20.6448,28.1047,1.21094,0.0,0.0
1680,419.75,69.2848,74.5452,140.452,98.2758,86.9434,0.00220267,0.318781,20.6505,28.0346,1.09599,0.0,0.0
1687,421.5,68.898,74.5003,140.664,98.2801,87.1207,0.0022472,0.314441,20.6547,27.9145,1.07816,0.0,0.0
1694,423.25,68.9228,74.3007,140.508,98.2849,86.1479,0.0021808,0.310147,20.6603,27.8745,1.17903,0.0,0.0
1701,425,68.2443,73.8953,141.778,98.29,88.2282,0.00208186,0.305381,20.6679,27.7944,0.966054,0.0,0.0
1708,426.75,67.5987,73.5212,137.525,98.2888,86.8954,0.00205473,0.299721,20.6752,27.7243,1.10211,0.0,0.0
1715,428.5,68.288,73.3993,138.389,98.2714,86.6996,0.00207725,0.296175,20.6796,27.6243,1.12071,0.0,0.0
1722,430.25,67.8503,73.0849,143.011,98.2837,87.9335,0.00211388,0.293132,20.6832,27.5342,0.995413,0.0,0.0
1729,432,68.1008,72.8279,141.069,98.2975,87.6198,0.00217537,0.289215,20.6881,27.4941,1.02864,0.0,0.0
1736,433.75,68.1427,72.5092,140.949,98.2864,87.4262,0.00229394,0.286406,20.6909,27.4241,1.04741,0.0,0.0
1743,435.5,67.2285,72.1818,141.478,98.2924,87.1902,0.00242982,0.284961,20.6922,27.344,1.07214,0.0,0.0
1750,437.25,67.5509,71.9748,142.148,98.2864,88.7973,0.00250379,0.283184,20.694,27.2539,0.908219,0.0,0.0
1757,439,66.4931,71.3472,136.469,98.2924,88.5589,0.00243485,0.281338,20.6968,27.1939,0.932804,0.0,0.0
1764,440.75,66.5692,71.7299,145.671,98.2948,87.4811,0.00232839,0.280373,20.6986,27.0938,1.04256,0.0,0.0
1771,442.5,66.6164,71.6011,142.004,98.2951,88.2209,0.00230142,0.279521,20.6994,27.0337,0.967265,0.0,0.0
1778,444.25,66.3981,70.9209,141.821,98.2928,89.2269,0.00248975,0.278894,20.6999,26.9437,0.865625,0.0,0.0
1785,446,66.4046,70.8864,139.35,98.2979,87.5638,0.00275747,0.279074,20.6994,26.9036,1.0344,0.0,0.0
1792,447.75,65.6901,70.4846,143.751,98.3213,87.7484,0.00299524,0.279801,20.6987,26.8336,1.01768,0.0,0.0
1799,449.5,66.7884,70.3856,145.448,98.2967,88.4542,0.00307396,0.279396,20.6999,26.7635,0.943781,0.0,0.0
1806,451.25,65.8628,70.0282,139.867,98.311,88.5833,0.00296177,0.276901,20.706,26.6834,0.932039,0.0,0.0
1813,453,66.0185,70.3818,139.789,98.3145,90.0045,0.00273244,0.27384,20.7102,26.6234,0.78998,0.0,0.0
1820,454.75,65.5582,69.9995,140.538,98.3232,87.9516,0.0025465,0.27173,20.7103,26.5333,0.997167,0.0,0.0
1827,456.5,65.5591,69.317,141.584,98.3197,88.6374,0.00248277,0.271472,20.7098,26.4632,0.927371,0.0,0.0
1834,458.25,64.5281,69.6113,140.375,98.3403,89.6213,0.00249012,0.270626,20.7106,26.3832,0.83049,0.0,0.0
1841,460,65.3603,69.3779,139.813,98.3181,88.7363,0.00260195,0.268409,20.7139,26.3231,0.917252,0.0,0.0
1848,461.75,65.0728,69.1244,141.585,98.3213,90.2579,0.00268303,0.265468,20.7166,26.2631,0.765441,0.0,0.0
1855,463.5,64.324,68.6549,143.484,98.3442,90.9468,0.00271229,0.263623,20.7204,26.193,0.699521,0.0,0.0
1862,465.25,64.731,68.4704,143.682,98.3363,90.1166,0.00270091,0.261347,20.7232,26.1229,0.780833,0.0,0.0
1869,467,64.2343,68.225,145.061,98.3224,89.1936,0.00262926,0.259041,20.7262,26.0829,0.871656,0.0,0.0
1876,468.75,64.2808,68.1423,141.221,98.3252,90.3194,0.00253265,0.256712,20.7298,26.0128,0.759714,0.0,0.0
1883,470.5,64.2955,67.8665,142.171,98.3403,90.1714,0.00252918,0.254201,20.7317,25.9528,0.775749,0.0,0.0
1890,472.25,64.0127,68.2046,141.358,98.3232,90.7447,0.00264458,0.253403,20.7313,25.8827,0.717507,0.0,0.0
1897,474,63.4215,67.4624,141.292,98.305,89.7913,0.00277421,0.254032,20.7295,25.8027,0.810335,0.0,0.0
1904,475.75,63.9122,67.7593,143.429,98.2999,90.3661,0.0028775,0.255655,20.7265,25.7626,0.752782,0.0,0.0
1911,477.5,63.812,67.5976,139.322,98.2975,88.421,0.00293108,0.257477,20.7236,25.6625,0.947214,0.0,0.0
1918,479.25,63.3399,67.4927,142.947,98.2868,89.456,0.00287495,0.25888,20.7216,25.6125,0.842147,0.0,0.0
1925,481,63.51,67.538,140.992,98.2698,89.5537,0.00276539,0.259843,20.7206,25.5625,0.830831,0.0,0.0
1932,482.75,63.0259,66.7518,137.877,98.2548,90.1799,0.00264962,0.260032,20.7202,25.4824,0.767127,0.0,0.0
1939,484.5,63.1593,67.1803,142.088,98.237,88.8703,0.00261572,0.259427,20.7203,25.4223,0.896364,0.0,0.0
1946,486.25,63.1206,67.2121,140.44,98.2457,90.183,0.00266317,0.258375,20.722,25.3523,0.765992,0.0,0.0
1953,488,62.9363,66.802,143.816,98.2219,89.3408,0.00275128,0.256586,20.7252,25.2922,0.847758,0.0,0.0
1960,489.75,63.2182,67.0528,141.949,98.199,90.5647,0.00280452,0.254078,20.7303,25.2422,0.72396,0.0,0.0
1967,491.5,62.9759,66.7945,143.713,98.18,89.4193,0.00288991,0.251212,20.7339,25.1821,0.836088,0.0,0.0
1974,493.25,62.9321,66.7097,141.475,98.1677,89.6777,0.00296561,0.24925,20.7361,25.1221,0.809153,0.0,0.0
1981,495,62.4335,66.0253,141.491,98.1503,90.9406,0.00299208,0.247013,20.7389,25.032,0.682474,0.0,0.0
1988,496.75,63.5114,66.4169,145.34,98.1056,91.1469,0.00301546,0.244247,20.7421,24.9919,0.658129,0.0,0.0
1995,498.5,62.7227,66.4316,143.176,98.0684,91.1623,0.0030491,0.24215,20.7443,24.9119,0.65322,0.0,0.0
2002,500.25,62.5125,66.1526,141.034,98.0478,90.1784,0.00305737,0.24031,20.7465,24.8819,0.748418,0.0,0.0
2009,502,61.8238,66.4759,142.578,98.0102,91.9628,0.00300226,0.239012,20.748,24.8018,0.569711,0.0,0.0
2016,503.75,62.4783,65.3141,138.502,97.9861,89.7669,0.00299236,0.238516,20.7476,24.7417,0.78369,0.0,0.0
2023,505.5,62.4275,65.9503,148.221,97.9299,89.9721,0.00307342,0.238758,20.7466,24.6917,0.75814,0.0,0.0
2030,507.25,62.0862,65.4669,139.238,97.8836,90.6458,0.00313959,0.23884,20.7453,24.6316,0.687175,0.0,0.0
2037,509,61.3581,64.9565,139.173,97.861,90.4426,0.00311176,0.238897,20.7446,24.6016,0.705188,0.0,0.0
2044,510.75,61.2724,65.3483,141.162,97.8104,89.9871,0.00305527,0.239214,20.7443,24.5215,0.745719,0.0,0.0
2051,512.5,61.6773,64.8015,144.529,97.772,90.1451,0.00303139,0.239487,20.7442,24.4915,0.726515,0.0,0.0
2058,514.25,61.8692,65.4028,142.442,97.7214,91.8994,0.00300863,0.239499,20.7456,24.3914,0.549472,0.0,0.0
2065,516,61.7167,65.2181,145.579,97.6838,90.0184,0.00297946,0.238523,20.7481,24.3614,0.731022,0.0,0.0
2072,517.75,60.8272,65.278,139.044,97.6402,91.0827,0.00300553,0.236421,20.7511,24.3114,0.621892,0.0,0.0
2079,519.5,60.9211,64.322,141.084,97.5805,91.4679,0.00306613,0.234926,20.7526,24.2613,0.578669,0.0,0.0
2086,521.25,61.0614,64.358,145.557,97.512,91.3192,0.00321019,0.234004,20.754,24.1712,0.586948,0.0,0.0
2093,523,61.3623,65.005,140.55,97.4697,90.9603,0.00339553,0.233144,20.7555,24.1512,0.618289,0.0,0.0
2100,524.75,61.1711,64.2826,144.631,97.4357,90.1602,0.00353336,0.231644,20.7579,24.0812,0.694194,0.0,0.0
2107,526.5,61.2787,64.7483,142.805,97.3985,89.8991,0.00360724,0.229806,20.7595,24.0311,0.716726,0.0,0.0
2114,528.25,60.5664,64.0339,143.282,97.3553,90.7551,0.00374669,0.228824,20.76,23.961,0.627983,0.0,0.0
2121,530,60.8363,64.1493,142.221,97.3019,90.4117,0.00377269,0.228782,20.7601,23.911,0.656989,0.0,0.0
2128,531.75,60.652,64.0034,141.504,97.2619,90.6543,0.00363546,0.228708,20.7602,23.861,0.629342,0.0,0.0
2135,533.5,60.5508,63.8626,147.798,97.2441,90.0717,0.00347952,0.228011,20.7602,23.8109,0.685375,0.0,0.0
2142,535.25,60.3512,63.9143,141.234,97.2081,90.6512,0.00339385,0.227744,20.7603,23.7609,0.624695,0.0,0.0
2149,537,60.1347,63.3438,142.255,97.1693,90.2205,0.00343245,0.227476,20.7603,23.7008,0.663732,0.0,0.0
2156,538.75,60.5188,63.6632,142.976,97.1618,90.8293,0.00347551,0.226387,20.7633,23.6308,0.602878,0.0,0.0
2163,540.5,60.2612,63.6468,144.373,97.131,91.2562,0.00348524,0.225222,20.7653,23.5907,0.558092,0.0,0.0
2170,542.25,59.8396,63.2492,141.561,97.1286,90.4897,0.00354774,0.224568,20.7655,23.5307,0.633323,0.0,0.0
2177,544,60.1865,63.3372,142.132,97.0807,90.7177,0.00365886,0.225051,20.763,23.4606,0.606409,0.0,0.0
2184,545.75,60.1437,63.3032,141.157,97.0756,90.7675,0.00381838,0.225988,20.7616,23.4006,0.601022,0.0,0.0
2191,547.5,60.1384,63.4286,138.702,97.0815,91.4451,0.00403357,0.225813,20.7618,23.3705,0.535037,0.0,0.0
2198,549.25,59.7996,62.8391,140.524,97.0803,90.0675,0.00417221,0.22451,20.7632,23.3105,0.670714,0.0,0.0
2205,551,60.0318,63.2238,142.905,97.072,90.747,0.0042398,0.22278,20.7656,23.2404,0.602711,0.0,0.0
2212,552.75,59.9021,63.0634,141.721,97.0752,91.0565,0.00428847,0.220778,20.7695,23.2404,0.572552,0.0,0.0
2219,554.5,59.9367,63.0039,145.729,97.0851,90.9371,0.00439733,0.217483,20.7754,23.1703,0.585199,0.0,0.0
2226,556.25,59.5191,63.3859,140.396,97.1151,92.0319,0.00456175,0.21508,20.7783,23.1503,0.480917,0.0,0.0
2233,558,59.8229,62.2894,142.927,97.1329,91.0549,0.00462531,0.214431,20.7782,23.0803,0.578026,0.0,0.0
2240,559.75,59.3912,62.7087,143.888,97.1428,91.1592,0.00460398,0.213903,20.7779,23.0402,0.568697,0.0,0.0
2247,561.5,59.1698,62.1468,142.511,97.1864,91.7318,0.00459689,0.212438,20.7792,23.0002,0.516698,0.0,0.0
2254,563.25,59.1668,62.3553,144.274,97.2267,91.7673,0.00464679,0.211215,20.7808,22.9401,0.516947,0.0,0.0
2261,565,59.5423,61.8709,148.658,97.2778,91.7333,0.00467103,0.210446,20.7816,22.9101,0.524957,0.0,0.0
2268,566.75,59.401,62.1735,141.552,97.3043,92.4426,0.00467347,0.209682,20.7831,22.8501,0.458496,0.0,0.0
2275,568.5,58.7565,61.7266,144.819,97.3593,92.6523,0.00468362,0.208577,20.7845,22.8301,0.443275,0.0,0.0
2282,570.25,58.9887,62.2377,141.08,97.4234,92.2231,0.00471221,0.207212,20.7868,22.77,0.490697,0.0,0.0
2289,572,57.8518,61.6177,147.026,97.4843,92.1629,0.00477325,0.205556,20.7886,22.7099,0.502139,0.0,0.0
2296,573.75,59.424,62.3287,145.289,97.5472,93.1812,0.00490747,0.204116,20.7899,22.6599,0.409614,0.0,0.0
2303,575.5,58.8014,61.7112,143.308,97.5979,93.4567,0.00511087,0.203073,20.7905,22.6299,0.387854,0.0,0.0
2310,577.25,58.5081,61.4565,144.934,97.6881,93.5401,0.00523049,0.202271,20.7907,22.5698,0.388135,0.0,0.0
2317,579,58.3649,61.2237,144.642,97.7704,92.6724,0.00517665,0.201946,20.7909,22.5198,0.479033,0.0,0.0
2324,580.75,57.9892,61.2948,143.337,97.825,92.5824,0.00509159,0.201731,20.7914,22.4797,0.49272,0.0,0.0
2331,582.5,58.0896,61.1193,147.691,97.884,92.358,0.00516373,0.200984,20.7924,22.4297,0.519823,0.0,0.0
2338,584.25,57.9869,60.9589,143.524,97.9544,92.9486,0.0053508,0.200327,20.7928,22.4397,0.46923,0.0,0.0
2345,586,58.1023,60.9982,144.111,98.0268,93.9585,0.00554942,0.199604,20.7941,22.3797,0.379179,0.0,0.0
2352,587.75,57.7118,60.4214,147.343,98.1139,94.4031,0.00572001,0.198435,20.7955,22.3196,0.344887,0.0,0.0
2359,589.5,58.0647,60.9327,150.91,98.1677,94.6685,0.00577623,0.197064,20.7974,22.2996,0.324678,0.0,0.0
2366,591.25,57.9855,60.9183,143.588,98.2425,94.3703,0.005796,0.195275,20.7988,22.2495,0.359716,0.0,0.0
2373,593,57.8179,60.6862,143.375,98.3126,93.7012,0.005811,0.194213,20.7995,22.2095,0.429742,0.0,0.0
2380,594.75,57.5188,60.7844,144.819,98.3834,93.5173,0.00582359,0.194332,20.7998,22.1495,0.453756,0.0,0.0
2387,596.5,57.8075,60.2568,144.528,98.4412,94.4201,0.00589049,0.19414,20.8015,22.0994,0.373063,0.0,0.0
2394,598.25,57.5917,60.4867,148.485,98.5037,93.5733,0.0059756,0.19333,20.8038,22.0794,0.45933,0.0,0.0
2401,600,57.4433,60.0224,148.316,98.5607,95.4597,0.00606211,0.192095,20.805,22.0293,0.285965,0.0,0.0
2408,601.75,57.654,60.4931,142.346,98.6252,93.7812,0.00611479,0.191234,20.8067,22.0293,0.45051,0.0,0.0
2415,603.5,57.0081,60.1773,147.246,98.6833,94.3564,0.00619347,0.190405,20.8075,21.9593,0.401084,0.0,0.0
2422,605.25,57.3273,60.177,145.408,98.6988,95.3257,0.00636077,0.189551,20.8085,21.9092,0.31106,0.0,0.0
2429,607,57.08,59.983,146.75,98.7471,94.9359,0.00651962,0.18883,20.8096,21.8892,0.352089,0.0,0.0
2436,608.75,57.4093,60.1104,145.112,98.7973,94.3502,0.00663654,0.187967,20.8101,21.8392,0.411995,0.0,0.0
2443,610.5,56.9384,59.6916,144.382,98.8393,95.2542,0.00667965,0.187624,20.8113,21.8192,0.330493,0.0,0.0
2450,612.25,57.3507,60.0166,146.046,98.8689,95.7827,0.00663215,0.187361,20.8121,21.7791,0.283686,0.0,0.0
2457,614,56.6606,59.2891,146.952,98.8717,95.9882,0.00656823,0.186422,20.8125,21.7391,0.264763,0.0,0.0
2464,615.75,56.6028,59.2456,145.525,98.8883,94.1636,0.00656104,0.185525,20.8136,21.7091,0.437939,0.0,0.0
2471,617.5,56.5853,59.005,142.775,98.9342,95.9036,0.00660582,0.18475,20.8144,21.659,0.278307,0.0,0.0
2478,619.25,56.3294,58.924,143.133,98.9326,95.5235,0.00668149,0.184241,20.8148,21.609,0.313689,0.0,0.0
2485,621,56.4697,59.1881,148.191,98.9362,94.6005,0.00675827,0.184048,20.8149,21.5689,0.400859,0.0,0.0
2492,622.75,56.4621,59.1967,144.322,98.9453,95.9588,0.00687047,0.183297,20.815,21.5489,0.274156,0.0,0.0
2499,624.5,56.5468,59.118,146.032,98.937,94.7678,0.00702263,0.182227,20.8151,21.5089,0.385127,0.0,0.0
2506,626.25,56.2392,58.9049,143.063,98.9544,95.0873,0.00723584,0.181369,20.8143,21.4789,0.356595,0.0,0.0
2513,628,56.728,59.0371,145.807,98.9311,95.6969,0.00745145,0.181808,20.8136,21.4188,0.297319,0.0,0.0
2520,629.75,56.17,58.8079,143.118,98.9121,95.4025,0.00754988,0.182225,20.8132,21.3788,0.32316,0.0,0.0
2527,631.5,56.2416,58.8485,143.676,98.8978,95.0019,0.00749431,0.181813,20.8134,21.3588,0.359513,0.0,0.0
2534,633.25,56.0361,58.6904,142.387,98.8927,95.8982,0.00739177,0.180975,20.8143,21.3087,0.275053,0.0,0.0
2541,635,55.7241,58.3301,146.573,98.8721,95.8228,0.00737603,0.180045,20.8147,21.2787,0.280222,0.0,0.0
2548,636.75,55.9922,58.517,149.297,98.8286,95.3195,0.00751696,0.17952,20.8149,21.2186,0.323397,0.0,0.0
2555,638.5,55.9714,58.5418,143.929,98.8048,95.4443,0.00787341,0.179384,20.8151,21.1886,0.309544,0.0,0.0
2562,640.25,56.0691,58.6718,146.982,98.7656,95.1568,0.00812734,0.179039,20.8151,21.1686,0.332976,0.0,0.0
2569,642,55.567,58.2512,148.101,98.7281,94.7605,0.0083092,0.17853,20.8151,21.1185,0.366909,0.0,0.0
2576,643.75,55.9875,58.0415,144.465,98.6972,95.2391,0.00831626,0.178195,20.8151,21.0685,0.319042,0.0,0.0
2583,645.5,55.4353,58.0035,145.578,98.6406,94.6851,0.00829536,0.177949,20.8141,21.0285,0.366096,0.0,0.0
2590,647.25,55.6702,58.3558,140.702,98.5888,95.1661,0.00845368,0.178151,20.8137,21.0185,0.31607,0.0,0.0
2597,649,55.3058,58.2244,145.844,98.5524,95.8043,0.0086825,0.177828,20.815,20.9884,0.252977,0.0,0.0
2604,650.75,55.4119,58.3156,143.727,98.4954,95.7487,0.00879363,0.17691,20.8163,20.9484,0.253,0.0,0.0
2611,652.5,55.3509,57.8455,146.66,98.4558,94.4781,0.00876539,0.175813,20.8169,20.9084,0.368905,0.0,0.0
2618,654.25,55.3351,57.8975,147.322,98.3945,94.852,0.00880432,0.174561,20.8181,20.8883,0.327994,0.0,0.0
2625,656,55.467,57.8835,149.279,98.3577,94.8497,0.00899129,0.172605,20.8189,20.8383,0.324866,0.0,0.0
2632,657.75,55.6448,57.5711,148.17,98.3086,95.1132,0.00924495,0.171828,20.8193,20.8283,0.295589,0.0,0.0
2639,659.5,54.6982,57.2242,147.927,98.2643,95.5227,0.00951693,0.171931,20.8195,20.7782,0.253125,0.0,0.0
2646,661.25,55.4096,57.81,141.707,98.2291,94.7628,0.00972634,0.171813,20.8196,20.7482,0.321364,0.0,0.0
2653,663,54.8786,57.6889,145.277,98.1855,94.6229,0.00983466,0.171898,20.8197,20.7182,0.33061,0.0,0.0
2660,664.75,54.3755,56.7256,145.105,98.1559,94.9146,0.0098588,0.172103,20.8186,20.6982,0.300374,0.0,0.0
2667,666.5,54.736,56.6734,146.96,98.1325,94.8142,0.00980451,0.17207,20.8192,20.6481,0.307718,0.0,0.0
2674,668.25,54.6837,57.294,146.019,98.22,95.1429,0.00975578,0.171376,20.8206,20.6481,0.284723,0.0,0.0
2681,670,54.7487,57.2706,149.317,98.2979,94.5553,0.00973682,0.170451,20.8224,20.5981,0.347235,0.0,0.0
2688,671.75,54.1678,57.2603,147.736,98.3881,95.5679,0.0097683,0.169303,20.8233,20.5681,0.260161,0.0,0.0
2695,673.5,53.5718,56.9554,144.877,98.4606,96.1748,0.0097788,0.168606,20.8238,20.528,0.210116,0.0,0.0
2702,675.25,54.5602,57.0485,145.328,98.4954,95.0537,0.0096947,0.167986,20.8251,20.488,0.318165,0.0,0.0
2709,677,54.7532,57.2044,145.818,98.5532,95.2557,0.00964083,0.166629,20.8263,20.448,0.304417,0.0,0.0
2716,678.75,53.8162,55.5975,144.946,98.5923,95.1781,0.0096779,0.16608,20.8272,20.438,0.315268,0.0,0.0
2723,680.5,53.8234,56.2179,150.559,98.6307,94.9007,0.00979497,0.166027,20.8276,20.3979,0.344856,0.0,0.0
2730,682.25,53.728,56.0829,150.142,98.637,95.3376,0.00989227,0.166663,20.8262,20.3979,0.304341,0.0,0.0
2737,684,53.8674,55.7522,146.294,98.6418,96.1864,0.0100048,0.167928,20.8248,20.3479,0.225488,0.0,0.0
2744,685.75,53.2287,55.8427,146.051,98.6315,96.3042,0.0101145,0.169017,20.8241,20.3379,0.213603,0.0,0.0
2751,687.5,53.5608,56.2722,141.288,98.6228,95.5517,0.0101876,0.169446,20.8237,20.3078,0.28299,0.0,0.0
2758,689.25,53.5659,56.0387,142.391,98.5896,95.1479,0.010216,0.1691,20.8232,20.2878,0.317849,0.0,0.0
2765,691,53.3863,56.6633,139.999,98.5642,95.1387,0.0103036,0.168534,20.8238,20.2578,0.316422,0.0,0.0
2772,692.75,53.3804,55.9109,144.98,98.4827,94.2467,0.0104906,0.16769,20.8256,20.2077,0.393286,0.0,0.0
2779,694.5,53.3366,55.4488,147.76,98.4214,95.5045,0.0106962,0.16674,20.8272,20.1977,0.269115,0.0,0.0
2786,696.25,53.7408,55.8688,146.279,98.347,95.039,0.0107334,0.16542,20.83,20.1777,0.30606,0.0,0.0
2793,698,53.1483,55.8412,147.046,98.2556,95.1012,0.0106053,0.163548,20.8327,20.1577,0.291889,0.0,0.0
2800,699.75,53.098,55.4933,145.681,98.1602,95.0278,0.0104596,0.161555,20.8357,20.1177,0.29011,0.0,0.0
2807,701.5,53.4084,55.2214,144.452,98.0383,94.419,0.0104373,0.160376,20.8372,20.0676,0.336492,0.0,0.0
2814,703.25,52.9917,55.9204,143.68,97.9109,95.046,0.0105783,0.159976,20.8379,20.0476,0.265652,0.0,0.0
2821,705,52.7401,55.4526,145.099,97.7625,94.565,0.0107298,0.160271,20.8374,20.0376,0.297466,0.0,0.0
2828,706.75,52.6492,55.2367,145.128,97.757,95.6768,0.0107777,0.160403,20.8368,19.9976,0.192401,0.0,0.0
2835,708.5,52.796,55.3847,147.375,97.7843,95.2047,0.0107535,0.159854,20.8372,19.9375,0.239145,0.0,0.0
2842,710.25,52.6938,54.8848,146.563,97.8246,94.8238,0.0106925,0.158889,20.839,19.9475,0.278698,0.0,0.0
2849,712,52.7553,55.2602,143.683,97.8587,93.8117,0.0106372,0.157327,20.8419,19.9075,0.377805,0.0,0.0
2856,713.75,52.3294,53.9058,145.778,97.8923,95.248,0.0106283,0.15609,20.8441,19.8775,0.244958,0.0,0.0
2863,715.5,52.209,54.8722,143.714,97.9327,94.927,0.0106771,0.155542,20.8452,19.8574,0.278846,0.0,0.0
2870,717.25,51.8804,53.9408,147.736,97.9742,94.3104,0.0107383,0.154615,20.8467,19.8174,0.340931,0.0,0.0
2877,719,52.2449,54.8668,141.169,98.013,94.4,0.0107851,0.15387,20.848,19.8074,0.335975,0.0,0.0
2884,720.75,52.0565,54.4753,146.309,98.0522,95.2901,0.0108251,0.154147,20.8477,19.7774,0.255602,0.0,0.0
2891,722.5,52.1323,54.5215,143.384,98.106,94.7091,0.0108211,0.154548,20.8476,19.7473,0.315219,0.0,0.0
2898,724.25,52.2994,54.121,149.629,98.1444,95.3295,0.0108085,0.153697,20.8492,19.7273,0.26031,0.0,0.0
2905,726,51.884,54.2765,140.318,98.1978,94.8976,0.0109366,0.152792,20.8504,19.7273,0.305798,0.0,0.0
2912,727.75,52.1115,54.3313,149.333,98.2215,94.8968,0.0112168,0.152579,20.8506,19.6673,0.308034,0.0,0.0
2919,729.5,51.9859,54.3282,144.444,98.2548,95.3593,0.0116641,0.153275,20.8495,19.6272,0.267577,0.0,0.0
2926,731.25,52.2922,54.0445,151.655,98.2726,95.7649,0.0120088,0.15361,20.8489,19.6072,0.231227,0.0,0.0
2933,733,51.6003,53.7661,148.635,98.3228,95.056,0.0121669,0.153844,20.8487,19.5672,0.302265,0.0,0.0
2940,734.75,51.4364,54.4075,145.829,98.3308,96.1396,0.0121584,0.15418,20.8485,19.5171,0.201586,0.0,0.0
2947,736.5,51.9999,53.7908,146.395,98.324,96.3587,0.012052,0.154174,20.8485,19.5272,0.180616,0.0,0.0
2954,738.25,51.8872,53.8817,148.712,98.3149,96.5043,0.01193,0.154363,20.8475,19.4571,0.166278,0.0,0.0
2961,740,51.7446,53.8646,145.944,98.2991,95.2499,0.0117701,0.154432,20.8481,19.4571,0.281872,0.0,0.0
2968,741.75,51.8375,53.8556,151.689,98.2987,95.3461,0.0116285,0.153848,20.8498,19.4271,0.272807,0.0,0.0
2975,743.5,51.7067,53.6985,144.889,98.2615,95.6552,0.0115515,0.153403,20.8507,19.397,0.240473,0.0,0.0
2982,745.25,51.5459,54.0952,143.681,98.2247,94.3854,0.0115379,0.153057,20.8511,19.377,0.356666,0.0,0.0
2989,747,51.1618,54.0906,146.882,98.2022,95.7742,0.0115334,0.152617,20.8525,19.347,0.223948,0.0,0.0
2996,748.75,51.3576,53.7517,144.148,98.1677,95.6845,0.0114318,0.151801,20.8532,19.337,0.229186,0.0,0.0
3003,750.5,51.4544,53.7856,142.61,98.1246,96.1644,0.0112019,0.150099,20.8542,19.2869,0.180511,0.0,0.0
3010,752.25,50.5531,52.823,152.644,98.0704,95.0062,0.0110697,0.148945,20.8548,19.2569,0.283957,0.0,0.0
3017,754,51.4488,53.8478,150.28,98.0003,95.8514,0.0110991,0.148714,20.855,19.2369,0.198331,0.0,0.0
3024,755.75,51.1633,53.7573,149.961,97.956,96.0446,0.011239,0.148788,20.8551,19.2169,0.176276,0.0,0.0
3031,757.5,51.4093,53.7803,147.343,97.9006,96.0991,0.0113951,0.149254,20.8544,19.1969,0.166144,0.0,0.0
3038,759.25,51.0776,53.5155,146.644,97.8258,95.3334,0.0116086,0.14998,20.8525,19.1568,0.230866,0.0,0.0
3045,761,51.3732,53.5527,148.692,97.7554,94.9977,0.0117524,0.150481,20.8515,19.1368,0.25598,0.0,0.0
3052,762.75,51.1885,54.1172,147.703,97.6897,96.1945,0.0118444,0.150627,20.8511,19.1068,0.137974,0.0,0.0
3059,764.5,51.2449,53.6088,145.571,97.6307,95.289,0.0118537,0.150812,20.8509,19.0968,0.21718,0.0,0.0
3066,766.25,51.3924,53.4243,146.83,97.552,95.2383,0.0117953,0.150637,20.8508,19.0567,0.214713,0.0,0.0
3073,768,51.1801,53.255,145.084,97.4879,95.8889,0.0117437,0.150466,20.8507,19.0467,0.147937,0.0,0.0
3080,769.75,51.1777,53.409,146.631,97.4147,94.7404,0.0117666,0.150382,20.8507,18.9867,0.249007,0.0,0.0
3087,771.5,50.7402,53.3482,148.28,97.3652,94.5213,0.0118069,0.150363,20.8498,18.9967,0.26517,0.0,0.0
3094,773.25,51.1145,53.1527,148.664,97.3229,94.7782,0.0118198,0.150722,20.8491,18.9566,0.237,0.0,0.0
3101,775,50.7563,53.1873,144.59,97.2437,94.47,0.0118438,0.150852,20.8487,18.9166,0.258865,0.0,0.0
3108,776.75,50.8815,53.5586,140.398,97.2002,94.9274,0.0118868,0.150923,20.8486,18.9066,0.211653,0.0,0.0
3115,778.5,50.6607,53.1037,146.528,97.1602,94.9169,0.0119086,0.150801,20.8485,18.8766,0.208957,0.0,0.0
3122,780.25,51.1023,53.2423,150.032,97.1389,94.0242,0.0119245,0.150427,20.8484,18.8566,0.291527,0.0,0.0
3129,782,51.1246,53.2498,146.737,97.0989,94.6542,0.0119932,0.149828,20.8486,18.8165,0.228101,0.0,0.0
3136,783.75,51.311,52.9182,147.756,97.0665,94.3436,0.012091,0.149307,20.8489,18.8165,0.254512,0.0,0.0
3143,785.5,49.5961,52.7865,143.235,97.0621,94.5144,0.0121401,0.149505,20.849,18.7665,0.237935,0.0,0.0
3150,787.25,50.5966,53.0189,146.992,97.0526,95.9905,,0.149941,,18.7264,0.0984335,0.0,0.0
3157,789,50.2416,52.6217,145.738,97.0641,94.305,,0.149855,,18.6964,0.257958,0.0,0.0
3164,790.75,50.3739,52.441,147.005,97.0629,94.12,,,,18.6864,0.275417,0.0,0.0
3171,792.5,49.804,52.0956,150.525,97.0807,94.013,,,,18.6464,0.287234,0.0,0.0
3178,794.25,50.4735,53.1114,144.084,97.1072,94.7524,,,,18.6364,0.219598,0.0,0.0
3185,796,49.9077,52.4485,149.415,97.1587,95.4562,,,,18.6063,0.15813,0.0,0.0
3190,797.25,50.4973,51.9946,151.428,97.1658,95.2229,,,,18.5663,0.180679,0.0,0.0