File: 01_Data/PC/Cone/PC_Cone_HF25Scan_220216_R2.csv
Names,Time,Stack TC,Smoke TC,Exh Press,Smoke Comp,Smoke Meas,CO Meter,CO2 Meter,O2 Meter,Sample Mass,Ext Coeff,Start Test,Flame Verif
Chan Gain,,500,500,1,1,1,1,1,1,1,1,1.0,1.0
Offset,,0,0,0.140898,0,0,0,0,0,0,0,0.0,0.0
Gain,,1,1,25.011,12.9668,12.6588,1,1,1,1.00088,1.01977,1.0,1.0
Units,sec,C,C,Pa,%,%,%,%,%,g,/m,,
Baseline,,16.4607,17.6533,163.553,98.9648,100.742,-0.00278771,0.0692296,20.9591,-873.037,-0.159195,,
7,1.5,16.6604,17.6597,163.64,98.5536,100.801,-0.00281283,0.0865176,20.9421,60.8434,-0.201729,0.0,0.0
14,3.25,15.7076,17.2008,163.243,98.6105,100.701,-0.00279643,0.084492,20.9473,60.7534,-0.187676,0.0,0.0
21,5,16.5198,17.4062,164.213,98.6655,101.144,-0.00276272,0.0821537,20.9509,60.7934,-0.221962,0.0,0.0
28,6.75,16.5955,17.5701,164.721,98.6901,100.42,-0.00275563,0.0802844,20.9535,60.7433,-0.155411,0.0,0.0
35,8.5,16.5273,17.5034,163.413,98.7075,100.898,-0.00281187,0.0785164,20.9563,60.7433,-0.196301,0.0,0.0
42,10.25,15.6701,16.2375,164.952,98.6849,100.725,-0.0029364,0.076684,20.9594,60.7534,-0.183022,0.0,0.0
49,12,16.1803,17.3923,164.416,98.6212,100.78,-0.00305968,0.0750826,20.9615,60.7734,-0.193738,0.0,0.0
56,13.75,16.4756,17.3089,168.427,98.5361,100.805,-0.00309791,0.0736457,20.9625,60.7734,-0.203619,0.0,0.0
63,15.5,16.2168,17.6218,161.086,98.4245,100.459,-0.00306203,0.0724361,20.963,60.7734,-0.183055,0.0,0.0
70,17.25,16.7294,16.769,164.322,98.3149,100.499,-0.00302029,0.0713357,20.9638,60.7734,-0.196565,0.0,0.0
77,19,16.8098,17.8358,163.749,98.1729,100.422,-0.00294359,0.0706748,20.9646,60.7734,-0.202586,0.0,0.0
84,20.75,16.6434,17.6164,161.077,98.0261,100.206,-0.00291164,0.069797,20.965,60.7734,-0.196716,0.0,0.0
91,22.5,16.5818,17.7752,162.365,97.8753,100.261,-0.0029228,0.0691945,20.9664,60.7734,-0.215415,0.0,0.0
98,24.25,16.796,17.8448,164.009,97.7439,100.377,-0.00288707,0.0687215,20.967,60.7734,-0.237765,0.0,0.0
105,26,17.0684,18.0851,164.687,97.6133,100.041,-0.00283098,0.0683361,20.9673,60.7534,-0.219756,0.0,0.0
112,27.75,16.3451,17.9976,165.539,97.5005,99.6563,-0.00276909,0.068041,20.9665,60.7634,-0.195626,0.0,0.0
119,29.5,17.248,17.7921,165.397,97.404,99.5809,-0.0027835,0.0678427,20.9666,60.7634,-0.197723,0.0,0.0
126,31.25,17.354,17.5805,157.327,97.3723,99.5779,-0.00284726,0.0675729,20.9671,60.7534,-0.200354,0.0,0.0
133,33,16.6778,17.9349,162.072,97.3427,99.2356,-0.00288813,0.0673538,20.9674,60.7534,-0.172281,0.0,0.0
140,34.75,16.023,18.0566,162.314,97.3573,99.1599,-0.00290291,0.0669981,20.9675,60.7433,-0.164107,0.0,0.0
147,36.5,16.6961,18.2054,164.584,97.4234,99.1989,-0.00289994,0.066832,20.9685,60.7433,-0.161556,0.0,0.0
154,38.25,16.4416,17.5998,161.04,97.5207,100.083,-0.00288581,0.0667296,20.9692,60.7534,-0.23201,0.0,0.0
161,40,16.8307,18.4157,162.843,97.6612,100.263,-0.00291876,0.0664255,20.9703,60.7333,-0.235209,0.0,0.0
168,41.75,16.822,18.2658,161.493,97.8294,100.104,-0.00300488,0.066176,20.9713,60.7333,-0.205606,0.0,0.0
175,43.5,16.8685,17.9188,162.495,98.0071,100.39,-0.00310211,0.0659466,20.971,60.7634,-0.214919,0.0,0.0
182,45.25,17.5684,18.0987,159.852,98.1907,100.869,-0.00316016,0.065978,20.9704,60.7634,-0.240691,0.0,0.0
189,47,16.7461,18.2736,164.157,98.4044,101.059,-0.00318797,0.066099,20.9701,60.7534,-0.238118,0.0,0.0
196,48.75,17.4089,18.4148,162.284,98.6089,101.045,-0.00318841,0.0660887,20.9703,60.7634,-0.218309,0.0,0.0
203,50.5,16.6648,18.4506,162.822,98.7965,101.336,-0.00320496,0.0660149,20.9705,60.7534,-0.227059,0.0,0.0
210,52.25,17.2631,18.3237,167.373,98.935,101.111,-0.00321066,0.0659537,20.9706,60.7534,-0.194624,0.0,0.0
217,54,17.4588,18.4616,159.912,99.0632,101.623,-0.0031267,0.0658351,20.9719,60.7534,-0.228211,0.0,0.0
224,55.75,17.2475,18.5572,162.151,99.191,101.706,-0.00303426,0.0658079,20.9725,60.7634,-0.224018,0.0,0.0
231,57.5,17.2216,18.1516,163.843,99.2551,101.267,-0.00302199,0.0657298,20.9727,60.7534,-0.179523,0.0,0.0
238,59.25,17.4458,18.4228,164.641,99.2892,101.474,-0.00301614,0.0653572,20.9734,60.7534,-0.194661,0.0,0.0
245,61,17.5595,18.6548,167.499,99.303,101.667,-0.00292724,0.0651741,20.9739,60.7534,-0.210492,0.0,0.0
252,62.75,16.9114,18.627,161.172,99.2939,101.634,-0.0028477,0.0649908,20.9729,60.7534,-0.208355,0.0,0.0
259,64.5,17.4158,18.4656,164.774,99.2607,101.88,-0.00288369,0.0648657,20.972,60.7433,-0.232949,0.0,0.0
266,66.25,17.2207,18.4318,161.535,99.1934,101.702,-0.00296174,0.0649116,20.9716,60.7333,-0.223431,0.0,0.0
273,68,17.221,18.4867,162.473,99.0949,101.115,-0.00300478,0.0650179,20.9703,60.7433,-0.180558,0.0,0.0
280,69.75,17.2749,18.9657,165.5,98.9908,101.414,-0.00298817,0.0650742,20.9696,60.7333,-0.216336,0.0,0.0
287,71.5,17.9608,18.5046,163.558,98.8986,101.054,-0.00292977,0.0651614,20.9692,60.7433,-0.192857,0.0,0.0
294,73.25,17.7221,18.5576,163.347,98.7692,100.933,-0.00283969,0.0653126,20.9681,60.7333,-0.193825,0.0,0.0
301,75,17.6749,19.1876,162.817,98.6616,101.099,-0.00274643,0.0657344,20.9673,60.7333,-0.218289,0.0,0.0
308,76.75,17.6091,18.923,156.115,98.5674,101.033,-0.00272478,0.0658963,20.967,60.7433,-0.221019,0.0,0.0
315,78.5,17.0102,18.4716,161.681,98.5243,101.022,-0.00276495,0.066015,20.9668,60.7333,-0.223976,0.0,0.0
322,80.25,17.5681,18.8532,159.898,98.6521,100.61,-0.00283161,0.0661317,20.9658,60.7333,-0.175804,0.0,0.0
329,82,17.6128,18.3843,162.573,98.8302,101.203,-0.00288971,0.0662361,20.965,60.7333,-0.212207,0.0,0.0
336,83.75,18.0025,19.099,160.14,98.9342,101.497,-0.00292878,0.066172,20.9647,60.7333,-0.22874,0.0,0.0
343,85.5,17.3835,19.4338,164.077,99.0217,101.177,-0.00293216,0.0660932,20.9646,60.7233,-0.192601,0.0,0.0
350,87.25,17.6181,19.026,159.869,99.0597,101.585,-0.00291175,0.0659938,20.965,60.7233,-0.225165,0.0,0.0
357,89,17.8287,18.9678,164.357,99.0518,101.491,-0.00291164,0.065918,20.9662,60.7233,-0.217609,0.0,0.0
364,90.75,17.7758,19.4067,162.269,98.9932,101.398,-0.00293773,0.0658584,20.9672,60.7333,-0.214725,0.0,0.0
371,92.5,17.2877,19.3973,163.826,98.8824,100.986,-0.00296564,0.0656633,20.9684,60.7133,-0.188338,0.0,0.0
378,94.25,18.3064,19.1066,161.789,98.7585,101.519,-0.00293668,0.0653783,20.969,60.7133,-0.246581,0.0,0.0
385,96,17.6251,18.9588,162.95,98.569,100.954,-0.0029285,0.0652341,20.9692,60.7233,-0.213826,0.0,0.0
392,97.75,17.5499,19.2115,161.037,98.3458,100.649,-0.00298156,0.06507,20.9694,60.7133,-0.207089,0.0,0.0
399,99.5,17.9804,18.919,163.162,98.2219,100.477,-0.0029957,0.0649447,20.9695,60.7133,-0.203035,0.0,0.0
406,101.25,17.6194,19.1443,164.577,98.2568,100.615,-0.00297744,0.0648979,20.9704,60.7133,-0.212203,0.0,0.0
413,103,17.8718,18.8803,160.334,98.2979,100.574,-0.00299631,0.0648228,20.9707,60.7133,-0.204748,0.0,0.0
420,104.75,17.9584,19.1505,163.371,98.3407,100.662,-0.00305768,0.0645629,20.9701,60.7033,-0.208724,0.0,0.0
427,106.5,17.6658,19.0495,158.802,98.3866,99.9155,-0.00306388,0.0643752,20.9698,60.7133,-0.137942,0.0,0.0
434,108.25,17.5216,18.9964,160.955,98.4253,100.722,-0.00288828,0.0643392,20.9711,60.7033,-0.206344,0.0,0.0
441,110,17.9781,18.9607,160.93,98.4649,101.121,-0.00275536,0.064188,20.9725,60.6933,-0.238086,0.0,0.0
448,111.75,17.6018,19.2694,164.078,98.5041,100.97,-0.00275174,0.0642521,20.9731,60.6933,-0.22119,0.0,0.0
455,113.5,17.808,19.1409,163.606,98.516,100.567,-0.00279099,0.0643535,20.9734,60.6933,-0.184309,0.0,0.0
462,115.25,18.0561,19.673,160.257,98.5444,101.029,-0.00282478,0.0644802,20.9736,60.6833,-0.222759,0.0,0.0
469,117,17.4313,18.8405,162.12,98.5706,100.874,-0.0028916,0.0645265,20.9737,60.6933,-0.206594,0.0,0.0
476,118.75,17.7877,19.2623,161.331,98.5698,100.857,-0.00306268,0.0645324,20.9737,60.6833,-0.205158,0.0,0.0
483,120.5,18.2584,19.0768,161.292,98.5425,101.159,-0.0032548,0.0645211,20.9731,60.6933,-0.234391,0.0,0.0
490,122.25,18.033,19.6013,160.084,98.4942,100.699,-0.00333137,0.0645803,20.9722,60.6733,-0.198063,0.0,0.0
497,124,18.239,19.4551,161.117,98.4431,101.164,-0.00329298,0.0646172,20.9718,60.6833,-0.243924,0.0,0.0
504,125.75,18.0819,19.1509,159.658,98.3731,100.909,-0.0032632,0.0647616,20.9716,60.6833,-0.227717,0.0,0.0
511,127.5,17.9763,19.05,161.828,98.286,100.492,-0.00328759,0.0649374,20.9715,60.6833,-0.198541,0.0,0.0
518,129.25,18.1964,19.7433,162.506,98.1891,100.568,-0.00328627,0.0650482,20.9715,60.6833,-0.214106,0.0,0.0
525,131,18.3844,19.661,160.878,98.064,100.374,-0.0031991,0.065003,20.9713,60.6733,-0.208239,0.0,0.0
532,132.75,18.5009,19.7152,160.809,97.941,100.316,-0.00303903,0.0649814,20.9702,60.6733,-0.214306,0.0,0.0
539,134.5,18.193,19.4273,167.591,97.8096,100.138,-0.0029179,0.0650193,20.9701,60.6833,-0.210488,0.0,0.0
546,136.25,18.1308,19.517,154.044,97.6794,100.25,-0.002906,0.0649637,20.9708,60.6833,-0.232404,0.0,0.0
553,138,18.1403,19.9057,161.725,97.5433,99.9754,-0.00294229,0.0649694,20.9711,60.6933,-0.220302,0.0,0.0
560,139.75,17.9221,19.7895,162.716,97.4455,99.8622,-0.00296353,0.0648146,20.9713,60.6833,-0.219137,0.0,0.0
567,141.5,18.4544,20.1101,163.749,97.3533,100.027,-0.00296506,0.0646819,20.9714,60.6733,-0.242334,0.0,0.0
574,143.25,18.2184,19.8714,162.9,97.2706,99.8718,-0.00298061,0.0646572,20.9725,60.6733,-0.236072,0.0,0.0
581,145,18.1487,19.551,168.415,97.2006,99.6752,-0.00298317,0.0645231,20.9731,60.6733,-0.224886,0.0,0.0
588,146.75,18.2203,19.3119,163.41,97.1808,99.596,-0.00291446,0.0644831,20.973,60.6633,-0.219597,0.0,0.0
595,148.5,18.8576,19.8956,160.875,97.1962,99.7753,-0.00285687,0.0644436,20.9722,60.6733,-0.234262,0.0,0.0
602,150.25,18.4584,19.8578,160.241,97.2311,99.5628,-0.00291648,0.0643992,20.9718,60.6733,-0.211987,0.0,0.0
609,152,18.8404,19.5689,161.398,97.271,99.574,-0.00312121,0.0643997,20.9716,60.6633,-0.209319,0.0,0.0
616,153.75,18.8116,19.9725,162.614,97.3573,99.8568,-0.00326949,0.0643547,20.9715,60.6633,-0.226757,0.0,0.0
623,155.5,18.9583,19.6155,161.956,97.4725,99.7467,-0.00321726,0.0644633,20.971,60.6733,-0.206314,0.0,0.0
630,157.25,18.1018,19.6534,162.694,97.6169,100.225,-0.00305963,0.0645082,20.9707,60.6633,-0.235891,0.0,0.0
637,159,18.2162,20.118,163.749,97.7625,100.091,-0.00295983,0.0646905,20.9706,60.6633,-0.21055,0.0,0.0
644,160.75,18.4497,20.1707,163,97.9145,100.725,-0.00295548,0.0647729,20.9705,60.6633,-0.25317,0.0,0.0
651,162.5,18.6207,20.067,161.672,98.0866,100.503,-0.00294911,0.064848,20.9705,60.6533,-0.217673,0.0,0.0
658,164.25,19.1913,19.4994,162.16,98.2623,100.728,-0.00285966,0.0648292,20.9694,60.6533,-0.221722,0.0,0.0
665,166,18.6014,20.028,166.299,98.4257,101.093,-0.00273757,0.0648329,20.9688,60.6533,-0.239184,0.0,0.0
672,167.75,18.4605,19.8342,164.896,98.5761,100.904,-0.00283038,0.064761,20.9695,60.6433,-0.208832,0.0,0.0
679,169.5,18.6162,19.9153,163.6,98.711,101.385,-0.00300523,0.064695,20.97,60.6533,-0.239063,0.0,0.0
686,171.25,18.1822,19.4494,164.892,98.8578,101.09,-0.00312176,0.0646976,20.9703,60.6433,-0.199758,0.0,0.0
693,173,19.0075,19.9316,159.247,98.9548,101.342,-0.00316113,0.0645948,20.9704,60.6533,-0.213217,0.0,0.0
700,174.75,18.7834,20.3825,161.626,99.0387,101.426,-0.00319071,0.06443,20.9704,60.6533,-0.213066,0.0,0.0
707,176.5,18.5635,19.8854,163.766,99.0886,101.761,-0.00325999,0.0643287,20.9704,60.6533,-0.238022,0.0,0.0
714,178.25,18.54,19.9287,159.234,99.1432,101.623,-0.00340953,0.0643836,20.9714,60.6633,-0.220995,0.0,0.0
721,180,18.8565,20.6632,168.342,99.1728,101.341,-0.00350235,0.0643162,20.9725,60.6533,-0.19346,0.0,0.0
728,181.75,18.385,20.5412,162.907,99.1693,101.581,-0.00346109,0.0641996,20.9736,60.6333,-0.214966,0.0,0.0
735,183.5,18.574,20.4737,162.318,99.1408,101.45,-0.00339009,0.0639881,20.9742,60.6333,-0.205929,0.0,0.0
742,185.25,18.7482,20.2595,159.594,99.0984,101.347,-0.00330526,0.06387,20.9744,60.6333,-0.200718,0.0,0.0
749,187,18.8892,20.2274,163.662,99.0593,101.759,-0.00316026,0.0638226,20.9745,60.6333,-0.24053,0.0,0.0
756,188.75,18.9526,20.6183,161.793,98.9912,101.287,-0.00301244,0.0638807,20.9746,60.6232,-0.205048,0.0,0.0
763,190.5,19.2257,20.6666,161.916,98.899,101.363,-0.00294965,0.0638385,20.9746,60.6433,-0.220103,0.0,0.0
770,192.25,18.8037,20.3619,162.625,98.8052,101.643,-0.002988,0.0637726,20.9747,60.6333,-0.253273,0.0,0.0
777,194,18.6386,20.3017,162.194,98.7205,100.709,-0.00306134,0.0638436,20.9747,60.6333,-0.178353,0.0,0.0
784,195.75,18.6562,20.4663,162.897,98.6367,100.461,-0.00315936,0.0637666,20.9736,60.6433,-0.163902,0.0,0.0
791,197.5,19.0139,20.3611,159.934,98.5468,101.155,-0.00321171,0.0637233,20.973,60.6433,-0.233654,0.0,0.0
798,199.25,18.8231,20.4965,168.546,98.4669,101.248,-0.00316387,0.0635873,20.9727,60.6232,-0.249176,0.0,0.0
805,201,19.0031,20.5959,157.968,98.4063,101.105,-0.00308695,0.063506,20.9737,60.6232,-0.242041,0.0,0.0
812,202.75,19.5075,20.4691,164.267,98.3688,101.151,-0.00309179,0.0635038,20.9742,60.6232,-0.249491,0.0,0.0
819,204.5,18.824,20.7506,162.944,98.5282,100.987,-0.0031416,0.0635564,20.9745,60.6132,-0.220504,0.0,0.0
826,206.25,19.0592,20.5398,165.019,98.6647,100.906,-0.00320033,0.0635384,20.9734,60.6132,-0.200895,0.0,0.0
833,208,19.1146,20.3586,162.272,98.7827,101.48,-0.0032366,0.0635122,20.9729,60.6232,-0.241024,0.0,0.0
840,209.75,19.1418,20.6223,164.771,98.8733,101.265,-0.00321392,0.0636241,20.9726,60.6032,-0.2138,0.0,0.0
847,211.5,18.7892,19.4507,163.475,98.9283,101.804,-0.00314838,0.0637354,20.9725,60.6132,-0.256338,0.0,0.0
854,213.25,20.0362,20.6685,160.618,98.9386,101.85,-0.00311266,0.0637894,20.9724,60.6032,-0.259413,0.0,0.0
861,215,19.023,20.8016,162.501,98.9196,101.705,-0.00312033,0.0639151,20.9724,60.6032,-0.248397,0.0,0.0
868,216.75,19.3783,20.4659,160.976,98.8709,101.456,-0.00314728,0.0640217,20.9724,60.6132,-0.230891,0.0,0.0
875,218.5,19.18,20.5967,163.017,98.8179,101.473,-0.00309755,0.064136,20.9724,60.6032,-0.237154,0.0,0.0
882,220.25,19.2045,20.8456,163.984,98.719,101.113,-0.00294937,0.0641648,20.9724,60.5932,-0.214352,0.0,0.0
889,222,19.2221,20.7555,162.248,98.5832,101.376,-0.00280227,0.0640314,20.9724,60.5932,-0.24987,0.0,0.0
896,223.75,19.2018,21.0383,160.434,98.4467,100.903,-0.00272773,0.0639193,20.9729,60.6032,-0.220444,0.0,0.0
903,225.5,19.3697,20.5861,162.04,98.2785,100.996,-0.00275065,0.0638408,20.9737,60.6132,-0.243955,0.0,0.0
910,227.25,19.0521,20.9298,159.145,98.1202,100.52,-0.00279223,0.0636568,20.9752,60.5932,-0.216154,0.0,0.0
917,229,19.5654,20.4602,159.802,98.1376,100.831,-0.00278378,0.0636675,20.9757,60.5932,-0.242164,0.0,0.0
924,230.75,19.6049,20.4543,161.246,98.1539,100.813,-0.00276322,0.0635374,20.975,60.5932,-0.239109,0.0,0.0
931,232.5,19.7127,20.5847,163.25,98.1938,100.575,-0.0028157,0.0635592,20.9747,60.5932,-0.214292,0.0,0.0
938,234.25,19.3486,20.3649,161.076,98.2481,100.881,-0.00292222,0.0636004,20.9745,60.6032,-0.236561,0.0,0.0
945,236,19.7105,20.6098,164.699,98.2888,100.967,-0.00303901,0.0636151,20.9744,60.5932,-0.24052,0.0,0.0
952,237.75,19.2522,20.9023,158.132,98.3141,101.027,-0.00313741,0.0635731,20.9734,60.6032,-0.243519,0.0,0.0
959,239.5,20.0121,21.3763,161.556,98.3513,101.102,-0.00318797,0.0637688,20.9727,60.5832,-0.246734,0.0,0.0
966,241.25,18.8308,21.0574,162.695,98.3747,100.948,-0.00316094,0.0638935,20.9724,60.5932,-0.230963,0.0,0.0
973,243,19.7625,21.0573,163.08,98.3854,101.195,-0.00315271,0.0639748,20.9722,60.5932,-0.251908,0.0,0.0
980,244.75,19.4253,21.013,160.327,98.3846,101.117,-0.00316922,0.0641427,20.9721,60.5932,-0.245011,0.0,0.0
987,246.5,18.8414,20.543,160.84,98.398,100.965,-0.00314794,0.0642495,20.9723,60.5932,-0.230414,0.0,0.0
994,248.25,19.636,21.0279,162.578,98.4154,101.266,-0.00307021,0.0642183,20.9734,60.5832,-0.255455,0.0,0.0
1001,250,19.1178,20.8053,158.454,98.421,101.257,-0.0030019,0.0642604,20.9739,60.5732,-0.254133,0.0,0.0
1008,251.75,19.7198,21.345,158.515,98.415,101.351,-0.0029663,0.0643575,20.9741,60.6032,-0.262928,0.0,0.0
1015,253.5,19.4822,21.191,159.042,98.3751,100.904,-0.00297813,0.0644515,20.9742,60.6032,-0.227092,0.0,0.0
1022,255.25,19.0564,21.3735,160.671,98.3569,101.429,-0.0030573,0.0644285,20.9743,60.5932,-0.275101,0.0,0.0
1029,257,19.2863,21.1106,159.421,98.3054,101.09,-0.00310527,0.0643654,20.9743,60.5832,-0.249885,0.0,0.0
1036,258.75,19.2869,20.3105,164.681,98.2322,100.77,-0.00312423,0.06457,20.9739,60.5632,-0.228131,0.0,0.0
1043,260.5,19.8776,21.4208,163.189,98.1464,100.919,-0.00312882,0.0648526,20.9729,60.5932,-0.249216,0.0,0.0
1050,262.25,20.1482,21.7016,164.336,98.0894,101.019,-0.00314081,0.0649361,20.9725,60.5832,-0.263275,0.0,0.0
1057,264,19.583,21.069,160.519,97.998,100.778,-0.00317278,0.0650709,20.9715,60.5832,-0.250243,0.0,0.0
1064,265.75,19.8591,20.8765,159.095,97.9081,100.432,-0.00315124,0.0652003,20.9706,60.5932,-0.22767,0.0,0.0
1071,267.5,19.1642,21.2569,164.384,97.8155,100.698,-0.00309825,0.0653678,20.9702,60.5832,-0.259776,0.0,0.0
1078,269.25,19.7551,21.25,165.03,97.7313,100.391,-0.00304129,0.0654854,20.9698,60.5832,-0.240231,0.0,0.0
1085,271,20.0596,21.2466,161.753,97.6687,100.61,-0.00296909,0.065505,20.9689,60.5732,-0.265452,0.0,0.0
1092,272.75,19.6143,21.479,155.314,97.5924,100.467,-0.00289628,0.0656929,20.9685,60.5732,-0.259664,0.0,0.0
1099,274.5,20.0955,21.1203,159.025,97.5279,99.9271,-0.00285004,0.0658365,20.9683,60.5632,-0.217396,0.0,0.0
1106,276.25,19.8053,21.4243,159.515,97.4547,99.5477,-0.00291447,0.0658927,20.9682,60.5632,-0.190088,0.0,0.0
1113,278,20.0583,21.8586,159.622,97.3961,100.063,-0.00304325,0.0659995,20.9682,60.5532,-0.24162,0.0,0.0
1120,279.75,19.9805,21.5326,162.151,97.3399,100.13,-0.0031204,0.0662379,20.9682,60.5732,-0.252825,0.0,0.0
1127,281.5,19.6284,21.6899,162.068,97.2825,100.306,-0.00315739,0.0665144,20.9679,60.5832,-0.273755,0.0,0.0
1134,283.25,19.7092,20.5945,158.084,97.22,99.7876,-0.00318499,0.066814,20.967,60.5932,-0.233185,0.0,0.0
1141,285,19.7872,21.0971,160.546,97.1666,99.7416,-0.00314835,0.0671703,20.9653,60.6032,-0.23398,0.0,0.0
1148,286.75,20.136,21.5107,161.609,97.1488,99.8564,-0.00304226,0.0672869,20.9644,60.6032,-0.245904,0.0,0.0
1155,288.5,20.0348,21.5853,164.869,97.0878,99.6868,-0.00298253,0.0674877,20.964,60.5832,-0.236311,0.0,0.0
1162,290.25,19.7445,21.6998,158.309,97.0471,99.6203,-0.00302624,0.0678176,20.9638,60.5832,-0.234103,0.0,0.0
1169,292,20.0013,21.6791,157.958,97.0083,99.2645,-0.00311709,0.0681164,20.9628,60.5832,-0.205672,0.0,0.0
1176,293.75,20.0644,21.6088,163.889,97.0051,99.253,-0.00313973,0.0683183,20.962,60.5632,-0.20492,0.0,0.0
1183,295.5,19.5062,21.3938,169.191,97.0083,99.4921,-0.00305695,0.0684215,20.9616,60.5732,-0.226153,0.0,0.0
1190,297.25,20.1217,21.4797,164.849,97.0114,99.7123,-0.00292966,0.0682901,20.9624,60.5632,-0.245639,0.0,0.0
1197,299,20.0732,21.5403,158.227,97.0091,99.8402,-0.0028933,0.0681556,20.9636,60.5532,-0.257322,0.0,0.0
1204,300.75,20.0636,21.8593,160.929,97.0296,99.9429,-0.0029738,0.068074,20.9652,60.5632,-0.264627,0.0,0.0
1211,302.5,19.7828,21.6503,160.865,97.0403,99.8035,-0.00311386,0.067804,20.966,60.5732,-0.25115,0.0,0.0
1218,304.25,19.9246,21.6525,157.076,97.0554,99.912,-0.00326989,0.0674928,20.9673,60.5832,-0.259488,0.0,0.0
1225,306,19.9278,21.9297,158.996,97.0708,99.6995,-0.00330181,0.0672545,20.9681,60.5732,-0.239023,0.0,0.0
1232,307.75,20.1686,22.2382,158.13,97.0815,99.7343,-0.00324222,0.0670008,20.9686,60.5632,-0.241157,0.0,0.0
1239,309.5,20.3748,21.8779,160.506,97.1436,99.9499,-0.003186,0.0666724,20.9688,60.5632,-0.254748,0.0,0.0
1246,311.25,20.0251,21.8225,158.955,97.1717,99.3731,-0.00314566,0.0666364,20.9685,60.5732,-0.200391,0.0,0.0
1253,313,20.4238,21.8602,158.643,97.2049,99.7274,-0.00315128,0.0666604,20.9683,60.5832,-0.229165,0.0,0.0
1260,314.75,20.2168,21.2324,158.193,97.2378,99.725,-0.00317748,0.0665732,20.9684,60.5832,-0.225935,0.0,0.0
1267,316.5,19.5778,20.9616,161.5,97.2904,99.5779,-0.00317222,0.0664166,20.969,60.5932,-0.207882,0.0,0.0
1274,318.25,20.591,21.8227,161.977,97.3549,100.099,-0.00313249,0.0663384,20.9692,60.5732,-0.248612,0.0,0.0
1281,320,19.7493,21.4071,158.578,97.4163,99.9758,-0.00309462,0.066266,20.9693,60.5732,-0.231993,0.0,0.0
1288,321.75,20.7508,22.0823,165.083,97.4598,99.795,-0.00307414,0.0663056,20.9696,60.5532,-0.211806,0.0,0.0
1295,323.5,20.9283,22.2127,160.118,97.5255,100.064,-0.00307409,0.0663377,20.9707,60.5432,-0.229882,0.0,0.0
1302,325.25,21.206,22.3251,160.17,97.6011,100.306,-0.00304737,0.0661987,20.9712,60.5332,-0.244579,0.0,0.0
1309,327,20.4067,22.2595,160.121,97.6525,100.284,-0.00296746,0.0661026,20.9714,60.5432,-0.237902,0.0,0.0
1316,328.75,20.5148,21.8723,159.004,97.698,100.225,-0.0029577,0.0659641,20.9716,60.5432,-0.228391,0.0,0.0
1323,330.5,20.6542,22.2326,161.421,97.7384,100.227,-0.00309059,0.0658491,20.9716,60.5532,-0.224903,0.0,0.0
1330,332.25,20.3835,22.0698,159.941,97.7946,100.382,-0.00322789,0.0656571,20.9718,60.5732,-0.233613,0.0,0.0
1337,334,20.489,22.0419,159.237,97.8405,100.454,-0.00319129,0.0653929,20.9722,60.5632,-0.235781,0.0,0.0
1344,335.75,20.7148,22.113,162.704,97.8662,100.427,-0.00306383,0.0650048,20.9724,60.5732,-0.231056,0.0,0.0
1351,337.5,20.4726,22.3101,158.035,97.8955,100.411,-0.00302158,0.0646762,20.9725,60.5432,-0.226934,0.0,0.0
1358,339.25,20.3866,22.097,160.523,97.9228,100.031,-0.00313908,0.0645096,20.9727,60.5332,-0.190579,0.0,0.0
1365,341,20.8408,22.3085,160.871,97.9576,100.146,-0.00325483,0.0645499,20.9729,60.5332,-0.197618,0.0,0.0
1372,342.75,19.9317,22.247,161.298,97.9746,100.403,-0.00337392,0.0645914,20.9725,60.5332,-0.219016,0.0,0.0
1379,344.5,20.7726,21.8952,162.731,97.9995,100.033,-0.00347884,0.0646072,20.9718,60.5332,-0.183741,0.0,0.0
1386,346.25,20.9302,22.4582,160.765,98.0185,100.74,-0.00343422,0.0645766,20.9716,60.5432,-0.244936,0.0,0.0
1393,348,20.0065,21.4761,161.339,98.0538,100.347,-0.00323562,0.0643732,20.9723,60.5432,-0.206802,0.0,0.0
1400,349.75,20.6944,22.1441,160.508,98.0732,100.514,-0.00306809,0.0641266,20.9729,60.5432,-0.219897,0.0,0.0
1407,351.5,20.7232,22.5224,163.061,98.0886,100.314,-0.00298233,0.0639085,20.9732,60.5232,-0.200697,0.0,0.0
1414,353.25,20.7511,22.5064,167.357,98.0898,100.316,-0.00297974,0.0638271,20.974,60.5332,-0.200727,0.0,0.0
1421,355,20.5995,22.137,158.301,98.1048,100.444,-0.00300847,0.0637387,20.9754,60.5232,-0.210785,0.0,0.0
1428,356.75,20.2582,21.882,156.36,98.1202,100.645,-0.00308469,0.0637178,20.9761,60.5232,-0.227285,0.0,0.0
1435,358.5,20.4243,22.7689,164.457,98.1468,100.398,-0.00319264,0.063635,20.9764,60.5332,-0.202867,0.0,0.0
1442,360.25,20.736,22.2976,161.488,98.1586,100.499,-0.00323729,0.0634495,20.9765,60.5432,-0.210764,0.0,0.0
1449,362,20.8695,22.1388,157.847,98.1685,100.833,-0.00324283,0.0634198,20.977,60.5332,-0.239591,0.0,0.0
1456,363.75,20.9047,22.286,157.751,98.1824,100.228,-0.00322222,0.0633341,20.9773,60.5232,-0.184498,0.0,0.0
1463,365.5,20.9369,22.7025,159.045,98.2037,100.653,-0.00316831,0.063064,20.9776,60.5232,-0.220398,0.0,0.0
1470,367.25,21.695,22.7743,161.519,98.1958,100.639,-0.00308153,0.0628829,20.9787,60.5131,-0.219814,0.0,0.0
1477,369,20.9177,22.296,159.673,98.1855,99.9468,-0.00301056,0.0626667,20.9793,60.5232,-0.15904,0.0,0.0
1484,370.75,20.534,22.2671,160.928,98.2053,100.669,-0.00299997,0.062664,20.9795,60.5232,-0.221626,0.0,0.0
1491,372.5,20.183,22.746,159.241,98.2124,100.614,-0.00304668,0.0626967,20.9797,60.5232,-0.216102,0.0,0.0
1498,374.25,19.9018,22.6637,161.826,98.218,100.671,-0.00307528,0.0626003,20.9797,60.5131,-0.220645,0.0,0.0
1505,376,21.2048,22.725,160.908,98.2002,100.227,-0.00306907,0.062292,20.9802,60.5532,-0.182772,0.0,0.0
1512,377.75,21.4313,22.5442,158.025,98.1927,100.562,-0.00304841,0.0620174,20.9812,60.5131,-0.213301,0.0,0.0
1519,379.5,21.349,23.3001,162.116,98.2045,100.575,-0.00299922,0.0617592,20.9817,60.5131,-0.213319,0.0,0.0
1526,381.25,21.2161,22.5714,157.958,98.1879,100.766,-0.00297212,0.061658,20.9819,60.5031,-0.231859,0.0,0.0
1533,383,20.8833,22.525,157.177,98.1816,100.836,-0.00300042,0.0616091,20.982,60.5031,-0.238606,0.0,0.0
1540,384.75,21.11,22.5888,161.612,98.1681,100.202,-0.00306829,0.0616252,20.9817,60.5131,-0.183417,0.0,0.0
1547,386.5,21.3415,22.81,155.765,98.1875,100.424,-0.00317201,0.0615716,20.9814,60.5131,-0.201492,0.0,0.0
1554,388.25,21.3032,22.3783,158.993,98.1661,100.545,-0.00320348,0.0616073,20.9812,60.5031,-0.214169,0.0,0.0
1561,390,20.6367,23.1321,157.516,98.1523,100.242,-0.00315908,0.0616343,20.9812,60.5031,-0.18841,0.0,0.0
1568,391.75,20.5339,22.4464,160.192,98.1353,100.061,-0.00312538,0.0616714,20.9811,60.5031,-0.173848,0.0,0.0
1575,393.5,21.4277,22.6011,157.523,98.1305,100.446,-0.00315073,0.0616932,20.9811,60.4931,-0.208646,0.0,0.0
1582,395.25,20.1119,21.9372,162.973,98.1278,100.588,-0.00318394,0.0617185,20.9813,60.5131,-0.221551,0.0,0.0
1589,397,21.002,22.7026,159.205,98.1309,100.151,-0.00320255,0.0617449,20.9824,60.4931,-0.182253,0.0,0.0
1596,398.75,21.358,22.9445,158.151,98.1305,100.436,-0.00322667,0.0616756,20.9829,60.5131,-0.207717,0.0,0.0
1603,400.5,21.0662,22.2461,159.239,98.1218,99.6783,-0.00329641,0.061573,20.9832,60.5131,-0.140782,0.0,0.0
1610,402.25,21.5939,22.687,159.594,98.1206,100.386,-0.00335191,0.0615492,20.9833,60.5131,-0.20418,0.0,0.0
1617,404,21.193,22.7269,163.99,98.1076,100.248,-0.0032661,0.0614993,20.9833,60.4931,-0.193039,0.0,0.0
1624,405.75,21.0532,22.7174,160.176,98.0918,100.074,-0.0031509,0.0615332,20.9831,60.4931,-0.17899,0.0,0.0
1631,407.5,21.4519,23.2364,157.59,98.0755,100.182,-0.00303209,0.0616813,20.9831,60.4831,-0.190133,0.0,0.0
1638,409.25,21.2568,22.9116,160.735,98.0597,100.527,-0.00302438,0.0618155,20.9831,60.4931,-0.222294,0.0,0.0
1645,411,21.194,23.0909,159.313,98.0633,99.9676,-0.00310083,0.0619467,20.9824,60.4931,-0.172053,0.0,0.0
1652,412.75,21.3146,22.9466,157.421,98.0549,100.231,-0.00321865,0.0620621,20.9821,60.4831,-0.196321,0.0,0.0
1659,414.5,21.3228,22.699,163.536,98.03,100.32,-0.00327241,0.0620745,20.9819,60.4931,-0.206592,0.0,0.0
1666,416.25,21.1279,22.6618,161.059,98.0249,99.9043,-0.0032166,0.0620572,20.9818,60.4831,-0.169884,0.0,0.0
1673,418,21.4176,22.7756,158.599,98.0253,100.521,-0.00314784,0.0620912,20.9818,60.4931,-0.224885,0.0,0.0
1680,419.75,21.1316,22.9968,160.479,98.0237,100.046,-0.00313626,0.0620265,20.9818,60.4831,-0.182712,0.0,0.0
1687,421.5,20.8264,22.5734,163.237,98.0114,99.863,-0.00316957,0.0620131,20.981,60.4831,-0.16741,0.0,0.0
1694,423.25,21.2243,22.6324,155.56,97.979,99.9325,-0.00318607,0.0620145,20.9808,60.4831,-0.176598,0.0,0.0
1701,425,21.526,22.5404,161.796,97.9897,99.9441,-0.00311282,0.0619429,20.9813,60.4931,-0.17666,0.0,0.0
1708,426.75,21.1784,23.0495,160.77,97.9691,99.6872,-0.00304528,0.0618537,20.9815,60.4931,-0.155516,0.0,0.0
1715,428.5,20.7982,22.3144,162.285,97.9659,100.488,-0.00302506,0.0618474,20.9816,60.5232,-0.227415,0.0,0.0
1722,430.25,21.6675,22.6469,161.695,97.9319,99.8738,-0.00299033,0.061789,20.9805,60.4931,-0.175642,0.0,0.0
1729,432,21.508,22.8976,167.233,97.9093,99.7961,-0.00298468,0.0617801,20.9796,60.4731,-0.170744,0.0,0.0
1736,433.75,21.3638,23.1167,156.959,97.886,100.502,-0.00301155,0.0618058,20.9796,60.4631,-0.235954,0.0,0.0
1743,435.5,21.406,22.8336,159.139,97.8741,100.089,-0.00302324,0.0616751,20.9804,60.4531,-0.200206,0.0,0.0
1750,437.25,21.62,22.9157,166.099,97.8488,100.033,-0.00302645,0.0615604,20.9805,60.4731,-0.197445,0.0,0.0
1757,439,21.3286,22.7533,164.455,97.8211,99.7084,-0.00301821,0.0614722,20.9804,60.4631,-0.170946,0.0,0.0
1764,440.75,21.1531,22.9638,163.395,97.8056,100.007,-0.00301792,0.0614054,20.9803,60.4531,-0.199074,0.0,0.0
1771,442.5,21.4197,22.9909,166.548,97.7946,99.7702,-0.00303608,0.0612951,20.9803,60.4631,-0.178915,0.0,0.0
1778,444.25,21.7941,23.0836,161.421,97.7791,99.9271,-0.00304539,0.0611603,20.9803,60.4731,-0.194378,0.0,0.0
1785,446,21.4342,23.2535,160.739,97.7514,99.5956,-0.00304593,0.0611543,20.9803,60.4631,-0.167191,0.0,0.0
1792,447.75,21.1887,22.8707,160.227,97.7245,99.3901,-0.00301746,0.0610679,20.9803,60.4731,-0.151176,0.0,0.0
1799,449.5,20.8763,22.7366,155.308,97.7138,99.8193,-0.00303955,0.0610115,20.9806,60.4531,-0.190699,0.0,0.0
1806,451.25,22.0103,23.1936,159.511,97.6778,99.3472,-0.00313662,0.0609987,20.9809,60.4531,-0.151591,0.0,0.0
1813,453,20.7294,22.6218,158.325,97.6541,99.4395,-0.00321685,0.0609809,20.9805,60.4531,-0.162075,0.0,0.0
1820,454.75,21.3693,22.7228,158.069,97.6177,99.3719,-0.00321644,0.0610484,20.9803,60.4531,-0.159327,0.0,0.0
1827,456.5,21.9651,23.029,161.969,97.6054,99.3016,-0.00319091,0.0611971,20.9802,60.4631,-0.15412,0.0,0.0
1834,458.25,20.9839,22.8478,158.82,97.5781,99.8498,-0.00315945,0.0612192,20.9809,60.4731,-0.205868,0.0,0.0
1841,460,21.0843,23.0449,159.05,97.5524,99.8309,-0.00315162,0.0610805,20.9817,60.4731,-0.20653,0.0,0.0
1848,461.75,21.7817,22.6521,160.483,97.5211,99.8131,-0.0032398,0.0609594,20.982,60.4631,-0.207805,0.0,0.0
1855,463.5,21.3009,23.3065,161.535,97.4994,99.331,-0.00336888,0.0610353,20.9822,60.4631,-0.166489,0.0,0.0
1862,465.25,21.3713,23.2452,158.915,97.4998,99.4156,-0.00332642,0.0610141,20.9819,60.4631,-0.174068,0.0,0.0
1869,467,21.6089,22.77,163.395,97.4752,99.3024,-0.00320224,0.0608977,20.981,60.4531,-0.166129,0.0,0.0
1876,468.75,21.1,22.814,161.537,97.4404,99.3256,-0.00311572,0.0609355,20.9805,60.4431,-0.171413,0.0,0.0
1883,470.5,21.8729,23.0005,161.933,97.4194,99.1104,-0.00314471,0.0610238,20.9803,60.4531,-0.153939,0.0,0.0
1890,472.25,21.2104,23.3265,158.522,97.4111,99.3577,-0.00321738,0.061059,20.9802,60.4531,-0.176989,0.0,0.0
1897,474,21.6513,23.1104,158.375,97.3949,98.6426,-0.00329655,0.0610476,20.9802,60.4431,-0.113867,0.0,0.0
1904,475.75,21.3661,23.2748,161.277,97.3735,99.0161,-0.00341741,0.0611885,20.9809,60.4431,-0.149642,0.0,0.0
1911,477.5,21.5069,23.6905,157.825,97.3442,98.9868,-0.00349113,0.0612531,20.9815,60.4531,-0.14968,0.0,0.0
1918,479.25,20.8806,23.2182,160.176,97.3312,99.4608,-0.00353341,0.0612411,20.9818,60.4431,-0.193614,0.0,0.0
1925,481,21.6291,23.2727,153.151,97.3078,99.443,-0.00358907,0.0613885,20.9819,60.4531,-0.194161,0.0,0.0
1932,482.75,21.8253,23.1979,161.404,97.2995,99.0868,-0.00360283,0.0613279,20.982,60.4531,-0.162827,0.0,0.0
1939,484.5,21.8022,23.1793,155.959,97.2786,98.7898,-0.00347147,0.0612356,20.982,60.4431,-0.137896,0.0,0.0
1946,486.25,21.5512,23.269,156.555,97.2706,99.1467,-0.00326658,0.0612634,20.982,60.4331,-0.170888,0.0,0.0
1953,488,21.5421,23.4595,158.109,97.2604,99.3924,-0.00315011,0.0613128,20.982,60.4531,-0.193974,0.0,0.0
1960,489.75,21.2036,23.0453,161.024,97.258,99.2927,-0.00310408,0.0612087,20.982,60.4631,-0.185218,0.0,0.0
1967,491.5,21.9114,23.2582,161.798,97.2247,99.2858,-0.00310546,0.0611836,20.9814,60.4531,-0.18765,0.0,0.0
1974,493.25,21.1715,22.7652,160.395,97.2101,99.1973,-0.00307666,0.0612882,20.981,60.4431,-0.181022,0.0,0.0
1981,495,21.6839,23.4226,162.594,97.203,99.455,-0.00303272,0.0612946,20.9812,60.4431,-0.204884,0.0,0.0
1988,496.75,21.6265,23.397,160.49,97.1864,99.0316,-0.00303112,0.0613154,20.9821,60.4531,-0.16825,0.0,0.0
1995,498.5,21.3789,23.4296,154.997,97.1741,98.8118,-0.00309963,0.0613042,20.9824,60.4331,-0.149502,0.0,0.0
2002,500.25,21.4879,23.0757,161.092,97.1685,98.8071,-0.00316542,0.0612566,20.9826,60.4531,-0.149592,0.0,0.0
2009,502,22.0511,23.0423,161.149,97.1638,98.8006,-0.00320517,0.0612736,20.9823,60.4531,-0.149435,0.0,0.0
2016,503.75,22.0442,23.0476,163.547,97.1594,98.6229,-0.00326449,0.0612583,20.9808,60.4631,-0.133731,0.0,0.0
2023,505.5,21.4713,23.1514,155.687,97.1424,98.6669,-0.00338234,0.0613009,20.981,60.4531,-0.139292,0.0,0.0
2030,507.25,21.954,23.1238,165.058,97.1286,98.9856,-0.0034705,0.0612147,20.981,60.4631,-0.169416,0.0,0.0
2037,509,21.8273,23.3526,161.124,97.112,99.37,-0.00345379,0.0610809,20.9814,60.4531,-0.205616,0.0,0.0
2044,510.75,21.2865,23.4327,162.883,97.1222,98.7434,-0.00337275,0.0609758,20.9816,60.4331,-0.148083,0.0,0.0
2051,512.5,22.0396,23.2395,160.411,97.1278,98.6704,-0.00327129,0.0609145,20.9817,60.4431,-0.140955,0.0,0.0
2058,514.25,21.5261,23.2787,161.108,97.1139,98.4521,-0.00319389,0.0608916,20.9818,60.4431,-0.122422,0.0,0.0
2065,516,21.7756,23.6714,160.902,97.1029,98.869,-0.00313816,0.0609136,20.9818,60.4231,-0.161235,0.0,0.0
2072,517.75,21.7447,23.0569,161.7,97.1044,98.9435,-0.00306866,0.060983,20.9818,60.4431,-0.167833,0.0,0.0
2079,519.5,21.9178,23.3568,155.427,97.1048,98.5738,-0.00304246,0.0609975,20.9818,60.4431,-0.13431,0.0,0.0
2086,521.25,21.0159,22.8351,159.322,97.1072,98.9879,-0.00306733,0.0610231,20.9824,60.4331,-0.171593,0.0,0.0
2093,523,21.8462,23.364,160.846,97.1116,98.8574,-0.00309187,0.0610116,20.9833,60.4331,-0.159385,0.0,0.0
2100,524.75,21.2495,23.0214,158.732,97.1033,98.8218,-0.00315232,0.0610011,20.9838,60.4331,-0.156933,0.0,0.0
2107,526.5,21.6289,23.2906,162.233,97.0965,99.2074,-0.00325329,0.0609383,20.984,60.4331,-0.192385,0.0,0.0
2114,528.25,20.8631,22.5389,161.273,97.0993,98.8346,-0.00338967,0.0608571,20.9841,60.4431,-0.158452,0.0,0.0
2121,530,21.9242,23.2271,160.447,97.1199,98.9478,-0.00350444,0.0608424,20.9841,60.4231,-0.166796,0.0,0.0
2128,531.75,21.7354,22.562,158.324,97.1044,98.9891,-0.00357331,0.0607989,20.9841,60.4331,-0.171954,0.0,0.0
2135,533.5,21.8062,23.5614,159.631,97.1171,98.7392,-0.00360916,0.0608262,20.9837,60.4331,-0.148172,0.0,0.0
2142,535.25,22.4002,23.4168,157.978,97.1262,99.095,-0.00360005,0.060816,20.9835,60.4431,-0.179509,0.0,0.0
2149,537,21.5951,23.3461,165.541,97.144,98.614,-0.00352279,0.0607598,20.9834,60.4431,-0.134347,0.0,0.0
2156,538.75,21.7642,23.9563,160.947,97.1345,98.9918,-0.00334474,0.0607205,20.9834,60.4331,-0.169427,0.0,0.0
2163,540.5,21.8382,23.6448,162.533,97.1527,99.168,-0.00320352,0.0606583,20.9833,60.4231,-0.183656,0.0,0.0
2170,542.25,22.309,23.4255,160.671,97.1713,99.0803,-0.00316222,0.0607442,20.9833,60.4331,-0.17403,0.0,0.0
2177,544,21.8117,23.7664,157.368,97.184,98.5278,-0.00311627,0.0608935,20.9843,60.4231,-0.122849,0.0,0.0
2184,545.75,22.431,23.5882,160.105,97.1955,98.3517,-0.00305513,0.0610247,20.985,60.4231,-0.105784,0.0,0.0
2191,547.5,22.1448,22.7819,159.806,97.2089,98.7094,-0.00306535,0.0611951,20.9842,60.4131,-0.137024,0.0,0.0
2198,549.25,21.9608,23.7278,157.41,97.2402,99.0297,-0.00311527,0.0611567,20.9838,60.4131,-0.163123,0.0,0.0
2205,551,21.9581,23.5316,159.502,97.271,98.9026,-0.00313867,0.0612516,20.9835,60.4131,-0.148796,0.0,0.0
2212,552.75,22.0237,23.6576,160.287,97.3019,99.5292,-0.0031367,0.0615069,20.9825,60.4131,-0.202453,0.0,0.0
2219,554.5,22.2059,23.4964,159.251,97.328,99.076,-0.0031098,0.0617139,20.9818,60.403,-0.159232,0.0,0.0
2226,556.25,22.2503,23.9595,158.401,97.3617,99.688,-0.00305466,0.0617835,20.9814,60.4231,-0.21122,0.0,0.0
2233,558,22.0422,23.5309,161.113,97.4226,98.8566,-0.00300819,0.061887,20.9812,60.403,-0.130711,0.0,0.0
2240,559.75,21.3921,23.1609,162.119,97.4669,99.2031,-0.00303465,0.061857,20.9811,60.4131,-0.157943,0.0,0.0
2247,561.5,21.855,23.5284,162.881,97.5013,99.0787,-0.00316791,0.0618435,20.9811,60.4131,-0.14356,0.0,0.0
2254,563.25,21.4141,23.5335,161.157,97.55,98.852,-0.00326045,0.0618602,20.9811,60.4131,-0.118598,0.0,0.0
2261,565,21.6122,23.5522,159.271,97.6019,98.7399,-0.00329234,0.0618127,20.9822,60.383,-0.103703,0.0,0.0
2268,566.75,22.1568,23.2145,162.112,97.6573,99.3302,-0.00322613,0.0617524,20.9825,60.403,-0.151945,0.0,0.0
2275,568.5,21.8246,23.2819,160.112,97.7206,99.02,-0.00315643,0.061707,20.9824,60.393,-0.118167,0.0,0.0
2282,570.25,21.8136,23.5159,159.47,97.7688,99.8375,-0.00314914,0.061672,20.9821,60.403,-0.187292,0.0,0.0
2289,572,22.0748,23.5015,159.592,97.8409,99.4836,-0.00311985,0.0617251,20.9811,60.393,-0.148943,0.0,0.0
2296,573.75,21.7903,23.5077,159.174,97.9085,100.142,-0.00301777,0.0617313,20.9805,60.393,-0.20179,0.0,0.0
2303,575.5,21.7923,23.4976,162.842,97.9932,99.8065,-0.00292048,0.0617298,20.9807,60.393,-0.164017,0.0,0.0
2310,577.25,21.9548,23.4936,156.364,98.0557,100.16,-0.00290625,0.06201,20.9808,60.383,-0.189903,0.0,0.0
2317,579,22.0233,23.8038,161.482,98.1357,99.9066,-0.00296496,0.0621875,20.9809,60.383,-0.159986,0.0,0.0
2324,580.75,22.426,23.4275,159.558,98.2022,99.8309,-0.00305277,0.0622655,20.9798,60.393,-0.147146,0.0,0.0
2331,582.5,21.8381,23.4829,160.304,98.2726,99.7146,-0.00314735,0.0623728,20.9793,60.383,-0.130307,0.0,0.0
2338,584.25,21.5203,23.7431,161.084,98.3343,100.359,-0.00325192,0.0623565,20.9789,60.383,-0.182345,0.0,0.0
2345,586,21.8601,23.2548,164.604,98.398,100.031,-0.00333569,0.062459,20.9773,60.383,-0.147269,0.0,0.0
2352,587.75,21.7885,23.1747,161.311,98.4752,100.374,-0.00336498,0.0625653,20.9764,60.393,-0.170847,0.0,0.0
2359,589.5,21.8741,23.5672,159.5,98.5274,100.726,-0.00330644,0.0627987,20.9762,60.393,-0.197413,0.0,0.0
2366,591.25,21.7162,23.7452,160.031,98.5777,100.604,-0.0031405,0.0629755,20.9762,60.393,-0.181969,0.0,0.0
2373,593,22.3029,23.5782,164.877,98.6291,100.716,-0.0029374,0.0631524,20.9762,60.383,-0.187293,0.0,0.0
2380,594.75,21.9264,23.7237,160.188,98.6742,100.016,-0.00286358,0.0632428,20.9762,60.383,-0.120777,0.0,0.0
2387,596.5,21.9415,23.1577,158.564,98.7431,100.773,-0.00294996,0.0632149,20.9762,60.383,-0.182073,0.0,0.0
2394,598.25,21.712,23.49,162.912,98.7827,100.436,-0.00307818,0.0632469,20.9762,60.383,-0.148502,0.0,0.0
2401,600,21.5342,23.3427,158.422,98.8234,100.623,-0.00321072,0.0633496,20.9762,60.393,-0.161415,0.0,0.0
2408,601.75,21.9768,23.8194,159.603,98.8499,100.789,-0.00329267,0.0633978,20.9762,60.393,-0.173805,0.0,0.0
2415,603.5,22.1846,23.3163,164.066,98.9235,100.691,-0.00334161,0.0633098,20.9762,60.393,-0.1584,0.0,0.0
2422,605.25,22.0797,23.4897,160.56,98.9354,100.689,-0.00333229,0.063321,20.9762,60.373,-0.157154,0.0,0.0
2429,607,22.3032,23.2942,157.703,98.9536,100.88,-0.0032608,0.0634199,20.9762,60.383,-0.172482,0.0,0.0
2436,608.75,22.0813,23.7317,155.485,98.9536,100.823,-0.00320884,0.0633537,20.9756,60.373,-0.167376,0.0,0.0
2443,610.5,21.8155,23.3514,159.264,98.9853,100.915,-0.00320531,0.0633016,20.9758,60.373,-0.172702,0.0,0.0
2450,612.25,22.0631,23.7423,159.702,99.0011,100.784,-0.00323795,0.0632248,20.976,60.373,-0.159656,0.0,0.0
2457,614,22.5942,23.6121,160.982,99.0019,101.127,-0.00326524,0.0632743,20.9749,60.403,-0.190015,0.0,0.0
2464,615.75,22.2518,23.7644,161.257,98.996,100.933,-0.00327097,0.0635295,20.9744,60.393,-0.173381,0.0,0.0
2471,617.5,22.2821,23.8294,153.527,98.992,101.019,-0.00320888,0.0637641,20.9733,60.373,-0.181336,0.0,0.0
2478,619.25,21.8168,23.9756,160.116,99.0059,100.994,-0.00312803,0.0640345,20.9724,60.403,-0.177895,0.0,0.0
2485,621,22.0777,23.5739,159.892,98.9936,100.823,-0.00308385,0.0643218,20.972,60.393,-0.163763,0.0,0.0
2492,622.75,21.5798,23.3755,157.743,98.9809,100.802,-0.00304756,0.0643726,20.9718,60.393,-0.163057,0.0,0.0
2499,624.5,21.9877,23.6322,157.219,98.9738,101.064,-0.00299393,0.0643861,20.9717,60.383,-0.186948,0.0,0.0
2506,626.25,21.5705,22.8703,164.853,98.9584,101.221,-0.00295034,0.0645749,20.9716,60.383,-0.202214,0.0,0.0
2513,628,22.1784,24.3953,158.677,98.9425,100.799,-0.00293511,0.0649997,20.9714,60.373,-0.166252,0.0,0.0
2520,629.75,22.4984,23.8353,156.223,98.9152,100.973,-0.0029232,0.0654439,20.9703,60.363,-0.18417,0.0,0.0
2527,631.5,22.2056,23.8724,159.289,98.8935,100.882,-0.00290779,0.066006,20.9686,60.373,-0.178092,0.0,0.0
2534,633.25,22.1391,23.8529,159.463,98.8602,101.314,-0.00289529,0.0664615,20.9678,60.373,-0.219281,0.0,0.0
2541,635,22.4168,23.8824,159.621,98.8361,100.859,-0.00286657,0.0669844,20.9679,60.353,-0.181228,0.0,0.0
2548,636.75,22.5185,23.7209,154.832,98.7945,100.448,-0.00278909,0.067815,20.9675,60.373,-0.148493,0.0,0.0
2555,638.5,22.4055,23.286,160.209,98.749,100.165,-0.00272769,0.0696936,20.964,60.383,-0.127396,0.0,0.0
2562,640.25,22.4215,23.8402,159.625,98.7063,100.484,-0.00274677,0.0711942,20.9615,60.383,-0.159652,0.0,0.0
2569,642,21.7725,24.2592,166.741,98.6556,100.861,-0.00285534,0.0721982,20.9614,60.393,-0.197781,0.0,0.0
2576,643.75,22.5716,23.6031,159.708,98.6074,100.284,-0.00304161,0.072325,20.9624,60.383,-0.150858,0.0,0.0
2583,645.5,22.9248,23.575,158.32,98.567,101.006,-0.00321059,0.0718237,20.9639,60.373,-0.218626,0.0,0.0
2590,647.25,22.4653,23.822,162.549,98.5072,100.401,-0.00331842,0.0711517,20.965,60.383,-0.170346,0.0,0.0
2597,649,22.4391,23.6597,161.119,98.4736,100.713,-0.00335484,0.070417,20.9656,60.363,-0.201134,0.0,0.0
2604,650.75,22.2824,24.0021,160.65,98.4273,100.627,-0.00328991,0.069596,20.9658,60.373,-0.197686,0.0,0.0
2611,652.5,22.3967,24.1268,159.159,98.3842,100.446,-0.00318136,0.0690102,20.9659,60.373,-0.185485,0.0,0.0
2618,654.25,22.4522,23.6108,157.872,98.3292,100.843,-0.00306855,0.0686538,20.9671,60.363,-0.225785,0.0,0.0
2625,656,22.3686,23.7632,159.459,98.2955,100.205,-0.00298226,0.0683166,20.9677,60.363,-0.172089,0.0,0.0
2632,657.75,22.1274,24.1088,158.417,98.2896,99.9325,-0.00299185,0.0679583,20.9683,60.363,-0.148283,0.0,0.0
2639,659.5,22.4729,23.8568,158.944,98.2485,100.178,-0.00305394,0.0677679,20.9687,60.363,-0.173961,0.0,0.0
2646,661.25,22.0054,23.8197,158.051,98.2231,100.119,-0.003172,0.0676452,20.9688,60.363,-0.171056,0.0,0.0
2653,663,22.9992,23.9049,160.082,98.2338,100.114,-0.0032877,0.0675082,20.9689,60.353,-0.169601,0.0,0.0
2660,664.75,22.2007,24.0988,161.168,98.3094,100.42,-0.00335462,0.0674009,20.9689,60.343,-0.189982,0.0,0.0
2667,666.5,22.5136,23.8218,160.482,98.3937,100.173,-0.00338819,0.0673738,20.969,60.343,-0.160334,0.0,0.0
2674,668.25,22.6367,23.8722,158.847,98.4859,100.128,-0.0034299,0.0673207,20.969,60.333,-0.147919,0.0,0.0
2681,670,22.4256,24.0906,161.734,98.5452,100.471,-0.00342487,0.0672496,20.969,60.333,-0.173158,0.0,0.0
2688,671.75,22.3172,24.1199,159.025,98.6386,100.566,-0.00333883,0.0671455,20.969,60.333,-0.173074,0.0,0.0
2695,673.5,22.1998,23.5825,160.824,98.6825,100.874,-0.00322187,0.0671811,20.969,60.333,-0.196471,0.0,0.0
2702,675.25,22.839,24.0153,157.986,98.7328,100.721,-0.00313613,0.0672322,20.969,60.333,-0.178375,0.0,0.0
2709,677,22.5805,24.2437,159.402,98.77,101.137,-0.00309372,0.0672572,20.9682,60.333,-0.211813,0.0,0.0
2716,678.75,22.0257,24.0525,157.851,98.7902,100.792,-0.00308633,0.0672059,20.9674,60.313,-0.179454,0.0,0.0
2723,680.5,22.4759,23.6692,163.007,98.8068,100.912,-0.00305008,0.0673589,20.9676,60.323,-0.188605,0.0,0.0
2730,682.25,22.1069,23.7498,157.9,98.8179,100.491,-0.00303388,0.0674777,20.9673,60.313,-0.150197,0.0,0.0
2737,684,22.47,24.0383,157.139,98.8092,100.726,-0.00309747,0.0676471,20.9668,60.333,-0.171835,0.0,0.0
2744,685.75,22.8496,24.1982,158.376,98.7862,101.116,-0.00315166,0.0679423,20.9663,60.313,-0.208498,0.0,0.0
2751,687.5,22.6161,24.5785,160.543,98.7977,101.337,-0.00318176,0.0681826,20.9652,60.313,-0.226986,0.0,0.0
2758,689.25,22.3453,23.8518,162.202,98.8021,100.61,-0.00323473,0.0683705,20.9646,60.313,-0.162182,0.0,0.0
2765,691,22.2999,23.7203,161.782,98.7724,100.94,-0.00327872,0.0685341,20.9643,60.343,-0.194223,0.0,0.0
2772,692.75,22.6387,23.9498,164.141,98.7451,100.967,-0.00325324,0.0688061,20.9633,60.333,-0.199092,0.0,0.0
2779,694.5,21.7718,23.5218,159.592,98.7071,100.909,-0.00318743,0.0691106,20.9625,60.343,-0.19733,0.0,0.0
2786,696.25,21.1281,22.9613,161.774,98.6798,101.203,-0.00306454,0.069483,20.9611,60.333,-0.225863,0.0,0.0
2793,698,22.2278,23.4422,161.252,98.622,100.488,-0.00292375,0.0698715,20.9603,60.353,-0.167706,0.0,0.0
2800,699.75,22.0654,23.3222,162.527,98.5607,100.47,-0.0028459,0.0704496,20.9599,60.353,-0.171655,0.0,0.0
2807,701.5,22.2129,23.6404,160.63,98.489,100.903,-0.00286006,0.0708978,20.9597,60.353,-0.216633,0.0,0.0
2814,703.25,21.8133,23.7446,163.21,98.4166,100.627,-0.00304439,0.0710227,20.9596,60.333,-0.198657,0.0,0.0
2821,705,22.1125,24.0447,161.914,98.3403,100.797,-0.00331663,0.0709148,20.9597,60.333,-0.220733,0.0,0.0
2828,706.75,21.9341,23.9165,161.392,98.2508,100.587,-0.00341903,0.0708823,20.96,60.323,-0.210202,0.0,0.0
2835,708.5,21.1522,22.6786,164.04,98.142,100.384,-0.00341044,0.0705749,20.9611,60.313,-0.20206,0.0,0.0
2842,710.25,21.9784,23.932,158.594,98.0502,100.233,-0.00333383,0.0702434,20.9617,60.313,-0.196961,0.0,0.0
2849,712,21.9982,23.6904,159.183,98.0011,100.561,-0.00324305,0.0699038,20.9631,60.323,-0.230628,0.0,0.0
2856,713.75,22.4019,23.6221,163.509,98.0039,100.165,-0.00317067,0.0696133,20.964,60.323,-0.195151,0.0,0.0
2863,715.5,22.4253,23.115,161.725,98.0075,100.599,-0.00311712,0.069199,20.9653,60.323,-0.233451,0.0,0.0
2870,717.25,22.17,23.7547,158.062,98.0158,99.8386,-0.00309759,0.0687656,20.9662,60.323,-0.164833,0.0,0.0
2877,719,21.9114,23.968,159.394,98.051,100.544,-0.00314241,0.0685627,20.9677,60.313,-0.224566,0.0,0.0
2884,720.75,22.1133,23.5968,162.492,98.068,100.092,-0.0031809,0.0684615,20.9681,60.313,-0.182778,0.0,0.0
2891,722.5,22.5866,24.077,159.396,98.0882,100.66,-0.00315933,0.0682851,20.9674,60.333,-0.231546,0.0,0.0
2898,724.25,22.1084,24.0407,161.985,98.0997,100.701,-0.00306652,0.0681465,20.9673,60.333,-0.234139,0.0,0.0
2905,726,22.4417,23.2628,161.855,98.1341,100.151,-0.00298017,0.067924,20.9681,60.333,-0.181965,0.0,0.0
2912,727.75,21.1445,23.5655,164.692,98.1559,100.448,-0.00294234,0.0677763,20.9682,60.333,-0.20651,0.0,0.0
2919,729.5,22.3863,23.9662,155.568,98.1574,99.8131,-0.00290198,0.0675865,20.9681,60.323,-0.149628,0.0,0.0
2926,731.25,21.9983,23.5046,158.085,98.1654,100.554,-0.00289156,0.0673543,20.968,60.323,-0.215066,0.0,0.0
2933,733,22.1441,23.8362,159.315,98.1859,100.196,-0.00293987,0.0672063,20.968,60.333,-0.181242,0.0,0.0
2940,734.75,21.811,23.128,162.633,98.2231,100.462,-0.003036,0.0671356,20.968,60.323,-0.201586,0.0,0.0
2947,736.5,22.2606,23.6321,156.449,98.2322,100.496,-0.00310369,0.0670298,20.9688,60.323,-0.203817,0.0,0.0
2954,738.25,22.2773,23.3253,160.178,98.2409,101.094,-0.00312166,0.0669892,20.9695,60.323,-0.256064,0.0,0.0
2961,740,21.7977,23.457,158.779,98.2532,100.86,-0.00312109,0.0667138,20.9699,60.323,-0.234243,0.0,0.0
2968,741.75,21.7825,23.8528,159.167,98.2655,100.562,-0.00311283,0.0665054,20.9701,60.323,-0.20667,0.0,0.0
2975,743.5,22.7307,24.011,160.234,98.2706,101.08,-0.00310946,0.0663263,20.9702,60.333,-0.252165,0.0,0.0
2982,745.25,22.072,23.4543,162.542,98.2631,100.059,-0.00313299,0.0661506,20.9702,60.323,-0.162032,0.0,0.0
2989,747,22.0002,23.5338,161.199,98.2607,100.62,-0.00314191,0.0658754,20.9702,60.323,-0.212255,0.0,0.0
2996,748.75,22.1566,23.7428,160.409,98.25,100.833,-0.00315365,0.0657515,20.9702,60.323,-0.232131,0.0,0.0
3003,750.5,22.5644,23.6273,156.029,98.2635,99.9974,-0.00314746,0.0657754,20.9704,60.323,-0.156468,0.0,0.0
3010,752.25,22.5889,23.4522,158.524,98.2532,100.829,-0.00312153,0.0656841,20.9716,60.313,-0.231501,0.0,0.0
3017,754,22.1148,23.6602,163.127,98.2433,100.51,-0.00312741,0.0656367,20.9724,60.333,-0.204081,0.0,0.0
3024,755.75,22.1163,23.3036,160.727,98.2362,100.603,-0.00317536,0.0654105,20.9737,60.323,-0.212943,0.0,0.0
3031,757.5,22.1956,23.9359,159.635,98.2405,100.683,-0.00319092,0.0651997,20.9745,60.323,-0.219689,0.0,0.0
3038,759.25,21.3886,23.149,159.736,98.2409,100.588,-0.00314117,0.0649781,20.975,60.323,-0.211171,0.0,0.0
3045,761,22.3095,23.4663,158.544,98.2227,100.557,-0.00310307,0.06482,20.9752,60.323,-0.21008,0.0,0.0
3052,762.75,22.1448,23.4756,158.022,98.2188,100.619,-0.00312025,0.0646875,20.9754,60.323,-0.216006,0.0,0.0
3059,764.5,21.8318,23.7026,156.395,98.2113,100.489,-0.00313663,0.0644425,20.9754,60.323,-0.205074,0.0,0.0
3066,766.25,22.0689,23.2971,159.863,98.216,100.379,-0.00318491,0.0642374,20.9765,60.313,-0.194905,0.0,0.0
3073,768,22.2155,23.5221,158.38,98.1919,100.571,-0.0032839,0.0642225,20.9771,60.313,-0.214197,0.0,0.0
3080,769.75,22.6311,24.1472,157.647,98.163,100.274,-0.00333631,0.0640041,20.9774,60.333,-0.190297,0.0,0.0
3087,771.5,21.1136,23.4138,160.44,98.1404,100.402,-0.00327139,0.0638439,20.9776,60.313,-0.203788,0.0,0.0
3094,773.25,21.7254,23.3108,160.727,98.1321,100.634,-0.00320412,0.0637807,20.9786,60.333,-0.225208,0.0,0.0
3101,775,22.1599,23.6011,157.371,98.1012,100.656,-0.00326359,0.0636281,20.9793,60.323,-0.229978,0.0,0.0
3108,776.75,21.79,23.9993,160.684,98.0581,100.024,-0.00338986,0.0635171,20.9797,60.313,-0.177533,0.0,0.0
3115,778.5,22.7449,23.859,161.443,97.9995,100.311,-0.0034465,0.0632993,20.9799,60.303,-0.20851,0.0,0.0
3122,780.25,22.1248,23.6703,161.794,97.9904,100.119,-0.00340207,0.0633114,20.979,60.313,-0.192237,0.0,0.0
3129,782,22.2247,23.8909,162.524,97.9477,100.458,-0.00336226,0.0634069,20.9783,60.313,-0.22636,0.0,0.0
3136,783.75,21.994,23.5094,158.688,97.905,100.316,-0.0033549,0.0635101,20.9774,60.303,-0.21763,0.0,0.0
3143,785.5,22.1578,23.8845,159.402,97.8559,100.456,-0.0033159,0.0636992,20.9764,60.313,-0.234576,0.0,0.0
3150,787.25,22.4643,23.4804,158.677,97.8136,100.41,-0.00325772,0.0638378,20.9759,60.303,-0.234388,0.0,0.0
3157,789,22.2958,24.0013,158.185,97.7736,99.9974,-0.00326473,0.0639981,20.9757,60.313,-0.201176,0.0,0.0
3164,790.75,22.3186,23.8124,160.131,97.7297,99.9394,-0.00322637,0.0641983,20.9756,60.303,-0.200011,0.0,0.0
3171,792.5,22.8226,23.9532,160.798,97.6869,99.9947,-0.00304096,0.0644492,20.9744,60.303,-0.208866,0.0,0.0
3178,794.25,22.5626,23.9278,159.198,97.6315,100.135,-0.0028573,0.0645468,20.9738,60.303,-0.226512,0.0,0.0
3185,796,22.2369,23.7233,160.308,97.5908,100.351,-0.0028077,0.0646408,20.9728,60.293,-0.249518,0.0,0.0
3192,797.75,22.1659,23.4876,160.1,97.548,99.754,-0.00297747,0.0647926,20.9724,60.293,-0.200039,0.0,0.0
3199,799.5,22.118,23.2297,157.863,97.5045,99.5918,-0.00316016,0.0649806,20.9723,60.303,-0.189469,0.0,0.0
3206,801.25,22.2953,23.8405,160.608,97.44,100.019,-0.00327021,0.0651171,20.9722,60.303,-0.233649,0.0,0.0
3213,803,22.6559,24.2188,158.554,97.4123,99.6601,,0.065359,,60.303,-0.204072,0.0,0.0
3220,804.75,22.1076,23.8496,155.219,97.3624,100.041,,0.065577,,60.293,-0.24281,0.0,0.0
3227,806.5,21.5638,23.2891,163.3,97.33,98.9076,,,,60.303,-0.14383,0.0,0.0
3234,808.25,21.4312,23.336,158.903,97.3043,99.5751,,,,60.293,-0.206366,0.0,0.0
3241,810,21.9975,23.0286,158.828,97.2493,99.5678,,,,60.313,-0.210764,0.0,0.0
3248,811.75,21.8221,23.7942,158.794,97.2216,99.5836,,,,60.303,-0.214735,0.0,0.0
3255,813.5,22.5924,23.9907,161.298,97.2061,99.5918,,,,60.303,-0.216884,0.0,0.0
3256,813.75,22.3783,24.002,161.816,97.1919,99.4851,,,,60.303,-0.208613,0.0,0.0