File: 01_Data/PC/Cone/PC_Cone_HF50Scan_220216_R1.csv
Names,Time,Stack TC,Smoke TC,Exh Press,Smoke Comp,Smoke Meas,CO Meter,CO2 Meter,O2 Meter,Sample Mass,Ext Coeff,Start Test,Flame Verif
Chan Gain,,500,500,1,1,1,1,1,1,1,1,1.0,1.0
Offset,,0,0,0.140898,0,0,0,0,0,0,0,0.0,0.0
Gain,,1,1,25.011,12.9668,12.6588,1,1,1,1.00088,1.01977,1.0,1.0
Units,sec,C,C,Pa,%,%,%,%,%,g,/m,,
Baseline,,32.8547,35.3797,154.212,98.2182,98.3328,-0.00282968,0.0649554,20.9714,-873.209,-0.0103595,,
7,1.5,31.6959,34.2618,156.825,98.0648,98.0403,-0.00278655,0.0781347,20.9571,60.7133,0.00223803,0.0,0.0
14,3.25,31.5015,33.4004,155.666,98.0023,98.0863,-0.00274065,0.0778914,20.9572,60.8034,-0.00766033,0.0,0.0
21,5,31.7999,34.1026,155.206,97.9536,97.9287,-0.00272951,0.077345,20.9582,60.7734,0.00228173,0.0,0.0
28,6.75,31.56,33.956,154.186,97.8923,98.0782,-0.0026962,0.0765998,20.9597,60.7934,-0.0169676,0.0,0.0
35,8.5,31.7951,33.6884,155.003,97.8282,98.2988,-0.0026675,0.0760404,20.96,60.8034,-0.0429239,0.0,0.0
42,10.25,32.2589,33.319,155.924,97.7696,98.1771,-0.00274168,0.0754763,20.9601,60.8034,-0.0371996,0.0,0.0
49,12,31.6058,33.9652,154.001,97.6976,98.1257,-0.00282176,0.0752773,20.9602,60.8134,-0.0391091,0.0,0.0
56,13.75,32.3746,33.914,153.948,97.6252,97.6768,-0.00281788,0.0754118,20.9604,60.8134,-0.00472525,0.0,0.0
63,15.5,31.8034,34.3787,157.695,97.554,97.399,-0.00280353,0.0754651,20.9617,60.8234,0.0142194,0.0,0.0
70,17.25,32.6303,34.352,158.187,97.4855,97.8274,-0.00283409,0.0750941,20.9633,60.8434,-0.0313212,0.0,0.0
77,19,31.6646,34.5262,151.67,97.3929,97.4222,-0.00287942,0.0741253,20.9652,60.8334,-0.00268978,0.0,0.0
84,20.75,32.0509,34.3376,150.484,97.3209,97.2847,-0.002971,0.0729045,20.9662,60.8434,0.00333071,0.0,0.0
91,22.5,32.3345,34.6121,148.44,97.2354,98.0917,-0.00304434,0.0717382,20.9669,60.8334,-0.0784292,0.0,0.0
98,24.25,32.1366,34.3488,147.996,97.1757,97.0753,-0.00306333,0.0705014,20.9682,60.8234,0.00924489,0.0,0.0
105,26,32.4368,34.4508,150.576,97.1215,97.3592,-0.003029,0.0694633,20.9688,60.7934,-0.0218729,0.0,0.0
112,27.75,32.3357,34.4786,151.594,97.053,97.3882,-0.00293602,0.0687392,20.9691,60.8134,-0.0308423,0.0,0.0
119,29.5,32.4476,34.7474,152.711,96.9964,96.9412,-0.00290533,0.0684304,20.9684,60.8134,0.00509046,0.0,0.0
126,31.25,32.829,34.4935,158.909,96.9537,97.3229,-0.00297154,0.0683348,20.9689,60.8134,-0.0340028,0.0,0.0
133,33,32.6946,35.0822,153.185,96.9426,97.418,-0.00304441,0.0683469,20.9691,60.8134,-0.0437559,0.0,0.0
140,34.75,32.6731,34.8064,152.698,96.8848,96.9598,-0.00313453,0.0681923,20.9692,60.8034,-0.00691807,0.0,0.0
147,36.5,32.6511,34.6482,152.23,96.8722,97.8842,-0.00318949,0.067904,20.9693,60.7734,-0.0929729,0.0,0.0
154,38.25,32.8573,34.9125,153.148,96.8686,97.3646,-0.00320218,0.0675992,20.9693,60.7834,-0.0456909,0.0,0.0
161,40,32.6337,34.6039,150.107,96.8836,97.579,-0.00317996,0.0673384,20.9692,60.8034,-0.0639794,0.0,0.0
168,41.75,32.8728,35.1568,155.275,96.8971,97.4245,-0.00314354,0.0669747,20.9696,60.7834,-0.0485596,0.0,0.0
175,43.5,32.7541,35.1805,160.708,96.9149,97.3179,-0.00316579,0.0665758,20.9702,60.7834,-0.0371204,0.0,0.0
182,45.25,33.0177,34.9124,155.923,96.9604,97.9283,-0.00315383,0.0662908,20.9705,60.7734,-0.0888507,0.0,0.0
189,47,32.7399,34.9159,150.032,96.9936,97.333,-0.00305769,0.0660544,20.9706,60.7534,-0.0312399,0.0,0.0
196,48.75,32.565,35.3209,155.862,97.055,98.3138,-0.00291268,0.0660083,20.9707,60.7634,-0.115279,0.0,0.0
203,50.5,32.4994,35.625,152.966,97.1033,96.8972,-0.00276537,0.0659763,20.9701,60.7433,0.0190027,0.0,0.0
210,52.25,33.1697,35.8345,155.134,97.159,97.8112,-0.00267408,0.0662147,20.9693,60.7534,-0.0598438,0.0,0.0
217,54,33.2735,35.5747,149.311,97.2354,97.2986,-0.00273149,0.0666573,20.9699,60.7333,-0.00580826,0.0,0.0
224,55.75,32.7921,35.0412,154.582,97.3304,97.6764,-0.00278227,0.0670056,20.9695,60.7634,-0.0317444,0.0,0.0
231,57.5,33.44,35.7647,151.199,97.406,98.0782,-0.00275935,0.0672764,20.9695,60.7634,-0.0615197,0.0,0.0
238,59.25,33.2302,35.5718,151.725,97.4835,98.1392,-0.00268211,0.0673634,20.9691,60.7333,-0.0599646,0.0,0.0
245,61,33.1954,35.6732,155.438,97.5742,97.9549,-0.00262451,0.0672217,20.9699,60.7433,-0.0348404,0.0,0.0
252,62.75,33.2644,36.0171,154.689,97.6865,97.4832,-0.00266686,0.067157,20.9703,60.7433,0.0186356,0.0,0.0
259,64.5,33.8276,36.2456,155.487,97.7954,97.637,-0.00280292,0.0669991,20.9705,60.7133,0.0144972,0.0,0.0
266,66.25,33.5689,35.6766,153.535,97.8915,98.3579,-0.00296932,0.0668744,20.9706,60.7233,-0.042513,0.0,0.0
273,68,33.5829,36.2631,154.469,97.9932,97.766,-0.00312103,0.0667072,20.9706,60.7534,0.0207636,0.0,0.0
280,69.75,33.45,36.0423,149.301,98.0874,98.4212,-0.00323776,0.0666488,20.9706,60.7534,-0.0303924,0.0,0.0
287,71.5,33.8512,36.3096,157.019,98.1938,99.2703,-0.00322755,0.0664777,20.9709,60.7433,-0.097534,0.0,0.0
294,73.25,32.9367,35.5557,154.265,98.271,98.6267,-0.00316185,0.0663235,20.9712,60.7433,-0.0323223,0.0,0.0
301,75,33.5094,36.0552,152.938,98.3545,98.5112,-0.00310664,0.0662816,20.9714,60.7133,-0.0142431,0.0,0.0
308,76.75,33.604,36.2408,152.993,98.4344,99.3526,-0.00300589,0.0663311,20.9711,60.7033,-0.0830545,0.0,0.0
315,78.5,33.8364,36.3516,153.661,98.5057,99.3615,-0.00287507,0.066358,20.9709,60.7133,-0.0773836,0.0,0.0
322,80.25,33.5983,36.1619,153.635,98.5872,99.6729,-0.00278008,0.0663269,20.971,60.7133,-0.0979728,0.0,0.0
329,82,33.2511,36.382,151.928,98.6295,97.6011,-0.00275639,0.0661444,20.9718,60.7133,0.0937673,0.0,0.0
336,83.75,33.3134,36.3,151.632,98.6897,97.3403,-0.00276046,0.0659362,20.9719,60.6933,0.123152,0.0,0.0
343,85.5,33.7843,35.8781,150.042,98.7364,99.2166,-0.00276702,0.0659271,20.972,60.6933,-0.0434066,0.0,0.0
350,87.25,33.7664,36.1278,153.345,98.7858,98.9833,-0.002802,0.0658566,20.972,60.6733,-0.017864,0.0,0.0
357,89,33.7914,36.5532,158.138,98.8072,99.2781,-0.0028581,0.0657075,20.972,60.6633,-0.0425285,0.0,0.0
364,90.75,33.7412,36.1335,150.876,98.8302,98.7048,-0.00297427,0.0657013,20.971,60.6633,0.011356,0.0,0.0
371,92.5,33.9788,36.6416,151.108,98.8254,99.0544,-0.00306867,0.0658638,20.9704,60.6533,-0.0207035,0.0,0.0
378,94.25,33.5722,36.8105,150.333,98.8416,98.8952,-0.00311395,0.0660458,20.9701,60.6733,-0.00484902,0.0,0.0
385,96,33.9218,36.5743,151.606,98.8298,97.5559,-0.00311669,0.066393,20.9699,60.6633,0.116053,0.0,0.0
392,97.75,33.933,36.8933,155.732,98.8068,97.9584,-0.00311526,0.0664843,20.9698,60.6533,0.0771402,0.0,0.0
399,99.5,34.4417,36.6718,151.041,98.7827,97.8811,-0.00311263,0.0663499,20.9698,60.6633,0.0820136,0.0,0.0
406,101.25,33.9811,36.8666,152.618,98.7589,97.6316,-0.00307003,0.0663651,20.9697,60.6633,0.102699,0.0,0.0
413,103,34.4095,37.1341,148.939,98.7328,97.3488,-0.00300911,0.0663639,20.9697,60.6533,0.126279,0.0,0.0
420,104.75,34.0403,37.1751,149.629,98.6798,97.6625,-0.00292382,0.0663281,20.9697,60.6433,0.0926962,0.0,0.0
427,106.5,34.1699,37.1952,149.486,98.6268,97.2796,-0.00286193,0.0663576,20.9697,60.6333,0.123024,0.0,0.0
434,108.25,34.4047,37.0785,151.682,98.5868,97.0602,-0.0027914,0.0662963,20.9697,60.6232,0.139597,0.0,0.0
441,110,34.3542,37.1028,154.014,98.5369,97.1147,-0.00268371,0.0663515,20.9697,60.6032,0.130053,0.0,0.0
448,111.75,34.6636,37.2756,152.339,98.4843,96.2474,-0.00262796,0.0664354,20.9697,60.6132,0.20552,0.0,0.0
455,113.5,33.9208,37.636,153.58,98.4249,97.0649,-0.00270674,0.0665659,20.9697,60.6032,0.124473,0.0,0.0
462,115.25,34.8224,37.4773,155.539,98.381,96.949,-0.00283758,0.0667008,20.9697,60.5932,0.131167,0.0,0.0
469,117,34.7692,37.1638,151.797,98.3118,95.8008,-0.00290584,0.0666882,20.9697,60.5832,0.231437,0.0,0.0
476,118.75,34.3718,37.846,153.806,98.2809,96.1269,-0.00287495,0.0666931,20.9697,60.5732,0.198235,0.0,0.0
483,120.5,34.8567,37.3338,153.019,98.1895,96.4471,-0.00274789,0.066742,20.9697,60.5632,0.160158,0.0,0.0
490,122.25,34.5696,37.3699,151.873,98.1566,96.0604,-0.00263941,0.0668183,20.9698,60.5632,0.193105,0.0,0.0
497,124,34.9824,37.4354,151.693,98.0997,95.6081,-0.00260159,0.0668677,20.9704,60.5432,0.230136,0.0,0.0
504,125.75,34.9259,37.8462,152.336,98.066,96.5596,-0.00256957,0.0669037,20.9707,60.5232,0.138483,0.0,0.0
511,127.5,34.5601,37.4068,152.315,98.0629,95.6733,-0.00219583,0.0671665,20.969,60.5332,0.220672,0.0,0.0
518,129.25,34.9053,37.6436,152.381,98.18,93.848,-0.000911676,0.0793352,20.931,60.4931,0.403668,0.0,1.0
525,131,35.4029,38.5592,146.052,98.2817,74.4804,0.00055724,0.111911,20.8491,60.353,2.48056,0.0,1.0
532,132.75,35.3295,39.0915,143.023,98.3893,81.55,0.00150385,0.154859,20.7992,60.2829,1.67919,0.0,1.0
539,134.5,36.5449,39.5047,150.288,98.4499,84.3933,0.00231428,0.184192,20.7664,60.1929,1.37812,0.0,1.0
546,136.25,36.59,40.6604,143.13,98.5001,79.3464,0.00319763,0.202904,20.7402,60.0728,1.93429,0.0,0.0
553,138,37.4911,41.7663,142.957,98.5421,69.8515,0.00438101,0.227548,20.7074,59.9927,3.07819,0.0,0.0
560,139.75,38.2421,42.6229,142.362,98.5808,67.5572,0.00666333,0.262638,20.6482,59.8225,3.38047,0.0,0.0
567,141.5,38.8904,43.8285,139.304,98.6002,59.0791,0.00953374,0.307456,20.5607,59.5923,4.58177,0.0,0.0
574,143.25,40.0208,45.2209,132.31,98.6018,55.9912,0.0122897,0.362407,20.4693,59.3621,5.06212,0.0,0.0
581,145,40.9355,46.8704,136.833,98.6002,58.1917,0.0149191,0.416354,20.405,59.0919,4.71715,0.0,0.0
588,146.75,42.7703,48.8913,130.651,98.5706,53.3566,0.0177683,0.46967,20.3449,58.8317,5.49043,0.0,0.0
595,148.5,44.1113,51.0919,135.879,98.548,51.4296,0.0205134,0.51574,20.2708,58.5514,5.81742,0.0,0.0
602,150.25,45.9373,53.0804,135.671,98.5072,49.3076,0.0230426,0.573024,20.18,58.2812,6.19064,0.0,0.0
609,152,47.9676,55.2106,126.954,98.4467,47.8388,0.0247794,0.627224,20.1072,57.9509,6.45566,0.0,0.0
616,153.75,49.2492,57.4755,124.729,98.3691,47.9756,0.0259984,0.677197,20.0449,57.6206,6.42307,0.0,0.0
623,155.5,50.9698,60.5152,126.18,98.2928,51.367,0.0269302,0.719304,20.0018,57.3103,5.80511,0.0,0.0
630,157.25,52.4851,61.5913,124.446,98.2073,48.5454,0.0278503,0.749772,19.9808,56.93,6.30272,0.0,0.0
637,159,54.4259,63.8683,125.976,98.089,48.0833,0.0287267,0.767328,19.9715,56.6297,6.37748,0.0,0.0
644,160.75,55.2022,65.9511,133.303,97.9572,47.2157,0.0293389,0.77416,19.9675,56.3595,6.52835,0.0,0.0
651,162.5,56.5937,67.1351,127.995,97.8409,50.9405,0.029648,0.780826,19.9643,56.0692,5.83847,0.0,0.0
658,164.25,57.9418,68.8324,128.275,97.7586,49.5934,0.0299397,0.787529,19.9593,55.7189,6.07068,0.0,0.0
665,166,59.6066,69.9923,128.69,97.7724,47.6974,0.0306478,0.800348,19.9431,55.4087,6.42065,0.0,0.0
672,167.75,61.3064,71.9095,124.305,97.7744,46.9132,0.0315453,0.821895,19.9055,55.0283,6.56913,0.0,0.0
679,169.5,61.8226,73.9864,121.706,97.791,47.8674,0.032222,0.845192,19.8742,54.698,6.39053,0.0,0.0
686,171.25,63.1787,75.5588,126.146,97.812,48.032,0.0326487,0.862125,19.8535,54.3577,6.36175,0.0,0.0
693,173,64.315,77.1496,128.436,97.8306,47.3536,0.032868,0.876559,19.8374,53.9474,6.49069,0.0,0.0
700,174.75,65.6119,78.6214,122.837,97.8658,45.5661,0.0331559,0.88827,19.825,53.6171,6.83811,0.0,0.0
707,176.5,66.7331,80.1955,126.057,97.863,47.7913,0.0335664,0.900806,19.8128,53.2868,6.41135,0.0,0.0
714,178.25,68.1191,81.5302,122.187,97.8887,45.0647,0.0339138,0.908615,19.8086,52.8864,6.9392,0.0,0.0
721,180,68.9768,82.9034,128.739,97.9161,44.7498,0.0340553,0.909628,19.8108,52.5762,7.00441,0.0,0.0
728,181.75,70.119,83.6693,121.071,97.9445,44,0.0339232,0.907339,19.817,52.2059,7.15817,0.0,0.0
735,183.5,69.9402,85.5446,125.85,97.9509,44.8,0.0338377,0.901829,19.8328,51.9056,6.99756,0.0,0.0
742,185.25,71.5401,85.9998,129.498,97.9813,44.8591,0.0338824,0.893099,19.8455,51.5353,6.98854,0.0,0.0
749,187,71.4996,87.017,128.156,98.0015,42.9635,0.0338156,0.887428,19.8531,51.1549,7.37662,0.0,0.0
756,188.75,72.1564,86.6432,123.869,98.0367,46.9151,0.0333932,0.880693,19.8654,50.8947,6.59274,0.0,0.0
763,190.5,72.6311,88.0157,129.874,98.0561,45.3722,0.0327291,0.868178,19.8913,50.5544,6.89365,0.0,0.0
770,192.25,73.2398,87.5645,125.718,98.0577,45.2532,0.0321887,0.852361,19.9125,50.1941,6.91728,0.0,0.0
777,194,72.7243,88.7618,127.743,98.0819,42.3094,0.0316984,0.844057,19.9245,49.8738,7.52117,0.0,0.0
784,195.75,73.9817,88.7421,130.294,98.1313,44.8479,0.0313272,0.836654,19.9295,49.5435,7.00446,0.0,0.0
791,197.5,74.3606,88.9337,129.296,98.1317,47.3227,0.0310635,0.83326,19.9281,49.2433,6.52402,0.0,0.0
798,199.25,74.846,89.8573,133.098,98.1444,45.6719,0.0308684,0.834952,19.922,48.8929,6.84278,0.0,0.0
805,201,75.1321,90.2545,126.243,98.1519,46.9105,0.0306733,0.836467,19.9191,48.6027,6.60412,0.0,0.0
812,202.75,75.8098,90.4886,130.048,98.1733,45.3544,0.0303632,0.832968,19.9274,48.2424,6.90783,0.0,0.0
819,204.5,75.6862,90.5912,132.389,98.1733,48.9274,0.0297087,0.824723,19.9527,47.9321,6.22949,0.0,0.0
826,206.25,75.9454,90.5481,129.213,98.1665,50.4754,0.0289049,0.808981,19.9786,47.6318,5.95025,0.0,0.0
833,208,76.2201,90.6854,132.508,98.1547,51.3477,0.0278585,0.792512,20.0026,47.3516,5.7959,0.0,0.0
840,209.75,75.9345,91.1287,135.296,98.1582,53.5405,0.0268088,0.775816,20.0291,47.0713,5.42216,0.0,0.0
847,211.5,76.3237,90.4834,126.634,98.1531,51.8797,0.0260281,0.758434,20.0501,46.8211,5.70356,0.0,0.0
854,213.25,76.4088,90.6908,127.303,98.1384,49.1372,0.0253728,0.745121,20.0625,46.5409,6.18805,0.0,0.0
861,215,76.318,90.6357,128.655,98.0953,49.3049,0.0248943,0.738104,20.0692,46.2506,6.15365,0.0,0.0
868,216.75,76.5019,90.5576,131.258,98.0823,49.68,0.0244802,0.733076,20.0724,45.9704,6.08466,0.0,0.0
875,218.5,76.7461,90.4247,128.641,98.0656,50.4963,0.0241091,0.729213,20.076,45.6901,5.93736,0.0,0.0
882,220.25,76.6531,90.5946,130.368,98.0356,54.8848,0.0237594,0.723939,20.0828,45.4299,5.18913,0.0,0.0
889,222,76.7922,90.7827,129.564,98.0063,52.6917,0.0234265,0.719387,20.0858,45.1396,5.55124,0.0,0.0
896,223.75,76.3767,90.3027,130.805,97.9683,50.062,0.0231746,0.718329,20.0862,44.8494,6.00573,0.0,0.0
903,225.5,77.0545,90.7414,130.461,97.9295,49.6132,0.0228769,0.71833,20.0865,44.6092,6.08276,0.0,0.0
910,227.25,76.36,90.2742,130.975,97.899,51.0039,0.022458,0.716484,20.0875,44.359,5.83267,0.0,0.0
917,229,76.8332,90.7458,129.274,97.848,52.1431,0.021658,0.715124,20.0893,44.0387,5.6304,0.0,0.0
924,230.75,77.2388,90.1245,135.109,97.7851,54.772,0.0208082,0.711361,20.1021,43.7985,5.18465,0.0,0.0
931,232.5,77.0531,90.4663,132.378,97.7336,57.1707,0.0199696,0.699332,20.1246,43.5883,4.79653,0.0,0.0
938,234.25,77.0129,90.1892,133.735,97.6988,58.4154,0.0191824,0.682444,20.1504,43.3381,4.60068,0.0,0.0
945,236,76.9246,90.3374,132.9,97.6383,58.0654,0.0185555,0.665724,20.1735,43.1279,4.64889,0.0,0.0
952,237.75,76.0852,90.1868,133.587,97.5876,57.8409,0.018197,0.654794,20.1846,42.8877,4.67889,0.0,0.0
959,239.5,76.8831,89.4148,130.1,97.5393,56.4552,0.0179628,0.651259,20.1864,42.6274,4.89138,0.0,0.0
966,241.25,76.5508,89.717,130.768,97.495,55.2909,0.0178838,0.650427,20.1843,42.4273,5.07374,0.0,0.0
973,243,76.2424,89.3268,130.363,97.4511,56.7403,0.0180011,0.649955,20.1825,42.1971,4.83823,0.0,0.0
980,244.75,76.7898,89.5404,132.557,97.3961,57.9526,0.0181019,0.651224,20.1774,41.9368,4.64407,0.0,0.0
987,246.5,76.5556,89.5981,129.732,97.3355,56.9879,0.0180869,0.65328,20.172,41.6966,4.78866,0.0,0.0
994,248.25,76.716,89.1458,134.75,97.2912,55.1572,0.0179672,0.655002,20.1677,41.4264,5.07667,0.0,0.0
1001,250,76.7386,89.4494,129.858,97.2402,55.6354,0.0177852,0.657281,20.1621,41.1762,4.99475,0.0,0.0
1008,251.75,76.7964,89.3616,130.333,97.1879,56.5881,0.0177118,0.659218,20.1593,40.956,4.83807,0.0,0.0
1015,253.5,76.9476,89.131,130.974,97.1357,57.4643,0.0176843,0.66156,20.1572,40.6957,4.69582,0.0,0.0
1022,255.25,76.6808,89.2458,134.489,97.0938,56.2945,0.0174655,0.662962,20.1573,40.4555,4.87593,0.0,0.0
1029,257,76.5567,88.6595,135.71,97.0574,58.544,0.0169208,0.660427,20.1653,40.2253,4.52207,0.0,0.0
1036,258.75,77.0768,89.3356,130.931,97.0154,59.5774,0.0162002,0.652198,20.183,39.9951,4.36168,0.0,0.0
1043,260.5,76.7589,89.0932,129.264,96.9762,60.8561,0.0156407,0.639465,20.2042,39.7749,4.16811,0.0,0.0
1050,262.25,76.8265,88.795,131.547,96.9276,59.7304,0.0152587,0.62836,20.2194,39.5948,4.33064,0.0,0.0
1057,264,76.8087,88.9065,134.429,96.9129,61.5538,0.0148931,0.620289,20.2287,39.3646,4.0603,0.0,0.0
1064,265.75,76.749,88.4849,135.323,96.89,62.0939,0.0143698,0.612259,20.241,39.1644,3.98003,0.0,0.0
1071,267.5,76.2076,88.2907,131.796,96.8634,63.1393,0.0137298,0.602354,20.2558,38.9542,3.82824,0.0,0.0
1078,269.25,76.4194,88.3752,136.635,96.8492,63.1733,0.0131703,0.596018,20.2676,38.724,3.82211,0.0,0.0
1085,271,76.4804,88.2334,130.636,96.835,62.2125,0.012827,0.58919,20.2746,38.5438,3.95788,0.0,0.0
1092,272.75,76.2803,87.6698,134.64,96.8536,61.6523,0.0127236,0.584476,20.2801,38.3437,4.04051,0.0,0.0
1099,274.5,76.2918,87.2949,131.444,96.8456,64.3624,0.0127487,0.57932,20.2882,38.1435,3.65497,0.0,0.0
1106,276.25,76.1737,87.1677,134.052,96.8417,64.1943,0.0127127,0.57245,20.2973,37.9633,3.67799,0.0,0.0
1113,278,76.1771,86.9286,132.354,96.8528,63.3189,0.0125628,0.566529,20.3076,37.7832,3.80184,0.0,0.0
1120,279.75,75.9542,86.9022,134.717,96.8702,63.7099,0.0123271,0.559756,20.3166,37.583,3.74839,0.0,0.0
1127,281.5,75.7285,86.8597,138.135,96.8832,64.333,0.0119383,0.552502,20.3286,37.3928,3.66253,0.0,0.0
1134,283.25,75.4683,86.1436,129.264,96.8935,65.0531,0.0115117,0.545331,20.3356,37.2227,3.5639,0.0,0.0
1141,285,75.7474,86.0662,140.962,96.9141,66.4063,0.0110803,0.538336,20.3455,37.0325,3.38163,0.0,0.0
1148,286.75,74.6038,85.5282,134.32,96.9335,66.8232,0.010573,0.531093,20.3572,36.8424,3.32744,0.0,0.0
1155,288.5,74.8569,85.4122,131.418,96.9806,67.1013,0.010107,0.523783,20.3702,36.6622,3.29463,0.0,0.0
1162,290.25,74.7557,85.5179,136.372,97.0008,67.8964,0.00975199,0.515975,20.3821,36.5021,3.19112,0.0,0.0
1169,292,74.8191,84.5388,135.997,97.0384,70.1548,0.00945195,0.508617,20.3901,36.3119,2.90189,0.0,0.0
1176,293.75,74.517,84.2304,133.757,97.0593,68.0111,0.00918939,0.503301,20.3956,36.1618,3.18142,0.0,0.0
1183,295.5,74.6935,84.0474,138.54,97.1163,68.5126,0.00898166,0.499091,20.4003,35.9916,3.12096,0.0,0.0
1190,297.25,74.3656,83.8512,132.989,97.1519,67.7724,0.00886841,0.495085,20.4044,35.8115,3.22141,0.0,0.0
1197,299,73.8452,83.75,137.774,97.1903,67.116,0.00882677,0.49181,20.4072,35.6713,3.312,0.0,0.0
1204,300.75,73.7418,83.5892,133.722,97.235,67.009,0.00882338,0.489416,20.4085,35.5112,3.33038,0.0,0.0
1211,302.5,73.5655,83.3056,132.072,97.2695,69.1623,0.00883353,0.487819,20.4091,35.351,3.05062,0.0,0.0
1218,304.25,73.6568,82.7511,131.297,97.3419,70.7976,0.00886451,0.486401,20.41,35.1709,2.84823,0.0,0.0
1225,306,73.5286,82.2647,130.415,97.4095,69.6939,0.00882917,0.48485,20.4121,34.9907,2.995,0.0,0.0
1232,307.75,72.9717,82.6275,137.935,97.4531,70.4553,0.00867985,0.482986,20.4145,34.8206,2.90179,0.0,0.0
1239,309.5,73.0711,82.3294,135.734,97.5203,70.504,0.00853787,0.480779,20.4187,34.6805,2.90179,0.0,0.0
1246,311.25,72.924,82.2423,135.497,97.6062,70.1907,0.00835986,0.476643,20.4256,34.5203,2.9495,0.0,0.0
1253,313,73.1491,81.5004,134.163,97.6553,73.1611,0.0080665,0.472948,20.4325,34.3602,2.58323,0.0,0.0
1260,314.75,72.3315,81.3499,135.288,97.696,73.2913,0.00765384,0.468092,20.4412,34.2,2.57106,0.0,0.0
1267,316.5,72.4531,81.3498,136.987,97.7566,72.7528,0.00721511,0.463257,20.4488,34.0699,2.64257,0.0,0.0
1274,318.25,72.4774,81.0249,137.229,97.8132,75.3786,0.00687456,0.458964,20.453,33.9298,2.33058,0.0,0.0
1281,320,71.9525,80.7902,136.529,97.8654,74.548,0.00662306,0.454188,20.4591,33.8097,2.43447,0.0,0.0
1288,321.75,71.0136,79.8394,136.569,97.9002,75.9781,0.00634469,0.447845,20.4706,33.6596,2.26767,0.0,0.0
1295,323.5,71.532,80.1303,134.943,97.9414,77.3407,0.00612115,0.442085,20.4772,33.5194,2.11243,0.0,0.0
1302,325.25,70.7253,79.523,139.084,97.9912,77.0865,0.00583355,0.436512,20.4847,33.4193,2.14644,0.0,0.0
1309,327,71.3299,79.6171,134.985,98.0411,76.9397,0.00549547,0.431127,20.4914,33.2892,2.16804,0.0,0.0
1316,328.75,70.8022,79.1759,137.94,98.0842,78.1612,0.00513877,0.425679,20.4987,33.1691,2.03107,0.0,0.0
1323,330.5,70.9991,78.3827,132.724,98.1266,78.6024,0.00482724,0.420349,20.5046,33.029,1.98458,0.0,0.0
1330,332.25,70.3706,78.1649,133.123,98.1681,78.121,0.0045,0.414836,20.5123,32.9189,2.04331,0.0,0.0
1337,334,70.7726,77.901,135.146,98.2291,77.4326,0.0042422,0.409754,20.5183,32.8188,2.12804,0.0,0.0
1344,335.75,70.0843,77.9739,139.768,98.2603,79.4233,0.00410017,0.405152,20.5255,32.6887,1.90382,0.0,0.0
1351,337.5,69.6899,77.6498,139.953,98.2801,79.4167,0.00405086,0.400371,20.5324,32.5786,1.90636,0.0,0.0
1358,339.25,69.8318,77.4295,138.618,98.2951,80.9373,0.00400025,0.395797,20.5378,32.4285,1.73808,0.0,0.0
1365,341,69.506,76.8163,141.958,98.3395,81.6636,0.00384844,0.391329,20.544,32.2984,1.6622,0.0,0.0
1372,342.75,69.5825,76.4557,138.018,98.3525,81.9498,0.00366746,0.386999,20.55,32.1883,1.63209,0.0,0.0
1379,344.5,69.1684,76.3409,136.451,98.3648,81.8679,0.00342298,0.382563,20.5567,32.1082,1.64215,0.0,0.0
1386,346.25,69.046,76.1129,139.832,98.385,82.4582,0.00313698,0.377664,20.5635,32.0081,1.57971,0.0,0.0
1393,348,68.3916,75.7109,137.406,98.3945,83.05,0.00280465,0.372172,20.5722,31.898,1.5166,0.0,0.0
1400,349.75,68.4823,75.1579,139.109,98.4194,83.2737,0.00259233,0.366434,20.5813,31.7779,1.49481,0.0,0.0
1407,351.5,68.3306,74.8713,139.527,98.4305,83.7477,0.00257847,0.360163,20.5909,31.6978,1.44504,0.0,0.0
1414,353.25,68.0213,74.4492,139.128,98.4289,85.0133,0.00272066,0.354275,20.5975,31.5877,1.31073,0.0,0.0
1421,355,67.4441,74.5512,140.703,98.4325,84.9975,0.002795,0.349216,20.6021,31.5077,1.31272,0.0,0.0
1428,356.75,67.4036,73.9345,135.715,98.4277,84.9557,0.00264108,0.345036,20.6071,31.4276,1.31668,0.0,0.0
1435,358.5,66.8518,74.0458,140.947,98.4364,85.9219,0.00245889,0.340267,20.614,31.2975,1.21631,0.0,0.0
1442,360.25,66.5485,72.6851,144.775,98.442,86.348,0.00237942,0.335444,20.6215,31.2074,1.17256,0.0,0.0
1449,362,67.3721,72.5686,141.153,98.4052,85.9949,0.00231669,0.330804,20.6283,31.1173,1.20587,0.0,0.0
1456,363.75,66.5308,72.8628,138.12,98.4063,86.3701,0.00217565,0.326068,20.6358,31.0373,1.16705,0.0,0.0
1463,365.5,66.4098,72.3635,143.57,98.4206,87.9756,0.00210494,0.321244,20.6435,31.0072,1.00358,0.0,0.0
1470,367.25,66.4308,72.0648,141.818,98.4032,86.9928,0.00214345,0.316691,20.6485,30.8971,1.10249,0.0,0.0
1477,369,65.6541,72.0645,142.381,98.3949,86.9947,0.00220933,0.312404,20.6547,30.8071,1.10154,0.0,0.0
1484,370.75,65.8716,71.8272,142.846,98.3921,87.7222,0.00217936,0.308444,20.6584,30.707,1.0268,0.0,0.0
1491,372.5,65.8162,71.2894,142.102,98.3933,87.6287,0.00211701,0.305344,20.6614,30.6369,1.03644,0.0,0.0
1498,374.25,64.9313,71.1003,142.409,98.3901,88.4407,0.00212976,0.303008,20.6647,30.5769,0.953643,0.0,0.0
1505,376,64.8661,70.9927,138.617,98.3656,87.7086,0.00216693,0.300904,20.6674,30.4968,1.02577,0.0,0.0
1512,377.75,65.0218,70.4751,141.295,98.3537,88.049,0.00217656,0.298749,20.6714,30.4367,0.990042,0.0,0.0
1519,379.5,65.2788,69.6891,141.119,98.3224,87.9598,0.00219583,0.297042,20.6742,30.3567,0.996269,0.0,0.0
1526,381.25,64.3461,70.3046,142.324,98.3042,88.8966,0.00219852,0.294829,20.6771,30.2666,0.899844,0.0,0.0
1533,383,64.3384,69.6017,136.651,98.2528,87.7786,0.00213997,0.292874,20.6793,30.1965,1.00838,0.0,0.0
1540,384.75,64.4905,69.6348,141.726,98.2156,87.8906,0.00197738,0.291624,20.6813,30.1165,0.993579,0.0,0.0
1547,386.5,63.8311,69.6288,140.738,98.1729,88.635,0.0018225,0.290988,20.6825,30.0364,0.914238,0.0,0.0
1554,388.25,64.2384,68.9459,142.012,98.1475,88.3283,0.0017079,0.290206,20.6831,29.9663,0.94294,0.0,0.0
1561,390,63.7217,68.8756,142.853,98.1127,89.3659,0.0016682,0.289093,20.684,29.8662,0.835292,0.0,0.0
1568,391.75,63.5658,68.472,140.334,98.0411,89.6769,0.00174406,0.287811,20.686,29.8062,0.797684,0.0,0.0
1575,393.5,63.3802,68.7135,142.524,97.9794,89.1933,0.00195783,0.286652,20.6879,29.7461,0.840427,0.0,0.0
1582,395.25,63.0855,68.0328,144.632,97.9058,89.3795,0.00212067,0.285846,20.6893,29.6661,0.81505,0.0,0.0
1589,397,63.6958,68.3188,139.835,97.8452,88.8158,0.00208861,0.284309,20.6915,29.576,0.866105,0.0,0.0
1596,398.75,63.2241,68.1966,139.856,97.7688,89.2103,0.00203023,0.282741,20.6942,29.4859,0.819482,0.0,0.0
1603,400.5,62.8375,68.0437,141.498,97.696,89.4351,0.00209248,0.281217,20.6954,29.4258,0.790301,0.0,0.0
1610,402.25,63.0989,67.6036,140.901,97.6205,89.5746,0.00225526,0.279774,20.696,29.3558,0.76944,0.0,0.0
1617,404,63.0532,66.9006,145.557,97.5346,89.7333,0.00236969,0.278345,20.6986,29.2757,0.745725,0.0,0.0
1624,405.75,63.0012,66.9924,145.151,97.4535,90.1467,0.00238149,0.276388,20.7015,29.2757,0.69717,0.0,0.0
1631,407.5,62.5642,67.2514,140.82,97.3383,90.1544,0.00236528,0.274306,20.7059,29.1656,0.685827,0.0,0.0
1638,409.25,62.1478,66.9881,139.221,97.2425,89.0557,0.00237144,0.271994,20.7085,29.1056,0.786706,0.0,0.0
1645,411,62.3018,66.6959,145.951,97.146,90.4214,0.00239547,0.270144,20.71,29.0055,0.641688,0.0,0.0
1652,412.75,62.1926,66.465,144.389,97.068,91.3875,0.00239035,0.268069,20.7125,28.9654,0.53943,0.0,0.0
1659,414.5,62.1296,66.3052,142.729,96.9984,90.3097,0.00239393,0.266326,20.7147,28.9154,0.639139,0.0,0.0
1666,416.25,61.9586,66.3516,142.537,96.9382,90.1996,0.00244115,0.264578,20.7171,28.8153,0.644502,0.0,0.0
1673,418,61.576,66.2395,144.86,96.8912,90.6883,0.00252996,0.263268,20.7187,28.7753,0.591821,0.0,0.0
1680,419.75,61.7006,66.0293,139.501,96.865,89.2377,0.00257693,0.262059,20.72,28.7152,0.733654,0.0,0.0
1687,421.5,61.8266,65.7032,145.378,96.8575,90.54,0.00252291,0.260925,20.7216,28.6552,0.60336,0.0,0.0
1694,423.25,61.2002,65.6543,138.634,96.8464,90.907,0.00246042,0.259509,20.7235,28.5551,0.566149,0.0,0.0
1701,425,61.4361,65.6066,144.718,96.8662,90.7872,0.00244326,0.257181,20.7278,28.465,0.579769,0.0,0.0
1708,426.75,60.6619,65.7185,144.138,96.9169,91.3168,0.00252533,0.254437,20.7338,28.3949,0.532411,0.0,0.0
1715,428.5,60.7439,64.8757,141.559,96.9608,91.2342,0.00262819,0.25185,20.738,28.3549,0.544567,0.0,0.0
1722,430.25,60.1229,65.2155,142.094,97.0459,91.0673,0.00271536,0.249525,20.7415,28.2848,0.568791,0.0,0.0
1729,432,60.9594,64.3832,146.969,97.1302,91.8225,0.0027922,0.247291,20.744,28.2648,0.502677,0.0,0.0
1736,433.75,60.3753,63.654,145.882,97.2386,91.6247,0.00287335,0.245502,20.7463,28.2148,0.531946,0.0,0.0
1743,435.5,60.3813,64.4738,141.752,97.349,92.302,0.00294455,0.243773,20.7479,28.1047,0.476223,0.0,0.0
1750,437.25,59.9713,64.5827,139.451,97.4665,90.7497,0.00300541,0.242099,20.7507,28.0346,0.638728,0.0,0.0
1757,439,59.7282,64.6789,142.727,97.5745,92.3213,0.00303555,0.240456,20.7537,28.0346,0.495053,0.0,0.0
1764,440.75,59.822,63.7238,146.063,97.6921,92.1497,0.00298233,0.238845,20.756,27.8945,0.522458,0.0,0.0
1771,442.5,60.5476,63.6327,139.202,97.8108,92.1177,0.00291774,0.237266,20.7581,27.8945,0.536434,0.0,0.0
1778,444.25,59.4507,63.7691,145.602,97.9034,91.5938,0.00299268,0.235928,20.7605,27.8545,0.595914,0.0,0.0
1785,446,59.2289,63.8721,141.165,97.9999,92.6566,0.00310054,0.234852,20.762,27.7844,0.501536,0.0,0.0
1792,447.75,59.618,62.6566,142.242,98.053,92.057,0.00313484,0.233945,20.7631,27.7243,0.564447,0.0,0.0
1799,449.5,59.3977,63.7572,144.955,98.1238,92.6037,0.00303588,0.233087,20.7645,27.6543,0.517946,0.0,0.0
1806,451.25,58.8547,63.3091,137.828,98.1729,93.1889,0.00294087,0.232549,20.7649,27.5842,0.466059,0.0,0.0
1813,453,58.8861,63.8044,143.37,98.1752,92.6145,0.00289872,0.232268,20.7646,27.5142,0.52159,0.0,0.0
1820,454.75,59.37,63.1849,144.667,98.165,92.3074,0.00289493,0.231975,20.7644,27.4941,0.550365,0.0,0.0
1827,456.5,59.5413,63.1723,141.482,98.1139,93.6239,0.00293061,0.231478,20.7648,27.4341,0.419027,0.0,0.0
1834,458.25,59.7724,62.7143,141.826,98.0629,93.2554,0.00297938,0.231032,20.7657,27.3841,0.449654,0.0,0.0
1841,460,58.7347,63.2907,142.597,98.015,93.3234,0.0030096,0.230564,20.7662,27.294,0.438765,0.0,0.0
1848,461.75,59.2413,62.6568,140.211,97.9469,92.8583,0.00294866,0.229714,20.7679,27.2539,0.477247,0.0,0.0
1855,463.5,58.8416,62.7835,145.452,97.884,93.1982,0.00288257,0.228392,20.7692,27.2339,0.438809,0.0,0.0
1862,465.25,58.746,62.7673,142.625,97.8377,92.6516,0.00286522,0.227264,20.7697,27.1939,0.487199,0.0,0.0
1869,467,59.0692,62.028,144.8,97.7898,92.8243,0.00285335,0.226409,20.77,27.1238,0.466164,0.0,0.0
1876,468.75,58.9185,61.9627,147.312,97.7653,93.5536,0.0028815,0.225195,20.7719,27.0538,0.393906,0.0,0.0
1883,470.5,58.3991,62.4884,141.478,97.9647,93.5467,0.00293892,0.224304,20.7726,27.0037,0.4128,0.0,0.0
1890,472.25,57.605,62.2765,138.819,98.2101,93.3666,0.00294237,0.223526,20.7729,26.9537,0.452406,0.0,0.0
1897,474,58.5427,61.8871,144.364,98.4,94.5287,0.00289306,0.222476,20.7737,26.8836,0.359044,0.0,0.0
1904,475.75,58.0956,61.7484,142.248,98.5302,92.9324,0.00283506,0.221756,20.7746,26.8536,0.523217,0.0,0.0
1911,477.5,57.7714,62.4537,140.585,98.6014,93.8978,0.00284288,0.221316,20.7751,26.8035,0.437235,0.0,0.0
1918,479.25,57.8802,61.2601,144.999,98.5951,94.6059,0.00298259,0.220728,20.7753,26.7435,0.369453,0.0,0.0
1925,481,57.3911,62.0638,141.321,98.5555,93.3612,0.00315359,0.220061,20.7754,26.6934,0.484336,0.0,0.0
1932,482.75,58.3869,61.0335,143.381,98.4471,93.6011,0.00328126,0.219656,20.7757,26.6234,0.451532,0.0,0.0
1939,484.5,58.0496,61.2711,146.721,98.2805,93.1604,0.00334789,0.219685,20.776,26.5633,0.478606,0.0,0.0
1946,486.25,57.763,61.7343,143.513,98.0557,95.1704,0.00337421,0.219734,20.7762,26.5233,0.267176,0.0,0.0
1953,488,57.7282,61.4762,145.618,98.1127,94.3421,0.0033112,0.219769,20.7769,26.5033,0.350564,0.0,0.0
1960,489.75,57.7073,61.0042,146.43,98.2386,93.8519,0.00319651,0.219169,20.7779,26.4532,0.408634,0.0,0.0
1967,491.5,57.5823,61.3438,144.587,98.364,94.0914,0.00318387,0.218832,20.7782,26.3531,0.397249,0.0,0.0
1974,493.25,57.2291,61.432,143.442,98.4792,94.5754,0.00327812,0.218748,20.7792,26.3031,0.361814,0.0,0.0
1981,495,57.5131,60.8617,142.932,98.601,93.5598,0.00340013,0.218708,20.7791,26.243,0.46946,0.0,0.0
1988,496.75,57.5273,61.1669,145.647,98.7071,94.7068,0.00349084,0.218568,20.7791,26.203,0.370079,0.0,0.0
1995,498.5,57.8175,60.475,140.417,98.7878,94.4634,0.00352903,0.218224,20.7791,26.133,0.400409,0.0,0.0
2002,500.25,57.6057,60.9704,146.062,98.8282,93.4134,0.00353726,0.218079,20.7791,26.1029,0.504052,0.0,0.0
2009,502,57.1305,61.0117,141.986,98.8242,94.0871,0.00348614,0.218217,20.7784,26.0529,0.439408,0.0,0.0
2016,503.75,57.3233,61.0029,141.093,98.7846,94.4004,0.00339573,0.218513,20.7776,25.9928,0.406087,0.0,0.0
2023,505.5,57.223,60.2266,146.019,98.7047,94.5264,0.00332789,0.21876,20.7776,25.9428,0.38692,0.0,0.0
2030,507.25,57.3662,60.5636,145.5,98.5737,93.4895,0.0033141,0.219085,20.7783,25.8927,0.473706,0.0,0.0
2037,509,57.2086,60.6679,145.689,98.3719,94.6106,0.00329359,0.219519,20.7787,25.8227,0.348743,0.0,0.0
2044,510.75,56.7814,60.1847,141.952,98.1594,92.8007,0.00324741,0.219975,20.7778,25.7826,0.502181,0.0,0.0
2051,512.5,57.2788,60.4602,141.881,97.9307,93.0808,0.0031811,0.220255,20.7773,25.7326,0.454355,0.0,0.0
2058,514.25,57.2422,60.5485,145.301,97.7024,93.1182,0.00312422,0.220441,20.777,25.7026,0.429874,0.0,0.0
2065,516,57.2165,60.6773,143.068,97.4535,92.3255,0.00305704,0.220715,20.7778,25.6425,0.483534,0.0,0.0
2072,517.75,57.0956,60.5976,138.693,97.2445,92.2741,0.002975,0.22008,20.779,25.5825,0.469315,0.0,0.0
2079,519.5,56.8322,60.6271,144.622,97.0763,92.1598,0.00295958,0.219037,20.7806,25.5324,0.464924,0.0,0.0
2086,521.25,57.0151,60.0248,147.421,96.9683,93.1549,0.00301175,0.217818,20.7824,25.4924,0.358888,0.0,0.0
2093,523,56.929,60.0153,144.819,96.8848,92.8787,0.00311686,0.216908,20.7833,25.4323,0.377746,0.0,0.0
2100,524.75,56.521,60.2914,147.483,96.8686,92.5913,0.00324171,0.216167,20.7838,25.3623,0.403972,0.0,0.0
2107,526.5,56.7337,60.2054,142.409,96.9125,92.4912,0.00331728,0.21543,20.784,25.2922,0.4177,0.0,0.0
2114,528.25,56.9868,59.8054,144.025,97.0451,93.3558,0.0033233,0.214669,20.7842,25.2622,0.346698,0.0,0.0
2121,530,56.8342,60.0295,147.091,97.165,92.7107,0.00330713,0.213904,20.7851,25.2322,0.419776,0.0,0.0
2128,531.75,56.3256,60.2389,139.619,97.3351,94.0242,0.00326872,0.212745,20.787,25.1721,0.309583,0.0,0.0
2135,533.5,56.6758,59.7242,146.155,97.5219,93.7228,0.00325589,0.212009,20.7882,25.1221,0.355446,0.0,0.0
2142,535.25,56.5584,60.1612,143.153,97.6992,93.4524,0.00328327,0.211593,20.7897,25.092,0.397541,0.0,0.0
2149,537,55.798,59.5615,147.6,97.8701,93.1067,0.00333231,0.211367,20.7904,25.022,0.446337,0.0,0.0
2156,538.75,56.6628,59.6597,142.012,98.0055,93.8353,0.00341509,0.211463,20.7889,24.9819,0.388969,0.0,0.0
2163,540.5,56.5794,59.6249,143.121,98.1012,94.0481,0.00337495,0.211325,20.788,24.9319,0.377436,0.0,0.0
2170,542.25,56.271,59.7463,144.147,98.1598,95.671,0.0032318,0.211383,20.7876,24.8718,0.229728,0.0,0.0
2177,544,56.6359,59.283,141.798,98.1871,94.3046,0.00309198,0.21175,20.7866,24.8418,0.360898,0.0,0.0
2184,545.75,55.9322,59.1765,143.126,98.1602,94.4657,0.00305527,0.211917,20.7855,24.7617,0.343178,0.0,0.0
2191,547.5,56.2676,59.5312,147.098,98.0795,95.5455,0.00310748,0.211816,20.7858,24.7217,0.234153,0.0,0.0
2198,549.25,56.3632,59.5958,146.42,97.9988,94.3015,0.00318402,0.211544,20.7861,24.6917,0.344014,0.0,0.0
2205,551,56.0716,59.281,143.895,97.9248,94.6604,0.00328523,0.211193,20.7862,24.6416,0.303278,0.0,0.0
2212,552.75,56.4124,59.3435,141.874,97.848,93.7785,0.00343799,0.210822,20.7863,24.5516,0.379998,0.0,0.0
2219,554.5,56.2829,59.7068,146.553,97.7605,92.73,0.00354996,0.210293,20.7875,24.5115,0.472573,0.0,0.0
2226,556.25,56.1484,59.4078,147.82,97.7241,95.1592,0.00361753,0.20973,20.7884,24.5015,0.237925,0.0,0.0
2233,558,56.1829,59.579,144.522,97.8923,94.8826,0.00365336,0.208989,20.79,24.4515,0.279346,0.0,0.0
2240,559.75,55.3438,60.0571,144.49,98.2041,94.5009,0.00371279,0.208131,20.7909,24.3914,0.343852,0.0,0.0
2247,561.5,55.5481,59.7819,142.889,98.402,93.994,0.00377956,0.207869,20.7923,24.3614,0.409963,0.0,0.0
2254,563.25,55.7905,59.5798,144.916,98.5243,95.3492,0.00383252,0.208087,20.7919,24.3013,0.29302,0.0,0.0
2261,565,55.7487,59.7131,140.028,98.5634,95.078,0.00388184,0.208875,20.7906,24.2213,0.322054,0.0,0.0
2268,566.75,55.7209,59.5015,149.928,98.5456,94.6276,0.00392803,0.21001,20.79,24.1712,0.362918,0.0,0.0
2275,568.5,55.9038,59.3489,145.178,98.4182,95.0807,0.00394985,0.210493,20.7897,24.1512,0.30861,0.0,0.0
2282,570.25,55.5125,59.3567,143.226,98.1942,95.2503,0.00391427,0.21037,20.7896,24.1112,0.272287,0.0,0.0
2289,572,55.9725,59.1247,144.94,98.0613,94.4819,0.0038321,0.21032,20.7895,24.1012,0.332623,0.0,0.0
2296,573.75,55.4714,58.6516,144.05,98.1661,95.4296,0.00372347,0.210422,20.7895,5.90519,0.25291,0.0,0.0
2303,575.5,55.9904,58.8735,145.351,98.3157,95.1966,0.00361598,0.210811,20.7895,23.1603,0.288393,0.0,0.0
2310,577.25,55.2435,59.163,146.854,98.4534,94.6388,0.00353804,0.210985,20.7894,23.901,0.353486,0.0,0.0
2317,579,55.4249,59.6162,144.106,98.5939,94.2969,0.0035175,0.210804,20.789,23.891,0.398615,0.0,0.0
2324,580.75,55.1534,58.8841,141.91,98.7154,95.6281,0.003465,0.210341,20.7888,23.7909,0.284227,0.0,0.0
2331,582.5,56.0693,58.8494,143.81,98.8028,93.5725,0.00337341,0.21003,20.7887,23.7509,0.486532,0.0,0.0
2338,584.25,55.2196,58.4678,140.398,98.8365,94.5171,0.00332951,0.209688,20.7892,23.7108,0.399733,0.0,0.0
2345,586,55.8072,59.2567,138.943,98.7823,95.0564,0.00346174,0.209049,20.7913,23.6508,0.343929,0.0,0.0
2352,587.75,56.0533,58.7657,141.291,98.6841,95.0661,0.0036636,0.208023,20.7931,23.5907,0.334129,0.0,0.0
2359,589.5,55.4312,59.3976,144.366,98.5084,93.9778,0.00376859,0.20703,20.7948,23.5807,0.421179,0.0,0.0
2366,591.25,55.0978,59.4369,147.716,98.3197,94.1277,0.00376462,0.205727,20.7971,23.5307,0.389766,0.0,0.0
2373,593,56.1406,58.3189,145.389,98.07,93.6699,0.00371405,0.204281,20.7993,23.4706,0.41063,0.0,0.0
2380,594.75,55.7275,58.986,140.439,97.7954,94.39,0.00356341,0.202844,20.802,23.4106,0.31704,0.0,0.0
2387,596.5,55.3764,59.4723,146.549,97.5243,94.3552,0.00344598,0.202016,20.8034,23.3705,0.295507,0.0,0.0
2394,598.25,55.6691,58.8366,144.327,97.2841,93.8206,0.00349446,0.201538,20.804,23.3205,0.324281,0.0,0.0
2401,600,55.7177,58.7145,142.89,97.0985,93.4296,0.00360883,0.201091,20.8043,23.2804,0.344554,0.0,0.0
2408,601.75,55.6698,58.8284,141.272,96.9339,93.1109,0.00373373,0.200418,20.8045,23.2204,0.359942,0.0,0.0
2415,603.5,55.6581,59.1638,141.517,96.89,93.0259,0.00378873,0.199989,20.8046,23.1904,0.364056,0.0,0.0
2422,605.25,55.271,58.9141,144.225,96.9212,92.8076,0.00371493,0.199275,20.8057,23.1603,0.387956,0.0,0.0
2429,607,55.2692,58.8579,147.849,97.019,92.9873,0.00359338,0.198577,20.8062,23.0903,0.379674,0.0,0.0
2436,608.75,54.647,59.162,143.161,97.1634,92.9212,0.00355113,0.197986,20.8061,23.0502,0.399338,0.0,0.0
2443,610.5,55.4565,58.6787,143.554,97.3482,94.6063,0.0036497,0.197636,20.8056,23.0302,0.255566,0.0,0.0
2450,612.25,54.7002,58.3787,144.159,97.5595,94.2965,0.00380591,0.197223,20.8054,22.9602,0.304306,0.0,0.0
2457,614,55.665,58.8016,140.78,97.7574,93.1916,0.00395436,0.19749,20.8047,22.9502,0.42786,0.0,0.0
2464,615.75,55.097,58.8257,142.191,97.9406,95.1642,0.00409529,0.198272,20.8039,22.9301,0.257245,0.0,0.0
2471,617.5,54.8777,58.779,149.182,98.0637,93.9461,0.00423026,0.198554,20.8034,22.8301,0.383713,0.0,0.0
2478,619.25,55.0889,58.5485,145.268,98.1416,93.6467,0.00427264,0.198263,20.8041,22.79,0.419375,0.0,0.0
2485,621,54.5182,57.8103,138.434,98.1717,95.3801,0.00430511,0.197465,20.8059,22.77,0.258051,0.0,0.0
2492,622.75,54.4782,57.7218,143.737,98.1511,93.9531,0.00442273,0.196499,20.8079,22.73,0.391026,0.0,0.0
2499,624.5,54.9474,58.3536,141.339,98.0466,95.034,0.00452334,0.195739,20.8089,22.6599,0.279172,0.0,0.0
2506,626.25,54.2885,57.9576,144.726,97.9323,94.22,0.00457896,0.19507,20.8098,22.6299,0.345679,0.0,0.0
2513,628,54.6323,57.7712,147.122,97.8318,94.1779,0.00456273,0.194375,20.8108,22.5898,0.340492,0.0,0.0
2520,629.75,54.423,57.9845,143.882,97.7344,92.9189,0.00452354,0.193466,20.8116,22.5598,0.451979,0.0,0.0
2527,631.5,54.3869,57.947,141.107,97.6687,94.0296,0.00449115,0.192984,20.8126,22.4898,0.339674,0.0,0.0
2534,633.25,54.1961,58.3552,142.686,97.9105,94.0551,0.00450917,0.192227,20.8131,22.4597,0.359366,0.0,0.0
2541,635,54.6322,57.8329,140.517,98.233,93.2264,0.00456385,0.191484,20.814,22.3897,0.467943,0.0,0.0
2548,636.75,54.6765,58.4112,144.169,98.4574,94.6067,0.00453814,0.190421,20.816,22.3596,0.356877,0.0,0.0
2555,638.5,54.4427,57.7614,144.289,98.5425,94.6531,0.00449109,0.189523,20.8171,22.3196,0.360221,0.0,0.0
2562,640.25,54.1138,58.0466,149.857,98.5013,95.4933,0.00455461,0.188892,20.8179,22.2896,0.277427,0.0,0.0
2569,642,54.7616,57.6473,145.985,98.3407,93.8963,0.0047459,0.188075,20.8197,22.2395,0.413692,0.0,0.0
2576,643.75,53.8839,57.3026,141.379,98.0712,95.0375,0.00487684,0.187315,20.8205,22.2095,0.281083,0.0,0.0
2583,645.5,54.1283,57.8374,142.965,98.0882,92.9398,0.0048285,0.186771,20.8209,22.1995,0.482291,0.0,0.0
2590,647.25,53.2566,56.6909,142.374,98.2358,94.1489,0.00467058,0.186388,20.8211,22.1495,0.380111,0.0,0.0
2597,649,54.2474,57.7341,142.812,98.3794,94.3409,0.00456881,0.186072,20.8219,22.0894,0.374958,0.0,0.0
2604,650.75,54.3333,57.2828,142.753,98.5136,94.9652,0.00460962,0.185407,20.8228,22.0494,0.328148,0.0,0.0
2611,652.5,54.1567,57.5804,143.809,98.6402,94.1706,0.0047301,0.184795,20.8236,22.0093,0.414807,0.0,0.0
2618,654.25,53.2702,56.709,141.311,98.7162,94.8617,0.00489816,0.184123,20.8247,21.9793,0.356283,0.0,0.0
2625,656,54.1636,58.0536,142.718,98.7728,94.7149,0.00503604,0.183656,20.8252,21.8892,0.375263,0.0,0.0
2632,657.75,53.6851,57.2139,146.968,98.8167,94.6766,0.0051235,0.18318,20.8254,21.8792,0.382854,0.0,0.0
2639,659.5,53.8956,57.6714,141.689,98.8187,95.1201,0.00518778,0.182905,20.8255,21.8792,0.341228,0.0,0.0
2646,661.25,53.8541,57.0751,141.139,98.7799,94.6056,0.00530717,0.182528,20.8255,21.8292,0.386241,0.0,0.0
2653,663,53.9184,57.1512,149.043,98.7055,94.0976,0.00541837,0.182136,20.8264,21.7991,0.427664,0.0,0.0
2660,664.75,53.8799,56.7359,145.815,98.588,94.3112,0.00542716,0.181317,20.8288,21.7691,0.396721,0.0,0.0
2667,666.5,53.8789,56.8085,144.437,98.4697,94.7025,0.00540302,0.180526,20.8307,21.6991,0.348938,0.0,0.0
2674,668.25,53.9931,56.9873,143.381,98.3165,94.5503,0.00546191,0.179899,20.8316,21.659,0.349402,0.0,0.0
2681,670,53.8045,57.3391,143.668,98.1333,94.3803,0.00555727,0.179295,20.832,21.639,0.348814,0.0,0.0
2688,671.75,53.2975,56.9168,143.558,97.9517,95.1642,0.00573694,0.178641,20.8322,21.589,0.258257,0.0,0.0
2695,673.5,53.6583,57.0503,148.248,97.7601,93.7398,0.00584082,0.177818,20.833,21.5489,0.375648,0.0,0.0
2702,675.25,53.5554,56.696,146.095,97.5947,94.5013,0.00577902,0.176961,20.8339,21.5189,0.288133,0.0,0.0
2709,677,53.4644,56.7611,144.649,97.4388,93.6359,0.0056877,0.17645,20.8343,21.5089,0.35612,0.0,0.0
2716,678.75,53.8546,56.7385,144.651,97.2869,93.3141,0.00573526,0.175886,20.8345,21.4789,0.372955,0.0,0.0
2723,680.5,53.5937,56.7254,148.076,97.1745,94.5526,0.00583334,0.174824,20.8351,21.4288,0.244669,0.0,0.0
2730,682.25,53.3748,56.5642,143.722,97.0854,93.279,0.00588231,0.17408,20.8361,21.3688,0.357786,0.0,0.0
2737,684,53.4194,56.6324,143.106,97.0245,94.4298,0.00588337,0.173378,20.8372,21.3287,0.242481,0.0,0.0
2744,685.75,52.7416,56.6666,146.597,96.9715,93.2264,0.00594237,0.17247,20.8383,21.2887,0.35232,0.0,0.0
2751,687.5,53.2523,56.5685,143.939,96.9402,93.4941,0.00601815,0.171603,20.8394,21.2387,0.323784,0.0,0.0
2758,689.25,53.0361,56.3438,151.122,96.9434,94.1335,0.00610112,0.170518,20.8405,21.1986,0.263112,0.0,0.0
2765,691,52.359,56.538,144.208,96.9707,93.5598,0.00622721,0.169625,20.8411,21.1486,0.320314,0.0,0.0
2772,692.75,53.4514,56.1226,146.485,97.0035,92.861,0.00646333,0.168916,20.8413,21.1486,0.390411,0.0,0.0
2779,694.5,52.8151,56.0098,141.502,97.057,93.8468,0.00678372,0.168266,20.8414,21.1185,0.300867,0.0,0.0
2786,696.25,52.9418,56.1643,143.893,97.1203,92.9687,0.00706282,0.167559,20.8426,21.0785,0.390794,0.0,0.0
2793,698,52.9961,56.2112,148.285,97.2156,93.6641,0.00719841,0.166895,20.8432,21.0485,0.332914,0.0,0.0
2800,699.75,52.7346,55.9192,146.049,97.311,93.5718,0.00730627,0.166173,20.844,21.0285,0.350508,0.0,0.0
2807,701.5,52.5364,55.9525,145.459,97.381,94.1343,0.00739478,0.165647,20.8451,21.0085,0.303333,0.0,0.0
2814,703.25,52.6725,56.1251,146.57,97.4732,95.6981,0.00740221,0.164851,20.8455,20.9684,0.164414,0.0,0.0
2821,705,51.6808,55.6245,142.836,97.569,94.2826,0.00737351,0.164077,20.8462,20.9184,0.306497,0.0,0.0
2828,706.75,52.3,55.7077,148.142,97.6751,94.6133,0.00737916,0.163141,20.8473,20.8783,0.284894,0.0,0.0
2835,708.5,52.4289,55.7141,145.732,97.7467,95.1375,0.00741815,0.16213,20.8493,20.8283,0.242025,0.0,0.0
2842,710.25,52.9444,55.0949,148.098,97.8132,95.2762,0.00747297,0.161244,20.8501,20.8183,0.235075,0.0,0.0
2849,712,51.8393,55.3951,144.545,97.8872,94.2679,0.00756193,0.16067,20.8512,20.7482,0.337011,0.0,0.0
2856,713.75,51.7884,54.3711,149.223,97.9461,96.3173,0.00772961,0.160211,20.8518,20.7282,0.150007,0.0,0.0
2863,715.5,52.0259,55.3531,151.524,98.0043,95.0189,0.00792693,0.159833,20.8524,20.6882,0.276726,0.0,0.0
2870,717.25,51.7102,54.8169,150.43,98.0403,95.2665,0.00803348,0.159408,20.8527,20.6682,0.256731,0.0,0.0
2877,719,51.9929,54.9121,145.359,98.0866,94.5295,0.00801698,0.1591,20.8528,20.6682,0.330434,0.0,0.0
2884,720.75,52.2195,54.2971,146.293,98.1301,96.1709,0.00795867,0.158848,20.8529,20.6381,0.180404,0.0,0.0
2891,722.5,51.7554,55.0492,143.873,98.176,94.9231,0.00791047,0.158578,20.8529,20.6181,0.301412,0.0,0.0
2898,724.25,51.8315,54.6361,147.139,98.1938,94.7856,0.00784493,0.158261,20.8537,20.548,0.316005,0.0,0.0
2905,726,51.6257,54.8579,149.485,98.2077,94.4414,0.00784183,0.157842,20.8552,20.538,0.34981,0.0,0.0
2912,727.75,51.6711,54.9164,149.041,98.2219,94.4707,0.00796179,0.157455,20.8559,20.498,0.348327,0.0,0.0
2919,729.5,51.7245,54.9064,147.716,98.2378,94.8586,,0.157427,,20.518,0.313117,0.0,0.0
2926,731.25,51.6294,54.5403,145.689,98.2409,94.7802,,0.157988,,20.488,0.320803,0.0,0.0
2933,733,50.8636,54.5716,144.57,98.2188,94.973,,,,20.4279,0.30061,0.0,0.0
2940,734.75,51.8638,54.3264,147.81,98.2401,95.2082,,,,20.3679,0.280424,0.0,0.0
2947,736.5,51.3567,53.8937,147.787,98.2263,94.266,,,,20.3679,0.368131,0.0,0.0
2954,738.25,51.3194,54.0746,144.915,98.2251,94.3216,,,,20.3178,0.362746,0.0,0.0
2958,739.25,50.9093,53.8701,143.226,98.2152,96.0825,,,,20.2778,0.196389,0.0,0.0