File: 01_Data/PC/Cone/PC_Cone_HF50Scan_220216_R3.csv
Names,Time,Stack TC,Smoke TC,Exh Press,Smoke Comp,Smoke Meas,CO Meter,CO2 Meter,O2 Meter,Sample Mass,Ext Coeff,Start Test,Flame Verif
Chan Gain,,500,500,1,1,1,1,1,1,1,1,1.0,1.0
Offset,,0,0,0.140898,0,0,0,0,0,0,0,0.0,0.0
Gain,,1,1,25.011,12.9668,12.6588,1,1,1,1.00088,1.01977,1.0,1.0
Units,sec,C,C,Pa,%,%,%,%,%,g,/m,,
Baseline,,38.3314,40.3557,153.04,98.0849,96.4092,-0.00292597,0.0608688,20.9819,-873.134,0.154241,,
9,2,35.9794,37.9291,155.618,97.8618,96.3741,-0.00283589,0.0754647,20.9604,60.1428,0.137033,0.0,0.0
18,4.25,36.0262,37.4653,152.827,97.8777,95.6224,-0.00296828,0.074704,20.9627,60.1228,0.208532,0.0,0.0
27,6.5,36.3936,37.5545,154.956,97.8804,96.6662,-0.00309947,0.0732946,20.9657,60.1428,0.111666,0.0,0.0
36,8.75,36.2439,38.0618,159.657,97.8769,96.4614,-0.00313371,0.0714616,20.9677,60.1428,0.130308,0.0,0.0
45,11,36.4127,37.8244,149.816,97.8967,97.1267,-0.00300252,0.069522,20.9697,60.1528,0.0706359,0.0,0.0
54,13.25,36.516,38.3497,154.089,97.9149,95.2121,-0.00284934,0.0678371,20.9706,60.0828,0.250393,0.0,0.0
63,15.5,36.1597,37.9927,152.168,97.9248,96.925,-0.00284205,0.0665858,20.9718,60.1128,0.0917959,0.0,0.0
72,17.75,36.4789,38.2634,150.832,97.9307,96.072,-0.00293863,0.0657616,20.9728,60.0928,0.17141,0.0,0.0
81,20,36.1884,37.7825,151.177,97.9513,96.5522,-0.00295429,0.0652717,20.9728,60.0828,0.128689,0.0,0.0
90,22.25,36.603,38.7919,155.146,97.9703,96.412,-0.00302468,0.0648228,20.9729,60.0928,0.143425,0.0,0.0
99,24.5,37.0436,38.7767,152.461,97.9857,96.3934,-0.00311219,0.0644746,20.9752,60.1028,0.146554,0.0,0.0
108,26.75,37.0068,38.2805,149.472,97.9608,96.9022,-0.00308744,0.0641307,20.9766,60.1128,0.0971878,0.0,0.0
117,29,36.9699,38.9165,149.382,98.0356,96.9343,-0.00298261,0.0642648,20.9771,60.1428,0.101056,0.0,0.0
126,31.25,36.7459,38.0975,152.112,98.0751,96.5225,-0.00296508,0.0646641,20.9773,60.1128,0.142749,0.0,0.0
135,33.5,36.6681,38.8912,156.003,98.0949,95.8858,-0.00295253,0.0650858,20.9774,60.1028,0.203752,0.0,0.0
144,35.75,37.055,38.5539,150.536,98.1036,97.1974,-0.00288453,0.0650608,20.9774,60.0928,0.0830184,0.0,0.0
153,38,36.993,38.9052,150.805,98.1594,96.7879,-0.00290405,0.0648308,20.9774,60.0928,0.125871,0.0,0.0
162,40.25,37.29,39.1183,154.401,98.1729,96.8203,-0.00298353,0.0642834,20.9784,60.0828,0.124099,0.0,0.0
171,42.5,37.0016,39.4327,149.718,98.1907,96.2644,-0.00298157,0.0638133,20.9792,60.1128,0.17723,0.0,0.0
180,44.75,37.3281,39.2786,157.42,98.2093,97.3515,-0.00288631,0.0631125,20.9803,60.1128,0.0784732,0.0,0.0
189,47,37.4341,39.2188,153.69,98.2469,96.6341,-0.00286948,0.0627857,20.981,60.1128,0.148059,0.0,0.0
198,49.25,37.6491,39.1858,151.618,98.2556,97.2209,-0.00295263,0.0624297,20.9806,60.0828,0.0946948,0.0,0.0
207,51.5,37.36,39.8813,156.591,98.269,96.8447,-0.0029971,0.0621093,20.9808,60.0527,0.130608,0.0,0.0
216,53.75,37.3155,39.3447,150.592,98.2932,97.3164,-0.00299581,0.0618311,20.9811,60.0828,0.0893416,0.0,0.0
225,56,37.3022,39.4629,151.376,98.3011,96.6627,-0.00303401,0.061634,20.9812,60.0828,0.150348,0.0,0.0
234,58.25,37.9249,39.7327,155.183,98.3003,97.5829,-0.00300489,0.0616227,20.9812,60.0728,0.0655213,0.0,0.0
243,60.5,37.5801,39.6746,153.45,98.3058,97.0216,-0.00285766,0.0615158,20.9812,60.0628,0.117629,0.0,0.0
252,62.75,37.8882,40.1729,154.286,98.3035,97.3681,-0.00280717,0.0613986,20.9812,60.0427,0.085521,0.0,0.0
261,65,37.2081,40.0517,155.768,98.2829,97.1155,-0.00297549,0.0619537,20.9799,60.0427,0.10689,0.0,0.0
270,67.25,38.0233,39.8906,152.619,98.2627,97.0853,-0.00310993,0.0627554,20.9779,60.0728,0.107828,0.0,0.0
279,69.5,37.875,40.1151,152.138,98.2461,97.3055,-0.00309891,0.0636746,20.9772,60.0227,0.0860491,0.0,0.0
288,71.75,37.8542,40.2925,151.708,98.233,97.3187,-0.0029206,0.0642058,20.9755,60.0527,0.0836534,0.0,0.0
297,74,37.9431,40.5838,152.505,98.1752,97.0243,-0.00287,0.0642973,20.9748,60.0527,0.10549,0.0,0.0
306,76.25,38.1247,40.4016,150.499,98.1464,96.8416,-0.00293858,0.0641871,20.9744,60.0427,0.119719,0.0,0.0
315,78.5,38.0961,40.4323,151.248,98.1084,97.5257,-0.00290956,0.0642878,20.9743,60.0628,0.053282,0.0,0.0
324,80.75,38.0527,40.4295,149.696,98.0458,96.7581,-0.00283198,0.0644551,20.9742,60.0628,0.118265,0.0,0.0
333,83,38.0042,40.3811,153.02,97.9889,96.5626,-0.00286441,0.0645193,20.9728,60.0327,0.131156,0.0,0.0
342,85.25,38.4867,40.8239,149.728,97.9307,95.7263,-0.00285431,0.0646521,20.9706,60.0227,0.20366,0.0,0.0
351,87.5,38.34,40.4511,151.167,97.8733,97.1074,-0.0028302,0.0651492,20.9695,60.0327,0.0702815,0.0,0.0
360,89.75,37.8998,40.9084,152.487,97.8001,97.1054,-0.00280386,0.0657746,20.969,60.0127,0.063767,0.0,0.0
369,92,38.4089,40.977,157.712,97.7241,96.0191,-0.00272151,0.0659887,20.9689,60.0127,0.15745,0.0,0.0
378,94.25,38.2227,40.2044,152.546,97.6667,95.4219,-0.00277239,0.0659781,20.969,60.0227,0.208011,0.0,0.0
387,96.5,38.3791,40.7939,149.952,97.5809,95.8198,-0.00304231,0.066044,20.9694,60.0027,0.162919,0.0,0.0
396,98.75,38.9311,41.1454,149.832,97.5049,94.5727,-0.00305833,0.0662214,20.9695,59.9927,0.273133,0.0,0.0
405,101,38.3656,41.0574,151.764,97.4345,95.0603,-0.00282457,0.0666599,20.9696,60.0027,0.220672,0.0,0.0
414,103.25,38.8616,41.0372,153.94,97.3708,94.1613,-0.00259384,0.0668671,20.9695,59.9426,0.299818,0.0,0.0
423,105.5,38.5047,41.5579,155.185,97.3078,94.587,-0.00245422,0.0671704,20.969,59.9827,0.253683,0.0,0.0
432,107.75,38.5742,41.2563,153.527,97.2497,94.9621,-0.00248482,0.0673497,20.9681,59.9627,0.212929,0.0,0.0
441,110,38.7918,41.2474,152.718,97.2129,94.2386,-0.00261808,0.0678232,20.9667,59.9627,0.277963,0.0,0.0
450,112.25,39.0234,41.6333,149.629,97.1602,93.4045,-0.00269402,0.0683817,20.9651,59.9426,0.352643,0.0,0.0
459,114.5,38.4678,41.39,148.707,97.1222,94.1825,-0.00259857,0.0688714,20.9649,59.9226,0.27494,0.0,0.0
468,116.75,38.7362,41.3527,160.73,97.0882,92.973,-0.00255495,0.0693504,20.9651,59.9226,0.387432,0.0,0.0
477,119,38.5058,41.2059,150.346,97.0831,94.0497,-0.00269781,0.0697753,20.9655,59.9126,0.283962,0.0,0.0
486,121.25,39.0754,41.4962,151.294,97.0407,93.158,-0.00279387,0.0699391,20.9656,59.9226,0.36527,0.0,0.0
495,123.5,38.9615,41.5374,149.723,97.0581,93.4061,-0.00277528,0.0696297,20.9656,59.9126,0.34309,0.0,0.0
504,125.75,38.9748,41.6131,149.9,97.0585,93.0653,-0.00278408,0.0694052,20.9657,59.8926,0.375818,0.0,0.0
513,128,39.091,41.9418,155.011,97.0819,93.1325,-0.00272838,0.0696366,20.9657,59.8826,0.371511,0.0,0.0
522,130.25,39.0645,41.7814,153.924,97.0965,93.0587,-0.00259376,0.0696847,20.9669,59.8926,0.37995,0.0,0.0
531,132.5,39.0817,41.8997,150.382,97.1349,92.577,-0.00247803,0.0691672,20.9675,59.8626,0.429912,0.0,0.0
540,134.75,38.9055,41.7151,149.28,97.2034,92.2112,-0.00240738,0.0691126,20.9676,59.8225,0.471635,0.0,0.0
549,137,38.8303,42.2827,149.115,97.2702,92.4198,-0.00240136,0.0698019,20.9661,59.7925,0.457573,0.0,0.0
558,139.25,39.8443,41.7875,151.274,97.3411,94.6728,-0.00245785,0.0702497,20.9654,59.7925,0.248632,0.0,0.0
567,141.5,39.0808,42.0729,151.74,97.4448,92.9599,-0.00237443,0.0701468,20.9656,59.7525,0.421485,0.0,0.0
576,143.75,39.1971,42.1072,154.237,97.5627,92.6241,-0.00225321,0.0696769,20.9644,59.7525,0.464666,0.0,0.0
585,146,39.4518,42.0083,153.215,97.666,93.9542,-0.00206855,0.0703224,20.9638,59.7225,0.34659,0.0,0.0
594,148.25,39.2345,42.0805,147.166,97.7965,88.7726,-0.0013469,0.0817224,20.941,59.7325,0.866013,0.0,1.0
603,150.5,39.5124,42.671,147.233,97.9453,77.773,-2.58485e-05,0.11741,20.8571,59.5823,2.06294,0.0,1.0
612,152.75,40.7281,43.3853,146.29,98.0842,76.8628,0.00148018,0.172116,20.7759,59.4822,2.18091,0.0,1.0
621,155,41.0632,44.1487,142.043,98.2049,70.2792,0.0030631,0.218104,20.7257,59.3221,2.99294,0.0,1.0
630,157.25,41.8361,45.8895,139.609,98.3169,67.512,0.00564301,0.265657,20.6537,59.1019,3.36247,0.0,1.0
639,159.5,43.1552,47.5437,137.145,98.4281,56.2118,0.00934941,0.325191,20.5512,58.8517,5.01117,0.0,0.0
648,161.75,45.0902,50.0002,130.493,98.5255,52.3297,0.0141371,0.415877,20.422,58.4814,5.66016,0.0,0.0
657,164,47.0308,53.0766,125.802,98.6066,50.2946,0.0200292,0.522717,20.2624,58.1311,6.02236,0.0,0.0
666,166.25,49.0506,55.9566,126.837,98.6996,44.6965,0.0245628,0.617976,20.124,57.7607,7.08637,0.0,0.0
675,168.5,51.7291,59.6516,132.663,98.7554,47.1357,0.0285612,0.707581,20.0168,57.3003,6.61611,0.0,0.0
684,170.75,53.7623,63.2372,127.607,98.8116,46.3855,0.0314904,0.783511,19.9096,56.88,6.76472,0.0,0.0
693,173,56.5932,66.3585,126.998,98.8741,47.1987,0.0332811,0.848831,19.8341,56.3695,6.61491,0.0,0.0
702,175.25,59.1511,69.6757,131.805,98.9045,42.474,0.034111,0.886681,19.8032,55.9291,7.56116,0.0,0.0
711,177.5,60.9985,71.7912,128.212,98.9121,48.9182,0.0339344,0.898356,19.8037,55.4187,6.29825,0.0,0.0
720,179.75,62.3869,74.05,125.094,98.9081,46.7231,0.0332959,0.889521,19.8302,55.0183,6.70858,0.0,0.0
729,182,63.3811,75.5059,125.38,98.922,44.0046,0.0329229,0.878675,19.8461,54.5879,7.24606,0.0,0.0
738,184.25,65.5182,78.1365,122.434,98.9006,47.1496,0.0327033,0.876096,19.8514,54.0975,6.62661,0.0,0.0
747,186.5,66.3458,79.4636,126.948,98.8768,49.2145,0.032834,0.876419,19.8533,53.7072,6.24105,0.0,0.0
756,188.75,68.3842,81.7086,128.041,98.8317,46.0312,0.0334389,0.882285,19.8495,53.2668,6.83512,0.0,0.0
765,191,69.5226,83.3979,128.641,98.7906,44.0745,0.0341057,0.897087,19.8185,52.7663,7.21996,0.0,0.0
774,193.25,71.0755,84.9977,121.421,98.7249,45.923,0.0344975,0.911768,19.802,52.336,6.84649,0.0,0.0
783,195.5,72.1578,86.5045,128.737,98.6628,47.1886,0.0345697,0.912024,19.8092,51.8756,6.59768,0.0,0.0
792,197.75,73.5011,88.1751,126.734,98.6086,44.3476,0.0343132,0.902938,19.8248,51.4752,7.1482,0.0,0.0
801,200,73.958,88.5243,128.097,98.5607,44.0185,0.0340763,0.884133,19.8586,50.9848,7.2105,0.0,0.0
810,202.25,75.131,89.5576,128.176,98.4851,42.7112,0.0341755,0.867555,19.8766,50.5944,7.47333,0.0,0.0
819,204.5,75.1435,89.8259,125.172,98.4293,43.5623,0.0344565,0.859167,19.8815,50.134,7.29177,0.0,0.0
828,206.75,76.2513,91.0562,129.261,98.3909,45.9146,0.0343623,0.855593,19.8836,49.7037,6.81783,0.0,0.0
837,209,76.7405,91.2983,134.037,98.3232,44.7286,0.0338812,0.846268,19.8953,49.3033,7.04578,0.0,0.0
846,211.25,76.7911,91.8391,127.495,98.2576,46.6849,0.0331695,0.833759,19.916,48.8929,6.65687,0.0,0.0
855,213.5,77.3308,91.795,131.067,98.2243,47.2968,0.0324676,0.817272,19.9467,48.4926,6.53735,0.0,0.0
864,215.75,77.748,92.5682,131.708,98.1745,47.7959,0.0316896,0.802493,19.964,48.1123,6.43891,0.0,0.0
873,218,77.3103,91.9406,122.172,98.1384,47.6263,0.0306281,0.798748,19.972,47.6919,6.46742,0.0,0.0
882,220.25,78.2728,92.8461,131.058,98.1139,45.6124,0.0298571,0.78888,19.9856,47.3616,6.85167,0.0,0.0
891,222.5,78.3233,93.0264,131.657,98.1986,46.8108,0.0292606,0.779372,19.9945,46.9212,6.6274,0.0,0.0
900,224.75,78.6795,93.2971,126.078,98.2876,49.6155,0.0291158,0.775628,19.9971,46.5909,6.11499,0.0,0.0
909,227,79.2753,93.4755,129.558,98.3549,48.2162,0.0295423,0.781902,19.973,46.1505,6.37701,0.0,0.0
918,229.25,79.1055,93.8201,126.692,98.4241,44.411,0.0301007,0.802437,19.9398,45.7202,7.11869,0.0,0.0
927,231.5,79.9588,93.985,128.226,98.4724,48.7007,0.0301764,0.820344,19.9197,45.2798,6.29827,0.0,0.0
936,233.75,80.59,95.0223,129.618,98.5072,48.0791,0.0293656,0.825174,19.9203,44.8994,6.41634,0.0,0.0
945,236,80.1628,94.5035,129.882,98.5389,49.2064,0.0277035,0.805406,19.9644,44.5792,6.2119,0.0,0.0
954,238.25,80.852,95.2235,132.243,98.584,53.1143,0.0252804,0.770534,20.0225,44.2188,5.53235,0.0,0.0
963,240.5,80.3204,94.4655,129.6,98.605,52.73,0.0229638,0.733336,20.0803,43.8485,5.59923,0.0,0.0
972,242.75,80.1328,93.8268,129.529,98.6141,57.3109,0.0209394,0.699321,20.1259,43.6183,4.85484,0.0,0.0
981,245,79.5458,92.6576,134.429,98.6386,57.7092,0.0190728,0.666222,20.1702,43.3381,4.79512,0.0,0.0
990,247.25,79.8814,92.5674,137.124,98.6402,60.1523,0.0174001,0.634312,20.2176,43.0378,4.42436,0.0,0.0
999,249.5,79.2147,92.1135,134.575,98.6232,62.0383,0.0159801,0.603992,20.2585,42.7676,4.14666,0.0,0.0
1008,251.75,78.6088,91.2203,133.739,98.6089,61.5163,0.0147894,0.58026,20.2864,42.5574,4.22094,0.0,0.0
1017,254,77.7993,90.0201,133.26,98.5927,62.4002,0.0136926,0.563649,20.3036,42.2971,4.09185,0.0,0.0
1026,256.25,77.5163,89.5335,142.005,98.5563,66.0428,0.0126972,0.547869,20.325,42.0469,3.58104,0.0,0.0
1035,258.5,77.3028,89.1342,134.937,98.4993,62.3775,0.0120922,0.532707,20.346,41.8568,4.08664,0.0,0.0
1044,260.75,77.1028,88.1503,137.654,98.438,64.525,0.0118677,0.523453,20.3559,41.5865,3.77828,0.0,0.0
1053,263,76.4995,88.163,136.262,98.3838,63.3564,0.0117575,0.517501,20.3612,41.3763,3.93685,0.0,0.0
1062,265.25,76.1953,87.3204,139.55,98.2979,64.4655,0.0115397,0.51178,20.3671,41.1161,3.77379,0.0,0.0
1071,267.5,75.847,86.5836,134.79,98.1958,66.6184,0.0112654,0.503019,20.3824,40.946,3.47063,0.0,0.0
1080,269.75,75.5177,86.2419,135.091,98.1064,66.6787,0.0108104,0.491515,20.3987,40.6857,3.45439,0.0,0.0
1089,272,75.0991,85.1883,134.842,98.0055,66.2499,0.0101158,0.482997,20.4082,40.4856,3.5029,0.0,0.0
1098,274.25,74.946,84.9073,134.752,97.8444,66.9634,0.00965645,0.477659,20.4135,40.2954,3.39236,0.0,0.0
1107,276.5,74.7025,84.5431,137.35,97.7408,69.6016,0.00949914,0.472441,20.4167,40.0652,3.03722,0.0,0.0
1116,278.75,73.642,83.3199,130.784,97.7633,67.6758,0.00940317,0.470885,20.4197,39.865,3.29028,0.0,0.0
1125,281,73.7597,83.2249,132.628,97.787,68.9549,0.00906931,0.468448,20.4243,39.6849,3.12496,0.0,0.0
1134,283.25,73.3974,82.7188,134.683,97.8021,69.6785,0.00868634,0.46326,20.4327,39.5047,3.03296,0.0,0.0
1143,285.5,73.4904,82.5562,134.291,97.8417,70.1598,0.00856208,0.458946,20.4377,39.3145,2.975,0.0,0.0
1152,287.75,72.4527,81.7131,136.762,97.8844,70.154,0.00839456,0.457677,20.4386,39.0643,2.97964,0.0,0.0
1161,290,72.9915,81.8794,135.351,97.9073,70.8428,0.00808739,0.45733,20.4401,38.8942,2.89434,0.0,0.0
1170,292.25,72.5272,81.2607,138.602,97.9461,71.5436,0.00787979,0.455736,20.4412,38.664,2.80983,0.0,0.0
1179,294.5,72.7714,81.2835,136.954,98.0023,72.555,0.00765051,0.453008,20.444,38.4938,2.68938,0.0,0.0
1188,296.75,72.3067,80.8025,132.929,98.0348,72.9934,0.00743117,0.446774,20.455,38.2836,2.63845,0.0,0.0
1197,299,71.9281,80.2667,136.023,98.07,74.3143,0.00724941,0.43981,20.4614,38.1135,2.48124,0.0,0.0
1206,301.25,71.8596,80.1791,136.696,98.1412,74.91,0.00702674,0.436176,20.4656,37.9433,2.41632,0.0,0.0
1215,303.5,71.6832,79.8692,138.295,98.176,74.0856,0.0068978,0.433527,20.4684,37.8032,2.51848,0.0,0.0
1224,305.75,71.3966,79.4725,137.487,98.201,74.604,0.00689035,0.429468,20.4746,37.623,2.45838,0.0,0.0
1233,308,70.9683,78.7596,138.908,98.2318,75.367,0.00672282,0.424391,20.4824,37.4429,2.37017,0.0,0.0
1242,310.25,70.9129,78.6206,141.633,98.2821,75.3237,0.00656214,0.419854,20.4894,37.2827,2.37988,0.0,0.0
1251,312.5,71.102,78.8493,133.196,98.2908,73.4157,0.00648555,0.41654,20.4947,37.0926,2.61018,0.0,0.0
1260,314.75,70.1848,77.6857,139.028,98.288,76.3486,0.00638932,0.412935,20.501,36.9224,2.25952,0.0,0.0
1269,317,70.0091,77.6729,138.595,98.3058,79.5071,0.00618709,0.406963,20.5126,36.7623,1.89853,0.0,0.0
1278,319.25,69.4818,77.2584,140.555,98.3141,76.8786,0.00582717,0.399602,20.5223,36.6122,2.20001,0.0,0.0
1287,321.5,69.6543,76.7432,140.302,98.307,76.1578,0.00541526,0.394024,20.5275,36.482,2.28364,0.0,0.0
1296,323.75,68.8709,75.8543,139.539,98.29,75.8928,0.00522858,0.390429,20.5304,36.2919,2.31327,0.0,0.0
1305,326,69.5756,76.2789,136.741,98.2924,75.7653,0.0052615,0.39063,20.5305,36.1217,2.32853,0.0,0.0
1314,328.25,68.4026,75.8879,140.759,98.2781,75.5169,0.00547998,0.39495,20.5234,35.9416,2.35661,0.0,0.0
1323,330.5,68.9098,75.823,136.477,98.2465,74.1269,0.00569167,0.401433,20.5109,35.7814,2.51991,0.0,0.0
1332,332.75,69.0888,76.1706,134.807,98.2334,75.2584,0.00582892,0.406294,20.5055,35.5913,2.3832,0.0,0.0
1341,335,69.078,75.7492,137.169,98.2184,74.2722,0.0058875,0.407937,20.5045,35.4211,2.49984,0.0,0.0
1350,337.25,68.7775,75.6188,141.721,98.1907,72.2417,0.00587067,0.411265,20.4997,35.261,2.74527,0.0,0.0
1359,339.5,68.8706,75.5711,141.188,98.1337,75.1626,0.0058298,0.414051,20.4975,35.0908,2.38551,0.0,0.0
1368,341.75,68.6571,75.3768,139.989,98.1084,73.1167,0.00579135,0.413975,20.4976,34.9207,2.63007,0.0,0.0
1377,344,68.5039,75.3542,135.526,98.0735,71.8175,0.00577094,0.415035,20.4955,34.7505,2.78727,0.0,0.0
1386,346.25,68.8361,75.4252,140.03,98.0241,73.8808,0.00568002,0.41719,20.494,34.5503,2.52938,0.0,0.0
1395,348.5,68.6216,75.6903,137.024,97.9762,73.08,0.00563616,0.416704,20.4966,34.3702,2.62251,0.0,0.0
1404,350.75,67.9652,74.8553,142.535,97.9568,71.6004,0.00571418,0.415659,20.4996,34.2201,2.8037,0.0,0.0
1413,353,68.582,75.2827,141.127,97.8844,70.0346,0.00575821,0.415421,20.5013,34.0199,2.99487,0.0,0.0
1422,355.25,68.3832,74.9798,134.546,97.8159,72.9544,0.00569988,0.414155,20.504,33.8397,2.62324,0.0,0.0
1431,357.5,67.8294,74.7489,139.539,97.7681,75.1027,0.00565308,0.412663,20.5062,33.6896,2.35925,0.0,0.0
1440,359.75,68.0816,74.4584,134.324,97.7111,73.5756,0.00542939,0.410132,20.5082,33.5595,2.5378,0.0,0.0
1449,362,67.8611,74.515,135.191,97.6434,75.5474,0.00504558,0.404476,20.5193,33.3793,2.29503,0.0,0.0
1458,364.25,68.0815,74.3102,137.994,97.5856,73.6038,0.00486806,0.397387,20.5299,33.2392,2.52288,0.0,0.0
1467,366.5,67.9244,73.9316,144.873,97.5318,78.0082,0.00481586,0.389515,20.5408,33.0891,1.99807,0.0,0.0
1476,368.75,67.5819,73.8931,138.003,97.4847,77.8444,0.00478613,0.380577,20.553,32.9389,2.01255,0.0,0.0
1485,371,67.3729,73.6417,140.088,97.4198,78.5997,0.00470151,0.371762,20.5656,32.7988,1.92023,0.0,0.0
1494,373.25,67.7407,73.7307,134.881,97.3636,77.8939,0.00452491,0.363275,20.5784,32.6487,1.99575,0.0,0.0
1503,375.5,67.2528,73.3823,139.607,97.3122,76.9207,0.00437611,0.354882,20.5901,32.5286,2.10348,0.0,0.0
1512,377.75,66.9466,72.9854,138.558,97.2509,78.7357,0.00430619,0.347415,20.5989,32.3284,1.88923,0.0,0.0
1521,380,66.8195,72.6487,144.587,97.2049,80.6924,0.00425233,0.342,20.6044,32.2984,1.66542,0.0,0.0
1530,382.25,66.3127,72.091,143.94,97.1666,79.5114,0.00407883,0.338291,20.608,32.4285,1.79378,0.0,0.0
1539,384.5,65.9901,71.7701,144.174,97.1345,79.38,0.00376315,0.332662,20.618,32.3884,1.80562,0.0,0.0
1548,386.75,65.7253,71.4249,143.119,97.0763,80.8743,0.00352045,0.325059,20.6291,32.3084,1.63343,0.0,0.0
1557,389,65.7333,71.6704,144.158,97.0661,79.9244,0.00331629,0.319302,20.6354,32.1482,1.73818,0.0,0.0
1566,391.25,65.4188,71.0847,141.817,97.051,81.9259,0.00313648,0.314912,20.6403,31.7179,1.51554,0.0,0.0
1575,393.5,65.6257,71.0042,142.73,97.0451,80.8426,0.00304905,0.310759,20.6445,31.5877,1.63405,0.0,0.0
1584,395.75,65.4151,70.6676,143.081,97.0245,81.8104,0.00304566,0.308363,20.6471,31.4676,1.52571,0.0,0.0
1593,398,65.05,70.4114,137.947,97.0411,81.5604,0.00301085,0.305177,20.6519,31.3575,1.55462,0.0,0.0
1602,400.25,64.836,69.8133,145.742,97.0668,81.1212,0.00291058,0.301228,20.6562,31.2274,1.60529,0.0,0.0
1611,402.5,64.9838,69.9508,142.72,97.0752,82.0491,0.00290289,0.299873,20.6578,31.1173,1.50432,0.0,0.0
1620,404.75,64.8837,69.7876,145.338,97.0811,82.7479,0.00306348,0.299324,20.6585,30.9772,1.429,0.0,0.0
1629,407,64.6515,69.6216,143.317,97.1211,82.379,0.00309278,0.296659,20.6634,30.8771,1.47265,0.0,0.0
1638,409.25,64.3817,69.2495,142.595,97.1705,83.8733,0.00296204,0.291904,20.67,30.787,1.3164,0.0,0.0
1647,411.5,64.0565,68.8586,142.025,97.178,83.1204,0.0027968,0.288444,20.6739,30.6769,1.39776,0.0,0.0
1656,413.75,63.9402,68.7468,140.743,97.2267,85.4502,0.00272186,0.286889,20.6754,30.5769,1.15494,0.0,0.0
1665,416,63.5593,68.0667,140.103,97.2667,85.303,0.00272936,0.285105,20.6771,30.747,1.17404,0.0,0.0
1674,418.25,63.7214,68.3214,139.727,97.2853,85.0404,0.00269128,0.283146,20.6793,30.4367,1.20334,0.0,0.0
1683,420.5,63.2123,67.8243,137.877,97.3419,84.0487,0.00265351,0.2816,20.6808,30.3066,1.31347,0.0,0.0
1692,422.75,63.3331,68.0964,142.162,97.4012,84.1862,0.0025651,0.281036,20.6814,30.3166,1.3043,0.0,0.0
1701,425,62.857,67.4271,140.842,97.4594,87.3783,0.00230395,0.279897,20.684,30.3567,0.976727,0.0,0.0
1710,427.25,62.6933,67.246,139.678,97.4946,86.0645,0.00204244,0.276905,20.6894,30.1165,1.11549,0.0,0.0
1719,429.5,62.6401,67.1517,143.613,97.5619,85.672,0.00202447,0.27411,20.6942,30.0764,1.16255,0.0,0.0
1728,431.75,62.8644,67.1337,141.474,97.63,84.5621,0.0021967,0.272103,20.6967,30.0964,1.28543,0.0,0.0
1737,434,62.6774,66.7884,141.189,97.6735,86.7587,0.00242051,0.271173,20.6979,29.8162,1.06002,0.0,0.0
1746,436.25,62.4914,66.902,136.884,97.7427,85.0431,0.00245805,0.27005,20.6984,29.7762,1.24502,0.0,0.0
1755,438.5,62.4155,66.4006,139.299,97.8116,86.4674,0.00239579,0.268002,20.7006,29.626,1.10274,0.0,0.0
1764,440.75,62.3301,66.7746,143.861,97.8796,88.9931,0.00239969,0.265946,20.7041,29.5259,0.851411,0.0,0.0
1773,443,62.3888,66.5163,143.723,97.9311,88.5605,0.00246092,0.263251,20.7066,29.3858,0.899708,0.0,0.0
1782,445.25,61.7945,66.2014,140.334,98.0094,87.4235,0.00246438,0.261601,20.7081,29.2757,1.02244,0.0,0.0
1791,447.5,62.0447,65.9231,141.362,98.0921,87.9887,0.00250397,0.26062,20.7094,29.1656,0.972346,0.0,0.0
1800,449.75,61.4317,65.6791,141.241,98.1725,87.9358,0.00263169,0.258406,20.7143,29.1156,0.985051,0.0,0.0
1809,452,61.8347,65.904,142.227,98.231,88.516,0.0027821,0.256285,20.7165,28.9754,0.931554,0.0,0.0
1818,454.25,61.5272,65.8347,141.681,98.3011,88.3047,0.00282974,0.255315,20.7183,28.8954,0.959309,0.0,0.0
1827,456.5,61.2945,65.3215,146.407,98.3707,88.0127,0.00268703,0.25434,20.7201,28.7953,0.99528,0.0,0.0
1836,458.75,61.3579,65.3956,142.369,98.417,88.1888,0.00250886,0.253798,20.7209,28.7252,0.981602,0.0,0.0
1845,461,61.3892,65.4591,145.409,98.4637,88.8946,0.00249142,0.253842,20.7203,28.6251,0.914539,0.0,0.0
1854,463.25,60.9591,65.119,138.745,98.5357,89.755,0.00254129,0.253899,20.7201,28.5651,0.834922,0.0,0.0
1863,465.5,61.0472,65.0088,145.157,98.5808,89.6847,0.00247156,0.253537,20.7203,28.465,0.846026,0.0,0.0
1872,467.75,60.8608,64.8091,146.047,98.6374,90.7107,0.00237661,0.251375,20.7246,28.3649,0.749399,0.0,0.0
1881,470,60.9617,64.7032,145.216,98.6893,89.6688,0.00231839,0.249059,20.7267,28.3149,0.857439,0.0,0.0
1890,472.25,60.798,64.8481,143.368,98.7391,90.2375,0.00227762,0.248767,20.7265,28.2248,0.805407,0.0,0.0
1899,474.5,60.0582,64.0887,144.12,98.766,91.1032,0.0023886,0.248751,20.7264,28.1047,0.722433,0.0,0.0
1908,476.75,60.5612,64.334,139.147,98.793,90.1853,0.00254498,0.247815,20.7263,28.0346,0.815453,0.0,0.0
1917,479,60.0824,64.4226,140.436,98.8286,89.7403,0.00263545,0.24752,20.7261,27.9646,0.862929,0.0,0.0
1926,481.25,60.7357,64.5435,142.516,98.8646,90.555,0.00263224,0.248031,20.7248,27.8545,0.785341,0.0,0.0
1935,483.5,60.4504,64.3747,137.719,98.8717,88.8467,0.0026571,0.249322,20.7232,27.7744,0.956349,0.0,0.0
1944,485.75,60.4391,64.2282,140.226,98.8919,89.8322,0.0028578,0.250324,20.7212,27.6943,0.859498,0.0,0.0
1953,488,60.5779,64.248,143.583,98.916,90.7486,0.0030305,0.251476,20.7193,27.6243,0.770896,0.0,0.0
1962,490.25,60.0823,64.4402,138.773,98.9204,89.6364,0.00298721,0.251353,20.7209,27.5142,0.881599,0.0,0.0
1971,492.5,59.9959,64.0675,141.07,98.9228,89.162,0.0029011,0.249704,20.7234,27.4541,0.929284,0.0,0.0
1980,494.75,60.3013,64.0686,145.387,98.9421,89.6974,0.00296718,0.249779,20.7234,27.354,0.877479,0.0,0.0
1989,497,59.8564,63.94,146.489,98.9453,90.2471,0.00295596,0.250559,20.7234,27.274,0.823108,0.0,0.0
1998,499.25,59.8703,63.7948,141.675,98.933,89.4343,0.00292553,0.250259,20.7237,27.1839,0.902931,0.0,0.0
2007,501.5,60.1523,64.2795,140.165,98.9212,89.7584,0.00275372,0.249883,20.7249,27.1338,0.869497,0.0,0.0
2016,503.75,59.6687,63.4188,141.952,98.9263,89.6738,0.00242107,0.248914,20.7266,27.0438,0.878397,0.0,0.0
2025,506,59.8068,63.7245,146.798,98.8954,89.6487,0.00230899,0.247923,20.7275,26.9437,0.878112,0.0,0.0
2034,508.25,60.0707,63.9044,140.602,98.8677,90.6949,0.00237555,0.248008,20.7291,26.8436,0.771823,0.0,0.0
2043,510.5,59.7228,63.6539,144.481,98.8586,89.8141,0.00245381,0.248596,20.7297,26.7735,0.858299,0.0,0.0
2052,512.75,59.8335,63.6132,142.184,98.8278,89.6333,0.00249088,0.248328,20.7304,26.6734,0.873531,0.0,0.0
2061,515,59.8516,63.8059,143.247,98.7783,89.2064,0.0025845,0.247308,20.7326,26.6034,0.911756,0.0,0.0
2070,517.25,59.7969,63.4694,145.367,98.7459,90.5933,0.00279404,0.24603,20.7339,26.5333,0.770815,0.0,0.0
2079,519.5,59.344,63.4239,144.122,98.7079,89.7921,0.00285197,0.245504,20.7344,26.4733,0.84684,0.0,0.0
2088,521.75,59.7752,63.7341,147.06,98.6703,90.4438,0.00272576,0.244591,20.7346,26.3932,0.77874,0.0,0.0
2097,524,59.8344,63.6199,147.238,98.6256,90.924,0.00260028,0.242997,20.737,26.3231,0.727317,0.0,0.0
2106,526.25,59.5275,63.4617,142.281,98.5729,89.4332,0.00251349,0.241345,20.7402,26.223,0.870428,0.0,0.0
2115,528.5,59.0381,62.6157,149.384,98.5274,90.3232,0.00246127,0.239218,20.7423,26.133,0.777709,0.0,0.0
2124,530.75,59.4548,63.2275,142.739,98.4879,91.1503,0.00246212,0.237623,20.7429,26.0629,0.692575,0.0,0.0
2133,533,59.3911,63.1169,142.732,98.4309,91.6197,0.00249599,0.236425,20.7449,25.9928,0.641453,0.0,0.0
2142,535.25,59.6674,63.199,142.323,98.3976,91.3439,0.00262339,0.235062,20.7461,25.8927,0.665402,0.0,0.0
2151,537.5,59.613,63.5735,141.698,98.3505,91.483,0.00294669,0.233833,20.7473,25.8527,0.647511,0.0,0.0
2160,539.75,59.4928,63.2244,140.054,98.2951,90.6126,0.00327034,0.232103,20.7501,25.7626,0.727985,0.0,0.0
2169,542,59.2786,62.8372,148.153,98.2564,91.2859,0.00339762,0.229957,20.7528,25.6826,0.658226,0.0,0.0
2178,544.25,59.119,62.7806,139.977,98.233,91.1735,0.00345778,0.228595,20.755,25.6425,0.667124,0.0,0.0
2187,546.5,58.9269,62.6989,140.514,98.1804,90.9081,0.00351398,0.226839,20.7575,25.5524,0.688408,0.0,0.0
2196,548.75,59.0361,62.739,140.68,98.1479,90.4812,0.00353681,0.22547,20.7584,25.4724,0.727555,0.0,0.0
2205,551,58.9202,62.6746,138.97,98.1329,91.097,0.00346746,0.224977,20.7588,25.3923,0.665511,0.0,0.0
2214,553.25,58.5293,62.2264,144.431,98.1907,91.1708,0.00347803,0.225511,20.7577,25.3322,0.663532,0.0,0.0
2223,555.5,59.0618,62.7044,144.501,98.2572,91.7808,0.00345785,0.225756,20.7576,25.2722,0.609936,0.0,0.0
2232,557.75,57.9923,61.8094,141.323,98.3494,91.4969,0.00343387,0.224743,20.7584,25.1621,0.646043,0.0,0.0
2241,560,58.1414,61.9307,143.659,98.4281,91.2469,0.00344515,0.22354,20.7602,25.1221,0.677673,0.0,0.0
2250,562.25,56.6049,60.1834,142.003,98.4894,91.5544,0.00354465,0.221843,20.7622,25.032,0.653151,0.0,0.0
2259,564.5,58.4943,62.0759,143.346,98.5346,92.324,0.00358088,0.221025,20.7618,24.9819,0.582372,0.0,0.0
2268,566.75,58.1534,62.1322,139.494,98.5824,92.6863,0.00358361,0.220605,20.7623,24.9119,0.551677,0.0,0.0
2277,569,58.1872,61.7928,145.373,98.6434,91.5826,0.00356393,0.218897,20.7659,24.8718,0.664365,0.0,0.0
2286,571.25,58.3133,61.9686,140.134,98.6279,91.8202,0.00358236,0.216744,20.7688,24.8118,0.639789,0.0,0.0
2295,573.5,57.9955,61.6322,142.159,98.6438,92.6508,0.00360642,0.214328,20.7726,24.7417,0.56067,0.0,0.0
2304,575.75,57.5566,61.2675,141.458,98.6564,92.9854,0.00355874,0.212134,20.7764,24.6817,0.529577,0.0,0.0
2313,578,58.0255,61.6078,144.909,98.6355,93.3392,0.00347471,0.210637,20.779,24.6016,0.493697,0.0,0.0
2322,580.25,58.1402,61.7135,143.075,98.6327,92.9096,0.00349977,0.209316,20.7807,24.5215,0.534712,0.0,0.0
2331,582.5,57.6511,61.2883,144.577,98.6093,92.0288,0.0036499,0.208609,20.7813,24.4715,0.617802,0.0,0.0
2340,584.75,57.7441,61.2445,140.864,98.588,94.1493,0.00377046,0.207876,20.7816,24.4014,0.412087,0.0,0.0
2349,587,57.7221,61.0418,144.85,98.5468,92.4777,0.00378771,0.207075,20.7817,24.3714,0.5686,0.0,0.0
2358,589.25,58.2919,61.6372,146.527,98.5029,92.7002,0.0036994,0.206534,20.7827,24.3013,0.543115,0.0,0.0
2367,591.5,57.3574,60.5541,143.826,98.4467,92.8613,0.00352942,0.205687,20.7847,24.2513,0.522479,0.0,0.0
2376,593.75,57.1504,60.4763,145.509,98.366,93.423,0.00333315,0.204904,20.7865,24.1712,0.461194,0.0,0.0
2385,596,57.3337,60.701,141.04,98.2734,93.8356,0.00326043,0.204197,20.7868,24.1312,0.413351,0.0,0.0
2394,598.25,57.1294,60.5984,147.207,98.178,93.8472,0.00328156,0.2039,20.7874,24.0511,0.403562,0.0,0.0
2403,600.5,57.0086,60.5071,141.143,98.0838,93.0785,0.0033507,0.203024,20.7891,24.0011,0.468555,0.0,0.0
2412,602.75,57.2093,60.4797,144.58,97.9877,94.4599,0.00353158,0.202007,20.7902,23.961,0.327991,0.0,0.0
2421,605,56.7987,60.1398,140.221,97.8409,91.7719,0.00375297,0.202188,20.7896,23.871,0.572822,0.0,0.0
2430,607.25,56.8779,60.1311,141.43,97.7772,91.8164,0.00383628,0.202872,20.7894,23.8409,0.562666,0.0,0.0
2439,609.5,57.1526,60.2408,141.61,97.7906,94.1729,0.00383891,0.202151,20.7917,23.8009,0.337206,0.0,0.0
2448,611.75,56.7885,59.9404,143.401,97.7874,92.8849,0.00389654,0.200661,20.7926,23.7208,0.460103,0.0,0.0
2457,614,56.5153,59.6823,142.907,97.8132,92.815,0.00394428,0.199767,20.7935,23.6608,0.469193,0.0,0.0
2466,616.25,56.3787,59.7282,144.58,97.8385,92.8362,0.00396879,0.198338,20.7957,23.5907,0.469461,0.0,0.0
2475,618.5,56.6202,59.8312,144.216,97.8781,93.0649,0.00400048,0.197282,20.7975,23.5507,0.451068,0.0,0.0
2484,620.75,56.5456,59.6639,142.352,97.8919,92.5013,0.00400796,0.196208,20.799,23.4806,0.506676,0.0,0.0
2493,623,56.1247,59.4613,144.081,97.9267,94.0176,0.0040848,0.194919,20.7998,23.4206,0.364413,0.0,0.0
2502,625.25,56.6333,59.7471,148.189,97.9532,93.5501,0.00418748,0.194183,20.7999,23.3905,0.41142,0.0,0.0
2511,627.5,56.3244,59.4945,145.332,97.9687,94.4653,0.00425342,0.192747,20.801,23.3405,0.325744,0.0,0.0
2520,629.75,56.1743,59.2402,145.668,98.0031,93.3906,0.00431693,0.191682,20.8027,23.2504,0.431242,0.0,0.0
2529,632,55.6746,59.0937,146.092,98.0565,94.7423,0.0044244,0.190428,20.8042,23.2304,0.307571,0.0,0.0
2538,634.25,56.1153,59.2474,145.525,98.0565,94.0802,0.00454392,0.188439,20.8064,23.1703,0.370309,0.0,0.0
2547,636.5,55.6798,58.8239,148.587,98.0949,94.3317,0.00460206,0.187275,20.8086,23.1103,0.34993,0.0,0.0
2556,638.75,55.4534,58.7086,143.478,98.1468,93.4791,0.00473661,0.186702,20.8095,23.0302,0.435873,0.0,0.0
2565,641,55.8192,58.7311,149.044,98.1978,94.4808,0.00500699,0.186442,20.8099,22.9602,0.345177,0.0,0.0
2574,643.25,55.7272,58.6981,146.982,98.2081,95.2592,0.00525999,0.186012,20.8087,22.9401,0.272716,0.0,0.0
2583,645.5,55.5374,58.8072,143.405,98.2338,93.651,0.00548465,0.185067,20.8095,22.8401,0.427369,0.0,0.0
2592,647.75,55.3372,58.3248,144.188,98.2603,95.654,0.00570264,0.184079,20.8088,22.81,0.240473,0.0,0.0
2601,650,56.0205,58.9674,148.304,98.2813,94.7361,0.00581895,0.183209,20.8094,22.78,0.328635,0.0,0.0
2610,652.25,55.4674,58.5225,149.281,98.2746,93.4053,0.00591525,0.182113,20.8097,22.74,0.454579,0.0,0.0
2619,654.5,55.3719,58.5111,144.274,98.2971,94.6338,0.0059146,0.181381,20.8098,22.7099,0.339748,0.0,0.0
2628,656.75,55.1649,58.1616,141.884,98.2971,94.0091,0.0057944,0.180355,20.8103,22.6599,0.398992,0.0,0.0
2637,659,55.0891,57.9328,151.4,98.2766,94.2355,0.00564912,0.17912,20.8129,22.6299,0.375604,0.0,0.0
2646,661.25,55.0975,57.9353,148.966,98.2623,94.1412,0.00565253,0.177238,20.8153,22.5798,0.383258,0.0,0.0
2655,663.5,54.8054,57.5214,148.112,98.2552,94.5109,0.00583329,0.176184,20.8162,22.5198,0.34755,0.0,0.0
2664,665.75,54.7751,57.7533,141.93,98.2279,94.0968,0.00616502,0.176055,20.8165,22.4697,0.384346,0.0,0.0
2673,668,54.681,57.5105,146.312,98.1749,95.3898,0.00650431,0.175725,20.8166,22.4097,0.257434,0.0,0.0
2682,670.25,54.7082,57.3597,140.97,98.1408,96.8443,0.0066751,0.17412,20.8169,22.3396,0.118965,0.0,0.0
2691,672.5,54.6273,57.6822,144.409,98.0894,95.3805,0.00672423,0.173225,20.817,22.3096,0.250512,0.0,0.0
2700,674.75,54.4469,57.2885,145.244,98.0276,95.3477,0.00674983,0.173337,20.8158,22.2596,0.247961,0.0,0.0
2709,677,54.4055,57.1647,150.733,97.9671,94.4804,0.00677402,0.173624,20.8146,22.2095,0.324173,0.0,0.0
2718,679.25,54.1865,57.3319,144.796,97.9153,93.5138,0.00684813,0.174197,20.8136,22.1795,0.411424,0.0,0.0
2727,681.5,54.0775,56.6591,146.345,97.8456,94.5171,0.00688416,0.174076,20.8144,22.1394,0.309599,0.0,0.0
2736,683.75,54.1035,56.8059,146.323,97.7629,93.8565,0.00678354,0.17302,20.8161,22.0494,0.364776,0.0,0.0
2745,686,54.1809,56.9979,143.766,97.683,93.3659,0.00670155,0.172406,20.8164,22.0293,0.404342,0.0,0.0
2754,688.25,53.9899,56.8073,146.238,97.6177,94.8563,0.00675961,0.172384,20.8165,21.9993,0.256693,0.0,0.0
2763,690.5,54.1546,56.8362,148.633,97.5413,95.1773,0.00696708,0.172298,20.8165,21.9693,0.219469,0.0,0.0
2772,692.75,54.0455,56.7906,144.071,97.463,93.4219,0.00720097,0.171771,20.8174,21.9393,0.378806,0.0,0.0
2781,695,53.8176,56.7354,144.048,97.4028,94.7211,0.0075,0.171006,20.8198,21.8592,0.249741,0.0,0.0
2790,697.25,53.8441,56.7676,146.002,97.3355,94.22,0.00764891,0.170513,20.8215,21.8192,0.291006,0.0,0.0
2799,699.5,53.8377,56.7098,145.527,97.2659,94.3726,0.00759611,0.170008,20.823,21.7591,0.270126,0.0,0.0
2808,701.75,53.5063,56.3596,147.368,97.1966,94.2695,0.00744344,0.169358,20.8248,21.7091,0.273537,0.0,0.0
2817,704,53.3913,55.7922,142.179,97.1242,93.7221,0.0073727,0.168669,20.8255,21.669,0.318967,0.0,0.0
2826,706.25,53.6948,56.7453,150.599,97.1048,94.453,0.00744597,0.168184,20.8274,21.609,0.247689,0.0,0.0
2835,708.5,53.4012,56.1899,146.411,97.0672,94.2695,0.00753969,0.167218,20.8275,21.599,0.261621,0.0,0.0
2844,710.75,53.4154,56.3941,146.494,97.0427,94.1261,0.0075881,0.166642,20.827,21.5389,0.27297,0.0,0.0
2853,713,53.3812,56.1626,141.133,97.0419,94.1192,0.00760488,0.166169,20.8271,21.4689,0.273559,0.0,0.0
2862,715.25,53.3281,56.0727,149.759,97.0059,93.7796,0.00759733,0.166328,20.8283,21.4388,0.30257,0.0,0.0
2871,717.5,53.3597,55.9821,147.291,97,95.3477,0.00761724,0.166164,20.8276,21.3788,0.153687,0.0,0.0
2880,719.75,53.2516,56.1142,149.268,97.0055,94.242,0.0077785,0.166379,20.825,21.3187,0.258533,0.0,0.0
2889,722,53.331,56.1375,143.893,96.9976,93.9824,0.00791444,0.167258,20.8224,21.2987,0.282479,0.0,0.0
2898,724.25,53.5237,56.1988,144.931,96.9956,95.0243,0.00798037,0.16768,20.8214,21.2587,0.183674,0.0,0.0
2907,726.5,53.0989,56.2328,151.794,97.0023,94.4445,0.00806666,0.167079,20.8221,21.2086,0.239048,0.0,0.0
2916,728.75,53.1085,55.9743,144.408,97.0178,93.8183,0.0081691,0.166493,20.8224,21.1686,0.29998,0.0,0.0
2925,731,53.2329,56.0087,148.246,97.0095,95.0537,0.00824143,0.16609,20.8225,21.1286,0.182187,0.0,0.0
2934,733.25,53.1872,56.0838,147.859,97.0134,95.8905,0.00826022,0.165293,20.824,21.1185,0.10415,0.0,0.0
2943,735.5,53.1358,55.8646,149.38,97.0265,93.8851,0.0082657,0.164605,20.8255,21.0785,0.294414,0.0,0.0
2952,737.75,53.1734,56.1333,149.089,97.0427,94.4854,0.00827783,0.163719,20.8265,21.0185,0.238891,0.0,0.0
2961,740,52.9874,55.79,144.916,97.0376,94.5882,0.00829469,0.163634,20.8275,20.9584,0.228693,0.0,0.0
2970,742.25,52.8828,55.7588,146.869,97.0391,95.1804,0.0083481,0.16336,20.8291,20.8883,0.173006,0.0,0.0
2979,744.5,53.1069,55.8873,145.046,97.0534,95.2569,0.008347,0.162835,20.8297,20.8583,0.167134,0.0,0.0
2988,746.75,52.5234,55.424,146.635,97.0312,94.5731,0.00838235,0.162169,20.83,20.8183,0.229535,0.0,0.0
2997,749,52.6514,55.5326,146.194,97.0336,95.6026,0.00843032,0.161814,20.83,20.7883,0.1329,0.0,0.0
3006,751.25,52.8055,55.4036,144.916,97.032,96.4035,0.00851755,0.161306,20.8301,20.7482,0.0581335,0.0,0.0
3015,753.5,52.5333,55.4221,148.185,97.0376,94.7725,0.00864892,0.161075,20.8312,20.7082,0.211283,0.0,0.0
3024,755.75,52.7887,55.767,144.862,97.0407,95.4987,0.00875513,0.16075,20.8319,20.7482,0.143286,0.0,0.0
3033,758,52.5346,55.4381,150.067,97.0233,95.2117,0.00876947,0.160249,20.8322,20.6782,0.168607,0.0,0.0
3042,760.25,52.7426,55.7724,146.557,97.0328,94.3483,0.00881611,0.159535,20.8335,20.6281,0.250972,0.0,0.0
3051,762.5,52.2541,55.0991,148.883,97.0249,95.1124,0.00893852,0.158804,20.8342,20.5581,0.178086,0.0,0.0
3060,764.75,52.6396,55.5385,146.688,97.0122,95.1901,0.00900072,0.157574,20.835,20.518,0.169618,0.0,0.0
3069,767,52.4,54.755,150.64,97.0209,95.4728,0.00905717,0.157151,20.8358,20.528,0.143886,0.0,0.0
3078,769.25,52.0841,54.9554,143.105,97.0233,94.0578,0.00929748,0.156443,20.8371,20.478,0.277683,0.0,0.0
3087,771.5,52.4915,55.093,148.161,97.0142,94.6446,0.0095295,0.155947,20.838,20.468,0.221208,0.0,0.0
3096,773.75,51.8299,54.7615,142.006,97.0063,94.0786,0.00954461,0.155372,20.8396,20.3979,0.27413,0.0,0.0
3105,776,52.2849,55.2507,146.403,97.0095,95.0649,0.00945117,0.154777,20.8415,20.3779,0.181133,0.0,0.0
3114,778.25,52.2004,55.3505,146.954,97.0012,95.389,0.00941443,0.154253,20.8425,20.3279,0.14992,0.0,0.0
3123,780.5,52.1156,55.2364,148.379,96.9964,94.9888,0.00939047,0.153521,20.8425,20.2578,0.187092,0.0,0.0
3132,782.75,52.2116,55.1407,149.974,96.9932,95.4941,0.00940014,0.153006,20.8424,20.2178,0.139341,0.0,0.0
3141,785,51.9176,54.9179,146.912,97.0043,96.327,0.00934078,0.152242,20.843,20.1877,0.0626806,0.0,0.0
3150,787.25,52.1028,54.9643,148.603,97.0059,95.0081,0.00936568,0.151494,20.8462,20.1677,0.186149,0.0,0.0
3159,789.5,52.1829,54.9087,145.67,97.0174,94.9625,0.00954769,0.151009,20.8475,20.1377,0.1915,0.0,0.0
3168,791.75,52.083,54.8207,146.441,97.0395,95.4868,0.00970479,0.150213,20.8497,20.0676,0.144297,0.0,0.0
3177,794,52.2856,55.0835,149.601,97.0862,95.0873,0.00984513,0.149297,20.8522,20.0476,0.1861,0.0,0.0
3186,796.25,51.9717,54.9955,147.517,97.0993,95.5308,0.00980426,0.148377,20.8545,19.9976,0.145679,0.0,0.0
3195,798.5,52.0881,54.7772,145.571,97.1286,95.5289,0.00975171,0.147011,20.8569,19.9876,0.148558,0.0,0.0
3204,800.75,52.2883,55.092,143.964,97.1943,93.7178,0.00996405,0.146438,20.8578,19.9775,0.325821,0.0,0.0
3213,803,52.0201,54.7903,147.497,97.252,95.5644,0.0102805,0.14652,20.8578,19.8975,0.156594,0.0,0.0
3222,805.25,51.8698,54.6918,148.293,97.3169,95.7916,0.0104105,0.146058,20.8576,19.8574,0.141323,0.0,0.0
3231,807.5,51.9418,54.6754,148.454,97.3878,95.7672,0.010372,0.14471,20.859,19.8274,0.150104,0.0,0.0
3240,809.75,51.5393,54.639,149.159,97.4685,96.0709,0.0104117,0.143964,20.8598,19.8474,0.129199,0.0,0.0
3249,812,51.6281,54.4461,142.413,97.5492,94.7365,0.0105223,0.144235,20.8606,19.8074,0.261718,0.0,0.0
3258,814.25,51.8739,54.5191,150.515,97.662,95.8692,0.0105327,0.143966,20.8611,19.7674,0.165736,0.0,0.0
3267,816.5,51.2677,54.3193,147.151,97.7669,95.919,0.0105613,0.143857,20.8622,19.7073,0.170688,0.0,0.0
3276,818.75,51.7886,54.7685,148.788,97.8666,95.9793,0.0105919,0.143732,20.8635,19.7073,0.174188,0.0,0.0
3285,821,51.5782,54.389,148.176,97.9525,95.3403,0.0105712,0.142701,20.8662,19.6573,0.241785,0.0,0.0
3294,823.25,51.5265,54.3904,146.014,98.0656,96.0415,0.0105455,0.142055,20.8674,19.6172,0.186568,0.0,0.0
3303,825.5,51.2635,53.9332,145.96,98.1353,96.3243,0.0106091,0.141634,20.8679,19.6172,0.16662,0.0,0.0
3312,827.75,51.5618,54.237,145.154,98.1851,97.0374,0.0106346,0.140861,20.8693,19.5672,0.10518,0.0,0.0
3321,830,51.426,54.1616,145.202,98.2417,96.4174,0.0105562,0.140161,20.87,19.5272,0.167676,0.0,0.0
3330,832.25,51.2982,53.9045,144.654,98.2821,96.2694,0.0104995,0.139658,20.8691,19.4571,0.185087,0.0,0.0
3339,834.5,51.3256,54.0631,149.229,98.2987,96.7442,0.0105789,0.139173,20.8673,19.407,0.142591,0.0,0.0
3348,836.75,51.0187,53.8097,143.516,98.2762,95.8499,0.0107899,0.13847,20.8665,19.4471,0.223616,0.0,0.0
3357,839,50.4833,53.1347,152.652,98.2512,96.6542,0.0110239,0.138375,20.8663,19.397,0.146596,0.0,0.0
3366,841.25,50.7944,53.6517,152.288,98.2172,97.2105,0.011139,0.138611,20.8662,19.377,0.09216,0.0,0.0
3375,843.5,51.3132,53.9475,148.768,98.1325,96.5093,0.0111457,0.13801,20.868,19.337,0.149199,0.0,0.0
3384,845.75,51.0881,53.8274,145.312,98.064,94.6229,0.0110551,0.137265,20.8691,19.2869,0.319535,0.0,0.0
3393,848,50.9372,53.7638,142.109,98.0011,95.7888,0.0109885,0.136836,20.8695,19.2669,0.204246,0.0,0.0
3402,850.25,51.0133,54.0035,146.822,97.9378,95.7375,0.011092,0.13642,20.8701,19.2369,0.203264,0.0,0.0
3411,852.5,51.151,53.7575,146.327,97.8583,95.5694,0.0111657,0.136087,20.8713,19.1568,0.211712,0.0,0.0
3420,854.75,50.7129,53.3968,148.384,97.8001,96.6457,0.0111606,0.135468,20.8725,19.1368,0.106216,0.0,0.0
3429,857,50.5546,53.5707,148.686,97.7914,95.2835,0.0111693,0.135263,20.8736,19.0667,0.232396,0.0,0.0
3438,859.25,50.9254,53.6178,150.475,97.9738,95.6235,0.0112532,0.135517,20.8727,19.0868,0.217207,0.0,0.0
3447,861.5,50.832,53.557,150.422,98.2109,97.0915,0.0112581,0.135324,20.8732,19.0667,0.102538,0.0,0.0
3456,863.75,50.6065,53.4087,144.257,98.4166,97.0668,0.0112351,0.134879,20.8738,19.0467,0.12354,0.0,0.0
3465,866,50.4239,53.2751,150.942,98.5611,96.9938,0.0113362,0.134612,20.8741,18.9466,0.14339,0.0,0.0
3474,868.25,50.441,53.3733,150.182,98.6343,96.2679,0.0114148,0.134559,20.8728,18.9767,0.217229,0.0,0.0
3483,870.5,50.107,52.9358,147.425,98.6477,96.5851,0.0113518,0.134552,20.8725,18.9967,0.189026,0.0,0.0
3492,872.75,49.9557,52.4764,148.814,98.6343,97.0413,0.0112747,0.134344,20.8736,18.9066,0.145651,0.0,0.0
3501,875,50.037,52.8459,144.54,98.5163,97.0193,0.0112926,0.134146,20.874,18.8265,0.136979,0.0,0.0
3510,877.25,49.7741,52.9546,147.306,98.3502,96.582,0.011381,0.133643,20.8754,18.8666,0.162287,0.0,0.0
3519,879.5,49.9891,52.5687,147.006,98.1416,96.6175,0.011397,0.13324,20.8765,18.7865,0.140008,0.0,0.0
3528,881.75,49.9896,52.3996,144.472,98.2014,97.1811,0.0113447,0.132747,20.8769,18.7465,0.0934201,0.0,0.0
3537,884,50.6973,52.4365,147.269,98.3165,96.5901,0.0113861,0.132514,20.8777,18.7365,0.158476,0.0,0.0
3546,886.25,49.7554,52.3547,147.617,98.459,97.1491,0.0114127,0.132964,20.8778,18.6964,0.119808,0.0,0.0
3555,888.5,49.9591,52.5624,150.229,98.6165,97.3569,0.0114076,0.132904,20.8781,18.6564,0.114988,0.0,0.0
3564,890.75,49.3444,52.2926,150.263,98.7526,96.0396,0.0113872,0.132164,20.8781,18.5963,0.249194,0.0,0.0
3573,893,49.9833,51.9166,149.627,98.8503,97.2205,0.0114649,0.1318,20.879,18.5563,0.148715,0.0,0.0
3582,895.25,49.6167,52.6411,147.346,98.918,97.073,0.011599,0.131466,20.8793,18.5563,0.168425,0.0,0.0
3591,897.5,49.3271,51.9668,145.528,98.9457,97.2874,0.0117195,0.131505,20.8789,18.5463,0.151194,0.0,0.0
3600,899.75,49.0103,52.6616,146.908,98.8954,95.885,0.0118322,0.13154,20.8779,18.4762,0.276528,0.0,0.0
3609,902,49.6385,52.8104,144.809,98.8048,96.5055,0.0118577,0.13168,20.8771,18.4462,0.210633,0.0,0.0
3618,904.25,49.728,52.5132,148.381,98.675,96.2312,0.011769,0.131655,20.8768,18.4062,0.224336,0.0,0.0
3627,906.5,49.2289,51.7692,145.263,98.4855,96.7446,0.0117663,0.131493,20.8779,18.3761,0.159537,0.0,0.0
3636,908.75,49.7346,52.4563,147.03,98.2627,95.1514,0.0117196,0.131405,20.8785,18.3661,0.287815,0.0,0.0
3645,911,49.3083,52.5221,150.079,98.0126,96.3305,0.0115498,0.131061,20.8787,18.3161,0.154857,0.0,0.0
3654,913.25,49.7682,52.1652,148.236,97.7716,94.3031,0.011547,0.130844,20.8788,18.2961,0.32311,0.0,0.0
3663,915.5,49.3742,52.5274,145.189,97.5504,94.3293,0.0116528,0.131268,20.8788,18.2761,0.300357,0.0,0.0
3672,917.75,49.0349,52.1569,146.797,97.3383,94.1845,0.0116492,0.13167,20.8784,18.216,0.294635,0.0,0.0
3681,920,49.2846,52.5117,148.89,97.1879,94.6407,0.0115907,0.131896,20.8777,18.216,0.237577,0.0,0.0
3690,922.25,49.5833,52.0027,149.801,97.0953,95.3175,0.0115688,0.131579,20.8767,18.206,0.165305,0.0,0.0
3699,924.5,49.1622,52.6169,143.277,97.0328,95.5111,0.0116513,0.13139,20.8776,18.1559,0.141398,0.0,0.0
3708,926.75,49.5084,52.2128,147.932,97.0601,94.5472,0.0117903,0.131535,20.8779,18.1259,0.234646,0.0,0.0
3717,929,49.3756,52.1274,148.963,97.146,94.8814,0.0116509,0.13145,20.8794,18.1259,0.210996,0.0,0.0
3726,931.25,49.5725,52.3697,150.341,97.2766,95.6629,0.0114912,0.130586,20.8806,18.0759,0.149634,0.0,0.0
3735,933.5,49.4549,52.3025,144.469,97.4503,95.226,0.0115218,0.130164,20.881,18.0559,0.206543,0.0,0.0
3744,935.75,49.811,51.929,147.681,97.6505,95.9503,0.0116795,0.130536,20.8812,18.0358,0.157119,0.0,0.0
3753,938,49.5303,52.4029,147.52,97.8405,95.581,0.0118433,0.130736,20.8813,17.9658,0.208999,0.0,0.0
3762,940.25,49.1696,52.2628,147.859,98.0181,95.338,0.0120128,0.130716,20.8813,17.9257,0.248,0.0,0.0
3771,942.5,49.3299,52.3444,149.67,98.157,95.4508,0.0120431,0.130958,20.8805,17.8857,0.250089,0.0,0.0
3780,944.75,48.9305,52.3088,144.056,98.2742,95.9774,0.0118639,0.130759,20.8796,17.9257,0.211547,0.0,0.0
3789,947,49.0207,52.1849,147.377,98.3114,96.5978,0.0117477,0.130612,20.8795,17.8257,0.157292,0.0,0.0
3798,949.25,48.9012,52.5836,147.128,98.2801,95.5837,0.0117311,0.130584,20.8801,17.8056,0.248851,0.0,0.0
3807,951.5,49.1649,52.0322,148.617,98.2113,95.1503,0.0116823,0.130753,20.8803,17.7956,0.28324,0.0,0.0
3816,953.75,48.552,51.6203,142.79,98.0945,96.3509,0.0116778,0.130663,20.8804,17.7856,0.160428,0.0,0.0
3825,956,49.1206,52.1061,151.604,97.977,95.5582,0.0116785,0.130857,20.8807,17.7456,0.223606,0.0,0.0
3834,958.25,49.0601,52.4382,145.38,97.8721,95.0556,0.0115365,0.130624,20.8822,17.6955,0.261199,0.0,0.0
3843,960.5,49.1375,52.5951,149.032,97.7827,95.1734,0.0114167,0.129672,20.8839,17.6655,0.241941,0.0,0.0
3852,962.75,49.1841,51.8787,147.543,97.8895,94.2826,0.0115262,0.129291,20.8846,17.6855,0.335835,0.0,0.0
3861,965,49.3157,51.8197,146.727,98.2223,95.7209,0.0116015,0.130129,20.8835,17.5854,0.230766,0.0,0.0
3870,967.25,48.8184,51.3349,145.418,98.4772,96.0759,0.0114511,0.130511,20.8833,17.5854,0.220828,0.0,0.0
3879,969.5,49.0044,51.1855,149.417,98.607,96.2188,0.011403,0.130117,20.8844,17.5454,0.219312,0.0,0.0
3888,971.75,49.1013,51.7989,149.608,98.6196,95.2604,0.0115066,0.129811,20.8848,17.4954,0.310014,0.0,0.0
3897,974,49.1373,51.8068,149.591,98.5025,96.062,0.0115445,0.129583,20.8849,17.4653,0.224423,0.0,0.0
3906,976.25,48.872,51.7641,149.268,98.2892,96.7419,0.0115615,0.129644,20.8844,17.4453,0.141941,0.0,0.0
3915,978.5,49.0667,52.1556,149.845,98.1594,95.1677,,0.130228,,17.4153,0.276882,0.0,0.0
3924,980.75,49.1592,51.9616,147.508,98.2825,95.5706,,,,17.3853,0.250298,0.0,0.0
3933,983,48.8824,51.8402,146.952,98.4578,96.6411,,,,17.3753,0.166599,0.0,0.0
3942,985.25,49.1273,51.8145,146.692,98.656,96.4815,,,,17.3552,0.199373,0.0,0.0
3951,987.5,49.3342,52.4728,145.779,98.8025,95.5764,,,,17.3152,0.296956,0.0,0.0
3955,988.5,49.1678,52.3436,147.305,98.844,96.7693,,,,17.3252,0.189756,0.0,0.0