File: 01_Data/PLA_3D_Printer_Filament/STA/N2/10K_min/PLA_STA_N2_10KData_220504_R3.csv
##Temp./Â°C,Time/min,Mass loss(subtr.2)/mg,DSC(subtr.2)/(mW/mg),Sensit./(uV/mW)
49.901,10.01,-0.00209,-0.00175471,1.06048
50.501,10.73606,-0.0009602542,0.02863647,1.06035
51.101,10.92521,-0.0007120442,0.0544895,1.06023
51.701,11.06684,-0.002689627,0.07485308,1.0601
52.301,11.18661,-0.002025837,0.0910727,1.05998
52.901,11.29144,-0.001447652,0.10752,1.05985
53.501,11.38782,-0.00068306,0.11942,1.05973
54.101,11.47888,-0.0004142287,0.13255,1.0596
54.701,11.56446,-0.001663059,0.14263,1.05947
55.301,11.646,-0.000838153,0.15353,1.05934
55.901,11.72445,-0.001040216,0.16206,1.05921
56.501,11.80076,-0.001001879,0.16898,1.05908
57.101,11.87534,-0.00106394,0.17686,1.05895
57.701,11.9488,0.000787228,0.18343,1.05882
58.301,12.02091,0.0001549589,0.19045,1.05869
58.901,12.09153,-0.0009377075,0.1962,1.05855
59.501,12.16077,-0.000832667,0.20269,1.05842
60.101,12.2298,0.0006547544,0.20922,1.05829
60.701,12.29829,-0.001959355,0.21909,1.05815
61.301,12.3668,-0.001881476,0.22712,1.05802
61.901,12.43422,-0.00178102,0.23976,1.05788
62.501,12.5014,-0.001882261,0.2531,1.05774
63.101,12.56795,-0.001876815,0.27772,1.05761
63.701,12.6342,-0.001042338,0.3099,1.05747
64.301,12.69998,-0.001979939,0.35285,1.05733
64.901,12.7659,-0.00180461,0.39091,1.05719
65.501,12.83175,-0.002046454,0.41139,1.05705
66.101,12.89751,-0.002020548,0.40205,1.05691
66.701,12.96318,-0.001070964,0.38068,1.05677
67.301,13.02796,-0.0006700842,0.35324,1.05662
67.901,13.09263,-0.0006603899,0.33013,1.05648
68.501,13.1569,-5.499318e-05,0.31287,1.05634
69.101,13.22101,-0.0006753195,0.30234,1.05619
69.701,13.28514,-0.000925464,0.29396,1.05605
70.301,13.3492,-0.001984085,0.28631,1.0559
70.901,13.4133,-0.0005952532,0.28158,1.05576
71.501,13.4769,-0.001979775,0.27843,1.05561
72.101,13.5403,-0.0006748148,0.27399,1.05546
72.701,13.60338,-0.0006141445,0.27283,1.05532
73.301,13.66681,-0.000661689,0.26876,1.05517
73.901,13.73016,-0.00097695,0.26983,1.05502
74.501,13.7935,-0.00203228,0.26859,1.05487
75.101,13.85595,-0.0006902836,0.26926,1.05472
75.701,13.91865,-0.001973439,0.26861,1.05457
76.301,13.9809,-0.000617065,0.26797,1.05441
76.901,14.04326,-0.002000455,0.26596,1.05426
77.501,14.10529,-0.0006708704,0.26699,1.05411
78.101,14.16751,-0.0006575255,0.26292,1.05395
78.701,14.22995,-0.0006607258,0.26205,1.0538
79.301,14.29176,-0.0006265645,0.26118,1.05364
79.901,14.35329,-0.000564092,0.25853,1.05349
80.501,14.415,-0.0007267197,0.25388,1.05333
81.101,14.47676,-0.00158353,0.24904,1.05317
81.701,14.53933,-0.000669854,0.24254,1.05302
82.301,14.60064,-0.00166601,0.23529,1.05286
82.901,14.66145,-0.000320488,0.22869,1.0527
83.501,14.72243,-0.000629942,0.22166,1.05254
84.101,14.7835,-0.0002782172,0.21198,1.05238
84.701,14.8451,-0.0003276487,0.20084,1.05222
85.301,14.90621,-0.000682771,0.1895,1.05205
85.901,14.96676,-0.00067373,0.17715,1.05189
86.501,15.02704,-0.0006695228,0.16459,1.05173
87.101,15.08738,-0.001960379,0.1507,1.05157
87.701,15.1477,-0.0006157463,0.13737,1.0514
88.301,15.2081,-0.00167836,0.12723,1.05124
88.901,15.2681,-0.000340684,0.11458,1.05107
89.501,15.32802,-0.0003118,0.10556,1.0509
90.101,15.388,-0.0006279645,0.09818817,1.05074
90.701,15.448,-0.00118392,0.09249438,1.05057
91.301,15.5079,-0.00196151,0.09118428,1.0504
91.901,15.56695,-0.00196402,0.0894164,1.05023
92.501,15.62636,-0.00197999,0.09409977,1.05006
93.101,15.6854,-0.00198,0.09946725,1.04989
93.701,15.74525,-0.001980001,0.10767,1.04972
94.301,15.80509,-0.001983424,0.11611,1.04955
94.901,15.86484,-0.000676766,0.12906,1.04938
95.501,15.92445,-0.001976589,0.13879,1.04921
96.101,15.98385,-0.000672969,0.15125,1.04903
96.701,16.0431,-0.001980369,0.16422,1.04886
97.301,16.10217,-0.001814931,0.17619,1.04868
97.901,16.1608,-0.000656448,0.18711,1.04851
98.501,16.21932,-0.001988489,0.19876,1.04833
99.101,16.2782,-0.001980017,0.20911,1.04816
99.701,16.33748,-0.00200564,0.21758,1.04798
100.301,16.3969,-0.003051046,0.22825,1.0478
100.901,16.4561,-0.0016148,0.23577,1.04762
101.501,16.51505,-0.001991442,0.24059,1.04744
102.101,16.57425,-0.001976836,0.25016,1.04726
102.701,16.63383,-0.001941947,0.25685,1.04708
103.301,16.69337,-0.000669502,0.26281,1.0469
103.901,16.7528,-0.000669999,0.26646,1.04672
104.501,16.8118,-0.0006680467,0.27411,1.04654
105.101,16.87066,-0.0006529997,0.28015,1.04636
105.701,16.9297,-0.0006597059,0.28127,1.04617
106.301,16.9883,-0.000169388,0.28862,1.04599
106.901,17.04726,-0.000660019,0.2899,1.0458
107.501,17.1061,-0.0006600052,0.29563,1.04562
108.101,17.16519,-0.0006730648,0.29863,1.04543
108.701,17.22396,-0.001973026,0.30148,1.04525
109.301,17.28284,-0.0006643145,0.30503,1.04506
109.901,17.3415,-0.00197094,0.30975,1.04487
110.501,17.40021,-0.001979108,0.31105,1.04468
111.101,17.45891,-0.000660373,0.31569,1.04449
111.701,17.5175,-0.0006599803,0.31727,1.0443
112.301,17.5762,-0.0005202568,0.3178,1.04411
112.901,17.6349,-0.001039187,0.31655,1.04392
113.501,17.69368,-0.0009900825,0.31576,1.04373
114.101,17.75239,-0.001108267,0.31125,1.04354
114.701,17.81116,-0.001980046,0.31338,1.04335
115.301,17.8698,-0.001980905,0.31236,1.04315
115.901,17.92857,-0.000670521,0.31227,1.04296
116.501,17.9871,-0.00067,0.31,1.04276
117.101,18.0461,-0.0006699997,0.31274,1.04257
117.701,18.1046,-0.0006693173,0.31435,1.04237
118.301,18.16339,-0.0007051175,0.31348,1.04218
118.901,18.2221,-0.0006608141,0.31497,1.04198
119.501,18.28055,-0.001982022,0.31645,1.04178
120.101,18.33902,-0.00198,0.31681,1.04158
120.701,18.39721,-0.001978737,0.31879,1.04138
121.301,18.45554,-0.00191627,0.31992,1.04118
121.901,18.5139,-0.003598475,0.32227,1.04098
122.501,18.57235,-0.00219856,0.32309,1.04078
123.101,18.63071,-0.001230529,0.32302,1.04058
123.701,18.68895,-0.001219017,0.32601,1.04038
124.301,18.74713,0.000102129,0.32655,1.04018
124.901,18.80517,-0.001216161,0.32847,1.03997
125.501,18.86349,-0.001190326,0.327,1.03977
126.101,18.9219,-0.0002181989,0.3304,1.03956
126.701,18.98003,-0.0012116,0.33015,1.03936
127.301,19.0383,-0.00120997,0.33135,1.03915
127.901,19.0965,-0.001260527,0.33496,1.03895
128.501,19.15493,9.906521e-05,0.33514,1.03874
129.101,19.21295,9.992451e-05,0.33489,1.03853
129.701,19.27113,-0.001272913,0.33743,1.03832
130.301,19.32926,0.001682391,0.33762,1.03812
130.901,19.38738,0.0002623973,0.33853,1.03791
131.501,19.4455,0.000334818,0.34204,1.0377
132.101,19.50365,-0.0006550464,0.34282,1.03749
132.701,19.56179,-0.00132298,0.34238,1.03727
133.301,19.61992,-0.001649874,0.34146,1.03706
133.901,19.67812,-0.00165039,0.34236,1.03685
134.501,19.73623,-0.000349737,0.34277,1.03664
135.101,19.7942,-0.0003300117,0.34219,1.03642
135.701,19.8522,-0.000333002,0.34481,1.03621
136.301,19.91004,0.0009799791,0.34342,1.03599
136.901,19.96823,-0.0003578307,0.3427,1.03578
137.501,20.02567,-0.0003400174,0.34524,1.03556
138.101,20.08357,-0.0003414876,0.34345,1.03535
138.701,20.14143,-0.001654555,0.34477,1.03513
139.301,20.19887,-0.0007630809,0.34449,1.03491
139.901,20.257,-0.000329979,0.34735,1.03469
140.501,20.315,-0.00033,0.34545,1.03447
141.101,20.3728,-0.00033,0.34665,1.03425
141.701,20.43122,-0.0003299994,0.34591,1.03403
142.301,20.48907,-0.0003308326,0.34501,1.03381
142.901,20.547,-0.001655321,0.3425,1.03359
143.501,20.60483,-0.003085064,0.34495,1.03337
144.101,20.6627,-0.002305957,0.3405,1.03315
144.701,20.72052,-0.001658535,0.33904,1.03292
145.301,20.7784,0.00099858,0.33424,1.0327
145.901,20.83612,-0.0003292397,0.33128,1.03248
146.501,20.89365,-0.0003404938,0.32585,1.03225
147.101,20.95131,-0.0006642745,0.31848,1.03203
147.701,21.0091,-0.000670002,0.31639,1.0318
148.301,21.0668,-0.00067,0.31541,1.03157
148.901,21.12442,-0.00067,0.31093,1.03134
149.501,21.18177,-0.00067,0.31061,1.03112
150.101,21.2393,-0.0006699716,0.31436,1.03089
150.701,21.29711,-0.001500016,0.32064,1.03066
151.301,21.3548,-0.000815945,0.32512,1.03043
151.901,21.4126,-0.0003301217,0.33342,1.0302
152.501,21.47029,-0.00033,0.3433,1.02997
153.101,21.52789,-0.0003298878,0.35118,1.02974
153.701,21.58569,0.000152889,0.36403,1.02951
154.301,21.64313,-0.000670954,0.3744,1.02927
154.901,21.70058,-0.001337998,0.38853,1.02904
155.501,21.75806,-0.001329986,0.40266,1.02881
156.101,21.81543,-0.00133,0.41719,1.02857
156.701,21.873,-0.00133152,0.43302,1.02834
157.301,21.93051,-0.000999302,0.4544,1.0281
157.901,21.98828,-0.0010001,0.47467,1.02787
158.501,22.04614,-0.00151144,0.49899,1.02763
159.101,22.1038,0.00121561,0.52442,1.02739
159.701,22.16153,0.0007266862,0.55464,1.02715
160.301,22.21932,-0.0003969107,0.58617,1.02692
160.901,22.277,-0.0014399,0.62176,1.02668
161.501,22.33502,-0.00272538,0.66252,1.02644
162.101,22.3928,-0.002524959,0.70531,1.0262
162.701,22.45055,-0.00142999,0.75314,1.02596
163.301,22.50861,-0.00143,0.80258,1.02571
163.901,22.5666,-0.00143001,0.8542,1.02547
164.501,22.62482,-0.001453672,0.90393,1.02523
165.101,22.68303,-0.0027478,0.95387,1.02499
165.701,22.7415,-0.001766465,0.99488,1.02474
166.301,22.79985,-0.00307056,1.02435,1.0245
166.901,22.85843,-0.001471549,1.02486,1.02426
167.501,22.9166,-0.00143001,0.97809,1.02401
168.101,22.9744,-0.00134858,0.88909,1.02376
168.701,23.03204,-0.00174864,0.77518,1.02352
169.301,23.08952,-0.001759989,0.66601,1.02327
169.901,23.14678,-0.001534194,0.58257,1.02302
170.501,23.20385,-0.001440187,0.5257,1.02278
171.101,23.26067,-0.001097577,0.48112,1.02253
171.701,23.3173,-0.001110026,0.45334,1.02228
172.301,23.3741,-0.001109971,0.4316,1.02203
172.901,23.43111,-0.00109069,0.41531,1.02178
173.501,23.48834,-0.001898224,0.40498,1.02153
174.101,23.54576,-0.001099778,0.39777,1.02128
174.701,23.60347,-0.001100003,0.39312,1.02102
175.301,23.6608,-0.001102023,0.38986,1.02077
175.901,23.718,-0.002414644,0.38586,1.02052
176.501,23.77515,-0.002419995,0.38413,1.02026
177.101,23.83229,-0.00242,0.38316,1.02001
177.701,23.88971,-0.00242004,0.38292,1.01975
178.301,23.94735,-0.00122309,0.38248,1.0195
178.901,24.00464,-0.001110068,0.38032,1.01924
179.501,24.0616,-0.00111,0.38007,1.01899
180.101,24.1187,-0.001110187,0.382,1.01873
180.701,24.1757,-0.002229347,0.38189,1.01847
181.301,24.23266,-0.003400479,0.38077,1.01821
181.901,24.28991,-0.0034,0.37949,1.01796
182.501,24.3471,-0.003398161,0.38116,1.0177
183.101,24.4044,-0.00208327,0.38123,1.01744
183.701,24.46153,-0.002090001,0.38116,1.01718
184.301,24.51869,-0.002085353,0.38122,1.01692
184.901,24.57581,-0.00308647,0.38247,1.01665
185.501,24.63242,-0.00309236,0.38157,1.01639
186.101,24.68982,-0.002419945,0.38293,1.01613
186.701,24.747,-0.00242,0.38133,1.01587
187.301,24.80451,-0.002420583,0.38138,1.0156
187.901,24.8618,-0.00274029,0.38348,1.01534
188.501,24.91893,-0.004071315,0.38162,1.01507
189.101,24.97595,-0.00407,0.38287,1.01481
189.701,25.03325,-0.004069995,0.38077,1.01454
190.301,25.0905,-0.004068276,0.38078,1.01428
190.901,25.14785,-0.003407878,0.38185,1.01401
191.501,25.20514,-0.003409998,0.38176,1.01374
192.101,25.26241,-0.00341,0.38302,1.01347
192.701,25.31964,-0.003409993,0.38311,1.0132
193.301,25.3768,-0.004461112,0.38303,1.01294
193.901,25.43391,-0.004719867,0.38299,1.01267
194.501,25.491,-0.00472,0.38329,1.0124
195.101,25.54824,-0.004719993,0.38431,1.01212
195.701,25.6054,-0.004694753,0.38338,1.01185
196.301,25.66271,-0.003395717,0.38252,1.01158
196.901,25.72008,-0.004719918,0.38218,1.01131
197.501,25.77717,-0.004720011,0.38478,1.01104
198.101,25.83425,-0.004741375,0.38231,1.01076
198.701,25.89154,-0.00406034,0.38438,1.01049
199.301,25.9489,-0.004060518,0.38632,1.01021
199.901,26.0063,-0.00541826,0.38544,1.00994
200.501,26.06374,-0.00517806,0.3851,1.00966
201.101,26.12095,-0.002766682,0.38734,1.00939
201.701,26.17821,-0.00274999,0.38515,1.00911
202.301,26.23497,-0.002814605,0.38395,1.00883
202.901,26.292,-0.00407039,0.38543,1.00856
203.501,26.349,-0.00407,0.38402,1.00828
204.101,26.40607,-0.00407,0.38725,1.008
204.701,26.464,-0.004070381,0.38837,1.00772
205.301,26.52122,-0.00298805,0.38841,1.00744
205.901,26.5784,-0.0027321,0.38875,1.00716
206.501,26.63543,-0.003409567,0.38771,1.00688
207.101,26.69257,-0.00341,0.39095,1.0066
207.701,26.74956,-0.00341,0.388,1.00631
208.301,26.80725,-0.00341,0.38973,1.00603
208.901,26.86427,-0.00341,0.38924,1.00575
209.501,26.9213,-0.00341,0.38985,1.00547
210.101,26.9784,-0.00341,0.38804,1.00518
210.701,27.03527,-0.00341,0.38801,1.0049
211.301,27.0924,-0.003410174,0.38974,1.00461
211.901,27.14955,-0.00277046,0.3904,1.00433
212.501,27.20686,-0.004064423,0.39025,1.00404
213.101,27.2643,-0.004060002,0.39212,1.00375
213.701,27.32129,-0.004059678,0.39125,1.00347
214.301,27.37835,-0.00337774,0.39016,1.00318
214.901,27.4356,-0.00339998,0.39019,1.00289
215.501,27.4927,-0.0034,0.39279,1.0026
216.101,27.5498,-0.0034,0.3936,1.00231
216.701,27.6069,-0.0034,0.39229,1.00202
217.301,27.6639,-0.003400055,0.39228,1.00173
217.901,27.721,-0.00343648,0.39415,1.00144
218.501,27.77798,-0.00471851,0.39008,1.00115
219.101,27.83478,-0.00408764,0.3918,1.00086
219.701,27.8914,-0.002690072,0.39329,1.00056
220.301,27.94843,-0.004010346,0.39267,1.00027
220.901,28.00592,-0.004069942,0.39489,0.99998
221.501,28.06353,-0.00407,0.39368,0.99968
222.101,28.12095,-0.004069994,0.39467,0.99939
222.701,28.17816,-0.004269575,0.39362,0.99909
223.301,28.23521,-0.005046624,0.39345,0.9988
223.901,28.29225,-0.004076338,0.39287,0.9985
224.501,28.34921,-0.003136135,0.39555,0.99821
225.101,28.40618,-0.003079842,0.39608,0.99791
225.701,28.4632,-0.004002623,0.39421,0.99761
226.301,28.5201,-0.004399757,0.39575,0.99731
226.901,28.57716,-0.00438332,0.39476,0.99702
227.501,28.63435,-0.004389996,0.39299,0.99672
228.101,28.6914,-0.00439,0.39541,0.99642
228.701,28.74858,-0.00439,0.39462,0.99612
229.301,28.80575,-0.004391924,0.39263,0.99582
229.901,28.86305,-0.005716852,0.3935,0.99552
230.501,28.9203,-0.006700635,0.39511,0.99521
231.101,28.97761,-0.005380439,0.39267,0.99491
231.701,29.0348,-0.005383381,0.39662,0.99461
232.301,29.09191,-0.004070939,0.39367,0.99431
232.901,29.1491,-0.004067114,0.39269,0.994
233.501,29.20628,-0.005050883,0.3925,0.9937
234.101,29.2634,-0.00505,0.39287,0.99339
234.701,29.32045,-0.00505,0.39423,0.99309
235.301,29.37752,-0.00505,0.39479,0.99278
235.901,29.43461,-0.00505,0.39373,0.99248
236.501,29.49183,-0.00505,0.39428,0.99217
237.101,29.5491,-0.005049994,0.39543,0.99186
237.701,29.60635,-0.00501452,0.39387,0.99156
238.301,29.6636,-0.005378883,0.39304,0.99125
238.901,29.72076,-0.004057288,0.39398,0.99094
239.501,29.77792,-0.003980455,0.39418,0.99063
240.101,29.8351,-0.005379877,0.39477,0.99032
240.701,29.89215,-0.00538004,0.39616,0.99001
241.301,29.94925,-0.005356354,0.39427,0.9897
241.901,30.0063,-0.006369765,0.39435,0.98939
242.501,30.06343,-0.00637,0.397,0.98908
243.101,30.1205,-0.00637,0.39599,0.98876
243.701,30.1776,-0.00637,0.39754,0.98845
244.301,30.2343,-0.00637,0.39649,0.98814
244.901,30.2916,-0.006370002,0.3952,0.98783
245.501,30.3492,-0.006368503,0.39669,0.98751
246.101,30.4063,-0.007669793,0.39634,0.9872
246.701,30.4637,-0.007679995,0.39808,0.98688
247.301,30.52079,-0.00768,0.39803,0.98657
247.901,30.57791,-0.00767857,0.39844,0.98625
248.501,30.63536,-0.00635382,0.39738,0.98593
249.101,30.6924,-0.007714676,0.39907,0.98562
249.701,30.7495,-0.008669836,0.39638,0.9853
250.301,30.8068,-0.008738219,0.39417,0.98498
250.901,30.86383,-0.00695781,0.39698,0.98466
251.501,30.92121,-0.00701999,0.39632,0.98434
252.101,30.9783,-0.00702,0.39781,0.98403
252.701,31.03555,-0.007029321,0.39704,0.98371
253.301,31.0923,-0.0073494,0.39771,0.98339
253.901,31.14953,-0.007350001,0.39814,0.98306
254.501,31.20679,-0.00735684,0.39884,0.98274
255.101,31.26398,-0.00801185,0.39825,0.98242
255.701,31.32129,-0.00801,0.39935,0.9821
256.301,31.37835,-0.00801,0.3979,0.98178
256.901,31.43556,-0.008008656,0.39859,0.98145
257.501,31.4925,-0.00736701,0.39783,0.98113
258.101,31.5496,-0.00735,0.39992,0.98081
258.701,31.6069,-0.00735,0.39986,0.98048
259.301,31.66432,-0.007350557,0.40191,0.98016
259.901,31.72135,-0.007674154,0.39953,0.97983
260.501,31.77875,-0.007680003,0.39845,0.9795
261.101,31.8361,-0.00768,0.40213,0.97918
261.701,31.89347,-0.00768,0.40164,0.97885
262.301,31.951,-0.007680355,0.4008,0.97852
262.901,32.00835,-0.00899062,0.40181,0.9782
263.501,32.06564,-0.008999859,0.39958,0.97787
264.101,32.123,-0.0075865,0.40241,0.97754
264.701,32.18019,-0.007679999,0.4012,0.97721
265.301,32.23746,-0.007614931,0.40296,0.97688
265.901,32.29473,-0.008334091,0.40174,0.97655
266.501,32.35185,-0.00965865,0.40216,0.97622
267.101,32.40934,-0.009055071,0.40221,0.97589
267.701,32.4664,-0.008339807,0.4032,0.97556
268.301,32.52355,-0.00834,0.40356,0.97522
268.901,32.58082,-0.008339999,0.40416,0.97489
269.501,32.638,-0.008343563,0.40511,0.97456
270.101,32.6954,-0.009333885,0.40457,0.97423
270.701,32.75275,-0.009329801,0.40276,0.97389
271.301,32.8102,-0.009996664,0.40236,0.97356
271.901,32.86762,-0.009233338,0.4047,0.97322
272.501,32.92496,-0.008747511,0.40648,0.97289
273.101,32.98218,-0.01131354,0.406,0.97255
273.701,33.03934,-0.01130936,0.40669,0.97221
274.301,33.0966,-0.009985161,0.40628,0.97188
274.901,33.15378,-0.009989858,0.40604,0.97154
275.501,33.21099,-0.01033633,0.40653,0.9712
276.101,33.2683,-0.01097652,0.40786,0.97087
276.701,33.3257,-0.009671673,0.40905,0.97053
277.301,33.3831,-0.009676532,0.4096,0.97019
277.901,33.4406,-0.01097989,0.41175,0.96985
278.501,33.49787,-0.01129998,0.41077,0.96951
279.101,33.55523,-0.01261847,0.41114,0.96917
279.701,33.61242,-0.01225825,0.41299,0.96883
280.301,33.66975,-0.01291164,0.41464,0.96849
280.901,33.72688,-0.01523431,0.41592,0.96814
281.501,33.78425,-0.01383045,0.41358,0.9678
282.101,33.84166,-0.01311919,0.4157,0.96746
282.701,33.8988,-0.01317002,0.41834,0.96712
283.301,33.9561,-0.01315101,0.42006,0.96677
283.901,34.01336,-0.01266714,0.41945,0.96643
284.501,34.0706,-0.0138302,0.4215,0.96609
285.101,34.12811,-0.01507421,0.42268,0.96574
285.701,34.18542,-0.01514992,0.42383,0.9654
286.301,34.24297,-0.01512043,0.42403,0.96505
286.901,34.3003,-0.01714554,0.42665,0.9647
287.501,34.3577,-0.01659741,0.42867,0.96436
288.101,34.415,-0.01645695,0.42927,0.96401
288.701,34.4726,-0.01647076,0.43232,0.96366
289.301,34.53,-0.01744924,0.43444,0.96331
289.901,34.58736,-0.0193489,0.4336,0.96297
290.501,34.64477,-0.02055765,0.43594,0.96262
291.101,34.7021,-0.01958859,0.43657,0.96227
291.701,34.75953,-0.01930718,0.43781,0.96192
292.301,34.81708,-0.01930371,0.438,0.96157
292.901,34.87441,-0.02163607,0.43979,0.96122
293.501,34.93195,-0.02325848,0.43964,0.96087
294.101,34.9895,-0.02325986,0.44181,0.96052
294.701,35.0469,-0.02455457,0.44399,0.96016
295.301,35.1044,-0.02460242,0.44531,0.95981
295.901,35.1618,-0.02590035,0.44692,0.95946
296.501,35.21932,-0.02590914,0.4474,0.95911
297.101,35.27701,-0.02721211,0.4491,0.95875
297.701,35.33429,-0.02853786,0.44972,0.9584
298.301,35.3919,-0.02987954,0.44955,0.95804
298.901,35.44935,-0.02980686,0.4513,0.95769
299.501,35.5068,-0.03115988,0.45476,0.95733
300.101,35.56456,-0.03107522,0.45291,0.95698
300.701,35.6222,-0.03133895,0.45594,0.95662
301.301,35.67978,-0.03246904,0.45457,0.95627
301.901,35.7375,-0.03321483,0.45789,0.95591
302.501,35.79517,-0.03495066,0.45877,0.95555
303.101,35.85282,-0.03769311,0.46078,0.95519
303.701,35.91033,-0.03918779,0.46244,0.95484
304.301,35.96778,-0.03908827,0.46348,0.95448
304.901,36.0253,-0.04042984,0.4624,0.95412
305.501,36.08292,-0.04179489,0.46472,0.95376
306.101,36.14055,-0.04211166,0.46535,0.9534
306.701,36.19826,-0.04339285,0.46735,0.95304
307.301,36.25578,-0.0457049,0.46585,0.95268
307.901,36.31333,-0.04673509,0.47026,0.95232
308.501,36.3705,-0.04738086,0.46825,0.95195
309.101,36.4281,-0.04950643,0.46961,0.95159
309.701,36.48574,-0.05142292,0.46945,0.95123
310.301,36.54351,-0.05282145,0.47181,0.95087
310.901,36.6015,-0.05540856,0.47345,0.9505
311.501,36.6589,-0.05672057,0.47168,0.95014
312.101,36.71637,-0.05804391,0.47207,0.94978
312.701,36.77365,-0.06044369,0.47145,0.94941
313.301,36.8313,-0.06227967,0.4734,0.94905
313.901,36.88882,-0.06517784,0.47161,0.94868
314.501,36.9465,-0.06817588,0.47155,0.94831
315.101,37.00432,-0.06982413,0.47111,0.94795
315.701,37.06217,-0.07235941,0.46885,0.94758
316.301,37.11975,-0.07556293,0.46663,0.94721
316.901,37.17735,-0.07753017,0.46608,0.94685
317.501,37.2351,-0.08044607,0.46099,0.94648
318.101,37.2926,-0.08348197,0.46017,0.94611
318.701,37.35011,-0.08677647,0.45589,0.94574
319.301,37.40767,-0.09011587,0.45116,0.94537
319.901,37.4653,-0.09346527,0.44419,0.945
320.501,37.5229,-0.09785679,0.44107,0.94463
321.101,37.5807,-0.10223,0.43663,0.94426
321.701,37.6386,-0.10599,0.44305,0.94389
322.301,37.69617,-0.11087,0.44991,0.94352
322.901,37.7541,-0.11596,0.4605,0.94315
323.501,37.8118,-0.1203,0.47852,0.94278
324.101,37.86959,-0.12413,0.49166,0.94241
324.701,37.9275,-0.12872,0.50891,0.94203
325.301,37.9855,-0.13275,0.52698,0.94166
325.901,38.04337,-0.13875,0.54599,0.94129
326.501,38.10127,-0.14428,0.56585,0.94091
327.101,38.15918,-0.14909,0.58512,0.94054
327.701,38.21717,-0.15538,0.60867,0.94016
328.301,38.27513,-0.16088,0.62979,0.93979
328.901,38.33305,-0.16728,0.6555,0.93941
329.501,38.39072,-0.17319,0.67649,0.93904
330.101,38.4486,-0.17987,0.70023,0.93866
330.701,38.50662,-0.18653,0.72468,0.93828
331.301,38.56454,-0.19453,0.74657,0.93791
331.901,38.62274,-0.20308,0.77267,0.93753
332.501,38.68052,-0.21102,0.79541,0.93715
333.101,38.7386,-0.21962,0.82135,0.93677
333.701,38.79676,-0.22733,0.84666,0.93639
334.301,38.85479,-0.23621,0.8728,0.93602
334.901,38.9129,-0.2446,0.90104,0.93564
335.501,38.97084,-0.25467,0.93143,0.93526
336.101,39.02896,-0.26566,0.96002,0.93488
336.701,39.08724,-0.27704,0.99203,0.9345
337.301,39.14547,-0.28734,1.02632,0.93411
337.901,39.2039,-0.29964,1.06235,0.93373
338.501,39.262,-0.31108,1.09825,0.93335
339.101,39.3202,-0.32374,1.13404,0.93297
339.701,39.37852,-0.33801,1.17937,0.93259
340.301,39.43675,-0.35266,1.21249,0.9322
340.901,39.49528,-0.36642,1.23029,0.93182
341.501,39.55356,-0.38194,1.26328,0.93144
342.101,39.61169,-0.39685,1.29955,0.93105
342.701,39.6697,-0.41244,1.34028,0.93067
343.301,39.7277,-0.42833,1.3739,0.93028
343.901,39.7862,-0.44434,1.42727,0.9299
344.501,39.84503,-0.46191,1.47918,0.92951
345.101,39.9037,-0.47943,1.53986,0.92913
345.701,39.96257,-0.49804,1.60292,0.92874
346.301,40.02111,-0.51489,1.68589,0.92835
346.901,40.07991,-0.53678,1.77235,0.92797
347.501,40.13886,-0.55905,1.87298,0.92758
348.101,40.1978,-0.58489,1.97523,0.92719
348.701,40.25667,-0.61133,2.08524,0.9268
349.301,40.3157,-0.6414,2.19727,0.92641
349.901,40.37469,-0.67232,2.31345,0.92602
350.501,40.4339,-0.70486,2.4345,0.92563
351.101,40.4932,-0.73814,2.559,0.92524
351.701,40.5525,-0.77746,2.68626,0.92485
352.301,40.61197,-0.81696,2.81214,0.92446
352.901,40.67154,-0.85806,2.94405,0.92407
353.501,40.73111,-0.90253,3.07374,0.92368
354.101,40.7909,-0.94677,3.20834,0.92329
354.701,40.85034,-0.9952,3.33734,0.9229
355.301,40.90996,-1.04627,3.4702,0.92251
355.901,40.96953,-1.09686,3.60084,0.92211
356.501,41.0294,-1.15041,3.72583,0.92172
357.101,41.08916,-1.20643,3.85646,0.92133
357.701,41.1492,-1.26431,3.98206,0.92093
358.301,41.209,-1.32473,4.10711,0.92054
358.901,41.26889,-1.38522,4.22636,0.92014
359.501,41.3288,-1.44899,4.341,0.91975
360.101,41.38865,-1.51328,4.44967,0.91935
360.701,41.4485,-1.58306,4.55507,0.91896
361.301,41.5083,-1.65013,4.65469,0.91856
361.901,41.56797,-1.72015,4.74588,0.91817
362.501,41.62766,-1.78896,4.83004,0.91777
363.101,41.68724,-1.86212,4.90883,0.91737
363.701,41.74703,-1.93459,4.97966,0.91697
364.301,41.80616,-2.00944,5.03824,0.91658
364.901,41.86557,-2.08197,5.0866,0.91618
365.501,41.9249,-2.15976,5.12658,0.91578
366.101,41.98446,-2.23278,5.15195,0.91538
366.701,42.0438,-2.31093,5.16964,0.91498
367.301,42.10303,-2.38618,5.1782,0.91458
367.901,42.16203,-2.46694,5.1678,0.91418
368.501,42.22116,-2.54051,5.13689,0.91378
369.101,42.2794,-2.61794,5.0924,0.91338
369.701,42.3376,-2.68627,5.03195,0.91298
370.301,42.39573,-2.76479,4.95546,0.91258
370.901,42.454,-2.8352,4.85761,0.91218
371.501,42.5123,-2.90739,4.73829,0.91177
372.101,42.5705,-2.97593,4.60482,0.91137
372.701,42.62834,-3.04079,4.45381,0.91097
373.301,42.68612,-3.10743,4.28249,0.91057
373.901,42.74366,-3.16804,4.099,0.91016
374.501,42.8008,-3.22749,3.89289,0.90976
375.101,42.85758,-3.2855,3.65114,0.90935
375.701,42.91415,-3.3422,3.39003,0.90895
376.301,42.97057,-3.38882,3.12544,0.90854
376.901,43.02683,-3.43283,2.84888,0.90814
377.501,43.08266,-3.4751,2.57495,0.90773
378.101,43.1385,-3.5097,2.30013,0.90733
378.701,43.19421,-3.54404,2.03036,0.90692
379.301,43.24981,-3.57361,1.77584,0.90652
379.901,43.30539,-3.59966,1.53244,0.90611
380.501,43.3609,-3.62603,1.31569,0.9057
381.101,43.41637,-3.64698,1.12047,0.90529
381.701,43.47198,-3.66523,0.94639,0.90489
382.301,43.5278,-3.68113,0.78843,0.90448
382.901,43.5836,-3.69471,0.65395,0.90407
383.501,43.63945,-3.7086,0.54498,0.90366
384.101,43.69515,-3.71828,0.45302,0.90325
384.701,43.75122,-3.72649,0.38517,0.90284
385.301,43.80747,-3.73364,0.32933,0.90243
385.901,43.86421,-3.73995,0.28746,0.90202
386.501,43.92103,-3.74666,0.25745,0.90161
387.101,43.9778,-3.75137,0.23016,0.9012
387.701,44.03463,-3.75538,0.2085,0.90079
388.301,44.09158,-3.76001,0.19541,0.90038
388.901,44.14873,-3.76173,0.18207,0.89996
389.501,44.2059,-3.76485,0.17003,0.89955
390.101,44.26334,-3.76795,0.16273,0.89914
390.701,44.32097,-3.77088,0.15105,0.89873
391.301,44.37855,-3.77403,0.14689,0.89831
391.901,44.4362,-3.77734,0.13782,0.8979
392.501,44.49388,-3.7787,0.13533,0.89748
393.101,44.55144,-3.78012,0.12922,0.89707
393.701,44.6092,-3.7831,0.12688,0.89666
394.301,44.6668,-3.78572,0.12321,0.89624
394.901,44.7247,-3.78733,0.11929,0.89582
395.501,44.78253,-3.78852,0.11657,0.89541
396.101,44.8405,-3.78999,0.11265,0.89499
396.701,44.89848,-3.79124,0.11361,0.89458
397.301,44.95641,-3.79323,0.11057,0.89416
397.901,45.01432,-3.79322,0.11016,0.89374
398.501,45.07222,-3.79458,0.10758,0.89333
399.101,45.13027,-3.79734,0.10748,0.89291
399.701,45.1884,-3.79859,0.10693,0.89249
400.301,45.24662,-3.80009,0.10804,0.89207
400.901,45.30502,-3.80127,0.10769,0.89165
401.501,45.3632,-3.80259,0.10802,0.89123
402.101,45.42142,-3.8039,0.10637,0.89082
402.701,45.47965,-3.80491,0.10618,0.8904
403.301,45.53787,-3.80595,0.1059,0.88998
403.901,45.59623,-3.8072,0.10591,0.88956
404.501,45.65468,-3.80851,0.10655,0.88914
405.101,45.71312,-3.80879,0.10839,0.88871
405.701,45.77166,-3.81056,0.10884,0.88829
406.301,45.83018,-3.8105,0.10917,0.88787
406.901,45.8885,-3.81183,0.10911,0.88745
407.501,45.9468,-3.81314,0.11161,0.88703
408.101,46.00523,-3.81439,0.11283,0.88661
408.701,46.06365,-3.81587,0.11397,0.88618
409.301,46.12233,-3.81705,0.1129,0.88576
409.901,46.1809,-3.8188,0.11423,0.88534
410.501,46.23935,-3.81841,0.11484,0.88491
411.101,46.2977,-3.82019,0.11466,0.88449
411.701,46.3564,-3.82193,0.11804,0.88407
412.301,46.41496,-3.82109,0.11806,0.88364
412.901,46.47368,-3.82363,0.11993,0.88322
413.501,46.53229,-3.82232,0.12226,0.88279
414.101,46.59078,-3.82577,0.12214,0.88237
414.701,46.64948,-3.82659,0.12303,0.88194
415.301,46.70816,-3.82628,0.12462,0.88151
415.901,46.76662,-3.8276,0.13046,0.88109
416.501,46.8253,-3.82752,0.12998,0.88066
417.101,46.88378,-3.83013,0.13192,0.88023
417.701,46.94236,-3.83019,0.13477,0.87981
418.301,47.00105,-3.83156,0.13644,0.87938
418.901,47.0597,-3.83288,0.13758,0.87895
419.501,47.11858,-3.83419,0.13933,0.87852
420.101,47.17713,-3.83329,0.14097,0.87809
420.701,47.23573,-3.8341,0.14677,0.87767
421.301,47.29428,-3.83674,0.14674,0.87724
421.901,47.35282,-3.83813,0.14929,0.87681
422.501,47.41147,-3.83825,0.15175,0.87638
423.101,47.47007,-3.83946,0.15275,0.87595
423.701,47.5286,-3.84068,0.15435,0.87552
424.301,47.5873,-3.84198,0.15608,0.87509
424.901,47.6458,-3.84341,0.15958,0.87466
425.501,47.7044,-3.84473,0.1611,0.87423
426.101,47.76299,-3.84609,0.16392,0.87379
426.701,47.82176,-3.84735,0.16568,0.87336
427.301,47.88047,-3.84867,0.16746,0.87293
427.901,47.939,-3.84868,0.16877,0.8725
428.501,47.9976,-3.84982,0.16789,0.87207
429.101,48.05636,-3.85003,0.17089,0.87163
429.701,48.11513,-3.85136,0.17431,0.8712
430.301,48.17405,-3.85336,0.17522,0.87077
430.901,48.2329,-3.85461,0.17511,0.87033
431.501,48.29169,-3.85657,0.17744,0.8699
432.101,48.35045,-3.85826,0.18043,0.86946
432.701,48.40911,-3.85886,0.18049,0.86903
433.301,48.46801,-3.85997,0.18186,0.86859
433.901,48.5269,-3.86028,0.18296,0.86816
434.501,48.5857,-3.86281,0.18507,0.86772
435.101,48.64465,-3.86278,0.18707,0.86729
435.701,48.7037,-3.86489,0.18614,0.86685
436.301,48.76271,-3.86693,0.18573,0.86642
436.901,48.8215,-3.86818,0.1878,0.86598
437.501,48.88038,-3.8682,0.19211,0.86554
438.101,48.9392,-3.8682,0.19237,0.8651
438.701,48.9983,-3.8695,0.19225,0.86467
439.301,49.05748,-3.87083,0.19189,0.86423
439.901,49.11681,-3.87217,0.19276,0.86379
440.501,49.17563,-3.87345,0.19441,0.86335
441.101,49.23464,-3.87478,0.19465,0.86291
441.701,49.29358,-3.87495,0.19638,0.86248
442.301,49.35236,-3.87694,0.19924,0.86204
442.901,49.41144,-3.87802,0.20065,0.8616
443.501,49.47035,-3.87872,0.19927,0.86116
444.101,49.5291,-3.88004,0.19911,0.86072
444.701,49.58788,-3.88224,0.20337,0.86028
445.301,49.64667,-3.88347,0.20525,0.85984
445.901,49.70537,-3.88536,0.20562,0.8594
446.501,49.76444,-3.88681,0.20589,0.85896
447.101,49.82329,-3.88672,0.2071,0.85851
447.701,49.88214,-3.88789,0.21013,0.85807
448.301,49.941,-3.88947,0.21054,0.85763
448.901,50,-3.89046,0.21297,0.85719
449.501,50.05907,-3.89207,0.21205,0.85675
450.101,50.11795,-3.89334,0.2125,0.8563
450.701,50.17713,-3.89461,0.2142,0.85586
451.301,50.23615,-3.89601,0.21717,0.85542
451.901,50.2956,-3.89748,0.21466,0.85497
452.501,50.35479,-3.89878,0.2162,0.85453
453.101,50.41377,-3.89938,0.21822,0.85409
453.701,50.47279,-3.90079,0.22088,0.85364
454.301,50.53168,-3.9021,0.22065,0.8532
454.901,50.59055,-3.90486,0.22316,0.85275
455.501,50.64972,-3.90615,0.22264,0.85231
456.101,50.70882,-3.90743,0.2259,0.85186
456.701,50.768,-3.90877,0.22422,0.85142
457.301,50.82719,-3.91011,0.22324,0.85097
457.901,50.88626,-3.91153,0.2281,0.85053
458.501,50.9452,-3.91417,0.22768,0.85008
459.101,51.00439,-3.91556,0.2338,0.84963
459.701,51.06347,-3.91692,0.23411,0.84919
460.301,51.12249,-3.9198,0.23054,0.84874
460.901,51.18169,-3.92178,0.2323,0.84829
461.501,51.2404,-3.9226,0.2327,0.84784
462.101,51.29951,-3.92391,0.23253,0.8474
462.701,51.35843,-3.92676,0.23253,0.84695
463.301,51.41746,-3.92812,0.23293,0.8465
463.901,51.47678,-3.9289,0.2351,0.84605
464.501,51.5358,-3.93133,0.23605,0.8456
465.101,51.59517,-3.93267,0.23518,0.84515
465.701,51.65449,-3.93392,0.23747,0.8447
466.301,51.7135,-3.93601,0.2366,0.84425
466.901,51.77259,-3.93805,0.23374,0.8438
467.501,51.8316,-3.93929,0.23765,0.84335
468.101,51.89051,-3.94071,0.23625,0.8429
468.701,51.94944,-3.94198,0.23595,0.84245
469.301,52.00863,-3.94343,0.23656,0.842
469.901,52.06766,-3.94347,0.23793,0.84155
470.501,52.12692,-3.94624,0.23868,0.8411
471.101,52.18627,-3.94621,0.2388,0.84065
471.701,52.24548,-3.94812,0.23942,0.8402
472.301,52.3045,-3.94891,0.23529,0.83974
472.901,52.3635,-3.95024,0.23916,0.83929
473.501,52.42257,-3.95161,0.23753,0.83884
474.101,52.48189,-3.95285,0.23773,0.83839
474.701,52.5411,-3.95394,0.23814,0.83793
475.301,52.60018,-3.9555,0.23775,0.83748
475.901,52.65935,-3.95649,0.23588,0.83703
476.501,52.7186,-3.95782,0.23728,0.83657
477.101,52.7777,-3.95779,0.23409,0.83612
477.701,52.83687,-3.95845,0.23741,0.83566
478.301,52.89585,-3.95879,0.23903,0.83521
478.901,52.9551,-3.95979,0.23733,0.83475
479.501,53.0144,-3.96111,0.23533,0.8343
480.101,53.07362,-3.96242,0.23432,0.83384
480.701,53.1328,-3.96241,0.23709,0.83339
481.301,53.1919,-3.96342,0.23918,0.83293
481.901,53.25099,-3.96341,0.23891,0.83248
482.501,53.3101,-3.96308,0.23797,0.83202
483.101,53.3696,-3.96373,0.23564,0.83156
483.701,53.42886,-3.96373,0.23692,0.83111
484.301,53.48826,-3.96373,0.23843,0.83065
484.901,53.547,-3.96504,0.23827,0.83019
485.501,53.606,-3.9667,0.24269,0.82974
486.101,53.6649,-3.96645,0.23996,0.82928
486.701,53.72413,-3.96571,0.23844,0.82882
487.301,53.78344,-3.96527,0.24061,0.82836
487.901,53.84276,-3.96527,0.24012,0.8279
488.501,53.90212,-3.96526,0.24397,0.82745
489.101,53.9613,-3.96701,0.246,0.82699
489.701,54.0208,-3.96724,0.24567,0.82653
490.301,54.08,-3.96724,0.24982,0.82607
490.901,54.13913,-3.9679,0.25001,0.82561
491.501,54.1982,-3.96857,0.25278,0.82515
492.101,54.25675,-3.96855,0.25284,0.82469
492.701,54.31579,-3.96922,0.25632,0.82423
493.301,54.37485,-3.96922,0.25614,0.82377
493.901,54.434,-3.96921,0.26439,0.82331
494.501,54.4929,-3.96907,0.27378,0.82285
495.101,54.5516,-3.96922,0.2872,0.82239
495.701,54.61035,-3.96922,0.29547,0.82193
496.301,54.66915,-3.97051,0.30873,0.82146
496.901,54.72812,-3.97054,0.31188,0.821
497.501,54.7874,-3.96923,0.31113,0.82054
498.101,54.8467,-3.97055,0.31542,0.82008
498.701,54.90616,-3.97179,0.31409,0.81962
499.301,54.9654,-3.97053,0.31622,0.81915
499.901,55.02463,-3.97055,0.31601,0.81869
500.501,55.0841,-3.97185,0.31976,0.81823
501.101,55.1436,-3.97048,0.32279,0.81776
501.701,55.20318,-3.97053,0.32319,0.8173
502.301,55.26259,-3.97052,0.32467,0.81684
502.901,55.32213,-3.97152,0.32354,0.81637
503.501,55.3813,-3.97152,0.32631,0.81591
504.101,55.4405,-3.97037,0.32735,0.81545
504.701,55.5004,-3.96998,0.33016,0.81498
505.301,55.56009,-3.97063,0.3299,0.81452
505.901,55.6198,-3.97031,0.33353,0.81405
506.501,55.6797,-3.97031,0.33257,0.81359
507.101,55.7394,-3.97064,0.33417,0.81312
507.701,55.79925,-3.97064,0.33749,0.81266
508.301,55.85885,-3.97064,0.33266,0.81219
508.901,55.91842,-3.97098,0.33769,0.81172
509.501,55.9779,-3.97097,0.33569,0.81126
510.101,56.03754,-3.97097,0.33944,0.81079
510.701,56.09715,-3.97162,0.34314,0.81032
511.301,56.15676,-3.97163,0.3448,0.80986
511.901,56.2164,-3.97163,0.34971,0.80939
512.501,56.27561,-3.97163,0.34918,0.80892
513.101,56.3351,-3.97131,0.3523,0.80846
513.701,56.3944,-3.96999,0.35557,0.80799
514.301,56.45397,-3.9713,0.35755,0.80752
514.901,56.51347,-3.97131,0.3599,0.80705
515.501,56.5731,-3.9713,0.35944,0.80658
516.101,56.63255,-3.97229,0.36434,0.80612
516.701,56.692,-3.97229,0.36574,0.80565
517.301,56.75141,-3.97229,0.3686,0.80518
517.901,56.81078,-3.97229,0.36861,0.80471
518.501,56.8705,-3.97229,0.37274,0.80424
519.101,56.9301,-3.97229,0.37227,0.80377
519.701,56.98978,-3.97097,0.3764,0.8033
520.301,57.04909,-3.97097,0.37692,0.80283
520.901,57.10858,-3.97097,0.37987,0.80236
521.501,57.16806,-3.97097,0.38076,0.80189
522.101,57.2276,-3.97097,0.38039,0.80142
522.701,57.2875,-3.97097,0.3812,0.80095
523.301,57.34704,-3.97104,0.38633,0.80048
523.901,57.40662,-3.97031,0.38408,0.80001
524.501,57.46621,-3.97031,0.38736,0.79954
525.101,57.5258,-3.97164,0.38982,0.79907
525.701,57.5853,-3.97195,0.38847,0.7986
526.301,57.6448,-3.97208,0.39133,0.79812
526.901,57.7042,-3.96998,0.39214,0.79765
527.501,57.7637,-3.97179,0.39138,0.79718
528.101,57.8232,-3.97306,0.39435,0.79671
528.701,57.8826,-3.97232,0.39283,0.79623
529.301,57.9421,-3.97296,0.39291,0.79576
529.901,58.0019,-3.97174,0.39484,0.79529
530.501,58.0617,-3.97312,0.39724,0.79482
531.101,58.12152,-3.97304,0.39459,0.79434
531.701,58.18101,-3.97174,0.39505,0.79387
532.301,58.2406,-3.97075,0.39328,0.7934
532.901,58.3002,-3.97206,0.39588,0.79292
533.501,58.3597,-3.97206,0.39625,0.79245
534.101,58.41976,-3.97206,0.39849,0.79197
534.701,58.4797,-3.97106,0.40058,0.7915
535.301,58.53963,-3.97207,0.40107,0.79103
535.901,58.59966,-3.97207,0.40012,0.79055
536.501,58.65947,-3.97206,0.40324,0.79008
537.101,58.71925,-3.97206,0.40249,0.7896
537.701,58.7789,-3.97206,0.40457,0.78913
538.301,58.8385,-3.97206,0.40296,0.78865
538.901,58.8982,-3.97139,0.40612,0.78817
539.501,58.9579,-3.9714,0.40237,0.7877
540.101,59.0178,-3.96855,0.40564,0.78722
540.701,59.07773,-3.97298,0.40663,0.78675
541.301,59.13749,-3.97294,0.40692,0.78627
541.901,59.1973,-3.97432,0.40844,0.78579
542.501,59.257,-3.97166,0.40996,0.78532
543.101,59.3169,-3.97163,0.40925,0.78484
543.701,59.37692,-3.97163,0.40814,0.78436
544.301,59.43675,-3.97275,0.4122,0.78389
544.901,59.49678,-3.97262,0.41286,0.78341
545.501,59.5563,-3.97267,0.41351,0.78293
546.101,59.61591,-3.9713,0.41209,0.78245
546.701,59.6755,-3.9713,0.41532,0.78198
547.301,59.7351,-3.97139,0.4134,0.7815
547.901,59.79506,-3.97163,0.41611,0.78102
548.501,59.8549,-3.97285,0.41739,0.78054
549.101,59.91522,-3.97284,0.41772,0.78006
549.701,59.9755,-3.97193,0.41729,0.77958
550.301,60.0359,-3.97185,0.4209,0.77911
550.901,60.09626,-3.97185,0.41974,0.77863
551.501,60.1561,-3.97183,0.42048,0.77815
552.101,60.21603,-3.97119,0.41808,0.77767
552.701,60.2759,-3.97051,0.42272,0.77719
553.301,60.3356,-3.97053,0.42306,0.77671
553.901,60.39566,-3.97053,0.4198,0.77623
554.501,60.45564,-3.97053,0.42461,0.77575
555.101,60.5158,-3.97164,0.42436,0.77527
555.701,60.57558,-3.97185,0.42479,0.77479
556.301,60.63544,-3.97046,0.42665,0.77431
556.901,60.69529,-3.97054,0.42845,0.77383
557.501,60.75524,-3.97054,0.42677,0.77335
558.101,60.8153,-3.97121,0.42828,0.77287
558.701,60.87542,-3.96989,0.42832,0.77238
559.301,60.9354,-3.96987,0.42874,0.7719
559.901,60.99521,-3.97032,0.4307,0.77142
560.501,61.05509,-3.96988,0.43082,0.77094
561.101,61.1146,-3.96994,0.43179,0.77046
561.701,61.1745,-3.9712,0.43329,0.76998
562.301,61.2344,-3.97183,0.43312,0.76949
562.901,61.29455,-3.97185,0.43456,0.76901
563.501,61.35459,-3.97185,0.43531,0.76853
564.101,61.41443,-3.97185,0.43632,0.76805
564.701,61.4741,-3.97185,0.44087,0.76756
565.301,61.53389,-3.97043,0.43775,0.76708
565.901,61.59364,-3.97053,0.44193,0.7666
566.501,61.65356,-3.97053,0.43901,0.76612
567.101,61.7134,-3.97054,0.44256,0.76563
567.701,61.7731,-3.97044,0.44225,0.76515
568.301,61.83289,-3.97056,0.44379,0.76466
568.901,61.89264,-3.97053,0.44455,0.76418
569.501,61.95255,-3.97055,0.44584,0.7637
570.101,62.0123,-3.97053,0.44549,0.76321
570.701,62.07204,-3.97053,0.44946,0.76273
571.301,62.13169,-3.97053,0.45089,0.76224
571.901,62.1913,-3.97185,0.44948,0.76176
572.501,62.25091,-3.97185,0.45281,0.76128
573.101,62.31063,-3.97185,0.45188,0.76079
573.701,62.3704,-3.97185,0.45254,0.76031
574.301,62.4307,-3.97251,0.45283,0.75982
574.901,62.4907,-3.9701,0.45512,0.75934
575.501,62.55064,-3.97009,0.45567,0.75885
576.101,62.61068,-3.97074,0.45667,0.75836
576.701,62.6707,-3.97175,0.45632,0.75788
577.301,62.7308,-3.97174,0.45508,0.75739
577.901,62.7908,-3.97032,0.45597,0.75691
578.501,62.85079,-3.97167,0.45862,0.75642
579.101,62.911,-3.97163,0.45725,0.75594
579.701,62.97129,-3.97163,0.45865,0.75545
580.301,63.03175,-3.97177,0.46192,0.75496
580.901,63.0915,-3.97168,0.46064,0.75448
581.501,63.1517,-3.97237,0.45968,0.75399
582.101,63.2119,-3.9727,0.46375,0.7535
582.701,63.2726,-3.9727,0.46328,0.75302
583.301,63.333,-3.97251,0.46544,0.75253
583.901,63.3933,-3.97251,0.46723,0.75204
584.501,63.45344,-3.97251,0.46767,0.75155
585.101,63.51367,-3.97251,0.4676,0.75107
585.701,63.57366,-3.97271,0.46706,0.75058
586.301,63.63386,-3.97349,0.46798,0.75009
586.901,63.69405,-3.97349,0.46958,0.7496
587.501,63.75416,-3.97347,0.47043,0.74911
588.101,63.81419,-3.97218,0.47167,0.74863
588.701,63.8741,-3.97135,0.47458,0.74814
589.301,63.934,-3.97062,0.47106,0.74765
589.901,63.994,-3.97218,0.47665,0.74716
590.501,64.05412,-3.97218,0.47675,0.74667
591.101,64.11407,-3.97285,0.47638,0.74618
591.701,64.17402,-3.97284,0.47867,0.74569
592.301,64.2341,-3.97284,0.47774,0.74521
592.901,64.29393,-3.97186,0.47952,0.74472
593.501,64.35427,-3.97152,0.4815,0.74423
594.101,64.41426,-3.97152,0.48099,0.74374
594.701,64.47452,-3.97225,0.48176,0.74325
595.301,64.5347,-3.97317,0.48455,0.74276
595.901,64.59481,-3.97317,0.48409,0.74227
596.501,64.6549,-3.97184,0.48692,0.74178
597.101,64.71489,-3.97185,0.48603,0.74129
597.701,64.7749,-3.97185,0.48758,0.7408
598.301,64.83485,-3.97185,0.48717,0.74031
598.901,64.89491,-3.97258,0.49092,0.73982
599.501,64.95479,-3.97251,0.4917,0.73933
600.101,65.01491,-3.97314,0.49454,0.73884
600.701,65.07486,-3.9718,0.49429,0.73835
601.301,65.13485,-3.97185,0.49545,0.73785
601.901,65.19497,-3.97185,0.49574,0.73736
602.501,65.25508,-3.97185,0.49823,0.73687
603.101,65.31523,-3.97185,0.49971,0.73638
603.701,65.37545,-3.97139,0.50222,0.73589
604.301,65.43548,-3.97214,0.50404,0.7354
604.901,65.49576,-3.9713,0.50663,0.73491
605.501,65.55592,-3.9711,0.50816,0.73441
606.101,65.61616,-3.97313,0.50469,0.73392
606.701,65.67625,-3.97184,0.50567,0.73343
607.301,65.73652,-3.97185,0.50924,0.73294
607.901,65.79666,-3.97185,0.50909,0.73245
608.501,65.85682,-3.97185,0.51136,0.73195
609.101,65.9169,-3.97185,0.51314,0.73146
609.701,65.97716,-3.97185,0.51477,0.73097
610.301,66.03735,-3.97185,0.52223,0.73048
610.901,66.09755,-3.97185,0.51948,0.72998
611.501,66.15783,-3.97177,0.52309,0.72949
612.101,66.2179,-3.97186,0.52233,0.729
612.701,66.27829,-3.97185,0.521,0.72851
613.301,66.3385,-3.97053,0.52428,0.72801
613.901,66.39876,-3.97053,0.52399,0.72752
614.501,66.45867,-3.9714,0.52581,0.72703
615.101,66.5188,-3.97185,0.52431,0.72653
615.701,66.57889,-3.97087,0.52689,0.72604
616.301,66.63936,-3.97054,0.52819,0.72554
616.901,66.69976,-3.97185,0.52949,0.72505
617.501,66.7597,-3.97283,0.53298,0.72456
618.101,66.82,-3.97152,0.53507,0.72406
618.701,66.88042,-3.97152,0.5337,0.72357
619.301,66.9413,-3.97187,0.53774,0.72307
619.901,67.00187,-3.97282,0.53905,0.72258
620.501,67.0621,-3.97283,0.54121,0.72209
621.101,67.12219,-3.97283,0.54242,0.72159
621.701,67.18253,-3.97283,0.54468,0.7211
622.301,67.24275,-3.97151,0.54573,0.7206
622.901,67.30304,-3.97152,0.54574,0.72011
623.501,67.3633,-3.97053,0.54605,0.71961
624.101,67.42341,-3.97013,0.54795,0.71912
624.701,67.4838,-3.97152,0.5517,0.71862
625.301,67.54397,-3.97284,0.55195,0.71813
625.901,67.6042,-3.97284,0.55004,0.71763
626.501,67.66413,-3.97284,0.55388,0.71714
627.101,67.7242,-3.97285,0.55224,0.71664
627.701,67.7843,-3.9735,0.55012,0.71615
628.301,67.84477,-3.97328,0.55573,0.71565
628.901,67.90547,-3.97131,0.55713,0.71515
629.501,67.9661,-3.97286,0.55885,0.71466
630.101,68.02681,-3.97285,0.56002,0.71416
630.701,68.08713,-3.97284,0.55973,0.71367
631.301,68.14744,-3.97284,0.56164,0.71317
631.901,68.20779,-3.97284,0.56276,0.71267
632.501,68.26788,-3.97284,0.56514,0.71218
633.101,68.32813,-3.97284,0.56613,0.71168
633.701,68.38838,-3.97284,0.56565,0.71119
634.301,68.4487,-3.97284,0.56563,0.71069
634.901,68.50939,-3.97415,0.5706,0.71019
635.501,68.56976,-3.97415,0.56979,0.7097
636.101,68.63033,-3.97414,0.57016,0.7092
636.701,68.69078,-3.97283,0.57336,0.7087
637.301,68.75097,-3.97316,0.57156,0.7082
637.901,68.8114,-3.97316,0.57144,0.70771
638.501,68.87179,-3.97316,0.57437,0.70721
639.101,68.93217,-3.97316,0.57412,0.70671
639.701,68.99261,-3.97184,0.57594,0.70622
640.301,69.05274,-3.97185,0.57758,0.70572
640.901,69.11301,-3.97185,0.57795,0.70522
641.501,69.1733,-3.97185,0.58292,0.70472
642.101,69.23354,-3.97185,0.58009,0.70423
642.701,69.2939,-3.97216,0.5828,0.70373
643.301,69.3541,-3.9735,0.58379,0.70323
643.901,69.41416,-3.9735,0.58594,0.70273
644.501,69.4744,-3.97252,0.58856,0.70223
645.101,69.5348,-3.97151,0.59012,0.70174
645.701,69.5954,-3.97273,0.5924,0.70124
646.301,69.6558,-3.97415,0.59282,0.70074
646.901,69.71606,-3.97415,0.59479,0.70024
647.501,69.77603,-3.97358,0.59784,0.69974
648.101,69.8363,-3.97284,0.59833,0.69925
648.701,69.8963,-3.97284,0.60288,0.69875
649.301,69.95661,-3.97414,0.60266,0.69825
649.701,69.99699,-3.97415,0.60764,0.69792