File: 01_Data/PLA_3D_Printer_Filament/STA/N2/10K_min/PLA_STA_N2_10KData_220503_R1.csv
##Temp./Â°C,Time/min,Mass loss(subtr.2)/mg,DSC(subtr.2)/(mW/mg),Sensit./(uV/mW)
49.98,10.00917,0.00198,-0.006938796,1.06046
50.58,10.73104,0.0002102335,0.02593133,1.06034
51.18,10.92168,0.001123537,0.04966426,1.06021
51.78,11.06408,0.002417889,0.07172371,1.06009
52.38,11.18328,0.002348375,0.08950315,1.05996
52.98,11.2887,0.002563184,0.10399,1.05984
53.58,11.38505,0.00144919,0.1211,1.05971
54.18,11.47524,0.00240501,0.13148,1.05958
54.78,11.56138,0.00177398,0.14248,1.05945
55.38,11.64286,0.00215159,0.15294,1.05932
55.98,11.72177,0.0007930331,0.16318,1.0592
56.58,11.7985,0.001039623,0.16948,1.05906
57.18,11.87363,0.000887216,0.17772,1.05893
57.78,11.94684,0.001519578,0.18736,1.0588
58.38,12.01855,0.001108244,0.19309,1.05867
58.98,12.08962,0.002209981,0.20079,1.05854
59.58,12.15921,0.002637134,0.20601,1.0584
60.18,12.22821,0.002884684,0.21208,1.05827
60.78,12.2959,0.001753913,0.22085,1.05813
61.38,12.36384,0.001072807,0.23061,1.058
61.98,12.43137,0.001200975,0.24371,1.05786
62.58,12.49872,0.002507721,0.25836,1.05773
63.18,12.5654,0.001544478,0.28464,1.05759
63.78,12.63199,0.0023931,0.31751,1.05745
64.38,12.69868,0.00253007,0.358,1.05731
64.98,12.76507,0.003063829,0.3913,1.05717
65.58,12.831,0.00406133,0.40364,1.05703
66.18,12.89668,0.003907842,0.3995,1.05689
66.78,12.96215,0.002726555,0.37352,1.05675
67.38,13.02731,0.00274215,0.3476,1.05661
67.98,13.09245,0.002873743,0.32494,1.05646
68.58,13.157,0.00293094,0.30994,1.05632
69.18,13.22184,0.002755535,0.29952,1.05618
69.78,13.28628,0.001431142,0.28879,1.05603
70.38,13.35086,0.002220202,0.28401,1.05588
70.98,13.4149,0.0028279,0.27875,1.05574
71.58,13.4787,0.00274987,0.27304,1.05559
72.18,13.5423,0.002750292,0.27207,1.05544
72.78,13.60622,0.001359948,0.26769,1.0553
73.38,13.6694,0.001440285,0.26754,1.05515
73.98,13.7327,0.00284618,0.26491,1.055
74.58,13.79571,0.002757537,0.26412,1.05485
75.18,13.8588,0.002058157,0.26305,1.0547
75.78,13.92146,0.00134765,0.26348,1.05455
76.38,13.98388,0.00274643,0.26381,1.05439
76.98,14.0461,0.002743636,0.26142,1.05424
77.58,14.10866,0.001720415,0.26185,1.05409
78.18,14.1707,0.001379442,0.26135,1.05393
78.78,14.23275,0.002730498,0.25959,1.05378
79.38,14.29468,0.001429572,0.25675,1.05362
79.98,14.3564,0.001423469,0.25495,1.05347
80.58,14.41857,0.00273982,0.25006,1.05331
81.18,14.48042,0.002715498,0.24774,1.05315
81.78,14.54207,0.003722579,0.24313,1.05299
82.38,14.6034,0.002416351,0.23975,1.05284
82.98,14.6648,0.002480079,0.23265,1.05268
83.58,14.7253,0.002012311,0.2254,1.05252
84.18,14.78559,0.00636464,0.21484,1.05236
84.78,14.84619,0.00514341,0.20516,1.0522
85.38,14.90678,0.005330741,0.19518,1.05203
85.98,14.9679,0.00692156,0.18401,1.05187
86.58,15.0285,0.00692,0.17266,1.05171
87.18,15.0886,0.006919471,0.15972,1.05154
87.78,15.1489,0.005599708,0.15017,1.05138
88.38,15.2089,0.004288666,0.13752,1.05121
88.98,15.26878,0.004280005,0.12506,1.05105
89.58,15.32836,0.00428207,0.11909,1.05088
90.18,15.38843,0.003630167,0.10913,1.05072
90.78,15.4483,0.004307191,0.10742,1.05055
91.38,15.5084,0.00297349,0.10436,1.05038
91.98,15.5679,0.002972227,0.10466,1.05021
92.58,15.62734,0.001658444,0.10831,1.05004
93.18,15.6868,0.002289027,0.1132,1.04987
93.78,15.74605,0.001651757,0.12108,1.0497
94.38,15.80533,0.001608992,0.12921,1.04953
94.98,15.8645,0.001677266,0.1408,1.04936
95.58,15.92407,0.002637436,0.15182,1.04918
96.18,15.98356,0.002319168,0.16229,1.04901
96.78,16.04332,0.00267556,0.17339,1.04884
97.38,16.1024,0.002336025,0.18278,1.04866
97.98,16.16188,0.002959242,0.19592,1.04849
98.58,16.22103,0.00302955,0.20692,1.04831
99.18,16.27998,0.00297121,0.21529,1.04813
99.78,16.33942,0.004947602,0.22607,1.04796
100.38,16.3988,0.00493966,0.23474,1.04778
100.98,16.45797,0.00363098,0.24317,1.0476
101.58,16.51754,0.00267183,0.25044,1.04742
102.18,16.57664,-0.0004367424,0.25658,1.04724
102.78,16.6358,-0.000439424,0.26213,1.04706
103.38,16.695,-0.0007587948,0.268,1.04688
103.98,16.754,-0.001566951,0.27422,1.0467
104.58,16.8131,-2.54707e-05,0.27938,1.04651
105.18,16.87187,0.0005070796,0.28298,1.04633
105.78,16.93086,0.00185986,0.28585,1.04615
106.38,16.98994,0.001600676,0.29232,1.04596
106.98,17.04891,0.00187014,0.29602,1.04578
107.58,17.1076,0.003205724,0.30145,1.04559
108.18,17.16655,0.00303292,0.30326,1.04541
108.78,17.22547,0.0022228,0.30771,1.04522
109.38,17.28464,0.00318023,0.31067,1.04503
109.98,17.3441,0.003180002,0.31295,1.04485
110.58,17.403,0.003185413,0.31777,1.04466
111.18,17.46173,0.00187157,0.32146,1.04447
111.78,17.52019,0.002615319,0.32345,1.04428
112.38,17.57859,0.003190108,0.32454,1.04409
112.98,17.63723,0.001947867,0.32425,1.0439
113.58,17.69601,0.001870251,0.32406,1.0437
114.18,17.75476,0.00166929,0.32305,1.04351
114.78,17.81348,0.00186994,0.32115,1.04332
115.38,17.8721,0.001869977,0.32113,1.04313
115.98,17.9306,0.001841095,0.32036,1.04293
116.58,17.98933,0.002850052,0.32201,1.04274
117.18,18.04796,0.00285823,0.32414,1.04254
117.78,18.10654,0.001544697,0.32471,1.04235
118.38,18.16519,0.0001794896,0.32472,1.04215
118.98,18.224,0.000542522,0.32489,1.04195
119.58,18.28269,0.001876885,0.32715,1.04175
120.18,18.3411,0.001870001,0.32812,1.04156
120.78,18.3994,0.00186983,0.32953,1.04136
121.38,18.4576,0.00222237,0.32839,1.04116
121.98,18.51601,0.002190039,0.32979,1.04096
122.58,18.57465,0.00222397,0.33185,1.04076
123.18,18.63317,0.0006468491,0.33529,1.04055
123.78,18.69154,0.0005500109,0.33553,1.04035
124.38,18.75009,0.0005523163,0.33593,1.04015
124.98,18.80835,0.001867977,0.33493,1.03995
125.58,18.86646,0.001869999,0.33904,1.03974
126.18,18.92459,0.001874845,0.33947,1.03954
126.78,18.9823,0.001111688,0.34137,1.03933
127.38,19.04051,0.000880028,0.34191,1.03913
127.98,19.09879,0.000880528,0.34201,1.03892
128.58,19.1573,0.0005492545,0.34578,1.03871
129.18,19.21574,0.0001924121,0.34459,1.0385
129.78,19.27413,0.000196916,0.34554,1.0383
130.38,19.33243,0.001875058,0.34328,1.03809
130.98,19.39082,0.00276476,0.34764,1.03788
131.58,19.44896,0.00131984,0.34987,1.03767
132.18,19.50694,0.001051735,0.35018,1.03746
132.78,19.56508,0.0009903086,0.35098,1.03725
133.38,19.6233,-2.168815e-06,0.35141,1.03703
133.98,19.68151,-0.0003299376,0.35142,1.03682
134.58,19.73979,-0.0003300146,0.35133,1.03661
135.18,19.7977,-5.9852e-05,0.3517,1.03639
135.78,19.85582,0.0009769873,0.35083,1.03618
136.38,19.91381,0.00135426,0.35124,1.03597
136.98,19.9719,0.001311718,0.34889,1.03575
137.58,20.0301,0.002127881,0.3517,1.03553
138.18,20.08814,0.00183716,0.35421,1.03532
138.78,20.1463,-0.0002452909,0.35399,1.0351
139.38,20.2045,-0.001530441,0.35327,1.03488
139.98,20.26255,-0.00152832,0.35489,1.03466
140.58,20.32059,-0.00143635,0.35563,1.03444
141.18,20.37854,-0.0005410138,0.35762,1.03422
141.78,20.4364,-0.000540002,0.35465,1.034
142.38,20.49427,-0.0005395303,0.35613,1.03378
142.98,20.55208,-0.00171941,0.35326,1.03356
143.58,20.61005,-0.0005561432,0.35204,1.03334
144.18,20.66789,-0.0005458587,0.34903,1.03312
144.78,20.7259,-0.001962504,0.3485,1.03289
145.38,20.78368,-0.000373271,0.34724,1.03267
145.98,20.84149,-0.00164043,0.34257,1.03245
146.58,20.89921,-0.00164,0.33636,1.03222
147.18,20.957,-0.001634078,0.33484,1.032
147.78,21.01426,-0.00295807,0.3303,1.03177
148.38,21.07177,-0.00191292,0.32879,1.03154
148.98,21.12957,-0.001969995,0.32557,1.03131
149.58,21.1872,-0.001970009,0.32617,1.03109
150.18,21.24536,-0.00200197,0.32742,1.03086
150.78,21.30307,-0.00293869,0.33323,1.03063
151.38,21.36104,-0.0014481,0.34105,1.0304
151.98,21.41875,-0.00273819,0.34837,1.03017
152.58,21.4763,-0.004047591,0.35677,1.02994
153.18,21.53396,-0.00160662,0.36697,1.02971
153.78,21.5914,-0.001698789,0.38005,1.02947
154.38,21.64894,-0.002839927,0.39335,1.02924
154.98,21.70649,-0.004055708,0.40684,1.02901
155.58,21.76416,-0.00546688,0.422,1.02878
156.18,21.82215,-0.004156405,0.43682,1.02854
156.78,21.87999,-0.004159999,0.45272,1.02831
157.38,21.9377,-0.004159914,0.47415,1.02807
157.98,21.9954,-0.00356547,0.49421,1.02783
158.58,22.05302,-0.001271762,0.51911,1.0276
159.18,22.1106,-0.00262836,0.5462,1.02736
159.78,22.16851,-0.003959612,0.57555,1.02712
160.38,22.22652,-0.005260369,0.60906,1.02688
160.98,22.28441,-0.005603223,0.64757,1.02665
161.58,22.34215,-0.004549845,0.68627,1.02641
162.18,22.40002,-0.004600772,0.73458,1.02617
162.78,22.4579,-0.003942864,0.78234,1.02592
163.38,22.51613,-0.004271539,0.83512,1.02568
163.98,22.5743,-0.004270001,0.8849,1.02544
164.58,22.63243,-0.004269979,0.9361,1.0252
165.18,22.69049,-0.00424773,0.98424,1.02496
165.78,22.74863,-0.003940858,1.02757,1.02471
166.38,22.80676,-0.004649922,1.04744,1.02447
166.98,22.865,-0.004600032,1.04169,1.02422
167.58,22.92323,-0.0046,0.98773,1.02398
168.18,22.98106,-0.0046,0.8852,1.02373
168.78,23.03858,-0.00459997,0.76182,1.02349
169.38,23.09574,-0.004149166,0.65735,1.02324
169.98,23.1528,-0.0039406,0.57846,1.02299
170.58,23.2099,-0.004266604,0.52205,1.02274
171.18,23.26698,-0.004884915,0.48747,1.02249
171.78,23.32403,-0.00489839,0.45743,1.02225
172.38,23.3808,-0.005247756,0.43991,1.022
172.98,23.4379,-0.0062335,0.42422,1.02174
173.58,23.495,-0.006337151,0.41586,1.02149
174.18,23.55205,-0.00364464,0.40953,1.02124
174.78,23.60933,-0.003620371,0.40417,1.02099
175.38,23.66629,-0.004928745,0.39864,1.02074
175.98,23.72329,-0.00361201,0.39814,1.02048
176.58,23.78031,-0.00361,0.397,1.02023
177.18,23.8374,-0.003611175,0.39357,1.01998
177.78,23.89442,-0.006010405,0.39426,1.01972
178.38,23.95158,-0.006249955,0.39322,1.01947
178.98,24.00861,-0.00596445,0.39232,1.01921
179.58,24.06576,-0.004929659,0.39336,1.01895
180.18,24.12292,-0.00493,0.393,1.0187
180.78,24.17987,-0.00493,0.39149,1.01844
181.38,24.23694,-0.004930841,0.39385,1.01818
181.98,24.29392,-0.00629348,0.39342,1.01792
182.58,24.35109,-0.007568128,0.39278,1.01766
183.18,24.4084,-0.007559985,0.39077,1.0174
183.78,24.46572,-0.007558044,0.39338,1.01714
184.38,24.52294,-0.006242966,0.39324,1.01688
184.98,24.58009,-0.006241624,0.39239,1.01662
185.58,24.63714,-0.00673743,0.39278,1.01636
186.18,24.69429,-0.006433035,0.39228,1.01609
186.78,24.75156,-0.00592648,0.39344,1.01583
187.38,24.80859,-0.00723865,0.39243,1.01557
187.98,24.86557,-0.007239997,0.39387,1.0153
188.58,24.92269,-0.00724,0.39347,1.01504
189.18,24.9797,-0.00723999,0.39252,1.01477
189.78,25.03726,-0.00728061,0.39324,1.01451
190.38,25.09419,-0.007321119,0.39713,1.01424
190.98,25.1513,-0.00722887,0.39714,1.01397
191.58,25.20835,-0.007869299,0.3973,1.01371
192.18,25.26521,-0.007889959,0.39644,1.01344
192.78,25.32241,-0.00789,0.39517,1.01317
193.38,25.37944,-0.00789,0.39787,1.0129
193.98,25.43627,-0.007896383,0.39782,1.01263
194.58,25.4936,-0.006571792,0.39632,1.01236
195.18,25.5508,-0.00701111,0.39934,1.01209
195.78,25.6079,-0.008903607,0.39863,1.01182
196.38,25.6652,-0.00885386,0.39922,1.01155
196.98,25.72213,-0.00756962,0.39677,1.01127
197.58,25.77883,-0.00757,0.39955,1.011
198.18,25.83592,-0.00756865,0.39927,1.01073
198.78,25.89304,-0.006925329,0.39955,1.01045
199.38,25.9502,-0.00756256,0.40057,1.01018
199.98,26.00768,-0.00756,0.39724,1.0099
200.58,26.06486,-0.007553122,0.39853,1.00963
201.18,26.12203,-0.008878234,0.40126,1.00935
201.78,26.17931,-0.008879969,0.4022,1.00907
202.38,26.2366,-0.008193828,0.40334,1.0088
202.98,26.29379,-0.008229973,0.40082,1.00852
203.58,26.3509,-0.00822874,0.40377,1.00824
204.18,26.40803,-0.009550868,0.40382,1.00796
204.78,26.4652,-0.00953299,0.4039,1.00768
205.38,26.5224,-0.008878168,0.4012,1.0074
205.98,26.5794,-0.00888115,0.40357,1.00712
206.58,26.6364,-0.01018899,0.40344,1.00684
207.18,26.6935,-0.01019,0.40335,1.00656
207.78,26.75055,-0.01019014,0.40286,1.00628
208.38,26.8076,-0.008851899,0.4041,1.00599
208.98,26.8646,-0.009174222,0.40346,1.00571
209.58,26.9216,-0.01020025,0.40431,1.00543
210.18,26.97809,-0.01019906,0.40406,1.00514
210.78,27.0351,-0.009210215,0.40465,1.00486
211.38,27.092,-0.01018239,0.40349,1.00457
211.98,27.1496,-0.008878956,0.40613,1.00429
212.58,27.2072,-0.009209676,0.40507,1.004
213.18,27.2645,-0.01020396,0.40862,1.00372
213.78,27.3217,-0.0102,0.40722,1.00343
214.38,27.3787,-0.0102,0.40768,1.00314
214.98,27.4359,-0.01023349,0.40749,1.00285
215.58,27.49295,-0.01248299,0.40875,1.00256
216.18,27.54989,-0.01248998,0.40674,1.00227
216.78,27.6066,-0.01257769,0.40864,1.00198
217.38,27.6636,-0.01118014,0.40787,1.00169
217.98,27.72077,-0.0111806,0.40952,1.0014
218.58,27.7781,-0.01248501,0.40806,1.00111
219.18,27.8353,-0.01249002,0.40912,1.00082
219.78,27.8924,-0.01184559,0.41005,1.00053
220.38,27.9491,-0.01117987,0.41216,1.00023
220.98,28.0055,-0.01270441,0.40857,0.99994
221.58,28.0622,-0.01283761,0.41088,0.99965
222.18,28.11918,-0.01380998,0.41001,0.99935
222.78,28.1766,-0.01381004,0.41259,0.99906
223.38,28.2343,-0.01294001,0.41155,0.99876
223.98,28.2916,-0.01248989,0.41186,0.99846
224.58,28.34882,-0.01184582,0.41224,0.99817
225.18,28.406,-0.01322227,0.41087,0.99787
225.78,28.46309,-0.01316004,0.4113,0.99757
226.38,28.5201,-0.01316,0.41042,0.99727
226.98,28.5772,-0.01316,0.41025,0.99698
227.58,28.6342,-0.01316,0.4122,0.99668
228.18,28.69132,-0.01316006,0.40855,0.99638
228.78,28.74843,-0.01286086,0.41119,0.99608
229.38,28.8055,-0.0124999,0.41248,0.99578
229.98,28.86287,-0.0125,0.41125,0.99548
230.58,28.9199,-0.01249993,0.41299,0.99517
231.18,28.97737,-0.01385399,0.4112,0.99487
231.78,29.03458,-0.01382005,0.41024,0.99457
232.38,29.09178,-0.01384773,0.41126,0.99427
232.98,29.1492,-0.01250002,0.41145,0.99396
233.58,29.20631,-0.01250095,0.41095,0.99366
234.18,29.2635,-0.01387124,0.41067,0.99335
234.78,29.32078,-0.01382001,0.41292,0.99305
235.38,29.3781,-0.01382,0.41367,0.99274
235.98,29.4353,-0.01382037,0.41153,0.99244
236.58,29.49251,-0.01308911,0.41282,0.99213
237.18,29.5496,-0.01316,0.41194,0.99182
237.78,29.6067,-0.01428282,0.41118,0.99151
238.38,29.664,-0.01444682,0.41287,0.99121
238.98,29.72117,-0.01545202,0.41504,0.9909
239.58,29.77846,-0.01545741,0.41644,0.99059
240.18,29.8354,-0.01480867,0.41261,0.99028
240.78,29.89258,-0.01481,0.41417,0.98997
241.38,29.94967,-0.01481,0.41578,0.98966
241.98,30.00682,-0.01481,0.4149,0.98935
242.58,30.06413,-0.01481174,0.41487,0.98904
243.18,30.1215,-0.01612633,0.41517,0.98872
243.78,30.17877,-0.01612,0.41655,0.98841
244.38,30.23568,-0.01612,0.41777,0.9881
244.98,30.2925,-0.01612,0.41938,0.98778
245.58,30.34965,-0.01612,0.41775,0.98747
246.18,30.4065,-0.01612,0.41665,0.98716
246.78,30.464,-0.01612,0.41901,0.98684
247.38,30.5212,-0.01612,0.41613,0.98652
247.98,30.57832,-0.01612,0.415,0.98621
248.58,30.63567,-0.01612,0.41451,0.98589
249.18,30.6928,-0.01612,0.41663,0.98558
249.78,30.74992,-0.0161187,0.41845,0.98526
250.38,30.80736,-0.01578714,0.41712,0.98494
250.98,30.86477,-0.01612221,0.41763,0.98462
251.58,30.92212,-0.01612,0.41718,0.9843
252.18,30.9795,-0.01612,0.41745,0.98398
252.78,31.03613,-0.01612032,0.41991,0.98366
253.38,31.093,-0.01715646,0.41855,0.98334
253.98,31.15005,-0.0184139,0.41774,0.98302
254.58,31.20716,-0.01842001,0.42087,0.9827
255.18,31.26509,-0.01842,0.42026,0.98238
255.78,31.3223,-0.01842588,0.42052,0.98206
256.38,31.3794,-0.01874992,0.42191,0.98173
256.98,31.43647,-0.01875001,0.42106,0.98141
257.58,31.49375,-0.01877313,0.42365,0.98109
258.18,31.5511,-0.02005969,0.42392,0.98076
258.78,31.60841,-0.01871606,0.42384,0.98044
259.38,31.6658,-0.02006994,0.42746,0.98011
259.98,31.72291,-0.01935612,0.42614,0.97979
260.58,31.7801,-0.01875006,0.42651,0.97946
261.18,31.8372,-0.01875,0.43002,0.97914
261.78,31.8944,-0.01875179,0.42746,0.97881
262.38,31.9517,-0.02007651,0.42993,0.97848
262.98,32.00881,-0.02007,0.42982,0.97815
263.58,32.066,-0.02007,0.4279,0.97782
264.18,32.12325,-0.02006591,0.42895,0.9775
264.78,32.18025,-0.02073555,0.42976,0.97717
265.38,32.23735,-0.02203518,0.43144,0.97684
265.98,32.29479,-0.02203964,0.43233,0.97651
266.58,32.352,-0.0227558,0.43358,0.97618
267.18,32.4095,-0.02269,0.43344,0.97584
267.78,32.46671,-0.02269029,0.43387,0.97551
268.38,32.52386,-0.02373857,0.43463,0.97518
268.98,32.58135,-0.02368001,0.43656,0.97485
269.58,32.63883,-0.02368175,0.43577,0.97451
270.18,32.69603,-0.02400964,0.43642,0.97418
270.78,32.75327,-0.02421359,0.43831,0.97385
271.38,32.81044,-0.02533015,0.43717,0.97351
271.98,32.86777,-0.02533893,0.4411,0.97318
272.58,32.92523,-0.02665294,0.4405,0.97284
273.18,32.98233,-0.02665,0.44182,0.97251
273.78,33.03975,-0.02665,0.44291,0.97217
274.38,33.09698,-0.02664212,0.44458,0.97183
274.98,33.15442,-0.02680418,0.44368,0.9715
275.58,33.21178,-0.02762638,0.44487,0.97116
276.18,33.2687,-0.02895051,0.44583,0.97082
276.78,33.3262,-0.02895,0.4474,0.97048
277.38,33.3836,-0.02895,0.44792,0.97014
277.98,33.44089,-0.02895422,0.44823,0.9698
278.58,33.49844,-0.02959915,0.44947,0.96946
279.18,33.55585,-0.02960998,0.45149,0.96912
279.78,33.6132,-0.02960405,0.45256,0.96878
280.38,33.67041,-0.03222368,0.45234,0.96844
280.98,33.7277,-0.03277864,0.4564,0.9681
281.58,33.78502,-0.03363062,0.4577,0.96776
282.18,33.84228,-0.03289515,0.45635,0.96742
282.78,33.89959,-0.03420957,0.45727,0.96707
283.38,33.95682,-0.03423304,0.45859,0.96673
283.98,34.0141,-0.03553061,0.46055,0.96638
284.58,34.0713,-0.03693068,0.46134,0.96604
285.18,34.12863,-0.03685105,0.4632,0.9657
285.78,34.18595,-0.0394893,0.46499,0.96535
286.38,34.24351,-0.03947423,0.46584,0.965
286.98,34.301,-0.04079858,0.46663,0.96466
287.58,34.35843,-0.0408007,0.46727,0.96431
288.18,34.41596,-0.04212469,0.46712,0.96396
288.78,34.4733,-0.0435272,0.46833,0.96362
289.38,34.53067,-0.0435366,0.47152,0.96327
289.98,34.58787,-0.04476577,0.46768,0.96292
290.58,34.64535,-0.04607421,0.4689,0.96257
291.18,34.70278,-0.04738383,0.4694,0.96222
291.78,34.76019,-0.04873695,0.47038,0.96187
292.38,34.8179,-0.05002232,0.47365,0.96152
292.98,34.8756,-0.05038106,0.47439,0.96117
293.58,34.93336,-0.05127352,0.47785,0.96082
294.18,34.991,-0.05256561,0.47617,0.96047
294.78,35.04868,-0.05515016,0.48113,0.96012
295.38,35.10614,-0.05646486,0.48136,0.95977
295.98,35.16368,-0.05644411,0.48296,0.95941
296.58,35.22112,-0.05779998,0.48248,0.95906
297.18,35.27861,-0.05710843,0.48625,0.95871
297.78,35.33627,-0.0596442,0.48562,0.95835
298.38,35.39375,-0.06108966,0.48788,0.958
298.98,35.4513,-0.06242159,0.49162,0.95764
299.58,35.50875,-0.06371806,0.49396,0.95729
300.18,35.5662,-0.06556289,0.49226,0.95693
300.78,35.6237,-0.0664236,0.49483,0.95658
301.38,35.68127,-0.06905194,0.49805,0.95622
301.98,35.7388,-0.07160985,0.50033,0.95586
302.58,35.79634,-0.0733154,0.50665,0.9555
303.18,35.85374,-0.07525629,0.50493,0.95515
303.78,35.91114,-0.07773502,0.50664,0.95479
304.38,35.9685,-0.07916283,0.50887,0.95443
304.98,36.0261,-0.08156653,0.51015,0.95407
305.58,36.08364,-0.08302483,0.51164,0.95371
306.18,36.1413,-0.0859342,0.51591,0.95335
306.78,36.19915,-0.08621144,0.51874,0.95299
307.38,36.2566,-0.0882691,0.52095,0.95263
307.98,36.31422,-0.09062103,0.52567,0.95227
308.58,36.3718,-0.09454398,0.52446,0.95191
309.18,36.4292,-0.0961925,0.52828,0.95154
309.78,36.48708,-0.09752038,0.5319,0.95118
310.38,36.54465,-0.09890017,0.53432,0.95082
310.98,36.60244,-0.10173,0.53819,0.95046
311.58,36.66037,-0.10496,0.5423,0.95009
312.18,36.71799,-0.1086,0.54872,0.94973
312.78,36.77557,-0.11083,0.54956,0.94936
313.38,36.83318,-0.11415,0.55441,0.949
313.98,36.89062,-0.11593,0.55737,0.94863
314.58,36.94836,-0.11893,0.5621,0.94827
315.18,37.00614,-0.12224,0.5658,0.9479
315.78,37.06377,-0.12517,0.57257,0.94753
316.38,37.12162,-0.12846,0.57258,0.94717
316.98,37.1794,-0.13174,0.58248,0.9468
317.58,37.2371,-0.13469,0.58667,0.94643
318.18,37.2951,-0.13797,0.59255,0.94606
318.78,37.35281,-0.14283,0.59672,0.94569
319.38,37.41048,-0.14671,0.60395,0.94532
319.98,37.4681,-0.15292,0.60972,0.94496
320.58,37.5258,-0.15606,0.61897,0.94459
321.18,37.58348,-0.16009,0.62701,0.94421
321.78,37.64116,-0.16494,0.63427,0.94384
322.38,37.69877,-0.16889,0.6413,0.94347
322.98,37.75655,-0.17283,0.65266,0.9431
323.58,37.81435,-0.17819,0.66012,0.94273
324.18,37.87215,-0.18355,0.6706,0.94236
324.78,37.9298,-0.18786,0.68179,0.94198
325.38,37.98757,-0.19392,0.69343,0.94161
325.98,38.04547,-0.19928,0.70218,0.94124
326.58,38.1033,-0.20416,0.71357,0.94086
327.18,38.16093,-0.21058,0.72584,0.94049
327.78,38.2188,-0.21833,0.74119,0.94011
328.38,38.2765,-0.22413,0.75506,0.93974
328.98,38.33452,-0.23158,0.7712,0.93936
329.58,38.3923,-0.23929,0.78861,0.93899
330.18,38.45009,-0.24668,0.80372,0.93861
330.78,38.50799,-0.25343,0.82215,0.93823
331.38,38.56607,-0.26113,0.84128,0.93786
331.98,38.62403,-0.2694,0.85878,0.93748
332.58,38.6817,-0.27728,0.87867,0.9371
333.18,38.73961,-0.28558,0.90083,0.93672
333.78,38.79745,-0.29576,0.92139,0.93634
334.38,38.85537,-0.30443,0.94621,0.93597
334.98,38.91363,-0.31444,0.97087,0.93559
335.58,38.9718,-0.32428,0.99743,0.93521
336.18,39.0298,-0.33374,1.02416,0.93483
336.78,39.08784,-0.34647,1.05512,0.93445
337.38,39.146,-0.35958,1.08543,0.93406
337.98,39.20407,-0.37005,1.11457,0.93368
338.58,39.26232,-0.38259,1.13625,0.9333
339.18,39.32066,-0.39781,1.16871,0.93292
339.78,39.37888,-0.41083,1.20535,0.93254
340.38,39.43718,-0.42434,1.24035,0.93215
340.98,39.49538,-0.43835,1.27316,0.93177
341.58,39.5537,-0.45403,1.30518,0.93139
342.18,39.612,-0.46829,1.34498,0.931
342.78,39.67024,-0.48454,1.38862,0.93062
343.38,39.7285,-0.50028,1.43482,0.93023
343.98,39.78674,-0.51881,1.47546,0.92985
344.58,39.84506,-0.53787,1.51963,0.92946
345.18,39.90347,-0.55598,1.57157,0.92907
345.78,39.96197,-0.5765,1.64204,0.92869
346.38,40.02061,-0.59755,1.71088,0.9283
346.98,40.0794,-0.61818,1.77848,0.92791
347.58,40.13772,-0.64156,1.84663,0.92753
348.18,40.19652,-0.66197,1.93251,0.92714
348.78,40.25526,-0.68404,2.03312,0.92675
349.38,40.31386,-0.7089,2.14299,0.92636
349.98,40.37298,-0.73565,2.26001,0.92597
350.58,40.4317,-0.76611,2.3826,0.92558
351.18,40.49115,-0.7992,2.5096,0.92519
351.78,40.55036,-0.83188,2.64023,0.9248
352.38,40.60958,-0.87074,2.77434,0.92441
352.98,40.66899,-0.90765,2.9069,0.92402
353.58,40.72842,-0.9502,3.04307,0.92363
354.18,40.78803,-0.99129,3.17361,0.92324
354.78,40.84766,-1.03739,3.30712,0.92285
355.38,40.9072,-1.08237,3.4369,0.92245
355.98,40.96691,-1.13347,3.57095,0.92206
356.58,41.02653,-1.18287,3.69877,0.92167
357.18,41.08635,-1.23587,3.82708,0.92127
357.78,41.14604,-1.28822,3.95153,0.92088
358.38,41.20565,-1.34602,4.07119,0.92049
358.98,41.2654,-1.40286,4.19012,0.92009
359.58,41.3252,-1.4656,4.30258,0.9197
360.18,41.3849,-1.525,4.41445,0.9193
360.78,41.44464,-1.59082,4.51588,0.91891
361.38,41.50414,-1.65405,4.61145,0.91851
361.98,41.56405,-1.72067,4.7038,0.91811
362.58,41.62393,-1.7867,4.78817,0.91772
363.18,41.6839,-1.85637,4.86313,0.91732
363.78,41.74351,-1.9249,4.93048,0.91692
364.38,41.8029,-1.99433,4.9878,0.91652
364.98,41.86209,-2.06297,5.03266,0.91613
365.58,41.92143,-2.13583,5.07078,0.91573
366.18,41.98052,-2.2066,5.09482,0.91533
366.78,42.0398,-2.27833,5.1092,0.91493
367.38,42.0989,-2.34957,5.10607,0.91453
367.98,42.15787,-2.42104,5.09669,0.91413
368.58,42.21665,-2.49333,5.06277,0.91373
369.18,42.27541,-2.56224,5.0218,0.91333
369.78,42.334,-2.63299,4.95858,0.91293
370.38,42.39261,-2.69971,4.88481,0.91253
370.98,42.45102,-2.77106,4.79308,0.91212
371.58,42.50904,-2.83447,4.68659,0.91172
372.18,42.56713,-2.90235,4.55826,0.91132
372.78,42.62487,-2.96306,4.41199,0.91092
373.38,42.6825,-3.02941,4.23978,0.91051
373.98,42.73997,-3.0933,4.01212,0.91011
374.58,42.7972,-3.14939,3.76951,0.90971
375.18,42.85419,-3.20331,3.51927,0.9093
375.78,42.9109,-3.2508,3.26378,0.9089
376.38,42.96733,-3.29762,3.00417,0.90849
376.98,43.02352,-3.33789,2.74334,0.90809
377.58,43.0794,-3.3765,2.48429,0.90768
378.18,43.13532,-3.40917,2.2262,0.90727
378.78,43.19097,-3.44094,1.97482,0.90687
379.38,43.2468,-3.46992,1.73529,0.90646
379.98,43.30229,-3.49558,1.50982,0.90605
380.58,43.3578,-3.51919,1.30202,0.90565
381.18,43.4131,-3.53973,1.1164,0.90524
381.78,43.46857,-3.55793,0.94624,0.90483
382.38,43.52438,-3.5751,0.79192,0.90442
382.98,43.57978,-3.58993,0.65943,0.90401
383.58,43.63573,-3.60153,0.54746,0.90361
384.18,43.69175,-3.61113,0.45047,0.9032
384.78,43.7479,-3.61825,0.37888,0.90279
385.38,43.80448,-3.62437,0.31968,0.90238
385.98,43.8611,-3.6311,0.27619,0.90197
386.58,43.91753,-3.63624,0.24132,0.90156
387.18,43.97429,-3.64095,0.21312,0.90114
387.78,44.03103,-3.64646,0.18954,0.90073
388.38,44.08789,-3.65018,0.1717,0.90032
388.98,44.14498,-3.65463,0.15715,0.89991
389.58,44.202,-3.65649,0.14334,0.8995
390.18,44.2594,-3.65871,0.13194,0.89908
390.78,44.31667,-3.66251,0.12443,0.89867
391.38,44.37415,-3.66582,0.11701,0.89826
391.98,44.43152,-3.66834,0.1069,0.89784
392.58,44.48897,-3.67018,0.10118,0.89743
393.18,44.5465,-3.67141,0.09613882,0.89702
393.78,44.6038,-3.67284,0.09277364,0.8966
394.38,44.66151,-3.67293,0.08801096,0.89619
394.98,44.71946,-3.67384,0.08499222,0.89577
395.58,44.7776,-3.67561,0.07825498,0.89535
396.18,44.8357,-3.68002,0.07831587,0.89494
396.78,44.89366,-3.6812,0.07229419,0.89452
397.38,44.95162,-3.68261,0.07046109,0.89411
397.98,45.00958,-3.68392,0.07052244,0.89369
398.58,45.06766,-3.68403,0.06562872,0.89327
399.18,45.12597,-3.68549,0.06365213,0.89285
399.78,45.18415,-3.68798,0.06106946,0.89244
400.38,45.24243,-3.68916,0.05713527,0.89202
400.98,45.3007,-3.6907,0.05732277,0.8916
401.58,45.35881,-3.69323,0.05630481,0.89118
402.18,45.41731,-3.69319,0.05473243,0.89076
402.78,45.47574,-3.69454,0.05339436,0.89034
403.38,45.5341,-3.6958,0.05239905,0.88992
403.98,45.59283,-3.69676,0.05271108,0.8895
404.58,45.65108,-3.69682,0.04920072,0.88908
405.18,45.70952,-3.69817,0.04880111,0.88866
405.78,45.76789,-3.69948,0.04740787,0.88824
406.38,45.82632,-3.69949,0.04586139,0.88782
406.98,45.8849,-3.70079,0.04602924,0.8874
407.58,45.94325,-3.70237,0.04663671,0.88697
408.18,46.00181,-3.70465,0.04387583,0.88655
408.78,46.06035,-3.7051,0.04540989,0.88613
409.38,46.11898,-3.70543,0.04374595,0.88571
409.98,46.17775,-3.70639,0.0443393,0.88528
410.58,46.2363,-3.70792,0.0422388,0.88486
411.18,46.29483,-3.7088,0.04270829,0.88443
411.78,46.35342,-3.7098,0.04474471,0.88401
412.38,46.41203,-3.71029,0.04513926,0.88359
412.98,46.4707,-3.71166,0.04282239,0.88316
413.58,46.5293,-3.71298,0.04631581,0.88274
414.18,46.58791,-3.71354,0.04385328,0.88231
414.78,46.64665,-3.7155,0.04536504,0.88188
415.38,46.70533,-3.7162,0.04555523,0.88146
415.98,46.76403,-3.71777,0.04441228,0.88103
416.58,46.8227,-3.71824,0.04447581,0.8806
417.18,46.88128,-3.71824,0.04594404,0.88018
417.78,46.93994,-3.71956,0.0455135,0.87975
418.38,46.9986,-3.72087,0.04576298,0.87932
418.98,47.05729,-3.72251,0.04671511,0.8789
419.58,47.1161,-3.72383,0.04695347,0.87847
420.18,47.17488,-3.72511,0.04433896,0.87804
420.78,47.2335,-3.72518,0.04591987,0.87761
421.38,47.29238,-3.72639,0.04426619,0.87718
421.98,47.3511,-3.72647,0.04682059,0.87675
422.58,47.40967,-3.72781,0.04638499,0.87632
423.18,47.46832,-3.73001,0.04674361,0.87589
423.78,47.52685,-3.73063,0.04702668,0.87546
424.38,47.58548,-3.73182,0.04585012,0.87503
424.98,47.64431,-3.73191,0.04801938,0.8746
425.58,47.70299,-3.7358,0.04825327,0.87417
426.18,47.76164,-3.73711,0.04900651,0.87374
426.78,47.82014,-3.73745,0.04612286,0.87331
427.38,47.87912,-3.73711,0.04682096,0.87287
427.98,47.93795,-3.73841,0.04737727,0.87244
428.58,47.99714,-3.73978,0.04787867,0.87201
429.18,48.05592,-3.74109,0.05155866,0.87158
429.78,48.11462,-3.74097,0.04801456,0.87114
430.38,48.17313,-3.74256,0.04756805,0.87071
430.98,48.23196,-3.7443,0.04961113,0.87028
431.58,48.29055,-3.74494,0.04788746,0.86984
432.18,48.34988,-3.74566,0.04767691,0.86941
432.78,48.40867,-3.74698,0.04617905,0.86897
433.38,48.46744,-3.7483,0.04613071,0.86854
433.98,48.52644,-3.75004,0.04891674,0.8681
434.58,48.58522,-3.75235,0.04432768,0.86767
435.18,48.64421,-3.75179,0.04465298,0.86723
435.78,48.70285,-3.75366,0.04421999,0.86679
436.38,48.76127,-3.75469,0.04573848,0.86636
436.98,48.82029,-3.7562,0.042338,0.86592
437.58,48.87878,-3.75751,0.04337207,0.86548
438.18,48.93817,-3.75882,0.04431914,0.86505
438.78,48.99706,-3.75882,0.04283342,0.86461
439.38,49.0559,-3.76014,0.04323101,0.86417
439.98,49.11497,-3.76145,0.04121097,0.86373
440.58,49.17373,-3.76279,0.0455499,0.8633
441.18,49.2325,-3.76409,0.04510913,0.86286
441.78,49.29098,-3.7654,0.04255709,0.86242
442.38,49.34975,-3.76671,0.04175259,0.86198
442.98,49.40867,-3.76804,0.04424553,0.86154
443.58,49.4679,-3.76995,0.04359225,0.8611
444.18,49.5268,-3.7711,0.04517653,0.86066
444.78,49.5858,-3.77305,0.04611894,0.86022
445.38,49.6448,-3.77297,0.04439602,0.85978
445.98,49.70378,-3.77339,0.04461763,0.85934
446.58,49.76256,-3.77458,0.04607777,0.8589
447.18,49.82157,-3.77616,0.04479001,0.85846
447.78,49.8806,-3.77832,0.04453888,0.85801
448.38,49.93954,-3.77706,0.04488941,0.85757
448.98,49.99831,-3.77894,0.04434127,0.85713
449.58,50.0572,-3.78012,0.04437207,0.85669
450.18,50.11612,-3.78221,0.04414034,0.85625
450.78,50.1751,-3.7852,0.04385341,0.8558
451.38,50.2339,-3.78645,0.0452465,0.85536
451.98,50.29287,-3.78776,0.04515636,0.85492
452.58,50.3517,-3.78911,0.04665301,0.85447
453.18,50.41069,-3.7891,0.0448982,0.85403
453.78,50.4694,-3.79042,0.04696488,0.85358
454.38,50.528,-3.79174,0.04628997,0.85314
454.98,50.58696,-3.79305,0.04496638,0.85269
455.58,50.6459,-3.79432,0.04650637,0.85225
456.18,50.7051,-3.79703,0.04467767,0.8518
456.78,50.76395,-3.79864,0.04463713,0.85136
457.38,50.82289,-3.79989,0.04324731,0.85091
457.98,50.88195,-3.80145,0.04411295,0.85047
458.58,50.941,-3.80162,0.04417622,0.85002
459.18,51.00007,-3.80429,0.04585106,0.84957
459.78,51.0591,-3.80555,0.04402555,0.84913
460.38,51.11807,-3.80777,0.0451631,0.84868
460.98,51.17727,-3.80934,0.04384387,0.84823
461.58,51.23628,-3.81007,0.04249164,0.84778
462.18,51.29514,-3.81244,0.04350359,0.84734
462.78,51.3541,-3.81404,0.04436322,0.84689
463.38,51.413,-3.81553,0.04222546,0.84644
463.98,51.472,-3.81672,0.04040497,0.84599
464.58,51.53115,-3.81813,0.04161633,0.84554
465.18,51.5901,-3.82065,0.03905042,0.84509
465.78,51.6492,-3.82025,0.04103788,0.84464
466.38,51.7081,-3.82124,0.03965298,0.84419
466.98,51.76721,-3.82372,0.039431,0.84374
467.58,51.82592,-3.82517,0.03952556,0.84329
468.18,51.88516,-3.82684,0.04099296,0.84284
468.78,51.94406,-3.82777,0.04059426,0.84239
469.38,52.00333,-3.82934,0.03634618,0.84194
469.98,52.06268,-3.83062,0.03702999,0.84149
470.58,52.1218,-3.83176,0.03413467,0.84104
471.18,52.18125,-3.83436,0.03448348,0.84059
471.78,52.2405,-3.83619,0.03327736,0.84014
472.38,52.29918,-3.83703,0.03136226,0.83968
472.98,52.3581,-3.83703,0.03183254,0.83923
473.58,52.4172,-3.83835,0.0304084,0.83878
474.18,52.4764,-3.84098,0.02601209,0.83833
474.78,52.5363,-3.84085,0.02698615,0.83787
475.38,52.5956,-3.84234,0.02727852,0.83742
475.98,52.655,-3.8434,0.02326265,0.83697
476.58,52.71422,-3.84498,0.02309878,0.83651
477.18,52.77358,-3.84533,0.02162543,0.83606
477.78,52.83294,-3.84526,0.02124924,0.8356
478.38,52.89218,-3.84665,0.02492882,0.83515
478.98,52.95139,-3.84675,0.02013317,0.83469
479.58,53.0106,-3.84791,0.02062195,0.83424
480.18,53.06981,-3.84921,0.01701365,0.83378
480.78,53.12921,-3.84921,0.01555249,0.83333
481.38,53.18855,-3.85051,0.01680463,0.83287
481.98,53.2479,-3.85053,0.01787737,0.83242
482.58,53.3072,-3.85136,0.01589151,0.83196
483.18,53.3663,-3.85185,0.01439592,0.8315
483.78,53.4256,-3.85184,0.01307158,0.83105
484.38,53.4848,-3.85278,0.01331672,0.83059
484.98,53.5443,-3.85283,0.01490928,0.83013
485.58,53.6034,-3.85361,0.01271051,0.82968
486.18,53.6626,-3.85316,0.0114193,0.82922
486.78,53.7219,-3.85316,0.01133893,0.82876
487.38,53.7812,-3.85316,0.01181483,0.8283
487.98,53.8405,-3.85316,0.00973292,0.82784
488.58,53.8997,-3.85414,0.01029869,0.82738
489.18,53.95909,-3.85414,0.01125802,0.82693
489.78,54.01826,-3.85414,0.01187797,0.82647
490.38,54.07748,-3.85546,0.01502439,0.82601
490.98,54.13666,-3.8553,0.01393335,0.82555
491.58,54.19574,-3.85415,0.01769794,0.82509
492.18,54.25481,-3.85546,0.02083498,0.82463
492.78,54.31385,-3.85546,0.02459696,0.82417
493.38,54.37295,-3.85546,0.02723556,0.82371
493.98,54.4322,-3.85546,0.02906742,0.82325
494.58,54.4913,-3.85547,0.03004193,0.82279
495.18,54.5505,-3.85546,0.02717556,0.82233
495.78,54.60966,-3.85546,0.02586861,0.82186
496.38,54.66887,-3.85646,0.02340662,0.8214
496.98,54.72809,-3.85645,0.02203636,0.82094
497.58,54.78736,-3.85645,0.01805913,0.82048
498.18,54.84649,-3.85774,0.01524016,0.82002
498.78,54.90571,-3.85678,0.009572094,0.81955
499.38,54.9649,-3.85546,0.009767151,0.81909
499.98,55.02425,-3.85632,0.005238463,0.81863
500.58,55.0837,-3.85677,0.00137264,0.81817
501.18,55.14309,-3.85677,-0.00172523,0.8177
501.78,55.2025,-3.85677,-0.003112133,0.81724
502.38,55.2619,-3.85677,-0.006978811,0.81678
502.98,55.32136,-3.85677,-0.007861772,0.81631
503.58,55.38029,-3.85814,-0.01514843,0.81585
504.18,55.44005,-3.85809,-0.01560123,0.81538
504.78,55.49971,-3.85809,-0.02101709,0.81492
505.38,55.55972,-3.85809,-0.02342891,0.81445
505.98,55.6195,-3.85809,-0.02429848,0.81399
506.58,55.67898,-3.85809,-0.03047156,0.81352
507.18,55.7383,-3.85809,-0.03046528,0.81306
507.78,55.79786,-3.85873,-0.03637941,0.81259
508.38,55.85722,-3.85778,-0.03600243,0.81213
508.98,55.9163,-3.8581,-0.0358903,0.81166
509.58,55.9759,-3.85876,-0.03721458,0.8112
510.18,56.03556,-3.85941,-0.03290651,0.81073
510.78,56.09555,-3.85939,-0.03261643,0.81026
511.38,56.1554,-3.85875,-0.03515012,0.8098
511.98,56.21506,-3.85842,-0.03574181,0.80933
512.58,56.27429,-3.85842,-0.03327062,0.80886
513.18,56.3339,-3.85842,-0.03370779,0.80839
513.78,56.39357,-3.85842,-0.03344158,0.80793
514.38,56.45293,-3.85984,-0.03188405,0.80746
514.98,56.5129,-3.85974,-0.03014172,0.80699
515.58,56.57266,-3.85974,-0.03280245,0.80652
516.18,56.6323,-3.85974,-0.03273866,0.80605
516.78,56.6921,-3.85974,-0.03144338,0.80559
517.38,56.7517,-3.85974,-0.03191856,0.80512
517.98,56.81143,-3.85974,-0.03152567,0.80465
518.58,56.8713,-3.85974,-0.03218727,0.80418
519.18,56.93079,-3.85937,-0.03099647,0.80371
519.78,56.9904,-3.85974,-0.03148753,0.80324
520.38,57.0498,-3.85974,-0.02863658,0.80277
520.98,57.1093,-3.85974,-0.0279945,0.8023
521.58,57.1689,-3.85974,-0.02991033,0.80183
522.18,57.2284,-3.86077,-0.02888272,0.80136
522.78,57.288,-3.85974,-0.02858422,0.80089
523.38,57.34725,-3.85974,-0.02667021,0.80042
523.98,57.40655,-3.85974,-0.0270545,0.79995
524.58,57.46615,-3.85974,-0.02675418,0.79948
525.18,57.52568,-3.85974,-0.02885362,0.799
525.78,57.58571,-3.85974,-0.02852426,0.79853
526.38,57.6452,-3.85974,-0.02866935,0.79806
526.98,57.70471,-3.85977,-0.02818011,0.79759
527.58,57.76416,-3.85932,-0.02948666,0.79712
528.18,57.8235,-3.86071,-0.03032303,0.79664
528.78,57.8829,-3.85941,-0.03278691,0.79617
529.38,57.94248,-3.8581,-0.03110397,0.7957
529.98,58.0021,-3.85834,-0.02775083,0.79523
530.58,58.06185,-3.86028,-0.03179406,0.79475
531.18,58.1215,-3.86067,-0.03177794,0.79428
531.78,58.181,-3.86007,-0.02942864,0.79381
532.38,58.24035,-3.86007,-0.03262462,0.79333
532.98,58.29974,-3.86004,-0.03242347,0.79286
533.58,58.35932,-3.85941,-0.0317922,0.79239
534.18,58.41896,-3.85941,-0.02910952,0.79191
534.78,58.4786,-3.86073,-0.03102686,0.79144
535.38,58.53813,-3.85948,-0.0306958,0.79096
535.98,58.59775,-3.85941,-0.03197936,0.79049
536.58,58.6573,-3.85941,-0.03267553,0.79001
537.18,58.717,-3.86037,-0.03009347,0.78954
537.78,58.77666,-3.8604,-0.0293756,0.78906
538.38,58.8362,-3.86072,-0.03139377,0.78859
538.98,58.8958,-3.86073,-0.0301015,0.78811
539.58,58.95556,-3.86073,-0.03259156,0.78764
540.18,59.01536,-3.85844,-0.03153784,0.78716
540.78,59.0747,-3.85809,-0.03159626,0.78668
541.38,59.13377,-3.85809,-0.03388185,0.78621
541.98,59.19356,-3.85951,-0.03568534,0.78573
542.58,59.2533,-3.85941,-0.03440059,0.78525
543.18,59.3137,-3.85775,-0.03177852,0.78478
543.78,59.3737,-3.85905,-0.0317374,0.7843
544.38,59.4334,-3.86042,-0.0331554,0.78382
544.98,59.49299,-3.86051,-0.03058149,0.78335
545.58,59.5525,-3.86051,-0.03384037,0.78287
546.18,59.61209,-3.86051,-0.03037709,0.78239
546.78,59.67181,-3.86051,-0.02677395,0.78191
547.38,59.73165,-3.86051,-0.03071569,0.78143
547.98,59.79153,-3.8599,-0.0331122,0.78096
548.58,59.8514,-3.85897,-0.03184808,0.78048
549.18,59.9112,-3.85904,-0.03231581,0.78
549.78,59.971,-3.86052,-0.03109779,0.77952
550.38,60.0308,-3.8617,-0.0313441,0.77904
550.98,60.09055,-3.86039,-0.03016972,0.77856
551.58,60.15039,-3.86039,-0.03166809,0.77808
552.18,60.21009,-3.8604,-0.03484471,0.7776
552.78,60.26996,-3.86006,-0.03118755,0.77713
553.38,60.3298,-3.85936,-0.03334966,0.77665
553.98,60.38986,-3.85875,-0.03379037,0.77617
554.58,60.4498,-3.85875,-0.03666758,0.77569
555.18,60.5096,-3.86006,-0.03255222,0.77521
555.78,60.56983,-3.85875,-0.03048827,0.77472
556.38,60.6298,-3.85875,-0.03403065,0.77424
556.98,60.6899,-3.86014,-0.03348087,0.77376
557.58,60.7497,-3.8604,-0.03501069,0.77328
558.18,60.80941,-3.8604,-0.03489569,0.7728
558.78,60.869,-3.85908,-0.03584738,0.77232
559.38,60.9288,-3.85908,-0.03344098,0.77184
559.98,60.98871,-3.85908,-0.03819769,0.77136
560.58,61.04877,-3.85908,-0.03810944,0.77088
561.18,61.1089,-3.85908,-0.03949687,0.77039
561.78,61.1688,-3.85908,-0.04018422,0.76991
562.38,61.22883,-3.85908,-0.03986911,0.76943
562.98,61.2886,-3.85908,-0.04041185,0.76895
563.58,61.3483,-3.85941,-0.04103717,0.76847
564.18,61.40801,-3.85809,-0.04194062,0.76798
564.78,61.4678,-3.85809,-0.03953291,0.7675
565.38,61.52779,-3.8594,-0.03923455,0.76702
565.98,61.58791,-3.85941,-0.04075331,0.76653
566.58,61.6479,-3.85941,-0.04584435,0.76605
567.18,61.7078,-3.85941,-0.04595772,0.76557
567.78,61.76766,-3.85809,-0.04654982,0.76508
568.38,61.82742,-3.85809,-0.04620659,0.7646
568.98,61.88715,-3.85864,-0.04650168,0.76412
569.58,61.94696,-3.85875,-0.04426998,0.76363
570.18,62.0067,-3.85901,-0.04658136,0.76315
570.78,62.06651,-3.85908,-0.04689499,0.76267
571.38,62.12628,-3.85943,-0.04665118,0.76218
571.98,62.186,-3.85958,-0.04543723,0.7617
572.58,62.24555,-3.85908,-0.04684611,0.76121
573.18,62.3053,-3.8595,-0.04781207,0.76073
573.78,62.36506,-3.85974,-0.04718142,0.76024
574.38,62.425,-3.85974,-0.04795852,0.75976
574.98,62.4849,-3.85974,-0.04829266,0.75927
575.58,62.54464,-3.85974,-0.04813992,0.75879
576.18,62.60471,-3.85974,-0.05005905,0.7583
576.78,62.66441,-3.85974,-0.05137783,0.75782
577.38,62.72439,-3.86099,-0.05299741,0.75733
577.98,62.78428,-3.85967,-0.05185772,0.75684
578.58,62.8442,-3.85941,-0.05250613,0.75636
579.18,62.9045,-3.85883,-0.05475875,0.75587
579.78,62.96447,-3.85941,-0.0538722,0.75539
580.38,63.0243,-3.85941,-0.05421072,0.7549
580.98,63.0844,-3.8604,-0.05681439,0.75441
581.58,63.14427,-3.8604,-0.05309158,0.75393
582.18,63.2044,-3.85907,-0.05717819,0.75344
582.78,63.26439,-3.85908,-0.0554959,0.75295
583.38,63.32445,-3.85908,-0.05913046,0.75246
583.98,63.38439,-3.85908,-0.05786731,0.75198
584.58,63.4444,-3.85908,-0.05892252,0.75149
585.18,63.5044,-3.85908,-0.05760985,0.751
585.78,63.5642,-3.85905,-0.05930619,0.75051
586.38,63.6241,-3.8581,-0.05662086,0.75003
586.98,63.68405,-3.85941,-0.05868171,0.74954
587.58,63.74405,-3.85941,-0.06099018,0.74905
588.18,63.80452,-3.85843,-0.0620868,0.74856
588.78,63.86461,-3.85879,-0.06346859,0.74807
589.38,63.92448,-3.85997,-0.06163984,0.74759
589.98,63.98466,-3.86039,-0.06499869,0.7471
590.58,64.0447,-3.86039,-0.06286055,0.74661
591.18,64.10474,-3.86039,-0.06559129,0.74612
591.78,64.16492,-3.86039,-0.06454033,0.74563
592.38,64.22501,-3.86039,-0.06744476,0.74514
592.98,64.28511,-3.8604,-0.06510848,0.74465
593.58,64.34541,-3.85909,-0.06497085,0.74416
594.18,64.40571,-3.85963,-0.07037967,0.74367
594.78,64.466,-3.85974,-0.06957854,0.74318
595.38,64.52628,-3.85974,-0.06932173,0.74269
595.98,64.58645,-3.85974,-0.07088478,0.7422
596.58,64.64668,-3.85974,-0.07091606,0.74171
597.18,64.7067,-3.85974,-0.07175653,0.74122
597.78,64.767,-3.85974,-0.07274328,0.74073
598.38,64.82744,-3.85974,-0.07043908,0.74024
598.98,64.88763,-3.85974,-0.07013066,0.73975
599.58,64.94803,-3.85974,-0.07284784,0.73926
600.18,65.0082,-3.85974,-0.0750181,0.73877
600.78,65.06827,-3.85974,-0.07250323,0.73828
601.38,65.12831,-3.85974,-0.07351133,0.73779
601.98,65.18839,-3.85975,-0.07614767,0.7373
602.58,65.2486,-3.8604,-0.07641349,0.73681
603.18,65.30878,-3.85907,-0.07280142,0.73632
603.78,65.36917,-3.85941,-0.07421098,0.73582
604.38,65.4294,-3.86073,-0.07324813,0.73533
604.98,65.48947,-3.86073,-0.07585041,0.73484
605.58,65.54958,-3.86073,-0.07436876,0.73435
606.18,65.60972,-3.85941,-0.07579619,0.73386
606.78,65.66978,-3.86012,-0.07723992,0.73337
607.38,65.73,-3.86073,-0.07686518,0.73287
607.98,65.79008,-3.8594,-0.07578713,0.73238
608.58,65.8501,-3.85974,-0.07492703,0.73189
609.18,65.9102,-3.85974,-0.07893518,0.7314
609.78,65.97028,-3.85974,-0.07731652,0.7309
610.38,66.03059,-3.85974,-0.07808319,0.73041
610.98,66.0907,-3.85974,-0.07839248,0.72992
611.58,66.1508,-3.85974,-0.07789137,0.72943
612.18,66.21091,-3.86104,-0.08080648,0.72893
612.78,66.27108,-3.86105,-0.07712917,0.72844
613.38,66.33126,-3.86296,-0.0806858,0.72795
613.98,66.39129,-3.86262,-0.08049967,0.72745
614.58,66.45139,-3.86127,-0.08126954,0.72696
615.18,66.51161,-3.85991,-0.07766737,0.72647
615.78,66.5719,-3.85996,-0.08170497,0.72597
616.38,66.63194,-3.85996,-0.0823746,0.72548
616.98,66.6921,-3.86133,-0.07984967,0.72499
617.58,66.7523,-3.86128,-0.08071569,0.72449
618.18,66.8125,-3.86008,-0.08098486,0.724
618.78,66.87267,-3.85996,-0.08122837,0.7235
619.38,66.93252,-3.86133,-0.08180003,0.72301
619.98,66.9926,-3.86034,-0.08732035,0.72252
620.58,67.0528,-3.85996,-0.08306693,0.72202
621.18,67.11318,-3.85996,-0.0852814,0.72153
621.78,67.17355,-3.85996,-0.08618391,0.72103
622.38,67.2337,-3.86047,-0.08985285,0.72054
622.98,67.29381,-3.85938,-0.08576547,0.72004
623.58,67.35401,-3.85974,-0.08500252,0.71955
624.18,67.41424,-3.86062,-0.0844471,0.71905
624.78,67.47452,-3.86063,-0.08392431,0.71856
625.38,67.5349,-3.8604,-0.08467693,0.71806
625.98,67.59523,-3.86159,-0.08619128,0.71757
626.58,67.6555,-3.86183,-0.08391769,0.71707
627.18,67.7159,-3.86066,-0.08287663,0.71658
627.78,67.7761,-3.86061,-0.08596364,0.71608
628.38,67.83638,-3.86061,-0.08406491,0.71558
628.98,67.89673,-3.86192,-0.08466352,0.71509
629.58,67.9571,-3.86193,-0.08482704,0.71459
630.18,68.01738,-3.86193,-0.08564174,0.7141
630.78,68.07764,-3.86095,-0.08671204,0.7136
631.38,68.138,-3.86094,-0.08777503,0.71311
631.98,68.19836,-3.86094,-0.08511073,0.71261
632.58,68.25869,-3.86094,-0.08788622,0.71211
633.18,68.31897,-3.86127,-0.08679841,0.71162
633.78,68.37916,-3.86127,-0.08713703,0.71112
634.38,68.4395,-3.86226,-0.08727117,0.71062
634.98,68.5,-3.86161,-0.08844257,0.71013
635.58,68.56042,-3.8616,-0.08806987,0.70963
636.18,68.62095,-3.86097,-0.08965593,0.70913
636.78,68.6814,-3.85996,-0.08986605,0.70864
637.38,68.7418,-3.85996,-0.08697578,0.70814
637.98,68.8021,-3.85996,-0.09033258,0.70764
638.58,68.86247,-3.86129,-0.08760302,0.70715
639.18,68.92286,-3.86128,-0.08777522,0.70665
639.78,68.98336,-3.86128,-0.08662255,0.70615
640.38,69.04366,-3.86128,-0.08799638,0.70565
640.98,69.10392,-3.86128,-0.08694365,0.70516
641.58,69.16431,-3.86261,-0.08793531,0.70466
642.18,69.22463,-3.8626,-0.09251155,0.70416
642.78,69.28496,-3.86258,-0.08758164,0.70366
643.38,69.34521,-3.8616,-0.09170633,0.70317
643.98,69.4054,-3.86128,-0.08613607,0.70267
644.58,69.4655,-3.86128,-0.08735518,0.70217
645.18,69.5257,-3.86128,-0.08548037,0.70167
645.78,69.58575,-3.86117,-0.08385898,0.70117
646.38,69.646,-3.86568,-0.08714509,0.70068
646.98,69.70635,-3.86229,-0.08937953,0.70018
647.58,69.76665,-3.86094,-0.0903328,0.69968
648.18,69.827,-3.86226,-0.08913103,0.69918
648.78,69.8871,-3.86226,-0.09283197,0.69868
649.38,69.9473,-3.86226,-0.09361308,0.69818
649.88,69.9974,-3.86226,-0.08955125,0.69777