File: 01_Data/PLA_3D_Printer_Filament/STA/N2/10K_min/PLA_STA_N2_10KData_220503_R2.csv
##Temp./Â°C,Time/min,Mass loss(subtr.2)/mg,DSC(subtr.2)/(mW/mg),Sensit./(uV/mW)
49.935,10.01,0.00822,-0.000360621,1.06047
50.535,10.73639,0.008900026,0.03068838,1.06035
51.135,10.92578,0.008610721,0.05542557,1.06022
51.735,11.06603,0.008039574,0.07539473,1.0601
52.335,11.18592,0.008866742,0.093136,1.05997
52.935,11.2925,0.008932062,0.10629,1.05985
53.535,11.3893,0.00771261,0.12098,1.05972
54.135,11.47891,0.008831684,0.13135,1.05959
54.735,11.56397,0.009393229,0.14191,1.05946
55.335,11.6455,0.00749948,0.15165,1.05933
55.935,11.72458,0.00930069,0.16079,1.0592
56.535,11.80052,0.009437209,0.16721,1.05907
57.135,11.87476,0.008913009,0.1738,1.05894
57.735,11.94754,0.009048135,0.17948,1.05881
58.335,12.01978,0.009331308,0.18836,1.05868
58.935,12.09041,0.009550165,0.19196,1.05855
59.535,12.16054,0.00941722,0.19946,1.05841
60.135,12.22995,0.009101463,0.20797,1.05828
60.735,12.2988,0.009404788,0.21468,1.05814
61.335,12.36664,0.009478985,0.22362,1.05801
61.935,12.4338,0.008215108,0.2336,1.05787
62.535,12.50095,0.009357245,0.25183,1.05774
63.135,12.5675,0.008264046,0.27633,1.0576
63.735,12.63412,0.008939473,0.31085,1.05746
64.335,12.70023,0.008459696,0.35427,1.05732
64.935,12.7661,0.008442728,0.39185,1.05718
65.535,12.83188,0.00778718,0.40634,1.05704
66.135,12.8969,0.008124114,0.39305,1.0569
66.735,12.96195,0.008047779,0.36722,1.05676
67.335,13.02668,0.00942931,0.3393,1.05662
67.935,13.0914,0.009629484,0.32141,1.05647
68.535,13.15581,0.008459362,0.30461,1.05633
69.135,13.22013,0.009979812,0.2949,1.05619
69.735,13.2844,0.009316066,0.28688,1.05604
70.335,13.3484,0.00928895,0.27932,1.0559
70.935,13.4121,0.008491389,0.27543,1.05575
71.535,13.4756,0.00917548,0.27249,1.0556
72.135,13.53897,0.009332375,0.26786,1.05546
72.735,13.60222,0.009319882,0.26574,1.05531
73.335,13.66515,0.01061889,0.26416,1.05516
73.935,13.72819,0.01194207,0.26347,1.05501
74.535,13.791,0.01063067,0.26287,1.05486
75.135,13.8539,0.01200207,0.26094,1.05471
75.735,13.91642,0.01081017,0.2606,1.05456
76.335,13.97899,0.01059247,0.25913,1.0544
76.935,14.0414,0.01063776,0.26095,1.05425
77.535,14.10365,0.01176041,0.25873,1.0541
78.135,14.16629,0.01202146,0.25894,1.05394
78.735,14.2283,0.01194872,0.25443,1.05379
79.335,14.29062,0.01243799,0.25451,1.05363
79.935,14.35227,0.01108068,0.2533,1.05348
80.535,14.4137,0.009748737,0.24905,1.05332
81.135,14.47521,0.00839263,0.24532,1.05316
81.735,14.5368,0.009731728,0.24148,1.05301
82.335,14.598,0.00968,0.23571,1.05285
82.935,14.65986,0.009757769,0.22817,1.05269
83.535,14.7211,0.009760007,0.22136,1.05253
84.135,14.7821,0.009774435,0.21249,1.05237
84.735,14.843,0.009777174,0.20212,1.05221
85.335,14.90369,0.0110705,0.19192,1.05205
85.935,14.96401,0.01106471,0.17995,1.05188
86.535,15.02466,0.01114556,0.16499,1.05172
87.135,15.085,0.01107001,0.15433,1.05156
87.735,15.1455,0.01106769,0.14111,1.05139
88.335,15.20554,0.01104145,0.12784,1.05123
88.935,15.26569,0.01101917,0.11615,1.05106
89.535,15.32579,0.01238219,0.10596,1.05089
90.135,15.3858,0.01368442,0.10051,1.05073
90.735,15.44559,0.0123869,0.09512775,1.05056
91.335,15.5053,0.0123963,0.09162209,1.05039
91.935,15.565,0.01112034,0.08994219,1.05022
92.535,15.6248,0.009749995,0.09380195,1.05005
93.135,15.68464,0.01213187,0.0990951,1.04988
93.735,15.74422,0.01337813,0.10514,1.04971
94.335,15.80371,0.01337847,0.11654,1.04954
94.935,15.8631,0.01205325,0.12894,1.04937
95.535,15.92237,0.01204604,0.13782,1.0492
96.135,15.98196,0.01204797,0.15463,1.04902
96.735,16.0415,0.01073528,0.16423,1.04885
97.335,16.10099,0.01074,0.178,1.04867
97.935,16.16062,0.01074287,0.18777,1.0485
98.535,16.21985,0.01205996,0.19784,1.04832
99.135,16.2793,0.01206001,0.20923,1.04815
99.735,16.33849,0.01209477,0.22071,1.04797
100.335,16.39753,0.01210757,0.22719,1.04779
100.935,16.45663,0.01206002,0.23662,1.04761
101.535,16.51587,0.01206,0.24343,1.04743
102.135,16.57524,0.01206,0.25016,1.04725
102.735,16.6345,0.01206162,0.25841,1.04707
103.335,16.6934,0.01338652,0.26098,1.04689
103.935,16.75242,0.01342684,0.26753,1.04671
104.535,16.81131,0.01206008,0.2716,1.04653
105.135,16.8701,0.01206004,0.27722,1.04635
105.735,16.92925,0.01336662,0.2823,1.04616
106.335,16.98827,0.01316212,0.28534,1.04598
106.935,17.04714,0.01335648,0.28771,1.04579
107.535,17.10615,0.0122463,0.29292,1.04561
108.135,17.16499,0.01206007,0.29724,1.04542
108.735,17.2239,0.01205997,0.30109,1.04524
109.335,17.28262,0.01264868,0.30347,1.04505
109.935,17.3414,0.01202717,0.30936,1.04486
110.535,17.4002,0.01206038,0.31429,1.04467
111.135,17.4588,0.01213646,0.31431,1.04448
111.735,17.51751,0.01201354,0.31725,1.04429
112.335,17.57627,0.01337924,0.31858,1.0441
112.935,17.63492,0.01338,0.31781,1.04391
113.535,17.6938,0.01338017,0.31594,1.04372
114.135,17.75253,0.01308774,0.31617,1.04353
114.735,17.81104,0.01336997,0.31487,1.04333
115.335,17.86984,0.01337,0.31509,1.04314
115.935,17.9284,0.01336867,0.31228,1.04295
116.535,17.98701,0.01205682,0.31263,1.04275
117.135,18.04579,0.01261165,0.31477,1.04256
117.735,18.10438,0.01336838,0.31458,1.04236
118.335,18.16295,0.01205641,0.31628,1.04216
118.935,18.2215,0.01206002,0.31462,1.04197
119.535,18.27994,0.0120583,0.31828,1.04177
120.135,18.33822,0.01337966,0.31892,1.04157
120.735,18.39647,0.01338,0.32007,1.04137
121.335,18.4547,0.01337993,0.32292,1.04117
121.935,18.5132,0.01323329,0.32182,1.04097
122.535,18.57181,0.01335041,0.32428,1.04077
123.135,18.63055,0.01337,0.32541,1.04057
123.735,18.6889,0.01337,0.3282,1.04037
124.335,18.74654,0.01337,0.32697,1.04016
124.935,18.80496,0.01337172,0.3287,1.03996
125.535,18.8631,0.01469682,0.3288,1.03976
126.135,18.9219,0.01469018,0.3313,1.03955
126.735,18.9806,0.01366256,0.33359,1.03935
127.335,19.03875,0.01337999,0.33523,1.03914
127.935,19.0972,0.01335544,0.33704,1.03893
128.535,19.1553,0.01202569,0.33655,1.03873
129.135,19.21321,0.01239019,0.33859,1.03852
129.735,19.27131,0.01239701,0.33925,1.03831
130.335,19.32931,0.01337089,0.34044,1.0381
130.935,19.3874,0.01292195,0.34111,1.03789
131.535,19.44493,0.0120436,0.34261,1.03768
132.135,19.50314,0.01336216,0.34454,1.03747
132.735,19.56117,0.01304039,0.3441,1.03726
133.335,19.61958,0.01304,0.34255,1.03705
133.935,19.67813,0.01303481,0.34426,1.03684
134.535,19.736,0.01436109,0.34483,1.03662
135.135,19.79411,0.01402744,0.3457,1.03641
135.735,19.85207,0.01402977,0.34759,1.0362
136.335,19.9102,0.01503118,0.34648,1.03598
136.935,19.96825,0.01404033,0.3479,1.03577
137.535,20.02621,0.01399,0.34749,1.03555
138.135,20.0843,0.01304549,0.34636,1.03533
138.735,20.1422,0.01401632,0.34891,1.03512
139.335,20.2001,0.01337467,0.34902,1.0349
139.935,20.25809,0.01370978,0.34849,1.03468
140.535,20.31575,0.01371001,0.34871,1.03446
141.135,20.37367,0.01372873,0.34996,1.03424
141.735,20.4314,0.0149219,0.34872,1.03402
142.335,20.4895,0.01370005,0.3486,1.0338
142.935,20.54759,0.01506619,0.34824,1.03358
143.535,20.6052,0.01502003,0.34652,1.03336
144.135,20.6627,0.01502,0.34745,1.03313
144.735,20.72041,0.01501992,0.34265,1.03291
145.335,20.77794,0.01262762,0.33892,1.03269
145.935,20.83608,0.01239022,0.33724,1.03246
146.535,20.89401,0.01254463,0.3318,1.03224
147.135,20.95184,0.01239049,0.32549,1.03201
147.735,21.00966,0.01369909,0.32159,1.03179
148.335,21.06739,0.0150236,0.32035,1.03156
148.935,21.12494,0.01476015,0.3194,1.03133
149.535,21.18244,0.01369976,0.31962,1.0311
150.135,21.24002,0.0137,0.32293,1.03088
150.735,21.29776,0.0137,0.32801,1.03065
151.335,21.3555,0.0137,0.33368,1.03042
151.935,21.41345,0.01482427,0.34241,1.03019
152.535,21.4713,0.0137,0.35159,1.02996
153.135,21.529,0.0137,0.36199,1.02972
153.735,21.58673,0.0137,0.37349,1.02949
154.335,21.64418,0.01369997,0.38398,1.02926
154.935,21.70188,0.01366156,0.3967,1.02903
155.535,21.75977,0.01468992,0.4118,1.02879
156.135,21.81754,0.01468994,0.42753,1.02856
156.735,21.8757,0.01438169,0.44589,1.02832
157.335,21.93368,0.0130472,0.46286,1.02809
157.935,21.99196,0.01305,0.4858,1.02785
158.535,22.05017,0.01305,0.51011,1.02762
159.135,22.10776,0.01303466,0.5354,1.02738
159.735,22.1652,0.01302427,0.56617,1.02714
160.335,22.22269,0.01303999,0.59848,1.0269
160.935,22.28058,0.01303954,0.63439,1.02666
161.535,22.33887,0.01207201,0.67837,1.02642
162.135,22.3969,0.01302451,0.72064,1.02618
162.735,22.45502,0.01304999,0.767,1.02594
163.335,22.5132,0.01305001,0.81898,1.0257
163.935,22.57132,0.01306285,0.87098,1.02546
164.535,22.62947,0.01172966,0.9202,1.02522
165.135,22.6875,0.01172865,0.97124,1.02497
165.735,22.7455,0.01163227,1.01171,1.02473
166.335,22.80357,0.01176315,1.03479,1.02449
166.935,22.86157,0.01305033,1.0239,1.02424
167.535,22.91969,0.01305567,0.97084,1.024
168.135,22.9774,0.01305121,0.86853,1.02375
168.735,23.0351,0.01305,0.74907,1.0235
169.335,23.09236,0.01304912,0.64461,1.02326
169.935,23.14951,0.01173216,0.57011,1.02301
170.535,23.20642,0.01172816,0.51973,1.02276
171.135,23.26331,0.01041283,0.48266,1.02251
171.735,23.3205,0.01042016,0.45317,1.02226
172.335,23.37745,0.01171205,0.43733,1.02201
172.935,23.43447,0.01304689,0.42277,1.02176
173.535,23.49165,0.01292174,0.41362,1.02151
174.135,23.54885,0.01173003,0.40505,1.02126
174.735,23.60614,0.01173,0.40227,1.02101
175.335,23.66329,0.01173,0.39891,1.02076
175.935,23.72033,0.01173,0.39663,1.0205
176.535,23.77739,0.01173,0.39283,1.02025
177.135,23.83458,0.01173836,0.39372,1.02
177.735,23.89185,0.0119576,0.39102,1.01974
178.335,23.9491,0.0107416,0.3935,1.01948
178.935,24.00618,0.01174265,0.39297,1.01923
179.535,24.06314,0.01173001,0.39286,1.01897
180.135,24.12019,0.01173,0.39304,1.01872
180.735,24.17736,0.01172999,0.39296,1.01846
181.335,24.2346,0.01167453,0.3909,1.0182
181.935,24.29192,0.01044564,0.39313,1.01794
182.535,24.3492,0.009089975,0.39163,1.01768
183.135,24.40662,0.009544867,0.39403,1.01742
183.735,24.46407,0.01104397,0.39062,1.01716
184.335,24.52114,0.01107147,0.39083,1.0169
184.935,24.57841,0.009753449,0.39274,1.01664
185.535,24.63565,0.0110781,0.39288,1.01638
186.135,24.6928,0.01003226,0.39216,1.01611
186.735,24.75023,0.01009,0.39305,1.01585
187.335,24.8073,0.01009,0.39374,1.01559
187.935,24.8645,0.01008998,0.39582,1.01532
188.535,24.92168,0.01006966,0.39328,1.01506
189.135,24.97886,0.009764786,0.39166,1.01479
189.735,25.0364,0.01009184,0.39434,1.01453
190.335,25.0936,0.01009,0.39591,1.01426
190.935,25.15108,0.01009,0.394,1.01399
191.535,25.20833,0.01009,0.39416,1.01373
192.135,25.26558,0.01010352,0.39385,1.01346
192.735,25.3228,0.009991549,0.39243,1.01319
193.335,25.37989,0.01008,0.39547,1.01292
193.935,25.43691,0.01013096,0.39421,1.01265
194.535,25.49403,0.008771094,0.39554,1.01238
195.135,25.5513,0.008387801,0.39623,1.01211
195.735,25.60864,0.008120929,0.39814,1.01184
196.335,25.66594,0.009435592,0.3966,1.01157
196.935,25.72307,0.00942999,0.3957,1.01129
197.535,25.78036,0.009426929,0.39511,1.01102
198.135,25.8374,0.01075196,0.39763,1.01075
198.735,25.89459,0.01075002,0.39925,1.01047
199.335,25.9518,0.01077536,0.39922,1.0102
199.935,26.0089,0.01009029,0.3992,1.00992
200.535,26.06598,0.01007605,0.39981,1.00965
201.135,26.12311,0.008766423,0.39879,1.00937
201.735,26.18035,0.008770004,0.40242,1.00909
202.335,26.23777,0.008725705,0.40006,1.00882
202.935,26.29482,0.01008734,0.40156,1.00854
203.535,26.35179,0.008765065,0.40226,1.00826
204.135,26.4086,0.008770003,0.39935,1.00798
204.735,26.4657,0.00877,0.4013,1.0077
205.335,26.52283,0.00877,0.4014,1.00742
205.935,26.57995,0.00877,0.40059,1.00714
206.535,26.6372,0.008769521,0.40177,1.00686
207.135,26.69427,0.01005408,0.39977,1.00658
207.735,26.75126,0.01009201,0.40255,1.0063
208.335,26.8085,0.008768634,0.40129,1.00602
208.935,26.8658,0.01003279,0.40325,1.00573
209.535,26.92282,0.0101352,0.40071,1.00545
210.135,26.97983,0.008759985,0.40315,1.00517
210.735,27.03684,0.00876,0.40325,1.00488
211.335,27.09392,0.00876,0.40275,1.0046
211.935,27.1512,0.00876,0.40157,1.00431
212.535,27.2084,0.008760001,0.40353,1.00402
213.135,27.26543,0.00876678,0.40357,1.00374
213.735,27.3224,0.008835084,0.40608,1.00345
214.335,27.37952,0.00876985,0.40457,1.00316
214.935,27.4367,0.00877,0.40605,1.00287
215.535,27.4936,0.00877,0.40741,1.00258
216.135,27.55074,0.00877,0.40686,1.00229
216.735,27.6076,0.00877,0.40727,1.00201
217.335,27.66446,0.00877,0.40749,1.00171
217.935,27.7218,0.00877,0.40759,1.00142
218.535,27.779,0.00877,0.40616,1.00113
219.135,27.836,0.00877,0.40602,1.00084
219.735,27.89303,0.00877,0.40517,1.00055
220.335,27.9501,0.008769989,0.40715,1.00025
220.935,28.00752,0.009377059,0.40647,0.99996
221.535,28.06482,0.008775503,0.41019,0.99967
222.135,28.12203,0.01009875,0.40767,0.99937
222.735,28.17925,0.007630245,0.40618,0.99908
223.335,28.2362,0.007260086,0.40762,0.99878
223.935,28.29337,0.008110311,0.40684,0.99849
224.535,28.3503,0.00810874,0.40902,0.99819
225.135,28.407,0.006791096,0.40939,0.99789
225.735,28.4641,0.00679,0.40893,0.9976
226.335,28.5214,0.006789872,0.41019,0.9973
226.935,28.5789,0.007680433,0.41136,0.997
227.535,28.63621,0.00811003,0.40906,0.9967
228.135,28.6934,0.008109999,0.41028,0.9964
228.735,28.75041,0.00810987,0.40918,0.9961
229.335,28.80769,0.00681622,0.41346,0.9958
229.935,28.86488,0.006800009,0.41278,0.9955
230.535,28.9222,0.0068,0.40965,0.9952
231.135,28.97959,0.0068,0.41135,0.99489
231.735,29.03687,0.0067963,0.41004,0.99459
232.335,29.09409,0.008013326,0.41283,0.99429
232.935,29.1511,0.00908532,0.41216,0.99398
233.535,29.208,0.00778077,0.41223,0.99368
234.135,29.26506,0.007794852,0.41428,0.99338
234.735,29.3222,0.007405485,0.41585,0.99307
235.335,29.37953,0.00745001,0.41347,0.99277
235.935,29.4368,0.00745,0.4133,0.99246
236.535,29.49413,0.007450008,0.414,0.99215
237.135,29.55156,0.00745779,0.41269,0.99185
237.735,29.60881,0.006789589,0.41409,0.99154
238.335,29.666,0.00679,0.41476,0.99123
238.935,29.72308,0.00679,0.4175,0.99092
239.535,29.78015,0.00679,0.41772,0.99061
240.135,29.83727,0.00679,0.4177,0.9903
240.735,29.89456,0.00678914,0.41802,0.98999
241.335,29.95188,0.00543933,0.41853,0.98968
241.935,30.0091,0.00548001,0.41845,0.98937
242.535,30.0662,0.005461412,0.41607,0.98906
243.135,30.1235,0.00587267,0.4177,0.98875
243.735,30.1806,0.005808301,0.41756,0.98843
244.335,30.2379,0.00482179,0.41913,0.98812
244.935,30.2952,0.004820001,0.41965,0.98781
245.535,30.3524,0.00481996,0.42004,0.98749
246.135,30.4095,0.005117675,0.4188,0.98718
246.735,30.46647,0.005810246,0.42079,0.98686
247.335,30.5236,0.005848335,0.42266,0.98655
247.935,30.5809,0.004500433,0.4203,0.98623
248.535,30.63819,0.004499999,0.42324,0.98592
249.135,30.69551,0.0045,0.42234,0.9856
249.735,30.75246,0.0045,0.42471,0.98528
250.335,30.8095,0.0045,0.4248,0.98496
250.935,30.86675,0.004499916,0.4258,0.98465
251.535,30.924,0.004274092,0.42446,0.98433
252.135,30.98149,0.00350994,0.42432,0.98401
252.735,31.03862,0.003509885,0.42752,0.98369
253.335,31.09585,0.00386898,0.4258,0.98337
253.935,31.15288,0.00384001,0.42657,0.98305
254.535,31.2101,0.00384,0.42614,0.98273
255.135,31.2674,0.003841858,0.42851,0.9824
255.735,31.3245,0.004792509,0.42891,0.98208
256.335,31.38175,0.004819993,0.4292,0.98176
256.935,31.4389,0.004819017,0.43059,0.98144
257.535,31.4962,0.003504573,0.42929,0.98111
258.135,31.5535,0.00350995,0.43088,0.98079
258.735,31.61099,0.00347468,0.43299,0.98046
259.335,31.66817,0.002719241,0.43224,0.98014
259.935,31.7253,0.004820625,0.43278,0.97981
260.535,31.78235,0.004722817,0.43406,0.97949
261.135,31.8393,0.002841964,0.43649,0.97916
261.735,31.89654,0.002849982,0.43538,0.97883
262.335,31.95372,0.00285,0.43572,0.97851
262.935,32.01112,0.00285,0.43751,0.97818
263.535,32.06836,0.00285,0.43775,0.97785
264.135,32.12562,0.002849369,0.43885,0.97752
264.735,32.18289,0.000752638,0.43957,0.97719
265.335,32.24009,0.000869998,0.44101,0.97686
265.935,32.29733,0.000870078,0.4414,0.97653
266.535,32.35463,0.0002046693,0.44225,0.9762
267.135,32.4119,-8.19784e-05,0.44302,0.97587
267.735,32.46911,0.0005399196,0.44244,0.97554
268.335,32.52613,0.0005399998,0.4443,0.97521
268.935,32.5833,0.0005399159,0.44275,0.97487
269.535,32.6404,-0.000801842,0.44678,0.97454
270.135,32.69751,-0.0007799241,0.44489,0.97421
270.735,32.75458,-0.000755876,0.44768,0.97387
271.335,32.8118,0.000218117,0.44762,0.97354
271.935,32.86911,-0.001068977,0.44696,0.9732
272.535,32.92666,-0.002485054,0.45286,0.97287
273.135,32.9839,-0.002420036,0.45194,0.97253
273.735,33.04107,-0.002419931,0.45569,0.9722
274.335,33.0983,-0.0037013,0.45453,0.97186
274.935,33.1554,-0.005060091,0.45496,0.97152
275.535,33.2127,-0.004694454,0.45806,0.97118
276.135,33.26983,-0.006041477,0.45675,0.97085
276.735,33.32699,-0.006040187,0.45607,0.97051
277.335,33.38454,-0.005675169,0.46021,0.97017
277.935,33.44182,-0.006214176,0.46126,0.96983
278.535,33.49954,-0.007030039,0.46615,0.96949
279.135,33.55677,-0.007031794,0.46505,0.96915
279.735,33.61395,-0.008356944,0.46655,0.96881
280.335,33.6712,-0.008350001,0.46666,0.96847
280.935,33.72853,-0.008350046,0.46732,0.96813
281.535,33.7859,-0.008676163,0.47108,0.96778
282.135,33.84313,-0.009660279,0.47097,0.96744
282.735,33.90037,-0.009663823,0.46979,0.9671
283.335,33.95782,-0.01064954,0.47276,0.96675
283.935,34.01536,-0.01082891,0.47083,0.96641
284.535,34.07314,-0.01100764,0.47516,0.96607
285.135,34.13073,-0.01231562,0.47513,0.96572
285.735,34.1882,-0.0135955,0.48003,0.96538
286.335,34.2456,-0.01325799,0.47831,0.96503
286.935,34.303,-0.01427026,0.48134,0.96468
287.535,34.36055,-0.01427009,0.48206,0.96434
288.135,34.41816,-0.0155258,0.48149,0.96399
288.735,34.47585,-0.01817553,0.48442,0.96364
289.335,34.5334,-0.01821967,0.4853,0.9633
289.935,34.5909,-0.01952937,0.48526,0.96295
290.535,34.64839,-0.01821767,0.48704,0.9626
291.135,34.7059,-0.01932337,0.48836,0.96225
291.735,34.76332,-0.02042697,0.48746,0.9619
292.335,34.8209,-0.02216891,0.49024,0.96155
292.935,34.87847,-0.02349227,0.49093,0.9612
293.535,34.936,-0.02479079,0.49315,0.96085
294.135,34.99355,-0.0275343,0.49514,0.9605
294.735,35.0511,-0.02675247,0.49599,0.96014
295.335,35.10864,-0.02829417,0.49684,0.95979
295.935,35.16628,-0.02876398,0.49864,0.95944
296.535,35.2241,-0.02999675,0.50259,0.95909
297.135,35.28179,-0.0313465,0.50556,0.95873
297.735,35.33941,-0.03270064,0.50618,0.95838
298.335,35.3969,-0.03400746,0.50824,0.95802
298.935,35.45438,-0.03537797,0.51016,0.95767
299.535,35.51182,-0.03745117,0.51194,0.95731
300.135,35.5693,-0.03923642,0.51479,0.95696
300.735,35.62684,-0.04045516,0.51734,0.9566
301.335,35.68432,-0.04188577,0.51959,0.95625
301.935,35.74197,-0.04323536,0.52219,0.95589
302.535,35.7997,-0.04454421,0.52119,0.95553
303.135,35.85723,-0.04591173,0.52617,0.95517
303.735,35.91483,-0.04812049,0.52582,0.95481
304.335,35.97242,-0.05001117,0.52827,0.95446
304.935,36.03004,-0.05134012,0.53049,0.9541
305.535,36.08778,-0.05261483,0.53149,0.95374
306.135,36.14545,-0.05447479,0.53546,0.95338
306.735,36.20313,-0.05680079,0.53959,0.95302
307.335,36.26056,-0.05993794,0.5438,0.95266
307.935,36.3181,-0.06180318,0.54697,0.9523
308.535,36.37596,-0.06422229,0.54897,0.95193
309.135,36.43353,-0.06732023,0.55138,0.95157
309.735,36.49136,-0.07152504,0.55536,0.95121
310.335,36.54899,-0.07328137,0.55803,0.95085
310.935,36.6065,-0.077593,0.56209,0.95048
311.535,36.66411,-0.07702993,0.56442,0.95012
312.135,36.72173,-0.07912215,0.57083,0.94975
312.735,36.77935,-0.08103322,0.57113,0.94939
313.335,36.83703,-0.0847451,0.57743,0.94903
313.935,36.89484,-0.08684628,0.57953,0.94866
314.535,36.9527,-0.09020813,0.58735,0.94829
315.135,37.01051,-0.09476739,0.59257,0.94793
315.735,37.06814,-0.09762157,0.5954,0.94756
316.335,37.12594,-0.09994921,0.60269,0.94719
316.935,37.18355,-0.1018,0.60741,0.94683
317.535,37.24108,-0.10654,0.61464,0.94646
318.135,37.29857,-0.11037,0.61958,0.94609
318.735,37.35617,-0.11393,0.62619,0.94572
319.335,37.41352,-0.11874,0.63197,0.94535
319.935,37.47132,-0.12255,0.63766,0.94498
320.535,37.52887,-0.12604,0.64766,0.94461
321.135,37.58668,-0.132,0.65838,0.94424
321.735,37.6441,-0.1372,0.66548,0.94387
322.335,37.70182,-0.14135,0.67321,0.9435
322.935,37.75972,-0.14619,0.68423,0.94313
323.535,37.81791,-0.15219,0.69494,0.94276
324.135,37.87604,-0.15752,0.70459,0.94238
324.735,37.93387,-0.1634,0.71792,0.94201
325.335,37.9916,-0.17057,0.72889,0.94164
325.935,38.04945,-0.17621,0.74155,0.94127
326.535,38.10718,-0.1827,0.7518,0.94089
327.135,38.1651,-0.18966,0.76534,0.94052
327.735,38.22302,-0.19673,0.78034,0.94014
328.335,38.28105,-0.20274,0.79536,0.93977
328.935,38.33915,-0.21018,0.80978,0.93939
329.535,38.39723,-0.21726,0.82654,0.93902
330.135,38.45518,-0.22627,0.84505,0.93864
330.735,38.51311,-0.23405,0.8616,0.93826
331.335,38.57116,-0.24254,0.88029,0.93789
331.935,38.62903,-0.25068,0.90245,0.93751
332.535,38.68699,-0.26367,0.92098,0.93713
333.135,38.74485,-0.27226,0.94342,0.93675
333.735,38.80294,-0.28148,0.96543,0.93637
334.335,38.86102,-0.29216,0.98815,0.93599
334.935,38.91919,-0.30418,1.01415,0.93561
335.535,38.97738,-0.31553,1.04482,0.93523
336.135,39.0356,-0.32675,1.07392,0.93485
336.735,39.09383,-0.33866,1.10151,0.93447
337.335,39.15183,-0.35217,1.13729,0.93409
337.935,39.20986,-0.36632,1.17271,0.93371
338.535,39.26801,-0.38134,1.20853,0.93333
339.135,39.32626,-0.39625,1.24593,0.93295
339.735,39.38463,-0.4083,1.28764,0.93256
340.335,39.44295,-0.4243,1.32999,0.93218
340.935,39.5011,-0.44035,1.37326,0.9318
341.535,39.55925,-0.45768,1.41602,0.93141
342.135,39.61717,-0.4772,1.44904,0.93103
342.735,39.67542,-0.49404,1.49091,0.93065
343.335,39.73375,-0.51653,1.53795,0.93026
343.935,39.79231,-0.53495,1.59491,0.92988
344.535,39.85094,-0.55757,1.6569,0.92949
345.135,39.90941,-0.58003,1.72064,0.9291
345.735,39.96787,-0.60478,1.79061,0.92872
346.335,40.02646,-0.62796,1.8615,0.92833
346.935,40.08506,-0.65319,1.93675,0.92794
347.535,40.1438,-0.6799,2.01459,0.92756
348.135,40.20261,-0.70804,2.09631,0.92717
348.735,40.2615,-0.73884,2.19072,0.92678
349.335,40.32042,-0.77015,2.27999,0.92639
349.935,40.37966,-0.80122,2.37105,0.926
350.535,40.4388,-0.83468,2.46817,0.92561
351.135,40.49788,-0.87031,2.56957,0.92522
351.735,40.55702,-0.90637,2.66922,0.92483
352.335,40.61627,-0.94528,2.7764,0.92444
352.935,40.67553,-0.9846,2.89011,0.92405
353.535,40.73492,-1.02832,3.00539,0.92366
354.135,40.79419,-1.06988,3.12212,0.92327
354.735,40.85347,-1.11544,3.2366,0.92288
355.335,40.91287,-1.16227,3.35324,0.92248
355.935,40.97231,-1.21292,3.46612,0.92209
356.535,41.0316,-1.26211,3.5821,0.9217
357.135,41.09115,-1.3168,3.69438,0.9213
357.735,41.15058,-1.36744,3.80369,0.92091
358.335,41.2103,-1.42711,3.91449,0.92052
358.935,41.26999,-1.4835,4.0201,0.92012
359.535,41.32963,-1.54434,4.12183,0.91973
360.135,41.38922,-1.60259,4.21744,0.91933
360.735,41.44867,-1.66923,4.30721,0.91894
361.335,41.50832,-1.72961,4.39174,0.91854
361.935,41.5679,-1.79699,4.47385,0.91814
362.535,41.6276,-1.86169,4.55324,0.91775
363.135,41.68736,-1.93135,4.62202,0.91735
363.735,41.74694,-1.99985,4.68008,0.91695
364.335,41.80639,-2.06911,4.73289,0.91655
364.935,41.86541,-2.13604,4.77499,0.91616
365.535,41.92467,-2.21053,4.80813,0.91576
366.135,41.98395,-2.27961,4.82986,0.91536
366.735,42.04313,-2.35348,4.83734,0.91496
367.335,42.10259,-2.42589,4.83173,0.91456
367.935,42.16148,-2.49669,4.81451,0.91416
368.535,42.2204,-2.56957,4.78028,0.91376
369.135,42.2791,-2.63926,4.73083,0.91336
369.735,42.3375,-2.71067,4.66627,0.91296
370.335,42.39601,-2.77909,4.58523,0.91256
370.935,42.45369,-2.84922,4.48511,0.91215
371.535,42.5118,-2.91292,4.36321,0.91175
372.135,42.56975,-2.9812,4.22333,0.91135
372.735,42.6274,-3.04263,4.06923,0.91095
373.335,42.68538,-3.10498,3.89251,0.91054
373.935,42.74269,-3.16204,3.70125,0.91014
374.535,42.79972,-3.21745,3.49105,0.90974
375.135,42.85648,-3.2706,3.2664,0.90933
375.735,42.91287,-3.31923,3.02479,0.90893
376.335,42.9688,-3.36494,2.77088,0.90852
376.935,43.02482,-3.40595,2.51134,0.90812
377.535,43.08076,-3.44509,2.248,0.90771
378.135,43.1366,-3.48081,1.98614,0.90731
378.735,43.1927,-3.51271,1.7242,0.9069
379.335,43.24827,-3.54264,1.47195,0.90649
379.935,43.3037,-3.5663,1.22072,0.90609
380.535,43.35926,-3.58756,0.99346,0.90568
381.135,43.41491,-3.60356,0.79784,0.90527
381.735,43.47044,-3.61503,0.64329,0.90486
382.335,43.5263,-3.62531,0.52517,0.90445
382.935,43.58211,-3.63216,0.44135,0.90405
383.535,43.63807,-3.63924,0.37777,0.90364
384.135,43.69426,-3.64594,0.33101,0.90323
384.735,43.75054,-3.65018,0.29257,0.90282
385.335,43.80689,-3.65414,0.26923,0.90241
385.935,43.86377,-3.65661,0.24602,0.902
386.535,43.9207,-3.66053,0.23249,0.90159
387.135,43.9778,-3.66473,0.21538,0.90117
387.735,44.0351,-3.66627,0.20439,0.90076
388.335,44.09213,-3.66967,0.19364,0.90035
388.935,44.14933,-3.67285,0.18753,0.89994
389.535,44.2067,-3.67544,0.17927,0.89953
390.135,44.2642,-3.6781,0.17308,0.89911
390.735,44.3219,-3.68061,0.16602,0.8987
391.335,44.37964,-3.68063,0.16433,0.89829
391.935,44.43734,-3.68382,0.15871,0.89787
392.535,44.495,-3.68599,0.15371,0.89746
393.135,44.55259,-3.68467,0.15056,0.89705
393.735,44.60999,-3.68469,0.14757,0.89663
394.335,44.66765,-3.68753,0.14454,0.89622
394.935,44.72549,-3.6899,0.14364,0.8958
395.535,44.78379,-3.69128,0.14028,0.89539
396.135,44.8419,-3.69142,0.13798,0.89497
396.735,44.9002,-3.69294,0.13507,0.89455
397.335,44.95834,-3.69443,0.13544,0.89414
397.935,45.01643,-3.69452,0.13517,0.89372
398.535,45.07464,-3.69542,0.13456,0.8933
399.135,45.13286,-3.6973,0.13066,0.89288
399.735,45.19121,-3.69731,0.13091,0.89247
400.335,45.24947,-3.69862,0.12863,0.89205
400.935,45.30766,-3.69997,0.12947,0.89163
401.535,45.36593,-3.70116,0.12818,0.89121
402.135,45.42426,-3.70262,0.13123,0.89079
402.735,45.48275,-3.70384,0.12492,0.89037
403.335,45.5411,-3.70462,0.12779,0.88995
403.935,45.59929,-3.70586,0.12695,0.88953
404.535,45.6577,-3.70718,0.12818,0.88911
405.135,45.71607,-3.70718,0.12662,0.88869
405.735,45.77455,-3.7086,0.1276,0.88827
406.335,45.83292,-3.70902,0.12483,0.88785
406.935,45.89136,-3.70952,0.12601,0.88743
407.535,45.94995,-3.71266,0.12568,0.887
408.135,46.00877,-3.71374,0.12509,0.88658
408.735,46.06733,-3.71419,0.12734,0.88616
409.335,46.12592,-3.7157,0.12928,0.88574
409.935,46.18422,-3.71558,0.12672,0.88531
410.535,46.2425,-3.71853,0.12752,0.88489
411.135,46.30128,-3.72096,0.12771,0.88447
411.735,46.35986,-3.71979,0.1291,0.88404
412.335,46.41874,-3.71979,0.12773,0.88362
412.935,46.47717,-3.72113,0.12601,0.88319
413.535,46.53557,-3.72242,0.12944,0.88277
414.135,46.59418,-3.72379,0.12712,0.88234
414.735,46.65269,-3.72439,0.12983,0.88192
415.335,46.71111,-3.72505,0.13297,0.88149
415.935,46.76976,-3.72637,0.13108,0.88106
416.535,46.82841,-3.72772,0.13154,0.88064
417.135,46.88714,-3.72877,0.13103,0.88021
417.735,46.94592,-3.73046,0.12965,0.87978
418.335,47.00439,-3.73174,0.13325,0.87936
418.935,47.0632,-3.73316,0.13153,0.87893
419.535,47.1218,-3.73311,0.13225,0.8785
420.135,47.18039,-3.73572,0.13122,0.87807
420.735,47.23917,-3.7357,0.13153,0.87764
421.335,47.29775,-3.73563,0.13349,0.87721
421.935,47.3564,-3.73738,0.13331,0.87678
422.535,47.41515,-3.73835,0.13225,0.87635
423.135,47.4736,-3.73966,0.135,0.87592
423.735,47.53241,-3.74096,0.13228,0.87549
424.335,47.59115,-3.74227,0.13333,0.87506
424.935,47.65017,-3.74293,0.13116,0.87463
425.535,47.70857,-3.7436,0.13184,0.8742
426.135,47.76715,-3.74628,0.13205,0.87377
426.735,47.82587,-3.74623,0.1339,0.87334
427.335,47.88472,-3.74573,0.13297,0.87291
427.935,47.9437,-3.74624,0.1307,0.87247
428.535,48.00243,-3.74749,0.12889,0.87204
429.135,48.0612,-3.74993,0.13016,0.87161
429.735,48.1201,-3.7515,0.12838,0.87117
430.335,48.17876,-3.75248,0.12902,0.87074
430.935,48.23749,-3.75264,0.12964,0.87031
431.535,48.29612,-3.75523,0.12887,0.86987
432.135,48.35476,-3.75517,0.12829,0.86944
432.735,48.41356,-3.75722,0.12798,0.869
433.335,48.47221,-3.75687,0.12396,0.86857
433.935,48.5309,-3.75761,0.12816,0.86813
434.535,48.58984,-3.76058,0.12785,0.8677
435.135,48.6487,-3.76262,0.1239,0.86726
435.735,48.7076,-3.76417,0.12683,0.86683
436.335,48.76651,-3.76522,0.12724,0.86639
436.935,48.82528,-3.76531,0.12753,0.86595
437.535,48.884,-3.76662,0.12505,0.86552
438.135,48.94267,-3.76675,0.12453,0.86508
438.735,49.0014,-3.76795,0.12462,0.86464
439.335,49.06024,-3.76927,0.12502,0.8642
439.935,49.11911,-3.77054,0.12782,0.86377
440.535,49.1781,-3.77239,0.12621,0.86333
441.135,49.237,-3.77362,0.12523,0.86289
441.735,49.29573,-3.77452,0.12422,0.86245
442.335,49.35478,-3.77606,0.1256,0.86201
442.935,49.41377,-3.77723,0.12364,0.86157
443.535,49.47271,-3.77988,0.12596,0.86113
444.135,49.5313,-3.78132,0.12998,0.86069
444.735,49.5901,-3.78407,0.12849,0.86025
445.335,49.64901,-3.78408,0.12549,0.85981
445.935,49.70794,-3.78407,0.12689,0.85937
446.535,49.76701,-3.78548,0.12732,0.85893
447.135,49.82597,-3.78677,0.12716,0.85849
447.735,49.88478,-3.78813,0.12711,0.85805
448.335,49.94382,-3.78909,0.12469,0.85761
448.935,50.00275,-3.78945,0.12885,0.85716
449.535,50.06159,-3.79077,0.12957,0.85672
450.135,50.12043,-3.79341,0.12789,0.85628
450.735,50.17926,-3.79471,0.12804,0.85584
451.335,50.23827,-3.79601,0.12736,0.85539
451.935,50.29714,-3.79601,0.12987,0.85495
452.535,50.356,-3.79767,0.12889,0.85451
453.135,50.41483,-3.80006,0.13163,0.85406
453.735,50.47375,-3.80124,0.13291,0.85362
454.335,50.53275,-3.80273,0.13186,0.85317
454.935,50.5917,-3.80415,0.13312,0.85273
455.535,50.65067,-3.8068,0.13221,0.85228
456.135,50.70963,-3.80853,0.13021,0.85184
456.735,50.76829,-3.80854,0.129,0.85139
457.335,50.82724,-3.80986,0.12708,0.85095
457.935,50.886,-3.81112,0.12485,0.8505
458.535,50.94502,-3.81213,0.12881,0.85005
459.135,51.00398,-3.81255,0.12695,0.84961
459.735,51.063,-3.81543,0.12704,0.84916
460.335,51.122,-3.81665,0.12383,0.84871
460.935,51.18118,-3.81796,0.12733,0.84827
461.535,51.24027,-3.81928,0.12563,0.84782
462.135,51.29939,-3.82058,0.12443,0.84737
462.735,51.35841,-3.82334,0.12517,0.84692
463.335,51.41738,-3.82623,0.12414,0.84647
463.935,51.47653,-3.82525,0.12255,0.84603
464.535,51.53573,-3.82733,0.11851,0.84558
465.135,51.59492,-3.82927,0.1202,0.84513
465.735,51.6541,-3.83148,0.12267,0.84468
466.335,51.71333,-3.83298,0.11815,0.84423
466.935,51.7725,-3.83288,0.11755,0.84378
467.535,51.83183,-3.83347,0.11769,0.84333
468.135,51.8911,-3.83485,0.11609,0.84288
468.735,51.95029,-3.83628,0.11616,0.84243
469.335,52.0095,-3.83696,0.11512,0.84198
469.935,52.0687,-3.83827,0.11476,0.84152
470.535,52.128,-3.83957,0.11242,0.84107
471.135,52.18728,-3.84187,0.11304,0.84062
471.735,52.2466,-3.84222,0.1119,0.84017
472.335,52.30588,-3.8422,0.11079,0.83972
472.935,52.3652,-3.84219,0.1077,0.83927
473.535,52.4245,-3.84352,0.10981,0.83881
474.135,52.4838,-3.84484,0.10722,0.83836
474.735,52.54314,-3.84617,0.10648,0.83791
475.335,52.6025,-3.84613,0.10588,0.83745
475.935,52.6617,-3.8485,0.10399,0.837
476.535,52.7209,-3.84918,0.10369,0.83655
477.135,52.7801,-3.84977,0.102,0.83609
477.735,52.8394,-3.85109,0.10196,0.83564
478.335,52.89866,-3.85109,0.09999547,0.83518
478.935,52.9581,-3.85117,0.10077,0.83473
479.535,53.0177,-3.85023,0.09675627,0.83427
480.135,53.07715,-3.85108,0.09467675,0.83382
480.735,53.1365,-3.85146,0.09448151,0.83336
481.335,53.19594,-3.8524,0.09353142,0.83291
481.935,53.25521,-3.85241,0.09308266,0.83245
482.535,53.31468,-3.85371,0.09262032,0.83199
483.135,53.3739,-3.85371,0.09397936,0.83154
483.735,53.43328,-3.8549,0.089231,0.83108
484.335,53.4925,-3.85503,0.0913726,0.83062
484.935,53.5518,-3.85503,0.09108092,0.83017
485.535,53.611,-3.85403,0.08729567,0.82971
486.135,53.67026,-3.85537,0.08901704,0.82925
486.735,53.7296,-3.85537,0.08881753,0.82879
487.335,53.7889,-3.85537,0.08801762,0.82834
487.935,53.84845,-3.85589,0.09059257,0.82788
488.535,53.9078,-3.85668,0.08955803,0.82742
489.135,53.9673,-3.85668,0.0901215,0.82696
489.735,54.02655,-3.85668,0.08965891,0.8265
490.335,54.08569,-3.85668,0.08989017,0.82604
490.935,54.1448,-3.85668,0.09148819,0.82558
491.535,54.20403,-3.85669,0.0951105,0.82512
492.135,54.2634,-3.85734,0.0975044,0.82466
492.735,54.3225,-3.85734,0.10224,0.8242
493.335,54.38185,-3.85799,0.10438,0.82374
493.935,54.441,-3.858,0.10689,0.82328
494.535,54.50011,-3.85767,0.10594,0.82282
495.135,54.55945,-3.85767,0.1067,0.82236
495.735,54.6186,-3.85635,0.10684,0.8219
496.335,54.67811,-3.85635,0.1016,0.82144
496.935,54.73766,-3.85634,0.099842,0.82098
497.535,54.79736,-3.85767,0.09617289,0.82051
498.135,54.8568,-3.85767,0.09370536,0.82005
498.735,54.9161,-3.85767,0.09101567,0.81959
499.335,54.97545,-3.85762,0.08795522,0.81913
499.935,55.035,-3.85895,0.0888991,0.81866
500.535,55.09476,-3.85735,0.08438556,0.8182
501.135,55.1546,-3.857,0.08215373,0.81774
501.735,55.2143,-3.85634,0.07866809,0.81727
502.335,55.27406,-3.85767,0.07868985,0.81681
502.935,55.3336,-3.85646,0.0763084,0.81635
503.535,55.39297,-3.85635,0.0728794,0.81588
504.135,55.45248,-3.85771,0.07298862,0.81542
504.735,55.5118,-3.85766,0.07033149,0.81495
505.335,55.5714,-3.85766,0.06734903,0.81449
505.935,55.63078,-3.85766,0.06388924,0.81402
506.535,55.69047,-3.85766,0.06224855,0.81356
507.135,55.7499,-3.85865,0.06211022,0.81309
507.735,55.80965,-3.85865,0.05807762,0.81263
508.335,55.8695,-3.85865,0.05648831,0.81216
508.935,55.9293,-3.85865,0.0576355,0.8117
509.535,55.9892,-3.85865,0.05500104,0.81123
510.135,56.0489,-3.85777,0.05377749,0.81076
510.735,56.10876,-3.85734,0.05155173,0.8103
511.335,56.1685,-3.85668,0.050247,0.80983
511.935,56.22806,-3.85668,0.05204373,0.80936
512.535,56.2872,-3.85668,0.05370215,0.8089
513.135,56.3467,-3.85668,0.05086605,0.80843
513.735,56.4062,-3.85765,0.05030671,0.80796
514.335,56.46586,-3.85669,0.0501889,0.80749
514.935,56.5255,-3.85701,0.04840533,0.80703
515.535,56.5851,-3.85752,0.05124385,0.80656
516.135,56.64467,-3.85795,0.05000312,0.80609
516.735,56.70449,-3.85929,0.0509505,0.80562
517.335,56.7641,-3.85714,0.05026006,0.80515
517.935,56.82371,-3.85701,0.05204716,0.80468
518.535,56.88326,-3.85701,0.05301746,0.80421
519.135,56.94262,-3.85737,0.05105669,0.80374
519.735,57.00215,-3.85766,0.0543389,0.80328
520.335,57.06168,-3.85767,0.05320903,0.80281
520.935,57.12112,-3.85724,0.05084447,0.80234
521.535,57.18081,-3.85635,0.04983084,0.80187
522.135,57.24046,-3.85635,0.051169,0.80139
522.735,57.3,-3.85635,0.04989642,0.80092
523.335,57.35958,-3.85701,0.04950703,0.80045
523.935,57.419,-3.85701,0.05134208,0.79998
524.535,57.4786,-3.85786,0.05353364,0.79951
525.135,57.5383,-3.85832,0.05310853,0.79904
525.735,57.59797,-3.85832,0.04924177,0.79857
526.335,57.65749,-3.85721,0.05302586,0.7981
526.935,57.71682,-3.85701,0.05002663,0.79762
527.535,57.77641,-3.85603,0.04938817,0.79715
528.135,57.8361,-3.85603,0.04784702,0.79668
528.735,57.896,-3.85675,0.04780513,0.79621
529.335,57.9557,-3.85602,0.04501772,0.79574
529.935,58.01535,-3.85602,0.04644043,0.79526
530.535,58.075,-3.85602,0.0437965,0.79479
531.135,58.13457,-3.85602,0.04209396,0.79432
531.735,58.19409,-3.85635,0.04295864,0.79384
532.335,58.25362,-3.85772,0.04329686,0.79337
532.935,58.3131,-3.85767,0.04135734,0.7929
533.535,58.37265,-3.85568,0.04099435,0.79242
534.135,58.43225,-3.85569,0.04257619,0.79195
534.735,58.49213,-3.85569,0.04137485,0.79147
535.335,58.55191,-3.85641,0.0437682,0.791
535.935,58.6116,-3.85638,0.04164429,0.79052
536.535,58.6714,-3.85701,0.04111037,0.79005
537.135,58.7312,-3.85701,0.03980977,0.78957
537.735,58.7911,-3.85701,0.04401687,0.7891
538.335,58.85097,-3.85701,0.04000332,0.78862
538.935,58.91075,-3.85701,0.03944529,0.78815
539.535,58.97044,-3.85701,0.03924283,0.78767
540.135,59.03024,-3.85701,0.04204866,0.7872
540.735,59.08996,-3.85701,0.04010104,0.78672
541.335,59.1497,-3.85832,0.04041312,0.78624
541.935,59.20938,-3.85802,0.03769518,0.78577
542.535,59.26914,-3.8566,0.04264747,0.78529
543.135,59.32891,-3.85767,0.04026153,0.78481
543.735,59.38859,-3.85766,0.03967788,0.78434
544.335,59.44775,-3.85637,0.0387235,0.78386
544.935,59.5073,-3.85505,0.0394088,0.78338
545.535,59.5669,-3.85504,0.03813801,0.7829
546.135,59.62676,-3.85635,0.03748592,0.78243
546.735,59.6869,-3.85498,0.03820014,0.78195
547.335,59.74649,-3.85606,0.0384437,0.78147
547.935,59.8062,-3.85634,0.03993871,0.78099
548.535,59.8661,-3.8557,0.03824827,0.78051
549.135,59.926,-3.85564,0.03815344,0.78004
549.735,59.986,-3.85569,0.03879923,0.77956
550.335,60.0459,-3.85677,0.0389035,0.77908
550.935,60.1056,-3.85668,0.04047777,0.7786
551.535,60.16542,-3.85668,0.03911233,0.77812
552.135,60.2253,-3.85668,0.04020188,0.77764
552.735,60.2851,-3.85669,0.04127219,0.77716
553.335,60.34499,-3.85534,0.03978228,0.77668
553.935,60.4047,-3.85604,0.04056427,0.7762
554.535,60.4646,-3.85668,0.03930636,0.77572
555.135,60.5243,-3.85668,0.04198808,0.77524
555.735,60.58419,-3.85668,0.04169808,0.77476
556.335,60.6441,-3.85668,0.04142932,0.77428
556.935,60.7041,-3.85595,0.04157859,0.7738
557.535,60.76396,-3.85602,0.04183395,0.77332
558.135,60.8239,-3.85602,0.04084714,0.77284
558.735,60.88346,-3.85739,0.0417659,0.77236
559.335,60.9433,-3.85593,0.04231496,0.77188
559.935,61.003,-3.85603,0.04175105,0.77139
560.535,61.06279,-3.85734,0.0381665,0.77091
561.135,61.1229,-3.85602,0.04067864,0.77043
561.735,61.1827,-3.85602,0.04117261,0.76995
562.335,61.2427,-3.8547,0.04125523,0.76947
562.935,61.3026,-3.85604,0.03901532,0.76898
563.535,61.36261,-3.85604,0.0385778,0.7685
564.135,61.42255,-3.85735,0.04127379,0.76802
564.735,61.48239,-3.85604,0.03924858,0.76754
565.335,61.542,-3.85603,0.04153708,0.76705
565.935,61.6018,-3.8561,0.03945313,0.76657
566.535,61.6616,-3.85734,0.04020348,0.76609
567.135,61.7218,-3.85734,0.0379947,0.7656
567.735,61.7818,-3.85602,0.03745075,0.76512
568.335,61.84166,-3.85602,0.03788448,0.76464
568.935,61.90159,-3.85602,0.03878641,0.76415
569.535,61.9616,-3.85602,0.03768113,0.76367
570.135,62.02135,-3.85536,0.03870409,0.76319
570.735,62.0813,-3.85668,0.03846086,0.7627
571.335,62.1412,-3.85668,0.03872308,0.76222
571.935,62.2011,-3.85537,0.03941026,0.76173
572.535,62.26099,-3.85668,0.03987047,0.76125
573.135,62.32116,-3.85533,0.04157039,0.76076
573.735,62.3814,-3.85536,0.03809803,0.76028
574.335,62.44164,-3.85647,0.03896035,0.75979
574.935,62.5017,-3.85668,0.03681806,0.75931
575.535,62.5618,-3.85529,0.03734868,0.75882
576.135,62.6218,-3.85536,0.03872216,0.75834
576.735,62.6821,-3.85604,0.04002367,0.75785
577.335,62.7422,-3.85602,0.03848473,0.75737
577.935,62.8023,-3.85469,0.03824478,0.75688
578.535,62.8623,-3.85453,0.03779851,0.75639
579.135,62.92225,-3.85338,0.03818452,0.75591
579.735,62.9824,-3.85338,0.03736576,0.75542
580.335,63.0423,-3.85338,0.0382856,0.75494
580.935,63.10229,-3.85356,0.04040452,0.75445
581.535,63.1623,-3.8547,0.03771854,0.75396
582.135,63.2225,-3.8547,0.03977704,0.75347
582.735,63.2828,-3.8547,0.04054077,0.75299
583.335,63.343,-3.85175,0.03687884,0.7525
583.935,63.40295,-3.85199,0.03857757,0.75201
584.535,63.46301,-3.85408,0.03838885,0.75153
585.135,63.52287,-3.85449,0.03552663,0.75104
585.735,63.583,-3.85473,0.03806698,0.75055
586.335,63.64306,-3.8558,0.04065157,0.75006
586.935,63.7029,-3.85444,0.03996908,0.74958
587.535,63.763,-3.85449,0.03995204,0.74909
588.135,63.8229,-3.85466,0.03778982,0.7486
588.735,63.88313,-3.85515,0.03837155,0.74811
589.335,63.9435,-3.85515,0.0389563,0.74762
589.935,64.00355,-3.85519,0.03915952,0.74713
590.535,64.0639,-3.85383,0.03650671,0.74664
591.135,64.12386,-3.85376,0.03948095,0.74616
591.735,64.18425,-3.85515,0.03949456,0.74567
592.335,64.24432,-3.85382,0.04273665,0.74518
592.935,64.30447,-3.85383,0.03881477,0.74469
593.535,64.36452,-3.85383,0.03729122,0.7442
594.135,64.4246,-3.85251,0.03927346,0.74371
594.735,64.48464,-3.85246,0.04094132,0.74322
595.335,64.54465,-3.85317,0.042322,0.74273
595.935,64.60475,-3.85422,0.04330972,0.74224
596.535,64.66473,-3.85416,0.04002778,0.74175
597.135,64.7248,-3.85416,0.0402573,0.74126
597.735,64.78474,-3.85431,0.03981347,0.74077
598.335,64.84475,-3.85449,0.04375538,0.74028
598.935,64.90473,-3.85449,0.04044782,0.73979
599.535,64.96486,-3.85465,0.03819193,0.7393
600.135,65.02497,-3.85481,0.0404154,0.73881
600.735,65.08492,-3.85415,0.04337532,0.73832
601.335,65.1451,-3.85415,0.04215781,0.73783
601.935,65.20524,-3.85415,0.04294425,0.73734
602.535,65.2655,-3.85454,0.04141821,0.73684
603.135,65.32576,-3.85416,0.04120622,0.73635
603.735,65.38602,-3.85416,0.04312888,0.73586
604.335,65.4461,-3.85416,0.04074082,0.73537
604.935,65.5064,-3.85416,0.04005319,0.73488
605.535,65.56662,-3.85416,0.04274913,0.73439
606.135,65.62695,-3.85416,0.04278377,0.73389
606.735,65.68712,-3.85416,0.04477598,0.7334
607.335,65.74724,-3.85416,0.04448488,0.73291
607.935,65.80735,-3.85416,0.04472602,0.73242
608.535,65.8673,-3.85416,0.04260788,0.73193
609.135,65.9276,-3.85529,0.04156638,0.73143
609.735,65.98772,-3.85547,0.04529235,0.73094
610.335,66.04785,-3.85417,0.04285207,0.73045
610.935,66.10786,-3.853,0.04637763,0.72996
611.535,66.16796,-3.85284,0.04304458,0.72946
612.135,66.22805,-3.85284,0.04819992,0.72897
612.735,66.28823,-3.85283,0.04618583,0.72848
613.335,66.34831,-3.85416,0.04379372,0.72798
613.935,66.40861,-3.85282,0.0428994,0.72749
614.535,66.46896,-3.85415,0.04821555,0.727
615.135,66.52891,-3.85415,0.04281384,0.7265
615.735,66.58918,-3.85415,0.04596354,0.72601
616.335,66.64931,-3.85547,0.04761546,0.72552
616.935,66.70966,-3.85481,0.04648003,0.72502
617.535,66.7697,-3.85384,0.04510875,0.72453
618.135,66.82988,-3.85349,0.04803671,0.72403
618.735,66.89012,-3.85349,0.04729994,0.72354
619.335,66.95058,-3.85349,0.04541872,0.72305
619.935,67.0113,-3.85349,0.0430968,0.72255
620.535,67.07174,-3.85349,0.04868875,0.72206
621.135,67.1319,-3.85285,0.04540705,0.72156
621.735,67.19206,-3.85282,0.04703118,0.72107
622.335,67.25241,-3.85284,0.04758924,0.72057
622.935,67.3126,-3.85417,0.04731894,0.72008
623.535,67.37307,-3.85416,0.04964486,0.71958
624.135,67.43349,-3.85405,0.04485031,0.71909
624.735,67.49388,-3.85383,0.0463918,0.71859
625.335,67.5543,-3.85273,0.04919622,0.7181
625.935,67.6147,-3.85284,0.04680988,0.7176
626.535,67.67504,-3.85284,0.04873263,0.71711
627.135,67.73533,-3.85415,0.04680106,0.71661
627.735,67.7958,-3.85416,0.04596013,0.71612
628.335,67.85611,-3.85281,0.048428,0.71562
628.935,67.91655,-3.85284,0.04764107,0.71513
629.535,67.97699,-3.85284,0.04799972,0.71463
630.135,68.03719,-3.85369,0.04668407,0.71413
630.735,68.09791,-3.85383,0.0504213,0.71364
631.335,68.1583,-3.85383,0.04951638,0.71314
631.935,68.21874,-3.85383,0.04687777,0.71265
632.535,68.27906,-3.85292,0.04913276,0.71215
633.135,68.33931,-3.85251,0.04586456,0.71165
633.735,68.39963,-3.85317,0.04709298,0.71116
634.335,68.45996,-3.85317,0.0486966,0.71066
634.935,68.52025,-3.85317,0.04978197,0.71016
635.535,68.5805,-3.85317,0.04626704,0.70967
636.135,68.64061,-3.85317,0.05099229,0.70917
636.735,68.70067,-3.85317,0.04844817,0.70867
637.335,68.76101,-3.85315,0.04611649,0.70818
637.935,68.82128,-3.85252,0.04949759,0.70768
638.535,68.88161,-3.8512,0.04605468,0.70718
639.135,68.94194,-3.8512,0.04595868,0.70669
639.735,69.0022,-3.8512,0.04624951,0.70619
640.335,69.0625,-3.85121,0.04674054,0.70569
640.935,69.12264,-3.85252,0.04876029,0.70519
641.535,69.18299,-3.85252,0.04587759,0.7047
642.135,69.24306,-3.85256,0.0448474,0.7042
642.735,69.30298,-3.85186,0.0482221,0.7037
643.335,69.36296,-3.8518,0.04906737,0.7032
643.935,69.4228,-3.85353,0.04424099,0.7027
644.535,69.48306,-3.8535,0.04381732,0.70221
645.135,69.5434,-3.8535,0.04284269,0.70171
645.735,69.60392,-3.8535,0.04619725,0.70121
646.335,69.664,-3.8535,0.0463546,0.70071
646.935,69.724,-3.8535,0.04618987,0.70021
647.535,69.78412,-3.8535,0.04877959,0.69972
648.135,69.84442,-3.8535,0.04590521,0.69922
648.735,69.9048,-3.85344,0.04506141,0.69872
649.335,69.96499,-3.85374,0.04535443,0.69822
649.635,69.99492,-3.8548,0.04432353,0.69797