File: 01_Data/PineLap_SidingC/MCC/PineLap_SidingC_MCC_30K_min_211124_R3.txt
Sample ID:	C:\MCC\MCC Cal\Test\PineLap_SidingC_MCC_30K_min_211124_R3.txt
Sample Weight (mg):	4.43
Heating Rate (C/s):	0.5
Combustor Temp (C):	900
N2 Flow Rate (cc/min):	80
O2 Flow Rate (cc/min):	20
Calibration File:	C:\MCC\MCC Cal\Coeff1 JN10440_30_210304.txt.txt
T Correction Coefficients:	0	1.024463	0
Time Shift (s):	14
*
Time (s)	Temperature (C)	N2 flow rate (cc/min)	O2 flow rate (cc/min)	Flow Rate (cc/min)	Oxygen (%)	HRR (W/g)	Heating rate (C/s)
-0.001	109.555	80.007	19.994	103.124	19.991	-0.104	0.019
2.000	109.542	80.011	19.995	103.115	19.991	-0.096	0.011
4.000	109.507	80.010	19.995	103.127	19.990	-0.029	-0.018
6.000	109.533	80.010	19.994	103.124	19.989	0.063	0.007
8.000	109.531	80.009	19.994	103.127	19.989	0.002	0.011
10.000	109.502	80.006	19.995	103.142	19.991	-0.127	0.006
12.000	109.504	80.007	19.996	103.163	19.981	0.626	-0.017
14.000	109.569	80.007	19.995	103.185	19.984	0.414	0.011
16.000	109.546	80.009	19.994	103.184	19.983	0.437	-0.003
18.000	109.618	80.007	19.996	103.197	19.974	1.112	0.035
20.000	109.695	80.006	19.994	103.222	19.970	1.385	0.019
22.000	109.747	80.011	19.995	103.231	19.973	1.217	0.022
24.000	109.886	80.024	19.993	103.258	19.971	1.325	0.061
26.000	109.956	79.994	19.996	103.264	19.968	1.574	0.017
28.000	110.146	80.016	19.994	103.242	19.970	1.433	0.091
30.000	110.311	80.007	19.996	103.279	19.965	1.741	0.092
32.000	110.502	80.010	19.994	103.277	19.959	2.199	0.091
33.999	110.707	80.010	19.994	103.292	19.956	2.434	0.110
35.999	110.950	80.009	19.996	103.311	19.956	2.450	0.127
37.999	111.260	80.005	19.996	103.326	19.956	2.435	0.160
40.000	111.542	80.008	19.996	103.318	19.954	2.614	0.148
41.999	111.893	80.008	19.997	103.319	19.951	2.799	0.170
44.000	112.171	80.012	19.996	103.327	19.953	2.636	0.164
46.000	112.589	80.009	19.995	103.334	19.952	2.718	0.176
48.000	112.950	80.010	19.993	103.349	19.951	2.788	0.184
49.999	113.374	80.008	19.995	103.355	19.948	3.040	0.209
52.001	113.919	80.011	19.995	103.361	19.951	2.814	0.273
53.999	114.373	80.003	19.995	103.362	19.942	3.435	0.236
56.000	114.861	80.001	19.995	103.365	19.947	3.081	0.243
57.999	115.359	80.010	19.995	103.349	19.946	3.140	0.249
59.999	115.935	80.017	19.994	103.357	19.945	3.215	0.309
62.000	116.495	80.017	19.994	103.363	19.946	3.162	0.282
63.999	117.098	80.012	19.994	103.364	19.947	3.068	0.293
65.999	117.645	80.016	19.995	103.359	19.944	3.327	0.244
68.000	118.266	80.006	19.994	103.350	19.944	3.318	0.313
69.999	118.921	80.009	19.994	103.356	19.943	3.376	0.341
72.001	119.584	80.000	19.996	103.371	19.941	3.503	0.342
73.999	120.244	80.009	19.995	103.365	19.947	3.105	0.354
75.999	120.904	80.009	19.995	103.367	19.945	3.217	0.329
78.000	121.606	80.025	19.995	103.380	19.944	3.290	0.354
80.001	122.329	80.005	19.995	103.379	19.942	3.440	0.342
81.999	123.074	80.015	19.993	103.381	19.937	3.829	0.383
83.999	123.807	80.011	19.994	103.385	19.943	3.412	0.384
86.001	124.566	80.006	19.993	103.369	19.941	3.553	0.377
88.000	125.307	80.018	19.995	103.382	19.939	3.684	0.379
89.999	126.090	80.010	19.995	103.388	19.937	3.830	0.362
92.000	126.918	80.019	19.992	103.397	19.940	3.608	0.415
93.999	127.677	80.007	19.994	103.387	19.939	3.640	0.409
95.999	128.517	80.005	19.994	103.384	19.938	3.767	0.420
97.999	129.320	79.999	19.997	103.375	19.943	3.400	0.399
99.999	130.142	79.994	19.996	103.368	19.939	3.705	0.401
102.000	131.036	80.008	19.996	103.383	19.937	3.829	0.432
103.999	131.867	80.008	19.994	103.372	19.938	3.727	0.423
105.999	132.742	80.009	19.995	103.381	19.936	3.905	0.409
107.999	133.633	80.017	19.994	103.372	19.937	3.797	0.442
109.999	134.509	80.006	19.993	103.398	19.932	4.148	0.441
112.000	135.392	80.000	19.995	103.394	19.936	3.919	0.459
113.999	136.290	80.007	19.995	103.394	19.937	3.846	0.466
116.000	137.190	80.016	19.992	103.390	19.942	3.483	0.429
117.999	138.074	80.005	19.994	103.393	19.938	3.734	0.462
120.000	139.033	80.010	19.993	103.380	19.940	3.587	0.468
121.999	139.945	80.010	19.995	103.383	19.936	3.891	0.471
123.999	140.873	80.009	19.994	103.389	19.939	3.693	0.474
125.999	141.781	80.012	19.993	103.384	19.940	3.614	0.429
127.999	142.708	80.005	19.997	103.385	19.936	3.895	0.483
130.000	143.720	80.007	19.995	103.390	19.936	3.877	0.492
132.000	144.682	80.008	19.995	103.385	19.936	3.903	0.481
134.000	145.680	80.013	19.996	103.381	19.937	3.826	0.516
136.000	146.618	80.010	19.996	103.389	19.938	3.763	0.473
138.000	147.587	80.009	19.995	103.369	19.936	3.875	0.496
140.000	148.550	80.012	19.997	103.377	19.938	3.720	0.472
142.000	149.539	80.011	19.995	103.383	19.937	3.836	0.502
144.000	150.491	80.014	19.996	103.375	19.937	3.797	0.474
146.000	151.489	80.019	19.990	103.375	19.936	3.895	0.492
148.000	152.469	80.013	19.996	103.378	19.939	3.671	0.491
150.000	153.458	80.014	19.993	103.375	19.935	3.973	0.494
152.000	154.447	80.027	19.992	103.364	19.935	3.936	0.506
154.000	155.399	80.010	19.994	103.372	19.936	3.855	0.477
156.000	156.440	80.024	19.991	103.366	19.938	3.714	0.538
158.000	157.441	80.007	19.991	103.371	19.935	3.957	0.506
160.000	158.377	80.015	19.992	103.365	19.937	3.826	0.486
162.000	159.385	80.008	19.998	103.368	19.940	3.563	0.483
164.000	160.389	80.014	19.994	103.367	19.938	3.731	0.475
166.000	161.365	80.008	19.993	103.368	19.941	3.553	0.505
168.000	162.399	80.007	20.000	103.365	19.940	3.568	0.520
170.000	163.417	80.006	19.999	103.363	19.941	3.492	0.495
172.000	164.447	80.005	19.998	103.364	19.944	3.333	0.542
174.000	165.479	80.008	19.990	103.364	19.938	3.775	0.524
176.000	166.464	80.001	19.997	103.367	19.941	3.560	0.463
178.000	167.474	80.006	19.997	103.365	19.939	3.682	0.475
180.000	168.505	80.011	19.994	103.362	19.944	3.283	0.523
182.000	169.541	80.009	19.993	103.364	19.946	3.142	0.517
184.000	170.527	80.013	19.992	103.367	19.946	3.128	0.480
186.000	171.571	80.013	19.997	103.362	19.945	3.268	0.472
188.000	172.553	80.006	19.992	103.364	19.947	3.065	0.497
190.000	173.553	80.008	19.995	103.359	19.945	3.240	0.499
192.000	174.549	80.011	19.993	103.357	19.950	2.906	0.469
194.000	175.611	80.011	19.995	103.360	19.944	3.283	0.503
196.000	176.561	80.011	19.995	103.357	19.945	3.217	0.512
198.000	177.569	80.012	19.995	103.352	19.942	3.425	0.495
200.000	178.587	80.007	19.995	103.349	19.943	3.367	0.518
202.000	179.591	80.011	19.994	103.348	19.944	3.283	0.531
204.000	180.577	80.008	19.996	103.339	19.947	3.114	0.502
206.000	181.563	80.013	19.994	103.341	19.949	2.957	0.488
208.000	182.592	80.010	19.994	103.355	19.948	3.040	0.492
210.000	183.529	80.011	19.995	103.343	19.947	3.100	0.475
212.000	184.518	80.012	19.993	103.341	19.943	3.414	0.497
214.000	185.522	80.012	19.994	103.356	19.945	3.218	0.471
216.000	186.520	80.016	19.995	103.350	19.948	3.047	0.489
218.000	187.571	80.013	19.995	103.342	19.941	3.550	0.533
220.000	188.528	80.014	19.996	103.347	19.948	2.988	0.486
222.000	189.529	80.017	19.994	103.336	19.943	3.361	0.487
224.000	190.499	80.012	19.995	103.339	19.945	3.259	0.514
226.000	191.485	80.011	19.994	103.325	19.938	3.758	0.485
228.000	192.481	80.015	19.998	103.332	19.944	3.285	0.483
230.000	193.482	80.007	19.994	103.328	19.946	3.169	0.495
232.000	194.467	80.002	19.995	103.326	19.943	3.367	0.499
234.000	195.458	80.011	19.996	103.335	19.946	3.132	0.490
236.000	196.446	80.015	19.995	103.328	19.942	3.471	0.506
238.000	197.391	80.016	19.994	103.333	19.941	3.526	0.466
240.000	198.420	80.011	19.992	103.343	19.943	3.392	0.539
242.000	199.419	80.004	19.994	103.335	19.947	3.092	0.521
244.000	200.378	80.009	19.993	103.333	19.942	3.446	0.498
246.000	201.368	80.010	19.995	103.339	19.944	3.296	0.524
248.000	202.363	80.008	19.994	103.336	19.946	3.169	0.476
250.000	203.329	80.012	19.992	103.328	19.944	3.298	0.472
252.000	204.305	80.021	19.990	103.328	19.941	3.537	0.480
254.000	205.261	80.016	19.995	103.339	19.944	3.327	0.479
256.000	206.285	80.006	19.995	103.331	19.942	3.426	0.518
258.000	207.361	80.014	19.993	103.329	19.947	3.122	0.525
260.000	208.275	80.015	19.996	103.330	19.945	3.261	0.480
262.000	209.298	80.010	19.995	103.321	19.941	3.518	0.507
264.000	210.259	80.007	19.995	103.321	19.943	3.408	0.470
266.000	211.249	80.007	19.994	103.321	19.934	4.025	0.501
268.000	212.256	80.011	19.995	103.328	19.931	4.268	0.523
270.000	213.230	80.021	19.994	103.325	19.938	3.756	0.489
272.000	214.224	80.021	19.995	103.330	19.934	4.046	0.472
274.000	215.187	80.003	19.996	103.327	19.938	3.748	0.445
276.000	216.208	80.009	19.993	103.328	19.933	4.073	0.488
278.000	217.210	80.007	19.994	103.320	19.932	4.166	0.481
280.000	218.168	80.009	19.994	103.323	19.931	4.222	0.466
282.000	219.159	80.008	19.992	103.322	19.933	4.112	0.482
284.000	220.172	80.011	19.993	103.323	19.933	4.074	0.524
286.000	221.146	80.006	19.993	103.321	19.934	4.044	0.515
288.000	222.088	80.009	19.995	103.320	19.937	3.818	0.462
290.000	223.123	80.009	19.994	103.314	19.933	4.085	0.502
292.000	224.131	80.001	19.993	103.312	19.936	3.899	0.516
294.000	225.096	80.005	19.993	103.322	19.930	4.340	0.496
296.000	226.074	80.005	19.999	103.325	19.932	4.213	0.509
298.000	226.982	80.007	19.996	103.320	19.928	4.437	0.455
300.000	228.002	80.000	19.994	103.318	19.932	4.150	0.498
302.000	229.047	80.020	19.992	103.327	19.926	4.627	0.469
304.000	229.997	80.010	19.994	103.329	19.927	4.554	0.512
306.000	230.999	80.020	20.000	103.321	19.927	4.572	0.519
308.000	231.983	80.010	19.993	103.322	19.921	5.000	0.491
310.000	232.981	80.017	19.992	103.326	19.919	5.133	0.472
312.000	233.946	80.012	19.995	103.323	19.920	5.065	0.486
314.000	234.934	80.015	19.999	103.321	19.912	5.658	0.500
316.000	235.925	80.020	19.988	103.322	19.913	5.527	0.503
318.000	236.893	80.016	19.994	103.328	19.909	5.862	0.494
320.000	237.887	80.001	19.996	103.326	19.914	5.522	0.469
322.000	238.867	80.016	19.995	103.318	19.906	6.035	0.447
324.000	239.815	79.992	19.996	103.316	19.910	5.747	0.453
326.000	240.810	80.019	19.993	103.324	19.907	6.015	0.475
328.000	241.788	80.008	19.992	103.324	19.902	6.396	0.484
330.000	242.772	80.002	19.995	103.318	19.901	6.408	0.505
332.000	243.720	80.005	19.991	103.322	19.898	6.624	0.482
334.000	244.731	80.013	19.999	103.333	19.903	6.313	0.490
336.000	245.711	79.995	19.997	103.327	19.905	6.129	0.522
338.000	246.675	80.010	19.995	103.325	19.898	6.641	0.446
340.000	247.688	80.018	19.992	103.321	19.894	6.967	0.495
342.000	248.707	80.023	19.993	103.331	19.894	6.975	0.518
344.000	249.634	80.012	19.990	103.327	19.895	6.869	0.526
346.000	250.621	80.012	19.994	103.319	19.887	7.484	0.540
348.000	251.691	80.005	19.996	103.322	19.880	7.927	0.577
350.000	252.745	80.014	19.994	103.324	19.886	7.547	0.477
352.000	253.669	80.006	20.002	103.327	19.879	8.043	0.311
354.000	254.400	80.007	19.992	103.321	19.880	7.928	0.382
356.000	255.552	80.017	19.993	103.322	19.876	8.263	0.625
358.000	256.491	80.005	19.995	103.326	19.870	8.684	0.528
360.000	257.487	80.005	19.992	103.331	19.867	8.932	0.491
362.000	258.460	80.009	19.994	103.327	19.866	9.017	0.445
364.000	259.446	80.001	19.994	103.327	19.864	9.155	0.471
366.000	260.451	80.012	19.996	103.325	19.858	9.559	0.496
368.000	261.394	80.022	19.994	103.326	19.860	9.403	0.450
370.000	262.399	80.009	19.996	103.338	19.858	9.601	0.476
372.000	263.394	80.013	19.991	103.345	19.844	10.604	0.489
374.000	264.301	80.007	19.993	103.343	19.844	10.596	0.434
376.000	265.351	80.006	19.995	103.331	19.841	10.808	0.494
378.000	266.338	80.017	19.996	103.349	19.839	10.982	0.450
380.000	267.344	80.016	19.990	103.356	19.828	11.754	0.475
382.000	268.276	80.007	19.995	103.358	19.832	11.456	0.460
384.000	269.278	80.010	19.993	103.351	19.828	11.759	0.488
386.000	270.317	80.003	19.994	103.354	19.827	11.800	0.549
388.000	271.330	80.016	19.990	103.356	19.812	12.892	0.514
390.000	272.323	80.012	19.995	103.365	19.812	12.942	0.505
392.000	273.333	80.012	19.996	103.358	19.811	12.984	0.522
394.000	274.304	80.007	19.995	103.350	19.801	13.753	0.480
396.000	275.279	80.008	20.002	103.362	19.797	13.991	0.497
398.000	276.320	80.011	19.996	103.356	19.793	14.271	0.499
400.000	277.300	80.010	19.998	103.351	19.784	14.961	0.474
402.000	278.290	80.013	19.992	103.349	19.782	15.070	0.502
404.000	279.273	80.012	19.997	103.361	19.775	15.590	0.470
406.000	280.305	80.012	19.993	103.365	19.772	15.848	0.488
408.000	281.260	79.989	19.993	103.363	19.767	16.229	0.484
410.000	282.268	80.001	19.997	103.364	19.763	16.500	0.511
412.000	283.242	80.021	19.994	103.361	19.760	16.697	0.523
414.000	284.261	80.005	19.995	103.355	19.750	17.455	0.504
416.000	285.306	80.019	19.993	103.353	19.745	17.766	0.490
418.000	286.280	79.997	19.993	103.371	19.737	18.403	0.487
420.000	287.299	80.017	19.996	103.368	19.732	18.711	0.506
422.000	288.299	80.014	19.994	103.370	19.722	19.473	0.504
424.000	289.332	80.009	19.995	103.372	19.721	19.568	0.497
426.000	290.337	80.007	19.995	103.385	19.709	20.426	0.506
428.000	291.342	80.013	19.994	103.392	19.704	20.777	0.521
430.000	292.368	80.000	19.999	103.385	19.699	21.137	0.453
432.000	293.359	80.002	19.997	103.384	19.690	21.788	0.508
434.000	294.367	80.013	19.995	103.382	19.687	22.057	0.555
436.000	295.382	80.006	19.994	103.402	19.677	22.757	0.500
438.000	296.322	79.995	19.996	103.399	19.671	23.169	0.476
440.000	297.319	79.993	19.995	103.401	19.669	23.315	0.474
442.000	298.383	80.016	19.992	103.396	19.658	24.153	0.516
444.000	299.366	80.016	19.991	103.402	19.648	24.860	0.532
446.000	300.367	80.007	19.991	103.403	19.641	25.369	0.504
448.000	301.403	80.015	19.991	103.405	19.628	26.338	0.513
450.000	302.380	80.016	19.994	103.406	19.627	26.374	0.509
452.000	303.407	80.017	19.998	103.401	19.618	27.054	0.535
454.000	304.419	80.022	19.993	103.432	19.609	27.749	0.531
456.000	305.359	80.002	19.994	103.437	19.598	28.500	0.505
458.000	306.372	80.004	19.996	103.418	19.593	28.872	0.484
460.000	307.420	80.012	19.995	103.428	19.577	30.079	0.506
462.000	308.386	80.013	19.994	103.432	19.575	30.183	0.482
464.000	309.425	80.004	19.995	103.427	19.561	31.182	0.507
466.000	310.437	80.004	19.993	103.438	19.552	31.840	0.504
468.000	311.462	80.013	19.993	103.434	19.542	32.573	0.506
470.000	312.484	80.008	19.994	103.438	19.535	33.089	0.521
472.000	313.493	80.018	19.992	103.443	19.524	33.911	0.512
474.000	314.482	80.008	19.990	103.444	19.516	34.492	0.507
476.000	315.524	80.011	19.995	103.438	19.501	35.561	0.489
478.000	316.520	80.005	19.994	103.444	19.496	35.948	0.472
480.000	317.518	80.006	19.995	103.445	19.483	36.914	0.500
482.000	318.557	80.012	19.989	103.469	19.476	37.437	0.550
484.000	319.529	80.012	19.999	103.470	19.460	38.605	0.492
486.000	320.515	80.011	19.990	103.460	19.451	39.275	0.463
488.000	321.534	80.008	19.997	103.472	19.443	39.824	0.508
490.000	322.549	80.000	20.006	103.471	19.431	40.732	0.513
492.000	323.600	80.005	20.003	103.469	19.419	41.581	0.488
494.000	324.585	80.017	19.993	103.467	19.417	41.745	0.509
496.000	325.613	80.012	19.995	103.480	19.406	42.495	0.506
498.000	326.632	80.016	19.994	103.488	19.396	43.257	0.535
500.000	327.635	80.012	19.994	103.485	19.383	44.229	0.493
502.000	328.635	80.011	19.995	103.479	19.377	44.628	0.497
504.000	329.650	80.002	19.995	103.483	19.371	45.102	0.479
506.000	330.656	80.013	19.993	103.483	19.363	45.671	0.505
508.000	331.724	80.004	19.994	103.495	19.350	46.592	0.490
510.000	332.684	80.013	19.995	103.481	19.349	46.690	0.498
512.000	333.722	80.030	19.992	103.493	19.342	47.194	0.498
514.000	334.744	80.009	19.995	103.490	19.332	47.910	0.530
516.000	335.765	80.000	19.996	103.496	19.325	48.447	0.499
518.000	336.775	80.023	19.993	103.484	19.325	48.465	0.513
520.000	337.784	80.008	19.994	103.487	19.306	49.840	0.527
522.000	338.785	80.003	20.002	103.491	19.309	49.573	0.497
524.000	339.829	80.009	19.993	103.495	19.305	49.936	0.509
526.000	340.787	80.007	19.995	103.500	19.300	50.284	0.511
528.000	341.824	80.016	19.995	103.495	19.291	50.944	0.511
530.000	342.822	80.004	19.999	103.509	19.283	51.514	0.482
532.000	343.840	80.011	19.995	103.497	19.278	51.833	0.550
534.000	344.835	80.021	19.984	103.512	19.275	52.120	0.477
536.000	345.870	80.013	19.995	103.517	19.267	52.669	0.514
538.000	346.900	80.014	19.995	103.512	19.258	53.368	0.536
540.000	347.924	80.009	19.996	103.509	19.252	53.776	0.489
542.000	348.928	80.003	19.995	103.520	19.243	54.403	0.517
544.000	349.981	80.006	19.995	103.514	19.233	55.152	0.516
546.000	350.982	80.007	19.995	103.527	19.224	55.799	0.459
548.000	351.986	80.010	19.995	103.523	19.213	56.624	0.519
550.000	353.019	80.003	19.995	103.538	19.207	57.073	0.537
552.000	354.007	80.012	19.996	103.532	19.195	57.943	0.497
554.000	355.103	80.003	19.995	103.545	19.181	58.930	0.549
556.000	356.139	80.009	19.995	103.554	19.174	59.471	0.514
558.000	357.127	80.005	19.995	103.554	19.155	60.892	0.542
560.000	358.119	80.009	19.994	103.561	19.146	61.507	0.508
562.000	359.114	80.014	19.992	103.561	19.127	62.958	0.503
564.000	360.118	80.017	19.993	103.565	19.116	63.725	0.492
566.000	361.150	80.009	19.993	103.572	19.105	64.561	0.483
568.000	362.150	80.008	19.993	103.585	19.091	65.562	0.508
570.000	363.185	80.020	19.992	103.584	19.077	66.587	0.485
572.000	364.185	80.015	19.995	103.594	19.064	67.496	0.511
574.000	365.193	80.008	19.993	103.591	19.051	68.440	0.518
576.000	366.175	80.002	19.994	103.588	19.042	69.111	0.499
578.000	367.211	80.010	19.993	103.592	19.033	69.793	0.493
580.000	368.248	80.001	19.993	103.593	19.025	70.349	0.518
582.000	369.248	80.005	19.995	103.582	19.017	70.939	0.520
584.000	370.250	80.009	19.995	103.581	19.015	71.046	0.509
586.000	371.264	80.007	19.995	103.579	19.016	70.980	0.528
588.000	372.257	79.997	19.996	103.580	19.015	71.015	0.510
590.000	373.293	80.009	19.995	103.552	19.021	70.575	0.526
592.000	374.341	80.005	19.996	103.548	19.024	70.393	0.503
594.000	375.363	80.017	19.994	103.552	19.037	69.409	0.521
596.000	376.341	80.006	19.996	103.548	19.053	68.261	0.501
598.000	377.378	80.021	19.995	103.528	19.070	66.994	0.488
600.000	378.370	80.006	19.995	103.501	19.096	65.068	0.479
602.000	379.431	80.008	19.995	103.498	19.122	63.132	0.522
604.000	380.405	80.008	19.996	103.476	19.148	61.272	0.500
606.000	381.426	80.005	19.996	103.452	19.182	58.804	0.497
608.000	382.456	80.009	19.995	103.441	19.216	56.270	0.512
610.000	383.473	80.008	19.996	103.426	19.254	53.506	0.509
612.000	384.444	80.008	19.997	103.408	19.290	50.880	0.492
614.000	385.487	80.015	19.996	103.384	19.338	47.429	0.512
616.000	386.507	80.025	19.996	103.364	19.378	44.526	0.496
618.000	387.534	80.011	19.994	103.355	19.422	41.316	0.513
620.000	388.520	80.014	19.995	103.352	19.464	38.201	0.505
622.000	389.547	80.019	19.993	103.336	19.512	34.702	0.509
624.000	390.610	80.018	19.995	103.325	19.550	31.954	0.549
626.000	391.568	80.017	19.993	103.318	19.600	28.331	0.510
628.000	392.599	80.012	20.001	103.329	19.633	25.947	0.521
630.000	393.643	80.009	19.989	103.315	19.660	23.945	0.546
632.000	394.695	80.013	19.988	103.294	19.691	21.716	0.543
634.000	395.660	80.004	20.002	103.290	19.720	19.586	0.482
636.000	396.698	80.011	19.991	103.282	19.750	17.393	0.564
638.000	397.712	80.018	19.991	103.288	19.768	16.112	0.505
640.000	398.745	80.012	19.999	103.284	19.788	14.686	0.526
642.000	399.775	80.023	19.990	103.279	19.808	13.221	0.487
644.000	400.744	79.997	19.996	103.287	19.816	12.640	0.539
646.000	401.721	80.014	19.994	103.282	19.833	11.364	0.467
648.000	402.753	80.003	19.994	103.278	19.839	10.915	0.533
650.000	403.749	80.025	19.993	103.277	19.848	10.302	0.490
652.000	404.732	79.996	19.994	103.282	19.855	9.795	0.485
654.000	405.727	79.987	19.997	103.278	19.859	9.489	0.450
656.000	406.748	80.018	19.994	103.278	19.862	9.262	0.531
658.000	407.729	79.994	19.994	103.284	19.865	9.070	0.511
660.000	408.751	80.011	19.995	103.266	19.870	8.715	0.503
662.000	409.763	80.008	19.994	103.274	19.871	8.615	0.505
664.000	410.734	80.012	19.996	103.271	19.873	8.439	0.485
666.000	411.791	80.017	19.993	103.280	19.876	8.213	0.526
668.000	412.744	80.007	19.995	103.284	19.874	8.372	0.502
670.000	413.740	80.012	19.995	103.280	19.879	8.013	0.486
672.000	414.718	80.020	19.993	103.287	19.871	8.636	0.497
674.000	415.738	80.000	19.993	103.280	19.876	8.252	0.503
676.000	416.743	80.009	19.994	103.270	19.878	8.101	0.506
678.000	417.775	80.028	19.992	103.256	19.880	7.943	0.534
680.000	418.744	80.020	19.992	103.265	19.887	7.446	0.505
682.000	419.704	80.004	19.996	103.279	19.886	7.552	0.494
684.000	420.700	80.006	19.997	103.285	19.887	7.458	0.484
686.000	421.707	80.010	19.992	103.283	19.891	7.142	0.499
688.000	422.676	80.011	19.998	103.279	19.893	7.023	0.499
690.000	423.703	80.012	19.996	103.271	19.893	7.027	0.497
692.000	424.736	80.024	19.996	103.269	19.891	7.178	0.554
694.000	425.701	80.003	19.999	103.276	19.896	6.805	0.516
696.000	426.753	80.007	19.991	103.272	19.896	6.805	0.515
698.000	427.741	80.009	19.995	103.278	19.897	6.753	0.503
700.000	428.759	80.013	19.994	103.287	19.900	6.540	0.521
702.000	429.817	80.009	19.997	103.279	19.902	6.360	0.504
704.000	430.813	80.006	19.995	103.279	19.903	6.300	0.518
706.000	431.838	80.008	19.992	103.276	19.905	6.148	0.505
708.000	432.832	80.007	19.996	103.263	19.901	6.434	0.519
710.000	433.859	80.008	19.994	103.266	19.904	6.240	0.515
712.000	434.872	80.016	19.995	103.279	19.909	5.857	0.514
714.000	435.948	80.013	19.995	103.275	19.908	5.932	0.514
716.000	436.965	80.011	19.991	103.271	19.914	5.505	0.490
718.000	437.975	79.999	19.993	103.278	19.910	5.807	0.515
720.000	439.015	80.014	19.993	103.273	19.912	5.617	0.532
722.000	440.016	80.011	19.992	103.281	19.917	5.280	0.493
724.000	441.046	80.003	19.994	103.276	19.913	5.558	0.514
726.000	442.043	80.014	19.994	103.259	19.915	5.425	0.515
728.000	443.058	80.011	19.997	103.262	19.918	5.162	0.512
730.000	444.079	80.012	19.993	103.262	19.920	5.064	0.498
732.000	445.094	80.007	19.996	103.265	19.920	5.045	0.530
734.000	446.088	80.000	19.996	103.256	19.920	5.062	0.533
736.000	447.149	80.024	19.998	103.262	19.923	4.846	0.537
738.000	448.138	80.010	19.992	103.264	19.925	4.703	0.538
740.000	449.157	80.013	19.993	103.256	19.923	4.852	0.514
742.000	450.148	79.995	19.998	103.275	19.920	5.035	0.465
744.000	451.162	80.008	19.995	103.261	19.927	4.513	0.534
746.000	452.166	80.020	19.992	103.266	19.928	4.436	0.518
748.000	453.197	80.013	19.990	103.273	19.928	4.440	0.508
750.000	454.226	80.024	19.989	103.263	19.932	4.201	0.505
752.000	455.219	80.011	19.995	103.267	19.934	3.997	0.521
754.000	456.222	80.007	19.995	103.269	19.934	4.053	0.538
756.000	457.244	80.005	19.998	103.281	19.930	4.297	0.520
758.000	458.283	80.014	19.994	103.264	19.940	3.564	0.513
760.000	459.242	80.006	19.997	103.262	19.936	3.852	0.503
762.000	460.298	80.011	19.993	103.265	19.936	3.879	0.514
764.000	461.328	80.027	19.991	103.263	19.941	3.512	0.552
766.000	462.301	80.008	19.993	103.269	19.942	3.477	0.517
768.000	463.288	80.017	19.993	103.280	19.944	3.325	0.502
770.000	464.339	80.016	19.991	103.270	19.943	3.349	0.489
772.000	465.330	80.017	19.992	103.266	19.941	3.535	0.474
774.000	466.306	80.008	19.993	103.267	19.945	3.222	0.478
776.000	467.352	80.008	19.995	103.258	19.945	3.196	0.492
778.000	468.388	80.010	19.995	103.259	19.950	2.858	0.487
780.000	469.385	80.017	19.996	103.264	19.946	3.143	0.484
782.000	470.425	80.012	19.992	103.257	19.951	2.819	0.533
784.000	471.402	80.019	19.993	103.268	19.949	2.908	0.468
786.000	472.421	80.010	19.997	103.258	19.951	2.761	0.481
788.000	473.461	80.013	19.991	103.262	19.956	2.439	0.507
790.000	474.507	79.994	20.000	103.250	19.954	2.553	0.513
792.000	475.520	80.013	20.000	103.250	19.954	2.580	0.512
794.000	476.510	80.006	19.995	103.248	19.954	2.588	0.483
796.000	477.597	80.024	19.991	103.257	19.953	2.617	0.522
798.000	478.584	80.005	20.000	103.264	19.953	2.662	0.489
800.000	479.593	80.014	19.998	103.272	19.953	2.627	0.496
802.000	480.614	80.012	19.992	103.266	19.953	2.682	0.481
804.000	481.680	80.015	19.996	103.267	19.961	2.103	0.512
806.000	482.676	80.013	19.997	103.257	19.961	2.038	0.511
808.000	483.677	80.003	19.996	103.244	19.958	2.298	0.508
810.000	484.701	80.010	19.994	103.240	19.962	2.005	0.512
812.000	485.702	80.002	20.000	103.254	19.965	1.789	0.480
814.000	486.782	80.010	19.994	103.254	19.956	2.419	0.527
816.000	487.792	80.014	19.994	103.253	19.959	2.227	0.525
818.000	488.845	80.022	19.990	103.258	19.961	2.076	0.543
820.000	489.825	80.015	19.992	103.267	19.959	2.187	0.495
822.000	490.862	80.005	19.993	103.247	19.960	2.132	0.520
824.000	491.892	80.020	19.998	103.249	19.967	1.621	0.506
826.000	492.924	80.010	19.995	103.257	19.960	2.160	0.506
828.000	493.955	80.012	19.988	103.266	19.960	2.139	0.524
830.000	494.978	80.006	19.992	103.271	19.965	1.801	0.478
832.000	496.026	80.009	19.994	103.250	19.967	1.618	0.511
834.000	497.069	80.006	19.996	103.259	19.965	1.768	0.512
836.000	498.068	80.007	19.997	103.252	19.964	1.858	0.500
838.000	499.144	80.012	19.995	103.259	19.970	1.383	0.522
840.000	500.139	80.007	19.991	103.261	19.968	1.581	0.497
842.000	501.179	80.011	19.992	103.256	19.967	1.603	0.537
844.000	502.224	80.015	19.996	103.254	19.969	1.509	0.552
846.000	503.268	80.010	19.995	103.259	19.968	1.526	0.502
848.000	504.310	80.008	19.994	103.256	19.969	1.499	0.523
850.000	505.340	80.010	19.997	103.258	19.970	1.411	0.513
852.000	506.376	80.008	19.994	103.261	19.969	1.489	0.543
854.000	507.370	80.006	19.991	103.256	19.971	1.352	0.456
856.000	508.417	80.007	19.990	103.252	19.968	1.564	0.511
858.000	509.492	80.010	19.994	103.256	19.967	1.666	0.548
860.000	510.532	80.004	19.997	103.258	19.967	1.658	0.542
862.000	511.593	80.013	19.992	103.256	19.966	1.685	0.554
864.000	512.565	80.007	19.996	103.252	19.968	1.528	0.487
866.000	513.610	80.012	19.995	103.250	19.969	1.497	0.510
868.000	514.674	80.000	19.999	103.253	19.968	1.585	0.514
870.000	515.684	80.008	19.989	103.247	19.972	1.252	0.500
872.000	516.705	80.003	19.990	103.252	19.970	1.418	0.509
874.000	517.741	80.011	19.997	103.245	19.971	1.359	0.483
876.000	518.765	80.011	19.996	103.248	19.974	1.120	0.498
878.000	519.807	79.983	20.000	103.256	19.974	1.148	0.509
880.000	520.867	80.013	19.993	103.246	19.971	1.334	0.520
882.000	521.829	80.005	19.993	103.251	19.970	1.411	0.501
884.000	522.920	80.014	19.992	103.247	19.974	1.118	0.542
886.000	523.929	80.013	19.987	103.255	19.977	0.932	0.523
888.000	524.933	80.001	19.999	103.250	19.975	1.081	0.489
890.000	525.980	80.008	19.996	103.242	19.974	1.108	0.513
892.000	526.983	80.012	19.995	103.255	19.973	1.185	0.491
894.000	528.001	80.012	19.995	103.254	19.974	1.101	0.533
896.000	529.018	80.008	19.994	103.252	19.971	1.314	0.509
898.000	530.053	80.012	19.996	103.250	19.972	1.273	0.484
900.000	531.106	80.016	19.994	103.252	19.977	0.897	0.545
902.000	532.142	80.013	19.995	103.261	19.975	1.024	0.527
904.000	533.173	80.012	19.996	103.261	19.971	1.354	0.513
906.000	534.126	80.006	20.000	103.257	19.979	0.743	0.501
908.000	535.189	80.005	19.997	103.248	19.974	1.118	0.518
910.000	536.192	80.009	19.996	103.258	19.976	0.979	0.507
912.000	537.192	80.010	19.996	103.257	19.976	1.000	0.469
914.000	538.242	80.004	20.000	103.250	19.979	0.779	0.510
916.000	539.267	80.005	19.997	103.251	19.977	0.910	0.514
918.000	540.234	79.999	20.002	103.252	19.979	0.771	0.504
920.000	541.280	80.007	19.994	103.254	19.977	0.887	0.517
922.000	542.271	80.010	19.994	103.251	19.977	0.906	0.486
924.000	543.363	80.012	19.997	103.247	19.976	0.981	0.548
926.000	544.336	80.010	19.990	103.245	19.977	0.914	0.483
928.000	545.322	80.006	19.996	103.250	19.978	0.802	0.490
930.000	546.343	80.010	19.994	103.259	19.975	1.038	0.486
932.000	547.347	80.008	19.995	103.259	19.976	0.999	0.517
934.000	548.363	80.011	19.996	103.253	19.977	0.936	0.508
936.000	549.361	80.007	19.996	103.245	19.978	0.826	0.504
938.000	550.401	80.009	19.996	103.257	19.980	0.677	0.525
940.000	551.404	80.002	19.999	103.247	19.980	0.683	0.519
942.000	552.403	80.007	19.993	103.246	19.980	0.704	0.522
944.000	553.416	80.010	19.992	103.252	19.978	0.822	0.531
946.000	554.463	80.008	19.995	103.258	19.975	1.044	0.528
948.000	555.458	80.009	19.997	103.255	19.980	0.704	0.512
950.000	556.505	80.018	19.991	103.254	19.980	0.710	0.530
952.000	557.483	80.013	19.998	103.250	19.981	0.587	0.484
954.000	558.472	80.009	19.994	103.244	19.978	0.859	0.518
956.000	559.457	80.011	19.993	103.244	19.979	0.783	0.500
958.000	560.476	80.013	19.998	103.246	19.980	0.679	0.516
960.000	561.478	80.007	19.998	103.243	19.978	0.808	0.474
962.000	562.560	80.013	19.995	103.249	19.979	0.779	0.505
964.000	563.532	80.011	19.991	103.247	19.981	0.643	0.512
966.000	564.527	80.023	19.989	103.254	19.977	0.873	0.513
968.000	565.498	80.005	19.995	103.250	19.982	0.541	0.499
970.000	566.571	80.011	19.995	103.239	19.980	0.689	0.526
972.000	567.581	80.009	19.994	103.252	19.978	0.816	0.540
974.000	568.549	80.007	19.997	103.251	19.978	0.842	0.498
976.000	569.561	80.007	19.995	103.246	19.977	0.893	0.511
978.000	570.566	80.011	19.995	103.257	19.976	1.005	0.492
980.000	571.539	80.010	19.995	103.255	19.977	0.900	0.487
982.000	572.577	80.014	19.994	103.252	19.978	0.847	0.521
984.000	573.571	80.018	19.995	103.253	19.976	0.946	0.508
986.000	574.592	80.021	19.992	103.240	19.977	0.914	0.515
988.000	575.653	80.007	19.996	103.259	19.973	1.226	0.525
990.000	576.637	80.008	19.994	103.254	19.979	0.728	0.483
992.000	577.628	80.007	19.997	103.244	19.981	0.596	0.496
994.000	578.666	80.007	19.998	103.245	19.979	0.740	0.523
996.000	579.645	80.009	19.996	103.241	19.982	0.536	0.519
998.000	580.640	80.008	19.997	103.243	19.981	0.592	0.506
1000.000	581.649	80.012	19.997	103.241	19.981	0.612	0.506
1002.000	582.665	80.004	19.996	103.246	19.980	0.696	0.513
1004.000	583.651	80.011	19.996	103.242	19.982	0.524	0.533
1006.000	584.640	80.014	19.997	103.251	19.983	0.490	0.491
1008.000	585.678	80.013	19.995	103.245	19.980	0.687	0.506
1010.000	586.695	80.012	19.996	103.247	19.983	0.494	0.513
1012.000	587.735	80.011	19.995	103.243	19.982	0.539	0.519
1014.000	588.681	80.004	19.996	103.249	19.985	0.308	0.510
1016.000	589.678	80.009	19.996	103.251	19.985	0.318	0.500
1018.000	590.684	80.009	19.995	103.240	19.985	0.328	0.493
1020.000	591.617	80.010	19.994	103.242	19.983	0.445	0.502
1022.000	592.615	80.008	19.995	103.238	19.987	0.190	0.497
1024.000	593.617	79.998	19.996	103.237	19.985	0.337	0.514
1025.999	594.651	80.016	19.993	103.244	19.985	0.304	0.520
1028.001	595.684	80.016	19.993	103.256	19.988	0.124	0.480
1029.999	596.684	80.009	19.995	103.249	19.984	0.375	0.535
1031.999	597.734	80.019	19.994	103.233	19.983	0.494	0.523
1033.999	598.738	80.008	19.999	103.259	19.987	0.182	0.541
1035.999	599.761	80.013	19.996	103.252	19.986	0.251	0.529
1038.000	600.821	80.008	19.991	103.260	19.987	0.212	0.514
1040.000	601.888	80.010	19.994	103.227	19.984	0.418	0.529
1041.999	602.876	80.010	19.997	103.233	19.987	0.184	0.503
1043.999	603.928	80.005	19.994	103.263	19.984	0.375	0.511
1045.999	604.989	80.011	19.992	103.249	19.982	0.551	0.519
1048.000	606.010	80.008	19.995	103.250	19.984	0.398	0.496
1050.001	607.085	80.021	19.994	103.252	19.984	0.412	0.546
1051.999	608.139	80.020	19.993	103.245	19.985	0.304	0.514
1054.000	609.201	80.009	19.993	103.219	19.985	0.347	0.592
1055.999	610.206	80.011	19.994	103.208	19.982	0.526	0.501
1057.999	611.223	80.011	19.994	103.244	19.984	0.363	0.510
1060.000	612.261	80.012	19.994	103.224	19.983	0.486	0.511
1061.999	613.332	80.013	19.994	103.212	19.986	0.269	0.539
1064.001	614.371	80.009	19.995	103.224	19.984	0.404	0.547
1065.999	615.418	80.011	19.994	103.229	19.982	0.547	0.519
1067.999	616.432	80.010	19.995	103.214	19.985	0.345	0.512
1069.999	617.474	80.011	19.996	103.220	19.986	0.249	0.529
1072.000	618.481	80.012	19.995	103.224	19.989	0.047	0.502
1074.000	619.473	80.011	19.994	103.231	19.987	0.192	0.502
1075.999	620.491	80.008	19.995	103.206	19.989	0.033	0.502
1078.001	621.524	80.011	19.994	103.236	19.988	0.124	0.532
1079.999	622.496	80.007	19.995	103.249	19.989	0.033	0.502
1081.999	623.514	80.004	19.995	103.209	19.986	0.269	0.488
1083.999	624.500	80.009	19.995	103.242	19.986	0.265	0.497
1085.999	625.450	80.012	19.995	103.260	19.986	0.229	0.460
1087.999	626.479	80.006	19.995	103.242	19.986	0.279	0.496
1089.999	627.469	80.011	19.995	103.252	19.991	-0.118	0.477
1091.999	628.487	80.011	19.994	103.210	19.990	-0.055	0.473
1094.000	629.438	80.001	19.997	103.222	19.989	-0.004	0.461
1096.000	630.443	80.008	19.995	103.226	19.986	0.275	0.461
1098.000	631.479	80.008	19.996	103.230	19.985	0.306	0.497
1100.000	632.468	80.012	19.996	103.253	19.985	0.310	0.495
1101.999	633.487	80.011	19.995	103.222	19.991	-0.129	0.519
1104.000	634.509	80.009	19.997	103.233	19.987	0.157	0.523
1106.001	635.526	80.009	19.995	103.233	19.984	0.418	0.505
1107.999	636.531	80.010	19.995	103.246	19.988	0.071	0.496
1109.999	637.553	80.012	19.995	103.236	19.988	0.073	0.482
1112.000	638.576	80.010	19.994	103.249	19.988	0.098	0.497
1113.999	639.637	80.010	19.995	103.248	19.992	-0.186	0.534
1116.000	640.745	80.010	19.994	103.239	19.987	0.178	0.553
1118.000	641.866	80.012	19.995	103.237	19.986	0.233	0.561
1119.999	642.901	80.013	19.994	103.241	19.987	0.206	0.517
1121.999	643.962	80.015	19.994	103.236	19.984	0.369	0.546
1124.001	645.057	80.011	19.998	103.232	19.984	0.402	0.537
1126.000	646.154	80.013	19.996	103.235	19.986	0.247	0.554
1128.000	647.272	80.018	19.994	103.236	19.986	0.241	0.547
1130.000	648.375	80.010	19.996	103.233	19.989	0.059	0.551
1131.999	649.485	80.026	19.992	103.239	19.987	0.145	0.580
1134.001	650.572	80.013	19.991	103.254	19.989	-0.004	0.586
1136.001	651.652	80.011	19.995	103.245	19.984	0.379	0.533
1138.001	652.728	80.010	19.995	103.241	19.987	0.149	0.560
1140.001	653.780	80.011	19.993	103.240	19.985	0.290	0.541
1142.000	654.922	80.013	19.994	103.241	19.985	0.339	0.563
1144.000	656.024	80.012	19.995	103.246	19.983	0.481	0.561
1146.000	657.126	80.018	19.993	103.243	19.983	0.441	0.518
1148.000	658.254	80.015	19.994	103.246	19.981	0.600	0.555
1150.000	659.342	80.008	19.994	103.240	19.986	0.249	0.583
1152.001	660.436	80.010	19.994	103.242	19.986	0.263	0.533
1154.001	661.462	80.008	19.994	103.250	19.983	0.475	0.530
1156.000	662.585	80.012	19.994	103.248	19.985	0.316	0.533
1158.000	663.671	80.010	19.995	103.245	19.984	0.373	0.528
1160.000	664.767	80.010	19.994	103.249	19.982	0.534	0.526
1162.000	665.838	80.009	19.994	103.256	19.981	0.602	0.523
1164.000	666.932	80.012	19.995	103.265	19.984	0.410	0.543
1166.000	668.019	80.012	19.995	103.245	19.984	0.373	0.533
1168.000	669.083	80.009	19.996	103.252	19.985	0.322	0.513
1170.000	670.200	80.009	19.995	103.247	19.983	0.485	0.560
1172.001	671.266	80.010	19.995	103.254	19.983	0.449	0.544
1174.000	672.329	80.010	19.996	103.252	19.984	0.400	0.529
1176.000	673.420	80.009	19.995	103.255	19.984	0.375	0.559
1178.000	674.478	80.009	19.996	103.255	19.980	0.667	0.549
1180.000	675.590	80.007	19.995	103.252	19.983	0.500	0.531
1182.001	676.683	80.009	19.995	103.247	19.983	0.438	0.597
1184.000	677.671	80.009	19.995	103.256	19.987	0.212	0.504
1186.000	678.713	80.009	19.994	103.257	19.982	0.508	0.508
1188.000	679.740	80.011	19.995	103.259	19.983	0.502	0.489
1190.000	680.768	80.012	19.996	103.249	19.982	0.532	0.498
1192.000	681.772	80.010	19.996	103.256	19.987	0.202	0.525
1194.000	682.833	80.010	19.995	103.265	19.982	0.565	0.531
1196.000	683.869	80.010	19.996	103.253	19.983	0.485	0.540
1198.000	684.882	80.010	19.996	103.248	19.982	0.553	0.509
1200.000	685.896	80.010	19.997	103.249	19.987	0.177	0.470
1202.000	686.909	80.010	19.996	103.248	19.981	0.626	0.483
1204.000	687.910	80.010	19.995	103.242	19.983	0.449	0.484
1206.000	688.913	80.011	19.994	103.242	19.985	0.294	0.510
1208.000	689.906	80.009	19.995	103.246	19.986	0.251	0.486
1210.000	690.963	80.010	19.994	103.244	19.988	0.129	0.492
1212.000	691.966	80.011	19.995	103.243	19.988	0.131	0.488
1214.000	692.997	80.013	19.994	103.244	19.987	0.184	0.496
1216.000	693.981	80.012	19.995	103.243	19.991	-0.147	0.496
1218.000	695.001	80.012	19.995	103.243	19.983	0.451	0.513
1220.000	696.050	80.010	19.995	103.237	19.988	0.075	0.513
1222.000	697.058	80.011	19.995	103.241	19.988	0.114	0.526
1224.000	698.069	80.012	19.995	103.232	19.989	0.033	0.510
1226.000	699.077	80.013	19.994	103.223	19.992	-0.210	0.503
1228.000	700.073	80.011	19.995	103.212	19.992	-0.157	0.531
1230.001	701.071	80.014	19.994	103.213	19.989	0.018	0.460
1232.001	702.038	80.012	19.996	103.210	19.992	-0.222	0.487
1234.001	703.086	80.012	19.995	103.219	19.993	-0.241	0.531
1236.000	704.041	80.011	19.994	103.205	19.992	-0.167	0.477
1238.000	705.004	80.011	19.994	103.210	19.992	-0.202	0.485
1240.000	706.024	80.010	19.995	103.207	19.992	-0.208	0.492
1242.000	707.031	80.010	19.995	103.209	19.996	-0.463	0.503
1244.000	708.015	80.010	19.994	103.210	19.993	-0.280	0.509
1246.000	708.980	80.008	19.996	103.207	19.990	-0.075	0.487
1248.000	710.026	80.009	19.993	103.208	19.993	-0.276	0.520
1250.000	711.034	80.008	19.994	103.209	19.990	-0.065	0.523
1252.000	712.052	80.008	19.994	103.209	19.990	-0.063	0.505
1254.000	713.042	80.009	19.995	103.207	19.992	-0.155	0.501
1256.000	714.031	80.010	19.996	103.207	19.990	-0.055	0.482
1258.000	715.077	80.010	19.996	103.206	19.992	-0.175	0.513
1260.000	716.061	80.011	19.994	103.203	19.992	-0.208	0.512
1262.001	717.082	80.012	19.995	103.204	19.990	-0.024	0.513
1264.001	718.126	80.010	19.995	103.203	19.994	-0.322	0.520
1266.000	719.096	80.011	19.995	103.201	19.994	-0.296	0.491
1268.000	720.096	80.003	19.995	103.201	19.992	-0.214	0.502
1270.000	721.119	80.006	19.995	103.204	19.992	-0.210	0.498
1272.000	722.113	80.011	19.995	103.204	19.990	-0.073	0.497
1274.000	723.091	80.008	19.996	103.204	19.994	-0.314	0.469
1276.001	724.091	80.007	19.996	103.203	19.994	-0.337	0.505
1278.000	725.116	80.010	19.995	103.204	19.993	-0.278	0.502
1280.000	726.053	80.008	19.996	103.202	19.992	-0.190	0.485
1282.000	727.049	80.011	19.995	103.204	19.994	-0.353	0.501
1284.000	728.031	80.011	19.996	103.208	19.992	-0.218	0.473
1286.000	729.020	80.010	19.994	103.206	19.992	-0.188	0.504
1288.000	730.047	80.011	19.996	103.207	19.993	-0.265	0.520
1290.000	731.023	80.009	19.994	103.204	19.990	-0.069	0.522
1292.000	732.003	80.010	19.995	103.206	19.992	-0.212	0.505
1294.000	733.019	80.009	19.995	103.211	19.989	0.051	0.499
1296.000	733.983	80.010	19.996	103.206	19.993	-0.241	0.462
1298.000	735.002	80.011	19.995	103.207	19.994	-0.298	0.507
1300.000	735.996	80.008	19.995	103.207	19.992	-0.173	0.501
1302.000	736.963	80.012	19.995	103.205	19.993	-0.239	0.501
1304.000	737.977	80.012	19.995	103.206	19.994	-0.310	0.507
1306.000	738.984	80.012	19.994	103.210	19.994	-0.300	0.526
1308.000	739.973	80.014	19.994	103.206	19.990	-0.043	0.506
1310.000	740.934	80.013	19.994	103.207	19.992	-0.204	0.474
1312.000	741.977	80.012	19.994	103.207	19.989	0.053	0.487
1314.000	743.008	80.012	19.993	103.209	19.989	0.027	0.508
1315.500	743.714	80.011	19.994	103.210	19.991	-0.110	0.473