File: 01_Data/PineLap_SidingC/MCC/PineLap_SidingC_MCC_30K_min_211123_R2.txt
Sample ID:	C:\MCC\MCC Cal\Test\PineLap_SidingC_MCC_30K_min_211123_R2.txt
Sample Weight (mg):	4.22
Heating Rate (C/s):	0.5
Combustor Temp (C):	900
N2 Flow Rate (cc/min):	80
O2 Flow Rate (cc/min):	20
Calibration File:	C:\MCC\MCC Cal\Coeff1 JN10440_30_210304.txt.txt
T Correction Coefficients:	0	1.024463	0
Time Shift (s):	14
*
Time (s)	Temperature (C)	N2 flow rate (cc/min)	O2 flow rate (cc/min)	Flow Rate (cc/min)	Oxygen (%)	HRR (W/g)	Heating rate (C/s)
0.000	108.885	80.002	19.995	103.014	19.883	0.241	0.004
2.000	108.819	80.003	19.994	103.013	19.875	0.888	-0.005
4.000	108.868	80.000	19.994	103.012	19.879	0.532	-0.015
6.000	108.864	80.002	19.997	103.014	19.886	0.006	-0.044
8.000	108.884	80.003	19.996	103.014	19.879	0.587	-0.047
10.000	108.951	80.002	19.994	103.014	19.886	0.059	0.064
12.000	108.843	80.004	19.994	103.018	19.883	0.229	-0.015
14.000	108.856	80.004	19.994	103.022	19.885	0.129	0.017
16.000	108.829	80.002	19.994	103.024	19.890	-0.290	-0.033
18.000	108.819	80.003	19.994	103.025	19.885	0.108	-0.011
20.000	108.854	80.005	19.994	103.025	19.878	0.604	-0.009
22.000	108.872	80.004	19.994	103.039	19.878	0.641	-0.030
24.000	108.950	80.003	19.994	103.053	19.885	0.070	0.051
26.000	108.938	80.002	19.995	103.053	19.873	1.033	0.066
28.001	108.909	80.003	19.995	103.057	19.881	0.430	0.038
30.000	108.897	80.000	19.995	103.083	19.872	1.071	0.000
32.000	108.981	80.002	19.995	103.093	19.874	0.938	0.026
34.000	109.005	80.001	19.996	103.098	19.877	0.723	0.038
36.000	109.159	80.002	19.994	103.097	19.869	1.345	0.107
38.001	109.181	80.002	19.995	103.099	19.866	1.578	0.093
40.000	109.276	80.001	19.994	103.122	19.864	1.738	0.137
42.000	109.339	80.001	19.997	103.131	19.866	1.591	0.037
44.000	109.518	80.000	19.994	103.132	19.865	1.667	0.048
46.001	109.666	80.002	19.996	103.140	19.866	1.590	0.088
48.000	109.861	80.001	19.996	103.133	19.859	2.129	-0.083
50.000	109.818	80.003	19.995	103.138	19.856	2.295	-0.033
52.000	110.249	80.001	19.995	103.158	19.855	2.406	-0.041
54.000	110.430	80.001	19.996	103.171	19.853	2.574	0.199
56.000	110.413	80.000	19.995	103.196	19.848	2.933	0.061
58.001	111.067	80.001	19.994	103.206	19.847	3.044	0.157
60.001	111.210	80.000	19.995	103.230	19.839	3.605	0.055
62.000	111.398	80.002	19.996	103.251	19.845	3.169	-0.061
64.000	112.012	80.001	19.994	103.259	19.834	3.973	-0.046
66.000	111.908	80.001	19.995	103.265	19.841	3.438	-0.156
68.000	112.773	80.001	19.996	103.269	19.826	4.602	0.177
70.001	113.332	80.002	19.996	103.299	19.836	3.873	0.360
72.000	113.772	80.002	19.995	103.316	19.827	4.564	0.400
74.000	114.113	80.004	19.997	103.326	19.830	4.322	-0.100
76.000	114.981	80.005	19.994	103.329	19.827	4.502	0.660
78.000	114.983	80.004	19.996	103.341	19.828	4.430	-0.133
80.000	115.834	80.002	19.995	103.348	19.818	5.208	0.467
82.000	116.255	80.004	19.994	103.330	19.821	5.028	0.006
84.000	117.004	80.000	19.994	103.332	19.827	4.545	0.030
86.000	118.341	80.002	19.994	103.337	19.820	5.091	0.883
88.001	119.071	80.003	19.995	103.332	19.823	4.825	0.588
90.000	119.872	80.004	19.995	103.330	19.820	5.086	0.399
92.000	120.321	80.004	19.995	103.335	19.828	4.498	0.152
94.001	121.181	80.002	19.995	103.337	19.825	4.695	0.418
96.000	121.610	80.007	19.997	103.337	19.816	5.365	0.382
98.000	123.189	80.005	19.993	103.353	19.818	5.228	1.031
100.000	123.668	80.005	19.995	103.345	19.825	4.704	0.584
102.001	124.780	80.003	19.993	103.345	19.825	4.684	0.631
104.001	125.718	80.006	19.995	103.335	19.821	5.029	0.735
106.000	126.671	80.007	19.995	103.345	19.815	5.419	0.498
108.000	127.416	80.003	19.994	103.358	19.819	5.186	0.418
110.000	128.303	80.001	19.995	103.363	19.817	5.325	0.588
112.000	129.734	80.002	19.993	103.353	19.812	5.655	0.462
114.001	130.724	80.002	19.994	103.356	19.816	5.347	0.812
116.000	131.334	80.001	19.995	103.347	19.816	5.392	0.508
118.000	132.563	80.001	19.996	103.341	19.817	5.265	0.476
120.000	133.460	80.001	19.996	103.333	19.817	5.285	0.485
122.000	134.821	80.000	19.995	103.330	19.825	4.705	0.385
124.000	135.731	80.002	19.994	103.328	19.817	5.292	0.691
126.000	136.874	80.002	19.995	103.328	19.818	5.199	0.523
128.000	137.897	80.004	19.995	103.325	19.814	5.514	0.544
130.000	138.755	80.002	19.995	103.325	19.819	5.110	0.602
132.000	140.052	80.004	19.996	103.322	19.821	4.969	0.369
134.000	141.385	80.002	19.993	103.325	19.820	5.080	0.708
136.000	142.644	80.003	19.995	103.324	19.819	5.151	0.565
138.000	143.384	80.002	19.995	103.314	19.822	4.885	0.525
140.000	144.702	80.001	19.995	103.309	19.826	4.589	0.584
142.000	145.907	80.002	19.997	103.314	19.822	4.949	0.647
144.000	146.982	79.999	19.997	103.315	19.824	4.736	0.620
146.000	148.127	80.001	19.996	103.311	19.822	4.923	0.659
148.000	149.182	80.001	19.996	103.308	19.826	4.580	0.613
150.000	150.246	80.000	19.996	103.298	19.824	4.797	0.495
152.000	151.390	80.002	19.996	103.289	19.828	4.479	0.679
154.000	152.774	80.001	19.996	103.288	19.822	4.950	0.482
156.000	153.457	80.002	19.994	103.288	19.826	4.579	0.646
158.000	154.784	80.002	19.995	103.288	19.827	4.525	0.495
160.000	155.573	80.003	19.995	103.275	19.824	4.796	0.530
162.000	156.679	80.003	19.996	103.284	19.827	4.498	0.470
164.000	158.100	80.001	19.994	103.272	19.826	4.646	0.571
166.000	159.077	80.002	19.994	103.257	19.827	4.498	0.751
168.000	160.197	80.002	19.995	103.255	19.833	4.076	0.544
170.000	161.078	80.001	19.995	103.250	19.830	4.307	0.374
172.000	162.146	80.002	19.995	103.248	19.831	4.253	0.471
174.000	163.279	80.004	19.995	103.244	19.829	4.403	0.526
176.000	164.229	80.002	19.995	103.239	19.832	4.147	0.522
178.000	165.234	80.004	19.994	103.237	19.831	4.192	0.434
180.000	166.330	80.002	19.995	103.221	19.834	4.028	0.425
182.000	167.397	80.003	19.994	103.217	19.836	3.850	0.524
184.000	168.317	80.002	19.994	103.211	19.831	4.239	0.449
186.000	169.271	80.004	19.995	103.226	19.837	3.774	0.458
188.000	170.251	80.004	19.995	103.215	19.832	4.182	0.537
190.000	171.104	80.002	19.995	103.210	19.831	4.249	0.438
192.000	172.147	80.001	19.994	103.215	19.838	3.721	0.481
194.000	173.140	80.001	19.994	103.211	19.835	3.888	0.610
196.000	174.055	80.002	19.994	103.211	19.841	3.479	0.640
198.000	174.912	80.001	19.995	103.215	19.833	4.110	0.431
200.000	175.892	80.000	19.994	103.213	19.835	3.907	0.617
202.000	176.693	80.002	19.994	103.215	19.826	4.602	0.613
204.000	177.665	80.002	19.994	103.215	19.838	3.661	0.433
206.000	178.516	80.001	19.995	103.212	19.837	3.798	0.423
208.000	179.440	80.000	19.995	103.216	19.838	3.715	0.473
210.000	180.497	80.001	19.997	103.215	19.835	3.950	0.618
212.000	181.218	80.001	19.995	103.217	19.830	4.268	0.481
214.000	181.981	80.002	19.997	103.219	19.838	3.700	0.471
216.000	182.773	80.002	19.995	103.213	19.836	3.869	0.448
218.000	184.142	80.001	19.996	103.216	19.833	4.057	0.285
220.000	184.687	80.000	19.994	103.216	19.839	3.612	0.508
222.000	185.926	80.003	19.994	103.221	19.829	4.399	0.480
224.000	186.634	80.001	19.997	103.218	19.840	3.563	0.457
226.000	187.270	80.000	19.995	103.224	19.829	4.366	0.436
228.000	188.419	80.000	19.994	103.222	19.831	4.243	0.309
230.000	189.210	80.000	19.996	103.222	19.832	4.149	0.392
232.000	190.094	80.002	19.995	103.230	19.833	4.051	0.377
234.000	191.125	80.000	19.995	103.225	19.827	4.556	0.278
236.000	191.805	80.002	19.995	103.229	19.828	4.420	0.464
238.000	193.081	80.004	19.995	103.222	19.832	4.187	0.353
240.000	193.771	80.001	19.996	103.216	19.827	4.533	0.507
242.000	194.542	80.003	19.996	103.224	19.824	4.726	0.388
244.000	195.550	80.002	19.994	103.240	19.826	4.588	0.402
246.000	196.557	80.002	19.995	103.241	19.834	3.963	0.306
248.000	197.162	80.002	19.996	103.238	19.830	4.279	0.284
250.000	198.254	80.003	19.996	103.240	19.831	4.211	0.283
252.000	199.510	80.002	19.994	103.245	19.827	4.517	0.434
254.000	199.983	80.002	19.996	103.242	19.827	4.537	0.521
256.000	200.918	80.003	19.994	103.240	19.828	4.443	0.458
258.000	202.007	80.003	19.994	103.241	19.826	4.592	0.446
260.000	203.041	80.004	19.994	103.242	19.831	4.227	0.516
262.000	204.009	80.005	19.994	103.242	19.829	4.407	0.386
264.000	205.025	80.004	19.994	103.236	19.829	4.370	0.409
266.000	206.004	80.003	19.995	103.232	19.830	4.293	0.577
268.000	206.941	80.004	19.995	103.236	19.828	4.445	0.440
270.000	207.922	80.003	19.995	103.231	19.827	4.562	0.295
272.000	208.775	80.002	19.995	103.235	19.829	4.380	0.356
274.000	210.098	80.001	19.995	103.219	19.828	4.466	0.315
276.000	210.705	80.001	19.994	103.232	19.824	4.790	0.375
278.000	211.814	79.999	19.995	103.248	19.818	5.245	0.193
280.000	213.140	80.002	19.994	103.248	19.828	4.429	0.939
282.000	214.098	80.003	19.994	103.251	19.822	4.911	0.740
284.000	215.096	80.001	19.994	103.251	19.822	4.907	0.375
286.000	216.300	80.003	19.994	103.251	19.823	4.855	0.604
288.000	216.966	80.001	19.995	103.251	19.818	5.208	0.219
290.000	218.318	80.002	19.993	103.252	19.824	4.775	0.925
292.000	219.001	80.001	19.995	103.253	19.819	5.168	0.269
294.000	220.254	80.003	19.994	103.253	19.817	5.316	0.433
296.000	221.341	80.001	19.994	103.250	19.813	5.603	0.273
298.000	222.493	80.001	19.995	103.249	19.811	5.731	0.774
300.000	223.523	80.002	19.994	103.247	19.821	4.965	0.723
302.000	223.936	80.002	19.995	103.232	19.809	5.932	0.296
304.000	225.330	80.000	19.995	103.229	19.815	5.469	0.598
306.000	226.285	80.002	19.996	103.241	19.813	5.580	0.732
308.000	227.444	80.001	19.995	103.229	19.812	5.712	0.694
310.000	228.244	80.000	19.996	103.222	19.812	5.656	0.326
312.000	229.329	80.003	19.996	103.230	19.812	5.690	0.517
314.000	230.660	80.002	19.996	103.223	19.813	5.614	0.706
316.000	231.547	80.002	19.995	103.234	19.808	5.952	0.229
318.000	232.683	80.005	19.995	103.227	19.809	5.889	0.466
320.000	233.718	80.002	19.996	103.229	19.803	6.386	0.261
322.000	234.897	80.003	19.995	103.234	19.807	6.046	0.459
324.000	235.963	80.005	19.996	103.216	19.808	5.997	0.515
326.000	237.050	80.005	19.995	103.215	19.806	6.144	0.560
328.000	238.011	80.004	19.995	103.226	19.806	6.126	0.481
330.000	239.037	80.002	19.996	103.219	19.802	6.454	0.493
332.000	240.052	80.001	19.996	103.216	19.800	6.575	0.460
334.000	240.990	80.001	19.996	103.218	19.795	6.954	0.635
336.000	242.195	80.002	19.996	103.212	19.795	6.980	0.528
338.000	243.089	80.003	19.996	103.218	19.796	6.902	0.550
340.000	244.019	80.002	19.996	103.220	19.793	7.092	0.401
342.000	245.072	80.003	19.997	103.217	19.786	7.651	0.455
344.000	246.048	80.004	19.995	103.222	19.786	7.646	0.429
346.000	247.150	80.004	19.993	103.221	19.789	7.451	0.525
348.000	248.106	80.004	19.995	103.212	19.788	7.508	0.566
350.000	249.072	80.004	19.995	103.219	19.781	8.012	0.506
352.000	250.073	80.004	19.994	103.224	19.781	8.063	0.533
354.000	251.097	80.003	19.993	103.216	19.775	8.513	0.472
356.000	251.979	80.002	19.994	103.224	19.778	8.279	0.394
358.000	253.105	80.003	19.994	103.234	19.771	8.824	0.421
360.000	254.106	80.003	19.995	103.232	19.767	9.106	0.524
362.000	254.992	80.001	19.995	103.226	19.770	8.885	0.498
364.000	255.928	80.001	19.994	103.230	19.769	8.982	0.447
366.000	256.907	80.003	19.996	103.241	19.762	9.529	0.510
368.000	257.876	80.001	19.995	103.240	19.758	9.781	0.538
370.000	258.912	80.002	19.995	103.231	19.757	9.894	0.463
372.000	259.805	80.003	19.995	103.225	19.755	10.027	0.457
374.000	260.857	80.002	19.994	103.238	19.747	10.630	0.465
376.000	261.815	80.002	19.995	103.237	19.749	10.507	0.421
378.000	262.815	80.003	19.995	103.237	19.741	11.125	0.427
380.000	263.725	80.003	19.994	103.236	19.743	10.977	0.505
382.000	264.771	80.003	19.993	103.235	19.738	11.319	0.486
384.000	265.731	80.002	19.995	103.240	19.737	11.414	0.497
386.000	266.665	80.003	19.994	103.242	19.732	11.815	0.512
388.000	267.717	80.001	19.996	103.250	19.730	11.952	0.467
390.000	268.608	80.002	19.996	103.251	19.722	12.512	0.533
392.000	269.534	80.002	19.995	103.249	19.720	12.699	0.480
394.000	270.717	80.001	19.996	103.250	19.718	12.871	0.552
396.000	271.614	80.001	19.995	103.249	19.713	13.252	0.548
398.000	272.624	80.003	19.996	103.247	19.713	13.209	0.496
400.000	273.568	80.003	19.995	103.247	19.709	13.535	0.488
402.000	274.602	80.002	19.996	103.249	19.705	13.861	0.481
404.000	275.540	80.003	19.995	103.250	19.698	14.394	0.448
406.000	276.584	80.004	19.994	103.250	19.696	14.537	0.532
408.000	277.530	80.003	19.995	103.250	19.691	14.911	0.504
410.000	278.527	80.003	19.995	103.249	19.684	15.458	0.502
412.000	279.540	80.003	19.995	103.251	19.679	15.817	0.554
414.000	280.466	80.003	19.994	103.250	19.678	15.925	0.451
416.000	281.415	80.003	19.996	103.250	19.671	16.432	0.426
418.000	282.444	80.003	19.995	103.254	19.669	16.633	0.447
420.000	283.419	80.002	19.995	103.258	19.662	17.113	0.521
422.000	284.370	80.002	19.996	103.258	19.655	17.630	0.490
424.000	285.359	80.002	19.994	103.255	19.653	17.842	0.481
426.000	286.296	80.004	19.996	103.257	19.648	18.204	0.516
428.000	287.296	80.005	19.995	103.254	19.641	18.751	0.518
430.000	288.268	80.004	19.995	103.253	19.633	19.329	0.472
432.000	289.282	80.003	19.996	103.261	19.628	19.706	0.479
434.000	290.186	80.004	19.995	103.263	19.625	19.961	0.504
436.000	291.181	80.003	19.995	103.268	19.616	20.673	0.462
438.000	292.167	80.002	19.994	103.262	19.610	21.109	0.492
440.000	293.186	80.004	19.995	103.280	19.605	21.521	0.506
442.000	294.144	80.002	19.994	103.282	19.597	22.086	0.487
444.000	295.115	80.003	19.995	103.285	19.598	22.034	0.489
446.000	296.128	80.002	19.995	103.287	19.588	22.797	0.515
448.000	297.066	80.003	19.994	103.288	19.582	23.250	0.499
450.000	298.139	80.004	19.994	103.288	19.577	23.627	0.460
452.000	299.152	80.002	19.994	103.289	19.569	24.203	0.534
454.000	300.107	80.002	19.996	103.288	19.560	24.926	0.543
456.000	301.106	80.002	19.993	103.289	19.550	25.671	0.514
458.000	302.159	80.002	19.995	103.296	19.543	26.211	0.577
460.000	303.138	80.002	19.994	103.292	19.539	26.558	0.500
462.000	304.193	80.003	19.994	103.293	19.527	27.479	0.517
464.001	305.160	80.004	19.994	103.300	19.517	28.186	0.491
466.000	306.163	80.002	19.994	103.310	19.515	28.382	0.509
468.000	307.180	80.003	19.995	103.314	19.506	29.060	0.488
470.000	308.224	80.003	19.994	103.322	19.492	30.142	0.517
472.000	309.205	80.002	19.994	103.320	19.482	30.896	0.475
474.000	310.256	80.001	19.994	103.325	19.476	31.362	0.523
476.000	311.251	80.002	19.994	103.324	19.467	32.022	0.487
478.000	312.286	80.003	19.994	103.330	19.453	33.079	0.480
480.000	313.252	80.004	19.994	103.330	19.443	33.851	0.506
482.000	314.364	80.004	19.994	103.330	19.439	34.207	0.527
484.000	315.369	80.003	19.994	103.332	19.427	35.133	0.554
486.000	316.351	80.005	19.994	103.338	19.414	36.092	0.498
488.000	317.330	80.004	19.994	103.337	19.405	36.823	0.525
490.000	318.415	80.004	19.996	103.353	19.396	37.440	0.532
492.000	319.365	80.004	19.995	103.354	19.386	38.225	0.536
494.000	320.377	80.004	19.996	103.346	19.378	38.878	0.481
496.000	321.446	80.002	19.996	103.354	19.364	39.935	0.470
498.000	322.459	80.002	19.995	103.360	19.358	40.364	0.493
500.000	323.449	80.002	19.994	103.359	19.350	40.971	0.509
502.000	324.511	80.004	19.994	103.361	19.341	41.642	0.497
504.000	325.469	80.004	19.996	103.362	19.327	42.715	0.470
506.000	326.608	80.004	19.994	103.364	19.317	43.499	0.530
508.000	327.518	80.005	19.994	103.364	19.310	44.020	0.498
510.000	328.517	80.005	19.994	103.363	19.298	44.969	0.494
512.000	329.572	80.005	19.996	103.363	19.294	45.289	0.501
514.000	330.585	80.006	19.995	103.363	19.283	46.120	0.455
516.000	331.582	80.005	19.995	103.363	19.278	46.513	0.541
518.000	332.590	80.002	19.995	103.366	19.267	47.322	0.521
520.000	333.580	80.003	19.996	103.366	19.262	47.726	0.503
522.000	334.586	80.001	19.996	103.365	19.259	47.929	0.470
524.001	335.608	80.001	19.995	103.365	19.253	48.380	0.513
526.000	336.582	80.002	19.995	103.371	19.246	48.957	0.486
528.000	337.585	80.002	19.995	103.373	19.237	49.625	0.504
530.000	338.538	80.002	19.995	103.378	19.234	49.894	0.460
532.000	339.577	80.002	19.995	103.381	19.228	50.309	0.476
534.000	340.592	80.003	19.994	103.378	19.222	50.760	0.503
536.000	341.634	80.003	19.994	103.387	19.220	50.976	0.509
538.000	342.573	80.002	19.994	103.377	19.211	51.604	0.493
540.000	343.615	80.003	19.995	103.378	19.211	51.639	0.522
542.000	344.626	80.004	19.995	103.383	19.202	52.318	0.483
544.000	345.639	80.003	19.993	103.389	19.195	52.833	0.507
546.000	346.632	80.002	19.994	103.391	19.188	53.377	0.509
548.000	347.649	80.002	19.995	103.395	19.182	53.882	0.512
550.000	348.651	80.003	19.995	103.398	19.173	54.576	0.512
552.000	349.667	80.001	19.995	103.397	19.167	55.031	0.499
554.000	350.686	80.003	19.994	103.404	19.157	55.741	0.481
556.000	351.672	80.002	19.995	103.405	19.148	56.451	0.517
558.000	352.690	80.002	19.996	103.405	19.140	57.054	0.541
560.000	353.728	80.003	19.994	103.405	19.131	57.778	0.453
562.001	354.795	80.004	19.994	103.407	19.121	58.520	0.534
564.000	355.773	80.006	19.995	103.413	19.112	59.237	0.522
566.000	356.731	80.005	19.993	103.414	19.098	60.284	0.474
568.000	357.779	80.005	19.994	103.426	19.092	60.762	0.499
570.000	358.834	80.004	19.994	103.440	19.072	62.324	0.560
572.000	359.819	80.005	19.994	103.443	19.063	62.992	0.535
574.000	360.782	80.005	19.994	103.443	19.053	63.704	0.499
576.000	361.816	80.003	19.994	103.444	19.036	65.066	0.543
578.000	362.802	80.003	19.995	103.443	19.024	65.961	0.488
580.000	363.783	80.004	19.995	103.443	19.011	66.938	0.528
582.000	364.854	80.002	19.996	103.446	18.995	68.176	0.537
584.000	365.843	80.003	19.995	103.445	18.982	69.216	0.499
586.000	366.754	80.005	19.995	103.454	18.972	69.942	0.480
588.000	367.831	80.003	19.995	103.464	18.961	70.787	0.500
590.000	368.788	80.004	19.995	103.468	18.954	71.292	0.491
592.000	369.826	80.006	19.994	103.460	18.946	71.947	0.490
594.000	370.874	80.004	19.995	103.460	18.936	72.648	0.487
596.000	371.883	80.005	19.996	103.456	18.930	73.148	0.486
598.000	372.902	80.005	19.995	103.446	18.931	73.046	0.525
600.000	373.949	80.003	19.995	103.444	18.926	73.392	0.537
602.000	374.979	80.001	19.994	103.443	18.927	73.322	0.539
604.000	375.935	80.001	19.994	103.439	18.934	72.823	0.492
606.000	376.961	80.002	19.997	103.430	18.950	71.585	0.503
608.000	377.961	80.002	19.995	103.415	18.964	70.487	0.497
610.000	378.974	80.001	19.995	103.407	18.977	69.498	0.500
612.000	379.987	80.000	19.995	103.388	19.002	67.574	0.530
614.000	380.996	80.000	19.996	103.368	19.024	65.891	0.500
616.000	381.986	80.002	19.996	103.365	19.050	63.885	0.520
618.000	382.960	80.004	19.997	103.339	19.077	61.780	0.514
620.000	383.978	80.002	19.998	103.322	19.117	58.727	0.523
622.000	385.010	80.003	19.995	103.306	19.151	56.131	0.516
624.000	385.953	80.005	19.995	103.295	19.188	53.325	0.493
626.000	387.014	80.003	19.993	103.272	19.223	50.589	0.507
628.000	387.944	80.003	19.995	103.249	19.265	47.399	0.492
630.000	388.975	80.002	19.993	103.244	19.306	44.269	0.512
632.000	389.940	80.003	19.994	103.228	19.347	41.124	0.474
634.000	390.990	80.002	19.995	103.220	19.389	37.936	0.532
636.000	392.009	80.002	19.996	103.209	19.425	35.230	0.515
638.000	393.025	80.003	19.995	103.206	19.463	32.277	0.537
640.000	394.050	80.001	19.995	103.188	19.495	29.864	0.524
642.000	395.040	80.002	19.996	103.184	19.537	26.630	0.529
644.000	396.068	80.003	19.996	103.176	19.561	24.806	0.543
646.000	397.057	80.003	19.996	103.169	19.589	22.702	0.470
648.000	398.047	80.004	19.995	103.169	19.613	20.816	0.484
650.000	399.106	80.005	19.995	103.169	19.635	19.139	0.520
652.000	400.111	80.003	19.995	103.168	19.654	17.710	0.488
654.000	401.074	80.004	19.993	103.164	19.670	16.510	0.486
656.000	402.096	80.004	19.995	103.164	19.680	15.724	0.486
658.000	403.113	80.005	19.994	103.166	19.696	14.521	0.510
660.000	404.115	80.001	19.995	103.168	19.706	13.755	0.538
662.000	405.080	80.003	19.994	103.167	19.710	13.469	0.492
664.000	406.082	80.001	19.994	103.171	19.721	12.639	0.493
666.000	407.044	80.003	19.995	103.172	19.725	12.339	0.536
668.000	408.062	80.003	19.995	103.172	19.727	12.167	0.499
670.000	409.053	80.004	19.994	103.169	19.732	11.753	0.466
672.000	410.035	80.004	19.994	103.168	19.733	11.689	0.497
674.000	411.067	80.004	19.994	103.165	19.733	11.665	0.521
676.000	412.071	80.005	19.995	103.172	19.735	11.515	0.540
678.000	413.076	80.004	19.995	103.172	19.738	11.294	0.518
680.000	414.039	80.003	19.994	103.171	19.739	11.268	0.476
682.000	415.026	80.002	19.996	103.170	19.738	11.315	0.493
684.000	416.022	80.003	19.996	103.169	19.744	10.850	0.491
686.000	417.040	80.004	19.995	103.171	19.742	11.044	0.503
688.000	418.057	80.003	19.996	103.170	19.747	10.603	0.506
690.000	419.117	80.005	19.994	103.170	19.742	11.050	0.517
692.000	420.134	80.003	19.994	103.169	19.751	10.315	0.503
694.000	421.176	80.002	19.995	103.169	19.756	9.973	0.545
696.000	422.207	80.004	19.995	103.169	19.750	10.421	0.504
698.000	423.196	80.004	19.995	103.169	19.750	10.400	0.505
700.000	424.278	80.002	19.995	103.160	19.750	10.431	0.504
702.000	425.308	80.001	19.994	103.168	19.753	10.183	0.531
704.000	426.376	80.004	19.996	103.166	19.756	9.909	0.518
706.000	427.424	80.002	19.997	103.164	19.758	9.818	0.519
708.000	428.476	80.003	19.996	103.155	19.755	10.014	0.530
710.000	429.535	80.002	19.995	103.166	19.756	9.983	0.529
712.000	430.531	80.002	19.996	103.157	19.763	9.415	0.483
714.000	431.606	80.001	19.996	103.163	19.762	9.455	0.522
716.000	432.634	80.002	19.995	103.169	19.764	9.330	0.514
718.000	433.695	80.003	19.994	103.172	19.766	9.207	0.497
720.000	434.770	80.004	19.994	103.167	19.768	9.041	0.546
722.000	435.765	80.003	19.994	103.155	19.771	8.828	0.491
724.000	436.829	80.001	19.993	103.158	19.769	8.964	0.528
726.000	437.895	80.002	19.996	103.164	19.772	8.751	0.506
728.000	438.934	80.003	19.992	103.169	19.773	8.684	0.501
730.000	439.935	80.004	19.994	103.169	19.774	8.551	0.534
732.000	440.973	80.005	19.995	103.169	19.773	8.685	0.502
734.000	441.958	80.004	19.993	103.156	19.774	8.548	0.491
736.000	443.015	80.003	19.994	103.145	19.774	8.587	0.474
738.000	444.012	80.004	19.994	103.147	19.780	8.079	0.497
740.000	445.078	80.002	19.994	103.155	19.779	8.221	0.532
742.000	446.079	80.003	19.994	103.162	19.783	7.917	0.510
744.000	447.051	80.004	19.995	103.158	19.781	8.050	0.505
746.000	448.077	80.004	19.995	103.146	19.787	7.584	0.489
748.000	449.071	80.004	19.994	103.143	19.787	7.574	0.498
750.000	450.071	80.005	19.994	103.144	19.786	7.675	0.501
752.000	451.071	80.005	19.994	103.142	19.787	7.592	0.511
754.000	452.097	80.006	19.994	103.134	19.787	7.597	0.505
756.000	453.094	80.004	19.995	103.141	19.791	7.244	0.499
758.000	454.062	80.007	19.994	103.153	19.792	7.164	0.490
760.000	455.107	80.004	19.995	103.154	19.791	7.299	0.492
762.000	456.114	80.006	19.994	103.157	19.793	7.157	0.508
764.000	457.107	80.005	19.994	103.143	19.793	7.123	0.507
766.000	458.128	80.003	19.996	103.137	19.793	7.140	0.499
768.000	459.149	80.003	19.995	103.152	19.796	6.911	0.518
770.000	460.147	80.003	19.995	103.148	19.797	6.802	0.535
772.000	461.153	80.004	19.995	103.146	19.803	6.391	0.514
774.000	462.087	80.001	19.994	103.140	19.799	6.702	0.503
776.000	463.082	80.002	19.994	103.149	19.802	6.413	0.498
778.000	464.129	80.001	19.996	103.156	19.805	6.196	0.527
780.000	465.119	80.005	19.994	103.152	19.801	6.530	0.518
782.000	466.104	80.003	19.994	103.152	19.806	6.125	0.485
784.000	467.116	80.001	19.994	103.158	19.807	6.034	0.483
786.000	468.154	80.003	19.994	103.160	19.807	6.058	0.517
788.000	469.161	80.004	19.996	103.152	19.805	6.185	0.532
790.000	470.181	80.003	19.996	103.159	19.805	6.236	0.507
792.000	471.143	80.003	19.995	103.159	19.808	5.943	0.484
794.000	472.160	80.001	19.995	103.156	19.806	6.101	0.488
796.000	473.212	80.002	19.995	103.148	19.809	5.934	0.527
798.000	474.215	80.002	19.996	103.141	19.812	5.710	0.477
800.000	475.207	80.001	19.994	103.134	19.810	5.851	0.500
802.001	476.248	80.002	19.996	103.137	19.814	5.538	0.485
804.000	477.205	80.001	19.995	103.137	19.812	5.683	0.484
806.000	478.189	80.002	19.995	103.143	19.814	5.524	0.460
808.000	479.212	80.004	19.995	103.143	19.817	5.284	0.500
810.000	480.170	80.004	19.995	103.137	19.818	5.249	0.479
812.000	481.178	80.004	19.995	103.134	19.816	5.344	0.454
814.000	482.163	80.005	19.995	103.142	19.814	5.511	0.503
816.000	483.180	80.005	19.995	103.147	19.814	5.530	0.519
818.000	484.120	80.004	19.994	103.138	19.812	5.674	0.493
820.000	485.160	80.004	19.994	103.138	19.815	5.436	0.496
822.000	486.147	80.003	19.995	103.149	19.813	5.569	0.495
824.000	487.141	80.004	19.996	103.139	19.816	5.364	0.514
826.000	488.148	80.004	19.993	103.144	19.814	5.497	0.480
828.000	489.152	80.004	19.995	103.159	19.816	5.337	0.483
830.000	490.164	80.004	19.994	103.140	19.819	5.132	0.521
832.000	491.166	80.005	19.995	103.143	19.815	5.417	0.514
834.001	492.199	80.004	19.994	103.136	19.817	5.309	0.506
836.000	493.236	80.005	19.994	103.135	19.817	5.261	0.538
838.000	494.290	80.006	19.995	103.132	19.816	5.335	0.535
840.000	495.353	80.005	19.994	103.134	19.816	5.333	0.532
842.000	496.382	80.005	19.994	103.138	19.819	5.178	0.531
844.000	497.412	80.003	19.994	103.147	19.820	5.055	0.511
846.000	498.423	80.003	19.996	103.138	19.818	5.227	0.524
848.000	499.457	80.002	19.994	103.136	19.818	5.245	0.528
850.000	500.443	80.003	19.995	103.135	19.818	5.194	0.523
852.000	501.453	80.003	19.994	103.142	19.816	5.337	0.497
854.000	502.511	80.002	19.994	103.143	19.821	5.001	0.518
856.000	503.507	80.002	19.994	103.139	19.820	5.061	0.521
858.000	504.509	80.003	19.995	103.139	19.819	5.137	0.489
860.000	505.553	80.002	19.995	103.136	19.819	5.108	0.515
862.000	506.568	80.003	19.995	103.137	19.821	4.985	0.523
864.000	507.592	80.003	19.996	103.134	19.819	5.120	0.564
866.000	508.565	80.003	19.995	103.136	19.819	5.159	0.516
868.000	509.599	80.004	19.995	103.139	19.820	5.093	0.516
870.000	510.626	80.004	19.994	103.147	19.820	5.079	0.518
872.000	511.663	80.001	19.993	103.138	19.824	4.786	0.510
874.000	512.693	80.003	19.996	103.135	19.820	5.087	0.508
876.000	513.714	80.002	19.995	103.143	19.821	4.954	0.510
878.000	514.779	80.002	19.995	103.140	19.821	5.001	0.520
880.000	515.788	80.002	19.996	103.133	19.820	5.067	0.528
882.000	516.834	80.001	19.995	103.133	19.824	4.735	0.506
884.000	517.835	80.002	19.995	103.132	19.821	4.960	0.485
886.000	518.936	80.001	19.995	103.134	19.817	5.267	0.548
888.000	519.924	80.002	19.995	103.137	19.818	5.253	0.505
890.000	520.972	80.002	19.995	103.134	19.819	5.106	0.521
892.000	521.969	80.003	19.994	103.131	19.821	4.972	0.542
894.000	523.019	80.003	19.995	103.131	19.815	5.407	0.506
896.000	524.002	80.004	19.996	103.131	19.817	5.306	0.541
898.000	525.058	80.003	19.995	103.132	19.815	5.440	0.533
900.000	526.033	80.003	19.996	103.131	19.819	5.132	0.504
902.000	527.062	80.003	19.994	103.132	19.817	5.299	0.484
904.000	528.090	80.002	19.993	103.132	19.820	5.053	0.508
906.000	529.096	80.003	19.997	103.136	19.819	5.124	0.499
908.000	530.134	80.003	19.994	103.137	19.819	5.147	0.484
910.000	531.133	80.004	19.994	103.136	19.821	4.995	0.499
912.000	532.167	80.003	19.995	103.136	19.817	5.280	0.510
914.000	533.180	80.002	19.996	103.148	19.818	5.216	0.487
916.000	534.218	80.003	19.995	103.135	19.819	5.151	0.503
918.000	535.276	80.003	19.994	103.133	19.818	5.214	0.518
920.000	536.312	80.004	19.994	103.133	19.820	5.044	0.491
922.000	537.346	80.004	19.994	103.133	19.821	4.950	0.493
924.000	538.364	80.005	19.994	103.133	19.820	5.079	0.521
926.000	539.401	80.004	19.994	103.137	19.820	5.048	0.537
928.000	540.455	80.002	19.994	103.138	19.820	5.034	0.536
930.000	541.489	80.002	19.994	103.135	19.820	5.028	0.552
932.000	542.491	80.002	19.994	103.138	19.819	5.169	0.509
934.000	543.529	80.002	19.994	103.137	19.821	5.007	0.529
936.000	544.528	80.001	19.993	103.135	19.822	4.897	0.498
938.000	545.576	80.002	19.993	103.135	19.821	5.009	0.523
940.000	546.581	80.003	19.995	103.142	19.822	4.944	0.536
942.000	547.612	80.002	19.994	103.142	19.823	4.831	0.497
944.000	548.633	80.003	19.993	103.133	19.821	4.977	0.515
946.000	549.723	80.003	19.994	103.133	19.820	5.056	0.539
948.000	550.785	80.001	19.994	103.132	19.819	5.136	0.527
950.000	551.795	80.003	19.995	103.132	19.819	5.110	0.504
952.000	552.834	80.002	19.995	103.134	19.822	4.913	0.493
954.000	553.889	80.002	19.994	103.133	19.818	5.241	0.536
956.000	554.932	80.001	19.995	103.131	19.819	5.169	0.530
958.000	555.968	80.002	19.996	103.129	19.820	5.050	0.488
960.000	557.009	80.002	19.994	103.131	19.821	4.985	0.507
962.000	558.053	80.002	19.995	103.130	19.822	4.884	0.534
964.000	559.077	80.001	19.994	103.131	19.823	4.854	0.501
966.000	560.125	80.002	19.996	103.137	19.823	4.852	0.516
968.000	561.214	80.002	19.996	103.135	19.822	4.919	0.549
970.000	562.208	80.003	19.995	103.132	19.822	4.891	0.508
972.000	563.240	80.004	19.995	103.131	19.821	5.016	0.510
974.000	564.298	80.002	19.994	103.132	19.820	5.028	0.513
976.000	565.335	80.003	19.995	103.133	19.815	5.407	0.490
978.000	566.380	80.003	19.995	103.131	19.816	5.341	0.530
980.000	567.416	80.001	19.996	103.133	19.814	5.497	0.506
982.000	568.434	80.003	19.995	103.133	19.817	5.294	0.512
984.000	569.470	80.002	19.995	103.132	19.817	5.269	0.525
986.000	570.500	80.002	19.997	103.132	19.820	5.083	0.493
988.000	571.512	80.001	19.996	103.131	19.819	5.169	0.496
990.000	572.509	80.001	19.995	103.132	19.821	5.016	0.509
992.000	573.554	80.002	19.995	103.133	19.817	5.269	0.514
994.000	574.623	80.002	19.994	103.134	19.823	4.872	0.514
996.000	575.639	80.004	19.993	103.134	19.819	5.130	0.518
998.000	576.676	80.003	19.994	103.133	19.821	5.022	0.521
1000.000	577.742	80.003	19.993	103.134	19.817	5.328	0.526
1002.001	578.730	80.005	19.992	103.132	19.821	5.008	0.530
1004.000	579.784	80.004	19.995	103.126	19.821	4.995	0.501
1006.000	580.808	80.005	19.995	103.128	19.828	4.442	0.527
1008.000	581.872	80.004	19.995	103.161	19.837	3.783	0.552
1010.000	582.890	80.003	19.994	103.192	19.837	3.730	0.497
1012.000	583.904	80.003	19.994	103.145	19.833	4.076	0.514
1014.000	584.886	80.003	19.995	103.134	19.828	4.426	0.519
1016.000	585.972	80.001	19.994	103.131	19.830	4.324	0.536
1018.000	586.973	80.002	19.994	103.132	19.825	4.657	0.501
1020.000	587.981	80.003	19.995	103.131	19.825	4.690	0.494
1022.000	588.973	80.003	19.994	103.131	19.823	4.866	0.501
1024.000	590.003	80.002	19.993	103.131	19.820	5.056	0.503
1026.000	591.014	80.004	19.994	103.132	19.819	5.173	0.512
1028.000	592.012	80.002	19.994	103.131	19.821	5.005	0.504
1030.000	593.080	80.002	19.994	103.129	19.820	5.048	0.530
1032.001	594.084	80.003	19.995	103.131	19.819	5.161	0.524
1034.000	595.095	80.003	19.995	103.131	19.819	5.153	0.526
1036.000	596.113	80.004	19.995	103.131	19.820	5.057	0.504
1038.000	597.120	80.002	19.994	103.133	19.821	4.962	0.499
1040.001	598.136	80.002	19.995	103.133	19.817	5.302	0.498
1042.000	599.196	80.002	19.995	103.134	19.818	5.183	0.543
1044.000	600.166	80.002	19.994	103.134	19.816	5.374	0.530
1046.000	601.236	80.001	19.995	103.134	19.816	5.331	0.507
1048.000	602.244	80.002	19.995	103.132	19.817	5.302	0.508
1050.000	603.240	80.001	19.995	103.134	19.817	5.306	0.479
1052.000	604.309	80.004	19.995	103.135	19.819	5.136	0.503
1054.000	605.298	80.002	19.995	103.133	19.817	5.292	0.523
1056.000	606.334	80.003	19.994	103.134	19.819	5.138	0.555
1058.000	607.344	80.003	19.995	103.134	19.817	5.329	0.517
1060.000	608.351	80.002	19.995	103.135	19.817	5.290	0.520
1062.001	609.397	80.004	19.995	103.135	19.816	5.398	0.521
1064.000	610.381	80.004	19.993	103.136	19.817	5.318	0.481
1066.000	611.409	80.003	19.995	103.135	19.816	5.330	0.530
1068.000	612.437	80.002	19.994	103.133	19.817	5.275	0.545
1070.000	613.437	80.003	19.995	103.132	19.815	5.414	0.499
1072.001	614.508	80.002	19.995	103.131	19.817	5.298	0.532
1074.000	615.480	80.002	19.996	103.124	19.818	5.202	0.540
1076.000	616.539	80.002	19.995	103.124	19.812	5.666	0.532
1078.001	617.542	80.003	19.995	103.126	19.814	5.503	0.510
1080.001	618.557	80.002	19.995	103.125	19.807	6.016	0.477
1082.001	619.639	80.005	19.996	103.129	19.831	4.201	0.496
1084.000	620.664	80.004	19.993	103.129	19.821	4.983	0.549
1086.000	621.686	80.005	19.995	103.130	19.817	5.263	0.501
1088.001	622.744	80.004	19.995	103.128	19.816	5.388	0.512
1090.001	623.677	80.004	19.995	103.129	19.814	5.507	0.464
1092.000	624.732	80.003	19.995	103.131	19.812	5.656	0.462
1094.000	625.586	80.001	19.996	103.131	19.818	5.182	0.705
1096.000	627.068	80.002	19.994	103.129	19.819	5.149	1.041
1098.000	628.294	80.002	19.994	103.130	19.812	5.656	0.969
1100.000	628.884	80.003	19.994	103.132	19.815	5.446	0.636
1102.000	629.876	80.002	19.994	103.133	19.810	5.839	0.456
1104.001	630.815	80.001	19.995	103.136	19.814	5.499	0.490
1106.000	631.829	80.003	19.995	103.135	19.809	5.881	0.522
1108.000	632.931	80.002	19.994	103.136	19.813	5.597	0.536
1110.000	634.007	80.001	19.995	103.135	19.809	5.916	0.408
1112.000	635.380	80.004	19.994	103.133	19.816	5.405	1.084
1114.001	636.114	80.001	19.994	103.135	19.813	5.607	0.816
1116.000	636.907	80.003	19.994	103.133	19.811	5.720	0.363
1118.000	638.256	80.002	19.994	103.133	19.814	5.559	0.342
1120.000	639.282	80.002	19.994	103.134	19.811	5.742	1.067
1122.000	640.319	80.000	19.995	103.136	19.814	5.498	0.350
1124.000	641.366	80.000	19.994	103.136	19.811	5.739	0.442
1126.000	642.435	80.002	19.993	103.139	19.813	5.626	0.530
1128.000	643.527	80.001	19.994	103.145	19.812	5.676	0.541
1130.001	644.570	80.002	19.994	103.160	19.812	5.659	0.519
1132.000	645.599	80.002	19.994	103.157	19.814	5.519	0.509
1134.000	646.674	80.002	19.996	103.150	19.812	5.679	0.548
1136.000	647.756	80.005	19.995	103.145	19.809	5.874	0.537
1138.000	648.824	80.004	19.994	103.147	19.812	5.688	0.552
1140.000	649.955	80.004	19.994	103.145	19.813	5.569	0.549
1142.000	651.007	80.003	19.995	103.140	19.813	5.611	0.529
1144.000	652.119	80.001	19.995	103.134	19.813	5.618	0.545
1146.001	653.167	80.002	19.996	103.142	19.813	5.618	0.522
1148.000	654.278	80.003	19.995	103.140	19.810	5.831	0.548
1150.000	655.357	80.003	19.995	103.148	19.809	5.940	0.553
1152.000	656.431	80.004	19.995	103.149	19.808	5.957	0.545
1154.000	657.497	80.002	19.995	103.150	19.809	5.901	0.548
1156.000	658.555	80.004	19.995	103.140	19.809	5.936	0.520
1158.000	659.663	80.004	19.994	103.146	19.809	5.908	0.534
1160.000	660.709	80.003	19.995	103.146	19.812	5.693	0.528
1162.000	661.741	80.003	19.995	103.158	19.808	5.988	0.529
1164.001	662.794	80.004	19.996	103.151	19.811	5.715	0.541
1166.000	663.846	80.004	19.994	103.144	19.811	5.787	0.553
1168.000	664.933	80.006	19.995	103.154	19.812	5.701	0.504
1170.001	665.965	80.007	19.995	103.161	19.810	5.852	0.509
1172.000	667.021	80.003	19.997	103.159	19.810	5.830	0.510
1174.001	668.104	80.002	19.995	103.163	19.809	5.918	0.525
1176.001	669.179	80.000	19.996	103.161	19.811	5.785	0.539
1178.000	670.228	80.003	19.994	103.167	19.809	5.906	0.524
1180.000	671.306	80.000	19.996	103.159	19.809	5.930	0.529
1182.001	672.363	80.001	19.995	103.167	19.810	5.865	0.525
1184.000	673.454	80.003	19.994	103.172	19.807	6.049	0.557
1186.001	674.448	80.003	19.994	103.169	19.807	6.041	0.531
1188.000	675.578	80.001	19.993	103.170	19.810	5.814	0.665
1190.000	676.650	80.005	19.995	103.158	19.808	5.968	0.599
1192.000	677.692	80.004	19.995	103.167	19.808	5.947	0.556
1194.000	678.743	80.003	19.995	103.166	19.809	5.937	0.522
1196.000	679.799	80.002	19.995	103.172	19.807	6.076	0.551
1198.000	680.844	80.002	19.994	103.173	19.809	5.908	0.537
1200.001	681.919	80.003	19.995	103.171	19.807	6.024	0.514
1202.000	682.947	80.000	19.994	103.170	19.814	5.492	0.551
1204.000	684.009	79.999	19.994	103.168	19.808	6.010	0.532
1206.000	685.069	80.002	19.996	103.171	19.810	5.804	0.525
1208.000	686.087	80.003	19.995	103.169	19.810	5.824	0.534
1210.001	687.156	80.001	19.994	103.160	19.810	5.864	0.526
1212.000	688.227	80.003	19.996	103.162	19.809	5.922	0.551
1214.000	689.267	80.003	19.995	103.160	19.806	6.143	0.542
1216.000	690.309	80.003	19.994	103.166	19.810	5.842	0.498
1218.000	691.359	80.002	19.994	103.169	19.811	5.756	0.538
1220.000	692.397	80.005	19.994	103.161	19.808	5.966	0.546
1222.001	693.413	80.005	19.994	103.155	19.811	5.788	0.504
1224.000	694.455	80.002	19.994	103.157	19.812	5.700	0.513
1226.000	695.498	80.003	19.993	103.157	19.809	5.916	0.530
1228.000	696.520	80.004	19.994	103.162	19.812	5.671	0.504
1230.001	697.579	80.003	19.995	103.140	19.811	5.736	0.518
1232.000	698.546	80.005	19.995	103.135	19.812	5.656	0.497
1234.001	699.585	80.003	19.995	103.145	19.809	5.931	0.508
1236.000	700.609	80.002	19.995	103.139	19.808	6.008	0.516
1238.001	701.625	80.002	19.995	103.135	19.811	5.750	0.516
1240.000	702.628	80.003	19.996	103.135	19.812	5.697	0.499
1242.000	703.604	80.004	19.995	103.132	19.808	6.002	0.479
1244.000	704.626	80.002	19.994	103.131	19.809	5.904	0.512
1246.000	705.666	80.006	19.994	103.132	19.809	5.916	0.510
1248.000	706.622	80.006	19.995	103.132	19.814	5.548	0.464
1250.000	707.692	80.005	19.994	103.131	19.809	5.924	0.526
1252.000	708.675	80.003	19.993	103.130	19.811	5.714	0.472
1254.000	709.713	80.002	19.994	103.130	19.812	5.674	0.508
1256.001	710.700	80.004	19.996	103.132	19.812	5.656	0.490
1258.000	711.692	80.002	19.995	103.130	19.811	5.774	0.485
1260.000	712.698	80.002	19.996	103.132	19.814	5.483	0.510
1262.000	713.719	80.000	19.995	103.113	19.815	5.481	0.503
1264.000	714.706	80.000	19.995	103.120	19.815	5.426	0.503
1266.001	715.739	80.002	19.996	103.128	19.814	5.514	0.517
1268.001	716.789	80.002	19.995	103.116	19.816	5.371	0.545
1270.000	717.772	80.002	19.996	103.105	19.814	5.558	0.503
1272.000	718.785	80.003	19.995	103.117	19.812	5.672	0.534
1274.001	719.809	80.002	19.995	103.118	19.810	5.861	0.529
1276.000	720.828	80.001	19.995	103.118	19.811	5.755	0.508
1278.000	721.854	80.002	19.994	103.108	19.811	5.725	0.531
1280.000	722.874	80.004	19.993	103.122	19.810	5.791	0.503
1282.000	723.875	80.002	19.994	103.127	19.811	5.732	0.500
1284.000	724.845	80.002	19.994	103.116	19.812	5.660	0.477
1286.000	725.868	80.002	19.995	103.103	19.812	5.682	0.518
1288.000	726.888	80.002	19.995	103.106	19.814	5.512	0.497
1290.000	727.871	80.001	19.995	103.112	19.811	5.737	0.512
1292.000	728.921	80.001	19.995	103.119	19.812	5.678	0.501
1294.000	729.864	80.002	19.994	103.122	19.813	5.573	0.473
1296.000	730.883	80.002	19.995	103.119	19.814	5.495	0.507
1298.000	731.887	80.001	19.996	103.115	19.810	5.797	0.490
1300.001	732.943	80.003	19.995	103.113	19.812	5.694	0.494
1302.000	733.904	80.004	19.995	103.110	19.813	5.614	0.500
1304.000	734.920	80.004	19.994	103.119	19.810	5.795	0.483
1306.000	735.869	80.004	19.994	103.103	19.810	5.821	0.471
1308.000	736.904	80.004	19.995	103.116	19.812	5.643	0.477
1310.000	737.877	80.004	19.995	103.119	19.809	5.906	0.481
1312.001	738.884	80.003	19.995	103.105	19.809	5.900	0.499
1314.000	739.897	80.003	19.995	103.114	19.811	5.782	0.495
1316.000	740.909	80.004	19.994	103.125	19.808	6.010	0.515
1318.000	741.917	80.002	19.994	103.119	19.809	5.920	0.506
1320.000	742.925	80.004	19.996	103.105	19.811	5.769	0.469
1321.000	743.452	80.004	19.996	103.099	19.811	5.726	0.524