File: 01_Data/Latex_Pillow_Foam/MCC/Latex_Pillow_Foam_MCC_30K_min_211213_R1.txt
Sample ID:	C:\MCC\MCC Cal\Test\LatexPillow_C_Foam_MCC_30K_min_211213_R1.txt
Sample Weight (mg):	4.41
Heating Rate (C/s):	0.5
Combustor Temp (C):	900
N2 Flow Rate (cc/min):	80
O2 Flow Rate (cc/min):	20
Calibration File:	C:\MCC\MCC Cal\Coeff1 JN10440_30_210304.txt.txt
T Correction Coefficients:	0	1.024463	0
Time Shift (s):	14
*
Time (s)	Temperature (C)	N2 flow rate (cc/min)	O2 flow rate (cc/min)	Flow Rate (cc/min)	Oxygen (%)	HRR (W/g)	Heating rate (C/s)
0.000	112.265	79.996	19.994	103.016	20.327	-0.080	-0.017
2.000	112.261	80.003	19.994	103.023	20.332	-0.465	-0.035
4.000	112.235	79.999	19.997	103.020	20.329	-0.251	-0.021
6.000	112.280	79.992	19.994	103.017	20.332	-0.447	0.013
8.000	112.235	80.012	19.992	103.019	20.329	-0.205	-0.005
10.000	112.221	80.005	19.992	103.024	20.327	-0.090	-0.003
12.000	112.195	80.008	19.994	103.028	20.326	0.006	0.001
14.000	112.238	80.000	19.994	103.058	20.325	0.080	-0.019
16.001	112.215	80.013	19.993	103.059	20.324	0.175	0.016
18.000	112.222	80.016	19.991	103.077	20.320	0.462	0.005
20.000	112.212	80.027	19.993	103.098	20.316	0.717	0.016
22.000	112.295	80.014	19.994	103.134	20.312	1.033	0.046
24.000	112.288	79.999	19.997	103.167	20.310	1.193	0.013
26.001	112.412	79.998	19.995	103.180	20.304	1.611	0.026
28.000	112.560	80.005	19.995	103.198	20.298	2.059	0.055
30.000	112.745	80.012	19.993	103.184	20.299	1.997	0.119
32.000	112.878	80.003	19.996	103.198	20.296	2.194	0.069
34.000	113.124	80.002	19.993	103.178	20.293	2.394	0.127
36.000	113.403	80.005	19.995	103.185	20.295	2.290	0.165
38.000	113.637	80.019	19.992	103.177	20.294	2.336	0.134
40.000	113.908	79.998	19.994	103.190	20.296	2.183	0.135
42.000	114.206	80.003	19.995	103.175	20.293	2.422	0.163
44.001	114.557	80.013	19.996	103.196	20.294	2.329	0.162
46.001	114.854	80.004	19.994	103.200	20.296	2.157	0.153
48.000	115.222	80.003	19.993	103.193	20.292	2.484	0.167
50.000	115.591	79.980	19.998	103.211	20.291	2.558	0.183
52.000	115.957	79.990	19.998	103.209	20.291	2.578	0.192
54.000	116.397	79.998	19.997	103.217	20.289	2.697	0.210
56.000	116.791	80.004	19.996	103.226	20.286	2.945	0.180
58.001	117.268	79.986	19.997	103.236	20.286	2.926	0.229
60.000	117.778	80.007	19.998	103.238	20.289	2.731	0.272
62.000	118.218	80.012	19.995	103.237	20.285	2.970	0.228
64.000	118.704	79.992	19.995	103.232	20.285	2.990	0.227
66.000	119.225	80.004	19.995	103.240	20.282	3.214	0.241
68.000	119.727	79.994	19.996	103.245	20.283	3.129	0.257
70.000	120.324	80.006	19.993	103.237	20.284	3.061	0.273
72.000	120.845	79.989	19.995	103.252	20.283	3.155	0.264
74.000	121.453	79.994	19.995	103.245	20.282	3.196	0.292
76.000	122.051	80.009	19.993	103.250	20.279	3.465	0.301
78.000	122.672	79.990	19.995	103.266	20.276	3.639	0.303
80.000	123.260	80.001	19.993	103.268	20.277	3.605	0.280
82.000	123.914	79.995	19.996	103.268	20.275	3.705	0.288
84.000	124.574	80.007	19.993	103.270	20.278	3.514	0.314
86.000	125.246	80.004	19.993	103.263	20.273	3.841	0.341
88.000	125.973	80.009	19.994	103.282	20.276	3.634	0.373
90.000	126.628	80.000	19.997	103.279	20.273	3.861	0.307
92.000	127.337	79.992	19.997	103.275	20.270	4.106	0.357
94.000	128.119	80.019	19.995	103.285	20.272	3.975	0.385
96.000	128.839	79.999	19.994	103.283	20.271	4.054	0.357
98.000	129.660	80.000	19.994	103.291	20.267	4.281	0.392
100.001	130.417	80.015	19.994	103.289	20.270	4.090	0.406
102.000	131.216	80.006	19.993	103.294	20.270	4.078	0.390
104.000	131.999	80.017	19.991	103.304	20.268	4.234	0.408
106.000	132.819	79.997	19.993	103.290	20.268	4.203	0.386
108.000	133.657	79.996	19.995	103.295	20.268	4.243	0.403
110.000	134.502	80.008	19.993	103.290	20.270	4.084	0.394
112.000	135.383	79.999	19.993	103.285	20.269	4.152	0.456
114.000	136.267	80.002	19.993	103.296	20.271	4.038	0.480
116.000	137.138	80.009	19.996	103.298	20.267	4.291	0.478
118.000	137.982	79.991	19.995	103.285	20.267	4.346	0.431
120.001	138.895	80.008	19.995	103.287	20.266	4.391	0.459
122.000	139.816	79.994	19.996	103.290	20.274	3.827	0.454
124.000	140.739	80.003	19.994	103.296	20.272	3.926	0.447
126.000	141.677	79.976	19.996	103.292	20.269	4.174	0.439
128.000	142.605	80.019	19.993	103.301	20.271	3.994	0.456
130.000	143.546	80.001	19.996	103.301	20.269	4.170	0.455
132.000	144.495	79.998	19.995	103.293	20.271	3.987	0.496
134.000	145.429	80.005	19.995	103.288	20.270	4.120	0.486
136.000	146.403	80.003	19.996	103.286	20.271	4.000	0.500
138.000	147.379	80.011	19.993	103.292	20.269	4.146	0.457
140.000	148.340	79.977	19.996	103.288	20.267	4.319	0.465
142.001	149.333	79.997	19.996	103.297	20.266	4.401	0.486
144.000	150.309	79.996	19.998	103.294	20.263	4.580	0.494
146.000	151.304	80.003	19.996	103.288	20.268	4.267	0.469
148.000	152.242	80.001	19.995	103.293	20.268	4.241	0.479
150.000	153.240	80.004	19.996	103.288	20.266	4.353	0.503
152.000	154.272	79.995	19.997	103.294	20.268	4.267	0.522
154.000	155.233	80.003	19.995	103.288	20.270	4.116	0.463
156.000	156.184	79.987	19.999	103.285	20.268	4.239	0.456
158.000	157.194	80.001	19.996	103.280	20.266	4.391	0.485
160.000	158.186	80.009	19.995	103.285	20.266	4.350	0.528
162.000	159.201	80.004	19.996	103.285	20.268	4.249	0.473
164.000	160.235	80.012	19.994	103.284	20.266	4.366	0.478
166.000	161.209	79.988	19.995	103.286	20.265	4.428	0.456
168.000	162.210	79.997	19.994	103.285	20.267	4.288	0.486
170.000	163.261	80.008	19.996	103.278	20.268	4.237	0.526
172.000	164.312	80.004	19.995	103.273	20.265	4.493	0.565
174.000	165.352	79.997	19.994	103.267	20.265	4.477	0.517
176.000	166.336	80.016	19.995	103.272	20.268	4.216	0.488
178.000	167.372	80.001	19.995	103.265	20.269	4.133	0.468
180.000	168.378	79.993	19.994	103.277	20.267	4.304	0.487
182.000	169.393	80.007	19.995	103.259	20.269	4.130	0.521
184.000	170.383	80.009	19.995	103.263	20.269	4.170	0.485
186.000	171.408	80.004	19.994	103.260	20.270	4.100	0.482
188.000	172.407	80.019	19.992	103.267	20.263	4.616	0.504
190.001	173.455	80.004	19.994	103.260	20.265	4.491	0.504
192.000	174.462	80.011	19.994	103.253	20.264	4.529	0.510
194.000	175.464	80.010	19.994	103.254	20.265	4.479	0.495
196.000	176.464	80.006	19.993	103.256	20.265	4.471	0.506
198.000	177.484	80.006	19.994	103.252	20.266	4.405	0.476
200.000	178.512	80.012	19.996	103.254	20.265	4.487	0.527
202.000	179.459	80.008	19.995	103.257	20.266	4.381	0.478
204.000	180.482	80.002	19.994	103.253	20.262	4.660	0.527
206.000	181.483	80.006	19.994	103.254	20.263	4.628	0.546
208.000	182.508	80.000	19.994	103.256	20.264	4.523	0.529
210.000	183.499	80.004	19.996	103.256	20.259	4.885	0.526
212.000	184.471	80.003	19.995	103.256	20.259	4.883	0.507
214.000	185.479	80.003	19.994	103.252	20.264	4.548	0.508
216.000	186.528	80.004	19.994	103.244	20.261	4.759	0.520
218.000	187.536	80.009	19.996	103.249	20.256	5.112	0.510
220.000	188.517	80.003	19.996	103.247	20.258	4.949	0.478
222.000	189.502	80.008	19.994	103.245	20.256	5.084	0.481
224.000	190.485	80.004	19.995	103.233	20.254	5.227	0.491
226.000	191.509	79.999	19.996	103.239	20.256	5.134	0.483
228.000	192.497	80.003	19.995	103.242	20.254	5.265	0.490
230.000	193.481	80.006	19.995	103.242	20.254	5.280	0.479
232.000	194.428	80.003	19.996	103.241	20.249	5.658	0.485
234.000	195.474	80.005	19.994	103.227	20.247	5.791	0.499
236.000	196.413	80.011	19.995	103.240	20.246	5.817	0.490
238.000	197.401	80.003	19.995	103.233	20.247	5.791	0.516
240.000	198.396	80.006	19.996	103.232	20.244	5.980	0.528
242.000	199.382	80.013	19.996	103.241	20.243	6.092	0.503
244.000	200.404	80.005	19.995	103.233	20.247	5.743	0.512
246.000	201.334	80.006	19.995	103.243	20.242	6.104	0.495
248.000	202.284	80.009	19.995	103.238	20.242	6.123	0.468
250.000	203.249	80.006	19.994	103.240	20.242	6.128	0.488
252.000	204.275	80.004	19.995	103.235	20.237	6.477	0.489
254.000	205.237	80.006	19.994	103.235	20.239	6.347	0.515
256.000	206.255	80.005	19.995	103.234	20.240	6.302	0.482
258.000	207.202	80.016	19.994	103.249	20.235	6.641	0.484
260.000	208.187	79.997	19.995	103.238	20.240	6.254	0.520
262.000	209.196	80.009	19.995	103.236	20.241	6.204	0.496
264.000	210.176	80.011	19.994	103.238	20.239	6.323	0.483
266.000	211.114	79.998	19.996	103.234	20.236	6.602	0.497
268.000	212.124	80.006	19.995	103.213	20.233	6.757	0.506
270.000	213.079	80.008	19.992	103.242	20.233	6.788	0.444
272.000	214.116	80.003	19.996	103.247	20.228	7.151	0.496
274.000	215.023	80.008	19.993	103.242	20.232	6.841	0.471
276.000	216.076	80.008	19.993	103.234	20.232	6.872	0.550
278.000	217.024	80.004	19.995	103.239	20.233	6.804	0.469
280.000	218.055	80.008	19.995	103.229	20.234	6.697	0.496
282.000	219.039	80.002	19.995	103.229	20.232	6.879	0.494
284.000	220.049	79.993	19.995	103.229	20.237	6.536	0.522
286.000	220.958	80.002	19.996	103.231	20.236	6.559	0.485
288.000	221.977	80.014	19.994	103.228	20.234	6.712	0.481
290.000	222.988	80.004	19.993	103.224	20.231	6.950	0.479
292.000	224.023	80.004	19.993	103.225	20.231	6.923	0.514
294.000	224.977	80.024	19.991	103.232	20.233	6.827	0.474
296.000	226.017	80.012	19.993	103.222	20.233	6.805	0.551
298.000	226.969	80.019	19.992	103.220	20.233	6.789	0.497
300.000	227.980	80.021	19.992	103.223	20.233	6.820	0.488
302.000	229.068	80.015	19.994	103.232	20.234	6.746	0.510
304.000	229.995	80.010	19.993	103.229	20.232	6.867	0.455
306.000	230.992	80.006	19.996	103.215	20.232	6.860	0.519
308.000	232.028	80.010	19.994	103.218	20.235	6.627	0.484
310.000	232.970	80.020	19.996	103.221	20.229	7.071	0.494
312.000	233.996	80.004	19.996	103.220	20.234	6.698	0.490
314.000	234.995	79.999	19.993	103.211	20.232	6.889	0.515
316.000	235.986	80.002	19.992	103.227	20.234	6.742	0.464
318.000	236.994	80.004	19.995	103.222	20.230	7.019	0.510
320.000	237.961	80.003	19.995	103.219	20.235	6.628	0.478
322.000	238.953	80.002	19.996	103.226	20.231	6.951	0.509
324.000	239.925	79.975	19.997	103.215	20.229	7.107	0.488
326.000	240.920	80.016	19.996	103.211	20.229	7.096	0.490
328.000	241.914	80.001	19.994	103.214	20.228	7.188	0.476
330.000	242.946	80.006	19.996	103.215	20.226	7.330	0.506
332.000	243.932	80.008	19.995	103.214	20.224	7.441	0.504
334.000	244.911	80.018	19.993	103.217	20.226	7.281	0.519
336.000	245.873	80.005	19.997	103.219	20.223	7.505	0.484
338.000	246.882	80.005	19.996	103.215	20.223	7.508	0.485
340.000	247.861	80.019	19.994	103.214	20.225	7.341	0.493
342.000	248.872	80.009	19.995	103.217	20.222	7.598	0.497
344.000	249.890	80.007	19.995	103.207	20.225	7.385	0.514
346.000	250.843	79.995	19.994	103.211	20.225	7.381	0.454
348.000	251.890	80.011	19.993	103.216	20.223	7.517	0.556
350.000	252.880	79.998	19.995	103.211	20.222	7.574	0.521
352.000	253.885	80.020	19.991	103.213	20.218	7.851	0.499
354.000	254.885	80.010	19.996	103.214	20.220	7.763	0.515
356.000	255.896	79.986	19.995	103.211	20.223	7.525	0.469
358.000	256.898	80.007	19.994	103.210	20.219	7.808	0.478
360.000	257.894	80.004	19.993	103.209	20.219	7.789	0.478
362.000	258.916	80.009	19.994	103.206	20.218	7.877	0.508
364.000	259.906	80.013	19.993	103.210	20.217	7.953	0.496
366.000	260.870	79.988	19.995	103.200	20.215	8.104	0.500
368.000	261.887	80.010	19.995	103.205	20.213	8.286	0.518
370.000	262.863	80.008	19.994	103.199	20.216	8.003	0.479
372.000	263.849	80.023	19.993	103.208	20.212	8.315	0.523
374.000	264.880	80.007	19.993	103.218	20.209	8.535	0.509
376.000	265.913	80.009	19.998	103.206	20.215	8.094	0.489
378.000	266.848	80.004	19.993	103.202	20.212	8.298	0.453
380.000	267.880	80.001	19.993	103.191	20.211	8.398	0.499
382.000	268.853	80.000	19.993	103.210	20.209	8.558	0.482
384.000	269.908	80.012	19.992	103.205	20.208	8.637	0.502
386.000	270.895	79.996	19.995	103.191	20.207	8.722	0.512
388.000	271.943	80.002	19.993	103.207	20.206	8.771	0.520
390.000	272.931	80.010	19.994	103.218	20.203	8.967	0.489
392.000	273.932	80.009	19.991	103.188	20.201	9.111	0.483
394.000	274.915	80.015	19.993	103.182	20.200	9.177	0.469
396.000	275.923	80.022	19.989	103.167	20.201	9.146	0.519
398.000	276.935	80.004	19.997	103.181	20.200	9.213	0.493
400.001	277.973	80.026	19.992	103.185	20.197	9.389	0.520
402.000	278.953	79.997	19.995	103.191	20.201	9.099	0.526
404.000	279.939	79.999	19.994	103.182	20.198	9.357	0.506
406.000	280.976	80.004	19.998	103.180	20.200	9.170	0.508
408.000	281.967	80.017	19.991	103.178	20.197	9.433	0.491
410.000	282.969	80.001	19.994	103.182	20.191	9.845	0.554
412.000	283.994	80.008	19.996	103.175	20.189	9.991	0.509
414.000	284.978	80.005	19.994	103.173	20.193	9.728	0.523
416.000	285.992	80.010	19.992	103.169	20.190	9.905	0.522
418.000	287.040	79.998	19.994	103.176	20.192	9.817	0.524
420.000	288.010	80.009	19.994	103.175	20.188	10.042	0.501
422.000	289.021	80.013	19.995	103.177	20.189	10.036	0.480
424.000	289.990	79.984	19.998	103.177	20.186	10.215	0.505
426.000	290.979	80.012	19.997	103.170	20.181	10.588	0.506
428.000	292.067	80.001	19.995	103.170	20.179	10.765	0.541
430.000	293.044	80.017	19.994	103.174	20.180	10.674	0.513
432.000	294.089	80.015	19.992	103.178	20.174	11.121	0.522
434.000	295.081	80.002	19.993	103.169	20.170	11.385	0.513
436.000	296.079	80.004	19.996	103.167	20.168	11.564	0.502
438.000	297.099	79.994	19.996	103.177	20.163	11.910	0.503
440.000	298.127	80.020	19.993	103.169	20.158	12.267	0.493
442.000	299.142	80.005	19.997	103.185	20.154	12.586	0.511
444.000	300.166	80.009	19.990	103.175	20.151	12.810	0.553
446.000	301.119	80.012	19.994	103.181	20.147	13.061	0.504
448.000	302.130	80.003	19.997	103.180	20.143	13.351	0.499
450.000	303.129	80.003	20.000	103.173	20.139	13.639	0.498
452.000	304.172	80.001	19.997	103.170	20.133	14.106	0.500
454.000	305.131	80.002	19.990	103.175	20.128	14.422	0.493
456.000	306.152	80.009	19.992	103.178	20.117	15.263	0.516
458.000	307.173	80.003	19.998	103.174	20.113	15.539	0.523
460.000	308.171	80.006	19.994	103.181	20.108	15.917	0.495
462.000	309.211	80.002	19.997	103.178	20.101	16.432	0.501
464.000	310.238	80.000	19.996	103.176	20.090	17.241	0.516
466.000	311.262	80.013	19.991	103.175	20.083	17.735	0.543
468.001	312.281	79.993	19.997	103.176	20.072	18.549	0.510
470.000	313.373	80.002	19.991	103.174	20.059	19.505	0.537
472.000	314.379	80.001	19.994	103.178	20.050	20.151	0.543
474.000	315.382	80.002	19.992	103.173	20.038	21.012	0.520
476.000	316.406	80.004	19.996	103.172	20.023	22.109	0.515
478.000	317.395	80.002	19.995	103.172	20.010	23.030	0.473
480.000	318.451	80.008	19.993	103.171	19.997	24.008	0.520
482.000	319.405	80.008	19.993	103.175	19.984	24.987	0.464
484.000	320.402	80.006	19.991	103.171	19.964	26.426	0.507
486.000	321.425	80.008	19.996	103.174	19.954	27.162	0.512
488.000	322.463	80.002	19.994	103.172	19.935	28.572	0.503
490.000	323.472	79.987	19.996	103.167	19.922	29.478	0.491
492.001	324.502	80.007	19.992	103.170	19.903	30.865	0.526
494.000	325.451	80.002	19.994	103.171	19.889	31.918	0.485
496.001	326.499	80.009	19.996	103.169	19.869	33.368	0.501
498.000	327.485	80.002	19.996	103.167	19.852	34.575	0.497
500.000	328.485	80.004	19.997	103.158	19.832	36.029	0.494
502.000	329.510	80.008	19.992	103.156	19.811	37.580	0.505
504.000	330.531	80.005	19.996	103.151	19.794	38.848	0.463
506.000	331.530	80.008	19.994	103.157	19.773	40.376	0.500
508.000	332.549	80.006	19.992	103.157	19.751	41.944	0.526
510.000	333.547	80.004	19.994	103.142	19.729	43.574	0.518
512.000	334.604	80.006	19.995	103.148	19.704	45.359	0.532
514.000	335.579	80.010	19.993	103.146	19.679	47.213	0.521
516.000	336.582	80.006	19.998	103.143	19.651	49.279	0.524
518.000	337.598	80.005	19.993	103.155	19.623	51.317	0.516
520.000	338.593	80.003	19.997	103.137	19.592	53.550	0.512
522.000	339.614	80.003	19.994	103.134	19.558	56.072	0.516
524.000	340.634	80.002	19.995	103.138	19.523	58.601	0.504
526.000	341.634	80.000	19.996	103.134	19.488	61.168	0.496
528.000	342.672	80.003	19.995	103.135	19.450	63.900	0.533
530.000	343.633	80.004	19.994	103.135	19.409	66.876	0.489
532.000	344.645	80.006	19.994	103.135	19.369	69.820	0.518
534.000	345.673	80.004	19.995	103.134	19.324	73.110	0.525
536.000	346.648	80.000	19.993	103.132	19.279	76.351	0.510
538.000	347.641	80.007	19.996	103.126	19.227	80.133	0.495
540.000	348.670	80.002	19.986	103.119	19.181	83.505	0.537
542.000	349.675	80.008	19.995	103.105	19.126	87.526	0.510
544.000	350.688	80.004	19.995	103.110	19.072	91.470	0.510
546.000	351.655	80.005	19.997	103.108	19.013	95.742	0.501
548.000	352.683	80.001	19.998	103.100	18.956	99.906	0.516
550.000	353.696	80.003	19.996	103.095	18.886	104.991	0.511
552.000	354.677	80.000	19.998	103.094	18.820	109.856	0.492
554.000	355.680	80.005	19.996	103.095	18.752	114.787	0.516
556.000	356.718	80.006	19.994	103.087	18.674	120.428	0.537
558.000	357.730	80.003	19.995	103.076	18.599	125.940	0.506
560.000	358.754	80.007	19.994	103.089	18.514	132.091	0.518
562.000	359.791	80.008	19.995	103.089	18.431	138.148	0.499
564.000	360.781	80.006	19.995	103.070	18.347	144.265	0.496
566.000	361.792	80.002	19.995	103.056	18.262	150.413	0.517
568.000	362.750	80.006	19.994	103.056	18.180	156.417	0.480
570.000	363.772	80.007	19.994	103.056	18.087	163.188	0.482
572.000	364.782	80.007	19.995	103.043	18.005	169.161	0.514
574.000	365.733	80.004	19.995	103.025	17.917	175.501	0.505
576.000	366.771	80.004	19.994	103.020	17.828	181.975	0.511
578.000	367.767	80.006	19.993	103.020	17.745	188.004	0.500
580.000	368.770	80.007	19.994	103.019	17.660	194.167	0.522
582.000	369.776	80.003	19.994	103.013	17.585	199.604	0.483
584.000	370.809	80.005	19.996	102.991	17.506	205.391	0.505
586.000	371.815	80.004	19.996	102.980	17.433	210.695	0.516
588.000	372.862	80.005	19.995	102.976	17.366	215.561	0.498
590.000	373.918	80.006	19.996	102.970	17.310	219.648	0.514
592.000	374.917	80.004	19.995	102.945	17.251	223.862	0.520
594.000	375.959	80.007	19.993	102.941	17.207	227.050	0.513
596.000	376.974	80.006	19.994	102.939	17.173	229.570	0.529
598.000	378.050	80.005	19.994	102.927	17.142	231.817	0.538
600.000	379.011	80.006	19.993	102.926	17.122	233.347	0.509
602.000	380.007	80.003	19.992	102.919	17.117	233.618	0.512
604.000	381.030	80.003	19.993	102.907	17.117	233.710	0.523
606.000	382.021	80.004	19.995	102.910	17.127	232.995	0.485
608.000	383.044	80.004	19.995	102.901	17.148	231.435	0.487
610.000	384.051	80.003	19.995	102.924	17.173	229.659	0.481
612.000	385.053	80.003	19.995	102.915	17.209	227.028	0.487
614.000	386.065	80.004	19.997	102.917	17.252	223.898	0.479
616.000	387.118	80.004	19.996	102.936	17.301	220.380	0.518
618.000	388.140	80.004	19.996	102.936	17.350	216.774	0.518
620.000	389.183	80.003	19.997	102.942	17.410	212.470	0.530
622.000	390.159	80.003	19.996	102.948	17.475	207.720	0.488
624.000	391.176	80.005	19.995	102.963	17.537	203.227	0.510
626.000	392.196	80.004	19.994	102.969	17.600	198.632	0.482
628.000	393.200	80.002	19.994	102.967	17.666	193.818	0.500
630.000	394.271	80.003	19.994	102.976	17.737	188.685	0.525
632.000	395.271	80.003	19.995	102.977	17.803	183.857	0.501
634.000	396.296	80.005	19.995	102.979	17.877	178.504	0.530
636.000	397.312	80.003	19.995	102.980	17.945	173.541	0.518
638.000	398.296	80.004	19.995	102.984	18.015	168.459	0.479
640.000	399.301	80.003	19.995	102.993	18.081	163.610	0.497
642.000	400.308	80.004	19.996	103.004	18.146	158.915	0.496
644.000	401.358	80.004	19.995	103.017	18.212	154.106	0.514
646.000	402.342	80.004	19.994	103.018	18.278	149.328	0.498
648.000	403.363	80.006	19.993	103.020	18.332	145.385	0.495
650.000	404.356	80.006	19.994	103.020	18.388	141.271	0.484
652.000	405.392	80.008	19.994	103.021	18.437	137.687	0.520
654.000	406.444	80.006	19.993	103.023	18.487	134.088	0.529
656.000	407.446	80.004	19.993	103.035	18.534	130.645	0.518
658.000	408.429	80.006	19.994	103.042	18.581	127.252	0.482
660.000	409.440	80.006	19.994	103.052	18.622	124.240	0.505
662.000	410.479	80.005	19.995	103.042	18.663	121.213	0.483
664.000	411.483	80.004	19.995	103.059	18.700	118.541	0.508
666.000	412.487	80.005	19.994	103.059	18.735	116.032	0.491
668.000	413.464	80.005	19.994	103.059	18.767	113.704	0.476
670.000	414.498	80.006	19.994	103.056	18.793	111.755	0.488
672.000	415.494	80.005	19.995	103.056	18.822	109.683	0.483
674.000	416.474	80.007	19.995	103.058	18.845	107.992	0.469
676.000	417.517	80.009	19.994	103.058	18.865	106.557	0.522
678.000	418.562	80.007	19.995	103.063	18.890	104.700	0.529
680.000	419.566	80.007	19.996	103.059	18.912	103.129	0.503
682.000	420.562	80.006	19.996	103.072	18.932	101.688	0.491
684.000	421.578	80.004	19.995	103.075	18.949	100.409	0.491
686.000	422.592	80.003	19.995	103.068	18.962	99.452	0.506
688.000	423.565	80.005	19.995	103.075	18.979	98.239	0.473
690.000	424.581	80.003	19.995	103.081	18.994	97.147	0.505
692.000	425.560	80.004	19.995	103.080	19.010	95.968	0.482
694.000	426.598	80.004	19.995	103.084	19.020	95.226	0.500
696.000	427.620	80.005	19.996	103.080	19.035	94.130	0.529
698.000	428.600	80.006	19.995	103.077	19.048	93.205	0.473
700.000	429.606	80.005	19.995	103.086	19.061	92.250	0.494
702.000	430.615	80.004	19.995	103.092	19.073	91.424	0.479
704.000	431.644	80.005	19.996	103.087	19.081	90.811	0.518
706.000	432.691	80.003	19.995	103.087	19.096	89.707	0.531
708.000	433.685	80.004	19.995	103.088	19.107	88.917	0.489
710.000	434.706	80.003	19.997	103.094	19.116	88.240	0.517
712.000	435.728	80.003	19.995	103.093	19.129	87.274	0.484
714.000	436.733	80.004	19.996	103.088	19.141	86.457	0.517
716.000	437.729	80.004	19.996	103.090	19.154	85.493	0.483
718.000	438.752	80.003	19.997	103.091	19.168	84.449	0.496
720.000	439.761	80.003	19.995	103.095	19.184	83.283	0.520
722.000	440.789	80.003	19.995	103.097	19.193	82.639	0.529
724.000	441.727	80.003	19.995	103.098	19.208	81.581	0.465
726.000	442.730	80.005	19.994	103.098	19.227	80.142	0.483
728.000	443.802	80.006	19.994	103.098	19.240	79.224	0.513
730.000	444.788	80.006	19.995	103.100	19.256	78.078	0.509
732.000	445.763	80.005	19.994	103.095	19.274	76.731	0.501
734.000	446.794	80.006	19.994	103.095	19.290	75.579	0.529
736.000	447.812	80.006	19.995	103.094	19.309	74.186	0.503
738.000	448.765	80.007	19.994	103.094	19.330	72.674	0.518
740.000	449.757	80.005	19.994	103.098	19.350	71.171	0.480
742.000	450.783	80.005	19.994	103.097	19.368	69.854	0.490
744.000	451.773	80.007	19.995	103.097	19.393	68.078	0.494
746.000	452.828	80.006	19.995	103.103	19.411	66.731	0.532
748.000	453.792	80.006	19.996	103.109	19.429	65.425	0.504
750.000	454.828	80.005	19.996	103.095	19.452	63.723	0.500
752.000	455.897	80.006	19.994	103.117	19.475	62.053	0.539
754.000	456.895	80.006	19.994	103.100	19.499	60.357	0.507
756.000	457.916	80.007	19.994	103.102	19.524	58.522	0.507
758.000	458.943	80.008	19.995	103.120	19.550	56.590	0.533
760.000	459.970	80.009	19.994	103.109	19.572	55.042	0.503
762.000	460.939	80.007	19.994	103.120	19.601	52.930	0.495
764.000	461.992	80.008	19.993	103.114	19.630	50.776	0.545
766.000	463.008	80.005	19.995	103.122	19.651	49.236	0.504
768.000	463.998	80.005	19.994	103.118	19.677	47.351	0.487
770.000	465.008	80.005	19.994	103.126	19.706	45.210	0.525
772.000	466.054	80.005	19.995	103.135	19.736	43.076	0.507
774.000	467.037	80.004	19.996	103.129	19.759	41.387	0.473
776.000	468.074	80.004	19.995	103.124	19.785	39.474	0.507
778.000	469.113	80.006	19.995	103.130	19.812	37.483	0.520
780.000	470.116	80.005	19.996	103.132	19.834	35.882	0.495
782.000	471.146	80.003	19.995	103.133	19.864	33.695	0.542
784.000	472.150	80.003	19.994	103.133	19.893	31.600	0.499
786.000	473.220	80.004	19.994	103.136	19.915	29.985	0.543
788.000	474.254	80.005	19.995	103.134	19.940	28.147	0.529
790.000	475.216	80.006	19.996	103.135	19.967	26.201	0.540
792.000	476.236	80.003	19.995	103.138	19.993	24.286	0.494
794.000	477.211	80.004	19.993	103.137	20.014	22.776	0.504
796.000	478.227	80.004	19.994	103.140	20.035	21.237	0.477
798.000	479.271	80.005	19.995	103.136	20.056	19.675	0.501
800.000	480.268	80.004	19.996	103.136	20.073	18.429	0.502
802.000	481.266	80.003	19.998	103.146	20.093	16.986	0.527
804.000	482.270	80.005	19.996	103.140	20.107	15.961	0.515
806.000	483.295	80.004	19.996	103.133	20.125	14.698	0.492
808.000	484.293	80.005	19.996	103.133	20.140	13.549	0.530
810.000	485.244	80.004	19.996	103.135	20.153	12.652	0.492
812.000	486.222	80.007	19.997	103.135	20.161	12.033	0.524
814.000	487.186	80.006	19.996	103.134	20.170	11.367	0.465
816.000	488.194	80.006	19.995	103.144	20.177	10.900	0.478
818.000	489.211	80.009	19.994	103.146	20.182	10.520	0.498
820.000	490.191	80.007	19.996	103.135	20.191	9.851	0.507
822.000	491.197	80.006	19.995	103.139	20.192	9.752	0.490
824.000	492.145	80.007	19.995	103.141	20.196	9.484	0.479
826.000	493.187	80.007	19.994	103.134	20.201	9.098	0.489
828.000	494.202	80.007	19.995	103.134	20.207	8.680	0.501
830.000	495.220	80.006	19.995	103.133	20.208	8.628	0.491
832.000	496.170	80.006	19.994	103.135	20.209	8.509	0.498
834.000	497.241	80.006	19.995	103.141	20.214	8.143	0.540
836.000	498.185	80.007	19.995	103.149	20.213	8.215	0.487
838.000	499.207	80.008	19.994	103.147	20.213	8.262	0.513
840.000	500.235	80.007	19.994	103.148	20.218	7.901	0.507
842.000	501.310	80.007	19.994	103.141	20.219	7.826	0.513
844.000	502.278	80.009	19.993	103.146	20.216	8.025	0.552
846.000	503.340	80.009	19.995	103.148	20.217	7.925	0.555
848.000	504.333	80.006	19.995	103.150	20.222	7.579	0.523
850.000	505.342	80.005	19.995	103.139	20.219	7.802	0.506
852.000	506.359	80.004	19.994	103.137	20.223	7.546	0.521
854.000	507.442	80.005	19.993	103.140	20.223	7.539	0.527
856.001	508.461	80.006	19.993	103.140	20.209	8.530	0.560
858.000	509.398	80.005	19.995	103.140	20.221	7.678	0.485
860.000	510.485	80.005	19.994	103.138	20.220	7.764	0.472
862.000	511.532	80.005	19.995	103.144	20.221	7.657	0.522
864.000	512.496	80.004	19.994	103.145	20.222	7.595	0.540
866.000	513.525	80.005	19.995	103.135	20.221	7.629	0.508
868.000	514.566	80.005	19.995	103.139	20.222	7.557	0.568
870.000	515.014	80.006	19.995	103.134	20.223	7.543	0.242
872.000	516.753	80.004	19.995	103.142	20.221	7.662	0.408
874.000	517.553	80.006	19.996	103.140	20.226	7.322	0.627
876.000	518.542	80.004	19.995	103.134	20.222	7.616	0.450
878.000	519.579	80.005	19.995	103.138	20.222	7.608	0.540
880.000	520.579	80.004	19.995	103.133	20.218	7.850	0.527
882.000	521.575	80.004	19.995	103.134	20.222	7.579	0.469
884.000	522.568	80.005	19.995	103.135	20.220	7.702	0.481
886.000	523.580	80.005	19.995	103.134	20.225	7.364	0.514
888.000	524.570	80.004	19.995	103.134	20.219	7.789	0.470
890.000	525.569	80.005	19.995	103.134	20.218	7.847	0.494
892.000	526.596	80.005	19.995	103.142	20.218	7.847	0.503
894.000	527.543	80.006	19.995	103.139	20.218	7.885	0.497
896.000	528.587	80.005	19.994	103.136	20.220	7.732	0.537
898.000	529.578	80.007	19.994	103.134	20.221	7.686	0.528
900.000	530.581	80.006	19.995	103.133	20.219	7.794	0.511
902.000	531.592	80.006	19.995	103.135	20.219	7.839	0.475
904.000	532.625	80.005	19.994	103.137	20.217	7.937	0.507
906.000	533.634	80.006	19.995	103.139	20.217	7.941	0.516
908.000	534.690	80.006	19.995	103.138	20.218	7.856	0.534
910.000	535.736	80.005	19.995	103.135	20.218	7.874	0.559
912.000	536.809	80.005	19.996	103.141	20.215	8.106	0.536
914.000	537.827	80.007	19.994	103.133	20.217	7.928	0.513
916.000	538.895	80.006	19.994	103.134	20.218	7.909	0.503
918.000	539.991	80.006	19.993	103.140	20.213	8.218	0.561
920.000	541.002	80.007	19.994	103.145	20.215	8.080	0.515
922.000	542.120	80.007	19.993	103.143	20.215	8.114	0.550
924.000	543.167	80.008	19.994	103.146	20.216	8.046	0.526
926.000	544.231	80.008	19.993	103.150	20.217	7.952	0.529
928.000	545.296	80.006	19.994	103.147	20.213	8.229	0.553
930.000	546.344	80.007	19.995	103.141	20.215	8.130	0.533
932.000	547.434	80.007	19.995	103.140	20.213	8.223	0.577
934.000	548.517	80.006	19.995	103.134	20.216	8.050	0.537
936.000	549.542	80.005	19.994	103.141	20.215	8.122	0.529
938.000	550.667	80.005	19.995	103.146	20.211	8.388	0.522
940.000	551.707	80.005	19.995	103.133	20.214	8.209	0.526
942.000	552.787	80.006	19.996	103.135	20.215	8.120	0.533
944.000	553.892	80.006	19.993	103.134	20.215	8.120	0.545
946.000	554.988	80.006	19.996	103.136	20.211	8.428	0.547
948.000	556.076	80.006	19.995	103.132	20.208	8.578	0.540
950.000	557.181	80.007	19.993	103.133	20.209	8.510	0.532
952.001	558.214	80.006	19.994	103.139	20.211	8.369	0.528
954.000	559.286	80.007	19.995	103.141	20.210	8.451	0.539
956.000	560.376	80.007	19.993	103.135	20.207	8.672	0.543
958.000	561.459	80.006	19.995	103.135	20.210	8.463	0.513
960.000	562.511	80.007	19.995	103.134	20.209	8.568	0.528
962.000	563.555	80.005	19.996	103.139	20.205	8.820	0.539
964.000	564.633	80.004	19.996	103.138	20.209	8.517	0.533
966.000	565.701	80.004	19.994	103.141	20.207	8.655	0.543
968.000	566.780	80.005	19.997	103.147	20.210	8.483	0.532
970.000	567.799	80.004	19.995	103.149	20.210	8.484	0.527
972.000	568.883	80.005	19.996	103.148	20.207	8.710	0.582
974.000	570.006	80.005	19.995	103.149	20.206	8.735	0.543
976.000	571.051	80.005	19.994	103.150	20.203	9.004	0.540
978.000	572.178	80.006	19.995	103.153	20.204	8.917	0.576
980.000	573.259	80.006	19.996	103.136	20.202	9.039	0.509
982.000	574.389	80.006	19.996	103.144	20.203	8.942	0.564
984.000	575.527	80.007	19.995	103.140	20.201	9.135	0.545
986.000	576.591	80.007	19.994	103.138	20.204	8.910	0.529
988.000	577.658	80.005	19.995	103.148	20.204	8.908	0.520
990.000	578.737	80.006	19.995	103.143	20.204	8.895	0.531
992.000	579.864	80.006	19.996	103.135	20.203	9.000	0.520
994.000	580.920	80.005	19.996	103.143	20.203	8.964	0.531
996.000	581.992	80.006	19.996	103.138	20.200	9.162	0.548
998.000	583.088	80.007	19.996	103.136	20.201	9.129	0.529
1000.000	584.164	80.005	19.996	103.143	20.200	9.230	0.549
1002.000	585.217	80.008	19.995	103.149	20.200	9.205	0.537
1004.000	586.286	80.008	19.995	103.139	20.201	9.139	0.535
1006.000	587.348	80.008	19.995	103.144	20.199	9.296	0.544
1008.000	588.412	80.009	19.995	103.144	20.198	9.374	0.553
1010.000	589.427	80.009	19.993	103.133	20.196	9.451	0.479
1012.000	590.487	80.009	19.994	103.134	20.194	9.601	0.516
1014.000	591.487	80.007	19.994	103.133	20.197	9.450	0.519
1016.000	592.521	80.006	19.995	103.135	20.194	9.615	0.500
1018.000	593.565	80.005	19.994	103.133	20.193	9.720	0.540
1020.000	594.598	80.005	19.995	103.138	20.196	9.481	0.502
1022.000	595.615	80.006	19.995	103.135	20.189	10.031	0.496
1024.001	596.644	80.005	19.995	103.140	20.192	9.782	0.495
1026.001	597.630	80.004	19.996	103.141	20.191	9.865	0.483
1028.000	598.591	80.006	19.994	103.135	20.192	9.814	0.483
1030.000	599.568	80.005	19.996	103.139	20.192	9.814	0.489
1032.000	600.512	80.005	19.995	103.135	20.193	9.684	0.465
1034.000	601.508	80.006	19.994	103.144	20.191	9.873	0.505
1036.000	602.443	80.006	19.995	103.135	20.194	9.603	0.473
1038.000	603.463	80.006	19.994	103.137	20.193	9.727	0.495
1040.000	604.384	80.006	19.995	103.138	20.192	9.785	0.481
1042.000	605.369	80.006	19.995	103.139	20.192	9.786	0.480
1044.000	606.288	80.006	19.994	103.146	20.191	9.878	0.448
1046.000	607.256	80.006	19.993	103.143	20.191	9.852	0.471
1048.000	608.314	80.006	19.994	103.139	20.192	9.758	0.477
1050.000	609.282	80.006	19.993	103.146	20.187	10.142	0.489
1052.000	610.267	80.004	19.995	103.146	20.186	10.184	0.496
1054.001	611.250	80.005	19.994	103.140	20.189	10.028	0.465
1056.000	612.250	80.006	19.993	103.138	20.182	10.480	0.495
1058.000	613.220	80.006	19.994	103.136	20.186	10.226	0.468
1060.000	614.214	80.006	19.996	103.137	20.183	10.431	0.487
1062.000	615.214	80.007	19.995	103.137	20.184	10.387	0.461
1064.000	616.207	80.006	19.994	103.143	20.184	10.332	0.492
1066.000	617.193	80.008	19.995	103.136	20.183	10.433	0.519
1068.000	618.182	80.007	19.994	103.090	20.186	10.200	0.511
1070.000	619.191	80.007	19.994	103.182	20.180	10.642	0.504
1072.001	620.235	80.008	19.995	103.137	20.180	10.678	0.529
1074.001	621.213	80.008	19.995	103.148	20.178	10.768	0.517
1076.000	622.261	80.007	19.994	103.139	20.179	10.727	0.520
1078.000	623.286	80.006	19.995	103.148	20.176	10.980	0.515
1080.001	624.317	80.006	19.995	103.140	20.182	10.502	0.484
1082.000	625.351	80.008	19.994	103.140	20.180	10.659	0.522
1084.001	626.344	80.007	19.994	103.147	20.183	10.398	0.493
1086.001	627.356	80.007	19.996	103.139	20.180	10.642	0.521
1088.000	628.397	80.008	19.995	103.133	20.179	10.725	0.503
1090.000	629.406	80.008	19.995	103.134	20.178	10.831	0.513
1092.000	630.399	80.008	19.994	103.131	20.175	10.993	0.512
1094.000	631.503	80.007	19.995	103.130	20.181	10.592	0.519
1096.000	632.505	80.006	19.996	103.139	20.178	10.795	0.532
1098.000	633.543	80.007	19.995	103.136	20.174	11.091	0.509
1100.000	634.569	80.005	19.997	103.131	20.175	11.055	0.506
1102.000	635.628	80.005	19.994	103.144	20.169	11.442	0.489
1104.000	636.648	80.005	19.994	103.139	20.171	11.300	0.502
1106.000	637.653	80.006	19.994	103.137	20.172	11.259	0.554
1108.000	638.639	80.005	19.994	103.143	20.171	11.287	0.496
1110.000	639.715	80.005	19.992	103.149	20.169	11.440	0.532
1112.001	640.766	80.005	19.994	103.146	20.170	11.391	0.516
1114.000	641.736	80.005	19.994	103.138	20.170	11.364	0.483
1116.001	642.749	80.006	19.993	103.143	20.168	11.557	0.509
1118.000	643.763	80.006	19.993	103.141	20.170	11.383	0.489
1120.000	644.801	80.006	19.994	103.142	20.168	11.497	0.514
1122.000	645.806	80.005	19.993	103.141	20.168	11.559	0.508
1124.001	646.850	80.006	19.994	103.143	20.166	11.666	0.521
1126.000	647.867	80.006	19.994	103.133	20.165	11.760	0.531
1128.000	648.845	80.006	19.995	103.133	20.164	11.854	0.507
1130.000	649.902	80.006	19.994	103.136	20.162	11.940	0.501
1132.001	650.915	80.005	19.997	103.147	20.164	11.856	0.479
1134.000	651.945	80.006	19.995	103.133	20.164	11.812	0.516
1136.001	652.954	80.006	19.993	103.136	20.167	11.590	0.494
1138.000	653.995	80.006	19.994	103.136	20.166	11.648	0.514
1140.000	654.989	80.006	19.994	103.139	20.164	11.804	0.461
1142.000	655.998	80.007	19.993	103.142	20.163	11.863	0.506
1144.000	656.994	80.008	19.994	103.134	20.165	11.754	0.507
1146.000	658.043	80.008	19.993	103.134	20.160	12.078	0.494
1148.000	659.040	80.008	19.994	103.133	20.161	12.030	0.532
1150.000	660.122	80.007	19.995	103.135	20.159	12.192	0.524
1152.001	661.089	80.006	19.994	103.131	20.158	12.234	0.480
1154.000	662.143	80.007	19.993	103.133	20.162	11.977	0.514
1156.000	663.159	80.006	19.994	103.133	20.159	12.194	0.510
1158.001	664.165	80.006	19.995	103.134	20.154	12.516	0.512
1160.001	665.181	80.006	19.995	103.133	20.157	12.339	0.518
1162.001	666.183	80.005	19.995	103.133	20.161	12.041	0.509
1164.001	667.201	80.007	19.995	103.139	20.157	12.315	0.478
1166.000	668.222	80.007	19.996	103.134	20.159	12.202	0.520
1168.000	669.236	80.007	19.994	103.135	20.157	12.333	0.534
1170.000	670.242	80.009	19.994	103.135	20.155	12.445	0.480
1172.000	671.243	80.008	19.994	103.135	20.158	12.292	0.483
1174.000	672.281	80.008	19.994	103.135	20.157	12.351	0.535
1176.000	673.296	80.008	19.994	103.134	20.155	12.511	0.546
1178.000	674.314	80.008	19.993	103.135	20.155	12.494	0.506
1180.000	675.345	80.006	19.994	103.137	20.157	12.315	0.524
1182.000	676.353	80.005	19.994	103.143	20.155	12.451	0.532
1184.000	677.387	80.004	19.995	103.137	20.155	12.484	0.499
1186.000	678.403	80.004	19.995	103.138	20.159	12.194	0.484
1188.000	679.416	80.005	19.995	103.137	20.156	12.373	0.474
1190.001	680.425	80.004	19.995	103.135	20.154	12.530	0.520
1192.000	681.455	80.005	19.995	103.136	20.158	12.281	0.487
1194.001	682.537	80.004	19.995	103.135	20.156	12.414	0.459
1196.000	683.554	80.007	19.996	103.134	20.156	12.375	0.509
1198.000	684.547	80.005	19.995	103.135	20.153	12.641	0.517
1200.000	685.613	80.006	19.994	103.135	20.154	12.562	0.536
1202.000	686.673	80.006	19.994	103.135	20.152	12.671	0.559
1204.001	687.658	80.007	19.994	103.141	20.152	12.693	0.494
1206.000	688.689	80.006	19.995	103.135	20.154	12.578	0.492
1208.000	689.722	80.007	19.995	103.133	20.155	12.514	0.512
1210.000	690.725	80.005	19.994	103.133	20.151	12.804	0.504
1212.000	691.728	80.005	19.994	103.134	20.157	12.353	0.525
1214.001	692.723	80.004	19.994	103.135	20.155	12.508	0.493
1216.000	693.726	80.005	19.995	103.133	20.155	12.510	0.480
1218.000	694.746	80.005	19.994	103.137	20.149	12.922	0.526
1220.000	695.723	80.006	19.995	103.138	20.152	12.685	0.511
1222.001	696.762	80.006	19.995	103.139	20.150	12.864	0.507
1224.001	697.725	80.005	19.995	103.135	20.149	12.924	0.498
1226.000	698.777	80.007	19.995	103.136	20.149	12.947	0.497
1228.000	699.807	80.008	19.993	103.136	20.147	13.074	0.543
1230.000	700.749	80.007	19.993	103.134	20.149	12.942	0.446
1232.000	701.744	80.008	19.994	103.135	20.146	13.122	0.462
1234.000	702.771	80.007	19.994	103.135	20.146	13.117	0.537
1236.000	703.771	80.008	19.994	103.139	20.150	12.865	0.500
1238.000	704.724	80.006	19.994	103.137	20.148	13.008	0.488
1240.000	705.757	80.008	19.994	103.137	20.145	13.185	0.486
1242.000	706.741	80.007	19.993	103.140	20.144	13.267	0.522
1244.000	707.720	80.006	19.994	103.144	20.142	13.442	0.503
1246.001	708.801	80.007	19.994	103.136	20.140	13.583	0.527
1248.001	709.789	80.007	19.994	103.138	20.141	13.505	0.497
1250.000	710.831	80.007	19.994	103.137	20.142	13.451	0.510
1252.000	711.763	80.008	19.994	103.141	20.140	13.586	0.473
1254.000	712.774	80.008	19.994	103.137	20.138	13.731	0.480
1256.000	713.849	80.007	19.994	103.135	20.140	13.567	0.535
1258.000	714.851	80.009	19.996	103.134	20.143	13.358	0.474
1260.000	715.852	80.007	19.994	103.136	20.136	13.864	0.489
1262.000	716.891	80.007	19.994	103.132	20.134	14.023	0.518
1264.001	717.904	80.007	19.994	103.135	20.136	13.850	0.501
1266.000	718.917	80.006	19.995	103.136	20.137	13.772	0.541
1268.000	719.930	80.005	19.994	103.135	20.134	14.033	0.501
1270.000	720.953	80.006	19.993	103.133	20.138	13.747	0.488
1272.000	721.960	80.006	19.995	103.136	20.135	13.959	0.507
1274.000	722.996	80.007	19.995	103.134	20.134	14.044	0.529
1276.000	723.942	80.006	19.995	103.134	20.136	13.866	0.451
1278.000	724.984	80.005	19.995	103.134	20.134	14.003	0.490
1280.000	725.985	80.005	19.995	103.130	20.133	14.073	0.494
1282.000	727.002	80.005	19.997	103.155	20.135	13.934	0.524
1284.000	728.055	80.007	19.996	103.135	20.131	14.241	0.543
1286.001	729.052	80.007	19.996	103.136	20.131	14.226	0.498
1288.000	730.062	80.005	19.995	103.138	20.133	14.050	0.477
1290.001	731.108	80.006	19.995	103.134	20.133	14.080	0.539
1292.000	732.142	80.006	19.995	103.141	20.135	13.937	0.500
1294.001	733.187	80.007	19.995	103.145	20.131	14.222	0.551
1296.000	734.188	80.006	19.994	103.142	20.135	13.935	0.506
1298.000	735.200	80.005	19.994	103.153	20.132	14.139	0.513
1300.000	736.252	80.006	19.995	103.144	20.131	14.257	0.517
1302.001	737.269	80.006	19.994	103.145	20.128	14.418	0.542
1304.001	738.319	80.006	19.994	103.146	20.129	14.397	0.539
1306.000	739.374	80.006	19.994	103.153	20.127	14.557	0.520
1308.000	740.387	80.007	19.993	103.147	20.126	14.569	0.492
1310.000	741.449	80.007	19.994	103.145	20.127	14.545	0.538
1312.000	742.488	80.009	19.994	103.153	20.127	14.491	0.536
1313.500	743.297	80.008	19.993	103.153	20.125	14.652	0.524