File: 01_Data/Roof_Felt/Cone/Roof_Felt_Underlayment_Cone_HF75Scan_220328_R3.csv
Names,Time,Stack TC,Smoke TC,Exh Press,Smoke Comp,Smoke Meas,CO Meter,CO2 Meter,O2 Meter,Sample Mass,Ext Coeff,Start Test,Flame Verif
Chan Gain,,500,500,1,1,1,1,1,1,1,1,1.0,1.0
Offset,,0,0,0.138301,0,0,0,0,0,0,0,0.0,0.0
Gain,,1,1,25.011,13.2062,13.8682,1,1,1,1.0009,1.02317,1.0,1.0
Units,sec,C,C,Pa,%,%,%,%,%,g,/m,,
Baseline,,41.969,43.6739,140.655,99.5844,96.5125,0.000694199,0.0670054,21.0083,-836.083,0.281274,,
2,0.25,41.3389,43.1713,144.496,98.3573,96.239,0.000756672,0.0714186,21.0024,166.74,0.195411,0.0,0.0
4,0.75,41.8398,42.9849,141.443,98.3529,95.4586,0.000735154,0.07134,21.0023,166.5,0.268085,0.0,0.0
6,1.25,41.5273,43.4574,138.257,98.34,95.5068,0.000727346,0.0711134,21.0019,166.67,0.262372,0.0,0.0
8,1.75,41.3953,43.1858,138.57,98.3492,94.9998,0.000721021,0.0709298,21.0014,166.53,0.310993,0.0,0.0
10,2.25,41.1307,43.068,139.76,98.342,94.6946,0.000785717,0.0707383,21.001,166.57,0.339205,0.0,0.0
12,2.75,40.944,42.6975,140.364,98.3351,94.6612,0.000838122,0.0705445,21.0005,166.57,0.341751,0.0,0.0
14,3.25,40.0883,42.1874,137.593,98.3367,94.202,0.000880569,0.0703876,20.9998,166.47,0.385541,0.0,0.0
16,3.75,40.6414,41.7168,138.335,98.344,94.34,0.00128799,0.0709126,21.0013,166.53,0.373068,0.0,0.0
18,4.25,40.8234,43.0033,140.486,98.3488,93.6971,0.001618,0.0713378,21.0043,166.46,0.43488,0.0,0.0
20,4.75,41.0852,42.8667,145.353,98.344,93.4724,0.0024088,0.0769079,21.0006,166.51,0.455991,0.0,0.0
22,5.25,41.2733,42.4051,146.787,98.3359,92.6547,0.00304934,0.0814196,20.9919,166.46,0.534113,0.0,0.0
24,5.75,41.1066,43.1911,138.741,98.346,90.0239,0.00405285,0.0850741,20.9849,166.4,0.793555,0.0,0.0
26,6.25,41.3263,42.6245,131.838,98.3488,78.7201,0.0053019,0.117213,20.941,166.38,1.99808,0.0,1.0
28,6.75,41.2861,42.9886,127.46,98.3464,71.1807,0.00631362,0.143246,20.9054,166.27,2.90145,0.0,1.0
30,7.25,41.1536,43.0731,121.031,98.3404,63.5729,0.00803042,0.182299,20.8371,166.09,3.91541,0.0,1.0
32,7.75,41.3203,42.9589,116.045,98.3521,55.5388,0.0102286,0.230103,20.7462,166.11,5.12907,0.0,1.0
34,8.25,41.5328,43.4785,121.14,98.3646,51.8043,0.0130124,0.292309,20.6726,166,5.75497,0.0,1.0
36,8.75,41.842,43.6952,110.926,98.3605,46.0006,0.0161701,0.36383,20.541,165.869,6.82102,0.0,1.0
38,9.25,42.307,44.259,106.905,98.3625,43.4122,0.0196629,0.421763,20.4343,165.709,7.341,0.0,1.0
40,9.75,42.8837,44.581,99.3366,98.3722,40.7793,0.0233335,0.532947,20.2696,165.579,7.90341,0.0,1.0
42,10.25,43.5631,45.3307,87.118,98.3746,42.8768,0.0263068,0.623007,20.1363,165.409,7.45347,0.0,1.0
44,10.75,44.6165,46.4509,98.0329,98.3754,42.8222,0.0308595,0.737,19.9654,165.239,7.46498,0.0,1.0
46,11.25,45.7745,47.5924,96.5559,98.3795,41.2944,0.0345471,0.866274,19.7704,165.049,7.79143,0.0,1.0
48,11.75,46.848,48.4259,79.557,98.373,38.4249,0.0391478,0.970987,19.553,164.889,8.43723,0.0,1.0
50,12.25,48.6384,50.0238,87.9615,98.3855,36.7578,0.0428743,1.13302,19.3235,164.638,8.83646,0.0,0.0
52,12.75,49.134,51.6619,83.6383,98.3762,37.1032,0.0469973,1.26426,19.1228,164.408,8.75169,0.0,0.0
54,13.25,51.1775,53.3424,81.7309,98.392,34.0522,0.0503368,1.43018,18.947,164.088,9.52328,0.0,0.0
56,13.75,52.5975,55.6168,89.5613,98.3787,36.0307,0.0530419,1.56458,18.8045,163.938,9.01515,0.0,0.0
58,14.25,54.6627,57.249,81.2798,98.3984,34.9642,0.0553161,1.6962,18.6892,163.647,9.28664,0.0,0.0
60,14.75,56.8127,59.8096,88.0279,98.396,33.5075,0.0571581,1.80282,18.5957,163.497,9.66837,0.0,0.0
62,15.25,59.3713,62.3505,88.1225,98.4169,30.3214,0.0576878,1.85271,18.52,163.347,10.567,0.0,0.0
64,15.75,61.028,64.7103,93.2151,98.4,34.257,0.0581168,1.89313,18.4587,163.177,9.47018,0.0,0.0
66,16.25,63.1115,67.0866,100.088,98.4306,35.864,0.0569338,1.88817,18.4515,163.027,9.06153,0.0,0.0
68,16.75,65.1405,69.7666,104.842,98.4121,36.7409,0.0559756,1.85023,18.484,162.957,8.84303,0.0,0.0
70,17.25,67.1039,71.9516,107.109,98.4266,38.8837,0.0536258,1.81949,18.5718,162.867,8.3356,0.0,0.0
72,17.75,68.0823,73.7947,108.996,98.4242,42.1032,0.0517225,1.71931,18.6982,162.777,7.62142,0.0,0.0
74,18.25,69.1423,75.4804,115.911,98.4311,47.4125,0.0494491,1.63816,18.8006,162.707,6.55612,0.0,0.0
76,18.75,69.8367,76.1644,114.392,98.429,50.8757,0.0469491,1.54625,18.9542,162.627,5.92318,0.0,0.0
78,19.25,70.1625,77.1559,116.903,98.4448,55.9633,0.0441669,1.44825,19.0787,162.606,5.06919,0.0,0.0
80,19.75,70.9521,77.859,119.688,98.4399,60.9946,0.0412318,1.34757,19.233,162.566,4.29608,0.0,0.0
82,20.25,71.4774,78.6513,120.323,98.4548,62.558,0.0388544,1.24685,19.3581,162.536,4.07029,0.0,0.0
84,20.75,72.1169,79.0255,122.716,98.4436,67.1182,0.0369287,1.15183,19.4593,162.476,3.43775,0.0,0.0
86,21.25,71.8465,79.1144,123.281,98.4649,67.3738,0.0339354,1.06278,19.5618,162.436,3.40558,0.0,0.0
88,21.75,72.3152,79.5818,126.268,98.4609,66.9197,0.0315108,0.990642,19.6632,162.416,3.46591,0.0,0.0
90,22.25,72.6987,80.0388,123.053,98.4617,65.6953,0.0289258,0.910179,19.7614,162.356,3.63172,0.0,0.0
92,22.75,72.1056,80.0337,128.87,98.4641,69.5941,0.0268319,0.845004,19.8556,162.326,3.11451,0.0,0.0
94,23.25,72.7968,80.1662,124.895,98.477,70.3351,0.024674,0.784093,19.942,162.276,3.02062,0.0,0.0
96,23.75,72.3173,79.8053,128.375,98.4847,70.2966,0.022926,0.727447,20.0212,162.276,3.02623,0.0,0.0
98,24.25,72.6107,79.9302,127.617,98.4976,68.7468,0.0213433,0.681564,20.0853,162.236,3.2275,0.0,0.0
100,24.75,72.0815,79.9186,126.176,98.4988,70.2915,0.0199111,0.633419,20.1557,162.196,3.02816,0.0,0.0
102,25.25,72.4105,79.7137,129.882,98.5225,69.6999,0.0184836,0.594421,20.2127,162.196,3.1062,0.0,0.0
104,25.75,71.9398,80.0115,121.452,98.5076,67.1115,0.0173273,0.560194,20.2589,162.116,3.4445,0.0,0.0
106,26.25,72.2649,79.4404,129.868,98.5322,68.7396,0.0163907,0.530095,20.3047,162.106,3.23159,0.0,0.0
108,26.75,72.0541,79.3118,126.456,98.5326,67.822,0.0154649,0.50171,20.3417,162.086,3.35224,0.0,0.0
110,27.25,71.6914,79.0912,130.814,98.5387,69.7905,0.0145647,0.478718,20.3733,162.026,3.09601,0.0,0.0
112,27.75,71.3328,79.2371,125.287,98.5306,71.0512,0.0138354,0.458051,20.3988,162.026,2.93458,0.0,0.0
114,28.25,71.2706,78.5634,129.421,98.5463,69.5213,0.01311,0.439471,20.4226,161.996,3.13139,0.0,0.0
116,28.75,70.9935,78.427,127.706,98.5395,72.7479,0.0124012,0.424421,20.4445,161.966,2.72358,0.0,0.0
118,29.25,71.7468,78.7829,127.15,98.5669,72.811,0.011711,0.409352,20.4622,161.956,2.7183,0.0,0.0
120,29.75,71.2869,78.7556,126.486,98.5685,74.5699,0.0110474,0.394556,20.4845,161.936,2.50421,0.0,0.0
122,30.25,71.39,78.6578,131.388,98.5778,74.9165,0.0104246,0.38257,20.5025,161.906,2.46343,0.0,0.0
124,30.75,71.6884,78.3608,130.951,98.5794,76.3978,0.00984334,0.368701,20.5254,161.896,2.28785,0.0,0.0
126,31.25,71.0721,77.7033,133.437,98.6023,77.1613,0.00937252,0.357467,20.544,161.876,2.20069,0.0,0.0
128,31.75,70.9847,77.5426,135.285,98.6044,79.2144,0.00883468,0.346145,20.5635,161.856,1.96519,0.0,0.0
130,32.25,70.995,78.0207,134.269,98.6245,80.1213,0.00839903,0.334974,20.5832,161.846,1.86484,0.0,0.0
132,32.75,71.025,77.6943,129.748,98.6152,79.1678,0.00794713,0.325925,20.6023,161.836,1.97146,0.0,0.0
134,33.25,70.9395,77.8699,129.239,98.6241,78.8957,0.0075811,0.314952,20.6208,161.806,2.00317,0.0,0.0
136,33.75,70.2635,77.4711,129.871,98.6277,82.3742,0.00721669,0.306064,20.6383,161.776,1.61626,0.0,0.0
138,34.25,70.3107,77.3261,130.771,98.6422,83.4792,0.00692152,0.29614,20.6547,161.756,1.49798,0.0,0.0
140,34.75,70.7489,77.0457,135.643,98.6503,85.1793,0.00668243,0.288101,20.668,161.756,1.31776,0.0,0.0
142,35.25,69.8781,76.9272,135.793,98.6616,84.6579,0.0064259,0.278815,20.6813,161.746,1.3739,0.0,0.0
144,35.75,70.1042,76.5345,131.951,98.6664,84.3383,0.0062181,0.271294,20.6944,161.716,1.40828,0.0,0.0
146,36.25,69.9076,76.574,135.958,98.6757,86.5256,0.00602147,0.264138,20.7071,161.686,1.17933,0.0,0.0
148,36.75,69.7982,76.5146,136.384,98.6829,87.2434,0.0058622,0.257383,20.7192,161.656,1.10584,0.0,0.0
150,37.25,69.9633,76.6767,132.096,98.7011,87.2357,0.00571596,0.251911,20.7307,161.656,1.10827,0.0,0.0
152,37.75,69.8876,75.878,129.925,98.6971,88.0039,0.0055975,0.245206,20.7414,161.656,1.02922,0.0,0.0
154,38.25,69.134,76.0499,134.795,98.7224,89.0302,0.00549048,0.239775,20.7517,161.646,0.927466,0.0,0.0
156,38.75,69.2771,75.3703,141.936,98.7172,89.7573,0.0054038,0.234495,20.7615,161.656,0.853989,0.0,0.0
158,39.25,68.3912,74.6634,132.752,98.7301,90.0447,0.00533229,0.229427,20.7694,161.626,0.826471,0.0,0.0
160,39.75,68.5683,75.1557,135.691,98.7583,89.7797,0.0052732,0.224669,20.7785,161.616,0.855482,0.0,0.0
162,40.25,69.107,75.451,132.662,98.7559,90.4582,0.00522211,0.220227,20.7858,161.606,0.787695,0.0,0.0
164,40.75,68.4014,74.9216,133.599,98.7672,90.9601,0.0051778,0.216124,20.7935,161.596,0.739056,0.0,0.0
166,41.25,68.3728,74.6466,138.045,98.7845,90.8649,0.00514192,0.212346,20.7998,161.596,0.750032,0.0,0.0
168,41.75,68.1973,74.4199,135.466,98.7885,90.8886,0.00511285,0.208774,20.8048,161.616,0.748057,0.0,0.0
170,42.25,67.7939,74.1939,135.304,98.8018,91.2107,0.0050635,0.205421,20.8098,161.586,0.717517,0.0,0.0
172,42.75,67.3232,73.653,133.988,98.8115,91.2306,0.00502352,0.202705,20.8147,161.546,0.716438,0.0,0.0
174,43.25,67.5526,74.0703,133.915,98.8216,92.2129,0.00496902,0.199522,20.8194,161.546,0.621233,0.0,0.0
176,43.75,67.7077,73.7413,133.93,98.8466,92.1447,0.00492488,0.196944,20.8238,161.505,0.630136,0.0,0.0
178,44.25,67.1501,73.5947,136.667,98.8522,91.52,0.00487439,0.194401,20.828,161.516,0.691701,0.0,0.0
180,44.75,67.0793,73.1177,138.087,98.8627,92.915,0.0048335,0.191932,20.8321,161.516,0.556885,0.0,0.0
182,45.25,66.9247,73.1803,134.994,98.8772,92.7499,0.00479546,0.189931,20.8361,161.516,0.57416,0.0,0.0
184,45.75,66.925,72.6893,135.933,98.8837,92.3851,0.00476465,0.187492,20.8399,161.495,0.610118,0.0,0.0
186,46.25,66.8964,73.3016,136.819,98.8913,93.097,0.00474093,0.185516,20.8435,161.475,0.54192,0.0,0.0
188,46.75,66.4438,72.5809,139.036,98.9062,93.2959,0.00472171,0.183456,20.8468,161.455,0.524117,0.0,0.0
190,47.25,65.9526,72.2045,131.049,98.9207,92.9137,0.00470123,0.181788,20.85,161.455,0.562274,0.0,0.0
192,47.75,66.0899,71.9135,136.601,98.9268,93.8804,0.00468464,0.180065,20.853,161.445,0.469931,0.0,0.0
194,48.25,65.7224,72.1299,138.62,98.9401,93.2603,0.00467121,0.178669,20.8554,161.435,0.530609,0.0,0.0
196,48.75,65.9222,71.5436,137.355,98.9518,93.1346,0.00465902,0.177151,20.8564,161.425,0.543775,0.0,0.0
198,49.25,65.5415,71.4418,135.957,98.9566,94.2067,0.00463818,0.175923,20.8586,161.445,0.441493,0.0,0.0
200,49.75,65.1462,71.6452,136.075,98.9763,94.136,0.0046213,0.174702,20.8608,161.435,0.450021,0.0,0.0
202,50.25,65.1669,71.1907,136.75,98.9824,93.3407,0.00460828,0.173509,20.8626,161.435,0.526712,0.0,0.0
204,50.75,65.1515,71.1196,135.401,99.0029,94.0192,0.00459831,0.172244,20.8644,161.425,0.463577,0.0,0.0
206,51.25,64.6237,70.8064,137.606,99.0033,93.7428,0.00459992,0.170948,20.8659,161.425,0.490034,0.0,0.0
208,51.75,64.5417,70.5398,137.172,99.0158,94.1208,0.00460995,0.170395,20.868,161.415,0.455055,0.0,0.0
210,52.25,64.4693,70.5408,134.733,99.0243,94.4085,0.00461807,0.169451,20.8697,161.375,0.42842,0.0,0.0
212,52.75,64.3127,70.1804,137.225,99.0404,95.6951,0.00466395,0.168304,20.8715,161.385,0.308393,0.0,0.0
214,53.25,64.1658,70.1217,141.478,99.0674,95.0641,0.00470111,0.16703,20.8734,161.355,0.37022,0.0,0.0
216,53.75,64.1024,69.8823,136.986,99.0557,94.7217,0.00474674,0.165999,20.8749,161.355,0.401545,0.0,0.0
218,54.25,63.6965,70.024,135.439,99.0735,94.497,0.00479768,0.164908,20.8762,161.365,0.42447,0.0,0.0
220,54.75,63.4382,69.4404,136.884,99.0932,95.5521,0.00485985,0.164024,20.8776,161.365,0.326602,0.0,0.0
222,55.25,63.5181,69.0626,138.889,99.0985,95.3735,0.00491021,0.163194,20.8792,161.355,0.343869,0.0,0.0
224,55.75,64.0325,69.6175,135.28,99.1202,95.0984,0.004951,0.162522,20.8805,161.345,0.371766,0.0,0.0
226,56.25,63.0898,68.5703,137.748,99.1271,95.5407,0.00501112,0.161821,20.8818,161.335,0.330742,0.0,0.0
228,56.75,63.0297,68.8329,137.639,99.1521,95.1242,0.00505982,0.161111,20.8831,161.335,0.372211,0.0,0.0
230,57.25,62.9678,68.865,137.548,99.1525,95.2541,0.00511774,0.160425,20.8841,161.325,0.359997,0.0,0.0
232,57.75,63.1725,68.826,133.045,99.173,95.1949,0.00516465,0.159768,20.8849,161.305,0.367442,0.0,0.0
234,58.25,62.5318,68.1024,135.084,99.1871,95.4526,0.00521128,0.159236,20.8858,161.295,0.344452,0.0,0.0
236,58.75,62.2686,67.9071,134.857,99.202,94.96,0.00524905,0.158663,20.8867,161.285,0.392241,0.0,0.0
238,59.25,62.2059,67.5026,134.047,99.1964,95.5517,0.00528087,0.158199,20.8875,161.295,0.335983,0.0,0.0
240,59.75,62.0846,67.6221,134.781,99.2254,95.6333,0.00530665,0.157749,20.8881,161.285,0.330939,0.0,0.0
242,60.25,61.8238,67.0461,139.873,99.2178,95.7362,0.0053226,0.157317,20.8888,161.265,0.320599,0.0,0.0
244,60.75,61.7694,67.2941,136.707,99.2347,95.2816,0.00533552,0.156839,20.8896,161.225,0.364845,0.0,0.0
246,61.25,61.3643,67.4163,140.716,99.2375,96.3181,0.0053312,0.156452,20.8905,161.245,0.267995,0.0,0.0
248,61.75,60.4663,66.0164,137.84,99.2669,95.0121,0.00532771,0.155983,20.8914,161.225,0.393191,0.0,0.0
250,62.25,60.9278,67.0583,137.284,99.2834,95.5601,0.00532487,0.155603,20.8922,161.195,0.343061,0.0,0.0
252,62.75,59.6007,64.6781,136.387,99.2883,95.6879,0.00530534,0.15514,20.893,161.205,0.331502,0.0,0.0
254,63.25,60.9265,66.5625,139.505,99.2887,96.2462,0.00528952,0.154765,20.8939,161.205,0.279329,0.0,0.0
256,63.75,60.6759,66.17,137.976,99.304,96.1328,0.00527087,0.154379,20.8946,161.215,0.291297,0.0,0.0
258,64.25,60.7951,65.7944,138.978,99.3096,96.4895,0.00525052,0.153992,20.8956,161.205,0.258558,0.0,0.0
260,64.75,60.5079,65.9141,133.044,99.3302,96.6715,0.00523339,0.153679,20.8964,161.215,0.243504,0.0,0.0
262,65.25,60.1881,66.0262,134.807,99.3379,96.0434,0.00521893,0.153355,20.8971,161.185,0.302698,0.0,0.0
264,65.75,59.4263,64.8563,137.146,99.3487,95.9072,0.00521045,0.153092,20.8976,161.195,0.316424,0.0,0.0
266,66.25,59.61,64.8039,141.63,99.3584,95.4044,0.0052065,0.152805,20.8981,161.175,0.364474,0.0,0.0
268,66.75,59.4075,64.7679,136.326,99.3769,96.1539,0.00521238,0.152505,20.8984,161.175,0.295912,0.0,0.0
270,67.25,60.0699,65.5399,134.659,99.3854,95.6388,0.0052253,0.152196,20.8991,161.175,0.344883,0.0,0.0
272,67.75,59.7162,65.0254,136.986,99.4116,95.5703,0.00524938,0.151885,20.8997,161.145,0.353685,0.0,0.0
274,68.25,59.4528,65.0003,137.451,99.4152,95.6778,0.00528114,0.151581,20.9002,161.155,0.343922,0.0,0.0
276,68.75,57.915,63.3713,135.739,99.439,95.5631,0.00530687,0.151288,20.9006,161.125,0.356834,0.0,0.0
278,69.25,59.6059,64.6509,136.597,99.433,95.7497,0.00533938,0.150976,20.9009,161.105,0.338777,0.0,0.0
280,69.75,59.2122,64.3504,136.278,99.4588,95.4882,0.00537623,0.150656,20.9012,161.105,0.365655,0.0,0.0
282,70.25,58.9947,64.54,137.13,99.4531,95.9228,0.00540868,0.150353,20.9014,161.095,0.324384,0.0,0.0
284,70.75,57.3177,62.6548,141.227,99.4837,95.8953,0.00543729,0.150067,20.902,161.105,0.329723,0.0,0.0
286,71.25,58.8298,63.6001,136.452,99.4801,96.0997,0.00546047,0.149836,20.9025,161.105,0.310283,0.0,0.0
288,71.75,58.5547,63.798,137.138,99.4975,96.1302,0.00548294,0.149451,20.9029,161.075,0.309001,0.0,0.0
290,72.25,58.2123,63.5389,135.042,99.4962,95.6609,0.00550115,0.149139,20.9032,161.075,0.352821,0.0,0.0
292,72.75,58.3284,63.4242,136.22,99.5095,96.6351,0.00551589,0.148789,20.9034,161.075,0.263075,0.0,0.0
294,73.25,58.4378,63.4027,138.564,99.5192,95.8996,0.00552414,0.14842,20.9038,161.095,0.332525,0.0,0.0
296,73.75,57.9603,63.1008,136.097,99.5301,95.82,0.00553082,0.148128,20.9043,161.085,0.340956,0.0,0.0
298,74.25,57.5613,62.7782,137.322,99.5402,95.9355,0.00552759,0.147898,20.9046,161.075,0.331049,0.0,0.0
300,74.75,57.4711,62.5632,139.421,99.5619,96.021,0.00552498,0.147711,20.9049,161.065,0.325017,0.0,0.0
302,75.25,58.0575,62.8821,135.942,99.568,96.1031,0.00551177,0.147561,20.9054,161.065,0.31789,0.0,0.0
304,75.75,58.1873,63.2789,138.42,99.5845,95.8564,0.00550108,0.147269,20.906,161.045,0.342453,0.0,0.0
306,76.25,57.3924,62.6618,138.49,99.5934,96.2783,0.00549241,0.147033,20.9065,161.025,0.30383,0.0,0.0
308,76.75,57.2598,62.365,134.507,99.6067,96.2538,0.00547676,0.146716,20.9069,161.035,0.307317,0.0,0.0
310,77.25,57.3309,62.2183,136.151,99.6051,96.2965,0.00546409,0.146345,20.9072,161.025,0.303187,0.0,0.0
312,77.75,57.3093,62.1396,140.774,99.6224,96.0401,0.00545259,0.145979,20.9074,161.005,0.328684,0.0,0.0
314,78.25,56.6333,61.301,137.216,99.622,96.812,0.00544769,0.145621,20.9075,161.005,0.256796,0.0,0.0
316,78.75,56.3122,61.6181,137.429,99.6433,97.3144,0.00543684,0.145332,20.908,160.965,0.212266,0.0,0.0
318,79.25,56.9742,61.9403,141.118,99.651,96.2741,0.00542806,0.14514,20.9085,160.985,0.309417,0.0,0.0
320,79.75,56.8302,61.5792,140.004,99.6699,96.2851,0.00541355,0.144985,20.9089,160.975,0.310098,0.0,0.0
322,80.25,56.7179,61.5802,134.04,99.6744,96.2335,0.0054018,0.144873,20.9093,160.975,0.315311,0.0,0.0
324,80.75,56.7915,61.7228,139.186,99.6913,96.418,0.00538365,0.144782,20.9096,160.965,0.299641,0.0,0.0
326,81.25,56.5657,61.0889,136.43,99.6957,96.4138,0.00536896,0.144677,20.9098,160.975,0.300434,0.0,0.0
328,81.75,56.6096,61.1151,140.557,99.7066,96.5437,0.00535317,0.144496,20.91,160.975,0.289328,0.0,0.0
330,82.25,56.1306,61.0823,138.106,99.7131,96.5238,0.00533688,0.144276,20.9102,160.965,0.291757,0.0,0.0
332,82.75,56.14,60.9183,137.524,99.7195,96.9119,0.00532368,0.144032,20.9103,160.955,0.256323,0.0,0.0
334,83.25,55.9578,60.9609,140.492,99.7409,95.8801,0.0053104,0.143759,20.9104,160.925,0.354317,0.0,0.0
336,83.75,56.302,61.005,141.479,99.7457,96.4294,0.00529731,0.143472,20.9114,160.905,0.303474,0.0,0.0
338,84.25,55.5098,60.4791,136.927,99.7586,96.0164,0.00529124,0.143143,20.9121,160.885,0.343164,0.0,0.0
340,84.75,55.6464,60.3242,139.702,99.7651,97.3419,0.00529041,0.14279,20.9128,160.885,0.220686,0.0,0.0
342,85.25,55.4292,60.2119,135.61,99.7739,96.2106,0.00528974,0.142504,20.9133,160.885,0.326402,0.0,0.0
344,85.75,55.5835,60.3012,142.186,99.7872,96.5327,0.00530274,0.142005,20.9139,160.865,0.297603,0.0,0.0
346,86.25,55.5006,60.3626,138.358,99.8013,96.4023,0.00531328,0.141601,20.9146,160.875,0.310999,0.0,0.0
348,86.75,55.4646,60.1928,134.959,99.8033,96.6614,0.0053292,0.141126,20.9152,160.875,0.287098,0.0,0.0
350,87.25,55.2831,59.8838,137.201,99.8199,96.0756,0.0053421,0.140608,20.9157,160.865,0.343137,0.0,0.0
352,87.75,55.1744,60.0165,133.946,99.8384,96.9606,0.00535131,0.140189,20.9163,160.885,0.262511,0.0,0.0
354,88.25,55.0246,59.7362,142.348,99.8404,96.2728,0.00535878,0.139681,20.917,160.895,0.32658,0.0,0.0
356,88.75,55.0523,59.7358,130.266,99.8372,96.3346,0.0053562,0.139269,20.9176,160.875,0.320531,0.0,0.0
358,89.25,55.2781,59.9773,138.48,99.844,96.5323,0.00535411,0.13881,20.9181,160.865,0.302751,0.0,0.0
360,89.75,55.1427,59.357,140.262,99.8646,96.6351,0.00535242,0.138437,20.9185,160.855,0.295043,0.0,0.0
362,90.25,54.777,59.423,136.297,99.8731,96.7943,0.00534736,0.137939,20.9192,160.855,0.281035,0.0,0.0
364,90.75,54.7064,59.0437,136.984,99.8843,96.9733,0.00534325,0.137536,20.9198,160.835,0.265464,0.0,0.0
366,91.25,54.4236,59.0365,137.121,99.896,96.8425,0.00533747,0.137097,20.9203,160.825,0.278627,0.0,0.0
368,91.75,54.7098,59.1029,137.514,99.8981,96.4971,0.00533278,0.136742,20.9207,160.785,0.310872,0.0,0.0
370,92.25,54.5231,58.8327,137.97,99.9114,96.0138,0.00532578,0.13641,20.921,160.815,0.357133,0.0,0.0
372,92.75,54.4066,58.881,138.644,99.9146,96.5115,0.00531724,0.136101,20.9217,160.805,0.311018,0.0,0.0
374,93.25,53.8762,58.4452,136.928,99.9283,96.0147,0.00531097,0.135851,20.9223,160.795,0.358575,0.0,0.0
376,93.75,53.6801,58.2629,140.5,99.9396,96.6783,0.00530647,0.135424,20.9226,160.795,0.297768,0.0,0.0
378,94.25,53.968,58.4819,138.621,99.9541,97.3538,0.00530931,0.135078,20.9228,160.785,0.236582,0.0,0.0
380,94.75,54.3585,58.4802,137.984,99.9396,96.3782,0.00531744,0.134644,20.923,160.785,0.325668,0.0,0.0
382,95.25,53.9666,58.4923,140.363,99.9601,96.3494,0.00532403,0.134152,20.9234,160.785,0.330195,0.0,0.0
384,95.75,53.397,58.5992,142.352,99.9617,96.264,0.00532937,0.133636,20.9239,160.775,0.338307,0.0,0.0
386,96.25,53.7452,58.3301,138.064,99.9823,96.6724,0.00534231,0.133111,20.9244,160.775,0.302154,0.0,0.0
388,96.75,53.7615,58.1063,136.807,99.9742,96.6347,0.0053528,0.132686,20.9249,160.755,0.304928,0.0,0.0
390,97.25,53.5342,57.7833,138.556,99.9924,96.2695,0.0053613,0.132188,20.9253,160.775,0.340544,0.0,0.0
392,97.75,52.8827,57.3274,141.502,99.9996,96.8226,0.00533615,0.131785,20.9258,160.765,0.289771,0.0,0.0
394,98.25,53.5633,57.9398,137.901,100.006,96.294,0.00531579,0.131458,20.9265,160.775,0.339449,0.0,0.0
396,98.75,53.4287,58.0497,133.872,100.01,96.3465,0.00526976,0.130872,20.9273,160.775,0.334957,0.0,0.0
398,99.25,53.8449,58.1487,137.97,100.019,96.1133,0.00523247,0.130398,20.9281,160.765,0.357502,0.0,0.0
400,99.75,53.1371,57.8235,133.643,100.014,96.2352,0.00518609,0.12991,20.9287,160.715,0.345656,0.0,0.0
402,100.25,53.322,57.565,139.792,100.037,97.1565,0.00513396,0.129423,20.9293,160.725,0.262271,0.0,0.0
404,100.75,53.0947,57.1293,137.258,100.033,97.1362,0.00507576,0.129029,20.9297,160.705,0.26375,0.0,0.0
406,101.25,53.1998,57.4741,139.42,100.045,96.9991,0.00502862,0.128667,20.9305,160.715,0.277478,0.0,0.0
408,101.75,53.254,57.3868,138.253,100.046,96.1514,0.00498675,0.128374,20.9312,160.715,0.356332,0.0,0.0
410,102.25,52.949,57.2694,138.162,100.064,96.4938,0.00495283,0.128095,20.9317,160.705,0.326092,0.0,0.0
412,102.75,52.8636,57.093,136.576,100.061,96.5801,0.00492665,0.127869,20.9321,160.685,0.317813,0.0,0.0
414,103.25,52.6595,57.1158,139.081,100.077,97.5192,0.00490661,0.127576,20.9329,160.675,0.232334,0.0,0.0
416,103.75,52.8737,56.9778,137.397,100.073,97.7038,0.00489038,0.127239,20.9335,160.675,0.215078,0.0,0.0
418,104.25,52.5808,56.7124,139.407,100.085,97.3453,0.0048856,0.126871,20.934,160.665,0.249115,0.0,0.0
420,104.75,52.3745,56.4403,135.423,100.088,96.8256,0.00488925,0.126487,20.935,160.655,0.297415,0.0,0.0
422,105.25,52.5371,56.4858,139.909,100.106,96.8184,0.00489221,0.126074,20.9359,160.655,0.299672,0.0,0.0
424,105.75,52.4716,56.4705,138.802,100.093,96.782,0.00490198,0.125646,20.9365,160.675,0.301927,0.0,0.0
426,106.25,52.1092,56.2502,137.6,100.115,97.3284,0.0049099,0.1253,20.9371,160.665,0.253351,0.0,0.0
428,106.75,52.3717,56.4799,139.674,100.11,96.9771,0.00492246,0.124888,20.9375,160.665,0.285369,0.0,0.0
430,107.25,51.6767,55.8041,136.763,100.126,96.4552,0.00493263,0.124436,20.9379,160.635,0.33524,0.0,0.0
432,107.75,52.3926,56.4035,139.551,100.123,96.4269,0.00495563,0.12407,20.9386,160.655,0.337591,0.0,0.0
434,108.25,52.0319,55.9756,136.756,100.144,97.2014,0.00497425,0.123482,20.9396,160.655,0.267703,0.0,0.0
436,108.75,52.0513,56.0777,140.176,100.141,97.7943,0.00500657,0.123005,20.9405,160.675,0.212796,0.0,0.0
438,109.25,52.3212,56.4191,138.24,100.143,96.3676,0.00503274,0.122341,20.9411,160.665,0.344913,0.0,0.0
440,109.75,52.0634,56.1855,136.352,100.143,96.2847,0.0050564,0.121802,20.9417,160.625,0.352606,0.0,0.0
442,110.25,51.8518,55.9565,140.69,100.159,96.9246,0.00507557,0.121172,20.9426,160.645,0.294598,0.0,0.0
444,110.75,51.9794,55.9721,139.163,100.155,97.1303,0.0050911,0.120662,20.9433,160.625,0.275211,0.0,0.0
446,111.25,51.7464,55.6908,138.753,100.164,97.1371,0.00509331,0.12004,20.9438,160.615,0.27538,0.0,0.0
448,111.75,51.7209,55.7172,137.568,100.163,97.1625,0.00508578,0.119536,20.9443,160.615,0.272961,0.0,0.0
450,112.25,51.9741,55.8342,139.173,100.174,97.0266,0.00506932,0.118975,20.9447,160.625,0.286495,0.0,0.0
452,112.75,51.5205,55.3344,139.576,100.167,97.9382,0.00504667,0.118382,20.9454,160.615,0.201947,0.0,0.0
454,113.25,51.6713,55.5248,141.639,100.175,96.7608,0.00502833,0.117902,20.946,160.625,0.311223,0.0,0.0
456,113.75,51.6338,55.5447,136.644,100.187,96.5611,0.00500117,0.117291,20.9468,160.635,0.330817,0.0,0.0
458,114.25,51.5117,55.4082,139.982,100.199,96.6385,0.00497918,0.116796,20.9475,160.625,0.324705,0.0,0.0
460,114.75,51.5083,54.97,139.16,100.186,98.1888,0.00496137,0.116322,20.9482,160.615,0.180749,0.0,0.0
462,115.25,51.415,54.9419,135.129,100.209,96.5416,0.00494693,0.115873,20.9487,160.605,0.334612,0.0,0.0
464,115.75,51.5965,55.3233,139.121,100.206,96.5826,0.00493156,0.115436,20.9491,160.585,0.330509,0.0,0.0
466,116.25,51.4335,54.8749,135.237,100.214,96.5543,0.00491911,0.115017,20.9499,160.595,0.333938,0.0,0.0
468,116.75,51.4604,55.2656,139.748,100.222,97.0139,0.00490255,0.114677,20.9505,160.565,0.292036,0.0,0.0
470,117.25,51.243,54.8366,142.059,100.227,96.7083,0.00488332,0.114249,20.951,160.535,0.320749,0.0,0.0
472,117.75,50.8677,54.6079,138.419,100.219,96.9966,0.00486775,0.113903,20.9515,160.565,0.293354,0.0,0.0
474,118.25,51.1705,55.0368,136.961,100.226,97.843,0.0048435,0.113498,20.9518,160.565,0.215985,0.0,0.0
476,118.75,51.0849,54.7348,138.577,100.233,97.0346,0.00481338,0.11317,20.9521,160.545,0.291057,0.0,0.0
478,119.25,51.1445,54.6454,137.385,100.241,96.636,0.00478899,0.112853,20.9523,160.525,0.328767,0.0,0.0
480,119.75,50.7586,54.0878,135.955,100.229,96.7799,0.00476019,0.11255,20.9525,160.535,0.314293,0.0,0.0
482,120.25,50.6488,54.653,138.902,100.237,97.6585,0.00472872,0.112305,20.9529,160.545,0.233902,0.0,0.0
484,120.75,50.6374,54.3752,140.41,100.236,97.6428,0.00470775,0.111968,20.9532,160.535,0.235269,0.0,0.0
486,121.25,50.698,54.1217,141.453,100.246,97.1252,0.00469483,0.111695,20.9535,160.535,0.283875,0.0,0.0
488,121.75,50.8479,54.3052,138.219,100.251,97.1214,0.00469083,0.111474,20.9537,160.525,0.284659,0.0,0.0
490,122.25,50.9126,54.4361,138.146,100.25,97.0004,0.00469341,0.111295,20.9543,160.515,0.295781,0.0,0.0
492,122.75,49.8674,54.0507,139.73,100.258,96.7189,0.00469679,0.110957,20.9548,160.495,0.322581,0.0,0.0
494,123.25,50.5396,54.2305,133.241,100.268,96.7612,0.00470068,0.110683,20.9553,160.515,0.319484,0.0,0.0
496,123.75,50.1927,53.702,136.209,100.272,96.8497,0.00470384,0.110419,20.9556,160.495,0.31168,0.0,0.0
498,124.25,49.4985,53.4134,139.628,100.27,96.4527,0.00469044,0.110205,20.9558,160.505,0.348401,0.0,0.0
500,124.75,49.9392,53.7719,140.25,100.265,96.7684,0.00467959,0.109977,20.9561,160.505,0.318564,0.0,0.0
502,125.25,50.4044,53.2248,138.839,100.281,96.6305,0.00467079,0.109741,20.9562,160.505,0.33285,0.0,0.0
504,125.75,49.7527,53.1391,139.964,100.275,97.6415,0.00464649,0.109504,20.9564,160.495,0.238885,0.0,0.0
506,126.25,49.4108,53.2478,142.115,100.278,96.7638,0.00462681,0.109312,20.9565,160.465,0.32015,0.0,0.0
508,126.75,49.6268,53.1372,141.282,100.274,96.7667,0.00460312,0.109033,20.9566,160.475,0.319515,0.0,0.0
510,127.25,49.3823,53.0614,142.045,100.285,96.8789,0.00457695,0.108806,20.9567,160.485,0.310164,0.0,0.0
512,127.75,49.5267,53.183,139.502,100.286,96.6753,0.00454608,0.108623,20.9567,160.465,0.329117,0.0,0.0
514,128.25,48.1618,52.1929,138.135,100.283,97.0566,0.00451236,0.10835,20.9572,160.465,0.293532,0.0,0.0
516,128.75,48.6993,52.3517,135.524,100.29,96.7164,0.00447216,0.108128,20.9576,160.445,0.325667,0.0,0.0
518,129.25,50.1057,53.0195,134.301,100.286,96.5831,0.00442798,0.107818,20.9579,160.415,0.33765,0.0,0.0
520,129.75,49.3079,52.6289,133.402,100.31,96.9034,0.00439219,0.10745,20.9582,160.455,0.310127,0.0,0.0
522,130.25,48.9944,52.8382,139.312,100.302,96.495,0.00433994,0.107151,20.9586,160.445,0.347277,0.0,0.0
524,130.75,49.3949,52.999,137.997,100.313,96.9758,0.00429761,0.106688,20.9592,160.465,0.303679,0.0,0.0
526,131.25,49.2007,52.9703,141.214,100.299,96.7177,0.00424987,0.106313,20.9599,160.435,0.326342,0.0,0.0
528,131.75,49.7295,52.3265,133.562,100.31,97.2475,0.00421119,0.105803,20.9606,160.415,0.278242,0.0,0.0
530,132.25,48.6345,51.5687,140.782,100.312,96.5196,0.00417214,0.10539,20.9613,160.415,0.345931,0.0,0.0
532,132.75,48.5806,51.8663,142.206,100.318,96.4845,0.00413355,0.104793,20.9618,160.415,0.349668,0.0,0.0
534,133.25,49.1647,52.7102,135.058,100.302,97.0922,0.00409907,0.104309,20.9622,160.425,0.291904,0.0,0.0
536,133.75,48.948,52.795,136.66,100.3,96.3685,0.00406825,0.103711,20.9634,160.395,0.358874,0.0,0.0
538,134.25,49.3006,52.865,136.233,100.3,96.7904,0.00404329,0.103227,20.9644,160.374,0.319698,0.0,0.0
540,134.75,48.9119,52.7721,136.232,100.312,96.8383,0.00402796,0.102747,20.9654,160.374,0.316346,0.0,0.0
542,135.25,48.5213,52.4223,139.241,100.311,96.749,0.00401554,0.102281,20.9664,160.384,0.324517,0.0,0.0
544,135.75,48.7328,52.3278,138.274,100.309,96.8061,0.00401282,0.101816,20.9673,160.384,0.319039,0.0,0.0
546,136.25,47.9324,51.7255,139.802,100.312,96.5831,0.00401062,0.101361,20.9679,160.384,0.339958,0.0,0.0
548,136.75,48.4529,51.2977,140.045,100.318,96.4015,0.00400394,0.100993,20.9685,160.395,0.357459,0.0,0.0
550,137.25,48.896,52.2738,137.298,100.313,96.3169,0.00399853,0.100571,20.9689,160.404,0.364838,0.0,0.0
552,137.75,48.6766,52.0978,139.847,100.319,97.3326,0.00398064,0.100229,20.9693,160.404,0.27126,0.0,0.0
554,138.25,48.6044,52.3194,138.252,100.343,96.5496,0.00395398,0.0998141,20.9696,160.404,0.345914,0.0,0.0
556,138.75,49.0705,51.9641,138.667,100.318,97.1925,0.00393238,0.0994783,20.9698,160.395,0.284115,0.0,0.0
558,139.25,48.4875,51.8116,140.853,100.311,96.7215,0.0038819,0.0990964,20.9702,160.364,0.327034,0.0,0.0
560,139.75,48.6851,52.0796,138.396,100.329,97.0088,0.003841,0.098787,20.9708,160.374,0.30203,0.0,0.0
562,140.25,47.8127,51.3286,137.555,100.302,97.1633,0.00378834,0.0984568,20.9712,160.374,0.285334,0.0,0.0
564,140.75,47.9602,51.1026,141.463,100.33,97.1184,0.00374569,0.0981178,20.9716,160.374,0.291967,0.0,0.0
566,141.25,48.2973,51.4417,140.424,100.31,97.5311,0.003706,0.0978431,20.9719,160.374,0.252146,0.0,0.0
568,141.75,48.486,51.1662,137.34,100.32,97.0363,0.00366923,0.0974146,20.9721,160.404,0.298656,0.0,0.0
570,142.25,48.4292,51.4906,136.436,100.308,96.4354,0.00363944,0.0970675,20.9728,160.395,0.353406,0.0,0.0
572,142.75,48.4174,51.8346,140.663,100.319,96.9699,0.00360825,0.0966274,20.9733,160.364,0.304732,0.0,0.0
574,143.25,48.7204,51.6441,136.505,100.31,97.3948,0.00357662,0.0961278,20.9736,160.354,0.264732,0.0,0.0
576,143.75,48.1808,51.5041,140.838,100.314,97.0884,0.00354716,0.0956004,20.9738,160.364,0.293374,0.0,0.0
578,144.25,48.2784,51.8302,139.365,100.3,97.1972,0.00351982,0.0950628,20.974,160.364,0.282026,0.0,0.0
580,144.75,48.4454,51.4877,138.664,100.31,96.6745,0.00349704,0.0946272,20.9741,160.374,0.331288,0.0,0.0
582,145.25,48.223,51.5609,137.085,100.301,97.5044,0.00347801,0.0941229,20.9747,160.384,0.253806,0.0,0.0
584,145.75,48.4009,51.4536,140.306,100.314,96.801,0.00346259,0.093578,20.9752,160.364,0.319907,0.0,0.0
586,146.25,48.4373,51.4692,137.473,100.302,97.391,0.00345712,0.0930646,20.9755,160.334,0.264362,0.0,0.0
588,146.75,48.1217,51.0672,136.097,100.293,96.6758,0.003459,0.0925837,20.976,160.324,0.32969,0.0,0.0
590,147.25,48.3705,51.2963,139.306,100.302,96.9085,0.00346952,0.0921582,20.9764,160.314,0.308935,0.0,0.0
592,147.75,48.0534,51.4877,136.997,100.307,96.7816,0.00348614,0.0917811,20.9767,160.294,0.321135,0.0,0.0
594,148.25,47.9907,51.3837,137.255,100.302,96.6533,0.00349959,0.0914756,20.9769,160.294,0.332602,0.0,0.0
596,148.75,48.1579,50.8655,137.039,100.298,96.625,0.00352026,0.0911349,20.9771,160.304,0.334839,0.0,0.0
598,149.25,47.9975,51.0259,140.835,100.295,97.206,0.003537,0.090775,20.9773,160.304,0.280737,0.0,0.0
600,149.75,47.9445,50.911,139.448,100.293,96.8505,0.0035469,0.0904259,20.9776,160.304,0.313513,0.0,0.0
602,150.25,48.1937,51.1051,138.424,100.294,97.2827,0.00355492,0.0900912,20.9781,160.284,0.273594,0.0,0.0
604,150.75,48.2075,51.5278,137.006,100.297,96.9589,0.0035431,0.0898201,20.9788,160.304,0.303767,0.0,0.0
606,151.25,47.7504,51.3153,143.457,100.291,97.1057,0.00353353,0.0893952,20.9795,160.294,0.289643,0.0,0.0
608,151.75,47.9325,50.9458,136.825,100.278,96.9288,0.0035026,0.089051,20.9801,160.274,0.304853,0.0,0.0
610,152.25,48.0825,51.3735,141.835,100.294,96.779,0.00347754,0.088567,20.9806,160.284,0.32018,0.0,0.0
612,152.75,47.8402,51.0299,140.589,100.284,97.3432,0.00343929,0.088175,20.9809,160.264,0.267112,0.0,0.0
614,153.25,47.8747,51.2843,136.804,100.285,97.4164,0.00339213,0.087625,20.9821,160.274,0.260507,0.0,0.0
616,153.75,47.6563,51.0044,136.694,100.281,97.0376,0.00335393,0.0871796,20.9831,160.264,0.295113,0.0,0.0
618,154.25,47.7581,50.7309,140.024,100.283,96.8455,0.00330838,0.0866137,20.9839,160.264,0.313083,0.0,0.0
620,154.75,47.915,50.4015,137.106,100.277,96.793,0.00327147,0.0861554,20.9845,160.254,0.317371,0.0,0.0
622,155.25,47.3681,51.0179,138.347,100.265,97.234,0.00324094,0.0857339,20.985,160.264,0.275525,0.0,0.0
624,155.75,48.0777,50.6718,138.757,100.268,96.8235,0.00321563,0.0853471,20.9854,160.264,0.313751,0.0,0.0
626,156.25,47.6892,50.8083,138.498,100.259,96.7333,0.0031939,0.0850338,20.9858,160.234,0.321282,0.0,0.0
628,156.75,47.589,50.5857,138.007,100.267,97.0541,0.00317518,0.0847118,20.9859,160.244,0.292288,0.0,0.0
630,157.25,47.7182,50.7738,139.582,100.262,96.8125,0.00315297,0.0844509,20.986,160.234,0.314193,0.0,0.0
632,157.75,47.9504,50.9405,140.772,100.252,96.6834,0.00312864,0.0841031,20.986,160.244,0.32534,0.0,0.0
634,158.25,48.0136,50.534,136.96,100.245,97.2615,0.00310893,0.0838213,20.9861,160.244,0.271183,0.0,0.0
636,158.75,47.5487,50.3019,138.801,100.26,97.2031,0.00307592,0.0835495,20.9861,160.244,0.277872,0.0,0.0
638,159.25,47.8847,50.5589,140.596,100.246,96.6262,0.00304919,0.0832902,20.9862,160.244,0.330104,0.0,0.0
640,159.75,47.1872,50.4137,139.81,100.245,96.5319,0.00302177,0.0830514,20.9862,160.224,0.338766,0.0,0.0
642,160.25,47.4053,50.4703,139.12,100.239,96.8797,0.00299437,0.0828321,20.9867,160.214,0.305937,0.0,0.0
644,160.75,47.2263,50.5575,141.928,100.244,98.3615,0.00297347,0.082633,20.987,160.234,0.17014,0.0,0.0
646,161.25,47.6275,50.3937,136.81,100.239,97.0643,0.00295768,0.0824522,20.9873,160.244,0.288895,0.0,0.0
648,161.75,47.6786,50.1463,138.456,100.233,97.0423,0.00295095,0.0823059,20.9875,160.244,0.290389,0.0,0.0
650,162.25,47.4723,50.0881,139.692,100.238,96.969,0.00293823,0.0821586,20.9877,160.234,0.297596,0.0,0.0
652,162.75,47.5623,50.7112,143.162,100.235,97.3271,0.00292792,0.0820134,20.9879,160.234,0.264193,0.0,0.0
654,163.25,47.4541,49.8676,140.527,100.237,96.2394,0.00291228,0.0819102,20.988,160.204,0.365277,0.0,0.0
656,163.75,47.3172,49.8048,139.068,100.222,97.0097,0.00289961,0.0818395,20.9881,160.204,0.292428,0.0,0.0
658,164.25,47.1187,50.0219,140.495,100.252,97.5569,0.00287961,0.081811,20.9882,160.184,0.24454,0.0,0.0
660,164.75,47.2248,50.2075,136.726,100.237,96.9356,0.00286342,0.0818124,20.9883,160.204,0.300619,0.0,0.0
662,165.25,47.5492,49.6802,142.564,100.225,96.7447,0.0028503,0.0818149,20.9884,160.194,0.317226,0.0,0.0
664,165.75,47.6456,50.2612,136.483,100.216,96.8598,0.00283967,0.0818715,20.9884,160.184,0.305724,0.0,0.0
666,166.25,47.2915,50.135,137.53,100.214,96.5522,0.00281648,0.0819173,20.9886,160.164,0.334135,0.0,0.0
668,166.75,47.2697,50.1548,138.366,100.212,96.9618,0.00279769,0.0819329,20.9887,160.164,0.295916,0.0,0.0
670,167.25,47.1162,50.1018,137.613,100.211,96.7866,0.00278247,0.0819262,20.9888,160.174,0.312041,0.0,0.0
672,167.75,47.3124,49.8204,135.012,100.204,97.0393,0.0027678,0.0819207,20.9888,160.174,0.287992,0.0,0.0
674,168.25,46.2286,49.0081,139.841,100.212,97.2742,0.00275592,0.0819019,20.9887,160.184,0.267088,0.0,0.0
676,168.75,46.4814,49.5234,140.121,100.195,96.7849,0.00275238,0.0818737,20.9889,160.194,0.310826,0.0,0.0
678,169.25,47.3684,50.0465,138.076,100.205,97.019,0.0027495,0.0818509,20.9892,160.204,0.289979,0.0,0.0
680,169.75,47.2315,50.0443,137.296,100.197,96.4493,0.00275101,0.0818032,20.9895,160.194,0.342148,0.0,0.0
682,170.25,47.3855,49.6469,137.988,100.202,96.2089,0.00275569,0.0817384,20.9897,160.214,0.364943,0.0,0.0
684,170.75,47.2386,49.8623,142.446,100.19,96.8501,0.0027646,0.0816859,20.9899,160.184,0.304314,0.0,0.0
686,171.25,47.466,49.6312,136.597,100.212,96.9788,0.00277643,0.0815887,20.9901,160.194,0.294386,0.0,0.0
688,171.75,47.018,49.9641,138.319,100.183,96.5628,0.00278921,0.0815101,20.9902,160.184,0.330371,0.0,0.0
690,172.25,46.0618,49.2583,135.791,100.192,96.4751,0.00280244,0.0814248,20.9908,160.154,0.339312,0.0,0.0
692,172.75,46.4644,49.2686,137.629,100.172,96.4785,0.00281444,0.0813364,20.9912,160.154,0.337192,0.0,0.0
694,173.25,46.7617,49.97,139.603,100.186,96.6106,0.00282531,0.081236,20.9915,160.174,0.32618,0.0,0.0
696,173.75,46.6936,49.7646,142.734,100.183,96.8789,0.00283411,0.0811289,20.9918,160.174,0.300999,0.0,0.0
698,174.25,46.8864,49.787,138.007,100.18,97.1002,0.00283484,0.0810062,20.9921,160.154,0.280227,0.0,0.0
700,174.75,47.0096,49.3884,141.892,100.174,96.9674,0.00282967,0.0808745,20.9918,160.164,0.292013,0.0,0.0
702,175.25,47.1676,49.5372,136.661,100.179,96.8501,0.00281781,0.0807607,20.9916,160.154,0.303268,0.0,0.0
704,175.75,46.5171,49.3445,138.614,100.164,96.545,0.00280129,0.080662,20.9914,160.144,0.33029,0.0,0.0
706,176.25,46.2685,49.2518,135.543,100.172,96.6796,0.00278791,0.0805821,20.9913,160.144,0.318474,0.0,0.0
708,176.75,46.0633,49.2733,137.59,100.171,96.7452,0.00276361,0.080531,20.9914,160.154,0.312314,0.0,0.0
710,177.25,47.0636,49.451,142.358,100.166,96.9661,0.00274393,0.0804896,20.9917,160.154,0.291373,0.0,0.0
712,177.75,46.9756,49.4297,135.957,100.153,96.8531,0.00272191,0.0804561,20.9918,160.124,0.300682,0.0,0.0
714,178.25,47.1594,48.8681,138.554,100.16,97.0757,0.00270408,0.080388,20.9918,160.144,0.280762,0.0,0.0
716,178.75,46.769,49.8412,142.504,100.144,96.619,0.00269085,0.0803329,20.9918,160.144,0.321638,0.0,0.0
718,179.25,47.22,49.8599,142.928,100.167,96.8624,0.00268014,0.080261,20.9917,160.144,0.301084,0.0,0.0
720,179.75,46.7875,49.709,140.845,100.14,97.4105,0.00268239,0.0802027,20.9917,160.154,0.248058,0.0,0.0
722,180.25,46.7444,50.0384,138.495,100.148,96.7684,0.00268422,0.0801973,20.9917,160.154,0.308061,0.0,0.0
724,180.75,46.6451,49.5049,140.73,100.128,97.0973,0.0026857,0.0801928,20.9917,160.134,0.275877,0.0,0.0
726,181.25,46.8519,49.4186,137.287,100.139,96.1569,0.00270027,0.0802029,20.9917,160.134,0.364239,0.0,0.0
728,181.75,46.4344,48.9737,136.684,100.125,97.0558,0.00271207,0.080211,20.9916,160.134,0.27946,0.0,0.0
730,182.25,46.4115,49.1547,135.532,100.125,96.4167,0.00272771,0.0802586,20.9916,160.134,0.338717,0.0,0.0
732,182.75,46.8613,49.1855,135.698,100.119,97.0465,0.00274037,0.080297,20.9916,160.134,0.279778,0.0,0.0
734,183.25,46.3967,49.075,139.431,100.142,97.0393,0.00274334,0.0803282,20.9916,160.144,0.282467,0.0,0.0
736,183.75,46.6672,48.5156,138.097,100.096,97.435,0.00274574,0.0803535,20.9916,160.114,0.241859,0.0,0.0
738,184.25,46.7494,49.2704,139.652,100.113,95.8403,0.00273918,0.0803739,20.9916,160.134,0.391488,0.0,0.0
740,184.75,46.9375,49.133,139.096,100.088,97.3542,0.002722,0.0803768,20.9916,160.134,0.248585,0.0,0.0
742,185.25,46.5243,49.0797,136.44,100.095,96.5975,0.00271133,0.0803792,20.9916,160.134,0.319237,0.0,0.0
744,185.75,46.4275,49.3188,137.152,100.084,96.6673,0.00269308,0.0803266,20.9916,160.114,0.311738,0.0,0.0
746,186.25,46.3127,49.2825,139.246,100.098,96.5805,0.00266129,0.080284,20.9918,160.124,0.321026,0.0,0.0
748,186.75,46.3227,48.914,143.087,100.084,96.9487,0.00263554,0.0801813,20.9922,160.124,0.285681,0.0,0.0
750,187.25,46.3907,49.0218,137.842,100.067,97.1705,0.00261469,0.0800981,20.9926,160.114,0.263583,0.0,0.0
752,187.75,46.8752,49.1358,137.571,100.077,96.8103,0.0025978,0.0799883,20.9928,160.104,0.297852,0.0,0.0
754,188.25,45.6923,49.0803,139.779,100.066,96.1501,0.00258411,0.0799567,20.993,160.104,0.358294,0.0,0.0
756,188.75,46.5418,48.6994,135.251,100.046,96.6419,0.00253662,0.079881,20.9932,160.094,0.310697,0.0,0.0
758,189.25,46.6735,49.0364,138.259,100.055,97.4295,0.00249815,0.0798003,20.9932,160.094,0.238642,0.0,0.0
760,189.75,46.105,49.1181,137.471,100.042,96.9906,0.00245365,0.079735,20.9932,160.104,0.27797,0.0,0.0
762,190.25,46.3897,49.2395,139.251,100.052,97.2014,0.00241761,0.0796275,20.9932,160.094,0.259465,0.0,0.0
764,190.75,46.6379,48.7925,135.886,100.03,96.2889,0.00238522,0.0795404,20.9932,160.094,0.342128,0.0,0.0
766,191.25,46.766,48.8997,138.755,100.035,96.9221,0.00235612,0.0794699,20.9932,160.094,0.283703,0.0,0.0
768,191.75,46.4145,48.6523,134.575,100.028,96.1184,0.00233126,0.0794128,20.9932,160.094,0.35786,0.0,0.0
770,192.25,46.007,48.7912,138.474,100.026,96.4002,0.00230999,0.0792984,20.9932,160.094,0.331362,0.0,0.0
772,192.75,46.4968,49.3598,137.561,100.02,96.7617,0.00229211,0.0792057,20.9932,160.084,0.297267,0.0,0.0
774,193.25,46.7787,48.9064,136.961,100.022,97.7545,0.00227706,0.0790625,20.9932,160.094,0.205786,0.0,0.0
776,193.75,46.822,48.756,140.422,100.005,96.8323,0.00226806,0.0789465,20.9932,160.094,0.289375,0.0,0.0
778,194.25,46.6742,49.0195,137.324,100.01,96.5086,0.00226364,0.0788239,20.9932,160.084,0.319869,0.0,0.0
780,194.75,46.0622,48.3951,140.885,99.9992,97.2822,0.00226006,0.0786987,20.9937,160.064,0.247231,0.0,0.0
782,195.25,46.1687,48.7737,141.63,100.005,96.6258,0.00227184,0.0785472,20.994,160.084,0.308539,0.0,0.0
784,195.75,46.0818,49.3107,138.58,99.9916,96.8789,0.0022946,0.0783792,20.9943,160.084,0.283831,0.0,0.0
786,196.25,46.0759,48.7121,144.548,99.9944,97.1379,0.00232901,0.0782217,20.9946,160.084,0.260121,0.0,0.0
788,196.75,46.487,48.7201,140.505,99.9823,97.0397,0.00237125,0.0780747,20.9948,160.074,0.268113,0.0,0.0
790,197.25,46.4305,48.6786,136.443,99.9851,96.8759,0.00240547,0.0779556,20.9949,160.074,0.283527,0.0,0.0
792,197.75,46.2267,49.0724,141.933,99.9718,96.9284,0.00245748,0.0778047,20.995,160.064,0.277472,0.0,0.0
794,198.25,46.4035,48.3854,141.986,99.9762,96.9826,0.00247966,0.0776825,20.9951,160.054,0.272856,0.0,0.0
796,198.75,46.3431,48.5765,140.158,99.9787,97.3317,0.00252968,0.0775763,20.9952,160.054,0.240817,0.0,0.0
798,199.25,46.6327,48.7474,138.329,99.9625,96.9961,0.0025811,0.0774839,20.9954,160.054,0.270372,0.0,0.0
800,199.75,46.1353,48.9488,136.866,99.9625,96.7202,0.00262787,0.077409,20.9956,160.034,0.295942,0.0,0.0
802,200.25,46.1677,48.8657,138.064,99.9529,97.2573,0.00267036,0.0773619,20.9958,160.024,0.245374,0.0,0.0
804,200.75,46.3394,48.4545,138.261,99.9641,97.0706,0.00270478,0.0773238,20.9959,160.034,0.263628,0.0,0.0
806,201.25,46.2124,48.5096,139.538,99.9488,96.5983,0.00271442,0.0773076,20.996,160.034,0.30603,0.0,0.0
808,201.75,45.9871,48.6145,136.926,99.9488,97.355,0.00272223,0.0773079,20.9961,160.024,0.235993,0.0,0.0
810,202.25,46.3573,48.5226,140.479,99.9375,96.4057,0.00270553,0.0773081,20.9961,159.994,0.322926,0.0,0.0
812,202.75,45.9775,48.7454,140.177,99.9347,97.3897,0.00267129,0.0772674,20.9962,159.994,0.23153,0.0,0.0
814,203.25,45.6088,48.0511,139.394,99.9392,97.0008,0.00264355,0.0772345,20.9962,159.994,0.267843,0.0,0.0
816,203.75,44.9817,47.9088,137.551,99.9319,96.4244,0.0025956,0.0772078,20.9963,159.984,0.320686,0.0,0.0
818,204.25,46.2075,48.1912,140.075,99.9194,97.2649,0.00255675,0.0771862,20.9963,159.974,0.241666,0.0,0.0
820,204.75,46.0902,48.42,137.718,99.923,96.8404,0.00251437,0.0771687,20.9963,159.984,0.281249,0.0,0.0
822,205.25,46.2049,48.4295,141.471,99.919,96.8488,0.00248004,0.0771545,20.9963,159.994,0.280102,0.0,0.0
824,205.75,46.4648,48.5724,137.831,99.9198,96.7722,0.00245344,0.077143,20.9964,159.984,0.287276,0.0,0.0
826,206.25,46.3069,48.4265,141.855,99.9158,96.7126,0.0024319,0.0771473,20.9964,159.994,0.292451,0.0,0.0
828,206.75,46.2689,48.2287,138.344,99.9081,96.36,0.00241081,0.0771508,20.9964,159.974,0.32454,0.0,0.0
830,207.25,45.5922,47.9975,138.648,99.8993,97.1104,0.00239054,0.07714,20.9964,159.974,0.254122,0.0,0.0
832,207.75,45.7863,47.962,141.072,99.9025,96.6766,0.00237125,0.0771313,20.9966,159.984,0.294595,0.0,0.0
834,208.25,46.2507,48.2682,135.212,99.8843,96.906,0.00235562,0.0771106,20.997,159.964,0.271695,0.0,0.0
836,208.75,46.0821,48.2123,139.127,99.8924,97.2107,0.00234296,0.0770938,20.9973,159.964,0.244241,0.0,0.0
838,209.25,46.1523,48.5885,135.504,99.8936,96.2377,0.00232552,0.0770666,20.9976,159.964,0.334636,0.0,0.0
840,209.75,45.9897,49.015,139.754,99.8876,97.14,0.0023114,0.0770446,20.9978,159.964,0.250335,0.0,0.0
842,210.25,45.7867,48.9039,140.776,99.8682,96.6326,0.00229147,0.0769995,20.998,159.954,0.295604,0.0,0.0
844,210.75,46.197,48.1688,138.257,99.8823,96.2521,0.00227533,0.076963,20.9981,159.984,0.332279,0.0,0.0
846,211.25,45.7601,47.6872,136.469,99.8727,96.7418,0.00226225,0.076933,20.998,159.974,0.285867,0.0,0.0
848,211.75,45.6271,47.6981,136.755,99.8706,97.0634,0.00224209,0.0769083,20.998,159.984,0.255893,0.0,0.0
850,212.25,46.1021,48.8151,141.377,99.859,96.8645,0.00221716,0.0768883,20.9981,159.984,0.273256,0.0,0.0
852,212.75,46.102,48.6906,138.464,99.8743,96.7803,0.00219695,0.0768176,20.9982,159.964,0.282439,0.0,0.0
854,213.25,46.3152,48.4245,141.861,99.8489,97.2162,0.00217453,0.0767604,20.998,159.944,0.239822,0.0,0.0
856,213.75,46.1046,48.5071,139.974,99.8513,96.7426,0.00215637,0.076714,20.9977,159.934,0.283867,0.0,0.0
858,214.25,45.86,48.4226,140.299,99.838,96.0299,0.00213924,0.0766765,20.9974,159.944,0.349039,0.0,0.0
860,214.75,46.1039,48.6127,139.568,99.8368,96.4963,0.00212855,0.0766461,20.9972,159.964,0.305445,0.0,0.0
862,215.25,45.4239,47.7762,138.062,99.8199,96.9352,0.00212276,0.0766214,20.997,159.924,0.263194,0.0,0.0
864,215.75,45.2414,47.4325,145.264,99.8307,96.6762,0.00211807,0.0765878,20.9968,159.934,0.288187,0.0,0.0
866,216.25,46.0159,48.5678,138.645,99.8166,96.5225,0.0021181,0.0765606,20.9967,159.924,0.301192,0.0,0.0
868,216.75,45.9164,48.3308,135.046,99.8348,96.437,0.00212157,0.0765114,20.9966,159.914,0.310776,0.0,0.0
870,217.25,45.9765,48.3553,137.596,99.8106,96.2373,0.00211991,0.0764715,20.9965,159.904,0.327214,0.0,0.0
872,217.75,45.6842,48.5517,138.435,99.8243,96.9957,0.00211455,0.0764528,20.9965,159.904,0.257992,0.0,0.0
874,218.25,46.4033,48.363,141.533,99.8086,96.6186,0.00211021,0.0764376,20.9964,159.914,0.291539,0.0,0.0
876,218.75,45.5905,48.4065,140.498,99.8175,96.5886,0.00208611,0.0764325,20.9964,159.894,0.295128,0.0,0.0
878,219.25,46.0332,48.1398,138.031,99.8021,96.7227,0.00206658,0.0764348,20.9964,159.894,0.281293,0.0,0.0
880,219.75,45.409,48.0937,139.151,99.8078,96.0845,0.00203019,0.0764367,20.9963,159.904,0.34122,0.0,0.0
882,220.25,45.941,48.3363,142.839,99.7965,96.9047,0.00200071,0.0764655,20.9963,159.894,0.263914,0.0,0.0
884,220.75,45.3626,48.5237,137.277,99.805,96.4578,0.00196594,0.0764887,20.9963,159.904,0.306165,0.0,0.0
886,221.25,46.089,48.4204,138.664,99.7937,95.9093,0.00192514,0.076494,20.9963,159.894,0.356332,0.0,0.0
888,221.75,45.9064,48.2186,140.487,99.8013,95.8035,0.00191376,0.0764982,20.9965,159.894,0.366929,0.0,0.0
890,222.25,45.9646,48.2622,137.713,99.7836,96.4328,0.0018943,0.0764745,20.9969,159.894,0.306568,0.0,0.0
892,222.75,46.3031,48.2229,142.53,99.7816,96.942,0.00187854,0.0764552,20.9972,159.884,0.259125,0.0,0.0
894,223.25,45.9204,48.2285,135.572,99.7767,95.9118,0.00187062,0.0763987,20.9974,159.884,0.354573,0.0,0.0
896,223.75,45.3979,47.952,136.031,99.7715,96.6444,0.0018642,0.076353,20.9977,159.854,0.285807,0.0,0.0
898,224.25,45.701,48.5583,140.106,99.7663,96.8019,0.00187231,0.0763196,20.9978,159.854,0.270726,0.0,0.0
900,224.75,45.5121,47.5115,138.367,99.7707,96.6631,0.00187888,0.0763106,20.998,159.874,0.284004,0.0,0.0
902,225.25,46.1709,48.415,140.063,99.7538,96.2762,0.00189873,0.0762881,20.9981,159.874,0.31847,0.0,0.0
904,225.75,46.128,48.4875,142.315,99.7618,96.2132,0.0019148,0.0762634,20.9981,159.884,0.325077,0.0,0.0
906,226.25,45.4361,47.8278,134.698,99.7445,97.2128,0.00194115,0.0762434,20.9982,159.894,0.230746,0.0,0.0
908,226.75,45.6274,47.8752,137.316,99.7538,95.955,0.00196248,0.0762136,20.9983,159.874,0.348467,0.0,0.0
910,227.25,45.6406,48.2405,137.246,99.7518,96.6512,0.0019834,0.0761894,20.9983,159.854,0.283401,0.0,0.0
912,227.75,45.8017,47.959,134.698,99.7457,97.289,0.00200035,0.0761412,20.9984,159.864,0.223824,0.0,0.0
914,228.25,45.8409,48.0914,140.944,99.7594,96.7049,0.00200801,0.0760763,20.9982,159.844,0.279101,0.0,0.0
916,228.75,45.6223,48.067,137.641,99.7376,96.3727,0.00201422,0.0760238,20.9978,159.834,0.30803,0.0,0.0
918,229.25,45.6546,47.5192,137.973,99.736,96.5903,0.00201926,0.0759813,20.9975,159.834,0.287648,0.0,0.0
920,229.75,44.993,48.2023,137.206,99.7372,96.2373,0.00199185,0.0759876,20.9973,159.814,0.320615,0.0,0.0
922,230.25,45.7579,47.6327,138.103,99.7223,96.5628,0.00196966,0.0759928,20.9971,159.844,0.288971,0.0,0.0
924,230.75,45.7812,47.9327,138.035,99.7284,97.471,0.00193111,0.075997,20.9971,159.834,0.205492,0.0,0.0
926,231.25,45.4758,47.5581,136.6,99.7223,96.5547,0.00189989,0.0760003,20.9974,159.834,0.289718,0.0,0.0
928,231.75,45.649,48.03,139.734,99.7155,97.1375,,0.0759744,,159.844,0.235093,0.0,0.0
930,232.25,45.7074,47.7021,138.777,99.7054,97.7516,,0.0759277,,159.854,0.177623,0.0,0.0
932,232.75,46.053,48.3091,135.179,99.7022,96.5848,,0.0758898,,159.844,0.285112,0.0,0.0
934,233.25,45.3531,47.5288,140.713,99.7119,96.5471,,0.0758304,,159.834,0.289483,0.0,0.0
936,233.75,45.2291,47.2659,142.716,99.7054,96.4574,,0.0757566,,159.814,0.297247,0.0,0.0
938,234.25,45.4978,47.8392,139.257,99.7143,96.2216,,0.0756681,,159.804,0.320007,0.0,0.0
940,234.75,45.8289,48.2836,141.646,99.7034,96.7786,,,,159.824,0.267227,0.0,0.0
942,235.25,45.5197,47.9246,137.208,99.705,96.7993,,,,159.824,0.265449,0.0,0.0
944,235.75,45.7948,47.7599,140.418,99.703,96.1226,,,,159.794,0.328234,0.0,0.0
946,236.25,45.6765,47.9183,136.568,99.7058,98.3716,,,,159.774,0.120912,0.0,0.0
948,236.75,45.5474,48.0025,140.286,99.6901,97.0249,,,,159.774,0.243215,0.0,0.0
950,237.25,45.2613,47.8264,139.66,99.6941,97.1324,,,,159.784,0.233639,0.0,0.0
952,237.75,45.7615,48.0491,140.332,99.6844,96.9064,,,,159.804,0.253676,0.0,0.0
954,238.25,45.926,47.6423,138.938,99.6965,96.7367,,,,159.824,0.270497,0.0,0.0
956,238.75,45.6157,47.6254,138.119,99.6905,96.3702,,,,159.804,0.304023,0.0,0.0
958,239.25,45.4341,47.8198,141.406,99.6869,96.3435,,,,159.794,0.306178,0.0,0.0
960,239.75,45.4508,47.9727,138.551,99.6861,96.7485,,,,159.804,0.268454,0.0,0.0
962,240.25,44.4194,47.6539,143.164,99.6889,97.2374,,,,159.784,0.223475,0.0,0.0
964,240.75,44.7481,47.0984,138.28,99.6808,96.5293,,,,159.784,0.288343,0.0,0.0
966,241.25,45.8882,47.4387,143.763,99.6707,96.5746,,,,159.804,0.283226,0.0,0.0
968,241.75,45.9319,47.7679,136.964,99.6631,96.641,,,,159.804,0.276363,0.0,0.0
970,242.25,45.532,48.1351,140.851,99.6695,96.1146,,,,159.794,0.325973,0.0,0.0
971,242.5,45.3563,47.7006,138.748,99.6558,96.8383,,,,159.794,0.257412,0.0,0.0