File: 01_Data/Roof_Felt/Cone/Roof_Felt_Underlayment_Cone_HF75Scan_220328_R1.csv
Names,Time,Stack TC,Smoke TC,Exh Press,Smoke Comp,Smoke Meas,CO Meter,CO2 Meter,O2 Meter,Sample Mass,Ext Coeff,Start Test,Flame Verif
Chan Gain,,500,500,1,1,1,1,1,1,1,1,1.0,1.0
Offset,,0,0,0.138301,0,0,0,0,0,0,0,0.0,0.0
Gain,,1,1,25.011,13.2062,13.8682,1,1,1,1.0009,1.02317,1.0,1.0
Units,sec,C,C,Pa,%,%,%,%,%,g,/m,,
Baseline,,39.1067,41.0588,142.236,98.7116,95.59,0.000941608,0.0660766,21.0107,-835.394,0.288476,,
2,0.25,38.7535,40.467,140.137,99.6998,97.1713,0.000759942,0.0700463,21.0043,192.403,0.230551,0.0,0.0
4,0.75,38.5783,40.8637,142.004,99.705,97.4892,0.000752329,0.0700791,21.004,192.153,0.201712,0.0,0.0
6,1.25,38.5422,40.2169,141.825,99.6744,96.3147,0.000746162,0.0701056,21.0038,192.233,0.307735,0.0,0.0
8,1.75,38.5289,39.9726,140.367,99.6752,96.6182,0.000779677,0.0700728,21.0028,192.243,0.279574,0.0,0.0
10,2.25,38.5852,40.4685,138.54,99.6566,95.9999,0.000806824,0.0700462,21.0013,192.113,0.335528,0.0,0.0
12,2.75,38.4077,40.58,144.787,99.6514,96.3486,0.000953045,0.0701605,20.9997,192.233,0.302512,0.0,0.0
14,3.25,38.0279,39.3199,138.735,99.6175,96.3037,0.00107148,0.070253,20.9979,192.093,0.303642,0.0,0.0
16,3.75,38.2535,39.6868,139.433,99.6292,95.398,0.00142812,0.0718623,20.9928,192.153,0.389503,0.0,0.0
18,4.25,38.3353,40.6876,142.319,99.6038,95.0696,0.00171699,0.0745468,20.9853,192.193,0.418166,0.0,0.0
20,4.75,38.6244,40.6773,143.876,99.6067,95.3227,0.00195097,0.0767211,20.9793,192.033,0.394559,0.0,0.0
22,5.25,38.2613,40.0522,138.464,99.5724,92.4765,0.00282578,0.0924778,20.9481,192.163,0.66354,0.0,0.0
24,5.75,37.8866,40.6248,132.463,99.574,84.9986,0.00353437,0.105241,20.9228,191.933,1.42048,0.0,1.0
26,6.25,38.7164,40.8747,128.516,99.5482,76.8486,0.00496807,0.136805,20.8812,191.933,2.32283,0.0,1.0
28,6.75,38.5606,40.5272,132.694,99.5341,68.1551,0.00612936,0.162372,20.8283,191.923,3.39904,0.0,1.0
30,7.25,38.3228,40.928,119.662,99.5156,63.4226,0.00828191,0.202077,20.7593,191.743,4.04327,0.0,1.0
32,7.75,38.5807,40.6317,121.054,99.512,61.0522,0.00919957,0.251335,20.7174,191.663,4.38483,0.0,1.0
34,8.25,39.7261,41.0125,113.766,99.4825,53.9238,0.0114324,0.291233,20.6042,191.523,5.49651,0.0,1.0
36,8.75,39.7275,41.8424,111.82,99.4817,52.9576,0.0138384,0.367626,20.4753,191.452,5.65871,0.0,1.0
38,9.25,40.1529,42.1059,102.111,99.458,47.5132,0.0173456,0.429504,20.3708,191.232,6.63022,0.0,1.0
40,9.75,40.433,42.4197,101.175,99.4527,43.7254,0.0201865,0.523686,20.2514,191.192,7.37541,0.0,1.0
42,10.25,42.1101,43.5884,101.366,99.4241,45.5698,0.0224877,0.599974,20.1233,191.012,7.002,0.0,1.0
44,10.75,42.1735,44.0556,93.4166,99.4039,44.8668,0.0263196,0.655999,20.0196,190.902,7.13971,0.0,1.0
46,11.25,42.6963,45.4409,96.7865,99.3943,45.2566,0.0311948,0.751802,19.8719,190.712,7.06121,0.0,1.0
48,11.75,43.8593,46.0772,102.37,99.3802,43.9818,0.0351437,0.860317,19.7523,190.522,7.31637,0.0,1.0
50,12.25,45.463,46.9339,96.9712,99.3467,43.6953,0.0402056,0.976039,19.6555,190.382,7.372,0.0,1.0
52,12.75,46.6872,48.8107,101.906,99.362,36.7938,0.0459828,1.06977,19.4836,190.001,8.91633,0.0,1.0
54,13.25,47.6927,49.7358,83.1864,99.3258,36.9453,0.0515754,1.2078,19.3444,189.821,8.87617,0.0,0.0
56,13.75,48.9442,51.2159,88.7377,99.3221,34.5689,0.0569272,1.37548,19.1057,189.541,9.47255,0.0,0.0
58,14.25,50.5458,53.0889,75.527,99.2899,34.0831,0.0616632,1.51131,18.9124,189.271,9.59667,0.0,0.0
60,14.75,52.1422,55.1427,72.4594,99.2842,33.6717,0.0658603,1.67635,18.7431,189.07,9.70515,0.0,0.0
62,15.25,54.4926,57.6083,87.8126,99.2621,36.5653,0.069202,1.81003,18.6059,188.84,8.96322,0.0,0.0
64,15.75,56.3958,59.9222,77.7321,99.2383,35.9423,0.0718566,1.91831,18.4948,188.59,9.1153,0.0,0.0
66,16.25,59.2892,62.988,86.1258,99.2133,34.4174,0.0734665,1.99557,18.4049,188.42,9.50213,0.0,0.0
68,16.75,61.2085,65.3937,86.0044,99.2246,30.247,0.0742841,2.04062,18.332,188.22,10.6625,0.0,0.0
70,17.25,62.5435,67.5828,92.7396,99.2206,30.0751,0.0740701,2.06134,18.2729,188.119,10.7132,0.0,0.0
72,17.75,65.3257,70.5073,96.5865,99.2238,30.3413,0.0731082,2.05354,18.2971,187.899,10.6344,0.0,0.0
74,18.25,67.13,72.8354,94.692,99.2218,30.3189,0.0723291,2.0251,18.3166,187.789,10.6409,0.0,0.0
76,18.75,68.5626,74.6897,98.8824,99.2242,34.3979,0.0701874,1.96948,18.38,187.659,9.5082,0.0,0.0
78,19.25,70.1604,76.7579,108.967,99.2335,33.5392,0.0670931,1.89511,18.4741,187.579,9.73594,0.0,0.0
80,19.75,71.4597,78.091,112.985,99.221,42.4146,0.0635204,1.801,18.5504,187.519,7.62763,0.0,0.0
82,20.25,72.5268,79.7114,115.397,99.2278,52.2597,0.0596669,1.69429,18.706,187.469,5.75484,0.0,0.0
84,20.75,72.8353,80.8534,121.939,99.2339,62.1627,0.0555523,1.60786,18.8321,187.439,4.19792,0.0,0.0
86,21.25,73.5535,82.0183,123.22,99.2278,69.7862,0.0513255,1.47896,19.0048,187.389,3.15911,0.0,0.0
88,21.75,74.4311,82.311,123.113,99.2278,71.1778,0.0470716,1.37455,19.1447,187.349,2.9819,0.0,0.0
90,22.25,74.7227,82.6514,127.983,99.2383,72.4834,0.0428788,1.26799,19.3252,187.359,2.8197,0.0,0.0
92,22.75,74.7184,83.4925,125.646,99.2383,71.8054,0.0394825,1.16189,19.4713,187.299,2.90405,0.0,0.0
94,23.25,74.9068,83.6678,125.631,99.2472,74.5437,0.0356626,1.06295,19.608,187.259,2.56895,0.0,0.0
96,23.75,74.9182,83.5502,126.206,99.2391,73.2706,0.0325685,0.971123,19.735,187.259,2.72283,0.0,0.0
98,24.25,74.6219,83.4267,127.58,99.2375,75.3588,0.0293828,0.896743,19.8528,187.229,2.47047,0.0,0.0
100,24.75,74.9277,83.3512,130.583,99.2367,74.6643,0.0268024,0.81751,19.9614,187.179,2.5535,0.0,0.0
102,25.25,74.7352,83.3992,128.196,99.2431,75.6944,0.0247122,0.753331,20.0494,187.149,2.4311,0.0,0.0
104,25.75,74.5332,83.6565,127.924,99.2343,77.5312,0.0222847,0.687536,20.1299,187.129,2.2151,0.0,0.0
106,26.25,74.3701,82.8885,132.147,99.2697,81.0461,0.0203183,0.634242,20.2034,187.109,1.82037,0.0,0.0
108,26.75,74.4997,82.9228,128.897,99.2552,79.1221,0.0183319,0.582898,20.2706,187.069,2.0347,0.0,0.0
110,27.25,74.2325,82.7873,133.826,99.2577,81.9289,0.0167228,0.541308,20.3319,187.089,1.72204,0.0,0.0
112,27.75,73.926,82.46,135.334,99.2585,82.2269,0.0151121,0.507621,20.3866,187.069,1.68954,0.0,0.0
114,28.25,73.8265,82.4161,138.18,99.2625,84.2918,0.0138074,0.47328,20.4355,187.079,1.4673,0.0,0.0
116,28.75,73.1197,81.7236,132.376,99.2693,84.1555,0.0126279,0.445463,20.4751,187.049,1.48244,0.0,0.0
118,29.25,73.338,81.6969,133.901,99.2758,84.274,0.0115622,0.420028,20.5164,187.028,1.47039,0.0,0.0
120,29.75,72.9438,81.1206,134.342,99.2714,85.1488,0.0106083,0.396812,20.5498,187.008,1.3773,0.0,0.0
122,30.25,73.094,81.3339,131.092,99.281,84.5466,0.00975404,0.376318,20.583,186.988,1.44188,0.0,0.0
124,30.75,72.8284,80.9051,135.607,99.2697,86.1019,0.00900878,0.358197,20.6099,186.958,1.27725,0.0,0.0
126,31.25,72.6433,80.7201,134.433,99.275,87.0085,0.00835716,0.341858,20.6366,186.968,1.18372,0.0,0.0
128,31.75,72.4154,80.4523,131.933,99.2774,87.5328,0.00782934,0.327127,20.6581,186.938,1.13001,0.0,0.0
130,32.25,72.0136,79.9784,138.591,99.2859,87.8198,0.00734279,0.313827,20.6756,186.918,1.1014,0.0,0.0
132,32.75,72.1471,80.0915,133.856,99.2891,88.6311,0.00689556,0.301824,20.6898,186.928,1.01916,0.0,0.0
134,33.25,71.561,79.5066,138.08,99.3016,89.5897,0.0065333,0.291029,20.7056,186.948,0.923736,0.0,0.0
136,33.75,71.6693,79.5416,134.685,99.3016,89.5355,0.00623987,0.28132,20.7184,186.938,0.929165,0.0,0.0
138,34.25,70.8447,78.5701,132.72,99.3088,90.3354,0.00592358,0.273456,20.7275,186.898,0.849994,0.0,0.0
140,34.75,70.7852,78.4813,132.006,99.3084,89.6938,0.00566738,0.2653,20.7335,186.908,0.913932,0.0,0.0
142,35.25,70.8047,78.8249,137.88,99.3213,89.9638,0.00545018,0.258694,20.7384,186.928,0.888118,0.0,0.0
144,35.75,70.6952,78.3678,134.323,99.3129,90.848,0.00526553,0.253342,20.745,186.888,0.799582,0.0,0.0
146,36.25,70.4511,77.7936,135.553,99.3278,90.8048,0.00511273,0.249008,20.7504,186.898,0.805194,0.0,0.0
148,36.75,70.3413,77.7146,136.283,99.3149,91.7735,0.00498606,0.243882,20.7591,186.878,0.708784,0.0,0.0
150,37.25,69.8444,77.2851,136.736,99.3286,92.0148,0.00488153,0.238276,20.7661,186.848,0.68646,0.0,0.0
152,37.75,70.0742,77.2128,132.054,99.3318,93.08,0.00479511,0.233025,20.7758,186.828,0.583443,0.0,0.0
154,38.25,69.7745,76.8736,138.97,99.3507,92.7812,0.00472705,0.228134,20.7836,186.828,0.614011,0.0,0.0
156,38.75,69.4111,76.7111,135.45,99.3326,93.2417,0.00467366,0.223542,20.7909,186.808,0.567939,0.0,0.0
158,39.25,69.0819,76.4069,134.892,99.3443,93.7487,0.00463041,0.219256,20.7976,186.768,0.520324,0.0,0.0
160,39.75,68.7902,76.0244,135.21,99.3552,93.9599,0.00460701,0.215203,20.803,186.768,0.50111,0.0,0.0
162,40.25,68.4598,75.5282,137.137,99.358,93.7077,0.0045985,0.211396,20.8096,186.778,0.525493,0.0,0.0
164,40.75,68.4018,75.5188,139.265,99.3516,94.3184,0.00460777,0.208313,20.8149,186.778,0.466607,0.0,0.0
166,41.25,67.7138,75.0859,135.401,99.3737,93.6023,0.00462981,0.204729,20.8206,186.758,0.537011,0.0,0.0
168,41.75,67.8045,75.0374,137.445,99.3544,93.8232,0.00464766,0.201827,20.8252,186.748,0.514105,0.0,0.0
170,42.25,67.8966,74.832,137.334,99.3709,94.7116,0.00469775,0.198989,20.8293,186.738,0.431017,0.0,0.0
172,42.75,67.7101,74.6866,136.723,99.3624,94.5364,0.00473833,0.196253,20.8331,186.708,0.446872,0.0,0.0
174,43.25,67.5064,74.7088,137.638,99.3794,95.0091,0.00478479,0.194036,20.8366,186.688,0.403632,0.0,0.0
176,43.75,66.9297,73.8303,133.219,99.3713,94.0484,0.00482243,0.19155,20.8399,186.668,0.494122,0.0,0.0
178,44.25,67.198,73.6996,133.502,99.3902,94.3802,0.00484516,0.189536,20.8425,186.668,0.464223,0.0,0.0
180,44.75,66.5549,73.3633,141.125,99.3951,94.8508,0.00485658,0.18743,20.8458,186.668,0.420017,0.0,0.0
182,45.25,66.0852,73.6521,140.759,99.3866,94.9393,0.00485677,0.185724,20.8485,186.668,0.410886,0.0,0.0
184,45.75,66.574,73.5642,138.381,99.3798,95.5254,0.00484878,0.183982,20.8511,186.668,0.355024,0.0,0.0
186,46.25,65.9051,72.9575,136.328,99.4052,95.5529,0.00484231,0.182572,20.8532,186.648,0.354733,0.0,0.0
188,46.75,65.6093,72.5417,136.779,99.3882,96.0456,0.00483642,0.181293,20.8549,186.638,0.307049,0.0,0.0
190,47.25,65.9176,72.2764,136.689,99.4031,96.1222,0.00483106,0.180135,20.8568,186.628,0.301242,0.0,0.0
192,47.75,65.4573,71.8766,135.095,99.3947,96.3867,0.00483643,0.179107,20.8582,186.618,0.275812,0.0,0.0
194,48.25,65.2981,71.8862,135.783,99.4233,96.1273,0.00484951,0.178192,20.8594,186.598,0.302586,0.0,0.0
196,48.75,65.1922,72.1704,135.133,99.4136,95.3409,0.00487434,0.177451,20.8604,186.588,0.375435,0.0,0.0
198,49.25,65.0736,71.4507,140.044,99.4362,95.4653,0.00490726,0.176579,20.8616,186.598,0.365766,0.0,0.0
200,49.75,64.349,71.0583,136.358,99.4148,96.1484,0.00494299,0.175873,20.8626,186.598,0.299846,0.0,0.0
202,50.25,64.4368,71.2149,131.238,99.431,95.4797,0.0049801,0.175097,20.8643,186.588,0.36394,0.0,0.0
204,50.75,63.7974,70.4486,134.613,99.4245,96.0481,0.00501015,0.174286,20.8656,186.588,0.310088,0.0,0.0
206,51.25,64.008,70.4344,135.185,99.4414,96.1217,0.00503819,0.173486,20.8676,186.548,0.304737,0.0,0.0
208,51.75,64.1456,70.4869,136.444,99.4338,96.3943,0.0050609,0.172709,20.8692,186.548,0.278632,0.0,0.0
210,52.25,63.7299,70.544,136.441,99.4438,95.5843,0.00505837,0.171915,20.8708,186.538,0.355284,0.0,0.0
212,52.75,63.2157,69.9922,135.758,99.4447,96.5111,0.00505633,0.171123,20.8722,186.518,0.268745,0.0,0.0
214,53.25,63.4855,69.9948,140.063,99.4495,96.0024,0.00505468,0.170481,20.8734,186.518,0.316616,0.0,0.0
216,53.75,63.1304,69.536,137.799,99.4539,95.6012,0.00501154,0.169533,20.8745,186.508,0.354604,0.0,0.0
218,54.25,63.3079,69.2719,135.095,99.46,95.9715,0.0049766,0.168766,20.8757,186.508,0.32045,0.0,0.0
220,54.75,63.6989,69.8898,139.444,99.4576,95.8737,0.00494183,0.167759,20.8766,186.488,0.329379,0.0,0.0
222,55.25,62.8964,69.2686,136.681,99.4704,97.3423,0.00490785,0.166944,20.8783,186.448,0.194104,0.0,0.0
224,55.75,62.1331,69.2411,134.487,99.4656,95.9127,0.00488938,0.166089,20.8796,186.438,0.326462,0.0,0.0
226,56.25,62.4367,68.6938,140.834,99.4785,95.958,0.00488256,0.165221,20.8807,186.438,0.323389,0.0,0.0
228,56.75,62.1545,68.9502,140.25,99.4741,96.3342,0.00487704,0.164518,20.8816,186.428,0.287867,0.0,0.0
230,57.25,62.0124,68.49,134.675,99.4866,96.305,0.00487257,0.163784,20.8823,186.458,0.291714,0.0,0.0
232,57.75,62.0523,68.4948,135.332,99.4809,96.0837,0.00490091,0.163041,20.8828,186.448,0.311859,0.0,0.0
234,58.25,61.6162,67.8214,135.322,99.4898,96.2462,0.00492905,0.16244,20.8833,186.438,0.29749,0.0,0.0
236,58.75,61.1674,67.2883,134.111,99.4979,96.2906,0.0049565,0.161782,20.8841,186.428,0.294074,0.0,0.0
238,59.25,61.2736,67.6629,136.931,99.4987,96.3825,0.0049865,0.161249,20.8847,186.408,0.28559,0.0,0.0
240,59.75,61.0984,67.4909,134.807,99.5103,95.7882,0.0050178,0.160818,20.8857,186.388,0.342149,0.0,0.0
242,60.25,61.0444,67.5646,133.939,99.5007,96.6042,0.00504315,0.160241,20.8865,186.408,0.265144,0.0,0.0
244,60.75,60.8238,67.004,137.744,99.5055,95.9436,0.00508118,0.159774,20.8871,186.378,0.327171,0.0,0.0
246,61.25,60.7944,66.9861,135.646,99.5107,96.1459,0.00512773,0.159296,20.8881,186.378,0.308739,0.0,0.0
248,61.75,60.995,67.0063,139.817,99.5257,95.955,0.00517516,0.158909,20.8888,186.368,0.327919,0.0,0.0
250,62.25,60.0132,66.7272,140.411,99.5136,96.8933,0.00522234,0.158497,20.8895,186.348,0.239492,0.0,0.0
252,62.75,60.1386,66.1215,138.741,99.5107,96.2022,0.00526769,0.158162,20.89,186.368,0.303486,0.0,0.0
254,63.25,60.2996,66.184,138.925,99.5204,96.1835,0.00531084,0.157722,20.8904,186.358,0.306096,0.0,0.0
256,63.75,60.2948,65.7438,136.163,99.5325,96.3389,0.00534579,0.157364,20.8907,186.368,0.292704,0.0,0.0
258,64.25,59.9019,65.8003,137.446,99.5333,96.7528,0.0053815,0.156956,20.8912,186.348,0.254298,0.0,0.0
260,64.75,60.0334,66.0007,137.899,99.5369,96.5437,0.00541043,0.156517,20.8918,186.328,0.274041,0.0,0.0
262,65.25,59.4601,65.4987,138.435,99.5297,96.0282,0.00543576,0.156162,20.8923,186.328,0.321438,0.0,0.0
264,65.75,59.3283,65.1192,141.509,99.5313,96.3566,0.005458,0.155634,20.8929,186.298,0.29094,0.0,0.0
266,66.25,58.7938,64.8129,141.685,99.5345,96.25,0.00547406,0.155206,20.8933,186.298,0.301171,0.0,0.0
268,66.75,58.974,64.9473,138.666,99.541,96.6118,0.00548532,0.154633,20.8941,186.298,0.268072,0.0,0.0
270,67.25,59.5181,65.165,140.603,99.5317,95.9825,0.00549444,0.154169,20.8948,186.308,0.325893,0.0,0.0
272,67.75,59.0029,65.1126,141.696,99.5434,96.677,0.00549469,0.153624,20.8955,186.288,0.262237,0.0,0.0
274,68.25,58.5985,64.1589,137.557,99.539,96.3075,0.00548847,0.153183,20.8964,186.268,0.296204,0.0,0.0
276,68.75,58.953,64.5684,136.11,99.5478,96.6897,0.00548149,0.152729,20.897,186.268,0.261458,0.0,0.0
278,69.25,58.952,64.5383,136.252,99.5422,96.4201,0.00547408,0.152274,20.898,186.248,0.286009,0.0,0.0
280,69.75,57.9084,64.113,138.248,99.5559,96.1361,0.00547716,0.151906,20.8988,186.248,0.313718,0.0,0.0
282,70.25,58.2471,63.9566,133.843,99.551,96.3854,0.00548783,0.151339,20.8999,186.228,0.290039,0.0,0.0
284,70.75,57.8761,63.7604,140.208,99.5607,96.3245,0.0055127,0.15088,20.9008,186.208,0.296588,0.0,0.0
286,71.25,58.3618,63.7891,136.816,99.5531,96.8488,0.00554746,0.150427,20.9015,186.208,0.247172,0.0,0.0
288,71.75,57.6881,63.7961,139.219,99.5668,96.8175,0.00559186,0.149986,20.902,186.208,0.25131,0.0,0.0
290,72.25,57.7137,63.3061,136.124,99.5563,96.5636,0.00564244,0.149606,20.9025,186.198,0.273935,0.0,0.0
292,72.75,57.5651,62.6614,143.184,99.5652,97.1565,0.00568796,0.149279,20.9029,186.178,0.219792,0.0,0.0
294,73.25,57.3847,62.9616,138.359,99.5708,96.6868,0.00572893,0.149006,20.9032,186.178,0.263804,0.0,0.0
296,73.75,57.309,62.9335,138.911,99.5732,96.3469,0.00576211,0.148779,20.9034,186.138,0.295625,0.0,0.0
298,74.25,56.616,62.5162,142.234,99.5692,97.2725,0.00578054,0.14852,20.9036,186.158,0.20945,0.0,0.0
300,74.75,56.9082,62.3628,136.603,99.5821,96.5522,0.00578786,0.148244,20.9042,186.158,0.277323,0.0,0.0
302,75.25,57.4718,62.726,136.24,99.572,96.4481,0.00579379,0.147901,20.9047,186.148,0.286098,0.0,0.0
304,75.75,56.6203,61.942,136.23,99.5833,96.6224,0.00577522,0.147517,20.9054,186.148,0.270904,0.0,0.0
306,76.25,56.8298,62.4684,137.481,99.5865,96.7511,0.00576018,0.147206,20.9061,186.128,0.259251,0.0,0.0
308,76.75,56.5607,62.5685,139.259,99.5958,96.2872,0.00573565,0.146573,20.9068,186.108,0.30322,0.0,0.0
310,77.25,56.0108,61.6408,140.533,99.5873,96.6592,0.00571579,0.146061,20.9075,186.128,0.267848,0.0,0.0
312,77.75,56.5714,61.585,137.351,99.5966,97.0647,0.0056886,0.145646,20.9081,186.098,0.231115,0.0,0.0
314,78.25,56.0785,61.0524,140.698,99.5901,96.0782,0.00566658,0.145097,20.9086,186.088,0.32222,0.0,0.0
316,78.75,55.9112,61.3792,135.683,99.6038,96.8273,0.00563394,0.144653,20.9089,186.098,0.253748,0.0,0.0
318,79.25,56.2196,61.6527,135.174,99.593,96.0854,0.00560751,0.144153,20.9092,186.098,0.321803,0.0,0.0
320,79.75,55.9701,61.292,135.933,99.6087,96.4684,0.00558609,0.143747,20.9095,186.098,0.287513,0.0,0.0
322,80.25,55.9739,61.3429,138.352,99.603,96.6516,0.00555383,0.143236,20.9097,186.078,0.269971,0.0,0.0
324,80.75,55.9683,61.0199,140.887,99.6103,97.3021,0.00551427,0.142822,20.911,186.078,0.210421,0.0,0.0
326,81.25,55.8463,60.8321,143.245,99.601,97.4079,0.00548223,0.142391,20.912,186.068,0.199832,0.0,0.0
328,81.75,55.2881,61.4493,133.516,99.603,96.7515,0.00545045,0.141954,20.9129,186.068,0.260701,0.0,0.0
330,82.25,55.9264,61.2,138.652,99.6034,96.8979,0.00541945,0.141601,20.9136,186.078,0.247164,0.0,0.0
332,82.75,55.8116,60.0727,144.651,99.6147,96.6719,0.00539498,0.141182,20.9141,186.068,0.269138,0.0,0.0
334,83.25,55.1171,60.782,136.806,99.6006,96.6394,0.00537576,0.140723,20.9146,186.068,0.270893,0.0,0.0
336,83.75,55.1203,60.237,141.243,99.6216,97.336,0.00536277,0.140351,20.9149,186.038,0.208316,0.0,0.0
338,84.25,55.1287,60.1731,141.941,99.618,96.7676,0.00535459,0.139867,20.9161,186.038,0.260553,0.0,0.0
340,84.75,54.9565,60.4087,137.831,99.622,96.7117,0.00534861,0.139475,20.917,186.038,0.266099,0.0,0.0
342,85.25,54.7815,60.0003,140.286,99.6135,96.5297,0.00534435,0.139076,20.9178,186.028,0.282241,0.0,0.0
344,85.75,54.8327,60.1867,138.848,99.6192,96.8201,0.0053409,0.13868,20.9184,186.018,0.255796,0.0,0.0
346,86.25,54.7214,60.0419,141.459,99.6192,96.6546,0.0053294,0.138278,20.9189,186.018,0.271149,0.0,0.0
348,86.75,54.682,59.7936,137.193,99.6244,96.8984,0.00532009,0.13788,20.9193,185.998,0.249012,0.0,0.0
350,87.25,54.6649,59.5974,135.235,99.6224,96.3414,0.0053093,0.137395,20.92,185.988,0.300568,0.0,0.0
352,87.75,54.4422,59.1617,137.299,99.6276,96.2982,0.00529765,0.136855,20.9208,185.988,0.305063,0.0,0.0
354,88.25,54.8286,59.7313,139.344,99.6192,96.3376,0.00528822,0.136419,20.9214,185.988,0.300633,0.0,0.0
356,88.75,54.3856,59.5773,138.912,99.6309,96.2352,0.00529412,0.135772,20.922,185.958,0.311233,0.0,0.0
358,89.25,54.4793,59.4739,141.362,99.6167,96.6694,0.0052989,0.135248,20.9224,185.958,0.269555,0.0,0.0
360,89.75,54.1693,58.8379,142.442,99.6244,96.2809,0.00532372,0.134824,20.9227,185.968,0.306389,0.0,0.0
362,90.25,54.1984,58.814,139.807,99.6256,97.0334,0.00534382,0.13448,20.923,185.968,0.236625,0.0,0.0
364,90.75,54.092,59.0391,137.698,99.6272,96.184,0.00537489,0.134202,20.9233,185.938,0.315683,0.0,0.0
366,91.25,53.8186,58.7589,142.234,99.622,96.7536,0.00540006,0.134088,20.9234,185.948,0.262211,0.0,0.0
368,91.75,53.7777,58.7343,139.387,99.6353,96.1543,0.00543031,0.133997,20.9238,185.938,0.319175,0.0,0.0
370,92.25,53.8449,58.4909,139.159,99.6236,96.2005,0.00545482,0.13388,20.9243,185.927,0.313816,0.0,0.0
372,92.75,53.8021,58.3715,134.351,99.622,96.4176,0.0054833,0.133786,20.9248,185.907,0.293439,0.0,0.0
374,93.25,53.309,58.5723,136.027,99.6236,96.181,0.00550637,0.133667,20.9251,185.907,0.315633,0.0,0.0
376,93.75,53.3326,58.171,141.175,99.6341,96.8598,0.00552999,0.133571,20.9254,185.887,0.253451,0.0,0.0
378,94.25,53.494,58.4542,137.504,99.6252,96.6025,0.00554912,0.133382,20.9256,185.897,0.276528,0.0,0.0
380,94.75,53.0094,58.0453,141.098,99.63,96.8916,0.00556722,0.133228,20.9258,185.887,0.250147,0.0,0.0
382,95.25,53.1187,57.8028,135.768,99.6288,96.3689,0.00558421,0.133006,20.9259,185.887,0.298587,0.0,0.0
384,95.75,53.3786,58.111,134.438,99.6288,96.071,0.00559798,0.132826,20.926,185.877,0.326379,0.0,0.0
386,96.25,53.097,57.9479,139.118,99.6284,96.7634,0.00561036,0.132582,20.9264,185.847,0.261889,0.0,0.0
388,96.75,53.1669,57.224,135.146,99.6313,96.3456,0.0056204,0.132384,20.9268,185.847,0.300973,0.0,0.0
390,97.25,53.1349,57.6723,134.196,99.6345,96.4743,0.00563246,0.132077,20.9271,185.827,0.289285,0.0,0.0
392,97.75,53.2219,57.1891,139.115,99.6333,96.4256,0.00564577,0.131696,20.9273,185.837,0.293706,0.0,0.0
394,98.25,52.6031,57.2237,139.001,99.6276,97.5967,0.00567631,0.131387,20.9279,185.827,0.184853,0.0,0.0
396,98.75,52.566,57.5667,143.396,99.6349,96.1742,0.00570105,0.13076,20.9288,185.847,0.317281,0.0,0.0
398,99.25,52.3889,57.3149,136.596,99.6397,96.8573,0.00573713,0.130252,20.9295,185.817,0.254195,0.0,0.0
400,99.75,52.9255,57.1379,137.305,99.6389,96.4091,0.00576637,0.129722,20.9301,185.817,0.295751,0.0,0.0
402,100.25,52.6619,57.1,135.806,99.6365,95.9817,0.0057972,0.129187,20.9306,185.807,0.335415,0.0,0.0
404,100.75,52.4866,57.0587,138.105,99.6309,97.0956,0.00582861,0.128642,20.931,185.797,0.231344,0.0,0.0
406,101.25,52.159,56.885,139.895,99.6385,97.5789,0.00585405,0.1282,20.9313,185.807,0.187468,0.0,0.0
408,101.75,52.5435,56.8895,137.933,99.6325,96.9999,0.00588455,0.127747,20.9315,185.797,0.240335,0.0,0.0
410,102.25,52.0472,56.6469,136.581,99.6397,97.4828,0.00590925,0.127294,20.9317,185.797,0.196418,0.0,0.0
412,102.75,51.9204,56.6883,136.904,99.6345,96.8125,0.00592926,0.126796,20.9323,185.777,0.257881,0.0,0.0
414,103.25,52.4339,56.7256,137.735,99.6385,97.2793,0.00593558,0.126273,20.933,185.787,0.215071,0.0,0.0
416,103.75,51.8743,56.5657,142.954,99.653,96.5915,0.00594069,0.125849,20.9338,185.777,0.280055,0.0,0.0
418,104.25,51.8804,56.4621,138.799,99.6296,96.7684,0.00593444,0.125283,20.9345,185.757,0.261528,0.0,0.0
420,104.75,51.673,55.6846,137.643,99.6276,96.9026,0.00592001,0.124825,20.9354,185.767,0.248911,0.0,0.0
422,105.25,51.476,56.155,138.514,99.6377,96.3025,0.00589593,0.124454,20.9365,185.757,0.305576,0.0,0.0
424,105.75,51.7119,56.1136,137.799,99.6349,96.6584,0.00588828,0.123977,20.9368,185.757,0.272211,0.0,0.0
426,106.25,51.4829,56.1641,138.76,99.6381,97.2145,0.00587521,0.123433,20.9373,185.737,0.221011,0.0,0.0
428,106.75,51.535,56.0688,140.131,99.6357,96.4273,0.00586084,0.122861,20.938,185.737,0.293767,0.0,0.0
430,107.25,50.7129,55.6718,136.923,99.6389,96.3312,0.0058492,0.122278,20.9387,185.737,0.303003,0.0,0.0
432,107.75,50.8746,55.7903,141.122,99.6341,97.0063,0.00583263,0.121712,20.9396,185.737,0.239892,0.0,0.0
434,108.25,51.2153,55.4932,139.969,99.6373,96.7854,0.00581277,0.120935,20.9406,185.737,0.260647,0.0,0.0
436,108.75,51.5196,55.9827,137.861,99.6304,97.0275,0.00579668,0.120653,20.9415,185.727,0.237609,0.0,0.0
438,109.25,51.3731,55.238,138.324,99.6397,96.9005,0.00576021,0.12017,20.9426,185.707,0.250196,0.0,0.0
440,109.75,50.9931,55.3345,141.286,99.647,96.7265,0.00573067,0.11978,20.9435,185.717,0.266975,0.0,0.0
442,110.25,51.1729,55.4262,137.66,99.6381,97.2357,0.00571044,0.119369,20.9442,185.717,0.219058,0.0,0.0
444,110.75,50.8521,55.5394,142.137,99.6268,96.4315,0.00569405,0.118951,20.9448,185.687,0.292573,0.0,0.0
446,111.25,50.3828,55.2203,142.262,99.6458,96.9246,0.00569805,0.118612,20.9453,185.677,0.248506,0.0,0.0
448,111.75,50.4762,54.5747,140.035,99.6341,96.3571,0.0057013,0.118213,20.9456,185.657,0.300162,0.0,0.0
450,112.25,50.8161,55.0715,138.57,99.6458,96.7625,0.00571874,0.11789,20.9462,185.677,0.263529,0.0,0.0
452,112.75,50.7048,54.9321,137.354,99.63,96.7523,0.00573286,0.117434,20.9468,185.667,0.263055,0.0,0.0
454,113.25,50.8119,54.9258,138.205,99.6377,96.4104,0.00574183,0.117065,20.9474,185.657,0.295524,0.0,0.0
456,113.75,50.6755,54.6481,141.303,99.6317,97.093,0.0057491,0.116678,20.9478,185.657,0.231651,0.0,0.0
458,114.25,50.7886,55.0385,134.789,99.6365,96.0341,0.00572907,0.116286,20.9484,185.667,0.330509,0.0,0.0
460,114.75,50.7318,54.7209,136.34,99.6321,96.3092,0.00571285,0.115895,20.949,185.657,0.304436,0.0,0.0
462,115.25,49.8299,54.3536,136.841,99.645,96.3156,0.0056997,0.115513,20.9496,185.657,0.305007,0.0,0.0
464,115.75,50.2117,54.3202,136.987,99.624,97.6826,0.00564837,0.115087,20.9505,185.647,0.176629,0.0,0.0
466,116.25,50.0625,54.3002,139.093,99.6486,97.0787,0.00560679,0.114637,20.9512,185.637,0.234506,0.0,0.0
468,116.75,50.4716,54.5321,138.889,99.6345,96.9259,0.00554477,0.114078,20.9517,185.627,0.247372,0.0,0.0
470,117.25,50.7167,54.2298,140.792,99.6377,96.7121,0.00549454,0.113626,20.9522,185.627,0.267476,0.0,0.0
472,117.75,50.2697,54.2437,140.018,99.6321,96.9462,0.00543834,0.113187,20.9526,185.617,0.245273,0.0,0.0
474,118.25,50.3712,54.4556,136.356,99.6574,96.1882,0.00537887,0.112765,20.9527,185.617,0.318011,0.0,0.0
476,118.75,50.2383,54.3774,138.018,99.6296,95.8877,0.00532551,0.112424,20.9528,185.607,0.343588,0.0,0.0
478,119.25,49.8539,54.4184,137.29,99.6389,96.2728,0.00527763,0.112051,20.9529,185.617,0.308446,0.0,0.0
480,119.75,50.279,54.2604,138.401,99.6304,96.6182,0.00524339,0.111749,20.9532,185.607,0.275546,0.0,0.0
482,120.25,49.9208,54.0414,139.196,99.6401,97.0135,0.00521972,0.111445,20.9537,185.607,0.239773,0.0,0.0
484,120.75,50.0738,54.2753,136.893,99.6329,97.2793,0.00521092,0.111146,20.9541,185.587,0.214563,0.0,0.0
486,121.25,49.5703,54.289,136.486,99.6514,96.7244,0.00521312,0.110831,20.9548,185.597,0.267571,0.0,0.0
488,121.75,49.9321,53.64,140.069,99.6373,97.1443,0.0052149,0.110511,20.9554,185.587,0.227427,0.0,0.0
490,122.25,49.863,53.5281,135.165,99.6385,96.5429,0.00522412,0.110171,20.9559,185.607,0.283272,0.0,0.0
492,122.75,49.4052,53.7687,138.652,99.63,96.5192,0.00523858,0.109824,20.9563,185.607,0.284713,0.0,0.0
494,123.25,49.5649,53.7202,134.925,99.6627,96.2606,0.00523993,0.109441,20.9566,185.587,0.311732,0.0,0.0
496,123.75,49.6964,53.9413,140.053,99.6401,96.4091,0.0052317,0.109039,20.9573,185.607,0.295859,0.0,0.0
498,124.25,49.3959,53.2729,133.356,99.6462,96.823,0.0051918,0.108714,20.9579,185.607,0.257953,0.0,0.0
500,124.75,49.7881,53.542,137.817,99.6296,96.9183,0.00515949,0.108119,20.9585,185.587,0.247641,0.0,0.0
502,125.25,50.1219,53.9459,138.939,99.6466,96.3143,0.00513332,0.107637,20.9593,185.567,0.30527,0.0,0.0
504,125.75,49.0121,52.8864,137.912,99.6381,96.1285,0.00509367,0.107145,20.9602,185.547,0.321839,0.0,0.0
506,126.25,48.9,52.9305,141.785,99.6361,96.7727,0.00506156,0.106655,20.9611,185.527,0.261716,0.0,0.0
508,126.75,48.6213,52.9419,142.223,99.6292,96.5826,0.00503309,0.106229,20.9618,185.527,0.278739,0.0,0.0
510,127.25,48.9961,52.9809,142.252,99.6333,96.7232,0.00501003,0.105858,20.9624,185.547,0.266055,0.0,0.0
512,127.75,49.1938,52.8258,139.966,99.6337,96.721,0.00498424,0.105557,20.9628,185.537,0.266288,0.0,0.0
514,128.25,48.3644,52.669,140.222,99.6357,96.8535,0.00495694,0.105277,20.9632,185.537,0.254186,0.0,0.0
516,128.75,48.5137,52.4477,141.247,99.6381,96.4396,0.00493483,0.105018,20.9635,185.557,0.292842,0.0,0.0
518,129.25,48.3401,52.1225,136.918,99.6381,97.052,0.00489689,0.104684,20.9638,185.537,0.236029,0.0,0.0
520,129.75,48.5455,52.5343,138.448,99.6317,96.082,0.00484812,0.104413,20.9644,185.527,0.325605,0.0,0.0
522,130.25,48.5466,52.2533,137.832,99.6321,96.3736,0.00480474,0.104078,20.965,185.527,0.298444,0.0,0.0
524,130.75,48.5108,52.3493,138.532,99.6454,97.2683,0.00476611,0.103702,20.9654,185.527,0.216703,0.0,0.0
526,131.25,47.829,52.4216,140.579,99.6409,96.958,0.00473483,0.103397,20.9657,185.507,0.244976,0.0,0.0
528,131.75,48.3607,52.1244,141.214,99.6341,96.5547,0.00471317,0.103013,20.9664,185.517,0.281771,0.0,0.0
530,132.25,48.2255,51.9423,139.267,99.6333,96.7308,0.00469562,0.102577,20.967,185.507,0.265349,0.0,0.0
532,132.75,48.4734,52.1198,141.074,99.63,97.292,0.0046986,0.102225,20.9677,185.507,0.213138,0.0,0.0
534,133.25,48.0044,52.1169,139.683,99.6429,97.2746,0.00470101,0.10176,20.9685,185.487,0.2159,0.0,0.0
536,133.75,48.2679,51.8439,137.193,99.6401,96.7227,0.0047263,0.101384,20.9691,185.497,0.266712,0.0,0.0
538,134.25,48.4435,52.3909,137.743,99.6393,97.168,0.00474678,0.100983,20.9696,185.497,0.225419,0.0,0.0
540,134.75,48.4063,51.8183,142.849,99.6385,96.451,0.00477566,0.100658,20.97,185.497,0.291814,0.0,0.0
542,135.25,48.3865,51.8047,139.041,99.6321,96.7579,0.00479906,0.100257,20.9704,185.477,0.262726,0.0,0.0
544,135.75,48.2089,51.7246,138.207,99.6341,97.3123,0.00481574,0.0999326,20.9706,185.447,0.211626,0.0,0.0
546,136.25,48.1738,51.1198,140.109,99.6353,96.4552,0.00481369,0.0995597,20.9709,185.457,0.29113,0.0,0.0
548,136.75,48.3915,51.6814,139.028,99.6619,97.4071,0.0048102,0.0992576,20.971,185.467,0.205391,0.0,0.0
550,137.25,47.7102,51.8039,139.508,99.6357,96.4201,0.00478158,0.0989304,20.9714,185.487,0.294436,0.0,0.0
552,137.75,48.1339,51.9673,140.911,99.6313,96.2034,0.0047584,0.0986654,20.9719,185.457,0.31423,0.0,0.0
554,138.25,47.1552,51.6815,137.654,99.6397,97.1849,0.0047101,0.0983423,20.9723,185.457,0.223892,0.0,0.0
556,138.75,47.8932,51.1644,139.238,99.6292,96.9606,0.00467097,0.0979829,20.9727,185.437,0.243687,0.0,0.0
558,139.25,47.9177,51.1682,139.806,99.6393,96.217,0.00462572,0.0976917,20.9729,185.427,0.313692,0.0,0.0
560,139.75,47.7113,50.9756,141.128,99.6433,97.033,0.00457687,0.0973048,20.9738,185.427,0.238261,0.0,0.0
562,140.25,47.4501,51.1105,141.074,99.6309,97.0342,0.00452698,0.0969914,20.9744,185.417,0.237019,0.0,0.0
564,140.75,47.4028,51.0811,130.666,99.6413,96.5043,0.00447729,0.0966827,20.975,185.427,0.287107,0.0,0.0
566,141.25,47.5166,51.84,138.153,99.6325,96.4218,0.00442736,0.0964325,20.9754,185.397,0.293987,0.0,0.0
568,141.75,47.8192,50.8106,137.987,99.6333,96.3016,0.00437822,0.09623,20.9758,185.387,0.305255,0.0,0.0
570,142.25,46.9439,50.2843,138.413,99.6341,96.082,0.00433842,0.0959706,20.976,185.387,0.325823,0.0,0.0
572,142.75,47.3762,50.4914,140.729,99.6409,97.041,0.0042978,0.0957606,20.9765,185.387,0.237299,0.0,0.0
574,143.25,47.5371,50.9233,140.556,99.628,96.4815,0.00425736,0.0954532,20.9771,185.427,0.288036,0.0,0.0
576,143.75,47.7218,50.8345,139.729,99.6361,96.6432,0.00421726,0.0952041,20.9776,185.417,0.273735,0.0,0.0
578,144.25,47.6155,51.0293,140.166,99.6325,96.4561,0.00420017,0.0948241,20.9778,185.407,0.290798,0.0,0.0
580,144.75,46.9966,50.766,139.144,99.6397,96.3401,0.00417094,0.0945162,20.9781,185.397,0.302248,0.0,0.0
582,145.25,47.3742,50.4251,136.957,99.6393,96.9348,0.00412401,0.0940337,20.9784,185.407,0.246985,0.0,0.0
584,145.75,47.7271,50.5666,138.881,99.6365,96.5505,0.00406992,0.0936429,20.9786,185.397,0.282383,0.0,0.0
586,146.25,46.3994,50.3125,140.434,99.6397,96.2877,0.00401163,0.0932541,20.979,185.397,0.307138,0.0,0.0
588,146.75,47.0695,50.0051,136.503,99.6373,96.6368,0.00396441,0.0928743,20.9796,185.377,0.274433,0.0,0.0
590,147.25,47.5052,50.3599,140.574,99.6393,97.5247,0.00389441,0.0927124,20.98,185.407,0.192525,0.0,0.0
592,147.75,47.3459,50.9556,143.597,99.6345,96.3977,0.00383771,0.0922985,20.9806,185.397,0.296415,0.0,0.0
594,148.25,47.0638,50.6913,142.414,99.6421,96.5983,0.00379178,0.0919632,20.9813,185.427,0.278446,0.0,0.0
596,148.75,47.2452,50.0528,137.304,99.6276,97.0114,0.00375008,0.0914725,20.9818,185.447,0.238842,0.0,0.0
598,149.25,47.092,50.5914,141.013,99.6272,95.9973,0.00371225,0.091075,20.982,185.467,0.333116,0.0,0.0
600,149.75,47.3336,50.4056,140.851,99.6373,96.2932,0.00368161,0.0906161,20.9821,185.487,0.306407,0.0,0.0
602,150.25,46.3032,50.3702,145.011,99.622,96.5564,0.0036568,0.0902444,20.9825,185.467,0.280526,0.0,0.0
604,150.75,46.2605,49.753,139.616,99.6288,96.7701,0.00365143,0.0899433,20.9828,185.487,0.261298,0.0,0.0
606,151.25,47.2443,50.4555,138.288,99.6276,96.3812,0.00364709,0.0896922,20.983,185.437,0.297334,0.0,0.0
608,151.75,46.6336,50.067,138.657,99.6304,97.6437,0.003657,0.0894823,20.9832,185.447,0.180789,0.0,0.0
610,152.25,46.3908,49.8366,139.885,99.6163,96.5848,0.00366503,0.0893123,20.9834,185.437,0.277381,0.0,0.0
612,152.75,47.1816,50.3088,140.2,99.6304,96.2474,0.00368131,0.0891814,20.9835,185.427,0.310052,0.0,0.0
614,153.25,46.0542,49.6368,139.318,99.6309,97.6327,0.00369449,0.0890814,20.9837,185.417,0.181836,0.0,0.0
616,153.75,46.2116,49.465,141.343,99.6244,95.9893,0.00371251,0.0889716,20.9837,185.427,0.333613,0.0,0.0
618,154.25,46.6617,49.7928,136.199,99.6175,95.8526,0.0037271,0.0888567,20.9838,185.437,0.345787,0.0,0.0
620,154.75,46.5739,49.9269,136.761,99.6304,96.2432,0.00373892,0.0887493,20.9839,185.427,0.310446,0.0,0.0
622,155.25,46.7687,50.0961,140.689,99.6333,96.9394,0.00374849,0.0886493,20.9839,185.397,0.24601,0.0,0.0
624,155.75,46.9272,50.2527,139.272,99.6296,96.9305,0.00375502,0.0885539,20.984,185.377,0.246506,0.0,0.0
626,156.25,46.3095,49.9746,140.169,99.6171,96.9373,0.00376031,0.0884636,20.984,185.387,0.244753,0.0,0.0
628,156.75,46.4622,50.2761,139.119,99.63,96.9889,0.0037646,0.0883905,20.984,185.387,0.241135,0.0,0.0
630,157.25,46.4191,49.7988,139.233,99.6175,97.2259,0.00375096,0.0883313,20.984,185.367,0.218105,0.0,0.0
632,157.75,46.4398,49.8257,139.28,99.622,96.6051,0.00373992,0.0882833,20.984,185.377,0.276002,0.0,0.0
634,158.25,46.9022,49.8453,137.18,99.622,96.5683,0.00370655,0.0880803,20.9841,185.377,0.279423,0.0,0.0
636,158.75,46.3612,49.5991,141.214,99.626,96.5805,0.00367952,0.0879158,20.9841,185.347,0.278647,0.0,0.0
638,159.25,46.7351,49.4908,141.806,99.6147,96.374,0.00364222,0.0877178,20.9841,185.357,0.296843,0.0,0.0
640,159.75,46.4064,49.5896,140.102,99.6264,96.5949,0.00359813,0.0874991,20.9841,185.347,0.277345,0.0,0.0
642,160.25,46.2498,49.9049,138.563,99.6232,97.3817,0.00355985,0.0873219,20.9841,185.317,0.204247,0.0,0.0
644,160.75,46.7096,49.7075,137.911,99.6167,96.3338,0.00352653,0.0871237,20.9841,185.327,0.300769,0.0,0.0
646,161.25,46.1535,49.3106,140.189,99.6139,96.5035,0.00349954,0.0869632,20.9841,185.307,0.284717,0.0,0.0
648,161.75,46.1412,49.2199,137.958,99.6175,96.768,0.00348012,0.0868058,20.9841,185.307,0.260477,0.0,0.0
650,162.25,46.38,49.4966,135.405,99.6018,96.6,0.00346439,0.0866783,20.9845,185.297,0.274658,0.0,0.0
652,162.75,46.0604,49.1306,138.48,99.6147,96.4861,0.00344921,0.0865031,20.9849,185.297,0.286405,0.0,0.0
654,163.25,45.9053,49.4592,140.798,99.6042,96.5361,0.00343691,0.0862964,20.9852,185.287,0.280815,0.0,0.0
656,163.75,46.693,49.0881,137.895,99.6127,96.63,0.00342695,0.0860787,20.9859,185.297,0.272848,0.0,0.0
658,164.25,46.1032,49.3563,138.803,99.6115,96.8243,0.00339084,0.085857,20.9864,185.297,0.254713,0.0,0.0
660,164.75,46.1478,49.3761,137.801,99.6171,96.3672,0.00336159,0.0856342,20.9868,185.307,0.297692,0.0,0.0
662,165.25,46.1626,49.0583,135.864,99.6192,96.3422,0.00332206,0.085415,20.9872,185.287,0.300199,0.0,0.0
664,165.75,45.795,49.494,139.334,99.62,96.848,0.00329004,0.0852374,20.9877,185.297,0.253279,0.0,0.0
666,166.25,46.1079,49.0037,139.289,99.6224,96.523,0.0032568,0.0850072,20.9884,185.287,0.28367,0.0,0.0
668,166.75,45.7739,49.115,137.97,99.6123,96.6402,0.00322987,0.0847432,20.9889,185.297,0.271868,0.0,0.0
670,167.25,45.8624,49.0436,138.702,99.6115,97.1726,0.0032105,0.0845293,20.9893,185.267,0.222484,0.0,0.0
672,167.75,45.9625,48.7503,139.174,99.6026,96.3025,0.0031948,0.0842195,20.9896,185.267,0.302417,0.0,0.0
674,168.25,45.9851,48.9843,143.89,99.601,97.2623,0.00319062,0.0839685,20.9899,185.257,0.213257,0.0,0.0
676,168.75,45.4608,48.6459,138.75,99.6147,97.1815,0.00318723,0.0836561,20.9903,185.257,0.221954,0.0,0.0
678,169.25,45.8843,49.3927,137.469,99.5901,96.5471,0.00318326,0.0834029,20.9909,185.257,0.278521,0.0,0.0
680,169.75,45.9732,49.4856,140.696,99.6119,96.5399,0.00318005,0.0830614,20.9914,185.257,0.281151,0.0,0.0
682,170.25,46.0503,48.8664,139.239,99.6026,96.5374,0.00317745,0.0827848,20.9917,185.257,0.280553,0.0,0.0
684,170.75,45.4694,48.6254,143.865,99.601,96.5898,0.00317534,0.0823834,20.992,185.267,0.275529,0.0,0.0
686,171.25,45.3784,49.0663,141.15,99.5889,97.4591,0.00317364,0.0820583,20.9923,185.237,0.194025,0.0,0.0
688,171.75,45.5435,48.6398,140.924,99.5897,96.5919,0.00315155,0.0816858,20.9925,185.237,0.274316,0.0,0.0
690,172.25,46.0998,48.8995,139.329,99.6042,96.6758,0.00313366,0.0813841,20.9928,185.227,0.26784,0.0,0.0
692,172.75,46.237,48.9302,141.09,99.6111,96.942,0.00312282,0.0811397,20.9931,185.227,0.243777,0.0,0.0
694,173.25,45.2592,48.4624,136.641,99.6123,97.1404,0.00311405,0.0808054,20.9933,185.237,0.225528,0.0,0.0
696,173.75,45.7885,48.806,138.964,99.5914,97.0291,0.00310937,0.0805346,20.9935,185.227,0.23393,0.0,0.0
698,174.25,45.2935,48.8474,141.66,99.5881,96.6787,0.00310461,0.0803153,20.994,185.237,0.266112,0.0,0.0
700,174.75,45.4547,48.4256,140.693,99.591,96.0104,0.00310373,0.0800587,20.9945,185.237,0.328621,0.0,0.0
702,175.25,45.8031,48.2056,136.401,99.5934,96.4514,0.00310223,0.0797799,20.9949,185.227,0.287708,0.0,0.0
704,175.75,45.4085,48.0763,138.312,99.5926,96.5187,0.00309859,0.0794895,20.9952,185.217,0.281376,0.0,0.0
706,176.25,45.8684,48.6598,138.354,99.5853,96.3207,0.00309563,0.0791962,20.9959,185.197,0.299159,0.0,0.0
708,176.75,45.5114,48.5173,140.065,99.5926,96.7092,0.00308593,0.0789156,20.9964,185.187,0.263684,0.0,0.0
710,177.25,45.5015,48.8422,141.549,99.5857,96.4083,0.00307807,0.0786495,20.9969,185.197,0.291036,0.0,0.0
712,177.75,45.2961,48.619,136.028,99.5789,96.6326,0.00307171,0.0784054,20.9972,185.217,0.26956,0.0,0.0
714,178.25,45.4992,48.6876,138.886,99.5797,96.7845,0.00304586,0.0781818,20.9975,185.207,0.255533,0.0,0.0
716,178.75,45.8695,48.6077,138.492,99.5849,96.8654,0.00302493,0.0779577,20.9978,185.207,0.248512,0.0,0.0
718,179.25,45.3073,47.6698,138.583,99.5954,97.865,0.00300189,0.0777375,20.998,185.207,0.157306,0.0,0.0
720,179.75,45.093,48.0267,140.853,99.5756,96.2538,0.00298707,0.0775592,20.9981,185.217,0.304521,0.0,0.0
722,180.25,45.5183,47.8661,139.405,99.5805,96.5666,0.00297852,0.0774147,20.9983,185.207,0.27584,0.0,0.0
724,180.75,45.3642,48.5441,141.384,99.5728,96.851,0.0029716,0.0772976,20.9984,185.227,0.248755,0.0,0.0
726,181.25,45.9571,48.1006,139.401,99.572,96.8251,0.00296855,0.0771813,20.9984,185.227,0.251075,0.0,0.0
728,181.75,45.4048,48.66,135.855,99.5696,97.5493,0.00296839,0.0770678,20.9985,185.227,0.183983,0.0,0.0
730,182.25,45.3231,48.2708,140.044,99.5543,96.9563,0.00296442,0.0769687,20.9986,185.217,0.237324,0.0,0.0
732,182.75,45.7568,48.2156,139.111,99.5507,96.4709,0.00295774,0.0768819,20.9986,185.217,0.282046,0.0,0.0
734,183.25,45.7027,48.5343,140.406,99.5623,96.6254,0.00294657,0.0768116,20.9987,185.207,0.268739,0.0,0.0
736,183.75,46.103,48.5006,136.894,99.5648,97.4769,0.00293233,0.0767139,20.9987,185.207,0.190208,0.0,0.0
738,184.25,45.4815,48.439,138.854,99.5587,97.1515,0.0029208,0.0766347,20.9987,185.197,0.21968,0.0,0.0
740,184.75,45.5415,48.1545,140.281,99.5551,97.1879,0.00290052,0.076549,20.9987,185.197,0.215992,0.0,0.0
742,185.25,45.4687,48.0685,139.733,99.5611,96.4442,0.00288409,0.0764603,20.9987,185.177,0.285472,0.0,0.0
744,185.75,45.228,47.9467,143.158,99.5519,96.6144,0.0028647,0.0764021,20.9988,185.177,0.268817,0.0,0.0
746,186.25,45.6242,48.3361,142.048,99.5551,96.8311,0.00285643,0.0763549,20.9988,185.167,0.249001,0.0,0.0
748,186.75,45.1322,47.7962,134.85,99.5398,96.8137,0.00283782,0.0763095,20.9988,185.167,0.249227,0.0,0.0
750,187.25,45.0525,47.5954,140.887,99.5535,97.289,0.00281871,0.0762663,20.9988,185.167,0.206509,0.0,0.0
752,187.75,45.324,47.7969,138.949,99.551,96.6741,0.00280068,0.0762313,20.9992,185.187,0.263202,0.0,0.0
754,188.25,45.2787,47.6552,136.865,99.5458,96.6118,0.00278376,0.0761485,20.9996,185.197,0.268508,0.0,0.0
756,188.75,45.1805,47.8149,139.528,99.5269,97.0994,0.00277199,0.0760815,20.9999,185.197,0.22162,0.0,0.0
758,189.25,44.8838,48.0217,136.673,99.5373,96.542,0.00276417,0.0760386,21.0001,185.167,0.274234,0.0,0.0
760,189.75,44.6312,48.3184,139.509,99.5265,95.9779,0.00276296,0.0759652,21.0003,185.177,0.325855,0.0,0.0
762,190.25,45.2014,47.8416,139.453,99.5373,96.8865,0.00276659,0.0758986,21.0004,185.177,0.242264,0.0,0.0
764,190.75,45.2599,48.0109,136.831,99.5224,96.5843,0.00276952,0.0758382,21.0006,185.167,0.268956,0.0,0.0
766,191.25,45.3896,47.9909,142.939,99.5273,96.0904,0.0027719,0.0757821,21.0007,185.177,0.315406,0.0,0.0
768,191.75,45.085,47.6783,142.401,99.5196,97.292,0.00279806,0.0757302,21.0008,185.177,0.203184,0.0,0.0
770,192.25,45.3558,48.0535,139.656,99.5224,96.3469,0.00281926,0.0756738,21.0008,185.157,0.291047,0.0,0.0
772,192.75,44.9082,47.5296,140.95,99.5047,96.2331,0.00284283,0.0756153,21.0009,185.157,0.300059,0.0,0.0
774,193.25,44.8664,47.6612,140.493,99.522,97.4646,0.00285591,0.0755679,21.0009,185.157,0.187487,0.0,0.0
776,193.75,44.9278,47.6706,140.015,99.5184,96.5644,0.00287828,0.0754615,21.0009,185.167,0.270442,0.0,0.0
778,194.25,45.3951,47.6682,139.396,99.5144,97.0507,0.0028964,0.0753752,21.0011,185.147,0.224993,0.0,0.0
780,194.75,44.7497,47.6748,138.676,99.4934,97.7503,0.00288309,0.0753054,21.0013,185.147,0.158637,0.0,0.0
782,195.25,44.8658,47.8515,140.411,99.5019,96.9462,0.00287232,0.0752564,21.0014,185.147,0.233539,0.0,0.0
784,195.75,44.4661,47.5115,137.936,99.4922,96.7155,0.00280786,0.0752236,21.0015,185.147,0.254046,0.0,0.0
786,196.25,44.968,47.6099,143.295,99.4938,97.5349,0.00279052,0.0751953,21.0015,185.167,0.178475,0.0,0.0
788,196.75,44.9527,47.4038,141.495,99.4862,97.0418,0.00270319,0.0751468,21.0016,185.147,0.223271,0.0,0.0
790,197.25,44.562,47.4609,139.666,99.4922,97.1832,0.00265025,0.0751076,21.0016,185.137,0.210751,0.0,0.0
792,197.75,44.4164,47.8703,141.08,99.4809,96.7274,0.00262375,0.0750758,21.0016,185.127,0.251929,0.0,0.0
794,198.25,45.0527,47.5985,143.019,99.4777,97.876,0.00257843,0.0750365,21.0017,185.147,0.145685,0.0,0.0
796,198.75,45.0202,47.4061,141.054,99.4717,96.6571,0.00254173,0.0750053,21.0017,185.127,0.257613,0.0,0.0
798,199.25,44.7674,47.0797,138.46,99.4717,96.5517,0.00252049,0.075006,21.0017,185.107,0.267404,0.0,0.0
800,199.75,44.696,47.1372,142.295,99.4584,96.3786,0.00250328,0.0750071,21.0017,185.097,0.282309,0.0,0.0
802,200.25,45.2947,47.4539,139.438,99.4632,96.564,0.00249906,0.0750217,21.0017,185.107,0.2655,0.0,0.0
804,200.75,44.6496,47.523,138.348,99.4523,96.9483,0.00249564,0.0750334,21.0017,185.107,0.228871,0.0,0.0
806,201.25,44.6349,47.7691,139.087,99.4475,96.9009,0.00249651,0.0750215,21.0017,185.097,0.232824,0.0,0.0
808,201.75,45.1509,47.9349,144.625,99.4487,96.9339,0.00249721,0.0749924,21.0017,185.097,0.229876,0.0,0.0
810,202.25,44.8121,47.2323,139.638,99.46,96.6664,0.00249528,0.0749689,21.0017,185.087,0.255695,0.0,0.0
812,202.75,44.6714,47.2783,141.808,99.4293,96.614,0.00249145,0.0749284,21.0017,185.097,0.257803,0.0,0.0
814,203.25,45.1309,47.2283,139.655,99.4346,96.0202,0.00248835,0.0748763,21.0017,185.097,0.313608,0.0,0.0
816,203.75,44.5181,47.4331,144.117,99.4233,96.542,0.0024737,0.0748269,21.0017,185.097,0.263944,0.0,0.0
818,204.25,44.7021,47.2014,136.516,99.4314,96.7185,0.00244848,0.0747804,21.0015,185.077,0.248279,0.0,0.0
820,204.75,44.8223,47.059,139.762,99.4185,96.0693,0.00243645,0.0747781,21.0016,185.077,0.307565,0.0,0.0
822,205.25,44.5567,47.3624,141.948,99.4269,96.531,0.00241589,0.0748082,21.0019,185.097,0.265295,0.0,0.0
824,205.75,44.7699,47.5636,139.035,99.4173,96.9796,0.00239222,0.0748325,21.0022,185.087,0.222808,0.0,0.0
826,206.25,44.6973,47.291,143.826,99.41,96.2906,0.00236672,0.0748385,21.0024,185.067,0.286146,0.0,0.0
828,206.75,44.7558,47.1511,135.974,99.4088,96.972,0.00234671,0.0748435,21.0025,185.067,0.222747,0.0,0.0
830,207.25,44.6081,47.0567,138.338,99.412,96.7342,0.00233108,0.0747327,21.0027,185.087,0.245081,0.0,0.0
832,207.75,44.7679,47.2715,139.102,99.4035,97.0131,0.00232224,0.074703,21.0028,185.087,0.218476,0.0,0.0
834,208.25,44.7374,47.0382,139.138,99.4023,97.1578,0.00231853,0.0746592,21.0024,185.057,0.204986,0.0,0.0
836,208.75,44.5447,47.4675,142.715,99.3923,96.7523,0.00231744,0.0746302,21.0021,185.047,0.241609,0.0,0.0
838,209.25,44.6194,47.175,141.398,99.4052,96.7684,0.00231828,0.0746067,21.0023,185.067,0.241282,0.0,0.0
840,209.75,44.5507,46.767,136.563,99.3931,97.4143,0.00231896,0.0745876,21.0025,185.057,0.180488,0.0,0.0
842,210.25,44.4165,47.2892,141.796,99.3886,97.223,0.00231466,0.0745722,21.0024,185.067,0.19773,0.0,0.0
844,210.75,44.7892,47.1905,140.501,99.3886,96.8184,0.00231118,0.0745325,21.0021,185.077,0.235159,0.0,0.0
846,211.25,44.5426,47.0122,136.221,99.387,96.3731,0.00230108,0.0745003,21.0019,185.067,0.276382,0.0,0.0
848,211.75,44.3683,46.5967,138.742,99.3721,96.7206,0.0022929,0.0744471,21.0017,185.057,0.242734,0.0,0.0
850,212.25,44.646,47.0353,139.096,99.3685,96.5103,0.00228628,0.074404,21.0015,185.047,0.261946,0.0,0.0
852,212.75,44.1609,46.9065,139.865,99.3669,96.8129,0.00228278,0.0743962,21.0014,185.057,0.233704,0.0,0.0
854,213.25,44.5667,46.761,140.958,99.3653,96.6283,0.00228162,0.07439,21.0013,185.037,0.250681,0.0,0.0
856,213.75,44.6318,46.5844,139.437,99.3673,96.3427,0.00228963,0.0743713,21.0012,185.047,0.277436,0.0,0.0
858,214.25,44.4351,47.1835,135.967,99.36,97.0338,0.00230415,0.0743562,21.0013,185.037,0.212626,0.0,0.0
860,214.75,44.3032,46.8295,141.065,99.3459,96.2263,0.00232103,0.0743439,21.0014,185.047,0.286356,0.0,0.0
862,215.25,44.272,46.8356,137.119,99.3443,96.4773,0.0023393,0.0743068,21.0014,185.037,0.262833,0.0,0.0
864,215.75,44.2593,46.6409,138.735,99.3536,96.2948,0.00235473,0.0742767,21.0015,185.057,0.280656,0.0,0.0
866,216.25,44.0349,46.6024,138.16,99.3576,97.0956,0.00236781,0.0742524,21.0015,185.037,0.206694,0.0,0.0
868,216.75,43.8199,46.5535,138.274,99.3346,95.8619,0.0023784,0.0742334,21.0016,185.037,0.319388,0.0,0.0
870,217.25,44.7803,47.3104,136.871,99.329,96.7989,0.00238698,0.0742181,21.0016,185.037,0.231576,0.0,0.0
872,217.75,44.3466,46.7961,138.528,99.3213,96.473,0.00239514,0.0742329,21.0016,185.007,0.26115,0.0,0.0
874,218.25,44.4427,46.8046,137.751,99.3189,96.7477,0.00240457,0.0742449,21.0016,185.017,0.235415,0.0,0.0
876,218.75,44.3026,46.7019,135.828,99.3153,96.5128,0.00241606,0.0742546,21.0015,185.017,0.256904,0.0,0.0
878,219.25,44.6453,47.0337,141.104,99.3036,96.4823,0.00243569,0.0742624,21.0015,185.017,0.258682,0.0,0.0
880,219.75,44.2892,47.1251,136.929,99.3024,96.3008,0.00245159,0.0742688,21.0015,184.997,0.275477,0.0,0.0
882,220.25,44.0598,46.7512,139.604,99.2951,96.2788,0.00248755,0.0742739,21.0015,184.997,0.276875,0.0,0.0
884,220.75,44.5238,46.7362,135.817,99.2943,97.0279,0.00251668,0.0742781,21.0015,184.997,0.207239,0.0,0.0
886,221.25,45.0944,46.2872,142.997,99.2818,96.1311,0.00254148,0.0742693,21.0014,184.987,0.289451,0.0,0.0
888,221.75,44.2263,46.4538,139.796,99.281,96.1658,0.00256158,0.0742648,21.0014,184.987,0.286139,0.0,0.0
890,222.25,44.6236,46.4641,139.089,99.2564,97.5192,0.00256085,0.0742572,21.0014,184.997,0.158476,0.0,0.0
892,222.75,44.4292,46.9228,138.584,99.2746,96.4845,0.00256026,0.0742237,21.0014,184.987,0.255862,0.0,0.0
894,223.25,44.2499,46.9392,141.79,99.2774,96.8891,0.00254636,0.0741966,21.0014,184.987,0.218559,0.0,0.0
896,223.75,44.8638,47.0696,136.223,99.2508,97.2314,0.00252303,0.0741747,21.0014,184.987,0.184492,0.0,0.0
898,224.25,44.0746,47.1329,139.145,99.2444,97.383,0.00250413,0.0741569,21.0014,184.987,0.169934,0.0,0.0
900,224.75,44.6698,46.8345,137.306,99.2496,96.2953,0.00247669,0.0741354,21.0012,184.987,0.271217,0.0,0.0
902,225.25,44.4773,47.0983,139.873,99.2431,96.1624,0.00245446,0.0741115,21.0008,184.997,0.28303,0.0,0.0
904,225.75,44.147,46.6635,140.508,99.2315,96.7028,0.00244495,0.0740706,21.0005,184.987,0.231671,0.0,0.0
906,226.25,44.7805,46.5645,138.422,99.2266,95.6397,0.00243724,0.0740182,21.0002,184.987,0.330452,0.0,0.0
908,226.75,44.5094,46.6803,135.404,99.2323,96.4756,0.00244634,0.0739758,21,184.977,0.252863,0.0,0.0
910,227.25,44.4527,46.7479,137.329,99.2169,97.1019,0.0024675,0.0739414,21.0003,184.967,0.193393,0.0,0.0
912,227.75,44.3407,46.9146,137.961,99.2214,96.652,0.00249616,0.0739135,21.0005,184.967,0.235474,0.0,0.0
914,228.25,44.3199,46.5652,137.791,99.2008,96.9999,0.00252972,0.0739046,21.0007,184.967,0.201368,0.0,0.0
916,228.75,44.2313,46.3772,139.43,99.2234,96.1298,0.00255691,0.0738973,21.0008,184.967,0.284285,0.0,0.0
918,229.25,44.3991,46.8367,140.366,99.192,96.6165,0.00258744,0.0738771,21.0009,184.957,0.236114,0.0,0.0
920,229.75,44.1191,46.1763,139.483,99.1988,96.7219,0.00261217,0.0738479,21.001,184.977,0.226951,0.0,0.0
922,230.25,44.2853,46.6861,141.615,99.1863,96.2648,0.00262734,0.0738242,21.0011,184.967,0.268335,0.0,0.0
924,230.75,44.1673,46.5457,139.325,99.1859,96.4396,0.00263963,0.0738186,21.0011,184.967,0.252016,0.0,0.0
926,231.25,44.08,46.2752,139.561,99.1734,96.7583,0.00263621,0.0738141,21.0012,184.967,0.221276,0.0,0.0
928,231.75,43.6283,46.7807,136.78,99.1859,96.3528,0.00263345,0.073824,21.0012,184.967,0.260094,0.0,0.0
930,232.25,44.3034,46.3265,139.648,99.1529,96.2377,0.00261542,0.0738321,21.0013,184.967,0.267833,0.0,0.0
932,232.75,44.5381,46.8526,140.14,99.1678,96.7854,0.00260082,0.0737978,21.0013,184.947,0.218253,0.0,0.0
934,233.25,44.3951,46.4889,137.026,99.1557,96.961,0.00258899,0.0737701,21.0013,184.947,0.200886,0.0,0.0
936,233.75,43.7203,46.0891,139.939,99.1585,97.1142,,0.0737204,,184.967,0.186971,0.0,0.0
938,234.25,44.105,46.759,139.879,99.144,96.0765,,0.0736801,,184.987,0.282081,0.0,0.0
940,234.75,44.4175,46.5838,137.169,99.1505,95.8784,,0.0736475,,184.967,0.301187,0.0,0.0
942,235.25,44.0925,46.2356,140.431,99.1311,96.4514,,0.0736211,,184.947,0.245953,0.0,0.0
944,235.75,44.2168,46.7228,140.024,99.1359,97.6056,,0.0735926,,184.967,0.139631,0.0,0.0
946,236.25,44.1644,46.321,139.202,99.1243,96.4062,,0.073563,,184.947,0.249547,0.0,0.0
948,236.75,44.0476,46.2709,139.994,99.1202,96.6262,,,,184.967,0.228717,0.0,0.0
950,237.25,44.0024,46.7606,138.724,99.1178,96.3757,,,,184.957,0.251801,0.0,0.0
952,237.75,44.2011,46.2731,140.788,99.1174,97.322,,,,184.947,0.164065,0.0,0.0
954,238.25,44.3923,46.6846,138.495,99.0936,96.6343,,,,184.937,0.225562,0.0,0.0
956,238.75,44.4874,46.6197,138.87,99.094,96.3956,,,,184.917,0.247794,0.0,0.0
958,239.25,44.0967,46.2578,137.422,99.0823,96.1137,,,,184.887,0.273019,0.0,0.0
960,239.75,44.1146,46.576,134.934,99.0835,96.3101,,,,184.907,0.25481,0.0,0.0
962,240.25,44.4538,46.5567,141.027,99.069,96.3816,,,,184.917,0.246833,0.0,0.0
964,240.75,43.9577,46.3959,140.26,99.0606,96.0096,,,,184.927,0.280775,0.0,0.0
966,241.25,43.8676,46.2616,140.884,99.0586,96.8192,,,,184.917,0.205223,0.0,0.0
968,241.75,44.0178,46.4012,136.571,99.0541,96.7219,,,,184.907,0.21385,0.0,0.0
970,242.25,44.4968,45.9476,139.109,99.0513,96.7769,,,,184.917,0.20849,0.0,0.0
972,242.75,43.9616,46.117,144.093,99.0436,96.451,,,,184.917,0.23807,0.0,0.0
974,243.25,44.0806,46.6121,136.262,99.0513,96.8065,,,,184.917,0.205744,0.0,0.0
976,243.75,44.4267,46.2601,144.173,99.0489,96.6343,,,,184.917,0.221509,0.0,0.0
978,244.25,43.3453,45.8786,137.131,99.0344,96.4705,,,,184.907,0.235418,0.0,0.0