File: 01_Data/Roof_Felt/Cone/Roof_Felt_Underlayment_Cone_HF25Scan_220328_R3.csv
Names,Time,Stack TC,Smoke TC,Exh Press,Smoke Comp,Smoke Meas,CO Meter,CO2 Meter,O2 Meter,Sample Mass,Ext Coeff,Start Test,Flame Verif
Chan Gain,,500,500,1,1,1,1,1,1,1,1,1.0,1.0
Offset,,0,0,0.134123,0,0,0,0,0,0,0,0.0,0.0
Gain,,1,1,25.011,13.5775,14.0999,1,1,1,1.0009,1.03554,1.0,1.0
Units,sec,C,C,Pa,%,%,%,%,%,g,/m,,
Baseline,,17.4695,17.5247,166.826,100.971,94.4103,0.00027271,0.0438597,21.0383,-834.465,0.610337,,
2,0.25,17.1211,17.6438,167.141,102.291,95.6854,0.000374061,0.0564952,21.0213,197.017,0.606359,0.0,0.0
4,0.75,16.7852,16.7335,166.731,102.294,95.6871,0.000368513,0.0568132,21.021,197.137,0.606453,0.0,0.0
6,1.25,17.1889,17.3288,166.131,102.302,95.6755,0.000364662,0.0570967,21.0208,196.987,0.608292,0.0,0.0
8,1.75,16.8924,16.979,165.681,102.304,95.7246,0.00036212,0.0573192,21.0206,197.097,0.603856,0.0,0.0
10,2.25,17.0465,17.4674,165.076,102.298,95.7427,0.000360062,0.0574929,21.0205,197.037,0.601591,0.0,0.0
12,2.75,17.0739,16.9493,166.557,102.313,95.5705,0.000366945,0.0576552,21.0204,197.037,0.619222,0.0,0.0
14,3.25,16.9511,17.0848,166.515,102.313,95.6256,0.000372519,0.0578063,21.0203,197.067,0.614062,0.0,0.0
16,3.75,16.9045,17.2799,165.939,102.311,95.4526,0.000382822,0.0580587,21.0202,196.997,0.630288,0.0,0.0
18,4.25,16.5518,16.3663,167.098,102.32,95.5994,0.000396375,0.0583803,21.0197,197.067,0.617108,0.0,0.0
20,4.75,16.7677,17.2904,167.024,102.32,95.6794,0.000420218,0.0586408,21.0193,197.017,0.609543,0.0,0.0
22,5.25,16.3316,16.5307,163.138,102.319,95.5688,0.000451111,0.0592778,21.018,197.057,0.619937,0.0,0.0
24,5.75,16.5151,16.2338,169.005,102.328,95.8618,0.000483859,0.0597938,21.0171,197.027,0.592974,0.0,0.0
26,6.25,16.726,16.954,165.635,102.325,96.0228,0.000517336,0.0603275,21.0163,197.027,0.577406,0.0,0.0
28,6.75,16.831,16.6045,168.389,102.331,95.8868,0.000543808,0.0608641,21.0156,197.027,0.59083,0.0,0.0
30,7.25,17.1164,17.3823,168.318,102.332,95.8537,0.000564672,0.0613421,21.0151,197.007,0.59408,0.0,0.0
32,7.75,17.0732,17.4759,173.016,102.338,95.6764,0.000581571,0.0617685,21.0147,197.037,0.611411,0.0,0.0
34,8.25,16.8141,16.8658,162.419,102.344,95.6097,0.00057814,0.0621138,21.0146,196.997,0.61826,0.0,0.0
36,8.75,16.9127,16.9188,167.327,102.339,96.4595,0.00057536,0.0622422,21.0147,197.017,0.537434,0.0,0.0
38,9.25,17.1962,16.8133,163.136,102.334,95.9268,0.000573109,0.0623462,21.0148,196.997,0.587334,0.0,0.0
40,9.75,16.6046,16.7551,166.688,102.342,95.7569,0.000556617,0.0622105,21.0151,197.017,0.604179,0.0,0.0
42,10.25,16.5432,16.9718,168.655,102.339,95.7293,0.000543259,0.0621005,21.0156,197.007,0.60646,0.0,0.0
44,10.75,17.1447,16.8834,167.837,102.339,96.1751,0.000536105,0.0618884,21.0159,196.997,0.564258,0.0,0.0
46,11.25,16.9654,17.3392,163.486,102.342,96.102,0.000530311,0.061606,21.0162,196.987,0.571427,0.0,0.0
48,11.75,16.9482,16.4998,164.193,102.345,96.376,0.000533338,0.0612616,21.0165,196.977,0.545852,0.0,0.0
50,12.25,16.9543,16.5409,169.229,102.358,95.8924,0.000542738,0.0608784,21.0171,196.987,0.592728,0.0,0.0
52,12.75,17.119,17.2299,164.44,102.344,95.9096,0.000561939,0.0605681,21.0176,196.967,0.58981,0.0,0.0
54,13.25,17.0892,17.0269,164.214,102.339,95.9023,0.00058792,0.0602372,21.0181,196.967,0.590061,0.0,0.0
56,13.75,17.7849,17.1529,163.956,102.338,95.9423,0.000620559,0.0598977,21.0184,196.957,0.586198,0.0,0.0
58,14.25,16.6347,16.1985,164.902,102.339,95.9754,0.000657431,0.0595649,21.0187,196.847,0.583173,0.0,0.0
60,14.75,16.2605,16.1511,164.774,102.346,95.8868,0.000692452,0.0592432,21.0189,196.797,0.592191,0.0,0.0
62,15.25,17.296,17.6165,164.96,102.332,95.682,0.00072546,0.058896,21.0191,196.997,0.610364,0.0,0.0
64,15.75,17.124,17.0708,167.951,102.356,95.8911,0.000752195,0.0585368,21.0192,196.937,0.592629,0.0,0.0
66,16.25,17.4762,17.4185,163.38,102.337,95.7358,0.000770629,0.0581736,21.0193,196.947,0.605665,0.0,0.0
68,16.75,16.9326,17.2228,163.105,102.33,95.6764,0.000782661,0.0578144,21.0199,196.947,0.610675,0.0,0.0
70,17.25,16.1306,16.1063,168.355,102.329,95.6725,0.000785319,0.057444,21.0203,196.937,0.611006,0.0,0.0
72,17.75,16.6492,16.6219,168.824,102.323,95.8016,0.000781095,0.0570726,21.0207,196.937,0.598206,0.0,0.0
74,18.25,16.9874,16.9935,165.826,102.319,95.7087,0.000777673,0.0567717,21.0214,196.937,0.606692,0.0,0.0
76,18.75,17.1599,17.0717,166.652,102.313,95.8274,0.000774901,0.0564702,21.022,196.927,0.594876,0.0,0.0
78,19.25,17.2722,17.3269,166.447,102.312,95.9285,0.000744518,0.0561741,21.0226,196.927,0.585221,0.0,0.0
80,19.75,17.2918,17.0335,166.342,102.299,95.5723,0.000719908,0.0559342,21.0231,196.927,0.617845,0.0,0.0
82,20.25,17.2619,17.2588,165.338,102.293,95.234,0.000687747,0.055644,21.0236,196.907,0.649531,0.0,0.0
84,20.75,17.3906,16.8298,163.581,102.281,95.2366,0.000661697,0.0554088,21.0239,196.907,0.648219,0.0,0.0
86,21.25,16.7222,16.9136,165.169,102.277,95.5069,0.000629596,0.0552184,21.0245,196.907,0.622113,0.0,0.0
88,21.75,16.1702,16.5304,167.537,102.266,95.373,0.000603594,0.0549682,21.0251,196.907,0.633856,0.0,0.0
90,22.25,17.3539,17.7884,163.794,102.257,95.2956,0.000567869,0.0547655,21.0256,196.897,0.640463,0.0,0.0
92,22.75,17.2554,17.0821,166.995,102.243,95.2155,0.000538932,0.0545876,21.026,196.897,0.64688,0.0,0.0
94,23.25,17.2812,16.9453,167.602,102.242,95.2969,0.000515494,0.0544436,21.0264,196.887,0.638978,0.0,0.0
96,23.75,16.9387,17.0877,165.584,102.229,95.3868,0.000495287,0.0542857,21.0267,196.907,0.629231,0.0,0.0
98,24.25,17.0645,17.1207,170.021,102.22,95.3145,0.00047892,0.0541579,21.0269,196.897,0.635381,0.0,0.0
100,24.75,17.2429,17.2855,172.2,102.198,95.2379,0.000479102,0.0539173,21.0273,196.887,0.640695,0.0,0.0
102,25.25,16.3059,16.2923,168.056,102.195,95.2022,0.00047925,0.0537225,21.0278,196.887,0.643881,0.0,0.0
104,25.75,16.192,16.6996,166.767,102.175,95.2108,0.000490307,0.0535646,21.0283,196.877,0.641292,0.0,0.0
106,26.25,17.3466,17.3831,162.448,102.167,95.0994,0.000509106,0.0532724,21.0286,196.887,0.651195,0.0,0.0
108,26.75,16.6071,17.098,170.554,102.155,95.0094,0.00053077,0.0530357,21.0289,196.887,0.65872,0.0,0.0
110,27.25,17.2803,17.2727,165.316,102.15,95.0994,0.000554111,0.0527214,21.0296,196.877,0.649684,0.0,0.0
112,27.75,17.1804,17.1455,170.471,102.127,95.1312,0.000576236,0.0523566,21.0301,196.877,0.644579,0.0,0.0
114,28.25,16.9174,17.3079,166.444,102.127,95.2216,0.000597053,0.051953,21.0306,196.867,0.635992,0.0,0.0
116,28.75,16.8744,17.4656,164.137,102.103,95.1093,0.000616491,0.0515289,21.0309,196.867,0.6445,0.0,0.0
118,29.25,17.3923,17.6384,169.643,102.091,95.2383,0.000634554,0.0511133,21.0312,196.867,0.631184,0.0,0.0
120,29.75,17.491,17.1111,166.145,102.068,94.9328,0.000649186,0.0507119,21.0315,196.867,0.658306,0.0,0.0
122,30.25,16.9115,17.7349,162.496,102.055,94.8266,0.000690413,0.0503435,21.0314,196.867,0.667264,0.0,0.0
124,30.75,17.3978,17.8277,167.572,102.039,94.6032,0.000723808,0.0500063,21.0312,196.867,0.687281,0.0,0.0
126,31.25,17.4539,17.5465,167.013,102.024,94.5766,0.000808454,0.0498123,21.0308,196.857,0.688551,0.0,0.0
128,31.75,17.1772,17.0374,166.31,102.011,94.4733,0.000877017,0.0497265,21.0302,196.827,0.697258,0.0,0.0
130,32.25,16.8315,17.5821,167.716,102.003,94.3266,0.000979083,0.049657,21.0298,196.857,0.710713,0.0,0.0
132,32.75,17.2457,16.7671,164.774,101.976,94.0783,0.00110363,0.0508199,21.0267,196.867,0.732255,0.0,0.0
134,33.25,17.9315,17.5533,167.101,101.96,94.2857,0.00127907,0.0517619,21.0243,196.837,0.710812,0.0,0.0
136,33.75,17.046,16.9062,165.328,101.945,94.7272,0.00148827,0.0544088,21.0135,196.807,0.667049,0.0,1.0
138,34.25,16.5877,17.3323,162.051,101.932,93.8614,0.00173843,0.0582483,21.0047,196.817,0.749268,0.0,1.0
140,34.75,17.3112,17.5695,163.452,101.909,90.5176,0.00201369,0.0642572,20.9866,196.747,1.07679,0.0,1.0
142,35.25,17.5779,17.4078,162.364,101.897,89.4221,0.00234521,0.0717333,20.9719,196.757,1.18632,0.0,1.0
144,35.75,17.5602,17.4432,153.253,101.878,87.4466,0.00271145,0.0777889,20.9428,196.626,1.38751,0.0,1.0
146,36.25,16.8577,17.3713,158.544,101.872,83.9392,0.0030081,0.0921508,20.9192,196.696,1.75879,0.0,1.0
148,36.75,17.7412,17.4208,154.839,101.851,82.9324,0.00324839,0.103784,20.9,196.586,1.86661,0.0,1.0
150,37.25,17.5129,17.7042,152.26,101.851,82.4091,0.00385264,0.122843,20.8764,196.596,1.92406,0.0,1.0
152,37.75,18.1681,17.7414,151.461,101.83,81.7654,0.00434208,0.13828,20.85,196.536,1.99345,0.0,1.0
154,38.25,18.1385,18.4482,140.537,101.816,79.2572,0.00504069,0.160652,20.8204,196.486,2.27516,0.0,1.0
156,38.75,18.0229,18.0927,149.35,101.792,79.5834,0.00560657,0.178772,20.7891,196.436,2.23571,0.0,0.0
158,39.25,18.2416,18.2401,145.93,101.798,78.4405,0.00642448,0.200443,20.7552,196.366,2.36762,0.0,0.0
160,39.75,18.6391,19.0107,147.699,101.772,76.749,0.007087,0.224289,20.7199,196.316,2.56339,0.0,0.0
162,40.25,18.3676,18.3054,146.649,101.772,76.4237,0.00798001,0.243605,20.6914,196.246,2.6019,0.0,0.0
164,40.75,18.8505,18.5534,147.062,101.752,72.9125,0.00870336,0.277112,20.6515,196.206,3.02735,0.0,0.0
166,41.25,20.1041,19.995,141.242,101.735,71.9315,0.00928927,0.304252,20.6042,196.076,3.14889,0.0,0.0
168,41.75,20.3859,19.7966,138.359,101.722,71.0489,0.0101219,0.333503,20.5658,195.996,3.25992,0.0,0.0
170,42.25,20.6923,20.8347,139.625,101.721,71.7189,0.0111186,0.363738,20.5135,195.916,3.17452,0.0,0.0
172,42.75,20.869,21.9828,131.265,101.713,67.7524,0.0121665,0.3954,20.4711,195.816,3.69065,0.0,0.0
174,43.25,21.7653,21.9332,134.921,101.707,70.6853,0.0132319,0.427501,20.4191,195.736,3.30519,0.0,0.0
176,43.75,22.5059,22.5467,130.428,101.705,68.2701,0.0140949,0.453503,20.3769,195.616,3.62081,0.0,0.0
178,44.25,23.1096,23.6308,133.457,101.708,68.8832,0.0150839,0.486068,20.3428,195.535,3.53985,0.0,0.0
180,44.75,23.7959,23.5437,135.501,101.7,67.7765,0.016146,0.5228,20.2921,195.425,3.68628,0.0,0.0
182,45.25,24.3009,24.6254,129.986,101.705,67.4099,0.0171229,0.560874,20.2511,195.325,3.73595,0.0,0.0
184,45.75,25.1511,24.7394,125.737,101.708,67.1986,0.018019,0.599204,20.1878,195.225,3.76476,0.0,0.0
186,46.25,25.4356,26.0911,128.344,101.705,68.3798,0.0187448,0.63025,20.1365,195.105,3.60619,0.0,0.0
188,46.75,26.7144,26.5277,123.161,101.705,65.9233,0.0194221,0.670694,20.095,194.995,3.93856,0.0,0.0
190,47.25,27.0743,27.2519,126.282,101.703,65.8363,0.0199708,0.703454,20.0614,194.865,3.95033,0.0,0.0
192,47.75,27.9554,28.677,122.085,101.711,65.2873,0.0203623,0.731894,20.0341,194.765,4.02717,0.0,0.0
194,48.25,29.2228,29.3475,123.699,101.703,62.5011,0.0206795,0.756645,20.0121,194.675,4.4226,0.0,0.0
196,48.75,30.126,29.7823,125.102,101.714,60.7877,0.0207876,0.776694,19.9956,194.575,4.67606,0.0,0.0
198,49.25,30.7369,30.9679,132.008,101.714,63.6156,0.0208752,0.78827,19.9835,194.474,4.26302,0.0,0.0
200,49.75,31.169,31.815,129.104,101.713,63.7701,0.0208491,0.797648,19.9737,194.404,4.24091,0.0,0.0
202,50.25,31.7771,32.7881,136.199,101.72,65.73,0.0207405,0.797034,19.9803,194.314,3.96652,0.0,0.0
204,50.75,32.8103,33.3311,138.527,101.722,64.8647,0.0206526,0.796537,19.9857,194.244,4.08712,0.0,0.0
206,51.25,33.7217,34.2378,141.585,101.718,66.6375,0.0203294,0.789829,19.9985,194.164,3.84182,0.0,0.0
208,51.75,34.2247,34.9737,133.32,101.727,64.9413,0.0200677,0.778722,20.0163,194.084,4.07684,0.0,0.0
210,52.25,33.6996,34.9443,135.992,101.734,65.8325,0.0196797,0.764209,20.0308,194.024,3.95367,0.0,0.0
212,52.75,33.9866,35.0728,139.883,101.731,64.829,0.0193655,0.747489,20.0571,193.974,4.09294,0.0,0.0
214,53.25,35.1342,36.4229,146.288,101.725,63.076,0.0190243,0.733945,20.0784,193.904,4.34135,0.0,0.0
216,53.75,35.8762,36.8807,145.538,101.729,63.6306,0.0186699,0.711374,20.1085,193.824,4.2622,0.0,0.0
218,54.25,35.646,37.1847,145.176,101.727,62.5532,0.0182911,0.693091,20.1329,193.774,4.41714,0.0,0.0
220,54.75,36.0665,37.8536,145.533,101.727,64.0575,0.0179015,0.672856,20.1598,193.734,4.20132,0.0,0.0
222,55.25,36.2195,38.121,144.783,101.73,63.5399,0.017586,0.651583,20.1882,193.674,4.27528,0.0,0.0
224,55.75,36.9321,38.5077,147.079,101.731,62.1246,0.0172052,0.629905,20.2222,193.624,4.48,0.0,0.0
226,56.25,36.8506,38.894,149.078,101.721,63.1134,0.0168968,0.608343,20.2497,193.574,4.33563,0.0,0.0
228,56.75,37.1182,38.8337,142.897,101.737,65.996,0.0165078,0.590878,20.2776,193.514,3.93136,0.0,0.0
230,57.25,37.4551,38.8156,153.021,101.716,66.1311,0.0161927,0.568027,20.3052,193.484,3.91097,0.0,0.0
232,57.75,37.1636,39.2526,146.377,101.731,62.2296,0.0159375,0.549518,20.3276,193.424,4.46462,0.0,0.0
234,58.25,37.6448,39.2314,145.918,101.724,64.687,0.0154498,0.528701,20.3501,193.404,4.11219,0.0,0.0
236,58.75,37.6808,39.9712,154.451,101.729,65.9564,0.0150549,0.511839,20.3724,193.333,3.93614,0.0,0.0
238,59.25,38.1945,40.02,145.412,101.721,64.5782,0.0145427,0.49256,20.3946,193.313,4.12723,0.0,0.0
240,59.75,38.3893,39.585,147.791,101.736,66.7481,0.0141278,0.476944,20.4163,193.293,3.82838,0.0,0.0
242,60.25,37.997,40.5071,149.716,101.732,67.8682,0.0135824,0.460905,20.4384,193.263,3.67685,0.0,0.0
244,60.75,38.1638,40.3803,150.606,101.74,68.218,0.0131406,0.444862,20.4602,193.223,3.63081,0.0,0.0
246,61.25,38.3667,40.8016,149.155,101.732,70.5786,0.0126014,0.431868,20.4842,193.203,3.32114,0.0,0.0
248,61.75,38.2063,40.338,151.048,101.736,72.4771,0.0121647,0.417825,20.5092,193.163,3.0804,0.0,0.0
250,62.25,38.8664,40.3651,152.381,101.736,71.6401,0.0116547,0.403283,20.533,193.113,3.18586,0.0,0.0
252,62.75,38.758,40.3848,152.723,101.74,73.317,0.0112415,0.389164,20.5554,193.103,2.97603,0.0,0.0
254,63.25,38.6619,40.4671,157.255,101.738,73.0029,0.0107589,0.375619,20.5736,193.063,3.01488,0.0,0.0
256,63.75,39.02,40.6241,149.601,101.747,74.8721,0.010368,0.362591,20.5911,193.053,2.78608,0.0,0.0
258,64.25,38.474,40.4996,152.377,101.729,74.6505,0.0100514,0.350187,20.6078,193.013,2.81134,0.0,0.0
260,64.75,38.6167,40.8207,152.66,101.75,75.3002,0.00979489,0.338503,20.6213,192.993,2.7345,0.0,0.0
262,65.25,38.5856,40.4563,154.372,101.75,76.8493,0.00926124,0.327565,20.6337,192.983,2.54957,0.0,0.0
264,65.75,38.7465,41.139,153.653,101.774,79.2387,0.00882898,0.317192,20.6449,192.943,2.27358,0.0,0.0
266,66.25,38.4645,40.716,152.576,101.753,79.015,0.00841249,0.307426,20.6566,192.913,2.29738,0.0,0.0
268,66.75,38.1479,40.6751,160.263,101.755,79.9767,0.00801542,0.299516,20.6683,192.923,2.1876,0.0,0.0
270,67.25,38.1329,40.2661,156.507,101.757,81.6974,0.00763557,0.290802,20.6779,192.903,1.99446,0.0,0.0
272,67.75,38.3949,40.3405,161.791,101.762,82.0309,0.00727551,0.281666,20.69,192.893,1.95794,0.0,0.0
274,68.25,38.2743,40.5738,159.296,101.764,83.5886,0.00692054,0.274267,20.6998,192.843,1.78721,0.0,0.0
276,68.75,37.9325,40.5717,161.26,101.763,83.5916,0.00657603,0.266756,20.714,192.843,1.78677,0.0,0.0
278,69.25,38.4605,40.3433,159.502,101.769,83.0546,0.00629697,0.259307,20.7254,192.823,1.84587,0.0,0.0
280,69.75,37.986,40.6667,158.457,101.771,84.419,0.00596724,0.252305,20.7363,192.803,1.698,0.0,0.0
282,70.25,38.2957,40.5613,160.447,101.771,85.74,0.00570015,0.24576,20.7466,192.803,1.557,0.0,0.0
284,70.75,38.4567,40.6105,160.656,101.774,86.5477,0.00538163,0.239441,20.7564,192.763,1.47205,0.0,0.0
286,71.25,38.1127,40.069,157.044,101.784,87.45,0.00512363,0.233406,20.7655,192.743,1.37876,0.0,0.0
288,71.75,37.6328,39.73,157.908,101.787,86.7891,0.00486363,0.228518,20.7729,192.763,1.44793,0.0,0.0
290,72.25,37.8295,39.8323,163.22,101.778,87.728,0.00460711,0.222534,20.782,192.743,1.34942,0.0,0.0
292,72.75,37.4085,40.0444,162.35,101.794,88.6054,0.00437909,0.217686,20.7894,192.753,1.26043,0.0,0.0
294,73.25,37.3125,39.4204,160.969,101.792,89.1721,0.00417618,0.212128,20.798,192.743,1.20237,0.0,0.0
296,73.75,37.8992,39.9527,155.796,101.789,89.79,0.00401182,0.207626,20.805,192.713,1.13935,0.0,0.0
298,74.25,37.3176,39.36,159.67,101.791,90.5469,0.00385762,0.203064,20.8129,192.683,1.06328,0.0,0.0
300,74.75,37.0563,39.5906,160.692,101.793,91.0662,0.00373206,0.198544,20.8192,192.673,1.01155,0.0,0.0
302,75.25,37.1947,39.4415,159.168,101.793,91.3235,0.00362977,0.194095,20.8258,192.643,0.985881,0.0,0.0
304,75.75,36.9002,39.0776,165.991,101.81,91.7835,0.00354692,0.189781,20.8323,192.633,0.941795,0.0,0.0
306,76.25,37.1633,39.0484,160.118,101.802,92.1901,0.00349459,0.186286,20.8381,192.623,0.900902,0.0,0.0
308,76.75,36.7968,38.925,160.725,101.809,92.2327,0.00345221,0.182268,20.8432,192.623,0.897297,0.0,0.0
310,77.25,36.6313,38.864,157.59,101.803,92.8833,0.0034464,0.179013,20.8484,192.623,0.832965,0.0,0.0
312,77.75,36.6311,38.9158,159.835,101.814,93.1871,0.0034417,0.175467,20.8535,192.613,0.804266,0.0,0.0
314,78.25,36.3377,38.6589,154.566,101.81,94.0494,0.00347122,0.172594,20.8576,192.603,0.720227,0.0,0.0
316,78.75,36.5043,38.5872,164.982,101.813,94.0249,0.00352513,0.169361,20.8622,192.583,0.722817,0.0,0.0
318,79.25,35.7406,38.1437,156.755,101.813,93.7082,0.00356879,0.166742,20.866,192.583,0.753466,0.0,0.0
320,79.75,35.1222,37.5817,160.692,101.837,93.7168,0.00369748,0.163874,20.87,192.553,0.754849,0.0,0.0
322,80.25,35.8444,38.1011,157.513,101.815,93.7827,0.00380172,0.161551,20.8741,192.543,0.746511,0.0,0.0
324,80.75,36.2439,38.5433,162.885,101.827,93.8502,0.00398595,0.159141,20.8778,192.553,0.741005,0.0,0.0
326,81.25,35.6919,37.8402,160.083,101.835,93.0869,0.00413517,0.156713,20.8813,192.533,0.815892,0.0,0.0
328,81.75,36.2989,36.9272,161.908,101.836,92.9475,0.00434734,0.154747,20.8848,192.533,0.829617,0.0,0.0
330,82.25,35.5703,37.5217,158.433,101.835,93.1006,0.00451919,0.151954,20.8883,192.523,0.814548,0.0,0.0
332,82.75,35.5463,38.2614,159.546,101.845,93.2444,0.00463203,0.149692,20.8922,192.523,0.801424,0.0,0.0
334,83.25,34.4947,36.9527,162.259,101.852,93.6983,0.00482499,0.147275,20.8945,192.513,0.757972,0.0,0.0
336,83.75,34.5333,36.8124,161.601,101.857,94.083,0.00501036,0.144791,20.8983,192.513,0.721199,0.0,0.0
338,84.25,35.4876,37.2738,162.143,101.869,94.1493,0.00518668,0.142107,20.9041,192.503,0.715838,0.0,0.0
340,84.75,34.8032,37.4543,161.001,101.876,94.4414,0.0053295,0.139328,20.9088,192.493,0.688284,0.0,0.0
342,85.25,34.6295,37.1032,161.095,101.876,94.432,0.00551811,0.136429,20.9137,192.473,0.689194,0.0,0.0
344,85.75,34.2004,36.7049,159.854,101.874,94.3911,0.00567089,0.133497,20.9187,192.473,0.693017,0.0,0.0
346,86.25,34.5012,36.7948,165.893,101.89,94.7427,0.0058589,0.131595,20.9228,192.473,0.660614,0.0,0.0
348,86.75,34.63,36.8327,162.454,101.908,94.2435,0.00601118,0.128341,20.9268,192.483,0.710223,0.0,0.0
350,87.25,33.8698,35.9711,162.88,101.912,94.012,0.00613452,0.125706,20.9307,192.473,0.732933,0.0,0.0
352,87.75,33.0661,35.2967,162.714,101.924,94.2048,0.00628094,0.122349,20.9339,192.463,0.715397,0.0,0.0
354,88.25,33.9544,35.8521,164.274,101.94,94.2908,0.00644139,0.119629,20.9364,192.463,0.708543,0.0,0.0
356,88.75,33.9738,36.1459,160.159,101.943,94.3898,0.00660064,0.11691,20.9384,192.463,0.699234,0.0,0.0
358,89.25,33.6645,35.691,167.14,101.951,94.5374,0.00675599,0.114243,20.9418,192.463,0.685781,0.0,0.0
360,89.75,33.7349,36.0513,163.592,101.961,94.6523,0.00688183,0.112083,20.9446,192.443,0.675635,0.0,0.0
362,90.25,32.9583,35.5808,162.507,101.972,94.5671,0.00704074,0.109936,20.9477,192.443,0.684847,0.0,0.0
364,90.75,32.6508,34.9142,161.632,101.986,94.6932,0.00716947,0.107839,20.9503,192.433,0.673964,0.0,0.0
366,91.25,33.4369,35.7914,165.535,101.995,94.6247,0.00732319,0.105949,20.953,192.443,0.681305,0.0,0.0
368,91.75,33.2528,35.2581,165.562,102.016,94.66,0.0074477,0.104246,20.9559,192.433,0.679799,0.0,0.0
370,92.25,33.1618,35.1836,164.396,102.009,94.5615,0.00754856,0.102867,20.9582,192.433,0.688669,0.0,0.0
372,92.75,33.0601,35.1569,165.096,102.039,94.6282,0.00770011,0.101346,20.96,192.423,0.68492,0.0,0.0
374,93.25,32.7655,34.8435,162.346,102.041,94.5809,0.00782287,0.100113,20.9616,192.433,0.68965,0.0,0.0
376,93.75,32.7201,35.327,166.358,102.05,94.4862,0.00798464,0.0988638,20.9628,192.433,0.699484,0.0,0.0
378,94.25,32.3136,34.7422,164.872,102.065,94.1988,0.00811568,0.0978519,20.9638,192.433,0.728561,0.0,0.0
380,94.75,32.5679,34.1602,163.801,102.085,94.4217,0.00824596,0.0969809,20.9646,192.413,0.708825,0.0,0.0
382,95.25,32.0937,34.4825,164.425,102.095,94.8171,0.00837321,0.0962292,20.9652,192.393,0.671784,0.0,0.0
384,95.75,32.2535,34.2664,154.952,102.104,94.8106,0.00849239,0.0956203,20.9658,192.413,0.673178,0.0,0.0
386,96.25,32.0233,34.2807,163.368,102.121,94.8175,0.00860342,0.0952107,20.9662,192.363,0.674065,0.0,0.0
388,96.75,31.9426,33.7362,163.918,102.13,94.9423,0.00869336,0.0948789,20.9665,192.373,0.662856,0.0,0.0
390,97.25,31.9132,33.5723,166.513,102.142,94.7534,0.00877776,0.0946909,20.9668,192.363,0.682089,0.0,0.0
392,97.75,31.6569,33.7264,162.791,102.159,94.9462,0.00884613,0.0946112,20.9671,192.383,0.665138,0.0,0.0
394,98.25,31.3251,33.016,167.609,102.172,94.9832,0.00890916,0.0946274,20.9672,192.343,0.662741,0.0,0.0
396,98.75,30.8524,32.6068,166.645,102.188,94.9419,0.00896022,0.0947131,20.9672,192.353,0.668128,0.0,0.0
398,99.25,30.7543,32.4551,161.499,102.19,94.9019,0.00900157,0.0947826,20.9672,192.373,0.672105,0.0,0.0
400,99.75,30.6301,32.3055,163.102,102.188,94.9225,0.00905677,0.0949496,20.9672,192.343,0.669907,0.0,0.0
402,100.25,30.4595,32.12,165.742,102.204,94.8261,0.00910149,0.0950848,20.9672,192.333,0.68061,0.0,0.0
404,100.75,29.9092,32.2029,166.344,102.212,94.9152,0.00914577,0.0952237,20.9672,192.333,0.672818,0.0,0.0
406,101.25,30.2394,32.1429,163.226,102.22,95.2659,0.0091889,0.0953626,20.9672,192.333,0.639979,0.0,0.0
408,101.75,30.3661,31.8548,165.549,102.237,95.2164,0.00922384,0.0955045,20.9672,192.333,0.646209,0.0,0.0
410,102.25,30.2262,31.5307,163.27,102.263,95.3038,0.00925214,0.0956459,20.9672,192.313,0.640162,0.0,0.0
412,102.75,30.1571,31.592,170.055,102.258,95.3231,0.00927102,0.0957604,20.9669,192.303,0.637949,0.0,0.0
414,103.25,29.4816,31.5662,163.587,102.283,95.1609,0.00927717,0.0958385,20.9667,192.323,0.655591,0.0,0.0
416,103.75,29.3321,31.7377,164.193,102.292,95.5916,0.00928431,0.0958885,20.9662,192.333,0.615378,0.0,0.0
418,104.25,29.8787,31.0606,162.785,102.312,95.1669,0.00928706,0.0958923,20.9661,192.323,0.657628,0.0,0.0
420,104.75,29.5283,30.9849,166.412,102.319,95.1501,0.00928863,0.0958624,20.9658,192.313,0.65982,0.0,0.0
422,105.25,29.1571,31.2067,166.348,102.342,95.2138,0.00928957,0.0958088,20.9656,192.293,0.655802,0.0,0.0
424,105.75,29.0577,31.173,166.392,102.347,95.4277,0.00928982,0.0957389,20.9655,192.293,0.6359,0.0,0.0
426,106.25,29.0727,31.1041,166.332,102.368,95.216,0.0092869,0.0957091,20.9654,192.293,0.657913,0.0,0.0
428,106.75,29.3136,31.1397,161.185,102.369,95.1841,0.0092815,0.0956442,20.9653,192.283,0.661061,0.0,0.0
430,107.25,29.1088,30.6666,162.872,102.381,94.9655,0.00927713,0.0955917,20.9652,192.293,0.682939,0.0,0.0
432,107.75,28.3399,30.6157,164.372,102.397,95.0512,0.00926714,0.0955491,20.9651,192.303,0.676223,0.0,0.0
434,108.25,28.1429,30.0593,164.117,102.406,95.1661,0.00926107,0.0954999,20.9651,192.283,0.666058,0.0,0.0
436,108.75,28.5672,30.6629,164.499,102.409,95.4109,0.00925796,0.0954573,20.9652,192.262,0.642939,0.0,0.0
438,109.25,28.523,30.1054,166.352,102.426,95.1256,0.00925813,0.0953845,20.9653,192.252,0.671647,0.0,0.0
440,109.75,27.9006,30.0906,166.37,102.434,95.2784,0.00926069,0.0953255,20.9654,192.242,0.657807,0.0,0.0
442,110.25,28.7132,30.0119,164.801,102.463,95.2896,0.00926276,0.0951671,20.9659,192.242,0.659275,0.0,0.0
444,110.75,28.0052,29.9682,165.74,102.439,95.3033,0.00926444,0.0950387,20.9663,192.242,0.655868,0.0,0.0
446,111.25,27.7116,30.1627,163.278,102.456,95.2242,0.00928126,0.0948372,20.9666,192.242,0.664887,0.0,0.0
448,111.75,27.75,29.1461,165.435,102.461,95.5099,0.0093088,0.094674,20.9671,192.222,0.638152,0.0,0.0
450,112.25,28.1666,29.8053,166.06,102.474,95.4828,0.00934861,0.0944999,20.9675,192.222,0.641868,0.0,0.0
452,112.75,27.49,29.451,161.533,102.471,95.2293,0.0093966,0.0943589,20.9679,192.232,0.665754,0.0,0.0
454,113.25,27.9327,29.7761,165.044,102.483,95.2048,0.00943546,0.0942447,20.9682,192.222,0.669159,0.0,0.0
456,113.75,27.4292,29.4158,166.633,102.483,95.1084,0.0095015,0.0942498,20.9684,192.222,0.678398,0.0,0.0
458,114.25,27.2194,29.1225,164.242,102.502,95.1927,0.00955498,0.0942539,20.9686,192.212,0.671998,0.0,0.0
460,114.75,27.5787,29.0878,161.47,102.49,95.9789,0.00960086,0.0942866,20.9687,192.222,0.596187,0.0,0.0
462,115.25,26.3576,28.4259,163.672,102.497,95.3459,0.00963803,0.0943395,20.9688,192.232,0.656915,0.0,0.0
464,115.75,27.1338,27.8793,164.138,102.491,95.1312,0.00965661,0.0943824,20.9689,192.202,0.676916,0.0,0.0
466,116.25,27.4546,29.3963,163.742,102.499,95.2061,0.00967167,0.0944031,20.969,192.202,0.670468,0.0,0.0
468,116.75,26.9299,28.8092,163.773,102.499,95.33,0.00966972,0.0944199,20.9691,192.202,0.658652,0.0,0.0
470,117.25,26.5967,28.46,166.008,102.506,95.5305,0.00965542,0.0943749,20.9691,192.202,0.64019,0.0,0.0
472,117.75,26.8854,29.1091,171.801,102.512,95.4681,0.00964383,0.0942855,20.9692,192.202,0.646602,0.0,0.0
474,118.25,26.4907,27.7492,163.547,102.507,95.6303,0.00959354,0.0941912,20.969,192.182,0.630776,0.0,0.0
476,118.75,26.0742,27.1467,165.25,102.495,95.7229,0.00955281,0.0940949,20.9686,192.172,0.620928,0.0,0.0
478,119.25,26.5366,28.6859,166.473,102.5,96.0249,0.0094981,0.0940316,20.9683,192.162,0.592785,0.0,0.0
480,119.75,26.9014,28.4941,164.473,102.489,95.6579,0.00945379,0.0939936,20.968,192.142,0.626545,0.0,0.0
482,120.25,26.6226,28.3838,162.729,102.48,95.7517,0.00941789,0.0939627,20.9678,192.142,0.616906,0.0,0.0
484,120.75,26.0266,28.0232,167.543,102.474,95.7108,0.00936839,0.0939517,20.9672,192.122,0.620198,0.0,0.0
486,121.25,26.3729,27.5782,161.006,102.48,95.5482,0.0093283,0.0939428,20.9668,192.132,0.636199,0.0,0.0
488,121.75,26.2736,28.3377,165.329,102.454,95.6299,0.00929045,0.0939634,20.9664,192.152,0.626078,0.0,0.0
490,122.25,25.2641,26.5781,162.453,102.453,95.4019,0.00925496,0.0939801,20.966,192.132,0.647731,0.0,0.0
492,122.75,25.0839,27.1667,163.583,102.448,95.447,0.00921815,0.0939717,20.9658,192.132,0.642952,0.0,0.0
494,123.25,25.8123,27.9902,162.342,102.439,95.5047,0.00918109,0.093945,20.9656,192.112,0.636695,0.0,0.0
496,123.75,25.9065,27.2916,163.603,102.43,95.6893,0.00913764,0.0939234,20.9654,192.122,0.618383,0.0,0.0
498,124.25,26.2127,27.6678,162.562,102.427,95.3842,0.00909038,0.0938084,20.9657,192.132,0.647096,0.0,0.0
500,124.75,25.6724,27.396,165.091,102.405,95.2556,0.00903532,0.0937152,20.966,192.142,0.657372,0.0,0.0
502,125.25,25.8942,27.0879,164.045,102.38,95.6773,0.00897564,0.0936177,20.9662,192.132,0.615042,0.0,0.0
504,125.75,25.1968,27.3865,166.978,102.387,95.5731,0.00891189,0.0935189,20.9663,192.132,0.625596,0.0,0.0
506,126.25,24.4441,26.4784,161.443,102.363,95.1803,0.00884639,0.0933729,20.9673,192.112,0.66088,0.0,0.0
508,126.75,24.7229,26.3386,161.533,102.339,95.2069,0.00879332,0.0931953,20.9682,192.102,0.656201,0.0,0.0
510,127.25,25.4926,27.307,163.152,102.321,95.3377,0.00873963,0.0929634,20.9688,192.092,0.642148,0.0,0.0
512,127.75,25.7656,27.0921,165.572,102.315,95.2749,0.0086865,0.0926965,20.9694,192.072,0.647546,0.0,0.0
514,128.25,26.1029,27.247,163.136,102.301,95.3149,0.00864346,0.092407,20.9698,192.062,0.642555,0.0,0.0
516,128.75,25.359,27.3482,166.042,102.266,95.1011,0.00861502,0.0921066,20.9702,192.092,0.659793,0.0,0.0
518,129.25,25.391,26.7422,164.439,102.251,95.2246,0.00859199,0.0918632,20.9704,192.032,0.646681,0.0,0.0
520,129.75,25.5505,26.5943,167.407,102.231,95.2297,0.00858225,0.0914991,20.9705,192.032,0.644422,0.0,0.0
522,130.25,25.1801,26.4999,164.684,102.209,95.1355,0.00857435,0.0912042,20.9706,192.022,0.651425,0.0,0.0
524,130.75,25.1336,27.2691,165.874,102.182,95.092,0.00857941,0.0909653,20.9704,192.042,0.653219,0.0,0.0
526,131.25,25.1237,25.9661,165.417,102.148,95.0051,0.0085835,0.0906883,20.97,192.042,0.658505,0.0,0.0
528,131.75,25.2523,26.6667,164.689,102.131,95.1209,0.00859955,0.090464,20.9697,192.032,0.645897,0.0,0.0
530,132.25,25.2566,26.3023,164.853,102.118,95.0783,0.00861255,0.0903092,20.9695,192.052,0.648861,0.0,0.0
532,132.75,24.9996,26.6057,167.066,102.09,95.1381,0.00862911,0.0901838,20.9693,192.062,0.640604,0.0,0.0
534,133.25,24.5636,25.9729,161.445,102.079,95.1347,0.00864796,0.0900405,20.9691,192.042,0.640011,0.0,0.0
536,133.75,25.3102,25.8014,166.092,102.061,94.9733,0.00866322,0.0899245,20.9695,192.052,0.653809,0.0,0.0
538,134.25,24.6413,26.1529,169.036,102.033,95.089,0.00867558,0.0897887,20.9697,192.042,0.640238,0.0,0.0
540,134.75,24.2088,25.7571,164.095,102.013,94.9272,0.00867541,0.0896788,20.9707,192.012,0.653935,0.0,0.0
542,135.25,24.6291,26.1288,165.638,101.992,95.1127,0.00867527,0.0895019,20.9721,192.002,0.634288,0.0,0.0
544,135.75,24.7,26.0323,159.981,101.954,94.929,0.00864842,0.0892796,20.9733,192.002,0.648492,0.0,0.0
546,136.25,24.6018,25.6149,165.383,101.938,95.0069,0.00862668,0.0890995,20.9742,192.012,0.63964,0.0,0.0
548,136.75,23.8905,26.4925,163.429,101.918,94.8976,0.00857728,0.0889537,20.9752,192.002,0.648286,0.0,0.0
550,137.25,24.7018,26.1532,167.35,101.886,94.8782,0.00853726,0.0886409,20.9762,191.992,0.647296,0.0,0.0
552,137.75,24.5388,25.7238,162.304,101.871,95.0787,0.00848069,0.0883876,20.9773,191.982,0.626789,0.0,0.0
554,138.25,24.1055,25.416,163.426,101.85,94.9982,0.00843487,0.0880874,20.9783,191.982,0.632633,0.0,0.0
556,138.75,23.7833,26.1309,166.403,101.845,94.9879,0.00838439,0.0877586,20.9792,191.992,0.633176,0.0,0.0
558,139.25,24.3122,25.8167,159.486,101.813,94.9057,0.00833147,0.0874265,20.9804,191.992,0.638119,0.0,0.0
560,139.75,24.4739,25.9376,164.582,101.79,94.8214,0.00828125,0.0870983,20.9813,191.982,0.644198,0.0,0.0
562,140.25,24.022,26.1462,167.117,101.769,94.9079,0.00823396,0.0867521,20.9825,191.972,0.633994,0.0,0.0
564,140.75,23.9663,24.9997,166.316,101.745,94.8791,0.00819565,0.0863993,20.9834,191.952,0.634608,0.0,0.0
566,141.25,23.6513,25.5229,165.412,101.707,94.7345,0.00817464,0.0860113,20.9842,191.952,0.645094,0.0,0.0
568,141.75,24.2036,25.4538,170.39,101.693,94.6467,0.00816665,0.085605,20.9853,191.952,0.652256,0.0,0.0
570,142.25,24.0491,25.6292,170.483,101.652,94.7001,0.00816018,0.0851882,20.9862,191.962,0.643472,0.0,0.0
572,142.75,23.6671,25.1577,162.747,101.636,94.7977,0.00817272,0.0847718,20.9869,191.962,0.632737,0.0,0.0
574,143.25,23.7249,24.8881,162.625,101.615,94.7414,0.00818287,0.0844345,20.9874,191.972,0.636251,0.0,0.0
576,143.75,24.0013,24.8371,168.586,101.581,94.512,0.00818348,0.084092,20.9881,191.962,0.65523,0.0,0.0
578,144.25,23.7521,24.6527,166.046,101.541,94.4561,0.00818397,0.0838145,20.9889,191.962,0.657013,0.0,0.0
580,144.75,23.639,25.1141,163.326,101.525,94.2366,0.00815897,0.0836409,20.9895,191.952,0.676695,0.0,0.0
582,145.25,23.3527,24.9248,164.919,101.489,94.4363,0.00813872,0.0835462,20.99,191.942,0.654245,0.0,0.0
584,145.75,23.6172,24.8183,166.295,101.476,94.5133,0.00807918,0.0834695,20.9904,191.932,0.645652,0.0,0.0
586,146.25,23.3223,24.8193,167.04,101.43,94.6153,0.00803095,0.0833242,20.9908,191.922,0.631775,0.0,0.0
588,146.75,23.5149,24.3813,163.446,101.42,94.6114,0.00795134,0.0832065,20.9913,191.922,0.631256,0.0,0.0
590,147.25,23.5894,25.0092,169.887,101.387,94.4789,0.00788684,0.0829863,20.9919,191.902,0.641057,0.0,0.0
592,147.75,23.4904,24.6039,166.571,101.357,94.5598,0.00783461,0.082808,20.9924,191.922,0.630573,0.0,0.0
594,148.25,23.3921,24.9116,167.627,101.302,94.58,0.00774166,0.0825833,20.9928,191.922,0.62369,0.0,0.0
596,148.75,23.1284,24.6073,164.72,101.26,94.4797,0.00766637,0.0823291,20.9931,191.922,0.629571,0.0,0.0
598,149.25,23.0961,24.3594,169.212,101.221,94.4122,0.00758671,0.082094,20.9934,191.902,0.632573,0.0,0.0
600,149.75,23.0843,24.1454,165.345,101.179,94.4199,0.00750539,0.0818773,20.9936,191.912,0.628072,0.0,0.0
602,150.25,22.7295,24.224,160.511,101.158,94.4871,0.00743951,0.0817018,20.9938,191.912,0.619718,0.0,0.0
604,150.75,23.195,24.1142,164.595,101.114,94.5451,0.00736594,0.0815319,20.994,191.912,0.610191,0.0,0.0
606,151.25,22.6241,24.6331,167.154,101.065,94.7345,0.00730435,0.0813943,20.9943,191.912,0.587625,0.0,0.0
608,151.75,22.7289,24.6101,166.098,101.037,94.3937,0.00725266,0.0812828,20.9945,191.902,0.617829,0.0,0.0
610,152.25,22.8471,24.4097,166.461,100.989,94.3433,0.00721213,0.0811102,20.9947,191.882,0.618353,0.0,0.0
612,152.75,22.9179,23.8494,164.477,100.971,94.2018,0.00718049,0.0809705,20.9948,191.892,0.630316,0.0,0.0
614,153.25,22.8234,24.0872,165.198,100.938,94.2741,0.00715487,0.0807326,20.9949,191.892,0.620402,0.0,0.0
616,153.75,22.9005,24.5068,161.545,100.902,94.2504,0.00714461,0.0805399,20.995,191.892,0.619438,0.0,0.0
618,154.25,22.0805,23.4558,159.903,100.866,94.1807,0.00712706,0.0803284,20.995,191.872,0.622952,0.0,0.0
620,154.75,21.8612,22.4352,163.483,100.848,94.0378,0.00711285,0.0800915,20.9951,191.862,0.635061,0.0,0.0
622,155.25,22.4097,24.2189,166.996,100.834,94.0537,0.00708745,0.0798406,20.9954,191.862,0.632329,0.0,0.0
624,155.75,22.9075,23.7939,165.561,100.803,94.0404,0.00706687,0.0796373,20.9958,191.842,0.630816,0.0,0.0
626,156.25,22.4787,23.749,164.486,100.792,94.0142,0.00702748,0.0791959,20.9962,191.852,0.632307,0.0,0.0
628,156.75,22.5364,23.6599,160.985,100.765,93.9544,0.00699557,0.0790077,20.9965,191.852,0.63566,0.0,0.0
630,157.25,22.7857,23.719,164.254,100.739,93.9272,0.00696973,0.0786859,20.9967,191.872,0.635928,0.0,0.0
632,157.75,22.7205,23.5859,165.271,100.719,94.0968,0.0069123,0.0782731,20.9967,191.852,0.617828,0.0,0.0
634,158.25,21.6997,22.6785,161.839,100.692,93.7788,0.00683292,0.0779387,20.9964,191.852,0.646073,0.0,0.0
636,158.75,21.6019,22.9476,159.739,100.675,93.941,0.00674676,0.0776096,20.9962,191.852,0.628841,0.0,0.0
638,159.25,22.5949,23.5239,165.109,100.662,93.8076,0.00665729,0.0772906,20.996,191.862,0.640626,0.0,0.0
640,159.75,21.8346,23.0604,162.507,100.641,93.7444,0.00657228,0.0770323,20.9958,191.882,0.644846,0.0,0.0
642,160.25,22.3898,23.9138,169.089,100.618,93.6936,0.0065301,0.076772,20.9962,191.892,0.647636,0.0,0.0
644,160.75,22.5346,23.7838,167.771,100.596,93.8197,0.00645796,0.0765154,20.9963,191.892,0.633476,0.0,0.0
646,161.25,22.433,23.4421,164.384,100.582,93.8326,0.00639199,0.0762566,20.9965,191.902,0.630954,0.0,0.0
648,161.75,22.3384,23.6074,166.06,100.552,93.7074,0.00633856,0.0760012,20.9965,191.902,0.640426,0.0,0.0
650,162.25,21.389,21.7774,166.62,100.569,93.8373,0.00629461,0.0757284,20.9965,191.862,0.629335,0.0,0.0
652,162.75,21.6487,22.5279,163.184,100.52,93.7986,0.00625842,0.0754481,20.9966,191.852,0.62863,0.0,0.0
654,163.25,22.351,22.5702,168.638,100.504,93.7603,0.0062291,0.0753286,20.9966,191.832,0.630916,0.0,0.0
656,163.75,22.2693,23.0551,168.179,100.494,93.7556,0.00620159,0.0749999,20.9966,191.832,0.630514,0.0,0.0
658,164.25,22.0436,23.3899,164.99,100.49,93.8808,0.0061793,0.0747337,20.9966,191.832,0.618016,0.0,0.0
660,164.75,22.0024,23.3395,171.249,100.464,93.8171,0.0061625,0.0744672,20.9966,191.842,0.621783,0.0,0.0
662,165.25,22.4889,23.3137,165.956,100.443,93.5787,0.00614889,0.0742055,20.9966,191.812,0.642981,0.0,0.0
664,165.75,22.01,23.5542,167.618,100.451,93.6269,0.0061341,0.0739935,20.9967,191.802,0.639054,0.0,0.0
666,166.25,21.0519,22.2155,166.025,100.426,93.555,0.00612212,0.0737528,20.9967,191.822,0.64378,0.0,0.0
668,166.75,20.8236,22.3348,159.674,100.419,93.5985,0.00610739,0.0735578,20.9969,191.822,0.638887,0.0,0.0
670,167.25,22.4252,23.2048,162.981,100.407,93.6381,0.00609545,0.0733998,20.9973,191.832,0.633996,0.0,0.0
672,167.75,21.9743,22.5592,167.599,100.402,93.7646,0.00607824,0.0732719,20.9976,191.832,0.621282,0.0,0.0
674,168.25,21.7929,22.4883,167.608,100.396,93.5404,0.00606431,0.0731268,20.9979,191.812,0.642465,0.0,0.0
676,168.75,22.0282,22.7989,163.694,100.38,93.8278,0.00604111,0.0730093,20.9981,191.812,0.613133,0.0,0.0
678,169.25,21.7034,23.2042,165.271,100.374,93.7168,0.00601162,0.0728175,20.9983,191.812,0.623399,0.0,0.0
680,169.75,21.6663,22.5039,166.302,100.367,93.5189,0.00598772,0.0726621,20.9984,191.822,0.641967,0.0,0.0
682,170.25,21.69,23.1861,160.756,100.359,93.5658,0.00593322,0.0723844,20.9988,191.852,0.6367,0.0,0.0
684,170.75,21.9601,22.8654,166.231,100.354,93.7099,0.00588907,0.0721595,20.9993,191.842,0.62219,0.0,0.0
686,171.25,21.4255,22.7273,168.013,100.351,93.6428,0.00581944,0.0719047,20.9997,191.822,0.628437,0.0,0.0
688,171.75,21.955,22.9978,161.514,100.346,93.6058,0.00576304,0.071633,21,191.792,0.631578,0.0,0.0
690,172.25,21.2693,22.2763,169.555,100.332,93.626,0.00567851,0.0714128,21.0002,191.782,0.62834,0.0,0.0
692,172.75,21.334,22.3077,165.196,100.319,93.4608,0.00561005,0.0710828,21.0004,191.792,0.64326,0.0,0.0
694,173.25,21.4482,22.2934,163.395,100.335,93.7642,0.00553548,0.0708155,21.0006,191.792,0.615287,0.0,0.0
696,173.75,21.6463,22.8541,165.317,100.331,93.7797,0.00545788,0.0705162,21.0012,191.782,0.613373,0.0,0.0
698,174.25,21.4426,22.0036,165.523,100.32,93.4298,0.00537594,0.0702738,21.0017,191.762,0.646385,0.0,0.0
700,174.75,21.2174,22.3409,163.387,100.321,93.4014,0.00529239,0.0700411,21.0025,191.762,0.649184,0.0,0.0
702,175.25,21.3808,22.7597,170.165,100.324,93.5434,0.00522471,0.06982,21.0032,191.772,0.635647,0.0,0.0
704,175.75,21.2127,22.5357,165.089,100.314,93.4608,0.00514096,0.0695829,21.0037,191.792,0.64281,0.0,0.0
706,176.25,21.2193,22.4774,169.116,100.329,93.7741,0.00504709,0.0693386,21.0041,191.822,0.613728,0.0,0.0
708,176.75,20.9777,22.5036,168.27,100.324,93.5077,0.0049507,0.0691407,21.0045,191.822,0.639115,0.0,0.0
710,177.25,21.1383,22.4842,167.584,100.315,93.5619,0.0048543,0.0687875,21.0052,191.822,0.633024,0.0,0.0
712,177.75,21.3407,22.7665,166.455,100.309,93.3859,0.00476572,0.0685014,21.0058,191.812,0.649639,0.0,0.0
714,178.25,21.4651,22.2785,163.417,100.313,93.6725,0.00468452,0.0681181,21.0063,191.812,0.622107,0.0,0.0
716,178.75,20.9742,22.1236,168.498,100.313,93.7392,0.00461547,0.0678076,21.0067,191.772,0.615679,0.0,0.0
718,179.25,20.9675,22.3709,162.677,100.328,93.6407,0.00455659,0.0675054,21.007,191.782,0.626583,0.0,0.0
720,179.75,21.3302,21.9411,166.953,100.32,93.7611,0.00450889,0.0672149,21.0077,191.812,0.614153,0.0,0.0
722,180.25,21.2313,22.8234,168.47,100.314,93.5839,0.00447026,0.0669434,21.0082,191.742,0.630857,0.0,0.0
724,180.75,21.336,22.0649,162.508,100.324,93.5826,0.00446015,0.0666909,21.0088,191.772,0.631882,0.0,0.0
726,181.25,21.3655,22.0883,161.542,100.331,93.4604,0.00445197,0.0664646,21.0094,191.782,0.644352,0.0,0.0
728,181.75,20.8632,22.297,163.778,100.317,93.4044,0.00445532,0.0662617,21.0098,191.762,0.648515,0.0,0.0
730,182.25,21.1252,21.8104,164.543,100.323,93.6015,0.00445803,0.0660974,21.0102,191.762,0.62997,0.0,0.0
732,182.75,20.712,22.0687,167.516,100.313,93.3851,0.00446023,0.0659643,21.0105,191.752,0.650023,0.0,0.0
734,183.25,20.485,22.0327,167.973,100.342,93.512,0.00444704,0.0657876,21.0105,191.762,0.640385,0.0,0.0
736,183.75,21.1465,21.8831,164.326,100.318,93.6192,0.00443637,0.0656446,21.0103,191.762,0.62777,0.0,0.0
738,184.25,21.5712,22.1791,163.216,100.322,93.7319,0.00441132,0.0654345,21.0102,191.782,0.617214,0.0,0.0
740,184.75,21.2505,21.6694,160.131,100.317,93.7702,0.00437627,0.0651796,21.0105,191.812,0.613052,0.0,0.0
742,185.25,20.8934,21.8463,166.547,100.335,93.6334,0.00432954,0.0649731,21.0107,191.812,0.62793,0.0,0.0
744,185.75,20.3675,21.6672,165.17,100.335,93.7857,0.00427517,0.064627,21.0109,191.822,0.613128,0.0,0.0
746,186.25,20.898,21.6439,165.964,100.339,93.6058,0.00421869,0.0643467,21.0111,191.812,0.630977,0.0,0.0
748,186.75,21.1322,21.8189,167.245,100.336,93.5994,0.00416174,0.0639408,21.0108,191.812,0.631342,0.0,0.0
750,187.25,21.0362,21.7049,164.629,100.355,93.8459,0.00410776,0.0636121,21.0106,191.802,0.609133,0.0,0.0
752,187.75,21.1146,21.3233,160.988,100.333,93.6837,0.00405697,0.063259,21.0108,191.812,0.62286,0.0,0.0
754,188.25,21.0796,21.2657,164.326,100.333,93.537,0.00400732,0.0628948,21.011,191.782,0.637136,0.0,0.0
756,188.75,20.8305,21.6746,165.078,100.339,93.5864,0.00395946,0.062513,21.0116,191.782,0.632857,0.0,0.0
758,189.25,20.627,21.5137,167.223,100.336,93.7861,0.00392068,0.0621257,21.0121,191.772,0.613236,0.0,0.0
760,189.75,20.9791,21.5842,165.899,100.347,93.8003,0.00384457,0.0617613,21.0125,191.762,0.612799,0.0,0.0
762,190.25,20.2137,21.4563,166.895,100.351,93.984,0.00378291,0.0614206,21.0128,191.752,0.595436,0.0,0.0
764,190.75,20.9797,21.6802,171.984,100.361,93.5899,0.00371012,0.0611012,21.013,191.742,0.634511,0.0,0.0
766,191.25,19.2481,20.5604,166.431,100.364,93.7495,0.00363059,0.0608035,21.0132,191.742,0.619254,0.0,0.0
768,191.75,19.9304,20.575,163.339,100.353,93.4079,0.00356618,0.0605624,21.0134,191.732,0.651445,0.0,0.0
770,192.25,20.6983,21.8906,161.072,100.359,93.7104,0.00349788,0.060216,21.014,191.732,0.6226,0.0,0.0
772,192.75,21.0551,21.5514,169.607,100.358,93.6441,0.00344257,0.0599354,21.0145,191.732,0.628949,0.0,0.0
774,193.25,20.9437,21.9376,168.414,100.361,93.6488,0.0033928,0.0596358,21.0151,191.722,0.628791,0.0,0.0
776,193.75,20.7837,21.6446,168.379,100.355,93.7065,0.00335249,0.0593282,21.0158,191.722,0.622674,0.0,0.0
778,194.25,21.1263,21.5272,164.917,100.365,93.8188,0.00331737,0.059079,21.0164,191.722,0.612657,0.0,0.0
780,194.75,20.8345,21.0343,164.719,100.369,93.756,0.00328891,0.0587673,21.0168,191.722,0.619154,0.0,0.0
782,195.25,20.7019,21.8517,163.529,100.371,93.697,0.0032613,0.0585149,21.0172,191.732,0.624979,0.0,0.0
784,195.75,20.696,21.032,166.563,100.366,93.7396,0.00323483,0.0582829,21.0175,191.722,0.620476,0.0,0.0
786,196.25,20.8324,21.3771,164.387,100.371,93.8261,0.00321338,0.0580951,21.0177,191.722,0.612511,0.0,0.0
788,196.75,20.3234,21.0939,163.305,100.369,93.6342,0.00317992,0.0579154,21.0182,191.712,0.630884,0.0,0.0
790,197.25,20.9148,21.4807,164.906,100.374,93.8941,0.00315281,0.05777,21.0187,191.722,0.606194,0.0,0.0
792,197.75,20.6414,21.2876,161.508,100.366,93.8291,0.00311599,0.057616,21.0192,191.722,0.611732,0.0,0.0
794,198.25,20.6162,20.7525,158.738,100.37,93.6282,0.00308617,0.0574588,21.0196,191.712,0.631582,0.0,0.0
796,198.75,20.6368,21.888,166.12,100.374,93.7112,0.00304717,0.0572953,21.0201,191.712,0.623903,0.0,0.0
798,199.25,20.6349,21.272,164.385,100.374,93.8846,0.00303054,0.0571305,21.0204,191.752,0.607148,0.0,0.0
800,199.75,20.7721,21.2654,167.728,100.366,93.8007,0.00298726,0.0569969,21.021,191.732,0.614558,0.0,0.0
802,200.25,20.2866,20.9027,163.977,100.375,93.9845,0.00295221,0.0568201,21.0215,191.732,0.597531,0.0,0.0
804,200.75,20.3835,21.7801,162.662,100.366,93.648,0.0029065,0.0566769,21.0218,191.732,0.629325,0.0,0.0
806,201.25,20.4804,21.2447,163.199,100.37,93.5154,0.00286948,0.0565198,21.0226,191.742,0.642564,0.0,0.0
808,201.75,20.2046,20.7768,169.665,100.373,93.7861,0.00282454,0.0563925,21.0232,191.752,0.616536,0.0,0.0
810,202.25,20.2742,21.1688,163.786,100.385,93.6803,0.00277467,0.0563094,21.0237,191.802,0.62792,0.0,0.0
812,202.75,20.6897,20.8275,160.93,100.365,93.9096,0.00273428,0.0561672,21.0241,191.762,0.603908,0.0,0.0
814,203.25,20.5526,21.0642,166.162,100.37,94.0193,0.00270156,0.056016,21.0244,191.752,0.593713,0.0,0.0
816,203.75,20.6715,20.7321,164.613,100.369,94.0077,0.00265946,0.055861,21.0247,191.752,0.594761,0.0,0.0
818,204.25,20.7407,21.0041,170.981,100.366,94.0008,0.00261132,0.055685,21.0246,191.772,0.595164,0.0,0.0
820,204.75,20.4159,20.5885,162.439,100.356,93.7461,0.00257233,0.0554969,21.0245,191.812,0.618876,0.0,0.0
822,205.25,20.9885,21.4213,164.995,100.367,93.8266,0.00252348,0.0553445,21.0244,191.752,0.612095,0.0,0.0
824,205.75,20.504,21.0519,162.375,100.354,93.716,0.0024839,0.0552212,21.0244,191.782,0.621645,0.0,0.0
826,206.25,20.081,21.2586,158.286,100.355,93.7831,0.00244198,0.0549567,21.0243,191.772,0.615253,0.0,0.0
828,206.75,20.0038,20.9923,164.498,100.344,93.7633,,0.0547425,,191.772,0.616158,0.0,0.0
830,207.25,20.0287,20.3134,169.431,100.35,93.6682,,0.0545257,,191.782,0.625938,0.0,0.0
832,207.75,20.0409,20.8387,170.482,100.356,93.8223,,0.0543112,,191.742,0.611499,0.0,0.0
834,208.25,20.5695,20.7996,163.373,100.345,93.8507,,0.0541374,,191.712,0.607775,0.0,0.0
836,208.75,19.7771,20.6433,168.679,100.35,93.8735,,0.0539555,,191.662,0.606055,0.0,0.0
838,209.25,20.0104,21.0566,165.415,100.332,93.7422,,0.0538082,,191.692,0.61715,0.0,0.0
840,209.75,19.8431,20.5487,164.24,100.333,93.5266,,,,191.662,0.638101,0.0,0.0
842,210.25,19.9718,20.1868,163.112,100.324,93.6566,,,,191.662,0.624664,0.0,0.0
844,210.75,20.1615,20.8488,163.123,100.331,93.6226,,,,191.712,0.628637,0.0,0.0
846,211.25,20.0942,21.0389,165.709,100.316,93.6613,,,,191.772,0.623491,0.0,0.0
848,211.75,19.9342,20.4854,169.714,100.337,93.6217,,,,191.752,0.629283,0.0,0.0
850,212.25,20.5966,20.6693,162.142,100.312,93.9548,,,,191.762,0.5947,0.0,0.0
852,212.75,19.9035,20.709,165.17,100.323,93.8244,,,,191.762,0.608289,0.0,0.0
854,213.25,19.8903,20.331,165.794,100.317,93.6936,,,,191.762,0.620475,0.0,0.0
856,213.75,20.2985,20.5998,166.35,100.327,93.8507,,,,191.762,0.606161,0.0,0.0
858,214.25,20.0787,20.4496,161.809,100.316,93.8334,,,,191.752,0.606814,0.0,0.0
860,214.75,20.3408,20.3484,164.15,100.321,93.9931,,,,191.762,0.591824,0.0,0.0
862,215.25,20.254,20.6022,164.221,100.311,93.7194,,,,191.762,0.617409,0.0,0.0
864,215.75,20.1834,20.4014,164.258,100.32,93.9578,,,,191.742,0.595121,0.0,0.0
866,216.25,18.8368,19.3655,166.231,100.308,93.6514,,,,191.742,0.623701,0.0,0.0
868,216.75,19.554,19.7327,167.25,100.307,93.8773,,,,191.722,0.601741,0.0,0.0
870,217.25,20.1548,20.5983,167.602,100.31,93.9479,,,,191.732,0.595216,0.0,0.0