File: 01_Data/Roof_Felt/Cone/Roof_Felt_Underlayment_Cone_HF50Scan_220328_R3.csv
Names,Time,Stack TC,Smoke TC,Exh Press,Smoke Comp,Smoke Meas,CO Meter,CO2 Meter,O2 Meter,Sample Mass,Ext Coeff,Start Test,Flame Verif
Chan Gain,,500,500,1,1,1,1,1,1,1,1,1.0,1.0
Offset,,0,0,0.138301,0,0,0,0,0,0,0,0.0,0.0
Gain,,1,1,25.011,13.2062,13.8682,1,1,1,1.0009,1.02317,1.0,1.0
Units,sec,C,C,Pa,%,%,%,%,%,g,/m,,
Baseline,,31.1401,32.3925,146.491,98.5732,96.5014,0.00104558,0.067749,21.0097,-834.819,0.190668,,
3,0.5,30.2023,31.4236,152.012,99.9029,97.587,0.000688361,0.0743737,21.0044,168.592,0.210511,0.0,0.0
6,1.25,30.0091,31.5161,148.224,99.8702,97.8362,0.00068112,0.0742115,21.0047,168.412,0.184682,0.0,0.0
9,2,29.5221,30.8461,149.223,99.869,97.6695,0.000672755,0.0740199,21.0051,168.562,0.199883,0.0,0.0
12,2.75,29.7978,31.2656,142.993,99.8582,97.9492,0.000694521,0.0737034,21.0053,168.552,0.173234,0.0,0.0
15,3.5,29.48,30.7005,148.46,99.8477,98.5053,0.000758036,0.0733187,21.0058,168.392,0.121479,0.0,0.0
18,4.25,29.1942,30.9182,143.348,99.8295,98.1143,0.000818204,0.0730277,21.006,168.452,0.15555,0.0,0.0
21,5,29.6787,31.1963,147.955,99.815,97.2661,0.000893742,0.0726916,21.0063,168.432,0.232169,0.0,0.0
24,5.75,29.8837,30.7583,143.325,99.807,96.6791,0.000951378,0.0722721,21.0065,168.392,0.285774,0.0,0.0
27,6.5,29.6816,31.3778,145.357,99.7755,97.6238,0.00098014,0.0719392,21.0062,168.432,0.195678,0.0,0.0
30,7.25,30.1631,31.108,148.523,99.7562,97.2192,0.000995457,0.0717609,21.0052,168.412,0.231212,0.0,0.0
33,8,29.9188,31.1027,145.141,99.732,97.1299,0.00105364,0.0716518,21.0045,168.372,0.237285,0.0,0.0
36,8.75,29.6809,31.4851,145.831,99.7066,95.8915,0.00119244,0.0719936,21.0035,168.372,0.350164,0.0,0.0
39,9.5,30.2879,30.8588,145.066,99.6998,95.6617,0.00155402,0.0724224,21.0019,168.362,0.371082,0.0,0.0
42,10.25,29.6117,31.0227,147.278,99.6562,95.6198,0.00203964,0.0782232,20.9871,168.322,0.371095,0.0,0.0
45,11,30.2089,31.3009,140.917,99.6216,93.6717,0.00275389,0.0847917,20.9469,168.482,0.552717,0.0,0.0
48,11.75,30.2877,31.5583,139.784,99.5934,85.5412,0.00388895,0.110295,20.8885,168.292,1.36511,0.0,1.0
51,12.5,30.2195,31.4886,128.438,99.5478,75.9039,0.00491285,0.146731,20.8176,168.091,2.4338,0.0,1.0
54,13.25,29.8632,31.3805,131.935,99.5059,68.9813,0.00647027,0.192476,20.7313,167.991,3.28835,0.0,1.0
57,14,30.5686,32.1674,119.584,99.46,63.8755,0.0085436,0.257859,20.6338,167.941,3.9744,0.0,1.0
60,14.75,31.4559,32.4117,116.445,99.431,61.2608,0.0106246,0.326453,20.5288,167.761,4.3469,0.0,1.0
63,15.5,31.6723,32.4164,116.027,99.406,60.5942,0.0126837,0.405834,20.4023,167.561,4.44284,0.0,1.0
66,16.25,32.6686,33.7836,109.086,99.4261,58.6042,0.0150416,0.476225,20.2637,167.431,4.74436,0.0,1.0
69,17,33.069,34.2548,111.346,99.4281,57.5364,0.0173847,0.569847,20.1428,167.211,4.90959,0.0,1.0
72,17.75,33.8796,35.1902,108.71,99.4334,55.1655,0.0193589,0.66033,20.0085,167.02,5.28773,0.0,0.0
75,18.5,35.5742,37.1754,106.406,99.4576,54.62,0.0218032,0.748946,19.8773,166.78,5.37911,0.0,0.0
78,19.25,37.1973,38.4488,105.225,99.466,52.8353,0.0240134,0.836078,19.7675,166.59,5.67805,0.0,0.0
81,20,38.6583,40.1643,100.168,99.4737,52.2047,0.0270497,0.939864,19.6432,166.32,5.7865,0.0,0.0
84,20.75,40.0039,41.6985,102.784,99.4934,49.8151,0.0295213,1.0481,19.5307,166.1,6.2088,0.0,0.0
87,21.5,41.4415,43.1334,93.3937,99.5091,47.8408,0.0317643,1.1409,19.4436,165.799,6.57317,0.0,0.0
90,22.25,43.5992,45.6728,101.507,99.5176,48.7575,0.0337552,1.21275,19.3801,165.579,6.40359,0.0,0.0
93,23,45.9172,48.0745,103.066,99.5349,46.6537,0.0351764,1.26692,19.3338,165.409,6.80102,0.0,0.0
96,23.75,48.0225,50.5623,111.886,99.5474,48.5624,0.0360466,1.27554,19.3,165.199,6.44226,0.0,0.0
99,24.5,49.795,52.1579,112.239,99.5635,45.5643,0.0364194,1.26288,19.2881,165.079,7.01566,0.0,0.0
102,25.25,50.6529,54.3567,109.951,99.5837,41.8636,0.0362664,1.23412,19.3011,164.949,7.77774,0.0,0.0
105,26,52.4698,55.8013,115.235,99.6083,47.2864,0.0354282,1.19356,19.339,164.798,6.68673,0.0,0.0
108,26.75,53.7598,57.716,113.039,99.6236,46.6888,0.0343103,1.14173,19.3787,164.688,6.80226,0.0,0.0
111,27.5,54.6321,58.7073,117.409,99.6498,49.3661,0.0326288,1.09444,19.4565,164.608,6.30416,0.0,0.0
114,28.25,55.3481,59.5851,121.037,99.6691,54.4854,0.0306154,1.0238,19.535,164.558,5.42033,0.0,0.0
117,29,56.0878,60.2633,126.213,99.6909,54.0004,0.028812,0.956888,19.6298,164.508,5.50254,0.0,0.0
120,29.75,56.8535,61.3038,128.797,99.7139,60.8359,0.026372,0.874025,19.7409,164.418,4.43487,0.0,0.0
123,30.5,57.1638,61.6504,128.693,99.7449,66.8774,0.024006,0.802044,19.8601,164.338,3.58788,0.0,0.0
126,31.25,57.1857,61.9352,132.342,99.784,70.4041,0.0217856,0.729777,19.9817,164.298,3.13015,0.0,0.0
129,32,57.0083,61.9555,134.436,99.8005,74.9652,0.0197477,0.659093,20.1054,164.258,2.56825,0.0,0.0
132,32.75,57.2984,62.104,135.004,99.8372,74.3405,0.0176851,0.594832,20.2126,164.198,2.64665,0.0,0.0
135,33.5,57.0836,62.5224,138.441,99.8549,78.9583,0.0161814,0.539338,20.2981,164.158,2.10736,0.0,0.0
138,34.25,57.3848,61.1621,135.349,99.8819,81.0389,0.014498,0.488548,20.3713,164.138,1.87635,0.0,0.0
141,35,57.3792,62.2326,136.921,99.9085,82.4766,0.0134301,0.44841,20.4162,164.098,1.72091,0.0,0.0
144,35.75,57.2651,62.041,129.605,99.9299,82.1393,0.0121964,0.413829,20.4734,164.078,1.75961,0.0,0.0
147,36.5,56.8749,62.0245,135.685,99.967,84.0315,0.0110312,0.382108,20.5216,164.038,1.55853,0.0,0.0
150,37.25,56.7389,61.6391,135.043,99.996,83.0526,0.0100461,0.357013,20.5626,164.028,1.6663,0.0,0.0
153,38,57.0692,61.8454,130.042,100.008,84.9491,0.00921774,0.341825,20.5976,164.008,1.46471,0.0,0.0
156,38.75,56.8734,61.6221,136.853,100.02,85.6512,0.00852449,0.321916,20.6287,163.978,1.39192,0.0,0.0
159,39.5,56.5277,61.4784,134.769,100.055,84.7281,0.00796631,0.305226,20.6532,163.968,1.49231,0.0,0.0
162,40.25,56.2966,61.0228,137.977,100.083,83.7348,0.00746913,0.291059,20.6743,163.948,1.60068,0.0,0.0
165,41,56.1991,60.8594,136.654,100.108,85.0003,0.00703131,0.277843,20.6915,163.918,1.46834,0.0,0.0
168,41.75,56.198,60.7834,137.632,100.11,85.4383,0.0066547,0.267125,20.7072,163.918,1.42238,0.0,0.0
171,42.5,55.6968,60.4096,135.195,100.146,84.7802,0.00633685,0.257462,20.7212,163.878,1.495,0.0,0.0
174,43.25,55.2617,60.2253,143.023,100.149,85.8692,0.00605418,0.24935,20.7357,163.868,1.38067,0.0,0.0
177,44,55.3264,59.8356,137.112,100.174,86.8925,0.00582841,0.241612,20.7491,163.838,1.27658,0.0,0.0
180,44.75,55.1143,59.8782,138.067,100.16,87.7631,0.00565284,0.234427,20.7617,163.828,1.18591,0.0,0.0
183,45.5,55.2687,59.3869,137.364,100.193,88.9921,0.00552041,0.227861,20.7746,163.788,1.06398,0.0,0.0
186,46.25,54.6777,59.4368,137.196,100.2,89.9465,0.00543265,0.221927,20.7849,163.798,0.968895,0.0,0.0
189,47,54.6085,59.0251,140.534,100.206,90.608,0.00537062,0.215876,20.794,163.788,0.903671,0.0,0.0
192,47.75,54.7491,59.2315,139.14,100.2,91.6318,0.00532872,0.210375,20.8018,163.768,0.802251,0.0,0.0
195,48.5,54.0174,58.7294,140.886,100.202,92.5878,0.00529817,0.205436,20.8095,163.738,0.709344,0.0,0.0
198,49.25,54.1674,58.1862,141.152,100.202,91.3935,0.00524958,0.20104,20.8156,163.707,0.825801,0.0,0.0
201,50,53.6102,58.1833,140.384,100.193,92.2564,0.00520897,0.196539,20.8204,163.667,0.740694,0.0,0.0
204,50.75,53.7851,58.5358,143.309,100.18,93.6222,0.00517051,0.193257,20.8251,163.657,0.60761,0.0,0.0
207,51.5,53.0585,57.5461,138.59,100.154,93.5126,0.00515124,0.189785,20.8307,163.667,0.615778,0.0,0.0
210,52.25,53.0881,57.4401,142.646,100.147,93.3467,0.0051532,0.186794,20.8366,163.657,0.631137,0.0,0.0
213,53,53.0182,56.8316,141.937,100.126,93.4343,0.0051757,0.183509,20.8425,163.657,0.620803,0.0,0.0
216,53.75,53.0566,57.3926,146.411,100.091,94.5753,0.00521648,0.180455,20.8481,163.647,0.508719,0.0,0.0
219,54.5,52.3654,56.7867,140.62,100.054,95.0455,0.00527216,0.177948,20.8522,163.627,0.460918,0.0,0.0
222,55.25,52.486,56.324,138.606,100.028,94.5821,0.00535712,0.175509,20.8564,163.607,0.502437,0.0,0.0
225,56,51.7821,56.0943,142.71,100,95.4564,0.00546129,0.173222,20.8599,163.587,0.417386,0.0,0.0
228,56.75,51.9056,56.0409,145.753,99.9561,94.9173,0.00554587,0.171554,20.8628,163.557,0.464247,0.0,0.0
231,57.5,50.8162,54.944,144.907,99.9073,95.092,0.00560862,0.169688,20.8654,163.547,0.443353,0.0,0.0
234,58.25,51.6704,55.7326,141.251,99.8549,95.715,0.00564992,0.167972,20.8681,163.547,0.380037,0.0,0.0
237,59,51.0191,55.7368,142.22,99.8219,95.0036,0.00566645,0.166568,20.8708,163.537,0.444027,0.0,0.0
240,59.75,51.2503,55.3428,142.6,99.7546,95.6037,0.00567084,0.165201,20.8724,163.517,0.381457,0.0,0.0
243,60.5,50.7547,55.252,144.371,99.6909,95.9575,0.00565127,0.163737,20.8747,163.487,0.342572,0.0,0.0
246,61.25,50.4367,54.1572,142.484,99.63,95.5123,0.00563701,0.162461,20.8772,163.477,0.378832,0.0,0.0
249,62,50.2937,54.978,141.882,99.5567,95.1276,0.00562662,0.161173,20.8798,163.477,0.408445,0.0,0.0
252,62.75,49.6929,54.3671,141.343,99.4946,96.272,0.00562553,0.16016,20.8822,163.467,0.295519,0.0,0.0
255,63.5,49.9795,54.4332,139.067,99.416,95.3599,0.00563584,0.15899,20.8839,163.447,0.373861,0.0,0.0
258,64.25,49.4558,53.6251,141.233,99.3443,95.0975,0.00564864,0.157797,20.8864,163.437,0.392112,0.0,0.0
261,65,49.4644,52.9011,143.693,99.2842,95.0442,0.00564316,0.156782,20.8882,163.447,0.39172,0.0,0.0
264,65.75,48.604,53.0026,143.621,99.2049,95.1885,0.00561793,0.15582,20.8895,163.427,0.370922,0.0,0.0
267,66.5,49.1415,53.0992,141.784,99.1259,95.7235,0.00557402,0.154921,20.8917,163.417,0.313473,0.0,0.0
270,67.25,48.7645,52.9618,147.35,99.0682,96.1014,0.00548929,0.154047,20.8938,163.417,0.272887,0.0,0.0
273,68,48.861,52.8665,144.139,98.9832,95.0281,0.00542752,0.153181,20.8954,163.397,0.365982,0.0,0.0
276,68.75,48.5035,52.7268,142.771,98.9123,96.0617,0.00535664,0.152388,20.8967,163.357,0.262462,0.0,0.0
279,69.5,47.8552,51.5891,140.711,98.8325,95.2203,0.00529979,0.151739,20.8976,163.367,0.334175,0.0,0.0
282,70.25,48.559,52.251,143.371,98.7611,95.5504,0.0052683,0.151236,20.8982,163.347,0.296633,0.0,0.0
285,71,47.457,51.6435,143.471,98.6833,94.8203,0.00527059,0.150644,20.8987,163.357,0.358401,0.0,0.0
288,71.75,47.2573,51.4311,145.173,98.6152,95.1458,0.00531542,0.150115,20.8993,163.347,0.32145,0.0,0.0
291,72.5,47.8684,51.8617,142.44,98.5471,94.4547,0.0053481,0.14963,20.9001,163.337,0.380682,0.0,0.0
294,73.25,47.6542,51.6541,140.452,98.4722,95.0899,0.00544052,0.149275,20.9004,163.327,0.313691,0.0,0.0
297,74,47.4659,51.2639,144.897,98.4161,95.1496,0.00553782,0.148979,20.9006,163.297,0.302953,0.0,0.0
300,74.75,47.3626,51.1978,140.74,98.3629,95.3418,0.00562481,0.148762,20.9009,163.287,0.279994,0.0,0.0
303,75.5,46.9597,50.858,139.642,98.311,94.2871,0.00569507,0.148364,20.9016,163.267,0.375086,0.0,0.0
306,76.25,47.1726,51.181,140.828,98.2565,94.2282,0.00575618,0.147854,20.9025,163.277,0.375719,0.0,0.0
309,77,46.5579,50.404,140.953,98.2352,94.8838,0.00580493,0.147278,20.9039,163.287,0.311541,0.0,0.0
312,77.75,46.5965,50.5858,141.869,98.207,94.8106,0.00582985,0.146758,20.9047,163.257,0.315892,0.0,0.0
315,78.5,46.5398,50.3874,141.546,98.1808,94.5021,0.00585247,0.146387,20.9056,163.257,0.342751,0.0,0.0
318,79.25,46.5781,50.1819,146.386,98.153,94.8059,0.00586372,0.146128,20.9062,163.227,0.311395,0.0,0.0
321,80,46.3071,50.2263,144.589,98.1663,95.3993,0.00586747,0.145841,20.9066,163.227,0.256613,0.0,0.0
324,80.75,45.9246,49.6851,144.364,98.1538,94.9202,0.00587145,0.145665,20.9072,163.217,0.300657,0.0,0.0
327,81.5,45.9039,50.0487,141.567,98.1518,95.2089,0.00587487,0.14514,20.908,163.197,0.273222,0.0,0.0
330,82.25,45.7662,49.8093,141.094,98.1566,94.4504,0.005881,0.144532,20.9084,163.217,0.345445,0.0,0.0
333,83,45.0026,49.4324,141.092,98.1937,95.718,0.00588547,0.143875,20.9087,163.217,0.229187,0.0,0.0
336,83.75,45.0362,49.0741,142.755,98.2114,95.5716,0.00591692,0.143193,20.9095,163.177,0.244549,0.0,0.0
339,84.5,45.3935,49.0119,144.082,98.2396,94.9431,0.00595593,0.142554,20.9103,163.187,0.306343,0.0,0.0
342,85.25,44.8079,48.7458,144.696,98.2767,94.7391,0.00599577,0.142028,20.9113,163.167,0.329034,0.0,0.0
345,86,45.2139,48.5725,143.449,98.313,95.1835,0.0060326,0.141605,20.912,163.167,0.290346,0.0,0.0
348,86.75,44.7044,48.4459,140.411,98.365,95.8636,0.00607356,0.141222,20.913,163.147,0.231187,0.0,0.0
351,87.5,44.8944,48.0258,144.385,98.4303,95.1251,0.0061158,0.140816,20.9141,163.137,0.306554,0.0,0.0
354,88.25,44.2059,48.0818,138.712,98.4786,95.5297,0.00615382,0.140401,20.9153,163.127,0.272871,0.0,0.0
357,89,44.3845,47.9981,142.761,98.5342,95.3502,0.00618487,0.139915,20.9168,163.127,0.294812,0.0,0.0
360,89.75,44.4939,47.1244,144.636,98.612,95.1166,0.00620075,0.139372,20.9176,163.117,0.323912,0.0,0.0
363,90.5,44.3266,47.7908,139.898,98.6729,95.4247,0.00619967,0.138787,20.9185,163.117,0.300424,0.0,0.0
366,91.25,43.9026,47.4211,141.533,98.7482,95.7142,0.00619147,0.138164,20.9191,163.097,0.280088,0.0,0.0
369,92,43.4253,46.9689,144.544,98.8047,95.6397,0.00618232,0.137546,20.9196,163.107,0.292204,0.0,0.0
372,92.75,43.7127,47.328,143.462,98.8712,95.4954,0.00618624,0.137132,20.9204,163.097,0.311796,0.0,0.0
375,93.5,43.648,47.2058,143.763,98.9501,95.9542,0.00620395,0.13661,20.9211,163.087,0.275948,0.0,0.0
378,94.25,43.4118,47.0872,144.471,99.0179,95.7133,0.006231,0.136154,20.9217,163.067,0.30464,0.0,0.0
381,95,43.5164,47.0656,141.485,99.0731,95.6325,0.00626409,0.135695,20.9221,163.037,0.317228,0.0,0.0
384,95.75,43.5451,46.4872,142.331,99.1472,95.8187,0.00629734,0.135189,20.9224,163.057,0.306484,0.0,0.0
387,96.5,42.4686,46.0001,144.745,99.2125,96.1205,0.00633719,0.134618,20.9236,163.047,0.28417,0.0,0.0
390,97.25,43.0383,46.2601,144.645,99.2701,96.1873,0.00637536,0.133943,20.9245,163.057,0.283142,0.0,0.0
393,98,42.794,46.4814,140.324,99.3153,96.4861,0.0064188,0.13345,20.9264,163.047,0.259383,0.0,0.0
396,98.75,43.0253,45.7877,143.066,99.3697,96.6427,0.00646461,0.132832,20.9278,163.027,0.249745,0.0,0.0
399,99.5,42.4178,46.1418,137.6,99.4088,95.8382,0.0065042,0.13233,20.9289,163.017,0.328306,0.0,0.0
402,100.25,42.3758,45.4513,139.718,99.4511,96.6059,0.00653506,0.131876,20.9296,162.997,0.260515,0.0,0.0
405,101,42.5375,46.1678,145.632,99.4741,96.5187,0.00655643,0.131517,20.9301,162.977,0.270692,0.0,0.0
408,101.75,42.2093,45.2937,142.73,99.4987,96.2144,0.00655714,0.131206,20.9308,162.967,0.30125,0.0,0.0
411,102.5,42.3843,45.4862,141.241,99.5168,96.5953,0.00655132,0.130917,20.9316,162.957,0.267424,0.0,0.0
414,103.25,41.8682,44.9862,144.6,99.5337,96.6288,0.0065188,0.130507,20.9322,162.957,0.265845,0.0,0.0
417,104,41.4119,45.0695,144.243,99.524,96.1611,0.00649509,0.130105,20.9327,162.977,0.308517,0.0,0.0
420,104.75,41.2802,44.6224,142.746,99.5297,96.4201,0.00645662,0.129636,20.9334,162.947,0.284883,0.0,0.0
423,105.5,41.9147,45.0622,143.911,99.514,95.7726,0.00642114,0.129168,20.9342,162.937,0.343943,0.0,0.0
426,106.25,41.5822,44.7246,145.946,99.4958,96.7151,0.00638951,0.128774,20.9347,162.927,0.254412,0.0,0.0
429,107,41.5793,45.0835,143.945,99.4833,95.9139,0.00636199,0.128333,20.9351,162.927,0.327943,0.0,0.0
432,107.75,41.3557,45.172,140.684,99.4487,96.4815,0.00635075,0.127946,20.9359,162.927,0.271864,0.0,0.0
435,108.5,41.0221,44.0386,144.739,99.4447,95.7252,0.00636237,0.127584,20.9366,162.907,0.342133,0.0,0.0
438,109.25,41.1648,44.4181,143.914,99.4273,96.0346,0.00638973,0.127181,20.9371,162.907,0.311608,0.0,0.0
441,110,41.103,44.4128,143.91,99.4015,97.1777,0.0064275,0.126769,20.9381,162.867,0.203075,0.0,0.0
444,110.75,41.3304,44.4972,149.727,99.3729,96.5856,0.00646353,0.126369,20.9388,162.837,0.255344,0.0,0.0
447,111.5,40.833,44.3349,143.861,99.3495,95.9444,0.00650429,0.126037,20.9394,162.837,0.313012,0.0,0.0
450,112.25,40.9022,44.1784,141.646,99.3302,96.3715,0.00651986,0.125697,20.9398,162.837,0.271406,0.0,0.0
453,113,40.8618,44.0579,144.023,99.2971,96.0621,0.006499,0.12532,20.94,162.827,0.29728,0.0,0.0
456,113.75,41.0024,44.1077,143.716,99.2625,95.5343,0.00647006,0.124895,20.9403,162.837,0.343591,0.0,0.0
459,114.5,40.9311,43.9386,142.757,99.2355,95.2643,0.00637836,0.12439,20.9408,162.827,0.366553,0.0,0.0
462,115.25,40.5478,43.8309,147.462,99.2198,96.3761,0.0062769,0.123938,20.9417,162.827,0.260989,0.0,0.0
465,116,40.9185,43.7776,145.935,99.1992,96.4591,0.00620624,0.123272,20.9424,162.817,0.251407,0.0,0.0
468,116.75,40.6002,43.8936,145.188,99.1823,95.9465,0.00611376,0.122564,20.9432,162.817,0.297693,0.0,0.0
471,117.5,40.3584,43.4489,146.509,99.1847,95.911,0.00604049,0.12185,20.9438,162.817,0.301238,0.0,0.0
474,118.25,40.3459,43.2881,140.224,99.2238,95.8759,0.00597708,0.121155,20.9445,162.787,0.308063,0.0,0.0
477,119,40.144,43.1965,142.486,99.3532,95.9728,0.00593085,0.120688,20.9454,162.767,0.310687,0.0,0.0
480,119.75,40.3674,43.1936,138.972,99.4805,96.7303,0.00590772,0.120149,20.9463,162.767,0.251617,0.0,0.0
483,120.5,40.2321,43.1983,146.111,99.5849,96.6406,0.00589456,0.119716,20.9471,162.757,0.269359,0.0,0.0
486,121.25,39.9402,43.1862,141.379,99.6965,96.738,0.00588407,0.119401,20.9478,162.757,0.270379,0.0,0.0
489,122,39.8695,42.8364,147.236,99.7743,95.5377,0.00587538,0.119046,20.9482,162.757,0.389433,0.0,0.0
492,122.75,39.761,42.4726,144.035,99.8364,96.5162,0.00586551,0.118646,20.949,162.737,0.303558,0.0,0.0
495,123.5,39.4591,43.0866,145.847,99.8972,95.9876,0.00585768,0.118205,20.9497,162.737,0.35832,0.0,0.0
498,124.25,39.8098,42.5466,145.458,99.9448,96.2504,0.00585085,0.117606,20.9509,162.747,0.338049,0.0,0.0
501,125,39.3291,42.9065,143.2,99.9682,96.0553,0.00584197,0.11699,20.9517,162.737,0.35836,0.0,0.0
504,125.75,39.7454,42.5105,145.49,99.9911,97.3749,0.00582949,0.116463,20.9523,162.727,0.23796,0.0,0.0
507,126.5,39.6286,42.6245,146.69,99.9948,96.9039,0.00582388,0.115605,20.9531,162.737,0.281807,0.0,0.0
510,127.25,39.6002,42.2408,145.083,99.9976,97.0537,0.00581247,0.114782,20.954,162.717,0.268196,0.0,0.0
513,128,39.2799,42.1234,144.783,99.9807,97.297,0.00580205,0.113846,20.9546,162.707,0.2442,0.0,0.0
516,128.75,39.2647,42.1914,141.509,99.9371,96.5539,0.00578212,0.112956,20.9563,162.697,0.30911,0.0,0.0
519,129.5,39.1683,42.1384,142.459,99.8864,97.0626,0.00574472,0.11244,20.958,162.677,0.257384,0.0,0.0
522,130.25,39.2084,42.0565,142.886,99.8328,96.6427,0.00569771,0.111606,20.9594,162.657,0.291473,0.0,0.0
525,131,39.2544,42.0595,145.377,99.7679,97.0875,0.00565504,0.110804,20.9604,162.657,0.244423,0.0,0.0
528,131.75,39.2781,42.1602,144.082,99.6772,96.9966,0.0056042,0.110079,20.9612,162.687,0.244678,0.0,0.0
531,132.5,39.3069,42.0642,147.186,99.5676,96.9834,0.00555549,0.109415,20.9617,162.677,0.236015,0.0,0.0
534,133.25,38.6625,41.3578,142.784,99.4571,96.3786,0.00551443,0.108869,20.9628,162.647,0.282199,0.0,0.0
537,134,38.7342,41.7961,142.446,99.4418,97.0448,0.00549075,0.108332,20.9634,162.637,0.218996,0.0,0.0
540,134.75,38.8812,41.7332,143.406,99.4721,95.7184,0.00547614,0.107882,20.9638,162.647,0.345242,0.0,0.0
543,135.5,38.4713,41.1163,141.847,99.4914,95.8759,0.00548659,0.1072,20.9646,162.637,0.332235,0.0,0.0
546,136.25,38.762,41.4879,145.207,99.547,96.1273,0.00551707,0.106557,20.9657,162.627,0.313748,0.0,0.0
549,137,38.6367,41.4698,142.156,99.6034,95.8594,0.00554299,0.105839,20.9669,162.637,0.343882,0.0,0.0
552,137.75,38.7754,41.1963,146.327,99.6566,96.1036,0.00556347,0.104998,20.9682,162.637,0.325839,0.0,0.0
555,138.5,38.4573,41.3044,143.273,99.7078,96.1586,0.00556359,0.104016,20.9693,162.627,0.325311,0.0,0.0
558,139.25,38.2734,40.5264,146.772,99.7703,96.2529,0.00555738,0.103201,20.9706,162.617,0.322128,0.0,0.0
561,140,38.3218,41.3522,144.725,99.8364,96.3791,0.00551417,0.102253,20.9715,162.617,0.316319,0.0,0.0
564,140.75,38.2861,40.8569,142.801,99.894,96.8755,0.00543587,0.101359,20.9721,162.627,0.275387,0.0,0.0
567,141.5,38.4971,41.1984,148.737,99.9392,97.6166,0.00535885,0.100361,20.9735,162.627,0.211046,0.0,0.0
570,142.25,38.285,41.043,145.673,100.02,96.0862,0.00523139,0.0993033,20.9749,162.627,0.360104,0.0,0.0
573,143,38.1847,40.2831,141.693,100.054,96.4455,0.00510808,0.0982834,20.9761,162.617,0.329641,0.0,0.0
576,143.75,37.5713,40.5608,146.451,100.107,96.8907,0.00497428,0.0973545,20.977,162.627,0.293074,0.0,0.0
579,144.5,38.3046,41.0138,140.121,100.137,96.9805,0.00487061,0.0966773,20.9776,162.606,0.287476,0.0,0.0
582,145.25,38.3505,41.0908,147.979,100.166,96.754,0.00479241,0.0957726,20.9783,162.606,0.311092,0.0,0.0
585,146,37.9348,40.7862,143.983,100.208,96.721,0.00472702,0.095017,20.9788,162.596,0.317838,0.0,0.0
588,146.75,38.0992,40.4294,147.866,100.218,97.1921,0.00465595,0.0944253,20.9798,162.576,0.275171,0.0,0.0
591,147.5,37.684,40.3544,147.653,100.22,96.5738,0.0045887,0.0938582,20.9806,162.586,0.332634,0.0,0.0
594,148.25,37.3856,40.5405,145.129,100.213,96.6169,0.00453109,0.093315,20.9813,162.566,0.327974,0.0,0.0
597,149,37.5019,40.6505,145.535,100.209,96.2411,0.00448349,0.0926969,20.9823,162.556,0.362628,0.0,0.0
600,149.75,37.7047,40.2546,146.766,100.187,96.363,0.00444549,0.0919722,20.983,162.556,0.34932,0.0,0.0
603,150.5,37.8556,40.3158,144.327,100.154,96.6178,0.00439506,0.0911831,20.9844,162.546,0.322659,0.0,0.0
606,151.25,37.4371,40.5205,140.827,100.113,95.9199,0.00433504,0.0903614,20.9857,162.556,0.384004,0.0,0.0
609,152,37.6183,39.9748,140.743,100.068,96.8861,0.00428135,0.0893915,20.9867,162.546,0.290036,0.0,0.0
612,152.75,37.6275,40.2117,142.088,100.01,96.6618,0.00422753,0.0884931,20.9877,162.556,0.305669,0.0,0.0
615,153.5,36.8769,39.0552,147.067,99.9335,96.611,0.00418074,0.0877133,20.9888,162.566,0.303475,0.0,0.0
618,154.25,36.9692,39.0252,146.096,99.8545,96.2419,0.00414443,0.0870711,20.9896,162.546,0.330728,0.0,0.0
621,155,36.7889,39.3696,146.224,99.7784,95.9224,0.00411429,0.0864662,20.9902,162.526,0.353728,0.0,0.0
624,155.75,36.267,39.2137,145.035,99.6776,96.531,0.00407981,0.085967,20.9906,162.516,0.287895,0.0,0.0
627,156.5,36.2407,39.2709,147.205,99.5813,95.9508,0.00403596,0.0853692,20.9915,162.516,0.333329,0.0,0.0
630,157.25,36.8152,39.4404,146.322,99.4672,96.0134,0.00397957,0.0848759,20.9922,162.526,0.317187,0.0,0.0
633,158,35.9724,38.2078,144.429,99.3507,96.382,0.00392869,0.084418,20.9929,162.526,0.272278,0.0,0.0
636,158.75,35.572,38.1956,143.372,99.2488,95.4107,0.00388743,0.083975,20.9939,162.526,0.353969,0.0,0.0
639,159.5,36.5962,39.1742,141.775,99.1299,95.7053,0.00385368,0.0835479,20.9945,162.506,0.315544,0.0,0.0
642,160.25,36.273,38.9486,144.004,99.0094,95.3908,0.00381775,0.0831383,20.995,162.496,0.334166,0.0,0.0
645,161,35.9128,38.4551,146.759,98.884,95.1331,0.00379646,0.082723,20.9953,162.476,0.34708,0.0,0.0
648,161.75,36.4157,39.079,141.443,98.7845,95.1543,0.00373006,0.082311,20.996,162.486,0.336044,0.0,0.0
651,162.5,36.1745,39.0931,146.64,98.6882,95.1005,0.00364993,0.0819641,20.9967,162.506,0.33236,0.0,0.0
654,163.25,36.4603,38.6185,144.714,98.5874,95.117,0.00356388,0.0814778,20.9973,162.486,0.321634,0.0,0.0
657,164,36.5203,38.8586,150.98,98.4967,95.3968,0.00347701,0.081136,20.9979,162.476,0.287017,0.0,0.0
660,164.75,36.7322,38.4071,149.046,98.4125,95.3913,0.00341368,0.0806213,20.9987,162.466,0.279855,0.0,0.0
663,165.5,35.9769,38.2969,146.977,98.3525,94.8927,0.00332742,0.0800905,20.9994,162.486,0.321409,0.0,0.0
666,166.25,36.1584,38.5078,145.111,98.2868,95.7129,0.00326454,0.0795674,20.9999,162.476,0.238168,0.0,0.0
669,167,36.2899,38.5468,142.933,98.2392,95.3671,0.00322235,0.0791279,21.0005,162.486,0.266307,0.0,0.0
672,167.75,35.8457,38.4179,142.442,98.2074,94.6845,0.00318803,0.0787219,21.001,162.496,0.327876,0.0,0.0
675,168.5,36.0649,38.811,143.75,98.1961,94.8775,0.00315424,0.0782796,21.0013,162.476,0.308568,0.0,0.0
678,169.25,35.9243,38.1477,148.823,98.1836,95.2266,0.00308968,0.0778346,21.0016,162.466,0.274457,0.0,0.0
681,170,34.7313,37.4091,141.898,98.1876,94.7344,0.00302194,0.0774579,21.002,162.456,0.321338,0.0,0.0
684,170.75,35.0561,37.6363,142.015,98.2062,95.368,0.00296118,0.0770863,21.0027,162.446,0.263208,0.0,0.0
687,171.5,35.3096,38.1649,145.939,98.2376,95.5576,0.00291634,0.0768017,21.0038,162.436,0.248253,0.0,0.0
690,172.25,35.898,37.534,144.689,98.2932,94.4369,0.00289023,0.0765741,21.0047,162.436,0.359216,0.0,0.0
693,173,35.7062,37.8568,146.289,98.3299,94.0937,0.00288271,0.0763837,21.0053,162.426,0.395245,0.0,0.0
696,173.75,35.962,37.9646,146.169,98.3956,95.0645,0.00289694,0.0761866,21.0051,162.436,0.309106,0.0,0.0
699,174.5,35.4837,37.872,144.618,98.4681,94.8021,0.00291273,0.0760022,21.0052,162.446,0.340528,0.0,0.0
702,175.25,35.5026,38.031,144.961,98.5455,94.8318,0.00293098,0.0758216,21.0057,162.456,0.344774,0.0,0.0
705,176,35.4101,37.7389,142.566,98.6104,95.4158,0.00292878,0.075641,21.006,162.466,0.295575,0.0,0.0
708,176.75,35.5996,37.9519,142.596,98.7075,94.9854,0.0029195,0.0754958,21.0062,162.456,0.34499,0.0,0.0
711,177.5,35.6539,38.2282,142.978,98.7994,94.9151,0.00289959,0.0754174,21.0055,162.456,0.359982,0.0,0.0
714,178.25,35.8511,37.8733,148.684,98.8885,95.9444,0.00286947,0.0752882,21.0055,162.436,0.271264,0.0,0.0
717,179,35.8726,37.6727,144.925,98.9691,95.3705,0.00284143,0.0751648,21.0056,162.436,0.332423,0.0,0.0
720,179.75,35.3792,37.9034,141.936,99.0529,95.2177,0.0028184,0.0750252,21.0057,162.416,0.354412,0.0,0.0
723,180.5,35.6213,37.4039,144.121,99.1408,95.0087,0.00280283,0.0748962,21.0058,162.426,0.382099,0.0,0.0
726,181.25,35.4207,37.7152,144.8125,99.2222,95.5313,0.00279839,0.0747906,21.0059,162.426,0.340224,0.0,0.0
729,182,35.4815,37.1762,143.755,99.2947,95.6858,0.0028061,0.0746554,21.0059,162.436,0.332283,0.0,0.0
732,182.75,35.1297,37.6157,145.39,99.3463,95.9258,0.00283428,0.0745568,21.0064,162.416,0.314464,0.0,0.0
735,183.5,35.3452,37.2968,141.079,99.4217,96.4315,0.00285968,0.074485,21.0069,162.406,0.274074,0.0,0.0
738,184.25,35.1237,37.471,147.373,99.4668,96.4531,0.0028822,0.074355,21.0073,162.396,0.276139,0.0,0.0
741,185,35.6296,37.6925,148.043,99.4898,95.9347,0.0029019,0.0741786,21.0076,162.366,0.326584,0.0,0.0
744,185.75,35.4014,37.5229,142.512,99.5107,95.8471,0.00291504,0.0739938,21.0078,162.356,0.336675,0.0,0.0
747,186.5,35.4388,37.4425,143.929,99.5394,95.6837,0.00292411,0.0738224,21.0079,162.356,0.354566,0.0,0.0
750,187.25,35.4594,37.5734,141.952,99.5382,96.1294,0.00291611,0.0736974,21.008,162.376,0.312752,0.0,0.0
753,188,35.3323,37.1287,142.746,99.5132,96.3571,0.00290406,0.073592,21.0081,162.366,0.289265,0.0,0.0
756,188.75,35.0002,37.3612,145.879,99.487,95.7214,0.002894,0.0734906,21.0082,162.386,0.346308,0.0,0.0
759,189.5,35.1958,37.5459,145.319,99.458,95.6067,0.00288447,0.0733896,21.0087,162.386,0.35445,0.0,0.0
762,190.25,35.0237,36.9878,145.191,99.4475,95.3286,0.00286539,0.0733043,21.009,162.386,0.379646,0.0,0.0
765,191,34.6639,37.4239,144.495,99.4201,96.2999,0.00283445,0.0732421,21.0093,162.386,0.286187,0.0,0.0
768,191.75,34.945,37.0733,146.218,99.3753,95.1361,0.00279633,0.0730611,21.0095,162.396,0.391281,0.0,0.0
771,192.5,34.7303,37.1649,144.698,99.3342,95.3917,0.00275432,0.0729155,21.0096,162.386,0.363485,0.0,0.0
774,193.25,34.9169,36.9572,143.027,99.2923,95.2283,0.00273409,0.0728108,21.0097,162.386,0.37508,0.0,0.0
777,194,35.0318,37.1808,140.06,99.2605,96.2631,0.00271935,0.0727467,21.0098,162.366,0.2752,0.0,0.0
780,194.75,35.153,37.2063,147.213,99.2323,95.7002,0.00275368,0.0726863,21.0098,162.376,0.325284,0.0,0.0
783,195.5,35.3622,37.0914,146.706,99.192,95.517,0.00278575,0.0726151,21.0099,162.376,0.338842,0.0,0.0
786,196.25,34.9458,36.9144,147.046,99.1585,95.8894,0.00282118,0.0725264,21.0099,162.366,0.300887,0.0,0.0
789,197,35.0109,37.0943,147.383,99.1444,95.2165,0.00285221,0.0724482,21.0099,162.356,0.362817,0.0,0.0
792,197.75,34.9387,36.794,146.699,99.113,95.2596,0.00287355,0.0723854,21.0099,162.356,0.355903,0.0,0.0
795,198.5,34.3394,36.3035,144.961,99.1444,95.721,0.00288692,0.0722815,21.0099,162.346,0.31539,0.0,0.0
798,199.25,34.9694,36.7649,142.132,99.3242,95.8826,0.00288798,0.072165,21.01,162.356,0.316501,0.0,0.0
801,200,34.7158,36.6385,145.165,99.4535,95.4683,0.00288025,0.0720626,21.01,162.346,0.367052,0.0,0.0
804,200.75,34.3818,37.2096,143.671,99.5752,96.2716,0.00287098,0.0719493,21.01,162.356,0.302827,0.0,0.0
807,201.5,34.8168,36.5409,144.798,99.6861,96.5733,0.00283747,0.0718666,21.01,162.346,0.284724,0.0,0.0
810,202.25,34.2051,36.0649,145.238,99.7876,95.8805,0.00279205,0.0718064,21.01,162.336,0.358483,0.0,0.0
813,203,35.0154,36.7795,141.618,99.8666,96.0934,0.00274254,0.0717431,21.01,162.336,0.345679,0.0,0.0
816,203.75,34.3524,36.6714,144.996,99.9158,96.1797,0.00268701,0.0716969,21.01,162.316,0.342036,0.0,0.0
819,204.5,34.8159,36.7668,143.574,99.942,96.2673,0.00262867,0.0716633,21.01,162.346,0.336217,0.0,0.0
822,205.25,34.7436,36.4649,147.376,99.9484,96.0659,0.00256975,0.0716252,21.01,162.346,0.355598,0.0,0.0
825,206,34.2481,36.0991,148.924,99.9537,96.2754,0.00250949,0.0715916,21.01,162.366,0.336517,0.0,0.0
828,206.75,33.6481,36.1078,146.444,99.9271,96.7342,0.00247527,0.0715671,21.01,162.346,0.291462,0.0,0.0
831,207.5,34.6944,36.553,143.937,99.8751,95.7734,0.00245446,0.0715881,21.01,162.346,0.376374,0.0,0.0
834,208.25,35.5074,36.5455,144.822,99.8126,95.9283,0.00248066,0.0715897,21.01,162.366,0.356254,0.0,0.0
837,209,34.012,36.0096,144.859,99.7219,95.4784,0.00251739,0.0715708,21.01,162.376,0.390288,0.0,0.0
840,209.75,34.483,35.5931,145.393,99.6167,96.0934,0.00257363,0.0715326,21.0098,162.356,0.323194,0.0,0.0
843,210.5,34.8563,36.446,144.479,99.4713,95.9918,0.00261828,0.0714904,21.0096,162.346,0.319568,0.0,0.0
846,211.25,34.6096,36.4789,147.317,99.4128,95.7256,0.00265238,0.0714534,21.0095,162.336,0.339219,0.0,0.0
849,212,34.3626,36.2695,146.789,99.4624,95.6748,0.00266189,0.0714129,21.0094,162.326,0.348456,0.0,0.0
852,212.75,34.5172,36.3926,141.924,99.5103,95.4387,0.00264258,0.0713633,21.0085,162.346,0.374964,0.0,0.0
855,213.5,34.8635,36.8428,142.072,99.5777,96.1289,0.0026008,0.0713027,21.0082,162.326,0.316351,0.0,0.0
858,214.25,34.3572,36.2822,143.206,99.6482,96.4125,0.00255577,0.0712585,21.0083,162.316,0.29627,0.0,0.0
861,215,34.4949,36.8421,147.096,99.7207,96.3913,0.00251673,0.0711681,21.0083,162.316,0.304772,0.0,0.0
864,215.75,34.4071,36.5559,146.265,99.7913,96.2407,0.00247372,0.071143,21.0083,162.326,0.325157,0.0,0.0
867,216.5,34.8256,36.4064,141.692,99.8638,96.374,0.00242786,0.071135,21.0083,162.306,0.319255,0.0,0.0
870,217.25,34.7125,35.7826,147.172,99.9412,96.1873,0.00238023,0.0711168,21.0083,162.326,0.343606,0.0,0.0
873,218,34.6389,36.3558,147.837,100.02,96.8518,0.0023224,0.0711172,21.0083,162.316,0.288873,0.0,0.0
876,218.75,34.766,36.6275,144.302,100.082,96.1708,0.00226209,0.0711233,21.0083,162.326,0.357805,0.0,0.0
879,219.5,34.4014,36.4338,143.877,100.124,96.6368,0.00220395,0.0711083,21.0085,162.296,0.318145,0.0,0.0
882,220.25,34.0327,36.4794,145.441,100.155,96.41,0.00217193,0.0710545,21.0087,162.306,0.342056,0.0,0.0
885,221,34.7041,36.2134,148.754,100.193,96.8848,0.00217404,0.070942,21.0088,162.306,0.301389,0.0,0.0
888,221.75,34.6027,36.2361,142.666,100.21,96.4624,0.00218643,0.07082,21.0089,162.286,0.342118,0.0,0.0
891,222.5,34.4907,36.2616,143.972,100.207,96.9255,0.00223427,0.0707498,21.009,162.286,0.298853,0.0,0.0
894,223.25,34.1381,36.4666,144.097,100.185,97.1265,0.00229081,0.0707597,21.009,162.276,0.278271,0.0,0.0
897,224,34.05,35.8933,144.984,100.152,96.264,0.00234076,0.0707669,21.0091,162.276,0.355334,0.0,0.0
900,224.75,34.3895,36.4085,144.781,100.113,95.7734,0.00236506,0.0707722,21.0091,162.296,0.397752,0.0,0.0
903,225.5,34.3317,36.282,145.02,100.051,96.5348,0.00236578,0.070776,21.0091,162.286,0.321082,0.0,0.0
906,226.25,35.1028,36.4787,140.263,99.9569,95.7836,0.00235141,0.0707982,21.0091,162.286,0.382772,0.0,0.0
909,227,34.5298,36.4126,144.245,99.8807,96.1912,0.00232783,0.0707786,21.0092,162.286,0.337821,0.0,0.0
912,227.75,34.6311,36.2913,146.054,99.7808,96.7033,0.00229854,0.0707032,21.0092,162.296,0.281179,0.0,0.0
915,228.5,34.034,36.297,142.658,99.6599,96.1383,0.00227719,0.0706483,21.0092,162.266,0.32289,0.0,0.0
918,229.25,34.3184,36.0612,142.436,99.5414,95.85,0.00225989,0.0706625,21.0094,162.256,0.33916,0.0,0.0
921,230,34.2885,36.0687,147.095,99.4181,95.4556,0.00223056,0.0706825,21.0099,162.256,0.365044,0.0,0.0
924,230.75,34.1777,36.1746,142.415,99.2959,95.2465,0.00221396,0.0706913,21.0098,162.296,0.373693,0.0,0.0
927,231.5,34.2739,36.1869,143.963,99.1468,95.1136,0.00217059,0.0706783,21.0096,162.286,0.372736,0.0,0.0
930,232.25,33.9583,35.9497,143.402,99.0171,95.2816,0.00213171,0.0706688,21.0095,162.276,0.345141,0.0,0.0
933,233,33.3724,35.4144,142.262,98.88,94.8017,0.00209772,0.0706846,21.0094,162.286,0.378033,0.0,0.0
936,233.75,33.9503,35.539,143.89,98.7595,95.2761,0.00206858,0.0706832,21.0093,162.256,0.322285,0.0,0.0
939,234.5,33.8872,35.8383,142.878,98.641,94.839,0.00204734,0.0706724,21.0093,162.266,0.352788,0.0,0.0
942,235.25,34.321,36.013,142.723,98.531,94.5977,0.00203012,0.0706258,21.0092,162.266,0.365631,0.0,0.0
945,236,34.0139,35.8304,144.821,98.4282,95.0937,0.00202841,0.0705725,21.0091,162.266,0.309326,0.0,0.0
948,236.75,34.0277,35.8427,145.386,98.3529,94.3099,0.00204569,0.0705336,21.0091,162.256,0.376736,0.0,0.0
951,237.5,33.4265,35.2668,144.035,98.2892,94.2312,0.00210151,0.0705052,21.0091,162.266,0.378418,0.0,0.0
954,238.25,33.8244,35.7009,148.448,98.2424,94.4945,0.00217738,0.0704846,21.009,162.266,0.34911,0.0,0.0
957,239,33.936,35.7795,144.536,98.1981,94.3006,0.00224768,0.0704695,21.009,162.266,0.363488,0.0,0.0
960,239.75,34.5357,35.4581,142.087,98.2118,94.2663,0.00234916,0.0704585,21.009,162.246,0.368005,0.0,0.0
963,240.5,33.9035,36.3819,145.86,98.2227,94.3649,0.00243401,0.0704648,21.009,162.236,0.359615,0.0,0.0
966,241.25,33.5511,35.1852,145.186,98.2529,94.5444,0.00251445,0.0704938,21.009,162.216,0.345325,0.0,0.0
969,242,33.9464,36.0558,148.531,98.2904,94.4471,0.00260868,0.0705014,21.009,162.226,0.357994,0.0,0.0
972,242.75,34.4545,35.7279,144.127,98.3452,94.1229,0.00264283,0.0705011,21.009,162.216,0.393858,0.0,0.0
975,243.5,34.2655,36.2967,144.131,98.4254,94.2617,0.00267709,0.070559,21.009,162.206,0.387947,0.0,0.0
978,244.25,33.8978,36.0328,142.104,98.5024,94.6278,0.00268869,0.0705941,21.009,162.206,0.360173,0.0,0.0
981,245,33.4038,35.1397,146.303,98.5898,94.2333,0.00269145,0.0706075,21.009,162.186,0.405629,0.0,0.0
984,245.75,33.5424,35.1794,148.079,98.693,94.3823,0.0026692,0.0705591,21.0096,162.216,0.400838,0.0,0.0
987,246.5,33.6422,35.2696,144.406,98.8127,94.5355,0.00262527,0.0705238,21.0101,162.226,0.39716,0.0,0.0
990,247.25,33.8822,35.4719,144.139,98.8998,95.2402,0.0025726,0.0705175,21.0102,162.236,0.338411,0.0,0.0
993,248,34.3644,35.5529,145.215,98.9949,95.1369,0.00252542,0.0704993,21.0098,162.226,0.356774,0.0,0.0
996,248.75,34.2949,35.7584,142.855,99.094,96.0413,0.00247544,0.0704588,21.0096,162.226,0.280838,0.0,0.0
999,249.5,34.1476,35.7562,143.336,99.2008,95.106,0.00243837,0.0703926,21.0094,162.226,0.378342,0.0,0.0
1002,250.25,34.0787,35.7248,143.199,99.277,95.4607,0.00241026,0.0703637,21.0097,162.226,0.351824,0.0,0.0
1005,251,34.0808,35.5715,145.383,99.3512,95.2376,0.00238849,0.070397,21.0102,162.216,0.37952,0.0,0.0
1008,251.75,34.052,35.8491,142.149,99.4185,95.5957,0.00237043,0.0704444,21.0098,162.216,0.351919,0.0,0.0
1011,252.5,33.8575,35.994,142.511,99.4829,95.4543,0.00236073,0.0704208,21.01,162.206,0.37102,0.0,0.0
1014,253.25,34.3637,35.4013,140.805,99.5188,95.9245,0.00235972,0.0704037,21.0104,162.186,0.330152,0.0,0.0
1017,254,34.0217,36.0951,144.935,99.5329,95.539,0.00236349,0.070333,21.0104,162.196,0.367572,0.0,0.0
1020,254.75,34.8471,35.702,145.933,99.5357,95.7197,0.00237334,0.070268,21.01,162.176,0.350865,0.0,0.0
1023,255.5,33.9191,35.4997,138.957,99.5382,95.8991,0.00238708,0.0702219,21.0097,162.166,0.334273,0.0,0.0
1026,256.25,34.1333,35.7121,143.452,99.5067,95.9525,0.00240156,0.0702006,21.0095,162.166,0.326449,0.0,0.0
1029,257,34.0509,35.8315,143.486,99.464,95.6554,0.00241977,0.0702237,21.0094,162.146,0.350428,0.0,0.0
1032,257.75,34.0837,35.7029,148.119,99.4273,95.4649,0.00243751,0.0701863,21.0093,162.176,0.365006,0.0,0.0
1035,258.5,33.9857,35.5124,145.03,99.3878,95.7925,0.0024581,0.0701001,21.0094,162.176,0.330696,0.0,0.0
1038,259.25,34.1516,35.8005,146.005,99.3423,95.4856,0.00246964,0.0699762,21.0094,162.146,0.355377,0.0,0.0
1041,260,34.2126,35.3326,143.142,99.3012,95.2558,0.00246956,0.0698859,21.0095,162.166,0.373289,0.0,0.0
1044,260.75,34.0657,35.392,145.773,99.2311,95.4175,,0.0699556,,162.176,0.35173,0.0,0.0
1047,261.5,33.6677,35.2412,144.25,99.1855,95.448,,0.0700064,,162.176,0.344743,0.0,0.0
1050,262.25,34.1112,35.5989,143.926,99.1545,94.8851,,0.0700434,,162.186,0.395021,0.0,0.0
1053,263,34.3069,35.8167,145.753,99.1218,94.7277,,0.0700511,,162.196,0.40697,0.0,0.0
1056,263.75,34.386,35.8165,149.145,99.0908,95.0006,,,,162.186,0.378332,0.0,0.0
1059,264.5,34.1054,35.4766,143.183,99.0807,94.5376,,,,162.166,0.421269,0.0,0.0
1062,265.25,34.1155,35.6629,143.437,99.1613,94.8356,,,,162.146,0.400326,0.0,0.0
1065,266,33.8867,35.6437,143.523,99.3431,95.2398,,,,162.146,0.378592,0.0,0.0
1068,266.75,34.1298,35.5412,143.745,99.4894,95.6372,,,,162.156,0.354427,0.0,0.0
1071,267.5,33.9987,35.4357,145.625,99.6192,95.5669,,,,162.136,0.372722,0.0,0.0
1074,268.25,33.8238,35.1908,143.985,99.7473,95.8801,,,,162.146,0.354897,0.0,0.0
1077,269,34.2868,35.937,146.146,99.8279,96.1611,,,,162.136,0.335879,0.0,0.0
1080,269.75,34.0697,35.5007,142.619,99.89,96.1243,,,,162.156,0.344895,0.0,0.0
1083,270.5,33.2236,34.9357,141.067,99.9122,95.4713,,,,162.126,0.408068,0.0,0.0
1086,271.25,33.525,35.5111,146.238,99.9375,95.7091,,,,162.126,0.388016,0.0,0.0
1087,271.5,33.9158,35.628,143.751,99.9331,95.8606,,,,162.136,0.37342,0.0,0.0