File: 01_Data/Roof_Felt/Cone/Roof_Felt_Underlayment_Cone_HF25Scan_220328_R2.csv
Names,Time,Stack TC,Smoke TC,Exh Press,Smoke Comp,Smoke Meas,CO Meter,CO2 Meter,O2 Meter,Sample Mass,Ext Coeff,Start Test,Flame Verif
Chan Gain,,500,500,1,1,1,1,1,1,1,1,1.0,1.0
Offset,,0,0,0.134123,0,0,0,0,0,0,0,0.0,0.0
Gain,,1,1,25.011,13.5775,14.0999,1,1,1,1.0009,1.03554,1.0,1.0
Units,sec,C,C,Pa,%,%,%,%,%,g,/m,,
Baseline,,17.6226,17.7038,166.722,102.008,95.2096,0.00030744,0.0441688,21.039,-834.399,0.626504,,
3,0.5,16.8312,17.0303,164.523,101.594,95.16,0.00044527,0.0510523,21.0327,171.063,0.594308,0.0,0.0
6,1.25,16.8539,17.1062,172.205,101.595,95.3541,0.000461326,0.0511415,21.0326,170.913,0.575876,0.0,0.0
9,2,16.2637,16.3808,167.846,101.597,95.3773,0.000476677,0.0511285,21.0326,170.913,0.573886,0.0,0.0
12,2.75,16.6077,16.9649,168.291,101.589,95.2353,0.000487869,0.0511118,21.0326,171.013,0.586642,0.0,0.0
15,3.5,16.4823,15.9988,164.311,101.603,95.0167,0.000511921,0.0510872,21.0324,170.963,0.608774,0.0,0.0
18,4.25,16.6861,16.68,166.638,101.614,94.9957,0.000536924,0.0511475,21.0322,170.943,0.61179,0.0,0.0
21,5,16.8315,16.4271,165.894,101.608,95.2018,0.000556336,0.0511914,21.0314,170.983,0.591548,0.0,0.0
24,5.75,16.2953,16.689,166.347,101.612,94.9995,0.000574157,0.0513604,21.0307,170.883,0.611272,0.0,0.0
27,6.5,16.4169,16.8926,158.894,101.628,95.0985,0.000589356,0.0515419,21.0301,170.923,0.603221,0.0,0.0
30,7.25,16.2882,17.0786,164.171,101.624,95.1463,0.000601536,0.0517525,21.0296,170.953,0.598327,0.0,0.0
33,8,16.8121,17.0766,163.686,101.641,95.4238,0.000601695,0.0519055,21.0293,170.913,0.573312,0.0,0.0
36,8.75,16.7044,16.6071,166.85,101.636,95.1859,0.000591515,0.0520165,21.0291,170.923,0.595548,0.0,0.0
39,9.5,16.6863,16.8474,168.171,101.638,95.16,0.000566491,0.0520387,21.0289,170.933,0.598234,0.0,0.0
42,10.25,16.3642,16.6835,160.931,101.644,95.4896,0.000535388,0.0520045,21.029,170.923,0.567382,0.0,0.0
45,11,16.3422,16.7147,164.458,101.644,95.3455,0.000490723,0.0518933,21.0295,170.923,0.581067,0.0,0.0
48,11.75,16.8618,16.8846,169.404,101.652,95.5034,0.000444227,0.0517145,21.0298,170.923,0.566775,0.0,0.0
51,12.5,16.3971,17.2256,167.601,101.65,95.3511,0.00040911,0.051613,21.0301,170.883,0.581089,0.0,0.0
54,13.25,16.7144,17.2235,170.451,101.651,95.3442,0.000381705,0.0515884,21.0302,170.873,0.581782,0.0,0.0
57,14,15.7595,16.1487,164.455,101.657,95.0925,0.000366157,0.051721,21.0303,170.863,0.606352,0.0,0.0
60,14.75,16.0645,16.2302,166.002,101.651,95.0826,0.000351677,0.0519252,21.0302,170.843,0.606741,0.0,0.0
63,15.5,16.6243,16.7702,166.365,101.656,95.0529,0.000347548,0.0521481,21.0297,170.843,0.61006,0.0,0.0
66,16.25,16.7804,17.2226,167.55,101.664,95.1187,0.00035553,0.0524473,21.0294,170.853,0.604473,0.0,0.0
69,17,16.2954,16.8836,169.1,101.66,94.9453,0.000382117,0.0526508,21.0289,170.853,0.620679,0.0,0.0
72,17.75,16.8049,16.7836,160.524,101.666,94.9733,0.000419361,0.0529506,21.0281,170.843,0.618596,0.0,0.0
75,18.5,16.7324,17.1078,169.432,101.663,94.9053,0.000461913,0.0533256,21.0276,170.853,0.624842,0.0,0.0
78,19.25,16.4309,16.849,167.437,101.679,94.8227,0.000506385,0.0536784,21.0272,170.843,0.634123,0.0,0.0
81,20,16.6593,17.2808,166.083,101.665,94.7891,0.000551622,0.0540712,21.0262,170.843,0.636116,0.0,0.0
84,20.75,16.6138,17.0226,167.235,101.672,94.818,0.000596711,0.0545085,21.0256,170.833,0.633984,0.0,0.0
87,21.5,16.8924,16.6537,165.632,101.67,94.873,0.000643544,0.0549277,21.0251,170.813,0.628486,0.0,0.0
90,22.25,16.4783,17.0604,162.988,101.665,94.75,0.00068155,0.055295,21.0247,170.803,0.639832,0.0,0.0
93,23,17.0012,16.606,168.62,101.674,94.7108,0.000715867,0.0556314,21.0245,170.813,0.644439,0.0,0.0
96,23.75,17.1339,16.7267,169.02,101.682,94.7818,0.000740883,0.0558842,21.0245,170.813,0.638373,0.0,0.0
99,24.5,16.6818,16.8521,170.25,101.677,94.8016,0.000758476,0.0560314,21.0249,170.823,0.636032,0.0,0.0
102,25.25,16.0371,16.8167,168.039,101.684,94.9548,0.0007702,0.0559627,21.0252,170.833,0.621958,0.0,0.0
105,26,17.0632,16.6011,165.343,101.685,94.8924,0.000778746,0.0558404,21.0255,170.813,0.62804,0.0,0.0
108,26.75,17.0983,16.7943,163.698,101.684,94.4875,0.000811172,0.0556278,21.0261,170.793,0.666771,0.0,0.0
111,27.5,16.8915,17.2988,166.21,101.684,94.5439,0.000854411,0.0552672,21.0267,170.783,0.661391,0.0,0.0
114,28.25,16.3179,17.195,164.845,101.701,94.8416,0.000903319,0.0549166,21.0271,170.773,0.634344,0.0,0.0
117,29,16.6104,17.2654,164.645,101.708,94.3584,0.000954416,0.054524,21.0274,170.763,0.681299,0.0,0.0
120,29.75,16.9618,16.2306,169.216,101.709,94.5718,0.000996911,0.0541794,21.0276,170.763,0.660851,0.0,0.0
123,30.5,17.0005,17.4685,166.4,101.697,94.7366,0.00102789,0.0538109,21.0278,170.743,0.643999,0.0,0.0
126,31.25,16.6906,17.1101,171.116,101.708,94.4109,0.00107868,0.0534738,21.0275,170.743,0.676247,0.0,0.0
129,32,16.7175,17.1719,161.551,101.717,94.4737,0.001162,0.053343,21.0271,170.733,0.671018,0.0,0.0
132,32.75,16.7114,16.5548,171.793,101.717,94.4729,0.00128131,0.0534944,21.0255,170.703,0.671102,0.0,0.0
135,33.5,16.7742,16.683,160.284,101.723,93.7474,0.00149467,0.0561469,21.0186,170.673,0.741681,0.0,0.0
138,34.25,16.8813,17.2247,160.377,101.726,93.9191,0.00176621,0.0591644,21.0042,170.583,0.725356,0.0,1.0
141,35,17.3814,17.4376,160.711,101.732,90.1716,0.00214361,0.0705292,20.9743,170.653,1.09575,0.0,1.0
144,35.75,16.9805,17.3147,159.774,101.739,85.3863,0.00255199,0.0859565,20.9398,170.653,1.5917,0.0,1.0
147,36.5,16.9508,17.6953,151.087,101.736,83.104,0.00298279,0.10469,20.9027,170.453,1.83754,0.0,1.0
150,37.25,17.1102,17.3867,154.981,101.734,82.191,0.00329684,0.125944,20.8706,170.463,1.93771,0.0,1.0
153,38,17.494,17.8312,150.595,101.737,82.8863,0.00389645,0.152816,20.8348,170.343,1.86141,0.0,1.0
156,38.75,17.3876,17.4073,144.36,101.755,79.2882,0.00451577,0.180553,20.7977,170.323,2.26621,0.0,1.0
159,39.5,18.08,18.0921,153.153,101.747,81.3687,0.00512931,0.204247,20.7607,170.233,2.03023,0.0,0.0
162,40.25,18.9497,18.5796,156.49,101.749,80.7757,0.00572085,0.237343,20.7141,170.123,2.09678,0.0,0.0
165,41,18.8984,19.5822,148.696,101.758,78.1729,0.00630416,0.266847,20.6728,170.023,2.39512,0.0,0.0
168,41.75,19.6417,19.3627,144.502,101.75,79.0111,0.00685379,0.297549,20.6299,169.962,2.2975,0.0,0.0
171,42.5,20.3758,20.6241,145.673,101.758,80.7353,0.00735633,0.327582,20.5836,169.862,2.10218,0.0,0.0
174,43.25,20.2755,20.6072,147.454,101.752,78.7749,0.00788821,0.359427,20.5401,169.732,2.32496,0.0,0.0
177,44,21.6244,21.7379,140.251,101.766,79.5115,0.00827595,0.385495,20.5042,169.612,2.24162,0.0,0.0
180,44.75,22.5069,22.8273,139.647,101.759,79.4818,0.00875205,0.41558,20.4648,169.462,2.24443,0.0,0.0
183,45.5,22.8066,23.4502,137.264,101.768,78.9913,0.00928038,0.443747,20.432,169.382,2.30144,0.0,0.0
186,46.25,24.1415,24.5174,136.496,101.754,77.459,0.00974485,0.466939,20.4008,169.242,2.47808,0.0,0.0
189,47,25.0349,24.7513,138.857,101.769,76.7632,0.0102191,0.494547,20.3655,169.142,2.56141,0.0,0.0
192,47.75,25.4901,25.5368,139.637,101.781,77.033,0.0108675,0.517861,20.3398,169.012,2.53065,0.0,0.0
195,48.5,26.3244,26.9706,134.474,101.777,75.7723,0.0113402,0.54031,20.3122,168.892,2.68014,0.0,0.0
198,49.25,26.1899,26.8853,135.025,101.777,75.6526,0.0120745,0.561063,20.2884,168.781,2.69453,0.0,0.0
201,50,27.8487,28.4035,137.216,101.774,74.184,0.0129303,0.577712,20.2712,168.651,2.87227,0.0,0.0
204,50.75,29.0878,29.8568,132.813,101.787,70.7236,0.013818,0.590497,20.2573,168.551,3.30741,0.0,0.0
207,51.5,29.4849,29.9354,136.495,101.787,67.5024,0.0144652,0.599212,20.2472,168.421,3.73082,0.0,0.0
210,52.25,29.4637,31.0679,140.901,101.788,65.4951,0.0154738,0.60453,20.2399,168.341,4.00519,0.0,0.0
213,53,30.2785,30.5964,139.604,101.786,62.4379,0.0162783,0.605004,20.2345,168.211,4.43923,0.0,0.0
216,53.75,31.2164,32.1675,140.605,101.792,59.3088,0.0168607,0.602629,20.2306,168.131,4.90678,0.0,0.0
219,54.5,32.3149,33.4497,142.232,101.799,60.2885,0.0172277,0.596244,20.2372,168.031,4.75854,0.0,0.0
222,55.25,32.2553,33.8225,143.083,101.793,62.9043,0.0173132,0.587245,20.2557,167.901,4.37222,0.0,0.0
225,56,33.3608,34.7892,144.395,101.8,64.3406,0.0172456,0.573257,20.2795,167.841,4.16773,0.0,0.0
228,56.75,33.7554,35.3282,143.308,101.808,65.0924,0.0170861,0.554412,20.3044,167.791,4.06295,0.0,0.0
231,57.5,33.4965,34.9252,149.337,101.81,66.7193,0.0168758,0.535038,20.3291,167.72,3.83893,0.0,0.0
234,58.25,34.175,35.9498,148.422,101.811,64.8355,0.0167225,0.516457,20.35,167.61,4.09917,0.0,0.0
237,59,34.9018,36.5072,151.606,101.806,64.2718,0.0163891,0.499396,20.3721,167.57,4.17801,0.0,0.0
240,59.75,35.0653,36.8015,143.958,101.82,61.0979,0.0160396,0.482055,20.3904,167.51,4.63932,0.0,0.0
243,60.5,35.3499,37.4693,145.502,101.819,59.8135,0.0156568,0.469413,20.4073,167.4,4.83221,0.0,0.0
246,61.25,35.07,36.3088,144.772,101.824,61.8854,0.0152364,0.453315,20.4284,167.38,4.52333,0.0,0.0
249,62,36.2826,37.7325,150.92,101.826,66.1909,0.0147214,0.439242,20.4482,167.29,3.91256,0.0,0.0
252,62.75,35.9481,38.0573,150.018,101.836,65.0084,0.0141507,0.424984,20.4702,167.23,4.07718,0.0,0.0
255,63.5,35.8446,37.6667,155.017,101.854,66.2335,0.0135525,0.409432,20.4951,167.2,3.90915,0.0,0.0
258,64.25,36.1753,38.463,152.436,101.832,68.8415,0.0129397,0.396113,20.5162,167.12,3.55645,0.0,0.0
261,65,36.4923,38.5781,155.035,101.837,67.7253,0.0124176,0.383015,20.5368,167.09,3.70535,0.0,0.0
264,65.75,37.0556,38.5014,150.849,101.851,72.1307,0.0117129,0.369367,20.5598,167.02,3.13412,0.0,0.0
267,66.5,37.1665,39.1872,154.829,101.846,75.1087,0.0110725,0.355893,20.5799,167,2.76617,0.0,0.0
270,67.25,36.6274,38.8782,157.59,101.841,76.6139,0.0104881,0.343031,20.6022,166.92,2.58549,0.0,0.0
273,68,37.1444,38.5813,153.273,101.845,76.9323,0.00995309,0.330317,20.6228,166.89,2.54823,0.0,0.0
276,68.75,36.8792,38.382,151.782,101.842,79.7525,0.00943217,0.319627,20.6418,166.85,2.22094,0.0,0.0
279,69.5,36.8563,39.2852,154.142,101.856,80.1897,0.0089473,0.308035,20.6593,166.81,2.17247,0.0,0.0
282,70.25,36.8683,38.9236,154.556,101.856,80.2714,0.00850947,0.297653,20.6752,166.77,2.16321,0.0,0.0
285,71,37.0351,38.9071,155.085,101.856,82.4285,0.00810185,0.288349,20.6883,166.72,1.92237,0.0,0.0
288,71.75,36.9955,39.052,152.189,101.853,81.8321,0.00776699,0.280006,20.7004,166.68,1.98804,0.0,0.0
291,72.5,36.6762,38.9346,151.525,101.866,82.8054,0.00752287,0.272503,20.7104,166.64,1.88181,0.0,0.0
294,73.25,36.7293,38.5988,154.092,101.854,82.2972,0.00721639,0.265853,20.7179,166.619,1.9367,0.0,0.0
297,74,36.7839,39.0758,155.332,101.871,82.5614,0.00690444,0.260019,20.7237,166.589,1.90906,0.0,0.0
300,74.75,37.2019,38.7698,155.625,101.869,83.2654,0.00661934,0.255766,20.7298,166.559,1.83175,0.0,0.0
303,75.5,37.1036,38.7104,150.398,101.87,84.194,0.00629519,0.250563,20.7369,166.509,1.73108,0.0,0.0
306,76.25,36.4686,38.724,155.135,101.878,85.0933,0.00601475,0.245874,20.7432,166.479,1.63535,0.0,0.0
309,77,36.7442,38.8028,159.165,101.888,84.5782,0.00573483,0.240938,20.7522,166.449,1.69131,0.0,0.0
312,77.75,36.7629,38.5742,156.697,101.886,85.4504,0.0054292,0.235629,20.761,166.419,1.59797,0.0,0.0
315,78.5,36.0559,37.9143,156.593,101.89,86.6406,0.00518342,0.231305,20.7688,166.419,1.47269,0.0,0.0
318,79.25,36.8066,38.6031,157.535,101.89,86.8554,0.00496496,0.226431,20.7752,166.509,1.45024,0.0,0.0
321,80,36.7454,38.6135,155.125,101.894,86.978,0.00481068,0.222223,20.7802,166.379,1.43776,0.0,0.0
324,80.75,36.0944,38.3401,156.428,101.899,85.9961,0.00470034,0.218681,20.7842,166.319,1.54133,0.0,0.0
327,81.5,36.4867,38.2105,157.896,101.905,86.3067,0.00465726,0.215765,20.7871,166.279,1.50909,0.0,0.0
330,82.25,36.1077,37.8646,156.024,101.907,86.1738,0.00465457,0.213359,20.7895,166.299,1.52328,0.0,0.0
333,83,36.358,37.7658,156.526,101.909,85.3123,0.00466484,0.211124,20.7916,166.289,1.6147,0.0,0.0
336,83.75,35.7733,38.1334,155.452,101.906,86.4238,0.00470261,0.208652,20.7954,166.239,1.4969,0.0,0.0
339,84.5,35.5785,37.9102,159.314,101.915,87.4806,0.00473264,0.206102,20.7995,166.199,1.38731,0.0,0.0
342,85.25,35.4221,36.9826,153.953,101.922,87.0369,0.00475363,0.20358,20.8034,166.179,1.43412,0.0,0.0
345,86,35.4699,37.8425,155.752,101.917,87.0903,0.00476556,0.200566,20.808,166.129,1.42807,0.0,0.0
348,86.75,35.3495,37.85,156.343,101.926,88.0864,0.00477491,0.197835,20.8121,166.109,1.32561,0.0,0.0
351,87.5,35.6751,37.3686,159.212,101.919,88.2736,0.00478877,0.194934,20.8163,166.089,1.30563,0.0,0.0
354,88.25,35.0143,37.0986,153.716,101.918,88.2663,0.00480899,0.191525,20.8219,166.089,1.3063,0.0,0.0
357,89,34.8098,37.4038,160.894,101.923,89.5533,0.00484999,0.188403,20.8269,166.059,1.17526,0.0,0.0
360,89.75,35.4988,36.9585,161.744,101.915,89.6604,0.00490884,0.185038,20.8321,166.019,1.16369,0.0,0.0
363,90.5,35.4759,37.2625,161.598,101.927,90.0279,0.00498215,0.181263,20.8384,166.019,1.12765,0.0,0.0
366,91.25,35.1345,37.7837,160.949,101.921,89.6919,0.00509632,0.177362,20.8453,166.049,1.16106,0.0,0.0
369,92,33.9578,36.338,161.703,101.919,90.4212,0.00522093,0.173514,20.8521,166.039,1.08728,0.0,0.0
372,92.75,34.3104,36.2677,156.156,101.917,90.4178,0.0053294,0.169484,20.8587,166.009,1.08747,0.0,0.0
375,93.5,35.1025,36.8658,157.203,101.916,91.1755,0.00548188,0.165449,20.8653,165.989,1.01159,0.0,0.0
378,94.25,34.1075,36.7212,163.503,101.912,92.2771,0.0056109,0.160981,20.8708,165.949,0.902133,0.0,0.0
381,95,34.1569,36.2621,160.8,101.908,92.4552,0.00573549,0.156795,20.876,165.919,0.884244,0.0,0.0
384,95.75,34.3017,36.3619,161.921,101.916,92.8451,0.00585147,0.152559,20.8818,165.929,0.846762,0.0,0.0
387,96.5,33.7703,35.5195,164.322,101.902,92.5094,0.00594091,0.148965,20.8857,165.909,0.878403,0.0,0.0
390,97.25,34.0171,36.0718,157.764,101.908,92.9694,0.00608581,0.144518,20.8914,165.889,0.833865,0.0,0.0
393,98,33.8284,35.7729,162.543,101.895,93.3515,0.00623437,0.141277,20.8975,165.899,0.795426,0.0,0.0
396,98.75,33.623,35.9127,160.855,101.895,93.5697,0.0063858,0.137694,20.9038,165.859,0.774259,0.0,0.0
399,99.5,33.6058,35.7624,161.387,101.882,93.2633,0.00656066,0.135193,20.9089,165.849,0.802906,0.0,0.0
402,100.25,33.5484,35.8354,159.019,101.887,93.4221,0.00671562,0.131911,20.9134,165.869,0.787859,0.0,0.0
405,101,33.6635,35.1228,161.511,101.875,93.5507,0.00689815,0.128854,20.9171,165.869,0.774324,0.0,0.0
408,101.75,32.998,34.8753,165.824,101.872,93.7099,0.00707687,0.126428,20.9204,165.849,0.75862,0.0,0.0
411,102.5,32.8324,34.342,159.592,101.855,93.6385,0.00723451,0.124575,20.9229,165.829,0.764031,0.0,0.0
414,103.25,32.206,34.4911,162.801,101.851,93.6914,0.00735666,0.123209,20.9251,165.819,0.758529,0.0,0.0
417,104,32.9061,35.0839,162.946,101.841,93.284,0.00743304,0.122206,20.9269,165.829,0.797199,0.0,0.0
420,104.75,32.5262,34.6479,163.584,101.84,93.9681,0.00748332,0.121214,20.9282,165.809,0.730782,0.0,0.0
423,105.5,32.013,34.1297,164.408,101.829,93.9208,0.00749107,0.120387,20.9296,165.799,0.734325,0.0,0.0
426,106.25,32.0533,33.9845,161.563,101.822,93.8218,0.00747141,0.119517,20.9312,165.779,0.743273,0.0,0.0
429,107,31.8295,34.1875,160.679,101.822,94.1428,0.00744629,0.118731,20.9333,165.769,0.712247,0.0,0.0
432,107.75,31.6539,33.6979,163.586,101.823,94.5271,0.00740812,0.117975,20.9352,165.759,0.675394,0.0,0.0
435,108.5,30.8646,33.4731,163.695,101.811,94.3877,0.00739422,0.117286,20.9367,165.729,0.687731,0.0,0.0
438,109.25,31.5699,33.3747,158.455,101.814,95.2797,0.00739001,0.116682,20.9379,165.739,0.602512,0.0,0.0
441,110,31.1093,33.4462,167.253,101.803,94.9229,0.00747183,0.116116,20.9387,165.749,0.635622,0.0,0.0
444,110.75,31.0855,32.5256,161.421,101.78,94.7728,0.00759489,0.115686,20.9393,165.729,0.647932,0.0,0.0
447,111.5,30.9233,32.6242,160.324,101.783,94.8657,0.00771163,0.115436,20.9398,165.709,0.639325,0.0,0.0
450,112.25,30.4041,32.6722,164.793,101.768,94.5034,0.00787101,0.115422,20.9389,165.699,0.672714,0.0,0.0
453,113,30.7238,32.1361,161.822,101.779,94.5421,0.00801802,0.115484,20.9382,165.689,0.670029,0.0,0.0
456,113.75,30.7322,32.3797,164.311,101.745,94.6846,0.00812653,0.115731,20.9377,165.689,0.653248,0.0,0.0
459,114.5,30.7244,32.147,165.03,101.743,95.2947,0.00820792,0.115924,20.9373,165.679,0.594715,0.0,0.0
462,115.25,30.4893,32.0035,166.503,101.718,94.7366,0.00826324,0.116094,20.937,165.669,0.64585,0.0,0.0
465,116,29.6419,31.4096,166.251,101.7,94.8481,0.0082967,0.116255,20.9369,165.659,0.633615,0.0,0.0
468,116.75,29.4168,31.8953,164.229,101.706,94.7495,0.00833016,0.116474,20.9367,165.659,0.643613,0.0,0.0
471,117.5,29.538,31.6382,163.108,101.686,95.0146,0.00837633,0.116581,20.9366,165.629,0.616423,0.0,0.0
474,118.25,29.9559,31.4816,164.926,101.672,95.8098,0.00840998,0.11657,20.9372,165.619,0.539459,0.0,0.0
477,119,29.551,31.5813,164.423,101.651,95.1045,0.00850351,0.116436,20.9379,165.609,0.60472,0.0,0.0
480,119.75,29.9771,31.8222,166.601,101.638,94.8003,0.00859517,0.116165,20.9386,165.609,0.632638,0.0,0.0
483,120.5,28.8084,30.8501,168.537,101.624,94.8743,0.00870213,0.115765,20.9398,165.609,0.624326,0.0,0.0
486,121.25,29.1139,31.02,165.744,101.602,94.8253,0.00879891,0.115318,20.9406,165.599,0.627062,0.0,0.0
489,122,29.1723,30.7681,165.328,101.585,94.7874,0.00890161,0.114726,20.9412,165.569,0.629171,0.0,0.0
492,122.75,28.8137,30.4567,160.356,101.573,94.8309,0.0089969,0.113993,20.9419,165.559,0.623857,0.0,0.0
495,123.5,28.9018,30.6018,161.675,101.559,94.6385,0.00908382,0.113459,20.9428,165.549,0.641115,0.0,0.0
498,124.25,27.8316,29.8142,163.752,101.534,94.4892,0.00916213,0.112769,20.9434,165.539,0.65316,0.0,0.0
501,125,28.2853,29.9291,162.707,101.526,94.7878,0.0092265,0.112259,20.9439,165.539,0.623792,0.0,0.0
504,125.75,28.2769,29.8333,163.832,101.509,94.6807,0.0092696,0.111874,20.9443,165.518,0.632583,0.0,0.0
507,126.5,27.9654,29.7431,162.455,101.488,94.7465,0.0093014,0.111554,20.9445,165.529,0.624341,0.0,0.0
510,127.25,28.31,30.0859,164.761,101.468,94.4298,0.00932803,0.11125,20.9447,165.518,0.653011,0.0,0.0
513,128,26.9916,28.8242,165.947,101.453,94.6299,0.0093636,0.110991,20.9448,165.508,0.632411,0.0,0.0
516,128.75,27.2951,29.2186,164.407,101.434,94.3283,0.00941713,0.11079,20.9449,165.488,0.659743,0.0,0.0
519,129.5,27.69,29.6081,164.964,101.422,94.5933,0.00950542,0.110685,20.945,165.498,0.633178,0.0,0.0
522,130.25,27.2291,29.1643,165.189,101.388,94.6738,0.00959472,0.110627,20.9451,165.478,0.622373,0.0,0.0
525,131,27.5457,29.2524,162.056,101.374,94.6622,0.00970246,0.110584,20.9457,165.488,0.622226,0.0,0.0
528,131.75,27.2629,29.362,162.049,101.347,94.6682,0.00983952,0.110469,20.9462,165.478,0.619233,0.0,0.0
531,132.5,26.5686,28.4393,161.529,101.326,94.3911,0.00998949,0.110312,20.9466,165.478,0.644042,0.0,0.0
534,133.25,26.9273,29.2181,163.822,101.302,94.5649,0.0101202,0.110134,20.9468,165.458,0.625174,0.0,0.0
537,134,27.0771,29.0669,162.12,101.265,94.7547,0.0102906,0.109991,20.947,165.438,0.603582,0.0,0.0
540,134.75,27.309,28.7665,160.872,101.244,94.5417,0.0104453,0.109858,20.9471,165.438,0.622203,0.0,0.0
543,135.5,26.5387,28.0429,162.058,101.226,94.6174,0.0106102,0.109723,20.9479,165.448,0.613256,0.0,0.0
546,136.25,27.0137,28.3137,164.864,101.21,94.4475,0.0107497,0.109457,20.9486,165.438,0.628212,0.0,0.0
549,137,26.3479,28.0918,164.329,101.193,94.4135,0.0108651,0.109191,20.9496,165.418,0.629883,0.0,0.0
552,137.75,26.1136,27.7931,168.247,101.169,94.5309,0.0109646,0.108776,20.9503,165.408,0.616506,0.0,0.0
555,138.5,25.9026,28.0909,166.744,101.149,94.5912,0.0110228,0.108445,20.9506,165.408,0.608858,0.0,0.0
558,139.25,25.7442,27.1941,163.542,101.124,94.651,0.0111016,0.108153,20.9511,165.408,0.600919,0.0,0.0
561,140,25.7204,27.5419,168.442,101.092,94.6798,0.0111667,0.10788,20.9514,165.388,0.595288,0.0,0.0
564,140.75,25.8317,27.5268,166.89,101.082,94.4978,0.0112188,0.107681,20.9516,165.378,0.611799,0.0,0.0
567,141.5,25.9752,26.7431,164.026,101.065,94.3653,0.0112568,0.107579,20.9517,165.388,0.62302,0.0,0.0
570,142.25,25.7736,27.3482,165.357,101.019,94.3915,0.0112845,0.107481,20.952,165.368,0.616434,0.0,0.0
573,143,24.8589,26.8084,163.121,100.988,94.3382,0.011302,0.10749,20.9524,165.358,0.618776,0.0,0.0
576,143.75,25.1754,27.2584,159.465,100.952,94.1811,0.0113101,0.107497,20.9527,165.358,0.630668,0.0,0.0
579,144.5,24.9306,26.6965,163.284,100.94,94.0968,0.0112921,0.107403,20.9529,165.348,0.637687,0.0,0.0
582,145.25,25.4545,27.06,160.808,100.935,94.0662,0.0112558,0.107294,20.9531,165.338,0.640226,0.0,0.0
585,146,25.142,26.4421,167.237,100.894,94.6476,0.0112194,0.107113,20.9532,165.308,0.58057,0.0,0.0
588,146.75,25.1959,26.9884,164.257,100.881,94.0735,0.0111543,0.106916,20.9533,165.298,0.634597,0.0,0.0
591,147.5,24.7014,26.8757,166.344,100.857,94.4109,0.0110811,0.106658,20.9535,165.298,0.59999,0.0,0.0
594,148.25,24.5262,26.178,165.681,100.823,94.2392,0.0110168,0.10633,20.9542,165.298,0.613427,0.0,0.0
597,149,25.1407,26.0659,163.303,100.802,94.33,0.0109493,0.106049,20.9546,165.278,0.602775,0.0,0.0
600,149.75,25.1083,26.1208,168.599,100.774,94.2087,0.0108954,0.105782,20.9549,165.278,0.611965,0.0,0.0
603,150.5,24.2008,25.7927,164.872,100.763,94.1906,0.0108631,0.105512,20.9552,165.268,0.6127,0.0,0.0
606,151.25,24.7922,26.2737,165.327,100.736,94.2706,0.0108872,0.105231,20.9553,165.248,0.602595,0.0,0.0
609,152,24.0995,25.4339,162.939,100.719,94.0314,0.0109447,0.10499,20.9555,165.258,0.62407,0.0,0.0
612,152.75,24.1715,25.8644,164.5,100.7,94.3072,0.0110139,0.104774,20.9556,165.238,0.595782,0.0,0.0
615,153.5,23.9345,25.8255,162.26,100.679,94.6686,0.0110816,0.104659,20.9556,165.228,0.559165,0.0,0.0
618,154.25,24.2279,25.3861,162.429,100.658,94.3786,0.0111237,0.104579,20.9557,165.218,0.585092,0.0,0.0
621,155,24.4645,25.9826,163.987,100.637,94.3223,0.0111544,0.104495,20.9557,165.208,0.588611,0.0,0.0
624,155.75,24.3518,25.1285,164.314,100.617,94.2792,0.0111161,0.104209,20.9557,165.208,0.590998,0.0,0.0
627,156.5,24.466,25.6375,162.431,100.592,94.2538,0.0110369,0.103832,20.9558,165.198,0.591162,0.0,0.0
630,157.25,23.2703,25.2495,167.455,100.58,94.2005,0.0109886,0.103431,20.9562,165.178,0.595221,0.0,0.0
633,158,24.0471,25.5458,169.019,100.571,94.0602,0.0108779,0.103041,20.957,165.188,0.607971,0.0,0.0
636,158.75,23.631,25.4532,161.401,100.544,93.8988,0.0107836,0.102715,20.9579,165.168,0.621135,0.0,0.0
639,159.5,22.5582,24.1496,168.791,100.528,93.8033,0.010685,0.102417,20.9586,165.168,0.628957,0.0,0.0
642,160.25,23.4328,25.3519,168.448,100.511,93.8046,0.0106015,0.102126,20.9591,165.148,0.627223,0.0,0.0
645,161,24.1647,25.347,166.154,100.499,93.7603,0.010533,0.101789,20.9595,165.148,0.630467,0.0,0.0
648,161.75,23.7673,24.8383,167.75,100.476,94.0886,0.0104797,0.101383,20.9597,165.128,0.596656,0.0,0.0
651,162.5,23.5438,24.7873,162.863,100.478,93.8278,0.0104114,0.101073,20.9602,165.128,0.622014,0.0,0.0
654,163.25,22.7769,23.6869,165.807,100.469,93.7147,0.0103227,0.100834,20.9609,165.138,0.632153,0.0,0.0
657,164,23.0932,24.5801,163.089,100.456,93.7852,0.010213,0.100647,20.9614,165.148,0.624116,0.0,0.0
660,164.75,23.4251,25.2702,165.328,100.452,93.9875,0.010133,0.100413,20.9618,165.138,0.604212,0.0,0.0
663,165.5,23.6403,24.6348,162.614,100.43,93.8136,0.00996332,0.100201,20.9617,165.128,0.61908,0.0,0.0
666,166.25,23.8373,24.8798,168.024,100.416,94.0327,0.00979876,0.0998792,20.9617,165.128,0.596586,0.0,0.0
669,167,21.7795,23.6049,173.342,100.416,94.1794,0.00966136,0.0995737,20.9621,165.118,0.58246,0.0,0.0
672,167.75,21.8443,23.4854,161.443,100.401,93.9087,0.00952296,0.0991415,20.9624,165.118,0.607217,0.0,0.0
675,168.5,23.0024,24.4834,166.636,100.362,93.7719,0.00942462,0.0986416,20.9628,165.118,0.616938,0.0,0.0
678,169.25,22.806,23.801,164.903,100.37,93.9866,0.00935401,0.0981138,20.9635,165.108,0.596911,0.0,0.0
681,170,22.8835,24.2304,164.491,100.357,93.6101,0.00933063,0.0976035,20.9645,165.098,0.63221,0.0,0.0
684,170.75,22.9837,24.288,163.162,100.347,93.6428,0.00933498,0.0971779,20.9654,165.078,0.628137,0.0,0.0
687,171.5,22.7654,24.559,166.286,100.344,93.9156,0.00935424,0.0966687,20.966,165.068,0.601376,0.0,0.0
690,172.25,22.9156,23.8368,170.239,100.34,93.8076,0.00937083,0.0961859,20.9665,165.058,0.611527,0.0,0.0
693,173,22.5866,23.8717,164.762,100.329,93.805,0.00936997,0.0957864,20.9668,165.068,0.610727,0.0,0.0
696,173.75,22.8405,24.041,163.776,100.321,93.9311,0.00936335,0.095197,20.9677,165.058,0.597851,0.0,0.0
699,174.5,23.1186,23.7483,159.409,100.306,93.7551,0.00930762,0.0946279,20.9688,165.038,0.613498,0.0,0.0
702,175.25,22.1016,23.3043,164.024,100.313,93.6544,0.00922746,0.0939748,20.9699,165.038,0.623859,0.0,0.0
705,176,22.6551,23.8739,164.634,100.311,93.546,0.00915216,0.0932207,20.971,165.028,0.63427,0.0,0.0
708,176.75,22.4097,23.9232,165.539,100.308,93.5469,0.00904121,0.0925313,20.9722,165.008,0.633924,0.0,0.0
711,177.5,22.5972,23.7541,163.059,100.284,93.9488,0.00893643,0.0916655,20.9733,165.018,0.592806,0.0,0.0
714,178.25,22.5519,23.7814,167.592,100.302,93.6906,0.00880741,0.0908216,20.9745,165.018,0.619379,0.0,0.0
717,179,22.1563,23.7137,165.074,100.294,93.7586,0.00867394,0.0900674,20.9756,164.988,0.612114,0.0,0.0
720,179.75,22.3634,23.4346,169.791,100.29,94.0817,0.00853178,0.0892799,20.9764,164.998,0.580485,0.0,0.0
723,180.5,22.0832,23.6905,163.287,100.286,94.0981,0.00838014,0.0882303,20.9776,164.998,0.578493,0.0,0.0
726,181.25,21.8308,23.384,165.264,100.289,93.6381,0.0081864,0.0873336,20.9785,164.988,0.623269,0.0,0.0
729,182,22.1485,22.9132,161.823,100.287,93.685,0.00798567,0.0864551,20.9794,164.988,0.618608,0.0,0.0
732,182.75,21.9355,23.0779,164.185,100.293,93.7982,0.00781396,0.0855234,20.9804,164.988,0.608167,0.0,0.0
735,183.5,22.334,22.7964,167.688,100.281,93.7857,0.00761927,0.0844565,20.982,164.988,0.608287,0.0,0.0
738,184.25,21.7938,23.1433,165.984,100.277,93.6673,0.00749898,0.0833842,20.9831,164.988,0.619381,0.0,0.0
741,185,21.7691,22.8558,161.822,100.286,94.0636,0.00728971,0.0822908,20.9849,164.998,0.581855,0.0,0.0
744,185.75,21.9047,22.9173,167.012,100.291,93.861,0.00710185,0.0811615,20.9864,164.988,0.601898,0.0,0.0
747,186.5,22.0159,22.8426,162.895,100.281,94.2448,0.0069293,0.0801966,20.9876,164.978,0.56389,0.0,0.0
750,187.25,21.6467,22.8301,166.17,100.285,94.0718,0.00676837,0.0795582,20.9886,164.988,0.58099,0.0,0.0
753,188,21.7849,23.5712,166.005,100.288,93.9853,0.00665106,0.0785616,20.9892,164.968,0.58957,0.0,0.0
756,188.75,21.7438,22.4301,164.563,100.269,93.8412,0.0064597,0.0777106,20.9905,164.958,0.601861,0.0,0.0
759,189.5,21.5916,22.6953,164.306,100.29,93.9741,0.00628504,0.0767748,20.9918,164.948,0.590839,0.0,0.0
762,190.25,21.4653,22.5268,161.593,100.29,94.4703,0.00614273,0.0760926,20.9934,164.958,0.543009,0.0,0.0
765,191,21.6525,22.4841,164.837,100.296,94.2629,0.00600259,0.0752638,20.9948,164.958,0.563499,0.0,0.0
768,191.75,21.9502,22.4007,164.745,100.302,93.7362,0.00587437,0.0745182,20.9962,164.958,0.614958,0.0,0.0
771,192.5,21.6558,22.4633,166.322,100.292,93.6962,0.00576284,0.0737384,20.9978,164.938,0.617973,0.0,0.0
774,193.25,21.2974,21.9296,167.295,100.284,94.2358,0.00565146,0.0730595,20.999,164.958,0.565023,0.0,0.0
777,194,21.3925,22.4828,164.948,100.312,93.9216,0.00554164,0.0725176,20.9999,164.948,0.597904,0.0,0.0
780,194.75,21.7106,22.3214,165.148,100.301,94.0352,0.00543453,0.0719431,21.001,164.938,0.585948,0.0,0.0
783,195.5,21.9037,22.2771,165.554,100.302,94.1402,0.00531284,0.0713607,21.002,164.948,0.575925,0.0,0.0
786,196.25,20.559,21.7067,164.322,100.296,94.6166,0.00517661,0.0707872,21.0027,164.938,0.529553,0.0,0.0
789,197,21.1709,22.4289,165.027,100.311,94.074,0.00502783,0.0702315,21.0028,164.938,0.583071,0.0,0.0
792,197.75,21.3066,22.2927,163.365,100.334,94.0383,0.00488328,0.0697602,21.003,164.928,0.588621,0.0,0.0
795,198.5,21.4131,22.1587,163.653,100.325,93.9763,0.00471617,0.0693036,21.0036,164.928,0.593821,0.0,0.0
798,199.25,21.3571,22.5698,164.269,100.326,94.3735,0.0045535,0.0686956,21.0041,164.938,0.555588,0.0,0.0
801,200,21.1817,22.0014,162.073,100.336,93.8537,0.0044237,0.068158,21.0046,164.948,0.606657,0.0,0.0
804,200.75,21.2395,22.0805,164.438,100.345,93.8537,0.00432365,0.067605,21.0054,164.938,0.607483,0.0,0.0
807,201.5,21.1046,21.8927,164.725,100.347,93.8821,0.00424959,0.0670092,21.006,164.918,0.604921,0.0,0.0
810,202.25,21.1713,21.8671,164.977,100.356,93.7719,0.00420271,0.0664926,21.0064,164.908,0.616375,0.0,0.0
813,203,21.2987,22.1669,167.877,100.367,93.7792,0.00416918,0.0659982,21.0067,164.888,0.616679,0.0,0.0
816,203.75,21.4078,22.0687,161.007,100.383,93.805,0.00414586,0.0655414,21.0069,164.908,0.61564,0.0,0.0
819,204.5,21.2039,22.0177,163.303,100.395,93.7074,0.00412139,0.065095,21.0071,164.908,0.626191,0.0,0.0
822,205.25,20.8654,22.0512,167.918,100.405,93.6648,0.00410037,0.0646457,21.0072,164.908,0.631221,0.0,0.0
825,206,20.8187,21.3968,161.913,100.445,94.1286,0.00404944,0.064122,21.0073,164.908,0.589945,0.0,0.0
828,206.75,20.8584,22.2998,166.411,100.434,93.9027,0.00398371,0.0636751,21.0077,164.898,0.61076,0.0,0.0
831,207.5,20.7609,21.9726,164.355,100.453,93.7371,0.00390988,0.0632379,21.0085,164.898,0.628523,0.0,0.0
834,208.25,21.1573,21.522,169.036,100.468,94.0783,0.00383258,0.0628689,21.0091,164.908,0.596903,0.0,0.0
837,209,20.8666,20.9453,166.994,100.48,93.8179,0.00374394,0.062514,21.0096,164.908,0.623197,0.0,0.0
840,209.75,20.6985,21.3355,164.255,100.5,93.8124,0.00366557,0.0620592,21.0099,164.908,0.625499,0.0,0.0
843,210.5,20.8971,21.7655,163.594,100.506,93.8472,0.00355007,0.0615628,21.0101,164.918,0.622725,0.0,0.0
846,211.25,20.2966,21.3077,164.817,100.518,93.9001,0.00346587,0.0610728,21.0103,164.908,0.618651,0.0,0.0
849,212,20.4489,21.4022,164.824,100.538,93.9892,0.00335494,0.0606167,21.0107,164.888,0.611798,0.0,0.0
852,212.75,20.8513,21.4597,163.228,100.553,93.9815,0.00324578,0.0601743,21.0117,164.888,0.61397,0.0,0.0
855,213.5,20.6691,21.341,166.159,100.572,94.1587,0.00315395,0.059805,21.013,164.898,0.598497,0.0,0.0
858,214.25,20.8473,21.1561,163.876,100.58,94.083,0.00308701,0.0594057,21.0144,164.888,0.606556,0.0,0.0
861,215,20.4098,21.2891,163.571,100.588,93.8339,0.00304564,0.0588922,21.0156,164.888,0.63139,0.0,0.0
864,215.75,20.7418,21.2669,162.702,100.615,93.9328,0.00301864,0.0583806,21.0165,164.898,0.624283,0.0,0.0
867,216.5,20.708,21.3436,163.822,100.637,93.8717,0.00300602,0.0578986,21.0176,164.898,0.632177,0.0,0.0
870,217.25,20.3383,21.7639,169.09,100.646,94.0486,0.00298705,0.0574608,21.0186,164.898,0.615865,0.0,0.0
873,218,20.3945,21.1196,167.56,100.655,93.8115,0.00295652,0.056946,21.0193,164.858,0.639579,0.0,0.0
876,218.75,20.3006,21.0061,165.593,100.679,94.0624,0.00288604,0.0564913,21.02,164.858,0.617489,0.0,0.0
879,219.5,20.6837,21.2286,165.303,100.698,93.9621,0.0028141,0.0560241,21.021,164.838,0.628858,0.0,0.0
882,220.25,19.9178,20.7732,164.134,100.717,93.8838,0.00270706,0.0555075,21.0217,164.868,0.638189,0.0,0.0
885,221,19.6099,20.0807,163.036,100.731,94.0512,0.00260928,0.0550732,21.0222,164.878,0.623316,0.0,0.0
888,221.75,18.7032,20.0008,166.276,100.751,93.9862,0.00252828,0.0546579,21.0225,164.908,0.631387,0.0,0.0
891,222.5,19.6338,21.2477,165.552,100.776,93.9664,0.00246701,0.0542319,21.0234,164.888,0.635504,0.0,0.0
894,223.25,20.1168,21.0872,164.609,100.785,94.0193,0.00241707,0.0538687,21.0241,164.878,0.631248,0.0,0.0
897,224,20.0509,20.873,165.114,100.803,93.9797,0.0023671,0.0534085,21.0248,164.848,0.636641,0.0,0.0
900,224.75,20.1536,21.1135,170.103,100.804,93.9621,0.00232488,0.0529498,21.0257,164.858,0.638422,0.0,0.0
903,225.5,19.3578,20.2963,165.618,100.829,94.111,0.0022596,0.0525341,21.0264,164.848,0.626318,0.0,0.0
906,226.25,20.1599,20.6732,168.097,100.843,94.3554,0.0021973,0.0521817,21.0269,164.868,0.60399,0.0,0.0
909,227,20.0683,21.1114,167.283,100.858,94.1914,0.00210095,0.0518662,21.0272,164.858,0.621204,0.0,0.0
912,227.75,20.0926,20.6665,164.408,100.852,94.2921,0.0019975,0.0515929,21.0279,164.858,0.61094,0.0,0.0
915,228.5,20.1062,21.3657,171.01,100.873,94.2797,0.00189628,0.0513198,21.0286,164.858,0.614045,0.0,0.0
918,229.25,19.1291,20.1254,168.03,100.87,94.1351,0.00180258,0.0509565,21.0291,164.868,0.627724,0.0,0.0
921,230,20.3885,20.8912,165.972,100.892,94.268,0.00170974,0.0505784,21.03,164.868,0.616844,0.0,0.0
924,230.75,19.9319,20.533,165.984,100.88,94.1768,0.00163689,0.0502288,21.0307,164.848,0.624556,0.0,0.0
927,231.5,20.2115,21.1879,165.649,100.892,94.1635,0.00157494,0.0498765,21.0313,164.838,0.626924,0.0,0.0
930,232.25,20.3324,21.0998,169.385,100.895,94.1811,0.0015175,0.0495922,21.0317,164.818,0.625521,0.0,0.0
933,233,19.0726,20.3777,168.612,100.888,94.2091,0.00146393,0.0493733,21.032,164.828,0.622153,0.0,0.0
936,233.75,18.7015,19.4513,164.515,100.91,94.0843,0.00141384,0.0491747,21.0325,164.858,0.636169,0.0,0.0
939,234.5,19.108,20.6396,164.674,100.918,94.1914,0.00136569,0.0489796,21.0332,164.868,0.626577,0.0,0.0
942,235.25,20.3178,20.504,163.732,100.922,94.0512,0.00131072,0.0487511,21.0332,164.818,0.64045,0.0,0.0
945,236,19.8861,20.0527,160.976,100.923,94.1273,0.00124792,0.0485065,21.0332,164.788,0.633248,0.0,0.0
948,236.75,20.1588,20.3224,163.554,100.922,94.2013,0.00118794,0.0483283,21.0332,164.828,0.625958,0.0,0.0
951,237.5,19.6253,20.2646,167.927,100.922,94.1127,0.00111996,0.0481846,21.0332,164.848,0.634546,0.0,0.0
954,238.25,19.8542,20.5993,162.501,100.926,94.1626,0.00105293,0.0480597,21.0332,164.798,0.630066,0.0,0.0
957,239,19.8476,20.8032,162.607,100.934,94.055,0.00100406,0.047944,21.0332,164.808,0.641158,0.0,0.0
960,239.75,19.7731,20.1261,166.821,100.93,94.3033,0.000984164,0.0477621,21.0332,164.848,0.616912,0.0,0.0
963,240.5,19.8938,20.3694,164.609,100.923,94.1192,0.000981909,0.0476022,21.0332,164.868,0.634035,0.0,0.0
966,241.25,19.597,20.1424,161.761,100.923,94.2297,0.00100122,0.0474739,21.0332,164.868,0.623294,0.0,0.0
969,242,19.7653,20.3849,165.418,100.924,94.2723,0.00102404,0.0473414,21.0332,164.858,0.619301,0.0,0.0
972,242.75,19.5521,20.5245,162.747,100.913,94.2896,0.00103699,0.0472521,21.0334,164.858,0.616673,0.0,0.0
975,243.5,20.1461,20.2415,163.02,100.906,94.4049,0.00104358,0.0471992,21.034,164.838,0.604973,0.0,0.0
978,244.25,19.479,20.0168,165.171,100.926,94.426,0.00104618,0.0471333,21.0344,164.848,0.604735,0.0,0.0
981,245,19.4203,20.4943,164.644,100.923,94.3446,0.00106555,0.0470737,21.0347,164.828,0.612263,0.0,0.0
984,245.75,19.886,20.4539,166.822,100.924,94.1592,,0.0469716,,164.828,0.630211,0.0,0.0
987,246.5,19.9462,20.1688,167.912,100.9,94.1884,,0.0468973,,164.838,0.625264,0.0,0.0
990,247.25,19.1134,19.9635,167.714,100.912,94.364,,0.0468215,,164.838,0.609392,0.0,0.0
993,248,19.6314,20.5871,169.462,100.908,94.3765,,0.0467293,,164.828,0.607855,0.0,0.0
996,248.75,19.2673,20.2264,161.524,100.906,94.4294,,,,164.848,0.602539,0.0,0.0
999,249.5,19.1962,20.3294,165.761,100.891,94.333,,,,164.838,0.610473,0.0,0.0
1002,250.25,19.411,20.4455,162.865,100.901,94.4767,,,,164.858,0.597614,0.0,0.0
1005,251,19.7941,20.6163,166.618,100.902,94.6712,,,,164.848,0.57897,0.0,0.0
1008,251.75,19.5433,19.9599,162.043,100.919,94.5916,,,,164.828,0.588178,0.0,0.0
1011,252.5,19.3415,19.8233,164.97,100.918,94.6123,,,,164.818,0.586082,0.0,0.0
1014,253.25,19.4355,20.2581,162.268,100.943,94.6269,,,,164.848,0.586916,0.0,0.0
1017,254,19.8421,19.68,172.325,100.94,94.5989,,,,164.858,0.589341,0.0,0.0
1020,254.75,19.1959,20.3865,154.901,100.961,94.5779,,,,164.848,0.593266,0.0,0.0
1023,255.5,19.5444,19.7278,163.404,100.967,94.725,,,,164.828,0.579666,0.0,0.0
1025,256,19.6011,20.0011,165.322,100.974,94.4509,,,,164.828,0.606622,0.0,0.0