File: 01_Data/Roof_Felt/Cone/Roof_Felt_Underlayment_Cone_HF50Scan_220328_R1.csv
Names,Time,Stack TC,Smoke TC,Exh Press,Smoke Comp,Smoke Meas,CO Meter,CO2 Meter,O2 Meter,Sample Mass,Ext Coeff,Start Test,Flame Verif
Chan Gain,,500,500,1,1,1,1,1,1,1,1,1.0,1.0
Offset,,0,0,0.138301,0,0,0,0,0,0,0,0.0,0.0
Gain,,1,1,25.011,13.2062,13.8682,1,1,1,1.0009,1.02317,1.0,1.0
Units,sec,C,C,Pa,%,%,%,%,%,g,/m,,
Baseline,,28.9853,30.3099,147.55,99.5674,97.2894,0.00101753,0.066859,21.0116,-834.284,0.207804,,
2,0.25,28.5627,30.1238,150.183,98.8006,95.0506,0.000971459,0.0687275,21.0166,193.644,0.347294,0.0,0.0
4,0.75,28.7432,30.0997,145.955,98.853,95.2372,0.000973099,0.0683715,21.0171,193.715,0.334446,0.0,0.0
6,1.25,28.6188,30.6427,148.719,98.9143,94.9422,0.000967203,0.0680832,21.0175,193.564,0.367849,0.0,0.0
8,1.75,28.8782,30.8641,146.736,98.9578,94.9342,0.000962426,0.0678068,21.0179,193.674,0.372558,0.0,0.0
10,2.25,28.6484,29.7655,145.328,99.0404,95.2778,0.000952804,0.0675444,21.0181,193.554,0.347616,0.0,0.0
12,2.75,28.6868,29.846,148.573,99.0674,95.8657,0.000939833,0.0673104,21.0184,193.594,0.294857,0.0,0.0
14,3.25,28.8334,29.9128,146.751,99.1359,95.004,0.000929327,0.0671017,21.0185,193.594,0.3821,0.0,0.0
16,3.75,28.8164,29.7771,148.578,99.1726,95.3519,0.000920182,0.0669326,21.0187,193.554,0.352614,0.0,0.0
18,4.25,28.8026,30.1885,148.574,99.2298,95.3502,0.000912205,0.0667956,21.019,193.594,0.357952,0.0,0.0
20,4.75,28.7246,29.843,145.24,99.2967,95.6571,0.000906378,0.0666704,21.0192,193.514,0.335165,0.0,0.0
22,5.25,28.737,29.7188,147.455,99.3205,95.7311,0.000902228,0.0665561,21.0194,193.544,0.330367,0.0,0.0
24,5.75,28.3355,29.9382,149.189,99.3616,94.9156,0.000898866,0.0664636,21.0195,193.494,0.410871,0.0,0.0
26,6.25,28.6377,30.4023,145.362,99.4072,95.7294,0.000899755,0.0664029,21.0194,193.494,0.338352,0.0,0.0
28,6.75,28.518,29.6548,150.329,99.4326,95.0032,0.000915689,0.0663538,21.0191,193.504,0.408995,0.0,0.0
30,7.25,28.6984,29.4773,147.15,99.4721,94.9202,0.000942288,0.0663997,21.0176,193.464,0.420399,0.0,0.0
32,7.75,28.423,29.7671,144.324,99.4886,95.0908,0.000963833,0.0665139,21.0163,193.484,0.405777,0.0,0.0
34,8.25,28.6167,29.7084,146.558,99.5293,95.2097,0.00106935,0.0666064,21.0131,193.494,0.39823,0.0,0.0
36,8.75,28.335,29.6674,148.872,99.5337,95.3693,0.00115482,0.0672512,21.0105,193.484,0.383602,0.0,0.0
38,9.25,29.0039,30.1567,149.072,99.5724,95.2994,0.00142996,0.0677735,21.0047,193.464,0.393664,0.0,0.0
40,9.75,28.9807,29.8946,145.948,99.5579,94.2629,0.00165283,0.0709751,20.9967,193.494,0.490505,0.0,0.0
42,10.25,28.4811,29.9636,143.889,99.5817,94.6506,0.00209984,0.0735684,20.9903,193.374,0.455812,0.0,0.0
44,10.75,28.3687,30.1188,145.354,99.5756,93.8567,0.00270177,0.0832423,20.985,193.514,0.530873,0.0,0.0
46,11.25,29.0592,30.1188,141.52,99.5865,89.8555,0.00318932,0.0910782,20.9718,193.544,0.922866,0.0,0.0
48,11.75,28.1816,30.0117,140.147,99.5752,82.6294,0.00358424,0.112469,20.953,193.284,1.67431,0.0,1.0
50,12.25,28.7924,30.1032,135.656,99.572,75.6999,0.00488573,0.129796,20.9263,193.124,2.46014,0.0,1.0
52,12.75,28.7251,30.4476,129.531,99.5595,70.9315,0.00593994,0.156302,20.8944,193.254,3.04297,0.0,1.0
54,13.25,28.8059,30.0866,130.549,99.5507,68.7421,0.00764041,0.188996,20.848,192.984,3.32356,0.0,1.0
56,13.75,29.2976,30.6783,127.543,99.524,64.3165,0.0090178,0.215478,20.7919,193.024,3.91842,0.0,1.0
58,14.25,29.6621,30.8608,121.839,99.5168,60.9751,0.0106205,0.236929,20.7465,192.864,4.3966,0.0,1.0
60,14.75,29.6943,30.8929,116.396,99.4926,58.0066,0.012357,0.300733,20.6452,192.844,4.84235,0.0,1.0
62,15.25,30.0383,31.5232,111.723,99.4801,55.0204,0.0141963,0.352414,20.5632,192.774,5.3156,0.0,1.0
64,15.75,31.3335,31.8106,112.585,99.4612,53.8819,0.0160758,0.409723,20.4402,192.563,5.50155,0.0,1.0
66,16.25,31.6094,32.614,114.748,99.4539,51.7167,0.0175981,0.470046,20.3406,192.523,5.86901,0.0,1.0
68,16.75,32.282,33.5376,109.681,99.4297,49.9937,0.0197001,0.534153,20.2385,192.313,6.17093,0.0,1.0
70,17.25,32.7649,33.5645,117.591,99.4076,49.281,0.0214028,0.599799,20.1365,192.233,6.2978,0.0,1.0
72,17.75,33.6563,34.548,105.096,99.3701,48.7596,0.0234643,0.652973,20.0539,192.033,6.38988,0.0,0.0
74,18.25,34.3381,35.7014,104.391,99.3689,47.1408,0.0257483,0.723084,19.941,191.923,6.69281,0.0,0.0
76,18.75,36.0632,35.9557,100.909,99.3391,45.7568,0.0281324,0.779874,19.8495,191.753,6.95755,0.0,0.0
78,19.25,36.2286,37.5388,102.63,99.327,47.228,0.0305442,0.855531,19.7303,191.583,6.67244,0.0,0.0
80,19.75,37.4258,38.38,97.4246,99.3012,46.007,0.0329617,0.916814,19.6338,191.372,6.9052,0.0,0.0
82,20.25,38.4871,39.9749,101.729,99.2935,46.9563,0.0353374,0.989121,19.4991,191.192,6.7212,0.0,0.0
84,20.75,39.3571,41.2513,99.264,99.2601,45.4932,0.0375415,1.06809,19.39,191.122,7.00228,0.0,0.0
86,21.25,40.9429,42.3444,94.4333,99.2585,44.4275,0.0395786,1.13206,19.3016,190.892,7.21488,0.0,0.0
88,21.75,42.0468,43.9428,90.7604,99.2331,43.5866,0.0413003,1.22328,19.2301,190.692,7.3841,0.0,0.0
90,22.25,43.0255,45.0711,92.045,99.2282,46.5466,0.0427593,1.29934,19.1721,190.522,6.79395,0.0,0.0
92,22.75,44.7306,47.2785,92.6747,99.2105,44.1029,0.0439411,1.36291,19.1251,190.281,7.27636,0.0,0.0
94,23.25,46.1167,48.4728,98.4893,99.2004,43.3009,0.0445998,1.4144,19.091,190.161,7.44017,0.0,0.0
96,23.75,48.0862,50.5248,105.705,99.1867,45.6396,0.0451333,1.43618,19.0669,190.091,6.9668,0.0,0.0
98,24.25,49.2915,52.5059,105.079,99.1895,47.7587,0.0455654,1.45382,19.0474,189.951,6.55972,0.0,0.0
100,24.75,51.0421,54.5081,106.873,99.1629,45.3328,0.0454063,1.44125,19.0525,189.861,7.0252,0.0,0.0
102,25.25,52.1316,55.6774,113.543,99.1827,43.9763,0.0448193,1.41605,19.0756,189.741,7.29964,0.0,0.0
104,25.75,53.5642,57.5979,119.235,99.2581,45.3798,0.0439642,1.38212,19.0942,189.661,7.02451,0.0,0.0
106,26.25,54.1077,58.2717,112.801,99.3512,44.452,0.04293,1.35465,19.1448,189.601,7.2183,0.0,0.0
108,26.75,54.895,59.1515,111.612,99.4181,43.73,0.0416078,1.33239,19.1858,189.511,7.37132,0.0,0.0
110,27.25,56.5175,60.9604,116.919,99.4966,47.7181,0.0401006,1.27594,19.2632,189.411,6.5951,0.0,0.0
112,27.75,56.7805,61.7121,117.544,99.5696,45.5588,0.0383972,1.23021,19.326,189.381,7.01729,0.0,0.0
114,28.25,57.526,62.5341,123.038,99.6292,49.9248,0.0365831,1.17492,19.4403,189.311,6.20131,0.0,0.0
116,28.75,58.1568,63.5293,122.939,99.6905,48.4384,0.0346766,1.11371,19.5328,189.23,6.4781,0.0,0.0
118,29.25,58.4039,64.0063,124.285,99.7316,56.5981,0.0327389,1.0511,19.6464,189.19,5.08451,0.0,0.0
120,29.75,59.1746,64.6613,121.398,99.7796,60.813,0.0307469,0.988655,19.7383,189.14,4.44415,0.0,0.0
122,30.25,58.5807,64.2245,130.993,99.8307,64.8887,0.0287532,0.925766,19.8465,189.13,3.86654,0.0,0.0
124,30.75,59.0412,64.489,128.555,99.8614,70.6538,0.0271382,0.863746,19.9342,189.09,3.10534,0.0,0.0
126,31.25,59.709,65.2096,130.546,99.9114,75.1472,0.0253087,0.813511,20.0052,189.09,2.55645,0.0,0.0
128,31.75,59.9372,65.5533,137.352,99.9295,77.5524,0.0233575,0.75395,20.0885,189.07,2.27531,0.0,0.0
130,32.25,59.9291,65.805,135.311,99.9533,81.4245,0.0214949,0.698669,20.156,189.04,1.84016,0.0,0.0
132,32.75,59.938,65.4676,130.854,99.9928,82.4884,0.0197321,0.647557,20.2295,189.01,1.72718,0.0,0.0
134,33.25,59.5015,65.4162,136.009,99.9895,84.3134,0.0183043,0.606157,20.2891,189.01,1.5305,0.0,0.0
136,33.75,59.8324,65.4985,136.213,100.005,84.0658,0.0167044,0.560358,20.3373,188.98,1.55826,0.0,0.0
138,34.25,58.8419,64.3207,138.247,100.005,85.0875,0.0154084,0.52326,20.3835,188.97,1.44985,0.0,0.0
140,34.75,58.6982,64.6464,138.573,100.015,84.9398,0.0143586,0.488383,20.4274,188.96,1.46638,0.0,0.0
142,35.25,59.2163,65.312,136.431,100.004,85.5247,0.0132868,0.455785,20.4684,188.96,1.40374,0.0,0.0
144,35.75,58.9474,65.2241,138.06,100.015,85.3236,0.0122191,0.426595,20.5065,188.94,1.42584,0.0,0.0
146,36.25,58.5774,64.3044,139.2,99.9867,86.438,0.0112588,0.400443,20.5373,188.92,1.30688,0.0,0.0
148,36.75,59.0522,64.6037,136.908,99.9899,87.3039,0.0103949,0.37926,20.5698,188.91,1.21771,0.0,0.0
150,37.25,58.2123,64.3774,137.577,99.9589,87.2324,0.00964308,0.362102,20.596,188.88,1.22228,0.0,0.0
152,37.75,58.7792,64.1873,135.367,99.938,88.2434,0.00898712,0.341467,20.6248,188.88,1.11697,0.0,0.0
154,38.25,58.6151,64.0466,143.374,99.9162,88.8812,0.0084558,0.324753,20.648,188.87,1.05037,0.0,0.0
156,38.75,58.104,63.641,140.737,99.8876,88.4216,0.00795621,0.309441,20.6701,188.85,1.09434,0.0,0.0
158,39.25,58.1305,63.5354,142.256,99.8545,89.9685,0.00755155,0.295442,20.6909,188.83,0.935708,0.0,0.0
160,39.75,58.0517,63.5155,137.738,99.8175,89.0539,0.00720032,0.28287,20.7077,188.85,1.02408,0.0,0.0
162,40.25,57.7967,63.0348,138.461,99.7788,90.0696,0.00691582,0.271576,20.7248,188.82,0.91881,0.0,0.0
164,40.75,57.5207,63.1115,137.574,99.7328,89.5753,0.0066718,0.262429,20.7403,188.81,0.96407,0.0,0.0
166,41.25,56.7858,62.3723,142.198,99.6784,90.7045,0.00647415,0.252768,20.7543,188.79,0.846741,0.0,0.0
168,41.75,57.3,62.4069,141.549,99.6325,90.7189,0.00630542,0.244942,20.767,188.79,0.841179,0.0,0.0
170,42.25,56.5511,62.1809,142.764,99.5696,90.773,0.00616875,0.237025,20.7785,188.77,0.830155,0.0,0.0
172,42.75,56.6671,61.9647,139.024,99.5261,89.8178,0.00605557,0.230611,20.7888,188.76,0.921179,0.0,0.0
174,43.25,56.9456,61.9239,140.115,99.466,90.029,0.0059639,0.224819,20.798,188.75,0.894683,0.0,0.0
176,43.75,56.5414,61.7055,145.186,99.4636,90.5458,0.00589614,0.21959,20.8054,188.74,0.843096,0.0,0.0
178,44.25,56.0961,61.2759,141.376,99.4753,90.5056,0.0058471,0.214842,20.8127,188.71,0.848137,0.0,0.0
180,44.75,55.8686,61.3104,144.722,99.4983,91.1484,0.00580738,0.210536,20.8186,188.71,0.786682,0.0,0.0
182,45.25,55.3903,60.9698,139.682,99.5132,90.6253,0.00580482,0.206592,20.8243,188.7,0.839685,0.0,0.0
184,45.75,55.8631,60.9023,139.107,99.5349,91.6038,0.00580274,0.202986,20.8298,188.71,0.74526,0.0,0.0
186,46.25,55.4993,60.8714,137.99,99.5502,91.9957,0.00580107,0.199647,20.8342,188.69,0.708325,0.0,0.0
188,46.75,55.3779,60.1609,144.798,99.5728,91.7321,0.00584665,0.196567,20.838,188.67,0.73612,0.0,0.0
190,47.25,55.3016,60.1244,135.782,99.6051,92.1934,0.00588357,0.194072,20.8413,188.67,0.694004,0.0,0.0
192,47.75,54.9162,60.3,139.068,99.624,92.102,0.0059642,0.191102,20.8447,188.66,0.704615,0.0,0.0
194,48.25,54.8625,59.7804,142.262,99.6421,92.8413,0.00604645,0.188696,20.848,188.65,0.634485,0.0,0.0
196,48.75,54.8584,59.5028,142.929,99.6716,91.978,0.00612832,0.186385,20.8516,188.64,0.720989,0.0,0.0
198,49.25,54.2875,59.4287,140.616,99.6949,92.6818,0.00620508,0.184187,20.8545,188.62,0.654677,0.0,0.0
200,49.75,54.4236,59.4513,140.408,99.73,92.3322,0.00627664,0.182406,20.8582,188.62,0.69175,0.0,0.0
202,50.25,53.9691,59.0272,140.021,99.7558,92.5493,0.00634178,0.180391,20.8612,188.6,0.672991,0.0,0.0
204,50.75,53.6227,58.7271,138.604,99.805,92.7258,0.00640101,0.178759,20.8636,188.6,0.660316,0.0,0.0
206,51.25,53.7098,58.9803,139.027,99.8037,92.7093,0.00644898,0.176936,20.8655,188.59,0.661805,0.0,0.0
208,51.75,53.2425,58.1714,139.943,99.8457,92.5853,0.00650612,0.17546,20.8678,188.58,0.677585,0.0,0.0
210,52.25,54.0425,58.3931,146.29,99.863,93.4216,0.00656885,0.173779,20.8702,188.56,0.598437,0.0,0.0
212,52.75,53.4837,58.0561,143.904,99.9114,93.0513,0.00663274,0.172417,20.8722,188.57,0.638431,0.0,0.0
214,53.25,53.3614,58.1195,141.619,99.9238,93.3391,0.00669624,0.17083,20.8747,188.56,0.611837,0.0,0.0
216,53.75,52.8001,57.6035,142.804,99.9585,93.9087,0.00676076,0.169544,20.8767,188.53,0.560339,0.0,0.0
218,54.25,52.4935,57.4096,141.511,99.9706,94.5414,0.00682479,0.168188,20.8788,188.52,0.501156,0.0,0.0
220,54.75,52.6345,57.3972,148.501,100.01,94.4174,0.00687665,0.166806,20.8809,188.51,0.516482,0.0,0.0
222,55.25,52.5241,57.181,141.674,100.023,94.2003,0.00694352,0.165381,20.8831,188.51,0.538302,0.0,0.0
224,55.75,52.1937,56.9663,144.042,100.054,94.2591,0.00699769,0.16395,20.8853,188.5,0.535483,0.0,0.0
226,56.25,52.1625,56.6643,141.572,100.059,93.838,0.00705466,0.16256,20.887,188.5,0.576139,0.0,0.0
228,56.75,51.9882,56.6215,142.008,100.096,94.5148,0.00711258,0.161226,20.8885,188.49,0.514934,0.0,0.0
230,57.25,51.1929,56.5804,140.297,100.104,94.4576,0.0071595,0.160145,20.89,188.48,0.521048,0.0,0.0
232,57.75,51.3782,56.0233,141.375,100.141,94.4314,0.00719751,0.158816,20.8913,188.47,0.526901,0.0,0.0
234,58.25,51.3401,56.0633,139.428,100.154,94.6853,0.00727187,0.15774,20.892,188.46,0.503918,0.0,0.0
236,58.75,51.2244,56.0907,140.398,100.176,94.4585,0.0073321,0.156585,20.8921,188.46,0.527433,0.0,0.0
238,59.25,51.285,56.3631,141.849,100.184,95.0556,0.00739795,0.15565,20.8922,188.44,0.471628,0.0,0.0
240,59.75,51.0279,55.7136,140.05,100.205,94.9156,0.00746663,0.154893,20.8931,188.44,0.486707,0.0,0.0
242,60.25,50.7987,55.5305,142.826,100.211,94.8567,0.00752488,0.154279,20.8939,188.44,0.492848,0.0,0.0
244,60.75,50.3075,55.0003,143.97,100.235,95.4882,0.00757443,0.153316,20.8954,188.45,0.43543,0.0,0.0
246,61.25,49.6687,54.4313,143.294,100.222,95.3401,0.00761063,0.152535,20.8966,188.42,0.448172,0.0,0.0
248,61.75,49.541,54.2152,142.01,100.245,95.1128,0.00763641,0.151695,20.898,188.41,0.471721,0.0,0.0
250,62.25,50.1165,54.7249,143.46,100.248,95.2681,0.00765007,0.150827,20.8992,188.39,0.457294,0.0,0.0
252,62.75,50.034,54.5411,141.427,100.256,95.437,0.00765464,0.150125,20.9006,188.38,0.442121,0.0,0.0
254,63.25,49.7958,54.3065,143.575,100.247,95.4349,0.00765376,0.149217,20.9017,188.39,0.441489,0.0,0.0
256,63.75,49.5758,54.2815,140.604,100.257,95.1763,0.00764891,0.148482,20.9034,188.38,0.466744,0.0,0.0
258,64.25,49.9585,54.1415,143.458,100.245,95.4141,0.00765285,0.147605,20.9049,188.38,0.44326,0.0,0.0
260,64.75,49.4139,53.6675,143.623,100.255,96.0676,0.00766312,0.146894,20.906,188.36,0.38294,0.0,0.0
262,65.25,48.7304,53.3158,146.299,100.242,96.1581,0.00767145,0.146136,20.907,188.36,0.37329,0.0,0.0
264,65.75,48.3475,52.8544,140.643,100.253,95.6503,0.00767819,0.145521,20.9078,188.36,0.421831,0.0,0.0
266,66.25,49.1487,53.7965,143.336,100.225,95.9436,0.00771108,0.144813,20.9086,188.35,0.391825,0.0,0.0
268,66.75,48.7509,53.5062,142.518,100.225,95.9698,0.00773773,0.144046,20.9095,188.35,0.389371,0.0,0.0
270,67.25,48.9856,52.6873,144.913,100.212,95.8335,0.00775209,0.143252,20.9102,188.35,0.401007,0.0,0.0
272,67.75,48.5858,53.2384,147.138,100.196,95.9072,0.00775722,0.142609,20.9112,188.33,0.392632,0.0,0.0
274,68.25,48.5875,53.0495,143.89,100.187,96.1992,0.00774629,0.141859,20.9121,188.34,0.364552,0.0,0.0
276,68.75,48.3816,53.0596,146.096,100.176,95.795,0.00772386,0.141046,20.9136,188.35,0.401329,0.0,0.0
278,69.25,47.6915,51.5642,144.342,100.162,95.9347,0.0077011,0.140387,20.9149,188.33,0.387061,0.0,0.0
280,69.75,47.4231,51.6079,145.298,100.146,96.2352,0.00767853,0.139727,20.9163,188.33,0.357548,0.0,0.0
282,70.25,47.7303,52.2185,144.59,100.125,95.5153,0.00766943,0.13908,20.9175,188.31,0.42299,0.0,0.0
284,70.75,47.2947,51.6707,142.036,100.104,95.7645,0.00767033,0.13849,20.9185,188.3,0.397719,0.0,0.0
286,71.25,47.4492,52.195,144.664,100.09,96.1306,0.0076868,0.137952,20.9192,188.29,0.362281,0.0,0.0
288,71.75,47.9371,52.0619,146.531,100.058,95.3743,0.00771431,0.137457,20.9199,188.29,0.430317,0.0,0.0
290,72.25,47.3775,51.4974,141.159,100.037,95.7764,0.0077366,0.137003,20.9204,188.29,0.39068,0.0,0.0
292,72.75,46.9537,50.7543,146.426,99.9992,96.2551,0.00776713,0.136613,20.921,188.27,0.3425,0.0,0.0
294,73.25,46.7121,50.4988,145.406,99.9783,95.5457,0.00780309,0.136278,20.9217,188.26,0.407005,0.0,0.0
296,73.75,46.3009,50.5566,146.01,99.946,95.704,0.00782696,0.135976,20.9223,188.26,0.389253,0.0,0.0
298,74.25,46.5714,51.2164,142.684,99.9267,95.8822,0.00784157,0.135706,20.9228,188.25,0.370821,0.0,0.0
300,74.75,46.8129,51.1901,146.331,99.8823,95.4865,0.00784158,0.135486,20.9232,188.25,0.403956,0.0,0.0
302,75.25,46.4719,50.9843,140.635,99.8521,95.8128,0.00783096,0.135183,20.9235,188.26,0.370621,0.0,0.0
304,75.75,46.3122,50.1917,142.118,99.8166,95.1348,0.00782235,0.134937,20.9237,188.25,0.43117,0.0,0.0
306,76.25,46.3614,50.3825,145.332,99.7985,95.8839,0.00779669,0.134701,20.9242,188.25,0.359144,0.0,0.0
308,76.75,45.8447,49.913,140.415,99.7546,95.8005,0.00777589,0.134476,20.9247,188.24,0.363,0.0,0.0
310,77.25,45.5525,50.4385,143.478,99.7106,95.0607,0.00775905,0.134221,20.9252,188.24,0.428625,0.0,0.0
312,77.75,45.9718,49.6613,142.04,99.682,95.5788,0.00774541,0.133948,20.9256,188.21,0.377271,0.0,0.0
314,78.25,45.9405,49.877,145.629,99.6498,95.6325,0.00774092,0.133727,20.9258,188.21,0.369322,0.0,0.0
316,78.75,45.4947,49.4783,148.294,99.6107,95.0214,0.00774319,0.133365,20.927,188.2,0.423339,0.0,0.0
318,79.25,45.3305,49.2932,141.917,99.5849,94.7365,0.00774503,0.133073,20.9279,188.2,0.44796,0.0,0.0
320,79.75,45.0587,49.1862,138.628,99.543,95.1636,0.00775702,0.132626,20.9286,188.2,0.403816,0.0,0.0
322,80.25,45.7218,49.6575,147.195,99.5124,95.2072,0.00777618,0.132264,20.9292,188.21,0.396944,0.0,0.0
324,80.75,45.2167,49.0015,147.549,99.4733,95.31,0.0077917,0.131832,20.9301,188.21,0.383727,0.0,0.0
326,81.25,45.1287,49.6453,141.874,99.441,95.1179,0.00782332,0.131355,20.9309,188.18,0.398929,0.0,0.0
328,81.75,44.6176,48.8535,145.202,99.4044,95.4653,0.00786608,0.130969,20.9318,188.17,0.362891,0.0,0.0
330,82.25,44.4338,49.1936,141.459,99.3709,94.6718,0.00790992,0.130433,20.9325,188.17,0.434789,0.0,0.0
332,82.75,45.0708,49.2433,147.508,99.3233,95.0387,0.0079537,0.129999,20.9336,188.16,0.395773,0.0,0.0
334,83.25,43.8827,48.153,146.515,99.298,95.0019,0.00798786,0.129648,20.9344,188.16,0.396956,0.0,0.0
336,83.75,44.6816,48.5019,144.723,99.2435,94.9118,0.00801434,0.129363,20.9351,188.149,0.400557,0.0,0.0
338,84.25,44.6326,48.1558,149.281,99.2274,94.654,0.00802264,0.128825,20.9356,188.149,0.423506,0.0,0.0
340,84.75,44.1872,48.3846,143.737,99.1916,95.6757,0.00801754,0.12839,20.9365,188.139,0.323904,0.0,0.0
342,85.25,44.4239,48.3456,146.737,99.1569,95.3087,0.00801341,0.127856,20.9372,188.139,0.355256,0.0,0.0
344,85.75,44.4849,48.1002,144.825,99.115,95.059,0.00797388,0.127291,20.938,188.139,0.375006,0.0,0.0
346,86.25,44.299,48.0389,144.614,99.0775,94.7784,0.00794186,0.126715,20.9389,188.129,0.398144,0.0,0.0
348,86.75,43.8189,47.6742,140.667,99.04,95.266,0.00791593,0.126248,20.9396,188.129,0.348697,0.0,0.0
350,87.25,43.6052,47.7067,143.959,99.0082,95.2952,0.00784383,0.125703,20.9406,188.119,0.34306,0.0,0.0
352,87.75,43.742,47.8727,144.617,98.9663,94.5702,0.00778542,0.125261,20.9414,188.119,0.407802,0.0,0.0
354,88.25,43.7508,47.4628,138.913,98.9405,94.6218,0.00771322,0.124806,20.9421,188.109,0.400564,0.0,0.0
356,88.75,43.8788,47.5371,146.34,98.8994,94.2558,0.00765473,0.124437,20.9426,188.109,0.431626,0.0,0.0
358,89.25,43.5518,47.2984,140.484,98.8897,94.2968,0.00759989,0.124095,20.9431,188.099,0.42684,0.0,0.0
360,89.75,43.2158,47.1757,142.348,98.84375,94.4424,0.00755547,0.123778,20.9434,188.089,0.408822,0.0,0.0
362,90.25,43.2472,46.962,142.52,98.8091,94.6663,0.00752197,0.123521,20.9439,188.089,0.384423,0.0,0.0
364,90.75,43.094,46.9824,144.512,98.7635,94.3941,0.00749484,0.123271,20.9445,188.069,0.406123,0.0,0.0
366,91.25,42.8686,46.8731,144.029,98.7402,94.8944,0.00748283,0.123069,20.945,188.069,0.35656,0.0,0.0
368,91.75,43.0038,46.8081,144.456,98.7031,95.1373,0.00747309,0.122861,20.9455,188.039,0.330242,0.0,0.0
370,92.25,42.6919,46.5015,145.047,98.6789,94.3434,0.00747267,0.122653,20.946,188.029,0.403259,0.0,0.0
372,92.75,42.8238,46.7056,143.354,98.6398,94.0386,0.00747234,0.122374,20.9467,188.039,0.428739,0.0,0.0
374,93.25,42.5859,46.6416,144.39,98.612,94.2164,0.00747206,0.122147,20.9472,188.029,0.40926,0.0,0.0
376,93.75,42.35,45.8155,145.068,98.5862,93.8914,0.00748056,0.121866,20.9476,188.049,0.437929,0.0,0.0
378,94.25,42.4779,46.1874,143.697,98.558,94.2871,0.00748744,0.121639,20.948,188.039,0.397612,0.0,0.0
380,94.75,41.9937,45.9047,144.187,98.5475,94.8508,0.007498,0.121246,20.9487,188.039,0.343155,0.0,0.0
382,95.25,42.5913,45.9939,147.63,98.5125,93.7767,0.00750655,0.120928,20.9498,188.029,0.442182,0.0,0.0
384,95.75,41.9178,45.5785,145.473,98.4847,94.1605,0.0075197,0.120575,20.9506,188.009,0.402983,0.0,0.0
386,96.25,42.2397,45.9128,144.292,98.4645,94.2109,0.00753035,0.120204,20.9513,187.989,0.396348,0.0,0.0
388,96.75,41.7625,45.1654,142.951,98.4423,94.0958,0.00754029,0.119903,20.9518,187.999,0.4053,0.0,0.0
390,97.25,41.0865,44.81,144.032,98.4226,94.4094,0.00754953,0.119534,20.9522,187.989,0.373637,0.0,0.0
392,97.75,41.4542,45.3591,144.974,98.3904,94.1546,0.007557,0.119236,20.9526,187.979,0.39495,0.0,0.0
394,98.25,41.6997,45.3136,145.876,98.3956,94.3522,0.00753691,0.118897,20.9529,187.969,0.376608,0.0,0.0
396,98.75,41.7545,45.5014,144.6,98.3585,93.9409,0.00752063,0.118622,20.9531,187.959,0.412442,0.0,0.0
398,99.25,41.0466,44.68,141.803,98.3642,93.907,0.00746515,0.118356,20.9535,187.949,0.416191,0.0,0.0
400,99.75,41.2177,44.6756,145.938,98.3351,93.7018,0.0074202,0.118101,20.9541,187.949,0.433184,0.0,0.0
402,100.25,41.4069,44.8257,143.976,98.3291,93.9261,0.0073838,0.117894,20.9545,187.949,0.411172,0.0,0.0
404,100.75,41.2763,44.4597,141.756,98.3029,94.4712,0.00733689,0.117685,20.9549,187.939,0.356842,0.0,0.0
406,101.25,41.1575,44.7655,141.978,98.3053,94.2583,0.00725667,0.117516,20.955,187.939,0.37731,0.0,0.0
408,101.75,40.8063,44.3396,145.958,98.2916,93.8842,0.00718255,0.117313,20.9553,187.939,0.411755,0.0,0.0
410,102.25,40.9926,44.6842,142.133,98.284,94.1136,0.00711428,0.117089,20.9555,187.949,0.389153,0.0,0.0
412,102.75,40.9661,44.5896,142.594,98.2702,94.0708,0.00706029,0.116777,20.9557,187.959,0.391979,0.0,0.0
414,103.25,40.8464,44.4167,143.89,98.2642,93.8456,0.00701773,0.116406,20.9558,187.959,0.412935,0.0,0.0
416,103.75,40.6996,44.2318,145.061,98.2557,93.9574,0.00698326,0.116247,20.9564,187.949,0.401482,0.0,0.0
418,104.25,39.7403,43.2817,147.137,98.2561,93.9201,0.00696841,0.115926,20.9568,187.949,0.405077,0.0,0.0
420,104.75,40.4041,43.6164,145.561,98.2529,94.1097,0.00696814,0.115619,20.9568,187.939,0.386682,0.0,0.0
422,105.25,40.0959,44.1045,143.296,98.2497,94.0784,0.00697511,0.115341,20.9568,187.939,0.389375,0.0,0.0
424,105.75,40.3492,44.3319,145.229,98.2437,94.0467,0.00698723,0.11509,20.9568,187.929,0.391852,0.0,0.0
426,106.25,40.6435,44.0216,152.476,98.2497,94.0264,0.00700489,0.114887,20.9568,187.929,0.394342,0.0,0.0
428,106.75,40.4485,43.9266,141.01,98.2388,93.9231,0.00702626,0.114657,20.957,187.939,0.403211,0.0,0.0
430,107.25,39.7548,42.8715,146.314,98.2614,94.7856,0.00704357,0.114411,20.9574,187.919,0.323226,0.0,0.0
432,107.75,39.5239,43.2839,147.117,98.2561,94.7391,0.00706348,0.114212,20.9577,187.909,0.327157,0.0,0.0
434,108.25,39.1103,42.0456,143.164,98.2513,94.0137,0.00708491,0.114051,20.958,187.919,0.395702,0.0,0.0
436,108.75,39.2542,42.3762,147.053,98.2626,94.0831,0.00709899,0.113942,20.9582,187.909,0.390109,0.0,0.0
438,109.25,38.9345,42.8951,144.531,98.2638,94.4911,0.00710746,0.113874,20.9583,187.909,0.351383,0.0,0.0
440,109.75,39.4446,42.4715,145.396,98.263,94.3603,0.00711431,0.113819,20.9585,187.899,0.363739,0.0,0.0
442,110.25,39.2156,42.6157,145.728,98.288,93.9747,0.00710123,0.113686,20.9586,187.879,0.40277,0.0,0.0
444,110.75,39.271,42.3131,147.508,98.2912,94.166,0.00709063,0.1135,20.9587,187.889,0.384813,0.0,0.0
446,111.25,39.2604,42.604,145.384,98.3005,94.2325,0.00704727,0.11335,20.959,187.879,0.379328,0.0,0.0
448,111.75,39.2549,42.7352,148.749,98.3017,94.1868,0.00701215,0.113034,20.9594,187.889,0.383794,0.0,0.0
450,112.25,38.9249,42.204,146.496,98.3126,93.8012,0.00694772,0.112778,20.96,187.879,0.421602,0.0,0.0
452,112.75,38.8572,41.4897,143.919,98.323,94.0509,0.00689554,0.112446,20.9607,187.869,0.398697,0.0,0.0
454,113.25,39.0452,42.1013,143.821,98.3363,94.2532,0.006826,0.112178,20.9613,187.859,0.380626,0.0,0.0
456,113.75,39.1908,42.1054,148.64,98.3593,94.1728,0.00676967,0.111752,20.9617,187.849,0.390384,0.0,0.0
458,114.25,38.842,41.6639,145.806,98.3617,94.7357,0.00671687,0.111408,20.9621,187.859,0.337118,0.0,0.0
460,114.75,38.8473,42.0004,144.563,98.3803,94.723,0.00666765,0.110991,20.9624,187.839,0.340012,0.0,0.0
462,115.25,38.7697,41.8087,142.581,98.3936,94.3734,0.00662713,0.110653,20.9626,187.829,0.374411,0.0,0.0
464,115.75,39.4302,42.1527,147.034,98.4165,94.0865,0.00659372,0.110379,20.9628,187.819,0.403837,0.0,0.0
466,116.25,38.0742,41.6767,140.774,98.4157,94.778,0.00656666,0.110157,20.963,187.799,0.338036,0.0,0.0
468,116.75,38.3894,41.7487,148.911,98.4391,94.5215,0.00654969,0.109949,20.9631,187.809,0.364488,0.0,0.0
470,117.25,38.1176,41.5758,142.783,98.4496,94.1542,0.00653595,0.109753,20.9632,187.819,0.400393,0.0,0.0
472,117.75,38.4605,41.7306,143.708,98.4742,93.9074,0.00652743,0.109595,20.9635,187.809,0.426185,0.0,0.0
474,118.25,38.3404,41.8322,146.81,98.4838,93.7686,0.00652287,0.109329,20.964,187.789,0.440343,0.0,0.0
476,118.75,38.6169,41.3531,144.433,98.502,93.9096,0.00652244,0.109113,20.9644,187.789,0.428517,0.0,0.0
478,119.25,38.2438,41.5456,142.641,98.5056,94.3226,0.0065238,0.108814,20.9647,187.779,0.389456,0.0,0.0
480,119.75,38.2586,41.235,148.124,98.5419,94.2249,0.00652613,0.108572,20.9648,187.779,0.402068,0.0,0.0
482,120.25,38.0089,41.6503,139.074,98.5491,94.0733,0.00652802,0.108354,20.965,187.769,0.417173,0.0,0.0
484,120.75,38.2633,41.1476,147.646,98.5822,93.9984,0.00652954,0.108158,20.9652,187.769,0.427331,0.0,0.0
486,121.25,37.8167,41.0752,141.046,98.5854,94.3853,0.00653078,0.107933,20.9653,187.749,0.390766,0.0,0.0
488,121.75,37.9457,41.1281,144.019,98.6044,94.3074,0.00651444,0.107693,20.9657,187.769,0.399898,0.0,0.0
490,122.25,37.5488,41.3431,144.919,98.6213,94.9109,0.0065012,0.107498,20.9662,187.759,0.344185,0.0,0.0
492,122.75,37.9213,40.7586,146.638,98.6366,94.9084,0.00648266,0.107299,20.9666,187.759,0.345819,0.0,0.0
494,123.25,37.0168,40.0316,145.837,98.6475,94.8622,0.0064606,0.106958,20.9669,187.759,0.351172,0.0,0.0
496,123.75,37.1224,39.667,144.494,98.6745,94.7628,0.00643426,0.106544,20.9674,187.759,0.363043,0.0,0.0
498,124.25,37.9435,41.053,144.78,98.6971,94.8517,0.0064053,0.106084,20.968,187.759,0.356683,0.0,0.0
500,124.75,37.4755,40.5788,146.279,98.7063,94.3764,0.00637273,0.105712,20.9685,187.749,0.402612,0.0,0.0
502,125.25,37.6882,40.4192,146.272,98.7188,95.0404,0.00633814,0.105323,20.9689,187.759,0.340819,0.0,0.0
504,125.75,37.6959,40.3123,146.272,98.7382,94.4801,0.00628415,0.10493,20.9692,187.749,0.395651,0.0,0.0
506,126.25,37.8421,40.4226,146.363,98.7482,94.8787,0.00624042,0.104583,20.9695,187.749,0.358773,0.0,0.0
508,126.75,37.5146,40.5851,146.315,98.7785,94.7602,0.006205,0.104275,20.9701,187.739,0.372737,0.0,0.0
510,127.25,36.8531,40.2392,147.714,98.793,94.7166,0.00615485,0.103975,20.9706,187.739,0.378185,0.0,0.0
512,127.75,37.1354,40.0225,142.376,98.8216,94.3616,0.00609492,0.103687,20.9712,187.749,0.414495,0.0,0.0
514,128.25,37.5777,40.4399,140.241,98.8272,94.8216,0.00604637,0.103381,20.9718,187.729,0.371356,0.0,0.0
516,128.75,37.2344,40.2566,144.435,98.8526,94.4424,0.00598496,0.103067,20.9722,187.699,0.409627,0.0,0.0
518,129.25,37.2418,40.426,151.858,98.8667,94.6472,0.00591534,0.102813,20.973,187.699,0.391463,0.0,0.0
520,129.75,36.9711,39.4001,149.063,98.8877,94.7192,0.00585895,0.102463,20.9737,187.689,0.386545,0.0,0.0
522,130.25,37.5329,39.6185,147.489,98.9006,94.8677,0.00580094,0.102048,20.9742,187.689,0.37365,0.0,0.0
524,130.75,37.2176,39.5479,144.096,98.9288,94.9816,0.00575395,0.101713,20.9746,187.689,0.365445,0.0,0.0
526,131.25,37.4178,40.0975,145.654,98.9364,94.8969,0.00573439,0.101369,20.975,187.669,0.374142,0.0,0.0
528,131.75,36.9325,40.0553,143.583,98.9602,94.7348,0.00571855,0.101024,20.9753,187.679,0.391642,0.0,0.0
530,132.25,37.4066,39.9717,147.29,98.9904,95.0616,0.0057341,0.100746,20.9757,187.679,0.363482,0.0,0.0
532,132.75,37.2344,39.7968,144.758,98.9989,94.5258,0.0057467,0.100369,20.9763,187.669,0.414981,0.0,0.0
534,133.25,36.2578,39.3895,143.016,99.0126,94.5711,0.00577172,0.100063,20.9768,187.689,0.411923,0.0,0.0
536,133.75,36.5139,39.5881,146.166,99.0344,95.2182,0.00579199,0.0996784,20.9772,187.669,0.352691,0.0,0.0
538,134.25,36.0333,38.9522,146.991,99.0312,94.8754,0.00579606,0.0993666,20.9777,187.659,0.384771,0.0,0.0
540,134.75,35.459,38.8247,146.783,99.0658,94.5601,0.00579936,0.0990779,20.9783,187.669,0.417789,0.0,0.0
542,135.25,36.6599,39.6788,142.508,99.0739,94.3472,0.00580202,0.0988114,20.9789,187.659,0.438748,0.0,0.0
544,135.75,37.0372,39.6492,144.21,99.0993,95.8475,0.0057647,0.0985305,20.9793,187.649,0.299445,0.0,0.0
546,136.25,36.5555,39.4693,142.993,99.0976,95.1339,0.00573446,0.0982444,20.9796,187.649,0.366367,0.0,0.0
548,136.75,36.0534,39.4315,147.211,99.1158,94.8237,0.00568161,0.0979258,20.9799,187.629,0.397325,0.0,0.0
550,137.25,36.6815,39.6753,145.296,99.1323,94.8677,0.0056388,0.0975897,20.9801,187.639,0.394656,0.0,0.0
552,137.75,36.5907,39.4135,148.083,99.1521,95.2575,0.00558662,0.0971946,20.9803,187.629,0.359643,0.0,0.0
554,138.25,36.7541,39.715,146.169,99.1553,95.2982,0.0055286,0.0967639,20.9809,187.629,0.356106,0.0,0.0
556,138.75,36.5811,39.0437,146.68,99.1746,95.3451,0.00546925,0.0964151,20.9814,187.639,0.353434,0.0,0.0
558,139.25,36.029,38.9809,143.453,99.1791,95.1856,0.00541005,0.0959952,20.9817,187.639,0.368867,0.0,0.0
560,139.75,36.1422,39.1225,146.861,99.1968,95.2093,0.00536211,0.0956552,20.9821,187.639,0.368237,0.0,0.0
562,140.25,36.3845,38.846,146.626,99.2085,95.0235,0.00531835,0.0953147,20.9826,187.639,0.386827,0.0,0.0
564,140.75,35.8683,38.7258,143.292,99.2266,94.9812,0.0052829,0.0949805,20.9834,187.649,0.392465,0.0,0.0
566,141.25,36.408,38.9305,147.037,99.2331,95.2795,0.00526035,0.094638,20.984,187.639,0.364899,0.0,0.0
568,141.75,35.8671,39.067,146.799,99.2544,95.0324,0.00524208,0.094296,20.9845,187.639,0.390142,0.0,0.0
570,142.25,35.534,38.945,144.19,99.2625,94.9905,0.00522728,0.094019,20.9848,187.639,0.39483,0.0,0.0
572,142.75,35.8867,39.0286,149.417,99.2701,95.7061,0.00520668,0.0937809,20.9852,187.619,0.328155,0.0,0.0
574,143.25,36.5913,38.9839,144.887,99.2766,95.8056,0.00518999,0.0935881,20.9854,187.619,0.319415,0.0,0.0
576,143.75,35.8847,38.9236,145.794,99.2943,94.982,0.00514941,0.0934319,20.9856,187.609,0.398508,0.0,0.0
578,144.25,35.8886,38.5791,142.273,99.2903,95.3049,0.00511654,0.0933053,20.9858,187.599,0.367681,0.0,0.0
580,144.75,35.6815,38.6123,145.446,99.3064,95.128,0.00506411,0.0931884,20.9859,187.609,0.385814,0.0,0.0
582,145.25,35.8653,39.0206,145.074,99.3213,95.2444,0.00502164,0.0930807,20.9861,187.609,0.376187,0.0,0.0
584,145.75,36.1214,38.5209,141.566,99.3354,95.3875,0.00497741,0.0929935,20.9861,187.609,0.363992,0.0,0.0
586,146.25,35.8264,38.4277,146.944,99.329,95.4044,0.00494158,0.092772,20.9862,187.599,0.361816,0.0,0.0
588,146.75,35.7809,38.0662,143.349,99.329,95.7188,0.00490888,0.0925926,20.9865,187.589,0.332283,0.0,0.0
590,147.25,36.2285,38.5444,141.928,99.3483,94.9206,0.00488239,0.0923239,20.987,187.599,0.409188,0.0,0.0
592,147.75,36.1634,38.1337,145.652,99.3479,95.2931,0.00485356,0.0921062,20.9875,187.589,0.374005,0.0,0.0
594,148.25,36.2648,38.9828,146.483,99.3467,95.5229,0.00483021,0.0917792,20.9882,187.589,0.352277,0.0,0.0
596,148.75,35.632,38.4587,144.422,99.3604,95.3274,0.0048113,0.0915143,20.9888,187.569,0.371905,0.0,0.0
598,149.25,35.9464,38.0393,144.438,99.3689,95.4141,0.00479344,0.0911628,20.9892,187.579,0.364505,0.0,0.0
600,149.75,35.9482,38.0009,145.022,99.3721,95.9245,0.00477668,0.090878,20.9896,187.569,0.316912,0.0,0.0
602,150.25,35.7244,38.256,148.207,99.3802,95.5288,0.00476311,0.0905241,20.9899,187.569,0.354742,0.0,0.0
604,150.75,35.7257,37.9025,145.228,99.3915,95.376,0.00476052,0.0902375,20.9901,187.559,0.370127,0.0,0.0
606,151.25,34.9722,37.7932,143.91,99.3983,95.3917,0.00476598,0.0900053,20.9902,187.559,0.369273,0.0,0.0
608,151.75,35.4241,37.8519,143.503,99.4023,95.12,0.00477235,0.0898172,20.9902,187.569,0.395237,0.0,0.0
610,152.25,35.8679,38.4796,149.115,99.4116,95.5919,0.00477925,0.0896649,20.9902,187.559,0.351658,0.0,0.0
612,152.75,35.5011,37.8319,146.505,99.4197,95.0036,0.00478096,0.0895415,20.9902,187.559,0.40779,0.0,0.0
614,153.25,35.3912,38.2306,145.181,99.4342,95.3028,0.00477886,0.0894411,20.9902,187.559,0.380877,0.0,0.0
616,153.75,35.3647,38.0117,142.768,99.4209,95.0074,0.00477004,0.0893594,20.9902,187.559,0.40754,0.0,0.0
618,154.25,35.0615,37.8032,145.08,99.4467,95.0738,0.00475651,0.0892355,20.9902,187.549,0.403594,0.0,0.0
620,154.75,35.3662,37.8315,143.513,99.4426,94.7759,0.00473714,0.0890833,20.9903,187.539,0.431402,0.0,0.0
622,155.25,35.0909,37.7834,149.283,99.4539,95.4277,0.0047139,0.08896,20.9903,187.529,0.370909,0.0,0.0
624,155.75,35.3706,37.6197,144.093,99.4551,95.8048,0.00469507,0.0887917,20.9903,187.519,0.335621,0.0,0.0
626,156.25,35.1887,37.7752,145.382,99.4717,95.8695,0.00466239,0.0886266,20.9903,187.519,0.331048,0.0,0.0
628,156.75,34.8862,37.7999,142.92,99.4708,95.6143,0.00462022,0.0884669,20.9907,187.509,0.354899,0.0,0.0
630,157.25,34.7784,37.4283,142.036,99.4797,95.343,0.00456801,0.0883376,20.9911,187.529,0.381201,0.0,0.0
632,157.75,35.1179,37.29,147.897,99.4721,95.3574,0.00450946,0.0881781,20.9914,187.529,0.379156,0.0,0.0
634,158.25,35.0157,37.9885,147.683,99.4878,95.3824,0.00445108,0.0880489,20.9916,187.519,0.378223,0.0,0.0
636,158.75,34.6837,37.4767,145.62,99.4918,95.3955,0.00439393,0.0878485,20.9918,187.509,0.377352,0.0,0.0
638,159.25,34.4967,37.1516,147.682,99.5007,95.2173,0.00434763,0.0876862,20.9919,187.519,0.394931,0.0,0.0
640,159.75,34.4685,36.8507,146.228,99.5023,95.216,0.00430402,0.0875547,20.9921,187.519,0.395197,0.0,0.0
642,160.25,34.7061,37.5307,148.204,99.5124,95.4382,0.00426868,0.0873114,20.9922,187.519,0.375186,0.0,0.0
644,160.75,34.8894,37.2573,145.902,99.5027,95.8234,0.00424986,0.0871144,20.9922,187.509,0.338167,0.0,0.0
646,161.25,34.9551,37.3229,146.106,99.5176,95.5686,0.00423461,0.086859,20.9923,187.509,0.363408,0.0,0.0
648,161.75,34.8816,37.2495,144.156,99.524,95.4103,0.00422871,0.0866522,20.9924,187.509,0.378868,0.0,0.0
650,162.25,35.1869,37.22,144.363,99.5212,95.506,0.00422973,0.0863617,20.9928,187.489,0.369619,0.0,0.0
652,162.75,34.6372,37.205,143.394,99.5176,95.5385,0.00423055,0.0861263,20.9932,187.499,0.366231,0.0,0.0
654,163.25,34.3162,36.2854,141.146,99.5305,95.7819,0.00422864,0.0858926,20.9935,187.489,0.344561,0.0,0.0
656,163.75,34.2192,36.0068,146.466,99.5261,95.8263,0.00422477,0.0856644,20.9938,187.479,0.339999,0.0,0.0
658,164.25,35.1379,37.6424,142.135,99.5313,95.3324,0.00421713,0.0854795,20.994,187.469,0.38685,0.0,0.0
660,164.75,35.0552,37.205,148.965,99.5414,96.0794,0.00420688,0.0852068,20.9942,187.479,0.317706,0.0,0.0
662,165.25,34.7634,37.4045,143.068,99.5418,95.3544,0.00419406,0.084986,20.9943,187.479,0.385723,0.0,0.0
664,165.75,34.6917,37.0437,142.782,99.5365,95.3968,0.00417962,0.0847251,20.9944,187.479,0.381268,0.0,0.0
666,166.25,34.4732,37.0475,147.178,99.5519,95.5652,0.00416406,0.0845138,20.9945,187.479,0.366816,0.0,0.0
668,166.75,34.9138,36.961,142.17,99.5458,95.4014,0.00414798,0.084357,20.9946,187.479,0.381666,0.0,0.0
670,167.25,34.9911,36.8889,142.922,99.5502,95.6122,0.00413173,0.084243,20.9946,187.489,0.362258,0.0,0.0
672,167.75,34.7177,37.0413,144.342,99.5442,95.0514,0.00411567,0.0841362,20.9947,187.469,0.414509,0.0,0.0
674,168.25,34.2225,37.1304,142.571,99.5571,95.5665,0.00410073,0.0840368,20.9947,187.479,0.367168,0.0,0.0
676,168.75,34.7345,37.0028,143.334,99.5507,95.6968,0.00408689,0.0839563,20.9948,187.469,0.354354,0.0,0.0
678,169.25,34.511,36.9469,146.054,99.566,95.9766,0.00407568,0.0838228,20.9948,187.479,0.329534,0.0,0.0
680,169.75,34.5882,36.918,145.631,99.5555,95.6676,0.00406402,0.0836859,20.9948,187.459,0.357528,0.0,0.0
682,170.25,34.4334,36.8395,141.462,99.5595,95.4476,0.00405226,0.0835491,20.9948,187.469,0.378562,0.0,0.0
684,170.75,34.7772,36.5768,144.397,99.5639,96.0837,0.00404273,0.0834384,20.9948,187.479,0.319346,0.0,0.0
686,171.25,34.472,35.6278,145.406,99.568,94.9655,0.00403371,0.0832804,20.9948,187.449,0.424769,0.0,0.0
688,171.75,33.5501,36.2635,146.073,99.5595,95.456,0.0040264,0.0831524,20.9949,187.449,0.377767,0.0,0.0
690,172.25,34.2106,37.0573,143.364,99.5684,95.6156,0.00401559,0.0829396,20.9949,187.449,0.363577,0.0,0.0
692,172.75,34.7136,36.4997,144.255,99.5639,95.6803,0.00400683,0.0827671,20.9952,187.449,0.3571,0.0,0.0
694,173.25,34.5262,36.7098,145.232,99.5648,95.4327,0.00399973,0.0826275,20.9957,187.459,0.380427,0.0,0.0
696,173.75,33.9585,36.3686,142.428,99.5668,95.194,0.00399334,0.0823651,20.9962,187.449,0.403087,0.0,0.0
698,174.25,34.5814,36.2663,145.346,99.5764,95.5115,0.00398759,0.0821526,20.997,187.449,0.37408,0.0,0.0
700,174.75,34.4963,36.2442,145.056,99.566,95.8763,0.00398421,0.0819445,20.9978,187.449,0.338919,0.0,0.0
702,175.25,34.373,36.6778,148.478,99.5748,96.0727,0.00398264,0.0817437,20.9983,187.429,0.321354,0.0,0.0
704,175.75,34.2454,36.6504,143.681,99.568,95.6901,0.00397557,0.081581,20.9988,187.409,0.35655,0.0,0.0
706,176.25,33.8525,36.8001,152.479,99.5777,95.5551,0.00396981,0.0814133,20.9992,187.409,0.370095,0.0,0.0
708,176.75,34.8109,36.8672,143.946,99.5861,95.8158,0.00395576,0.0812452,20.9995,187.409,0.346403,0.0,0.0
710,177.25,34.0855,37.0653,146.672,99.5732,95.5165,0.00390947,0.0810803,20.9997,187.409,0.373313,0.0,0.0
712,177.75,34.4727,36.3281,145.155,99.5785,95.3659,0.00388974,0.0809209,20.9998,187.399,0.387953,0.0,0.0
714,178.25,33.9639,36.483,144.545,99.5829,95.4911,0.00383928,0.0807703,21,187.399,0.376572,0.0,0.0
716,178.75,34.347,36.1519,145.411,99.5708,95.3494,0.00378337,0.0806289,21.0002,187.409,0.388817,0.0,0.0
718,179.25,34.5145,35.901,147.831,99.595,95.7205,0.00372653,0.0805143,21.0003,187.389,0.356126,0.0,0.0
720,179.75,34.0793,36.2624,151.375,99.5893,95.6152,0.00367008,0.0803534,21.0004,187.389,0.365505,0.0,0.0
722,180.25,34.5037,36.3277,143.704,99.5748,95.5766,0.00361922,0.080223,21.0005,187.399,0.367813,0.0,0.0
724,180.75,33.6384,36.5225,146.654,99.5744,95.2821,0.0035734,0.0801674,21.0005,187.389,0.39548,0.0,0.0
726,181.25,34.1628,36.4188,145.533,99.5821,95.6173,0.00353629,0.0799633,21.0006,187.389,0.364652,0.0,0.0
728,181.75,34.2988,36.3664,142.816,99.5865,95.7823,0.00349899,0.079798,21.0006,187.399,0.349572,0.0,0.0
730,182.25,34.4422,36.3499,140.043,99.5881,95.5779,0.00346879,0.079596,21.0006,187.379,0.368892,0.0,0.0
732,182.75,34.0931,35.9566,145.298,99.5893,95.7527,0.00343944,0.0793893,21.0006,187.379,0.352603,0.0,0.0
734,183.25,34.1329,36.4039,148.811,99.5825,95.4391,0.00341567,0.0791831,21.0005,187.379,0.381429,0.0,0.0
736,183.75,34.3867,36.1064,143.504,99.5829,95.4628,0.00339642,0.0790161,21.0004,187.379,0.379237,0.0,0.0
738,184.25,34.151,36.1115,144.896,99.5833,95.5496,0.00336986,0.0787983,21.0005,187.379,0.371119,0.0,0.0
740,184.75,34.2081,36.2626,143.813,99.595,95.8399,0.00334834,0.0786219,21.0008,187.369,0.344943,0.0,0.0
742,185.25,33.3963,36.0595,143.326,99.5857,95.4277,0.00329741,0.0784359,21.0012,187.369,0.382793,0.0,0.0
744,185.75,34.3953,36.0417,148.166,99.5905,95.9059,0.00328371,0.0782466,21.0013,187.379,0.338363,0.0,0.0
746,186.25,34.0153,36.1208,144.425,99.6034,95.5483,0.00324567,0.0780646,21.0015,187.369,0.373055,0.0,0.0
748,186.75,33.8056,36.313,144.402,99.5938,95.602,0.00321485,0.0778913,21.0016,187.359,0.367136,0.0,0.0
750,187.25,33.6062,35.9874,140.183,99.5785,95.3777,0.00318016,0.077751,21.0017,187.349,0.386838,0.0,0.0
752,187.75,34.1808,36.0621,147.054,99.5897,95.3502,0.00315205,0.0775965,21.0018,187.359,0.390445,0.0,0.0
754,188.25,34.081,35.8222,145.148,99.5817,95.4365,0.00312441,0.077418,21.0021,187.359,0.381595,0.0,0.0
756,188.75,34.333,35.6571,142.505,99.5764,95.3642,0.00310203,0.0773413,21.0026,187.369,0.387931,0.0,0.0
758,189.25,33.8458,35.6037,146.842,99.5905,95.4454,0.00308268,0.0772101,21.003,187.369,0.381559,0.0,0.0
760,189.75,34.0992,35.9774,148.356,99.5869,95.8314,0.00306701,0.0770466,21.0033,187.359,0.345009,0.0,0.0
762,190.25,34.3479,36.1438,144.169,99.57,94.9376,0.00305175,0.0768625,21.0035,187.359,0.42759,0.0,0.0
764,190.75,33.7736,35.7392,144.076,99.5873,95.382,0.00303709,0.0766318,21.0037,187.349,0.38724,0.0,0.0
766,191.25,33.7738,35.6005,144.78,99.5752,95.431,0.00302521,0.0764448,21.0039,187.339,0.381532,0.0,0.0
768,191.75,34.2834,35.8705,142.245,99.5785,95.6253,0.0030168,0.0761846,21.004,187.339,0.36357,0.0,0.0
770,192.25,34.0505,35.8872,148.039,99.5801,95.5263,0.00301,0.0759738,21.0041,187.349,0.373016,0.0,0.0
772,192.75,34.2009,36.3539,145.698,99.5821,95.8204,0.00300128,0.0757457,21.0044,187.349,0.345604,0.0,0.0
774,193.25,33.9582,35.9892,146.216,99.5805,95.5,0.00299134,0.0755095,21.0049,187.339,0.375518,0.0,0.0
776,193.75,34.3334,35.9666,145.762,99.5861,95.5614,0.00297688,0.0752966,21.0052,187.349,0.370261,0.0,0.0
778,194.25,34.423,35.3452,144.19,99.5752,95.7827,0.00295941,0.0751049,21.0056,187.349,0.348515,0.0,0.0
780,194.75,33.9471,35.8423,144.667,99.5853,95.2436,0.00292458,0.0749495,21.0058,187.359,0.400089,0.0,0.0
782,195.25,33.7539,35.9779,145.535,99.5785,95.6879,0.00289637,0.0747693,21.006,187.339,0.357694,0.0,0.0
784,195.75,33.7841,35.6152,144.687,99.5768,95.4349,0.00287352,0.0746234,21.0062,187.329,0.381318,0.0,0.0
786,196.25,33.7626,35.5714,146.109,99.5752,95.4442,0.00283838,0.0744837,21.0063,187.299,0.380297,0.0,0.0
788,196.75,33.9069,35.9889,144.133,99.5797,95.9779,0.00279496,0.0743512,21.007,187.299,0.330651,0.0,0.0
790,197.25,34.02,35.4385,143.352,99.5704,95.4382,0.00275978,0.0742224,21.0076,187.299,0.380419,0.0,0.0
792,197.75,33.6361,35.7856,144.561,99.5748,95.6532,0.00272617,0.0740987,21.008,187.289,0.360622,0.0,0.0
794,198.25,32.8091,35.2112,147.235,99.5756,95.495,0.00269435,0.0739986,21.0084,187.299,0.375559,0.0,0.0
796,198.75,32.7401,34.485,150.39,99.574,95.4395,0.0026724,0.0739103,21.0087,187.289,0.380625,0.0,0.0
798,199.25,33.989,35.7437,141.974,99.5631,95.3007,0.00265808,0.0738324,21.0089,187.299,0.392709,0.0,0.0
800,199.75,33.7437,35.478,146.073,99.5772,95.5318,0.00264648,0.0737692,21.0091,187.299,0.372244,0.0,0.0
802,200.25,34.2794,35.6872,144.003,99.5732,95.762,0.00263466,0.0736365,21.0093,187.299,0.350277,0.0,0.0
804,200.75,33.6439,35.2767,145.228,99.5736,95.4886,0.00262508,0.073529,21.0094,187.299,0.375975,0.0,0.0
806,201.25,33.1788,35.7187,143.258,99.5644,95.988,0.00261611,0.0734419,21.0095,187.289,0.32832,0.0,0.0
808,201.75,34.0364,35.7685,147.708,99.5712,95.3409,0.00260884,0.073317,21.0096,187.289,0.38965,0.0,0.0
810,202.25,32.7579,34.2323,146.921,99.5627,95.2753,0.00260099,0.0732159,21.0097,187.289,0.395065,0.0,0.0
812,202.75,32.8706,34.7199,144.337,99.5652,95.4137,0.00259286,0.0731475,21.0098,187.279,0.382255,0.0,0.0
814,203.25,33.4667,35.8109,151.6,99.5635,95.7002,0.00258563,0.0730921,21.0098,187.289,0.355198,0.0,0.0
816,203.75,32.9915,35.628,145.223,99.5668,95.4319,0.00257921,0.0730337,21.01,187.289,0.380689,0.0,0.0
818,204.25,33.493,35.6564,145.773,99.5611,95.084,0.002574,0.0729863,21.0102,187.299,0.412958,0.0,0.0
820,204.75,33.7805,35.6028,141.601,99.5615,95.1644,0.00256915,0.0728936,21.0103,187.299,0.405408,0.0,0.0
822,205.25,33.4641,35.5482,146.406,99.5587,95.5686,0.00256464,0.0728185,21.0104,187.289,0.367115,0.0,0.0
824,205.75,34.0554,35.4022,146.618,99.5672,95.8551,0.00255843,0.0727009,21.0105,187.269,0.341009,0.0,0.0
826,206.25,32.6199,34.7341,145.78,99.5587,95.2182,0.0025511,0.0725545,21.0106,187.269,0.400085,0.0,0.0
828,206.75,32.9447,34.4234,146.119,99.568,95.2952,0.00254517,0.0724359,21.0106,187.269,0.393663,0.0,0.0
830,207.25,33.6295,35.4819,145.482,99.5611,94.9617,0.00252943,0.0723256,21.0107,187.269,0.424511,0.0,0.0
832,207.75,33.7554,34.6616,147.258,99.5668,95.2986,0.00251094,0.0722233,21.0107,187.289,0.393236,0.0,0.0
834,208.25,33.6602,35.7173,148.099,99.5563,95.3752,0.00249079,0.0721047,21.0107,187.279,0.385079,0.0,0.0
836,208.75,33.9789,35.6501,146.719,99.5656,95.5779,0.00247191,0.0719765,21.0108,187.279,0.366858,0.0,0.0
838,209.25,33.713,34.872,147.376,99.5486,95.434,0.00245432,0.0718726,21.0108,187.279,0.378854,0.0,0.0
840,209.75,33.1086,35.3175,145.797,99.5857,96.2174,0.00244198,0.0717885,21.0108,187.279,0.308822,0.0,0.0
842,210.25,32.509,34.9088,143.995,99.5434,96.4468,0.00243372,0.0717203,21.0108,187.269,0.283637,0.0,0.0
844,210.75,32.6755,34.6776,145.714,99.5559,95.6135,0.00242702,0.0716787,21.0108,187.259,0.362648,0.0,0.0
846,211.25,33.2316,35.5115,146.633,99.5599,95.2973,0.00243118,0.071645,21.0108,187.249,0.392738,0.0,0.0
848,211.75,33.414,34.9514,144.288,99.5507,95.3502,0.00244317,0.0716585,21.0108,187.239,0.386921,0.0,0.0
850,212.25,33.6965,35.3157,142.53,99.5426,95.7789,0.00245289,0.0716694,21.0108,187.239,0.345929,0.0,0.0
852,212.75,33.8071,35.1632,145.644,99.5502,95.7925,0.00248626,0.0715967,21.0113,187.249,0.345351,0.0,0.0
854,213.25,33.2249,34.9853,142.73,99.5458,96.0117,0.00251329,0.0715378,21.0116,187.249,0.324434,0.0,0.0
856,213.75,33.5875,35.404,145.299,99.5458,95.2516,0.0025493,0.0714687,21.0118,187.249,0.395772,0.0,0.0
858,214.25,33.3746,35.4498,143.163,99.5434,95.3261,0.00259118,0.0713933,21.0119,187.239,0.388538,0.0,0.0
860,214.75,33.8204,35.3647,143.178,99.549,95.0404,0.0026324,0.0713395,21.012,187.259,0.415984,0.0,0.0
862,215.25,33.3309,35.4183,148.558,99.543,95.5995,,0.0713023,,187.249,0.362797,0.0,0.0
864,215.75,32.9853,35.6695,146.386,99.5373,95.0468,,0.0712722,,187.249,0.414331,0.0,0.0
866,216.25,33.3743,35.2659,147.799,99.5406,95.506,,0.0712198,,187.229,0.371364,0.0,0.0
868,216.75,33.3686,35.2094,146.709,99.5502,95.7328,,0.0711774,,187.249,0.350943,0.0,0.0
870,217.25,33.556,34.9707,142.13,99.541,95.1885,,0.0711645,,187.239,0.40128,0.0,0.0
872,217.75,33.4326,35.2718,147.023,99.545,95.4941,,0.0711734,,187.239,0.372878,0.0,0.0
874,218.25,33.4066,35.4835,147.966,99.5406,95.7091,,,,187.229,0.352293,0.0,0.0
876,218.75,33.4031,35.1543,144.345,99.5426,95.3151,,,,187.219,0.389501,0.0,0.0
878,219.25,33.5766,34.9823,143.909,99.545,95.2448,,,,187.209,0.396338,0.0,0.0
880,219.75,33.3131,35.5619,143.185,99.541,95.4226,,,,187.229,0.379239,0.0,0.0
882,220.25,33.5097,35.0619,144.238,99.5249,95.704,,,,187.219,0.351353,0.0,0.0
884,220.75,33.3471,35.3972,145.75,99.5273,95.8437,,,,187.209,0.338483,0.0,0.0
886,221.25,33.5557,35.7533,147.611,99.5382,95.4721,,,,187.209,0.374329,0.0,0.0
888,221.75,33.1513,35.278,144.571,99.5386,95.7476,,,,187.209,0.348501,0.0,0.0
890,222.25,33.6452,35.4991,143.384,99.541,95.2258,,,,187.209,0.397769,0.0,0.0
892,222.75,34.0104,35.4186,144.347,99.5341,95.7882,,,,187.219,0.344294,0.0,0.0
894,223.25,33.5321,35.0649,142.455,99.5261,95.5699,,,,187.219,0.364052,0.0,0.0
896,223.75,33.592,35.3578,148.19,99.5204,95.4611,,,,187.219,0.373764,0.0,0.0
898,224.25,33.471,34.708,146.035,99.5265,95.5936,,,,187.219,0.361863,0.0,0.0
900,224.75,33.4791,35.0733,149.346,99.5333,95.6668,,,,187.209,0.355608,0.0,0.0
902,225.25,33.7172,34.7775,147.408,99.5398,95.8276,,,,187.219,0.341115,0.0,0.0
904,225.75,33.3247,35.4675,152.937,99.5281,95.3947,,,,187.209,0.380703,0.0,0.0