File: 01_Data/Roof_Felt/Cone/Roof_Felt_Underlayment_Cone_HF75Scan_220328_R2.csv
Names,Time,Stack TC,Smoke TC,Exh Press,Smoke Comp,Smoke Meas,CO Meter,CO2 Meter,O2 Meter,Sample Mass,Ext Coeff,Start Test,Flame Verif
Chan Gain,,500,500,1,1,1,1,1,1,1,1,1.0,1.0
Offset,,0,0,0.138301,0,0,0,0,0,0,0,0.0,0.0
Gain,,1,1,25.011,13.2062,13.8682,1,1,1,1.0009,1.02317,1.0,1.0
Units,sec,C,C,Pa,%,%,%,%,%,g,/m,,
Baseline,,41.7358,43.6298,141.04,99.4594,96.0192,0.000951143,0.0657842,21.0113,-835.818,0.315966,,
3,0.5,40.7561,42.4017,142.491,99.9831,96.4984,0.000838766,0.0717522,21.0045,168.752,0.318391,0.0,0.0
6,1.25,40.6996,42.7495,138.408,99.9956,96.3321,0.000782398,0.0713742,21.0041,168.632,0.334995,0.0,0.0
9,2,40.2347,42.1062,141.359,99.9879,95.448,0.000775505,0.0709643,21.003,168.572,0.41706,0.0,0.0
12,2.75,40.2813,42.2004,139.915,99.9867,94.9829,0.000828962,0.0705105,21.0015,168.702,0.460795,0.0,0.0
15,3.5,39.9188,41.5931,138.423,99.965,95.2918,0.00104242,0.070723,21.0005,168.642,0.429695,0.0,0.0
18,4.25,40.3864,42.3099,138.743,99.9605,95.1995,0.00149639,0.0711095,20.9972,168.582,0.437991,0.0,0.0
21,5,40.3782,41.857,144.003,99.9549,94.2448,0.00239933,0.0809058,20.9875,168.552,0.527955,0.0,0.0
24,5.75,40.4519,42.3409,137.555,99.9271,88.1465,0.00369436,0.0988829,20.9677,168.332,1.12585,0.0,0.0
27,6.5,40.1463,42.6797,131.318,99.9009,74.5902,0.00531035,0.130517,20.9077,168.582,2.62227,0.0,1.0
30,7.25,40.4969,42.3117,118.144,99.8823,65.3593,0.00782164,0.172872,20.797,168.282,3.80632,0.0,1.0
33,8,41.2076,42.8239,118.259,99.8598,62.7137,0.010752,0.236741,20.6521,168.091,4.17514,0.0,1.0
36,8.75,40.9269,43.1733,106.869,99.8235,54.201,0.0133035,0.342028,20.5356,167.941,5.48119,0.0,1.0
39,9.5,42.1345,43.8372,109.894,99.7864,50.2324,0.017182,0.463195,20.3053,167.741,6.16032,0.0,1.0
42,10.25,43.5959,45.0519,103.284,99.7425,45.7446,0.0214145,0.596717,20.1374,167.491,6.99634,0.0,1.0
45,11,44.3608,45.9075,92.7869,99.7227,44.1702,0.0269027,0.738955,19.9075,167.351,7.3089,0.0,1.0
48,11.75,45.4431,47.4977,91.9488,99.6699,44.1562,0.0358427,0.872718,19.6949,167.101,7.30699,0.0,1.0
51,12.5,47.5507,49.6939,91.5298,99.6095,43.2459,0.0390833,1.07427,19.5306,166.71,7.48851,0.0,1.0
54,13.25,49.5715,51.5096,81.3515,99.5708,38.6873,0.046214,1.30158,19.2844,166.38,8.48477,0.0,0.0
57,14,51.9701,54.2873,74.0889,99.5253,33.3826,0.0533536,1.55785,19.0082,165.99,9.80429,0.0,0.0
60,14.75,54.1441,56.9516,70.6962,99.4789,33.2303,0.0594088,1.84392,18.6885,165.579,9.84117,0.0,0.0
63,15.5,57.6041,60.6836,77.7801,99.4841,36.7985,0.0636591,1.96121,18.4554,165.239,8.92622,0.0,0.0
66,16.25,60.7427,64.4496,87.0684,99.4999,37.4917,0.0657495,2.11419,18.2855,164.909,8.76013,0.0,0.0
69,17,64.3085,69.013,86.035,99.5027,35.9114,0.0668436,2.17036,18.1616,164.658,9.1469,0.0,0.0
72,17.75,67.9053,73.2482,88.7003,99.5458,34.4547,0.0653084,2.15389,18.1122,164.418,9.52246,0.0,0.0
75,18.5,69.7934,76.3659,100.51,99.5422,33.2675,0.0631946,2.11739,18.146,164.278,9.83682,0.0,0.0
78,19.25,72.6866,79.5999,104.943,99.5535,41.1793,0.0589144,1.9764,18.2807,164.108,7.92295,0.0,0.0
81,20,74.6281,82.5169,111.605,99.5837,51.5499,0.0539539,1.83558,18.478,164.008,5.9097,0.0,0.0
84,20.75,75.7659,84.2153,117.748,99.6175,67.1021,0.0508686,1.66789,18.7591,163.958,3.5463,0.0,0.0
87,21.5,76.742,85.6494,119.495,99.6361,71.1854,0.0451765,1.48435,18.9603,163.918,3.01779,0.0,0.0
90,22.25,77.3738,86.5919,122.139,99.6695,72.8914,0.0393944,1.30566,19.2188,163.878,2.80824,0.0,0.0
93,23,77.2404,86.299,123.832,99.6982,75.5129,0.0346541,1.14333,19.4519,163.838,2.49371,0.0,0.0
96,23.75,76.8158,86.356,130.67,99.728,77.8537,0.0303004,1.03546,19.6719,163.768,2.22239,0.0,0.0
99,24.5,77.0082,86.6346,124.519,99.7465,78.9761,0.0266787,0.901982,19.8322,163.748,2.09559,0.0,0.0
102,25.25,77.308,86.7053,129.328,99.7727,76.5383,0.0232725,0.789538,19.9835,163.677,2.37935,0.0,0.0
105,26,77.1652,86.5597,135.955,99.7933,81.0309,0.0202988,0.687627,20.114,163.677,1.86927,0.0,0.0
108,26.75,76.8782,86.0033,132.506,99.836,82.7352,0.0177441,0.60785,20.2177,163.637,1.6863,0.0,0.0
111,27.5,75.7795,85.3428,133.179,99.8529,83.7048,0.0155778,0.540312,20.314,163.597,1.58324,0.0,0.0
114,28.25,75.9343,84.8744,129.755,99.8698,85.3334,0.0136567,0.483244,20.3986,163.587,1.41182,0.0,0.0
117,29,76.3836,84.6355,132.907,99.8952,87.0978,0.0120577,0.438302,20.4711,163.587,1.23042,0.0,0.0
120,29.75,75.4624,84.4811,131.387,99.9283,87.19,0.0107284,0.398162,20.5318,163.567,1.22388,0.0,0.0
123,30.5,74.3701,83.3786,131.199,99.9589,89.4399,0.00962397,0.365203,20.5855,163.547,0.997975,0.0,0.0
126,31.25,74.239,82.9979,132.125,99.973,90.6562,0.0086963,0.338044,20.6269,163.517,0.878004,0.0,0.0
129,32,74.6033,83.2363,130.802,100.001,91.9492,0.00796779,0.315585,20.6611,163.477,0.753435,0.0,0.0
132,32.75,74.4374,82.6695,132.489,100.033,92.5205,0.00737151,0.295573,20.6908,163.477,0.700659,0.0,0.0
135,33.5,73.4889,82.184,132.192,100.057,92.9768,0.00692078,0.279699,20.7161,163.457,0.658714,0.0,0.0
138,34.25,73.1067,81.4947,136.601,100.08,93.16,0.00659315,0.26593,20.7374,163.447,0.643066,0.0,0.0
141,35,72.61,80.9287,135.878,100.089,93.7771,0.00636764,0.253736,20.7528,163.447,0.584681,0.0,0.0
144,35.75,73.2541,81.0259,131.794,100.132,93.0542,0.00620324,0.243927,20.7698,163.407,0.657963,0.0,0.0
147,36.5,72.3956,80.1039,132.705,100.141,93.9079,0.00614506,0.23437,20.7819,163.377,0.576762,0.0,0.0
150,37.25,72.0024,79.8396,142.488,100.151,93.7741,0.00611623,0.22638,20.7917,163.367,0.590457,0.0,0.0
153,38,71.7179,79.6812,133.389,100.183,94.632,0.00610102,0.220119,20.8004,163.327,0.511611,0.0,0.0
156,38.75,71.0794,78.7886,136.235,100.182,94.6959,0.00609488,0.214129,20.8074,163.337,0.505443,0.0,0.0
159,39.5,70.4733,78.2544,138.699,100.206,94.4119,0.00609446,0.209155,20.8137,163.327,0.534601,0.0,0.0
162,40.25,70.6266,78.1231,134.714,100.206,95.0434,0.00609749,0.204102,20.8214,163.287,0.474738,0.0,0.0
165,41,70.3585,78.273,139.203,100.237,94.7319,0.00611381,0.199494,20.8288,163.257,0.507016,0.0,0.0
168,41.75,70.073,77.5959,136.869,100.235,94.759,0.00612997,0.19574,20.8356,163.237,0.504269,0.0,0.0
171,42.5,69.3422,76.7552,137.704,100.252,95.0747,0.00615866,0.192039,20.8399,163.257,0.475895,0.0,0.0
174,43.25,69.1403,76.5944,138.258,100.252,95.7827,0.0062043,0.188566,20.8458,163.217,0.409338,0.0,0.0
177,44,68.5585,75.9966,136.94,100.264,95.8678,0.00624739,0.185143,20.8509,163.217,0.402415,0.0,0.0
180,44.75,68.7118,76.0237,138.651,100.268,96.1023,0.00628299,0.183067,20.8554,163.207,0.380816,0.0,0.0
183,45.5,68.3967,75.6354,134.2,100.279,96.0904,0.00630524,0.180211,20.859,163.197,0.382897,0.0,0.0
186,46.25,67.8392,75.1265,137.377,100.276,95.8246,0.00632443,0.177933,20.8622,163.157,0.407504,0.0,0.0
189,47,67.7943,75.24,134.176,100.272,95.7527,0.00634622,0.175581,20.8651,163.167,0.413884,0.0,0.0
192,47.75,67.6223,74.6883,136.546,100.288,95.5347,0.00638689,0.173638,20.8677,163.147,0.43578,0.0,0.0
195,48.5,67.1928,74.13,131.276,100.291,96.3351,0.00646057,0.172124,20.87,163.137,0.36116,0.0,0.0
198,49.25,66.9926,74.0502,137.477,100.278,96.0578,0.00652855,0.170695,20.872,163.157,0.385868,0.0,0.0
201,50,66.3471,73.2554,139.122,100.277,95.7658,0.00661882,0.169458,20.8742,163.147,0.41316,0.0,0.0
204,50.75,66.2893,73.3401,138.564,100.265,95.6579,0.00667488,0.168222,20.8757,163.137,0.422197,0.0,0.0
207,51.5,65.7987,72.2852,138.19,100.272,96.6351,0.00673966,0.166834,20.8781,163.107,0.331624,0.0,0.0
210,52.25,65.903,72.5977,136.88,100.285,96.8036,0.00677943,0.165495,20.8798,163.087,0.317074,0.0,0.0
213,53,65.5476,72.2926,135.915,100.274,95.9487,0.00680721,0.164259,20.8811,163.087,0.395788,0.0,0.0
216,53.75,64.9915,71.7867,137.4,100.276,95.8471,0.00683081,0.163484,20.8827,163.047,0.405439,0.0,0.0
219,54.5,65.0535,71.4512,136.149,100.296,96.7816,0.00687658,0.162234,20.8847,163.057,0.320161,0.0,0.0
222,55.25,63.6247,70.5159,138.525,100.299,96.1645,0.00695569,0.161171,20.8865,163.047,0.377784,0.0,0.0
225,56,64.2691,70.8979,136.784,100.293,95.9173,0.00704207,0.160113,20.8878,163.017,0.400377,0.0,0.0
228,56.75,63.6852,70.3438,138.751,100.309,96.0126,0.00712967,0.159349,20.889,163.007,0.392915,0.0,0.0
231,57.5,64.0455,70.7436,138.815,100.299,95.7658,0.00720722,0.158805,20.8903,163.007,0.415107,0.0,0.0
234,58.25,63.7393,70.1046,135.371,100.301,96.63,0.00726959,0.158266,20.8912,163.007,0.334692,0.0,0.0
237,59,63.0386,69.396,138.741,100.266,96.9542,0.00731506,0.157746,20.8919,162.967,0.301492,0.0,0.0
240,59.75,62.9856,69.214,137.797,100.303,96.4379,0.00730342,0.157242,20.8924,162.937,0.352737,0.0,0.0
243,60.5,62.7018,69.1009,136.971,100.307,96.3922,0.00725752,0.156844,20.8924,162.937,0.35728,0.0,0.0
246,61.25,62.3276,68.7944,138.84,100.309,96.349,0.00717967,0.156398,20.8928,162.947,0.361516,0.0,0.0
249,62,62.591,68.8936,135.264,100.305,96.6643,0.00710057,0.156006,20.8932,162.927,0.331797,0.0,0.0
252,62.75,62.0238,68.252,135.069,100.299,96.1349,0.00701988,0.155654,20.8936,162.877,0.380586,0.0,0.0
255,63.5,61.8942,67.9994,139.216,100.299,96.3698,0.00694742,0.155282,20.8939,162.877,0.358648,0.0,0.0
258,64.25,61.4704,67.6099,136.533,100.301,96.4806,0.00688812,0.155011,20.894,162.857,0.348543,0.0,0.0
261,65,61.1388,67.446,134.665,100.297,96.0841,0.00684378,0.1547,20.8948,162.847,0.385185,0.0,0.0
264,65.75,60.7828,66.9396,138.422,100.293,96.6131,0.00681606,0.154373,20.8954,162.847,0.335543,0.0,0.0
267,66.5,60.8495,66.8096,136.88,100.284,96.567,0.00680374,0.154045,20.8955,162.837,0.339,0.0,0.0
270,67.25,60.538,66.3651,137.873,100.293,96.2402,0.00680361,0.153706,20.8961,162.817,0.370213,0.0,0.0
273,68,60.4336,66.5352,136.463,100.289,96.5915,0.00679828,0.153458,20.8973,162.787,0.337152,0.0,0.0
276,68.75,60.2625,66.1103,136.986,100.269,96.9204,0.00678547,0.153114,20.8982,162.787,0.304844,0.0,0.0
279,69.5,60.1208,66.1892,135.087,100.27,96.5462,0.00673368,0.152779,20.8989,162.777,0.339702,0.0,0.0
282,70.25,59.6075,65.6358,138.237,100.279,96.7193,0.00667858,0.152498,20.8993,162.777,0.324417,0.0,0.0
285,71,59.4976,65.1722,133.668,100.258,96.3918,0.00662977,0.152233,20.8997,162.777,0.352919,0.0,0.0
288,71.75,59.2959,65.0928,134.524,100.251,96.3799,0.00659366,0.152082,20.8999,162.787,0.353409,0.0,0.0
291,72.5,59.5088,65.2027,139.357,100.237,96.3588,0.00657105,0.152013,20.9001,162.757,0.354189,0.0,0.0
294,73.25,58.8695,64.8066,133.462,100.244,96.8086,0.00655877,0.152,20.9003,162.767,0.31296,0.0,0.0
297,74,58.7883,64.5085,139.26,100.233,96.5175,0.00655427,0.151789,20.901,162.747,0.339058,0.0,0.0
300,74.75,58.6497,64.445,138.699,100.221,96.1924,0.00654975,0.151576,20.9015,162.707,0.368214,0.0,0.0
303,75.5,58.3226,64.0568,137.627,100.222,96.3211,0.00654133,0.151319,20.9019,162.717,0.356327,0.0,0.0
306,76.25,58.3918,63.8645,138.273,100.218,96.3452,0.00652731,0.15092,20.9022,162.737,0.353718,0.0,0.0
309,77,57.9054,63.6537,138.693,100.208,96.0299,0.00651461,0.150471,20.903,162.717,0.382273,0.0,0.0
312,77.75,58.1238,63.8366,136.194,100.197,96.5721,0.006503,0.15003,20.9038,162.667,0.33077,0.0,0.0
315,78.5,57.9554,63.4906,136.71,100.183,96.0392,0.0064923,0.149582,20.9044,162.667,0.379092,0.0,0.0
318,79.25,57.8448,63.3405,137.722,100.179,96.3566,0.00647863,0.149165,20.9049,162.606,0.349188,0.0,0.0
321,80,57.2937,62.8496,137.262,100.182,96.6758,0.00645863,0.148797,20.9052,162.657,0.31973,0.0,0.0
324,80.75,57.2074,62.7588,135.925,100.16,96.4036,0.00643169,0.148429,20.9054,162.627,0.343044,0.0,0.0
327,81.5,57.0844,62.4454,138.433,100.15,96.6292,0.00641453,0.14816,20.9056,162.617,0.3212,0.0,0.0
330,82.25,56.8675,62.2794,138.844,100.14,97.0854,0.00640308,0.148065,20.9057,162.617,0.278021,0.0,0.0
333,83,56.7889,62.2796,135.823,100.145,96.545,0.00640255,0.148151,20.9057,162.586,0.328557,0.0,0.0
336,83.75,56.9065,62.1622,139.68,100.114,96.4718,0.00641554,0.148279,20.9053,162.596,0.332585,0.0,0.0
339,84.5,56.5491,61.8496,133.427,100.107,96.5162,0.00644268,0.148958,20.9046,162.566,0.327837,0.0,0.0
342,85.25,56.4219,61.9532,136.491,100.102,96.8565,0.00648353,0.149452,20.9037,162.556,0.295853,0.0,0.0
345,86,55.7672,61.1305,133.999,100.096,96.5594,0.0065223,0.150842,20.9027,162.526,0.322884,0.0,0.0
348,86.75,56.3872,61.8759,138.926,100.074,96.3998,0.00658164,0.152138,20.9019,162.496,0.335703,0.0,0.0
351,87.5,56.2965,61.277,135.323,100.061,96.3731,0.00664534,0.153241,20.9013,162.516,0.337029,0.0,0.0
354,88.25,56.1192,61.2663,137.371,100.049,96.1154,0.00670407,0.15411,20.9007,162.536,0.360017,0.0,0.0
357,89,55.7661,60.8739,136.55,100.037,96.1886,0.00675184,0.154543,20.9002,162.516,0.352097,0.0,0.0
360,89.75,55.8466,60.7471,139.761,100.039,96.2601,0.00678683,0.154774,20.8999,162.476,0.34557,0.0,0.0
363,90.5,55.5558,60.6522,136.724,100.007,96.6195,0.00680898,0.15439,20.9002,162.456,0.309273,0.0,0.0
366,91.25,55.4477,60.5195,135.613,99.9956,96.1573,0.00680389,0.153651,20.901,162.456,0.351294,0.0,0.0
369,92,54.8537,59.8689,137.487,99.9936,96.3063,0.00678032,0.152731,20.9024,162.456,0.33722,0.0,0.0
372,92.75,54.7334,59.6719,136.167,99.9738,96.7024,0.00675469,0.15158,20.9046,162.436,0.298605,0.0,0.0
375,93.5,54.9682,60.0427,136.446,99.9521,96.0502,0.00673228,0.150224,20.9066,162.446,0.357387,0.0,0.0
378,94.25,54.9221,59.9421,137.305,99.9488,96.3054,0.0067248,0.148415,20.9083,162.426,0.333283,0.0,0.0
381,95,54.714,59.5947,140.988,99.9371,96.7917,0.00675165,0.146601,20.9101,162.416,0.287029,0.0,0.0
384,95.75,54.8331,59.883,140.535,99.9247,96.1713,0.00677635,0.144759,20.9124,162.396,0.343623,0.0,0.0
387,96.5,54.8228,59.6774,135.838,99.9089,96.0206,0.00682219,0.143195,20.9143,162.406,0.356283,0.0,0.0
390,97.25,54.6543,59.6808,137.381,99.8892,96.2851,0.00686299,0.141674,20.9158,162.386,0.329818,0.0,0.0
393,98,54.6024,59.3776,135.921,99.8876,95.8763,0.00688741,0.139807,20.9179,162.376,0.367863,0.0,0.0
396,98.75,54.1929,59.0115,138.365,99.8719,96.1019,0.00688823,0.139062,20.9201,162.356,0.345359,0.0,0.0
399,99.5,53.8774,58.6394,138.798,99.8445,96.2898,0.00685978,0.137681,20.9221,162.356,0.325364,0.0,0.0
402,100.25,53.9559,58.6367,138.808,99.8537,95.8335,0.00680577,0.13634,20.9236,162.356,0.368824,0.0,0.0
405,101,53.851,58.5586,137.513,99.8295,96.0794,0.00670948,0.135065,20.9246,162.336,0.34365,0.0,0.0
408,101.75,53.7032,58.4567,139.281,99.8316,96.1518,0.00658984,0.133871,20.9258,162.356,0.337074,0.0,0.0
411,102.5,53.6726,58.4102,135.049,99.8013,96.1323,0.00648902,0.132817,20.9271,162.346,0.336174,0.0,0.0
414,103.25,53.4622,58.1457,137.048,99.7832,96.9424,0.0064045,0.131734,20.9285,162.316,0.25923,0.0,0.0
417,104,54.2756,58.931,139.057,99.7687,95.5931,0.00633398,0.130637,20.9307,162.296,0.38372,0.0,0.0
420,104.75,53.3823,58.1295,138.5,99.7618,96.3465,0.00627023,0.129707,20.9323,162.286,0.31265,0.0,0.0
423,105.5,52.3534,57.0543,139.026,99.7526,96.0316,0.00622375,0.128631,20.9335,162.266,0.341197,0.0,0.0
426,106.25,52.7503,57.2886,136.105,99.7211,95.9753,0.00616519,0.127568,20.9346,162.276,0.343629,0.0,0.0
429,107,52.2591,56.7592,138.442,99.7191,96.5386,0.00612249,0.126626,20.9358,162.276,0.290923,0.0,0.0
432,107.75,52.8523,57.3179,137.377,99.7143,95.9584,0.00605623,0.125868,20.9367,162.266,0.344596,0.0,0.0
435,108.5,52.8201,57.2641,136.394,99.7026,95.5373,0.00599883,0.125065,20.9373,162.256,0.383018,0.0,0.0
438,109.25,52.7523,57.1698,138.469,99.6808,95.9838,0.00594142,0.124373,20.9382,162.246,0.339209,0.0,0.0
441,110,52.4109,56.8865,137.787,99.6655,95.7074,0.00588476,0.123575,20.9388,162.236,0.36371,0.0,0.0
444,110.75,52.3795,57.1425,137.625,99.6728,96.4756,0.00582727,0.122868,20.9395,162.216,0.292615,0.0,0.0
447,111.5,52.5514,56.7692,136.394,99.6611,95.8107,0.00577465,0.121916,20.9404,162.216,0.353633,0.0,0.0
450,112.25,52.9381,57.5479,142.116,99.6437,95.9914,0.00573998,0.121084,20.9417,162.226,0.335159,0.0,0.0
453,113,52.8717,57.0257,136.995,99.628,95.7155,0.00569113,0.12024,20.9432,162.206,0.35958,0.0,0.0
456,113.75,51.9396,56.3088,135.62,99.6264,96.1069,0.00565551,0.119347,20.9444,162.206,0.322801,0.0,0.0
459,114.5,52.5962,56.0806,138.821,99.6163,96.3511,0.00564186,0.118359,20.9452,162.186,0.299117,0.0,0.0
462,115.25,51.2324,55.5522,135.62,99.5982,95.9787,0.00564301,0.117745,20.946,162.156,0.332243,0.0,0.0
465,116,52.3989,56.826,140.347,99.5781,96.1493,0.00564923,0.116895,20.947,162.176,0.314492,0.0,0.0
468,116.75,52.0946,56.2592,138.386,99.5551,95.6236,0.00565488,0.115821,20.949,162.196,0.361623,0.0,0.0
471,117.5,51.4359,56.35,136.626,99.5615,95.9127,0.00563926,0.114856,20.9507,162.176,0.335113,0.0,0.0
474,118.25,51.3051,55.4289,138.934,99.5458,95.8132,0.00560583,0.113841,20.9523,162.186,0.343008,0.0,0.0
477,119,51.3349,55.5027,139.767,99.5317,95.4704,0.00555817,0.112568,20.9541,162.176,0.373907,0.0,0.0
480,119.75,51.7072,55.7814,140.227,99.5212,96.0202,0.00549139,0.11164,20.9554,162.176,0.321425,0.0,0.0
483,120.5,51.1218,55.5315,142.466,99.5212,95.9821,0.00542905,0.110432,20.9563,162.156,0.324986,0.0,0.0
486,121.25,50.6312,54.6943,135.421,99.5007,95.7806,0.00536761,0.109236,20.9573,162.136,0.34199,0.0,0.0
489,122,50.343,54.3009,138.435,99.4813,95.4404,0.00531664,0.108226,20.9583,162.146,0.372188,0.0,0.0
492,122.75,51.2546,55.2366,142.062,99.4688,96.0375,0.00528059,0.107253,20.9591,162.096,0.315078,0.0,0.0
495,123.5,51.5939,54.9966,137.027,99.4692,95.6274,0.00524446,0.106458,20.9601,162.136,0.353523,0.0,0.0
498,124.25,51.0972,54.7537,139.276,99.4612,95.6964,0.00522306,0.105728,20.9608,162.136,0.346323,0.0,0.0
501,125,51.541,55.4713,136.129,99.4193,95.6075,0.00517902,0.1051,20.9615,162.126,0.35088,0.0,0.0
504,125.75,49.6328,53.6174,137.671,99.4354,95.5737,0.00512412,0.104529,20.9625,162.096,0.355514,0.0,0.0
507,126.5,50.4798,54.546,133.586,99.4318,95.602,0.00507057,0.103988,20.9634,162.096,0.352524,0.0,0.0
510,127.25,51.2342,54.4592,140.747,99.4297,95.6465,0.00502577,0.103602,20.9641,162.106,0.34817,0.0,0.0
513,128,50.8947,54.6407,140.709,99.3975,95.9554,0.00498466,0.103126,20.9645,162.106,0.316315,0.0,0.0
516,128.75,50.5778,54.3653,137.019,99.3995,96.0468,0.00494024,0.10273,20.9649,162.086,0.30795,0.0,0.0
519,129.5,50.5709,53.5561,139.613,99.3975,95.2025,0.00490786,0.102382,20.9652,162.086,0.387017,0.0,0.0
522,130.25,50.585,54.3538,137.407,99.3906,96.0024,0.00487198,0.102114,20.9652,162.096,0.311303,0.0,0.0
525,131,50.4538,54.1973,142.865,99.3753,96.0286,0.00484583,0.101894,20.9651,162.066,0.307467,0.0,0.0
528,131.75,50.2558,53.985,142.496,99.3854,95.7798,0.00482548,0.101733,20.9651,162.076,0.331666,0.0,0.0
531,132.5,50.0953,54.0974,136.902,99.3544,95.4653,0.00480842,0.101562,20.9651,162.026,0.358378,0.0,0.0
534,133.25,50.535,53.7227,139.75,99.3681,95.3561,0.00478373,0.101414,20.9655,162.036,0.369888,0.0,0.0
537,134,50.0453,53.7262,137.864,99.352,95.8695,0.00474977,0.101071,20.966,162.026,0.320242,0.0,0.0
540,134.75,49.6403,53.3855,140.83,99.3507,96.0477,0.00471821,0.100683,20.9664,162.056,0.303467,0.0,0.0
543,135.5,49.931,53.5475,141.163,99.3447,95.7451,0.00466208,0.100283,20.9671,162.036,0.331242,0.0,0.0
546,136.25,49.7078,53.3159,139.58,99.3427,95.6752,0.00459348,0.0998929,20.9684,162.016,0.337609,0.0,0.0
549,137,49.7433,53.2214,141.822,99.3387,95.897,0.00452031,0.0993926,20.9694,162.006,0.316465,0.0,0.0
552,137.75,49.4629,53.1261,138.803,99.3294,95.2605,0.00444774,0.0988355,20.9705,162.006,0.3754,0.0,0.0
555,138.5,48.3961,52.2963,136.479,99.3318,95.6676,0.00438968,0.0983473,20.9715,161.986,0.33734,0.0,0.0
558,139.25,49.4945,53.5072,138.352,99.331,95.048,0.00433854,0.0977954,20.9723,161.976,0.395585,0.0,0.0
561,140,49.9427,53.574,139.183,99.3254,95.9575,0.00428216,0.097328,20.9727,161.986,0.309602,0.0,0.0
564,140.75,50.6063,54.1799,138.173,99.3185,95.1644,0.00423333,0.0968543,20.9729,161.996,0.383473,0.0,0.0
567,141.5,49.1442,52.5914,138.635,99.3125,95.3794,0.00418452,0.0964719,20.973,161.986,0.362672,0.0,0.0
570,142.25,49.7156,53.5229,139.568,99.3064,95.6621,0.00415151,0.0961373,20.9731,161.986,0.335563,0.0,0.0
573,143,49.3227,53.0334,137.973,99.304,95.635,0.00413185,0.0958696,20.9738,161.946,0.337885,0.0,0.0
576,143.75,49.8673,53.2186,137.703,99.3052,95.2215,0.00413323,0.0955569,20.9743,161.946,0.376885,0.0,0.0
579,144.5,49.5274,52.9414,137.203,99.281,95.4996,0.00413791,0.0952712,20.9749,161.916,0.348528,0.0,0.0
582,145.25,49.3157,52.7166,136.64,99.2963,95.9228,0.00413451,0.0949641,20.9758,161.976,0.310224,0.0,0.0
585,146,48.9988,52.6192,140.008,99.2883,95.3714,0.00411771,0.094603,20.9764,161.966,0.361244,0.0,0.0
588,146.75,49.2762,52.6672,141.993,99.2855,95.6202,0.00407244,0.0941874,20.9768,161.966,0.3376,0.0,0.0
591,147.5,48.1173,51.5488,138.097,99.2859,95.4628,0.00400476,0.0937239,20.9772,161.996,0.352426,0.0,0.0
594,148.25,48.6071,51.7188,139.547,99.2847,95.4298,0.00392023,0.0933038,20.9774,161.976,0.355421,0.0,0.0
597,149,49.2062,52.1131,137.261,99.2891,95.9525,0.0038303,0.0929408,20.9776,161.946,0.306797,0.0,0.0
600,149.75,48.9224,52.2739,138.641,99.2851,95.7341,0.00371632,0.0926391,20.9783,161.936,0.326883,0.0,0.0
603,150.5,48.2427,51.5442,139.725,99.2814,95.1856,0.00361757,0.0923019,20.9789,161.946,0.378127,0.0,0.0
606,151.25,49.1939,52.4612,135.852,99.2814,95.9939,0.00354879,0.0919767,20.9796,161.936,0.302227,0.0,0.0
609,152,48.6212,52.2244,137.086,99.2951,95.2076,0.00350414,0.091604,20.98,161.926,0.37729,0.0,0.0
612,152.75,48.0121,51.1767,135.915,99.2899,95.3451,0.00347159,0.0913039,20.9803,161.926,0.363859,0.0,0.0
615,153.5,48.8486,52.0739,140.452,99.2855,95.7387,0.00345482,0.0910366,20.9808,161.906,0.326484,0.0,0.0
618,154.25,48.4914,51.5515,138.338,99.2927,95.5868,0.0034365,0.0906659,20.9813,161.906,0.341395,0.0,0.0
621,155,48.5864,51.8283,138.533,99.2891,95.5864,0.00341925,0.0903957,20.9816,161.886,0.341106,0.0,0.0
624,155.75,48.3898,51.6228,138.947,99.2762,95.3892,0.00340449,0.0899932,20.9825,161.866,0.358478,0.0,0.0
627,156.5,48.0387,51.2792,141.735,99.2714,95.3058,0.00340104,0.0895259,20.9831,161.886,0.365889,0.0,0.0
630,157.25,48.7783,52.1849,135.501,99.2673,95.908,0.00340486,0.0890374,20.9836,161.886,0.308988,0.0,0.0
633,158,48.7961,51.8827,135.813,99.2669,95.9622,0.00341313,0.0886227,20.9839,161.856,0.303883,0.0,0.0
636,158.75,48.7141,51.603,139.431,99.2689,95.8949,0.00342091,0.0882383,20.9846,161.846,0.310361,0.0,0.0
639,159.5,48.8282,51.8036,139.49,99.2673,95.4349,0.00342721,0.0879231,20.9853,161.836,0.353376,0.0,0.0
642,160.25,48.7994,51.9259,137.197,99.2653,95.8957,0.00343291,0.0875372,20.9858,161.836,0.309954,0.0,0.0
645,161,48.1374,51.8172,138.519,99.2782,95.7023,0.00344576,0.0872012,20.9866,161.836,0.329241,0.0,0.0
648,161.75,48.6156,51.7582,138.65,99.2879,95.4746,0.0034667,0.0868754,20.9873,161.836,0.351495,0.0,0.0
651,162.5,48.8072,51.9819,136.221,99.2532,95.7535,0.00349126,0.0865394,20.9879,161.836,0.32218,0.0,0.0
654,163.25,49.7601,52.4494,138.253,99.2665,95.2728,0.00352864,0.0861715,20.9882,161.856,0.36856,0.0,0.0
657,164,47.7215,50.9003,138.629,99.2681,95.3405,0.00357127,0.0858508,20.9885,161.846,0.362329,0.0,0.0
660,164.75,47.8537,50.1168,141.854,99.2786,95.222,0.00359538,0.0853637,20.9892,161.846,0.37444,0.0,0.0
663,165.5,48.3632,51.2745,137.736,99.2544,95.7823,0.00360197,0.0849079,20.9899,161.806,0.319592,0.0,0.0
666,166.25,48.2545,51.1172,140.673,99.2665,95.7946,0.00359502,0.0845543,20.9904,161.816,0.319536,0.0,0.0
669,167,47.7899,51.0168,137.034,99.2552,95.6791,0.00357786,0.0840955,20.9907,161.826,0.329348,0.0,0.0
672,167.75,48.1635,50.7443,136.945,99.2629,95.5851,0.00355666,0.083675,20.991,161.806,0.338858,0.0,0.0
675,168.5,48.5505,51.7169,135.633,99.2403,95.8276,0.0035367,0.0832127,20.9912,161.806,0.314074,0.0,0.0
678,169.25,48.3582,51.3361,138.623,99.2472,95.4594,0.00351447,0.0828075,20.992,161.776,0.349246,0.0,0.0
681,170,47.7622,50.6083,136.85,99.2456,95.233,0.00348798,0.0824399,20.9925,161.786,0.370415,0.0,0.0
684,170.75,47.3534,50.5414,138.024,99.2415,95.4945,0.00345112,0.0820982,20.9929,161.756,0.345434,0.0,0.0
687,171.5,47.6838,50.5197,139.532,99.2375,95.2728,0.00339468,0.0817129,20.9932,161.746,0.365936,0.0,0.0
690,172.25,48.8574,51.8106,138.641,99.2448,95.5462,0.00334007,0.0813746,20.9934,161.776,0.340874,0.0,0.0
693,173,47.8512,50.6984,140.611,99.2419,95.6642,0.00327724,0.0810298,20.9936,161.786,0.329534,0.0,0.0
696,173.75,48.2541,51.185,139.496,99.2444,95.31,0.00320885,0.0807102,20.9937,161.786,0.36305,0.0,0.0
699,174.5,46.7606,49.6632,138.93,99.2367,95.6554,0.0031347,0.0804482,20.9938,161.766,0.329894,0.0,0.0
702,175.25,46.2843,49.2056,140.876,99.2383,95.1517,0.00308064,0.0801989,20.9939,161.766,0.37742,0.0,0.0
705,176,47.8204,50.7211,136.892,99.2415,95.3354,0.00303082,0.0799762,20.9937,161.746,0.360403,0.0,0.0
708,176.75,47.3545,50.9742,140.552,99.2476,95.3566,0.0029945,0.0797462,20.9934,161.736,0.358957,0.0,0.0
711,177.5,47.8661,50.0695,138.783,99.2399,95.8733,0.00297843,0.0794927,20.9932,161.726,0.309758,0.0,0.0
714,178.25,47.1617,49.9992,134.52,99.2391,95.4184,0.00297767,0.0792792,20.9931,161.736,0.352378,0.0,0.0
717,179,47.2704,50.084,139.697,99.273,95.1356,0.00298435,0.0790744,20.993,161.756,0.382071,0.0,0.0
720,179.75,47.1383,50.029,141.428,99.2423,95.6448,0.0029936,0.0788843,20.9929,161.766,0.331398,0.0,0.0
723,180.5,47.2753,49.946,137.277,99.25,94.9939,0.00299641,0.0787283,20.9929,161.746,0.39338,0.0,0.0
726,181.25,47.4056,50.0197,138.227,99.2431,95.3739,0.00299339,0.0785563,20.9928,161.726,0.356923,0.0,0.0
729,182,47.081,49.7948,135.333,99.2403,95.762,0.00298469,0.0783531,20.9926,161.736,0.320221,0.0,0.0
732,182.75,47.2824,49.2835,138.704,99.2399,95.0434,0.00297592,0.0781233,20.9926,161.756,0.387792,0.0,0.0
735,183.5,46.9795,49.4555,135.156,99.2439,95.3015,0.00296848,0.0779814,20.993,161.716,0.363809,0.0,0.0
738,184.25,47.4812,49.8412,138.976,99.2556,95.4052,0.00298254,0.0777213,20.9933,161.716,0.355107,0.0,0.0
741,185,47.0492,50.0055,139.028,99.2423,95.6477,0.00300429,0.0774549,20.9936,161.716,0.331119,0.0,0.0
744,185.75,47.1198,49.8821,145.677,99.2383,95.2842,0.00302563,0.0771993,20.9937,161.686,0.364934,0.0,0.0
747,186.5,46.8736,49.3721,140.54,99.2448,95.3896,0.00303753,0.0769995,20.9939,161.696,0.355596,0.0,0.0
750,187.25,47.1183,49.5453,135.428,99.2391,95.6587,0.00304081,0.076848,20.9939,161.696,0.329794,0.0,0.0
753,188,46.3707,49.2084,142.938,99.248,95.1119,0.00302957,0.0767103,20.994,161.706,0.382048,0.0,0.0
756,188.75,47.1516,49.4411,134.994,99.2419,95.1314,0.00300934,0.076584,20.994,161.706,0.379664,0.0,0.0
759,189.5,47.0921,49.7054,136.072,99.2472,95.9575,0.00297029,0.0764674,20.9941,161.716,0.302533,0.0,0.0
762,190.25,46.7225,49.2787,140.015,99.2383,95.4408,0.00294182,0.076363,20.9941,161.686,0.350195,0.0,0.0
765,191,46.5813,49.4761,141.795,99.246,95.3604,0.00289852,0.0762597,20.9941,161.686,0.358453,0.0,0.0
768,191.75,46.522,49.1301,139.583,99.2371,95.6405,0.00287139,0.0761727,20.9941,161.686,0.331321,0.0,0.0
771,192.5,46.4575,48.5108,140.742,99.2581,95.5792,0.00285919,0.0761093,20.9941,161.686,0.338977,0.0,0.0
774,193.25,46.365,49.6251,138.589,99.2452,95.4509,0.00288193,0.0760495,20.9942,161.666,0.349859,0.0,0.0
777,194,46.4628,49.2783,142.507,99.2439,95.9034,0.0029293,0.0760001,20.9944,161.656,0.30731,0.0,0.0
780,194.75,46.6073,49.5788,140.176,99.2407,95.5707,0.00299342,0.0759653,20.9946,161.676,0.338204,0.0,0.0
783,195.5,46.4298,48.8562,137.748,99.248,95.5644,0.00306797,0.0759255,20.9952,161.686,0.339457,0.0,0.0
786,196.25,46.9581,49.3674,135.994,99.2597,95.2609,0.0031272,0.0758721,20.9957,161.686,0.369058,0.0,0.0
789,197,46.9095,48.9894,137.133,99.2701,95.9821,0.00317245,0.0758137,20.9962,161.676,0.302315,0.0,0.0
792,197.75,46.3075,48.6232,135.789,99.2589,95.8094,0.00318107,0.0757575,20.9965,161.686,0.317455,0.0,0.0
795,198.5,46.0924,49.1448,135.723,99.2693,95.4442,0.00317696,0.0757036,20.9967,161.676,0.352683,0.0,0.0
798,199.25,46.5305,48.9317,137.359,99.2847,95.726,0.003135,0.075652,20.9971,161.646,0.327601,0.0,0.0
801,200,46.699,48.8028,139.799,99.2726,95.5606,0.00308588,0.0755736,20.9978,161.646,0.342037,0.0,0.0
804,200.75,46.4985,48.9219,137.975,99.2911,95.3324,0.00304678,0.075499,20.9983,161.646,0.365164,0.0,0.0
807,201.5,46.5048,48.8838,135.831,99.298,95.572,0.00302002,0.0754447,20.9987,161.636,0.343258,0.0,0.0
810,202.25,46.4313,48.9642,136.819,99.3044,95.7751,0.00299475,0.075405,20.9989,161.666,0.324785,0.0,0.0
813,203,46.5856,48.8773,141.685,99.3064,96.2593,0.00296647,0.0753373,20.9991,161.666,0.279709,0.0,0.0
816,203.75,46.2766,48.6485,142.682,99.3048,95.7921,0.00292031,0.0753023,20.9993,161.646,0.323234,0.0,0.0
819,204.5,46.2204,48.9785,137.81,99.3052,95.3786,0.00287578,0.0753012,20.9994,161.626,0.362096,0.0,0.0
822,205.25,46.1024,49.0958,137.653,99.3092,95.9199,0.00280691,0.0753005,20.9994,161.616,0.311668,0.0,0.0
825,206,46.5331,48.6016,138.009,99.3149,95.3968,0.00273971,0.0753071,20.9995,161.596,0.361258,0.0,0.0
828,206.75,46.4631,48.5422,142.182,99.3161,95.8026,0.00267516,0.0753242,20.9995,161.626,0.323264,0.0,0.0
831,207.5,46.4902,48.9951,138.07,99.3197,95.8649,0.0026139,0.0753094,20.9996,161.636,0.317764,0.0,0.0
834,208.25,46.16,48.7556,138.755,99.3342,95.7747,0.00255193,0.075287,20.9996,161.636,0.32752,0.0,0.0
837,209,46.1092,48.7138,137.605,99.3221,95.7861,0.00251161,0.0752513,20.9996,161.616,0.325356,0.0,0.0
840,209.75,46.2059,48.8383,134.214,99.337,95.7662,0.00249707,0.0752388,20.9996,161.616,0.328567,0.0,0.0
843,210.5,46.4294,48.9506,133.68,99.3391,95.5999,0.00250831,0.0752084,20.9996,161.626,0.344351,0.0,0.0
846,211.25,46.43,49.2872,136.617,99.3459,95.6511,0.00254529,0.0751674,20.9996,161.596,0.340164,0.0,0.0
849,212,46.5526,48.914,142.149,99.3411,95.7815,0.00262146,0.0751253,20.9996,161.596,0.327503,0.0,0.0
852,212.75,46.4262,48.6859,138.103,99.354,95.7036,0.00270863,0.0750557,20.9996,161.556,0.335969,0.0,0.0
855,213.5,46.6644,48.6339,140.379,99.3717,95.2021,0.00278565,0.0749836,20.9996,161.596,0.384726,0.0,0.0
858,214.25,45.7282,48.7208,137.166,99.3757,95.3396,0.00283139,0.0748942,20.9996,161.616,0.372134,0.0,0.0
861,215,45.6454,48.8259,138.947,99.383,95.5699,0.00283433,0.0748291,20.9996,161.616,0.351141,0.0,0.0
864,215.75,46.5235,48.9841,139.554,99.387,95.5711,0.00280751,0.0747816,20.9996,161.596,0.351386,0.0,0.0
867,216.5,46.4709,48.8383,138.167,99.3902,96.1586,0.00276061,0.0747276,20.9996,161.616,0.296678,0.0,0.0
870,217.25,46.1514,48.7354,140.491,99.4035,96.1209,0.0027082,0.0746954,20.9996,161.606,0.301396,0.0,0.0
873,218,46.2267,48.3712,137.422,99.4148,95.9745,0.00266223,0.0746842,20.9996,161.606,0.316099,0.0,0.0
876,218.75,46.0541,48.1649,138.405,99.4044,96.0088,0.00261832,0.0746566,20.9996,161.596,0.311947,0.0,0.0
879,219.5,46.5139,48.6964,141.432,99.4249,95.3506,0.00258146,0.0746078,20.9996,161.606,0.375536,0.0,0.0
882,220.25,45.9629,48.0561,138.974,99.4447,95.9347,0.00254422,0.0745233,20.9996,161.596,0.322512,0.0,0.0
885,221,46.0967,48.3939,137.78,99.4463,95.393,0.00250286,0.0744209,20.9996,161.596,0.373482,0.0,0.0
888,221.75,46.133,48.2409,137.289,99.4451,95.6867,0.00245995,0.0743431,20.9996,161.596,0.34578,0.0,0.0
891,222.5,45.9094,48.4449,141.123,99.4555,95.404,0.00240683,0.0743109,20.9996,161.596,0.373284,0.0,0.0
894,223.25,46.1797,48.9796,140.431,99.4688,96.6322,0.00236083,0.0743069,20.9996,161.586,0.259678,0.0,0.0
897,224,45.7985,48.7095,138.107,99.4765,95.6266,0.00232548,0.0743039,20.9996,161.576,0.354256,0.0,0.0
900,224.75,46.1129,48.6454,142.624,99.4729,95.9838,0.00230188,0.0742435,20.9996,161.576,0.320465,0.0,0.0
903,225.5,45.9297,48.4447,136.916,99.4817,95.5352,0.00228851,0.0741924,20.9996,161.576,0.363314,0.0,0.0
906,226.25,45.8752,47.9123,139.692,99.4958,96.2538,0.00228531,0.0741428,20.9996,161.586,0.297325,0.0,0.0
909,227,45.4166,48.5843,137.975,99.5067,96.1082,0.00228541,0.0742037,20.9996,161.556,0.311892,0.0,0.0
912,227.75,46.0996,48.5327,138.339,99.5039,95.9241,0.00228779,0.0742481,20.9996,161.546,0.328847,0.0,0.0
915,228.5,45.7146,48.2611,134.987,99.5059,95.9072,0.00229234,0.0741641,20.9996,161.546,0.330613,0.0,0.0
918,229.25,46.3634,48.6603,137.168,99.5099,95.8048,0.00229543,0.0740956,20.9996,161.526,0.340566,0.0,0.0
921,230,45.4995,47.1352,139.549,99.5293,95.8589,0.00229658,0.0740335,20.9996,161.516,0.337237,0.0,0.0
924,230.75,45.7568,47.5774,137.634,99.5382,95.8919,0.00229766,0.0739494,20.9996,161.516,0.334946,0.0,0.0
927,231.5,45.8897,48.1164,138.386,99.5382,95.9118,0.00230063,0.0738745,20.9996,161.516,0.333086,0.0,0.0
930,232.25,45.8656,48.2887,139.733,99.551,95.5953,0.00231173,0.0738608,20.9996,161.505,0.36392,0.0,0.0
933,233,45.7148,48.2804,141.233,99.568,95.3557,0.00233512,0.0738817,20.9996,161.516,0.387965,0.0,0.0
936,233.75,46.0349,48.2523,140.554,99.5688,95.6384,0.0023643,0.0739106,20.9996,161.495,0.361467,0.0,0.0
939,234.5,45.7674,48.164,138.693,99.5716,96.0845,0.00239074,0.0739231,20.9996,161.516,0.319956,0.0,0.0
942,235.25,46.0068,48.1457,136.01,99.5797,96.0371,0.00240842,0.0739077,20.9999,161.516,0.325112,0.0,0.0
945,236,45.9253,48.1383,143.046,99.597,95.911,0.00242616,0.0738693,21,161.495,0.338469,0.0,0.0
948,236.75,45.4355,48.3355,141.284,99.6079,96.1023,0.00244947,0.0738297,20.9997,161.485,0.321566,0.0,0.0
951,237.5,45.476,47.7694,139.392,99.6034,96.1497,0.00248067,0.0737415,20.9994,161.485,0.316741,0.0,0.0
954,238.25,45.8111,47.7416,141.901,99.6127,95.9825,0.00252594,0.0737059,20.9993,161.485,0.333194,0.0,0.0
957,239,45.7682,48.0066,141.544,99.6393,96.06,0.00255127,0.0737288,20.9991,161.475,0.32835,0.0,0.0
960,239.75,45.5298,47.9047,140.415,99.6349,95.6456,0.00255661,0.0737456,20.999,161.485,0.366748,0.0,0.0
963,240.5,45.2797,47.7896,138.559,99.6256,96.4569,0.0025338,0.0737442,20.999,161.475,0.290102,0.0,0.0
966,241.25,45.6537,47.799,136.095,99.6486,96.3583,0.00249046,0.0737374,20.9989,161.485,0.301352,0.0,0.0
969,242,45.4727,47.8566,136.562,99.6534,95.9956,0.00243266,0.073713,20.9989,161.485,0.335634,0.0,0.0
972,242.75,45.2412,47.9138,137.887,99.6558,95.828,0.00236113,0.0736881,20.9989,161.495,0.351535,0.0,0.0
975,243.5,44.9282,47.7375,139.457,99.6611,95.5868,0.00229445,0.0736577,20.9988,161.485,0.37463,0.0,0.0
978,244.25,45.9444,47.8971,134.25,99.6812,96.2783,0.00223963,0.0736161,20.9988,161.465,0.311744,0.0,0.0
981,245,45.8824,47.7581,138.491,99.6772,96.3012,0.0022009,0.0735586,20.9988,161.475,0.309251,0.0,0.0
984,245.75,45.7723,47.8775,140.463,99.6937,95.8352,0.00217477,0.0735051,20.9992,161.465,0.354272,0.0,0.0
987,246.5,45.1626,47.6344,139.234,99.6973,96.7278,0.00216018,0.0734273,20.9995,161.455,0.271393,0.0,0.0
990,247.25,45.5331,48.0529,137.646,99.7179,96.0333,0.00215718,0.0733706,20.9999,161.465,0.337918,0.0,0.0
993,248,45.59,48.1748,141.244,99.7098,95.5415,0.0021619,0.0734274,21.0003,161.475,0.383273,0.0,0.0
996,248.75,45.5483,47.8464,139.128,99.7215,96.2915,0.0021628,0.0734688,21.0005,161.465,0.314149,0.0,0.0
999,249.5,45.3286,47.439,139.542,99.7284,96.228,0.00215909,0.0734408,21.0007,161.465,0.320685,0.0,0.0
1002,250.25,45.6625,47.589,138.246,99.7332,96.3554,0.00215119,0.0734203,21.0008,161.435,0.309246,0.0,0.0
1005,251,45.4411,47.4876,136.453,99.7558,96.3786,0.00215236,0.0734055,21.0009,161.455,0.309109,0.0,0.0
1008,251.75,45.296,47.9718,140.518,99.7598,95.8395,0.00216775,0.0733558,21.001,161.445,0.359825,0.0,0.0
1011,252.5,45.0157,47.8518,138.414,99.7554,95.9364,0.00218517,0.0732924,21.001,161.445,0.350354,0.0,0.0
1014,253.25,45.4997,47.3702,138.054,99.7638,96.0925,0.00222382,0.0732203,21.0011,161.435,0.336517,0.0,0.0
1017,254,44.8952,47.2791,139.338,99.7723,96.4011,0.00225135,0.0731433,21.0011,161.435,0.308507,0.0,0.0
1020,254.75,44.8319,47.2723,137.548,99.7832,95.9355,0.00227033,0.0730872,21.0017,161.465,0.352934,0.0,0.0
1023,255.5,45.4187,47.9169,139.28,99.7977,95.9152,0.0022686,0.0730326,21.0022,161.445,0.356141,0.0,0.0
1026,256.25,45.5682,48.004,139.19,99.7917,96.0845,0.00226223,0.0729871,21.0025,161.445,0.33977,0.0,0.0
1029,257,45.8034,47.749,139.057,99.7969,95.9389,0.00224886,0.0729151,21.0028,161.455,0.35385,0.0,0.0
1032,257.75,44.9204,47.6781,135.543,99.8166,96.5225,0.00224881,0.0728412,21.003,161.425,0.301192,0.0,0.0
1035,258.5,45.0732,47.2204,135.19,99.817,95.9508,0.00226696,0.0727505,21.0031,161.435,0.354554,0.0,0.0
1038,259.25,45.0308,47.2955,139.841,99.8191,95.635,0.0023042,0.0726301,21.0032,161.435,0.384317,0.0,0.0
1041,260,45.1042,47.0197,139.475,99.834,95.9355,0.00236535,0.0725263,21.0033,161.445,0.357501,0.0,0.0
1044,260.75,45.7003,47.9051,143.536,99.8473,95.7603,0.00242442,0.0724629,21.0033,161.435,0.375104,0.0,0.0
1047,261.5,45.4619,47.3678,137.62,99.8598,95.8704,0.00247787,0.072436,21.0034,161.425,0.365919,0.0,0.0
1050,262.25,44.8611,47.0275,140.028,99.8602,96.1979,0.00251511,0.072395,21.0034,161.405,0.335341,0.0,0.0
1053,263,45.1227,47.5515,141.978,99.8755,96.6131,0.00253739,0.0723284,21.0034,161.385,0.298064,0.0,0.0
1056,263.75,45.7639,47.4298,143.429,99.8819,96.1806,0.00254262,0.0722798,21.0034,161.425,0.338916,0.0,0.0
1059,264.5,45.5734,47.7991,142.181,99.8904,96.1912,0.00253113,0.0722802,21.004,161.415,0.338689,0.0,0.0
1062,265.25,44.9362,47.6766,142.623,99.8888,95.9173,0.00249493,0.0723416,21.0045,161.405,0.36413,0.0,0.0
1065,266,44.3918,47.1969,141.982,99.9057,96.3342,0.00245668,0.072367,21.0049,161.395,0.326728,0.0,0.0
1068,266.75,44.2827,46.6883,143.862,99.9158,96.2204,0.00240212,0.0723855,21.0051,161.395,0.338246,0.0,0.0
1071,267.5,45.0234,47.2674,139.678,99.9287,96.2982,0.00235097,0.0724133,21.0051,161.395,0.332143,0.0,0.0
1074,268.25,44.6967,47.7404,135.978,99.9347,96.6224,0.00231125,0.072458,21.0052,161.385,0.302523,0.0,0.0
1077,269,45.4516,47.5088,141.962,99.9408,96.5941,0.00228127,0.0724898,21.0056,161.395,0.305699,0.0,0.0
1080,269.75,45.3108,47.1666,142.47,99.9557,96.2648,0.00224385,0.0725127,21.0054,161.365,0.337685,0.0,0.0
1083,270.5,45.1334,47.5402,139.398,99.9613,95.9961,0.00221294,0.0725293,21.0051,161.375,0.363283,0.0,0.0
1086,271.25,45.0126,47.4402,139.141,99.9879,96.3533,0.00219204,0.0725027,21.0049,161.395,0.332336,0.0,0.0
1089,272,44.7743,47.4582,137.019,99.9799,96.5543,0.00218226,0.0724969,21.0047,161.395,0.312907,0.0,0.0
1092,272.75,45.092,47.1657,137.313,99.9907,96.4857,0.00218483,0.0725127,21.0046,161.385,0.320259,0.0,0.0
1095,273.5,45.4117,46.8411,135.256,100.005,96.4007,0.00219084,0.0725487,21.0045,161.365,0.329441,0.0,0.0
1098,274.25,45.1796,47.1154,138.447,100.005,96.385,0.00219175,0.0725944,21.0044,161.345,0.330936,0.0,0.0
1101,275,44.9921,47.7555,142.948,100.023,96.4616,0.00218273,0.0725919,21.0044,161.355,0.32536,0.0,0.0
1104,275.75,44.586,47.3665,137.502,100.03,96.5814,0.00217202,0.0725289,21.0043,161.355,0.31491,0.0,0.0
1107,276.5,45.3831,47.3837,138.119,100.039,96.4531,0.00213816,0.0724558,21.0043,161.385,0.327594,0.0,0.0
1110,277.25,45.4379,47.2181,140.751,100.051,96.5611,0.00210328,0.072391,21.0043,161.385,0.318642,0.0,0.0
1113,278,45.0437,47.4178,134.027,100.061,97.0964,0.00206041,0.0723049,21.0051,161.375,0.269921,0.0,0.0
1116,278.75,44.3198,46.9632,136.918,100.066,96.7151,0.00200327,0.0722426,21.0058,161.375,0.305708,0.0,0.0
1119,279.5,44.4596,47.4684,141.437,100.078,96.1484,0.00195073,0.0721979,21.0062,161.395,0.359501,0.0,0.0
1122,280.25,45.004,46.9299,136.452,100.089,96.225,0.00190778,0.0722041,21.0065,161.355,0.353401,0.0,0.0
1125,281,44.9632,47.024,141.539,100.088,96.7253,0.00188683,0.072195,21.0067,161.355,0.306718,0.0,0.0
1128,281.75,44.9672,47.1417,138.628,100.1,96.4536,0.00188886,0.0721826,21.0069,161.365,0.333013,0.0,0.0
1131,282.5,44.665,47.1052,140.493,100.1,96.093,0.00190755,0.0721735,21.007,161.385,0.366666,0.0,0.0
1134,283.25,45.4238,47.5993,139.509,100.121,96.4303,0.00195746,0.0721669,21.0071,161.345,0.337094,0.0,0.0
1137,284,45.2647,46.8837,137.303,100.124,96.6512,0.00201808,0.0721635,21.0072,161.315,0.316809,0.0,0.0
1140,284.75,45.1006,47.4024,138.022,100.131,96.3896,0.0020726,0.0721596,21.0073,161.305,0.341744,0.0,0.0
1143,285.5,44.9227,47.0352,137.787,100.138,96.4023,0.00214002,0.072116,21.0073,161.335,0.341248,0.0,0.0
1146,286.25,44.9003,47.2377,136.517,100.159,96.4337,,0.0720669,,161.345,0.340175,0.0,0.0
1149,287,45.5195,47.2836,135.246,100.164,96.4167,,0.0720116,,161.335,0.342256,0.0,0.0
1152,287.75,44.9513,46.6669,137.835,100.168,96.636,,0.0719985,,161.315,0.322233,0.0,0.0
1155,288.5,45.0031,47.3021,140.969,100.176,96.3156,,0.0720006,,161.305,0.352724,0.0,0.0
1158,289.25,44.9371,47.0246,141.205,100.187,96.3422,,,,161.285,0.351179,0.0,0.0
1161,290,45.0175,47.2838,136,100.176,96.7058,,,,161.285,0.316436,0.0,0.0
1164,290.75,45.4094,47.4163,140.931,100.181,96.2051,,,,161.305,0.363457,0.0,0.0
1167,291.5,44.3996,46.1807,141.616,100.189,96.7532,,,,161.295,0.313229,0.0,0.0
1170,292.25,45.5852,46.9049,139.647,100.204,96.2779,,,,161.265,0.35869,0.0,0.0
1173,293,44.2856,46.8895,135.994,100.207,96.4967,,,,161.265,0.338604,0.0,0.0
1176,293.75,44.4944,46.0292,139.497,100.197,96.2259,,,,161.165,0.363002,0.0,0.0
1179,294.5,44.2161,47.1414,135.294,100.21,96.647,,,,161.275,0.324965,0.0,0.0
1182,295.25,44.6674,47.0529,138.836,100.21,96.5568,,,,161.285,0.333305,0.0,0.0
1185,296,44.9492,47.093,138.268,100.233,96.608,,,,161.255,0.33064,0.0,0.0
1187,296.5,45.0683,47.4265,144.074,100.22,96.699,,,,161.265,0.321035,0.0,0.0