File: 01_Data/Roof_Felt/Cone/Roof_Felt_Underlayment_Cone_HF50Scan_220328_R2.csv
Names,Time,Stack TC,Smoke TC,Exh Press,Smoke Comp,Smoke Meas,CO Meter,CO2 Meter,O2 Meter,Sample Mass,Ext Coeff,Start Test,Flame Verif
Chan Gain,,500,500,1,1,1,1,1,1,1,1,1.0,1.0
Offset,,0,0,0.138301,0,0,0,0,0,0,0,0.0,0.0
Gain,,1,1,25.011,13.2062,13.8682,1,1,1,1.0009,1.02317,1.0,1.0
Units,sec,C,C,Pa,%,%,%,%,%,g,/m,,
Baseline,,31.2414,32.4787,146.44,99.3376,96.5781,0.000966256,0.067092,21.0132,-834.627,0.252916,,
2,0.25,29.9096,30.8835,150.777,99.4289,97.7736,0.000750431,0.0773408,21.0007,170.313,0.150681,0.0,0.0
4,0.75,29.5157,31.2351,144.22,99.4285,97.642,0.000720356,0.0770736,21.0014,170.263,0.162736,0.0,0.0
6,1.25,29.033,30.2882,145.008,99.4563,97.0228,0.00070112,0.0767426,21.0019,170.293,0.222341,0.0,0.0
8,1.75,29.3151,31.0732,146.763,99.4769,96.6732,0.000698197,0.0763713,21.0024,170.243,0.256593,0.0,0.0
10,2.25,29.7544,30.6289,147.75,99.487,97.5057,0.000707222,0.0760706,21.0027,170.253,0.180544,0.0,0.0
12,2.75,29.1336,30.5705,144.613,99.5164,97.3114,0.000714532,0.0756094,21.003,170.213,0.201097,0.0,0.0
14,3.25,30.0026,30.7432,144.438,99.541,97.4676,0.000736288,0.0752358,21.0033,170.193,0.188923,0.0,0.0
16,3.75,29.4691,30.3755,149.668,99.5462,97.0042,0.000768162,0.0747429,21.0035,170.183,0.23217,0.0,0.0
18,4.25,29.2612,30.088,147.414,99.5696,97.1747,0.000793979,0.0743436,21.0036,170.163,0.218511,0.0,0.0
20,4.75,29.7653,30.9101,147.729,99.5768,96.5636,0.000818503,0.0738571,21.0037,170.133,0.275789,0.0,0.0
22,5.25,29.5011,30.3848,140.151,99.5885,96.44,0.000838367,0.0734631,21.0039,170.133,0.288336,0.0,0.0
24,5.75,29.8175,30.8962,146.83,99.6067,97.2598,0.000854457,0.0730223,21.0039,170.143,0.213999,0.0,0.0
26,6.25,29.342,30.5398,143.789,99.6337,96.851,0.000877123,0.072556,21.0054,170.133,0.254239,0.0,0.0
28,6.75,29.5745,30.8201,148.925,99.6365,96.4244,0.000895483,0.0721782,21.0079,170.133,0.294114,0.0,0.0
30,7.25,29.8256,30.8066,144.047,99.655,96.8717,0.000954944,0.0718858,21.0097,170.123,0.254241,0.0,0.0
32,7.75,29.5989,31.0487,145.452,99.6587,96.7121,0.00100311,0.0716489,21.011,170.103,0.269364,0.0,0.0
34,8.25,29.9388,30.9753,145.186,99.6849,96.7634,0.00116049,0.0714571,21.0099,170.113,0.26697,0.0,0.0
36,8.75,29.758,30.7571,147.008,99.6933,97.055,0.00128796,0.07404,21.0072,170.113,0.240727,0.0,0.0
38,9.25,29.5449,30.8941,143.259,99.7086,95.1826,0.00162424,0.0761321,20.996,170.093,0.416943,0.0,0.0
40,9.75,29.5691,30.3236,145.905,99.7155,94.9359,0.00189663,0.0845246,20.9788,170.103,0.440856,0.0,0.0
42,10.25,29.6352,30.9844,143.616,99.7276,94.1127,0.00211726,0.0913224,20.9649,170.113,0.520106,0.0,0.0
44,10.75,30.3295,30.5684,139.356,99.7413,88.8495,0.00283188,0.109863,20.9291,170.003,1.03785,0.0,1.0
46,11.25,29.9392,30.7129,137.304,99.7522,82.5485,0.00341072,0.124881,20.9002,170.013,1.69903,0.0,1.0
48,11.75,29.833,31.0212,135.265,99.7598,78.3011,0.00443948,0.15487,20.8596,169.843,2.17383,0.0,1.0
50,12.25,29.8936,30.9497,132.472,99.7731,75.3732,0.00527278,0.17916,20.8114,169.823,2.51707,0.0,1.0
52,12.75,29.6755,31.3518,125.367,99.7759,69.1675,0.00667643,0.21239,20.7724,169.763,3.28848,0.0,1.0
54,13.25,29.918,31.1702,126.408,99.7929,66.2663,0.00781338,0.251505,20.7058,169.673,3.67459,0.0,1.0
56,13.75,30.199,31.2108,119.477,99.7977,63.3448,0.00917295,0.283188,20.6518,169.573,4.0797,0.0,1.0
58,14.25,30.6297,32.2025,118.022,99.8037,59.0888,0.010669,0.33848,20.5555,169.463,4.70448,0.0,1.0
60,14.75,31.5104,32.6098,113.733,99.8183,57.8115,0.0118808,0.383267,20.4775,169.393,4.90192,0.0,1.0
62,15.25,31.4367,32.956,119.609,99.8183,58.2195,0.0137397,0.445254,20.3961,169.262,4.8388,0.0,1.0
64,15.75,32.4221,33.3738,109.741,99.834,56.0585,0.0152454,0.495464,20.3138,169.162,5.1797,0.0,1.0
66,16.25,32.676,33.886,114.022,99.8412,57.9436,0.0172973,0.552322,20.2232,169.042,4.88351,0.0,1.0
68,16.75,33.333,34.4047,113.219,99.8618,59.4642,0.0189593,0.612946,20.1282,168.872,4.65285,0.0,1.0
70,17.25,34.08,35.5157,107.485,99.8586,57.4268,0.0203056,0.676626,20.0513,168.712,4.96547,0.0,0.0
72,17.75,34.9102,36.9569,97.4406,99.871,49.4524,0.022605,0.741325,19.9654,168.542,6.30839,0.0,0.0
74,18.25,36.0473,37.2521,108.485,99.8852,50.4614,0.0244676,0.793731,19.8747,168.382,6.12838,0.0,0.0
76,18.75,37.0596,38.2246,108.113,99.8819,46.674,0.0267609,0.865481,19.7801,168.222,6.82835,0.0,0.0
78,19.25,38.0604,39.4061,105.173,99.8888,45.0365,0.0286185,0.923599,19.6843,168.131,7.1495,0.0,0.0
80,19.75,38.7984,40.301,105.73,99.8968,44.6137,0.030883,0.98391,19.5925,167.851,7.23488,0.0,0.0
82,20.25,40.347,41.8269,104.803,99.8989,44.2438,0.0327172,1.04467,19.5052,167.701,7.30979,0.0,0.0
84,20.75,41.6908,43.0012,99.8418,99.9162,43.6949,0.034829,1.09389,19.4221,167.531,7.42339,0.0,0.0
86,21.25,42.3363,44.2025,103.348,99.9166,42.9898,0.0365395,1.15013,19.3435,167.391,7.56944,0.0,0.0
88,21.75,43.8622,45.9307,104.27,99.9214,43.9607,0.0383566,1.19568,19.2799,167.191,7.36943,0.0,0.0
90,22.25,44.92,47.4664,102.867,99.9234,42.2217,0.0398285,1.23811,19.2284,167.091,7.73188,0.0,0.0
92,22.75,46.4046,48.7577,105.15,99.9384,42.3296,0.0411541,1.27745,19.1866,166.92,7.7103,0.0,0.0
94,23.25,47.8946,50.1508,102.396,99.942,45.0721,0.0422278,1.31235,19.1528,166.78,7.1472,0.0,0.0
96,23.75,49.1433,51.7947,99.2595,99.9476,40.0573,0.0430976,1.34062,19.1255,166.64,8.20635,0.0,0.0
98,24.25,49.5701,52.1225,107.328,99.9488,44.2527,0.0434954,1.35209,19.1067,166.51,7.31247,0.0,0.0
100,24.75,50.5919,53.8754,103.908,99.9617,43.0749,0.0435417,1.36138,19.0947,166.35,7.55575,0.0,0.0
102,25.25,52.2164,56.09,110.846,99.9593,38.5887,0.0431081,1.34472,19.0849,166.33,8.54263,0.0,0.0
104,25.75,53.6254,57.4682,111.828,99.967,38.5849,0.0423327,1.33122,19.0952,166.23,8.5442,0.0,0.0
106,26.25,54.669,58.4099,117.3,99.9678,42.1078,0.0417047,1.30294,19.1199,166.13,7.76009,0.0,0.0
108,26.75,55.5324,59.9158,110.694,99.9791,44.425,0.0401258,1.26443,19.1825,166.04,7.28032,0.0,0.0
110,27.25,56.7374,60.7159,115.625,99.971,43.857,0.0388469,1.23323,19.2331,166.01,7.39508,0.0,0.0
112,27.75,57.1093,62.0599,119.824,99.992,47.0659,0.0369006,1.18575,19.2741,165.929,6.76319,0.0,0.0
114,28.25,57.8432,62.7718,119.434,99.9815,51.1432,0.0353242,1.1273,19.3474,165.869,6.01657,0.0,0.0
116,28.75,58.6808,63.2027,122.986,99.992,58.3253,0.0340472,1.07996,19.4429,165.849,4.83811,0.0,0.0
118,29.25,59.2753,63.7669,125.576,99.9907,63.9517,0.0316041,1.00829,19.5447,165.799,4.01147,0.0,0.0
120,29.75,59.4727,64.3369,135.179,99.9932,70.4084,0.0296251,0.950243,19.6491,165.729,3.14841,0.0,0.0
122,30.25,59.804,64.7573,128.262,99.9823,72.8927,0.0276788,0.883097,19.7495,165.699,2.83621,0.0,0.0
124,30.75,59.6848,65.4074,134.566,100.002,77.0496,0.0257932,0.828709,19.8452,165.659,2.34024,0.0,0.0
126,31.25,59.8301,65.5363,131.207,99.9964,76.8177,0.0242658,0.784655,19.9227,165.639,2.36676,0.0,0.0
128,31.75,59.7413,65.5533,129.055,100.011,77.7873,0.0223131,0.72582,19.998,165.619,2.25548,0.0,0.0
130,32.25,60.043,65.451,134.917,99.9952,78.0869,0.0207314,0.678164,20.0701,165.569,2.21956,0.0,0.0
132,32.75,59.9843,65.363,135.616,100.007,79.9614,0.0191316,0.634013,20.1396,165.559,2.00771,0.0,0.0
134,33.25,59.5371,65.6577,133.601,99.9952,75.0875,0.0178357,0.593256,20.2058,165.539,2.5711,0.0,0.0
136,33.75,60.056,65.2467,137.132,100.012,78.4708,0.0165408,0.560242,20.2659,165.509,2.17707,0.0,0.0
138,34.25,59.4287,65.6552,134.968,99.9968,76.342,0.015492,0.523606,20.3204,165.489,2.42255,0.0,0.0
140,34.75,59.6998,65.2022,135.988,100.001,78.3696,0.0145419,0.49393,20.3646,165.479,2.18763,0.0,0.0
142,35.25,59.6366,65.3461,135.057,99.9887,80.4362,0.0136819,0.462997,20.4122,165.409,1.95294,0.0,0.0
144,35.75,59.7892,65.0185,136.451,99.994,80.3901,0.0129854,0.43794,20.4507,165.419,1.95856,0.0,0.0
146,36.25,59.4347,65.1945,137.986,99.9859,80.3101,0.0122752,0.413063,20.4861,165.399,1.96677,0.0,0.0
148,36.75,59.2342,64.5554,135.43,99.9972,81.3267,0.0116999,0.392912,20.5187,165.389,1.85489,0.0,0.0
150,37.25,58.9427,64.1043,140.334,99.9835,82.9959,0.0111248,0.374364,20.5476,165.359,1.67131,0.0,0.0
152,37.75,58.9736,64.442,139.877,99.9899,83.6587,0.010659,0.357337,20.5732,165.359,1.6005,0.0,0.0
154,38.25,58.9029,64.282,133.301,99.9843,83.1406,0.0102817,0.341918,20.594,165.309,1.65574,0.0,0.0
156,38.75,58.8394,63.8883,134.068,99.9847,85.134,0.00986481,0.327966,20.6174,165.319,1.44313,0.0,0.0
158,39.25,58.5583,64.2155,137.005,99.9891,86.6064,0.00952711,0.316664,20.6364,165.309,1.28963,0.0,0.0
160,39.75,58.0416,63.8524,138.218,99.9835,87.0444,0.00918993,0.304197,20.6545,165.319,1.24384,0.0,0.0
162,40.25,58.3682,63.1799,138.887,99.9613,88.2489,0.00891681,0.294099,20.6717,165.289,1.11851,0.0,0.0
164,40.75,58.0683,62.9965,136.455,99.9722,88.6976,0.00865322,0.284423,20.6877,165.279,1.07397,0.0,0.0
166,41.25,57.7587,62.9622,139.009,99.9517,89.4225,0.00843972,0.275239,20.7025,165.269,0.999064,0.0,0.0
168,41.75,57.7339,62.6334,139.5,99.9581,90.4302,0.0082593,0.267799,20.7168,165.259,0.899067,0.0,0.0
170,42.25,57.4236,62.5968,140.445,99.9371,91.3266,0.00811317,0.259519,20.7305,165.249,0.808658,0.0,0.0
172,42.75,57.6074,62.4234,138.53,99.9436,90.9148,0.00801224,0.252811,20.7427,165.219,0.849798,0.0,0.0
174,43.25,57.797,62.241,139.821,99.9335,91.3554,0.00793048,0.245772,20.7536,165.179,0.805504,0.0,0.0
176,43.75,57.3334,62.1381,140.177,99.9363,91.8569,0.00789167,0.24007,20.7636,165.169,0.75662,0.0,0.0
178,44.25,56.7839,61.9848,141.015,99.9178,92.0685,0.00786024,0.234029,20.7728,165.179,0.734302,0.0,0.0
180,44.75,56.9692,61.4499,138.283,99.9194,91.9847,0.00783478,0.229135,20.7802,165.189,0.74262,0.0,0.0
182,45.25,56.3891,61.7378,138.768,99.9037,92.9429,0.00782925,0.224033,20.7862,165.149,0.648199,0.0,0.0
184,45.75,56.1001,61.5155,138.304,99.9001,93.3238,0.00783836,0.2199,20.7932,165.139,0.611167,0.0,0.0
186,46.25,56.1639,61.632,139.067,99.8831,92.7499,0.00784574,0.216039,20.7989,165.129,0.665009,0.0,0.0
188,46.75,55.9201,60.7922,141.759,99.8743,93.4834,0.007873,0.21245,20.8041,165.109,0.593517,0.0,0.0
190,47.25,56.2809,60.6673,138.598,99.8678,92.9818,0.00789508,0.209543,20.8089,165.109,0.641218,0.0,0.0
192,47.75,55.7103,60.4034,139.744,99.863,93.6501,0.00792046,0.206274,20.8133,165.109,0.576508,0.0,0.0
194,48.25,55.2453,59.4635,140.539,99.8469,93.9794,0.00794102,0.203626,20.8172,165.089,0.543557,0.0,0.0
196,48.75,54.897,59.6275,141.811,99.8384,94.4356,0.00794912,0.201482,20.8213,165.059,0.499332,0.0,0.0
198,49.25,55.3219,59.9761,141.013,99.8263,93.753,0.00794801,0.198846,20.8254,165.059,0.56336,0.0,0.0
200,49.75,54.8572,59.6639,141.611,99.813,93.7001,0.00791716,0.196712,20.8288,165.049,0.56723,0.0,0.0
202,50.25,54.457,58.7988,144.527,99.8062,94.3336,0.00789218,0.194588,20.8328,165.049,0.506132,0.0,0.0
204,50.75,54.133,59.0268,140.809,99.7961,95.4095,0.00785817,0.192513,20.8361,165.019,0.403447,0.0,0.0
206,51.25,54.0875,59.1724,139.443,99.7876,94.2401,0.00781822,0.190581,20.8388,165.019,0.513367,0.0,0.0
208,51.75,54.3431,58.8803,138.379,99.7711,94.8021,0.00778586,0.188792,20.8418,165.029,0.458513,0.0,0.0
210,52.25,53.8329,59.1375,140.748,99.7554,95.4869,0.00775964,0.1871,20.8442,165.009,0.392502,0.0,0.0
212,52.75,53.5898,58.9112,143.062,99.7381,95.1267,0.00772006,0.185512,20.8464,165.009,0.42486,0.0,0.0
214,53.25,53.7512,58.5751,143.392,99.7292,95.0032,0.00767147,0.184007,20.8484,164.989,0.435729,0.0,0.0
216,53.75,53.334,58.4472,139.965,99.7171,94.6887,0.00762491,0.18259,20.8502,164.989,0.464397,0.0,0.0
218,54.25,53.5212,58.3397,143.745,99.7111,94.731,0.00758071,0.181443,20.8519,164.969,0.459843,0.0,0.0
220,54.75,53.3557,57.4196,141.86,99.6796,95.9757,0.0075436,0.180513,20.8539,164.959,0.339852,0.0,0.0
222,55.25,53.2475,57.8091,143.668,99.6732,95.0214,0.00752716,0.179044,20.8551,164.969,0.428966,0.0,0.0
224,55.75,52.9759,57.4396,139.251,99.6554,95.1056,0.00749905,0.177853,20.8572,164.959,0.419418,0.0,0.0
226,56.25,52.4854,57.6463,143.732,99.6486,95.2025,0.00747378,0.176573,20.8593,164.959,0.40966,0.0,0.0
228,56.75,52.6158,57.0936,141.298,99.6216,95.39,0.00745332,0.175252,20.8614,164.959,0.389571,0.0,0.0
230,57.25,52.5522,56.9167,140.898,99.6135,95.9825,0.00741933,0.173971,20.8638,164.939,0.333266,0.0,0.0
232,57.75,52.3829,56.711,143.217,99.5954,95.7028,0.0073918,0.172744,20.8664,164.899,0.357829,0.0,0.0
234,58.25,52.2782,56.2901,145.529,99.5712,96.5831,0.00734339,0.172221,20.8687,164.909,0.273471,0.0,0.0
236,58.75,52.1202,56.2973,142.633,99.5507,95.8238,0.00730417,0.17087,20.8708,164.919,0.342453,0.0,0.0
238,59.25,51.9744,56.1887,139.376,99.5398,95.685,0.00727241,0.169776,20.8725,164.919,0.354483,0.0,0.0
240,59.75,51.366,56.2635,143.135,99.5188,95.5631,0.00720941,0.168505,20.8744,164.909,0.364034,0.0,0.0
242,60.25,51.6775,55.6845,142.279,99.4999,96.2508,0.00715838,0.167476,20.8763,164.909,0.297965,0.0,0.0
244,60.75,51.4514,55.7964,139.725,99.4878,95.7544,0.00710463,0.166087,20.8783,164.889,0.343286,0.0,0.0
246,61.25,50.9031,55.9697,140.871,99.4539,96.0066,0.0070611,0.164963,20.8803,164.889,0.316621,0.0,0.0
248,61.75,50.9387,55.7504,141.427,99.431,95.4763,0.00703106,0.164052,20.8819,164.879,0.364259,0.0,0.0
250,62.25,51.133,55.4832,143.676,99.4068,96.0625,0.00701144,0.162874,20.8833,164.869,0.307143,0.0,0.0
252,62.75,50.7145,55.1158,141.695,99.3842,95.3883,0.00701254,0.161919,20.8843,164.859,0.368317,0.0,0.0
254,63.25,50.1237,55.2898,140.228,99.3693,95.8369,0.00702873,0.160938,20.8857,164.849,0.324858,0.0,0.0
256,63.75,50.5395,54.9147,141.373,99.3366,95.933,0.00706213,0.159954,20.8867,164.839,0.312917,0.0,0.0
258,64.25,50.2102,54.8412,148.253,99.3395,95.8657,0.00710744,0.159001,20.8885,164.828,0.319469,0.0,0.0
260,64.75,50.0794,54.808,144.636,99.3161,96.2056,0.00717525,0.158088,20.8901,164.828,0.285596,0.0,0.0
262,65.25,49.865,54.5028,142.321,99.2822,96.691,0.00723018,0.157251,20.8916,164.818,0.237363,0.0,0.0
264,65.75,50.3342,53.8374,144.956,99.2516,95.8632,0.00727467,0.156487,20.8929,164.818,0.311766,0.0,0.0
266,66.25,49.8769,53.6775,141.795,99.2496,96.5509,0.0073146,0.155741,20.8939,164.818,0.247424,0.0,0.0
268,66.75,49.5838,54.1988,143.513,99.2085,96.1213,0.00735045,0.155022,20.8951,164.808,0.283728,0.0,0.0
270,67.25,49.5474,53.8117,142.725,99.1952,96.1933,0.00737949,0.154299,20.8962,164.778,0.275808,0.0,0.0
272,67.75,49.3428,53.7624,140.882,99.1698,95.7205,0.00738185,0.153586,20.8973,164.778,0.317728,0.0,0.0
274,68.25,49.4449,53.2051,139.898,99.1839,96.1387,0.00738376,0.152823,20.8985,164.778,0.279882,0.0,0.0
276,68.75,49.1242,53.1138,146.558,99.1629,97.118,0.00737286,0.152037,20.8999,164.778,0.18702,0.0,0.0
278,69.25,48.816,53.4052,142.765,99.1706,96.115,0.00736403,0.151401,20.9015,164.768,0.280892,0.0,0.0
280,69.75,49.0567,52.9403,141.169,99.1625,95.754,0.00736062,0.150686,20.9028,164.778,0.313937,0.0,0.0
282,70.25,49.0063,52.6599,142.778,99.1738,96.0168,0.00735785,0.149926,20.9038,164.778,0.290356,0.0,0.0
284,70.75,48.4867,53.0871,141.423,99.1609,96.3825,0.00736059,0.149311,20.9047,164.788,0.255074,0.0,0.0
286,71.25,48.1625,53.106,145.48,99.1762,96.2635,0.00736542,0.148658,20.9054,164.768,0.267541,0.0,0.0
288,71.75,48.5129,51.9802,143.148,99.1694,95.5826,0.0073717,0.148129,20.9063,164.768,0.330637,0.0,0.0
290,72.25,47.4979,52.8181,144.295,99.1839,96.1861,0.00737678,0.147672,20.9071,164.768,0.275459,0.0,0.0
292,72.75,48.3913,51.7806,146.488,99.1742,96.7608,0.00737959,0.147302,20.9078,164.748,0.221113,0.0,0.0
294,73.25,47.8022,52.136,143.832,99.1843,96.3638,0.00738068,0.14696,20.9083,164.748,0.258924,0.0,0.0
296,73.75,47.3547,51.6794,141.752,99.1843,96.4836,0.00737502,0.146683,20.9087,164.738,0.247776,0.0,0.0
298,74.25,47.8991,51.1005,144.629,99.177,96.5242,0.00736454,0.146388,20.9091,164.708,0.24334,0.0,0.0
300,74.75,47.3193,51.2528,151.289,99.1819,96.5759,0.00735605,0.146149,20.9094,164.688,0.238978,0.0,0.0
302,75.25,47.084,51.2191,146.691,99.1984,96.2889,0.00734917,0.145889,20.9096,164.678,0.26718,0.0,0.0
304,75.75,47.5383,51.0506,147.561,99.1819,96.5043,0.00730506,0.145618,20.9099,164.688,0.245628,0.0,0.0
306,76.25,46.917,50.8104,141.082,99.198,95.8839,0.00726932,0.14531,20.9103,164.688,0.304976,0.0,0.0
308,76.75,47.0877,50.8713,146.013,99.1883,96.6512,0.00722468,0.14498,20.9106,164.668,0.232563,0.0,0.0
310,77.25,47.204,50.4985,142.618,99.2049,96.8654,0.0071744,0.144713,20.9109,164.668,0.214193,0.0,0.0
312,77.75,46.79,50.6084,146.461,99.2057,96.4332,0.00712583,0.144497,20.9111,164.648,0.254395,0.0,0.0
314,78.25,46.6669,51.0999,143.326,99.2161,96.1802,0.00707944,0.143956,20.9113,164.658,0.278929,0.0,0.0
316,78.75,46.5274,50.4055,144.297,99.2053,96.4921,0.00704185,0.143517,20.9114,164.648,0.248884,0.0,0.0
318,79.25,46.2883,49.6646,145.976,99.2282,96.5966,0.00701017,0.14312,20.9124,164.648,0.241244,0.0,0.0
320,79.75,46.0458,50.494,145.27,99.2194,96.8814,0.00698451,0.142798,20.9132,164.648,0.214017,0.0,0.0
322,80.25,45.7641,49.9029,144.999,99.2282,96.7617,0.00697156,0.142486,20.9138,164.628,0.225921,0.0,0.0
324,80.75,45.9051,49.7347,144.003,99.2242,96.4878,0.00696813,0.142186,20.9144,164.628,0.250991,0.0,0.0
326,81.25,45.6409,50.1583,139.076,99.2278,96.8713,0.00697385,0.141944,20.9148,164.608,0.215723,0.0,0.0
328,81.75,45.8919,49.3712,140.943,99.2319,96.8675,0.00698614,0.141522,20.9156,164.618,0.21644,0.0,0.0
330,82.25,45.2532,49.2633,142.894,99.2452,96.8586,0.00699137,0.141181,20.9159,164.618,0.218466,0.0,0.0
332,82.75,45.0631,49.5468,145.034,99.2427,96.5154,0.00701897,0.140823,20.9169,164.618,0.250109,0.0,0.0
334,83.25,45.1292,49.4368,140.206,99.2403,95.8141,0.00704917,0.14046,20.9177,164.608,0.315343,0.0,0.0
336,83.75,45.4101,48.5401,143.657,99.2492,96.4383,0.0070807,0.140092,20.9184,164.608,0.257858,0.0,0.0
338,84.25,44.857,49.0369,146.558,99.2609,96.7401,0.00710624,0.139728,20.9189,164.598,0.230876,0.0,0.0
340,84.75,44.8097,48.9202,142.543,99.2568,97.019,0.00713936,0.139344,20.9196,164.568,0.204673,0.0,0.0
342,85.25,44.3998,47.8844,144.435,99.2738,96.1446,0.00716619,0.139138,20.9203,164.578,0.287459,0.0,0.0
344,85.75,44.462,48.0072,145.784,99.2685,96.9733,0.0071929,0.138786,20.9209,164.568,0.209959,0.0,0.0
346,86.25,44.4778,48.3836,147.076,99.2734,95.9901,0.00721454,0.138347,20.9214,164.558,0.301854,0.0,0.0
348,86.75,44.8863,48.3296,144.374,99.275,96.4713,0.00723206,0.137992,20.9218,164.558,0.257119,0.0,0.0
350,87.25,43.9624,47.4629,147.485,99.2847,96.3393,0.00724501,0.137647,20.9222,164.538,0.270287,0.0,0.0
352,87.75,43.7218,47.1459,141.15,99.2786,96.4823,0.0072555,0.137369,20.9224,164.548,0.256423,0.0,0.0
354,88.25,44.0345,48.1473,145.227,99.2899,97.3356,0.00726203,0.137059,20.9226,164.548,0.178422,0.0,0.0
356,88.75,43.9385,47.587,144.007,99.2939,96.6999,0.00726555,0.136808,20.9232,164.528,0.237594,0.0,0.0
358,89.25,44.0576,47.904,142.884,99.298,97.201,0.00726841,0.136538,20.9237,164.528,0.191569,0.0,0.0
360,89.75,44.1734,47.6303,144.326,99.3012,96.0663,0.0072558,0.13626,20.9241,164.508,0.297247,0.0,0.0
362,90.25,43.643,47.5543,141.069,99.2988,97.1455,0.00724558,0.136034,20.9244,164.498,0.196762,0.0,0.0
364,90.75,43.7004,47.6218,141.724,99.3056,96.6402,0.00722861,0.135763,20.9251,164.508,0.24419,0.0,0.0
366,91.25,43.7705,47.1086,144.71,99.3092,96.396,0.0072142,0.135464,20.9257,164.508,0.267228,0.0,0.0
368,91.75,43.575,47.066,144.843,99.3181,96.7515,0.00720194,0.135222,20.9262,164.498,0.234989,0.0,0.0
370,92.25,43.647,47.0742,143.984,99.3169,96.4883,0.00719071,0.134928,20.9265,164.488,0.259333,0.0,0.0
372,92.75,43.4972,46.9262,143.903,99.3254,96.7215,0.00718043,0.134689,20.9268,164.488,0.238432,0.0,0.0
374,93.25,43.2725,46.9006,145.396,99.327,97.121,0.0071721,0.134468,20.9271,164.478,0.201581,0.0,0.0
376,93.75,42.812,46.8974,142.77,99.3342,96.7866,0.00715947,0.134274,20.9273,164.488,0.233188,0.0,0.0
378,94.25,42.9117,46.4592,140.214,99.3411,96.4527,0.00714394,0.134104,20.9274,164.478,0.264825,0.0,0.0
380,94.75,43.2629,46.5192,145.002,99.3338,96.7062,0.00711357,0.133929,20.9276,164.468,0.240611,0.0,0.0
382,95.25,42.7865,46.3301,143.944,99.3383,96.2449,0.00710345,0.133754,20.9277,164.458,0.283928,0.0,0.0
384,95.75,42.2803,46.763,144.484,99.3487,96.7765,0.00707895,0.133613,20.9278,164.448,0.23544,0.0,0.0
386,96.25,42.9604,46.4442,151.935,99.3455,97.1972,0.00704142,0.133288,20.9285,164.448,0.196219,0.0,0.0
388,96.75,42.5326,46.7005,144.683,99.3483,96.9428,0.00703132,0.133026,20.9287,164.428,0.219991,0.0,0.0
390,97.25,42.7215,46.3749,141.626,99.3532,96.8577,0.00699607,0.132651,20.9292,164.448,0.228307,0.0,0.0
392,97.75,42.6566,46.1427,141.994,99.3653,97.0076,0.00697805,0.13201,20.9298,164.438,0.215528,0.0,0.0
394,98.25,42.6181,46.2243,144.945,99.3657,97.0258,0.00696345,0.131838,20.9304,164.438,0.21388,0.0,0.0
396,98.75,41.7788,45.1992,144.428,99.3741,96.286,0.00696148,0.131194,20.9311,164.458,0.283341,0.0,0.0
398,99.25,41.5691,45.0851,149.21,99.3641,96.5069,0.00696873,0.130222,20.932,164.438,0.261861,0.0,0.0
400,99.75,41.7679,45.1456,143.445,99.383,96.3325,0.00698049,0.129817,20.9327,164.438,0.279803,0.0,0.0
402,100.25,41.14,45.3644,144.822,99.3838,97.0169,0.0069883,0.128829,20.9331,164.438,0.216341,0.0,0.0
404,100.75,41.6677,44.6928,145.238,99.4044,96.7718,0.00700164,0.128324,20.9339,164.418,0.240894,0.0,0.0
406,101.25,41.7137,45.0204,140.298,99.4007,96.7477,0.00701244,0.127636,20.9345,164.408,0.242806,0.0,0.0
408,101.75,41.7514,44.6429,141.533,99.3979,96.9754,0.00700505,0.127079,20.935,164.388,0.221452,0.0,0.0
410,102.25,41.3046,44.9119,144.854,99.3975,96.269,0.00699906,0.126539,20.9354,164.398,0.28703,0.0,0.0
412,102.75,41.4004,44.7835,145.076,99.3935,96.823,0.00696565,0.126022,20.9362,164.398,0.235164,0.0,0.0
414,103.25,40.7999,44.5094,143.068,99.3919,96.9178,0.00693859,0.125802,20.9368,164.398,0.226236,0.0,0.0
416,103.75,40.6936,44.3514,143.322,99.4035,96.9868,0.00688318,0.125374,20.9373,164.408,0.220905,0.0,0.0
418,104.25,40.7653,44.7654,139.463,99.4068,96.7761,0.0068383,0.124981,20.9377,164.388,0.24072,0.0,0.0
420,104.75,40.643,43.9702,146.122,99.4084,97.4494,0.00678459,0.124662,20.938,164.388,0.178634,0.0,0.0
422,105.25,40.6775,44.245,143.016,99.4068,96.7735,0.00674109,0.124432,20.9383,164.388,0.240956,0.0,0.0
424,105.75,40.3026,43.8519,146.739,99.4197,96.8125,0.00669222,0.124246,20.9385,164.378,0.238509,0.0,0.0
426,106.25,40.741,43.9761,145.079,99.4173,97.044,0.00665264,0.124165,20.9387,164.378,0.216856,0.0,0.0
428,106.75,40.3913,43.7431,147.363,99.4269,97.9319,0.00660447,0.124099,20.9388,164.368,0.135982,0.0,0.0
430,107.25,40.5192,43.9255,144.876,99.4164,96.4895,0.00656546,0.124115,20.939,164.358,0.268206,0.0,0.0
432,107.75,40.1487,43.3037,143.812,99.4334,97.1578,0.00653386,0.124129,20.939,164.348,0.207788,0.0,0.0
434,108.25,40.5436,44.0136,141.337,99.4285,97.2302,0.00649464,0.12407,20.9391,164.338,0.200669,0.0,0.0
436,108.75,40.2973,43.4594,142.108,99.4354,96.804,0.00646288,0.124022,20.9392,164.338,0.240714,0.0,0.0
438,109.25,39.9601,43.7655,144.637,99.4443,97.0025,0.0064378,0.123816,20.9392,164.318,0.223129,0.0,0.0
440,109.75,39.9626,43.5974,144.184,99.4402,96.5725,0.00641807,0.12365,20.9393,164.328,0.26264,0.0,0.0
442,110.25,40.1344,43.4676,147.602,99.4535,97.2039,0.00640405,0.123412,20.9393,164.338,0.205345,0.0,0.0
444,110.75,40.1387,42.2781,141.865,99.4511,97.2725,0.00639445,0.123127,20.9398,164.338,0.1988,0.0,0.0
446,111.25,39.462,42.5726,142.992,99.4523,97.4464,0.00638863,0.122897,20.9401,164.318,0.182873,0.0,0.0
448,111.75,39.4111,42.5604,142.098,99.4563,96.506,0.00638567,0.12232,20.9409,164.308,0.270272,0.0,0.0
450,112.25,39.8395,43.405,142.741,99.4499,96.9513,0.00638328,0.121854,20.9415,164.298,0.228377,0.0,0.0
452,112.75,39.4379,42.9734,147.837,99.462,97.2793,0.00638257,0.121286,20.9424,164.288,0.199156,0.0,0.0
454,113.25,39.4731,42.9475,147.379,99.4455,96.6956,0.00638136,0.120654,20.9432,164.268,0.251674,0.0,0.0
456,113.75,40.1484,42.6665,150.752,99.4584,97.1667,0.00637978,0.120143,20.9442,164.278,0.209222,0.0,0.0
458,114.25,38.7251,41.996,145.184,99.4576,96.6961,0.00637851,0.119493,20.9451,164.268,0.252725,0.0,0.0
460,114.75,38.8755,41.9965,141.327,99.47,97.6619,0.00636262,0.118966,20.9457,164.268,0.164654,0.0,0.0
462,115.25,39.5731,42.8542,140.07,99.4713,96.8078,0.00635584,0.118415,20.946,164.258,0.243598,0.0,0.0
464,115.75,39.0468,43.0184,143.343,99.4837,97.044,0.00632733,0.117968,20.9465,164.248,0.222857,0.0,0.0
466,116.25,39.4699,42.1439,145.196,99.4785,96.7151,0.00627266,0.117384,20.9477,164.248,0.252849,0.0,0.0
468,116.75,39.5054,42.3071,145.715,99.4733,96.3901,0.00623648,0.116911,20.9481,164.248,0.28259,0.0,0.0
470,117.25,39.4123,42.7577,140.932,99.487,97.0012,0.00617462,0.11621,20.9486,164.248,0.227102,0.0,0.0
472,117.75,39.3512,42.2452,144.876,99.4894,96.975,0.00610437,0.115641,20.9491,164.238,0.229748,0.0,0.0
474,118.25,38.3962,41.2329,139.17,99.4882,96.8569,0.00602934,0.115399,20.9496,164.228,0.240575,0.0,0.0
476,118.75,38.0578,41.7184,146.451,99.4914,97.0854,0.00596856,0.114708,20.9503,164.218,0.219713,0.0,0.0
478,119.25,39.1819,41.7643,144.096,99.4805,96.7799,0.00588603,0.113807,20.9511,164.228,0.247024,0.0,0.0
480,119.75,39.085,41.5739,141.053,99.4829,97.234,0.00581917,0.1135,20.952,164.238,0.205226,0.0,0.0
482,120.25,39.1905,41.9111,146.479,99.4846,97.6796,0.00575723,0.112976,20.9527,164.228,0.164329,0.0,0.0
484,120.75,38.7394,41.8712,143.255,99.4886,97.3212,0.00570006,0.11233,20.9532,164.218,0.197692,0.0,0.0
486,121.25,38.8538,41.7446,145.632,99.4906,96.528,0.00565375,0.111807,20.9537,164.198,0.271317,0.0,0.0
488,121.75,38.9417,41.8115,141.525,99.4882,96.3951,0.00561623,0.111037,20.954,164.208,0.283463,0.0,0.0
490,122.25,37.6595,40.9054,146.659,99.4966,96.8158,0.00559623,0.110414,20.9543,164.218,0.245143,0.0,0.0
492,122.75,37.4297,41.2813,146.003,99.4999,97.2154,0.00558937,0.109706,20.9555,164.208,0.208473,0.0,0.0
494,123.25,38.7298,41.8513,144.911,99.5136,97.1519,0.00558706,0.108949,20.9564,164.208,0.215571,0.0,0.0
496,123.75,38.3755,41.4371,143.982,99.4999,96.8057,0.0055881,0.108336,20.9576,164.188,0.246376,0.0,0.0
498,124.25,38.7527,41.5042,146.519,99.5075,96.5721,0.00558571,0.107839,20.9586,164.188,0.268751,0.0,0.0
500,124.75,37.8724,40.9218,144.502,99.518,96.7342,0.00558085,0.107106,20.9598,164.178,0.254644,0.0,0.0
502,125.25,38.3874,41.0073,140.238,99.5091,96.9267,0.00556977,0.106512,20.9608,164.178,0.235997,0.0,0.0
504,125.75,38.2595,41.3496,146.065,99.5216,97.4816,0.00555438,0.105929,20.9616,164.178,0.185892,0.0,0.0
506,126.25,38.0311,41.1188,144.61,99.5176,96.9339,0.00552958,0.105366,20.9622,164.198,0.236094,0.0,0.0
508,126.75,38.4942,41.3236,143.265,99.5249,97.2708,0.00549841,0.10491,20.9632,164.178,0.205609,0.0,0.0
510,127.25,38.5528,41.2988,147.063,99.5224,97.2331,0.00546343,0.10432,20.964,164.178,0.208868,0.0,0.0
512,127.75,38.4475,41.0064,144.657,99.5224,97.2738,0.00542635,0.103842,20.965,164.168,0.205117,0.0,0.0
514,128.25,38.5041,41.1773,146.435,99.5188,97.129,0.00539632,0.103165,20.9659,164.158,0.218155,0.0,0.0
516,128.75,37.7731,41.1173,143.59,99.5184,96.9678,0.00536292,0.102617,20.9666,164.168,0.233032,0.0,0.0
518,129.25,38.2774,41.0642,144.474,99.5341,97.1942,0.0053277,0.101995,20.9672,164.158,0.213516,0.0,0.0
520,129.75,37.8918,40.7941,146.121,99.5325,97.2111,0.00529918,0.10149,20.9676,164.168,0.211807,0.0,0.0
522,130.25,37.802,40.6687,145.37,99.5365,97.4194,0.00526622,0.100834,20.9683,164.168,0.192966,0.0,0.0
524,130.75,37.5623,40.8713,140.855,99.5212,97.1409,0.00523953,0.100303,20.9689,164.148,0.217279,0.0,0.0
526,131.25,37.9379,40.7999,145.833,99.5357,97.3076,0.00520626,0.0996483,20.9697,164.158,0.203193,0.0,0.0
528,131.75,37.324,40.8524,146.924,99.5309,97.0605,0.00516882,0.0989162,20.9706,164.158,0.225582,0.0,0.0
530,132.25,37.9275,40.6199,144.015,99.5434,96.4536,0.00512251,0.0980848,20.9717,164.168,0.283006,0.0,0.0
532,132.75,38.0361,40.6569,146.568,99.5285,96.9868,0.005085,0.0971968,20.9731,164.158,0.232177,0.0,0.0
534,133.25,37.9504,40.6993,141.343,99.547,97.4934,0.0050411,0.0964775,20.9746,164.148,0.18709,0.0,0.0
536,133.75,37.9652,40.4269,150.293,99.5386,97.1007,0.00500554,0.0956567,20.9763,164.148,0.222556,0.0,0.0
538,134.25,37.6609,40.4581,144.967,99.5547,97.0778,0.00496199,0.0947776,20.9777,164.158,0.226123,0.0,0.0
540,134.75,37.8626,40.1222,145.648,99.5269,96.5996,0.00492672,0.0939789,20.9788,164.138,0.26794,0.0,0.0
542,135.25,37.8201,39.6571,143.771,99.5394,97.8667,0.00489815,0.0932541,20.9797,164.138,0.152102,0.0,0.0
544,135.75,37.328,39.8373,147.403,99.5341,97.0423,0.004848,0.0925733,20.9804,164.128,0.227557,0.0,0.0
546,136.25,37.3569,39.8676,140.847,99.5369,97.3944,0.00480737,0.0919375,20.981,164.128,0.195304,0.0,0.0
548,136.75,37.6641,40.3884,147.973,99.5369,96.9805,0.00475238,0.0913577,20.9814,164.128,0.233528,0.0,0.0
550,137.25,37.4234,40.3878,148.164,99.5361,97.0194,0.00470783,0.0908296,20.9818,164.128,0.229853,0.0,0.0
552,137.75,37.8139,40.4679,145.064,99.5357,97.0985,0.00465627,0.0903803,20.9821,164.128,0.222498,0.0,0.0
554,138.25,37.0767,40.103,145.709,99.5349,97.173,0.00460055,0.0899969,20.9824,164.138,0.215543,0.0,0.0
556,138.75,37.286,39.8564,146.123,99.5253,97.7105,0.00454511,0.0896864,20.9826,164.108,0.165162,0.0,0.0
558,139.25,36.9651,39.8711,147.153,99.5273,97.7617,0.00449091,0.0894132,20.9827,164.118,0.160642,0.0,0.0
560,139.75,37.0943,40.3571,146.185,99.52,96.9119,0.00444637,0.0891725,20.9829,164.108,0.238349,0.0,0.0
562,140.25,37.304,39.9428,144.344,99.5414,96.9521,0.00440971,0.0889415,20.983,164.108,0.236552,0.0,0.0
564,140.75,36.8612,39.9118,143.713,99.5148,97.598,0.00438001,0.088722,20.9831,164.108,0.174564,0.0,0.0
566,141.25,37.229,39.8724,148.476,99.5236,97.143,0.00436821,0.0885082,20.9834,164.098,0.217301,0.0,0.0
568,141.75,37.686,39.3832,143.158,99.5273,97.1142,0.00435865,0.0883026,20.9838,164.108,0.220287,0.0,0.0
570,142.25,37.0632,39.2528,142.83,99.5232,97.1942,0.00435091,0.0881145,20.9842,164.098,0.212534,0.0,0.0
572,142.75,37.1998,39.6363,145.702,99.5156,97.033,0.00435076,0.0879426,20.9845,164.098,0.226747,0.0,0.0
574,143.25,36.857,39.6397,145.178,99.5216,97.7457,0.00435065,0.0878035,20.9847,164.098,0.161609,0.0,0.0
576,143.75,36.4254,38.9679,145.257,99.5087,96.8323,0.00435668,0.0876087,20.9849,164.088,0.244703,0.0,0.0
578,144.25,36.2986,39.5607,142.194,99.5269,97.2492,0.00436157,0.0874509,20.9851,164.098,0.207783,0.0,0.0
580,144.75,37.1811,39.1591,145.919,99.5087,97.1261,0.00436553,0.0872655,20.9852,164.068,0.21752,0.0,0.0
582,145.25,37.0141,39.4987,144.358,99.512,97.3571,0.00436261,0.0870635,20.9857,164.058,0.196483,0.0,0.0
584,145.75,36.4958,39.5906,144.276,99.4975,96.619,0.00436024,0.0868998,20.9864,164.058,0.263479,0.0,0.0
586,146.25,36.5458,39.5049,149.194,99.5035,98.0335,0.00434852,0.0866579,20.9869,164.068,0.133587,0.0,0.0
588,146.75,36.858,39.27,146.508,99.5031,98.2764,0.00433902,0.086462,20.9874,164.058,0.111337,0.0,0.0
590,147.25,36.797,39.0379,144.459,99.4995,97.3931,0.00431663,0.0863033,20.9878,164.058,0.19204,0.0,0.0
592,147.75,37.1127,39.2696,150.397,99.4926,96.2339,0.0042985,0.086038,20.9881,164.058,0.29889,0.0,0.0
594,148.25,36.6092,38.9457,144.037,99.4886,96.9559,0.00426177,0.0858232,20.9883,164.068,0.231438,0.0,0.0
596,148.75,36.8342,39.1494,145.167,99.4829,97.0148,0.00423201,0.0855808,20.9885,164.048,0.225484,0.0,0.0
598,149.25,35.9078,38.5215,145.606,99.4809,96.3528,0.00420791,0.0853845,20.9887,164.048,0.28675,0.0,0.0
600,149.75,35.8548,38.2957,149.235,99.4741,97.3787,0.0041627,0.0851572,20.9888,164.048,0.191076,0.0,0.0
602,150.25,36.6555,39.0143,145.067,99.4672,96.8988,0.00412607,0.0849731,20.9889,164.038,0.234802,0.0,0.0
604,150.75,36.8362,38.9726,144.756,99.4479,97.2924,0.00408662,0.084824,20.989,164.028,0.196672,0.0,0.0
606,151.25,36.576,38.7548,146.947,99.4684,96.6978,0.00405467,0.0847032,20.989,164.048,0.25355,0.0,0.0
608,151.75,36.2056,38.6965,144.756,99.4422,96.9314,0.00402814,0.0845981,20.9891,164.038,0.22953,0.0,0.0
610,152.25,36.4354,38.9407,144.698,99.4519,96.7033,0.00400607,0.0845066,20.9891,164.038,0.251548,0.0,0.0
612,152.75,36.1232,38.4637,143.911,99.4451,96.903,0.00398691,0.0844324,20.9892,164.048,0.232409,0.0,0.0
614,153.25,35.562,37.7949,145.892,99.4479,97.3347,0.00397023,0.0843314,20.9892,164.038,0.192769,0.0,0.0
616,153.75,35.8744,38.0756,146.644,99.4314,97.551,0.00395286,0.0842495,20.9892,164.038,0.171358,0.0,0.0
618,154.25,36.2809,38.5033,142.101,99.431,96.3778,0.00394362,0.0841113,20.9895,164.028,0.279915,0.0,0.0
620,154.75,36.6037,38.9104,142.328,99.4152,97.5632,0.00392783,0.0839347,20.9899,164.028,0.168774,0.0,0.0
622,155.25,35.996,38.9701,149.537,99.4176,97.4617,0.00390649,0.0837701,20.9902,164.028,0.178341,0.0,0.0
624,155.75,35.9206,38.6937,146.876,99.416,97.0461,0.00388919,0.0836173,20.9905,164.018,0.21655,0.0,0.0
626,156.25,36.5994,38.2029,143.581,99.4088,97.5391,0.00387519,0.0834577,20.9907,164.018,0.170411,0.0,0.0
628,156.75,36.3052,38.5083,146.222,99.4039,96.9568,0.00386384,0.083296,20.9909,164.008,0.223721,0.0,0.0
630,157.25,35.687,37.6381,143.603,99.4156,96.6021,0.00385658,0.0832271,20.991,164.028,0.257667,0.0,0.0
632,157.75,35.4055,37.8058,146.239,99.3947,96.6647,0.00385244,0.0830546,20.9912,164.018,0.249957,0.0,0.0
634,158.25,36.4992,38.0715,146.077,99.4044,97.3851,0.00384908,0.082915,20.9912,164.018,0.184198,0.0,0.0
636,158.75,36.1533,38.4923,148.159,99.3733,97.0275,0.00384025,0.0827587,20.9913,164.008,0.214416,0.0,0.0
638,159.25,35.9212,37.9611,142.968,99.379,96.7765,0.0038331,0.0825934,20.9914,164.008,0.23817,0.0,0.0
640,159.75,35.9625,37.7682,144.604,99.3826,97.1781,0.00381265,0.0824594,20.9914,163.998,0.201327,0.0,0.0
642,160.25,36.267,37.9768,144.995,99.3749,97.6191,0.00379608,0.0822554,20.9915,163.998,0.159997,0.0,0.0
644,160.75,35.4968,38.1651,146.481,99.3669,96.4908,0.00376067,0.0820902,20.9915,163.998,0.263611,0.0,0.0
646,161.25,35.61,37.2229,143.441,99.3568,96.2974,0.00373199,0.0818881,20.9915,164.008,0.28071,0.0,0.0
648,161.75,34.695,37.4844,146.237,99.3503,96.5543,0.00369206,0.0817244,20.9916,163.998,0.256216,0.0,0.0
650,162.25,35.773,37.7699,143.216,99.3439,97.3449,0.00364469,0.081551,20.9916,163.998,0.182444,0.0,0.0
652,162.75,35.624,37.985,144.997,99.3415,96.8683,0.00360631,0.0814104,20.9916,163.988,0.226271,0.0,0.0
654,163.25,35.4966,38.0159,140.999,99.3383,96.9538,0.00356817,0.081242,20.9916,163.978,0.218063,0.0,0.0
656,163.75,35.7381,37.8662,143.69,99.3399,96.7748,0.00353092,0.0811056,20.9916,163.988,0.234796,0.0,0.0
658,164.25,35.2231,37.7579,145.191,99.3246,96.4248,0.00350331,0.0809521,20.9916,163.988,0.265932,0.0,0.0
660,164.75,36.0086,37.8858,139.876,99.3165,97.515,0.00348326,0.0807889,20.9916,163.978,0.164295,0.0,0.0
662,165.25,35.5603,37.7738,142.834,99.3189,96.9889,0.00346958,0.0806568,20.9916,163.978,0.213063,0.0,0.0
664,165.75,35.7621,37.9096,144.39,99.3109,96.7549,0.00346082,0.0805089,20.9921,163.978,0.234019,0.0,0.0
666,166.25,35.6299,37.9938,146.225,99.3137,96.305,0.00345436,0.080389,20.9924,163.998,0.276104,0.0,0.0
668,166.75,35.654,37.4244,144.339,99.2959,97.6191,0.00344971,0.0802345,20.9927,163.978,0.152859,0.0,0.0
670,167.25,35.5882,37.7062,141.933,99.2939,96.7697,0.00344594,0.0800578,20.993,163.968,0.231115,0.0,0.0
672,167.75,35.2538,37.6454,145.601,99.2907,96.8713,0.00343326,0.0798715,20.9931,163.968,0.221408,0.0,0.0
674,168.25,35.5714,37.5433,143.96,99.2863,97.3453,0.00341433,0.0796819,20.9934,163.958,0.177196,0.0,0.0
676,168.75,35.3822,38.0553,144.424,99.283,96.9712,0.00338616,0.0794925,20.9936,163.958,0.211466,0.0,0.0
678,169.25,35.4162,37.7746,144.791,99.2875,96.6533,0.00335179,0.0793068,20.9938,163.958,0.241333,0.0,0.0
680,169.75,35.7621,37.504,146.556,99.2814,97.0368,0.00332396,0.0791564,20.994,163.968,0.205251,0.0,0.0
682,170.25,35.4496,37.5888,146.436,99.2593,96.9779,0.00328411,0.0790345,20.9941,163.968,0.20869,0.0,0.0
684,170.75,35.6997,37.4283,143.801,99.2552,96.958,0.00323625,0.0788132,20.9942,163.968,0.210167,0.0,0.0
686,171.25,35.6353,37.5087,144.803,99.2456,96.5695,0.00319044,0.0785981,20.9943,163.968,0.245328,0.0,0.0
688,171.75,35.0852,37.2355,145.179,99.2427,96.3681,0.00314699,0.0783916,20.9943,163.978,0.263816,0.0,0.0
690,172.25,35.7464,37.5227,143.716,99.2294,96.0803,0.0031118,0.0782243,20.9944,163.988,0.289456,0.0,0.0
692,172.75,35.409,37.6139,145.448,99.2335,96.5365,0.00308816,0.0780207,20.9949,163.988,0.247303,0.0,0.0
694,173.25,35.2741,37.1719,146.445,99.227,97.184,0.00306901,0.0778558,20.9953,163.978,0.186718,0.0,0.0
696,173.75,35.0225,37.4235,144.218,99.2214,96.972,0.00305837,0.0776649,20.9956,163.988,0.205812,0.0,0.0
698,174.25,35.5725,37.0014,146.727,99.2012,96.5941,0.00304975,0.0774586,20.9958,163.978,0.239037,0.0,0.0
700,174.75,35.6535,37.2419,143.87,99.2008,96.8243,0.00303912,0.0772916,20.996,163.968,0.217634,0.0,0.0
702,175.25,35.3931,36.8954,145.436,99.1875,96.3841,0.0030305,0.0770882,20.9962,163.958,0.257323,0.0,0.0
704,175.75,35.0895,37.0742,146.186,99.1783,96.2834,0.00301501,0.0769235,20.9963,163.958,0.265868,0.0,0.0
706,176.25,34.7486,37.6544,143.703,99.1642,95.9046,0.00300246,0.0768036,20.9964,163.958,0.299972,0.0,0.0
708,176.75,34.9892,37.4991,142.186,99.1621,96.3084,0.00299229,0.0767066,20.9965,163.958,0.262084,0.0,0.0
710,177.25,35.4259,37.5144,146.243,99.1452,96.5716,0.00296946,0.0766416,20.9966,163.948,0.236052,0.0,0.0
712,177.75,35.3328,37.1872,150.587,99.1416,96.7828,0.00295096,0.0765889,20.9967,163.968,0.216117,0.0,0.0
714,178.25,34.8353,36.8458,142.788,99.1464,96.856,0.00291652,0.0765319,20.9967,163.958,0.209768,0.0,0.0
716,178.75,35.2904,36.6301,140.195,99.123,96.6982,0.00288863,0.0764729,20.9967,163.968,0.222291,0.0,0.0
718,179.25,35.1743,36.8694,144.671,99.113,96.1065,0.00284294,0.0764107,20.9968,163.978,0.276465,0.0,0.0
720,179.75,35.1509,37.1191,145.182,99.0896,96.4506,0.00280594,0.0763475,20.9968,163.948,0.242272,0.0,0.0
722,180.25,35.2103,37.5796,146.372,99.0924,96.6453,0.00276017,0.0762962,20.9968,163.948,0.224429,0.0,0.0
724,180.75,35.0355,36.989,146.328,99.0819,97.366,0.0027231,0.0762684,20.9968,163.948,0.156794,0.0,0.0
726,181.25,35.214,36.8926,142.458,99.0856,96.4417,0.00268093,0.0762458,20.9968,163.938,0.242735,0.0,0.0
728,181.75,35.2693,37.461,145.334,99.0614,97.0291,0.00264678,0.0762275,20.9969,163.928,0.18604,0.0,0.0
730,182.25,35.2895,37.4677,140.992,99.0344,97.1946,0.00261847,0.0762127,20.9969,163.938,0.168301,0.0,0.0
732,182.75,35.2621,37.0883,145.393,99.0388,97.0296,0.00259497,0.076187,20.9969,163.938,0.183957,0.0,0.0
734,183.25,34.7371,36.9,141.579,99.0303,96.7528,0.00257593,0.0761663,20.9969,163.948,0.208829,0.0,0.0
736,183.75,34.7987,36.8719,145.022,99.036,96.7608,0.00256051,0.0761359,20.9969,163.928,0.208594,0.0,0.0
738,184.25,35.046,36.3577,141.647,99.0058,96.6656,0.00254681,0.0761112,20.9969,163.938,0.214691,0.0,0.0
740,184.75,35.0091,36.991,148.015,99.0106,97.0685,0.00253571,0.0760913,20.9973,163.928,0.177798,0.0,0.0
742,185.25,35.2296,36.4962,141.865,98.9929,96.6457,0.00251822,0.0760071,20.9977,163.928,0.215369,0.0,0.0
744,185.75,35.2146,36.6425,144.602,98.9921,96.6199,0.00250405,0.0759388,20.998,163.928,0.217694,0.0,0.0
746,186.25,34.506,36.2742,145.492,98.9828,96.5945,0.00249258,0.0758621,20.9982,163.908,0.219213,0.0,0.0
748,186.75,34.0928,36.1542,144.776,98.9917,96.9525,0.00248328,0.0757806,20.9984,163.918,0.186811,0.0,0.0
750,187.25,34.7989,36.2691,146.12,98.9602,96.5572,0.0024879,0.0756859,20.9986,163.908,0.220628,0.0,0.0
752,187.75,35.1714,36.356,143.557,98.9602,96.4722,0.00249163,0.0755835,20.9987,163.918,0.228539,0.0,0.0
754,188.25,34.7726,37.0145,143.77,98.9377,97.0935,0.00250801,0.0755005,20.9988,163.918,0.168875,0.0,0.0
756,188.75,35.3954,36.4558,145.622,98.9429,96.5556,0.00252128,0.075406,20.9989,163.888,0.219213,0.0,0.0
758,189.25,34.7004,36.8947,143.368,98.9252,96.1471,0.00253203,0.0753295,20.9989,163.888,0.255648,0.0,0.0
760,189.75,34.5393,36.6877,145.829,98.9288,96.7079,0.00254393,0.0752268,20.999,163.898,0.203782,0.0,0.0
762,190.25,34.9988,36.4464,146.141,98.9179,96.3744,0.00255645,0.0751435,20.999,163.898,0.2338,0.0,0.0
764,190.75,34.7953,36.3551,147.143,98.9107,96.5754,0.00256659,0.0750625,20.9998,163.888,0.214439,0.0,0.0
766,191.25,34.5978,36.6326,143.073,98.8877,96.8611,0.00257723,0.0749968,21.0003,163.888,0.185844,0.0,0.0
768,191.75,34.3886,36.4387,143.71,98.8889,96.2064,0.00258585,0.0749573,21.0008,163.908,0.246827,0.0,0.0
770,192.25,34.5213,36.301,143.889,98.8699,97.0283,0.00259283,0.0749252,21.0012,163.888,0.168757,0.0,0.0
772,192.75,34.7399,36.5148,145.338,98.8679,96.8125,0.00259849,0.0748992,21.0015,163.888,0.188563,0.0,0.0
774,193.25,34.7101,36.5477,146.263,98.855,96.7672,0.00260307,0.0748353,21.0017,163.888,0.191591,0.0,0.0
776,193.75,34.6103,36.3077,143.611,98.8728,96.7574,0.00261126,0.0747448,21.002,163.908,0.194104,0.0,0.0
778,194.25,34.8094,36.4184,150.573,98.8296,97.2187,0.00262192,0.0746715,21.0021,163.938,0.147499,0.0,0.0
780,194.75,34.7643,35.7089,141.365,98.8317,96.7346,0.00263375,0.0746121,21.0023,163.928,0.192492,0.0,0.0
782,195.25,34.3283,36.5757,145.882,98.8184,96.5005,0.00264621,0.074564,21.0024,163.918,0.213025,0.0,0.0
784,195.75,34.7411,36.4443,147.006,98.8043,96.3727,0.00265631,0.0745251,21.0024,163.918,0.22364,0.0,0.0
786,196.25,34.7047,36.1078,147.408,98.7922,96.7985,0.00266448,0.0744119,21.0025,163.928,0.182977,0.0,0.0
788,196.75,34.7479,36.4451,146.581,98.8099,96.4963,0.00266727,0.0743202,21.0026,163.908,0.212651,0.0,0.0
790,197.25,34.8453,36.1527,143.618,98.7732,97.027,0.00266607,0.0742031,21.0026,163.918,0.160091,0.0,0.0
792,197.75,34.6819,35.9686,144.478,98.7845,97.0939,0.0026651,0.0740695,21.0027,163.908,0.154933,0.0,0.0
794,198.25,34.4639,36.2018,141.455,98.7744,96.528,0.00264974,0.073947,21.0029,163.908,0.206476,0.0,0.0
796,198.75,34.7333,36.0811,142.555,98.7668,96.5077,0.0026373,0.0738349,21.0033,163.918,0.207669,0.0,0.0
798,199.25,34.393,36.4058,142.684,98.7571,96.6046,0.00261891,0.0737512,21.0037,163.918,0.197782,0.0,0.0
800,199.75,34.3641,36.5517,143.866,98.7519,96.0164,0.00259654,0.0736899,21.004,163.888,0.252128,0.0,0.0
802,200.25,34.1947,35.6971,143.578,98.7402,96.2932,0.00256819,0.0736402,21.0042,163.868,0.22523,0.0,0.0
804,200.75,34.5706,36.0158,148.685,98.7349,96.8383,0.00253604,0.0736,21.0044,163.898,0.174089,0.0,0.0
806,201.25,34.2956,36.2533,143.724,98.7382,97.2018,0.00250105,0.0735674,21.0045,163.868,0.140749,0.0,0.0
808,201.75,34.4744,36.0107,139.296,98.7241,95.8589,0.00246467,0.0735339,21.0046,163.868,0.264329,0.0,0.0
810,202.25,34.3747,36.0651,144.913,98.7144,95.8005,0.00243584,0.0735002,21.0047,163.878,0.268919,0.0,0.0
812,202.75,34.3671,35.7692,145.712,98.7071,96.6385,0.00241306,0.0734587,21.0048,163.868,0.190093,0.0,0.0
814,203.25,33.9912,35.9869,146.695,98.6983,96.5175,0.00239461,0.0734122,21.0049,163.878,0.200536,0.0,0.0
816,203.75,34.4023,35.6938,145.06,98.693,96.0185,0.00240636,0.0733673,21.0047,163.878,0.24658,0.0,0.0
818,204.25,34.155,35.5947,144.445,98.6821,96.3533,0.00241587,0.0733246,21.0043,163.878,0.214353,0.0,0.0
820,204.75,34.5484,35.9413,144.677,98.6757,96.6889,0.00242358,0.0732756,21.004,163.878,0.182558,0.0,0.0
822,205.25,34.4298,36.2828,151.106,98.6648,96.9212,0.00246139,0.0732231,21.0038,163.878,0.160027,0.0,0.0
824,205.75,34.3754,36.2628,145.583,98.6535,95.9317,0.00249202,0.0731805,21.0036,163.878,0.251101,0.0,0.0
826,206.25,34.399,36.2162,144.399,98.6483,95.9795,0.00252655,0.0731461,21.0035,163.878,0.246152,0.0,0.0
828,206.75,34.1593,35.8694,145.221,98.6434,96.1065,0.00255452,0.0731182,21.0033,163.868,0.233846,0.0,0.0
830,207.25,34.1137,35.6072,142.235,98.6306,96.9343,,0.0730956,,163.858,0.155695,0.0,0.0
832,207.75,34.2496,35.9819,140.866,98.6136,96.2792,,0.0730772,,163.868,0.21502,0.0,0.0
834,208.25,34.4401,35.7973,143.1,98.6152,96.4375,,0.0730624,,163.868,0.200424,0.0,0.0
836,208.75,34.758,35.952,145.999,98.6019,96.5103,,0.0730776,,163.878,0.192441,0.0,0.0
838,209.25,34.1132,35.9937,142.601,98.5959,96.2534,,0.0730899,,163.878,0.215814,0.0,0.0
840,209.75,34.0105,35.8657,144.218,98.5874,96.1222,,0.073107,,163.868,0.227286,0.0,0.0
842,210.25,33.5923,35.4004,143.013,98.5757,96.4828,,,,163.858,0.192615,0.0,0.0
844,210.75,34.409,36.0336,142.525,98.5701,96.4688,,,,163.868,0.193401,0.0,0.0
846,211.25,34.0763,35.5863,142.65,98.5669,96.6487,,,,163.858,0.176388,0.0,0.0
848,211.75,34.5046,35.6496,145.592,98.5568,96.443,,,,163.858,0.194592,0.0,0.0
850,212.25,34.3074,35.9277,143.524,98.5459,96.5716,,,,163.848,0.181635,0.0,0.0
852,212.75,34.6646,35.3164,142.011,98.535,96.5738,,,,163.848,0.180448,0.0,0.0
854,213.25,33.9235,35.5922,145.429,98.5322,96.7519,,,,163.838,0.163647,0.0,0.0
856,213.75,34.1849,35.6544,145.574,98.5246,96.9051,,,,163.848,0.148749,0.0,0.0
858,214.25,34.147,35.5658,143.199,98.5221,95.7523,,,,163.838,0.255945,0.0,0.0
860,214.75,33.785,35.778,148.067,98.5,95.616,,,,163.848,0.266708,0.0,0.0
862,215.25,34.1025,35.8007,145.57,98.5028,96.0485,,,,163.848,0.226456,0.0,0.0
864,215.75,34.2388,35.7591,145.652,98.4988,96.6343,,,,163.838,0.171522,0.0,0.0
866,216.25,34.1299,35.2872,144.78,98.4927,96.3008,,,,163.828,0.201997,0.0,0.0
868,216.75,34.1317,35.909,148.48,98.4895,96.6169,,,,163.828,0.172288,0.0,0.0
870,217.25,33.9723,35.1971,146.741,98.4685,97.1265,,,,163.828,0.123167,0.0,0.0
872,217.75,34.2401,35.33,145.862,98.4625,96.636,,,,163.828,0.168058,0.0,0.0