File: 01_Data/Roof_Felt/Cone/Roof_Felt_Underlayment_Cone_HF25Scan_220328_R1.csv
Names,Time,Stack TC,Smoke TC,Exh Press,Smoke Comp,Smoke Meas,CO Meter,CO2 Meter,O2 Meter,Sample Mass,Ext Coeff,Start Test,Flame Verif
Chan Gain,,500,500,1,1,1,1,1,1,1,1,1.0,1.0
Offset,,0,0,0.134123,0,0,0,0,0,0,0,0.0,0.0
Gain,,1,1,25.011,13.5775,14.0999,1,1,1,1.0009,1.03554,1.0,1.0
Units,sec,C,C,Pa,%,%,%,%,%,g,/m,,
Baseline,,17.3675,17.627,166.983,101.847,95.1097,0.000861312,0.0456891,21.0326,-834.37,0.621726,,
2,0.25,16.6987,17.1259,167.54,101.827,95.0572,0.000378109,0.0572105,21.0224,188.009,0.624891,0.0,0.0
4,0.75,16.8163,16.9987,169.121,101.84,94.9871,0.000365686,0.0565544,21.0236,188.119,0.632778,0.0,0.0
6,1.25,17.1576,17.0451,164.7,101.838,94.9105,0.000357551,0.055785,21.0245,188.069,0.639921,0.0,0.0
8,1.75,16.9984,17.602,167.286,101.819,95.0202,0.000352697,0.0549476,21.0257,188.009,0.627725,0.0,0.0
10,2.25,16.4551,16.0247,166.099,101.814,95.2689,0.000348766,0.0542694,21.0267,188.079,0.603537,0.0,0.0
12,2.75,16.4149,16.8984,165.697,101.813,95.0348,0.000333373,0.053542,21.0275,187.969,0.625809,0.0,0.0
14,3.25,15.7475,16.383,165.851,101.803,95.1226,0.000320905,0.0529528,21.0284,188.059,0.616535,0.0,0.0
16,3.75,15.5786,16.0895,166.307,101.794,95.0512,0.00030952,0.0523819,21.0286,187.999,0.622546,0.0,0.0
18,4.25,16.7319,16.776,167.243,101.793,95.0847,0.000299142,0.0518353,21.029,188.009,0.619264,0.0,0.0
20,4.75,16.5522,16.6935,168.787,101.774,94.9208,0.000295182,0.051342,21.0294,187.999,0.63324,0.0,0.0
22,5.25,16.3574,16.3863,165.806,101.774,94.9668,0.000295978,0.0508971,21.0298,187.979,0.628797,0.0,0.0
24,5.75,16.5832,16.4601,166.75,101.78,94.9255,0.000305621,0.0505368,21.0301,188.029,0.633303,0.0,0.0
26,6.25,16.4071,16.2231,166.077,101.758,94.7917,0.00032153,0.0501945,21.0304,187.999,0.644158,0.0,0.0
28,6.75,16.4654,16.3453,168.279,101.744,94.8704,0.000334416,0.0498719,21.0307,188.039,0.635358,0.0,0.0
30,7.25,15.9385,16.2517,169.856,101.732,94.855,0.0003545,0.0496253,21.0309,188.029,0.635805,0.0,0.0
32,7.75,16.0312,16.2608,169.734,101.723,94.9182,0.000379449,0.0494389,21.031,188.019,0.628936,0.0,0.0
34,8.25,16.7102,16.6814,166.746,101.718,94.9234,0.000397728,0.0493312,21.0311,188.049,0.627997,0.0,0.0
36,8.75,16.8929,16.6679,169.633,101.714,94.8674,0.000410798,0.0492827,21.0312,188.009,0.632982,0.0,0.0
38,9.25,16.3421,16.6993,160.742,101.708,94.9053,0.000413668,0.0492435,21.0313,187.999,0.628802,0.0,0.0
40,9.75,16.9094,17.1465,167.809,101.688,94.9341,0.000409048,0.0494307,21.0309,187.999,0.624266,0.0,0.0
42,10.25,16.9145,16.5664,163.377,101.673,95.0129,0.000398878,0.0495823,21.0306,187.979,0.615403,0.0,0.0
44,10.75,16.2438,16.6103,164.936,101.672,94.8834,0.000384856,0.0497051,21.0299,187.969,0.627683,0.0,0.0
46,11.25,16.7966,16.6157,165.369,101.645,94.8167,0.00037414,0.0501058,21.0294,187.959,0.631663,0.0,0.0
48,11.75,16.4348,16.7738,168.577,101.64,94.8012,0.000366039,0.0505818,21.0285,187.969,0.632741,0.0,0.0
50,12.25,16.8556,16.8009,169.036,101.626,95.0129,0.000359477,0.0511037,21.0278,187.959,0.611256,0.0,0.0
52,12.75,15.8293,16.8177,164.308,101.626,94.9053,0.000366375,0.0515263,21.0272,187.959,0.621546,0.0,0.0
54,13.25,16.3661,16.3463,167.373,101.601,94.9328,0.000371962,0.0521429,21.0267,187.949,0.616614,0.0,0.0
56,13.75,17.3326,16.673,164.799,101.583,95.2758,0.000376488,0.0526422,21.0263,187.949,0.582265,0.0,0.0
58,14.25,16.2574,16.4673,170.067,101.575,94.9462,0.000391149,0.053321,21.0258,187.939,0.613041,0.0,0.0
60,14.75,16.6583,17.2313,170.597,101.584,95.1265,0.000403025,0.0538708,21.0251,187.919,0.596623,0.0,0.0
62,15.25,16.823,16.8154,162.435,101.548,95.0469,0.000411408,0.0546181,21.0246,187.919,0.601005,0.0,0.0
64,15.75,16.5354,16.958,169.317,101.542,95.0688,0.000417086,0.0552234,21.024,187.919,0.598351,0.0,0.0
66,16.25,16.9876,16.866,174.872,101.527,94.8416,0.000422328,0.0559305,21.0235,187.939,0.618751,0.0,0.0
68,16.75,16.5282,16.9508,165.731,101.515,94.7263,0.000427153,0.0566984,21.0227,187.929,0.62869,0.0,0.0
70,17.25,16.4999,16.8586,165.319,101.502,94.5645,0.000436206,0.0573204,21.022,187.919,0.643069,0.0,0.0
72,17.75,16.3915,17.3536,165.206,101.479,94.4673,0.00044817,0.0579685,21.0215,187.929,0.650338,0.0,0.0
74,18.25,16.8331,16.6872,164.805,101.47,94.5159,0.000468156,0.0586233,21.0211,187.929,0.644885,0.0,0.0
76,18.75,16.4842,16.1512,165.464,101.442,94.5017,0.000493609,0.0592115,21.0203,187.929,0.643727,0.0,0.0
78,19.25,16.1086,16.814,166.062,101.424,94.4466,0.000525814,0.0597401,21.0196,187.929,0.647427,0.0,0.0
80,19.75,16.4805,16.7784,167.954,101.409,94.3115,0.000562329,0.0601972,21.0191,187.919,0.659132,0.0,0.0
82,20.25,16.8024,16.9437,167.979,101.382,94.083,0.000591907,0.0605935,21.0187,187.929,0.678753,0.0,0.0
84,20.75,16.5836,16.7827,175.346,101.361,94.3369,0.000626815,0.0609072,21.0183,187.919,0.652344,0.0,0.0
86,21.25,16.4502,15.9468,168.565,101.34,94.2547,0.000664947,0.0611549,21.0181,187.939,0.658366,0.0,0.0
88,21.75,16.5584,16.6435,167.362,101.314,94.296,0.000695834,0.0613554,21.0178,187.929,0.652046,0.0,0.0
90,22.25,16.6047,16.971,168.546,101.301,94.2104,0.000720852,0.0614079,21.0176,187.909,0.659147,0.0,0.0
92,22.75,16.4744,16.523,166.073,101.281,94.1432,0.000749688,0.0614504,21.0174,187.909,0.663875,0.0,0.0
94,23.25,16.7942,16.8596,168.386,101.259,94.0929,0.000773045,0.0614053,21.017,187.889,0.66669,0.0,0.0
96,23.75,16.3908,17.2343,165.994,101.248,94.1824,0.000788742,0.0612971,21.017,187.909,0.657087,0.0,0.0
98,24.25,16.3161,16.8846,167.652,101.221,93.8881,0.000798556,0.0612095,21.0171,187.909,0.683139,0.0,0.0
100,24.75,16.7914,17.4357,165.523,101.202,93.9836,0.000803928,0.0611385,21.0173,187.889,0.672191,0.0,0.0
102,25.25,16.7184,16.7306,168.983,101.18,93.802,0.00080596,0.0608337,21.0174,187.889,0.68775,0.0,0.0
104,25.75,16.5425,17.4118,167.646,101.152,93.7117,0.000804385,0.0605868,21.0175,187.889,0.694049,0.0,0.0
106,26.25,16.7939,16.9945,164.914,101.133,93.8674,0.000800209,0.060222,21.0176,187.899,0.677214,0.0,0.0
108,26.75,17.0012,17.2094,166.17,101.106,93.8855,0.000796827,0.0599266,21.0176,187.899,0.673009,0.0,0.0
110,27.25,16.6672,17.1247,165.577,101.1,93.8055,0.000785521,0.0596005,21.0177,187.889,0.680234,0.0,0.0
112,27.75,16.738,16.9128,164.194,101.063,93.623,0.000776363,0.0592584,21.0177,187.879,0.694641,0.0,0.0
114,28.25,16.6611,16.7341,167.791,101.046,93.6334,0.000768945,0.0589813,21.0177,187.879,0.692113,0.0,0.0
116,28.75,16.2894,16.6816,168.035,101.017,93.3709,0.000793541,0.0588941,21.0164,187.869,0.71493,0.0,0.0
118,29.25,16.7134,16.8092,166.428,101.003,93.3993,0.000813464,0.0588235,21.0154,187.879,0.710975,0.0,0.0
120,29.75,16.6843,17.2253,166.047,100.97,92.7883,0.000919113,0.0598797,21.0127,187.869,0.767614,0.0,0.0
122,30.25,16.567,17.333,163.068,100.955,93.2672,0.00100469,0.0607353,21.0088,187.859,0.719508,0.0,0.0
124,30.75,16.5018,16.3665,164.236,100.924,93.3244,0.00126973,0.0635672,21.0017,187.708,0.71114,0.0,1.0
126,31.25,16.3596,17.2167,167.078,100.913,92.5856,0.0014844,0.0677862,20.9925,187.758,0.782368,0.0,1.0
128,31.75,17.035,16.7948,159.979,100.908,89.842,0.00191465,0.0712035,20.9747,187.718,1.05516,0.0,1.0
130,32.25,16.8188,16.568,160.732,100.889,87.3424,0.00242008,0.0816115,20.9512,187.818,1.30972,0.0,1.0
132,32.75,17.1321,16.9802,158.58,100.848,85.1738,0.00297071,0.090042,20.9149,187.638,1.53445,0.0,1.0
134,33.25,16.8418,17.2308,159.845,100.826,82.6634,0.00360614,0.106297,20.8855,187.688,1.80422,0.0,1.0
136,33.75,16.8699,17.4777,152.754,100.809,80.6918,0.00429131,0.119464,20.8526,187.628,2.0219,0.0,1.0
138,34.25,17.3804,17.7389,153.908,100.78,79.9027,0.00458341,0.140482,20.8343,187.588,2.10863,0.0,1.0
140,34.75,17.7475,17.3874,150.274,100.763,77.0322,0.00508289,0.157506,20.803,187.588,2.43944,0.0,1.0
142,35.25,16.4016,16.9863,148.322,100.741,76.7757,0.00587838,0.182736,20.768,187.438,2.46771,0.0,1.0
144,35.75,16.9134,17.4357,142.762,100.729,75.3342,0.00687452,0.203171,20.7308,187.458,2.6388,0.0,0.0
146,36.25,18.2501,17.8174,145.602,100.704,73.9538,0.0081127,0.231022,20.7006,187.348,2.80451,0.0,0.0
148,36.75,18.3774,18.9357,145.84,100.673,72.6307,0.00911563,0.25358,20.6587,187.328,2.96577,0.0,0.0
150,37.25,19.1269,19.1784,147.153,100.661,72.024,0.0101304,0.263197,20.6248,187.248,3.04089,0.0,0.0
152,37.75,19.0945,19.554,140.549,100.631,72.1139,0.0111346,0.29571,20.577,187.158,3.02682,0.0,0.0
154,38.25,19.522,19.951,138.231,100.614,70.1238,0.0120959,0.322045,20.5383,187.128,3.27949,0.0,0.0
156,38.75,20.1544,20.5695,138.925,100.594,69.6388,0.0130076,0.351483,20.4845,187.008,3.34073,0.0,0.0
158,39.25,20.9754,21.1237,138.84,100.579,70.4375,0.0138655,0.382624,20.4409,186.928,3.23577,0.0,0.0
160,39.75,21.5696,21.9721,134.177,100.567,68.0605,0.0146679,0.412945,20.3941,186.808,3.54654,0.0,0.0
162,40.25,22.1634,21.9456,140.504,100.559,68.9796,0.015409,0.442092,20.3562,186.748,3.42391,0.0,0.0
164,40.75,22.6055,23.0605,135.984,100.531,70.135,0.0160915,0.469818,20.3158,186.667,3.27048,0.0,0.0
166,41.25,23.0415,23.2213,139.205,100.533,69.5588,0.0166443,0.495981,20.2831,186.547,3.3456,0.0,0.0
168,41.75,24.2052,24.406,140.517,100.531,69.9211,0.0171816,0.521108,20.2566,186.477,3.29822,0.0,0.0
170,42.25,24.976,24.9866,136.554,100.505,70.1135,0.0176973,0.545002,20.2263,186.347,3.27098,0.0,0.0
172,42.75,25.3275,25.8401,135.905,100.497,72.3901,0.0181709,0.564356,20.2017,186.267,2.97993,0.0,0.0
174,43.25,26.4441,25.9242,130.136,100.479,71.6031,0.0186047,0.586683,20.1774,186.177,3.07761,0.0,0.0
176,43.75,26.3295,27.1413,129.417,100.462,70.7701,0.0190079,0.604767,20.1578,186.087,3.18238,0.0,0.0
178,44.25,26.5845,27.9587,129.019,100.46,70.7292,0.019381,0.623716,20.1418,185.977,3.18748,0.0,0.0
180,44.75,27.9485,29.0085,128.278,100.447,68.0666,0.0196833,0.639065,20.1289,185.907,3.53488,0.0,0.0
182,45.25,28.238,29.1412,131.739,100.444,68.2309,0.0199281,0.651498,20.1185,185.807,3.51271,0.0,0.0
184,45.75,29.0064,29.9437,138.792,100.432,70.0829,0.0201868,0.661301,20.11,185.717,3.26835,0.0,0.0
186,46.25,29.7949,30.0186,137.957,100.421,68.5033,0.0204507,0.668081,20.1065,185.657,3.47442,0.0,0.0
188,46.75,30.0703,30.9557,133.486,100.413,67.8733,0.0206459,0.672527,20.1036,185.566,3.55759,0.0,0.0
190,47.25,30.77,31.8767,134.536,100.409,68.9504,0.0207875,0.676128,20.1055,185.466,3.4142,0.0,0.0
192,47.75,31.1876,32.5873,136.932,100.404,65.5347,0.0207754,0.679045,20.1094,185.406,3.87527,0.0,0.0
194,48.25,31.6739,32.9608,144.209,100.393,65.8583,0.0207655,0.675998,20.1146,185.306,3.82959,0.0,0.0
196,48.75,32.1647,33.3536,139.174,100.387,64.6844,0.0207576,0.67353,20.1188,185.276,3.9924,0.0,0.0
198,49.25,32.6724,33.5482,135.467,100.388,65.2597,0.0204693,0.667955,20.1302,185.166,3.91204,0.0,0.0
200,49.75,32.8149,34.5968,134.312,100.391,64.3733,0.0202358,0.660223,20.1465,185.146,4.03656,0.0,0.0
202,50.25,33.4543,34.7644,143.453,100.373,67.2968,0.0198079,0.650364,20.1648,185.056,3.63152,0.0,0.0
204,50.75,33.9067,35.1341,144.249,100.368,65.3105,0.0194613,0.639143,20.1842,185.046,3.90317,0.0,0.0
206,51.25,33.7937,35.6156,143.989,100.369,67.5579,0.0189842,0.630054,20.2043,184.976,3.59592,0.0,0.0
208,51.75,34.9945,36.2745,144.21,100.356,63.6513,0.0185978,0.614708,20.2246,184.946,4.1358,0.0,0.0
210,52.25,34.7353,36.7676,144.568,100.364,65.459,0.0181196,0.602278,20.2464,184.906,3.88217,0.0,0.0
212,52.75,34.9955,36.5126,144.61,100.354,65.9968,0.0177323,0.588081,20.2689,184.856,3.8069,0.0,0.0
214,53.25,35.3491,37.1789,144.834,100.356,66.9202,0.0172803,0.572866,20.2908,184.826,3.68087,0.0,0.0
216,53.75,35.8754,37.2243,144.266,100.352,67.4925,0.0169143,0.555086,20.3119,184.756,3.60322,0.0,0.0
218,54.25,36.1585,37.34,143.897,100.348,65.7107,0.0164879,0.540685,20.3289,184.716,3.84588,0.0,0.0
220,54.75,36.4864,37.8869,144.816,100.349,65.2602,0.0161425,0.526689,20.3481,184.686,3.90842,0.0,0.0
222,55.25,36.399,38.5313,146.506,100.339,65.3531,0.0158627,0.513256,20.3636,184.656,3.89459,0.0,0.0
224,55.75,36.492,38.4214,149.59,100.345,65.6427,0.0154362,0.49881,20.3787,184.616,3.85499,0.0,0.0
226,56.25,36.8312,38.732,146.467,100.337,64.6238,0.0150907,0.487108,20.3932,184.596,3.99642,0.0,0.0
228,56.75,36.6056,38.3991,147.059,100.345,65.1449,0.0147266,0.473957,20.405,184.546,3.92418,0.0,0.0
230,57.25,36.601,39.2507,149.371,100.342,64.2077,0.0143559,0.463304,20.4198,184.486,4.05551,0.0,0.0
232,57.75,37.0914,39.1209,146.005,100.337,68.0399,0.0139656,0.454675,20.4319,184.455,3.5285,0.0,0.0
234,58.25,37.2168,39.2714,149.839,100.329,67.4413,0.0135684,0.442649,20.4484,184.435,3.60802,0.0,0.0
236,58.75,37.8558,39.5297,147.946,100.335,68.9637,0.0131544,0.432908,20.4618,184.385,3.40577,0.0,0.0
238,59.25,37.7233,40.0656,146.765,100.331,67.4783,0.0125575,0.422087,20.4917,184.345,3.60318,0.0,0.0
240,59.75,37.5934,39.7845,147.059,100.326,69.5472,0.012305,0.410683,20.4998,184.315,3.32845,0.0,0.0
242,60.25,38.1526,40.1076,151.762,100.331,70.5184,0.0118732,0.401446,20.5224,184.315,3.2029,0.0,0.0
244,60.75,37.772,39.6844,152.769,100.335,70.4018,0.0114332,0.38913,20.5407,184.265,3.2183,0.0,0.0
246,61.25,38.3528,39.9369,158.187,100.323,72.2012,0.0109957,0.379154,20.5626,184.245,2.98795,0.0,0.0
248,61.75,38.2987,40.3456,153.176,100.327,73.7314,0.0106413,0.366877,20.5803,184.235,2.7978,0.0,0.0
250,62.25,38.4732,40.2652,155.919,100.325,74.8828,0.0102391,0.349264,20.5947,184.195,2.65692,0.0,0.0
252,62.75,38.0338,39.8294,156.997,100.324,75.3368,0.00980957,0.343986,20.6116,184.155,2.60187,0.0,0.0
254,63.25,38.0806,40.5276,157.951,100.326,76.3398,0.00938701,0.333089,20.6253,184.155,2.48195,0.0,0.0
256,63.75,38.2554,40.3987,155.63,100.325,77.4457,0.00897753,0.322576,20.6417,184.125,2.35124,0.0,0.0
258,64.25,37.9018,40.2781,156.587,100.313,79.0076,0.00857013,0.314061,20.658,184.115,2.16877,0.0,0.0
260,64.75,37.9985,40.1289,160.135,100.328,80.6221,0.00817199,0.303142,20.6739,184.105,1.98637,0.0,0.0
262,65.25,38.1312,39.8838,158.802,100.327,81.2895,0.00776745,0.294299,20.6868,184.065,1.91141,0.0,0.0
264,65.75,37.9735,40.2008,161.037,100.328,82.3781,0.00736594,0.285247,20.7035,184.075,1.79064,0.0,0.0
266,66.25,38.0851,39.942,161.687,100.327,82.1268,0.00697874,0.276214,20.717,184.025,1.81825,0.0,0.0
268,66.75,37.7701,39.8267,161.29,100.318,83.6066,0.00660933,0.267583,20.7279,184.025,1.65521,0.0,0.0
270,67.25,37.7903,39.6147,159.365,100.319,84.1497,0.00631011,0.259409,20.7386,184.005,1.59651,0.0,0.0
272,67.75,37.6412,40.0657,154.876,100.333,84.6174,0.00606774,0.251554,20.7489,183.995,1.54747,0.0,0.0
274,68.25,37.3639,39.664,161.676,100.319,85.2499,0.00571166,0.24408,20.7578,183.985,1.47855,0.0,0.0
276,68.75,37.4821,39.5228,161.157,100.325,85.3842,0.00542324,0.238027,20.7655,183.975,1.46482,0.0,0.0
278,69.25,37.1066,39.5367,155.883,100.322,86.339,0.00518962,0.231211,20.7717,183.975,1.36346,0.0,0.0
280,69.75,36.889,39.1748,157.842,100.327,86.8614,0.00490833,0.22569,20.7783,183.965,1.30916,0.0,0.0
282,70.25,37.2923,39.39,160.879,100.306,87.5468,0.00468049,0.221218,20.7852,183.925,1.23584,0.0,0.0
284,70.75,37.2737,39.8644,164.064,100.325,88.2573,0.00445868,0.216017,20.7926,183.925,1.16415,0.0,0.0
286,71.25,36.214,38.2144,155.833,100.32,88.3777,0.00427902,0.210381,20.8003,183.905,1.15127,0.0,0.0
288,71.75,36.3677,38.119,158.927,100.322,88.9664,0.00411984,0.204718,20.8086,183.875,1.0912,0.0,0.0
290,72.25,37.0685,38.735,156.991,100.317,89.2121,0.00399091,0.199143,20.8172,183.875,1.0657,0.0,0.0
292,72.75,37.1399,38.9925,160.805,100.33,90.2981,0.00388151,0.194627,20.8263,183.875,0.95698,0.0,0.0
294,73.25,36.7349,39.0439,163.033,100.33,90.2728,0.00379289,0.188866,20.8355,183.885,0.959535,0.0,0.0
296,73.75,36.5924,39.0938,162.681,100.325,90.8532,0.00372608,0.184199,20.8447,183.875,0.900788,0.0,0.0
298,74.25,36.4637,38.6435,159.754,100.319,90.5223,0.00368045,0.17902,20.8522,183.875,0.933406,0.0,0.0
300,74.75,36.5773,38.6332,160.005,100.345,91.2487,0.00365113,0.174825,20.86,183.885,0.863175,0.0,0.0
302,75.25,36.2405,38.2346,160.965,100.334,91.0765,0.00362739,0.170134,20.8664,183.875,0.879349,0.0,0.0
304,75.75,36.2253,38.6216,162.93,100.333,91.6174,0.00362776,0.166334,20.8715,183.875,0.825451,0.0,0.0
306,76.25,36.1055,38.1058,163.046,100.33,91.3007,0.00364571,0.162083,20.877,183.865,0.856679,0.0,0.0
308,76.75,35.6005,37.9088,162.218,100.341,91.7452,0.00366025,0.158639,20.8814,183.845,0.813539,0.0,0.0
310,77.25,35.3895,37.5655,163.217,100.341,91.7908,0.00371306,0.154764,20.886,183.835,0.809024,0.0,0.0
312,77.75,35.6688,37.5863,158.415,100.35,91.4453,0.00375583,0.151626,20.8905,183.835,0.844108,0.0,0.0
314,78.25,35.683,37.5215,168.741,100.338,92.1557,0.00384159,0.148003,20.8947,183.825,0.772724,0.0,0.0
316,78.75,35.2342,37.6223,162.357,100.356,92.2302,0.00391106,0.145068,20.8987,183.815,0.766964,0.0,0.0
318,79.25,35.0503,37.1359,163.967,100.345,92.1019,0.00401843,0.142691,20.9026,183.815,0.778664,0.0,0.0
320,79.75,34.9083,36.5913,164.407,100.354,92.1196,0.0041054,0.139616,20.9065,183.805,0.777713,0.0,0.0
322,80.25,34.6733,36.7252,165,100.355,92.392,0.00423825,0.137126,20.9095,183.815,0.750969,0.0,0.0
324,80.75,35.3727,37.3086,162.917,100.363,92.5593,0.00434587,0.134654,20.9134,183.805,0.735276,0.0,0.0
326,81.25,34.9174,36.8467,163.549,100.352,92.1187,0.00449555,0.132243,20.9165,183.785,0.777647,0.0,0.0
328,81.75,34.896,37.0864,164.61,100.36,92.6686,0.00461679,0.129654,20.919,183.775,0.724257,0.0,0.0
330,82.25,34.2295,36.2345,162.962,100.366,92.4152,0.004715,0.127558,20.9223,183.765,0.749734,0.0,0.0
332,82.75,33.863,36.5062,160.76,100.366,92.4453,0.00486343,0.125352,20.9251,183.775,0.746773,0.0,0.0
334,83.25,34.2179,36.3111,160.789,100.361,92.401,0.00498366,0.123565,20.9275,183.775,0.750681,0.0,0.0
336,83.75,33.5135,36.0083,162.662,100.365,92.5189,0.0051262,0.121724,20.9297,183.755,0.739397,0.0,0.0
338,84.25,33.6535,35.5775,164.638,100.373,92.4191,0.00524166,0.120232,20.9321,183.755,0.749917,0.0,0.0
340,84.75,33.5902,35.4233,162.311,100.375,92.5103,0.00535831,0.118639,20.9348,183.745,0.741141,0.0,0.0
342,85.25,33.7261,35.3661,163.368,100.371,92.8588,0.00547362,0.117003,20.9371,183.715,0.706683,0.0,0.0
344,85.75,33.8458,35.5138,159.883,100.38,92.8162,0.00562864,0.115677,20.9392,183.715,0.711601,0.0,0.0
346,86.25,33.5659,35.3317,162.042,100.383,92.9935,0.0057542,0.114084,20.941,183.695,0.69453,0.0,0.0
348,86.75,32.8641,34.9554,161.727,100.39,92.725,0.00589569,0.112794,20.9428,183.715,0.721508,0.0,0.0
350,87.25,32.9752,34.818,161.788,100.392,92.9548,0.0060461,0.11144,20.9443,183.715,0.699176,0.0,0.0
352,87.75,33.2264,35.3469,162.994,100.395,92.7973,0.00616793,0.110344,20.9459,183.725,0.714805,0.0,0.0
354,88.25,32.7669,34.9628,164.674,100.394,93.0469,0.00632845,0.109092,20.9472,183.705,0.69037,0.0,0.0
356,88.75,32.9186,34.4733,159.718,100.397,92.8399,0.00645847,0.108077,20.9483,183.705,0.71086,0.0,0.0
358,89.25,32.6876,34.5143,162.942,100.405,93.1312,0.00656379,0.107071,20.9496,183.695,0.683077,0.0,0.0
360,89.75,32.2916,34.5783,162.029,100.406,93.1506,0.00668448,0.106091,20.9507,183.685,0.681339,0.0,0.0
362,90.25,32.5204,34.2789,160.975,100.416,93.2568,0.00673593,0.105164,20.9511,183.685,0.671879,0.0,0.0
364,90.75,31.93,33.9196,160.478,100.424,93.6428,0.00682391,0.104294,20.9522,183.675,0.635036,0.0,0.0
366,91.25,32.0085,34.0385,160.889,100.424,93.2426,0.00689517,0.10359,20.9532,183.665,0.673938,0.0,0.0
368,91.75,31.6576,33.6402,166.812,100.432,93.5352,0.00696428,0.102798,20.954,183.645,0.646264,0.0,0.0
370,92.25,31.3431,33.4042,159.26,100.436,93.6613,0.00702225,0.101959,20.9547,183.655,0.634365,0.0,0.0
372,92.75,31.6931,33.315,166.741,100.447,93.552,0.007071,0.101279,20.9557,183.635,0.645984,0.0,0.0
374,93.25,31.2224,33.0639,167.635,100.446,93.4139,0.00711049,0.100989,20.9569,183.625,0.65933,0.0,0.0
376,93.75,31.251,33.2463,162.557,100.466,93.3029,0.00715512,0.100493,20.9583,183.625,0.671931,0.0,0.0
378,94.25,31.1015,32.6195,163.965,100.465,93.3859,0.00719128,0.099547,20.9599,183.625,0.663737,0.0,0.0
380,94.75,30.7491,33.057,160.34,100.476,93.5374,0.00724461,0.0987808,20.9617,183.625,0.650026,0.0,0.0
382,95.25,31.2762,33.4888,167.989,100.475,93.3958,0.0072878,0.0978674,20.9635,183.595,0.663711,0.0,0.0
384,95.75,30.7661,32.8939,167.708,100.492,93.3111,0.00733798,0.0971275,20.965,183.595,0.67342,0.0,0.0
386,96.25,30.9195,32.5295,163.433,100.488,93.2267,0.00737863,0.0962217,20.9662,183.595,0.681296,0.0,0.0
388,96.75,30.1485,32.3081,161.073,100.496,93.3003,0.00741155,0.095488,20.9672,183.595,0.674842,0.0,0.0
390,97.25,30.3593,32.9034,168.078,100.492,93.4647,0.00745596,0.0946152,20.9682,183.585,0.658478,0.0,0.0
392,97.75,30.1806,32.5418,166.765,100.509,93.2977,0.00749192,0.0939082,20.9693,183.575,0.676291,0.0,0.0
394,98.25,29.9963,32.5635,163.726,100.504,93.3829,0.00752839,0.0931547,20.9701,183.575,0.667551,0.0,0.0
396,98.75,29.7633,31.7929,166.853,100.513,93.3687,0.00756453,0.0925443,20.9708,183.575,0.669718,0.0,0.0
398,99.25,30.1703,32.1663,166.292,100.5,93.4298,0.00760114,0.0919401,20.9714,183.565,0.662652,0.0,0.0
400,99.75,29.7824,31.9155,168.912,100.508,93.5537,0.0076374,0.0913519,20.9722,183.565,0.651286,0.0,0.0
402,100.25,29.9055,32.3382,165.056,100.51,93.3278,0.00766678,0.0908754,20.973,183.555,0.673471,0.0,0.0
404,100.75,29.7594,31.623,164.773,100.514,93.4186,0.00770451,0.0903651,20.9738,183.575,0.665014,0.0,0.0
406,101.25,28.2538,30.5186,164.938,100.525,93.5783,0.00773508,0.0898398,20.9747,183.555,0.65044,0.0,0.0
408,101.75,28.9553,30.3702,165.878,100.513,93.4969,0.00778141,0.0894143,20.9756,183.555,0.65729,0.0,0.0
410,102.25,29.2901,31.5663,165.296,100.523,93.7022,0.00781894,0.088889,20.9766,183.555,0.638269,0.0,0.0
412,102.75,29.2367,31.2612,168.69,100.522,93.5895,0.00787853,0.0884635,20.9773,183.565,0.649129,0.0,0.0
414,103.25,28.6384,30.5034,165.175,100.523,93.4677,0.0079268,0.0879521,20.978,183.555,0.660994,0.0,0.0
416,103.75,29.1905,31.1102,165.922,100.527,93.5374,0.00797726,0.087538,20.9785,183.535,0.654596,0.0,0.0
418,104.25,29.2628,31.1632,164.952,100.516,93.3605,0.00802836,0.0870497,20.9789,183.525,0.670851,0.0,0.0
420,104.75,28.7495,30.8459,162.474,100.527,93.4965,0.00806642,0.0866543,20.9792,183.525,0.658604,0.0,0.0
422,105.25,28.0211,29.5093,163.694,100.543,93.7362,0.00809423,0.0862785,20.9795,183.515,0.636808,0.0,0.0
424,105.75,27.607,29.8449,161.339,100.529,93.4806,0.00810606,0.085974,20.9797,183.495,0.660338,0.0,0.0
426,106.25,28.6029,30.6121,165.841,100.534,93.444,0.00810602,0.0857055,20.9804,183.485,0.664342,0.0,0.0
428,106.75,28.0669,29.6327,163.433,100.531,93.5895,0.00810599,0.0854683,20.9809,183.465,0.649953,0.0,0.0
430,107.25,28.2011,30.1465,163.88,100.534,93.6024,0.00809707,0.0852762,20.9813,183.455,0.648924,0.0,0.0
432,107.75,28.6491,30.315,168.13,100.525,93.469,0.00808985,0.0850511,20.9816,183.425,0.661055,0.0,0.0
434,108.25,27.3827,29.1351,164.472,100.522,93.6037,0.00808654,0.0848689,20.9819,183.455,0.647714,0.0,0.0
436,108.75,27.6174,29.2131,168.082,100.522,93.5869,0.00808386,0.0846657,20.9821,183.465,0.649342,0.0,0.0
438,109.25,27.3808,29.2771,167.825,100.523,93.5542,0.00808971,0.0845012,20.9823,183.465,0.652593,0.0,0.0
440,109.75,27.8724,29.7018,165.716,100.515,93.7861,0.00810166,0.0842708,20.9824,183.475,0.629426,0.0,0.0
442,110.25,28.0665,29.5861,163.461,100.517,93.6312,0.00810676,0.0840842,20.9825,183.475,0.644592,0.0,0.0
444,110.75,27.6757,29.3897,163.444,100.514,93.5774,0.00811548,0.0838637,20.9826,183.505,0.64955,0.0,0.0
446,111.25,27.7226,29.7369,165.468,100.509,93.4096,0.00814794,0.0836851,20.9826,183.505,0.665406,0.0,0.0
448,111.75,27.1738,28.7938,165.462,100.507,93.5516,0.00817826,0.0835258,20.9827,183.505,0.651457,0.0,0.0
450,112.25,27.5277,29.3095,164.219,100.523,93.5133,0.00820642,0.0833836,20.9828,183.505,0.656562,0.0,0.0
452,112.75,27.5952,28.9787,160.579,100.494,93.5258,0.00822589,0.0832685,20.9828,183.495,0.652729,0.0,0.0
454,113.25,27.3835,28.8122,166.838,100.517,93.5434,0.00823865,0.0831683,20.9828,183.495,0.65315,0.0,0.0
456,113.75,26.6361,28.321,165.722,100.507,93.7186,0.00824899,0.082997,20.9829,183.475,0.635223,0.0,0.0
458,114.25,26.9605,28.1292,165.209,100.518,93.6015,0.00825736,0.0828583,20.9829,183.495,0.647586,0.0,0.0
460,114.75,26.6965,28.2504,170.371,100.494,93.7784,0.00824762,0.0826627,20.9827,183.485,0.62823,0.0,0.0
462,115.25,26.6518,28.1263,165.585,100.506,93.5839,0.00823973,0.0825043,20.9825,183.505,0.648212,0.0,0.0
464,115.75,26.4018,28.072,165.409,100.485,93.6432,0.00822064,0.0823482,20.9823,183.495,0.64054,0.0,0.0
466,116.25,25.9865,27.1608,169.556,100.492,93.7741,0.00820518,0.0822218,20.9822,183.475,0.628534,0.0,0.0
468,116.75,25.4307,27.5163,166.322,100.489,93.7444,0.00817615,0.0821194,20.9823,183.465,0.631111,0.0,0.0
470,117.25,26.2056,27.7693,165.209,100.493,93.5615,0.00815264,0.0819395,20.9826,183.455,0.649186,0.0,0.0
472,117.75,25.8563,27.7575,167.801,100.485,93.4711,0.00813359,0.0817937,20.9829,183.435,0.657213,0.0,0.0
474,118.25,25.6773,27.2913,163.824,100.511,93.4974,0.00810928,0.0816064,20.9831,183.445,0.657023,0.0,0.0
476,118.75,25.3905,27.9586,163.438,100.471,93.8278,0.00808958,0.0814546,20.9832,183.465,0.621378,0.0,0.0
478,119.25,25.7686,27.9148,167.876,100.485,93.7624,0.00808165,0.0812901,20.9834,183.465,0.628947,0.0,0.0
480,119.75,24.4459,27.5444,163.816,100.475,94.0292,0.00808244,0.0811569,20.9835,183.455,0.60224,0.0,0.0
482,120.25,25.7021,27.2982,165.314,100.48,93.7087,0.00809106,0.0810125,20.9836,183.455,0.633711,0.0,0.0
484,120.75,25.2928,26.9676,164.351,100.466,93.6497,0.00810523,0.0808627,20.9843,183.425,0.63819,0.0,0.0
486,121.25,25.2656,26.3097,164.023,100.465,93.9569,0.00812406,0.0807414,20.9848,183.445,0.608401,0.0,0.0
488,121.75,25.5114,26.9121,162.278,100.462,93.6759,0.00814593,0.0806651,20.9852,183.435,0.635309,0.0,0.0
490,122.25,25.3818,26.6322,165.431,100.463,93.5292,0.00817167,0.0806229,20.9856,183.415,0.649585,0.0,0.0
492,122.75,25.4443,27.095,164.556,100.442,93.5705,0.00819975,0.0805887,20.9859,183.395,0.643738,0.0,0.0
494,123.25,24.9805,26.9404,164.295,100.451,93.4324,0.00822516,0.080548,20.9861,183.395,0.657943,0.0,0.0
496,123.75,25.3601,26.52,171.162,100.446,93.842,0.00824816,0.0804786,20.9863,183.385,0.617792,0.0,0.0
498,124.25,24.8591,26.2259,162.738,100.445,93.5976,0.00826679,0.0803895,20.9865,183.385,0.641332,0.0,0.0
500,124.75,24.9196,26.3735,166.209,100.441,93.7061,0.00827385,0.0803174,20.9866,183.365,0.630477,0.0,0.0
502,125.25,25.0589,26.7598,159.251,100.444,93.6691,0.00827234,0.080259,20.9867,183.385,0.634365,0.0,0.0
504,125.75,24.7203,26.2577,164.498,100.427,93.4277,0.00825976,0.0802117,20.987,183.375,0.656267,0.0,0.0
506,126.25,24.6532,26.9465,165.432,100.439,93.7276,0.00823933,0.0801872,20.9875,183.375,0.628241,0.0,0.0
508,126.75,24.4559,26.5614,163.243,100.443,93.5469,0.00820809,0.0801674,20.9879,183.365,0.64611,0.0,0.0
510,127.25,24.3548,26.2044,168.537,100.434,93.537,0.00816955,0.0801375,20.9882,183.375,0.64621,0.0,0.0
512,127.75,24.1862,25.6729,170.161,100.428,93.5202,0.00811042,0.0801132,20.9884,183.375,0.647352,0.0,0.0
514,128.25,24.2579,25.8261,165.598,100.42,93.3644,0.00806253,0.080079,20.9886,183.365,0.661782,0.0,0.0
516,128.75,24.3981,25.4264,162.927,100.417,93.5834,0.00801039,0.0800382,20.9888,183.344,0.640199,0.0,0.0
518,129.25,24.5425,26.3408,164,100.412,93.6897,0.00795615,0.0799979,20.9889,183.334,0.629401,0.0,0.0
520,129.75,24.277,25.6203,171.236,100.419,93.4789,0.00791221,0.0799586,20.989,183.344,0.65054,0.0,0.0
522,130.25,24.0294,25.7754,167.676,100.419,93.4711,0.00786149,0.079956,20.9891,183.344,0.651332,0.0,0.0
524,130.75,24.3108,25.7189,165.313,100.41,93.6488,0.0078204,0.0799801,20.9892,183.344,0.633215,0.0,0.0
526,131.25,24.0439,25.9181,168.092,100.431,93.62,0.00778712,0.0800069,20.9892,183.344,0.637886,0.0,0.0
528,131.75,24.3926,25.415,167.6,100.404,93.5744,0.00775383,0.0800352,20.9892,183.355,0.639914,0.0,0.0
530,132.25,24.0398,25.3654,164.772,100.403,93.4096,0.00772686,0.0800581,20.9891,183.334,0.655813,0.0,0.0
532,132.75,24.2775,25.6572,164.058,100.409,93.4733,0.00770249,0.0800628,20.989,183.334,0.650185,0.0,0.0
534,133.25,23.6172,25.4332,168.933,100.412,93.5899,0.00768274,0.0800666,20.9889,183.334,0.63916,0.0,0.0
536,133.75,23.6454,26.1649,164.084,100.399,93.4204,0.00766169,0.0800693,20.9889,183.324,0.654392,0.0,0.0
538,134.25,23.5531,24.9156,161.717,100.397,93.4754,0.00764463,0.080071,20.9888,183.324,0.648889,0.0,0.0
540,134.75,23.8438,24.6948,165.79,100.392,93.5322,0.00762448,0.0800724,20.9888,183.314,0.642883,0.0,0.0
542,135.25,23.5653,25.3119,165.848,100.386,93.5103,0.00760816,0.080059,20.9887,183.304,0.644528,0.0,0.0
544,135.75,24.024,25.3333,164.403,100.4,93.8063,0.00759621,0.080035,20.9887,183.314,0.617016,0.0,0.0
546,136.25,22.0903,23.763,165.757,100.381,93.6028,0.00758653,0.0800083,20.9887,183.294,0.635058,0.0,0.0
548,136.75,22.4079,24.1902,162.475,100.39,93.407,0.00757868,0.07998,20.9887,183.304,0.654939,0.0,0.0
550,137.25,23.6904,24.8855,164.622,100.374,93.6605,0.0075964,0.0799718,20.9886,183.304,0.628826,0.0,0.0
552,137.75,23.2968,24.2657,164.88,100.373,93.6105,0.00761075,0.0799782,20.9886,183.294,0.63363,0.0,0.0
554,138.25,23.0046,24.3889,162.049,100.366,93.4931,0.00762237,0.0799761,20.9885,183.294,0.644325,0.0,0.0
556,138.75,23.7316,24.6716,165.256,100.372,93.534,0.00763779,0.0799678,20.9885,183.274,0.640954,0.0,0.0
558,139.25,23.246,24.9167,162.72,100.366,93.5843,0.00765568,0.0799612,20.9884,183.284,0.635504,0.0,0.0
560,139.75,23.0011,24.7627,167.648,100.371,93.5576,0.0076615,0.0799266,20.9884,183.264,0.638543,0.0,0.0
562,140.25,22.1969,23.7277,165.9,100.361,93.5004,0.00765841,0.0798723,20.9884,183.274,0.643202,0.0,0.0
564,140.75,22.1441,23.598,167.082,100.364,93.5043,0.00765591,0.0798138,20.9884,183.264,0.643051,0.0,0.0
566,141.25,22.9643,24.3926,167.2,100.359,93.4987,0.00761456,0.0797533,20.9884,183.264,0.643181,0.0,0.0
568,141.75,22.9542,24.3356,164.086,100.36,93.3838,0.00758106,0.0797043,20.9884,183.274,0.654462,0.0,0.0
570,142.25,22.794,24.7999,164.808,100.348,93.4509,0.00751724,0.0795917,20.9889,183.274,0.64681,0.0,0.0
572,142.75,22.8061,24.017,165.684,100.356,93.435,0.00745224,0.0794349,20.9894,183.284,0.64907,0.0,0.0
574,143.25,22.6374,24.4581,162.925,100.351,93.5576,0.00741823,0.0793079,20.9896,183.274,0.636743,0.0,0.0
576,143.75,23.0571,24.4717,166.898,100.355,93.5202,0.00736007,0.0791497,20.99,183.264,0.640753,0.0,0.0
578,144.25,21.7089,23.702,162.307,100.342,93.4767,0.00729401,0.0790215,20.9903,183.264,0.643814,0.0,0.0
580,144.75,21.6532,23.8997,165.592,100.351,93.392,0.0072405,0.078877,20.9905,183.254,0.652804,0.0,0.0
582,145.25,23.0349,23.6721,164.917,100.337,93.7366,0.00719716,0.0787599,20.9907,183.244,0.618143,0.0,0.0
584,145.75,22.9768,24.0988,167.517,100.342,93.5021,0.00714816,0.0785682,20.9911,183.234,0.641309,0.0,0.0
586,146.25,22.5711,23.7825,163.975,100.329,93.3851,0.00710847,0.0784865,20.9916,183.244,0.651524,0.0,0.0
588,146.75,22.4578,23.5183,162.486,100.333,93.6476,0.00705739,0.0782776,20.992,183.244,0.626403,0.0,0.0
590,147.25,22.637,23.6701,163.948,100.332,93.4122,0.00701602,0.0781083,20.9924,183.214,0.649113,0.0,0.0
592,147.75,22.4376,23.5828,168.14,100.342,93.2982,0.00696988,0.0779057,20.9926,183.214,0.661107,0.0,0.0
594,148.25,22.2308,23.7189,167.136,100.323,93.6204,0.00693252,0.0776826,20.9929,183.204,0.628133,0.0,0.0
596,148.75,22.6764,23.8424,164.361,100.333,93.5232,0.00690159,0.0775019,20.993,183.184,0.638436,0.0,0.0
598,149.25,22.2656,23.5242,162.504,100.321,93.5374,0.00687594,0.0771896,20.9932,183.174,0.636005,0.0,0.0
600,149.75,22.5674,23.7184,166.563,100.335,93.6846,0.00685184,0.0769366,20.9933,183.204,0.622965,0.0,0.0
602,150.25,22.1151,23.4265,164.946,100.317,93.5383,0.00682933,0.0766902,20.9934,183.204,0.635548,0.0,0.0
604,150.75,21.8162,23.5073,166.323,100.33,93.4118,0.00680314,0.0764906,20.9935,183.214,0.649041,0.0,0.0
606,151.25,21.8857,23.3228,162.194,100.323,93.614,0.00677475,0.0763216,20.9935,183.204,0.628684,0.0,0.0
608,151.75,22.3386,23.1244,166.531,100.323,93.6622,0.00675176,0.0761782,20.9936,183.214,0.624045,0.0,0.0
610,152.25,22.2464,23.1575,166.407,100.318,93.6953,0.0067265,0.0760039,20.9936,183.214,0.620346,0.0,0.0
612,152.75,22.322,23.6122,164.854,100.324,93.5279,0.00670007,0.0758103,20.9937,183.204,0.63715,0.0,0.0
614,153.25,22.1648,23.9773,171.484,100.317,93.623,0.00667402,0.0756098,20.9937,183.194,0.627319,0.0,0.0
616,153.75,22.3456,23.5768,161.166,100.338,93.4074,0.00664874,0.0754081,20.9942,183.214,0.650135,0.0,0.0
618,154.25,21.6695,23.359,163.907,100.342,93.5981,0.00662494,0.0752448,20.9945,183.214,0.631954,0.0,0.0
620,154.75,22.0855,23.4196,166.125,100.323,93.3085,0.00661323,0.0750157,20.9947,183.194,0.658452,0.0,0.0
622,155.25,22.0659,23.1495,166.374,100.315,93.6596,0.0065932,0.0748302,20.995,183.194,0.623583,0.0,0.0
624,155.75,21.8808,22.9387,162.093,100.317,93.367,0.00658327,0.0746072,20.9952,183.184,0.652157,0.0,0.0
626,156.25,21.9903,23.2643,159.205,100.311,93.4978,0.00657524,0.0743612,20.9954,183.174,0.638875,0.0,0.0
628,156.75,22.6044,22.7177,165.882,100.317,93.6075,0.00657755,0.0741037,20.9955,183.174,0.628822,0.0,0.0
630,157.25,22.0886,22.9576,169.69,100.313,93.5172,0.00657942,0.0738428,20.9956,183.164,0.637257,0.0,0.0
632,157.75,21.5974,23.2976,164.232,100.313,93.518,0.00657715,0.0737316,20.9957,183.174,0.637173,0.0,0.0
634,158.25,21.2665,22.8071,162.71,100.31,94.1747,0.00657532,0.0735197,20.9958,183.184,0.573279,0.0,0.0
636,158.75,21.5897,22.5952,165.042,100.313,93.5159,0.00656521,0.0733283,20.9959,183.194,0.637345,0.0,0.0
638,159.25,21.8585,22.7699,168.001,100.32,93.6424,0.00654926,0.0731588,20.9959,183.194,0.625742,0.0,0.0
640,159.75,22.0993,22.7854,166.719,100.32,93.7474,0.00653635,0.0730084,20.996,183.174,0.615487,0.0,0.0
642,160.25,21.6093,22.5194,169.73,100.317,93.663,0.00652588,0.0727486,20.996,183.184,0.6234,0.0,0.0
644,160.75,21.4458,23.2855,169.977,100.313,93.7977,0.006496,0.0725381,20.9965,183.164,0.609973,0.0,0.0
646,161.25,21.7684,22.7118,163.326,100.317,93.4754,0.0064718,0.0722732,20.9974,183.164,0.64165,0.0,0.0
648,161.75,21.7277,22.6453,164.086,100.32,93.4961,0.00644825,0.0719736,20.9981,183.154,0.639868,0.0,0.0
650,162.25,21.4628,22.4578,167.488,100.326,93.6708,0.00642564,0.0717309,20.9987,183.154,0.623474,0.0,0.0
652,162.75,21.5762,22.5967,169.237,100.326,93.6678,0.00640534,0.0715344,20.9992,183.154,0.623804,0.0,0.0
654,163.25,21.6004,22.4124,167.834,100.33,93.7099,0.00638711,0.0713244,20.9999,183.144,0.620091,0.0,0.0
656,163.75,21.4758,22.6067,167.666,100.334,93.7556,0.00636439,0.0711085,21.0004,183.154,0.61597,0.0,0.0
658,164.25,21.3006,22.1097,169.629,100.333,93.5507,0.00633884,0.0708973,21.0008,183.154,0.635798,0.0,0.0
660,164.75,21.1889,22.8221,162.652,100.341,93.3851,0.00630225,0.0706936,21.0012,183.154,0.652612,0.0,0.0
662,165.25,21.2734,22.7674,167.949,100.349,93.5839,0.00625832,0.0705286,21.0015,183.144,0.634008,0.0,0.0
664,165.75,21.3554,22.1813,163.724,100.356,93.6265,0.00622274,0.0703804,21.0017,183.144,0.630474,0.0,0.0
666,166.25,21.0722,21.5563,166.928,100.362,93.4139,0.00617011,0.0702603,21.0019,183.134,0.651721,0.0,0.0
668,166.75,21.0938,21.941,167.965,100.357,93.5576,0.00610606,0.0701493,21.002,183.114,0.637306,0.0,0.0
670,167.25,21.0125,21.6721,166.417,100.366,93.4612,0.00603832,0.070023,21.0022,183.104,0.647419,0.0,0.0
672,167.75,21.2368,22.1245,171.858,100.371,93.4914,0.00596918,0.0698881,21.0023,183.094,0.645017,0.0,0.0
674,168.25,21.0199,22.136,164.095,100.38,93.5189,0.00589998,0.0697788,21.0023,183.084,0.643092,0.0,0.0
676,168.75,21.3131,22.204,162.483,100.383,93.5426,0.00583204,0.0695248,21.0024,183.104,0.641093,0.0,0.0
678,169.25,21.1112,22.1595,162.502,100.385,93.5946,0.00576975,0.0693191,21.0025,183.104,0.636189,0.0,0.0
680,169.75,20.8852,21.9773,164.02,100.398,93.4195,0.00573976,0.0690654,21.0025,183.094,0.654401,0.0,0.0
682,170.25,21.1991,21.9251,170.084,100.405,93.534,0.00568847,0.0687816,21.0025,183.104,0.643878,0.0,0.0
684,170.75,20.6091,21.9876,163.1,100.412,93.4376,0.00563189,0.0685372,21.0025,183.084,0.653919,0.0,0.0
686,171.25,20.2081,21.335,167.315,100.429,93.5142,0.00558606,0.0683262,21.0026,183.074,0.647975,0.0,0.0
688,171.75,19.7732,20.5844,161.999,100.424,93.4698,0.00553516,0.0681118,21.0028,183.074,0.651832,0.0,0.0
690,172.25,20.6791,21.9047,163.837,100.434,93.5611,0.00549393,0.0678989,21.0032,183.074,0.643869,0.0,0.0
692,172.75,20.8296,21.748,163.441,100.437,93.5774,0.00546053,0.0678082,21.0036,183.064,0.642583,0.0,0.0
694,173.25,21.0138,21.6191,163.673,100.446,93.5198,0.00540335,0.0675704,21.0038,183.064,0.649043,0.0,0.0
696,173.75,21.2102,22.0813,165.797,100.452,93.4741,0.00535704,0.0673778,21.0041,183.074,0.653961,0.0,0.0
698,174.25,20.4505,21.702,164.485,100.481,93.5942,0.00530951,0.0671391,21.0043,183.074,0.644925,0.0,0.0
700,174.75,20.6183,21.31,166.88,100.482,93.657,0.00527102,0.0669458,21.0046,183.074,0.638905,0.0,0.0
702,175.25,20.0021,21.1322,163.658,100.499,93.6032,0.00523608,0.0667892,21.0049,183.064,0.645658,0.0,0.0
704,175.75,20.2629,20.9043,160.748,100.507,93.7336,0.00520778,0.0666072,21.005,183.064,0.633764,0.0,0.0
706,176.25,20.7154,22.3628,161.426,100.522,93.6196,0.00518816,0.0664599,21.0052,183.034,0.646206,0.0,0.0
708,176.75,20.7838,21.3165,166.083,100.537,93.6682,0.00517522,0.0662587,21.0053,183.044,0.642838,0.0,0.0
710,177.25,20.2179,21.8053,163.484,100.556,93.685,0.00517133,0.0660957,21.0054,183.044,0.642932,0.0,0.0
712,177.75,20.147,21.5999,166.663,100.56,93.6699,0.0051741,0.0659565,21.0055,183.034,0.644767,0.0,0.0
714,178.25,20.4776,21.3418,170.88,100.581,93.907,0.00518228,0.0658372,21.0056,183.034,0.623713,0.0,0.0
716,178.75,20.0679,21.7179,163.733,100.597,93.7474,0.00519424,0.0657333,21.0056,183.044,0.640552,0.0,0.0
718,179.25,19.6543,20.3234,166.349,100.622,93.8666,0.00520393,0.0656426,21.0057,183.034,0.631256,0.0,0.0
720,179.75,19.8799,20.6139,165.054,100.632,93.8136,0.00520585,0.0655692,21.0057,183.024,0.637351,0.0,0.0
722,180.25,20.6903,21.4409,169.001,100.664,93.7306,0.00520207,0.0655097,21.0057,183.044,0.648237,0.0,0.0
724,180.75,20.3067,21.2771,166.686,100.679,93.8769,0.00518451,0.0654615,21.0058,183.044,0.635417,0.0,0.0
726,181.25,20.5097,21.4177,166.343,100.709,93.9311,0.00515726,0.0654224,21.0058,183.044,0.632863,0.0,0.0
728,181.75,19.5028,21.7007,162.458,100.735,93.7822,0.00513518,0.0653908,21.0058,183.034,0.649663,0.0,0.0
730,182.25,20.6485,21.4672,164.745,100.755,93.7973,0.00508604,0.065358,21.0058,183.044,0.649961,0.0,0.0
732,182.75,20.4096,21.2648,162.633,100.761,93.8864,0.00504624,0.0653249,21.0061,183.044,0.641936,0.0,0.0
734,183.25,19.2092,20.2963,167.541,100.799,93.8864,0.005014,0.0652401,21.0065,183.034,0.645297,0.0,0.0
736,183.75,19.4547,20.5507,165.637,100.806,94.0877,0.00497018,0.0651192,21.0067,183.024,0.626544,0.0,0.0
738,184.25,20.4111,21.3284,162.919,100.846,94.6532,0.00491874,0.0650213,21.0069,183.014,0.575668,0.0,0.0
740,184.75,20.5292,21.5312,166.419,100.873,94.2289,0.00488365,0.0648319,21.007,182.994,0.618901,0.0,0.0
742,185.25,20.3092,21.573,163.516,100.893,94.9535,0.00486115,0.0646785,21.0074,183.004,0.55118,0.0,0.0
744,185.75,20.3805,20.9058,167.324,100.914,94.37,0.0048587,0.0645543,21.0077,183.014,0.609036,0.0,0.0
746,186.25,20.1523,21.4207,168.755,100.948,94.2349,0.00487092,0.0644319,21.0079,183.024,0.625072,0.0,0.0
748,186.75,19.718,21.1292,163.481,100.966,94.5443,0.00488082,0.0643132,21.0081,183.044,0.5969,0.0,0.0
750,187.25,20.0362,20.7403,163.661,100.995,94.6777,0.00490595,0.0642094,21.0083,183.064,0.586704,0.0,0.0
752,187.75,20.5259,21.3599,163.516,101.015,94.3141,0.00494171,0.0641185,21.0089,183.064,0.623518,0.0,0.0
754,188.25,19.8938,21.1564,162.757,101.054,94.3158,0.0049687,0.0640304,21.0093,183.074,0.626817,0.0,0.0
756,188.75,20.0482,20.2981,164.647,101.076,94.3399,0.00498878,0.0639459,21.0093,183.064,0.626507,0.0,0.0
758,189.25,20.2117,21.1715,166.841,101.102,94.3063,0.00499189,0.0638775,21.0092,183.044,0.63201,0.0,0.0
760,189.75,19.8295,20.7685,163.399,101.135,94.2547,0.00498255,0.0637121,21.0096,183.044,0.640038,0.0,0.0
762,190.25,20.2948,21.2348,165.488,101.158,94.552,0.00495724,0.0635781,21.0099,183.044,0.613474,0.0,0.0
764,190.75,20.6627,20.7793,166.186,101.192,94.2379,0.00492075,0.0633972,21.0102,183.034,0.646753,0.0,0.0
766,191.25,20.1015,20.9524,161.55,101.226,94.3937,0.00489119,0.0631855,21.0104,183.034,0.6348,0.0,0.0
768,191.75,20.1859,20.9035,164.686,101.246,94.4587,0.00482356,0.063014,21.0101,183.034,0.630297,0.0,0.0
770,192.25,20.3673,20.555,167.813,101.285,94.3963,0.00476878,0.0628338,21.0099,183.024,0.639866,0.0,0.0
772,192.75,20.2071,21.1835,167.807,101.31,94.571,0.00468077,0.062659,21.0097,183.004,0.625301,0.0,0.0
774,193.25,20.4407,20.5194,167.607,101.331,94.4866,0.00460948,0.0624913,21.0096,182.994,0.635225,0.0,0.0
776,193.75,20.4209,20.9901,165.293,101.355,94.5069,0.00455173,0.0623265,21.0095,182.994,0.63551,0.0,0.0
778,194.25,19.4784,20.8989,167.549,101.384,94.7155,0.00445266,0.062167,21.0094,182.994,0.618072,0.0,0.0
780,194.75,19.5817,21.0052,163.91,101.411,94.6398,0.00437241,0.0620378,21.0093,183.004,0.627751,0.0,0.0
782,195.25,19.6684,20.9463,168.275,101.448,94.605,0.00428244,0.0618232,21.0093,182.994,0.634363,0.0,0.0
784,195.75,19.7552,21.2859,169.143,101.472,94.5172,0.00420956,0.0616494,21.0094,183.004,0.644984,0.0,0.0
786,196.25,20.1248,20.579,169.655,101.507,94.571,0.00411946,0.0614652,21.0098,183.004,0.642931,0.0,0.0
788,196.75,20.1293,20.4821,164.731,101.531,94.5361,0.00404647,0.0612769,21.0102,182.974,0.648392,0.0,0.0
790,197.25,19.9666,21.1126,162.953,101.559,94.5856,0.00396499,0.0611244,21.0106,183.014,0.646122,0.0,0.0
792,197.75,20.0774,20.3772,166.729,101.599,94.7891,0.003899,0.0609507,21.0109,183.024,0.630191,0.0,0.0
794,198.25,20.2656,20.5881,164.203,101.636,94.7891,0.00384096,0.0607647,21.0114,183.044,0.633562,0.0,0.0
796,198.75,19.58,20.41,165.521,101.67,94.6566,0.00378984,0.060578,21.012,183.034,0.64927,0.0,0.0
798,199.25,19.7049,20.9466,163.999,101.71,95.1729,0.00375464,0.0603942,21.0124,183.014,0.603444,0.0,0.0
800,199.75,19.814,20.5274,164.063,101.725,95.077,0.00372612,0.0602019,21.0128,183.014,0.613938,0.0,0.0
802,200.25,19.3528,20.3814,164.447,101.757,95.1295,0.00370303,0.0600072,21.0131,183.004,0.61181,0.0,0.0
804,200.75,19.5814,20.2479,164.935,101.777,95.0482,0.00368804,0.0598132,21.0134,183.004,0.621317,0.0,0.0
806,201.25,19.5718,19.9687,164.799,101.812,94.8188,0.00367591,0.0596237,21.0136,182.984,0.646405,0.0,0.0
808,201.75,19.47,20.3863,167.311,101.844,95.1248,0.00366216,0.0594289,21.0138,182.964,0.619989,0.0,0.0
810,202.25,19.5151,20.215,165.348,101.87,95.1381,0.00364749,0.0592711,21.0144,182.974,0.621006,0.0,0.0
812,202.75,19.0996,20.0602,169.687,101.915,95.0103,0.00362842,0.0590856,21.0148,182.974,0.63728,0.0,0.0
814,203.25,19.4047,20.035,167.966,101.926,95.2964,0.00360651,0.0588832,21.0152,182.984,0.610924,0.0,0.0
816,203.75,19.5977,20.0885,166.094,101.965,95.2504,0.00357759,0.0587193,21.0155,183.004,0.618821,0.0,0.0
818,204.25,20.0608,20.5757,168.862,101.982,95.2655,0.00355416,0.0585359,21.0162,183.014,0.618898,0.0,0.0
820,204.75,19.8074,20.5707,166.369,102.011,95.1377,0.00353197,0.0583419,21.0168,183.004,0.633675,0.0,0.0
822,205.25,19.1364,20.0712,167.473,102.037,95.2465,0.00351109,0.058127,21.0172,183.014,0.625536,0.0,0.0
824,205.75,19.8577,20.4378,163.744,102.065,95.2495,0.00349419,0.0579009,21.0176,183.004,0.627795,0.0,0.0
826,206.25,19.5595,20.7347,166.67,102.098,95.1291,0.00348441,0.0576744,21.0179,183.014,0.642168,0.0,0.0
828,206.75,19.8599,20.3053,167.738,102.113,95.4879,0.00348001,0.057452,21.0183,182.994,0.609366,0.0,0.0
830,207.25,18.6369,19.4823,167.033,102.137,95.1966,0.00347645,0.0572718,21.0188,182.984,0.639184,0.0,0.0
832,207.75,18.7317,19.6224,161.934,102.164,95.7754,0.003469,0.0571114,21.0193,182.974,0.586596,0.0,0.0
834,208.25,19.7368,19.9777,165.174,102.177,95.29,0.00345885,0.0569814,21.0196,182.944,0.633853,0.0,0.0
836,208.75,19.4046,20.6392,162.229,102.203,95.2478,0.00344345,0.0568762,21.0199,182.974,0.640231,0.0,0.0
838,209.25,19.7324,20.4943,166.044,102.214,95.3339,0.00342451,0.0566538,21.0201,182.974,0.632984,0.0,0.0
840,209.75,19.2452,20.1466,167.136,102.243,95.2745,0.00340003,0.0564736,21.0203,182.964,0.641258,0.0,0.0
842,210.25,19.9974,20.2837,170.294,102.257,95.3722,0.00337198,0.0562699,21.0205,182.954,0.633128,0.0,0.0
844,210.75,19.7251,20.3946,163.988,102.274,95.3606,0.00334078,0.056053,21.0206,182.944,0.63578,0.0,0.0
846,211.25,18.8455,19.8724,164.422,102.289,95.469,0.00330788,0.0558773,21.0207,182.924,0.626819,0.0,0.0
848,211.75,18.9463,19.5719,166.884,102.319,95.6385,0.00328123,0.0555978,21.0208,182.944,0.613314,0.0,0.0
850,212.25,19.6017,20.0789,163.497,102.331,95.2995,0.00324106,0.0553715,21.0211,182.954,0.64668,0.0,0.0
852,212.75,19.524,20.3194,167.347,102.345,95.4311,0.00320852,0.0551744,21.0215,182.954,0.635352,0.0,0.0
854,213.25,19.4036,20.0915,162.913,102.353,95.3726,0.00316855,0.0550148,21.0219,182.934,0.641622,0.0,0.0
856,213.75,19.275,19.5902,167.946,102.376,95.6093,0.00313617,0.0548033,21.0222,182.954,0.621169,0.0,0.0
858,214.25,19.8569,20.0614,169.966,102.379,95.6544,0.00310994,0.0546319,21.0224,182.934,0.617099,0.0,0.0
860,214.75,19.3008,20.3764,158.048,102.393,95.3808,0.00306395,0.0544246,21.0226,182.944,0.644373,0.0,0.0
862,215.25,18.7006,19.3747,163.24,102.391,95.6235,0.00302669,0.0542567,21.0228,182.944,0.621143,0.0,0.0
864,215.75,18.7711,19.0332,164.003,102.41,95.657,0.00298675,0.0540796,21.0229,182.954,0.619647,0.0,0.0
866,216.25,19.7324,20.47,162.177,102.413,95.5955,0.00294561,0.0539361,21.023,182.954,0.625711,0.0,0.0
868,216.75,20.2599,19.9569,162.475,102.44,95.4896,0.00290383,0.053791,21.0231,182.964,0.638237,0.0,0.0
870,217.25,19.2434,19.5996,165.886,102.439,95.512,0.00286237,0.0536476,21.0231,182.954,0.635963,0.0,0.0
872,217.75,19.5248,19.7778,166.304,102.454,95.5365,0.00282164,0.0535313,21.0232,182.964,0.63499,0.0,0.0
874,218.25,19.608,19.902,166.122,102.468,95.611,0.0027822,0.053394,21.0237,182.964,0.6292,0.0,0.0
876,218.75,19.5626,20.0323,163,102.47,95.5589,0.00274701,0.0532437,21.0241,182.994,0.634295,0.0,0.0
878,219.25,18.8884,19.1747,169.013,102.475,95.5348,0.00271558,0.0531076,21.0244,182.984,0.637027,0.0,0.0
880,219.75,18.6876,19.5858,164.61,102.479,95.5288,0.00268947,0.0529844,21.0247,182.934,0.637929,0.0,0.0
882,220.25,19.749,20.208,165.868,102.463,95.6592,0.00266773,0.0528846,21.0249,182.924,0.624108,0.0,0.0
884,220.75,18.9932,19.8754,162.644,102.479,95.685,0.00265013,0.052749,21.025,182.914,0.623089,0.0,0.0
886,221.25,19.414,19.9853,166.803,102.484,95.7865,0.00263457,0.0526391,21.0252,182.934,0.613932,0.0,0.0
888,221.75,18.7463,20.0074,159.107,102.504,95.6897,,0.0524679,,182.954,0.624844,0.0,0.0
890,222.25,19.7055,19.8631,165.145,102.495,95.8433,,0.0522788,,182.974,0.609501,0.0,0.0
892,222.75,19.6521,19.9036,169.338,102.5,95.7044,,0.0520803,,183.014,0.623124,0.0,0.0
894,223.25,19.3739,19.5846,171.593,102.488,95.5705,,0.0519194,,183.004,0.634733,0.0,0.0
896,223.75,19.2649,20.0665,164.516,102.493,95.6106,,0.0517344,,183.004,0.631445,0.0,0.0
898,224.25,19.5834,20.0318,166.634,102.49,95.6579,,0.0515845,,182.994,0.626618,0.0,0.0
900,224.75,19.577,20.3359,163.627,102.494,95.6097,,,,182.994,0.6316,0.0,0.0
902,225.25,19.0006,20.0537,167.524,102.484,95.4742,,,,182.994,0.643568,0.0,0.0
904,225.75,19.1742,19.991,165.324,102.474,95.6084,,,,182.984,0.62996,0.0,0.0
906,226.25,19.0741,19.6621,165.638,102.467,95.6966,,,,182.974,0.620957,0.0,0.0
908,226.75,19.4354,19.943,163.701,102.461,95.6347,,,,182.974,0.626328,0.0,0.0
910,227.25,19.4128,19.5416,167.756,102.464,95.5649,,,,182.994,0.633172,0.0,0.0
912,227.75,19.158,19.3838,169.654,102.447,95.537,,,,182.974,0.634362,0.0,0.0
914,228.25,19.4297,19.7873,165.58,102.444,95.7259,,,,182.964,0.616124,0.0,0.0
916,228.75,19.2859,19.8269,163.042,102.44,95.5787,,,,182.944,0.629732,0.0,0.0
918,229.25,18.9831,19.9728,169.285,102.417,95.6209,,,,182.944,0.623705,0.0,0.0
920,229.75,19.5337,19.8792,167.492,102.411,95.5727,,,,182.924,0.627769,0.0,0.0
922,230.25,19.513,19.4084,166.463,102.393,95.6643,,,,182.924,0.617445,0.0,0.0
924,230.75,18.9417,19.7403,157.764,102.385,95.4742,,,,182.934,0.634823,0.0,0.0
926,231.25,19.2106,19.447,168.018,102.362,95.3679,,,,182.914,0.642845,0.0,0.0
928,231.75,18.8728,19.5836,163.539,102.35,95.2934,,,,182.924,0.648909,0.0,0.0
930,232.25,18.672,19.4436,166.311,102.33,95.3141,,,,182.914,0.645212,0.0,0.0
931,232.5,18.6069,19.5119,166.659,102.327,95.6777,,,,182.904,0.610295,0.0,0.0