File: 01_Data/LW_GypBoard_Painted_Paper/MCC/LW_GypBoard_Painted_Paper_MCC_30K_min_211202_R4.txt
Sample ID:	C:\MCC\MCC Cal\Test\LW_GypBoard_Painted_Paper\LW_GypBoard_Painted_Paper_MCC_30K_min_211202_R4.txt
Sample Weight (mg):	4.8
Heating Rate (C/s):	0.5
Combustor Temp (C):	900
N2 Flow Rate (cc/min):	80
O2 Flow Rate (cc/min):	20
Calibration File:	C:\MCC\MCC Cal\Coeff1 JN10440_30_210304.txt.txt
T Correction Coefficients:	0	1.024463	0
Time Shift (s):	14
*
Time (s)	Temperature (C)	N2 flow rate (cc/min)	O2 flow rate (cc/min)	Flow Rate (cc/min)	Oxygen (%)	HRR (W/g)	Heating rate (C/s)
-0.001	108.278	80.001	19.996	103.050	20.117	-0.202	-0.020
2.000	108.317	80.001	19.996	103.055	20.118	-0.288	0.002
3.999	108.343	80.003	19.995	103.052	20.117	-0.205	0.014
6.000	108.342	80.001	19.994	103.040	20.115	-0.074	0.035
8.000	108.315	80.002	19.995	103.034	20.112	0.113	-0.002
10.000	108.362	80.003	19.995	103.046	20.114	-0.004	0.013
11.999	108.319	80.003	19.995	103.042	20.112	0.155	0.002
14.001	108.336	80.001	19.995	103.058	20.111	0.222	0.000
15.999	108.362	80.002	19.995	103.062	20.111	0.200	0.007
17.999	108.385	80.001	19.995	103.068	20.110	0.237	-0.008
20.000	108.418	80.002	19.995	103.071	20.107	0.487	0.011
21.999	108.446	80.003	19.995	103.081	20.105	0.594	0.007
24.000	108.475	80.003	19.996	103.100	20.106	0.557	0.034
25.999	108.514	80.001	19.994	103.114	20.100	0.956	0.030
28.000	108.625	80.003	19.995	103.145	20.095	1.268	0.047
29.999	108.762	80.004	19.994	103.171	20.096	1.237	0.072
31.999	108.875	80.003	19.995	103.184	20.091	1.561	0.053
33.999	109.063	80.002	19.995	103.199	20.091	1.561	0.097
35.999	109.255	80.003	19.996	103.197	20.091	1.511	0.116
38.000	109.469	80.002	19.996	103.192	20.090	1.584	0.120
39.999	109.705	80.003	19.995	103.175	20.086	1.847	0.120
41.999	109.951	80.002	19.995	103.178	20.088	1.743	0.155
43.999	110.254	80.004	19.994	103.197	20.085	1.923	0.143
45.999	110.503	80.004	19.995	103.217	20.084	1.992	0.112
48.000	110.893	80.002	19.995	103.218	20.080	2.285	0.184
49.999	111.243	80.003	19.995	103.239	20.079	2.367	0.203
51.999	111.607	80.003	19.996	103.253	20.079	2.345	0.220
54.000	111.969	80.003	19.995	103.258	20.075	2.593	0.152
55.999	112.416	80.003	19.995	103.263	20.074	2.712	0.215
57.999	112.880	80.004	19.995	103.278	20.073	2.776	0.226
59.999	113.383	80.004	19.995	103.284	20.073	2.742	0.261
61.999	113.871	80.002	19.995	103.290	20.070	2.978	0.277
64.000	114.372	80.003	19.995	103.288	20.069	3.003	0.266
65.999	114.927	80.000	19.995	103.295	20.069	3.038	0.261
67.999	115.509	80.001	19.996	103.298	20.067	3.179	0.293
69.999	116.161	80.001	19.994	103.262	20.066	3.207	0.325
71.999	116.771	80.002	19.995	103.301	20.065	3.277	0.321
73.999	117.405	80.002	19.994	103.356	20.069	3.023	0.355
75.999	118.099	80.002	19.994	103.302	20.063	3.457	0.325
77.999	118.814	80.001	19.994	103.299	20.062	3.475	0.384
79.999	119.550	80.002	19.995	103.301	20.064	3.388	0.406
82.000	120.268	80.001	19.995	103.299	20.062	3.524	0.363
83.999	121.035	80.002	19.995	103.300	20.064	3.377	0.415
85.999	121.836	80.003	19.995	103.312	20.066	3.253	0.409
87.999	122.644	80.003	19.995	103.305	20.063	3.426	0.419
89.999	123.427	80.002	19.995	103.301	20.063	3.454	0.410
91.999	124.224	80.002	19.994	103.308	20.061	3.554	0.389
93.999	125.086	80.003	19.994	103.318	20.061	3.552	0.413
95.999	125.942	80.003	19.996	103.301	20.064	3.376	0.429
97.999	126.818	80.001	19.994	103.299	20.061	3.578	0.444
99.999	127.696	80.002	19.994	103.314	20.061	3.537	0.439
101.999	128.569	80.001	19.995	103.309	20.061	3.591	0.438
104.000	129.491	80.002	19.995	103.322	20.064	3.333	0.478
105.999	130.372	80.002	19.994	103.319	20.065	3.301	0.451
107.999	131.290	80.002	19.994	103.303	20.062	3.473	0.432
109.999	132.291	80.003	19.995	103.324	20.064	3.367	0.482
111.999	133.194	80.003	19.995	103.315	20.064	3.383	0.447
113.999	134.147	80.003	19.994	103.306	20.065	3.309	0.502
115.999	135.118	80.002	19.994	103.300	20.062	3.477	0.499
117.999	136.090	80.001	19.995	103.301	20.062	3.501	0.517
120.000	137.060	80.003	19.993	103.258	20.062	3.472	0.506
121.999	137.993	80.002	19.995	103.349	20.063	3.455	0.491
123.999	139.005	80.002	19.996	103.348	20.065	3.288	0.525
126.000	140.010	80.002	19.995	103.300	20.065	3.314	0.465
127.999	141.023	80.003	19.994	103.304	20.062	3.523	0.482
130.000	142.011	80.003	19.994	103.303	20.065	3.315	0.516
132.000	143.027	80.004	19.995	103.305	20.061	3.587	0.520
134.000	144.061	80.005	19.995	103.309	20.061	3.524	0.511
136.000	145.101	80.002	19.995	103.297	20.060	3.653	0.515
138.000	146.116	80.003	19.994	103.295	20.061	3.558	0.534
140.000	147.141	80.004	19.996	103.287	20.064	3.372	0.515
142.000	148.115	80.003	19.993	103.282	20.062	3.463	0.511
144.000	149.131	80.002	19.996	103.234	20.061	3.561	0.526
146.000	150.171	80.002	19.995	103.320	20.066	3.218	0.516
148.000	151.145	80.001	19.995	103.324	20.063	3.430	0.486
150.000	152.164	80.000	19.996	103.272	20.063	3.447	0.502
152.000	153.231	80.001	19.995	103.266	20.065	3.263	0.520
154.000	154.260	80.001	19.995	103.271	20.062	3.491	0.546
156.000	155.208	79.999	19.994	103.259	20.060	3.628	0.493
158.000	156.227	80.002	19.996	103.273	20.062	3.461	0.493
160.000	157.267	80.002	19.996	103.274	20.061	3.570	0.539
162.000	158.250	80.002	19.996	103.272	20.063	3.407	0.514
164.000	159.256	80.001	19.994	103.279	20.063	3.450	0.494
166.000	160.257	80.004	19.995	103.263	20.061	3.545	0.506
168.000	161.259	80.001	19.995	103.265	20.062	3.461	0.465
170.000	162.272	80.002	19.994	103.263	20.066	3.205	0.478
172.000	163.283	80.001	19.993	103.257	20.064	3.339	0.540
174.000	164.272	80.002	19.994	103.259	20.063	3.404	0.531
176.000	165.269	80.001	19.995	103.263	20.063	3.408	0.527
178.000	166.300	80.002	19.995	103.268	20.060	3.622	0.499
180.000	167.301	80.001	19.995	103.259	20.061	3.550	0.486
182.000	168.262	80.000	19.995	103.260	20.064	3.341	0.481
184.000	169.325	80.001	19.995	103.264	20.061	3.587	0.538
186.000	170.261	80.002	19.995	103.276	20.063	3.409	0.468
188.000	171.286	80.002	19.995	103.258	20.060	3.648	0.494
190.000	172.271	80.003	19.994	103.259	20.062	3.498	0.481
192.000	173.257	80.003	19.993	103.260	20.059	3.692	0.473
194.000	174.265	80.004	19.994	103.261	20.059	3.692	0.490
196.000	175.257	80.004	19.995	103.261	20.061	3.540	0.483
198.000	176.224	80.002	19.993	103.258	20.062	3.494	0.474
200.000	177.230	80.004	19.994	103.258	20.060	3.592	0.499
202.000	178.226	80.003	19.994	103.255	20.061	3.561	0.479
204.000	179.211	80.003	19.996	103.252	20.059	3.677	0.506
206.000	180.144	80.003	19.993	103.249	20.058	3.733	0.447
208.000	181.118	80.003	19.993	103.243	20.061	3.548	0.503
210.000	182.108	80.004	19.994	103.243	20.056	3.883	0.503
212.000	183.111	80.005	19.994	103.251	20.056	3.868	0.497
214.000	184.098	80.004	19.995	103.253	20.054	4.058	0.481
216.000	185.064	80.005	19.995	103.237	20.051	4.243	0.507
218.000	186.075	80.004	19.994	103.246	20.053	4.126	0.502
220.000	187.066	80.005	19.995	103.246	20.055	3.975	0.505
222.000	188.070	80.005	19.996	103.244	20.051	4.207	0.498
224.000	189.023	80.003	19.994	103.225	20.052	4.154	0.447
226.000	189.987	80.001	19.994	103.242	20.049	4.342	0.483
228.000	191.007	80.002	19.995	103.248	20.053	4.105	0.499
230.000	191.947	80.002	19.994	103.249	20.050	4.308	0.471
232.000	192.929	80.003	19.994	103.231	20.050	4.326	0.507
234.000	193.962	80.003	19.995	103.244	20.051	4.219	0.533
236.000	194.912	80.001	19.995	103.242	20.050	4.322	0.494
238.000	195.893	80.001	19.994	103.242	20.049	4.330	0.490
240.000	196.910	80.003	19.995	103.223	20.046	4.575	0.501
242.000	197.863	80.001	19.994	103.231	20.047	4.492	0.512
244.000	198.858	80.002	19.995	103.249	20.046	4.583	0.481
246.000	199.827	80.002	19.996	103.252	20.045	4.652	0.494
248.000	200.774	80.001	19.995	103.232	20.044	4.694	0.437
250.000	201.781	80.002	19.994	103.221	20.044	4.720	0.464
252.000	202.806	80.001	19.995	103.234	20.044	4.681	0.516
254.000	203.773	80.002	19.994	103.235	20.045	4.599	0.492
256.000	204.773	80.001	19.994	103.239	20.043	4.790	0.482
258.000	205.741	80.000	19.994	103.240	20.045	4.603	0.470
260.000	206.718	80.000	19.995	103.239	20.043	4.758	0.461
262.000	207.731	80.001	19.993	103.237	20.044	4.708	0.482
264.000	208.708	80.002	19.994	103.226	20.042	4.848	0.511
266.000	209.712	80.003	19.995	103.222	20.042	4.832	0.488
268.000	210.687	80.004	19.994	103.219	20.041	4.884	0.489
270.000	211.716	80.004	19.995	103.225	20.036	5.227	0.504
272.000	212.716	80.004	19.994	103.220	20.037	5.155	0.520
274.000	213.717	80.004	19.994	103.229	20.037	5.155	0.513
276.000	214.732	80.003	19.993	103.227	20.037	5.140	0.511
278.000	215.734	80.004	19.995	103.214	20.039	5.056	0.516
280.000	216.711	80.004	19.993	103.222	20.039	5.002	0.452
282.000	217.694	80.002	19.995	103.239	20.039	5.002	0.511
284.000	218.723	80.003	19.995	103.230	20.040	4.993	0.499
286.000	219.680	80.004	19.995	103.224	20.038	5.106	0.476
288.000	220.656	80.002	19.995	103.223	20.040	4.977	0.471
290.000	221.693	80.004	19.995	103.215	20.040	4.965	0.511
292.000	222.752	80.003	19.995	103.216	20.038	5.088	0.515
294.000	223.716	80.005	19.994	103.218	20.037	5.136	0.500
296.000	224.719	80.003	19.994	103.218	20.037	5.156	0.518
298.000	225.704	80.005	19.994	103.216	20.036	5.232	0.493
300.000	226.753	80.005	19.994	103.217	20.037	5.188	0.530
302.000	227.716	80.005	19.994	103.218	20.036	5.206	0.501
304.000	228.722	80.003	19.994	103.218	20.039	5.023	0.507
306.000	229.732	80.002	19.995	103.218	20.039	5.032	0.458
308.000	230.739	80.002	19.995	103.216	20.037	5.154	0.484
310.000	231.768	80.001	19.994	103.218	20.037	5.167	0.525
312.000	232.746	80.002	19.995	103.220	20.038	5.110	0.477
314.000	233.759	80.001	19.995	103.219	20.037	5.158	0.492
316.000	234.762	80.000	19.995	103.219	20.039	5.032	0.480
318.000	235.761	80.002	19.995	103.219	20.037	5.165	0.489
320.000	236.767	80.002	19.996	103.220	20.040	4.958	0.517
322.000	237.763	80.002	19.994	103.220	20.038	5.095	0.513
324.000	238.744	80.003	19.996	103.220	20.036	5.201	0.525
326.000	239.727	80.002	19.994	103.219	20.037	5.169	0.451
328.000	240.712	80.002	19.996	103.213	20.034	5.371	0.492
330.000	241.755	80.002	19.995	103.214	20.033	5.465	0.529
332.000	242.713	80.001	19.995	103.212	20.035	5.267	0.486
334.000	243.777	80.001	19.996	103.216	20.032	5.512	0.508
336.000	244.720	80.001	19.996	103.216	20.032	5.489	0.482
338.000	245.783	80.002	19.996	103.216	20.032	5.519	0.497
340.000	246.759	80.002	19.996	103.210	20.029	5.684	0.519
342.000	247.780	80.001	19.995	103.211	20.030	5.651	0.523
344.000	248.750	80.002	19.995	103.215	20.028	5.749	0.498
346.000	249.760	80.003	19.994	103.214	20.025	5.945	0.524
348.000	250.768	80.004	19.994	103.215	20.023	6.088	0.501
350.000	251.788	80.005	19.994	103.216	20.024	6.060	0.531
352.000	252.730	80.004	19.994	103.216	20.021	6.223	0.503
354.000	253.715	80.005	19.994	103.215	20.021	6.243	0.481
356.000	254.702	80.004	19.995	103.215	20.019	6.349	0.487
358.000	255.746	80.004	19.995	103.216	20.017	6.516	0.505
360.000	256.717	80.004	19.994	103.217	20.014	6.727	0.472
362.000	257.722	80.003	19.994	103.217	20.015	6.614	0.499
364.000	258.737	80.003	19.995	103.220	20.011	6.890	0.535
366.000	259.718	80.004	19.993	103.218	20.013	6.799	0.509
368.000	260.707	80.003	19.994	103.220	20.011	6.921	0.505
370.000	261.703	80.004	19.994	103.219	20.010	6.971	0.516
372.000	262.687	80.005	19.994	103.221	20.009	7.073	0.482
374.000	263.681	80.004	19.995	103.225	20.003	7.481	0.498
376.000	264.686	80.006	19.993	103.219	20.003	7.457	0.470
378.000	265.658	80.004	19.993	103.220	20.002	7.538	0.488
380.000	266.735	80.003	19.993	103.219	19.993	8.098	0.529
382.000	267.707	80.004	19.994	103.219	19.996	7.931	0.527
384.000	268.725	80.002	19.995	103.220	19.992	8.194	0.516
386.000	269.705	80.002	19.995	103.222	19.990	8.316	0.515
388.000	270.740	80.003	19.995	103.223	19.988	8.483	0.514
390.000	271.750	80.003	19.996	103.221	19.983	8.766	0.513
392.000	272.738	80.001	19.995	103.223	19.982	8.876	0.435
394.000	273.779	80.003	19.996	103.219	19.976	9.242	0.495
396.000	274.771	80.001	19.995	103.221	19.971	9.621	0.453
398.000	275.757	80.001	19.996	103.225	19.969	9.703	0.460
400.000	276.772	80.004	19.995	103.217	19.966	9.924	0.526
402.000	277.792	80.002	19.995	103.218	19.958	10.482	0.567
404.000	278.761	80.002	19.995	103.224	19.955	10.669	0.509
406.000	279.806	80.002	19.994	103.222	19.954	10.723	0.499
408.000	280.802	80.003	19.995	103.228	19.949	11.063	0.505
410.000	281.729	80.003	19.995	103.217	19.945	11.347	0.492
412.000	282.759	80.002	19.994	103.229	19.942	11.560	0.502
414.000	283.792	80.002	19.995	103.238	19.937	11.907	0.506
416.000	284.695	80.002	19.995	103.237	19.934	12.073	0.463
418.000	285.714	80.001	19.997	103.221	19.930	12.351	0.495
420.000	286.714	80.002	19.996	103.221	19.923	12.796	0.524
422.000	287.720	80.002	19.995	103.231	19.915	13.330	0.490
424.000	288.760	80.002	19.996	103.243	19.914	13.446	0.509
426.000	289.719	80.002	19.996	103.246	19.908	13.846	0.497
428.000	290.746	80.003	19.995	103.239	19.904	14.122	0.514
430.000	291.745	80.003	19.997	103.254	19.900	14.376	0.498
432.000	292.736	80.003	19.995	103.250	19.893	14.821	0.469
434.000	293.728	80.004	19.994	103.249	19.883	15.510	0.526
436.000	294.773	80.002	19.995	103.249	19.880	15.729	0.510
438.000	295.775	80.002	19.994	103.258	19.879	15.803	0.535
440.000	296.745	80.004	19.995	103.259	19.877	15.901	0.493
442.000	297.743	80.003	19.994	103.260	19.862	16.917	0.522
444.000	298.786	80.003	19.996	103.265	19.858	17.158	0.520
446.000	299.800	80.002	19.994	103.265	19.856	17.317	0.533
448.000	300.740	80.002	19.995	103.260	19.847	17.898	0.502
450.000	301.713	80.004	19.994	103.260	19.845	18.046	0.460
452.000	302.726	80.004	19.994	103.269	19.836	18.672	0.505
454.000	303.742	80.006	19.995	103.267	19.828	19.180	0.457
456.000	304.743	80.005	19.994	103.272	19.822	19.596	0.520
458.000	305.820	80.005	19.994	103.266	19.817	19.926	0.484
460.000	306.811	80.004	19.994	103.267	19.810	20.388	0.555
462.000	307.788	80.004	19.994	103.264	19.803	20.901	0.509
464.000	308.792	80.003	19.994	103.263	19.796	21.335	0.506
466.000	309.814	80.003	19.995	103.272	19.790	21.747	0.503
468.000	310.817	80.003	19.995	103.270	19.783	22.247	0.487
470.000	311.842	80.002	19.994	103.285	19.775	22.772	0.530
472.000	312.870	80.003	19.994	103.287	19.769	23.182	0.536
474.000	313.885	80.003	19.994	103.284	19.760	23.774	0.497
476.000	314.910	80.002	19.994	103.295	19.753	24.222	0.518
478.000	315.884	80.003	19.995	103.294	19.742	24.958	0.486
480.000	316.916	80.002	19.995	103.295	19.736	25.407	0.512
482.000	317.938	80.003	19.994	103.296	19.726	26.034	0.518
484.000	318.920	80.003	19.996	103.297	19.721	26.398	0.507
486.000	319.915	80.002	19.995	103.295	19.711	27.093	0.503
488.000	320.971	80.003	19.995	103.306	19.703	27.610	0.504
490.000	321.938	80.001	19.995	103.299	19.690	28.505	0.503
492.000	322.935	80.001	19.995	103.310	19.682	28.999	0.468
494.000	323.951	80.003	19.995	103.313	19.677	29.365	0.474
496.000	324.985	80.001	19.995	103.322	19.665	30.191	0.499
498.000	325.978	80.001	19.995	103.327	19.658	30.597	0.503
500.000	327.054	80.003	19.995	103.331	19.645	31.470	0.546
502.000	327.978	80.002	19.994	103.336	19.640	31.836	0.472
504.000	329.030	80.003	19.995	103.334	19.626	32.766	0.505
506.000	330.046	80.003	19.995	103.339	19.615	33.524	0.494
508.000	331.065	80.003	19.995	103.338	19.605	34.221	0.505
510.000	332.065	80.003	19.994	103.337	19.588	35.310	0.528
512.000	333.098	80.003	19.994	103.344	19.579	35.942	0.531
514.000	334.100	80.004	19.995	103.355	19.566	36.849	0.501
516.000	335.171	80.004	19.996	103.343	19.550	37.929	0.594
518.000	336.121	80.004	19.996	103.352	19.534	38.993	0.453
520.000	337.201	80.004	19.995	103.363	19.522	39.793	0.512
522.000	338.168	80.003	19.995	103.369	19.505	40.936	0.496
524.000	339.197	80.003	19.995	103.372	19.490	41.942	0.485
526.000	340.199	80.003	19.994	103.375	19.475	42.974	0.489
528.000	341.199	80.004	19.994	103.382	19.459	44.038	0.498
530.000	342.207	80.005	19.994	103.377	19.444	45.066	0.478
532.000	343.164	80.005	19.994	103.382	19.427	46.161	0.448
534.000	344.199	80.005	19.995	103.399	19.410	47.306	0.491
536.000	345.197	80.004	19.994	103.403	19.397	48.185	0.486
538.000	346.234	80.004	19.994	103.411	19.381	49.278	0.503
540.000	347.222	80.004	19.994	103.406	19.363	50.517	0.483
542.000	348.230	80.003	19.995	103.410	19.347	51.581	0.499
544.000	349.308	80.002	19.995	103.411	19.328	52.855	0.558
546.000	350.321	80.003	19.994	103.412	19.315	53.708	0.532
548.000	351.328	80.001	19.995	103.416	19.299	54.782	0.528
550.000	352.345	80.002	19.995	103.420	19.286	55.669	0.527
552.000	353.348	80.003	19.994	103.427	19.280	56.040	0.496
554.000	354.396	80.002	19.994	103.423	19.257	57.577	0.515
556.000	355.386	80.003	19.995	103.434	19.249	58.135	0.513
558.000	356.363	80.002	19.995	103.431	19.240	58.769	0.510
560.000	357.432	80.003	19.995	103.421	19.230	59.380	0.538
562.000	358.440	80.003	19.995	103.418	19.231	59.361	0.518
564.000	359.398	80.003	19.996	103.417	19.222	59.918	0.506
566.000	360.415	80.003	19.994	103.416	19.221	60.014	0.468
568.000	361.477	80.002	19.996	103.412	19.223	59.865	0.550
570.000	362.535	80.002	19.994	103.396	19.232	59.253	0.500
572.000	363.489	80.002	19.995	103.383	19.234	59.103	0.476
574.000	364.572	80.000	19.994	103.381	19.249	58.055	0.490
576.000	365.569	80.001	19.995	103.376	19.266	56.947	0.512
578.000	366.582	80.002	19.995	103.355	19.289	55.367	0.516
580.000	367.610	80.002	19.995	103.341	19.295	54.988	0.542
582.000	368.676	80.003	19.995	103.334	19.317	53.504	0.518
584.000	369.626	80.003	19.995	103.316	19.338	52.082	0.529
586.000	370.693	80.003	19.996	103.296	19.364	50.311	0.535
588.000	371.680	80.003	19.995	103.289	19.393	48.404	0.496
590.000	372.681	80.003	19.996	103.275	19.417	46.759	0.470
592.000	373.728	80.005	19.995	103.264	19.451	44.509	0.499
594.000	374.808	80.004	19.996	103.255	19.479	42.574	0.570
596.000	375.830	80.003	19.995	103.244	19.507	40.702	0.528
598.000	376.860	80.004	19.996	103.225	19.536	38.737	0.499
600.000	377.852	80.002	19.995	103.220	19.564	36.890	0.491
602.000	378.918	80.002	19.996	103.204	19.593	34.917	0.516
604.000	379.874	80.004	19.996	103.209	19.615	33.473	0.499
606.000	380.924	80.003	19.995	103.180	19.642	31.673	0.516
608.000	381.962	80.002	19.995	103.179	19.659	30.520	0.511
610.000	382.953	80.003	19.996	103.182	19.673	29.590	0.506
612.000	383.953	80.004	19.994	103.180	19.697	27.976	0.485
614.000	384.967	80.005	19.995	103.178	19.705	27.404	0.500
616.000	385.983	80.004	19.994	103.178	19.706	27.386	0.512
618.000	386.982	80.004	19.995	103.178	19.716	26.711	0.491
620.000	388.002	80.004	19.994	103.177	19.702	27.646	0.521
622.000	389.071	80.002	19.994	103.179	19.701	27.697	0.493
624.000	390.039	80.002	19.995	103.179	19.698	27.917	0.493
626.000	391.093	80.001	19.996	103.180	19.687	28.624	0.533
628.000	392.086	80.003	19.995	103.181	19.684	28.850	0.521
630.000	393.144	80.002	19.996	103.181	19.674	29.539	0.534
632.000	394.143	80.002	19.994	103.181	19.662	30.306	0.539
634.000	395.229	80.002	19.994	103.181	19.652	30.965	0.584
636.000	396.203	80.002	19.995	103.181	19.643	31.620	0.567
638.000	397.243	80.003	19.994	103.183	19.633	32.246	0.499
640.000	398.239	80.002	19.995	103.186	19.619	33.195	0.529
642.000	399.247	80.002	19.994	103.184	19.607	33.997	0.486
644.000	400.273	80.004	19.995	103.182	19.601	34.415	0.497
646.000	401.255	80.002	19.995	103.180	19.592	35.034	0.501
648.000	402.278	80.003	19.996	103.179	19.582	35.674	0.505
650.000	403.321	80.001	19.994	103.178	19.574	36.211	0.504
652.000	404.317	80.002	19.995	103.178	19.571	36.441	0.527
654.000	405.293	80.002	19.994	103.179	19.565	36.788	0.521
656.000	406.337	80.002	19.994	103.179	19.561	37.113	0.525
658.000	407.347	80.004	19.995	103.180	19.565	36.828	0.506
660.000	408.351	80.001	19.995	103.178	19.569	36.529	0.511
662.000	409.379	80.004	19.995	103.173	19.576	36.055	0.527
664.000	410.372	80.003	19.995	103.160	19.588	35.289	0.493
666.000	411.425	80.004	19.996	103.178	19.595	34.810	0.502
668.000	412.371	80.005	19.995	103.168	19.612	33.671	0.479
670.000	413.351	80.004	19.996	103.161	19.632	32.345	0.487
672.000	414.351	80.003	19.996	103.170	19.654	30.835	0.483
674.000	415.357	80.003	19.995	103.160	19.676	29.370	0.505
676.000	416.340	80.003	19.994	103.143	19.701	27.665	0.484
678.000	417.438	80.003	19.995	103.158	19.730	25.714	0.544
680.000	418.394	80.003	19.997	103.146	19.756	24.036	0.511
682.000	419.425	80.003	19.994	103.146	19.781	22.333	0.521
684.000	420.420	80.002	19.996	103.147	19.808	20.488	0.493
686.000	421.434	80.003	19.996	103.152	19.837	18.578	0.502
688.000	422.431	80.002	19.996	103.150	19.862	16.864	0.501
690.000	423.436	80.003	19.996	103.156	19.883	15.475	0.498
692.000	424.454	80.004	19.995	103.150	19.901	14.264	0.521
694.000	425.484	80.003	19.995	103.150	19.922	12.896	0.514
696.000	426.485	80.004	19.995	103.145	19.937	11.865	0.506
698.000	427.479	80.003	19.996	103.149	19.952	10.861	0.498
700.000	428.536	80.003	19.995	103.153	19.962	10.210	0.513
702.000	429.532	80.001	19.995	103.144	19.972	9.515	0.517
704.000	430.561	80.001	19.995	103.147	19.978	9.094	0.535
706.000	431.515	80.002	19.996	103.162	19.984	8.726	0.429
708.000	432.572	80.001	19.995	103.148	19.996	7.915	0.541
710.000	433.619	80.001	19.995	103.155	19.994	8.064	0.514
712.000	434.617	80.002	19.995	103.150	19.999	7.677	0.480
714.000	435.619	80.003	19.994	103.144	20.005	7.333	0.481
716.000	436.642	80.002	19.995	103.140	20.030	5.602	0.483
718.000	437.640	80.002	19.996	103.141	20.031	5.584	0.500
720.000	438.663	80.003	19.995	103.142	20.020	6.320	0.504
722.000	439.610	80.002	19.993	103.140	20.022	6.135	0.511
724.000	440.644	80.001	19.996	103.142	20.026	5.928	0.574
726.000	441.562	80.001	19.994	103.141	20.041	4.921	0.495
728.000	442.586	80.002	19.995	103.141	20.033	5.400	0.452
730.000	443.597	80.003	19.996	103.140	20.028	5.748	0.508
732.000	444.579	80.002	19.993	103.142	20.026	5.876	0.500
734.000	445.608	80.003	19.994	103.140	20.031	5.561	0.515
736.000	446.582	80.002	19.994	103.140	20.039	5.015	0.472
738.000	447.567	80.004	19.994	103.139	20.038	5.069	0.487
740.000	448.567	80.003	19.995	103.139	20.037	5.164	0.521
742.000	449.568	80.002	19.995	103.141	20.041	4.908	0.491
744.000	450.654	80.001	19.996	103.143	20.044	4.686	0.524
746.000	451.599	80.002	19.995	103.138	20.045	4.651	0.504
748.000	452.626	80.004	19.994	103.143	20.042	4.845	0.542
750.000	453.627	80.004	19.993	103.142	20.049	4.347	0.489
752.000	454.628	80.005	19.993	103.142	20.048	4.406	0.498
754.000	455.648	80.004	19.994	103.142	20.052	4.160	0.486
756.000	456.681	80.003	19.995	103.142	20.050	4.277	0.520
758.000	457.707	80.003	19.995	103.141	20.053	4.105	0.512
760.000	458.748	80.002	19.995	103.142	20.053	4.062	0.545
762.000	459.753	80.002	19.995	103.140	20.055	3.985	0.509
764.000	460.756	80.002	19.995	103.140	20.056	3.909	0.528
766.000	461.784	80.002	19.995	103.142	20.054	4.027	0.499
768.000	462.837	80.004	19.995	103.140	20.054	4.003	0.518
770.000	463.812	80.004	19.993	103.140	20.056	3.857	0.491
772.000	464.862	80.004	19.995	103.141	20.060	3.636	0.475
774.000	465.860	80.004	19.993	103.138	20.059	3.696	0.507
776.000	466.884	80.004	19.995	103.138	20.056	3.869	0.515
778.000	467.958	80.003	19.996	103.143	20.060	3.610	0.526
780.000	468.968	80.003	19.995	103.140	20.064	3.346	0.521
782.000	469.994	80.003	19.994	103.135	20.061	3.566	0.519
784.000	471.045	80.002	19.995	103.136	20.064	3.322	0.525
786.000	472.068	80.000	19.995	103.138	20.065	3.274	0.546
788.000	473.110	80.002	19.995	103.128	20.065	3.272	0.518
790.000	474.144	80.001	19.997	103.139	20.062	3.462	0.532
792.000	475.219	80.002	19.995	103.128	20.067	3.177	0.534
794.000	476.224	80.002	19.995	103.131	20.068	3.061	0.519
796.000	477.283	80.002	19.995	103.130	20.080	2.261	0.544
798.000	478.321	80.004	19.995	103.127	20.063	3.424	0.520
800.000	479.386	80.003	19.995	103.121	20.066	3.224	0.514
802.000	480.451	80.004	19.993	103.133	20.064	3.381	0.555
804.000	481.447	80.003	19.995	103.136	20.068	3.116	0.491
806.000	482.502	80.004	19.995	103.139	20.066	3.233	0.522
808.000	483.549	80.002	19.995	103.135	20.068	3.101	0.503
810.000	484.540	80.002	19.995	103.142	20.070	2.942	0.513
812.000	485.622	80.002	19.995	103.131	20.070	2.976	0.554
814.000	486.684	80.001	19.995	103.130	20.072	2.809	0.568
816.000	487.716	80.003	19.996	103.130	20.073	2.748	0.509
818.000	488.766	80.001	19.995	103.130	20.068	3.098	0.496
820.000	489.793	80.001	19.995	103.116	20.073	2.782	0.536
822.000	490.823	80.003	19.995	103.133	20.071	2.866	0.500
824.000	491.854	80.002	19.995	103.138	20.074	2.715	0.519
826.000	492.925	80.003	19.995	103.136	20.073	2.757	0.528
828.000	493.940	80.003	19.994	103.124	20.075	2.587	0.513
830.000	495.019	80.005	19.994	103.131	20.072	2.844	0.543
832.000	496.007	80.004	19.996	103.132	20.072	2.805	0.521
834.000	497.030	80.004	19.995	103.127	20.077	2.461	0.521
836.000	498.081	80.002	19.995	103.123	20.072	2.789	0.506
838.000	499.075	80.004	19.994	103.134	20.074	2.683	0.517
840.000	500.145	80.003	19.994	103.134	20.075	2.596	0.506
842.000	501.165	80.004	19.994	103.134	20.074	2.652	0.536
844.000	502.218	80.003	19.995	103.114	20.073	2.766	0.546
846.000	503.233	80.002	19.996	103.127	20.075	2.602	0.518
848.000	504.235	80.004	19.994	103.129	20.076	2.565	0.497
850.000	505.325	80.003	19.996	103.130	20.074	2.650	0.534
852.000	506.329	80.005	19.995	103.137	20.076	2.529	0.538
854.000	507.349	80.005	19.995	103.132	20.074	2.685	0.495
856.000	508.353	80.004	19.994	103.127	20.081	2.228	0.515
858.000	509.395	80.004	19.996	103.128	20.076	2.530	0.506
860.000	510.403	80.005	19.994	103.131	20.078	2.389	0.517
862.000	511.413	80.002	19.996	103.121	20.079	2.374	0.502
864.000	512.455	80.002	19.996	103.127	20.076	2.565	0.517
866.000	513.430	80.002	19.994	103.137	20.074	2.691	0.540
868.000	514.521	80.000	19.995	103.125	20.075	2.605	0.537
870.000	515.572	80.002	19.995	103.129	20.077	2.461	0.535
872.000	516.542	80.003	19.994	103.132	20.075	2.608	0.505
874.000	517.631	80.001	19.995	103.133	20.076	2.535	0.535
876.000	518.640	80.001	19.996	103.136	20.077	2.507	0.516
878.000	519.648	80.002	19.996	103.123	20.074	2.674	0.508
880.000	520.702	80.002	19.996	103.120	20.079	2.357	0.530
882.000	521.750	80.001	19.996	103.134	20.077	2.448	0.518
884.000	522.763	80.002	19.997	103.135	20.079	2.370	0.548
886.000	523.774	80.002	19.995	103.134	20.077	2.502	0.490
888.000	524.809	80.002	19.995	103.126	20.081	2.241	0.523
890.000	525.855	80.003	19.995	103.116	20.079	2.363	0.529
892.000	526.859	80.001	19.995	103.129	20.080	2.276	0.511
894.000	527.916	80.001	19.996	103.126	20.081	2.222	0.524
896.000	528.957	80.001	19.994	103.131	20.078	2.383	0.530
898.000	529.995	80.002	19.994	103.128	20.078	2.446	0.503
900.000	531.013	80.001	19.994	103.131	20.082	2.154	0.524
902.000	532.047	80.004	19.993	103.125	20.081	2.220	0.543
904.000	533.101	80.002	19.995	103.116	20.081	2.196	0.532
906.000	534.179	80.002	19.995	103.134	20.080	2.265	0.543
908.000	535.168	80.006	19.995	103.121	20.079	2.321	0.533
910.000	536.136	80.005	19.995	103.129	20.084	2.000	0.512
912.000	537.228	80.003	19.995	103.115	20.082	2.158	0.469
914.000	538.237	80.004	19.995	103.118	20.080	2.269	0.506
916.000	539.264	80.003	19.995	103.122	20.081	2.215	0.513
918.000	540.312	80.001	19.996	103.132	20.082	2.135	0.520
920.000	541.353	80.002	19.995	103.124	20.082	2.137	0.491
922.000	542.410	80.003	19.995	103.121	20.083	2.094	0.541
924.000	543.392	80.004	19.994	103.131	20.083	2.081	0.499
926.000	544.454	80.004	19.994	103.110	20.083	2.074	0.512
928.000	545.438	80.006	19.994	103.104	20.080	2.304	0.543
930.000	546.469	80.004	19.995	103.114	20.080	2.270	0.534
932.000	547.551	80.005	19.993	103.114	20.076	2.528	0.544
934.000	548.579	80.005	19.994	103.115	20.077	2.481	0.550
936.000	549.631	80.003	19.994	103.104	20.074	2.681	0.520
938.000	550.606	80.005	19.995	103.133	20.081	2.208	0.471
940.000	551.697	80.002	19.995	103.132	20.081	2.215	0.530
942.000	552.578	80.002	19.995	103.128	20.079	2.346	0.519
944.000	553.669	80.002	19.995	103.121	20.078	2.422	0.371
946.000	554.526	80.003	19.995	103.116	20.081	2.191	0.343
948.000	555.845	80.002	19.995	103.126	20.084	1.989	0.430
950.000	556.704	80.004	19.994	103.128	20.085	1.956	0.337
952.000	557.863	80.002	19.995	103.127	20.087	1.817	1.103
954.000	559.006	80.003	19.995	103.116	20.085	1.959	0.571
956.000	559.917	80.003	19.994	103.124	20.084	1.993	0.465
958.000	560.994	80.001	19.995	103.128	20.085	1.963	0.570
960.000	562.051	80.002	19.995	103.122	20.084	2.024	0.550
962.000	562.990	80.002	19.996	103.124	20.083	2.111	0.535
964.000	564.134	80.002	19.994	103.114	20.083	2.093	0.493
966.000	565.047	80.001	19.996	103.104	20.084	2.013	0.477
968.000	566.165	80.001	19.995	103.123	20.085	1.946	0.509
970.000	567.168	80.001	19.996	103.108	20.087	1.813	0.548
972.000	568.198	80.002	19.997	103.109	20.086	1.860	0.551
974.000	569.196	80.002	19.997	103.106	20.085	1.919	0.560
976.000	570.178	80.001	19.995	103.118	20.087	1.826	0.490
978.000	571.211	80.001	19.996	103.120	20.085	1.924	0.539
980.000	572.252	80.002	19.995	103.110	20.085	1.930	0.490
982.000	573.291	80.003	19.995	103.115	20.085	1.943	0.486
984.000	574.291	80.003	19.995	103.119	20.087	1.812	0.539
986.000	575.339	80.002	19.995	103.119	20.083	2.100	0.514
988.000	576.340	80.004	19.994	103.116	20.085	1.971	0.509
990.000	577.372	80.005	19.994	103.110	20.084	2.034	0.515
992.000	578.375	80.003	19.996	103.107	20.085	1.946	0.522
994.000	579.344	80.004	19.994	103.115	20.087	1.815	0.481
996.000	580.337	80.002	19.994	103.123	20.083	2.052	0.522
998.000	581.349	80.004	19.995	103.123	20.082	2.133	0.481
1000.000	582.352	80.002	19.994	103.126	20.081	2.183	0.521
1002.000	583.340	80.003	19.994	103.114	20.083	2.065	0.510
1004.000	584.384	80.005	19.995	103.104	20.085	1.945	0.504
1006.000	585.349	80.001	19.994	103.112	20.080	2.298	0.484
1008.000	586.397	80.004	19.994	103.113	20.082	2.152	0.514
1010.000	587.393	80.005	19.995	103.111	20.084	1.991	0.512
1012.000	588.391	80.004	19.994	103.114	20.082	2.117	0.509
1014.000	589.384	80.005	19.995	103.122	20.080	2.257	0.510
1016.000	590.401	80.005	19.995	103.121	20.084	1.994	0.523
1018.000	591.401	80.003	19.994	103.124	20.085	1.918	0.504
1020.000	592.409	80.002	19.995	103.121	20.084	1.994	0.513
1022.000	593.444	80.002	19.994	103.116	20.082	2.176	0.519
1024.000	594.463	80.001	19.995	103.117	20.082	2.139	0.526
1025.999	595.492	80.003	19.995	103.116	20.081	2.202	0.513
1027.999	596.492	80.002	19.994	103.105	20.082	2.168	0.514
1029.999	597.513	80.002	19.996	103.102	20.085	1.917	0.510
1031.999	598.562	80.002	19.996	103.105	20.084	2.039	0.540
1033.999	599.566	80.002	19.996	103.115	20.081	2.192	0.511
1035.999	600.579	80.002	19.995	103.115	20.084	2.005	0.465
1037.999	601.590	80.001	19.995	103.115	20.082	2.120	0.520
1039.999	602.618	80.004	19.996	103.110	20.085	1.911	0.527
1041.999	603.649	80.003	19.994	103.114	20.084	1.995	0.481
1043.999	604.665	80.003	19.995	103.103	20.084	2.005	0.503
1045.999	605.721	80.003	19.995	103.106	20.085	1.913	0.506
1047.999	606.694	80.002	19.995	103.105	20.088	1.735	0.492
1049.999	607.702	80.003	19.996	103.109	20.087	1.837	0.492
1051.999	608.763	80.003	19.996	103.109	20.087	1.812	0.506
1053.999	609.752	80.002	19.996	103.108	20.087	1.839	0.501
1056.000	610.805	80.001	19.996	103.097	20.088	1.765	0.497
1058.000	611.844	80.013	19.998	103.100	20.087	1.808	0.492
1060.000	612.888	80.019	20.002	103.089	20.090	1.578	0.564
1062.000	613.923	80.022	20.005	103.123	20.089	1.708	0.529
1064.000	614.949	80.018	20.000	103.179	20.090	1.640	0.528
1066.000	615.980	80.019	20.001	103.115	20.085	1.965	0.529
1067.999	617.001	80.018	19.998	103.121	20.086	1.906	0.508
1070.000	617.993	80.021	19.999	103.109	20.086	1.884	0.512
1071.999	619.016	80.022	19.998	103.107	20.087	1.823	0.497
1074.000	620.086	80.023	20.001	103.125	20.083	2.069	0.551
1075.999	621.080	80.021	20.001	103.134	20.086	1.878	0.505
1077.999	622.065	80.022	19.997	103.139	20.085	1.965	0.493
1080.000	623.073	80.018	19.995	103.119	20.082	2.141	0.499
1081.999	624.142	80.019	20.000	103.127	20.082	2.117	0.523
1083.999	625.133	80.022	20.002	103.143	20.084	2.034	0.520
1085.999	626.156	80.021	19.999	103.131	20.084	2.004	0.503
1088.000	627.212	80.022	20.001	103.141	20.086	1.878	0.483
1090.000	628.210	80.013	19.996	103.135	20.084	1.982	0.517
1091.999	629.215	80.024	19.999	103.137	20.082	2.154	0.527
1093.999	630.214	80.023	20.000	103.136	20.087	1.814	0.513
1095.999	631.251	80.022	19.998	103.124	20.084	2.009	0.530
1097.999	632.296	80.020	19.998	103.122	20.085	1.933	0.518
1099.999	633.289	80.022	20.002	103.108	20.085	1.975	0.502
1102.000	634.333	80.020	20.001	103.131	20.086	1.873	0.531
1104.001	635.397	80.020	20.006	103.153	20.088	1.756	0.519
1105.999	636.365	80.039	20.008	103.169	20.086	1.889	0.497
1107.999	637.419	80.039	20.009	103.171	20.087	1.798	0.535
1110.000	638.476	80.021	20.007	103.170	20.084	1.995	0.540
1111.999	639.477	80.022	20.003	103.142	20.082	2.143	0.521
1114.000	640.500	80.010	19.999	103.140	20.084	2.041	0.500
1115.999	641.484	80.003	19.996	103.136	20.083	2.052	0.500
1117.999	642.519	80.002	19.996	103.124	20.082	2.137	0.502
1119.999	643.529	80.001	19.995	103.118	20.083	2.056	0.504
1121.999	644.561	80.001	19.996	103.138	20.081	2.228	0.526
1124.000	645.556	80.000	19.997	103.116	20.081	2.234	0.524
1125.999	646.537	80.002	19.996	103.123	20.078	2.424	0.484
1128.000	647.565	80.001	19.996	103.131	20.080	2.246	0.499
1129.999	648.603	80.001	19.995	103.139	20.079	2.337	0.509
1131.999	649.616	80.001	19.995	103.124	20.079	2.331	0.487
1134.001	650.648	80.001	19.995	103.134	20.077	2.459	0.495
1135.999	651.689	80.001	19.995	103.136	20.080	2.311	0.519
1137.999	652.665	80.001	19.996	103.132	20.076	2.539	0.516
1139.999	653.666	80.002	19.995	103.127	20.079	2.371	0.510
1141.999	654.668	80.001	19.994	103.124	20.074	2.650	0.522
1143.999	655.717	80.003	19.995	103.114	20.077	2.457	0.530
1145.999	656.706	80.002	19.995	103.130	20.076	2.539	0.516
1148.000	657.728	80.002	19.995	103.134	20.076	2.557	0.513
1149.999	658.734	80.002	19.996	103.133	20.076	2.550	0.505
1151.999	659.701	80.003	19.995	103.127	20.079	2.357	0.464
1153.999	660.768	80.002	19.995	103.114	20.076	2.570	0.548
1155.999	661.755	80.002	19.996	103.133	20.076	2.574	0.514
1157.999	662.771	80.003	19.996	103.122	20.079	2.358	0.517
1159.999	663.807	80.003	19.995	103.122	20.080	2.259	0.508
1161.999	664.778	80.005	19.994	103.117	20.078	2.389	0.269
1163.999	665.860	80.005	19.997	103.119	20.079	2.352	0.304
1165.999	666.810	80.006	19.994	103.120	20.076	2.540	0.513
1168.000	667.736	80.004	19.995	103.123	20.074	2.690	0.494
1170.001	668.802	80.005	19.995	103.133	20.073	2.781	0.485
1171.999	669.846	80.006	19.994	103.120	20.062	3.458	0.522
1173.999	670.862	80.006	19.994	103.123	20.075	2.611	0.523
1175.999	671.858	80.003	19.995	103.115	20.075	2.594	0.532
1178.000	672.911	80.003	19.994	103.114	20.073	2.717	0.533
1179.999	673.842	80.002	19.995	103.112	20.075	2.624	0.505
1181.999	674.958	80.002	19.995	103.116	20.073	2.739	0.493
1183.999	675.968	80.002	19.995	103.128	20.076	2.527	0.615
1186.000	676.570	80.002	19.995	103.123	20.078	2.426	0.862
1188.000	678.051	80.001	19.995	103.131	20.076	2.546	0.520
1189.999	679.055	80.003	19.995	103.132	20.076	2.559	0.520
1192.000	680.116	80.003	19.996	103.135	20.076	2.571	0.525
1193.999	681.142	80.003	19.994	103.120	20.077	2.470	0.536
1196.000	682.149	80.002	19.994	103.124	20.077	2.448	0.505
1198.000	683.226	80.003	19.994	103.117	20.081	2.219	0.514
1200.000	684.286	80.002	19.994	103.134	20.080	2.258	0.504
1201.999	685.344	80.001	19.994	103.140	20.081	2.206	0.514
1203.999	686.362	80.003	19.994	103.141	20.081	2.234	0.512
1205.999	687.430	80.002	19.996	103.121	20.079	2.348	0.476
1207.999	688.523	80.001	19.994	103.126	20.081	2.241	0.562
1210.000	689.565	80.020	20.001	103.128	20.082	2.115	0.554
1211.999	690.635	80.019	20.003	103.144	20.083	2.102	0.537
1213.999	691.668	80.020	20.003	103.142	20.085	1.943	0.528
1216.000	692.741	80.016	20.000	103.120	20.083	2.061	0.545
1217.999	693.785	80.001	19.996	103.121	20.081	2.211	0.511
1219.999	694.809	80.003	19.996	103.104	20.083	2.087	0.524
1221.999	695.838	80.002	19.997	103.101	20.080	2.305	0.510
1224.000	696.883	80.003	19.997	103.107	20.079	2.357	0.498
1226.000	697.947	80.004	19.995	103.104	20.079	2.331	0.502
1227.999	698.951	80.004	19.995	103.102	20.077	2.490	0.514
1229.999	700.028	80.005	19.995	103.099	20.079	2.340	0.525
1231.999	701.045	80.003	19.996	103.104	20.078	2.401	0.535
1233.999	702.069	80.002	19.995	103.103	20.074	2.688	0.526
1235.999	703.088	80.003	19.996	103.108	20.078	2.436	0.518
1238.000	704.082	80.002	19.996	103.102	20.076	2.527	0.518
1239.999	705.134	80.003	19.996	103.101	20.075	2.610	0.488
1241.999	706.120	80.004	19.996	103.103	20.076	2.540	0.494
1243.999	707.156	80.003	19.996	103.099	20.074	2.695	0.526
1245.999	708.183	80.003	19.996	103.101	20.075	2.586	0.480
1248.000	709.209	80.004	19.994	103.098	20.076	2.542	0.491
1249.999	710.248	80.005	19.994	103.099	20.075	2.583	0.535
1252.000	711.256	80.005	19.995	103.106	20.078	2.418	0.493
1254.000	712.208	80.004	19.994	103.102	20.076	2.570	0.509
1255.999	713.265	80.004	19.994	103.102	20.076	2.533	0.538
1257.999	714.245	80.002	19.994	103.104	20.077	2.509	0.483
1259.999	715.283	80.002	19.995	103.106	20.077	2.507	0.531
1261.999	716.302	80.001	19.995	103.107	20.077	2.494	0.511
1264.000	717.304	80.001	19.995	103.105	20.077	2.450	0.475
1266.000	718.305	80.002	19.995	103.103	20.078	2.425	0.519
1267.999	719.361	80.001	19.996	103.102	20.072	2.812	0.528
1269.999	720.346	80.001	19.995	103.103	20.074	2.681	0.505
1272.000	721.312	80.002	19.995	103.107	20.074	2.708	0.485
1273.999	722.354	80.002	19.996	103.112	20.074	2.701	0.489
1275.999	723.380	80.003	19.994	103.107	20.075	2.645	0.520
1277.999	724.372	80.003	19.994	103.108	20.073	2.755	0.493
1279.999	725.415	80.002	19.995	103.115	20.074	2.690	0.537
1281.999	726.373	80.001	19.996	103.103	20.074	2.697	0.497
1284.000	727.408	80.002	19.995	103.101	20.071	2.892	0.492
1285.999	728.422	80.002	19.995	103.101	20.072	2.782	0.503
1288.000	729.473	80.002	19.995	103.100	20.070	2.969	0.536
1289.999	730.492	80.001	19.995	103.103	20.069	2.993	0.502
1292.000	731.508	80.002	19.995	103.101	20.070	2.940	0.504
1294.000	732.512	80.002	19.994	103.104	20.069	3.019	0.501
1295.999	733.564	80.001	19.994	103.110	20.070	2.977	0.509
1297.999	734.536	80.003	19.995	103.102	20.071	2.877	0.479
1300.001	735.582	80.003	19.995	103.101	20.070	2.962	0.496
1301.999	736.565	80.002	19.995	103.100	20.071	2.895	0.487
1303.999	737.582	80.003	19.995	103.100	20.068	3.089	0.505
1305.999	738.563	80.003	19.995	103.098	20.069	3.049	0.512
1307.999	739.556	80.004	19.995	103.098	20.067	3.117	0.497
1309.999	740.570	80.004	19.995	103.100	20.068	3.108	0.496
1312.000	741.620	80.003	19.995	103.100	20.068	3.062	0.513
1313.999	742.584	80.002	19.995	103.102	20.071	2.866	0.467
1315.999	743.605	80.002	19.995	103.103	20.071	2.886	0.531