File: 01_Data/Engineered_Flooring/STA/N2/10K_min/EF_STA_N2_10KData_211412_R1.csv
##Temp./Â°C,Time/min,Mass loss(subtr.2)/mg,DSC(subtr.2)/(mW/mg),Sensit./(uV/mW)
49.344,10.00917,0.00362,0.01310341,1.07447
50.044,10.76737,0.00325361,0.05258306,1.07442
50.744,10.9732,0.003579662,0.08118267,1.07437
51.444,11.12675,0.003413963,0.10325,1.07432
52.144,11.2566,0.004240563,0.12063,1.07427
52.844,11.37273,0.003743049,0.13717,1.07421
53.544,11.47966,0.005468166,0.14743,1.07416
54.244,11.58007,0.003342334,0.16156,1.0741
54.944,11.6752,0.004630177,0.17212,1.07405
55.644,11.7667,0.00375014,0.1816,1.07399
56.344,11.85557,0.00333271,0.19102,1.07393
57.044,11.94272,0.0033687,0.19753,1.07387
57.744,12.02784,0.003011695,0.19973,1.07381
58.444,12.11165,0.004426889,0.20467,1.07375
59.144,12.19403,0.002919422,0.21052,1.07369
59.844,12.27522,0.004538887,0.21132,1.07362
60.544,12.35552,0.002904088,0.21516,1.07356
61.244,12.43465,0.002959445,0.21839,1.07349
61.944,12.5131,0.002962491,0.22089,1.07342
62.644,12.59136,0.003151686,0.22636,1.07335
63.344,12.6694,0.00438645,0.22916,1.07328
64.044,12.74656,0.00298347,0.23262,1.07321
64.744,12.82334,0.0029709,0.23454,1.07314
65.444,12.89958,0.003068925,0.23939,1.07306
66.144,12.97585,0.002419062,0.24237,1.07299
66.844,13.0517,0.00306204,0.24455,1.07291
67.544,13.1273,0.003070377,0.24669,1.07284
68.244,13.20261,0.00174358,0.25195,1.07276
68.944,13.27798,0.001712464,0.25296,1.07268
69.644,13.3534,0.003025259,0.25768,1.0726
70.344,13.42885,0.001749579,0.25545,1.07252
71.044,13.5039,0.00143316,0.26073,1.07243
71.744,13.5786,0.0001092162,0.26234,1.07235
72.444,13.6527,0.000440212,0.2674,1.07227
73.144,13.7266,0.0008263817,0.27034,1.07218
73.844,13.80018,0.000435202,0.27223,1.07209
74.544,13.8744,-0.0005671993,0.27641,1.072
75.244,13.948,0.000429079,0.27995,1.07191
75.944,14.0217,-0.0009535933,0.28168,1.07182
76.644,14.09476,0.0001104768,0.28519,1.07173
77.344,14.16794,-0.000127924,0.28713,1.07164
78.044,14.2409,-0.002591122,0.28829,1.07154
78.744,14.31355,-0.002376924,0.28839,1.07145
79.444,14.3857,-0.003453035,0.2944,1.07135
80.144,14.45825,-0.00353358,0.29722,1.07126
80.844,14.53025,-0.003272539,0.29865,1.07116
81.544,14.60245,-0.003520003,0.29885,1.07106
82.244,14.6742,-0.00351827,0.30165,1.07096
82.944,14.74594,-0.0032466,0.30121,1.07085
83.644,14.81755,-0.00350515,0.30441,1.07075
84.344,14.8887,-0.004830038,0.30602,1.07065
85.044,14.96011,-0.00483,0.30609,1.07054
85.744,15.03111,-0.004828606,0.30897,1.07043
86.444,15.10186,-0.006153498,0.30766,1.07033
87.144,15.17245,-0.005890787,0.30981,1.07022
87.844,15.2431,-0.006141351,0.31075,1.07011
88.544,15.314,-0.008298708,0.31047,1.07
89.244,15.38458,-0.00876628,0.30896,1.06989
89.944,15.4549,-0.007460865,0.30912,1.06977
90.644,15.525,-0.008016097,0.30858,1.06966
91.344,15.5954,-0.008120008,0.30896,1.06954
92.044,15.6656,-0.008120106,0.30751,1.06942
92.744,15.73586,-0.008758103,0.3051,1.06931
93.444,15.80551,-0.009440057,0.30654,1.06919
94.144,15.8754,-0.008774453,0.30607,1.06907
94.844,15.945,-0.01009923,0.30268,1.06895
95.544,16.01465,-0.008695976,0.30392,1.06882
96.244,16.0841,-0.00924162,0.30095,1.0687
96.944,16.1535,-0.01008991,0.30186,1.06858
97.644,16.2227,-0.01009072,0.30139,1.06845
98.344,16.292,-0.01139686,0.29865,1.06832
99.044,16.3609,-0.01141,0.29825,1.0682
99.744,16.43025,-0.01141,0.29654,1.06807
100.444,16.49961,-0.01009113,0.29365,1.06794
101.144,16.56896,-0.01141997,0.29241,1.06781
101.844,16.63812,-0.0120663,0.29381,1.06767
102.544,16.707,-0.01170556,0.29273,1.06754
103.244,16.77608,-0.01173992,0.28977,1.06741
103.944,16.84481,-0.01278286,0.29102,1.06727
104.644,16.91392,-0.01305094,0.29206,1.06713
105.344,16.9828,-0.01306,0.29177,1.06699
106.044,17.0515,-0.01307181,0.29077,1.06686
106.744,17.11996,-0.01436995,0.28913,1.06672
107.444,17.18851,-0.01464849,0.29012,1.06657
108.144,17.2575,-0.01536017,0.28739,1.06643
108.844,17.32623,-0.01535992,0.28739,1.06629
109.544,17.39498,-0.01444695,0.28732,1.06614
110.244,17.46358,-0.01536752,0.28598,1.066
110.944,17.53238,-0.01536,0.28627,1.06585
111.644,17.60097,-0.01536001,0.28409,1.0657
112.344,17.66934,-0.01404039,0.28228,1.06555
113.044,17.73762,-0.01405,0.28181,1.0654
113.744,17.8061,-0.01395679,0.28112,1.06525
114.444,17.87479,-0.01536004,0.279,1.0651
115.144,17.94331,-0.01533091,0.28141,1.06495
115.844,18.012,-0.01621099,0.27984,1.06479
116.544,18.08021,-0.01536051,0.27724,1.06464
117.244,18.1489,-0.01536,0.27738,1.06448
117.944,18.21731,-0.01530459,0.27733,1.06432
118.644,18.28594,-0.01484852,0.27836,1.06416
119.344,18.35441,-0.01463193,0.27815,1.064
120.044,18.42282,-0.0153599,0.27698,1.06384
120.744,18.4912,-0.01535999,0.27434,1.06368
121.444,18.55965,-0.01670055,0.27664,1.06352
122.144,18.62809,-0.01569007,0.2762,1.06335
122.844,18.6966,-0.01569,0.27646,1.06319
123.544,18.76478,-0.0156901,0.27645,1.06302
124.244,18.83309,-0.01642103,0.27767,1.06285
124.944,18.90152,-0.01648224,0.27657,1.06268
125.644,18.96977,-0.01699562,0.27726,1.06251
126.344,19.038,-0.01645795,0.2769,1.06234
127.044,19.1061,-0.01602131,0.27772,1.06217
127.744,19.1741,-0.01667462,0.27826,1.062
128.444,19.24243,-0.01694081,0.27955,1.06182
129.144,19.31032,-0.01799,0.27983,1.06165
129.844,19.3782,-0.01799,0.2789,1.06147
130.544,19.44611,-0.01798821,0.2807,1.06129
131.244,19.51409,-0.01668174,0.28133,1.06111
131.944,19.58231,-0.01667968,0.28089,1.06093
132.644,19.6502,-0.01800341,0.28371,1.06075
133.344,19.71806,-0.018,0.28202,1.06057
134.044,19.78603,-0.018,0.283,1.06039
134.744,19.85406,-0.01800013,0.28416,1.0602
135.444,19.92181,-0.01928531,0.2836,1.06002
136.144,19.9897,-0.01799054,0.28798,1.05983
136.844,20.0575,-0.01799,0.28726,1.05964
137.544,20.1255,-0.01799,0.28965,1.05946
138.244,20.19321,-0.01799,0.28942,1.05927
138.944,20.26117,-0.01799,0.28933,1.05908
139.644,20.329,-0.0179884,0.28986,1.05888
140.344,20.39653,-0.01834795,0.2903,1.05869
141.044,20.46387,-0.01831999,0.2918,1.0585
141.744,20.53086,-0.01832,0.29145,1.0583
142.444,20.5988,-0.01832,0.29124,1.05811
143.144,20.66678,-0.01832173,0.29439,1.05791
143.844,20.7351,-0.01963849,0.29476,1.05771
144.544,20.80281,-0.01963964,0.29583,1.05751
145.244,20.87034,-0.02096148,0.29781,1.05731
145.944,20.93809,-0.01929134,0.29625,1.05711
146.644,21.00583,-0.01933536,0.30004,1.05691
147.344,21.0736,-0.02061988,0.30244,1.05671
148.044,21.1414,-0.02052832,0.30251,1.0565
148.744,21.20909,-0.01931,0.30044,1.0563
149.444,21.27672,-0.01930382,0.30395,1.05609
150.144,21.3444,-0.02063046,0.30634,1.05588
150.844,21.41175,-0.02063,0.30812,1.05567
151.544,21.47887,-0.02063,0.30876,1.05546
152.244,21.54624,-0.02058037,0.31172,1.05525
152.944,21.61348,-0.02194026,0.31034,1.05504
153.644,21.68073,-0.02194,0.31196,1.05483
154.344,21.74774,-0.02193764,0.31458,1.05461
155.044,21.81475,-0.02326317,0.31535,1.0544
155.744,21.8821,-0.02326005,0.31908,1.05418
156.444,21.9494,-0.02324999,0.32134,1.05396
157.144,22.01666,-0.02341142,0.32315,1.05374
157.844,22.0839,-0.02325335,0.32367,1.05352
158.544,22.15127,-0.02326,0.32741,1.0533
159.244,22.21857,-0.02325992,0.3296,1.05308
159.944,22.28589,-0.02461321,0.3321,1.05286
160.644,22.3535,-0.02459346,0.33294,1.05264
161.344,22.42125,-0.02555979,0.33716,1.05241
162.044,22.48886,-0.02651526,0.33874,1.05219
162.744,22.5562,-0.0272001,0.34038,1.05196
163.444,22.62333,-0.0272,0.34112,1.05173
164.144,22.69022,-0.02720541,0.34574,1.0515
164.844,22.75733,-0.02852018,0.34728,1.05127
165.544,22.82459,-0.02842471,0.34864,1.05104
166.244,22.89208,-0.02984003,0.35178,1.05081
166.944,22.9592,-0.02984,0.35441,1.05058
167.644,23.02637,-0.02984013,0.3571,1.05034
168.344,23.09368,-0.03108068,0.36095,1.05011
169.044,23.1611,-0.03116003,0.36198,1.04987
169.744,23.2284,-0.03175403,0.36517,1.04963
170.444,23.29559,-0.03247632,0.3692,1.0494
171.144,23.36274,-0.03380348,0.37153,1.04916
171.844,23.42997,-0.03506138,0.37294,1.04892
172.544,23.49707,-0.03525769,0.37784,1.04867
173.244,23.56437,-0.03543912,0.38191,1.04843
173.944,23.6315,-0.03581812,0.38923,1.04819
174.644,23.69879,-0.03707914,0.39323,1.04794
175.344,23.76578,-0.0383926,0.39623,1.0477
176.044,23.83308,-0.03976006,0.40005,1.04745
176.744,23.90062,-0.03839814,0.40588,1.0472
177.444,23.96813,-0.04028426,0.40801,1.04696
178.144,24.03549,-0.04233975,0.41333,1.04671
178.844,24.10258,-0.04363437,0.41854,1.04645
179.544,24.16986,-0.04365997,0.42303,1.0462
180.244,24.23716,-0.04489825,0.42544,1.04595
180.944,24.3046,-0.04634629,0.43262,1.0457
181.644,24.37187,-0.04631193,0.43763,1.04544
182.344,24.43903,-0.0489197,0.44289,1.04519
183.044,24.50621,-0.0489132,0.4508,1.04493
183.744,24.57327,-0.05024131,0.45451,1.04467
184.444,24.64057,-0.05154135,0.45899,1.04441
185.144,24.70778,-0.05208651,0.46462,1.04415
185.844,24.7748,-0.05429914,0.47049,1.04389
186.544,24.84187,-0.05691727,0.47688,1.04363
187.244,24.90881,-0.0579065,0.48178,1.04337
187.944,24.97609,-0.0589799,0.48886,1.0431
188.644,25.04337,-0.05960756,0.49338,1.04284
189.344,25.11066,-0.06091405,0.49922,1.04257
190.044,25.17803,-0.06088051,0.50639,1.0423
190.744,25.24504,-0.06275508,0.51038,1.04204
191.444,25.31234,-0.06476947,0.51582,1.04177
192.144,25.37941,-0.06756724,0.52375,1.0415
192.844,25.44687,-0.06962492,0.52777,1.04123
193.544,25.5141,-0.07161991,0.53304,1.04095
194.244,25.5813,-0.07291676,0.53947,1.04068
194.944,25.64845,-0.07425825,0.54391,1.04041
195.644,25.71576,-0.07488584,0.54845,1.04013
196.344,25.78324,-0.07709821,0.55483,1.03985
197.044,25.85041,-0.07886759,0.56182,1.03958
197.744,25.9174,-0.08194323,0.56602,1.0393
198.444,25.98404,-0.08324937,0.57059,1.03902
199.144,26.0511,-0.08456657,0.57516,1.03874
199.844,26.11838,-0.08583983,0.58295,1.03846
200.544,26.18575,-0.08936934,0.58519,1.03818
201.244,26.25295,-0.09181427,0.59134,1.03789
201.944,26.31993,-0.09335252,0.59366,1.03761
202.644,26.38707,-0.09611157,0.59872,1.03732
203.344,26.45433,-0.09761668,0.60266,1.03704
204.044,26.5214,-0.09978289,0.60436,1.03675
204.744,26.5884,-0.10287,0.61017,1.03646
205.444,26.6554,-0.10578,0.61239,1.03617
206.144,26.72233,-0.10731,0.61619,1.03588
206.844,26.78943,-0.11038,0.61933,1.03559
207.544,26.85636,-0.11377,0.62378,1.0353
208.244,26.92322,-0.11526,0.62339,1.03501
208.944,26.99,-0.11773,0.62704,1.03471
209.644,27.05671,-0.119,0.62632,1.03442
210.344,27.1236,-0.12171,0.63193,1.03412
211.044,27.1904,-0.12372,0.63148,1.03383
211.744,27.25747,-0.12601,0.63222,1.03353
212.444,27.32436,-0.12879,0.63438,1.03323
213.144,27.3914,-0.1318,0.63554,1.03293
213.844,27.4579,-0.13437,0.63544,1.03263
214.544,27.52474,-0.13701,0.63294,1.03233
215.244,27.59167,-0.1388,0.63257,1.03202
215.944,27.6589,-0.14168,0.6338,1.03172
216.644,27.726,-0.14455,0.63132,1.03141
217.344,27.79291,-0.14732,0.63213,1.03111
218.044,27.85995,-0.14994,0.62832,1.0308
218.744,27.92701,-0.1531,0.62792,1.03049
219.444,27.9939,-0.15455,0.62574,1.03018
220.144,28.0608,-0.15719,0.6248,1.02987
220.844,28.12777,-0.16001,0.62234,1.02956
221.544,28.1947,-0.163,0.6197,1.02925
222.244,28.2616,-0.16485,0.61983,1.02894
222.944,28.3285,-0.16892,0.61443,1.02863
223.644,28.3955,-0.1715,0.613,1.02831
224.344,28.46244,-0.17453,0.60996,1.028
225.044,28.5293,-0.17736,0.60909,1.02768
225.744,28.596,-0.17913,0.60422,1.02736
226.444,28.6625,-0.18174,0.60193,1.02704
227.144,28.72922,-0.1834,0.59891,1.02673
227.844,28.7961,-0.18745,0.59482,1.0264
228.544,28.86311,-0.19042,0.59323,1.02608
229.244,28.93,-0.19339,0.59015,1.02576
229.944,28.99703,-0.19782,0.5887,1.02544
230.644,29.0641,-0.20071,0.58355,1.02511
231.344,29.131,-0.20359,0.58291,1.02479
232.044,29.19797,-0.20653,0.57673,1.02446
232.744,29.26496,-0.20886,0.57399,1.02414
233.444,29.332,-0.21079,0.57037,1.02381
234.144,29.39879,-0.21308,0.56779,1.02348
234.844,29.4657,-0.2176,0.56297,1.02315
235.544,29.5326,-0.2201,0.56098,1.02282
236.244,29.59968,-0.22621,0.55782,1.02249
236.944,29.66675,-0.22764,0.55412,1.02215
237.644,29.7338,-0.22956,0.55003,1.02182
238.344,29.80051,-0.23302,0.54719,1.02149
239.044,29.8674,-0.23835,0.54154,1.02115
239.744,29.9344,-0.24121,0.53917,1.02081
240.444,30.00135,-0.24411,0.53438,1.02048
241.144,30.06837,-0.24687,0.53162,1.02014
241.844,30.1353,-0.24879,0.52884,1.0198
242.544,30.20228,-0.25281,0.52657,1.01946
243.244,30.2692,-0.25678,0.52161,1.01912
243.944,30.3361,-0.26122,0.5176,1.01878
244.644,30.4031,-0.26446,0.51437,1.01843
245.344,30.4701,-0.26616,0.50911,1.01809
246.044,30.5368,-0.27071,0.50603,1.01775
246.744,30.6035,-0.27531,0.50325,1.0174
247.444,30.6703,-0.27828,0.50214,1.01705
248.144,30.7372,-0.28151,0.49765,1.01671
248.844,30.80422,-0.28632,0.49346,1.01636
249.544,30.8712,-0.28945,0.48844,1.01601
250.244,30.93802,-0.2934,0.48652,1.01566
250.944,31.0046,-0.29688,0.484,1.01531
251.644,31.0715,-0.30216,0.48041,1.01496
252.344,31.13839,-0.30581,0.47847,1.0146
253.044,31.2055,-0.30964,0.47325,1.01425
253.744,31.27246,-0.31431,0.46963,1.01389
254.444,31.33939,-0.31877,0.46662,1.01354
255.144,31.40614,-0.32196,0.46561,1.01318
255.844,31.4728,-0.32782,0.4613,1.01282
256.544,31.5393,-0.33214,0.45514,1.01247
257.244,31.60598,-0.3352,0.45648,1.01211
257.944,31.6726,-0.33836,0.45066,1.01175
258.644,31.7393,-0.34356,0.44829,1.01138
259.344,31.8062,-0.34774,0.4453,1.01102
260.044,31.873,-0.35552,0.44304,1.01066
260.744,31.93995,-0.35961,0.44038,1.0103
261.444,32.00694,-0.36461,0.43618,1.00993
262.144,32.07369,-0.36749,0.43237,1.00957
262.844,32.14052,-0.37452,0.42752,1.0092
263.544,32.20715,-0.37978,0.42397,1.00883
264.244,32.2739,-0.38379,0.4215,1.00846
264.944,32.34083,-0.38947,0.41716,1.00809
265.644,32.40772,-0.39599,0.41235,1.00772
266.344,32.4747,-0.4011,0.40931,1.00735
267.044,32.5415,-0.40824,0.4018,1.00698
267.744,32.60846,-0.41377,0.39886,1.00661
268.444,32.6753,-0.42005,0.39699,1.00623
269.144,32.74218,-0.42608,0.3868,1.00586
269.844,32.80914,-0.43206,0.39055,1.00548
270.544,32.87628,-0.43851,0.37925,1.00511
271.244,32.94321,-0.44528,0.37631,1.00473
271.944,33.01017,-0.45147,0.37165,1.00435
272.644,33.0769,-0.4601,0.36766,1.00397
273.344,33.1438,-0.46697,0.36394,1.00359
274.044,33.21099,-0.47399,0.35994,1.00321
274.744,33.27823,-0.48143,0.35552,1.00283
275.444,33.34547,-0.48849,0.34954,1.00245
276.144,33.41252,-0.49621,0.34608,1.00207
276.844,33.4794,-0.50449,0.34073,1.00168
277.544,33.5464,-0.51286,0.33598,1.0013
278.244,33.61333,-0.51971,0.33045,1.00091
278.944,33.6805,-0.52879,0.32715,1.00052
279.644,33.74758,-0.53723,0.32273,1.00014
280.344,33.81462,-0.54858,0.31637,0.99975
281.044,33.8817,-0.55391,0.31029,0.99936
281.744,33.9484,-0.56281,0.3048,0.99897
282.444,34.01517,-0.57131,0.30262,0.99858
283.144,34.08211,-0.58027,0.29506,0.99818
283.844,34.1494,-0.58882,0.2942,0.99779
284.544,34.2166,-0.59933,0.28678,0.9974
285.244,34.28376,-0.60677,0.28245,0.997
285.944,34.3508,-0.61607,0.27796,0.99661
286.644,34.41793,-0.62634,0.27356,0.99621
287.344,34.48522,-0.636,0.26721,0.99581
288.044,34.55252,-0.64582,0.26361,0.99542
288.744,34.61977,-0.65448,0.25871,0.99502
289.444,34.68678,-0.66614,0.25466,0.99462
290.144,34.75397,-0.67482,0.25113,0.99422
290.844,34.8213,-0.68523,0.24684,0.99382
291.544,34.88857,-0.69542,0.23943,0.99341
292.244,34.9557,-0.70326,0.23702,0.99301
292.944,35.02279,-0.71427,0.2339,0.99261
293.644,35.08995,-0.72437,0.22824,0.9922
294.344,35.1571,-0.73427,0.22492,0.9918
295.044,35.2243,-0.74424,0.21959,0.99139
295.744,35.29143,-0.75719,0.21392,0.99098
296.444,35.35862,-0.76705,0.2145,0.99057
297.144,35.4259,-0.77556,0.20897,0.99017
297.844,35.49315,-0.78743,0.20746,0.98976
298.544,35.56038,-0.79742,0.20115,0.98935
299.244,35.6275,-0.81095,0.20043,0.98893
299.944,35.6948,-0.82172,0.19587,0.98852
300.644,35.76215,-0.8311,0.19143,0.98811
301.344,35.8296,-0.8404,0.19164,0.9877
302.044,35.89683,-0.85125,0.18691,0.98728
302.744,35.96394,-0.86243,0.18374,0.98687
303.444,36.03119,-0.87485,0.18489,0.98645
304.144,36.09835,-0.88575,0.18232,0.98603
304.844,36.1659,-0.89649,0.18079,0.98561
305.544,36.2331,-0.90778,0.17744,0.98519
306.244,36.30048,-0.91757,0.1777,0.98478
306.944,36.36765,-0.92997,0.17433,0.98435
307.644,36.435,-0.94161,0.17407,0.98393
308.344,36.50243,-0.95241,0.17214,0.98351
309.044,36.5698,-0.96468,0.173,0.98309
309.744,36.63718,-0.97599,0.16988,0.98267
310.444,36.7044,-0.98831,0.17038,0.98224
311.144,36.77151,-1.0014,0.1712,0.98182
311.844,36.83892,-1.01335,0.16788,0.98139
312.544,36.90625,-1.0236,0.16837,0.98096
313.244,36.9737,-1.03544,0.16722,0.98053
313.944,37.04104,-1.04761,0.16702,0.98011
314.644,37.10837,-1.0595,0.1659,0.97968
315.344,37.17573,-1.07163,0.16449,0.97925
316.044,37.2429,-1.08452,0.16454,0.97882
316.744,37.31022,-1.09676,0.16496,0.97838
317.444,37.37768,-1.10874,0.16531,0.97795
318.144,37.44528,-1.12082,0.16553,0.97752
318.844,37.51282,-1.13384,0.16578,0.97709
319.544,37.58027,-1.14628,0.16789,0.97665
320.244,37.6477,-1.15831,0.16694,0.97621
320.944,37.7151,-1.17265,0.16643,0.97578
321.644,37.78192,-1.18443,0.16752,0.97534
322.344,37.84936,-1.19747,0.17136,0.9749
323.044,37.91686,-1.21201,0.1711,0.97446
323.744,37.98493,-1.22437,0.17143,0.97402
324.444,38.0525,-1.23707,0.17327,0.97358
325.144,38.12017,-1.25201,0.17223,0.97314
325.844,38.18779,-1.266,0.17205,0.9727
326.544,38.25554,-1.28002,0.17491,0.97226
327.244,38.3232,-1.29357,0.17389,0.97182
327.944,38.39071,-1.30846,0.17757,0.97137
328.644,38.45823,-1.32204,0.17861,0.97093
329.344,38.52556,-1.33704,0.18006,0.97048
330.044,38.59313,-1.35229,0.18236,0.97003
330.744,38.6607,-1.36646,0.18304,0.96959
331.444,38.72846,-1.38176,0.1853,0.96914
332.144,38.79612,-1.39772,0.18852,0.96869
332.844,38.86392,-1.41271,0.19101,0.96824
333.544,38.9315,-1.42848,0.19375,0.96779
334.244,38.99927,-1.44273,0.19511,0.96734
334.944,39.06687,-1.4587,0.19718,0.96689
335.644,39.1346,-1.47544,0.1989,0.96644
336.344,39.2025,-1.49131,0.2012,0.96598
337.044,39.27041,-1.50744,0.20385,0.96553
337.744,39.33818,-1.52517,0.2072,0.96507
338.444,39.40585,-1.54193,0.2114,0.96462
339.144,39.4735,-1.55981,0.21575,0.96416
339.844,39.54118,-1.57777,0.21625,0.9637
340.544,39.60877,-1.59395,0.21855,0.96325
341.244,39.6764,-1.61075,0.22237,0.96279
341.944,39.74409,-1.63043,0.22572,0.96233
342.644,39.81204,-1.64883,0.22908,0.96187
343.344,39.88001,-1.66727,0.23241,0.96141
344.044,39.9471,-1.68639,0.23302,0.96095
344.744,40.01498,-1.70526,0.23792,0.96048
345.444,40.08265,-1.72366,0.23821,0.96002
346.144,40.1512,-1.74392,0.24396,0.95956
346.844,40.2192,-1.76476,0.24678,0.95909
347.544,40.28705,-1.78438,0.24969,0.95863
348.244,40.3549,-1.80525,0.25118,0.95816
348.944,40.4226,-1.82725,0.25428,0.9577
349.644,40.49044,-1.84605,0.2554,0.95723
350.344,40.55839,-1.86772,0.25807,0.95676
351.044,40.6265,-1.89129,0.25671,0.95629
351.744,40.69454,-1.91104,0.25986,0.95582
352.444,40.76251,-1.93357,0.25961,0.95535
353.144,40.83047,-1.95569,0.26279,0.95488
353.844,40.8985,-1.97783,0.26288,0.95441
354.544,40.96658,-1.99977,0.26433,0.95394
355.244,41.0343,-2.02324,0.26085,0.95346
355.944,41.1021,-2.04603,0.26163,0.95299
356.644,41.17004,-2.07037,0.26154,0.95251
357.344,41.2382,-2.09319,0.26321,0.95204
358.044,41.30616,-2.11508,0.26021,0.95156
358.744,41.3742,-2.13798,0.25798,0.95109
359.444,41.442,-2.16051,0.25484,0.95061
360.144,41.5101,-2.18366,0.25351,0.95013
360.844,41.57802,-2.20637,0.24684,0.94965
361.544,41.64601,-2.22818,0.24434,0.94917
362.244,41.714,-2.25208,0.2376,0.94869
362.944,41.78181,-2.27378,0.23008,0.94821
363.644,41.84988,-2.29225,0.22414,0.94773
364.344,41.9178,-2.31364,0.21459,0.94725
365.044,41.98615,-2.33463,0.2054,0.94677
365.744,42.0541,-2.35299,0.19844,0.94628
366.444,42.12211,-2.37189,0.18774,0.9458
367.144,42.18963,-2.38971,0.17759,0.94531
367.844,42.25752,-2.40708,0.16527,0.94483
368.544,42.32555,-2.42244,0.15386,0.94434
369.244,42.39387,-2.43715,0.14081,0.94385
369.944,42.46179,-2.45156,0.12808,0.94336
370.644,42.52965,-2.46462,0.11556,0.94288
371.344,42.5976,-2.47695,0.10171,0.94239
372.044,42.66554,-2.48889,0.08918866,0.9419
372.744,42.7335,-2.49898,0.07901629,0.94141
373.444,42.80153,-2.50641,0.06435415,0.94092
374.144,42.86953,-2.51493,0.05645611,0.94042
374.844,42.93762,-2.52321,0.04779126,0.93993
375.544,43.0057,-2.52882,0.03711191,0.93944
376.244,43.0739,-2.53617,0.02963056,0.93894
376.944,43.142,-2.54211,0.02352985,0.93845
377.644,43.21008,-2.54741,0.01823533,0.93795
378.344,43.27811,-2.5503,0.01304281,0.93746
379.044,43.3462,-2.55531,0.00547133,0.93696
379.744,43.41407,-2.5603,0.005871374,0.93646
380.444,43.48214,-2.56331,-0.000207736,0.93597
381.144,43.55016,-2.56683,-0.004696744,0.93547
381.844,43.6184,-2.57142,-0.007123853,0.93497
382.544,43.68629,-2.57471,-0.00891054,0.93447
383.244,43.75431,-2.57679,-0.01510163,0.93397
383.944,43.82237,-2.58018,-0.0163055,0.93347
384.644,43.8904,-2.58267,-0.01904979,0.93297
385.344,43.9585,-2.58562,-0.02008002,0.93246
386.044,44.02644,-2.58866,-0.02290639,0.93196
386.744,44.09463,-2.59197,-0.02836289,0.93146
387.444,44.1627,-2.59495,-0.02974651,0.93095
388.144,44.231,-2.59788,-0.03011792,0.93045
388.844,44.29911,-2.59956,-0.0339445,0.92994
389.544,44.3673,-2.60358,-0.03598139,0.92943
390.244,44.4356,-2.60691,-0.03625039,0.92893
390.944,44.5038,-2.60989,-0.03843959,0.92842
391.644,44.57206,-2.61272,-0.03974071,0.92791
392.344,44.6402,-2.61511,-0.04264824,0.9274
393.044,44.70861,-2.61669,-0.04312482,0.92689
393.744,44.77701,-2.61832,-0.04672495,0.92638
394.444,44.84537,-2.62061,-0.0476294,0.92587
395.144,44.91381,-2.6239,-0.04960157,0.92536
395.844,44.98227,-2.62604,-0.04919577,0.92485
396.544,45.0508,-2.62908,-0.050887,0.92434
397.244,45.11926,-2.63062,-0.05291794,0.92382
397.944,45.18773,-2.63367,-0.055468,0.92331
398.644,45.25612,-2.6357,-0.05545737,0.92279
399.344,45.32441,-2.63821,-0.05654907,0.92228
400.044,45.39268,-2.64036,-0.05878927,0.92176
400.744,45.4611,-2.64381,-0.05653122,0.92125
401.444,45.52957,-2.64541,-0.0570168,0.92073
402.144,45.59791,-2.64842,-0.05933991,0.92021
402.844,45.66625,-2.65151,-0.05658896,0.91969
403.544,45.7347,-2.65355,-0.05705629,0.91917
404.244,45.80304,-2.65518,-0.05640544,0.91866
404.944,45.8714,-2.65648,-0.05746241,0.91814
405.644,45.93963,-2.65955,-0.05688086,0.91761
406.344,46.0081,-2.66235,-0.05840262,0.91709
407.044,46.07665,-2.66505,-0.05780069,0.91657
407.744,46.14521,-2.66642,-0.05733685,0.91605
408.444,46.21386,-2.66953,-0.05987995,0.91553
409.144,46.28242,-2.67144,-0.05961315,0.915
409.844,46.351,-2.67412,-0.06563524,0.91448
410.544,46.41956,-2.67645,-0.06116398,0.91395
411.244,46.48825,-2.67868,-0.0618254,0.91343
411.944,46.55677,-2.68054,-0.06283921,0.9129
412.644,46.6252,-2.68355,-0.06099328,0.91237
413.344,46.69362,-2.68555,-0.0618853,0.91185
414.044,46.7624,-2.68692,-0.06335482,0.91132
414.744,46.8311,-2.68832,-0.0625859,0.91079
415.444,46.89986,-2.69093,-0.0637474,0.91026
416.144,46.9686,-2.69386,-0.06530701,0.90973
416.844,47.03737,-2.69602,-0.06427541,0.9092
417.544,47.10613,-2.69935,-0.06343986,0.90867
418.244,47.1747,-2.7004,-0.060987,0.90814
418.944,47.2434,-2.70151,-0.06409222,0.90761
419.644,47.31197,-2.70444,-0.06003201,0.90707
420.344,47.38066,-2.70584,-0.05808215,0.90654
421.044,47.44925,-2.70837,-0.05879876,0.90601
421.744,47.51771,-2.71099,-0.0598135,0.90547
422.444,47.5861,-2.71391,-0.06128375,0.90494
423.144,47.65467,-2.71671,-0.05917004,0.9044
423.844,47.72291,-2.71902,-0.05802568,0.90387
424.544,47.79188,-2.72074,-0.05781638,0.90333
425.244,47.86073,-2.72256,-0.05790215,0.90279
425.944,47.93008,-2.72497,-0.05588696,0.90226
426.644,47.99883,-2.72625,-0.05756091,0.90172
427.344,48.0674,-2.72758,-0.05535297,0.90118
428.044,48.13606,-2.72822,-0.05523235,0.90064
428.744,48.20486,-2.7303,-0.05602871,0.9001
429.444,48.27373,-2.73401,-0.05410844,0.89956
430.144,48.34241,-2.73568,-0.05576714,0.89902
430.844,48.41114,-2.73815,-0.05252804,0.89848
431.544,48.47968,-2.73974,-0.05230001,0.89793
432.244,48.5484,-2.7426,-0.05041628,0.89739
432.944,48.61717,-2.74387,-0.05075505,0.89685
433.644,48.68603,-2.7466,-0.05205414,0.8963
434.344,48.75489,-2.74785,-0.04866662,0.89576
435.044,48.82349,-2.74914,-0.0481578,0.89522
435.744,48.89212,-2.75183,-0.04689222,0.89467
436.444,48.96072,-2.7536,-0.04366359,0.89412
437.144,49.02924,-2.75543,-0.04193516,0.89358
437.844,49.09795,-2.75674,-0.04157601,0.89303
438.544,49.16668,-2.75797,-0.03993904,0.89248
439.244,49.23578,-2.76064,-0.04114291,0.89193
439.944,49.3048,-2.76403,-0.04141487,0.89139
440.644,49.37366,-2.76574,-0.0373373,0.89084
441.344,49.44247,-2.76571,-0.03657991,0.89029
442.044,49.5111,-2.76758,-0.03676722,0.88974
442.744,49.57966,-2.77112,-0.03727142,0.88919
443.444,49.64832,-2.77302,-0.03495594,0.88864
444.144,49.71697,-2.77497,-0.0371656,0.88808
444.844,49.7858,-2.77647,-0.03595343,0.88753
445.544,49.85457,-2.77789,-0.03243224,0.88698
446.244,49.9235,-2.78016,-0.0328265,0.88642
446.944,49.99228,-2.78124,-0.03335609,0.88587
447.644,50.06093,-2.78209,-0.03037846,0.88532
448.344,50.1295,-2.7834,-0.03351257,0.88476
449.044,50.19842,-2.78472,-0.03059246,0.88421
449.744,50.2673,-2.78654,-0.02778457,0.88365
450.444,50.33605,-2.78844,-0.02798278,0.88309
451.144,50.4047,-2.79161,-0.02790888,0.88254
451.844,50.47343,-2.7915,-0.02671608,0.88198
452.544,50.54224,-2.79284,-0.02506553,0.88142
453.244,50.6111,-2.79575,-0.02722987,0.88086
453.944,50.6798,-2.79703,-0.02472786,0.8803
454.644,50.74855,-2.79832,-0.02661499,0.87974
455.344,50.81726,-2.79963,-0.02295233,0.87918
456.044,50.88613,-2.80213,-0.02185925,0.87862
456.744,50.955,-2.80356,-0.02174735,0.87806
457.444,51.024,-2.80364,-0.02081903,0.8775
458.144,51.09264,-2.80506,-0.02066988,0.87694
458.844,51.1616,-2.80758,-0.02228277,0.87638
459.544,51.23049,-2.80883,-0.02171513,0.87581
460.244,51.2997,-2.81022,-0.01984679,0.87525
460.944,51.36854,-2.8128,-0.02033918,0.87469
461.644,51.4375,-2.81358,-0.02149927,0.87412
462.344,51.50647,-2.81413,-0.02016168,0.87356
463.044,51.5755,-2.81692,-0.01909981,0.87299
463.744,51.6447,-2.81817,-0.02006869,0.87243
464.444,51.7137,-2.81946,-0.01963956,0.87186
465.144,51.78294,-2.82073,-0.01713972,0.87129
465.844,51.85187,-2.82212,-0.01812826,0.87073
466.544,51.921,-2.82353,-0.01906246,0.87016
467.244,51.99,-2.82613,-0.01737317,0.86959
467.944,52.05915,-2.82607,-0.01751287,0.86902
468.644,52.12827,-2.82864,-0.01810993,0.86845
469.344,52.1971,-2.82969,-0.01476742,0.86788
470.044,52.26628,-2.83103,-0.01461176,0.86731
470.744,52.33554,-2.83222,-0.01508939,0.86674
471.444,52.40507,-2.83394,-0.01295015,0.86617
472.144,52.47432,-2.83489,-0.01273672,0.8656
472.844,52.5434,-2.83494,-0.01456211,0.86503
473.544,52.6125,-2.83692,-0.01024607,0.86446
474.244,52.6815,-2.8388,-0.01121412,0.86388
474.944,52.75075,-2.84087,-0.01358232,0.86331
475.644,52.82014,-2.84194,-0.01193411,0.86274
476.344,52.88946,-2.84254,-0.01189054,0.86216
477.044,52.9586,-2.84384,-0.01434799,0.86159
477.744,53.0276,-2.84495,-0.01053658,0.86101
478.444,53.09669,-2.84515,-0.009117415,0.86044
479.144,53.1658,-2.84543,-0.0070093,0.85986
479.844,53.2348,-2.8492,-0.00672077,0.85928
480.544,53.304,-2.85045,-0.007420507,0.85871
481.244,53.37333,-2.8502,-0.00719334,0.85813
481.944,53.44248,-2.8508,-0.004833261,0.85755
482.644,53.51129,-2.85216,-0.005036695,0.85697
483.344,53.5803,-2.85349,-0.003386845,0.8564
484.044,53.64943,-2.8548,-0.001149214,0.85582
484.744,53.71859,-2.8561,0.003887887,0.85524
485.444,53.78762,-2.85732,0.008091429,0.85466
486.144,53.85674,-2.85711,0.008444435,0.85408
486.844,53.92618,-2.85842,0.00728885,0.8535
487.544,53.99553,-2.85973,0.009185878,0.85292
488.244,54.0648,-2.86066,0.01020379,0.85233
488.944,54.1337,-2.86238,0.01400529,0.85175
489.644,54.20287,-2.86369,0.01278665,0.85117
490.344,54.2721,-2.86369,0.01555915,0.85059
491.044,54.3415,-2.865,0.01540457,0.85
491.744,54.4107,-2.86633,0.0155142,0.84942
492.444,54.4801,-2.86763,0.01798939,0.84883
493.144,54.5494,-2.86895,0.01822038,0.84825
493.844,54.6187,-2.86895,0.02152541,0.84767
494.544,54.6879,-2.86919,0.0184073,0.84708
495.244,54.7571,-2.87028,0.02036154,0.84649
495.944,54.82625,-2.87146,0.01971265,0.84591
496.644,54.89544,-2.87195,0.02267474,0.84532
497.344,54.9648,-2.87286,0.01994763,0.84473
498.044,55.0342,-2.87649,0.02160383,0.84415
498.744,55.10363,-2.87685,0.02216014,0.84356
499.444,55.173,-2.87815,0.02326403,0.84297
500.144,55.2422,-2.87681,0.02281756,0.84238
500.844,55.31148,-2.87828,0.02586366,0.84179
501.544,55.38103,-2.88185,0.02450919,0.8412
502.244,55.4506,-2.88178,0.02580273,0.84061
502.944,55.52007,-2.88184,0.02723911,0.84002
503.644,55.58928,-2.88309,0.02425473,0.83943
504.344,55.65854,-2.88312,0.0261691,0.83884
505.044,55.72772,-2.88442,0.02583602,0.83825
505.744,55.79704,-2.88477,0.02760443,0.83766
506.444,55.8663,-2.88607,0.0305924,0.83707
507.144,55.93569,-2.88667,0.03073093,0.83647
507.844,56.0048,-2.88802,0.0323435,0.83588
508.544,56.074,-2.88935,0.03468325,0.83529
509.244,56.14314,-2.88934,0.03297548,0.83469
509.944,56.2126,-2.89068,0.03166561,0.8341
510.644,56.28215,-2.89198,0.03667243,0.83351
511.344,56.3518,-2.89244,0.03495511,0.83291
512.044,56.42096,-2.89332,0.03458264,0.83232
512.744,56.4902,-2.89331,0.03492682,0.83172
513.444,56.5593,-2.89593,0.03938852,0.83112
514.144,56.62879,-2.89726,0.03553097,0.83053
514.844,56.69803,-2.8972,0.03717423,0.82993
515.544,56.76744,-2.89725,0.03617252,0.82933
516.244,56.8367,-2.89799,0.03998191,0.82874
516.944,56.90616,-2.89974,0.04184842,0.82814
517.644,56.97549,-2.8986,0.04098254,0.82754
518.344,57.04495,-2.90044,0.039954,0.82694
519.044,57.11424,-2.90207,0.04033935,0.82634
519.744,57.1837,-2.90332,0.04224847,0.82574
520.444,57.2531,-2.90525,0.04201867,0.82514
521.144,57.32251,-2.90515,0.04300916,0.82454
521.844,57.3918,-2.90512,0.04511235,0.82394
522.544,57.4611,-2.90647,0.04475968,0.82334
523.244,57.5304,-2.90647,0.04253726,0.82274
523.944,57.59984,-2.90778,0.04356701,0.82214
524.644,57.6693,-2.90845,0.04449079,0.82154
525.344,57.73916,-2.9091,0.0454259,0.82094
526.044,57.80881,-2.90943,0.04683875,0.82034
526.744,57.87829,-2.91074,0.04659189,0.81973
527.444,57.9478,-2.91074,0.04382836,0.81913
528.144,58.017,-2.91073,0.04571425,0.81853
528.844,58.08642,-2.91208,0.04746615,0.81792
529.544,58.15563,-2.91336,0.04828574,0.81732
530.244,58.2254,-2.91472,0.04795768,0.81671
530.944,58.2948,-2.91601,0.05064175,0.81611
531.644,58.3646,-2.91728,0.04862591,0.8155
532.344,58.4343,-2.91732,0.05069317,0.8149
533.044,58.504,-2.91796,0.04966364,0.81429
533.744,58.57357,-2.91803,0.04691084,0.81369
534.444,58.6431,-2.9193,0.05038372,0.81308
535.144,58.7127,-2.92052,0.05169071,0.81247
535.844,58.7824,-2.92234,0.04940017,0.81187
536.544,58.852,-2.92236,0.0476006,0.81126
537.244,58.92161,-2.92304,0.04676248,0.81065
537.944,58.99115,-2.92303,0.04831751,0.81004
538.644,59.061,-2.92434,0.05016716,0.80944
539.344,59.13069,-2.92573,0.04831953,0.80883
540.044,59.20046,-2.925,0.04734926,0.80822
540.744,59.27018,-2.92632,0.04631995,0.80761
541.444,59.3401,-2.92632,0.04677059,0.807
542.144,59.40999,-2.92769,0.04603953,0.80639
542.844,59.4796,-2.92792,0.04743465,0.80578
543.544,59.54923,-2.92929,0.04724726,0.80517
544.244,59.6189,-2.93181,0.04702699,0.80456
544.944,59.68869,-2.93049,0.0456906,0.80395
545.644,59.7583,-2.9318,0.04583304,0.80334
546.344,59.82796,-2.9318,0.04579965,0.80273
547.044,59.8976,-2.93233,0.04252705,0.80211
547.744,59.96751,-2.93312,0.04376062,0.8015
548.444,60.03734,-2.93311,0.04382576,0.80089
549.144,60.10739,-2.93443,0.04089076,0.80028
549.844,60.1774,-2.93575,0.03929696,0.79966
550.544,60.2476,-2.93574,0.04091041,0.79905
551.244,60.31745,-2.9364,0.03809759,0.79844
551.944,60.38731,-2.93765,0.03553707,0.79782
552.644,60.4569,-2.93772,0.03644056,0.79721
553.344,60.52681,-2.93894,0.03439527,0.79659
554.044,60.5968,-2.93904,0.03046142,0.79598
554.744,60.66689,-2.939,0.03108612,0.79536
555.444,60.7367,-2.94027,0.03139453,0.79475
556.144,60.8065,-2.94167,0.02809673,0.79413
556.844,60.87634,-2.94167,0.02848543,0.79352
557.544,60.94615,-2.94236,0.02651923,0.7929
558.244,61.0161,-2.94299,0.02474878,0.79228
558.944,61.0861,-2.94306,0.02525873,0.79167
559.644,61.15619,-2.94358,0.0199556,0.79105
560.344,61.22594,-2.94364,0.02177834,0.79043
561.044,61.2957,-2.94492,0.0225988,0.78982
561.744,61.36558,-2.94757,0.02309934,0.7892
562.444,61.4354,-2.94759,0.01891782,0.78858
563.144,61.5053,-2.94834,0.02195458,0.78796
563.844,61.57519,-2.94892,0.02066972,0.78734
564.544,61.64479,-2.94892,0.02080506,0.78672
565.244,61.71465,-2.95019,0.02108408,0.7861
565.944,61.7846,-2.95053,0.01989656,0.78549
566.644,61.85501,-2.95155,0.01907315,0.78487
567.344,61.92508,-2.95215,0.01866457,0.78425
568.044,61.99516,-2.95254,0.01984237,0.78363
568.744,62.06527,-2.95153,0.02090215,0.783
569.444,62.13539,-2.95187,0.01758427,0.78238
570.144,62.2049,-2.95319,0.0160661,0.78176
570.844,62.27476,-2.9545,0.0152058,0.78114
571.544,62.3446,-2.95582,0.01587435,0.78052
572.244,62.4151,-2.95583,0.01665618,0.7799
572.944,62.48531,-2.95582,0.01522381,0.77928
573.644,62.5554,-2.95714,0.01588104,0.77866
574.344,62.62559,-2.95844,0.01354614,0.77803
575.044,62.6956,-2.95977,0.01518487,0.77741
575.744,62.7659,-2.95977,0.01245481,0.77679
576.444,62.83596,-2.95846,0.01548373,0.77616
577.144,62.90583,-2.95978,0.01494134,0.77554
577.844,62.97571,-2.96116,0.01336362,0.77492
578.544,63.0458,-2.96212,0.01411601,0.77429
579.244,63.11595,-2.96241,0.01359239,0.77367
579.944,63.186,-2.96241,0.01273339,0.77305
580.644,63.25591,-2.96241,0.01229424,0.77242
581.344,63.32581,-2.96371,0.01366417,0.7718
582.044,63.3958,-2.96372,0.01277211,0.77117
582.744,63.4657,-2.96375,0.01180299,0.77055
583.444,63.53575,-2.96442,0.01133203,0.76992
584.144,63.60576,-2.9645,0.01191543,0.7693
584.844,63.676,-2.96565,0.01284699,0.76867
585.544,63.7461,-2.96701,0.00980856,0.76804
586.244,63.81641,-2.96963,0.009772437,0.76742
586.944,63.8865,-2.96854,0.01388963,0.76679
587.644,63.9566,-2.96833,0.009542395,0.76616
588.344,64.02669,-2.96833,0.01224909,0.76554
589.044,64.09696,-2.96964,0.01024579,0.76491
589.744,64.1673,-2.96965,0.009822685,0.76428
590.444,64.23744,-2.96961,0.009648036,0.76366
591.144,64.3075,-2.97095,0.007843894,0.76303
591.844,64.37765,-2.97228,0.007266837,0.7624
592.544,64.4479,-2.97228,0.00590623,0.76177
593.244,64.51813,-2.97361,0.005137392,0.76114
593.944,64.5882,-2.97362,0.005759554,0.76052
594.644,64.65853,-2.97227,0.0082179,0.75989
595.344,64.72889,-2.97227,0.007518751,0.75926
596.044,64.79925,-2.97359,0.004738924,0.75863
596.744,64.86949,-2.97492,0.007779664,0.758
597.444,64.93975,-2.97753,0.00579371,0.75737
598.144,65.01014,-2.97852,0.00579671,0.75674
598.844,65.0804,-2.9788,0.002319721,0.75611
599.544,65.1507,-2.9782,0.009879308,0.75548
600.244,65.22104,-2.97885,0.005388606,0.75485
600.944,65.29093,-2.97885,0.00540803,0.75422
601.644,65.36112,-2.97885,0.005666839,0.75359
602.344,65.43128,-2.98017,0.005087322,0.75296
603.044,65.50227,-2.98135,0.002232506,0.75233
603.744,65.57267,-2.9815,0.005474238,0.7517
604.444,65.64317,-2.98149,0.004808082,0.75107
605.144,65.71332,-2.98285,0.004899967,0.75044
605.844,65.78379,-2.9828,0.00640157,0.7498
606.544,65.8541,-2.98364,0.007889696,0.74917
607.244,65.9246,-2.98314,0.005737836,0.74854
607.944,65.995,-2.98446,0.004974958,0.74791
608.644,66.0653,-2.98446,0.005023597,0.74728
609.344,66.1356,-2.98584,0.00690661,0.74664
610.044,66.2059,-2.98568,0.007325181,0.74601
610.744,66.27614,-2.98577,0.00574044,0.74538
611.444,66.3463,-2.98708,0.00579471,0.74474
612.144,66.41656,-2.98709,0.005120446,0.74411
612.844,66.48669,-2.9883,0.007543831,0.74348
613.544,66.55676,-2.9884,0.007239051,0.74285
614.244,66.6267,-2.98842,0.00724617,0.74221
614.944,66.6969,-2.98972,0.007959944,0.74158
615.644,66.76709,-2.98972,0.003860083,0.74094
616.344,66.83744,-2.99107,0.005405385,0.74031
617.044,66.90748,-2.99104,0.006939139,0.73968
617.744,66.97752,-2.99014,0.004940937,0.73904
618.444,67.04757,-2.99103,0.002766535,0.73841
619.144,67.11786,-2.99359,0.006872493,0.73777
619.844,67.18821,-2.99367,0.006127716,0.73714
620.544,67.25879,-2.99367,0.00565443,0.7365
621.244,67.32919,-2.99499,0.006726645,0.73587
621.944,67.39952,-2.99367,0.006307743,0.73523
622.644,67.4696,-2.99367,0.006190081,0.7346
623.344,67.5397,-2.99498,0.008030011,0.73396
624.044,67.61009,-2.99504,0.00766348,0.73333
624.744,67.68053,-2.9963,0.005782376,0.73269
625.444,67.75091,-2.9963,0.004121844,0.73205
626.144,67.82123,-2.99761,0.007057095,0.73142
626.844,67.89157,-2.99631,0.003570991,0.73078
627.544,67.96207,-2.9977,0.00281382,0.73015
628.244,68.03268,-2.9976,0.004296364,0.72951
628.944,68.1033,-2.99992,0.00655657,0.72887
629.644,68.1737,-2.99992,0.005610196,0.72824
630.344,68.24427,-2.99983,0.006447759,0.7276
631.044,68.3147,-3.00123,0.004266072,0.72696
631.744,68.38534,-3.00123,0.003212821,0.72633
632.444,68.45572,-3.00127,0.00441012,0.72569
633.144,68.52632,-3.00124,0.00363617,0.72505
633.844,68.5969,-3.00203,0.002864347,0.72441
634.544,68.66736,-3.00354,0.00283851,0.72378
635.244,68.7379,-3.00354,0.005389513,0.72314
635.944,68.80833,-3.00419,0.0008325492,0.7225
636.644,68.87889,-3.00485,0.0007931969,0.72186
637.344,68.94933,-3.00617,0.00158639,0.72123
638.044,69.01984,-3.00617,0.0008279278,0.72059
638.744,69.09034,-3.00655,0.002027485,0.71995
639.444,69.16079,-3.00682,0.00246912,0.71931
640.144,69.2313,-3.00682,0.005043021,0.71867
640.844,69.3018,-3.00677,0.001053787,0.71803
641.544,69.3724,-3.00814,0.001562295,0.7174
642.244,69.44289,-3.00791,-1.970797e-05,0.71676
642.944,69.51356,-3.00749,0.00178566,0.71612
643.644,69.58426,-3.0088,-0.0015859,0.71548
644.344,69.65504,-3.00881,-0.0005311962,0.71484
645.044,69.7255,-3.00995,0.00106883,0.7142
645.744,69.7961,-3.01012,0.00079397,0.71356
646.444,69.86675,-3.01007,-0.001897424,0.71292
647.144,69.9374,-3.01137,0.0009154418,0.71228
647.844,70.0076,-3.01276,0.0003113281,0.71164
648.544,70.07775,-3.01276,-0.000783759,0.711
649.244,70.14801,-3.01277,0.001043563,0.71037
649.944,70.2187,-3.01275,-0.00107723,0.70973
650.644,70.28934,-3.01275,0.00130049,0.70909
651.344,70.3599,-3.01275,-0.0001289872,0.70845
652.044,70.43029,-3.01407,-0.00077564,0.70781
652.744,70.50071,-3.01538,0.002335422,0.70717
653.444,70.5711,-3.01669,0.001025985,0.70653
654.144,70.64151,-3.0167,0.00264426,0.70589
654.844,70.7118,-3.01611,-0.000188052,0.70525
655.544,70.78233,-3.01534,0.00266534,0.7046
656.244,70.8529,-3.01803,0.000881232,0.70396
656.944,70.92354,-3.01771,0.00153931,0.70332
657.644,70.994,-3.01802,-0.000842553,0.70268
658.344,71.0642,-3.01888,0.00356776,0.70204
659.044,71.13441,-3.01934,-0.003114793,0.7014
659.744,71.20481,-3.01868,0.002482808,0.70076
660.444,71.27547,-3.01933,0.001640033,0.70012
661.144,71.34595,-3.01933,-0.0006866461,0.69948
661.844,71.4162,-3.0215,0.00185751,0.69884
662.544,71.48657,-3.02164,-0.002082938,0.6982
663.244,71.5569,-3.02156,0.0002344937,0.69756
663.944,71.62742,-3.02164,-0.00132577,0.69692
664.644,71.6978,-3.02164,-0.003992278,0.69627
665.344,71.76811,-3.02164,-0.00210216,0.69563
666.044,71.8386,-3.02164,-0.00462,0.69499
666.744,71.9092,-3.02295,-0.00575247,0.69435
667.444,71.97974,-3.02427,-0.001845205,0.69371
668.144,72.0501,-3.02427,-0.0035937,0.69307
668.844,72.12071,-3.02384,-0.00313203,0.69243
669.544,72.1914,-3.02328,-0.002275123,0.69178
670.244,72.26218,-3.02328,-0.006287572,0.69114
670.944,72.33274,-3.02459,-0.00703297,0.6905
671.644,72.40337,-3.02472,-0.008855116,0.68986
672.344,72.47411,-3.02485,-0.006211773,0.68922
673.044,72.54483,-3.02558,-0.003779655,0.68858
673.744,72.6156,-3.02557,-0.004007935,0.68793
674.444,72.68649,-3.0269,-0.00865709,0.68729
675.144,72.7573,-3.0269,-0.006238609,0.68665
675.844,72.82789,-3.02622,-0.009464563,0.68601
676.544,72.89854,-3.02757,-0.005802624,0.68537
677.244,72.96908,-3.02756,-0.009457775,0.68472
677.944,73.03965,-3.02887,-0.008973045,0.68408
678.644,73.11007,-3.02846,-0.01296615,0.68344
679.344,73.1808,-3.02804,-0.01031477,0.6828
680.044,73.2517,-3.03019,-0.01063929,0.68216
680.744,73.32266,-3.02888,-0.007381541,0.68151
681.444,73.39356,-3.0288,-0.01132036,0.68087
682.144,73.46436,-3.0302,-0.01074593,0.68023
682.844,73.53526,-3.0302,-0.01121331,0.67959
683.544,73.6061,-3.03021,-0.01137923,0.67895
684.244,73.67639,-3.03151,-0.01234971,0.6783
684.944,73.74678,-3.03151,-0.01359116,0.67766
685.644,73.8177,-3.03151,-0.01104463,0.67702
686.344,73.88916,-3.03283,-0.01153292,0.67638
687.044,73.96039,-3.03207,-0.009461097,0.67573
687.744,74.03115,-3.03255,-0.008137458,0.67509
688.444,74.1019,-3.03282,-0.01126167,0.67445
689.144,74.17267,-3.03381,-0.01079009,0.67381
689.844,74.2431,-3.03478,-0.00977752,0.67316
690.544,74.3133,-3.03393,-0.01406421,0.67252
691.244,74.38343,-3.03414,-0.01538135,0.67188
691.944,74.45392,-3.03413,-0.01556355,0.67124
692.644,74.5249,-3.03546,-0.01211748,0.67059
693.344,74.59568,-3.03676,-0.01258809,0.66995
694.044,74.66623,-3.03678,-0.01553495,0.66931
694.744,74.7368,-3.03665,-0.01800634,0.66867
695.444,74.80728,-3.03677,-0.01621108,0.66803
696.144,74.87787,-3.03544,-0.01417938,0.66738
696.844,74.94849,-3.03677,-0.0167007,0.66674
697.544,75.0192,-3.03677,-0.01770721,0.6661
698.244,75.08985,-3.03682,-0.01492585,0.66546
698.944,75.16042,-3.03808,-0.01752665,0.66481
699.644,75.23108,-3.0381,-0.02073704,0.66417
700.344,75.30165,-3.03941,-0.01847488,0.66353
701.044,75.37222,-3.03941,-0.02038628,0.66289
701.744,75.4428,-3.03808,-0.02210912,0.66224
702.444,75.51344,-3.03847,-0.02398826,0.6616
703.144,75.58405,-3.0394,-0.02223085,0.66096
703.844,75.65481,-3.03937,-0.02636897,0.66032
704.544,75.72583,-3.04062,-0.02439992,0.65967
705.244,75.79656,-3.04072,-0.02358432,0.65903
705.944,75.86747,-3.04072,-0.02678307,0.65839
706.644,75.9383,-3.04203,-0.02370621,0.65775
707.344,76.00949,-3.04203,-0.02609731,0.6571
708.044,76.08038,-3.04269,-0.02585936,0.65646
708.744,76.15123,-3.04268,-0.02669367,0.65582
709.444,76.22227,-3.04271,-0.02430391,0.65518
710.144,76.2932,-3.0427,-0.02723815,0.65454
710.844,76.3642,-3.0427,-0.02775154,0.65389
711.544,76.43519,-3.0427,-0.02630718,0.65325
712.244,76.50626,-3.04132,-0.02212889,0.65261
712.944,76.577,-3.04402,-0.02699049,0.65197
713.644,76.64783,-3.04347,-0.0256157,0.65133
714.344,76.7187,-3.04402,-0.02222541,0.65068
715.044,76.78962,-3.04399,-0.02383085,0.65004
715.744,76.86049,-3.04368,-0.02460893,0.6494
716.444,76.9315,-3.04315,-0.02488792,0.64876
717.144,77.00255,-3.04519,-0.02522047,0.64812
717.844,77.0737,-3.04544,-0.02475443,0.64747
718.544,77.1448,-3.04544,-0.0232315,0.64683
719.244,77.21588,-3.04544,-0.02524149,0.64619
719.944,77.2868,-3.04676,-0.02567464,0.64555
720.644,77.35759,-3.04676,-0.02085864,0.64491
721.344,77.42865,-3.0461,-0.02163139,0.64427
722.044,77.49956,-3.04609,-0.01923002,0.64362
722.744,77.57069,-3.04598,-0.01937096,0.64298
723.444,77.64153,-3.0471,-0.01733122,0.64234
724.144,77.71248,-3.0484,-0.02439985,0.6417
724.844,77.78345,-3.0484,-0.02254111,0.64106
725.544,77.85451,-3.0484,-0.01949408,0.64042
726.244,77.9257,-3.0484,-0.02248635,0.63978
726.944,77.99678,-3.04771,-0.02404819,0.63914
727.644,78.06778,-3.04905,-0.02393137,0.63849
728.344,78.1387,-3.04906,-0.02757527,0.63785
729.044,78.20947,-3.04906,-0.02540864,0.63721
729.744,78.28033,-3.04906,-0.02794889,0.63657
730.444,78.3511,-3.05035,-0.023318,0.63593
731.144,78.42209,-3.05037,-0.02333748,0.63529
731.844,78.4931,-3.05037,-0.02330951,0.63465
732.544,78.56402,-3.05103,-0.02520177,0.63401
733.244,78.63436,-3.05103,-0.02492589,0.63337
733.944,78.7048,-3.05103,-0.02099207,0.63273
734.644,78.77538,-3.05103,-0.02025788,0.63209
735.344,78.84658,-3.05198,-0.02562305,0.63145
736.044,78.91747,-3.05203,-0.02331219,0.63081
736.744,78.98821,-3.05234,-0.02436736,0.63017
737.444,79.05911,-3.05234,-0.02749433,0.62952
738.144,79.12999,-3.05301,-0.02584461,0.62888
738.844,79.20082,-3.05235,-0.0258094,0.62824
739.544,79.27159,-3.05235,-0.02386025,0.6276
740.244,79.34235,-3.05235,-0.02630554,0.62696
740.944,79.41315,-3.05235,-0.02535794,0.62632
741.644,79.484,-3.05251,-0.02308511,0.62569
742.344,79.5549,-3.05367,-0.02311008,0.62505
743.044,79.6259,-3.05367,-0.02164239,0.62441
743.744,79.69674,-3.05367,-0.02423946,0.62377
744.444,79.7679,-3.05498,-0.02394554,0.62313
745.144,79.839,-3.05498,-0.021114,0.62249
745.844,79.91023,-3.05498,-0.02623409,0.62185
746.544,79.98137,-3.05434,-0.02807102,0.62121
746.644,79.99161,-3.05432,-0.02861701,0.62112