File: 01_Data/Engineered_Flooring/STA/N2/10K_min/EF_STA_N2_10KData_211412_R3.csv
##Temp./Â°C,Time/min,Mass loss(subtr.2)/mg,DSC(subtr.2)/(mW/mg),Sensit./(uV/mW)
49.307,10.01,-0.06219,0.01740348,1.07447
50.007,10.762,-0.06659293,0.04846915,1.07442
50.707,10.96825,-0.06651522,0.07150372,1.07437
51.407,11.12306,-0.06771716,0.09096378,1.07432
52.107,11.2532,-0.06788016,0.10923,1.07427
52.807,11.36995,-0.06778336,0.12132,1.07422
53.507,11.47671,-0.06756742,0.13312,1.07416
54.207,11.57723,-0.06904411,0.1446,1.07411
54.907,11.67331,-0.06952555,0.15697,1.07405
55.607,11.76553,-0.0696604,0.16402,1.07399
56.307,11.8553,-0.07018856,0.17409,1.07394
57.007,11.9419,-0.07158604,0.17989,1.07388
57.707,12.02639,-0.07168584,0.18586,1.07381
58.407,12.1087,-0.07193194,0.1882,1.07375
59.107,12.19074,-0.07316008,0.19195,1.07369
59.807,12.27236,-0.07320113,0.19286,1.07362
60.507,12.35277,-0.0740884,0.19691,1.07356
61.207,12.4322,-0.0732656,0.20105,1.07349
61.907,12.51104,-0.07372636,0.20317,1.07342
62.607,12.5892,-0.07314256,0.20651,1.07336
63.307,12.66658,-0.07314963,0.21126,1.07329
64.007,12.74397,-0.07316062,0.21452,1.07321
64.707,12.82121,-0.07447615,0.21772,1.07314
65.407,12.8986,-0.07440857,0.22074,1.07307
66.107,12.97523,-0.07588474,0.22268,1.07299
66.807,13.05149,-0.07579071,0.22704,1.07292
67.507,13.12745,-0.0770985,0.22825,1.07284
68.207,13.2032,-0.07735925,0.23125,1.07276
68.907,13.2787,-0.07842114,0.23449,1.07268
69.607,13.3535,-0.07836949,0.23498,1.0726
70.307,13.4283,-0.07710516,0.242,1.07252
71.007,13.5033,-0.0784211,0.24268,1.07244
71.707,13.57814,-0.07973914,0.24623,1.07236
72.407,13.65267,-0.08102795,0.24918,1.07227
73.107,13.727,-0.08046369,0.25173,1.07218
73.807,13.801,-0.08105002,0.25601,1.0721
74.507,13.8748,-0.08104957,0.25805,1.07201
75.207,13.94844,-0.0817041,0.26004,1.07192
75.907,14.0221,-0.08237424,0.26349,1.07183
76.607,14.09537,-0.08287321,0.26618,1.07174
77.307,14.1687,-0.08365856,0.26779,1.07164
78.007,14.24177,-0.08462303,0.26879,1.07155
78.707,14.31468,-0.08500143,0.27048,1.07145
79.407,14.387,-0.08495023,0.27674,1.07136
80.107,14.45935,-0.08631743,0.27671,1.07126
80.807,14.5314,-0.08723891,0.27743,1.07116
81.507,14.60374,-0.08631053,0.27783,1.07106
82.207,14.67575,-0.08664212,0.28054,1.07096
82.907,14.74756,-0.08663665,0.28207,1.07086
83.607,14.8194,-0.08856907,0.28393,1.07076
84.307,14.8908,-0.08927001,0.28513,1.07065
85.007,14.96217,-0.08943409,0.28604,1.07055
85.707,15.03295,-0.09058778,0.28657,1.07044
86.407,15.1039,-0.09191377,0.28727,1.07033
87.107,15.1746,-0.09190359,0.28777,1.07022
87.807,15.24557,-0.09325547,0.28938,1.07011
88.507,15.3166,-0.09289004,0.28896,1.07
89.207,15.3873,-0.09399639,0.2877,1.06989
89.907,15.45779,-0.09551571,0.28616,1.06978
90.607,15.52806,-0.0948539,0.2881,1.06966
91.307,15.59866,-0.09487774,0.28653,1.06955
92.007,15.66875,-0.09619086,0.28429,1.06943
92.707,15.73891,-0.09620869,0.28553,1.06931
93.407,15.8087,-0.09585985,0.28403,1.06919
94.107,15.8787,-0.09719286,0.2823,1.06907
94.807,15.9482,-0.09848089,0.28138,1.06895
95.507,16.0179,-0.09849001,0.28038,1.06883
96.207,16.08752,-0.09961654,0.27874,1.06871
96.907,16.15718,-0.10073,0.27783,1.06858
97.607,16.2267,-0.1021,0.27821,1.06846
98.307,16.29606,-0.10211,0.27645,1.06833
99.007,16.36554,-0.10079,0.27346,1.0682
99.707,16.435,-0.1021,0.27274,1.06807
100.407,16.50433,-0.10338,0.27264,1.06794
101.107,16.57331,-0.10348,0.2691,1.06781
101.807,16.64227,-0.10343,0.26908,1.06768
102.507,16.71112,-0.10349,0.26948,1.06755
103.207,16.78023,-0.10343,0.26853,1.06741
103.907,16.8493,-0.10474,0.26785,1.06728
104.607,16.91825,-0.10474,0.26739,1.06714
105.307,16.98692,-0.10474,0.26623,1.067
106.007,17.05568,-0.10607,0.26682,1.06686
106.707,17.12441,-0.10527,0.26652,1.06672
107.407,17.1932,-0.10468,0.2647,1.06658
108.107,17.2617,-0.10606,0.26524,1.06644
108.807,17.33016,-0.10606,0.26427,1.0663
109.507,17.3988,-0.10606,0.26141,1.06615
110.207,17.46743,-0.10606,0.26123,1.06601
110.907,17.5362,-0.10738,0.26079,1.06586
111.607,17.60483,-0.10738,0.25993,1.06571
112.307,17.6733,-0.1087,0.25807,1.06556
113.007,17.7418,-0.1087,0.25741,1.06541
113.707,17.81036,-0.1087,0.25663,1.06526
114.407,17.87894,-0.11004,0.25494,1.06511
115.107,17.94746,-0.10869,0.25544,1.06495
115.807,18.01587,-0.10864,0.25577,1.0648
116.507,18.0845,-0.11001,0.25474,1.06464
117.207,18.15289,-0.11001,0.25378,1.06449
117.907,18.22117,-0.11132,0.25254,1.06433
118.607,18.28945,-0.10868,0.25302,1.06417
119.307,18.35782,-0.11,0.25482,1.06401
120.007,18.4261,-0.10993,0.25276,1.06385
120.707,18.49437,-0.11203,0.25103,1.06369
121.407,18.5625,-0.11198,0.25284,1.06352
122.107,18.63062,-0.112,0.25338,1.06336
122.807,18.69878,-0.1133,0.25368,1.06319
123.507,18.7671,-0.11196,0.25233,1.06303
124.207,18.83535,-0.11194,0.25328,1.06286
124.907,18.90354,-0.1133,0.25225,1.06269
125.607,18.9718,-0.11253,0.25149,1.06252
126.307,19.04007,-0.11133,0.25241,1.06235
127.007,19.10834,-0.11263,0.25544,1.06218
127.707,19.17628,-0.11459,0.25387,1.06201
128.407,19.24421,-0.11462,0.25373,1.06183
129.107,19.3122,-0.11378,0.25652,1.06166
129.807,19.38017,-0.1133,0.25404,1.06148
130.507,19.44799,-0.11461,0.25743,1.0613
131.207,19.51588,-0.11461,0.25728,1.06112
131.907,19.58383,-0.11461,0.25973,1.06094
132.607,19.6522,-0.1146,0.25856,1.06076
133.307,19.72009,-0.11659,0.25919,1.06058
134.007,19.7879,-0.11658,0.26015,1.0604
134.707,19.8557,-0.11527,0.26126,1.06021
135.407,19.92355,-0.1166,0.26087,1.06003
136.107,19.99144,-0.11659,0.26224,1.05984
136.807,20.05936,-0.11725,0.26441,1.05965
137.507,20.12734,-0.11724,0.26381,1.05947
138.207,20.19529,-0.11724,0.26372,1.05928
138.907,20.2631,-0.11588,0.26608,1.05909
139.607,20.3309,-0.1166,0.26644,1.05889
140.307,20.39881,-0.11791,0.2679,1.0587
141.007,20.46615,-0.11791,0.26826,1.05851
141.707,20.53369,-0.11796,0.26914,1.05831
142.407,20.60131,-0.1186,0.26925,1.05812
143.107,20.66914,-0.11984,0.27014,1.05792
143.807,20.73682,-0.12055,0.27193,1.05772
144.507,20.8044,-0.12053,0.27391,1.05752
145.207,20.87217,-0.12051,0.27411,1.05732
145.907,20.94,-0.12152,0.2756,1.05712
146.607,21.00766,-0.12152,0.27712,1.05692
147.307,21.07507,-0.12099,0.27837,1.05672
148.007,21.14254,-0.12154,0.27869,1.05651
148.707,21.21,-0.12284,0.28147,1.05631
149.407,21.27745,-0.12346,0.28371,1.0561
150.107,21.34473,-0.12415,0.28422,1.05589
150.807,21.41166,-0.12415,0.28366,1.05568
151.507,21.47899,-0.12415,0.28666,1.05547
152.207,21.54624,-0.12551,0.28834,1.05526
152.907,21.614,-0.12452,0.29011,1.05505
153.607,21.68156,-0.12415,0.29204,1.05484
154.307,21.749,-0.12449,0.29233,1.05462
155.007,21.81646,-0.12677,0.29521,1.05441
155.707,21.8838,-0.12679,0.29727,1.05419
156.407,21.95129,-0.12679,0.29833,1.05397
157.107,22.01855,-0.12679,0.30033,1.05376
157.807,22.0858,-0.12688,0.30177,1.05354
158.507,22.15286,-0.1281,0.3037,1.05332
159.207,22.22022,-0.1281,0.306,1.05309
159.907,22.28744,-0.1281,0.30749,1.05287
160.607,22.3548,-0.12909,0.3104,1.05265
161.307,22.422,-0.1291,0.31249,1.05242
162.007,22.48937,-0.13041,0.31561,1.0522
162.707,22.55657,-0.13173,0.31684,1.05197
163.407,22.62334,-0.13173,0.3191,1.05174
164.107,22.69041,-0.13173,0.32078,1.05151
164.807,22.75771,-0.13206,0.32551,1.05128
165.507,22.8251,-0.13206,0.32723,1.05105
166.207,22.8926,-0.13242,0.32938,1.05082
166.907,22.9598,-0.13335,0.33209,1.05059
167.607,23.0272,-0.13467,0.33544,1.05035
168.307,23.09434,-0.13469,0.3385,1.05012
169.007,23.16143,-0.13574,0.33952,1.04988
169.707,23.22855,-0.13732,0.34491,1.04965
170.407,23.2958,-0.13788,0.34712,1.04941
171.107,23.36298,-0.13995,0.35063,1.04917
171.807,23.4301,-0.13995,0.35459,1.04893
172.507,23.49713,-0.13995,0.35821,1.04869
173.207,23.56427,-0.14,0.36308,1.04844
173.907,23.63155,-0.14175,0.36427,1.0482
174.607,23.69882,-0.14254,0.36862,1.04796
175.307,23.76594,-0.14486,0.37364,1.04771
176.007,23.833,-0.14525,0.376,1.04746
176.707,23.9,-0.1439,0.38142,1.04722
177.407,23.96716,-0.14654,0.38589,1.04697
178.107,24.03422,-0.14785,0.39153,1.04672
178.807,24.10131,-0.14917,0.39484,1.04647
179.507,24.16858,-0.14917,0.3975,1.04622
180.207,24.23585,-0.15005,0.40227,1.04596
180.907,24.30317,-0.15245,0.40733,1.04571
181.607,24.37034,-0.15311,0.4128,1.04545
182.307,24.43741,-0.15527,0.41689,1.0452
183.007,24.50437,-0.1567,0.42242,1.04494
183.707,24.57139,-0.15803,0.42697,1.04468
184.407,24.63849,-0.15805,0.43297,1.04443
185.107,24.7058,-0.15938,0.43888,1.04417
185.807,24.77306,-0.16069,0.44299,1.0439
186.507,24.8403,-0.16137,0.44832,1.04364
187.207,24.9075,-0.16213,0.45391,1.04338
187.907,24.97449,-0.16371,0.46097,1.04312
188.607,25.04146,-0.16675,0.46475,1.04285
189.307,25.10839,-0.16781,0.47074,1.04258
190.007,25.17537,-0.17111,0.47742,1.04232
190.707,25.24255,-0.1727,0.48117,1.04205
191.407,25.30967,-0.17317,0.48786,1.04178
192.107,25.37686,-0.17445,0.49449,1.04151
192.807,25.4439,-0.17601,0.49821,1.04124
193.507,25.5111,-0.17832,0.50526,1.04097
194.207,25.57827,-0.18107,0.51388,1.04069
194.907,25.64527,-0.18244,0.51676,1.04042
195.607,25.71221,-0.18447,0.52427,1.04015
196.307,25.77915,-0.18565,0.52886,1.03987
197.007,25.84625,-0.18838,0.53419,1.03959
197.707,25.91324,-0.19034,0.53694,1.03931
198.407,25.98027,-0.19327,0.54535,1.03903
199.107,26.0473,-0.19489,0.5491,1.03875
199.807,26.11395,-0.19723,0.55313,1.03847
200.507,26.18091,-0.1997,0.56111,1.03819
201.207,26.24802,-0.20139,0.5654,1.03791
201.907,26.3156,-0.20364,0.57007,1.03762
202.607,26.3826,-0.20629,0.57261,1.03734
203.307,26.4495,-0.20892,0.5788,1.03705
204.007,26.51636,-0.21027,0.58128,1.03677
204.707,26.5831,-0.21182,0.58436,1.03648
205.407,26.6499,-0.21443,0.5876,1.03619
206.107,26.7169,-0.21728,0.59073,1.0359
206.807,26.78432,-0.22027,0.59433,1.03561
207.507,26.8514,-0.22235,0.59507,1.03532
208.207,26.91842,-0.22532,0.59909,1.03502
208.907,26.9854,-0.22722,0.60119,1.03473
209.607,27.0526,-0.23054,0.6025,1.03443
210.307,27.11942,-0.23308,0.60371,1.03414
211.007,27.1862,-0.23609,0.60428,1.03384
211.707,27.25275,-0.23864,0.60543,1.03354
212.407,27.31969,-0.24033,0.60628,1.03324
213.107,27.38666,-0.24359,0.60779,1.03294
213.807,27.4539,-0.24607,0.60994,1.03264
214.507,27.521,-0.24858,0.60944,1.03234
215.207,27.58832,-0.25161,0.60798,1.03204
215.907,27.6554,-0.25288,0.60833,1.03173
216.607,27.72242,-0.25583,0.60809,1.03143
217.307,27.78952,-0.25894,0.6061,1.03112
218.007,27.85663,-0.26224,0.60126,1.03082
218.707,27.92357,-0.26468,0.60234,1.03051
219.407,27.99052,-0.26732,0.59966,1.0302
220.107,28.05753,-0.2701,0.59737,1.02989
220.807,28.12463,-0.27311,0.59994,1.02958
221.507,28.19179,-0.27624,0.59657,1.02927
222.207,28.2589,-0.27904,0.59377,1.02896
222.907,28.32602,-0.28313,0.5908,1.02864
223.607,28.3931,-0.2855,0.58851,1.02833
224.307,28.46016,-0.28759,0.58301,1.02801
225.007,28.52705,-0.29039,0.58264,1.0277
225.707,28.59403,-0.29324,0.58253,1.02738
226.407,28.6609,-0.29718,0.57797,1.02706
227.107,28.72805,-0.30052,0.57574,1.02674
227.807,28.7951,-0.30197,0.57274,1.02642
228.507,28.86218,-0.30504,0.5702,1.0261
229.207,28.92907,-0.30813,0.56613,1.02578
229.907,28.9959,-0.31182,0.56443,1.02546
230.607,29.063,-0.31556,0.56264,1.02513
231.307,29.12971,-0.31663,0.55942,1.02481
232.007,29.19649,-0.32114,0.55734,1.02448
232.707,29.2631,-0.32333,0.55509,1.02415
233.407,29.3302,-0.32643,0.55188,1.02383
234.107,29.3972,-0.32921,0.54889,1.0235
234.807,29.4641,-0.33252,0.5438,1.02317
235.507,29.53108,-0.33644,0.54155,1.02284
236.207,29.5978,-0.33945,0.54015,1.0225
236.907,29.6647,-0.34241,0.53437,1.02217
237.607,29.7314,-0.34522,0.53357,1.02184
238.307,29.79842,-0.34906,0.53098,1.0215
239.007,29.8652,-0.3509,0.5282,1.02117
239.707,29.932,-0.35476,0.52334,1.02083
240.407,29.9988,-0.35833,0.52065,1.0205
241.107,30.06536,-0.36185,0.51714,1.02016
241.807,30.132,-0.36616,0.51209,1.01982
242.507,30.1986,-0.36896,0.51073,1.01948
243.207,30.2655,-0.37164,0.50688,1.01914
243.907,30.33225,-0.37659,0.50338,1.0188
244.607,30.399,-0.3798,0.50197,1.01845
245.307,30.4657,-0.38337,0.49691,1.01811
246.007,30.5323,-0.38711,0.49421,1.01776
246.707,30.599,-0.39211,0.49026,1.01742
247.407,30.6654,-0.39616,0.48725,1.01707
248.107,30.73232,-0.40009,0.48223,1.01672
248.807,30.79908,-0.40243,0.48035,1.01638
249.507,30.86577,-0.40564,0.47991,1.01603
250.207,30.93267,-0.41091,0.47503,1.01568
250.907,30.99938,-0.41619,0.47208,1.01533
251.607,31.0662,-0.41846,0.4685,1.01497
252.307,31.13298,-0.42178,0.46569,1.01462
253.007,31.1996,-0.4274,0.46491,1.01427
253.707,31.26636,-0.43201,0.45922,1.01391
254.407,31.333,-0.43536,0.45519,1.01356
255.107,31.39967,-0.43913,0.45222,1.0132
255.807,31.46664,-0.44389,0.44846,1.01284
256.507,31.5335,-0.44932,0.44357,1.01248
257.207,31.6002,-0.45322,0.44188,1.01212
257.907,31.6668,-0.45846,0.43912,1.01176
258.607,31.7336,-0.46243,0.43469,1.0114
259.307,31.8006,-0.46727,0.43219,1.01104
260.007,31.8675,-0.47371,0.42778,1.01068
260.707,31.93393,-0.47891,0.42425,1.01031
261.407,32.0008,-0.48288,0.42177,1.00995
262.107,32.06751,-0.48996,0.415,1.00958
262.807,32.1346,-0.49412,0.41288,1.00922
263.507,32.2016,-0.49907,0.40814,1.00885
264.207,32.26845,-0.5058,0.40567,1.00848
264.907,32.33555,-0.51094,0.40025,1.00811
265.607,32.40258,-0.51933,0.39637,1.00774
266.307,32.4694,-0.52426,0.39265,1.00737
267.007,32.53638,-0.52903,0.38884,1.007
267.707,32.60326,-0.53464,0.38412,1.00663
268.407,32.67052,-0.54158,0.37977,1.00625
269.107,32.73747,-0.54797,0.3739,1.00588
269.807,32.8042,-0.5537,0.36985,1.0055
270.507,32.8712,-0.56071,0.36511,1.00513
271.207,32.93822,-0.5667,0.36224,1.00475
271.907,33.00546,-0.57522,0.35852,1.00437
272.607,33.07268,-0.58326,0.35546,1.00399
273.307,33.1396,-0.58908,0.3504,1.00361
274.007,33.20664,-0.59682,0.34478,1.00323
274.707,33.2733,-0.60477,0.33947,1.00285
275.407,33.34016,-0.61195,0.33314,1.00247
276.107,33.40703,-0.61848,0.33067,1.00209
276.807,33.47392,-0.62679,0.32575,1.0017
277.507,33.54083,-0.63535,0.31928,1.00132
278.207,33.60755,-0.64413,0.31792,1.00093
278.907,33.67468,-0.65315,0.30872,1.00054
279.607,33.7416,-0.66162,0.30342,1.00016
280.307,33.80881,-0.66977,0.30239,0.99977
281.007,33.87579,-0.67924,0.29717,0.99938
281.707,33.94272,-0.68668,0.29051,0.99899
282.407,34.00956,-0.69568,0.28788,0.9986
283.107,34.07628,-0.70517,0.28402,0.9982
283.807,34.14325,-0.71404,0.27778,0.99781
284.507,34.21011,-0.72406,0.27184,0.99742
285.207,34.27708,-0.73277,0.26818,0.99702
285.907,34.34393,-0.74214,0.26205,0.99663
286.607,34.41107,-0.75156,0.25773,0.99623
287.307,34.4782,-0.76066,0.25281,0.99584
288.007,34.54529,-0.77035,0.25008,0.99544
288.707,34.61241,-0.78044,0.24621,0.99504
289.407,34.67969,-0.79123,0.24368,0.99464
290.107,34.74649,-0.80127,0.23601,0.99424
290.807,34.81355,-0.81148,0.23214,0.99384
291.507,34.88077,-0.82185,0.22706,0.99344
292.207,34.94811,-0.83172,0.22682,0.99303
292.907,35.01542,-0.84226,0.22147,0.99263
293.607,35.08218,-0.8527,0.21597,0.99222
294.307,35.14926,-0.8643,0.21201,0.99182
295.007,35.21633,-0.87485,0.20856,0.99141
295.707,35.28369,-0.88532,0.20502,0.991
296.407,35.351,-0.89628,0.20118,0.9906
297.107,35.41816,-0.9052,0.1978,0.99019
297.807,35.48537,-0.91703,0.19519,0.98978
298.507,35.5526,-0.92866,0.19151,0.98937
299.207,35.61988,-0.93899,0.18759,0.98896
299.907,35.6871,-0.95104,0.18599,0.98854
300.607,35.75419,-0.96207,0.18154,0.98813
301.307,35.82168,-0.9719,0.17781,0.98772
302.007,35.88888,-0.98224,0.17652,0.9873
302.707,35.95644,-0.99284,0.17517,0.98689
303.407,36.0237,-1.00437,0.16972,0.98647
304.107,36.09118,-1.01537,0.16848,0.98605
304.807,36.15851,-1.02747,0.16705,0.98564
305.507,36.22589,-1.04021,0.16617,0.98522
306.207,36.2931,-1.05207,0.16229,0.9848
306.907,36.3605,-1.06301,0.16326,0.98438
307.607,36.4278,-1.07507,0.15907,0.98396
308.307,36.49495,-1.08638,0.15755,0.98353
309.007,36.56216,-1.09858,0.1566,0.98311
309.707,36.6295,-1.11179,0.15551,0.98269
310.407,36.6969,-1.12282,0.15552,0.98226
311.107,36.76448,-1.13326,0.15557,0.98184
311.807,36.83174,-1.14539,0.15413,0.98141
312.507,36.89894,-1.15863,0.15464,0.98099
313.207,36.96621,-1.16935,0.15128,0.98056
313.907,37.03352,-1.1818,0.15189,0.98013
314.607,37.10086,-1.19419,0.15201,0.9797
315.307,37.16817,-1.20707,0.14879,0.97927
316.007,37.23552,-1.2193,0.15004,0.97884
316.707,37.3026,-1.23283,0.15099,0.97841
317.407,37.36988,-1.24414,0.14933,0.97798
318.107,37.4371,-1.25669,0.1506,0.97754
318.807,37.50466,-1.27058,0.15172,0.97711
319.507,37.57178,-1.28337,0.14924,0.97667
320.207,37.63923,-1.29599,0.15176,0.97624
320.907,37.70643,-1.3087,0.15094,0.9758
321.607,37.7742,-1.32199,0.15367,0.97536
322.307,37.84154,-1.33563,0.15337,0.97493
323.007,37.90896,-1.3492,0.15442,0.97449
323.707,37.97612,-1.36386,0.15631,0.97405
324.407,38.0435,-1.37923,0.15434,0.97361
325.107,38.11095,-1.39097,0.15586,0.97317
325.807,38.17861,-1.40569,0.1589,0.97273
326.507,38.2463,-1.41955,0.15943,0.97228
327.207,38.3138,-1.43228,0.1632,0.97184
327.907,38.38134,-1.44695,0.16272,0.9714
328.607,38.4488,-1.46371,0.16277,0.97095
329.307,38.51645,-1.47857,0.16686,0.9705
330.007,38.58408,-1.49196,0.16832,0.97006
330.707,38.65166,-1.50766,0.17002,0.96961
331.407,38.71922,-1.52322,0.17216,0.96916
332.107,38.78676,-1.53831,0.17722,0.96871
332.807,38.85395,-1.55354,0.17838,0.96826
333.507,38.92136,-1.56973,0.1763,0.96781
334.207,38.9889,-1.58543,0.1804,0.96736
334.907,39.0569,-1.60192,0.18391,0.96691
335.607,39.1248,-1.61929,0.18311,0.96646
336.307,39.1924,-1.63481,0.18877,0.96601
337.007,39.26011,-1.65135,0.18886,0.96555
337.707,39.3278,-1.66902,0.19482,0.9651
338.407,39.3956,-1.68684,0.19778,0.96464
339.107,39.4633,-1.7028,0.20029,0.96419
339.807,39.53105,-1.72074,0.20357,0.96373
340.507,39.5987,-1.73884,0.20332,0.96327
341.207,39.66646,-1.75506,0.2079,0.96281
341.907,39.7343,-1.77481,0.20869,0.96235
342.607,39.8022,-1.79374,0.21122,0.96189
343.307,39.87,-1.81301,0.21336,0.96143
344.007,39.93797,-1.83162,0.21691,0.96097
344.707,40.0059,-1.85151,0.22246,0.96051
345.407,40.0741,-1.87176,0.22621,0.96005
346.107,40.1421,-1.89047,0.22773,0.95958
346.807,40.21015,-1.91264,0.23103,0.95912
347.507,40.27823,-1.93408,0.23303,0.95865
348.207,40.34628,-1.95231,0.23544,0.95819
348.907,40.4141,-1.97375,0.23592,0.95772
349.607,40.482,-1.997,0.2402,0.95725
350.307,40.55001,-2.01757,0.24254,0.95678
351.007,40.61822,-2.03994,0.24371,0.95632
351.707,40.68626,-2.06287,0.24513,0.95585
352.407,40.7543,-2.08526,0.24762,0.95538
353.107,40.8223,-2.10785,0.24891,0.95491
353.807,40.8904,-2.1301,0.24906,0.95443
354.507,40.95851,-2.15424,0.25111,0.95396
355.207,41.02648,-2.17711,0.24903,0.95349
355.907,41.0944,-2.19942,0.2513,0.95301
356.607,41.16217,-2.22295,0.24926,0.95254
357.307,41.23028,-2.24692,0.24809,0.95206
358.007,41.29821,-2.26935,0.24925,0.95159
358.707,41.36622,-2.29365,0.24653,0.95111
359.407,41.43398,-2.31591,0.24561,0.95063
360.107,41.50172,-2.33864,0.24039,0.95016
360.807,41.5695,-2.3628,0.23944,0.94968
361.507,41.63701,-2.38547,0.23597,0.9492
362.207,41.70493,-2.4063,0.22943,0.94872
362.907,41.7726,-2.42785,0.22489,0.94824
363.607,41.8407,-2.45038,0.21869,0.94776
364.307,41.90862,-2.47041,0.21084,0.94727
365.007,41.97677,-2.49131,0.19974,0.94679
365.707,42.04481,-2.51109,0.19217,0.94631
366.407,42.11274,-2.53024,0.18147,0.94582
367.107,42.1807,-2.54719,0.17092,0.94534
367.807,42.24836,-2.56513,0.16168,0.94485
368.507,42.3163,-2.58127,0.1532,0.94437
369.207,42.38408,-2.59749,0.13648,0.94388
369.907,42.45189,-2.61048,0.12581,0.94339
370.607,42.5199,-2.62521,0.11545,0.9429
371.307,42.58815,-2.63701,0.10321,0.94241
372.007,42.65648,-2.64791,0.09013585,0.94192
372.707,42.72445,-2.65788,0.08061267,0.94143
373.407,42.79222,-2.66801,0.06925167,0.94094
374.107,42.86012,-2.67351,0.05883176,0.94045
374.807,42.9283,-2.6817,0.0507235,0.93996
375.507,42.99668,-2.69045,0.04298151,0.93946
376.207,43.0649,-2.69608,0.0341062,0.93897
376.907,43.13275,-2.7019,0.02741613,0.93848
377.607,43.20078,-2.70688,0.02365833,0.93798
378.307,43.2687,-2.71091,0.01780416,0.93748
379.007,43.33675,-2.7143,0.01285675,0.93699
379.707,43.40439,-2.72033,0.00901252,0.93649
380.407,43.47234,-2.7243,0.005517182,0.93599
381.107,43.54034,-2.72782,0.001170832,0.93549
381.807,43.6084,-2.73277,-0.000387664,0.935
382.507,43.6763,-2.73508,-0.004594484,0.9345
383.207,43.74413,-2.73933,-0.008287806,0.934
383.907,43.81219,-2.74093,-0.008436928,0.93349
384.607,43.88042,-2.74383,-0.01117617,0.93299
385.307,43.94873,-2.74732,-0.0150143,0.93249
386.007,44.0169,-2.75028,-0.01784042,0.93199
386.707,44.08508,-2.75365,-0.01773841,0.93148
387.407,44.15331,-2.75773,-0.02364855,0.93098
388.107,44.2215,-2.76076,-0.02266001,0.93047
388.807,44.28955,-2.76201,-0.02488566,0.92997
389.507,44.35738,-2.76368,-0.02549018,0.92946
390.207,44.42544,-2.7681,-0.02903768,0.92895
390.907,44.4937,-2.77082,-0.03020233,0.92845
391.607,44.56204,-2.77204,-0.03185019,0.92794
392.307,44.63025,-2.77463,-0.02905021,0.92743
393.007,44.69829,-2.77669,-0.03220376,0.92692
393.707,44.76639,-2.77985,-0.03217299,0.92641
394.407,44.83452,-2.78398,-0.03432869,0.9259
395.107,44.90289,-2.78708,-0.03613999,0.92539
395.807,44.97126,-2.7883,-0.03737043,0.92488
396.507,45.03968,-2.79018,-0.03926045,0.92436
397.207,45.1079,-2.79307,-0.03866336,0.92385
397.907,45.1763,-2.79496,-0.04287002,0.92334
398.607,45.24443,-2.79862,-0.04316538,0.92282
399.307,45.31268,-2.80201,-0.04427677,0.92231
400.007,45.38105,-2.80545,-0.04509075,0.92179
400.707,45.44959,-2.80599,-0.04565405,0.92127
401.407,45.5182,-2.81003,-0.04669588,0.92076
402.107,45.58665,-2.81136,-0.04585119,0.92024
402.807,45.65524,-2.81321,-0.04599748,0.91972
403.507,45.7239,-2.81573,-0.04828032,0.9192
404.207,45.79238,-2.81765,-0.04680038,0.91868
404.907,45.8606,-2.82255,-0.05151245,0.91816
405.607,45.92872,-2.82383,-0.0487968,0.91764
406.307,45.99734,-2.82662,-0.04954665,0.91712
407.007,46.06604,-2.82837,-0.04964031,0.9166
407.707,46.13494,-2.83114,-0.05089397,0.91608
408.407,46.2035,-2.83297,-0.04861432,0.91555
409.107,46.27237,-2.83564,-0.047047,0.91503
409.807,46.341,-2.83839,-0.04849675,0.91451
410.507,46.40976,-2.84007,-0.04791632,0.91398
411.207,46.47829,-2.84241,-0.0517354,0.91345
411.907,46.54688,-2.84505,-0.05032898,0.91293
412.607,46.61551,-2.84704,-0.05141139,0.9124
413.307,46.68422,-2.84993,-0.04939818,0.91187
414.007,46.75295,-2.85261,-0.0509589,0.91135
414.707,46.82168,-2.85413,-0.05205174,0.91082
415.407,46.89038,-2.8568,-0.05025458,0.91029
416.107,46.95901,-2.85991,-0.04699228,0.90976
416.807,47.02755,-2.86193,-0.04645509,0.90923
417.507,47.09621,-2.8642,-0.04907968,0.9087
418.207,47.16479,-2.86731,-0.04994483,0.90817
418.907,47.2333,-2.86891,-0.04818204,0.90764
419.607,47.30189,-2.87013,-0.04883859,0.9071
420.307,47.37055,-2.87149,-0.04694727,0.90657
421.007,47.43932,-2.87561,-0.04500658,0.90604
421.707,47.50776,-2.87837,-0.04444893,0.9055
422.407,47.57638,-2.87975,-0.04307429,0.90497
423.107,47.6449,-2.88215,-0.04153641,0.90443
423.807,47.71332,-2.88364,-0.04259844,0.9039
424.507,47.78178,-2.88549,-0.04157029,0.90336
425.207,47.8503,-2.88696,-0.03959095,0.90282
425.907,47.91885,-2.8897,-0.03802476,0.90228
426.607,47.98758,-2.89223,-0.0381828,0.90175
427.307,48.05616,-2.89383,-0.03770698,0.90121
428.007,48.12502,-2.89722,-0.03464177,0.90067
428.707,48.19373,-2.89858,-0.03474609,0.90013
429.407,48.26245,-2.90143,-0.03408249,0.89959
430.107,48.3311,-2.90139,-0.03209682,0.89905
430.807,48.39983,-2.90426,-0.03081673,0.89851
431.507,48.46863,-2.90656,-0.0297647,0.89796
432.207,48.53735,-2.90977,-0.02953348,0.89742
432.907,48.60605,-2.91087,-0.02941231,0.89688
433.607,48.67477,-2.91195,-0.02842774,0.89633
434.307,48.74353,-2.91477,-0.02727633,0.89579
435.007,48.81236,-2.91719,-0.02465108,0.89524
435.707,48.88132,-2.91952,-0.02597983,0.8947
436.407,48.94988,-2.92082,-0.02258387,0.89415
437.107,49.0188,-2.92224,-0.02175586,0.89361
437.807,49.08765,-2.92357,-0.02141003,0.89306
438.507,49.15692,-2.92502,-0.02135326,0.89251
439.207,49.2259,-2.92629,-0.02183332,0.89196
439.907,49.2948,-2.92883,-0.02137671,0.89142
440.607,49.3636,-2.93256,-0.02180622,0.89087
441.307,49.4325,-2.93398,-0.01888329,0.89032
442.007,49.5014,-2.9353,-0.01812343,0.88977
442.707,49.57043,-2.93633,-0.01767828,0.88922
443.407,49.63913,-2.93796,-0.01404149,0.88866
444.107,49.7079,-2.94171,-0.0171998,0.88811
444.807,49.77657,-2.94306,-0.01242605,0.88756
445.507,49.84544,-2.9443,-0.01338199,0.88701
446.207,49.91429,-2.94558,-0.01401657,0.88645
446.907,49.98332,-2.94702,-0.01223805,0.8859
447.607,50.05226,-2.94841,-0.01206715,0.88535
448.307,50.12107,-2.95229,-0.01177553,0.88479
449.007,50.18991,-2.95374,-0.00931978,0.88424
449.707,50.25895,-2.95413,-0.01021792,0.88368
450.407,50.32797,-2.95628,-0.01051784,0.88312
451.107,50.39679,-2.95867,-0.008492,0.88257
451.807,50.46573,-2.96064,-0.007810585,0.88201
452.507,50.53472,-2.9614,-0.00706273,0.88145
453.207,50.60383,-2.96276,-0.006338219,0.88089
453.907,50.67279,-2.96328,-0.005900524,0.88033
454.607,50.74173,-2.96579,-0.002971912,0.87977
455.307,50.81068,-2.96713,-0.00535549,0.87921
456.007,50.87961,-2.96973,-0.00348241,0.87865
456.707,50.9488,-2.97106,-0.005781109,0.87809
457.407,51.0178,-2.9724,-0.00532305,0.87753
458.107,51.08704,-2.97364,-0.00470461,0.87697
458.807,51.15603,-2.97535,-0.003535527,0.87641
459.507,51.22525,-2.97758,-0.003801665,0.87584
460.207,51.29385,-2.97768,-0.00298465,0.87528
460.907,51.3628,-2.97992,-0.00407055,0.87472
461.607,51.43166,-2.98123,-0.002563212,0.87415
462.307,51.50095,-2.98332,-0.003131265,0.87359
463.007,51.5698,-2.98554,-0.001506719,0.87302
463.707,51.63895,-2.98686,0.000236049,0.87246
464.407,51.70793,-2.98813,-0.00132299,0.87189
465.107,51.77701,-2.98949,0.001107663,0.87132
465.807,51.84597,-2.99018,0.00131262,0.87076
466.507,51.9149,-2.99136,0.00100961,0.87019
467.207,51.98386,-2.99298,-0.0003163912,0.86962
467.907,52.05284,-2.99476,0.003247502,0.86905
468.607,52.122,-2.99586,0.00313862,0.86848
469.307,52.191,-2.99717,0.001233523,0.86791
470.007,52.26001,-2.99991,0.001511727,0.86734
470.707,52.3291,-2.99987,0.00494761,0.86677
471.407,52.39835,-3.00024,0.006782369,0.8662
472.107,52.46747,-3.00155,0.004708235,0.86563
472.807,52.53645,-3.00256,0.00687414,0.86506
473.507,52.60556,-3.00393,0.00679448,0.86449
474.207,52.6746,-3.00519,0.009291977,0.86391
474.907,52.74369,-3.00748,0.00768645,0.86334
475.607,52.8126,-3.0088,0.00683505,0.86277
476.307,52.88165,-3.00944,0.007328234,0.86219
477.007,52.95055,-3.01078,0.00995832,0.86162
477.707,53.01975,-3.0101,0.01001174,0.86104
478.407,53.0888,-3.01143,0.008433224,0.86047
479.107,53.1582,-3.0127,0.009282189,0.85989
479.807,53.2271,-3.01514,0.01210384,0.85932
480.507,53.29625,-3.01536,0.01439746,0.85874
481.207,53.3651,-3.01669,0.01931656,0.85816
481.907,53.43391,-3.01802,0.01797005,0.85758
482.607,53.50297,-3.01956,0.02073959,0.85701
483.307,53.57192,-3.02063,0.02319274,0.85643
484.007,53.6411,-3.02195,0.02498032,0.85585
484.707,53.7102,-3.02295,0.02866172,0.85527
485.407,53.7794,-3.02591,0.02904774,0.85469
486.107,53.84856,-3.02727,0.03130989,0.85411
486.807,53.9176,-3.02712,0.02973028,0.85353
487.507,53.98679,-3.02594,0.03225237,0.85295
488.207,54.0562,-3.02712,0.03434463,0.85236
488.907,54.12549,-3.02986,0.03732335,0.85178
489.607,54.19465,-3.03109,0.03957408,0.8512
490.307,54.26367,-3.03249,0.03776938,0.85062
491.007,54.333,-3.0325,0.04420409,0.85003
491.707,54.40226,-3.03465,0.04424931,0.84945
492.407,54.47159,-3.03459,0.04156106,0.84887
493.107,54.54085,-3.03512,0.04194044,0.84828
493.807,54.61011,-3.03644,0.04345877,0.8477
494.507,54.67946,-3.03775,0.04350322,0.84711
495.207,54.7489,-3.03907,0.0447155,0.84652
495.907,54.81845,-3.03907,0.04550572,0.84594
496.607,54.8877,-3.04038,0.04387862,0.84535
497.307,54.957,-3.0417,0.04919346,0.84477
498.007,55.02633,-3.04302,0.04900915,0.84418
498.707,55.09564,-3.04437,0.05139164,0.84359
499.407,55.1649,-3.04566,0.05006057,0.843
500.107,55.2339,-3.04687,0.05244341,0.84241
500.807,55.303,-3.04697,0.05097646,0.84182
501.507,55.372,-3.04828,0.05065109,0.84123
502.207,55.4414,-3.04874,0.05157192,0.84064
502.907,55.5107,-3.0496,0.05519833,0.84005
503.607,55.58016,-3.05024,0.05480955,0.83946
504.307,55.6494,-3.05089,0.05695235,0.83887
505.007,55.7187,-3.0535,0.05915992,0.83828
505.707,55.7881,-3.05482,0.06062693,0.83769
506.407,55.85751,-3.05467,0.05932386,0.8371
507.107,55.92714,-3.05487,0.06120128,0.83651
507.807,55.99651,-3.05618,0.0612844,0.83591
508.507,56.06598,-3.05749,0.06177665,0.83532
509.207,56.1353,-3.05756,0.06207983,0.83473
509.907,56.20485,-3.05877,0.06303573,0.83413
510.607,56.2742,-3.05918,0.06537622,0.83354
511.307,56.3437,-3.06016,0.06598289,0.83294
512.007,56.4132,-3.06144,0.06800975,0.83235
512.707,56.4827,-3.06232,0.06872891,0.83175
513.407,56.55199,-3.06415,0.06855885,0.83116
514.107,56.62124,-3.06407,0.06784377,0.83056
514.807,56.69084,-3.06539,0.07286745,0.82996
515.507,56.7603,-3.06671,0.07151793,0.82937
516.207,56.83008,-3.06671,0.07265134,0.82877
516.907,56.8996,-3.06933,0.07662545,0.82817
517.607,56.96926,-3.06934,0.0713114,0.82757
518.307,57.039,-3.0703,0.07605878,0.82697
519.007,57.10856,-3.07065,0.07524663,0.82638
519.707,57.1784,-3.07067,0.07797001,0.82578
520.407,57.24785,-3.07202,0.07456195,0.82518
521.107,57.3176,-3.07198,0.07694093,0.82458
521.807,57.38717,-3.07328,0.07659576,0.82398
522.507,57.4568,-3.07329,0.07751678,0.82338
523.207,57.52625,-3.07461,0.0776252,0.82277
523.907,57.5959,-3.07593,0.07792782,0.82217
524.607,57.66567,-3.07724,0.07970609,0.82157
525.307,57.73536,-3.07715,0.07918592,0.82097
526.007,57.805,-3.07856,0.07980405,0.82037
526.707,57.87451,-3.07987,0.07851893,0.81976
527.407,57.9441,-3.07986,0.08011103,0.81916
528.107,58.0138,-3.08098,0.08093657,0.81856
528.807,58.0835,-3.08153,0.08019121,0.81795
529.507,58.1532,-3.08166,0.07906913,0.81735
530.207,58.2228,-3.08284,0.08101317,0.81675
530.907,58.29244,-3.08551,0.08043178,0.81614
531.607,58.3622,-3.08411,0.08011433,0.81554
532.307,58.4319,-3.0843,0.07950084,0.81493
533.007,58.50173,-3.08595,0.08160105,0.81433
533.707,58.57153,-3.08677,0.08035674,0.81372
534.407,58.64135,-3.0881,0.08075751,0.81311
535.107,58.7113,-3.08808,0.08168762,0.81251
535.807,58.7809,-3.08941,0.08114164,0.8119
536.507,58.85051,-3.09011,0.0802183,0.81129
537.207,58.9202,-3.08941,0.07750844,0.81069
537.907,58.9899,-3.09073,0.07848942,0.81008
538.607,59.0597,-3.09267,0.07714084,0.80947
539.307,59.12939,-3.09336,0.0786323,0.80886
540.007,59.19925,-3.09441,0.07716549,0.80825
540.707,59.26869,-3.09338,0.07631286,0.80764
541.407,59.33851,-3.09467,0.07825848,0.80703
542.107,59.4082,-3.09594,0.07277222,0.80642
542.807,59.478,-3.0973,0.07680255,0.80581
543.507,59.5476,-3.09731,0.07417674,0.8052
544.207,59.6173,-3.09851,0.07159105,0.80459
544.907,59.6872,-3.09862,0.07148592,0.80398
545.607,59.757,-3.09994,0.06815631,0.80337
546.307,59.8269,-3.09994,0.06596147,0.80276
547.007,59.8967,-3.10123,0.06689568,0.80215
547.707,59.9664,-3.10126,0.06384811,0.80153
548.407,60.03615,-3.10257,0.06385057,0.80092
549.107,60.10569,-3.10252,0.06023037,0.80031
549.807,60.1754,-3.10323,0.05664909,0.7997
550.507,60.24491,-3.10325,0.05243461,0.79908
551.207,60.31475,-3.10454,0.05068163,0.79847
551.907,60.38454,-3.10453,0.04834021,0.79785
552.607,60.45435,-3.10521,0.0458369,0.79724
553.307,60.52404,-3.1052,0.0456345,0.79663
554.007,60.59365,-3.10653,0.04489269,0.79601
554.707,60.6633,-3.10653,0.0444544,0.7954
555.407,60.733,-3.10784,0.04196224,0.79478
556.107,60.80294,-3.10781,0.0412723,0.79416
556.807,60.873,-3.10916,0.03857027,0.79355
557.507,60.9431,-3.11048,0.03691994,0.79293
558.207,61.01316,-3.11048,0.04015166,0.79232
558.907,61.08302,-3.11178,0.03414316,0.7917
559.607,61.153,-3.11263,0.03425694,0.79108
560.307,61.2227,-3.11306,0.03398052,0.79047
561.007,61.2923,-3.11442,0.03647404,0.78985
561.707,61.36206,-3.11443,0.03428414,0.78923
562.407,61.43209,-3.11441,0.03496421,0.78861
563.107,61.50226,-3.11579,0.03334152,0.78799
563.807,61.57205,-3.11574,0.03008929,0.78738
564.507,61.6419,-3.1165,0.03133973,0.78676
565.207,61.7119,-3.11771,0.03061348,0.78614
565.907,61.7821,-3.11771,0.03204527,0.78552
566.607,61.8521,-3.11904,0.03051954,0.7849
567.307,61.92207,-3.12002,0.02757234,0.78428
568.007,61.992,-3.12002,0.02817968,0.78366
568.707,62.06208,-3.12133,0.03100404,0.78304
569.407,62.1321,-3.12142,0.02897414,0.78242
570.107,62.20191,-3.12264,0.03028229,0.7818
570.807,62.272,-3.12331,0.03013252,0.78118
571.507,62.342,-3.12395,0.03089571,0.78055
572.207,62.41219,-3.12397,0.02801235,0.77993
572.907,62.48234,-3.1246,0.0286982,0.77931
573.607,62.5526,-3.12483,0.02971978,0.77869
574.307,62.62294,-3.12594,0.02558828,0.77807
575.007,62.69291,-3.12726,0.02376567,0.77744
575.707,62.76296,-3.12725,0.02628003,0.77682
576.407,62.833,-3.12822,0.02609457,0.7762
577.107,62.9033,-3.12824,0.02560629,0.77557
577.807,62.9734,-3.12961,0.02767558,0.77495
578.507,63.0436,-3.12956,0.02334784,0.77433
579.207,63.1139,-3.13084,0.02527539,0.7737
579.907,63.1843,-3.1308,0.0238535,0.77308
580.607,63.2545,-3.13088,0.02437723,0.77245
581.307,63.3245,-3.13228,0.02319706,0.77183
582.007,63.39445,-3.13219,0.02206856,0.7712
582.707,63.46476,-3.13219,0.02218833,0.77058
583.407,63.53513,-3.13349,0.02051352,0.76995
584.107,63.60513,-3.13488,0.0233662,0.76933
584.807,63.6752,-3.1335,0.0225137,0.7687
585.507,63.7452,-3.13546,0.02156065,0.76808
586.207,63.8156,-3.13622,0.02097556,0.76745
586.907,63.8858,-3.13746,0.02155707,0.76682
587.607,63.956,-3.13746,0.01817274,0.7662
588.307,64.02625,-3.13608,0.01800292,0.76557
589.007,64.0964,-3.13746,0.02166485,0.76494
589.707,64.16667,-3.13877,0.02039699,0.76432
590.407,64.23692,-3.14008,0.01730309,0.76369
591.107,64.3074,-3.14141,0.01997481,0.76306
591.807,64.37745,-3.14142,0.01718839,0.76243
592.507,64.4474,-3.14009,0.01892272,0.76181
593.207,64.51731,-3.14207,0.01667204,0.76118
593.907,64.58744,-3.14272,0.01835441,0.76055
594.607,64.65768,-3.14246,0.0201667,0.75992
595.307,64.72776,-3.14274,0.01972401,0.75929
596.007,64.79773,-3.14273,0.01825353,0.75866
596.707,64.86771,-3.14398,0.01607978,0.75803
597.407,64.93764,-3.14403,0.01696666,0.7574
598.107,65.00766,-3.14535,0.01632534,0.75677
598.807,65.07783,-3.14535,0.01523262,0.75615
599.507,65.14829,-3.14587,0.01336832,0.75552
600.207,65.21852,-3.14667,0.01782973,0.75488
600.907,65.2886,-3.14799,0.01481411,0.75425
601.607,65.35855,-3.14799,0.01683849,0.75362
602.307,65.42875,-3.14886,0.01278081,0.75299
603.007,65.49902,-3.1493,0.01543818,0.75236
603.707,65.56916,-3.1496,0.01330236,0.75173
604.407,65.63942,-3.1493,0.01329024,0.7511
605.107,65.70979,-3.14961,0.01540337,0.75047
605.807,65.78024,-3.15061,0.01366871,0.74984
606.507,65.85056,-3.14993,0.01349251,0.74921
607.207,65.9207,-3.14994,0.01519079,0.74857
607.907,65.99091,-3.15127,0.01325137,0.74794
608.607,66.06103,-3.15131,0.01246921,0.74731
609.307,66.1313,-3.15259,0.01258258,0.74668
610.007,66.20149,-3.1539,0.01420958,0.74604
610.707,66.2718,-3.1539,0.01404783,0.74541
611.407,66.34206,-3.1539,0.01041517,0.74478
612.107,66.41244,-3.15409,0.01216196,0.74415
612.807,66.48275,-3.15522,0.01428154,0.74351
613.507,66.5529,-3.15662,0.01183202,0.74288
614.207,66.62321,-3.15647,0.01108399,0.74225
614.907,66.69338,-3.1572,0.01284551,0.74161
615.607,66.76365,-3.1572,0.01512324,0.74098
616.307,66.83389,-3.15713,0.01168519,0.74034
617.007,66.9043,-3.15852,0.01111718,0.73971
617.707,66.97457,-3.15988,0.01155027,0.73908
618.407,67.04478,-3.15983,0.01002469,0.73844
619.107,67.11485,-3.15982,0.01060218,0.73781
619.807,67.1852,-3.16048,0.01071542,0.73717
620.507,67.25542,-3.16015,0.01111389,0.73654
621.207,67.32598,-3.16149,0.009832594,0.7359
621.907,67.39639,-3.16148,0.0081435,0.73527
622.607,67.46695,-3.16148,0.006635665,0.73463
623.307,67.5372,-3.16279,0.005784229,0.734
624.007,67.6075,-3.16279,0.007709665,0.73336
624.707,67.6777,-3.16238,0.00640011,0.73272
625.407,67.74814,-3.16447,0.006878636,0.73209
626.107,67.8186,-3.16543,0.006597952,0.73145
626.807,67.88916,-3.16543,0.00596204,0.73082
627.507,67.95961,-3.16575,0.00792381,0.73018
628.207,68.03,-3.16575,0.00410107,0.72954
628.907,68.10046,-3.16575,0.006796231,0.72891
629.607,68.1709,-3.16575,0.00735902,0.72827
630.307,68.24172,-3.16707,0.003919082,0.72763
631.007,68.31234,-3.16792,0.007201395,0.727
631.707,68.38314,-3.16805,0.00569444,0.72636
632.407,68.45365,-3.16805,0.00341719,0.72572
633.107,68.52423,-3.16936,0.002163898,0.72509
633.807,68.59479,-3.17074,0.000443665,0.72445
634.507,68.66545,-3.17054,-0.0007246,0.72381
635.207,68.73608,-3.17003,0.003735048,0.72317
635.907,68.8066,-3.17131,0.0004697936,0.72254
636.607,68.87685,-3.17133,0.002418916,0.7219
637.307,68.9472,-3.17266,0.001892252,0.72126
638.007,69.01776,-3.17266,0.0003983564,0.72062
638.707,69.08873,-3.17265,0.002087841,0.71998
639.407,69.1595,-3.173,0.00370959,0.71934
640.107,69.23,-3.173,-0.002343108,0.71871
640.807,69.30032,-3.17431,-0.002735146,0.71807
641.507,69.37087,-3.17431,-0.001157216,0.71743
642.207,69.4414,-3.17431,-0.001604608,0.71679
642.907,69.51181,-3.17431,-0.0003465727,0.71615
643.607,69.58215,-3.17563,-0.002320771,0.71551
644.307,69.65257,-3.17558,-0.002812925,0.71487
645.007,69.723,-3.17558,-0.002217512,0.71424
645.707,69.79353,-3.17692,-0.00675401,0.7136
646.407,69.8641,-3.17715,-0.003313729,0.71296
647.107,69.93463,-3.17694,-0.005547765,0.71232
647.807,70.00502,-3.17694,-0.00600518,0.71168
648.507,70.07536,-3.17723,-0.00283625,0.71104
649.207,70.1456,-3.17826,-0.00512277,0.7104
649.907,70.216,-3.17838,-0.00484856,0.70976
650.607,70.2863,-3.18089,-0.00601798,0.70912
651.307,70.35684,-3.17957,-0.00543267,0.70848
652.007,70.4272,-3.18089,-0.00222896,0.70784
652.707,70.49763,-3.18089,-0.006990538,0.7072
653.407,70.5682,-3.17958,-0.003117233,0.70656
654.107,70.63869,-3.17951,-0.005376361,0.70592
654.807,70.70929,-3.18089,-0.006319629,0.70528
655.507,70.7799,-3.18089,-0.001861499,0.70464
656.207,70.8505,-3.1822,-0.00518666,0.704
656.907,70.9208,-3.1822,-0.004629736,0.70336
657.607,70.99116,-3.1832,-0.003955757,0.70272
658.307,71.06136,-3.18393,-0.006079615,0.70208
659.007,71.1318,-3.18418,-0.008761369,0.70144
659.707,71.20244,-3.1845,-0.007551237,0.7008
660.407,71.27294,-3.18483,-0.008473379,0.70015
661.107,71.34351,-3.18486,-0.008649254,0.69951
661.807,71.41399,-3.18615,-0.007840236,0.69887
662.507,71.48477,-3.18615,-0.007584905,0.69823
663.207,71.55545,-3.18623,-0.008442136,0.69759
663.907,71.62595,-3.18747,-0.01167525,0.69695
664.607,71.69637,-3.18747,-0.01178144,0.69631
665.307,71.76701,-3.18878,-0.01359758,0.69567
666.007,71.83774,-3.18878,-0.01389972,0.69503
666.707,71.90854,-3.19009,-0.01695286,0.69438
667.407,71.97919,-3.18977,-0.01368574,0.69374
668.107,72.0499,-3.18846,-0.02050969,0.6931
668.807,72.1203,-3.18846,-0.01973454,0.69246
669.507,72.1909,-3.19109,-0.02232753,0.69182
670.207,72.26142,-3.19179,-0.01722393,0.69118
670.907,72.3323,-3.19045,-0.02284535,0.69054
671.607,72.403,-3.1911,-0.02283335,0.68989
672.307,72.47367,-3.19109,-0.0213248,0.68925
673.007,72.54431,-3.1925,-0.02331084,0.68861
673.707,72.61491,-3.19241,-0.02496723,0.68797
674.407,72.68547,-3.19211,-0.02327145,0.68733
675.107,72.756,-3.19241,-0.02099498,0.68668
675.807,72.82666,-3.19241,-0.02266749,0.68604
676.507,72.8974,-3.19241,-0.02467561,0.6854
677.207,72.9679,-3.19241,-0.0219157,0.68476
677.907,73.03836,-3.19324,-0.02727204,0.68412
678.607,73.10875,-3.19372,-0.02843484,0.68347
679.307,73.1792,-3.19465,-0.02708953,0.68283
680.007,73.24975,-3.19373,-0.02769046,0.68219
680.707,73.32015,-3.19504,-0.03212611,0.68155
681.407,73.39081,-3.19504,-0.02691328,0.68091
682.107,73.46137,-3.19637,-0.02573357,0.68026
682.807,73.5321,-3.19569,-0.02629276,0.67962
683.507,73.6028,-3.19569,-0.02875399,0.67898
684.207,73.67352,-3.19569,-0.02958796,0.67834
684.907,73.74421,-3.19646,-0.03079705,0.67769
685.607,73.8147,-3.19701,-0.03127027,0.67705
686.307,73.88523,-3.19697,-0.02817395,0.67641
687.007,73.9559,-3.19768,-0.0302879,0.67577
687.707,74.02642,-3.19636,-0.03028195,0.67513
688.407,74.09704,-3.19767,-0.03188712,0.67448
689.107,74.16767,-3.19899,-0.03156849,0.67384
689.807,74.23863,-3.19798,-0.03409709,0.6732
690.507,74.30946,-3.198,-0.03431739,0.67256
691.207,74.38028,-3.198,-0.03588007,0.67191
691.907,74.45115,-3.20064,-0.03578063,0.67127
692.607,74.52208,-3.20064,-0.03673662,0.67063
693.307,74.5929,-3.2013,-0.03736092,0.66999
694.007,74.66355,-3.20129,-0.03637688,0.66934
694.707,74.7342,-3.20129,-0.03769056,0.6687
695.407,74.80495,-3.20136,-0.03756142,0.66806
696.107,74.87556,-3.20053,-0.03936336,0.66742
696.807,74.94625,-3.20195,-0.0408371,0.66677
697.507,75.01689,-3.20198,-0.03595431,0.66613
698.207,75.08795,-3.20327,-0.03522389,0.66549
698.907,75.15865,-3.20327,-0.03455721,0.66485
699.607,75.2294,-3.20327,-0.03267488,0.6642
700.307,75.29993,-3.20458,-0.0346574,0.66356
701.007,75.3708,-3.20453,-0.0370564,0.66292
701.707,75.44144,-3.20326,-0.03975636,0.66228
702.407,75.51219,-3.2044,-0.03654521,0.66164
703.107,75.58285,-3.20547,-0.03887919,0.66099
703.807,75.65331,-3.2059,-0.03704332,0.66035
704.507,75.72411,-3.20583,-0.03900632,0.65971
705.207,75.79491,-3.20492,-0.04192352,0.65907
705.907,75.8662,-3.20492,-0.03733447,0.65842
706.607,75.93695,-3.20492,-0.03687805,0.65778
707.307,76.00774,-3.20621,-0.0388075,0.65714
708.007,76.0783,-3.20623,-0.0391993,0.6565
708.707,76.14899,-3.20722,-0.04161029,0.65585
709.407,76.2196,-3.20689,-0.03788361,0.65521
710.107,76.29041,-3.20689,-0.03920832,0.65457
710.807,76.36142,-3.20689,-0.03667079,0.65393
711.507,76.4322,-3.2062,-0.03752807,0.65329
712.207,76.50301,-3.20592,-0.03839737,0.65264
712.907,76.57361,-3.20721,-0.03619592,0.652
713.607,76.64413,-3.20721,-0.038286,0.65136
714.307,76.71484,-3.20817,-0.03612854,0.65072
715.007,76.78577,-3.2082,-0.04153298,0.65008
715.707,76.85687,-3.2082,-0.04119338,0.64943
716.407,76.92738,-3.2082,-0.03985358,0.64879
717.107,76.99801,-3.2082,-0.04262706,0.64815
717.807,77.06878,-3.20853,-0.04497213,0.64751
718.507,77.13983,-3.20852,-0.04796976,0.64687
719.207,77.2105,-3.20984,-0.04449449,0.64623
719.907,77.28116,-3.20984,-0.04763436,0.64558
720.607,77.3519,-3.20984,-0.04278481,0.64494
721.307,77.423,-3.21116,-0.04440478,0.6443
722.007,77.494,-3.21246,-0.0439208,0.64366
722.707,77.56492,-3.21116,-0.04748678,0.64302
723.407,77.63577,-3.21116,-0.04949753,0.64238
724.107,77.70659,-3.21116,-0.04762437,0.64173
724.807,77.7775,-3.21116,-0.04472416,0.64109
725.507,77.84815,-3.21167,-0.0506922,0.64045
726.207,77.91885,-3.21248,-0.04649493,0.63981
726.907,77.98942,-3.21248,-0.04298849,0.63917
727.607,78.0599,-3.21315,-0.04918964,0.63853
728.307,78.13022,-3.21248,-0.0459994,0.63789
729.007,78.2007,-3.21252,-0.04714927,0.63725
729.707,78.27114,-3.21379,-0.04664353,0.63661
730.407,78.34178,-3.21246,-0.04925051,0.63596
731.107,78.41221,-3.2138,-0.04616418,0.63532
731.807,78.4829,-3.21281,-0.04715725,0.63468
732.507,78.5535,-3.21401,-0.04340362,0.63404
733.207,78.6242,-3.21544,-0.04470925,0.6334
733.907,78.69471,-3.21544,-0.04088682,0.63276
734.607,78.76539,-3.21544,-0.0407891,0.63212
735.307,78.8361,-3.21544,-0.04110087,0.63148
736.007,78.90688,-3.21544,-0.04563716,0.63084
736.707,78.97756,-3.2141,-0.04339016,0.6302
737.407,79.04821,-3.21406,-0.04118468,0.62956
738.107,79.1188,-3.20666,-0.03989521,0.62892
738.807,79.1896,-3.20392,-0.04143773,0.62828
739.507,79.26054,-3.20838,-0.04052862,0.62764
740.207,79.3316,-3.21058,-0.04277713,0.627
740.907,79.4025,-3.21176,-0.04137777,0.62636
741.607,79.47363,-3.2138,-0.03759119,0.62572
742.307,79.5447,-3.2138,-0.03888718,0.62508
743.007,79.61588,-3.21597,-0.04146992,0.62444
743.707,79.68701,-3.22109,-0.03874269,0.6238
744.407,79.7581,-3.22226,-0.0391233,0.62316
745.107,79.82937,-3.22114,-0.04222084,0.62252
745.807,79.9007,-3.22115,-0.03884071,0.62188
746.507,79.97198,-3.22116,-0.04179327,0.62124
746.707,79.9924,-3.22078,-0.0420319,0.62106