File: 01_Data/Engineered_Flooring/STA/N2/10K_min/EF_STA_N2_10KData_211412_R2.csv
##Temp./Â°C,Time/min,Mass loss(subtr.2)/mg,DSC(subtr.2)/(mW/mg),Sensit./(uV/mW)
49.42,10.01,-0.05758,0.008008275,1.07446
50.02,10.7354,-0.05978383,0.03070961,1.07442
50.62,10.92623,-0.06079709,0.0509254,1.07438
51.22,11.0695,-0.06216137,0.0629644,1.07433
51.82,11.1891,-0.06198488,0.07695701,1.07429
52.42,11.29537,-0.0633149,0.08631488,1.07425
53.02,11.3928,-0.06205211,0.09504458,1.0742
53.62,11.4842,-0.06157801,0.10171,1.07415
54.22,11.57059,-0.0618092,0.11346,1.07411
54.82,11.65279,-0.06228176,0.11799,1.07406
55.42,11.73231,-0.06266017,0.12518,1.07401
56.02,11.80983,-0.0639553,0.13088,1.07396
56.62,11.88565,-0.06494847,0.13485,1.07391
57.22,11.95951,-0.0646067,0.14005,1.07386
57.82,12.0319,-0.06480488,0.1411,1.0738
58.42,12.10333,-0.06643577,0.14198,1.07375
59.02,12.1739,-0.06707774,0.14401,1.0737
59.62,12.24357,-0.06580646,0.14683,1.07364
60.22,12.31259,-0.06720837,0.14944,1.07359
60.82,12.38112,-0.06701001,0.15063,1.07353
61.42,12.44942,-0.06699331,0.15443,1.07347
62.02,12.51719,-0.06744289,0.15502,1.07341
62.62,12.58446,-0.06688894,0.15686,1.07335
63.22,12.65128,-0.0671352,0.15837,1.07329
63.82,12.71777,-0.06821779,0.16187,1.07323
64.42,12.78398,-0.06690658,0.16504,1.07317
65.02,12.8499,-0.06832486,0.16376,1.07311
65.62,12.91571,-0.06985405,0.16819,1.07305
66.22,12.9811,-0.06977306,0.16956,1.07298
66.82,13.0463,-0.07107085,0.17162,1.07292
67.42,13.11135,-0.0710752,0.17576,1.07285
68.02,13.1762,-0.07097451,0.17546,1.07278
68.62,13.2412,-0.07258444,0.17755,1.07272
69.22,13.3056,-0.07260049,0.18069,1.07265
69.82,13.3701,-0.07128856,0.18094,1.07258
70.42,13.434,-0.07303908,0.18286,1.07251
71.02,13.4977,-0.07261007,0.18565,1.07244
71.62,13.56145,-0.07214567,0.18754,1.07237
72.22,13.625,-0.07129589,0.18975,1.07229
72.82,13.6889,-0.07161995,0.19202,1.07222
73.42,13.7525,-0.07261103,0.19253,1.07215
74.02,13.81587,-0.07257461,0.19365,1.07207
74.62,13.8786,-0.07428466,0.1961,1.07199
75.22,13.9414,-0.07502609,0.19951,1.07192
75.82,14.0042,-0.07516612,0.20009,1.07184
76.42,14.0673,-0.07644956,0.19939,1.07176
77.02,14.1302,-0.07547521,0.20234,1.07168
77.62,14.19295,-0.07676971,0.20395,1.0716
78.22,14.25569,-0.07785351,0.20402,1.07152
78.82,14.31797,-0.07636142,0.20522,1.07144
79.42,14.38021,-0.07821748,0.2072,1.07136
80.02,14.44241,-0.0791552,0.20814,1.07127
80.62,14.5046,-0.08028015,0.20856,1.07119
81.22,14.56676,-0.08166117,0.21143,1.0711
81.82,14.62868,-0.08028815,0.21107,1.07102
82.42,14.69009,-0.08028999,0.21248,1.07093
83.02,14.7515,-0.0815922,0.21253,1.07084
83.62,14.8126,-0.08162318,0.21305,1.07075
84.22,14.8738,-0.08292051,0.21429,1.07067
84.82,14.9348,-0.08282763,0.21545,1.07058
85.42,14.996,-0.08341322,0.21598,1.07048
86.02,15.05691,-0.08302791,0.2128,1.07039
86.62,15.11762,-0.08441391,0.21625,1.0703
87.22,15.1783,-0.08302001,0.21407,1.07021
87.82,15.23903,-0.08296937,0.2148,1.07011
88.42,15.29938,-0.08494573,0.21472,1.07002
89.02,15.3597,-0.08533003,0.21692,1.06992
89.62,15.41985,-0.08665232,0.21485,1.06982
90.22,15.4796,-0.08665001,0.21594,1.06973
90.82,15.53977,-0.08666288,0.21431,1.06963
91.42,15.6,-0.08663997,0.21418,1.06953
92.02,15.6603,-0.08664,0.21222,1.06943
92.62,15.7205,-0.08701353,0.21256,1.06933
93.22,15.7806,-0.08795997,0.21206,1.06923
93.82,15.8405,-0.08799071,0.21237,1.06912
94.42,15.90056,-0.09080386,0.2095,1.06902
95.02,15.9603,-0.09079282,0.2102,1.06892
95.62,16.01986,-0.08949,0.20897,1.06881
96.22,16.07957,-0.08950035,0.2065,1.06871
96.82,16.13928,-0.08949993,0.20738,1.0686
97.42,16.199,-0.09208131,0.20345,1.06849
98.02,16.25842,-0.09214704,0.20487,1.06838
98.62,16.31774,-0.09210666,0.20375,1.06827
99.22,16.3771,-0.09212999,0.20249,1.06816
99.82,16.43646,-0.09214407,0.20105,1.06805
100.42,16.49598,-0.09345484,0.19907,1.06794
101.02,16.55526,-0.09477797,0.20014,1.06783
101.62,16.6145,-0.0941167,0.20108,1.06772
102.22,16.67364,-0.09458196,0.19946,1.0676
102.82,16.73292,-0.09542196,0.20176,1.06749
103.42,16.7921,-0.09470176,0.19798,1.06737
104.02,16.85132,-0.09475986,0.1971,1.06725
104.62,16.9104,-0.09578232,0.19867,1.06714
105.22,16.9693,-0.09734636,0.19538,1.06702
105.82,17.0281,-0.09738984,0.19515,1.0669
106.42,17.08696,-0.0960224,0.19354,1.06678
107.02,17.14581,-0.09601858,0.19309,1.06666
107.62,17.20491,-0.09706971,0.1904,1.06654
108.22,17.2641,-0.09707,0.19057,1.06642
108.82,17.32311,-0.09706842,0.18978,1.06629
109.42,17.3821,-0.09739931,0.18996,1.06617
110.02,17.441,-0.09871912,0.19031,1.06604
110.62,17.49979,-0.0980776,0.18884,1.06592
111.22,17.5587,-0.0973436,0.18891,1.06579
111.82,17.61735,-0.09870993,0.18865,1.06567
112.42,17.67588,-0.09880476,0.18667,1.06554
113.02,17.7345,-0.10003,0.18861,1.06541
113.62,17.793,-0.09880226,0.18699,1.06528
114.22,17.85182,-0.09716773,0.18574,1.06515
114.82,17.9107,-0.09695426,0.18618,1.06502
115.42,17.96964,-0.09989861,0.18409,1.06489
116.02,18.02835,-0.10277,0.18429,1.06475
116.62,18.08727,-0.10275,0.18404,1.06462
117.22,18.1461,-0.10211,0.18429,1.06449
117.82,18.2049,-0.10078,0.1833,1.06435
118.42,18.26376,-0.10061,0.18262,1.06421
119.02,18.3225,-0.10066,0.18349,1.06408
119.62,18.38106,-0.10199,0.18343,1.06394
120.22,18.4398,-0.10332,0.18258,1.0638
120.82,18.4983,-0.10334,0.18481,1.06366
121.42,18.55708,-0.10334,0.18462,1.06352
122.02,18.61564,-0.10332,0.18504,1.06338
122.62,18.6742,-0.10332,0.18476,1.06324
123.22,18.73305,-0.10423,0.18426,1.0631
123.82,18.79166,-0.10398,0.18514,1.06295
124.42,18.8506,-0.10397,0.18577,1.06281
125.02,18.90878,-0.10332,0.18628,1.06266
125.62,18.9674,-0.10332,0.18475,1.06252
126.22,19.02601,-0.10459,0.18633,1.06237
126.82,19.08456,-0.10463,0.18552,1.06222
127.42,19.1433,-0.10342,0.18525,1.06208
128.02,19.2015,-0.1032,0.18562,1.06193
128.62,19.25974,-0.10332,0.1882,1.06178
129.22,19.31801,-0.10463,0.18726,1.06163
129.82,19.3765,-0.10463,0.1876,1.06148
130.42,19.43511,-0.10596,0.18635,1.06132
131.02,19.4934,-0.10611,0.18857,1.06117
131.62,19.5516,-0.10648,0.18897,1.06102
132.22,19.60986,-0.10595,0.19143,1.06086
132.82,19.66832,-0.10595,0.19078,1.06071
133.42,19.7267,-0.10595,0.19151,1.06055
134.02,19.7851,-0.10458,0.19107,1.06039
134.62,19.8434,-0.10463,0.19286,1.06024
135.22,19.90173,-0.10593,0.1934,1.06008
135.82,19.9598,-0.10727,0.19375,1.05992
136.42,20.0179,-0.10857,0.19553,1.05976
137.02,20.07595,-0.10857,0.19282,1.0596
137.62,20.13405,-0.10994,0.19579,1.05944
138.22,20.1921,-0.10859,0.19636,1.05927
138.82,20.2502,-0.1099,0.19695,1.05911
139.42,20.3083,-0.1099,0.19764,1.05895
140.02,20.3663,-0.1099,0.197,1.05878
140.62,20.42449,-0.1099,0.1982,1.05862
141.22,20.48252,-0.1099,0.19938,1.05845
141.82,20.54072,-0.10941,0.19963,1.05828
142.42,20.59883,-0.10965,0.20249,1.05811
143.02,20.65701,-0.11154,0.20364,1.05795
143.62,20.7146,-0.11012,0.20131,1.05778
144.22,20.77251,-0.11009,0.2045,1.05761
144.82,20.83054,-0.11144,0.20462,1.05743
145.42,20.88899,-0.11144,0.20443,1.05726
146.02,20.94731,-0.11213,0.20656,1.05709
146.62,21.00539,-0.11209,0.20627,1.05692
147.22,21.06326,-0.11209,0.20678,1.05674
147.82,21.121,-0.11344,0.21026,1.05657
148.42,21.17861,-0.11341,0.21033,1.05639
149.02,21.23625,-0.11341,0.21345,1.05621
149.62,21.2938,-0.11334,0.21205,1.05604
150.22,21.3516,-0.11473,0.21356,1.05586
150.82,21.40944,-0.11374,0.21353,1.05568
151.42,21.46752,-0.11374,0.21511,1.0555
152.02,21.52543,-0.11374,0.21707,1.05532
152.62,21.58309,-0.11492,0.2187,1.05514
153.22,21.64092,-0.11511,0.21982,1.05495
153.82,21.69867,-0.11637,0.22113,1.05477
154.42,21.75657,-0.1174,0.22286,1.05459
155.02,21.8144,-0.11773,0.22432,1.0544
155.62,21.87218,-0.11637,0.22333,1.05422
156.22,21.92972,-0.11769,0.22383,1.05403
156.82,21.9875,-0.11768,0.22615,1.05385
157.42,22.04533,-0.11638,0.22738,1.05366
158.02,22.10281,-0.119,0.23131,1.05347
158.62,22.1605,-0.11901,0.23172,1.05328
159.22,22.21819,-0.11957,0.23245,1.05309
159.82,22.27591,-0.12094,0.23272,1.0529
160.42,22.33384,-0.12098,0.23695,1.05271
161.02,22.39149,-0.12098,0.23948,1.05252
161.62,22.44921,-0.12231,0.23843,1.05232
162.22,22.50667,-0.12227,0.24214,1.05213
162.82,22.5643,-0.12296,0.2432,1.05193
163.42,22.62195,-0.12372,0.24768,1.05174
164.02,22.6796,-0.12394,0.25057,1.05154
164.62,22.7373,-0.12394,0.24989,1.05135
165.22,22.79495,-0.12394,0.25391,1.05115
165.82,22.85256,-0.1251,0.25542,1.05095
166.42,22.91028,-0.12525,0.2561,1.05075
167.02,22.96795,-0.1258,0.25882,1.05055
167.62,23.02542,-0.1279,0.26252,1.05035
168.22,23.08315,-0.12789,0.26469,1.05015
168.82,23.14068,-0.12886,0.26669,1.04995
169.42,23.19839,-0.12887,0.26958,1.04974
170.02,23.2561,-0.12919,0.27314,1.04954
170.62,23.31374,-0.12952,0.27699,1.04934
171.22,23.37177,-0.13064,0.27902,1.04913
171.82,23.4295,-0.13184,0.28097,1.04892
172.42,23.4872,-0.13184,0.28568,1.04872
173.02,23.5448,-0.13217,0.28913,1.04851
173.62,23.60233,-0.1335,0.29117,1.0483
174.22,23.65991,-0.13349,0.29645,1.04809
174.82,23.71741,-0.13421,0.29969,1.04788
175.42,23.77499,-0.13611,0.30127,1.04767
176.02,23.83275,-0.13611,0.30557,1.04746
176.62,23.89035,-0.13611,0.3106,1.04725
177.22,23.94802,-0.13743,0.31201,1.04703
177.82,24.0055,-0.13899,0.31593,1.04682
178.42,24.0628,-0.14004,0.3206,1.04661
179.02,24.12025,-0.14006,0.32147,1.04639
179.62,24.17793,-0.14139,0.32794,1.04618
180.22,24.23568,-0.14268,0.33102,1.04596
180.82,24.2933,-0.14364,0.33535,1.04574
181.42,24.35076,-0.14467,0.34039,1.04552
182.02,24.40837,-0.146,0.34401,1.0453
182.62,24.46572,-0.14775,0.34757,1.04508
183.22,24.52321,-0.14925,0.35272,1.04486
183.82,24.5808,-0.14968,0.35612,1.04464
184.42,24.6382,-0.1506,0.36325,1.04442
185.02,24.69598,-0.15225,0.36643,1.0442
185.62,24.75354,-0.15322,0.3699,1.04397
186.22,24.81121,-0.15366,0.37751,1.04375
186.82,24.86862,-0.15454,0.38049,1.04353
187.42,24.92612,-0.15586,0.38553,1.0433
188.02,24.9836,-0.1559,0.39003,1.04307
188.62,25.04115,-0.15825,0.39515,1.04285
189.22,25.09866,-0.16031,0.40068,1.04262
189.82,25.15564,-0.16114,0.40542,1.04239
190.42,25.2129,-0.16335,0.40771,1.04216
191.02,25.27029,-0.16508,0.41349,1.04193
191.62,25.3279,-0.16754,0.41816,1.0417
192.22,25.38564,-0.1688,0.42655,1.04147
192.82,25.4433,-0.17157,0.42954,1.04123
193.42,25.501,-0.17172,0.43469,1.041
194.02,25.55828,-0.17351,0.43978,1.04077
194.62,25.61552,-0.17669,0.4437,1.04053
195.22,25.67276,-0.17802,0.44815,1.0403
195.82,25.7299,-0.17823,0.45319,1.04006
196.42,25.78739,-0.17952,0.45509,1.03982
197.02,25.8448,-0.18236,0.46188,1.03959
197.62,25.90211,-0.18521,0.46599,1.03935
198.22,25.95939,-0.18591,0.47052,1.03911
198.82,26.01642,-0.18853,0.47322,1.03887
199.42,26.07402,-0.19127,0.47717,1.03863
200.02,26.13164,-0.19315,0.48204,1.03839
200.62,26.18931,-0.19447,0.48555,1.03815
201.22,26.24693,-0.19581,0.4883,1.0379
201.82,26.3043,-0.19682,0.49253,1.03766
202.42,26.36165,-0.19925,0.49639,1.03742
203.02,26.41899,-0.20075,0.50028,1.03717
203.62,26.4765,-0.20421,0.50132,1.03692
204.22,26.53384,-0.20611,0.50566,1.03668
204.82,26.5914,-0.20905,0.50656,1.03643
205.42,26.6489,-0.21038,0.5093,1.03618
206.02,26.7065,-0.21164,0.51393,1.03593
206.62,26.76405,-0.2144,0.51304,1.03569
207.22,26.82163,-0.21609,0.51585,1.03544
207.82,26.87913,-0.21795,0.51718,1.03518
208.42,26.93678,-0.22168,0.51752,1.03493
209.02,26.99448,-0.2232,0.51996,1.03468
209.62,27.05201,-0.22594,0.5191,1.03443
210.22,27.10957,-0.22725,0.52309,1.03417
210.82,27.167,-0.23006,0.52254,1.03392
211.42,27.22455,-0.23195,0.52315,1.03367
212.02,27.2821,-0.23422,0.52398,1.03341
212.62,27.3396,-0.237,0.52489,1.03315
213.22,27.397,-0.23821,0.52381,1.0329
213.82,27.4546,-0.24105,0.52448,1.03264
214.42,27.512,-0.24231,0.52414,1.03238
215.02,27.5695,-0.24477,0.5268,1.03212
215.62,27.627,-0.24725,0.52277,1.03186
216.22,27.68468,-0.25124,0.52211,1.0316
216.82,27.74222,-0.25247,0.52117,1.03134
217.42,27.7999,-0.25523,0.51833,1.03107
218.02,27.8572,-0.25649,0.51742,1.03081
218.62,27.9146,-0.25911,0.51648,1.03055
219.22,27.97202,-0.26123,0.51618,1.03028
219.82,28.0295,-0.26387,0.51423,1.03002
220.42,28.087,-0.26662,0.51567,1.02975
221.02,28.14425,-0.26957,0.51477,1.02949
221.62,28.2014,-0.27135,0.51236,1.02922
222.22,28.25869,-0.27413,0.51242,1.02895
222.82,28.31615,-0.27545,0.50803,1.02868
223.42,28.3735,-0.27822,0.50669,1.02841
224.02,28.43106,-0.28098,0.50542,1.02814
224.62,28.48838,-0.28263,0.50261,1.02787
225.22,28.54559,-0.28563,0.50022,1.0276
225.82,28.6029,-0.28772,0.49802,1.02733
226.42,28.66013,-0.29,0.49523,1.02706
227.02,28.71755,-0.29329,0.49508,1.02678
227.62,28.77502,-0.29589,0.49241,1.02651
228.22,28.8324,-0.29871,0.49083,1.02623
228.82,28.88986,-0.30185,0.48723,1.02596
229.42,28.9472,-0.30453,0.48432,1.02568
230.02,29.00445,-0.30712,0.48295,1.0254
230.62,29.0617,-0.30986,0.48028,1.02513
231.22,29.1189,-0.31148,0.4783,1.02485
231.82,29.1762,-0.31465,0.47333,1.02457
232.42,29.2332,-0.31604,0.47103,1.02429
233.02,29.29055,-0.31876,0.46939,1.02401
233.62,29.34777,-0.321,0.46574,1.02373
234.22,29.4051,-0.3238,0.46368,1.02344
234.82,29.4625,-0.32651,0.46255,1.02316
235.42,29.51965,-0.32916,0.4608,1.02288
236.02,29.5769,-0.33252,0.45723,1.02259
236.62,29.6341,-0.33416,0.45587,1.02231
237.22,29.69142,-0.33804,0.45218,1.02202
237.82,29.7487,-0.34085,0.45228,1.02174
238.42,29.8059,-0.34405,0.44684,1.02145
239.02,29.8631,-0.34532,0.44638,1.02116
239.62,29.92018,-0.34893,0.44092,1.02087
240.22,29.9776,-0.35252,0.43861,1.02059
240.82,30.03485,-0.35449,0.43844,1.0203
241.42,30.09204,-0.35838,0.43475,1.02001
242.02,30.14919,-0.36138,0.43053,1.01971
242.62,30.2063,-0.36455,0.42976,1.01942
243.22,30.26365,-0.36779,0.42066,1.01913
243.82,30.321,-0.36901,0.42153,1.01884
244.42,30.3783,-0.37222,0.41966,1.01854
245.02,30.43546,-0.37551,0.41664,1.01825
245.62,30.49264,-0.37861,0.41439,1.01795
246.22,30.54996,-0.38193,0.41262,1.01766
246.82,30.60738,-0.38581,0.40791,1.01736
247.42,30.6646,-0.38897,0.40581,1.01707
248.02,30.72188,-0.39362,0.40431,1.01677
248.62,30.77908,-0.39548,0.4026,1.01647
249.22,30.8365,-0.3975,0.40097,1.01617
249.82,30.8939,-0.40059,0.39673,1.01587
250.42,30.9514,-0.40388,0.39382,1.01557
251.02,31.0087,-0.40717,0.3905,1.01527
251.62,31.06591,-0.41098,0.38964,1.01497
252.22,31.12292,-0.41452,0.38779,1.01466
252.82,31.1803,-0.41736,0.38545,1.01436
253.42,31.23767,-0.42067,0.38272,1.01406
254.02,31.2953,-0.42431,0.37944,1.01375
254.62,31.35264,-0.4302,0.3758,1.01345
255.22,31.40977,-0.43368,0.37554,1.01314
255.82,31.46704,-0.43744,0.37283,1.01284
256.42,31.52447,-0.44059,0.36776,1.01253
257.02,31.58163,-0.44561,0.36641,1.01222
257.62,31.63904,-0.44912,0.36323,1.01191
258.22,31.6962,-0.45258,0.36117,1.0116
258.82,31.75357,-0.45603,0.35963,1.01129
259.42,31.8109,-0.46055,0.35402,1.01098
260.02,31.86835,-0.46484,0.3535,1.01067
260.62,31.92591,-0.46798,0.35139,1.01036
261.22,31.9833,-0.47402,0.35091,1.01005
261.82,32.04059,-0.47826,0.34691,1.00973
262.42,32.09795,-0.48185,0.34191,1.00942
263.02,32.15532,-0.48697,0.34003,1.00911
263.62,32.2127,-0.49143,0.33608,1.00879
264.22,32.2701,-0.49689,0.33426,1.00848
264.82,32.3275,-0.50044,0.33023,1.00816
265.42,32.3849,-0.50531,0.32698,1.00784
266.02,32.44234,-0.51167,0.32576,1.00752
266.62,32.4997,-0.51629,0.32063,1.00721
267.22,32.55687,-0.52017,0.31812,1.00689
267.82,32.61425,-0.52514,0.31708,1.00657
268.42,32.67168,-0.53121,0.31235,1.00625
269.02,32.7294,-0.53662,0.30937,1.00593
269.62,32.78682,-0.54232,0.30704,1.0056
270.22,32.84418,-0.54672,0.30435,1.00528
270.82,32.90139,-0.55184,0.30246,1.00496
271.42,32.9589,-0.55905,0.29819,1.00464
272.02,33.01625,-0.56448,0.29514,1.00431
272.62,33.07371,-0.57144,0.29213,1.00399
273.22,33.13106,-0.57792,0.28849,1.00366
273.82,33.1885,-0.58431,0.2823,1.00333
274.42,33.24588,-0.59018,0.2809,1.00301
275.02,33.3033,-0.5965,0.27536,1.00268
275.62,33.3608,-0.6034,0.27369,1.00235
276.22,33.41831,-0.60907,0.27007,1.00202
276.82,33.4758,-0.61551,0.26658,1.00169
277.42,33.5334,-0.62272,0.26484,1.00136
278.02,33.59083,-0.62913,0.26044,1.00103
278.62,33.64833,-0.63715,0.25713,1.0007
279.22,33.70582,-0.64437,0.25311,1.00037
279.82,33.76325,-0.65179,0.24859,1.00004
280.42,33.82071,-0.65885,0.24693,0.9997
281.02,33.87822,-0.66583,0.24473,0.99937
281.62,33.93569,-0.67297,0.23926,0.99904
282.22,33.99321,-0.68069,0.23787,0.9987
282.82,34.0507,-0.68944,0.23378,0.99837
283.42,34.10801,-0.69665,0.22955,0.99803
284.02,34.16538,-0.70512,0.22795,0.99769
284.62,34.2226,-0.71293,0.22368,0.99735
285.22,34.27991,-0.71953,0.2196,0.99702
285.82,34.3374,-0.72774,0.21464,0.99668
286.42,34.3947,-0.73534,0.21448,0.99634
287.02,34.45224,-0.74331,0.20989,0.996
287.62,34.50965,-0.75171,0.20591,0.99566
288.22,34.56726,-0.76103,0.20487,0.99532
288.82,34.62489,-0.76841,0.19788,0.99497
289.42,34.68258,-0.77761,0.19612,0.99463
290.02,34.74037,-0.78617,0.19299,0.99429
290.62,34.79781,-0.79403,0.19064,0.99394
291.22,34.85536,-0.80195,0.18757,0.9936
291.82,34.9127,-0.81226,0.1863,0.99325
292.42,34.97031,-0.81993,0.18137,0.99291
293.02,35.02794,-0.82887,0.17911,0.99256
293.62,35.0856,-0.83781,0.17315,0.99222
294.22,35.1432,-0.84689,0.1715,0.99187
294.82,35.20106,-0.85553,0.16701,0.99152
295.42,35.25873,-0.86441,0.16429,0.99117
296.02,35.31647,-0.87402,0.16131,0.99082
296.62,35.37415,-0.88209,0.1586,0.99047
297.22,35.43182,-0.89131,0.15636,0.99012
297.82,35.48955,-0.90153,0.15357,0.98977
298.42,35.5473,-0.91014,0.15127,0.98942
299.02,35.60494,-0.91819,0.14758,0.98907
299.62,35.66253,-0.92858,0.14908,0.98871
300.22,35.72034,-0.93741,0.14583,0.98836
300.82,35.77802,-0.947,0.14322,0.98801
301.42,35.83597,-0.9566,0.14125,0.98765
302.02,35.89385,-0.96639,0.14089,0.98729
302.62,35.95174,-0.97512,0.13815,0.98694
303.22,36.00963,-0.9861,0.13517,0.98658
303.82,36.0673,-0.99502,0.13213,0.98622
304.42,36.12482,-1.00529,0.13276,0.98587
305.02,36.18234,-1.01552,0.13038,0.98551
305.62,36.23984,-1.02455,0.13197,0.98515
306.22,36.29741,-1.03331,0.1267,0.98479
306.82,36.35508,-1.04289,0.12401,0.98443
307.42,36.4126,-1.0536,0.12698,0.98407
308.02,36.47017,-1.06321,0.12438,0.98371
308.62,36.5276,-1.07335,0.12175,0.98335
309.22,36.58511,-1.08406,0.12173,0.98298
309.82,36.64289,-1.09413,0.12088,0.98262
310.42,36.7005,-1.10717,0.11679,0.98226
311.02,36.75824,-1.11635,0.11726,0.98189
311.62,36.81595,-1.12568,0.1196,0.98153
312.22,36.87373,-1.13483,0.11683,0.98116
312.82,36.93141,-1.14589,0.11666,0.98079
313.42,36.98938,-1.15457,0.11573,0.98043
314.02,37.0473,-1.16603,0.11808,0.98006
314.62,37.10507,-1.17689,0.11599,0.97969
315.22,37.16279,-1.18822,0.11459,0.97932
315.82,37.22054,-1.19864,0.11736,0.97895
316.42,37.2783,-1.20923,0.11568,0.97858
317.02,37.33595,-1.22017,0.11633,0.97821
317.62,37.39385,-1.23082,0.11703,0.97784
318.22,37.4514,-1.24151,0.11895,0.97747
318.82,37.50928,-1.25171,0.12181,0.9771
319.42,37.567,-1.26306,0.12099,0.97673
320.02,37.62481,-1.27442,0.12178,0.97635
320.62,37.68275,-1.28556,0.12073,0.97598
321.22,37.74064,-1.298,0.12291,0.97561
321.82,37.7984,-1.30937,0.12209,0.97523
322.42,37.85622,-1.32168,0.12409,0.97486
323.02,37.9141,-1.33244,0.12423,0.97448
323.62,37.972,-1.34453,0.12525,0.9741
324.22,38.0298,-1.356,0.12841,0.97373
324.82,38.08769,-1.36773,0.12666,0.97335
325.42,38.1456,-1.37925,0.1285,0.97297
326.02,38.20357,-1.39022,0.13046,0.97259
326.62,38.26163,-1.40281,0.13173,0.97221
327.22,38.31958,-1.41508,0.13341,0.97183
327.82,38.37754,-1.42681,0.13174,0.97145
328.42,38.43557,-1.43981,0.13421,0.97107
329.02,38.4938,-1.45187,0.13652,0.97069
329.62,38.55192,-1.46453,0.13792,0.97031
330.22,38.6101,-1.47661,0.14134,0.96992
330.82,38.66829,-1.48951,0.14223,0.96954
331.42,38.72613,-1.50264,0.14541,0.96915
332.02,38.7841,-1.51475,0.14646,0.96877
332.62,38.84225,-1.52794,0.15118,0.96839
333.22,38.90043,-1.54186,0.15166,0.968
333.82,38.95859,-1.55584,0.15513,0.96761
334.42,39.01655,-1.56933,0.15685,0.96723
335.02,39.0745,-1.58311,0.16132,0.96684
335.62,39.13263,-1.59656,0.16096,0.96645
336.22,39.19059,-1.61132,0.16292,0.96606
336.82,39.24852,-1.62432,0.16755,0.96567
337.42,39.3066,-1.63888,0.17012,0.96528
338.02,39.36473,-1.65423,0.17099,0.96489
338.62,39.423,-1.66917,0.1734,0.9645
339.22,39.48109,-1.68249,0.17686,0.96411
339.82,39.5394,-1.6973,0.18037,0.96372
340.42,39.59754,-1.71412,0.18516,0.96333
341.02,39.65578,-1.72946,0.18909,0.96293
341.62,39.7138,-1.74569,0.18542,0.96254
342.22,39.7718,-1.76015,0.1911,0.96215
342.82,39.82979,-1.77641,0.19423,0.96175
343.42,39.88795,-1.79263,0.19671,0.96136
344.02,39.9462,-1.81008,0.19995,0.96096
344.62,40.00464,-1.82561,0.20284,0.96057
345.22,40.0625,-1.84146,0.20794,0.96017
345.82,40.1205,-1.85899,0.20903,0.95977
346.42,40.17861,-1.87516,0.21373,0.95937
347.02,40.23675,-1.8925,0.21481,0.95898
347.62,40.29522,-1.90958,0.21784,0.95858
348.22,40.35351,-1.92942,0.22083,0.95818
348.82,40.4116,-1.94688,0.22534,0.95778
349.42,40.4698,-1.96421,0.22792,0.95738
350.02,40.5281,-1.98226,0.22976,0.95698
350.62,40.58616,-2.00027,0.2322,0.95658
351.22,40.6443,-2.01893,0.2333,0.95617
351.82,40.70254,-2.03834,0.23468,0.95577
352.42,40.7607,-2.05757,0.23734,0.95537
353.02,40.81889,-2.07693,0.23832,0.95496
353.62,40.8773,-2.09523,0.24307,0.95456
354.22,40.93548,-2.11385,0.24193,0.95416
354.82,40.99348,-2.13549,0.24251,0.95375
355.42,41.0516,-2.15413,0.24174,0.95334
356.02,41.10971,-2.17519,0.24494,0.95294
356.62,41.16814,-2.19444,0.24284,0.95253
357.22,41.2266,-2.21544,0.24575,0.95212
357.82,41.28488,-2.23411,0.24287,0.95172
358.42,41.34319,-2.25298,0.24149,0.95131
359.02,41.40135,-2.27284,0.24256,0.9509
359.62,41.45948,-2.29124,0.2378,0.95049
360.22,41.5178,-2.31082,0.23688,0.95008
360.82,41.57608,-2.33179,0.23168,0.94967
361.42,41.63436,-2.35105,0.22751,0.94926
362.02,41.6928,-2.36997,0.22171,0.94885
362.62,41.7511,-2.39038,0.21841,0.94843
363.22,41.8097,-2.40654,0.21336,0.94802
363.82,41.86805,-2.42582,0.20489,0.94761
364.42,41.9263,-2.44372,0.19934,0.9472
365.02,41.9846,-2.46206,0.1898,0.94678
365.62,42.0428,-2.47629,0.18147,0.94637
366.22,42.1012,-2.49322,0.17329,0.94595
366.82,42.1593,-2.50934,0.1634,0.94554
367.42,42.2177,-2.52452,0.15316,0.94512
368.02,42.27585,-2.53934,0.1412,0.9447
368.62,42.33397,-2.55299,0.13005,0.94429
369.22,42.3921,-2.56703,0.11809,0.94387
369.82,42.4501,-2.58016,0.10559,0.94345
370.42,42.50816,-2.59134,0.09513486,0.94303
371.02,42.56661,-2.60215,0.08427786,0.94261
371.62,42.62513,-2.61161,0.0737782,0.94219
372.22,42.68356,-2.62158,0.06205377,0.94177
372.82,42.74199,-2.62933,0.05087114,0.94135
373.42,42.80035,-2.638,0.03980783,0.94093
374.02,42.8589,-2.64491,0.03106145,0.94051
374.62,42.9172,-2.65335,0.01982193,0.94009
375.22,42.9755,-2.6593,0.01180848,0.93967
375.82,43.03362,-2.66604,0.004871193,0.93924
376.42,43.09183,-2.6708,-0.003024329,0.93882
377.02,43.15031,-2.67592,-0.01039196,0.9384
377.62,43.20851,-2.68049,-0.01483397,0.93797
378.22,43.26672,-2.68479,-0.02127982,0.93755
378.82,43.32502,-2.68911,-0.02399371,0.93712
379.42,43.3834,-2.69296,-0.03045289,0.93669
380.02,43.44187,-2.69507,-0.03385653,0.93627
380.62,43.50039,-2.69819,-0.04024961,0.93584
381.22,43.55873,-2.70172,-0.04086101,0.93541
381.82,43.61721,-2.70517,-0.04295096,0.93499
382.42,43.67556,-2.70759,-0.04809481,0.93456
383.02,43.73397,-2.70854,-0.05012342,0.93413
383.62,43.79246,-2.71122,-0.0534033,0.9337
384.22,43.85074,-2.71419,-0.05467486,0.93327
384.82,43.90905,-2.71841,-0.05691174,0.93284
385.42,43.9676,-2.71997,-0.05983722,0.93241
386.02,44.026,-2.72215,-0.06052351,0.93198
386.62,44.08461,-2.72442,-0.06300113,0.93155
387.22,44.14327,-2.72637,-0.06240445,0.93111
387.82,44.20179,-2.7309,-0.06397464,0.93068
388.42,44.26021,-2.73229,-0.064584,0.93025
389.02,44.31876,-2.73529,-0.06931022,0.92981
389.62,44.37722,-2.73825,-0.06596382,0.92938
390.22,44.4358,-2.73972,-0.06770128,0.92894
390.82,44.4942,-2.74247,-0.07129182,0.92851
391.42,44.55273,-2.74474,-0.07143251,0.92807
392.02,44.6113,-2.74665,-0.07258302,0.92764
392.62,44.6699,-2.74796,-0.07382912,0.9272
393.22,44.72841,-2.75126,-0.07502638,0.92676
393.82,44.78694,-2.75324,-0.07578825,0.92633
394.42,44.84538,-2.75535,-0.07476103,0.92589
395.02,44.90382,-2.75837,-0.07670439,0.92545
395.62,44.96239,-2.75877,-0.07638761,0.92501
396.22,45.0208,-2.76098,-0.07825142,0.92457
396.82,45.07934,-2.76341,-0.07827393,0.92413
397.42,45.13779,-2.76584,-0.07892771,0.92369
398.02,45.19621,-2.76792,-0.08258342,0.92325
398.62,45.2548,-2.76968,-0.08172153,0.92281
399.22,45.31349,-2.77192,-0.08216881,0.92237
399.82,45.37235,-2.77559,-0.08107421,0.92193
400.42,45.43098,-2.77724,-0.0837513,0.92149
401.02,45.4897,-2.7792,-0.08441891,0.92104
401.62,45.5483,-2.7813,-0.08403071,0.9206
402.22,45.60689,-2.78407,-0.08399452,0.92016
402.82,45.66556,-2.78425,-0.08871269,0.91971
403.42,45.72416,-2.78766,-0.08862842,0.91927
404.02,45.78294,-2.79098,-0.08695308,0.91882
404.62,45.84152,-2.79096,-0.08535083,0.91838
405.22,45.90028,-2.79383,-0.08731045,0.91793
405.82,45.95902,-2.7953,-0.08449929,0.91748
406.42,46.01774,-2.79789,-0.08710859,0.91704
407.02,46.07618,-2.7993,-0.08466124,0.91659
407.62,46.1346,-2.80212,-0.08421059,0.91614
408.22,46.19297,-2.80363,-0.08820511,0.91569
408.82,46.25143,-2.8051,-0.08744952,0.91524
409.42,46.31023,-2.80667,-0.0880442,0.9148
410.02,46.36909,-2.80905,-0.08622361,0.91435
410.62,46.4278,-2.81033,-0.08888296,0.9139
411.22,46.48652,-2.81205,-0.08594962,0.91344
411.82,46.5451,-2.81457,-0.08618699,0.91299
412.42,46.6038,-2.81629,-0.08485196,0.91254
413.02,46.66247,-2.81888,-0.08422205,0.91209
413.62,46.72112,-2.82153,-0.08453661,0.91164
414.22,46.77968,-2.82274,-0.08303424,0.91119
414.82,46.83821,-2.82328,-0.08488604,0.91073
415.42,46.89689,-2.82623,-0.08417612,0.91028
416.02,46.9555,-2.82893,-0.08459107,0.90983
416.62,47.01421,-2.83033,-0.08342047,0.90937
417.22,47.07273,-2.83284,-0.08470284,0.90892
417.82,47.13114,-2.83275,-0.08288689,0.90846
418.42,47.18963,-2.83416,-0.08076123,0.90801
419.02,47.24823,-2.83737,-0.0814568,0.90755
419.62,47.30715,-2.83861,-0.08264635,0.90709
420.22,47.36569,-2.84162,-0.08185684,0.90664
420.82,47.4243,-2.84458,-0.07952249,0.90618
421.42,47.48278,-2.84578,-0.0795604,0.90572
422.02,47.54145,-2.8471,-0.08021324,0.90526
422.62,47.60009,-2.84844,-0.07649838,0.9048
423.22,47.65867,-2.84993,-0.07911679,0.90435
423.82,47.71725,-2.85173,-0.07654068,0.90389
424.42,47.77598,-2.85411,-0.074675,0.90343
425.02,47.8348,-2.85568,-0.07535663,0.90297
425.62,47.89362,-2.85604,-0.0752833,0.9025
426.22,47.9523,-2.8588,-0.07330744,0.90204
426.82,48.0109,-2.86087,-0.07250663,0.90158
427.42,48.06982,-2.86182,-0.07002007,0.90112
428.02,48.1288,-2.86338,-0.06935943,0.90066
428.62,48.18789,-2.86692,-0.06943935,0.9002
429.22,48.24687,-2.86841,-0.06936311,0.89973
429.82,48.30579,-2.86981,-0.06979512,0.89927
430.42,48.36472,-2.87145,-0.07075128,0.8988
431.02,48.42358,-2.87375,-0.06681757,0.89834
431.62,48.48243,-2.8751,-0.06795894,0.89788
432.22,48.54122,-2.87509,-0.06722947,0.89741
432.82,48.6001,-2.8764,-0.06504033,0.89694
433.42,48.65883,-2.87918,-0.062451,0.89648
434.02,48.71764,-2.88001,-0.06460785,0.89601
434.62,48.77621,-2.88195,-0.06330094,0.89555
435.22,48.83509,-2.88426,-0.06118596,0.89508
435.82,48.8943,-2.88588,-0.06248521,0.89461
436.42,48.95362,-2.88744,-0.06062461,0.89414
437.02,49.01253,-2.88791,-0.06059786,0.89367
437.62,49.07155,-2.88937,-0.06024222,0.89321
438.22,49.13044,-2.89123,-0.05900366,0.89274
438.82,49.18949,-2.8925,-0.05731485,0.89227
439.42,49.24853,-2.89307,-0.05643583,0.8918
440.02,49.30727,-2.89514,-0.05797893,0.89133
440.62,49.36626,-2.89577,-0.05670129,0.89086
441.22,49.42525,-2.89809,-0.05442078,0.89038
441.82,49.48428,-2.89949,-0.05575041,0.88991
442.42,49.54339,-2.90078,-0.05493444,0.88944
443.02,49.60212,-2.90223,-0.05490909,0.88897
443.62,49.66109,-2.90346,-0.05305706,0.8885
444.22,49.71998,-2.90503,-0.05318723,0.88802
444.82,49.7789,-2.90659,-0.05535222,0.88755
445.42,49.83777,-2.90874,-0.0518478,0.88708
446.02,49.89671,-2.90988,-0.05000794,0.8866
446.62,49.95583,-2.90998,-0.05082178,0.88613
447.22,50.01506,-2.91138,-0.05051523,0.88565
447.82,50.07435,-2.91273,-0.04950264,0.88518
448.42,50.13325,-2.91429,-0.04786581,0.8847
449.02,50.19223,-2.91678,-0.04593061,0.88423
449.62,50.25119,-2.91673,-0.04730184,0.88375
450.22,50.31037,-2.92054,-0.04666502,0.88327
450.82,50.36933,-2.92069,-0.04627025,0.88279
451.42,50.42844,-2.9218,-0.04308263,0.88232
452.02,50.48752,-2.92316,-0.04427987,0.88184
452.62,50.5466,-2.92312,-0.04559037,0.88136
453.22,50.60575,-2.92476,-0.04434724,0.88088
453.82,50.6649,-2.92571,-0.04547702,0.8804
454.42,50.72392,-2.92839,-0.04336316,0.87992
455.02,50.78306,-2.92971,-0.04161997,0.87944
455.62,50.84214,-2.93038,-0.04215437,0.87896
456.22,50.9012,-2.93168,-0.04012086,0.87848
456.82,50.9602,-2.933,-0.04338213,0.878
457.42,51.0193,-2.93432,-0.03886923,0.87752
458.02,51.07837,-2.93556,-0.0386543,0.87704
458.62,51.13713,-2.93694,-0.0377462,0.87656
459.22,51.19616,-2.93826,-0.03742568,0.87608
459.82,51.2552,-2.93956,-0.03768213,0.87559
460.42,51.31426,-2.94087,-0.03619551,0.87511
461.02,51.37339,-2.94157,-0.03601176,0.87463
461.62,51.43238,-2.94358,-0.03607655,0.87414
462.22,51.49133,-2.94485,-0.0353705,0.87366
462.82,51.5504,-2.94486,-0.0339178,0.87317
463.42,51.6098,-2.94724,-0.03199432,0.87269
464.02,51.66888,-2.94978,-0.03701821,0.8722
464.62,51.72807,-2.94766,-0.03314752,0.87172
465.22,51.7872,-2.9489,-0.0328792,0.87123
465.82,51.84648,-2.95023,-0.03117542,0.87075
466.42,51.90571,-2.95152,-0.03338647,0.87026
467.02,51.9649,-2.95295,-0.03294364,0.86977
467.62,52.02397,-2.95422,-0.03116128,0.86929
468.22,52.08318,-2.95509,-0.03116369,0.8688
468.82,52.14243,-2.9555,-0.03320996,0.86831
469.42,52.20193,-2.95781,-0.03037258,0.86782
470.02,52.26132,-2.95857,-0.02830303,0.86733
470.62,52.32066,-2.96231,-0.03007674,0.86684
471.22,52.38008,-2.96229,-0.02957124,0.86635
471.82,52.4393,-2.9623,-0.02888891,0.86587
472.42,52.49887,-2.9636,-0.02854825,0.86538
473.02,52.558,-2.96361,-0.02861939,0.86488
473.62,52.61741,-2.96492,-0.02960162,0.86439
474.22,52.67669,-2.96622,-0.02827952,0.8639
474.82,52.73613,-2.96757,-0.02696167,0.86341
475.42,52.7957,-2.96809,-0.02439664,0.86292
476.02,52.855,-2.96882,-0.02433954,0.86243
476.62,52.91415,-2.97019,-0.02333422,0.86194
477.22,52.97341,-2.97048,-0.02386094,0.86144
477.82,53.0325,-2.97151,-0.02173033,0.86095
478.42,53.09185,-2.97281,-0.0202133,0.86046
479.02,53.15104,-2.97546,-0.01972183,0.85996
479.62,53.21014,-2.97577,-0.01936518,0.85947
480.22,53.26935,-2.97572,-0.01919639,0.85897
480.82,53.3285,-2.97671,-0.0167554,0.85848
481.42,53.38765,-2.97809,-0.01460812,0.85799
482.02,53.44695,-2.97943,-0.01268557,0.85749
482.62,53.5061,-2.97943,-0.01158527,0.85699
483.22,53.56534,-2.98072,-0.00711108,0.8565
483.82,53.6244,-2.98205,-0.008508494,0.856
484.42,53.68356,-2.98233,-0.006845721,0.85551
485.02,53.74284,-2.98483,-0.003677519,0.85501
485.62,53.8021,-2.98531,-0.0029098,0.85451
486.22,53.8613,-2.98618,-0.00324625,0.85401
486.82,53.9204,-2.98741,-0.002351901,0.85352
487.42,53.9795,-2.98742,0.004294295,0.85302
488.02,54.03864,-2.98873,0.004131785,0.85252
488.62,54.0979,-2.99,0.005456085,0.85202
489.22,54.15738,-2.99114,0.004734372,0.85152
489.82,54.21657,-2.9906,0.008836319,0.85102
490.42,54.2759,-2.99202,0.007941852,0.85052
491.02,54.3351,-2.99342,0.01059035,0.85002
491.62,54.39445,-2.99338,0.00882719,0.84952
492.22,54.4539,-2.99465,0.01059916,0.84902
492.82,54.5132,-2.99601,0.008387955,0.84852
493.42,54.5728,-2.99726,0.009954186,0.84802
494.02,54.6323,-2.99738,0.01238591,0.84752
494.62,54.69186,-2.99861,0.01358821,0.84702
495.22,54.7514,-2.99991,0.01461361,0.84651
495.82,54.81114,-3.00126,0.01107626,0.84601
496.42,54.87073,-3.00123,0.01341525,0.84551
497.02,54.93031,-3.00256,0.01401771,0.84501
497.62,54.98975,-3.00255,0.01588087,0.8445
498.22,55.04926,-3.00413,0.01412816,0.844
498.82,55.1088,-3.00452,0.01694652,0.8435
499.42,55.16823,-3.00448,0.01625179,0.84299
500.02,55.22766,-3.00583,0.01982926,0.84249
500.62,55.28719,-3.00713,0.01857795,0.84198
501.22,55.34664,-3.00854,0.01726784,0.84148
501.82,55.4061,-3.00974,0.01997787,0.84097
502.42,55.4655,-3.00978,0.01833196,0.84047
503.02,55.52474,-3.01109,0.02083927,0.83996
503.62,55.58433,-3.01149,0.0215641,0.83945
504.22,55.64395,-3.01378,0.021159,0.83895
504.82,55.7035,-3.01374,0.02534859,0.83844
505.42,55.76295,-3.01274,0.02500477,0.83793
506.02,55.8222,-3.01406,0.02549063,0.83743
506.62,55.88149,-3.01536,0.02869182,0.83692
507.22,55.94093,-3.01543,0.02756852,0.83641
507.82,56.0003,-3.01669,0.02815946,0.8359
508.42,56.0596,-3.01801,0.0281743,0.83539
509.02,56.119,-3.01801,0.02930948,0.83488
509.62,56.1785,-3.01926,0.03034546,0.83438
510.22,56.23802,-3.01933,0.03186103,0.83387
510.82,56.29759,-3.02064,0.03099772,0.83336
511.42,56.357,-3.02106,0.03184326,0.83285
512.02,56.4166,-3.02261,0.03006848,0.83234
512.62,56.4761,-3.02374,0.03332803,0.83183
513.22,56.53564,-3.02533,0.03456675,0.83131
513.82,56.595,-3.02525,0.03503958,0.8308
514.42,56.65441,-3.025,0.03251946,0.83029
515.02,56.71345,-3.02567,0.03314668,0.82978
515.62,56.7729,-3.02559,0.03418374,0.82927
516.22,56.83257,-3.02689,0.03642748,0.82876
516.82,56.8926,-3.02796,0.0355139,0.82824
517.42,56.95242,-3.02953,0.03696119,0.82773
518.02,57.0121,-3.03069,0.03575143,0.82722
518.62,57.07189,-3.02952,0.03698496,0.82671
519.22,57.13166,-3.03084,0.03828672,0.82619
519.82,57.19112,-3.03214,0.0376171,0.82568
520.42,57.2509,-3.03215,0.03892612,0.82517
521.02,57.31057,-3.03347,0.04029818,0.82465
521.62,57.3703,-3.03349,0.03982608,0.82414
522.22,57.4304,-3.03479,0.04226016,0.82362
522.82,57.49,-3.0361,0.03878372,0.82311
523.42,57.5494,-3.03612,0.04151702,0.82259
524.02,57.60911,-3.03479,0.03981664,0.82208
524.62,57.6687,-3.03611,0.03993144,0.82156
525.22,57.72855,-3.03634,0.04290513,0.82104
525.82,57.7884,-3.03874,0.04365336,0.82053
526.42,57.84808,-3.03874,0.04145105,0.82001
527.02,57.9077,-3.04008,0.04243067,0.8195
527.62,57.9675,-3.04137,0.0399384,0.81898
528.22,58.0272,-3.04152,0.04139386,0.81846
528.82,58.08695,-3.04268,0.04138367,0.81794
529.42,58.14677,-3.044,0.04069713,0.81743
530.02,58.2065,-3.044,0.03960881,0.81691
530.62,58.26622,-3.044,0.03945684,0.81639
531.22,58.32617,-3.04496,0.03920299,0.81587
531.82,58.386,-3.04539,0.04237147,0.81535
532.42,58.44582,-3.04532,0.04037673,0.81483
533.02,58.5057,-3.04671,0.03812168,0.81431
533.62,58.5655,-3.04795,0.03948355,0.8138
534.22,58.62525,-3.04795,0.03900207,0.81328
534.82,58.685,-3.04925,0.03952892,0.81276
535.42,58.7447,-3.04881,0.03672245,0.81224
536.02,58.8045,-3.04992,0.0378052,0.81172
536.62,58.8643,-3.04992,0.03927809,0.81119
537.22,58.9243,-3.05115,0.03655857,0.81067
537.82,58.9839,-3.05221,0.03640499,0.81015
538.42,59.04368,-3.05187,0.03335977,0.80963
539.02,59.10343,-3.05183,0.03811692,0.80911
539.62,59.1633,-3.05322,0.03502577,0.80859
540.22,59.2233,-3.05459,0.03444507,0.80807
540.82,59.28325,-3.05454,0.03678248,0.80754
541.42,59.34299,-3.05454,0.03328585,0.80702
542.02,59.40262,-3.05456,0.03322526,0.8065
542.62,59.4622,-3.05589,0.03157969,0.80598
543.22,59.5219,-3.05583,0.03229592,0.80545
543.82,59.5818,-3.05585,0.03088974,0.80493
544.42,59.6419,-3.05725,0.0319123,0.80441
545.02,59.70176,-3.05852,0.03085918,0.80388
545.62,59.76135,-3.05893,0.02893865,0.80336
546.22,59.82119,-3.05981,0.02606512,0.80283
546.82,59.88089,-3.06046,0.02566913,0.80231
547.42,59.94065,-3.06109,0.02428515,0.80178
548.02,60.00034,-3.06111,0.02358961,0.80126
548.62,60.0601,-3.06211,0.01810607,0.80073
549.22,60.1199,-3.06243,0.01889426,0.80021
549.82,60.18,-3.06243,0.01769404,0.79968
550.42,60.23986,-3.06374,0.01387922,0.79916
551.02,60.2996,-3.06506,0.01388055,0.79863
551.62,60.35929,-3.06374,0.01057294,0.79811
552.22,60.41891,-3.06499,0.009865404,0.79758
552.82,60.47875,-3.06636,0.00528133,0.79705
553.42,60.5387,-3.06737,0.004206858,0.79653
554.02,60.5985,-3.06737,0.001740965,0.796
554.62,60.6584,-3.0673,0.002146778,0.79547
555.22,60.7181,-3.06868,0.003322935,0.79495
555.82,60.77799,-3.06863,0.00160914,0.79442
556.42,60.838,-3.07034,0.001660654,0.79389
557.02,60.8977,-3.07033,0.001327984,0.79336
557.62,60.95763,-3.07033,0.002738167,0.79283
558.22,61.0174,-3.06947,-6.401616e-05,0.7923
558.82,61.07727,-3.07064,-0.002324142,0.79178
559.42,61.1371,-3.07203,-0.00252798,0.79125
560.02,61.19676,-3.07314,-0.0009572794,0.79072
560.62,61.25649,-3.07329,-0.00490457,0.79019
561.22,61.31625,-3.07329,-0.001566194,0.78966
561.82,61.3762,-3.07467,-0.00244442,0.78913
562.42,61.4364,-3.0746,-0.003681445,0.7886
563.02,61.49635,-3.07517,-0.002318035,0.78807
563.62,61.55624,-3.07559,-0.004119826,0.78754
564.22,61.61606,-3.07692,-0.00366556,0.78701
564.82,61.67606,-3.07691,-0.006529344,0.78648
565.42,61.736,-3.07802,-0.004449446,0.78595
566.02,61.796,-3.07827,-0.002947144,0.78542
566.62,61.85592,-3.07691,-0.003847604,0.78489
567.22,61.91574,-3.07755,-0.006265716,0.78436
567.82,61.97576,-3.0792,-0.007694367,0.78382
568.42,62.03566,-3.0803,-0.00895203,0.78329
569.02,62.09554,-3.08021,-0.009096843,0.78276
569.62,62.1556,-3.08039,-0.01042852,0.78223
570.22,62.21565,-3.08053,-0.01094261,0.7817
570.82,62.27561,-3.08071,-0.009652222,0.78116
571.42,62.33571,-3.08053,-0.01140972,0.78063
572.02,62.3957,-3.08107,-0.0099118,0.7801
572.62,62.4557,-3.08185,-0.008584654,0.77957
573.22,62.51576,-3.08295,-0.006719605,0.77903
573.82,62.5756,-3.08316,-0.01030905,0.7785
574.42,62.6353,-3.08316,-0.01071397,0.77797
575.02,62.69529,-3.08585,-0.009377094,0.77743
575.62,62.75513,-3.08538,-0.00673414,0.7769
576.22,62.8154,-3.0858,-0.007264329,0.77636
576.82,62.87536,-3.0858,-0.008888573,0.77583
577.42,62.9356,-3.08688,-0.00682702,0.7753
578.02,62.99564,-3.08711,-0.009884442,0.77476
578.62,63.05584,-3.08711,-0.01084223,0.77423
579.22,63.1158,-3.08844,-0.01012499,0.77369
579.82,63.17584,-3.08843,-0.009208584,0.77316
580.42,63.23599,-3.08842,-0.01053707,0.77262
581.02,63.29606,-3.08974,-0.01356322,0.77209
581.62,63.35615,-3.08985,-0.009738279,0.77155
582.22,63.4162,-3.08974,-0.01051144,0.77101
582.82,63.4763,-3.09113,-0.01244744,0.77048
583.42,63.5363,-3.09106,-0.01061179,0.76994
584.02,63.5963,-3.09204,-0.0118652,0.76941
584.62,63.6564,-3.09343,-0.01195626,0.76887
585.22,63.71605,-3.09241,-0.01268688,0.76833
585.82,63.77595,-3.09342,-0.01509625,0.7678
586.42,63.83582,-3.09336,-0.01316706,0.76726
587.02,63.89601,-3.09373,-0.01459668,0.76672
587.62,63.9563,-3.09457,-0.01220126,0.76619
588.22,64.0167,-3.09468,-0.01556964,0.76565
588.82,64.07677,-3.0969,-0.01520852,0.76511
589.42,64.13683,-3.097,-0.01348008,0.76457
590.02,64.19685,-3.09599,-0.01196412,0.76404
590.62,64.2569,-3.0973,-0.01495937,0.7635
591.22,64.31695,-3.09731,-0.0142787,0.76296
591.82,64.3772,-3.09756,-0.01322273,0.76242
592.42,64.43745,-3.09757,-0.01439361,0.76188
593.02,64.49769,-3.09731,-0.01585365,0.76135
593.62,64.5579,-3.09863,-0.01729153,0.76081
594.22,64.61788,-3.09928,-0.01518586,0.76027
594.82,64.67764,-3.09928,-0.01960326,0.75973
595.42,64.7375,-3.10061,-0.01496717,0.75919
596.02,64.79754,-3.10062,-0.01714794,0.75865
596.62,64.8577,-3.09928,-0.01740564,0.75811
597.22,64.91826,-3.10052,-0.01808663,0.75757
597.82,64.97827,-3.10159,-0.01470556,0.75703
598.42,65.03837,-3.10294,-0.01959516,0.75649
599.02,65.09852,-3.10291,-0.01679337,0.75595
599.62,65.15853,-3.10291,-0.01758485,0.75541
600.22,65.21855,-3.10291,-0.01846138,0.75487
600.82,65.27841,-3.10213,-0.01962145,0.75433
601.42,65.33853,-3.1029,-0.01744523,0.75379
602.02,65.3986,-3.10347,-0.01973219,0.75325
602.62,65.45876,-3.10422,-0.02036959,0.75271
603.22,65.51909,-3.10422,-0.01965974,0.75217
603.82,65.57936,-3.10583,-0.01491736,0.75163
604.42,65.63975,-3.10653,-0.02064112,0.75109
605.02,65.69994,-3.10653,-0.01681791,0.75055
605.62,65.76002,-3.10784,-0.02116308,0.75001
606.22,65.8202,-3.10784,-0.01961027,0.74946
606.82,65.8805,-3.10784,-0.01893053,0.74892
607.42,65.94077,-3.10784,-0.02066449,0.74838
608.02,66.00092,-3.10784,-0.01683598,0.74784
608.62,66.0612,-3.10788,-0.01819176,0.7473
609.22,66.12131,-3.10908,-0.01829766,0.74676
609.82,66.18171,-3.10915,-0.01939312,0.74621
610.42,66.24194,-3.11051,-0.02337696,0.74567
611.02,66.3024,-3.11047,-0.02328128,0.74513
611.62,66.36284,-3.11047,-0.01984007,0.74459
612.22,66.42312,-3.11179,-0.02123601,0.74404
612.82,66.48359,-3.1131,-0.02395133,0.7435
613.42,66.54389,-3.11307,-0.02187783,0.74296
614.02,66.60421,-3.11211,-0.02018862,0.74241
614.62,66.66445,-3.11431,-0.02149652,0.74187
615.22,66.7246,-3.11442,-0.02221534,0.74133
615.82,66.7845,-3.11442,-0.02460835,0.74078
616.42,66.84472,-3.11449,-0.0230146,0.74024
617.02,66.905,-3.11442,-0.02147636,0.7397
617.62,66.96551,-3.1145,-0.02244137,0.73915
618.22,67.02566,-3.117,-0.02317133,0.73861
618.82,67.08592,-3.11703,-0.02156658,0.73807
619.42,67.14594,-3.11706,-0.02201644,0.73752
620.02,67.20619,-3.11705,-0.02306714,0.73698
620.62,67.26618,-3.11705,-0.02265477,0.73643
621.22,67.3262,-3.11708,-0.02490573,0.73589
621.82,67.38636,-3.11804,-0.02340807,0.73535
622.42,67.44645,-3.11943,-0.02586658,0.7348
623.02,67.50663,-3.11936,-0.02574221,0.73426
623.62,67.56684,-3.11804,-0.02295519,0.73371
624.22,67.6271,-3.11936,-0.02077845,0.73317
624.82,67.68724,-3.12073,-0.02427143,0.73262
625.42,67.74741,-3.12068,-0.02623498,0.73208
626.02,67.8075,-3.12198,-0.02493073,0.73153
626.62,67.86769,-3.12166,-0.0250205,0.73099
627.22,67.92815,-3.12001,-0.02310325,0.73044
627.82,67.98836,-3.12132,-0.02563648,0.7299
628.42,68.04867,-3.12133,-0.02633901,0.72935
629.02,68.10892,-3.12265,-0.02663026,0.7288
629.62,68.16911,-3.12263,-0.0275075,0.72826
630.22,68.2294,-3.12397,-0.02757091,0.72771
630.82,68.2897,-3.12397,-0.02789199,0.72717
631.42,68.3502,-3.12397,-0.02710098,0.72662
632.02,68.41081,-3.12396,-0.02816019,0.72607
632.62,68.4714,-3.12528,-0.02924163,0.72553
633.22,68.53193,-3.12528,-0.02582284,0.72498
633.82,68.5926,-3.12529,-0.02543624,0.72444
634.42,68.65308,-3.12592,-0.02437771,0.72389
635.02,68.71353,-3.12597,-0.02637395,0.72334
635.62,68.77408,-3.12726,-0.02634271,0.7228
636.22,68.83447,-3.12726,-0.02554115,0.72225
636.82,68.8949,-3.12726,-0.02945852,0.7217
637.42,68.95518,-3.12832,-0.02703045,0.72116
638.02,69.01561,-3.12857,-0.02692529,0.72061
638.62,69.07589,-3.12852,-0.02782468,0.72006
639.22,69.13629,-3.12989,-0.02669521,0.71952
639.82,69.19662,-3.12985,-0.02709712,0.71897
640.42,69.2569,-3.13122,-0.02968622,0.71842
641.02,69.31742,-3.12988,-0.02645688,0.71787
641.62,69.37774,-3.12987,-0.02409784,0.71733
642.22,69.43811,-3.1312,-0.02542528,0.71678
642.82,69.49848,-3.1312,-0.02869654,0.71623
643.42,69.5588,-3.1312,-0.03021353,0.71568
644.02,69.6189,-3.13183,-0.02900497,0.71514
644.62,69.67921,-3.13187,-0.03164518,0.71459
645.22,69.73955,-3.13187,-0.02807729,0.71404
645.82,69.79987,-3.13187,-0.02463041,0.71349
646.42,69.86017,-3.13121,-0.02841649,0.71294
647.02,69.92052,-3.13252,-0.03108489,0.7124
647.62,69.98066,-3.13252,-0.02855764,0.71185
648.22,70.04105,-3.13251,-0.0283681,0.7113
648.82,70.10126,-3.13384,-0.02630251,0.71075
649.42,70.16152,-3.13384,-0.03047856,0.7102
650.02,70.2218,-3.13391,-0.02833998,0.70966
650.62,70.28226,-3.13478,-0.02782722,0.70911
651.22,70.3427,-3.13428,-0.02734277,0.70856
651.82,70.40331,-3.13568,-0.03021811,0.70801
652.42,70.46374,-3.13526,-0.03337458,0.70746
653.02,70.52418,-3.13521,-0.02889805,0.70691
653.62,70.5845,-3.13393,-0.02925114,0.70636
654.22,70.64486,-3.13526,-0.02837017,0.70582
654.82,70.70538,-3.13663,-0.02989983,0.70527
655.42,70.7658,-3.13658,-0.02846799,0.70472
656.02,70.82607,-3.13719,-0.03213536,0.70417
656.62,70.88636,-3.13723,-0.02839688,0.70362
657.22,70.94651,-3.13723,-0.03142638,0.70307
657.82,71.00692,-3.13723,-0.02726561,0.70252
658.42,71.06737,-3.13811,-0.03220214,0.70197
659.02,71.128,-3.13855,-0.02950225,0.70142
659.62,71.18855,-3.13855,-0.03168155,0.70087
660.22,71.24916,-3.13855,-0.03088596,0.70033
660.82,71.30955,-3.13887,-0.02972704,0.69978
661.42,71.36998,-3.13921,-0.02871147,0.69923
662.02,71.43037,-3.14052,-0.03283499,0.69868
662.62,71.4909,-3.14186,-0.0321792,0.69813
663.22,71.55116,-3.14152,-0.03368605,0.69758
663.82,71.61155,-3.14184,-0.0302748,0.69703
664.42,71.67195,-3.14184,-0.03154181,0.69648
665.02,71.73244,-3.14163,-0.03518237,0.69593
665.62,71.79303,-3.14086,-0.03519817,0.69538
666.22,71.8534,-3.14086,-0.0323883,0.69483
666.82,71.91383,-3.14215,-0.03474224,0.69428
667.42,71.97414,-3.14218,-0.03713254,0.69373
668.02,72.03446,-3.14218,-0.04145924,0.69318
668.62,72.0946,-3.14218,-0.0393677,0.69263
669.22,72.1547,-3.14218,-0.03881248,0.69208
669.82,72.2148,-3.14348,-0.03829,0.69153
670.42,72.27508,-3.14349,-0.03995891,0.69098
671.02,72.33565,-3.1433,-0.04362213,0.69043
671.62,72.3962,-3.14449,-0.04090865,0.68988
672.22,72.45663,-3.14448,-0.04169277,0.68933
672.82,72.51694,-3.14448,-0.03983389,0.68878
673.42,72.57722,-3.14448,-0.03987511,0.68823
674.02,72.63736,-3.14578,-0.03991304,0.68768
674.62,72.69801,-3.14588,-0.04243986,0.68713
675.22,72.7585,-3.1448,-0.04191451,0.68658
675.82,72.81902,-3.1448,-0.04234556,0.68603
676.42,72.87963,-3.14478,-0.04294673,0.68548
677.02,72.94017,-3.14612,-0.04464094,0.68493
677.62,73.00078,-3.14612,-0.04363261,0.68438
678.22,73.06145,-3.14612,-0.04538267,0.68383
678.82,73.12224,-3.14744,-0.04797799,0.68328
679.42,73.1829,-3.14744,-0.04582211,0.68273
680.02,73.24368,-3.14748,-0.04612949,0.68218
680.62,73.3045,-3.14875,-0.04590072,0.68163
681.22,73.3652,-3.14875,-0.04670258,0.68108
681.82,73.42579,-3.14875,-0.04629504,0.68053
682.42,73.48613,-3.14875,-0.04631933,0.67998
683.02,73.54649,-3.15005,-0.0495537,0.67943
683.62,73.607,-3.15007,-0.04726358,0.67888
684.22,73.66762,-3.15007,-0.05073029,0.67833
684.82,73.72828,-3.15028,-0.05046603,0.67777
685.42,73.7887,-3.15106,-0.0475464,0.67722
686.02,73.84911,-3.15106,-0.04864373,0.67667
686.62,73.9097,-3.15237,-0.05120898,0.67612
687.22,73.97035,-3.15139,-0.05119526,0.67557
687.82,74.03101,-3.15139,-0.05325939,0.67502
688.42,74.09159,-3.15238,-0.05064781,0.67447
689.02,74.15207,-3.15238,-0.05099067,0.67392
689.62,74.2127,-3.15237,-0.04866037,0.67337
690.22,74.27325,-3.15202,-0.04932546,0.67282
690.82,74.33396,-3.15073,-0.05120024,0.67227
691.42,74.39456,-3.15202,-0.05442766,0.67172
692.02,74.45512,-3.15241,-0.05269657,0.67117
692.62,74.51571,-3.15348,-0.05068506,0.67062
693.22,74.5764,-3.15369,-0.05182409,0.67007
693.82,74.63713,-3.15369,-0.0531492,0.66952
694.42,74.69781,-3.15369,-0.05327239,0.66896
695.02,74.7587,-3.15369,-0.05124352,0.66841
695.62,74.81951,-3.15369,-0.04742573,0.66786
696.22,74.88032,-3.15503,-0.04837491,0.66731
696.82,74.94113,-3.15501,-0.05212427,0.66676
697.42,75.0017,-3.15501,-0.05116812,0.66621
698.02,75.06233,-3.15497,-0.0536539,0.66566
698.62,75.12294,-3.15699,-0.05344259,0.66511
699.22,75.18359,-3.15567,-0.05329444,0.66456
699.82,75.24428,-3.15662,-0.05407013,0.66401
700.42,75.30505,-3.15566,-0.05553183,0.66346
701.02,75.36582,-3.15566,-0.05513182,0.66291
701.62,75.4263,-3.15735,-0.05560091,0.66236
702.22,75.4867,-3.15837,-0.05483258,0.66181
702.82,75.54692,-3.1583,-0.05113093,0.66126
703.42,75.6074,-3.15795,-0.05318354,0.66071
704.02,75.6682,-3.15731,-0.04999493,0.66015
704.62,75.72872,-3.15797,-0.05110043,0.6596
705.22,75.7894,-3.15863,-0.0506774,0.65905
705.82,75.84987,-3.15863,-0.05051386,0.6585
706.42,75.91023,-3.15864,-0.0516979,0.65795
707.02,75.97074,-3.15994,-0.05143717,0.6574
707.62,76.0312,-3.15994,-0.05025236,0.65685
708.22,76.09169,-3.15961,-0.04730202,0.6563
708.82,76.15204,-3.1583,-0.0472328,0.65575
709.42,76.21266,-3.15831,-0.05254651,0.6552
710.02,76.2733,-3.15962,-0.04939426,0.65465
710.62,76.33414,-3.15962,-0.05299827,0.6541
711.22,76.39482,-3.15962,-0.05190103,0.65355
711.82,76.45532,-3.16094,-0.04779981,0.653
712.42,76.5158,-3.16093,-0.05266059,0.65245
713.02,76.5762,-3.16093,-0.05209448,0.6519
713.62,76.637,-3.16093,-0.05574587,0.65135
714.22,76.6978,-3.16181,-0.05203812,0.6508
714.82,76.75864,-3.16058,-0.05232639,0.65025
715.42,76.81955,-3.1606,-0.04989395,0.6497
716.02,76.88036,-3.1606,-0.0499452,0.64915
716.62,76.94121,-3.16063,-0.05173535,0.6486
717.22,77.00197,-3.16108,-0.04803714,0.64805
717.82,77.06277,-3.16225,-0.05196202,0.6475
718.42,77.1233,-3.16225,-0.05140215,0.64695
719.02,77.184,-3.16225,-0.0512036,0.6464
719.62,77.24478,-3.16225,-0.04411826,0.64585
720.22,77.30566,-3.16328,-0.04495502,0.6453
720.82,77.36662,-3.16323,-0.04628338,0.64475
721.42,77.42747,-3.16355,-0.04574376,0.6442
722.02,77.48827,-3.1632,-0.04622566,0.64365
722.62,77.5491,-3.16356,-0.04346333,0.6431
723.22,77.61,-3.16356,-0.04731307,0.64255
723.82,77.67099,-3.16356,-0.04930578,0.642
724.42,77.7319,-3.16356,-0.04521456,0.64145
725.02,77.79284,-3.16356,-0.04556582,0.6409
725.62,77.85359,-3.16487,-0.04555743,0.64035
726.22,77.91454,-3.16487,-0.04772236,0.6398
726.82,77.97551,-3.16487,-0.04157846,0.63925
727.42,78.0363,-3.1649,-0.04216086,0.6387
728.02,78.09733,-3.16444,-0.04245443,0.63815
728.62,78.15813,-3.16488,-0.03954842,0.6376
729.22,78.21902,-3.16488,-0.04034246,0.63705
729.82,78.2798,-3.16488,-0.0429884,0.6365
730.42,78.34063,-3.16657,-0.0403172,0.63595
731.02,78.4014,-3.16718,-0.04353153,0.6354
731.62,78.4623,-3.16718,-0.04073254,0.63485
732.22,78.5231,-3.16718,-0.04105136,0.6343
732.82,78.58375,-3.16718,-0.04291435,0.63376
733.42,78.6446,-3.1671,-0.04050925,0.63321
734.02,78.70554,-3.1671,-0.0420528,0.63266
734.62,78.7664,-3.16696,-0.04080832,0.63211
735.22,78.8272,-3.16685,-0.03841096,0.63156
735.82,78.88785,-3.16684,-0.04179691,0.63101
736.42,78.94859,-3.16817,-0.04266107,0.63046
737.02,79.00939,-3.16878,-0.04170889,0.62991
737.62,79.0702,-3.16848,-0.04007088,0.62936
738.22,79.131,-3.16719,-0.04220744,0.62882
738.82,79.1917,-3.16718,-0.04215572,0.62827
739.42,79.25246,-3.16859,-0.04175095,0.62772
740.02,79.31317,-3.1685,-0.03783865,0.62717
740.62,79.3742,-3.16855,-0.04055653,0.62662
741.22,79.43512,-3.16981,-0.03752038,0.62607
741.82,79.49608,-3.16981,-0.03918914,0.62552
742.42,79.55681,-3.16981,-0.03733274,0.62498
743.02,79.61777,-3.16984,-0.03474081,0.62443
743.62,79.67871,-3.16948,-0.03456312,0.62388
744.22,79.7397,-3.16851,-0.0346514,0.62333
744.82,79.80035,-3.16949,-0.03471561,0.62278
745.42,79.86104,-3.16949,-0.03381088,0.62224
746.02,79.92164,-3.16982,-0.03040616,0.62169
746.62,79.9824,-3.17037,-0.03204592,0.62114
746.72,79.99251,-3.17123,-0.03039028,0.62105