File: 01_Data/EPDM_Membrane/Cone/EPDM_Membrane_Cone_HF75Scan_220311_R4.csv
Names,Time,Stack TC,Smoke TC,Exh Press,Smoke Comp,Smoke Meas,CO Meter,CO2 Meter,O2 Meter,Sample Mass,Ext Coeff,Start Test,Flame Verif
Chan Gain,,500,500,1,1,1,1,1,1,1,1,1.0,1.0
Offset,,0,0,0.135167,0,0,0,0,0,0,0,0.0,0.0
Gain,,1,1,25.011,13.0486,13.2841,1,1,1,1.00089,1.0079,1.0,1.0
Units,sec,C,C,Pa,%,%,%,%,%,g,/m,,
Baseline,,42.0158,43.6975,149.578,98.781,93.8487,0.000528316,0.0590208,21.0005,-493.011,0.452927,,
7,1.5,40.1286,41.4332,149.388,99.0334,94.1602,0.000623153,0.0660061,20.9923,511.326,0.446123,0.0,0.0
14,3.25,39.9759,40.9856,148.298,99.0318,93.4767,0.000613438,0.0653333,20.9918,511.176,0.510395,0.0,0.0
21,5,39.8015,41.6316,153.42,99.0131,92.1081,0.000789851,0.0649907,20.991,511.236,0.639128,0.0,0.0
28,6.75,40.3697,41.8717,145.218,99.0063,91.2024,0.00135483,0.0686656,20.9863,511.226,0.725886,0.0,0.0
35,8.5,40.1861,41.7791,142.582,98.9932,86.1179,0.00331713,0.077206,20.9724,511.165,1.23189,0.0,1.0
42,10.25,41.2488,42.8701,134.416,98.99,61.6228,0.00712691,0.130778,20.862,510.965,4.19064,0.0,1.0
49,12,42.1043,43.1955,117.453,98.9816,47.1983,0.0132007,0.229179,20.593,510.755,6.54763,0.0,1.0
56,13.75,43.723,44.587,125.136,98.9721,41.4485,0.0194295,0.379871,20.3171,510.475,7.69531,0.0,0.0
63,15.5,46.73,47.737,118.026,98.9562,40.0483,0.0270835,0.53343,20.0874,510.145,7.99774,0.0,0.0
70,17.25,49.7082,51.3942,113.803,98.9649,35.6995,0.0334056,0.66583,19.8837,509.834,9.0148,0.0,0.0
77,19,53.3942,54.9866,115.116,98.9498,32.7069,0.0385039,0.782633,19.6854,509.464,9.78752,0.0,0.0
84,20.75,56.4379,58.9959,110.149,98.9554,29.8038,0.0422715,0.868351,19.54,509.144,10.6098,0.0,0.0
91,22.5,59.6811,62.5323,106.039,98.9406,34.4286,0.0450755,0.937051,19.4376,508.793,9.33313,0.0,0.0
98,24.25,63.3594,66.5745,110.602,98.9327,33.8278,0.0466376,0.9799,19.3777,508.433,9.48806,0.0,0.0
105,26,66.5367,69.245,115.315,98.9303,33.2724,0.0472059,1.00153,19.3496,508.133,9.63421,0.0,0.0
112,27.75,69.188,73.7021,112.907,98.9187,33.4139,0.0470496,1.00554,19.3477,507.783,9.59566,0.0,0.0
119,29.5,72.4764,76.3462,114.713,98.9076,32.7348,0.0466097,0.999061,19.3557,507.492,9.77619,0.0,0.0
126,31.25,74.5265,79.2663,115.628,98.9044,35.2824,0.0457845,0.988051,19.3832,507.152,9.11331,0.0,0.0
133,33,76.5365,82.3131,116.309,98.8992,33.1131,0.0447322,0.97185,19.4255,506.892,9.67387,0.0,0.0
140,34.75,79.1649,84.1523,113.939,98.8797,37.7525,0.0435918,0.951907,19.4683,506.571,8.51284,0.0,0.0
147,36.5,80.81,86.67,116.088,98.8701,36.7146,0.0420861,0.927434,19.51,506.331,8.75844,0.0,0.0
154,38.25,82.4104,88.5607,116.091,98.8662,39.3907,0.0402262,0.900642,19.5593,506.081,8.13606,0.0,0.0
161,40,83.7181,90.3514,118.949,98.857,41.5401,0.0381396,0.87284,19.6131,505.811,7.66551,0.0,0.0
168,41.75,85.5851,91.1304,117.435,98.8486,42.2346,0.0364457,0.846858,19.6611,505.54,7.51818,0.0,0.0
175,43.5,86.2929,92.381,122.3,98.8263,42.5107,0.0350445,0.823503,19.7012,505.33,7.45857,0.0,0.0
182,45.25,86.5138,94.0628,120.073,98.8104,41.2126,0.0337215,0.799455,19.7448,505.11,7.73133,0.0,0.0
189,47,87.5716,94.9306,119.598,98.7921,42.4389,0.032537,0.778489,19.7846,504.82,7.47045,0.0,0.0
196,48.75,88.5959,95.9547,122.67,98.7897,43.857,0.0315665,0.759581,19.814,504.54,7.17963,0.0,0.0
203,50.5,89.0257,96.5626,116.816,98.7646,45.9294,0.0307059,0.744238,19.8363,504.269,6.76917,0.0,0.0
210,52.25,89.6425,97.0691,119.262,98.7539,44.6273,0.030092,0.733041,19.8526,504.049,7.02249,0.0,0.0
217,54,89.871,98.1667,119.076,98.7344,44.9755,0.0295608,0.724798,19.8683,503.829,6.95202,0.0,0.0
224,55.75,90.7966,98.8907,124.507,98.7348,44.4809,0.0290674,0.710762,19.8934,503.589,7.04982,0.0,0.0
231,57.5,91.5154,98.4837,125.582,98.7152,46.5793,0.0285811,0.695137,19.9194,503.349,6.64054,0.0,0.0
238,59.25,91.8643,99.7303,118.398,98.6854,47.1967,0.0281473,0.682288,19.9407,503.158,6.52144,0.0,0.0
245,61,91.7081,100.165,118.39,98.6766,48.723,0.0276693,0.670823,19.9608,502.958,6.23925,0.0,0.0
252,62.75,91.8894,101.299,124.298,98.6694,47.2538,0.0270799,0.658458,19.9807,502.748,6.50931,0.0,0.0
259,64.5,93.0937,100.478,124.095,98.6487,51.577,0.026475,0.648352,19.995,502.518,5.73347,0.0,0.0
266,66.25,93.0489,101.254,128.79,98.6304,48.6873,0.0260581,0.640188,20.0085,502.338,6.24159,0.0,0.0
273,68,93.5727,101.004,125.088,98.6161,49.6927,0.0257416,0.632567,20.0229,502.127,6.05959,0.0,0.0
280,69.75,93.1676,101.95,127.128,98.6073,49.4779,0.0254614,0.623766,20.0378,501.937,6.09712,0.0,0.0
287,71.5,93.5965,102.067,121.569,98.6057,51.0982,0.0251931,0.615097,20.0511,501.677,5.81207,0.0,0.0
294,73.25,93.8084,101.73,126.55,98.5862,47.6061,0.024901,0.606221,20.0653,501.517,6.43618,0.0,0.0
301,75,93.7007,101.978,125.379,98.5703,49.3003,0.0247346,0.60073,20.0732,501.307,6.12558,0.0,0.0
308,76.75,93.3602,102.254,123.018,98.5476,50.6487,0.0246189,0.596536,20.0814,501.087,5.88498,0.0,0.0
315,78.5,93.269,102.536,129.328,98.5611,53.9612,0.0244373,0.592943,20.0885,500.916,5.32609,0.0,0.0
322,80.25,93.8623,102.465,125.247,98.5524,52.134,0.024235,0.588071,20.098,500.726,5.62985,0.0,0.0
329,82,93.5802,102.719,126.274,98.5257,52.278,0.0240836,0.582021,20.1093,500.516,5.60309,0.0,0.0
336,83.75,93.7286,102.186,124.75,98.5165,53.12,0.0238956,0.576705,20.1187,500.336,5.461,0.0,0.0
343,85.5,93.5357,102.566,123.018,98.5141,49.6984,0.0236325,0.572467,20.1241,500.106,6.04944,0.0,0.0
350,87.25,93.2256,102.941,131.734,98.5102,52.2844,0.0233749,0.568395,20.1309,499.915,5.6006,0.0,0.0
357,89,93.7094,102.139,125.73,98.5006,49.201,0.0231886,0.563731,20.1361,499.745,6.13716,0.0,0.0
364,90.75,93.6271,102.467,126.181,98.4859,54.0285,0.0229921,0.561134,20.1402,499.555,5.30831,0.0,0.0
371,92.5,93.717,102.426,129.441,98.5074,50.8003,0.0227846,0.558783,20.1429,499.315,5.85495,0.0,0.0
378,94.25,93.8249,102.373,123.591,98.544,47.9215,0.0226296,0.556738,20.1455,499.185,6.37401,0.0,0.0
385,96,93.5609,102.647,123.963,98.5647,49.7519,0.0226299,0.555615,20.1467,499.015,6.04446,0.0,0.0
392,97.75,93.1374,102.288,129.017,98.5858,52.4089,0.0227697,0.55408,20.1473,498.815,5.58636,0.0,0.0
399,99.5,93.6335,102.3,124.063,98.6153,51.8085,0.0230013,0.5533,20.1485,498.604,5.69088,0.0,0.0
406,101.25,92.9575,102.12,121.032,98.6507,51.7595,0.02324,0.55431,20.1471,498.404,5.70243,0.0,0.0
413,103,93.4044,102.848,119.888,98.6786,50.6803,0.0234344,0.558865,20.1376,498.214,5.89121,0.0,0.0
420,104.75,93.4137,102.479,118.382,98.6925,51.0841,0.0236038,0.568312,20.1219,498.034,5.8223,0.0,0.0
427,106.5,93.6616,102.757,127.94,98.7085,52.0984,0.023704,0.576086,20.1105,497.864,5.6499,0.0,0.0
434,108.25,93.8191,103.109,124.806,98.7403,50.6483,0.0236905,0.579854,20.105,497.623,5.90233,0.0,0.0
441,110,93.8751,103.296,124.022,98.7594,49.7381,0.0238406,0.582093,20.0982,497.423,6.06436,0.0,0.0
448,111.75,94.318,103.374,124.092,98.7758,51.6273,0.0242057,0.587213,20.0876,497.213,5.73623,0.0,0.0
455,113.5,94.2617,103.509,119.597,98.7805,51.7436,0.0246034,0.593984,20.0754,496.993,5.71676,0.0,0.0
462,115.25,94.1866,104.248,124.508,98.7973,51.7497,0.0249863,0.601805,20.0619,496.743,5.71721,0.0,0.0
469,117,94.8484,103.76,121.429,98.8076,50.602,0.0254443,0.609693,20.043,496.552,5.91642,0.0,0.0
476,118.75,95.3152,104.227,124.94,98.8255,45.6594,0.0258997,0.619128,20.0262,496.372,6.82675,0.0,0.0
483,120.5,95.465,104.779,120.226,98.8411,48.5313,0.0267044,0.630584,20.009,496.122,6.28884,0.0,0.0
490,122.25,95.6671,105.37,116.048,98.863,45.2122,0.0276178,0.646202,19.9836,495.932,6.91711,0.0,0.0
497,124,96.5212,105.822,112.132,98.8825,46.0462,0.0288373,0.664207,19.9525,495.642,6.75727,0.0,0.0
504,125.75,96.7688,106.474,121.588,98.8857,45.961,0.0303088,0.693406,19.9067,495.381,6.77392,0.0,0.0
511,127.5,97.8726,107.19,116.803,98.9036,39.0603,0.0325894,0.724388,19.8455,495.091,8.21388,0.0,0.0
518,129.25,98.9019,108.186,114.293,98.9143,39.0489,0.035508,0.769852,19.7524,494.791,8.21741,0.0,0.0
525,131,99.7697,109.419,110.534,98.9263,39.7503,0.0390052,0.826226,19.6377,494.431,8.0611,0.0,0.0
532,132.75,101.324,111.46,106.271,98.9386,32.9452,0.0425154,0.901143,19.5109,494.17,9.72232,0.0,0.0
539,134.5,103.327,112.897,106.458,98.9506,33.6973,0.046685,0.974697,19.3972,493.75,9.52385,0.0,0.0
546,136.25,105.161,114.797,102.957,98.949,30.4026,0.0505059,1.04555,19.2849,493.39,10.4334,0.0,0.0
553,138,107.237,117.675,98.9738,98.9582,30.5514,0.0541862,1.11962,19.1425,493.009,10.391,0.0,0.0
560,139.75,109.727,120.298,101.76,98.9669,31.2807,0.0561469,1.16972,19.0583,492.599,10.1832,0.0,0.0
567,141.5,111.746,122.959,105.566,98.9904,28.6573,0.0567987,1.19827,19.0199,492.169,10.9598,0.0,0.0
574,143.25,113.411,124.391,106.087,98.9876,30.3462,0.0564973,1.19984,19.0215,491.918,10.4532,0.0,0.0
581,145,114.965,126.446,109.84,98.9916,31.1951,0.0553954,1.18104,19.0393,491.408,10.2097,0.0,0.0
588,146.75,116.369,127.83,109.981,98.9928,31.8024,0.0533729,1.14654,19.096,491.198,10.0393,0.0,0.0
595,148.5,117.004,129.288,112.451,99.0131,32.5179,0.0508746,1.10637,19.1654,490.877,9.8444,0.0,0.0
602,150.25,117.518,129.879,112.703,99.0111,34.6921,0.0481501,1.05442,19.2685,490.537,9.27201,0.0,0.0
609,152,118.16,130.15,113.71,99.0127,34.1963,0.0455607,1.00026,19.3703,490.247,9.39942,0.0,0.0
616,153.75,117.504,130.296,120.81,99.0191,37.1379,0.0431141,0.938106,19.4807,489.967,8.67041,0.0,0.0
623,155.5,117.582,130.063,120.046,99.0143,35.6229,0.0406374,0.879002,19.5694,489.646,9.03821,0.0,0.0
630,157.25,117.055,129.954,118.64,99.0223,39.6364,0.0383993,0.832638,19.6473,489.416,8.09504,0.0,0.0
637,159,116.012,129.114,124.392,99.0167,38.9833,0.0361981,0.795272,19.7315,489.096,8.24144,0.0,0.0
644,160.75,115.777,128.609,120.447,99.0131,41.307,0.0343098,0.759299,19.7775,488.876,7.72921,0.0,0.0
651,162.5,116.272,128.474,121.267,99.002,44.1841,0.0325403,0.728167,19.8218,488.605,7.1329,0.0,0.0
658,164.25,115.232,127.639,119.83,99.0111,44.1185,0.031332,0.704524,19.8578,488.335,7.14687,0.0,0.0
665,166,115.16,127.195,120.784,99.0087,38.2272,0.0306655,0.689566,19.8763,488.065,8.41388,0.0,0.0
672,167.75,113.959,126.272,122.674,99.0087,41.4282,0.030493,0.685364,19.8847,487.845,7.70291,0.0,0.0
679,169.5,113.948,126.383,124.338,98.9936,43.0194,0.0306925,0.685393,19.8883,487.615,7.36834,0.0,0.0
686,171.25,113.733,125.68,117.109,98.996,41.8786,0.0309022,0.687874,19.8852,487.344,7.60617,0.0,0.0
693,173,113.371,126.152,121.009,98.9972,40.6114,0.0309116,0.690899,19.8831,487.074,7.87795,0.0,0.0
700,174.75,113.192,125.239,120.49,98.9852,43.0985,0.0307042,0.689657,19.8839,486.824,7.35136,0.0,0.0
707,176.5,112.678,125.265,119.309,98.9737,41.307,0.0303955,0.683215,19.8939,486.644,7.72569,0.0,0.0
714,178.25,112.545,125.02,123.736,98.9729,41.2478,0.0299321,0.67556,19.9035,486.383,7.73829,0.0,0.0
721,180,112.593,124.453,116.179,98.9777,41.903,0.0294619,0.670679,19.9114,486.133,7.5994,0.0,0.0
728,181.75,112.497,124.226,120.034,98.9765,42.3112,0.029117,0.665968,19.9183,485.923,7.51358,0.0,0.0
735,183.5,112.142,123.908,121.032,98.953,41.8961,0.0288244,0.663473,19.9227,485.633,7.59865,0.0,0.0
742,185.25,111.77,123.751,120.677,98.957,41.5957,0.0284647,0.659989,19.9286,485.473,7.66263,0.0,0.0
749,187,111.345,123.167,123.887,98.9605,45.8913,0.0278759,0.652153,19.9458,485.222,6.79404,0.0,0.0
756,188.75,111.142,122.623,125.502,98.951,43.4666,0.0274235,0.640324,19.9638,484.992,7.27311,0.0,0.0
763,190.5,110.668,122.374,123,98.9366,45.7729,0.0272564,0.629544,19.9789,484.772,6.81473,0.0,0.0
770,192.25,110.193,121.992,123.705,98.9462,43.8744,0.0272581,0.622706,19.9895,484.552,7.19011,0.0,0.0
777,194,109.455,121.151,127.097,98.9538,43.7698,0.0270536,0.617389,20.0012,484.322,7.21189,0.0,0.0
784,195.75,109.825,121.18,125.15,98.9406,44.5672,0.0266562,0.60848,20.0128,484.061,7.05109,0.0,0.0
791,197.5,109.158,121.103,123.322,98.9454,47.283,0.0259534,0.598602,20.0317,483.841,6.52854,0.0,0.0
798,199.25,108.908,120.225,123.399,98.9327,45.5029,0.0252467,0.586645,20.0554,483.691,6.86668,0.0,0.0
805,201,108.78,119.53,124.904,98.9255,47.5372,0.0244552,0.573072,20.0798,483.461,6.47936,0.0,0.0
812,202.75,108.03,118.944,123.141,98.939,44.5908,0.0235104,0.557581,20.1031,483.301,7.04629,0.0,0.0
819,204.5,107.298,118.589,125.832,98.9562,45.7072,0.0224408,0.546611,20.123,483.07,6.82917,0.0,0.0
826,206.25,107.112,117.706,129.735,98.9195,48.5381,0.0216107,0.534906,20.1427,482.89,6.2946,0.0,0.0
833,208,106.168,117.19,125.266,98.9187,47.883,0.0211357,0.523764,20.1622,482.71,6.41467,0.0,0.0
840,209.75,105.807,116.879,131.985,98.9223,50.6251,0.0208638,0.514063,20.1785,482.53,5.92264,0.0,0.0
847,211.5,105.276,116.235,124.396,98.9251,48.83,0.0204962,0.504612,20.1942,482.34,6.24209,0.0,0.0
854,213.25,104.826,115.359,123.192,98.9139,51.2199,0.0200725,0.496622,20.2081,482.17,5.81864,0.0,0.0
861,215,104.243,114.674,127.737,98.9044,51.1643,0.0197514,0.48869,20.2214,482,5.82738,0.0,0.0
868,216.75,103.725,113.996,126.787,98.902,51.6711,0.0195027,0.481979,20.2353,481.829,5.74003,0.0,0.0
875,218.5,103.343,113.406,130.807,98.9056,50.8578,0.0193155,0.477802,20.2441,481.639,5.8806,0.0,0.0
882,220.25,102.476,113.077,128.76,98.9032,51.1578,0.0191503,0.474764,20.2495,481.469,5.82839,0.0,0.0
889,222,101.956,112.152,130.704,98.8928,49.4888,0.0189832,0.471505,20.2559,481.309,6.12072,0.0,0.0
896,223.75,101.715,111.782,128.326,98.8829,51.8186,0.0187799,0.467484,20.2631,481.189,5.7131,0.0,0.0
903,225.5,101.094,111.351,125.725,98.8924,51.0172,0.0185271,0.463528,20.2681,480.979,5.85177,0.0,0.0
910,227.25,100.811,110.511,127.177,98.8877,49.9931,0.0183802,0.459701,20.2734,480.828,6.03062,0.0,0.0
917,229,100.255,109.803,126.256,98.8686,52.4559,0.0184967,0.457591,20.2754,480.638,5.60375,0.0,0.0
924,230.75,99.7904,109.192,130.963,98.8658,52.6096,0.0188441,0.45936,20.2712,480.438,5.57764,0.0,0.0
931,232.5,99.4901,108.983,126.003,98.8693,51.333,0.0194436,0.465767,20.2596,480.258,5.79515,0.0,0.0
938,234.25,98.9194,108.281,125.272,98.865,50.4954,0.0199949,0.47284,20.2455,480.108,5.9402,0.0,0.0
945,236,99.0737,108.321,126.04,98.8566,49.248,0.0204645,0.478864,20.2343,479.848,6.16061,0.0,0.0
952,237.75,98.9228,107.928,126.926,98.8427,48.8146,0.0207628,0.483411,20.2276,479.707,6.23751,0.0,0.0
959,239.5,98.9268,107.687,124.25,98.8263,50.5688,0.020821,0.487886,20.2228,479.507,5.92391,0.0,0.0
966,241.25,97.9576,107.414,126.088,98.8375,51.7943,0.0207342,0.490122,20.2207,479.357,5.7132,0.0,0.0
973,243,98.6633,106.988,123.086,98.8323,50.4597,0.0207168,0.489753,20.2197,479.157,5.94353,0.0,0.0
980,244.75,98.3324,107.142,125.617,98.8013,53.5043,0.0207286,0.48984,20.2192,478.967,5.42278,0.0,0.0
987,246.5,97.9671,106.924,127.299,98.8044,51.1319,0.0206672,0.490319,20.2192,478.817,5.82404,0.0,0.0
994,248.25,97.8986,107.026,122.695,98.7937,51.8101,0.0204843,0.489141,20.221,478.647,5.70658,0.0,0.0
1001,250,98.0563,106.442,126.295,98.7853,50.797,0.0202479,0.486692,20.2248,478.406,5.88042,0.0,0.0
1008,251.75,97.5435,105.96,127.422,98.7726,53.3802,0.019946,0.482749,20.2309,478.276,5.44073,0.0,0.0
1015,253.5,97.5594,105.669,123.996,98.7543,52.6671,0.0196101,0.47829,20.2367,478.076,5.558,0.0,0.0
1022,255.25,96.8689,105.822,128.677,98.7495,52.4308,0.0193067,0.475365,20.2401,477.906,5.59734,0.0,0.0
1029,257,97.0571,105.252,125.547,98.761,52.5447,0.0191037,0.474146,20.2429,477.736,5.57918,0.0,0.0
1036,258.75,96.5222,105.405,125.989,98.7348,51.6022,0.0188735,0.473142,20.245,477.616,5.73686,0.0,0.0
1043,260.5,96.5216,105.033,126.856,98.7129,53.4248,0.018598,0.47042,20.2489,477.435,5.428,0.0,0.0
1050,262.25,96.4015,104.679,131.735,98.7037,54.9045,0.0183615,0.465049,20.2569,477.305,5.18563,0.0,0.0
1057,264,96.3651,104.459,129.554,98.7085,56.947,0.0181405,0.460291,20.267,477.135,4.86314,0.0,0.0
1064,265.75,95.6536,103.962,128.967,98.7212,55.2783,0.0179601,0.456465,20.2755,476.995,5.12722,0.0,0.0
1071,267.5,95.1045,103.591,135.048,98.7109,56.1678,0.0177965,0.453392,20.2812,476.725,4.98516,0.0,0.0
1078,269.25,95.4776,103.656,127.886,98.7005,55.0132,0.0175634,0.450112,20.2875,476.585,5.16787,0.0,0.0
1085,271,95.2396,103.074,130.807,98.7057,56.3121,0.0173255,0.446629,20.2946,476.425,4.96201,0.0,0.0
1092,272.75,95.3456,103.16,130.637,98.7045,53.7029,0.0171637,0.442771,20.3018,476.294,5.38135,0.0,0.0
1099,274.5,94.8501,102.967,127.014,98.7085,56.5387,0.0170116,0.438872,20.3083,476.134,4.92675,0.0,0.0
1106,276.25,94.7289,102.137,128.023,98.7009,56.7949,0.0166564,0.434819,20.3182,476.004,4.8861,0.0,0.0
1113,278,94.4199,102.003,129.168,98.6945,58.3577,0.0162541,0.430346,20.3285,475.874,4.64553,0.0,0.0
1120,279.75,94.4044,101.781,128.128,98.7089,58.4198,0.0158952,0.425427,20.3366,475.684,4.63742,0.0,0.0
1127,281.5,93.8648,101.6,126.027,98.7053,59.1945,0.0154155,0.421423,20.3434,475.564,4.52063,0.0,0.0
1134,283.25,93.6213,101.081,125.919,98.6949,62.6627,0.0149728,0.417393,20.35,475.464,4.0163,0.0,0.0
1141,285,93.3579,100.779,129.07,98.6909,62.1036,0.0145536,0.412637,20.3603,475.304,4.09517,0.0,0.0
1148,286.75,92.9427,100.57,127.431,98.6826,62.835,0.0142977,0.407693,20.3711,475.153,3.99092,0.0,0.0
1155,288.5,92.8818,100.159,129.148,98.6973,62.672,0.0141138,0.400579,20.383,475.073,4.0152,0.0,0.0
1162,290.25,92.4891,99.5744,131.843,98.6878,62.0534,0.0139212,0.393995,20.3963,474.983,4.10205,0.0,0.0
1169,292,91.7814,99.0749,126.919,98.6826,62.6298,0.0136487,0.387252,20.409,474.823,4.01983,0.0,0.0
1176,293.75,91.5906,99.1158,130.826,98.6878,64.3694,0.0133327,0.380535,20.4219,474.693,3.77807,0.0,0.0
1183,295.5,91.2713,98.5329,134.05,98.7152,66.4491,0.0129716,0.373407,20.4336,474.573,3.4994,0.0,0.0
1190,297.25,91.0055,97.9771,128.463,98.6953,65.5479,0.0124884,0.367935,20.4501,474.473,3.61834,0.0,0.0
1197,299,90.66,97.8061,135.16,98.6945,67.8295,0.0120125,0.360318,20.4629,474.383,3.31576,0.0,0.0
1204,300.75,90.0352,96.5345,129.521,98.6878,67.9296,0.011666,0.354224,20.4725,474.253,3.30211,0.0,0.0
1211,302.5,89.9259,96.5244,135.768,98.7065,68.3727,0.0113274,0.349972,20.4797,474.153,3.2463,0.0,0.0
1218,304.25,89.3902,96.3792,130.297,98.7164,68.6594,0.010974,0.345285,20.4896,474.052,3.21021,0.0,0.0
1225,306,89.1047,95.5185,134.423,98.6969,69.4462,0.010694,0.339952,20.4996,473.882,3.10771,0.0,0.0
1232,307.75,88.7717,95.0195,134.309,98.6914,70.5242,0.0104705,0.334679,20.5087,473.832,2.97103,0.0,0.0
1239,309.5,88.4529,94.7043,132.326,98.6909,72.5297,0.0101835,0.330755,20.5171,473.742,2.72308,0.0,0.0
1246,311.25,87.842,94.4206,133.004,98.6878,72.4118,0.00977691,0.326024,20.5277,473.672,2.73719,0.0,0.0
1253,313,87.2819,93.8341,135.572,98.681,73.0511,0.00935756,0.321447,20.5385,473.572,2.65887,0.0,0.0
1260,314.75,86.7401,93.1365,131.181,98.6547,72.3445,0.00897833,0.317132,20.547,473.462,2.74245,0.0,0.0
1267,316.5,86.4383,92.9886,133.952,98.6507,73.6665,0.00859892,0.313404,20.5541,473.372,2.58199,0.0,0.0
1274,318.25,86.504,92.2729,135.577,98.6547,74.9216,0.00833539,0.309384,20.5624,473.262,2.43298,0.0,0.0
1281,320,86.0091,91.6343,133.766,98.6448,74.8356,0.00811416,0.305706,20.5701,473.212,2.44223,0.0,0.0
1288,321.75,85.4799,91.3823,135.658,98.6264,76.7645,0.00787873,0.302265,20.5766,473.102,2.21559,0.0,0.0
1295,323.5,85.0306,90.819,138.314,98.6149,76.4982,0.0075739,0.298704,20.5831,473.012,2.24529,0.0,0.0
1302,325.25,84.653,90.2981,133.823,98.5986,77.3228,0.00727041,0.294973,20.5916,472.921,2.14903,0.0,0.0
1309,327,84.2748,90.0105,135.982,98.5954,78.3002,0.00710068,0.291574,20.5983,472.841,2.03769,0.0,0.0
1316,328.75,84.1377,89.6555,132.974,98.5834,76.7479,0.00694661,0.288294,20.6041,472.771,2.21365,0.0,0.0
1323,330.5,83.4187,88.9017,134.062,98.5548,79.2346,0.00674989,0.28464,20.6099,472.681,1.92915,0.0,0.0
1330,332.25,83.1026,88.6644,137.012,98.5508,78.8787,0.00647789,0.281394,20.617,472.591,1.9686,0.0,0.0
1337,334,82.5647,88.3154,138.179,98.552,79.4426,0.00626827,0.278388,20.6243,472.531,1.90573,0.0,0.0
1344,335.75,82.2407,87.6076,137.855,98.5615,80.1788,0.00615854,0.275727,20.6294,472.451,1.82503,0.0,0.0
1351,337.5,81.8953,87.4142,132.523,98.5436,79.8707,0.00609149,0.273343,20.6349,472.361,1.85746,0.0,0.0
1358,339.25,81.515,86.2772,138.264,98.5352,78.9456,0.00594795,0.271193,20.6404,472.271,1.95972,0.0,0.0
1365,341,81.171,86.4716,138.237,98.5201,80.7885,0.00571716,0.269071,20.6457,472.231,1.75434,0.0,0.0
1372,342.75,80.5401,85.9872,136.631,98.5157,81.7846,0.00543287,0.266773,20.6497,472.151,1.6456,0.0,0.0
1379,344.5,80.8799,85.8894,135.494,98.4966,81.5641,0.00524303,0.26485,20.6532,472.101,1.66776,0.0,0.0
1386,346.25,80.1309,85.379,130.963,98.4676,81.53,0.00514441,0.263269,20.6563,472.041,1.66884,0.0,0.0
1393,348,79.8402,84.7958,136.622,98.4449,82.8232,0.00512424,0.261229,20.6602,471.961,1.52766,0.0,0.0
1400,349.75,79.6807,84.4116,133.434,98.4265,82.5755,0.00507124,0.259341,20.6635,471.871,1.5525,0.0,0.0
1407,351.5,79.3759,84.0244,135.597,98.3975,82.1851,0.00493663,0.257582,20.6659,471.83,1.59179,0.0,0.0
1414,353.25,78.9936,83.5317,137.573,98.3584,82.4089,0.00473591,0.255463,20.6692,471.75,1.56424,0.0,0.0
1421,355,78.6527,83.3945,136.096,98.3405,82.267,0.00463262,0.253954,20.6731,471.68,1.57786,0.0,0.0
1428,356.75,78.4626,82.9783,137.565,98.3278,83.0515,0.00462922,0.253051,20.6758,471.59,1.49281,0.0,0.0
1435,358.5,77.8766,82.8924,138.298,98.3278,82.8613,0.00459045,0.252168,20.6783,471.6,1.51308,0.0,0.0
1442,360.25,77.6191,82.4718,137.646,98.2915,82.1531,0.00441534,0.250544,20.6809,471.53,1.58571,0.0,0.0
1449,362,77.3722,81.896,144.012,98.2581,83.7111,0.00424043,0.24893,20.6844,471.44,1.41661,0.0,0.0
1456,363.75,77.1626,81.8272,136.938,98.2422,81.5077,0.00412671,0.247641,20.6873,471.4,1.651,0.0,0.0
1463,365.5,76.8611,81.3524,136.132,98.2282,84.2815,0.0040495,0.246755,20.6886,471.33,1.35388,0.0,0.0
1470,367.25,76.4291,80.4669,137.8,98.2127,83.4913,0.00402176,0.24581,20.6907,471.24,1.43576,0.0,0.0
1477,369,76.3395,80.7029,135.665,98.1745,83.5258,0.00400481,0.244179,20.6948,471.22,1.42867,0.0,0.0
1484,370.75,76.2398,80.6985,141.728,98.1482,84.4404,0.00394662,0.242181,20.6971,471.17,1.33002,0.0,0.0
1491,372.5,75.9847,79.9416,136.586,98.1223,83.7767,0.00386192,0.241133,20.6983,471.1,1.39745,0.0,0.0
1498,374.25,76.0545,79.4203,136.902,98.1155,84.6423,0.00383449,0.241207,20.6987,471.07,1.30596,0.0,0.0
1505,376,75.6703,79.564,133.451,98.1331,83.8371,0.00384167,0.240699,20.699,471.01,1.39204,0.0,0.0
1512,377.75,75.2041,79.0507,134.438,98.104,84.2794,0.0038219,0.239626,20.7003,470.96,1.3429,0.0,0.0
1519,379.5,74.7403,78.3713,137.08,98.1084,85.5058,0.00376421,0.238849,20.7026,470.85,1.21558,0.0,0.0
1526,381.25,75.0163,78.6502,135.925,98.1167,84.7067,0.00368723,0.238098,20.7054,470.83,1.29934,0.0,0.0
1533,383,74.6392,78.4402,137.795,98.1167,86.0137,0.00357179,0.236805,20.7093,470.749,1.16396,0.0,0.0
1540,384.75,74.309,78.0117,136.498,98.1187,85.4117,0.00343257,0.235325,20.7117,470.719,1.22624,0.0,0.0
1547,386.5,74.3929,77.4283,138.094,98.1223,86.4285,0.00331492,0.234208,20.7146,470.659,1.12194,0.0,0.0
1554,388.25,73.7955,77.7768,135.794,98.1374,85.1332,0.00316526,0.232934,20.7176,470.559,1.2568,0.0,0.0
1561,390,73.7605,77.3561,137.273,98.1446,85.2212,0.00300042,0.231146,20.7205,470.499,1.24832,0.0,0.0
1568,391.75,73.5213,77.2826,140.499,98.1299,85.0562,0.00290282,0.229813,20.7224,470.459,1.26412,0.0,0.0
1575,393.5,73.4695,76.8407,140.946,98.1422,85.6096,0.0029034,0.228893,20.7246,470.399,1.2079,0.0,0.0
1582,395.25,73.144,76.4213,136.393,98.1526,85.8013,0.00293133,0.228278,20.7255,470.329,1.18905,0.0,0.0
1589,397,73.1047,76.3293,140.565,98.1621,86.182,0.00291512,0.228372,20.7256,470.289,1.15077,0.0,0.0
1596,398.75,72.6329,76.1214,141.713,98.1641,86.2991,0.00288082,0.228344,20.7257,470.249,1.13894,0.0,0.0
1603,400.5,72.6066,76.2256,135.402,98.1554,86.5391,0.00286661,0.2284,20.7256,470.159,1.1136,0.0,0.0
1610,402.25,72.4896,75.5016,132.782,98.1633,86.3867,0.0028621,0.228062,20.7253,470.159,1.1299,0.0,0.0
1617,404,71.6836,75.5798,137.683,98.1761,86.7199,0.00286418,0.226692,20.7281,470.119,1.09701,0.0,0.0
1624,405.75,71.9142,75.3866,139.989,98.1773,86.7341,0.00285378,0.225711,20.7302,470.059,1.09567,0.0,0.0
1631,407.5,71.9817,74.9247,138.456,98.1773,87.5028,0.0028377,0.225206,20.7312,470.019,1.01767,0.0,0.0
1638,409.25,71.7832,74.7277,137.892,98.1761,87.7833,0.00279648,0.224723,20.7326,469.919,0.989259,0.0,0.0
1645,411,71.887,74.8256,139.127,98.19,88.3411,0.00274228,0.223826,20.7336,469.859,0.934509,0.0,0.0
1652,412.75,71.7323,74.5463,141.209,98.1988,87.097,0.00271898,0.222772,20.7351,469.819,1.0607,0.0,0.0
1659,414.5,70.8567,74.2383,140.651,98.2075,87.7513,0.00272158,0.221622,20.7368,469.799,0.995318,0.0,0.0
1666,416.25,71.1676,74.1768,141.094,98.1984,87.2652,0.00274033,0.220404,20.7393,469.729,1.0436,0.0,0.0
1673,418,70.7841,74.1335,136.039,98.2031,86.7617,0.00271955,0.219385,20.7409,469.699,1.09519,0.0,0.0
1680,419.75,70.9613,73.7109,137.311,98.2346,88.1563,0.00269039,0.218542,20.7427,469.669,0.957045,0.0,0.0
1687,421.5,71.0438,73.3946,136.009,98.2211,87.5867,0.00277575,0.217924,20.7438,469.598,1.01314,0.0,0.0
1694,423.25,70.3401,74.1529,135.724,98.2187,86.9441,0.00290558,0.217022,20.7453,469.498,1.07802,0.0,0.0
1701,425,70.5559,73.6238,135.438,98.2282,87.9771,0.00300689,0.215925,20.7471,469.508,0.974461,0.0,0.0
1708,426.75,70.3405,73.3747,139.956,98.2477,87.9848,0.00297836,0.214449,20.7496,469.448,0.975442,0.0,0.0
1715,428.5,70.0726,72.7784,141.371,98.2601,87.8571,0.00283028,0.213032,20.7517,469.428,0.989394,0.0,0.0
1722,430.25,69.9705,72.7614,139.095,98.2398,88.316,0.00272705,0.212038,20.7532,469.338,0.941506,0.0,0.0
1729,432,69.923,72.5922,139.345,98.2501,88.4044,0.00270376,0.210977,20.7547,469.328,0.933595,0.0,0.0
1736,433.75,69.8913,72.4931,142.603,98.2661,87.8169,0.00271191,0.209596,20.7576,469.268,0.993972,0.0,0.0
1743,435.5,69.3679,72.5739,138.117,98.2752,88.6695,0.00272171,0.208468,20.7592,469.238,0.909375,0.0,0.0
1750,437.25,69.4038,72.0335,136.349,98.2716,88.4761,0.00274375,0.207455,20.7621,469.198,0.928357,0.0,0.0
1757,439,69.0611,71.9842,138.232,98.2772,88.3132,0.0027885,0.206553,20.7642,469.118,0.945158,0.0,0.0
1764,440.75,68.7593,71.9714,141.384,98.284,88.6379,0.00285794,0.2063,20.7653,469.088,0.913318,0.0,0.0
1771,442.5,68.484,71.5509,137.63,98.3079,88.71,0.00292735,0.206161,20.766,469.068,0.908271,0.0,0.0
1778,444.25,68.62,71.2851,141.041,98.313,88.9792,0.00294701,0.205167,20.7679,469.008,0.881949,0.0,0.0
1785,446,68.3921,70.7273,135.173,98.3142,89.2067,0.0029091,0.204372,20.7695,468.938,0.859488,0.0,0.0
1792,447.75,68.6427,70.8474,143.773,98.317,88.8783,0.00282326,0.20415,20.7702,468.908,0.892344,0.0,0.0
1799,449.5,68.1193,71.0574,141.487,98.325,88.9699,0.0028048,0.204094,20.7706,468.848,0.88395,0.0,0.0
1806,451.25,68.5063,70.6186,139.555,98.3338,88.5779,0.00291239,0.203789,20.7717,468.828,0.923781,0.0,0.0
1813,453,67.8999,70.6518,143.142,98.3401,89.0072,0.00303534,0.202618,20.7725,468.778,0.881605,0.0,0.0
1820,454.75,67.7105,71.0697,137.963,98.335,89.13,0.00312548,0.201894,20.7729,468.768,0.868947,0.0,0.0
1827,456.5,68.1155,69.9272,142.625,98.3377,89.4264,0.00316809,0.201737,20.7743,468.698,0.839849,0.0,0.0
1834,458.25,67.7266,70.263,139.772,98.3588,89.2654,0.0031631,0.201106,20.7761,468.638,0.857674,0.0,0.0
1841,460,67.9931,69.5686,136.793,98.3533,89.2265,0.00311584,0.200237,20.7771,468.598,0.861029,0.0,0.0
1848,461.75,67.1917,69.919,138.685,98.3385,89.8464,0.00308152,0.200087,20.7786,468.558,0.798495,0.0,0.0
1855,463.5,67.0355,69.4783,139.15,98.3573,89.6494,0.00308955,0.199565,20.7795,468.508,0.819587,0.0,0.0
1862,465.25,66.597,69.7632,144.485,98.3509,89.3222,0.00308246,0.198723,20.7807,468.457,0.851338,0.0,0.0
1869,467,66.9482,69.7504,142.23,98.3656,89.7552,0.00303531,0.197906,20.7817,468.397,0.80991,0.0,0.0
1876,468.75,66.5932,68.8836,141.436,98.3565,90.1537,0.0029362,0.196788,20.7825,468.377,0.769919,0.0,0.0
1883,470.5,66.7139,69.1568,142.181,98.3716,90.1894,0.00278243,0.196124,20.784,468.357,0.767781,0.0,0.0
1890,472.25,66.223,69.068,137.326,98.3684,90.0016,0.00261606,0.195955,20.7849,468.337,0.785915,0.0,0.0
1897,474,66.7674,68.8919,143.189,98.3887,90.1148,0.00254071,0.195739,20.7862,468.257,0.776635,0.0,0.0
1904,475.75,66.1981,68.7161,140.007,98.3823,89.7,0.00255318,0.194889,20.7874,468.237,0.816846,0.0,0.0
1911,477.5,66.0996,68.8553,143.346,98.3752,89.8099,0.00256169,0.194089,20.7889,468.207,0.805379,0.0,0.0
1918,479.25,65.7609,68.5812,140.898,98.3903,90.7792,0.00255082,0.192974,20.7909,468.157,0.711829,0.0,0.0
1925,481,65.6753,68.5838,139.887,98.3991,90.7395,0.00254661,0.192141,20.7918,468.117,0.716485,0.0,0.0
1932,482.75,66.1944,67.9422,141.143,98.3983,90.3803,0.00264793,0.191824,20.7934,468.097,0.751481,0.0,0.0
1939,484.5,65.2203,68.5618,146.863,98.4026,90.3604,0.00279733,0.191269,20.7942,468.057,0.753817,0.0,0.0
1946,486.25,65.8188,68.0172,140.459,98.4046,90.3211,0.0029467,0.190697,20.7947,467.987,0.757845,0.0,0.0
1953,488,65.6347,67.9945,141.84,98.4094,90.2903,0.0030239,0.19071,20.7953,467.967,0.761291,0.0,0.0
1960,489.75,65.407,67.7816,136.408,98.4146,90.4889,0.00297014,0.19068,20.7976,467.927,0.742325,0.0,0.0
1967,491.5,64.7719,67.6707,140.167,98.4357,90.692,0.00282063,0.190002,20.7991,467.877,0.724399,0.0,0.0
1974,493.25,65.0618,67.9442,143.039,98.4337,91.1145,0.00268909,0.188608,20.801,467.827,0.683135,0.0,0.0
1981,495,65.3567,67.1414,143.755,98.4556,91.5231,0.00261495,0.186932,20.8039,467.817,0.645537,0.0,0.0
1988,496.75,65.3985,66.743,144.067,98.4823,90.7476,0.00273845,0.185571,20.8057,467.757,0.72317,0.0,0.0
1995,498.5,64.8242,66.9833,138.683,98.4879,91.1335,0.00290721,0.184853,20.8066,467.737,0.686148,0.0,0.0
2002,500.25,64.4977,66.5587,141.232,98.4958,90.885,0.00302419,0.184674,20.8081,467.707,0.711006,0.0,0.0
2009,502,64.2174,66.7218,144.882,98.5229,91.2077,0.00315228,0.184293,20.8085,467.657,0.682099,0.0,0.0
2016,503.75,64.4733,66.4198,141.735,98.5265,91.532,0.00330848,0.184658,20.8078,467.607,0.651039,0.0,0.0
2023,505.5,64.4709,66.071,141.369,98.5512,91.4283,0.0033828,0.185215,20.8071,467.567,0.663284,0.0,0.0
2030,507.25,63.6926,66.3397,141.657,98.5508,91.2807,0.00335257,0.185376,20.8068,467.537,0.677531,0.0,0.0
2037,509,63.7843,66.0732,143.306,98.5691,91.5791,0.00330509,0.184727,20.8086,467.537,0.650321,0.0,0.0
2044,510.75,63.4662,66.2896,141.944,98.5866,91.2592,0.00325608,0.183784,20.8104,467.457,0.682826,0.0,0.0
2051,512.5,63.9129,65.845,142.182,98.5974,91.7846,0.00322732,0.183173,20.8124,467.447,0.633035,0.0,0.0
2058,514.25,63.977,65.3807,143.171,98.6021,91.5406,0.00321327,0.182444,20.8135,467.397,0.657003,0.0,0.0
2065,516,63.4818,65.3113,135.612,98.6125,91.3885,0.00319877,0.181889,20.814,467.376,0.672627,0.0,0.0
2072,517.75,63.7301,65.4275,145.25,98.6077,92.5334,0.00313954,0.181627,20.8144,467.316,0.56213,0.0,0.0
2079,519.5,63.6001,65.3108,145.347,98.6292,91.9735,0.00311116,0.181304,20.8153,467.276,0.617712,0.0,0.0
2086,521.25,63.303,65.2091,141.542,98.6344,91.9297,0.00313056,0.180817,20.8157,467.246,0.622387,0.0,0.0
2093,523,64.1485,65.3539,141.969,98.634,91.9399,0.00320379,0.180739,20.816,467.206,0.621377,0.0,0.0
2100,524.75,62.6819,65.2945,140.199,98.6316,91.7185,0.00327111,0.180396,20.8172,467.136,0.642473,0.0,0.0
2107,526.5,63.0131,64.9472,144.028,98.6471,91.7347,0.00324806,0.179864,20.8181,467.136,0.642302,0.0,0.0
2114,528.25,62.7305,65.0436,144.167,98.6663,92.2374,0.00320644,0.179447,20.8195,467.086,0.595698,0.0,0.0
2121,530,63.3355,64.7996,138.896,98.6579,92.0039,0.00322969,0.178893,20.8204,467.076,0.61736,0.0,0.0
2128,531.75,62.7349,63.8116,143.488,98.6714,92.4085,0.00327765,0.177936,20.8225,467.026,0.579779,0.0,0.0
2135,533.5,62.3062,64.5446,138.982,98.6591,92.1503,0.00332317,0.177346,20.8237,466.956,0.603414,0.0,0.0
2142,535.25,62.7198,63.9786,139.101,98.6631,91.9853,0.00335646,0.176979,20.8242,466.956,0.619616,0.0,0.0
2149,537,62.4548,64.094,144.437,98.6802,93.0247,0.00338079,0.176118,20.8257,466.946,0.521803,0.0,0.0
2156,538.75,61.9834,64.6259,141.495,98.6686,92.6813,0.0034037,0.175223,20.8264,466.886,0.553463,0.0,0.0
2163,540.5,62.7364,63.089,142.346,98.6607,92.5143,0.00344778,0.174759,20.8265,466.896,0.568698,0.0,0.0
2170,542.25,61.9381,64.0006,142.869,98.6742,93.0426,0.00353117,0.174251,20.8272,466.856,0.519573,0.0,0.0
2177,544,62.2835,63.3089,146.309,98.6675,92.8978,0.00355215,0.173567,20.8285,466.796,0.53273,0.0,0.0
2184,545.75,61.7871,63.741,144.182,98.6547,92.8528,0.00358973,0.17268,20.831,466.766,0.535871,0.0,0.0
2191,547.5,61.0605,62.8722,142.793,98.6448,93.0717,0.00372831,0.171749,20.8328,466.736,0.514159,0.0,0.0
2198,549.25,62.0475,62.9555,143.847,98.6483,93.7455,0.00380751,0.171485,20.8337,466.696,0.450706,0.0,0.0
2205,551,61.1043,62.9233,147.434,98.6523,93.3847,0.00372106,0.171137,20.8343,466.666,0.485156,0.0,0.0
2212,552.75,61.286,63.1815,141.786,98.6475,93.0349,0.00353138,0.170564,20.8363,466.646,0.517914,0.0,0.0
2219,554.5,61.2257,62.4572,146.467,98.6448,92.6327,0.00340214,0.170168,20.8374,466.606,0.555965,0.0,0.0
2226,556.25,60.5849,63.2315,139.75,98.6177,93.1403,0.00338175,0.169964,20.8378,466.576,0.505226,0.0,0.0
2233,558,60.8178,62.9898,142.641,98.6109,92.9266,0.00344213,0.169748,20.8381,466.546,0.524922,0.0,0.0
2240,559.75,61.3113,62.456,142.667,98.6101,93.2339,0.00354675,0.169428,20.839,466.516,0.495663,0.0,0.0
2247,561.5,59.8833,62.6966,146.891,98.5994,93.0494,0.00361497,0.168142,20.8411,466.506,0.512208,0.0,0.0
2254,563.25,60.1829,63.0459,142.115,98.5846,92.6473,0.00365871,0.167236,20.8421,466.446,0.549181,0.0,0.0
2261,565,60.4982,62.3472,144.96,98.5751,93.6405,0.00377785,0.166739,20.8439,466.406,0.454045,0.0,0.0
2268,566.75,60.6508,62.0765,141.857,98.5743,93.015,0.00401637,0.166427,20.8451,466.396,0.513232,0.0,0.0
2275,568.5,60.5573,61.9713,143.472,98.5663,92.953,0.00418696,0.166175,20.8459,466.366,0.518416,0.0,0.0
2282,570.25,60.1948,61.9955,145.412,98.5504,93.5003,0.0042958,0.165501,20.8473,466.326,0.465084,0.0,0.0
2289,572,60.1592,61.9687,143.782,98.548,92.9059,0.00436321,0.165236,20.8479,466.286,0.521246,0.0,0.0
2296,573.75,60.1611,61.9059,142.56,98.5492,93.0219,0.00443515,0.165201,20.8482,466.296,0.510327,0.0,0.0
2303,575.5,59.8403,61.897,142.48,98.5345,92.9424,0.0044769,0.165299,20.8493,466.286,0.51656,0.0,0.0
2310,577.25,59.0956,62.0449,141.926,98.5161,93.6012,0.00449313,0.165177,20.8501,466.205,0.452472,0.0,0.0
2317,579,59.8202,61.5212,142.214,98.5173,93.1326,0.00452986,0.164303,20.851,466.225,0.496956,0.0,0.0
2324,580.75,60.0366,60.9908,142.341,98.5014,93.0717,0.00454765,0.163395,20.852,466.185,0.501301,0.0,0.0
2331,582.5,59.5412,61.2909,142.886,98.507,93.6827,0.00450554,0.162604,20.8531,466.125,0.443956,0.0,0.0
2338,584.25,59.926,60.7171,143.139,98.4938,93.4411,0.00445069,0.162369,20.8544,466.135,0.465608,0.0,0.0
2345,586,59.4723,60.9781,144.184,98.4823,93.799,0.00438647,0.16224,20.8551,466.135,0.430766,0.0,0.0
2352,587.75,59.0786,60.9477,142.165,98.4747,93.2197,0.00438473,0.161646,20.8557,466.085,0.484861,0.0,0.0
2359,589.5,59.1972,60.8633,143.074,98.4811,93.2327,0.00450248,0.160931,20.857,466.035,0.484202,0.0,0.0
2366,591.25,58.6873,60.8154,144.154,98.4628,92.9777,0.00463576,0.160769,20.8579,466.025,0.506773,0.0,0.0
2373,593,58.8148,60.7694,144.785,98.4504,92.7815,0.00472196,0.161197,20.8583,465.995,0.524341,0.0,0.0
2380,594.75,58.8112,60.7364,141.628,98.4337,92.7223,0.00475644,0.161777,20.8579,465.955,0.528481,0.0,0.0
2387,596.5,58.5865,60.528,145.203,98.4277,93.4617,0.00476036,0.162899,20.8571,465.925,0.457716,0.0,0.0
2394,598.25,58.9631,60.3765,147.989,98.4301,93.4285,0.0047642,0.163514,20.8567,465.895,0.461076,0.0,0.0
2401,600,58.8009,59.7585,141.323,98.403,93.3782,0.00481872,0.16343,20.8566,465.905,0.463402,0.0,0.0
2408,601.75,58.3219,60.1665,143.553,98.3887,93.2607,0.0049507,0.162929,20.8573,465.885,0.473252,0.0,0.0
2415,603.5,58.3576,59.6919,149.341,98.3807,92.6274,0.00516135,0.162314,20.858,465.835,0.532773,0.0,0.0
2422,605.25,57.8243,59.4133,143.675,98.3652,92.4864,0.00533515,0.161997,20.8584,465.825,0.544853,0.0,0.0
2429,607,57.7983,60.0904,144.006,98.3413,92.8532,0.00541151,0.161547,20.8584,465.815,0.507703,0.0,0.0
2436,608.75,57.9895,59.7359,144.396,98.3134,93.8063,0.00543158,0.161023,20.8581,465.785,0.414907,0.0,0.0
2443,610.5,57.8146,59.7979,144.884,98.2971,92.953,0.00550976,0.160238,20.8581,465.715,0.494236,0.0,0.0
2450,612.25,57.95,59.5875,145.169,98.2852,92.9826,0.00566001,0.159676,20.8581,465.725,0.490348,0.0,0.0
2457,614,58.1386,59.326,140.775,98.2692,92.9574,0.00579816,0.15908,20.8593,465.675,0.491306,0.0,0.0
2464,615.75,58.3095,58.5258,144.921,98.243,93.3308,0.00591047,0.158577,20.8599,465.655,0.4535,0.0,0.0
2471,617.5,57.6218,58.3503,148.197,98.2227,93.034,0.00602939,0.157971,20.861,465.635,0.479828,0.0,0.0
2478,619.25,57.4637,59.3841,144.003,98.1964,93.0888,0.00612145,0.157251,20.8624,465.595,0.472262,0.0,0.0
2485,621,57.4924,58.9876,148.233,98.1924,93.0134,0.00612679,0.156778,20.863,465.565,0.479068,0.0,0.0
2492,622.75,57.2242,58.5622,143.46,98.1717,93.2278,0.00607361,0.156744,20.8633,465.545,0.456843,0.0,0.0
2499,624.5,57.4872,58.9677,143.656,98.1474,93.1654,0.00603828,0.156794,20.8635,465.545,0.460577,0.0,0.0
2506,626.25,57.4174,58.8097,144.343,98.1124,92.6639,0.00604285,0.156817,20.8636,465.475,0.505138,0.0,0.0
2513,628,57.0904,58.9684,143.65,98.1056,93.3478,0.00610355,0.156438,20.8636,465.465,0.439514,0.0,0.0
2520,629.75,56.848,59.0323,142.958,98.0996,92.7178,0.00621558,0.15609,20.8636,465.415,0.498847,0.0,0.0
2527,631.5,56.5324,59.1509,147.232,98.0451,92.7981,0.00632143,0.15571,20.8648,465.405,0.486278,0.0,0.0
2534,633.25,56.3493,58.7385,149.341,98.0275,92.4888,0.00638736,0.155397,20.8656,465.365,0.514218,0.0,0.0
2541,635,56.6857,58.3566,146.782,98.0112,92.9517,0.0064398,0.15552,20.8658,465.365,0.468599,0.0,0.0
2548,636.75,56.9157,58.1332,143.779,97.9961,92.2622,0.00648957,0.156363,20.8649,465.325,0.533069,0.0,0.0
2555,638.5,57.3141,57.9589,142.823,97.975,93.019,0.00657995,0.157244,20.8641,465.275,0.45893,0.0,0.0
2562,640.25,57.3228,58.1339,145.542,97.9499,93.0867,0.00668699,0.157558,20.8636,465.265,0.450234,0.0,0.0
2569,642,56.298,58.0869,143.689,97.9332,92.3222,0.00678066,0.157325,20.8634,465.245,0.521644,0.0,0.0
2576,643.75,56.3691,57.6398,145.824,97.9252,93.0328,0.00684787,0.157059,20.8633,465.225,0.453127,0.0,0.0
2583,645.5,55.4253,57.3967,147.466,97.9073,92.7413,0.00690532,0.156883,20.8633,465.195,0.479253,0.0,0.0
2590,647.25,55.7926,57.4902,143.308,97.8953,92.7734,0.00696834,0.156327,20.8643,465.205,0.475122,0.0,0.0
2597,649,55.4434,56.9969,142.66,97.8758,93.1362,0.00702886,0.155647,20.8656,465.165,0.438849,0.0,0.0
2604,650.75,55.7411,57.3078,143.604,97.8894,93.0304,0.00706709,0.155126,20.8673,465.155,0.450122,0.0,0.0
2611,652.5,55.9519,56.834,140.662,97.8615,93.0142,0.00706835,0.154648,20.8689,465.145,0.449146,0.0,0.0
2618,654.25,55.0069,56.7832,146.303,97.8428,92.0274,0.00702822,0.1541,20.87,465.084,0.541749,0.0,0.0
2625,656,54.7144,56.507,145.497,97.8404,92.9976,0.00696083,0.153818,20.8704,465.074,0.448818,0.0,0.0
2632,657.75,55.1942,57.4416,145.506,97.8408,92.6489,0.00687456,0.153321,20.8712,465.024,0.482063,0.0,0.0
2639,659.5,55.8171,56.8671,144.392,97.8328,92.4965,0.00684811,0.151958,20.8725,464.984,0.495901,0.0,0.0
2646,661.25,55.137,56.8161,141.451,97.8057,92.2893,0.00690649,0.15109,20.8741,464.994,0.513277,0.0,0.0
2653,663,55.0661,57.0619,145.111,97.8049,92.6574,0.0069663,0.150461,20.8759,464.944,0.478011,0.0,0.0
2660,664.75,55.5699,56.6392,145.034,97.8085,92.233,0.00701671,0.150073,20.8767,464.904,0.518929,0.0,0.0
2667,666.5,55.3988,56.5492,142.587,97.7994,91.9488,0.00707931,0.149736,20.8779,464.914,0.545384,0.0,0.0
2674,668.25,55.2929,56.5331,143.212,97.7882,92.9242,0.0071583,0.149129,20.8789,464.884,0.451083,0.0,0.0
2681,670,54.7402,55.888,144.1,97.7775,92.6278,0.0072811,0.148754,20.8794,464.874,0.478351,0.0,0.0
2688,671.75,54.8485,56.2407,143.831,97.7647,92.597,0.00749322,0.148457,20.8796,464.824,0.480139,0.0,0.0
2695,673.5,54.3114,56.5081,144.131,97.7623,92.5841,0.00767339,0.148114,20.8797,464.834,0.481163,0.0,0.0
2702,675.25,54.9423,56.704,145.118,97.7627,93.298,0.00778534,0.148042,20.8798,464.794,0.413286,0.0,0.0
2709,677,54.5819,56.0862,144.276,97.7619,92.4689,0.00773741,0.148059,20.8798,464.744,0.492128,0.0,0.0
2716,678.75,55.0805,56.2487,142.019,97.7512,92.6145,0.00765825,0.147716,20.8809,464.714,0.477251,0.0,0.0
2723,680.5,54.6457,55.59,145.583,97.7504,92.5309,0.00765611,0.147106,20.8812,464.714,0.485154,0.0,0.0
2730,682.25,54.5858,56.2537,141.42,97.7488,92.4722,0.00771688,0.146764,20.8814,464.704,0.49063,0.0,0.0
2737,684,54.6078,55.8468,146.009,97.7587,92.704,0.00771368,0.146566,20.8823,464.654,0.469387,0.0,0.0
2744,685.75,54.6229,55.9726,147.743,97.7436,92.5577,0.00763641,0.145937,20.8837,464.644,0.481986,0.0,0.0
2751,687.5,54.3659,56.1444,139.546,97.7277,92.1864,0.00756039,0.145253,20.885,464.644,0.516088,0.0,0.0
2758,689.25,54.6261,56.0244,145.895,97.7345,92.6254,0.00752858,0.145039,20.8857,464.614,0.474694,0.0,0.0
2765,691,54.1981,55.6571,142.961,97.7293,92.2305,0.00748421,0.145024,20.8848,464.614,0.511996,0.0,0.0
2772,692.75,54.0356,55.3707,145.451,97.7317,92.569,0.00744309,0.144996,20.8843,464.544,0.479822,0.0,0.0
2779,694.5,54.3458,55.6898,143.946,97.7034,93.225,0.00747854,0.144767,20.8847,464.554,0.414837,0.0,0.0
2786,696.25,53.9292,55.636,146.424,97.7002,92.4823,0.00758872,0.144715,20.8855,464.554,0.485266,0.0,0.0
2793,698,54.0936,56.0094,142.139,97.699,92.8208,0.00766639,0.144886,20.8847,464.494,0.452855,0.0,0.0
2800,699.75,54.2324,55.4969,143.775,97.6942,92.4227,0.00768411,0.145088,20.8842,464.474,0.490424,0.0,0.0
2807,701.5,54.4311,55.5084,149.059,97.6926,92.4259,0.00770522,0.14469,20.8841,464.484,0.48997,0.0,0.0
2814,703.25,54.2085,55.3816,145.55,97.6855,92.5443,0.00774147,0.14412,20.8855,464.434,0.478005,0.0,0.0
2821,705,53.9616,55.0539,145.942,97.6918,92.4868,0.00780095,0.14388,20.8866,464.394,0.484083,0.0,0.0
2828,706.75,54.0952,55.2537,139.373,97.6831,92.8143,0.00787277,0.143942,20.8873,464.384,0.452032,0.0,0.0
2835,708.5,53.8354,55.1532,145.247,97.6779,92.668,0.00787727,0.144011,20.8876,464.354,0.465515,0.0,0.0
2842,710.25,54.2395,55.5084,146.58,97.6735,93.0665,0.00785221,0.144221,20.8878,464.344,0.427179,0.0,0.0
2849,712,53.999,54.9778,141.626,97.6703,92.2196,0.0078409,0.14449,20.8878,464.304,0.507712,0.0,0.0
2856,713.75,53.9969,55.5253,146.93,97.6783,92.4815,0.00781479,0.144329,20.8879,464.294,0.48336,0.0,0.0
2863,715.5,54.1572,55.0475,144.533,97.6536,92.3059,0.00771347,0.143802,20.8883,464.264,0.497923,0.0,0.0
2870,717.25,54.0136,55.3048,143.257,97.6297,92.7308,0.0075929,0.143137,20.8884,464.274,0.45516,0.0,0.0
2877,719,53.9312,55.4655,147.478,97.6237,92.475,0.00752975,0.142702,20.8892,464.234,0.479041,0.0,0.0
2884,720.75,53.9442,55.1087,146.446,97.6245,92.7596,0.00753246,0.142516,20.8898,464.264,0.451946,0.0,0.0
2891,722.5,53.6722,55.251,144.136,97.6146,91.8543,0.00756302,0.141831,20.89,464.204,0.537752,0.0,0.0
2898,724.25,53.7605,55.1358,144.015,97.611,91.7319,0.00759522,0.141248,20.8901,464.134,0.54922,0.0,0.0
2905,726,53.357,55.1866,149.822,97.6098,91.9626,0.00758438,0.141248,20.8892,464.154,0.526907,0.0,0.0
2912,727.75,54.0799,55.4108,143.917,97.6054,92.6412,0.00759507,0.141435,20.8886,464.154,0.461505,0.0,0.0
2919,729.5,53.8144,55.0954,144.753,97.5907,92.4523,0.00767205,0.141751,20.8882,464.134,0.478219,0.0,0.0
2926,731.25,53.4821,55.0035,146.417,97.5819,92.3295,0.00775006,0.142101,20.8881,464.084,0.489179,0.0,0.0
2933,733,53.3789,54.7501,144.521,97.5776,93.0263,0.00773942,0.142218,20.888,464.084,0.422301,0.0,0.0
2940,734.75,53.6688,55.087,144.388,97.564,92.7847,0.00771967,0.141882,20.8886,464.074,0.444068,0.0,0.0
2947,736.5,53.095,54.8865,147.204,97.572,92.82,0.0077647,0.1414,20.8895,464.044,0.44143,0.0,0.0
2954,738.25,53.6296,54.6351,144.39,97.5795,92.2759,0.00784037,0.140797,20.8899,464.013,0.494089,0.0,0.0
2961,740,53.0743,54.8893,148.418,97.5513,92.3923,0.00792339,0.140837,20.8898,463.973,0.480386,0.0,0.0
2968,741.75,53.3056,54.2493,143.014,97.5461,92.5727,0.00794777,0.141089,20.8888,463.953,0.46267,0.0,0.0
2975,743.5,52.7506,54.3239,146.158,97.5453,92.5395,0.00790094,0.141221,20.8894,463.923,0.465773,0.0,0.0
2982,745.25,53.2365,54.8686,149.47,97.5334,92.569,0.00786523,0.141014,20.8899,463.903,0.461865,0.0,0.0
2989,747,52.8979,54.5259,146.585,97.5278,92.1596,0.00786907,0.140735,20.8901,463.873,0.500552,0.0,0.0
2996,748.75,53.157,53.7602,145.615,97.5095,92.3554,0.00784684,0.140856,20.8895,463.843,0.480126,0.0,0.0
3003,750.5,52.7186,54.3008,147.008,97.5134,92.265,0.00775378,0.140937,20.8891,463.883,0.489146,0.0,0.0
3010,752.25,53.1072,54.452,145.479,97.5202,91.9597,0.00768787,0.140577,20.8897,463.823,0.51906,0.0,0.0
3017,754,52.6595,54.003,143.112,97.5019,92.9108,,0.140475,,463.823,0.42643,0.0,0.0
3024,755.75,53.2806,54.8288,144.59,97.4955,92.8009,,,,463.793,0.436314,0.0,0.0
3031,757.5,53.1893,54.4898,147.712,97.4911,92.1722,,,,463.773,0.496024,0.0,0.0
3038,759.25,53.2854,54.6715,143.77,97.5011,92.4827,,,,463.743,0.467191,0.0,0.0
3045,761,53.2577,54.5273,141.783,97.4872,92.2764,,,,463.733,0.485675,0.0,0.0
3052,762.75,53.1489,54.4967,147.358,97.4732,92.3424,,,,463.733,0.478082,0.0,0.0
3054,763.25,53.0654,54.2158,146.914,97.4796,92.6639,,,,463.713,0.447933,0.0,0.0