File: 01_Data/EPDM_Membrane/Cone/EPDM_Membrane_Cone_HF50Scan_220225_R1.csv
Names,Time,Stack TC,Smoke TC,Exh Press,Smoke Comp,Smoke Meas,CO Meter,CO2 Meter,O2 Meter,Sample Mass,Ext Coeff,Start Test,Flame Verif
Chan Gain,,500,500,1,1,1,1,1,1,1,1,1.0,1.0
Offset,,0,0,0.137915,0,0,0,0,0,0,0,0.0,0.0
Gain,,1,1,25.011,15.3125,15.3273,1,1,1,1.00096,1.02035,1.0,1.0
Units,sec,C,C,Pa,%,%,%,%,%,g,/m,,
Baseline,,28.936,30.1158,175.738,115.718,110.696,-6.7638e-05,0.0429898,21.0619,-867.465,0.397089,,
8,1.75,27.5047,28.3888,177.841,113.919,108.91,-0.000582263,0.0483787,21.0553,163.286,0.402506,0.0,0.0
16,3.75,26.7888,28.0903,178.76,113.922,110.594,-0.000605427,0.0475664,21.0564,163.276,0.265323,0.0,0.0
24,5.75,26.701,27.1844,172.574,113.926,110.705,-0.000590914,0.0476979,21.0557,163.266,0.256649,0.0,0.0
32,7.75,27.1264,28.1352,174.568,113.929,109.17,-0.000557939,0.0484647,21.0546,163.286,0.381929,0.0,0.0
40,9.75,27.0969,27.8619,176.615,113.952,109.056,-0.00054142,0.0491567,21.0535,163.246,0.393127,0.0,0.0
48,11.75,27.4483,28.4764,176.373,113.994,109.425,-0.000590949,0.0492716,21.053,163.246,0.366155,0.0,0.0
56,13.75,27.105,28.6721,174.19,114.039,109.666,-0.000578014,0.0490065,21.0528,163.226,0.349993,0.0,0.0
64,15.75,27.6608,28.6872,177.14,114.095,109.277,-0.000511309,0.0488831,21.0527,163.236,0.386137,0.0,0.0
72,17.75,27.4672,28.5585,173.914,114.168,109.17,-0.00045947,0.0492251,21.053,163.236,0.40067,0.0,0.0
80,19.75,27.8424,28.4926,172.282,114.231,109.511,-0.000419951,0.0493037,21.0535,163.226,0.377738,0.0,0.0
88,21.75,27.7743,28.8548,171.954,114.321,108.275,-0.000364623,0.0489237,21.0538,163.206,0.486306,0.0,0.0
96,23.75,27.486,28.4343,172.515,114.403,109.457,-0.000290369,0.0485499,21.0539,163.206,0.3956,0.0,0.0
104,25.75,28.2215,28.536,176.132,114.49,107.824,-0.000204338,0.0484485,21.0539,163.196,0.536893,0.0,0.0
112,27.75,28.4297,29.0179,177.003,114.584,108.135,-0.000147924,0.0485062,21.0539,163.186,0.518488,0.0,0.0
120,29.75,28.1014,29.2509,174.423,114.693,107.507,-6.50826e-05,0.0480714,21.0539,163.196,0.579096,0.0,0.0
128,31.75,27.653,29.0281,177.281,114.806,106.965,6.42126e-05,0.0477585,21.0537,163.176,0.633168,0.0,0.0
136,33.75,28.2908,29.3364,174.088,114.916,107.628,0.000274543,0.0485822,21.0509,163.166,0.586394,0.0,0.0
144,35.75,28.1761,28.8935,174.532,115.036,109.11,0.000759808,0.057935,21.0286,163.086,0.473352,0.0,1.0
152,37.75,28.4998,29.482,168.506,115.165,99.7884,0.00167689,0.0836638,20.9731,163.046,1.28272,0.0,1.0
160,39.75,28.3431,29.6,170.595,115.299,85.6908,0.00309968,0.123165,20.9116,162.976,2.65631,0.0,1.0
168,41.75,29.3791,29.9966,160.706,115.414,78.48,0.00498676,0.168178,20.8466,162.816,3.45207,0.0,0.0
176,43.75,30.0237,31.3416,163.4,115.519,70.3195,0.00787659,0.22717,20.7424,162.736,4.44288,0.0,0.0
184,45.75,31.3651,32.6168,160.214,115.666,69.5389,0.0106279,0.280305,20.6461,162.556,4.5542,0.0,0.0
192,47.75,32.8599,34.062,152.182,115.785,62.4384,0.0133067,0.339084,20.5376,162.376,5.52736,0.0,0.0
200,49.75,34.506,36.0797,152.348,115.895,63.3023,0.0157933,0.397869,20.4228,162.145,5.41292,0.0,0.0
208,51.75,36.525,37.6887,146.228,115.991,60.4285,0.0180456,0.449456,20.3323,161.915,5.83614,0.0,0.0
216,53.75,38.2148,40.1137,142.19,116.084,59.6468,0.0201004,0.493522,20.2626,161.715,5.95984,0.0,0.0
224,55.75,40.7617,41.6687,154.744,116.151,53.8972,0.0215811,0.531807,20.2067,161.495,6.87229,0.0,0.0
232,57.75,42.6594,44.2934,145.699,116.221,59.7783,0.0229793,0.564527,20.1446,161.235,5.95076,0.0,0.0
240,59.75,44.3004,46.929,142.596,116.269,57.7768,0.0238934,0.589265,20.1055,160.974,6.2592,0.0,0.0
248,61.75,46.1155,49.372,147.753,116.307,59.4153,0.0245301,0.608385,20.0781,160.744,6.01185,0.0,0.0
256,63.75,48.0604,51.4558,143.522,116.33,53.9426,0.0249872,0.616898,20.0694,160.474,6.87854,0.0,0.0
264,65.75,49.9152,53.6253,134.918,116.346,50.7867,0.0254027,0.621124,20.068,160.304,7.41932,0.0,0.0
272,67.75,51.7895,55.7124,139.778,116.33,57.1804,0.0256184,0.623623,20.0673,160.053,6.35678,0.0,0.0
280,69.75,52.9972,57.3675,146.704,116.323,57.9714,0.0254626,0.623779,20.0716,159.803,6.23328,0.0,0.0
288,71.75,54.7993,59.6322,142.968,116.299,55.1433,0.0252605,0.620612,20.0767,159.563,6.67905,0.0,0.0
296,73.75,55.9101,60.5922,139.142,116.255,53.7031,0.024903,0.615139,20.0871,159.343,6.91254,0.0,0.0
304,75.75,57.6295,62.1854,150.742,116.205,54.481,0.0246449,0.608124,20.0981,159.112,6.78001,0.0,0.0
312,77.75,58.2468,63.6749,145.805,116.143,53.8724,0.024551,0.602017,20.1082,158.942,6.87573,0.0,0.0
320,79.75,58.8556,64.4002,143.389,116.059,52.8004,0.0245018,0.595043,20.1204,158.702,7.04919,0.0,0.0
328,81.75,59.5534,65.4712,149.759,115.976,57.1336,0.0243763,0.588915,20.1297,158.422,6.33685,0.0,0.0
336,83.75,61.2863,67.3139,139.072,115.885,57.5359,0.02413,0.581738,20.145,157.831,6.26698,0.0,0.0
344,85.75,61.801,68.2623,140.205,115.795,58.9041,0.0238403,0.575679,20.1537,157.871,6.0497,0.0,0.0
352,87.75,62.6288,69.1153,146.99,115.698,58.861,0.0234465,0.571513,20.1623,157.661,6.04876,0.0,0.0
360,89.75,63.2387,70.1424,149.593,115.637,61.2508,0.0231539,0.564999,20.1732,157.511,5.68782,0.0,0.0
368,91.75,64.6156,70.1218,150.624,115.549,59.7315,0.0228806,0.558692,20.1867,157.541,5.90583,0.0,0.0
376,93.75,64.9551,71.9055,148.373,115.485,56.2748,0.0225649,0.553049,20.1956,157.261,6.43446,0.0,0.0
384,95.75,65.5263,72.4204,146.04,115.452,59.1931,0.0222111,0.549144,20.2024,156.76,5.97933,0.0,0.0
392,97.75,65.9707,73.1139,147.05,115.656,59.3798,0.0219039,0.54348,20.2123,156.62,5.96694,0.0,0.0
400,99.75,65.9786,73.6613,143.275,115.813,61.3345,0.0216865,0.539222,20.2177,156.55,5.68922,0.0,0.0
408,101.75,66.9081,74.25,144.86,115.938,61.3036,0.0214338,0.537932,20.2201,156.2,5.70336,0.0,0.0
416,103.75,67.4836,74.9015,149.191,116.032,62.2111,0.0212,0.536404,20.2243,156.14,5.57913,0.0,0.0
424,105.75,67.1327,74.5255,146.01,116.099,57.5064,0.0211102,0.53047,20.2359,155.879,6.28808,0.0,0.0
432,107.75,68.2922,75.8226,142.886,116.139,60.7868,0.0211206,0.523877,20.245,155.689,5.79468,0.0,0.0
440,109.75,68.6583,75.4378,149.383,116.139,58.6575,0.0211296,0.519656,20.2504,155.449,6.11378,0.0,0.0
448,111.75,68.7641,76.4939,151.441,116.136,59.7175,0.0210462,0.517671,20.2539,155.319,5.95328,0.0,0.0
456,113.75,67.8385,76.039,144.973,116.1,59.3475,0.0209393,0.51702,20.2553,155.089,6.00613,0.0,0.0
464,115.75,69.2778,77.2157,145.506,116.041,59.9663,0.02081,0.517101,20.2568,154.858,5.90871,0.0,0.0
472,117.75,68.8224,76.7134,153.315,115.958,62.4267,0.0207088,0.514118,20.2586,154.658,5.54246,0.0,0.0
480,119.75,70.1676,77.3502,151.16,115.848,59.8835,0.0207213,0.513072,20.2583,154.458,5.90617,0.0,0.0
488,121.75,70.0368,78.208,144.208,115.72,60.5421,0.0206968,0.515328,20.2535,154.278,5.79838,0.0,0.0
496,123.75,70.4709,78.1508,145.878,115.56,61.1525,0.0206902,0.518096,20.2507,154.078,5.69622,0.0,0.0
504,125.75,71.0349,78.0138,147.219,115.376,62.6564,0.0207604,0.519262,20.2495,153.827,5.4645,0.0,0.0
512,127.75,70.978,79.3988,146.551,115.211,58.3937,0.0208472,0.517595,20.249,153.637,6.08235,0.0,0.0
520,129.75,71.028,79.1715,142.067,115.222,60.1894,0.0209104,0.518903,20.2468,153.427,5.81209,0.0,0.0
528,131.75,71.2931,79.5027,148.952,115.25,59.6408,0.0209858,0.523217,20.2407,153.217,5.89627,0.0,0.0
536,133.75,71.9297,79.5131,147.81,115.3,61.7321,0.02113,0.52682,20.239,152.987,5.59165,0.0,0.0
544,135.75,72.2816,80.3303,139.845,115.351,58.6061,0.0212586,0.527792,20.2382,152.836,6.06071,0.0,0.0
552,137.75,72.6331,80.4898,150.475,115.39,59.5205,0.021384,0.528541,20.2355,152.566,5.92514,0.0,0.0
560,139.75,72.7234,80.9029,149.734,115.447,61.1904,0.0214673,0.53086,20.2305,152.376,5.68195,0.0,0.0
568,141.75,72.2503,80.9607,144.297,115.489,56.0325,0.021549,0.532369,20.2273,152.136,6.47337,0.0,0.0
576,143.75,72.3341,80.9159,142.835,115.528,60.7049,0.0217589,0.532986,20.2253,151.926,5.75951,0.0,0.0
584,145.75,73.9622,81.7009,151.144,115.551,60.2189,0.021988,0.533774,20.2232,151.725,5.83323,0.0,0.0
592,147.75,73.5958,82.667,147.039,115.567,61.1502,0.0221215,0.534255,20.2221,151.535,5.69714,0.0,0.0
600,149.75,73.7806,82.1152,144.007,115.549,57.7492,0.0221354,0.536627,20.2186,151.315,6.20787,0.0,0.0
608,151.75,73.8606,82.5812,142.959,115.528,56.6069,0.0220475,0.537443,20.2178,151.135,6.38509,0.0,0.0
616,153.75,74.4644,82.4942,144.842,115.529,59.616,0.0219677,0.53495,20.2209,150.855,5.92163,0.0,0.0
624,155.75,74.5528,83.0922,151.512,115.51,59.2446,0.0221105,0.53146,20.2246,150.614,5.97605,0.0,0.0
632,157.75,74.7386,83.218,144.129,115.46,57.7852,0.0223198,0.529878,20.2263,150.454,6.19545,0.0,0.0
640,159.75,74.8909,83.4937,146.312,115.416,57.6276,0.0223323,0.529962,20.2256,150.244,6.21649,0.0,0.0
648,161.75,74.9763,83.2151,144.825,115.328,55.7406,0.0225244,0.531071,20.223,149.964,6.50761,0.0,0.0
656,163.75,75.5709,84.1906,145.591,115.232,51.3611,0.02305,0.537115,20.2076,149.764,7.23258,0.0,0.0
664,165.75,75.3328,84.2004,136.346,115.119,50.884,0.0237917,0.552027,20.1746,149.563,7.30729,0.0,0.0
672,167.75,76.3709,83.82,139.515,114.997,51.5098,0.0248044,0.574098,20.1267,149.243,7.18842,0.0,0.0
680,169.75,76.8173,84.9643,136.593,114.868,50.7025,0.0260928,0.601891,20.0768,148.963,7.31974,0.0,0.0
688,171.75,76.9961,85.7443,138.869,114.739,45.6147,0.0276578,0.624184,20.0336,148.713,8.25614,0.0,0.0
696,173.75,77.7657,87.4762,144.024,114.594,45.8814,0.0291369,0.650393,19.9866,148.422,8.19267,0.0,0.0
704,175.75,79.0379,87.5885,148.244,114.452,47.9615,0.0301363,0.674798,19.9505,148.122,7.78475,0.0,0.0
712,177.75,79.9409,89.0546,136.941,114.321,43.7409,0.0308939,0.69603,19.9228,147.852,8.59889,0.0,0.0
720,179.75,80.7505,89.728,135.861,114.213,49.4185,0.0315295,0.710952,19.904,147.491,7.49816,0.0,0.0
728,181.75,81.4361,90.7317,140.198,114.112,44.4514,0.0317905,0.721751,19.8915,147.281,8.43831,0.0,0.0
736,183.75,81.9774,91.5912,137.631,114.036,47.5045,0.0313058,0.721872,19.8917,146.921,7.83782,0.0,0.0
744,185.75,83.1515,92.386,137.511,113.973,44.1287,0.0304619,0.712916,19.917,146.691,8.49267,0.0,0.0
752,187.75,83.4406,93.2102,144.22,113.923,46.8374,0.0296943,0.690972,19.9604,146.39,7.95551,0.0,0.0
760,189.75,83.8891,93.3202,138.308,113.894,52.2386,0.0290149,0.66902,19.9942,146.12,6.97643,0.0,0.0
768,191.75,84.0794,93.8393,137.849,113.885,51.2806,0.0279582,0.648437,20.0399,145.92,7.14135,0.0,0.0
776,193.75,84.1776,93.7465,151.289,113.903,47.8445,0.0268394,0.622602,20.084,145.67,7.76352,0.0,0.0
784,195.75,84.4016,94.233,144.977,113.929,54.0184,0.025781,0.599266,20.116,145.429,6.67928,0.0,0.0
792,197.75,83.7105,93.731,144.592,113.986,56.1284,0.0246201,0.581549,20.1432,145.199,6.34083,0.0,0.0
800,199.75,83.7199,94.0175,143.607,114.038,55.4983,0.0235742,0.563818,20.1686,145.009,6.44591,0.0,0.0
808,201.75,83.8116,94.0508,141.1,114.114,58.0916,0.0226345,0.550333,20.1921,144.789,6.04318,0.0,0.0
816,203.75,83.9324,92.7105,143.199,114.203,58.3423,0.0220257,0.537138,20.2166,144.559,6.01159,0.0,0.0
824,205.75,83.6103,93.4477,144.546,114.305,59.166,0.0214768,0.526042,20.2384,144.368,5.89405,0.0,0.0
832,207.75,82.9,91.7409,150.609,114.404,59.7797,0.020967,0.516366,20.2555,144.108,5.80945,0.0,0.0
840,209.75,83.0312,92.7023,146.958,114.523,59.144,0.0206254,0.507337,20.2695,143.978,5.91449,0.0,0.0
848,211.75,82.0951,91.5813,145.956,114.656,55.5456,0.0203909,0.499048,20.2808,143.758,6.48668,0.0,0.0
856,213.75,82.3706,92.0835,147.592,114.783,59.3073,0.0201419,0.492489,20.2883,143.548,5.91006,0.0,0.0
864,215.75,81.1798,90.8001,152.331,114.898,58.1121,0.0200626,0.489641,20.2916,143.387,6.10126,0.0,0.0
872,217.75,81.4633,90.9903,143.567,115.049,56.7566,0.0201907,0.488251,20.293,143.127,6.32423,0.0,0.0
880,219.75,81.6376,91.0442,155.394,115.192,58.8311,0.0203,0.488281,20.2907,142.967,6.01408,0.0,0.0
888,221.75,80.8916,90.701,142.478,115.33,59.3147,0.0202194,0.490583,20.2886,142.747,5.9515,0.0,0.0
896,223.75,81.1783,90.5883,147.911,115.454,55.4165,0.0200541,0.489285,20.2933,142.557,6.56956,0.0,0.0
904,225.75,81.0792,90.8079,146.231,115.579,57.7071,0.0200255,0.487245,20.2976,142.346,6.21679,0.0,0.0
912,227.75,80.9789,90.8371,145.101,115.733,57.4278,0.0201469,0.486643,20.2994,142.166,6.2721,0.0,0.0
920,229.75,80.8179,89.6649,149.4,115.854,54.1054,0.0203257,0.485112,20.299,141.966,6.81483,0.0,0.0
928,231.75,80.5531,89.6978,150.114,115.966,56.997,0.0204328,0.48377,20.3006,141.736,6.35748,0.0,0.0
936,233.75,80.3531,89.5345,148.725,116.067,55.4829,0.0205048,0.483201,20.2991,141.516,6.60628,0.0,0.0
944,235.75,80.4439,89.2267,144.692,116.139,57.5677,0.0205776,0.484328,20.2957,141.375,6.28168,0.0,0.0
952,237.75,80.4572,89.4137,142.681,116.2,57.3277,0.020685,0.487105,20.2897,141.115,6.32378,0.0,0.0
960,239.75,80.7114,89.1492,141.261,116.253,55.1658,0.020833,0.489984,20.2847,140.885,6.67192,0.0,0.0
968,241.75,80.1032,89.1457,146.609,116.303,60.4925,0.0208902,0.492364,20.281,140.665,5.85074,0.0,0.0
976,243.75,79.9646,88.6282,150.829,116.326,59.7549,0.0209052,0.493808,20.2786,140.485,5.96228,0.0,0.0
984,245.75,80.4718,89.0784,150.399,116.337,55.8496,0.0208522,0.494669,20.2767,140.274,6.56812,0.0,0.0
992,247.75,80.1956,89.1326,143.11,116.339,58.781,0.0206489,0.495758,20.2773,140.064,6.1104,0.0,0.0
1000,249.75,80.247,88.8237,144.953,116.321,61.095,0.0203992,0.4952,20.2818,139.844,5.76344,0.0,0.0
1008,251.75,80.08,88.8313,146.518,116.307,61.4959,0.0202054,0.490875,20.2905,139.694,5.70379,0.0,0.0
1016,253.75,79.6198,88.7787,151.859,116.249,59.1711,0.0200565,0.484181,20.3007,139.524,6.04421,0.0,0.0
1024,255.75,80.212,88.0448,154.088,116.247,58.2988,0.0198543,0.479196,20.3069,139.294,6.17704,0.0,0.0
1032,257.75,79.8761,88.2829,147.31,116.188,59.9794,0.0196404,0.474089,20.316,139.113,5.9181,0.0,0.0
1040,259.75,80.1065,88.0329,148.877,116.136,62.9122,0.0193342,0.467653,20.3275,138.933,5.48678,0.0,0.0
1048,261.75,79.433,87.9698,150.67,116.06,58.7357,0.0190216,0.462291,20.3356,138.773,6.09582,0.0,0.0
1056,263.75,79.3636,87.7356,149.851,115.987,58.1926,0.0188362,0.457133,20.3437,138.513,6.1733,0.0,0.0
1064,265.75,79.3432,87.5223,150.788,115.914,59.8723,0.0186596,0.453576,20.3481,138.393,5.91294,0.0,0.0
1072,267.75,78.9368,87.2078,152.64,115.832,62.5165,0.0183357,0.45078,20.3528,138.192,5.51982,0.0,0.0
1080,269.75,78.3532,86.6821,148.617,115.744,63.539,0.0180131,0.446048,20.3616,137.972,5.36782,0.0,0.0
1088,271.75,78.2201,86.7324,148.952,115.68,61.9627,0.0177861,0.440553,20.3747,137.822,5.58775,0.0,0.0
1096,273.75,78.6506,86.4654,150.306,115.599,64.0287,0.0176407,0.436154,20.3824,137.642,5.28789,0.0,0.0
1104,275.75,78.2042,86.4091,148.577,115.538,67.4401,0.0173298,0.43204,20.389,137.472,4.81855,0.0,0.0
1112,277.75,78.3387,86.1604,148.311,115.49,60.8274,0.0167599,0.426515,20.4013,137.322,5.73849,0.0,0.0
1120,279.75,77.5566,85.464,150.888,115.426,64.7299,0.0163047,0.420237,20.41,137.141,5.17701,0.0,0.0
1128,281.75,77.7649,85.5405,151.991,115.437,64.8104,0.0160244,0.416808,20.4161,136.961,5.16672,0.0,0.0
1136,283.75,77.4335,85.2846,158.563,115.582,67.252,0.0158978,0.413446,20.4201,136.801,4.84695,0.0,0.0
1144,285.75,77.0301,84.8297,155.109,115.726,65.3221,0.0157842,0.412128,20.4239,136.641,5.11873,0.0,0.0
1152,287.75,76.9143,84.3539,148.876,115.834,63.1779,0.0155514,0.409923,20.428,136.471,5.42577,0.0,0.0
1160,289.75,76.7156,84.2518,152.059,115.938,63.1531,0.0152176,0.404145,20.4371,136.341,5.43733,0.0,0.0
1168,291.75,76.558,83.5919,152.273,116.021,65.5929,0.0150657,0.39911,20.4428,136.13,5.10444,0.0,0.0
1176,293.75,76.302,83.7745,156.458,116.071,65.6696,0.0151937,0.398083,20.4473,135.98,5.09783,0.0,0.0
1184,295.75,76.1048,83.3979,148.913,116.119,63.8356,0.0153277,0.39563,20.4512,135.85,5.35511,0.0,0.0
1192,297.75,75.961,83.3332,155.367,116.139,63.7275,0.0153654,0.38993,20.4609,135.67,5.37182,0.0,0.0
1200,299.75,75.549,82.8299,145.912,116.155,64.4956,0.0152837,0.384849,20.4671,135.52,5.26582,0.0,0.0
1208,301.75,75.6699,82.3974,153.543,116.148,65.476,0.0152383,0.384368,20.4679,135.36,5.13021,0.0,0.0
1216,303.75,75.4202,82.1107,149.597,116.146,65.5424,0.0152894,0.385473,20.4675,135.2,5.12099,0.0,0.0
1224,305.75,75.1447,82.1814,149.29,116.117,62.3266,0.0152889,0.385834,20.4673,135.049,5.56908,0.0,0.0
1232,307.75,75.1926,81.9476,150.166,116.092,63.7116,0.0151827,0.38469,20.4671,134.919,5.37042,0.0,0.0
1240,309.75,74.2943,80.955,150.291,116.054,67.4246,0.0150869,0.385536,20.4657,134.719,4.86051,0.0,0.0
1248,311.75,74.624,81.5605,146.311,116.036,65.7903,0.015073,0.386541,20.4652,134.559,5.07877,0.0,0.0
1256,313.75,74.0073,80.728,150.312,115.979,65.1822,0.0151357,0.385196,20.4672,134.399,5.15745,0.0,0.0
1264,315.75,74.0183,80.9617,155.724,115.959,66.6309,0.0152563,0.381556,20.4702,134.219,4.95919,0.0,0.0
1272,317.75,73.3452,80.0818,147.645,115.923,63.8159,0.0153497,0.379338,20.4739,134.099,5.34273,0.0,0.0
1280,319.75,73.4976,80.6051,147.379,115.886,66.0845,0.0154154,0.3814,20.4723,133.978,5.02726,0.0,0.0
1288,321.75,73.5469,80.383,154.826,115.861,67.8741,0.0154116,0.382796,20.4713,133.788,4.78614,0.0,0.0
1296,323.75,73.6274,79.9779,153.704,115.828,65.3455,0.0154671,0.382939,20.4707,133.658,5.1234,0.0,0.0
1304,325.75,73.1789,80.1439,148.145,115.824,63.9113,0.0154537,0.38351,20.4693,133.468,5.3217,0.0,0.0
1312,327.75,73.4888,79.8187,152.17,115.843,62.7565,0.0153766,0.383616,20.4687,133.328,5.48643,0.0,0.0
1320,329.75,73.2553,80.3553,145.906,115.858,62.2181,0.0153732,0.3844,20.4672,133.188,5.5647,0.0,0.0
1328,331.75,73.2965,79.6541,147.346,115.856,64.1246,0.0154045,0.385182,20.4655,132.997,5.29433,0.0,0.0
1336,333.75,73.0695,80.0344,150.943,115.819,62.0852,0.0153259,0.384741,20.4654,132.797,5.58076,0.0,0.0
1344,335.75,73.199,79.5816,151.437,115.835,63.7107,0.0151638,0.384076,20.4657,132.687,5.35075,0.0,0.0
1352,337.75,73.328,79.5478,151.931,115.847,63.9385,0.0150756,0.383537,20.4658,132.547,5.31967,0.0,0.0
1360,339.75,72.9669,79.6192,154.974,115.877,62.756,0.0151325,0.382532,20.4663,132.347,5.4891,0.0,0.0
1368,341.75,73.097,79.2652,153.728,115.908,63.2888,0.0151259,0.382177,20.4671,132.227,5.41585,0.0,0.0
1376,343.75,73.1117,79.1699,147.335,115.928,61.9828,0.0151345,0.381533,20.4674,132.097,5.60395,0.0,0.0
1384,345.75,73.0505,79.1894,149.411,115.943,62.0647,0.0151403,0.381859,20.4665,131.916,5.59333,0.0,0.0
1392,347.75,73.2419,79.2035,151.87,115.98,63.9642,0.0151749,0.383314,20.4637,131.746,5.32639,0.0,0.0
1400,349.75,73.0002,79.5527,155.133,116.006,67.4901,0.0152747,0.385004,20.4606,131.656,4.84808,0.0,0.0
1408,351.75,72.9592,79.1376,146.135,116.042,65.7898,0.0152796,0.38619,20.4596,131.486,5.07927,0.0,0.0
1416,353.75,72.4975,79.3418,147.563,116.068,63.9188,0.0151376,0.385924,20.4614,131.296,5.33948,0.0,0.0
1424,355.75,72.1882,78.1642,147.468,116.091,66.5144,0.014969,0.384358,20.4636,131.116,4.98502,0.0,0.0
1432,357.75,72.809,78.8423,147.184,116.109,68.1716,0.0148234,0.382782,20.4662,130.986,4.76611,0.0,0.0
1440,359.75,72.8111,78.8311,150.507,116.111,64.4039,0.0147319,0.381186,20.4683,130.835,5.27517,0.0,0.0
1448,361.75,72.7949,79.2492,153.107,116.136,64.4759,0.0146499,0.37982,20.4693,130.665,5.26704,0.0,0.0
1456,363.75,72.759,78.3038,146.427,116.158,65.6177,0.014528,0.378038,20.4722,130.525,5.11169,0.0,0.0
1464,365.75,72.7561,78.5898,154.126,116.145,64.5526,0.0144469,0.3761,20.4755,130.345,5.25711,0.0,0.0
1472,367.75,72.693,78.1629,150.97,116.157,65.4273,0.01438,0.375507,20.4795,130.205,5.13758,0.0,0.0
1480,369.75,72.4131,77.5985,150.55,116.158,64.5512,0.0142979,0.372956,20.4838,130.045,5.25835,0.0,0.0
1488,371.75,72.6184,78.854,148.931,116.135,64.3987,0.0142377,0.369552,20.4886,129.935,5.27772,0.0,0.0
1496,373.75,72.0806,78.1107,151.227,116.118,65.4334,0.0142512,0.366816,20.4933,129.774,5.13373,0.0,0.0
1504,375.75,72.3185,78.0142,149.039,116.076,65.5737,0.0143304,0.364166,20.4973,129.614,5.11135,0.0,0.0
1512,377.75,72.4327,77.5887,154.11,116.016,68.8349,0.0143507,0.361946,20.4995,129.494,4.67232,0.0,0.0
1520,379.75,72.0826,77.8986,153.294,115.943,69.0641,0.0141392,0.360821,20.5013,129.334,4.63694,0.0,0.0
1528,381.75,72.0977,77.4986,150.787,115.822,67.3638,0.0137711,0.360098,20.5035,129.164,4.85066,0.0,0.0
1536,383.75,70.9238,76.6648,151.032,115.699,66.2473,0.0134457,0.358351,20.5066,128.984,4.99072,0.0,0.0
1544,385.75,71.5466,77.4725,150.144,115.547,63.4338,0.0132703,0.355307,20.5108,128.853,5.36743,0.0,0.0
1552,387.75,71.0682,76.4793,151.657,115.462,65.063,0.0131878,0.352016,20.5188,128.743,5.13383,0.0,0.0
1560,389.75,71.6372,77.3387,150.854,115.522,67.3783,0.0131683,0.348701,20.5255,128.593,4.82552,0.0,0.0
1568,391.75,70.7818,76.1826,151.484,115.585,70.1657,0.0131434,0.346617,20.5297,128.453,4.46756,0.0,0.0
1576,393.75,71.1238,76.6654,154.296,115.682,71.7836,0.0131291,0.34507,20.5324,128.353,4.27104,0.0,0.0
1584,395.75,70.9114,76.626,151.932,115.809,65.5097,0.0130672,0.342675,20.5372,128.193,5.09946,0.0,0.0
1592,397.75,70.734,76.4618,151.553,115.911,66.9555,0.012802,0.339602,20.5433,128.063,4.91198,0.0,0.0
1600,399.75,70.855,76.1473,153.937,116.044,69.2685,0.0123657,0.336904,20.5477,127.933,4.61824,0.0,0.0
1608,401.75,70.8757,75.9509,157.716,116.142,67.7946,0.0120435,0.333988,20.5527,127.802,4.81827,0.0,0.0
1616,403.75,70.7195,75.9619,152.844,116.233,71.7944,0.0118256,0.329609,20.5617,127.672,4.31222,0.0,0.0
1624,405.75,70.6531,75.8266,155.527,116.3,70.2195,0.0116434,0.323703,20.5689,127.562,4.51593,0.0,0.0
1632,407.75,70.1719,75.4187,155.687,116.334,74.1537,0.0114699,0.321423,20.5733,127.432,4.03062,0.0,0.0
1640,409.75,70.2821,75.4966,153.425,116.359,67.92,0.0114004,0.319536,20.5759,127.292,4.81847,0.0,0.0
1648,411.75,70.0943,75.0493,159.046,116.343,74.0859,0.0114205,0.317629,20.5798,127.202,4.03953,0.0,0.0
1656,413.75,69.7712,74.4652,155.964,116.285,68.8976,0.0114335,0.314741,20.5845,127.102,4.68484,0.0,0.0
1664,415.75,69.3365,74.3371,155.217,116.181,72.67,0.0113152,0.310729,20.5925,126.962,4.19976,0.0,0.0
1672,417.75,69.3678,74.4798,157.503,116.077,73.5672,0.0111672,0.306615,20.5993,126.822,4.08187,0.0,0.0
1680,419.75,67.0424,73.8222,156.9,115.908,73.5134,0.0110214,0.303942,20.6046,126.711,4.07544,0.0,0.0
1688,421.75,68.9224,73.7266,150.513,115.723,75.651,0.0108063,0.301835,20.6079,126.601,3.80455,0.0,0.0
1696,423.75,68.5039,73.4798,154.628,115.498,73.809,0.0106127,0.298909,20.615,126.481,4.00774,0.0,0.0
1704,425.75,68.3963,73.2813,159.742,115.231,72.7781,0.0104303,0.294528,20.6229,126.381,4.11294,0.0,0.0
1712,427.75,68.1609,72.8891,154.147,114.999,72.061,0.00996724,0.291072,20.6283,126.251,4.18358,0.0,0.0
1720,429.75,68.0817,73.3584,154.992,114.744,74.2608,0.00954746,0.288683,20.6325,126.141,3.89455,0.0,0.0
1728,431.75,67.2669,70.9599,156.335,114.479,74.0574,0.00930214,0.286187,20.636,126.021,3.89841,0.0,0.0
1736,433.75,67.4334,72.3731,155.663,114.281,77.2694,0.00914878,0.283293,20.6433,125.931,3.50289,0.0,0.0
1744,435.75,66.8314,71.3769,155.309,114.103,75.7923,0.00900365,0.281422,20.6475,125.831,3.6617,0.0,0.0
1752,437.75,67.1638,71.6857,156.964,113.981,76.0219,0.00888461,0.279876,20.6522,125.72,3.62501,0.0,0.0
1760,439.75,66.0452,71.3787,156.315,113.907,78.661,0.00871862,0.277777,20.658,125.62,3.31377,0.0,0.0
1768,441.75,66.5174,70.934,160.572,113.907,78.6371,0.00847896,0.274844,20.6628,125.49,3.31652,0.0,0.0
1776,443.75,67.4118,69.8512,157.969,113.957,76.3213,0.0082075,0.27157,20.668,125.38,3.58799,0.0,0.0
1784,445.75,66.1692,70.2193,155.79,114.085,75.5074,0.00798165,0.268729,20.6743,125.31,3.69401,0.0,0.0
1792,447.75,64.642,70.7408,155.387,114.26,78.4061,0.0079334,0.265604,20.6786,125.24,3.37054,0.0,0.0
1800,449.75,64.2564,70.5565,157.254,114.454,78.4028,0.00786542,0.263951,20.6815,125.16,3.38605,0.0,0.0
1808,451.75,65.3867,70.6664,156.301,114.67,78.8022,0.00771064,0.262393,20.6849,125,3.35743,0.0,0.0
1816,453.75,64.8127,69.1013,157.623,114.89,81.5854,0.00748556,0.25987,20.6884,124.86,3.06394,0.0,0.0
1824,455.75,64.7531,68.521,156.152,115.104,82.4231,0.00725597,0.25729,20.6915,124.86,2.9892,0.0,0.0
1832,457.75,64.6414,68.6382,158.681,115.291,81.5358,0.00704485,0.254517,20.696,124.78,3.1006,0.0,0.0
1840,459.75,64.5162,68.478,158.353,115.444,82.3291,0.00694365,0.252484,20.7012,124.659,3.02583,0.0,0.0
1848,461.75,64.2739,69.6131,156.393,115.519,80.0044,0.00686959,0.250187,20.7059,124.559,3.28799,0.0,0.0
1856,463.75,64.1069,67.9164,154.305,115.56,81.9282,0.00660942,0.247145,20.7111,124.469,3.07846,0.0,0.0
1864,465.75,64.1643,67.6774,157.434,115.565,83.4049,0.00628503,0.244156,20.7167,124.399,2.919,0.0,0.0
1872,467.75,63.5941,67.379,158.783,115.58,82.5391,0.00613094,0.241909,20.7205,124.319,3.01356,0.0,0.0
1880,469.75,63.4258,67.1581,151.168,115.537,81.8417,0.00607912,0.239804,20.724,124.259,3.08618,0.0,0.0
1888,471.75,63.243,66.9096,156.712,115.469,85.7147,0.00592279,0.238109,20.7275,124.169,2.66701,0.0,0.0
1896,473.75,63.0417,66.7157,156.465,115.368,84.5533,0.00578783,0.236125,20.7306,124.059,2.78133,0.0,0.0
1904,475.75,62.7235,66.4991,159.747,115.282,86.4168,0.00580091,0.234079,20.7355,123.989,2.57953,0.0,0.0
1912,477.75,62.7026,65.8648,160.077,115.249,84.5818,0.0057338,0.231439,20.7394,123.909,2.76902,0.0,0.0
1920,479.75,62.3853,65.7166,159.089,115.665,85.7156,0.00547382,0.229976,20.7447,123.819,2.68215,0.0,0.0
1928,481.75,61.2842,64.918,160.858,115.949,86.6586,0.00529646,0.227527,20.7501,123.749,2.60611,0.0,0.0
1936,483.75,61.7189,65.6452,162.1,116.117,88.0591,0.00526015,0.225698,20.7536,123.648,2.4756,0.0,0.0
1944,485.75,61.2379,64.1863,159.185,116.168,87.6652,0.00518953,0.223657,20.7588,123.598,2.51964,0.0,0.0
1952,487.75,61.8767,64.8782,163.373,116.059,89.3309,0.00509099,0.221214,20.7627,123.518,2.34282,0.0,0.0
1960,489.75,60.4678,63.7414,158.512,115.835,89.4179,0.00500338,0.218749,20.7662,123.458,2.31676,0.0,0.0
1968,491.75,61.46,64.522,156.927,115.483,89.5545,0.00487205,0.217236,20.7701,123.398,2.27586,0.0,0.0
1976,493.75,60.3751,63.59,159.914,115.532,89.6274,0.00470562,0.216001,20.7726,123.318,2.27238,0.0,0.0
1984,495.75,60.488,63.9442,157.417,115.692,88.5577,0.00453938,0.215217,20.774,123.218,2.39226,0.0,0.0
1992,497.75,60.2016,62.9767,159.257,115.878,90.5162,0.00438257,0.214435,20.7759,123.158,2.21085,0.0,0.0
2000,499.75,60.0754,63.3426,165.365,116.043,92.354,0.00411611,0.212307,20.7791,123.108,2.04364,0.0,0.0
2008,501.75,60.1857,63.3015,162.397,116.204,90.359,0.00390363,0.209804,20.7826,123.068,2.25152,0.0,0.0
2016,503.75,59.657,62.8615,159.107,116.304,91.3576,0.00379209,0.208124,20.7848,122.988,2.16088,0.0,0.0
2024,505.75,59.7778,62.6739,156.563,116.337,92.8184,0.00376482,0.206492,20.7886,122.928,2.02145,0.0,0.0
2032,507.75,59.6049,62.5878,156.73,116.31,90.7594,0.00382408,0.205006,20.7909,122.848,2.22015,0.0,0.0
2040,509.75,59.3479,62.2429,162.392,116.191,90.9596,0.00384764,0.204258,20.7933,122.788,2.19122,0.0,0.0
2048,511.75,59.2073,62.051,156.451,116.007,91.9545,0.00372682,0.202621,20.7969,122.748,2.07973,0.0,0.0
2056,513.75,58.9327,61.4477,158.215,115.757,92.1435,0.00357168,0.200936,20.8003,122.688,2.04205,0.0,0.0
2064,515.75,58.6605,62.0617,164.059,115.462,93.1024,0.00337692,0.199523,20.8037,122.618,1.92652,0.0,0.0
2072,517.75,58.633,62.1501,158.438,115.133,93.528,0.00322328,0.197658,20.8066,122.537,1.86012,0.0,0.0
2080,519.75,58.3844,61.0584,161.392,114.792,93.8522,0.00311751,0.196307,20.8091,122.517,1.80263,0.0,0.0
2088,521.75,58.2664,60.7716,160.648,114.472,92.2992,0.00302207,0.194915,20.8114,122.437,1.92698,0.0,0.0
2096,523.75,57.8441,60.8524,160.529,114.193,94.529,0.00299401,0.193479,20.8132,122.387,1.69148,0.0,0.0
2104,525.75,57.9506,60.4899,160.54,114.005,95.0173,0.00299307,0.192444,20.8163,122.317,1.63059,0.0,0.0
2112,527.75,57.6699,60.1081,158.752,113.949,93.9626,0.00297687,0.191321,20.8189,122.247,1.7261,0.0,0.0
2120,529.75,57.6306,60.1702,163.517,113.944,94.5271,0.00295452,0.190168,20.8212,122.207,1.67211,0.0,0.0
2128,531.75,56.8896,60.1738,163.06,114.033,94.7671,0.00291796,0.189043,20.8232,122.157,1.65639,0.0,0.0
2136,533.75,57.2756,59.8038,161.34,114.21,96.4819,0.00286067,0.187706,20.8265,122.137,1.50978,0.0,0.0
2144,535.75,57.1201,59.2427,159.73,114.414,96.7981,0.0027943,0.185994,20.829,122.077,1.49652,0.0,0.0
2152,537.75,56.8591,59.3026,158.913,114.686,96.459,0.00278373,0.184788,20.8309,122.007,1.54914,0.0,0.0
2160,539.75,56.4966,59.0021,163.015,114.945,96.6264,0.00281185,0.183975,20.8322,121.967,1.55384,0.0,0.0
2168,541.75,56.2637,59.0049,162.093,115.179,97.6639,0.00271692,0.183115,20.8346,121.887,1.47642,0.0,0.0
2176,543.75,56.063,59.0779,164.009,115.373,96.5464,0.00251668,0.181541,20.8367,121.827,1.59448,0.0,0.0
2184,545.75,56.5087,59.0806,160.549,115.491,97.3224,0.00237566,0.17997,20.8397,121.817,1.53196,0.0,0.0
2192,547.75,56.1908,58.7027,157.659,115.543,97.7892,0.00239984,0.178721,20.8417,121.777,1.49322,0.0,0.0
2200,549.75,56.0339,58.6902,165.727,115.515,98.815,0.0024204,0.1777,20.8444,121.737,1.39762,0.0,0.0
2208,551.75,55.9441,57.9104,162.738,115.5,99.5251,0.00230137,0.176571,20.8469,121.687,1.33237,0.0,0.0
2216,553.75,55.6352,58.2933,162.215,115.449,98.3772,0.00219244,0.175411,20.8498,121.627,1.43222,0.0,0.0
2224,555.75,55.5802,58.0885,164.905,115.359,99.65,0.00220291,0.17425,20.8524,121.587,1.3102,0.0,0.0
2232,557.75,54.9246,57.2652,164.259,115.269,99.2659,0.00219572,0.172674,20.8556,121.546,1.33776,0.0,0.0
2240,559.75,55.3877,57.5827,159.909,115.201,100.296,0.0021627,0.171341,20.8584,121.506,1.24007,0.0,0.0
2248,561.75,54.9343,57.5166,159.327,115.309,100.463,0.00210052,0.170577,20.8596,121.456,1.23364,0.0,0.0
2256,563.75,54.7308,57.094,161.071,115.73,101.216,0.00194761,0.169716,20.8613,121.416,1.19937,0.0,0.0
2264,565.75,54.8445,56.9796,162.606,115.997,100.571,0.00175205,0.16909,20.8622,121.376,1.27725,0.0,0.0
2272,567.75,54.7603,56.922,163.677,116.105,102.013,0.00167559,0.168829,20.8625,121.366,1.15819,0.0,0.0
2280,569.75,54.4616,56.6411,163.99,116.077,101.663,0.00169203,0.168049,20.8645,121.266,1.18674,0.0,0.0
2288,571.75,54.3421,56.4114,161.472,115.905,102.039,0.00174231,0.167007,20.8665,121.266,1.14046,0.0,0.0
2296,573.75,54.2619,56.2533,166.123,115.585,101.497,0.00176821,0.166017,20.8674,121.186,1.16339,0.0,0.0
2304,575.75,54.215,55.9429,162.32,115.486,102.176,0.00175163,0.165101,20.8685,121.136,1.09598,0.0,0.0
2312,577.75,54.1301,55.0333,162.103,115.657,102.304,0.00168116,0.164053,20.8708,121.126,1.09812,0.0,0.0
2320,579.75,53.7138,56.1106,160.565,115.86,102.897,0.00152169,0.162462,20.8729,121.076,1.06202,0.0,0.0
2328,581.75,53.9846,55.3093,166.625,116.087,102.965,0.00135699,0.161392,20.8742,121.016,1.07365,0.0,0.0
2336,583.75,53.13,55.2341,167.566,116.242,102.759,0.00135197,0.160945,20.8755,121.006,1.10348,0.0,0.0
2344,585.75,53.057,55.4284,163.819,116.312,102.879,0.0014209,0.160433,20.8765,120.966,1.09841,0.0,0.0
2352,587.75,52.5866,54.6706,165.396,116.321,104.218,0.00146246,0.159492,20.878,120.936,0.983334,0.0,0.0
2360,589.75,52.9525,55.1442,166.208,116.232,104.799,0.00148632,0.158195,20.88,120.856,0.926825,0.0,0.0
2368,591.75,52.3687,54.4883,164.332,116.04,103.184,0.00150402,0.156861,20.8816,120.826,1.051,0.0,0.0
2376,593.75,52.8023,55.0206,167.928,115.749,103.178,0.00150573,0.155706,20.8827,120.776,1.02904,0.0,0.0
2384,595.75,52.6235,54.5562,163.977,115.41,102.266,0.00153181,0.154942,20.8854,120.736,1.08221,0.0,0.0
2392,597.75,52.3852,54.2518,160.529,115.057,103.17,0.00162626,0.154049,20.8878,120.736,0.976022,0.0,0.0
2400,599.75,51.9421,54.3898,166.841,114.714,102.949,0.00169168,0.153366,20.8891,120.676,0.96847,0.0,0.0
2408,601.75,52.1792,54.3231,164.284,114.383,103.182,0.00168046,0.153158,20.8897,120.636,0.922389,0.0,0.0
2416,603.75,52.1097,54.0975,165.063,114.142,102.37,0.0016565,0.152584,20.8916,120.636,0.974295,0.0,0.0
2424,605.75,52.1706,53.5024,164.452,113.996,104.117,0.00163815,0.151827,20.8937,120.596,0.811358,0.0,0.0
2432,607.75,52.0302,53.6231,160.998,113.979,103.696,0.0015902,0.150776,20.8956,120.505,0.846259,0.0,0.0
2440,609.75,51.5183,53.2724,161.874,114.043,103.626,0.00151038,0.149594,20.8983,120.495,0.857384,0.0,0.0
2448,611.75,51.6054,53.6085,167.307,114.217,103.42,0.00138564,0.148274,20.9004,120.485,0.888852,0.0,0.0
2456,613.75,51.1726,53.1202,161.274,114.471,104.626,0.001276,0.14735,20.9016,120.445,0.804839,0.0,0.0
2464,615.75,51.5398,53.2748,162.829,114.732,103.626,0.00123802,0.146927,20.9026,120.395,0.911244,0.0,0.0
2472,617.75,51.066,53.4179,161.714,115.014,105.026,0.00128806,0.146184,20.9039,120.415,0.813121,0.0,0.0
2480,619.75,50.6807,52.3377,166.084,115.236,103.892,0.00135893,0.144938,20.9051,120.335,0.927494,0.0,0.0
2488,621.75,50.9561,52.7403,165.82,115.42,106.156,0.00150654,0.144078,20.9056,120.325,0.748838,0.0,0.0
2496,623.75,51.1155,52.5086,164.963,115.529,105.325,0.00159607,0.144023,20.9059,120.315,0.827674,0.0,0.0
2504,625.75,50.3346,52.4188,166.661,115.559,105.471,0.00144147,0.143905,20.9062,120.235,0.817594,0.0,0.0
2512,627.75,50.8054,52.4866,161.402,115.497,105.837,0.00134004,0.143082,20.9073,120.225,0.781753,0.0,0.0
2520,629.75,49.8667,52.3454,165.354,115.438,105.348,0.00140307,0.142175,20.909,120.185,0.818625,0.0,0.0
2528,631.75,50.3419,52.14,164.838,115.357,104.505,0.00148908,0.141784,20.9106,120.145,0.884331,0.0,0.0
2536,633.75,49.4942,51.0902,168.861,115.273,106.587,0.00146977,0.14101,20.912,120.115,0.701203,0.0,0.0
2544,635.75,50.2629,51.3865,164.679,115.17,105.223,0.00147933,0.140126,20.913,120.085,0.80842,0.0,0.0
2552,637.75,50.0696,51.735,160.844,115.184,104.825,0.0015082,0.139298,20.9143,120.065,0.843433,0.0,0.0
2560,639.75,49.8397,51.4906,167.806,115.609,105.785,0.00143598,0.138291,20.9167,120.055,0.794831,0.0,0.0
2568,641.75,49.6806,51.6771,167.029,115.911,106.521,0.00138504,0.137638,20.9176,120.005,0.756136,0.0,0.0
2576,643.75,49.7248,51.2475,162.935,116.061,107.1,0.00139686,0.137012,20.9178,119.955,0.719187,0.0,0.0
2584,645.75,49.5516,51.2355,166.201,116.098,106.845,0.00140368,0.136627,20.9186,119.945,0.743324,0.0,0.0
2592,647.75,49.1787,50.7934,160.16,115.985,106.977,0.0013854,0.136511,20.9193,119.925,0.72363,0.0,0.0
2600,649.75,49.4446,50.8731,165.175,115.787,106.67,0.00141445,0.136158,20.9208,119.895,0.734041,0.0,0.0
2608,651.75,49.4589,50.6615,165.515,115.472,106.126,0.00142982,0.135484,20.9215,119.845,0.755463,0.0,0.0
2616,653.75,49.4136,50.4774,166.686,115.506,105.572,0.00144655,0.134577,20.9228,119.825,0.804861,0.0,0.0
2624,655.75,49.3938,50.7486,163.722,115.65,106.394,0.00150657,0.133949,20.9237,119.785,0.746712,0.0,0.0
2632,657.75,48.9726,50.5257,164.263,115.813,106.362,0.00157574,0.133809,20.9241,119.765,0.761925,0.0,0.0
2640,659.75,48.8306,50.2922,166.453,116.003,106.482,0.00168876,0.133717,20.9243,119.755,0.766467,0.0,0.0
2648,661.75,48.1005,49.4793,164.946,116.152,106.993,0.00185296,0.133059,20.9256,119.725,0.735165,0.0,0.0
2656,663.75,48.7034,50.1283,165.435,116.268,107.076,0.00203588,0.132228,20.9263,119.655,0.737131,0.0,0.0
2664,665.75,47.675,49.654,168.271,116.327,107.788,0.00212053,0.131851,20.9285,119.685,0.682387,0.0,0.0
2672,667.75,48.3861,50.0979,165.662,116.343,107.505,0.00206733,0.131704,20.9304,119.635,0.707139,0.0,0.0
2680,669.75,47.7426,49.206,163.237,116.298,107.995,0.00195729,0.131119,20.9319,119.595,0.662969,0.0,0.0
2688,671.75,48.1738,49.5029,168.744,116.196,107.582,0.00191192,0.130235,20.9333,119.555,0.689459,0.0,0.0
2696,673.75,48.1441,49.6831,165.695,116.064,107.274,0.00199209,0.12939,20.9346,119.555,0.704945,0.0,0.0
2704,675.75,48.1484,49.7778,165.365,115.874,106.715,0.00200408,0.129121,20.9352,119.545,0.73699,0.0,0.0
2712,677.75,48.2636,49.5927,169.051,115.682,106.341,0.00206185,0.12895,20.9355,119.535,0.753619,0.0,0.0
2720,679.75,47.6763,49.056,163.3,115.463,107.064,0.00223304,0.12889,20.9356,119.475,0.67595,0.0,0.0
2728,681.75,47.79,49.2821,165.295,115.251,105.598,0.00238538,0.128867,20.9356,119.454,0.782924,0.0,0.0
2736,683.75,47.4926,48.957,167.597,115.039,105.857,0.00248607,0.128972,20.9356,119.424,0.744495,0.0,0.0
2744,685.75,47.4356,48.8156,169.48,114.838,105.585,0.00254026,0.128635,20.9356,119.404,0.751895,0.0,0.0
2752,687.75,47.5251,48.6744,165.054,114.638,106.54,0.00264466,0.127834,20.9367,119.364,0.655689,0.0,0.0
2760,689.75,47.467,48.6387,164.264,114.468,105.766,0.00286629,0.127048,20.9374,119.354,0.707631,0.0,0.0
2768,691.75,47.4171,48.4911,163.935,114.321,105.663,0.00301717,0.12655,20.9391,119.324,0.704903,0.0,0.0
2776,693.75,47.2392,48.7127,162.9,114.202,105.308,0.00301613,0.126481,20.9398,119.324,0.725729,0.0,0.0
2784,695.75,46.2998,47.6344,169.146,114.116,105.698,0.00294334,0.126315,20.9401,119.294,0.685932,0.0,0.0
2792,697.75,46.7257,48.1063,161.896,114.055,105.245,0.00292401,0.126246,20.9402,119.264,0.719554,0.0,0.0
2800,699.75,46.7157,48.7621,167.753,114.017,105.394,0.00297289,0.126329,20.9402,119.204,0.703826,0.0,0.0
2808,701.75,46.6167,47.3876,165.582,114.014,105.203,0.00305855,0.126545,20.9403,119.204,0.719867,0.0,0.0
2816,703.75,46.6446,48.1394,166.006,114.014,105.578,0.00311742,0.12633,20.9411,119.154,0.688085,0.0,0.0
2824,705.75,45.8425,47.5149,166.587,114.035,105.932,0.00317767,0.12578,20.9424,119.134,0.659731,0.0,0.0
2832,707.75,46.4104,48.3712,163.614,114.063,106.157,0.00326075,0.125188,20.9439,119.114,0.642939,0.0,0.0
2840,709.75,46.2775,47.5062,165.644,114.113,105.602,0.00331784,0.12482,20.9445,119.104,0.693763,0.0,0.0
2848,711.75,46.4767,47.9627,167.32,114.156,105.576,0.00338904,0.124334,20.9441,119.094,0.699388,0.0,0.0
2856,713.75,46.251,47.5139,165.536,114.209,105.815,0.00350186,0.123537,20.9438,119.064,0.683211,0.0,0.0
2864,715.75,46.317,47.4184,162.134,114.262,106.061,0.00356869,0.123302,20.9448,119.034,0.6666,0.0,0.0
2872,717.75,46.4675,47.1945,167.472,114.32,106.207,0.00356794,0.123066,20.9453,118.984,0.658828,0.0,0.0
2880,719.75,46.2243,47.5139,167.169,114.385,106.372,0.00352872,0.122628,20.9455,118.994,0.650011,0.0,0.0
2888,721.75,46.1892,47.0969,166.205,114.434,107.321,0.00355713,0.122181,20.9455,118.964,0.574422,0.0,0.0
2896,723.75,46.1336,46.8948,166.398,114.48,106.264,0.00371361,0.121526,20.9467,118.944,0.666563,0.0,0.0
2904,725.75,46.2265,47.1343,168.263,114.527,106.586,0.00385311,0.120693,20.9474,118.924,0.643148,0.0,0.0
2912,727.75,45.5576,47.1007,166.622,114.567,106.728,0.0039011,0.120045,20.9481,118.904,0.634395,0.0,0.0
2920,729.75,46.0565,46.8606,166.744,114.598,106.581,0.00387929,0.119686,20.9492,118.844,0.64917,0.0,0.0
2928,731.75,45.7,46.6198,167.194,114.614,106.487,0.00380638,0.119171,20.9506,118.834,0.658308,0.0,0.0
2936,733.75,45.4549,46.6918,167.833,114.648,106.831,0.00379165,0.118493,20.9521,118.834,0.632082,0.0,0.0
2944,735.75,45.1259,46.132,169.561,114.667,107.059,0.00384427,0.117709,20.9538,118.784,0.614437,0.0,0.0
2952,737.75,45.2458,46.3199,164.728,114.7,107.946,0.00393778,0.116891,20.9554,118.774,0.543227,0.0,0.0
2960,739.75,45.0867,46.047,167.726,114.715,106.093,0.00407149,0.116566,20.9561,118.754,0.69935,0.0,0.0
2968,741.75,44.9546,46.0645,164.903,114.738,107.189,0.00425546,0.116664,20.9564,118.714,0.609155,0.0,0.0
2976,743.75,44.8743,46.0095,168.279,114.749,107.625,0.00439261,0.116158,20.9571,118.704,0.573738,0.0,0.0
2984,745.75,44.9827,45.7386,167.998,114.748,107.044,0.00440106,0.115108,20.9581,118.674,0.622074,0.0,0.0
2992,747.75,44.7184,45.8996,169.08,114.759,106.708,0.00448406,0.114125,20.9586,118.624,0.650998,0.0,0.0
3000,749.75,44.8976,45.7424,168.571,114.753,107.391,0.00468357,0.113641,20.9588,118.604,0.593462,0.0,0.0
3008,751.75,44.5435,45.8228,165.421,114.749,106.506,0.00487696,0.113903,20.9588,118.624,0.667237,0.0,0.0
3016,753.75,44.2079,45.6668,166.765,114.751,106.752,0.00510325,0.113576,20.9593,118.624,0.646767,0.0,0.0
3024,755.75,44.3604,45.8369,170.093,114.728,106.996,0.00536429,0.112341,20.9612,118.574,0.624421,0.0,0.0
3032,757.75,44.1217,45.9496,171.427,114.723,106.624,0.00556789,0.111325,20.9629,118.494,0.655293,0.0,0.0
3040,759.75,43.832,44.6238,166.945,114.698,107.459,0.0055451,0.111436,20.9637,118.484,0.583509,0.0,0.0
3048,761.75,44.4801,45.3682,167.101,114.688,107.111,0.00541933,0.111726,20.964,118.504,0.611776,0.0,0.0
3056,763.75,43.5575,44.5882,168.941,114.661,108.354,0.00534277,0.111795,20.9641,118.464,0.506405,0.0,0.0
3064,765.75,44.3222,44.607,171.138,114.613,107.113,0.00541097,0.111707,20.9642,118.454,0.605671,0.0,0.0
3072,767.75,42.9212,44.643,164.984,114.585,107.353,0.00566307,0.111281,20.9653,118.444,0.583489,0.0,0.0
3080,769.75,44.2623,45.0438,164.132,114.539,107.79,0.00597271,0.109946,20.967,118.434,0.543561,0.0,0.0
3088,771.75,42.7919,44.1745,165.853,114.5,106.525,0.00638665,0.108026,20.9689,118.403,0.646177,0.0,0.0
3096,773.75,43.4131,44.5317,165.366,114.451,106.765,0.00670688,0.10666,20.9702,118.393,0.622199,0.0,0.0
3104,775.75,43.3472,44.7847,166.06,114.396,106.458,0.00681089,0.106372,20.9708,118.363,0.643688,0.0,0.0
3112,777.75,43.3071,44.4882,168.734,114.368,106.975,0.00667231,0.106589,20.971,118.313,0.598105,0.0,0.0
3120,779.75,43.515,44.2302,164.854,114.319,107.283,0.006519,0.1062,20.972,118.333,0.568547,0.0,0.0
3128,781.75,42.9923,44.3976,166.648,114.291,107.371,0.00637483,0.105845,20.9704,118.293,0.559021,0.0,0.0
3136,783.75,43.2327,44.5281,167.47,114.232,106.748,0.00641266,0.106283,20.9711,118.263,0.606533,0.0,0.0
3144,785.75,42.7989,44.5574,168.144,114.198,107.743,0.00653181,0.106096,20.9714,118.243,0.520749,0.0,0.0
3152,787.75,43.0532,44.0996,169.471,114.153,106.9,0.00661246,0.105602,20.9715,118.233,0.587607,0.0,0.0
3160,789.75,42.8495,43.7921,165.984,114.119,107.144,0.00675123,0.105154,20.9715,118.193,0.564472,0.0,0.0
3168,791.75,42.6344,43.7745,171.948,114.085,105.727,0.00699013,0.104596,20.9716,118.163,0.680906,0.0,0.0
3176,793.75,42.849,43.7026,167.123,114.057,107.5,0.00720669,0.103817,20.9716,118.193,0.529986,0.0,0.0
3184,795.75,42.7387,43.5329,171.205,114.03,107.207,0.00734921,0.103322,20.9716,118.163,0.552235,0.0,0.0
3192,797.75,43.0175,43.6854,170.822,114.004,106.657,0.00741963,0.103615,20.9716,118.113,0.596184,0.0,0.0
3200,799.75,42.632,43.4248,170.996,114.003,106.683,0.00740494,0.103894,20.9718,118.113,0.593988,0.0,0.0
3208,801.75,42.4533,43.5564,168.023,113.977,107.527,0.00736466,0.103712,20.9729,118.093,0.521381,0.0,0.0
3216,803.75,42.6482,42.8828,166.317,113.972,107.178,0.00730999,0.103574,20.9737,118.083,0.550068,0.0,0.0
3224,805.75,42.1594,43.0357,172.882,113.976,106.896,0.00721573,0.103469,20.9742,118.043,0.573984,0.0,0.0
3232,807.75,42.5917,43.1783,169.9,113.989,107.137,0.00723067,0.103318,20.9752,118.033,0.554827,0.0,0.0
3240,809.75,42.0016,43.316,170.403,114.002,108.142,0.00746559,0.10271,20.9762,118.013,0.472345,0.0,0.0
3248,811.75,41.9459,42.5817,172.795,114.023,107.331,0.00773973,0.102231,20.9778,117.993,0.541378,0.0,0.0
3256,813.75,41.8113,42.7948,166.263,114.057,107.581,0.00794529,0.101785,20.979,117.943,0.523211,0.0,0.0
3264,815.75,41.8213,42.7691,170.913,114.087,107.432,0.00808303,0.101412,20.9789,117.943,0.537942,0.0,0.0
3272,817.75,42.0294,42.8019,165.851,114.109,107.329,0.00816662,0.101407,20.9782,117.903,0.54832,0.0,0.0
3280,819.75,41.2988,42.1712,173.379,114.147,107.565,0.00816892,0.101509,20.978,117.893,0.531575,0.0,0.0
3288,821.75,41.6658,42.4132,170.984,114.187,107.625,0.00826248,0.101649,20.9778,117.873,0.529782,0.0,0.0
3296,823.75,41.5449,42.75,170.85,114.253,107.751,0.00838553,0.101867,20.9776,117.883,0.524411,0.0,0.0
3304,825.75,41.631,42.6221,164.5,114.297,108.208,0.00841843,0.102512,20.977,117.863,0.489934,0.0,0.0
3312,827.75,41.4072,42.4104,167.558,114.357,108.357,0.00841926,0.102834,20.976,117.843,0.482394,0.0,0.0
3320,829.75,40.8159,41.5844,169.074,114.424,108.464,0.00833626,0.10268,20.9755,117.813,0.478817,0.0,0.0
3328,831.75,40.8333,41.7624,167.925,114.484,108.333,0.00828425,0.102148,20.9754,117.793,0.494309,0.0,0.0
3336,833.75,40.1471,40.7535,170.402,114.563,108.52,0.00831186,0.101996,20.9753,117.753,0.484998,0.0,0.0
3344,835.75,40.8181,41.3547,168.292,114.627,107.555,0.00834581,0.101797,20.9752,117.733,0.569906,0.0,0.0
3352,837.75,40.7278,41.6167,166.237,114.702,108.373,0.00829079,0.101384,20.9763,117.733,0.508031,0.0,0.0
3360,839.75,40.2885,41.8999,166.688,114.781,106.965,0.00817314,0.100882,20.977,117.723,0.631236,0.0,0.0
3368,841.75,40.2047,41.3139,167.261,114.856,108.135,0.00810895,0.100408,20.9784,117.723,0.539667,0.0,0.0
3376,843.75,40.3808,41.4229,169.323,114.922,108.541,0.00809696,0.100031,20.9792,117.643,0.511293,0.0,0.0
3384,845.75,40.5593,41.4424,162.92,114.993,108.834,0.00812774,0.0996176,20.9796,117.643,0.492674,0.0,0.0
3392,847.75,40.0905,41.0912,171.112,115.07,107.821,0.0080536,0.0989114,20.9802,117.603,0.582385,0.0,0.0
3400,849.75,40.2114,40.717,171.84,115.147,109.017,0.00800625,0.09788,20.9831,117.603,0.489641,0.0,0.0
3408,851.75,40.0774,41.2952,168.188,115.222,108.912,0.0080271,0.0970812,20.9842,117.603,0.504056,0.0,0.0
3416,853.75,39.7172,40.7495,171.174,115.288,109.056,0.00799851,0.0965999,20.984,117.563,0.497379,0.0,0.0
3424,855.75,40.634,41.1589,166.96,115.377,109.364,0.00791471,0.0962741,20.9849,117.573,0.479044,0.0,0.0
3432,857.75,38.9409,39.8216,170.138,115.444,108.866,0.00793245,0.0960089,20.9856,117.563,0.525089,0.0,0.0
3440,859.75,40.0177,40.9354,167.739,115.5,108.313,0.00806763,0.0958393,20.9859,117.543,0.575045,0.0,0.0
3448,861.75,40.2593,40.881,172.299,115.579,109.837,0.00819412,0.095859,20.9861,117.503,0.456108,0.0,0.0
3456,863.75,40.1317,40.7713,168.975,115.65,109.46,0.00826072,0.0957922,20.9861,117.493,0.492309,0.0,0.0
3464,865.75,39.3251,40.7104,164.266,115.735,109.456,0.00825454,0.0957975,20.9862,117.483,0.499231,0.0,0.0
3472,867.75,40.0622,40.7628,171.286,115.822,109.849,0.00828561,0.0955901,20.9875,117.453,0.473917,0.0,0.0
3480,869.75,39.5407,41.3537,168.559,115.864,109.842,0.00838885,0.0950606,20.9881,117.423,0.477663,0.0,0.0
3488,871.75,39.5317,40.402,172.898,115.936,109.218,0.00845154,0.0950212,20.9883,117.413,0.534321,0.0,0.0
3496,873.75,39.3881,40.2928,171.382,115.988,109.489,0.00863623,0.0951185,20.9884,117.423,0.51612,0.0,0.0
3504,875.75,39.1231,40.1976,174.272,116.047,110.061,0.0089129,0.094469,20.9888,117.403,0.474019,0.0,0.0
3512,877.75,39.6505,40.7945,169.778,116.087,109.486,0.00910697,0.0937849,20.9905,117.362,0.524029,0.0,0.0
3520,879.75,39.6669,40.5953,169.606,116.159,109.297,0.00924373,0.0933304,20.9912,117.352,0.545038,0.0,0.0
3528,881.75,39.2954,40.526,170.01,116.204,109.938,0.00935813,0.0931456,20.9921,117.342,0.496133,0.0,0.0
3536,883.75,39.6398,41.0649,170.301,116.234,110.335,0.00933697,0.092925,20.9932,117.332,0.466164,0.0,0.0
3544,885.75,39.3889,39.8681,165.743,116.26,109.769,0.00914545,0.0930865,20.9937,117.312,0.514209,0.0,0.0
3552,887.75,39.0813,39.8449,172.564,116.287,109.328,0.0088716,0.0930845,20.9921,117.282,0.552331,0.0,0.0
3560,889.75,39.6927,40.2983,171.97,116.307,110.585,0.00880135,0.0930723,20.9914,117.252,0.451608,0.0,0.0
3568,891.75,39.1705,39.6885,173.738,116.333,110.625,0.00891949,0.0932579,20.9911,117.222,0.450329,0.0,0.0
3576,893.75,39.2476,40.6984,166.882,116.329,110.028,0.00910935,0.0930919,20.992,117.272,0.498425,0.0,0.0
3584,895.75,38.8863,39.833,171.093,116.339,110.121,0.00918728,0.0927056,20.9927,117.242,0.49165,0.0,0.0
3592,897.75,39.1076,39.9056,168.25,116.336,110.202,0.00907874,0.0922569,20.993,117.192,0.484897,0.0,0.0
3600,899.75,38.9414,39.9061,175.279,116.334,110.111,0.00899088,0.092183,20.9923,117.182,0.492055,0.0,0.0
3608,901.75,39.0509,40.0394,170.491,116.315,110.736,0.00912152,0.0923648,20.9915,117.172,0.439925,0.0,0.0
3616,903.75,37.8854,39.9822,169.975,116.293,109.698,0.00929444,0.092627,20.9919,117.142,0.522527,0.0,0.0
3624,905.75,39.0447,39.9291,170.237,116.266,109.901,0.00942317,0.0923974,20.9926,117.092,0.503889,0.0,0.0
3632,907.75,38.3091,39.493,170.207,116.246,109.782,0.00943318,0.0921179,20.9929,117.122,0.512098,0.0,0.0
3640,909.75,38.8479,39.1219,169.797,116.2,109.723,0.00922068,0.091931,20.994,117.082,0.513268,0.0,0.0
3648,911.75,38.847,39.7909,170.973,116.154,109.865,0.00891717,0.0918531,20.9949,117.072,0.498224,0.0,0.0
3656,913.75,38.0731,39.433,171.119,116.096,110.238,0.00859715,0.0918587,20.9952,117.042,0.463474,0.0,0.0
3664,915.75,38.8646,40.0242,169.272,116.038,109.979,0.00847869,0.0917286,20.9954,117.062,0.479995,0.0,0.0
3672,917.75,38.4102,39.5971,170.588,115.972,110.02,0.0085642,0.0915829,20.9955,117.012,0.471563,0.0,0.0
3680,919.75,38.7231,39.2235,170.222,115.911,111.34,0.00865604,0.0911642,20.9955,117.012,0.36009,0.0,0.0
3688,921.75,38.9369,39.6009,169.088,115.835,109.932,0.00869866,0.0906728,20.9955,117.012,0.468147,0.0,0.0
3696,923.75,38.5929,39.7931,166.517,115.756,109.912,0.00878002,0.0905783,20.9955,116.962,0.463641,0.0,0.0
3704,925.75,38.8363,39.3337,170.558,115.696,108.375,0.00887962,0.0904699,20.9955,116.952,0.585102,0.0,0.0
3712,927.75,38.8078,38.8972,170.613,115.628,109.405,0.00881516,0.0899401,20.9966,116.952,0.495158,0.0,0.0
3720,929.75,38.7861,39.9802,167.058,115.55,109.97,0.00867125,0.0896896,20.9973,116.922,0.443045,0.0,0.0
3728,931.75,38.3826,39.1616,172.237,115.501,109.806,0.00859656,0.0897436,20.9976,116.912,0.452578,0.0,0.0
3736,933.75,38.3706,38.8518,170.725,115.467,110.133,0.00877709,0.0899889,20.9965,116.902,0.423325,0.0,0.0
3744,935.75,37.5886,38.4436,171.375,115.427,109.998,0.00896737,0.0904297,20.9953,116.872,0.431164,0.0,0.0
3752,937.75,38.178,39.1865,166.241,115.594,108.955,0.00891238,0.0910114,20.9941,116.822,0.529443,0.0,0.0
3760,939.75,37.3343,38.5006,163.319,115.738,110.322,,0.0911983,,116.862,0.429001,0.0,0.0
3768,941.75,37.0657,39.3534,173.68,115.856,110.501,,,,116.812,0.423507,0.0,0.0
3776,943.75,37.6185,38.4809,170.967,115.956,110.387,,,,116.832,0.440478,0.0,0.0
3784,945.75,38.1251,38.9579,169.352,116.022,110.249,,,,116.782,0.456794,0.0,0.0
3792,947.75,37.4036,38.8655,166.075,116.076,110.278,,,,116.772,0.45866,0.0,0.0
3796,948.75,38.3431,39.2532,168.779,116.084,110.29,,,,116.732,0.458284,0.0,0.0