File: 01_Data/EPDM_Membrane/Cone/EPDM_Membrane_Cone_HF75Scan_220225_R3.csv
Names,Time,Stack TC,Smoke TC,Exh Press,Smoke Comp,Smoke Meas,CO Meter,CO2 Meter,O2 Meter,Sample Mass,Ext Coeff,Start Test,Flame Verif
Chan Gain,,500,500,1,1,1,1,1,1,1,1,1.0,1.0
Offset,,0,0,0.13378,0,0,0,0,0,0,0,0.0,0.0
Gain,,1,1,25.011,14.4955,14.6297,1,1,1,1.00092,1.00831,1.0,1.0
Units,sec,C,C,Pa,%,%,%,%,%,g,/m,,
Baseline,,37.5667,39.4508,167.433,108.817,103.597,-0.00171175,0.0391671,21.0615,-945.816,0.434909,,
6,1.25,36.7269,38.5538,168.438,107.384,103.178,-0.00178063,0.0447794,21.0582,82.2152,0.353403,0.0,0.0
12,2.75,36.101,38.4709,167.351,107.434,102.669,-0.00172304,0.0440667,21.0586,82.2553,0.40122,0.0,0.0
18,4.25,36.436,38.3596,168.483,107.494,102.835,-0.00173195,0.0437414,21.0588,82.2553,0.391877,0.0,0.0
24,5.75,36.5298,38.6877,166.955,107.537,101.385,-0.00179813,0.0436105,21.0589,82.2252,0.521015,0.0,0.0
30,7.25,36.1257,37.4704,166.969,107.609,101.507,-0.00186599,0.0434248,21.0585,82.1852,0.51632,0.0,0.0
36,8.75,36.0553,38.7132,166.729,107.687,99.7294,-0.00182186,0.0431149,21.0576,82.1952,0.679033,0.0,0.0
42,10.25,36.0533,38.1585,166.342,107.756,99.8236,-0.00164524,0.0431776,21.0562,82.1652,0.676312,0.0,0.0
48,11.75,36.6406,38.2254,168.25,107.84,97.3011,-0.000919778,0.0489401,21.047,82.1452,0.909586,0.0,0.0
54,13.25,36.4885,38.157,162.418,107.929,86.2748,0.000443261,0.0682568,20.9994,82.1151,1.98066,0.0,1.0
60,14.75,36.8212,39.136,150.927,108,67.139,0.0027172,0.110862,20.9061,81.975,4.2045,0.0,1.0
66,16.25,37.8734,39.4372,148.917,108.098,58.9393,0.00548025,0.16808,20.8023,81.8048,5.36468,0.0,1.0
72,17.75,38.4157,39.6908,150.518,108.168,58.6402,0.00771223,0.22798,20.7091,81.6647,5.41536,0.0,0.0
78,19.25,39.9158,41.0422,146.38,108.255,58.1035,0.0111016,0.283796,20.62,81.4946,5.5038,0.0,0.0
84,20.75,40.9214,42.5787,142.444,108.356,54.5456,0.0140818,0.334705,20.5243,81.3745,6.07096,0.0,0.0
90,22.25,42.355,44.3886,139.145,108.42,51.0159,0.016746,0.388421,20.4149,81.2143,6.66785,0.0,0.0
96,23.75,43.7669,45.7555,139.356,108.508,50.002,0.0190048,0.442591,20.3152,81.0341,6.85258,0.0,0.0
102,25.25,45.8506,47.5978,143.897,108.567,48.9354,0.0209776,0.487895,20.2418,80.8039,7.04816,0.0,0.0
108,26.75,47.8435,49.6947,135.43,108.617,51.4427,0.0228891,0.530674,20.1707,80.5837,6.61027,0.0,0.0
114,28.25,49.2845,51.7334,129.544,108.68,48.6202,0.024821,0.574766,20.0958,80.3936,7.11446,0.0,0.0
120,29.75,51.702,53.8807,132.106,108.721,48.0965,0.026455,0.616831,20.0161,80.2034,7.21363,0.0,0.0
126,31.25,53.629,56.4591,130.594,108.769,44.6395,0.0279898,0.652475,19.9544,79.9531,7.87728,0.0,0.0
132,32.75,55.285,58.2687,131.816,108.794,45.7615,0.0293694,0.679437,19.9153,79.743,7.65974,0.0,0.0
138,34.25,57.3738,60.7268,138.376,108.827,45.374,0.0304419,0.697107,19.8902,79.5328,7.73766,0.0,0.0
144,35.75,58.7213,62.9789,133.562,108.853,46.6821,0.0312571,0.711694,19.867,79.3226,7.48839,0.0,0.0
150,37.25,61.4038,64.3044,129.403,108.861,49.6109,0.0317914,0.725035,19.8479,79.0623,6.9508,0.0,0.0
156,38.75,62.5518,66.6033,134.437,108.887,45.7753,0.0320055,0.735113,19.8385,78.8622,7.66462,0.0,0.0
162,40.25,64.8549,68.4585,134.296,108.882,45.6896,0.0319846,0.740024,19.8324,78.6019,7.6808,0.0,0.0
168,41.75,65.8531,70.5239,130.529,108.877,46.4334,0.0317303,0.739969,19.8348,78.4117,7.53754,0.0,0.0
174,43.25,67.3283,72.3985,129.282,108.855,44.0257,0.031279,0.737517,19.8438,78.1915,8.00674,0.0,0.0
180,44.75,69.1804,74.0536,134.532,108.853,45.9539,0.0308232,0.731913,19.858,78.0014,7.62737,0.0,0.0
186,46.25,69.7708,74.4956,135.64,108.844,46.866,0.03039,0.724723,19.8715,77.7511,7.45282,0.0,0.0
192,47.75,71.4241,77.0317,128.214,108.853,47.3652,0.0300096,0.716082,19.8842,77.5009,7.35991,0.0,0.0
198,49.25,72.4261,78.025,134.633,108.834,45.6378,0.0296973,0.708071,19.8974,77.3007,7.68691,0.0,0.0
204,50.75,73.7552,79.535,126.802,108.843,50.6686,0.0293917,0.702509,19.9057,77.1206,6.76274,0.0,0.0
210,52.25,74.97,80.2413,136.133,108.807,46.8268,0.0290691,0.699164,19.9112,76.9204,7.45729,0.0,0.0
216,53.75,75.6749,81.9064,134.457,108.796,46.6709,0.0287216,0.694546,19.9188,76.7502,7.4858,0.0,0.0
222,55.25,76.8915,82.6646,134.063,108.774,49.3653,0.0283362,0.689694,19.9297,76.4499,6.98764,0.0,0.0
228,56.75,77.1633,84.346,134.022,108.748,48.6689,0.028009,0.68612,19.937,76.2698,7.11116,0.0,0.0
234,58.25,78.3991,84.7712,140.944,108.717,49.3185,0.0276981,0.67986,19.9521,76.1497,6.99136,0.0,0.0
240,59.75,79.1826,85.7835,143.248,108.69,46.3852,0.0274281,0.671432,19.9671,75.9094,7.53151,0.0,0.0
246,61.25,79.2784,85.8682,135.723,108.673,48.9792,0.0272094,0.663769,19.9795,75.7693,7.0489,0.0,0.0
252,62.75,80.5114,87.3638,138.941,108.64,50.1475,0.0270603,0.656606,19.9891,75.5091,6.83765,0.0,0.0
258,64.25,80.8492,88.2755,133.541,108.615,45.7901,0.026941,0.65149,19.997,75.3389,7.63961,0.0,0.0
264,65.75,80.9477,88.7573,134.998,108.592,46.4892,0.0268208,0.647916,20.0034,75.1187,7.50374,0.0,0.0
270,67.25,82.3697,89.2547,136.345,108.572,48.9626,0.0267112,0.643724,20.0081,74.8985,7.0436,0.0,0.0
276,68.75,82.6459,89.8478,131.531,108.553,49.7091,0.0265686,0.64154,20.0131,74.6983,6.90825,0.0,0.0
282,70.25,83.7045,90.8039,136.292,108.587,49.731,0.0263215,0.638345,20.0192,74.4882,6.90714,0.0,0.0
288,71.75,83.9824,91.7358,141.76,108.724,47.8304,0.0260404,0.632392,20.0326,74.318,7.26292,0.0,0.0
294,73.25,83.6864,92.4655,138.062,108.876,47.7375,0.0258044,0.625893,20.0423,74.1278,7.29244,0.0,0.0
300,74.75,84.2085,91.6523,140.051,108.985,51.1668,0.0255678,0.621519,20.0489,73.9777,6.68776,0.0,0.0
306,76.25,85.1888,93.2093,142.061,109.111,47.087,0.0253275,0.617006,20.0549,73.7975,7.43293,0.0,0.0
312,77.75,85.4294,93.1517,133.051,109.199,51.0606,0.025108,0.613231,20.0593,73.5773,6.72343,0.0,0.0
318,79.25,85.5315,93.6047,135.905,109.269,44.786,0.0250128,0.60942,20.0642,73.3972,7.88883,0.0,0.0
324,80.75,85.9834,94.1993,136.927,109.339,46.0852,0.025074,0.605892,20.0679,73.1769,7.6416,0.0,0.0
330,82.25,86.0109,95.0224,141.161,109.409,48.8899,0.0251132,0.603386,20.0698,73.0168,7.12467,0.0,0.0
336,83.75,86.5814,95.1701,135.522,109.435,53.4255,0.0250395,0.603053,20.0709,72.8266,6.34209,0.0,0.0
342,85.25,87.2117,95.2114,136.452,109.475,50.0373,0.0249335,0.60329,20.071,72.6565,6.92482,0.0,0.0
348,86.75,87.0755,95.4391,136.407,109.465,50.7579,0.0248252,0.604061,20.0723,72.4563,6.7976,0.0,0.0
354,88.25,87.555,96.3487,135.683,109.475,52.3026,0.0247384,0.604353,20.076,72.2861,6.53326,0.0,0.0
360,89.75,87.7755,96.7026,134.26,109.43,48.8483,0.0246819,0.602725,20.0788,72.086,7.13394,0.0,0.0
366,91.25,88.0885,96.7073,135.066,109.388,50.6056,0.0246615,0.599974,20.0805,71.8958,6.81795,0.0,0.0
372,92.75,88.4147,97.4959,135.867,109.318,48.9617,0.0247073,0.598849,20.0824,71.7456,7.10435,0.0,0.0
378,94.25,89.0495,97.695,141.71,109.261,50.9034,0.0248005,0.599432,20.0828,71.5755,6.75578,0.0,0.0
384,95.75,88.5918,97.9598,139.379,109.181,47.4822,0.0248387,0.599055,20.0804,71.3753,7.36465,0.0,0.0
390,97.25,88.8852,98.7207,135.21,109.095,47.8996,0.0248077,0.599114,20.0783,71.1251,7.28024,0.0,0.0
396,98.75,89.4705,98.5819,133.527,108.984,46.174,0.0248249,0.600255,20.0748,70.9349,7.59578,0.0,0.0
402,100.25,89.7974,98.3264,137.911,108.873,51.2244,0.0249678,0.601851,20.0726,70.7647,6.66868,0.0,0.0
408,101.75,89.1872,98.7616,140.709,108.864,49.8221,0.0252595,0.603766,20.0702,70.5846,6.91344,0.0,0.0
414,103.25,90.1008,99.5536,134.802,108.892,47.117,0.02557,0.60418,20.0653,70.3844,7.40947,0.0,0.0
420,104.75,89.749,99.8239,125.89,108.945,47.1696,0.0258136,0.606018,20.057,70.1942,7.40397,0.0,0.0
426,106.25,90.3426,99.887,134.182,108.986,49.464,0.025973,0.610312,20.0493,70.0141,6.98719,0.0,0.0
432,107.75,90.5259,100.93,137.601,109.062,50.8405,0.0259967,0.614561,20.045,69.7939,6.7506,0.0,0.0
438,109.25,90.5946,100.547,130.116,109.114,48.1961,0.0259494,0.617018,20.0428,69.6437,7.22721,0.0,0.0
444,110.75,91.5418,101.072,135.068,109.181,52.5156,0.0256709,0.617917,20.0454,69.4335,6.47352,0.0,0.0
450,112.25,91.3854,101.73,139.237,109.231,49.7814,0.0254319,0.617944,20.0473,69.2133,6.95044,0.0,0.0
456,113.75,92.0485,101.455,142.935,109.308,48.8724,0.0252738,0.617657,20.0483,69.0432,7.11967,0.0,0.0
462,115.25,92.4786,101.907,128.901,109.358,49.5511,0.0252403,0.618711,20.0479,68.843,7.00174,0.0,0.0
468,116.75,92.2379,102.355,131.791,109.428,50.6971,0.0252917,0.619537,20.0476,68.6228,6.80515,0.0,0.0
474,118.25,92.8726,102.788,135.884,109.482,50.461,0.0254565,0.618506,20.0493,68.4126,6.85085,0.0,0.0
480,119.75,93.1462,102.996,132.135,109.553,48.5086,0.0256504,0.61647,20.0505,68.2424,7.20557,0.0,0.0
486,121.25,93.4731,102.729,139.187,109.586,48.2135,0.0257875,0.615058,20.0511,68.1023,7.26219,0.0,0.0
492,122.75,93.5109,103.376,134.673,109.636,45.178,0.0258559,0.61389,20.0512,67.8221,7.84139,0.0,0.0
498,124.25,93.57,103.43,139.806,109.662,49.3636,0.0259799,0.613435,20.0492,67.6419,7.05982,0.0,0.0
504,125.75,93.7611,103.678,133.963,109.694,47.8755,0.0262104,0.615067,20.0438,67.4417,7.33315,0.0,0.0
510,127.25,93.9091,104.321,133.247,109.716,47.2286,0.026496,0.617011,20.0383,67.2615,7.45527,0.0,0.0
516,128.75,94.3248,103.816,139.412,109.737,50.2592,0.0268118,0.620744,20.031,67.0313,6.90689,0.0,0.0
522,130.25,94.2089,104.73,132.276,109.721,48.1675,0.0271669,0.62593,20.021,66.8612,7.28155,0.0,0.0
528,131.75,94.9711,104.615,131.648,109.719,43.0033,0.0275616,0.632099,20.0095,66.671,8.28448,0.0,0.0
534,133.25,94.9654,105.273,134.166,109.702,47.2022,0.0283186,0.639306,19.9974,66.4308,7.4591,0.0,0.0
540,134.75,95.2532,105.358,135.123,109.675,47.4491,0.0292392,0.652263,19.97,66.2306,7.41078,0.0,0.0
546,136.25,95.1543,105.498,126.688,109.643,44.5458,0.0305559,0.67468,19.9201,66.0104,7.9666,0.0,0.0
552,137.75,96.5218,106.777,129.265,109.598,42.8309,0.0322398,0.707993,19.8451,65.8102,8.31019,0.0,0.0
558,139.25,96.5022,107.794,120.946,109.54,44.1667,0.0339974,0.746797,19.7662,65.4599,8.03387,0.0,0.0
564,140.75,96.8162,107.781,121.882,109.481,42.3447,0.0359708,0.788759,19.6921,65.2097,8.40173,0.0,0.0
570,142.25,99.524,109.543,126.76,109.397,39.3816,0.0375637,0.829728,19.6361,65.0095,9.0366,0.0,0.0
576,143.75,99.9674,110.998,130.391,109.312,40.4084,0.0385807,0.858772,19.5959,64.6792,8.80209,0.0,0.0
582,145.25,101.083,112.051,125.711,109.227,41.846,0.0390618,0.877766,19.5718,64.4289,8.48598,0.0,0.0
588,146.75,101.856,113.644,119.731,109.125,41.2263,0.0392771,0.889445,19.5604,64.1587,8.60966,0.0,0.0
594,148.25,102.449,113.473,131.89,109.015,39.2704,0.0393281,0.892614,19.5603,63.8784,9.03069,0.0,0.0
600,149.75,103.65,115.857,120.529,108.903,41.538,0.0392099,0.891412,19.5641,63.5682,8.52508,0.0,0.0
606,151.25,104.551,116.092,124.407,108.796,42.5885,0.0389461,0.888124,19.5696,63.348,8.2955,0.0,0.0
612,152.75,105.657,117.004,128.579,108.667,44.0645,0.0385342,0.88221,19.5815,63.0777,7.98361,0.0,0.0
618,154.25,106.58,118.004,132.884,108.559,41.4473,0.037944,0.874727,19.595,62.7975,8.51643,0.0,0.0
624,155.75,106.604,118.602,129.162,108.435,42.2666,0.0372184,0.863396,19.6188,62.5372,8.33321,0.0,0.0
630,157.25,106.948,119.281,129.288,108.307,43.005,0.0364415,0.850201,19.6453,62.307,8.16951,0.0,0.0
636,158.75,107.443,119.905,129.237,108.19,44.4918,0.0358216,0.83303,19.6789,62.0968,7.85936,0.0,0.0
642,160.25,108.56,120.055,130.594,108.087,48.6715,0.0349562,0.814851,19.7119,61.8566,7.05679,0.0,0.0
648,161.75,108.303,120.493,126.913,107.98,47.3174,0.0339627,0.796791,19.7552,61.6064,7.29755,0.0,0.0
654,163.25,108.316,120.498,127.025,107.894,45.2043,0.033063,0.774071,19.7933,61.4162,7.69464,0.0,0.0
660,164.75,108.955,120.62,134.197,107.79,44.5404,0.0321008,0.754795,19.8234,61.176,7.81694,0.0,0.0
666,166.25,108.731,121.021,129.874,107.737,44.0828,0.0313448,0.73895,19.8467,60.9358,7.90393,0.0,0.0
672,167.75,108.848,120.597,122.678,107.656,44.0364,0.0308064,0.725932,19.8624,60.6955,7.90657,0.0,0.0
678,169.25,108.444,121.184,134.747,107.613,42.8363,0.0305394,0.71666,19.8727,60.5154,8.14743,0.0,0.0
684,170.75,108.955,120.686,134.06,107.563,43.0327,0.0304867,0.710682,19.8788,60.2952,8.10285,0.0,0.0
690,172.25,108.446,121.385,125.602,107.537,45.6682,0.0304332,0.706683,19.8835,60.065,7.57496,0.0,0.0
696,173.75,107.284,120.765,130.509,107.526,45.6852,0.0302956,0.702618,19.8866,59.8347,7.57083,0.0,0.0
702,175.25,108.518,121.131,131.168,107.517,43.7797,0.0300285,0.699784,19.8906,59.6546,7.9469,0.0,0.0
708,176.75,108.551,120.501,126.712,107.529,44.7869,0.0298355,0.697867,19.8937,59.4044,7.74673,0.0,0.0
714,178.25,108.966,121.149,138.237,107.55,47.3188,0.0297412,0.693939,19.9003,59.1541,7.26201,0.0,0.0
720,179.75,108.009,120.805,128.999,107.595,43.902,0.0296419,0.689198,19.9085,58.994,7.92862,0.0,0.0
726,181.25,108.042,121.384,131.357,107.637,46.1816,0.0294552,0.685375,19.9166,58.7738,7.48433,0.0,0.0
732,182.75,108.644,121.045,137.471,107.707,47.154,0.0291886,0.681586,19.923,58.5436,7.3058,0.0,0.0
738,184.25,108.42,121.105,133.306,107.777,46.3334,0.0288692,0.675877,19.9332,58.3334,7.46682,0.0,0.0
744,185.75,108.126,121.392,137.364,107.873,44.5958,0.0286433,0.669003,19.9426,58.1632,7.81274,0.0,0.0
750,187.25,108.357,121.302,132.281,107.963,44.6351,0.028299,0.659688,19.9577,57.933,7.81235,0.0,0.0
756,188.75,108.129,121.047,135.258,108.072,46.8589,0.0279752,0.652026,19.9748,57.7228,7.39121,0.0,0.0
762,190.25,108.207,120.545,130.386,108.171,46.9165,0.0276425,0.643632,19.9891,57.5326,7.38849,0.0,0.0
768,191.75,107.863,120.563,136.772,108.298,46.0441,0.0272609,0.632775,20.0063,57.3425,7.56484,0.0,0.0
774,193.25,107.905,120.408,124.869,108.409,44.319,0.0269473,0.622538,20.0226,57.1823,7.9117,0.0,0.0
780,194.75,107.473,120.264,132.421,108.516,49.1372,0.0266761,0.61387,20.036,56.9321,7.00761,0.0,0.0
786,196.25,107.422,120.008,131.508,108.606,49.5198,0.0264109,0.607826,20.0439,56.7419,6.94632,0.0,0.0
792,197.75,106.941,119.887,131.842,108.7,50.4449,0.0261795,0.603382,20.0504,56.5918,6.79029,0.0,0.0
798,199.25,107.035,119.899,136.236,108.775,48.8519,0.0259729,0.59844,20.0585,56.3916,7.08018,0.0,0.0
804,200.75,107.348,118.773,130.091,108.851,47.0857,0.0257937,0.593602,20.0671,56.2014,7.41203,0.0,0.0
810,202.25,106.091,118.099,130.906,108.907,48.105,0.0256594,0.589628,20.0738,56.0413,7.22717,0.0,0.0
816,203.75,106.25,118.748,134.117,108.963,47.6362,0.0255021,0.586274,20.0788,55.8111,7.31835,0.0,0.0
822,205.25,106.114,118.404,139.995,109.007,50.5056,0.0253148,0.583397,20.0835,55.6809,6.80456,0.0,0.0
828,206.75,106.016,117.253,136.507,109.038,49.0751,0.0251739,0.581571,20.0863,55.4407,7.06116,0.0,0.0
834,208.25,105.968,118.035,136.427,109.061,48.3693,0.0251571,0.580122,20.0877,55.2906,7.19124,0.0,0.0
840,209.75,105.66,117.627,144.197,109.066,49.4448,0.025208,0.576953,20.0971,55.0604,6.99708,0.0,0.0
846,211.25,104.77,117.145,133.118,109.055,48.0318,0.0252319,0.572623,20.1034,54.8902,7.25268,0.0,0.0
852,212.75,105.414,116.971,133.157,109.032,48.4242,0.0250887,0.569481,20.1076,54.7,7.17884,0.0,0.0
858,214.25,104.755,117.137,133.015,109.011,50.4998,0.024897,0.56688,20.111,54.5199,6.8059,0.0,0.0
864,215.75,104.711,117.027,134.176,108.995,48.3961,0.0246924,0.563981,20.1141,54.3197,7.18096,0.0,0.0
870,217.25,104.793,116.417,144.328,108.984,47.525,0.0245253,0.561551,20.1157,54.1896,7.34071,0.0,0.0
876,218.75,104.493,116.453,133.088,108.943,49.3493,0.0244241,0.560866,20.1166,53.9794,7.00421,0.0,0.0
882,220.25,104.214,116.228,127.586,108.916,49.3444,0.0243921,0.561938,20.1129,53.7892,7.00294,0.0,0.0
888,221.75,104.099,115.773,137.465,108.897,50.9472,0.0244329,0.563555,20.1096,53.6091,6.71866,0.0,0.0
894,223.25,104.104,115.759,133.863,108.869,49.0117,0.0245108,0.565427,20.1054,53.4589,7.05895,0.0,0.0
900,224.75,104.533,115.335,135.559,108.828,49.7814,0.0246425,0.568357,20.1029,53.2487,6.91775,0.0,0.0
906,226.25,104.352,115.66,127.85,108.799,49.8765,0.0247635,0.571359,20.1002,53.0485,6.89853,0.0,0.0
912,227.75,104.055,115.341,133.441,108.748,48.8787,0.024932,0.572809,20.0965,52.8383,7.0731,0.0,0.0
918,229.25,104.295,115.619,132.014,108.733,48.5684,0.0250597,0.572714,20.0939,52.6682,7.12824,0.0,0.0
924,230.75,103.773,115.46,144.193,108.724,51.6928,0.0251228,0.573333,20.0918,52.468,6.5761,0.0,0.0
930,232.25,104.025,114.957,139.122,108.697,44.9431,0.02516,0.574778,20.0878,52.2778,7.81143,0.0,0.0
936,233.75,104.143,115.351,134.643,108.713,49.5805,0.0252365,0.576279,20.0844,52.1377,6.9442,0.0,0.0
942,235.25,103.569,115.618,129.402,108.89,48.0402,0.0253471,0.57836,20.0795,51.9175,7.23772,0.0,0.0
948,236.75,103.715,115.17,136.769,109.038,46.4044,0.0255806,0.581242,20.0733,51.6973,7.5561,0.0,0.0
954,238.25,103.602,114.999,129.181,109.2,45.1905,0.0258377,0.584093,20.0674,51.5572,7.80376,0.0,0.0
960,239.75,104.107,115.336,133.036,109.302,51.9356,0.0261079,0.58638,20.0634,51.377,6.58152,0.0,0.0
966,241.25,104.112,114.479,134.819,109.393,48.5715,0.0263428,0.587751,20.0594,51.1668,7.18117,0.0,0.0
972,242.75,103.548,114.781,141.016,109.495,50.1467,0.026415,0.588558,20.0563,50.9466,6.90719,0.0,0.0
978,244.25,104.245,114.989,133.385,109.537,47.6505,0.0263941,0.590231,20.0536,50.8165,7.36215,0.0,0.0
984,245.75,104,115.167,131.132,109.586,48.0233,0.0263724,0.592322,20.0517,50.5763,7.29722,0.0,0.0
990,247.25,104.456,115.538,139.789,109.625,47.6666,0.0263709,0.594329,20.0481,50.4462,7.36624,0.0,0.0
996,248.75,103.844,115.428,124.871,109.626,48.8461,0.0263239,0.596031,20.045,50.1959,7.15017,0.0,0.0
1002,250.25,104.235,115.61,134.24,109.619,47.538,0.0262066,0.596558,20.046,50.0458,7.38967,0.0,0.0
1008,251.75,104.298,115.283,135.316,109.572,42.1193,0.0259902,0.594592,20.0509,49.8856,8.45631,0.0,0.0
1014,253.25,104.931,115.514,131.496,109.537,48.405,0.0258481,0.591604,20.055,49.6454,7.2232,0.0,0.0
1020,254.75,104.344,115.279,133.133,109.479,46.108,0.0258077,0.586796,20.063,49.4853,7.64849,0.0,0.0
1026,256.25,104.485,115.446,129.42,109.389,48.6309,0.0258631,0.581241,20.0712,49.2951,7.17004,0.0,0.0
1032,257.75,104.266,115.301,133.525,109.295,49.2207,0.0259848,0.575757,20.0788,49.0949,7.05579,0.0,0.0
1038,259.25,104.433,115.121,133.328,109.172,46.5044,0.026075,0.570311,20.0875,48.9448,7.54796,0.0,0.0
1044,260.75,104.617,114.722,140.515,109.065,47.5956,0.0260579,0.564075,20.0972,48.8046,7.33416,0.0,0.0
1050,262.25,104.075,114.305,127.11,109.023,47.5915,0.0258873,0.558281,20.1065,48.6045,7.33149,0.0,0.0
1056,263.75,103.863,114.647,130.481,109.082,47.871,0.0256513,0.553473,20.114,48.4043,7.28447,0.0,0.0
1062,265.25,103.685,114.747,139.119,109.126,47.3634,0.0252932,0.548858,20.1221,48.2041,7.38235,0.0,0.0
1068,266.75,104.494,114.27,130.866,109.201,48.3063,0.0249662,0.545567,20.1266,48.044,7.21405,0.0,0.0
1074,268.25,103.555,114.596,137.109,109.258,48.3206,0.0245718,0.542893,20.1312,47.8738,7.21609,0.0,0.0
1080,269.75,103.59,114.254,132.422,109.346,51.6883,0.0242539,0.539811,20.1357,47.7036,6.62732,0.0,0.0
1086,271.25,103.476,114.009,137.174,109.415,48.3202,0.0240423,0.536677,20.143,47.5335,7.22888,0.0,0.0
1092,272.75,103.398,113.989,137.207,109.499,49.5332,0.0238565,0.533213,20.1508,47.3733,7.01634,0.0,0.0
1098,274.25,102.57,112.865,139.225,109.557,48.2452,0.0236468,0.528226,20.1594,47.1732,7.25409,0.0,0.0
1104,275.75,102.92,113.323,133.7,109.647,47.6326,0.0234088,0.523536,20.1675,47.043,7.37436,0.0,0.0
1110,277.25,102.457,112.764,137.781,109.702,50.1078,0.0231812,0.519612,20.1739,46.8329,6.93071,0.0,0.0
1116,278.75,102.578,113.137,138.214,109.774,52.5933,0.0229572,0.514123,20.1835,46.7027,6.50833,0.0,0.0
1122,280.25,102.575,112.701,132.477,109.803,49.9832,0.0227392,0.50756,20.1969,46.5426,6.96085,0.0,0.0
1128,281.75,102.01,111.989,135.139,109.856,53.2362,0.0224718,0.501418,20.2069,46.3424,6.4075,0.0,0.0
1134,283.25,101.988,112.545,136.35,109.898,50.4199,0.0220846,0.496209,20.216,46.1722,6.89158,0.0,0.0
1140,284.75,102.054,111.764,135.99,109.905,52.508,0.0216648,0.490168,20.2264,46.0521,6.53323,0.0,0.0
1146,286.25,101.57,111.555,138.66,109.908,52.3852,0.0212642,0.482898,20.2414,45.902,6.55415,0.0,0.0
1152,287.75,101.33,111.399,140.959,109.903,50.6177,0.0208891,0.47515,20.2555,45.7018,6.85734,0.0,0.0
1158,289.25,100.946,111.04,141.23,109.893,53.0929,0.0203971,0.469695,20.2646,45.5817,6.43426,0.0,0.0
1164,290.75,101.056,110.876,141.215,109.855,53.0942,0.0198513,0.46586,20.2714,45.4216,6.43097,0.0,0.0
1170,292.25,100.584,110.396,141.9,109.81,50.8485,0.0194186,0.460378,20.2807,45.2514,6.80962,0.0,0.0
1176,293.75,100.398,110.142,140.984,109.746,54.805,0.0190739,0.453022,20.2931,45.1213,6.1417,0.0,0.0
1182,295.25,99.892,109.697,138.809,109.686,52.3357,0.0187674,0.44343,20.3101,44.9411,6.54463,0.0,0.0
1188,296.75,99.4214,108.906,145.047,109.606,52.1548,0.0183982,0.436134,20.3237,44.821,6.56886,0.0,0.0
1194,298.25,99.0124,108.542,144.623,109.521,56.8146,0.0180116,0.430533,20.3337,44.6909,5.80503,0.0,0.0
1200,299.75,98.9845,108.251,141.963,109.411,53.0299,0.0176465,0.425543,20.3448,44.5608,6.40593,0.0,0.0
1206,301.25,98.6092,108.019,143.23,109.306,51.8611,0.0173185,0.419169,20.3591,44.4306,6.59451,0.0,0.0
1212,302.75,98.3631,107.512,143.046,109.183,52.0794,0.0170142,0.412473,20.3733,44.2905,6.5474,0.0,0.0
1218,304.25,97.5269,106.907,144.25,109.064,56.1087,0.0166647,0.406164,20.3852,44.1404,5.87869,0.0,0.0
1224,305.75,97.6233,106.597,143.68,108.922,57.4128,0.0162858,0.400822,20.3964,44.0003,5.66387,0.0,0.0
1230,307.25,97.4366,105.981,141.462,108.81,54.8805,0.0159502,0.394672,20.409,43.8701,6.0538,0.0,0.0
1236,308.75,96.52,105.514,143.879,108.685,53.7532,0.0155742,0.38913,20.4181,43.76,6.2272,0.0,0.0
1242,310.25,96.6691,105.006,137.32,108.562,55.0899,0.0151814,0.38497,20.424,43.6099,5.99996,0.0,0.0
1248,311.75,95.9622,104.526,138.375,108.437,55.2412,0.0147725,0.380971,20.4299,43.5198,5.96545,0.0,0.0
1254,313.25,95.6266,103.762,144.017,108.33,56.8856,0.0144137,0.376329,20.4393,43.3897,5.69728,0.0,0.0
1260,314.75,95.2905,103.894,144.442,108.219,58.4343,0.0141304,0.370952,20.452,43.2496,5.45062,0.0,0.0
1266,316.25,94.3757,102.768,142.919,108.114,57.0914,0.0139396,0.366172,20.4594,43.1395,5.6477,0.0,0.0
1272,317.75,94.2207,102.556,145.019,108.026,57.5588,0.0137647,0.361886,20.4661,43.0093,5.56837,0.0,0.0
1278,319.25,94.0557,102.19,143.94,107.95,57.4423,0.0135195,0.357796,20.4738,42.9093,5.58009,0.0,0.0
1284,320.75,92.9932,100.901,149.897,107.872,60.572,0.0131974,0.354105,20.4812,42.7591,5.10448,0.0,0.0
1290,322.25,92.7121,101.34,147.253,107.821,60.2697,0.0128166,0.349458,20.4921,42.6991,5.14456,0.0,0.0
1296,323.75,92.5616,100.621,140.202,107.777,60.2242,0.0124518,0.345482,20.5013,42.5689,5.14761,0.0,0.0
1302,325.25,92.3006,100.147,149.188,107.745,59.388,0.0120997,0.341647,20.5099,42.4188,5.26863,0.0,0.0
1308,326.75,91.8876,99.7219,146.918,107.736,61.3542,0.0117337,0.3372,20.5185,42.3287,4.97978,0.0,0.0
1314,328.25,91.5503,99.1396,140.908,107.733,61.9484,0.0113827,0.333607,20.5252,42.2286,4.89427,0.0,0.0
1320,329.75,91.3034,98.8696,144.525,107.752,62.1118,0.0110328,0.330042,20.5319,42.1185,4.87261,0.0,0.0
1326,331.25,91.2367,98.9975,143.414,107.787,62.2074,0.0106843,0.325261,20.5394,42.0184,4.86184,0.0,0.0
1332,332.75,90.4257,98.1411,147.904,107.825,62.2181,0.010363,0.321376,20.5476,41.9484,4.86344,0.0,0.0
1338,334.25,90.0081,97.8046,148.316,107.867,64.7576,0.0100189,0.317946,20.5551,41.7782,4.51309,0.0,0.0
1344,335.75,89.7389,97.1233,143.934,107.941,63.3338,0.00963639,0.314726,20.5634,41.7182,4.71578,0.0,0.0
1350,337.25,89.2359,96.9076,147.768,108.009,65.184,0.00924076,0.3107,20.5718,41.6381,4.46664,0.0,0.0
1356,338.75,89.3959,95.9637,147.665,108.092,66.5653,0.00883495,0.306544,20.58,41.528,4.28794,0.0,0.0
1362,340.25,88.88,95.2803,144.1,108.17,65.763,0.00853168,0.302296,20.5869,41.4179,4.40163,0.0,0.0
1368,341.75,88.138,95.1519,147.572,108.277,69.3548,0.00827003,0.298845,20.5933,41.3578,3.93996,0.0,0.0
1374,343.25,87.1394,94.3074,152.245,108.365,69.1119,0.00804065,0.295848,20.5997,41.2377,3.97817,0.0,0.0
1380,344.75,87.1149,94.455,149.856,108.473,70.8076,0.00782444,0.292614,20.6065,41.1677,3.77259,0.0,0.0
1386,346.25,87.1147,94.0567,148.245,108.573,69.7897,0.00763015,0.289859,20.6129,41.0576,3.90882,0.0,0.0
1392,347.75,86.6345,93.6126,149.811,108.681,71.2728,0.00741123,0.286362,20.62,40.9675,3.73168,0.0,0.0
1398,349.25,86.3408,92.9485,150.943,108.766,70.1209,0.00715196,0.28299,20.6277,40.9074,3.8827,0.0,0.0
1404,350.75,85.737,92.0576,149.456,108.873,70.5808,0.00691647,0.279355,20.6348,40.8374,3.83352,0.0,0.0
1410,352.25,85.6438,91.7614,145.041,108.943,71.3036,0.00653284,0.27551,20.641,40.7373,3.74914,0.0,0.0
1416,353.75,85.0476,91.8322,149.855,109.027,71.2782,0.0060684,0.2719,20.6482,40.6572,3.75912,0.0,0.0
1422,355.25,84.2723,91.0891,147.321,109.081,75.3883,0.00569332,0.268618,20.6558,40.5871,3.26764,0.0,0.0
1428,356.75,84.5697,90.4352,150.806,109.14,74.3034,0.00546862,0.265431,20.6631,40.5171,3.40062,0.0,0.0
1434,358.25,84.2947,89.8126,147.239,109.185,75.4651,0.00536779,0.262338,20.6686,40.407,3.26706,0.0,0.0
1440,359.75,83.8627,89.8813,147.377,109.221,75.7115,0.00527806,0.259069,20.6747,40.3469,3.24109,0.0,0.0
1446,361.25,83.2912,89.3574,152.755,109.242,76.4598,0.00512881,0.255929,20.6825,40.2969,3.15586,0.0,0.0
1452,362.75,83.0327,88.9116,153.166,109.243,78.0363,0.00488927,0.251924,20.6895,40.2068,2.97542,0.0,0.0
1458,364.25,82.6449,88.6818,149.651,109.234,77.6818,0.00457931,0.248822,20.6952,40.1267,3.01494,0.0,0.0
1464,365.75,82.4735,88.2397,148.595,109.223,78.3091,0.00424299,0.246793,20.6999,40.0566,2.94295,0.0,0.0
1470,367.25,81.834,87.6641,151.565,109.199,79.0252,0.00387901,0.244701,20.7039,40.0066,2.86046,0.0,0.0
1476,368.75,81.7256,87.3392,150.31,109.171,79.969,0.00357614,0.242796,20.709,39.9165,2.75315,0.0,0.0
1482,370.25,81.2984,86.2534,146.953,109.145,78.5131,0.00335149,0.24084,20.7157,39.8364,2.91362,0.0,0.0
1488,371.75,80.9746,86.9107,151.156,109.111,78.3573,0.00318637,0.238569,20.7201,39.7964,2.9284,0.0,0.0
1494,373.25,80.787,86.4508,152.694,109.087,81.0057,0.00300788,0.236126,20.7243,39.7263,2.63242,0.0,0.0
1500,374.75,80.3725,85.6805,150.227,109.035,81.9125,0.00282122,0.233144,20.7294,39.6963,2.5298,0.0,0.0
1506,376.25,80.1826,85.7239,150.807,109,82.3411,0.00261623,0.229715,20.7369,39.6363,2.4808,0.0,0.0
1512,377.75,80.26,85.6411,146.297,108.959,84.8037,0.00246613,0.226593,20.743,39.5762,2.21677,0.0,0.0
1518,379.25,79.017,84.4929,148.55,108.933,84.2318,0.00236292,0.223936,20.7485,39.5362,2.27451,0.0,0.0
1524,380.75,79.0261,84.1153,149.659,108.886,84.0322,0.00225705,0.221543,20.7532,39.4361,2.29172,0.0,0.0
1530,382.25,78.8664,84.0965,149.199,108.863,84.7104,0.00215687,0.219226,20.7576,39.376,2.21875,0.0,0.0
1536,383.75,78.2182,83.5977,160.107,108.847,84.7792,0.00203849,0.216784,20.7636,39.316,2.21025,0.0,0.0
1542,385.25,78.8396,83.4515,151.15,108.831,87.0651,0.00191569,0.21433,20.77,39.2759,1.97363,0.0,0.0
1548,386.75,78.1545,82.9128,148.072,108.811,86.3945,0.0017893,0.211926,20.7734,39.2359,2.04044,0.0,0.0
1554,388.25,78.055,82.471,151.688,108.946,87.5763,0.00165655,0.209346,20.7771,39.1658,1.93123,0.0,0.0
1560,389.75,77.7554,82.1112,148.014,109.105,87.7933,0.00155381,0.207073,20.7822,39.1158,1.92222,0.0,0.0
1566,391.25,77.5317,82.0826,154.008,109.256,88.3085,0.00146001,0.204532,20.7881,39.0758,1.88265,0.0,0.0
1572,392.75,76.7725,81.6368,157.879,109.373,89.5684,0.00133458,0.201874,20.7921,38.9857,1.76684,0.0,0.0
1578,394.25,77.169,81.5083,153.663,109.485,89.58,0.00109802,0.19971,20.7959,38.9757,1.77474,0.0,0.0
1584,395.75,76.4971,81.078,151.95,109.574,89.0112,0.000857374,0.197739,20.7999,38.9456,1.83826,0.0,0.0
1590,397.25,76.2768,80.8547,148.97,109.655,90.26,0.000725152,0.195721,20.8048,38.8856,1.72164,0.0,0.0
1596,398.75,75.854,80.4302,148.418,109.711,90.4403,0.000674064,0.194132,20.8081,38.8656,1.70848,0.0,0.0
1602,400.25,75.8861,79.5953,154.027,109.754,91.5699,0.000627797,0.192104,20.8117,38.8055,1.60212,0.0,0.0
1608,401.75,75.5585,79.4172,152.253,109.771,92.2543,0.000533721,0.189488,20.8166,38.7555,1.53764,0.0,0.0
1614,403.25,75.2697,79.1386,152.852,109.775,91.6846,0.000400405,0.187237,20.8205,38.6954,1.59275,0.0,0.0
1620,404.75,74.9388,78.9954,151.468,109.757,93.4767,0.000250682,0.185239,20.824,38.6754,1.42008,0.0,0.0
1626,406.25,74.3101,78.7932,154.451,109.723,93.066,0.00015138,0.182736,20.8282,38.6654,1.45628,0.0,0.0
1632,407.75,74.6163,78.5172,151.658,109.682,93.879,0.000111851,0.180095,20.8335,38.6053,1.3761,0.0,0.0
1638,409.25,74.3372,77.9916,151.178,109.617,92.9887,8.67257e-05,0.177756,20.8379,38.5653,1.45506,0.0,0.0
1644,410.75,73.8956,77.726,152.78,109.549,93.6044,-1.30088e-05,0.175859,20.8417,38.4952,1.39127,0.0,0.0
1650,412.25,73.3326,77.1761,151.243,109.449,93.8826,-0.00020202,0.174247,20.8448,38.4952,1.35691,0.0,0.0
1656,413.75,73.1876,77.3552,152.007,109.349,94.5705,-0.000316247,0.172242,20.8486,38.4552,1.28425,0.0,0.0
1662,415.25,73.1374,76.9266,155.157,109.215,94.4478,-0.000323207,0.170217,20.8528,38.4352,1.28489,0.0,0.0
1668,416.75,73.0125,76.5626,147.757,109.199,95.0282,-0.000277865,0.168399,20.8565,38.3651,1.22945,0.0,0.0
1674,418.25,72.0319,75.5821,152.304,109.249,95.4787,-0.00026437,0.166817,20.8603,38.3551,1.1916,0.0,0.0
1680,419.75,72.6809,75.9025,150.372,109.309,95.3237,-0.00027891,0.165075,20.8638,38.305,1.21086,0.0,0.0
1686,421.25,72.2233,76.272,152.354,109.348,95.5818,-0.000269157,0.163331,20.8667,38.275,1.19007,0.0,0.0
1692,422.75,71.5661,75.0371,154.189,109.422,96.3385,-0.000261457,0.161604,20.8697,38.225,1.12632,0.0,0.0
1698,424.25,71.0758,75.5116,151.326,109.476,96.6939,-0.000295878,0.160006,20.8725,38.1849,1.09815,0.0,0.0
1704,425.75,71.1004,74.608,157.169,109.565,97.6989,-0.00033121,0.158369,20.8758,38.1649,1.01388,0.0,0.0
1710,427.25,71.3272,74.0341,156.682,109.617,98.0083,-0.000335393,0.157002,20.878,38.1249,0.990091,0.0,0.0
1716,428.75,71.2256,74.3417,152.969,109.695,98.0239,-0.000310469,0.155623,20.881,38.0949,0.994997,0.0,0.0
1722,430.25,70.9155,73.5506,153.928,109.753,98.4655,-0.000304614,0.154292,20.8835,38.0648,0.959915,0.0,0.0
1728,431.75,70.4815,73.9614,153.667,109.816,98.4793,-0.000325568,0.153275,20.8852,38.0548,0.963697,0.0,0.0
1734,433.25,70.3754,73.7218,157.672,109.885,98.3382,-0.000338146,0.151597,20.8886,38.0148,0.981969,0.0,0.0
1740,434.75,69.8376,73.1195,153.138,109.938,98.5905,-0.000349804,0.150268,20.8905,37.9948,0.963582,0.0,0.0
1746,436.25,69.6313,72.796,152.062,109.985,99.5205,-0.000388865,0.149146,20.8929,37.9447,0.884314,0.0,0.0
1752,437.75,69.3949,72.6007,151.334,110.022,100.104,-0.000411834,0.147942,20.8953,37.9347,0.835557,0.0,0.0
1758,439.25,69.7583,71.9581,152.874,110.05,99.8678,-0.000439359,0.146622,20.8987,37.9147,0.858689,0.0,0.0
1764,440.75,69.5635,72.4687,153.681,110.069,99.8116,-0.000486064,0.145715,20.9012,37.8546,0.865202,0.0,0.0
1770,442.25,69.422,71.6527,153.886,110.086,99.9138,-0.000569247,0.14463,20.9033,37.8546,0.857533,0.0,0.0
1776,443.75,68.9679,71.6313,150.254,110.079,100.218,-0.000617156,0.14338,20.9058,37.8546,0.830086,0.0,0.0
1782,445.25,67.9212,71.5748,152.521,110.068,100.116,-0.000600263,0.142085,20.9071,37.8046,0.838189,0.0,0.0
1788,446.75,68.1003,71.2142,157.379,110.043,101.046,-0.00054022,0.140832,20.9078,37.7946,0.754379,0.0,0.0
1794,448.25,67.7055,71.0556,152.912,110.034,100.94,-0.000481234,0.139509,20.9106,37.7646,0.762978,0.0,0.0
1800,449.75,67.688,70.0861,159.5,109.964,100.536,-0.000428839,0.138359,20.913,37.7545,0.792794,0.0,0.0
1806,451.25,68.0311,70.2899,159.803,109.927,100.734,-0.00040385,0.137383,20.9147,37.6945,0.77246,0.0,0.0
1812,452.75,67.3049,70.3105,155.892,109.847,100.996,-0.000401562,0.136294,20.9174,37.6845,0.743027,0.0,0.0
1818,454.25,66.9316,70.0018,154.629,109.791,101.155,-0.000407662,0.135037,20.9197,37.6645,0.724559,0.0,0.0
1824,455.75,67.1815,70.0229,154.423,109.708,100.513,-0.000445895,0.133898,20.922,37.6344,0.774211,0.0,0.0
1830,457.25,65.3568,68.7532,151.52,109.615,101.327,-0.00055957,0.13302,20.9242,37.6544,0.695347,0.0,0.0
1836,458.75,66.412,69.1246,154.128,109.505,100.385,-0.000679069,0.132185,20.9274,37.6144,0.769109,0.0,0.0
1842,460.25,66.6067,68.6988,156.341,109.416,101.186,-0.000740284,0.130992,20.9305,37.5844,0.691628,0.0,0.0
1848,461.75,65.4762,68.3518,157.56,109.303,101.306,-0.000747808,0.129805,20.9323,37.5744,0.671978,0.0,0.0
1854,463.25,65.8365,68.1973,152.481,109.18,100.854,-0.000702356,0.128775,20.9332,37.5343,0.701632,0.0,0.0
1860,464.75,65.5028,68.251,156.033,109.057,100.48,-0.000624637,0.12811,20.9337,37.5343,0.7245,0.0,0.0
1866,466.25,65.661,67.8047,157.098,108.93,100.761,-0.00055454,0.12748,20.9362,37.5043,0.689476,0.0,0.0
1872,467.75,65.8108,67.0111,162.737,108.82,100.48,-0.000505611,0.126801,20.9382,37.4843,0.705247,0.0,0.0
1878,469.25,65.3595,67.4667,155.693,108.677,100.937,-0.000472836,0.126187,20.9394,37.4543,0.653479,0.0,0.0
1884,470.75,65.3037,67.43,157.762,108.561,100.793,-0.000427629,0.125377,20.9399,37.4242,0.656683,0.0,0.0
1890,472.25,64.7717,67.337,154.4375,108.454,100.509,-0.000378205,0.124754,20.9402,37.3942,0.672909,0.0,0.0
1896,473.75,64.104,67.1846,146.699,108.347,100.505,-0.00034905,0.12428,20.9413,37.3842,0.664453,0.0,0.0
1902,475.25,64.5574,66.866,155.36,108.25,100.44,-0.000359848,0.123707,20.9422,37.3642,0.662316,0.0,0.0
1908,476.75,63.4697,65.9504,158.617,108.169,100.064,-0.000426442,0.123101,20.9436,37.3542,0.688828,0.0,0.0
1914,478.25,64.2295,66.1259,163.07,108.109,100.529,-0.000481441,0.122527,20.9444,37.3442,0.642954,0.0,0.0
1920,479.75,63.4871,66.2352,159.618,108.034,100.212,-0.000479144,0.122049,20.9457,37.3041,0.664736,0.0,0.0
1926,481.25,63.7655,65.9718,153.396,107.984,100.301,-0.000397639,0.121775,20.9472,37.2741,0.652802,0.0,0.0
1932,482.75,63.0895,66.2517,157.531,107.965,100.342,-0.000318259,0.12052,20.9493,37.2441,0.647661,0.0,0.0
1938,484.25,63.6383,65.4441,153.654,107.938,100.394,-0.000260254,0.119489,20.9513,37.2341,0.640812,0.0,0.0
1944,485.75,63.1136,65.4185,157.455,107.941,100.225,-0.000205093,0.118718,20.9524,37.2241,0.655985,0.0,0.0
1950,487.25,62.7025,65.1956,158.407,107.936,100.338,-0.00011086,0.118207,20.9534,37.2341,0.64562,0.0,0.0
1956,488.75,63.0357,64.7785,156.034,107.967,100.337,-1.80033e-05,0.118041,20.9545,37.184,0.64828,0.0,0.0
1962,490.25,62.7652,64.6799,153.373,107.991,100.344,4.71399e-05,0.117946,20.9552,37.164,0.649642,0.0,0.0
1968,491.75,62.2836,64.1589,157.241,108.04,100.679,5.66005e-05,0.117877,20.9563,37.154,0.624121,0.0,0.0
1974,493.25,62.5525,64.3455,157.691,108.091,100.935,4.69705e-05,0.117713,20.9572,37.124,0.605837,0.0,0.0
1980,494.75,62.1727,63.7735,160.118,108.161,101.393,6.94998e-05,0.117351,20.9577,37.114,0.571543,0.0,0.0
1986,496.25,62.1609,64.2345,157.565,108.233,100.877,0.00012924,0.116965,20.9589,37.0939,0.622538,0.0,0.0
1992,497.75,61.9614,63.4302,157.37,108.322,101.072,0.000215534,0.116635,20.9608,37.0539,0.612709,0.0,0.0
1998,499.25,61.7594,63.1475,159.029,108.41,101.217,0.00029787,0.11641,20.9618,37.0539,0.607205,0.0,0.0
2004,500.75,61.3597,63.2458,158.398,108.495,101.338,0.000390086,0.116146,20.9626,37.0339,0.603604,0.0,0.0
2010,502.25,61.1899,63.5197,156.982,108.585,100.76,0.000478153,0.116036,20.9632,37.0239,0.661454,0.0,0.0
2016,503.75,61.4586,63.1333,157.309,108.679,101.697,0.000566377,0.116018,20.9621,37.0039,0.587244,0.0,0.0
2022,505.25,60.9349,62.8521,164.333,108.765,101.544,0.00069861,0.116163,20.9605,36.9538,0.607666,0.0,0.0
2028,506.75,60.8051,62.7239,156.311,108.853,101.497,0.000834331,0.116483,20.9596,36.9638,0.618908,0.0,0.0
2034,508.25,60.7565,62.8047,152.499,108.932,101.139,0.000922163,0.116844,20.9591,36.9538,0.656523,0.0,0.0
2040,509.75,60.9416,62.8575,160.216,109.011,101.391,0.000948066,0.116957,20.9589,36.9238,0.640918,0.0,0.0
2046,511.25,60.8213,62.6036,157.916,109.083,101.357,0.000975994,0.116622,20.959,36.9038,0.64973,0.0,0.0
2052,512.75,60.1563,62.1329,158.034,109.136,101.506,0.00105199,0.116171,20.9595,36.8837,0.641028,0.0,0.0
2058,514.25,60.5267,62.2798,152.778,109.213,101.555,0.00112308,0.115366,20.9609,36.8437,0.642984,0.0,0.0
2064,515.75,60.2542,61.7591,158.571,109.26,101.612,0.00119242,0.114456,20.9616,36.8037,0.641881,0.0,0.0
2070,517.25,60.3343,61.6996,158.405,109.317,101.678,0.00126857,0.114051,20.9631,36.8037,0.640716,0.0,0.0
2076,518.75,59.9954,61.8794,159.316,109.352,101.663,0.00136873,0.113755,20.9639,36.8037,0.644858,0.0,0.0
2082,520.25,59.4776,61.1928,163.966,109.402,101.728,0.00143789,0.113399,20.9643,36.7837,0.64327,0.0,0.0
2088,521.75,60.1677,61.4699,162.124,109.406,101.645,0.00144756,0.113172,20.9645,36.7736,0.650779,0.0,0.0
2094,523.25,59.8977,61.0368,154.043,109.428,101.439,0.00137637,0.113159,20.964,36.7536,0.670499,0.0,0.0
2100,524.75,59.1541,60.5181,158.309,109.422,101.607,0.00128104,0.11355,20.9633,36.7236,0.655404,0.0,0.0
2106,526.25,58.7676,61.2183,157.646,109.433,101.751,0.00120653,0.114075,20.963,36.7036,0.643757,0.0,0.0
2112,527.75,58.8239,60.2528,158.642,109.407,101.918,0.00119376,0.114585,20.963,36.6936,0.627145,0.0,0.0
2118,529.25,58.4465,60.3416,156.95,109.401,102.21,0.00121347,0.115441,20.963,36.6736,0.601377,0.0,0.0
2124,530.75,58.8065,59.9313,154.144,109.355,102.266,0.00120626,0.116226,20.963,36.6635,0.59279,0.0,0.0
2130,532.25,57.8949,59.1108,158.964,109.373,101.865,0.00115629,0.116532,20.963,36.6535,0.628964,0.0,0.0
2136,533.75,58.4073,59.5572,154.146,109.314,101.592,0.0010845,0.116425,20.9636,36.6235,0.647961,0.0,0.0
2142,535.25,58.4161,60.1658,158.174,109.281,101.592,0.00109636,0.115701,20.9654,36.5935,0.645315,0.0,0.0
2148,536.75,57.9485,60.0102,159.716,109.239,101.991,0.00119342,0.114669,20.9671,36.5835,0.607193,0.0,0.0
2154,538.25,58.2942,59.3,157.095,109.22,101.994,0.00129451,0.113619,20.9684,36.5835,0.605456,0.0,0.0
2160,539.75,58.8808,59.8439,161.741,109.176,101.914,0.00135792,0.112864,20.9703,36.5835,0.608803,0.0,0.0
2166,541.25,58.3303,59.5333,159.05,109.15,101.321,0.00135282,0.112256,20.9712,36.5735,0.658372,0.0,0.0
2172,542.75,58.0546,59.2149,162.195,109.114,102.006,0.00140605,0.11152,20.972,36.5534,0.595807,0.0,0.0
2178,544.25,58.18,59.6006,154.226,109.076,101.336,0.00153134,0.110925,20.9733,36.5234,0.650985,0.0,0.0
2184,545.75,57.5259,59.2203,158.058,109.029,101.463,0.00170592,0.110322,20.9739,36.5034,0.63616,0.0,0.0
2190,547.25,58.1015,58.9766,161.469,109.011,101.442,0.00189571,0.109886,20.9743,36.4834,0.636441,0.0,0.0
2196,548.75,57.7405,59.1378,158.8,108.996,101.199,0.00206622,0.10952,20.9731,36.4734,0.656496,0.0,0.0
2202,550.25,57.3427,59.0916,163.227,108.966,101.656,0.00214897,0.10934,20.9729,36.4333,0.614191,0.0,0.0
2208,551.75,57.9611,59.223,159.693,108.952,101.454,0.00217661,0.109238,20.9733,36.4333,0.630653,0.0,0.0
2214,553.25,57.7272,58.2833,158.779,108.942,101.16,0.00221294,0.108885,20.9735,36.4233,0.655512,0.0,0.0
2220,554.75,57.4906,58.9689,157.891,109.008,101.389,0.00230429,0.108557,20.9736,36.4033,0.640858,0.0,0.0
2226,556.25,56.9213,58.772,156.389,109.141,101.035,0.00241893,0.10811,20.9737,36.4133,0.682559,0.0,0.0
2232,557.75,56.6533,57.4551,163.93,109.294,101.381,0.00247623,0.107868,20.9737,36.3833,0.66468,0.0,0.0
2238,559.25,57.3558,58.7635,163.613,109.417,101.946,0.00246187,0.107708,20.9737,36.3633,0.625563,0.0,0.0
2244,560.75,57.0837,58.1651,157.041,109.527,102.737,0.00235054,0.107385,20.9737,36.3332,0.566056,0.0,0.0
2250,562.25,57.0856,58.4641,152.244,109.609,102.378,0.00220947,0.106973,20.9759,36.3533,0.603619,0.0,0.0
2256,563.75,56.7471,57.9022,161.469,109.704,102.289,0.00204096,0.106522,20.9771,36.3533,0.618969,0.0,0.0
2262,565.25,57.6537,58.1304,159.276,109.759,102.2,0.00191142,0.106216,20.9777,36.3132,0.631077,0.0,0.0
2268,566.75,56.3955,57.9701,159.932,109.839,103.05,0.00191544,0.105881,20.9781,36.3032,0.564301,0.0,0.0
2274,568.25,56.4045,57.7599,160.183,109.866,102.371,0.00207031,0.105646,20.9782,36.2932,0.624914,0.0,0.0
2280,569.75,56.7005,58.1454,157.989,109.904,102.126,0.00224242,0.105821,20.9783,36.2832,0.649175,0.0,0.0
2286,571.25,56.1863,57.7023,160.421,109.91,102.427,0.00241031,0.105974,20.9787,36.2231,0.623654,0.0,0.0
2292,572.75,55.7956,56.9115,161.441,109.911,102.05,0.00252243,0.105892,20.9782,36.2031,0.656398,0.0,0.0
2298,574.25,56.2764,57.9173,158.275,109.9,102.16,0.00260655,0.105952,20.9788,36.1631,0.645917,0.0,0.0
2304,575.75,56.2576,57.672,161.8,109.863,102.19,0.00264455,0.106209,20.9782,36.1731,0.640336,0.0,0.0
2310,577.25,56.3367,56.9756,158.59,109.82,102.439,0.00265025,0.106281,20.9787,36.1831,0.61538,0.0,0.0
2316,578.75,56.0702,57.3581,157.259,109.755,102.247,0.0027005,0.106224,20.9792,36.1531,0.626733,0.0,0.0
2322,580.25,56.4821,57.2431,155.015,109.68,101.731,0.00281794,0.106144,20.9794,36.1431,0.665393,0.0,0.0
2328,581.75,55.6929,56.5335,158.957,109.588,102.144,0.00292143,0.106117,20.9788,36.1231,0.622212,0.0,0.0
2334,583.25,55.5366,56.9882,159.827,109.492,101.884,0.00287837,0.106192,20.9781,36.113,0.63699,0.0,0.0
2340,584.75,55.9211,56.9103,163.001,109.368,102.501,0.00275778,0.106111,20.9786,36.113,0.57354,0.0,0.0
2346,586.25,55.1664,56.2456,156.543,109.348,101.579,0.00266215,0.105656,20.9796,36.113,0.651848,0.0,0.0
2352,587.75,55.218,56.7362,158.753,109.385,101.662,0.00261996,0.105187,20.9801,36.093,0.647586,0.0,0.0
2358,589.25,55.7407,56.9186,158.92,109.433,101.551,0.00262412,0.10485,20.9814,36.073,0.661164,0.0,0.0
2364,590.75,54.9577,56.3549,158.214,109.489,101.917,0.00267566,0.104465,20.9821,36.023,0.633911,0.0,0.0
2370,592.25,55.2137,56.4065,159.675,109.544,102.24,0.00276606,0.104307,20.9825,36.0129,0.610295,0.0,0.0
2376,593.75,55.6551,55.9835,160.578,109.606,102.136,0.00289474,0.104012,20.9827,35.9929,0.624333,0.0,0.0
2382,595.25,55.4737,56.5927,159.171,109.686,101.866,0.00305325,0.103535,20.9822,35.9929,0.654181,0.0,0.0
2388,596.75,54.6041,56.4818,162.356,109.745,102.496,0.00318065,0.103282,20.9819,35.9629,0.604466,0.0,0.0
2394,598.25,54.8815,56.2982,157.327,109.826,102.325,0.00324713,0.103369,20.9817,35.9629,0.625721,0.0,0.0
2400,599.75,55.1395,56.4191,164.916,109.883,101.81,0.00326601,0.103701,20.9816,35.9429,0.67492,0.0,0.0
2406,601.25,55.3177,57.0007,159.548,109.963,102.543,0.00327203,0.104054,20.9815,35.9329,0.617904,0.0,0.0
2412,602.75,54.7782,55.7238,163.416,110.028,102.602,0.00331886,0.104205,20.9815,35.9129,0.61805,0.0,0.0
2418,604.25,54.9064,56.1891,150.158,110.096,102.231,0.00336361,0.104344,20.9805,35.9028,0.655494,0.0,0.0
2424,605.75,55.147,56.2176,154.633,110.15,102.647,0.00335649,0.104521,20.9794,35.8828,0.623938,0.0,0.0
2430,607.25,54.823,56.4768,151.539,110.174,102.889,0.00333616,0.104619,20.9789,35.8528,0.605142,0.0,0.0
2436,608.75,54.5042,55.8535,161.522,110.2,102.81,0.00329887,0.104438,20.9786,35.8328,0.613923,0.0,0.0
2442,610.25,54.4547,56.0515,160.122,110.24,102.907,0.00323686,0.104271,20.9795,35.8328,0.60882,0.0,0.0
2448,611.75,54.6519,55.8848,159.055,110.246,102.873,0.00319686,0.104125,20.98,35.8128,0.612236,0.0,0.0
2454,613.25,53.9755,55.9157,160.38,110.255,103.115,0.00320502,0.103889,20.9803,35.8028,0.592202,0.0,0.0
2460,614.75,54.7523,56.0897,161.086,110.253,102.214,0.00323375,0.103647,20.9804,35.7827,0.669644,0.0,0.0
2466,616.25,54.226,55.5151,165.033,110.266,102.447,0.00327315,0.103509,20.9805,35.7827,0.650565,0.0,0.0
2472,617.75,53.9774,55.0071,162.276,110.227,102.61,0.00323295,0.103186,20.9815,35.7627,0.633423,0.0,0.0
2478,619.25,54.7056,56.0695,163.452,110.195,102.514,0.00317943,0.102953,20.9823,35.7527,0.639073,0.0,0.0
2484,620.75,54.5182,55.4551,164.114,110.163,102.624,0.00316752,0.103086,20.9826,35.7327,0.627042,0.0,0.0
2490,622.25,54.3863,55.447,161.605,110.106,102.318,0.00317373,0.103441,20.9817,35.7227,0.648818,0.0,0.0
2496,623.75,54.4699,55.4231,158.334,110.045,102.671,0.00321593,0.103624,20.9812,35.6826,0.61344,0.0,0.0
2502,625.25,53.5034,54.408,160.789,110,102.018,0.00327723,0.103677,20.9818,35.6626,0.666262,0.0,0.0
2508,626.75,54.1488,55.4734,157.849,109.932,102.826,0.00337736,0.103732,20.9824,35.6526,0.591037,0.0,0.0
2514,628.25,53.7344,54.9115,159.477,109.864,102.882,0.00346796,0.103442,20.9827,35.6426,0.58075,0.0,0.0
2520,629.75,53.8965,55.2123,158.745,109.777,101.999,0.00351575,0.103155,20.9829,35.6226,0.650017,0.0,0.0
2526,631.25,53.5882,55.268,158.261,109.685,102.194,0.00348262,0.102961,20.983,35.6226,0.625699,0.0,0.0
2532,632.75,54.3346,55.005,161.644,109.606,102.031,0.00339665,0.10279,20.983,35.6026,0.633426,0.0,0.0
2538,634.25,53.934,55.2011,161.832,109.503,101.664,0.00332702,0.102629,20.983,35.6026,0.656973,0.0,0.0
2544,635.75,53.6104,55.3624,162.891,109.414,102.316,,0.102239,,35.5926,0.593262,0.0,0.0
2550,637.25,54.2896,54.9541,159.696,109.306,101.875,,0.10185,,35.5826,0.622744,0.0,0.0
2556,638.75,53.8994,55.47,159.08,109.198,102.463,,,,35.5525,0.563069,0.0,0.0
2562,640.25,54.2268,54.971,161.601,109.122,101.446,,,,35.5325,0.645169,0.0,0.0
2568,641.75,53.7462,55.37,160.264,109.003,101.012,,,,35.5425,0.673474,0.0,0.0
2574,643.25,53.9159,54.9901,159.785,108.905,101.227,,,,35.5125,0.646679,0.0,0.0
2580,644.75,53.7169,54.7691,150.633,108.819,101.074,,,,35.4925,0.653059,0.0,0.0
2585,646,53.379,54.6583,159.732,108.72,102.039,,,,35.4925,0.561012,0.0,0.0