File: 01_Data/EPDM_Membrane/Cone/EPDM_Membrane_Cone_HF25-FrameScan_220225_R2.csv
Names,Time,Stack TC,Smoke TC,Exh Press,Smoke Comp,Smoke Meas,CO Meter,CO2 Meter,O2 Meter,Sample Mass,Ext Coeff,Start Test,Flame Verif
Chan Gain,,500,500,1,1,1,1,1,1,1,1,1.0,1.0
Offset,,0,0,0.135243,0,0,0,0,0,0,0,0.0,0.0
Gain,,1,1,25.011,15.3125,15.3273,1,1,1,1.00096,1.02035,1.0,1.0
Units,sec,C,C,Pa,%,%,%,%,%,g,/m,,
Baseline,,18.6219,19.1276,180.142,115.415,111.146,0.000434695,0.0427814,21.0623,-867.438,0.337391,,
9,2,16.6872,16.491,179.935,114.59,111.419,0.000395738,0.0497225,21.0545,517.716,0.251143,0.0,0.0
18,4.25,16.5894,16.705,182.075,114.884,112.026,0.000451965,0.0501936,21.0552,517.546,0.225468,0.0,0.0
27,6.5,17.1631,17.1343,182.362,115.209,112.306,0.000471996,0.0500204,21.0558,517.586,0.228414,0.0,0.0
36,8.75,16.8176,17.3649,179.765,115.53,113.269,0.000437752,0.0493872,21.0561,517.596,0.176927,0.0,0.0
45,11,16.7589,17.5677,180.532,115.881,113.338,0.000332122,0.0483817,21.0562,517.596,0.198607,0.0,0.0
54,13.25,16.9714,17.3332,182.16,116.188,113.484,0.000302963,0.0477342,21.0562,517.576,0.210771,0.0,0.0
63,15.5,16.7431,17.2251,178.501,116.432,114.022,0.000406655,0.0479792,21.0562,517.616,0.187253,0.0,0.0
72,17.75,16.4601,16.7262,183.816,116.584,113.259,0.000456183,0.048684,21.0562,517.596,0.259008,0.0,0.0
81,20,16.9731,17.0978,180.865,116.678,114.119,0.00034551,0.0486077,21.0565,517.616,0.198495,0.0,0.0
90,22.25,17.0156,17.1266,175.627,116.684,113.651,0.000240432,0.0475494,21.0582,517.556,0.235687,0.0,0.0
99,24.5,16.596,16.6371,178.139,116.592,114,0.000189431,0.0461691,21.0605,517.566,0.20122,0.0,0.0
108,26.75,16.699,17.289,177.076,116.459,113.594,0.000192862,0.0450636,21.0628,517.586,0.222997,0.0,0.0
117,29,16.6931,16.8345,177.484,116.258,113.407,0.00020324,0.0441351,21.0639,517.576,0.222259,0.0,0.0
126,31.25,17.1237,16.8698,180.532,116.038,113.479,0.00030702,0.0435076,21.0643,517.576,0.199614,0.0,0.0
135,33.5,16.7538,17.1491,184.687,115.857,113.336,0.000403596,0.0432693,21.0644,517.566,0.196914,0.0,0.0
144,35.75,16.9999,17.5426,180.513,115.855,113.399,0.000494022,0.0430638,21.0645,517.546,0.191821,0.0,0.0
153,38,16.8716,17.3596,179.981,116.189,113.065,0.000563253,0.0429858,21.0645,517.576,0.243995,0.0,0.0
162,40.25,16.8946,17.3933,180.919,116.4,113.331,0.000509561,0.042944,21.0645,517.596,0.239171,0.0,0.0
171,42.5,16.8808,17.2092,178.529,116.447,114.099,0.000403285,0.0428214,21.0645,517.586,0.182273,0.0,0.0
180,44.75,16.4772,16.8664,177.583,116.379,113.888,0.000368783,0.0426918,21.0645,517.556,0.193664,0.0,0.0
189,47,16.5251,17.8902,183.856,116.158,113.244,0.000343844,0.0426846,21.0648,517.576,0.227449,0.0,0.0
198,49.25,17.1816,17.4308,179.784,115.761,112.876,0.000366753,0.0425777,21.0636,517.546,0.225896,0.0,0.0
207,51.5,17.0415,17.7543,182.806,115.519,112.449,0.000301223,0.0425368,21.0632,517.566,0.241124,0.0,0.0
216,53.75,17.5036,17.458,177.339,115.6,113.143,0.00018787,0.0425484,21.063,517.566,0.192304,0.0,0.0
225,56,17.4969,17.0636,180.139,115.712,112.795,0.000162682,0.0425121,21.0629,517.566,0.228484,0.0,0.0
234,58.25,16.873,17.7075,182.715,115.788,112.219,0.000328387,0.0424433,21.0629,517.566,0.280218,0.0,0.0
243,60.5,17.5444,17.5413,179.9,115.845,113.151,0.000506546,0.0424086,21.0642,517.556,0.210615,0.0,0.0
252,62.75,16.8207,17.4076,180.905,115.873,113.04,0.00050155,0.0422682,21.0648,517.406,0.221517,0.0,0.0
261,65,17.5573,17.9387,179.753,115.873,113.281,0.000467986,0.0422274,21.0651,517.576,0.202537,0.0,0.0
270,67.25,17.8654,17.7773,184.159,115.804,112.965,0.000472926,0.0424997,21.0644,517.526,0.222176,0.0,0.0
279,69.5,17.1508,17.774,183.309,115.656,112.839,0.000418599,0.0435124,21.0631,517.526,0.220693,0.0,0.0
288,71.75,17.2102,17.8698,180.616,115.453,112.43,0.000289428,0.0453149,21.0609,517.516,0.237508,0.0,0.0
297,74,17.509,17.6337,184.058,115.21,112.112,0.000307317,0.0470791,21.0594,517.506,0.243933,0.0,0.0
306,76.25,17.8188,17.5909,181.219,114.979,112.046,0.000437824,0.0483444,21.0577,517.526,0.231323,0.0,0.0
315,78.5,17.6975,17.7279,180.346,114.703,111.428,0.000543091,0.0485877,21.057,517.516,0.25922,0.0,0.0
324,80.75,17.0918,16.7315,185.866,114.483,111.415,0.00056251,0.0479182,21.0577,517.496,0.243116,0.0,0.0
333,83,17.7668,17.7835,179.546,114.332,110.656,0.000550812,0.0468179,21.0593,517.496,0.292505,0.0,0.0
342,85.25,17.1912,17.7596,184.466,114.264,111.067,0.000559579,0.0459144,21.0605,517.506,0.254004,0.0,0.0
351,87.5,17.5045,18.1078,179.216,114.303,110.948,0.000528104,0.0450001,21.0623,517.476,0.266621,0.0,0.0
360,89.75,17.0018,17.8499,179.497,114.421,111.465,0.000395368,0.0443206,21.063,517.466,0.234273,0.0,0.0
369,92,16.4585,17.4997,181.606,114.676,111.126,0.000229137,0.0440754,21.0633,517.476,0.281409,0.0,0.0
378,94.25,17.8957,17.5128,184.605,114.979,111.839,0.000123402,0.0437961,21.0638,517.466,0.247853,0.0,0.0
387,96.5,17.6101,18.1601,183.714,115.307,111.093,0.000104268,0.0437062,21.0641,517.446,0.333262,0.0,0.0
396,98.75,17.3636,18.058,183.67,115.685,111.25,0.000209397,0.0436115,21.0641,517.456,0.349904,0.0,0.0
405,101,17.7342,18.1034,178.026,116.025,111.62,0.000213133,0.0435685,21.0642,517.446,0.346395,0.0,0.0
414,103.25,17.5029,17.9147,181.022,116.325,112.152,0.000192744,0.0435426,21.063,517.466,0.326963,0.0,0.0
423,105.5,17.7597,18.3887,182.554,116.517,111.645,0.000369089,0.0439655,21.0611,517.446,0.382287,0.0,0.0
432,107.75,17.5421,18.5539,174.517,116.646,111.656,0.00062592,0.045598,21.0587,517.436,0.391288,0.0,0.0
441,110,17.5158,17.9549,174.609,116.683,112.17,0.00090543,0.050168,21.0479,517.366,0.353081,0.0,1.0
450,112.25,17.8442,18.3364,180.709,116.638,112.338,0.00128618,0.0604404,21.028,517.496,0.336213,0.0,1.0
459,114.5,17.6551,18.8687,177.798,116.506,106.223,0.00228527,0.0773743,21.0033,517.306,0.827022,0.0,1.0
468,116.75,17.9122,18.7321,169.19,116.336,86.3845,0.00418432,0.118774,20.9417,517.126,2.66428,0.0,1.0
477,119,18.5476,19.0558,157.178,116.123,73.7823,0.00756674,0.189038,20.8004,516.985,4.05933,0.0,0.0
486,121.25,20.6425,21.2424,160.313,115.929,71.017,0.0108887,0.27593,20.648,516.815,4.38628,0.0,0.0
495,123.5,21.4955,22.849,156.37,115.793,68.6356,0.0136674,0.352148,20.511,516.565,4.68101,0.0,0.0
504,125.75,24.5932,25.645,160.596,116.036,62.9487,0.0156708,0.407384,20.4204,516.355,5.47392,0.0,0.0
513,128,26.1978,27.8262,153.483,116.302,64.4586,0.0172575,0.445827,20.3581,516.165,5.28229,0.0,0.0
522,130.25,28.244,30.0435,151.013,116.443,64.2144,0.0183192,0.476349,20.3087,515.934,5.32711,0.0,0.0
531,132.5,30.1272,32.3133,151.585,116.452,67.4606,0.0190464,0.499632,20.2663,515.734,4.88635,0.0,0.0
540,134.75,31.8181,34.3299,159.648,116.363,61.7466,0.0198203,0.517538,20.2401,515.474,5.67166,0.0,0.0
549,137,34.0176,36.9826,148.958,116.134,62.146,0.0205227,0.530203,20.2193,515.224,5.59631,0.0,0.0
558,139.25,35.3429,38.8767,148.971,115.82,59.2404,0.0211846,0.538471,20.2091,515.004,6.00069,0.0,0.0
567,141.5,36.8397,40.8404,150.715,115.546,60.0982,0.0218208,0.544995,20.2035,514.763,5.85082,0.0,0.0
576,143.75,38.8384,42.299,148.727,115.6,58.5448,0.0222296,0.551253,20.1956,514.523,6.08942,0.0,0.0
585,146,40.1813,44.7284,149.411,115.682,62.0109,0.0221822,0.5536,20.1949,514.293,5.58094,0.0,0.0
594,148.25,41.2382,45.9178,151.236,115.76,66.0158,0.0218639,0.551006,20.1999,514.033,5.02682,0.0,0.0
603,150.5,43.1782,48.1618,147.933,115.839,61.3195,0.0215944,0.547493,20.2077,513.782,5.69339,0.0,0.0
612,152.75,44.518,48.7797,149.678,115.875,61.3813,0.0213392,0.542735,20.2176,513.592,5.6872,0.0,0.0
621,155,44.8603,50.6179,148.786,115.902,63.7369,0.0211968,0.539089,20.2225,513.322,5.35223,0.0,0.0
630,157.25,46.3614,51.4358,149.214,115.9,62.3818,0.0211983,0.537674,20.2248,513.112,5.54436,0.0,0.0
639,159.5,46.9224,52.2985,149.121,115.871,62.328,0.0210979,0.534388,20.2295,512.852,5.54988,0.0,0.0
648,161.75,48.2893,53.7998,147.372,115.853,62.7817,0.0206876,0.53036,20.2337,512.671,5.48359,0.0,0.0
657,164,48.7619,54.6406,146.36,115.83,66.6767,0.0201994,0.528022,20.241,512.481,4.94304,0.0,0.0
666,166.25,49.5276,55.7837,154.373,115.77,66.636,0.0197317,0.524961,20.253,512.251,4.94388,0.0,0.0
675,168.5,50.8949,56.8549,148.242,115.692,66.9761,0.0194551,0.519964,20.2612,512.051,4.89229,0.0,0.0
684,170.75,51.2764,57.8517,146.363,115.613,66.6987,0.0193184,0.516444,20.2676,511.8,4.92332,0.0,0.0
693,173,52.2537,58.5346,150.088,115.531,64.497,0.0192788,0.51397,20.2717,511.58,5.21739,0.0,0.0
702,175.25,52.4767,58.882,152.529,115.426,68.2465,0.0193134,0.513776,20.275,511.33,4.70347,0.0,0.0
711,177.5,52.7263,59.8261,148.027,115.31,69.7166,0.0192531,0.510576,20.2801,511.13,4.50376,0.0,0.0
720,179.75,53.8451,60.6855,152.571,115.215,67.9261,0.0190791,0.507951,20.2827,510.91,4.72927,0.0,0.0
729,182,53.7787,60.6237,151.742,115.146,66.6061,0.0189946,0.505419,20.285,510.699,4.89951,0.0,0.0
738,184.25,54.3033,61.5802,151.729,115.039,67.7039,0.0189609,0.504005,20.2879,510.489,4.7449,0.0,0.0
747,186.5,55.642,62.5553,154.361,114.951,66.592,0.0188286,0.50337,20.2905,510.269,4.88627,0.0,0.0
756,188.75,55.7649,62.7174,151.918,114.875,67.7034,0.0186372,0.503041,20.2913,510.099,4.73219,0.0,0.0
765,191,56.1797,63.0343,148.6,114.81,65.5676,0.018606,0.50533,20.2873,509.869,5.01399,0.0,0.0
774,193.25,55.9677,63.1253,150.26,114.753,69.7059,0.0186664,0.508021,20.283,509.668,4.4618,0.0,0.0
783,195.5,56.1702,63.1183,151.807,114.725,68.5889,0.0187776,0.510684,20.2789,509.488,4.6042,0.0,0.0
792,197.75,57.0388,64.998,145.659,114.682,67.0116,0.0189244,0.51183,20.2763,509.218,4.80907,0.0,0.0
801,200,57.7135,64.7859,151.409,114.658,65.1004,0.0189638,0.513819,20.2724,508.968,5.0662,0.0,0.0
810,202.25,58.3397,65.5721,156.864,114.635,69.2914,0.0189153,0.515062,20.2704,508.728,4.50598,0.0,0.0
819,204.5,58.5489,66.1243,155.831,114.629,63.8061,0.01885,0.513635,20.2697,508.517,5.24364,0.0,0.0
828,206.75,59.3226,66.2198,143.796,114.629,65.8787,0.0190506,0.515046,20.2661,508.317,4.95756,0.0,0.0
837,209,59.4429,67.2333,143.067,114.652,66.2857,0.0194665,0.523264,20.2537,508.087,4.90419,0.0,0.0
846,211.25,59.6459,67.521,146.525,114.676,70.3397,0.020032,0.529622,20.2465,507.897,4.37473,0.0,0.0
855,213.5,59.9037,68.0555,150.051,114.706,69.4505,0.020366,0.540924,20.226,507.657,4.49093,0.0,0.0
864,215.75,60.9972,68.3958,146.937,114.739,66.3212,0.0203845,0.552233,20.2079,507.416,4.90621,0.0,0.0
873,218,61.7344,69.1156,146.38,114.762,66.3568,0.0205626,0.558937,20.1961,507.186,4.9032,0.0,0.0
882,220.25,62.0512,69.6696,150.439,114.836,64.3314,0.0211949,0.565733,20.1796,506.926,5.18644,0.0,0.0
891,222.5,62.5332,70.5233,142.713,114.895,63.8805,0.021987,0.577548,20.1582,506.676,5.25395,0.0,0.0
900,224.75,63.3308,71.157,141.404,114.947,65.4881,0.0228035,0.591513,20.1343,506.365,5.03556,0.0,0.0
909,227,64.1757,72.1549,148.039,115.042,62.5338,0.0236999,0.608303,20.0975,506.115,5.45614,0.0,0.0
918,229.25,64.0224,72.1682,149.626,115.096,64.3122,0.024601,0.630159,20.0546,505.825,5.20933,0.0,0.0
927,231.5,65.6913,73.622,140.698,115.174,60.1483,0.025731,0.657189,20.0177,505.534,5.81451,0.0,0.0
936,233.75,66.464,75.1905,136.543,115.266,59.869,0.0272955,0.687076,19.9722,505.264,5.86332,0.0,0.0
945,236,68.2145,76.6175,133.122,115.328,60.2222,0.028915,0.721296,19.913,504.914,5.81546,0.0,0.0
954,238.25,69.3739,78.0789,131.622,115.424,61.2232,0.0301551,0.751314,19.862,504.594,5.67538,0.0,0.0
963,240.5,70.7555,80.0006,139.191,115.511,57.8366,0.0310678,0.777643,19.816,504.223,6.19139,0.0,0.0
972,242.75,71.1795,80.6522,137.011,115.595,60.4294,0.0317524,0.796995,19.7833,503.893,5.8054,0.0,0.0
981,245,73.0586,82.5841,141.076,115.69,57.5635,0.0320564,0.808527,19.7676,503.623,6.24766,0.0,0.0
990,247.25,74.2388,84.5953,139.393,115.772,58.0266,0.032211,0.810906,19.7651,503.282,6.18227,0.0,0.0
999,249.5,74.9765,85.4928,133.861,115.836,52.2989,0.0326125,0.810029,19.7648,502.962,7.11739,0.0,0.0
1008,251.75,76.4777,86.1695,136.053,115.872,57.7627,0.0328836,0.809579,19.7647,502.642,6.23078,0.0,0.0
1017,254,76.9156,87.5664,136.085,115.895,57.1285,0.0327917,0.8056,19.7701,502.341,6.33141,0.0,0.0
1026,256.25,77.681,88.0568,135.419,115.887,56.6925,0.0324792,0.796279,19.7864,502.021,6.39933,0.0,0.0
1035,258.5,78.4743,89.5419,142.701,115.909,57.3572,0.0319531,0.785974,19.8068,501.721,6.29673,0.0,0.0
1044,260.75,78.2593,89.1365,137.587,115.928,55.8225,0.0312389,0.771809,19.8334,501.36,6.54092,0.0,0.0
1053,263,79.3852,90.2846,137.414,115.921,54.7598,0.0304427,0.752763,19.8667,501.11,6.71246,0.0,0.0
1062,265.25,79.7718,90.5707,135.706,115.878,54.5441,0.0295038,0.735431,19.8918,500.83,6.74445,0.0,0.0
1071,267.5,79.9477,91.0502,137.175,115.839,51.6857,0.0286595,0.7213,19.914,500.55,7.22321,0.0,0.0
1080,269.75,80.2949,90.7937,137.688,115.796,55.0928,0.0281044,0.710751,19.9313,500.249,6.64848,0.0,0.0
1089,272,80.6395,91.0701,145.068,115.719,52.4243,0.0277207,0.699799,19.9502,499.939,7.08693,0.0,0.0
1098,274.25,80.7266,91.6681,146.942,115.656,53.5651,0.0275654,0.689768,19.9683,499.679,6.88936,0.0,0.0
1107,276.5,80.448,91.3357,145.561,115.609,55.6031,0.0273738,0.679003,19.9839,499.369,6.55153,0.0,0.0
1116,278.75,80.0531,91.0191,144.82,115.585,54.2387,0.0270575,0.667466,20.002,499.138,6.77202,0.0,0.0
1125,281,80.1538,90.951,143.297,115.731,53.1746,0.0267957,0.655663,20.0223,498.888,6.96069,0.0,0.0
1134,283.25,80.2796,91.0065,148.149,115.974,55.0437,0.0266334,0.64684,20.0367,498.608,6.67025,0.0,0.0
1143,285.5,80.0389,90.2664,142.74,116.201,54.0043,0.0264757,0.641494,20.0446,498.318,6.85834,0.0,0.0
1152,287.75,80.5244,90.3884,146.108,116.36,54.9235,0.0260981,0.635488,20.0534,498.047,6.71952,0.0,0.0
1161,290,80.3478,90.4556,144.968,116.454,56.4947,0.0255795,0.627469,20.0669,497.747,6.47433,0.0,0.0
1170,292.25,79.2468,89.8267,146.889,116.498,53.5216,0.025207,0.619033,20.0787,497.507,6.96153,0.0,0.0
1179,294.5,79.8878,90.3413,144.432,116.475,55.0545,0.0250711,0.612184,20.0851,497.277,6.70707,0.0,0.0
1188,296.75,79.4729,89.6679,145.338,116.375,51.9051,0.0249841,0.610055,20.0875,496.966,7.22659,0.0,0.0
1197,299,79.6311,89.4147,143.344,116.176,52.4987,0.0249814,0.606369,20.0908,496.706,7.10952,0.0,0.0
1206,301.25,79.2051,88.6408,149.963,115.915,53.0876,0.0251798,0.603554,20.0973,496.446,6.98957,0.0,0.0
1215,303.5,78.7054,88.6074,144.442,115.835,52.5828,0.0253311,0.603149,20.1033,496.155,7.0689,0.0,0.0
1224,305.75,78.8283,88.5924,138.27,115.959,53.1451,0.0252722,0.598669,20.109,495.915,6.98323,0.0,0.0
1233,308,78.3591,87.9399,141.634,116.1,52.2737,0.025258,0.597574,20.1087,495.625,7.14213,0.0,0.0
1242,310.25,78.7297,88.5039,137.801,116.254,57.3918,0.0254849,0.602258,20.0976,495.365,6.31792,0.0,0.0
1251,312.5,78.9708,88.5059,146.371,116.402,58.0074,0.0256751,0.60978,20.0873,495.115,6.23383,0.0,0.0
1260,314.75,78.8082,88.3327,151.538,116.537,56.7823,0.0255962,0.615606,20.0809,494.844,6.43522,0.0,0.0
1269,317,79.1812,88.3434,146.726,116.641,56.4577,0.0254552,0.618545,20.0786,494.554,6.49454,0.0,0.0
1278,319.25,78.6449,88.1911,141.895,116.7,58.121,0.0252926,0.616305,20.0823,494.334,6.23917,0.0,0.0
1287,321.5,78.9385,88.3399,149.521,116.701,63.2214,0.0247983,0.612342,20.0881,494.043,5.48641,0.0,0.0
1296,323.75,78.7931,87.6973,146.553,116.658,62.9066,0.0241298,0.601556,20.1091,493.843,5.52779,0.0,0.0
1305,326,78.2871,87.7956,139.289,116.53,58.6501,0.0233336,0.584544,20.1416,493.603,6.14502,0.0,0.0
1314,328.25,77.9858,87.2633,146.351,116.358,62.9122,0.0224557,0.566529,20.1713,493.353,5.50391,0.0,0.0
1323,330.5,77.9462,87.0408,144.776,116.143,63.6756,0.0212964,0.542726,20.2149,493.133,5.37937,0.0,0.0
1332,332.75,77.6949,86.5087,150.962,115.874,66.7581,0.0200999,0.516173,20.2654,492.932,4.93555,0.0,0.0
1341,335,76.9682,85.9997,150.949,115.571,65.0573,0.0192342,0.491894,20.3041,492.732,5.14304,0.0,0.0
1350,337.25,76.8089,85.2379,153.298,115.277,69.479,0.0185364,0.475098,20.3314,492.542,4.53174,0.0,0.0
1359,339.5,75.6005,84.2114,153.883,114.999,69.1333,0.0179765,0.462518,20.3538,492.332,4.55473,0.0,0.0
1368,341.75,74.9905,83.7431,152.21,114.732,67.8419,0.017512,0.451831,20.3706,492.162,4.70272,0.0,0.0
1377,344,75.0228,83.1471,152.31,114.501,66.7922,0.0170727,0.44444,20.3832,491.991,4.82426,0.0,0.0
1386,346.25,73.9462,82.2793,148.807,114.338,67.1005,0.0166817,0.436473,20.3958,491.831,4.77029,0.0,0.0
1395,348.5,73.703,81.6704,156.658,114.282,70.1797,0.0163793,0.429854,20.4081,491.651,4.36435,0.0,0.0
1404,350.75,72.9162,80.4399,152.965,114.302,69.8948,0.0161353,0.423507,20.4179,491.441,4.40232,0.0,0.0
1413,353,72.4669,80.0476,155.911,114.381,67.7464,0.015792,0.419008,20.4275,491.251,4.68794,0.0,0.0
1422,355.25,72.2767,79.6387,159.461,114.526,66.7221,0.0152996,0.41428,20.4361,491.041,4.83564,0.0,0.0
1431,357.5,71.4983,78.5784,156.703,114.726,69.7405,0.0148822,0.410604,20.4424,490.9,4.4552,0.0,0.0
1440,359.75,71.2002,78.4709,154.995,114.948,67.0205,0.0147026,0.407525,20.4478,490.72,4.82857,0.0,0.0
1449,362,69.8051,77.2913,151.08,115.169,70.6952,0.0147245,0.405831,20.4503,490.58,4.36804,0.0,0.0
1458,364.25,69.7182,76.7879,151.526,115.39,70.7817,0.0147392,0.403192,20.4552,490.41,4.37422,0.0,0.0
1467,366.5,69.0846,75.4606,157.875,115.592,70.582,0.0146312,0.398473,20.4649,490.22,4.41519,0.0,0.0
1476,368.75,68.1331,74.7557,155.982,115.76,71.4422,0.0144716,0.393422,20.4717,490.06,4.31975,0.0,0.0
1485,371,68.5135,75.0921,155.218,115.826,71.4206,0.0144159,0.389181,20.4774,489.879,4.32754,0.0,0.0
1494,373.25,68.2674,74.5573,153.782,115.885,68.5575,0.0144039,0.38707,20.4812,489.699,4.69832,0.0,0.0
1503,375.5,67.5766,74.034,153.493,115.88,71.4206,0.0142856,0.385598,20.4829,489.539,4.33173,0.0,0.0
1512,377.75,67.4786,73.2072,159.501,115.848,71.1358,0.0140932,0.385603,20.4847,489.399,4.36504,0.0,0.0
1521,380,67.1982,72.9958,158.594,115.82,70.3224,0.0138935,0.384482,20.4859,489.279,4.46581,0.0,0.0
1530,382.25,66.8151,72.5499,154.638,115.756,72.9712,0.0137289,0.381011,20.4912,489.119,4.12991,0.0,0.0
1539,384.5,66.2092,72.0324,155.18,115.664,72.7046,0.013651,0.377083,20.4978,488.939,4.15559,0.0,0.0
1548,386.75,65.51,71.1797,160.31,115.577,70.8504,0.0135566,0.374618,20.5032,488.768,4.38001,0.0,0.0
1557,389,65.6631,71.0393,158.313,115.513,72.3365,0.0134474,0.372565,20.5059,488.628,4.18927,0.0,0.0
1566,391.25,65.1951,70.1361,156.56,115.757,71.756,0.0133587,0.36918,20.5102,488.468,4.2803,0.0,0.0
1575,393.5,64.3909,69.5404,155.293,116.07,70.1802,0.0132014,0.362973,20.5186,488.318,4.50323,0.0,0.0
1584,395.75,64.1036,69.2993,161.325,116.278,73.3684,0.0130011,0.356703,20.5298,488.168,4.12161,0.0,0.0
1593,398,63.7282,68.5753,160.319,116.427,75.3469,0.0129529,0.353414,20.5363,488.018,3.89486,0.0,0.0
1602,400.25,63.9238,69.2679,161.948,116.47,72.858,0.0128365,0.351261,20.5409,487.858,4.19885,0.0,0.0
1611,402.5,63.1536,68.277,161.78,116.393,71.4328,0.0126292,0.349079,20.5456,487.697,4.36975,0.0,0.0
1620,404.75,62.433,67.2103,157.845,116.258,74.4503,0.0124692,0.345989,20.5504,487.547,3.98904,0.0,0.0
1629,407,62.2093,67.3279,159.418,116.025,69.0421,0.0123571,0.342849,20.5549,487.407,4.64606,0.0,0.0
1638,409.25,62.0082,66.8586,159.6,115.783,73.185,0.0122721,0.339936,20.5587,487.237,4.10579,0.0,0.0
1647,411.5,61.9001,66.5276,158.681,115.886,72.307,0.0122273,0.33705,20.5617,487.117,4.22183,0.0,0.0
1656,413.75,61.4538,66.1288,159.187,116.042,74.947,0.0119939,0.336412,20.5651,486.967,3.91284,0.0,0.0
1665,416,60.8261,65.5165,160.865,116.209,75.6529,0.0118361,0.335431,20.5676,486.817,3.84184,0.0,0.0
1674,418.25,61.0603,65.8517,156.537,116.349,71.8725,0.0116245,0.333498,20.5697,486.656,4.31144,0.0,0.0
1683,420.5,60.6954,64.7959,161.079,116.498,76.4943,0.0113499,0.329837,20.5762,486.506,3.76508,0.0,0.0
1692,422.75,59.832,64.3755,158.394,116.608,73.5611,0.0111316,0.327057,20.5813,486.396,4.12352,0.0,0.0
1701,425,59.4984,64.0306,162.505,116.671,75.0644,0.0109329,0.325596,20.5843,486.266,3.94725,0.0,0.0
1710,427.25,59.4902,63.5423,161.324,116.674,74.7814,0.0106638,0.32296,20.5884,486.166,3.98131,0.0,0.0
1719,429.5,58.82,62.5536,158.342,116.617,75.1313,0.010547,0.321858,20.5891,485.986,3.93512,0.0,0.0
1728,431.75,58.7478,62.5822,161.968,116.48,74.7973,0.010482,0.322043,20.5893,485.846,3.96452,0.0,0.0
1737,434,58.5653,62.2148,160.304,116.288,75.3469,0.0103691,0.32078,20.5934,485.715,3.88418,0.0,0.0
1746,436.25,57.4317,61.6092,162.896,116.06,74.5106,0.0101903,0.3167,20.5993,485.565,3.96652,0.0,0.0
1755,438.5,58.1617,61.8323,159.495,115.746,77.7517,0.0101046,0.314916,20.6008,485.435,3.56117,0.0,0.0
1764,440.75,57.735,61.4017,158.849,115.432,76.1506,0.0101704,0.315582,20.6023,485.295,3.72309,0.0,0.0
1773,443,57.5101,61.1828,161.135,115.096,75.6248,0.0101947,0.316282,20.6029,485.175,3.75901,0.0,0.0
1782,445.25,57.4772,61.1428,165.734,114.803,76.0762,0.0100889,0.314713,20.6054,485.045,3.68294,0.0,0.0
1791,447.5,57.0839,60.2897,158.818,114.557,72.2158,0.0100459,0.312,20.6083,484.915,4.12986,0.0,0.0
1800,449.75,56.6803,60.328,161.613,114.395,73.8787,0.0100807,0.310218,20.6119,484.775,3.91346,0.0,0.0
1809,452,56.4633,60.3583,160.19,114.315,75.4826,0.0100885,0.309452,20.6138,484.644,3.71496,0.0,0.0
1818,454.25,56.6847,59.8753,161.944,114.298,76.935,0.00999513,0.308378,20.6156,484.554,3.54303,0.0,0.0
1827,456.5,56.6163,59.6262,160.315,114.372,75.6239,0.00991801,0.307251,20.6161,484.434,3.70266,0.0,0.0
1836,458.75,55.6907,59.34,160.959,114.49,76.1679,0.00986165,0.30629,20.6171,484.284,3.64775,0.0,0.0
1845,461,55.5483,58.9155,158.335,114.67,73.1583,0.0098419,0.304762,20.6196,484.134,4.02259,0.0,0.0
1854,463.25,55.9146,58.9679,166.586,114.893,75.7071,0.00981571,0.304052,20.6212,484.034,3.73353,0.0,0.0
1863,465.5,55.1789,58.7171,160.687,115.092,75.5196,0.00969718,0.304483,20.6215,483.904,3.77119,0.0,0.0
1872,467.75,55.1921,58.5832,160.449,115.315,75.8484,0.00959124,0.304107,20.6228,483.754,3.74962,0.0,0.0
1881,470,54.9265,58.0886,167.193,115.51,76.326,0.00954725,0.302596,20.6255,483.684,3.70859,0.0,0.0
1890,472.25,54.6362,57.414,157.901,115.688,76.8274,0.0095588,0.301733,20.6275,483.553,3.66373,0.0,0.0
1899,474.5,54.6664,57.8937,164.844,115.786,77.8265,0.00952778,0.300141,20.6296,483.413,3.5557,0.0,0.0
1908,476.75,53.926,57.1505,160.768,115.878,78.0674,0.00941938,0.298665,20.6324,483.253,3.53516,0.0,0.0
1917,479,54.527,57.3675,162.583,115.887,77.5996,0.00938826,0.296611,20.6344,483.143,3.58963,0.0,0.0
1926,481.25,54.7409,57.3928,162.16,115.867,79.1554,0.00939593,0.295707,20.6367,483.033,3.41038,0.0,0.0
1935,483.5,54.6147,57.5831,158.267,115.799,78.0875,0.00932175,0.295189,20.6387,482.973,3.52671,0.0,0.0
1944,485.75,54.2217,57.2113,161.772,115.748,77.8373,0.0093587,0.293748,20.6402,482.803,3.55147,0.0,0.0
1953,488,53.8948,57.0365,159.85,115.697,78.2685,0.00946101,0.292771,20.641,482.663,3.49807,0.0,0.0
1962,490.25,54.0812,56.9753,163.743,115.597,78.1259,0.00942573,0.293017,20.6414,482.562,3.50666,0.0,0.0
1971,492.5,53.5755,56.3511,162.084,115.535,77.7989,0.00925372,0.29148,20.6458,482.442,3.53946,0.0,0.0
1980,494.75,53.3517,56.5707,159.658,115.474,77.4635,0.00914638,0.288572,20.6502,482.322,3.57338,0.0,0.0
1989,497,53.5065,56.3764,164.427,115.454,77.6413,0.00916935,0.286331,20.6521,482.212,3.55131,0.0,0.0
1998,499.25,52.9017,55.6649,163.198,115.79,78.8135,0.00914697,0.286236,20.6516,482.092,3.44317,0.0,0.0
2007,501.5,53.8103,56.2455,159.356,116.046,77.696,0.00906112,0.286255,20.6516,481.992,3.59075,0.0,0.0
2016,503.75,52.6284,55.1468,164.228,116.238,77.8653,0.00891835,0.285403,20.6526,481.862,3.5861,0.0,0.0
2025,506,52.8354,55.1819,157.759,116.357,77.7549,0.00888112,0.285064,20.6537,481.732,3.60797,0.0,0.0
2034,508.25,53.1975,54.8011,160.817,116.419,80.9684,0.00894646,0.284391,20.6548,481.622,3.25025,0.0,0.0
2043,510.5,52.7793,55.3438,160.678,116.403,80.372,0.00888291,0.283146,20.6568,481.521,3.3152,0.0,0.0
2052,512.75,52.5885,55.1017,159.274,116.329,79.0137,0.00876575,0.282292,20.6591,481.391,3.46205,0.0,0.0
2061,515,52.8622,55.2617,165.6,116.126,81.5063,0.00877893,0.282187,20.66,481.271,3.16843,0.0,0.0
2070,517.25,52.2793,55.0096,158.992,115.887,78.3326,0.00887426,0.281773,20.6613,481.181,3.50545,0.0,0.0
2079,519.5,52.2246,54.6957,161.754,115.798,78.2012,0.00885865,0.28054,20.6623,481.071,3.51362,0.0,0.0
2088,521.75,52.1682,54.6055,162.459,115.896,80.8739,0.00883536,0.280475,20.6626,480.961,3.22037,0.0,0.0
2097,524,51.8208,53.958,161.535,116.042,79.77,0.00883247,0.279881,20.6636,480.791,3.35467,0.0,0.0
2106,526.25,51.703,53.5808,163.135,116.186,79.4042,0.00878683,0.278914,20.666,480.721,3.40687,0.0,0.0
2115,528.5,51.8396,54.4866,165.302,116.332,78.9524,0.00871062,0.278342,20.667,480.601,3.46921,0.0,0.0
2124,530.75,51.2927,54.1292,163.865,116.485,78.8874,0.00851381,0.277935,20.6673,480.49,3.48836,0.0,0.0
2133,533,51.479,54.0985,160.605,116.582,78.8261,0.00843343,0.277349,20.6689,480.39,3.50278,0.0,0.0
2142,535.25,51.5351,54.0808,158.171,116.653,80.0231,0.00845156,0.276233,20.6699,480.28,3.37334,0.0,0.0
2151,537.5,51.4716,53.4867,160.316,116.687,79.6919,0.00855749,0.275373,20.6702,480.15,3.41304,0.0,0.0
2160,539.75,51.0154,53.1542,159.479,116.67,80.3809,0.00862623,0.275464,20.6699,480.04,3.33467,0.0,0.0
2169,542,51.0191,53.2411,162.276,116.601,79.0904,0.00861122,0.274986,20.6709,479.93,3.47426,0.0,0.0
2178,544.25,51.2606,53.0754,159.848,116.49,77.8812,0.00851699,0.273606,20.6725,479.79,3.60361,0.0,0.0
2187,546.5,50.5978,53.0801,162.739,116.318,80.5222,0.00844334,0.273046,20.6726,479.73,3.29192,0.0,0.0
2196,548.75,51.006,52.9582,162.171,116.121,80.5591,0.00849652,0.273614,20.6722,479.61,3.27269,0.0,0.0
2205,551,50.095,52.0639,165.848,115.896,80.9647,0.00858953,0.274341,20.6721,479.51,3.21034,0.0,0.0
2214,553.25,50.9071,52.5792,162.975,115.615,80.7986,0.00849965,0.273899,20.6721,479.369,3.207,0.0,0.0
2223,555.5,50.8342,53.036,160.993,115.34,77.9991,0.0083923,0.272114,20.6755,479.279,3.50131,0.0,0.0
2232,557.75,50.3435,52.6461,163.019,115.078,79.4,0.00821137,0.271457,20.6778,479.199,3.32165,0.0,0.0
2241,560,50.6059,52.976,163.397,114.825,79.6433,0.00815137,0.270893,20.6792,479.079,3.27452,0.0,0.0
2250,562.25,50.6682,52.9158,160.705,114.598,79.8243,0.00818211,0.270349,20.6806,478.979,3.23648,0.0,0.0
2259,564.5,50.2593,52.8261,162.251,114.445,79.618,0.00825265,0.269961,20.6811,478.869,3.24769,0.0,0.0
2268,566.75,50.4547,52.4017,159.699,114.352,79.1269,0.00822537,0.269428,20.6813,478.779,3.29584,0.0,0.0
2277,569,49.8889,51.9398,166.098,114.332,78.7274,0.00812299,0.268967,20.6823,478.669,3.33953,0.0,0.0
2286,571.25,50.3156,52.2391,164.073,114.382,80.6246,0.0078277,0.26824,20.6832,478.559,3.13031,0.0,0.0
2295,573.5,50.4919,52.3135,162.496,114.496,79.0581,0.0076061,0.267369,20.685,478.449,3.31488,0.0,0.0
2304,575.75,50.3765,51.999,159.577,114.673,80.4473,0.00746081,0.267044,20.6857,478.308,3.17276,0.0,0.0
2313,578,49.2865,51.0541,157.472,114.859,79.9552,0.00739756,0.266207,20.6863,478.228,3.24218,0.0,0.0
2322,580.25,49.6989,51.9095,161.892,115.082,81.1359,0.00734832,0.264295,20.69,478.138,3.12838,0.0,0.0
2331,582.5,49.3014,51.2209,161.337,115.307,80.1709,0.00717158,0.26246,20.693,478.018,3.25297,0.0,0.0
2340,584.75,49.8746,51.8266,160.963,115.522,82.4072,0.00703211,0.261465,20.6941,477.898,3.02335,0.0,0.0
2349,587,49.4462,51.3442,161.972,115.711,80.7266,0.0069599,0.261011,20.6948,477.828,3.22243,0.0,0.0
2358,589.25,49.499,51.5933,165.311,115.843,82.9507,0.00696583,0.260159,20.6974,477.728,2.98939,0.0,0.0
2367,591.5,49.139,51.6751,165.281,115.895,81.9876,0.00697152,0.258575,20.6989,477.618,3.09788,0.0,0.0
2376,593.75,49.6462,51.5041,161.854,115.884,81.83,0.00692689,0.25667,20.7017,477.508,3.11428,0.0,0.0
2385,596,49.5364,51.7162,165.83,115.803,82.7454,0.00686154,0.255217,20.7044,477.448,3.00843,0.0,0.0
2394,598.25,49.2802,50.9349,164.965,115.714,82.4732,0.00679334,0.254403,20.7057,477.347,3.0311,0.0,0.0
2403,600.5,49.0341,50.9193,165.486,115.602,82.8679,0.00676993,0.254025,20.7062,477.237,2.97964,0.0,0.0
2412,602.75,49.1475,50.9853,162.12,115.512,83.02,0.00681555,0.253654,20.7084,477.137,2.95625,0.0,0.0
2421,605,49.3577,50.8601,166.335,115.433,83.1818,0.00673778,0.252631,20.7113,477.047,2.9327,0.0,0.0
2430,607.25,48.9816,50.2436,164.614,115.532,82.7669,0.00663985,0.250647,20.7157,476.967,2.98513,0.0,0.0
2439,609.5,48.5487,50.3769,163.959,115.95,83.4957,0.00657384,0.248524,20.7199,476.857,2.93904,0.0,0.0
2448,611.75,48.6641,50.2706,161.971,116.206,84.6847,0.00649812,0.247397,20.7215,476.787,2.83219,0.0,0.0
2457,614,48.0749,49.7893,165.262,116.357,84.1061,0.00634408,0.247039,20.7216,476.677,2.90518,0.0,0.0
2466,616.25,48.7214,49.9039,163.93,116.407,85.4705,0.00626585,0.246174,20.723,476.607,2.76495,0.0,0.0
2475,618.5,48.3835,50.1173,164.788,116.321,86.1932,0.00624107,0.244591,20.7255,476.487,2.68305,0.0,0.0
2484,620.75,48.0431,50.1142,168.345,116.12,84.9471,0.00617115,0.242937,20.7288,476.407,2.79788,0.0,0.0
2493,623,47.7384,49.7272,167.247,115.787,86.1618,0.00594451,0.241164,20.7316,476.306,2.64511,0.0,0.0
2502,625.25,48.1546,49.7424,163.408,115.847,88.0347,0.00557485,0.238753,20.7351,476.226,2.45723,0.0,0.0
2511,627.5,47.9615,49.449,167.644,115.996,87.0833,0.00521909,0.236299,20.7401,476.126,2.56599,0.0,0.0
2520,629.75,47.9736,49.2867,166.863,116.187,88.2733,0.00527315,0.234381,20.7441,476.066,2.45929,0.0,0.0
2529,632,48.0597,49.7215,167.697,116.393,88.6685,0.00546247,0.233189,20.7465,475.956,2.43509,0.0,0.0
2538,634.25,47.3031,49.4151,167.023,116.556,88.3912,0.00556697,0.23228,20.7484,475.876,2.47566,0.0,0.0
2547,636.5,47.3269,49.0117,162.88,116.648,89.488,0.00549204,0.231945,20.7497,475.806,2.37238,0.0,0.0
2556,638.75,47.0064,49.0123,165.891,116.689,88.5745,0.00529174,0.231221,20.7522,475.736,2.46734,0.0,0.0
2565,641,46.9219,48.7373,168.037,116.661,90.0119,0.00517125,0.229234,20.7554,475.636,2.32114,0.0,0.0
2574,643.25,46.7761,48.3624,163.288,116.525,89.9142,0.00522007,0.227364,20.7594,475.576,2.32043,0.0,0.0
2583,645.5,46.571,48.7314,166.352,116.335,89.9642,0.0052384,0.22542,20.7626,475.496,2.30079,0.0,0.0
2592,647.75,46.9166,48.3313,168.302,116.057,90.656,0.0051894,0.223327,20.765,475.406,2.21084,0.0,0.0
2601,650,46.5487,48.1886,170.65,115.713,89.974,0.00498346,0.222023,20.7677,475.336,2.25183,0.0,0.0
2610,652.25,46.106,47.3715,160.714,115.365,89.7687,0.00471917,0.220558,20.7708,475.275,2.24538,0.0,0.0
2619,654.5,46.3587,48.0992,168.311,115.048,89.7359,0.00464838,0.219077,20.7741,475.225,2.224,0.0,0.0
2628,656.75,46.2361,47.9711,168.285,114.757,89.9998,0.0046926,0.217748,20.7768,475.115,2.17508,0.0,0.0
2637,659,46.1325,48.0007,165.177,114.509,91.1284,0.00456231,0.21617,20.7803,475.045,2.04412,0.0,0.0
2646,661.25,45.9086,47.8437,166.042,114.384,92.6112,0.00426022,0.214354,20.7842,474.995,1.8899,0.0,0.0
2655,663.5,45.9803,47.7466,164.098,114.389,91.606,0.00405666,0.212641,20.7868,474.935,1.98798,0.0,0.0
2664,665.75,46.0719,47.5303,168.192,114.471,92.1262,0.00401081,0.211531,20.7879,474.865,1.94374,0.0,0.0
2673,668,45.3597,47.186,164.554,114.669,92.5261,0.00404221,0.211367,20.7884,474.775,1.92037,0.0,0.0
2682,670.25,45.4134,47.093,166.106,114.883,93.5884,0.00399661,0.210369,20.789,474.715,1.83493,0.0,0.0
2691,672.5,45.2966,46.5766,160.315,115.156,92.9938,0.0039483,0.208596,20.7926,474.655,1.9132,0.0,0.0
2700,674.75,45.2845,46.677,170.853,115.402,94.1567,0.00398596,0.206428,20.7962,474.575,1.8211,0.0,0.0
2709,677,44.8051,46.5935,168.689,115.635,93.4976,0.0041263,0.204012,20.8025,474.535,1.902,0.0,0.0
2718,679.25,44.7454,46.2941,169.761,115.813,95.9238,0.00417579,0.201149,20.8061,474.475,1.68643,0.0,0.0
2727,681.5,44.8845,46.2374,170.124,115.9,95.9842,0.0040435,0.199369,20.8089,474.395,1.68759,0.0,0.0
2736,683.75,45.267,46.2049,168.159,115.916,96.7766,0.00389102,0.19792,20.8117,474.335,1.6152,0.0,0.0
2745,686,44.6525,45.7331,165.06,115.843,96.2588,0.00395553,0.196426,20.8135,474.265,1.65762,0.0,0.0
2754,688.25,43.9954,45.4095,166.973,115.714,96.7822,0.00399668,0.195849,20.8141,474.214,1.59904,0.0,0.0
2763,690.5,44.3538,45.325,168.554,115.579,97.8281,0.00393561,0.194281,20.8168,474.144,1.49246,0.0,0.0
2772,692.75,43.7867,45.2194,166.78,115.45,97.3065,0.00398213,0.192408,20.8207,474.104,1.53023,0.0,0.0
2781,695,43.8776,45.3383,168.521,115.397,97.5179,0.00418691,0.19137,20.8229,474.054,1.50675,0.0,0.0
2790,697.25,44.1238,45.2034,166.802,115.728,98.9184,0.0043759,0.190424,20.8256,473.994,1.40472,0.0,0.0
2799,699.5,43.6724,44.9407,168.773,116.1,98.4305,0.00425247,0.189218,20.8284,473.944,1.47776,0.0,0.0
2808,701.75,43.8781,45.0483,169.719,116.329,99.3604,0.00392813,0.187253,20.8323,473.894,1.4112,0.0,0.0
2817,704,43.5474,44.62,169.751,116.398,99.1298,0.0038433,0.185474,20.8354,473.844,1.43732,0.0,0.0
2826,706.25,43.5947,44.5872,168.022,116.327,98.7916,0.00389325,0.184377,20.837,473.784,1.46244,0.0,0.0
2835,708.5,43.1414,44.1669,168.288,116.077,99.2767,0.00382004,0.182912,20.8399,473.714,1.39931,0.0,0.0
2844,710.75,42.8971,43.9405,167.15,115.785,99.4292,0.00380113,0.181428,20.8411,473.714,1.36303,0.0,0.0
2853,713,42.4726,43.4511,169.48,115.921,99.8431,0.00410392,0.17932,20.8445,473.614,1.33642,0.0,0.0
2862,715.25,42.3449,43.3898,168.823,116.101,100.128,0.0043908,0.177561,20.8475,473.594,1.3248,0.0,0.0
2871,717.5,42.8021,43.2683,167.265,116.309,101.021,0.00444539,0.175863,20.8499,473.564,1.26131,0.0,0.0
2880,719.75,41.9567,42.7229,172.682,116.493,100.558,0.00446148,0.174423,20.852,473.474,1.31659,0.0,0.0
2889,722,42.483,43.4942,170.859,116.624,101.142,0.00466256,0.173179,20.8545,473.464,1.27482,0.0,0.0
2898,724.25,42.0831,43.3084,168.059,116.695,101.899,0.00487742,0.171718,20.8582,473.384,1.21347,0.0,0.0
2907,726.5,41.985,42.6818,174.508,116.707,102.828,0.00491265,0.170055,20.861,473.364,1.13318,0.0,0.0
2916,728.75,41.7115,42.5896,167.328,116.647,102.09,0.00494182,0.167735,20.865,473.374,1.19311,0.0,0.0
2925,731,41.5651,42.7612,170.374,116.519,101.392,0.00526414,0.166628,20.8666,473.284,1.2446,0.0,0.0
2934,733.25,41.6348,41.8414,170.469,116.297,99.4329,0.00590949,0.167231,20.8652,473.344,1.40223,0.0,0.0
2943,735.5,41.3635,42.1795,173.615,116.036,99.8319,0.00645815,0.169779,20.8587,473.354,1.34626,0.0,0.0
2952,737.75,40.5064,41.5162,170.998,115.71,102.236,0.00674736,0.172785,20.8551,473.133,1.10814,0.0,0.0
2961,740,40.5897,42.1003,170.321,115.344,101.328,0.00693044,0.175517,20.8515,473.184,1.1596,0.0,0.0
2970,742.25,40.6741,41.4385,168.237,115.025,100.561,0.00717379,0.181081,20.8427,473.113,1.20277,0.0,0.0
2979,744.5,40.3471,41.1667,168.473,114.769,101.354,0.00748116,0.184957,20.8368,473.143,1.11261,0.0,0.0
2988,746.75,40.5775,41.0936,168.022,114.569,100.951,0.00776125,0.184688,20.8355,472.993,1.13256,0.0,0.0
2997,749,40.1588,41.2254,172.431,114.49,99.5906,0.00783284,0.183332,20.8366,473.053,1.24788,0.0,0.0
3006,751.25,40.342,40.9713,168.096,114.468,100.918,0.00782207,0.182054,20.839,472.943,1.12766,0.0,0.0
3015,753.5,40.1659,40.9529,167.667,114.585,101.147,0.00790332,0.180149,20.8418,472.923,1.11652,0.0,0.0
3024,755.75,39.9325,40.5873,173.152,114.776,101.412,0.00796267,0.178972,20.8438,472.823,1.10804,0.0,0.0
3033,758,40.114,40.8862,170.781,115.011,100.424,0.00798264,0.176553,20.8482,472.863,1.21397,0.0,0.0
3042,760.25,40.0912,40.2341,175.567,115.256,102.351,0.00827931,0.174697,20.8517,472.743,1.06279,0.0,0.0
3051,762.5,39.6791,40.3296,171.614,115.508,102.266,0.00890337,0.173678,20.8542,472.763,1.08985,0.0,0.0
3060,764.75,39.5299,40.3694,169.102,115.723,102.586,0.00939241,0.171248,20.8571,472.693,1.07853,0.0,0.0
3069,767,39.2158,39.7787,171.591,115.894,102.015,0.00970032,0.167862,20.8614,472.713,1.14172,0.0,0.0
3078,769.25,39.5683,39.6666,171.933,115.993,102.984,0.00978182,0.166197,20.8634,472.563,1.06474,0.0,0.0
3087,771.5,39.1827,39.7709,168.122,115.986,102.815,0.00986258,0.166368,20.8628,472.503,1.07888,0.0,0.0
3096,773.75,38.6833,39.5502,175.41,115.928,102.874,0.00992057,0.166895,20.8624,472.533,1.06925,0.0,0.0
3105,776,38.5377,39.019,175.652,115.804,102.239,0.0100353,0.167917,20.8599,472.573,1.11512,0.0,0.0
3114,778.25,38.4161,39.0732,170.59,115.664,102.599,0.0103049,0.17067,20.8556,472.473,1.07276,0.0,0.0
3123,780.5,38.0165,38.5546,170.503,115.543,102.876,0.010581,0.171616,20.8542,472.463,1.03938,0.0,0.0
3132,782.75,38.111,38.1632,171.906,115.434,103.289,0.0106546,0.169348,20.8579,472.413,0.995009,0.0,0.0
3141,785,37.2763,37.6416,171.304,115.473,102.867,0.0105128,0.165432,20.8642,472.393,1.03472,0.0,0.0
3150,787.25,37.5624,38.2095,171.215,115.893,103.422,0.0104093,0.163315,20.8679,472.363,1.01898,0.0,0.0
3159,789.5,36.9928,37.6355,173.374,116.207,104.334,0.0105895,0.161612,20.87,472.343,0.964604,0.0,0.0
3168,791.75,37.5294,37.8948,169.45,116.405,104.289,0.0109493,0.15883,20.8743,472.313,0.983741,0.0,0.0
3177,794,37.1633,37.4229,173.152,116.447,104.291,0.0112757,0.157194,20.8766,472.283,0.986736,0.0,0.0
3186,796.25,36.9335,37.6123,173.306,116.392,104.142,0.0114848,0.15586,20.8791,472.203,0.995313,0.0,0.0
3195,798.5,36.9755,37.5842,174.273,116.189,105.244,0.0114852,0.153084,20.8838,472.072,0.885523,0.0,0.0
3204,800.75,36.9039,37.4679,171.681,115.858,103.693,0.0114638,0.150303,20.8883,472.132,0.992857,0.0,0.0
3213,803,36.6116,37.0668,172.671,115.964,103.834,0.0117367,0.148617,20.8914,472.112,0.988862,0.0,0.0
3222,805.25,36.269,36.7736,172.104,116.159,103.957,0.012098,0.147413,20.8928,472.122,0.993368,0.0,0.0
3231,807.5,36.2264,36.4519,171.585,116.357,104.661,0.0122368,0.14653,20.8933,472.092,0.948216,0.0,0.0
3240,809.75,35.9978,36.4577,167.236,116.531,104.158,0.0125053,0.145315,20.896,472.042,1.00468,0.0,0.0
3249,812,35.9334,35.7213,171.961,116.674,105.04,0.0129398,0.144031,20.8972,471.982,0.940136,0.0,0.0
3258,814.25,34.9633,35.4502,170.866,116.785,105.201,0.0132717,0.1423,20.9007,471.932,0.935004,0.0,0.0
3267,816.5,35.7486,35.5469,172.736,116.812,104.76,0.0133177,0.139871,20.9054,471.922,0.974688,0.0,0.0
3276,818.75,35.5478,35.4536,175.105,116.746,105.06,0.0131516,0.136885,20.9119,471.882,0.944017,0.0,0.0
3285,821,34.9459,35.4419,171.664,116.608,105.067,0.0128992,0.133679,20.9182,471.852,0.932884,0.0,0.0
3294,823.25,34.6057,35.1544,175.587,116.401,104.541,0.0126734,0.130943,20.9208,471.812,0.961846,0.0,0.0
3303,825.5,34.4495,34.4629,170.363,116.138,104.643,0.0125444,0.129219,20.9243,471.792,0.932867,0.0,0.0
3312,827.75,35.0913,35.4052,173.677,115.825,103.831,0.012469,0.1281,20.9262,471.752,0.978426,0.0,0.0
3321,830,34.9626,34.9536,174.299,115.477,103.776,0.0124458,0.126907,20.9279,471.722,0.956203,0.0,0.0
3330,832.25,34.5757,34.3409,173.11,115.15,103.551,0.012383,0.126108,20.9291,471.722,0.950282,0.0,0.0
3339,834.5,35.0314,35.024,172.684,114.895,103.483,0.0122495,0.124628,20.9319,471.692,0.936288,0.0,0.0
3348,836.75,33.6755,34.2172,176.076,114.701,103.389,0.0120316,0.123602,20.9338,471.642,0.929381,0.0,0.0
3357,839,34.2023,34.141,173.629,114.592,103.343,0.0118883,0.124418,20.9329,471.682,0.924776,0.0,0.0
3366,841.25,34.0776,33.5822,178.477,114.601,103.634,0.0118238,0.126486,20.9301,471.562,0.900304,0.0,0.0
3375,843.5,34.5116,33.8488,173.571,114.741,103.131,0.0118998,0.128813,20.9256,471.592,0.954783,0.0,0.0
3384,845.75,33.5296,34.1865,174.975,114.935,103.697,0.0120026,0.13158,20.9216,471.562,0.920909,0.0,0.0
3393,848,33.7516,33.9416,169.411,115.192,103.684,0.0120836,0.133771,20.919,471.532,0.942108,0.0,0.0
3402,850.25,33.182,33.6491,172.878,115.478,103.872,0.0121473,0.135366,20.9174,471.472,0.948048,0.0,0.0
3411,852.5,33.0957,32.9206,175.985,115.716,104.089,0.0121102,0.135906,20.9168,471.502,0.947783,0.0,0.0
3420,854.75,33.3707,33.4845,171.646,115.908,104.416,0.0119497,0.134838,20.9175,471.422,0.934552,0.0,0.0
3429,857,33.8341,33.6365,171.229,116.05,104.85,0.0118507,0.13272,20.9221,471.392,0.908423,0.0,0.0
3438,859.25,33.1754,33.3296,176.11,116.104,104.936,0.0118724,0.131173,20.9238,471.492,0.905147,0.0,0.0
3447,861.5,33.2134,32.8749,177.485,116.113,105.027,0.0118627,0.130139,20.9246,471.332,0.898095,0.0,0.0
3456,863.75,33.3007,33.3366,175.196,116.021,104.479,0.0118885,0.130371,20.9249,471.322,0.937796,0.0,0.0
3465,866,32.6692,32.9149,173.293,115.894,104.459,0.0119947,0.130904,20.925,471.312,0.929781,0.0,0.0
3474,868.25,32.7957,32.8302,175.05,115.766,104.581,0.0121572,0.130573,20.9259,471.332,0.909432,0.0,0.0
3483,870.5,32.7453,32.976,174.418,115.666,104.232,0.0123048,0.129693,20.9268,471.242,0.931655,0.0,0.0
3492,872.75,32.7283,32.7718,172.384,115.563,104.019,0.0122343,0.128591,20.9285,471.212,0.941954,0.0,0.0
3501,875,32.6284,32.612,172.777,115.464,103.97,0.0121888,0.126601,20.9313,471.172,0.938465,0.0,0.0
3510,877.25,32.5298,32.2855,176.818,115.74,104.281,0.0123297,0.124777,20.9344,471.152,0.933186,0.0,0.0
3519,879.5,32.2268,32.2822,171.993,116.06,104.866,0.0124267,0.123407,20.936,471.132,0.907782,0.0,0.0
3528,881.75,32.7816,32.3066,175.77,116.283,105.027,0.0123091,0.122179,20.9373,471.081,0.911233,0.0,0.0
3537,884,31.633,31.6915,171.772,116.441,104.887,0.0121931,0.120084,20.9412,471.071,0.935349,0.0,0.0
3546,886.25,31.9093,32.0757,176.691,116.521,105.133,0.0121736,0.117698,20.9458,471.091,0.920441,0.0,0.0
3555,888.5,32.1279,32.3182,173.835,116.536,105.234,0.0121629,0.11554,20.9493,471.041,0.913066,0.0,0.0
3564,890.75,30.7617,31.3421,176.618,116.473,105.136,0.0120888,0.113794,20.9523,470.981,0.916541,0.0,0.0
3573,893,31.6247,31.7896,178.715,116.362,105.046,0.0120724,0.112134,20.9549,471.011,0.91564,0.0,0.0
3582,895.25,31.768,31.6706,173.539,116.209,105.114,0.0119573,0.110818,20.9574,470.941,0.898176,0.0,0.0
3591,897.5,31.3369,31.3909,175.384,116.006,105.08,0.0117425,0.110069,20.9595,471.001,0.885374,0.0,0.0
3600,899.75,30.5875,30.8815,175.875,115.966,104.788,0.011605,0.109212,20.9606,470.921,0.90717,0.0,0.0
3609,902,31.6734,31.9118,176.374,116.039,104.833,0.0117408,0.109055,20.9609,470.851,0.909035,0.0,0.0
3618,904.25,31.099,31.12,174.486,116.13,104.966,0.0119857,0.108495,20.962,470.821,0.904648,0.0,0.0
3627,906.5,30.8622,31.0377,176.854,116.234,104.979,0.0121737,0.107652,20.9628,470.791,0.911527,0.0,0.0
3636,908.75,30.6158,30.3067,177.332,116.323,105.252,0.0121988,0.106835,20.9647,470.761,0.895173,0.0,0.0
3645,911,30.8437,30.6517,175.47,116.424,105.33,0.0121309,0.105895,20.9664,470.711,0.896296,0.0,0.0
3654,913.25,30.4544,30.3044,172.934,116.521,105.403,0.0120755,0.105441,20.9671,470.711,0.89753,0.0,0.0
3663,915.5,30.4816,30.6151,173.282,116.597,105.499,0.0120381,0.105434,20.9682,470.661,0.895241,0.0,0.0
3672,917.75,30.1735,30.1495,172.032,116.677,105.466,0.0120841,0.104992,20.9689,470.641,0.904151,0.0,0.0
3681,920,30.6478,29.7322,174.632,116.731,105.464,0.0121648,0.104516,20.9695,470.661,0.908506,0.0,0.0
3690,922.25,29.187,29.0143,173.196,116.793,105.907,0.0121841,0.103347,20.9707,470.611,0.875685,0.0,0.0
3699,924.5,30.2665,29.3265,171.484,116.807,105.867,0.0123483,0.102678,20.9716,470.651,0.880231,0.0,0.0
3708,926.75,28.878,28.9125,178.55,116.85,106.087,0.0127017,0.106611,20.967,470.671,0.864957,0.0,0.0
3717,929,29.9145,29.4234,174.06,116.867,105.607,0.0129897,0.11186,20.9579,470.571,0.906828,0.0,0.0
3726,931.25,29.8863,29.5289,174.023,116.889,105.921,0.0130924,0.117524,20.9476,470.551,0.881948,0.0,0.0
3735,933.5,29.8516,29.8501,174.971,116.885,106.213,0.0131466,0.121189,20.942,470.601,0.856996,0.0,0.0
3744,935.75,29.8382,29.4522,173.63,116.911,106.084,0.0131699,0.123177,20.9377,470.501,0.869807,0.0,0.0
3753,938,29.9174,29.1529,176.495,116.9,105.798,0.0130779,0.123995,20.9359,470.491,0.893208,0.0,0.0
3762,940.25,29.5255,29.6097,171.74,116.906,106.238,0.012751,0.123071,20.9372,470.161,0.856439,0.0,0.0
3771,942.5,29.5252,29.3359,178.321,116.9,106.182,0.012543,0.121633,20.9386,470.481,0.860779,0.0,0.0
3780,944.75,29.6915,28.6758,174.159,116.907,106.181,0.0126313,0.121661,20.9391,470.381,0.861319,0.0,0.0
3789,947,29.2104,29.0752,176.418,116.903,106.43,0.0126736,0.122301,20.9394,470.251,0.840007,0.0,0.0
3798,949.25,29.2128,29.1527,179.452,116.897,106.206,0.0126655,0.121638,20.9398,470.481,0.858404,0.0,0.0
3807,951.5,29.4207,29.2675,176.801,116.909,106.155,0.0127422,0.120891,20.9406,470.311,0.863745,0.0,0.0
3816,953.75,29.589,29.1262,175.028,116.891,106.037,0.0127377,0.121174,20.94,470.371,0.872258,0.0,0.0
3825,956,29.4266,28.8811,172.679,116.877,106.407,0.0125641,0.12175,20.9393,470.281,0.840045,0.0,0.0
3834,958.25,28.2102,28.5934,177.196,116.87,106.061,0.0125109,0.121216,20.9417,470.211,0.868636,0.0,0.0
3843,960.5,28.884,28.7578,170.489,116.863,106.378,0.0124854,0.119598,20.9446,470.231,0.841336,0.0,0.0
3852,962.75,28.2804,28.0565,173.66,116.86,106.269,0.0123461,0.117015,20.9482,470.201,0.850296,0.0,0.0
3861,965,29.2257,28.7913,180.851,116.828,106.121,0.0122188,0.114234,20.9538,470.141,0.860324,0.0,0.0
3870,967.25,28.4941,28.8744,180.181,116.806,106.629,0.0120899,0.110998,20.9585,470.151,0.815895,0.0,0.0
3879,969.5,28.8041,28.5966,178.003,116.781,106.414,0.0120164,0.108194,20.9628,470.111,0.832077,0.0,0.0
3888,971.75,28.5,28.6474,173.907,116.732,106.635,0.0120074,0.106138,20.9654,470.06,0.809726,0.0,0.0
3897,974,28.4403,28.9905,177.341,116.707,106.604,0.0120292,0.104607,20.967,470.06,0.810457,0.0,0.0
3906,976.25,28.5096,28.8734,173.737,116.65,106.1,0.012086,0.103402,20.9692,470.03,0.848444,0.0,0.0
3915,978.5,28.401,28.4281,172.235,116.596,106.711,0.0120677,0.102878,20.9709,470.04,0.792974,0.0,0.0
3924,980.75,28.4872,28.2301,175.028,116.535,106.51,0.0119759,0.102467,20.9729,470.03,0.805045,0.0,0.0
3933,983,28.5444,28.2692,176.66,116.469,106.405,0.0117897,0.101896,20.9737,469.92,0.808867,0.0,0.0
3942,985.25,28.3172,28.0931,174.757,116.403,106.068,0.0114058,0.10104,20.9747,469.96,0.83222,0.0,0.0
3951,987.5,28.1644,28.041,176.087,116.315,106.705,0.0112781,0.10031,20.9759,469.9,0.771899,0.0,0.0
3960,989.75,27.4542,26.8554,175.854,116.236,106.4,0.0113666,0.100257,20.9763,469.93,0.791438,0.0,0.0
3969,992,28.809,27.5397,179.616,116.179,106.431,0.0115578,0.1004,20.9765,469.87,0.784335,0.0,0.0
3978,994.25,28.0918,27.806,177.658,116.09,105.924,0.0117884,0.100588,20.9766,469.84,0.820275,0.0,0.0
3987,996.5,28.0848,27.6063,178.529,116.016,106.123,0.0119542,0.10067,20.9767,469.84,0.797797,0.0,0.0
3996,998.75,27.8859,27.4616,174.95,115.96,106.238,0.0118747,0.100467,20.9778,469.8,0.783735,0.0,0.0
4005,1001,27.2864,26.9509,180.474,116.04,105.852,0.0115775,0.0997153,20.9787,469.82,0.822468,0.0,0.0
4014,1003.25,27.9916,27.9329,173.996,116.203,106.516,0.0112646,0.0991946,20.9791,469.82,0.779094,0.0,0.0
4023,1005.5,27.4493,27.5788,178.729,116.324,106.612,0.0110921,0.0993312,20.9792,469.8,0.780393,0.0,0.0
4032,1007.75,27.6118,27.4056,176.647,116.434,106.628,0.0111083,0.0992386,20.9793,469.77,0.787425,0.0,0.0
4041,1010,27.1475,27.6818,174.056,116.504,106.711,0.0111964,0.0992382,20.9793,469.74,0.785905,0.0,0.0
4050,1012.25,28.0181,27.7051,175.112,116.537,107.071,0.0111616,0.099234,20.9793,469.75,0.758258,0.0,0.0
4059,1014.5,27.5464,27.5599,172.99,116.547,106.968,,0.0994583,,469.68,0.767579,0.0,0.0
4068,1016.75,27.3481,27.0771,173.274,116.494,106.502,,,,469.69,0.802666,0.0,0.0
4077,1019,27.6139,27.1775,177.62,116.397,107.052,,,,469.67,0.749049,0.0,0.0
4086,1021.25,27.5611,27.5882,172.136,116.253,106.72,,,,469.68,0.765821,0.0,0.0
4095,1023.5,27.0312,27.2781,175.319,116.047,106.234,,,,469.66,0.790796,0.0,0.0
4097,1024,27.3238,27.1838,178.85,116.012,106.474,,,,469.63,0.767859,0.0,0.0