File: 01_Data/EPDM_Membrane/Cone/EPDM_Membrane_Cone_HF25Scan_220225_R1.csv
Names,Time,Stack TC,Smoke TC,Exh Press,Smoke Comp,Smoke Meas,CO Meter,CO2 Meter,O2 Meter,Sample Mass,Ext Coeff,Start Test,Flame Verif
Chan Gain,,500,500,1,1,1,1,1,1,1,1,1.0,1.0
Offset,,0,0,0.135243,0,0,0,0,0,0,0,0.0,0.0
Gain,,1,1,25.011,15.3125,15.3273,1,1,1,1.00096,1.02035,1.0,1.0
Units,sec,C,C,Pa,%,%,%,%,%,g,/m,,
Baseline,,17.1273,17.6096,179.409,115.871,110.047,0.000717516,0.0447832,21.0606,-867.078,0.461566,,
6,1.25,16.0628,16.9436,181.612,115.635,109.888,0.000384183,0.0510033,21.0559,88.2946,0.456297,0.0,0.0
12,2.75,15.4193,15.859,179.479,115.585,109.991,0.000442667,0.0509877,21.0569,88.2546,0.443936,0.0,0.0
18,4.25,15.5469,15.9364,177.705,115.529,109.604,0.000464805,0.0505071,21.0574,88.2145,0.471239,0.0,0.0
24,5.75,15.3102,15.6693,179.525,115.484,109.879,0.000370932,0.0497828,21.0585,88.2145,0.445292,0.0,0.0
30,7.25,15.6577,15.9635,182.114,115.44,109.727,0.000261148,0.0490727,21.0594,88.2346,0.454318,0.0,0.0
36,8.75,15.5117,15.8373,177.858,115.41,109.31,0.000208294,0.0485264,21.0598,88.2546,0.486061,0.0,0.0
42,10.25,15.4974,15.8702,181.306,115.355,109.74,0.000248331,0.0481191,21.0601,88.2446,0.446653,0.0,0.0
48,11.75,16.0502,16.0609,181.044,115.328,109.652,0.000338455,0.0478273,21.0601,88.2546,0.451688,0.0,0.0
54,13.25,15.9653,16.0262,177.001,115.307,109.789,0.000354835,0.0476587,21.0598,88.1945,0.438837,0.0,0.0
60,14.75,16.1387,16.2771,177.264,115.271,109.656,0.000268075,0.0476445,21.0597,88.1945,0.446957,0.0,0.0
66,16.25,15.4527,16.2758,176.465,115.231,109.273,0.000120787,0.0477566,21.0596,88.2145,0.475232,0.0,0.0
72,17.75,15.8548,15.8472,183.634,115.238,109.814,2.63914e-05,0.0479932,21.0593,88.2346,0.43152,0.0,0.0
78,19.25,16.0984,16.106,181.853,115.227,109.493,3.90435e-05,0.0483151,21.0583,88.2346,0.456842,0.0,0.0
84,20.75,15.876,16.0996,181.148,115.235,109.936,8.0953e-05,0.0485039,21.0578,88.2346,0.421395,0.0,0.0
90,22.25,15.9855,15.669,180.464,115.241,109.6,8.08963e-05,0.0483346,21.0577,88.2245,0.449217,0.0,0.0
96,23.75,16.1032,16.0697,183.129,115.228,109.867,5.77006e-05,0.0478866,21.0588,88.2446,0.426415,0.0,0.0
102,25.25,16.4655,16.0594,180.626,115.264,110.022,2.04525e-07,0.0471718,21.0606,88.1845,0.416568,0.0,0.0
108,26.75,16.1731,16.4286,178.356,115.247,109.677,-4.74031e-05,0.0465015,21.0622,88.2145,0.443389,0.0,0.0
114,28.25,15.1523,15.3531,178.549,115.258,109.379,-6.15437e-07,0.0458376,21.0635,88.2245,0.468645,0.0,0.0
120,29.75,15.3042,16.4604,175.631,115.263,109.728,0.000112162,0.0453135,21.0648,88.2045,0.440463,0.0,0.0
126,31.25,16.1258,15.7637,178.626,115.301,109.7,0.000239365,0.0449094,21.0655,88.2145,0.445688,0.0,0.0
132,32.75,15.1382,15.8349,176.511,115.316,109.405,0.000289854,0.0445978,21.0659,88.2145,0.470962,0.0,0.0
138,34.25,15.6885,15.9364,175.154,115.377,109.879,0.000310034,0.0443142,21.0661,88.2145,0.436995,0.0,0.0
144,35.75,15.8445,15.9936,183.062,115.402,109.473,0.00034298,0.0441245,21.0662,88.2446,0.472049,0.0,0.0
150,37.25,16.5747,17.1372,180.659,115.452,109.803,0.000361558,0.0438168,21.0663,88.2346,0.449004,0.0,0.0
156,38.75,16.1516,16.6489,181.486,115.502,109.953,0.000370194,0.0436522,21.0663,88.2346,0.440687,0.0,0.0
162,40.25,15.4894,16.104,180.742,115.564,109.817,0.000394775,0.0435439,21.0663,88.2245,0.456555,0.0,0.0
168,41.75,16.17,16.1609,182.425,115.6,110.102,0.000411072,0.0433957,21.0663,88.2145,0.436113,0.0,0.0
174,43.25,15.6749,16.6332,180.584,115.68,110.397,0.000391996,0.0432832,21.0663,88.2045,0.418376,0.0,0.0
180,44.75,16.1239,16.3931,179.971,115.741,110.113,0.000350899,0.0431885,21.0663,88.1945,0.446124,0.0,0.0
186,46.25,16.2785,16.467,180.186,115.837,110.426,0.000320894,0.0432051,21.0663,88.2145,0.428238,0.0,0.0
192,47.75,16.1509,16.2923,178.599,115.899,110.377,0.000304349,0.0431891,21.0665,88.2145,0.436873,0.0,0.0
198,49.25,16.0634,15.9813,179.393,115.981,110.738,0.000248144,0.043081,21.0667,88.1745,0.414027,0.0,0.0
204,50.75,16.3709,16.3176,177.232,116.043,110.352,0.000156443,0.0430567,21.0668,88.1645,0.45014,0.0,0.0
210,52.25,16.0781,16.5435,174.495,116.132,110.705,8.96478e-05,0.0430438,21.0669,88.2045,0.428352,0.0,0.0
216,53.75,16.1079,16.8013,178.845,116.189,110.816,7.6611e-05,0.0430418,21.0669,88.1745,0.423822,0.0,0.0
222,55.25,16.5642,16.1673,177.807,116.267,110.527,0.000120442,0.0429426,21.0669,88.1845,0.45321,0.0,0.0
228,56.75,16.2337,16.8754,182.313,116.324,110.326,0.000124717,0.0428696,21.0676,88.1745,0.473827,0.0,0.0
234,58.25,15.824,16.4902,177.43,116.403,110.704,0.000111086,0.0429312,21.0684,88.2145,0.449255,0.0,0.0
240,59.75,15.8065,16.4238,177.987,116.474,110.302,0.000143593,0.0430498,21.0688,88.1945,0.487335,0.0,0.0
246,61.25,16.0893,17.102,179.323,116.535,110.416,0.000214331,0.0430157,21.069,88.1845,0.482707,0.0,0.0
252,62.75,16.4729,16.3588,184.64,116.593,111.085,0.000332859,0.0429847,21.0682,88.1945,0.4331,0.0,0.0
258,64.25,16.2929,16.5986,175.661,116.622,110.383,0.000414485,0.0429668,21.0676,88.1645,0.492071,0.0,0.0
264,65.75,16.3668,16.8731,177.716,116.684,110.924,0.000409638,0.0429489,21.0673,88.1445,0.453102,0.0,0.0
270,67.25,15.9327,16.4359,178.245,116.69,110.917,0.000306928,0.042929,21.0672,88.1545,0.454134,0.0,0.0
276,68.75,16.1882,16.3829,179.312,116.722,110.911,0.000196984,0.0429308,21.0671,88.1545,0.457097,0.0,0.0
282,70.25,16.0267,16.3355,173.794,116.719,110.869,0.000150091,0.0430236,21.0672,88.1645,0.460207,0.0,0.0
288,71.75,15.5907,16.2036,179.275,116.737,111.036,0.00022868,0.0430195,21.068,88.1645,0.448171,0.0,0.0
294,73.25,15.8755,16.9172,174.965,116.718,110.925,0.000375296,0.0430869,21.0685,88.1445,0.455643,0.0,0.0
300,74.75,16.6304,16.8661,177.456,116.714,110.905,0.000526282,0.0431997,21.0687,88.1545,0.457016,0.0,0.0
306,76.25,16.5779,16.476,175.843,116.683,110.684,0.000585512,0.0432589,21.0688,88.1545,0.472415,0.0,0.0
312,77.75,16.2956,16.9965,179.632,116.664,110.523,0.000564864,0.0431534,21.0689,88.1545,0.483928,0.0,0.0
318,79.25,16.4392,17.0033,177.479,116.614,110.378,0.000479406,0.0430961,21.0689,88.1345,0.491878,0.0,0.0
324,80.75,16.5455,16.7553,174.681,116.575,110.243,0.000264623,0.0431366,21.0689,88.1044,0.499833,0.0,0.0
330,82.25,16.5556,16.9965,178.624,116.519,110.745,5.5402e-05,0.0430552,21.0689,88.1044,0.454907,0.0,0.0
336,83.75,16.1534,17.1691,178.159,116.467,110.763,-5.05312e-05,0.0430347,21.0689,88.1044,0.44945,0.0,0.0
342,85.25,16.8232,16.6559,179.155,116.401,109.812,-5.63999e-05,0.043138,21.0689,88.1144,0.521595,0.0,0.0
348,86.75,16.344,17.2152,175.664,116.35,109.774,-2.45856e-05,0.0431824,21.0689,88.1245,0.520728,0.0,0.0
354,88.25,16.1845,16.8262,173.597,116.271,109.915,-2.84264e-06,0.0432625,21.0689,88.1245,0.503178,0.0,0.0
360,89.75,16.8896,17.0538,174.58,116.199,109.415,3.75377e-05,0.0432259,21.0689,88.1245,0.53845,0.0,0.0
366,91.25,16.7252,16.7997,181.841,116.128,109.374,0.000151623,0.0431477,21.0681,88.1144,0.53638,0.0,0.0
372,92.75,16.39,16.6394,177.558,116.053,108.628,0.000279098,0.0432456,21.0674,88.1044,0.591766,0.0,0.0
378,94.25,16.4537,17.0573,175.943,115.993,108.157,0.000413692,0.0435217,21.0666,88.0744,0.626124,0.0,0.0
384,95.75,16.0094,15.9212,179.306,115.932,108.817,0.000431874,0.0438886,21.066,88.0844,0.566834,0.0,0.0
390,97.25,16.4433,16.8006,177.681,115.873,107.952,0.000380271,0.0443449,21.0657,88.0744,0.633785,0.0,0.0
396,98.75,16.2019,17.0489,179.915,115.825,108.896,0.00032139,0.0447454,21.0647,88.0844,0.552143,0.0,0.0
402,100.25,16.6315,17.0785,180.042,115.942,108.089,0.000275814,0.0451525,21.0639,88.0544,0.627696,0.0,0.0
408,101.75,17.0189,17.3548,180.682,116.082,107.676,0.00024924,0.0455691,21.0624,88.0544,0.672817,0.0,0.0
414,103.25,16.335,17.2548,177.037,116.23,107.722,0.000299215,0.0458977,21.0616,88.0244,0.680381,0.0,0.0
420,104.75,16.6633,16.5888,177.076,116.328,107.514,0.000431026,0.0460692,21.0603,87.9743,0.705209,0.0,0.0
426,106.25,16.5108,17.2284,180.238,116.422,107.965,0.000667632,0.0478525,21.0569,87.9443,0.675049,0.0,0.0
432,107.75,16.5769,17.375,178.55,116.474,110.028,0.00110313,0.0511755,21.0473,88.0544,0.509528,0.0,1.0
438,109.25,16.5806,17.2297,180.592,116.506,108.949,0.00179757,0.0596534,21.0308,87.9143,0.600221,0.0,1.0
444,110.75,17.1679,17.5538,170.603,116.476,95.7896,0.00295798,0.077514,20.9854,87.8942,1.75007,0.0,1.0
450,112.25,16.9506,17.8502,160.012,116.468,77.6221,0.00521672,0.109241,20.8906,87.7741,3.63176,0.0,1.0
456,113.75,16.9345,17.6424,159.889,116.404,66.905,0.00789295,0.163985,20.7744,87.664,4.95669,0.0,0.0
462,115.25,18.0606,18.3005,149.463,116.343,65.839,0.011159,0.231851,20.6587,87.5139,5.09577,0.0,0.0
468,116.75,19.4096,20.0388,153.091,116.217,59.9855,0.0140738,0.29831,20.5637,87.3637,5.91942,0.0,0.0
474,118.25,20.8549,21.8208,151.923,116.091,59.4242,0.0170677,0.368737,20.4638,87.2236,5.99388,0.0,0.0
480,119.75,22.061,23.3659,148.554,115.926,61.4772,0.0196398,0.420622,20.3683,87.0634,5.67712,0.0,0.0
486,121.25,23.2275,24.5957,138.62,115.75,57.462,0.0218397,0.473471,20.2857,86.8933,6.26805,0.0,0.0
492,122.75,25.2772,27.295,147.557,115.56,57.4751,0.0238957,0.515372,20.2145,86.7031,6.25132,0.0,0.0
498,124.25,26.6635,28.5989,145.829,115.573,55.8136,0.0257706,0.554804,20.1505,86.4829,6.51489,0.0,0.0
504,125.75,28.7065,31.4587,141.951,115.598,55.2977,0.0270719,0.587909,20.1026,86.2827,6.59993,0.0,0.0
510,127.25,30.1542,32.2645,135.221,115.638,51.4195,0.0285191,0.61754,20.0506,86.0324,7.25385,0.0,0.0
516,128.75,31.9896,35.2386,147.208,115.684,50.0097,0.0299798,0.640837,20.0094,85.8022,7.50622,0.0,0.0
522,130.25,33.5936,36.8513,139.89,115.722,47.6747,0.0312754,0.666212,19.9687,85.532,7.9372,0.0,0.0
528,131.75,35.2786,38.8919,139.675,115.769,46.5198,0.0324797,0.691013,19.9183,85.3618,8.1603,0.0,0.0
534,133.25,36.6165,41.2295,137.378,115.807,43.9201,0.0336373,0.714793,19.8781,85.1516,8.67798,0.0,0.0
540,134.75,37.8356,42.2927,140.834,115.85,45.8804,0.0347405,0.73554,19.845,84.8013,8.29039,0.0,0.0
546,136.25,40.1258,44.8232,139.515,115.878,44.4416,0.0357774,0.751685,19.8209,84.6311,8.57773,0.0,0.0
552,137.75,41.6134,46.4149,144.377,115.893,49.0064,0.0366014,0.764157,19.8081,84.3408,7.70376,0.0,0.0
558,139.25,42.9621,48.2351,142.923,115.895,45.9777,0.0371045,0.769534,19.8027,84.1106,8.27493,0.0,0.0
564,140.75,44.6019,50.2041,140.059,115.916,43.5749,0.0372613,0.77053,19.8083,83.9505,8.75702,0.0,0.0
570,142.25,45.6768,51.9227,140.96,115.933,48.2313,0.0370705,0.769312,19.8159,83.7002,7.84959,0.0,0.0
576,143.75,46.8209,53.0431,136.21,115.94,46.416,0.036675,0.765707,19.8269,83.5401,8.19348,0.0,0.0
582,145.25,47.9818,54.229,147.018,115.926,47.576,0.0363525,0.760078,19.838,83.2298,7.97149,0.0,0.0
588,146.75,49.4491,56.0003,142.086,115.898,45.5998,0.0361581,0.756375,19.8439,83.0996,8.34906,0.0,0.0
594,148.25,50.175,57.0473,143.22,115.843,48.403,0.0360794,0.756123,19.847,82.8194,7.81082,0.0,0.0
600,149.75,51.7048,58.4173,143.406,115.782,48.8839,0.0360585,0.755396,19.8495,82.5791,7.71765,0.0,0.0
606,151.25,52.8243,60.0728,141.761,115.695,48.6542,0.0360009,0.753477,19.8525,82.399,7.75308,0.0,0.0
612,152.75,52.9775,60.6662,145.46,115.602,45.219,0.0358993,0.749904,19.8591,82.2288,8.4012,0.0,0.0
618,154.25,54.5356,61.4422,141.585,115.503,46.1475,0.0358794,0.74498,19.8659,81.9485,8.21164,0.0,0.0
624,155.75,54.8882,62.7661,141.35,115.372,48.2468,0.0360351,0.740485,19.8709,81.7383,7.80333,0.0,0.0
630,157.25,55.8363,63.8303,144.584,115.25,47.3478,0.0363024,0.737765,19.8745,81.5381,7.96218,0.0,0.0
636,158.75,56.8057,64.7192,139.911,115.126,47.5143,0.0364557,0.735443,19.8771,81.2879,7.9211,0.0,0.0
642,160.25,57.6451,65.0544,141.113,114.976,49.2543,0.0364482,0.73322,19.8788,81.0677,7.58754,0.0,0.0
648,161.75,57.5445,65.9195,137.35,114.839,45.227,0.0364759,0.73308,19.8798,80.8275,8.34035,0.0,0.0
654,163.25,58.4687,66.9869,132.821,114.727,44.646,0.0367647,0.736593,19.8743,80.6273,8.44735,0.0,0.0
660,164.75,59.586,67.3917,142.241,114.601,46.3108,0.0372093,0.741123,19.8738,80.377,8.10987,0.0,0.0
666,166.25,59.8571,68.6597,144.243,114.493,45.5811,0.0374899,0.741853,19.8735,80.1568,8.24359,0.0,0.0
672,167.75,60.7812,69.6641,150.655,114.414,46.3641,0.0376174,0.737613,19.881,79.9666,8.08489,0.0,0.0
678,169.25,60.6565,69.4518,146.294,114.35,49.1622,0.0377461,0.733153,19.885,79.7164,7.55546,0.0,0.0
684,170.75,61.7532,70.7662,133.919,114.319,43.3022,0.037997,0.730399,19.8863,79.5262,8.68902,0.0,0.0
690,172.25,62.4911,71.2317,147.849,114.317,45.2139,0.0382119,0.729475,19.8858,79.296,8.30216,0.0,0.0
696,173.75,62.6675,72.2554,142.355,114.346,44.7878,0.0382572,0.728844,19.8834,79.0558,8.38919,0.0,0.0
702,175.25,63.7372,72.9365,144.349,114.412,42.4378,0.0382205,0.729288,19.877,78.8155,8.87674,0.0,0.0
708,176.75,64.2841,73.1821,140.915,114.503,44.3902,0.0382333,0.731629,19.871,78.5753,8.48128,0.0,0.0
714,178.25,64.5094,73.8545,138.603,114.621,41.514,0.0383687,0.737439,19.86,78.3251,9.09013,0.0,0.0
720,179.75,65.0587,74.2581,143.224,114.747,42.6179,0.0385799,0.746947,19.8372,78.0848,8.86501,0.0,0.0
726,181.25,65.8339,75.4947,146.823,114.921,46.0006,0.0387376,0.759584,19.816,77.8646,8.19494,0.0,0.0
732,182.75,66.1662,75.8414,139.242,115.103,44.0323,0.0388143,0.770217,19.8038,77.5944,8.60054,0.0,0.0
738,184.25,66.9293,76.2317,139.693,115.299,42.9687,0.0388926,0.776182,19.7953,77.3641,8.83458,0.0,0.0
744,185.75,67.3517,77.4048,143.109,115.5,41.0345,0.0390227,0.779077,19.7898,77.1039,9.26247,0.0,0.0
750,187.25,67.7187,77.87,145.426,115.704,39.9779,0.0392631,0.782821,19.7843,76.8737,9.51171,0.0,0.0
756,188.75,68.4029,78.0071,136.597,115.893,39.9783,0.0396428,0.789099,19.771,76.5634,9.52623,0.0,0.0
762,190.25,68.7008,78.7157,136.364,116.088,43.7802,0.0401339,0.800163,19.7523,76.3532,8.72817,0.0,0.0
768,191.75,70.0128,79.6333,140.673,116.257,43.2844,0.0408836,0.811876,19.7306,76.0729,8.84315,0.0,0.0
774,193.25,70.4706,80.7443,139.941,116.393,42.2296,0.0416708,0.825134,19.7029,75.8227,9.07438,0.0,0.0
780,194.75,70.7315,80.9863,137.622,116.537,44.5188,0.0425995,0.844726,19.6691,75.5624,8.61303,0.0,0.0
786,196.25,71.8986,82.1822,124.15,116.627,42.8157,0.0434697,0.86385,19.6329,75.2421,8.969,0.0,0.0
792,197.75,71.7371,82.1562,138.487,116.709,40.9948,0.0443993,0.885354,19.5997,74.9518,9.36431,0.0,0.0
798,199.25,72.8473,83.6604,138.074,116.729,43.7905,0.045775,0.910166,19.5573,74.6716,8.77532,0.0,0.0
804,200.75,73.0389,83.843,121.264,116.742,47.2318,0.0473379,0.944993,19.4875,74.3713,8.09927,0.0,0.0
810,202.25,74.7517,85.6588,130.476,116.711,42.5351,0.0491001,0.988336,19.4017,74.0109,9.03432,0.0,0.0
816,203.75,75.5355,86.6483,132.027,116.673,39.4727,0.0507219,1.03469,19.3362,76.8336,9.70022,0.0,0.0
822,205.25,76.6711,88.5465,133.755,116.594,40.317,0.052523,1.06748,19.291,77.8746,9.50474,0.0,0.0
828,206.75,78.2531,89.5518,129.771,116.494,37.5343,0.0543773,1.09021,19.2516,77.4642,10.1372,0.0,0.0
834,208.25,78.8407,90.9922,125.173,116.372,41.2572,0.0563406,1.11585,19.2065,76.173,9.28132,0.0,0.0
840,209.75,80.892,92.8201,127.677,116.26,37.3276,0.0585161,1.14855,19.1635,75.132,10.1686,0.0,0.0
846,211.25,81.8299,94.4378,121.034,116.138,36.6493,0.0611126,1.18396,19.1116,74.5615,10.3233,0.0,0.0
852,212.75,83.0966,95.583,123.797,116.024,38.823,0.0640163,1.21879,19.0494,74.111,9.79881,0.0,0.0
858,214.25,84.9694,97.9084,122.791,115.913,34.703,0.0665352,1.25894,18.964,73.1701,10.7943,0.0,0.0
864,215.75,86.234,99.7392,114.819,115.854,36.85,0.0691956,1.30395,18.8841,73.5205,10.2525,0.0,0.0
870,217.25,87.2992,101.063,114.134,115.941,39.1181,0.0714272,1.34654,18.812,73.3203,9.72463,0.0,0.0
876,218.75,89.4021,103.526,107.46,116.157,39.5148,0.0733239,1.38453,18.748,72.9699,9.65102,0.0,0.0
882,220.25,90.8574,105.659,114.702,116.319,39.3174,0.074907,1.42094,18.698,72.0591,9.70829,0.0,0.0
888,221.75,92.6394,107.412,118.723,116.439,36.7686,0.0762997,1.44695,18.6644,70.998,10.3174,0.0,0.0
894,223.25,94.1185,109.615,118.558,116.505,33.7544,0.0774968,1.46423,18.6394,69.6668,11.088,0.0,0.0
900,224.75,94.9984,110.688,117.268,116.533,37.2757,0.0785254,1.48031,18.6119,67.785,10.202,0.0,0.0
906,226.25,97.0596,112.782,125.064,116.485,40.0387,0.0791183,1.49671,18.5856,67.3946,9.55834,0.0,0.0
912,227.75,98.3717,114.773,114.369,116.399,38.1363,0.0791293,1.51384,18.5618,67.0342,9.98743,0.0,0.0
918,229.25,99.5303,116.043,121.321,116.27,38.5877,0.0785469,1.53012,18.5499,66.6138,9.87219,0.0,0.0
924,230.75,101.358,117.96,111.79,116.107,40.3731,0.0774663,1.53991,18.5438,66.1834,9.45476,0.0,0.0
930,232.25,102.324,119.256,123.541,115.854,39.3651,0.0764146,1.53477,18.5553,65.8031,9.66155,0.0,0.0
936,233.75,103.73,121.34,121.009,115.614,36.9674,0.0746178,1.51284,18.5919,65.5028,10.2055,0.0,0.0
942,235.25,104.549,122.643,126.764,115.619,36.1306,0.0731177,1.47644,18.6557,65.1725,10.4108,0.0,0.0
948,236.75,105.419,123.463,122.691,115.666,38.641,0.071935,1.44159,18.7115,64.8221,9.8132,0.0,0.0
954,238.25,105.56,123.86,125.172,115.717,40.6926,0.0710956,1.41978,18.7469,64.5018,9.35412,0.0,0.0
960,239.75,106.584,124.376,130.547,115.792,37.4903,0.0704601,1.39998,18.7883,64.1215,10.0935,0.0,0.0
966,241.25,106.992,125.223,126.712,115.85,38.931,0.0696529,1.36807,18.8497,63.8712,9.76051,0.0,0.0
972,242.75,107.78,125.782,127.624,115.895,36.1353,0.0683558,1.3397,18.9184,63.5209,10.431,0.0,0.0
978,244.25,108.411,126.153,127.722,115.931,37.7186,0.0670558,1.29432,18.984,63.1605,10.05,0.0,0.0
984,245.75,107.874,126.084,123.128,115.943,36.1334,0.0657834,1.25537,19.0353,62.9503,10.4351,0.0,0.0
990,247.25,107.246,125.728,128.708,115.939,37.9141,0.0644038,1.22413,19.0694,62.61,10.0043,0.0,0.0
996,248.75,108.222,126.322,126.222,115.911,37.8566,0.0630955,1.19345,19.1209,62.3498,10.0157,0.0,0.0
1002,250.25,108.589,126.475,131.832,115.923,36.1484,0.0619624,1.15985,19.1775,62.0094,10.4299,0.0,0.0
1008,251.75,107.947,126.598,130.558,115.885,35.5033,0.061039,1.13049,19.2168,61.6291,10.5881,0.0,0.0
1014,253.25,107.615,125.978,126.715,115.847,38.5634,0.0604058,1.11045,19.2386,61.3188,9.84518,0.0,0.0
1020,254.75,108.015,125.726,128.252,115.764,36.2298,0.0599195,1.09889,19.251,61.0085,10.3975,0.0,0.0
1026,256.25,107.866,125.236,132.996,115.668,37.5254,0.0595882,1.09187,19.2622,60.7883,10.0756,0.0,0.0
1032,257.75,107.697,125.325,137.852,115.549,38.1213,0.0593187,1.08592,19.2731,60.518,9.9253,0.0,0.0
1038,259.25,107.284,124.997,128.708,115.417,38.8169,0.0588515,1.07369,19.2956,60.2477,9.75329,0.0,0.0
1044,260.75,106.887,124.637,127.129,115.273,35.9543,0.058153,1.05721,19.3305,59.9575,10.4278,0.0,0.0
1050,262.25,106.995,124.236,131.651,115.151,38.6672,0.0568444,1.03756,19.3681,59.6572,9.76723,0.0,0.0
1056,263.75,106.686,123.857,137.072,115.002,39.8141,0.0551232,1.01608,19.4082,59.4169,9.49401,0.0,0.0
1062,265.25,106.277,123.438,131.885,114.85,38.8417,0.0533653,0.991369,19.4441,59.1667,9.70348,0.0,0.0
1068,266.75,105.93,123.082,138.661,114.708,40.9803,0.0516611,0.97015,19.4862,58.8564,9.21272,0.0,0.0
1074,268.25,105.679,122.781,134.21,114.596,38.5274,0.0501318,0.946545,19.5303,58.6462,9.75637,0.0,0.0
1080,269.75,105.839,121.975,136.346,114.472,38.6176,0.0486403,0.924552,19.562,58.3659,9.72578,0.0,0.0
1086,271.25,104.926,121.606,140.697,114.377,40.3165,0.0475678,0.906833,19.5856,58.1057,9.33299,0.0,0.0
1092,272.75,103.736,120.165,134.395,114.324,38.2402,0.0466812,0.893624,19.6045,57.9255,9.80207,0.0,0.0
1098,274.25,103.501,120.316,135.537,114.292,39.7982,0.0459857,0.882623,19.6168,57.6152,9.4421,0.0,0.0
1104,275.75,103.805,119.481,134.051,114.285,40.0307,0.0450833,0.875725,19.6253,57.375,9.38949,0.0,0.0
1110,277.25,103.018,119.251,140.747,114.301,42.1272,0.044399,0.871674,19.631,57.1648,8.93382,0.0,0.0
1116,278.75,102.48,118.356,139.351,114.366,41.8012,0.0438268,0.866327,19.6393,56.8645,9.00847,0.0,0.0
1122,280.25,102.82,118.26,138.383,114.417,41.1388,0.0433522,0.860911,19.6499,56.6042,9.15542,0.0,0.0
1128,281.75,102.464,117.683,137.956,114.526,42.8265,0.0429502,0.849954,19.6706,56.374,8.80404,0.0,0.0
1134,283.25,101.572,116.938,135.709,114.649,46.1307,0.0425394,0.837994,19.6944,56.1538,8.14847,0.0,0.0
1140,284.75,101.397,116.573,137.962,114.788,42.5037,0.0421308,0.824383,19.7167,55.9136,8.89225,0.0,0.0
1146,286.25,101.379,115.473,143.944,114.934,41.0822,0.0416482,0.808742,19.745,55.7334,9.20804,0.0,0.0
1152,287.75,100.947,115.257,135.995,115.105,43.4079,0.0410652,0.792876,19.7776,55.5432,8.72852,0.0,0.0
1158,289.25,100.221,114.822,140.505,115.282,47.6616,0.0402695,0.774733,19.8053,55.313,7.90551,0.0,0.0
1164,290.75,99.6821,113.702,141.234,115.457,48.0223,0.0393166,0.760514,19.829,55.0628,7.85163,0.0,0.0
1170,292.25,99.1752,113.419,146.055,115.636,47.0741,0.0382943,0.747186,19.8546,54.8626,8.04402,0.0,0.0
1176,293.75,98.4737,112.72,141.946,115.809,45.742,0.0373283,0.731827,19.8807,54.6424,8.3143,0.0,0.0
1182,295.25,98.1676,111.84,142.882,115.947,46.1148,0.0365922,0.718576,19.899,54.4522,8.25229,0.0,0.0
1188,296.75,97.567,111.243,144.308,116.106,46.8678,0.0358233,0.706413,19.9174,54.262,8.1196,0.0,0.0
1194,298.25,96.396,109.926,143.879,116.23,51.0149,0.0349421,0.692528,19.94,54.0718,7.37026,0.0,0.0
1200,299.75,96.5794,109.954,145.134,116.357,47.1349,0.0341842,0.676282,19.9616,53.8816,8.0881,0.0,0.0
1206,301.25,95.7167,108.772,144.533,116.457,50.6903,0.0332063,0.662154,19.9872,53.6814,7.44487,0.0,0.0
1212,302.75,94.4197,106.918,150.61,116.545,52.3812,0.0323037,0.650864,20.0096,53.4512,7.15792,0.0,0.0
1218,304.25,94.5041,107.233,147.104,116.633,48.156,0.0314397,0.639165,20.031,53.3211,7.91746,0.0,0.0
1224,305.75,93.9183,106.556,147.055,116.667,49.8423,0.030668,0.627893,20.052,53.1009,7.61202,0.0,0.0
1230,307.25,93.1477,105.949,141.892,116.707,48.5209,0.0299667,0.617196,20.073,52.9507,7.85553,0.0,0.0
1236,308.75,92.4373,104.737,147.783,116.728,51.1249,0.0293596,0.608039,20.0897,52.7706,7.38924,0.0,0.0
1242,310.25,91.7804,104.159,148.279,116.721,54.9268,0.0287234,0.600047,20.1016,52.6304,6.74676,0.0,0.0
1248,311.75,91.6409,103.1,151.462,116.736,54.5961,0.0281082,0.592562,20.1154,52.4302,6.80189,0.0,0.0
1254,313.25,90.7683,102.977,151.001,116.721,52.5908,0.0275864,0.584511,20.1336,52.2601,7.13571,0.0,0.0
1260,314.75,90.8216,102.024,148.845,116.683,55.9301,0.0271773,0.575295,20.151,52.0999,6.58177,0.0,0.0
1266,316.25,89.6192,101.143,148.121,116.645,54.734,0.026919,0.567528,20.1632,51.9798,6.77234,0.0,0.0
1272,317.75,89.2011,100.301,149.762,116.593,56.2028,0.0267484,0.561873,20.1716,51.8097,6.53138,0.0,0.0
1278,319.25,88.859,99.7642,145.835,116.548,54.5816,0.0264504,0.556916,20.1803,51.5994,6.78989,0.0,0.0
1284,320.75,88.2687,98.7871,148.431,116.482,58.8952,0.0259916,0.552374,20.1915,51.4693,6.10403,0.0,0.0
1290,322.25,87.5291,98.1019,146.294,116.428,57.8493,0.0254232,0.547217,20.2013,51.3192,6.2602,0.0,0.0
1296,323.75,87.2298,97.5741,147.206,116.358,55.8024,0.0249126,0.540991,20.2109,51.149,6.57732,0.0,0.0
1302,325.25,86.4965,96.9028,146.299,116.307,55.061,0.0244201,0.534861,20.2227,50.9889,6.69304,0.0,0.0
1308,326.75,86.0161,96.1874,148.818,116.222,55.7809,0.0239129,0.527486,20.2355,50.8287,6.5703,0.0,0.0
1314,328.25,85.4036,95.0802,148.564,116.179,56.9437,0.0234851,0.521116,20.2476,50.7186,6.38229,0.0,0.0
1320,329.75,84.6067,94.506,154.179,116.119,58.1318,0.0231144,0.515776,20.2574,50.5284,6.19285,0.0,0.0
1326,331.25,84.7855,94.1874,150.917,116.086,57.9559,0.0225806,0.511431,20.264,50.4183,6.21738,0.0,0.0
1332,332.75,84.1377,93.2341,150.43,116.02,61.516,0.0220847,0.508632,20.2684,50.2682,5.67876,0.0,0.0
1338,334.25,82.7759,91.9984,152.268,116.005,58.672,0.0215193,0.505725,20.2748,50.108,6.10126,0.0,0.0
1344,335.75,82.7548,91.6544,155.512,115.967,61.1581,0.0212534,0.503255,20.2793,49.9479,5.72686,0.0,0.0
1350,337.25,81.5615,91.0249,150.881,115.932,60.4696,0.0210459,0.499572,20.2839,49.8378,5.82553,0.0,0.0
1356,338.75,82.3342,90.8956,154.461,115.9,60.1862,0.0209073,0.496709,20.2915,49.6676,5.8651,0.0,0.0
1362,340.25,82.3026,90.7638,147.841,115.886,60.0711,0.0207876,0.492375,20.2999,49.5475,5.88118,0.0,0.0
1368,341.75,80.405,89.2531,149.688,115.857,60.3087,0.0206684,0.488325,20.3062,49.4174,5.84357,0.0,0.0
1374,343.25,80.9708,89.5642,149.211,115.846,60.914,0.0205659,0.484901,20.3118,49.2772,5.75332,0.0,0.0
1380,344.75,80.1846,88.6365,153.169,115.882,60.8887,0.0205371,0.481504,20.3162,49.1671,5.75985,0.0,0.0
1386,346.25,79.4824,87.783,149.157,115.963,62.5605,0.0205432,0.47853,20.3196,48.9869,5.52363,0.0,0.0
1392,347.75,79.1949,87.4301,153.15,116.02,62.5899,0.0204877,0.476588,20.3236,48.8368,5.52385,0.0,0.0
1398,349.25,79.2179,87.3959,152.88,116.081,59.8377,0.0203422,0.474535,20.3285,48.7167,5.93103,0.0,0.0
1404,350.75,78.8809,86.9848,151.756,116.135,62.2288,0.0201606,0.471559,20.3349,48.5565,5.58447,0.0,0.0
1410,352.25,78.2974,85.651,150.641,116.172,62.4103,0.0199108,0.468567,20.3405,48.4464,5.56128,0.0,0.0
1416,353.75,77.5075,85.2243,148.569,116.189,64.184,0.0196181,0.46588,20.346,48.3063,5.31175,0.0,0.0
1422,355.25,77.6643,84.7526,149.877,116.147,61.9122,0.0193617,0.463272,20.3511,48.1862,5.6311,0.0,0.0
1428,356.75,77.4889,84.8457,149.305,116.125,63.8248,0.0191718,0.460545,20.3582,48.036,5.35705,0.0,0.0
1434,358.25,76.3198,84.333,145.816,116.101,62.0707,0.0190355,0.45728,20.3633,47.9059,5.60468,0.0,0.0
1440,359.75,75.863,83.2912,149.424,116.121,59.8498,0.0189237,0.454934,20.366,47.7758,5.93234,0.0,0.0
1446,361.25,75.9452,83.3368,153.624,116.15,65.0026,0.0188134,0.453468,20.3674,47.6457,5.1953,0.0,0.0
1452,362.75,76.0953,83.1611,153.899,116.181,63.8454,0.0186489,0.452594,20.3686,47.5255,5.35852,0.0,0.0
1458,364.25,74.8916,82.4994,153.155,116.203,65.6944,0.0183723,0.451335,20.3715,47.4054,5.10465,0.0,0.0
1464,365.75,75.0675,81.8153,157.311,116.223,65.0835,0.018035,0.448824,20.3775,47.2453,5.18985,0.0,0.0
1470,367.25,75.2165,81.5109,150.17,116.246,63.3931,0.0177166,0.445874,20.3823,47.1452,5.42716,0.0,0.0
1476,368.75,74.4266,81.143,154.447,116.265,65.773,0.0174716,0.443392,20.3855,47.0251,5.09877,0.0,0.0
1482,370.25,74.3176,81.0222,151.126,116.268,62.7429,0.0173363,0.440426,20.3914,46.905,5.52109,0.0,0.0
1488,371.75,73.9469,80.826,146.885,116.284,63.2396,0.017313,0.437283,20.3972,46.7748,5.45173,0.0,0.0
1494,373.25,72.7237,79.0786,147.649,116.279,65.3258,0.0173438,0.434382,20.4009,46.6847,5.16091,0.0,0.0
1500,374.75,72.9862,79.6827,152.045,116.268,68.5472,0.0173478,0.430731,20.4095,46.5146,4.72917,0.0,0.0
1506,376.25,73.0091,79.0645,154.739,116.262,67.4026,0.0173079,0.426115,20.4197,46.4545,4.87942,0.0,0.0
1512,377.75,72.7025,79.1319,157.554,116.276,68.6787,0.017158,0.421847,20.4271,46.3144,4.71268,0.0,0.0
1518,379.25,72.3735,78.5402,157.517,116.242,70.0394,0.0169497,0.417939,20.4323,46.1743,4.53442,0.0,0.0
1524,380.75,71.5143,77.9315,156.808,116.228,68.231,0.0166466,0.415316,20.4369,46.1242,4.76753,0.0,0.0
1530,382.25,71.7765,77.6672,158.249,116.196,68.8405,0.0163207,0.412736,20.4415,45.9741,4.68542,0.0,0.0
1536,383.75,71.2868,77.4341,155.586,116.177,66.8502,0.015988,0.409097,20.45,45.8339,4.94653,0.0,0.0
1542,385.25,70.4281,76.4727,156.081,116.155,68.8513,0.0157772,0.405545,20.456,45.7238,4.68089,0.0,0.0
1548,386.75,70.582,76.5225,153.172,116.121,71.0904,0.0157404,0.402714,20.4603,45.6337,4.39178,0.0,0.0
1554,388.25,70.0037,76.1245,155.22,116.089,69.3639,0.0157919,0.400386,20.4633,45.5236,4.60938,0.0,0.0
1560,389.75,70.2047,75.4442,156.537,116.064,71.6821,0.0157656,0.398289,20.4679,45.3935,4.31323,0.0,0.0
1566,391.25,70.0461,75.6903,154.702,116.045,71.5264,0.0156108,0.395423,20.4745,45.2634,4.33126,0.0,0.0
1572,392.75,69.7475,74.9884,152.91,116.016,70.6727,0.0154799,0.392347,20.4792,45.1533,4.43645,0.0,0.0
1578,394.25,69.126,74.2087,154.207,115.969,68.2764,0.0150537,0.390433,20.4826,45.0832,4.74159,0.0,0.0
1584,395.75,68.8076,74.3098,154.147,115.922,69.5782,0.014616,0.388723,20.4858,44.9731,4.56894,0.0,0.0
1590,397.25,69.4173,74.4999,156.202,115.873,74.2365,0.014228,0.385911,20.4939,44.903,3.98511,0.0,0.0
1596,398.75,68.3729,73.3737,158.303,115.826,72.0437,0.0140107,0.381597,20.5021,44.8029,4.24983,0.0,0.0
1602,400.25,67.907,73.1543,151.583,115.84,71.2733,0.0139182,0.377643,20.5085,44.6628,4.34711,0.0,0.0
1608,401.75,67.5804,72.9143,155.539,115.831,73.8988,0.0138393,0.374111,20.5132,44.5827,4.02268,0.0,0.0
1614,403.25,67.5293,72.787,155.051,115.856,71.415,0.0137118,0.371149,20.5185,44.4726,4.33055,0.0,0.0
1620,404.75,66.8866,71.8,155.834,115.857,75.4162,0.0135781,0.368658,20.5228,44.3925,3.8427,0.0,0.0
1626,406.25,66.8687,71.8951,157.038,115.885,71.8005,0.0134139,0.365962,20.5284,44.2624,4.28469,0.0,0.0
1632,407.75,66.7239,71.3558,157.906,115.904,74.911,0.0131963,0.362654,20.534,44.2224,3.90651,0.0,0.0
1638,409.25,66.2256,71.4341,155.321,115.922,77.2951,0.0129285,0.360145,20.5386,44.1323,3.62749,0.0,0.0
1644,410.75,64.9513,70.0326,155.786,115.957,77.9874,0.0126659,0.358048,20.5436,44.0222,3.55036,0.0,0.0
1650,412.25,65.958,70.1285,156.995,115.989,80.0586,0.0125039,0.354757,20.5501,43.9321,3.31828,0.0,0.0
1656,413.75,65.6725,69.8504,156.989,116.043,75.085,0.012534,0.350637,20.5572,43.852,3.89652,0.0,0.0
1662,415.25,65.437,69.7559,159.039,116.057,79.1039,0.0127136,0.347004,20.5624,43.7719,3.43088,0.0,0.0
1668,416.75,64.8826,69.4526,154.534,116.092,77.6436,0.0129179,0.34366,20.5672,43.6919,3.60036,0.0,0.0
1674,418.25,64.6655,68.737,154.286,116.122,80.0811,0.0130428,0.339944,20.5747,43.6118,3.326,0.0,0.0
1680,419.75,63.9185,68.4556,157.662,116.162,82.0152,0.0131313,0.335495,20.5843,43.5217,3.11549,0.0,0.0
1686,421.25,64.0918,68.215,159.53,116.212,81.4946,0.0132141,0.331521,20.5913,43.4316,3.17634,0.0,0.0
1692,422.75,63.3374,67.8383,158.793,116.272,81.0133,0.0132437,0.328082,20.5965,43.3315,3.23396,0.0,0.0
1698,424.25,63.6056,67.9655,155.645,116.325,80.9492,0.0132164,0.324373,20.6024,43.2314,3.24515,0.0,0.0
1704,425.75,63.89,67.4017,163.096,116.386,83.6355,0.0131335,0.319478,20.6117,43.1714,2.95758,0.0,0.0
1710,427.25,63.1736,66.5391,155.331,116.437,80.2242,0.0129466,0.314449,20.6213,43.1113,3.3343,0.0,0.0
1716,428.75,63.0072,66.1,160.625,116.485,84.2099,0.0125642,0.309732,20.6277,43.0312,2.90394,0.0,0.0
1722,430.25,62.547,65.7751,154.125,116.535,84.5808,0.0122162,0.306377,20.6334,42.9612,2.86848,0.0,0.0
1728,431.75,62.1121,65.8395,156.862,116.589,85.5608,0.0119949,0.303789,20.6385,42.8711,2.76954,0.0,0.0
1734,433.25,61.3434,65.4986,158.593,116.627,84.6141,0.0119267,0.301635,20.6443,42.831,2.87203,0.0,0.0
1740,434.75,61.8315,65.2289,156.769,116.671,83.6154,0.0119689,0.299125,20.6495,42.7209,2.98163,0.0,0.0
1746,436.25,61.2062,64.6791,159.303,116.694,85.9841,0.0120051,0.295898,20.655,42.6609,2.7334,0.0,0.0
1752,437.75,60.7012,64.2759,164.114,116.712,87.1212,0.0119557,0.291972,20.6614,42.6108,2.6172,0.0,0.0
1758,439.25,59.8988,63.4016,162.517,116.709,87.4594,0.0117439,0.287782,20.6683,42.5007,2.58231,0.0,0.0
1764,440.75,60.3138,64.0049,162.029,116.72,90.3674,0.0115423,0.284085,20.6754,42.4707,2.29034,0.0,0.0
1770,442.25,60.0471,63.3979,159.699,116.686,85.5196,0.0114226,0.281612,20.6799,42.3606,2.7813,0.0,0.0
1776,443.75,59.0377,62.173,162.043,116.658,87.1381,0.0113862,0.279528,20.684,42.3106,2.61135,0.0,0.0
1782,445.25,58.9033,62.5314,158.501,116.592,86.5543,0.0113854,0.277042,20.6897,42.2405,2.66642,0.0,0.0
1788,446.75,58.7285,61.499,162.069,116.54,88.4866,0.0113702,0.273627,20.6953,42.1604,2.46479,0.0,0.0
1794,448.25,58.9146,61.9082,162.929,116.444,88.9066,0.0113685,0.27004,20.702,42.1404,2.41504,0.0,0.0
1800,449.75,57.9733,60.5264,163.815,116.358,89.2153,0.011464,0.266269,20.7074,42.1104,2.37744,0.0,0.0
1806,451.25,57.9162,61.0387,161.323,116.25,90.163,0.0116557,0.263144,20.7131,42.0403,2.27452,0.0,0.0
1812,452.75,58.1112,60.6928,162.033,116.132,88.9216,0.0117421,0.260272,20.7182,42.0003,2.38954,0.0,0.0
1818,454.25,57.3274,60.2713,162.398,115.994,89.5386,0.0117294,0.256847,20.7238,41.9302,2.31699,0.0,0.0
1824,455.75,57.5441,59.8838,161.809,115.887,89.3987,0.0115936,0.254597,20.7279,41.8601,2.32272,0.0,0.0
1830,457.25,56.5353,59.7712,160.282,115.745,91.4559,0.0113794,0.252074,20.7323,41.8001,2.10811,0.0,0.0
1836,458.75,56.7323,59.3271,162.621,115.614,91.9914,0.0111631,0.249463,20.737,41.77,2.04573,0.0,0.0
1842,460.25,55.9581,58.6361,162.832,115.477,89.6017,0.0109575,0.2468,20.7425,41.7,2.27067,0.0,0.0
1848,461.75,55.9877,58.295,163.455,115.326,92.8474,0.0107565,0.243964,20.7478,41.6499,1.94048,0.0,0.0
1854,463.25,55.6586,57.7074,168.738,115.184,95.3232,0.0105761,0.241504,20.753,41.5899,1.69391,0.0,0.0
1860,464.75,55.3334,57.3119,159.045,115.058,93.6716,0.0105286,0.238355,20.7588,41.5598,1.84061,0.0,0.0
1866,466.25,55.1548,57.3806,161.358,114.906,91.9194,0.0105885,0.235459,20.7635,41.5098,1.99773,0.0,0.0
1872,467.75,54.439,56.6699,163.19,114.764,92.5813,0.0106515,0.23299,20.7682,41.4597,1.92247,0.0,0.0
1878,469.25,54.5643,56.723,165.998,114.649,93.1141,0.0106761,0.230566,20.7718,41.4297,1.86211,0.0,0.0
1884,470.75,54.0184,56.2321,170.27,114.553,93.1328,0.0106663,0.228324,20.7758,41.3296,1.85283,0.0,0.0
1890,472.25,53.9356,55.8535,163.566,114.446,93.1655,0.0106878,0.22622,20.7802,41.3096,1.84135,0.0,0.0
1896,473.75,53.6211,55.5805,164.682,114.377,93.5776,0.0106957,0.223817,20.7847,41.2495,1.7964,0.0,0.0
1902,475.25,53.4193,54.9047,165.481,114.323,94.9734,0.0106969,0.221474,20.7893,41.2195,1.65972,0.0,0.0
1908,476.75,53.0183,54.7029,163.052,114.281,96.6858,0.010722,0.219424,20.794,41.2095,1.49648,0.0,0.0
1914,478.25,51.9494,54.1132,167.17,114.26,93.7016,0.0107326,0.216387,20.7998,41.1394,1.77545,0.0,0.0
1920,479.75,52.2463,54.5357,164.836,114.253,97.408,0.0107082,0.213282,20.8055,41.0994,1.42767,0.0,0.0
1926,481.25,52.0917,54.2192,165.009,114.286,98.0895,0.0106413,0.210416,20.81,41.0593,1.36787,0.0,0.0
1932,482.75,50.6032,52.6948,167.336,114.323,96.9421,0.010589,0.207969,20.8125,40.9993,1.47604,0.0,0.0
1938,484.25,51.587,53.1078,163.054,114.399,96.9772,0.0105771,0.205961,20.8156,40.9593,1.47872,0.0,0.0
1944,485.75,50.6629,51.7532,165.961,114.465,97.9581,0.0106116,0.203881,20.818,40.9492,1.39384,0.0,0.0
1950,487.25,51.3168,52.2582,168.507,114.56,98.6087,0.0106087,0.201861,20.8214,40.8592,1.34204,0.0,0.0
1956,488.75,50.7704,52.0662,164.056,114.669,98.2832,0.0105731,0.199934,20.8242,40.8291,1.38014,0.0,0.0
1962,490.25,50.8312,52.1534,163.545,114.759,100.906,0.0105539,0.19761,20.8296,40.7991,1.15142,0.0,0.0
1968,491.75,50.2768,51.0977,169.107,114.869,99.7313,0.0105959,0.194825,20.8352,40.7791,1.26478,0.0,0.0
1974,493.25,49.5374,51.1619,166.113,114.992,101.513,0.0106892,0.19157,20.8403,40.7491,1.11587,0.0,0.0
1980,494.75,49.4881,50.5767,171.381,115.1,101.89,0.0107893,0.188114,20.8462,40.719,1.09109,0.0,0.0
1986,496.25,49.3961,50.377,165.752,115.221,101.314,0.010878,0.185163,20.8508,40.709,1.15129,0.0,0.0
1992,497.75,49.3048,50.1247,163.655,115.33,102.333,0.011004,0.183012,20.8533,40.6389,1.07016,0.0,0.0
1998,499.25,48.8271,49.7094,166.895,115.421,101.66,0.0111647,0.181227,20.8551,40.6089,1.13629,0.0,0.0
2004,500.75,48.9909,49.9247,163.946,115.539,103.421,0.011336,0.179547,20.8575,40.5889,0.991736,0.0,0.0
2010,502.25,47.8834,49.1476,163.875,115.649,102.289,0.0115035,0.178209,20.8601,40.5589,1.09878,0.0,0.0
2016,503.75,48.3043,49.144,170.907,115.734,102.643,0.0116398,0.177091,20.862,40.5088,1.07439,0.0,0.0
2022,505.25,48.0156,49.1156,165.622,115.797,101.395,0.0117793,0.175821,20.8644,40.5088,1.18876,0.0,0.0
2028,506.75,47.2467,48.3872,165.811,115.861,101.869,0.0118912,0.174229,20.8668,40.4888,1.15197,0.0,0.0
2034,508.25,47.3413,48.2008,167.016,115.884,101.754,0.0119896,0.172978,20.8686,40.4588,1.16382,0.0,0.0
2040,509.75,47.221,47.687,165.632,115.917,101.343,0.0120883,0.172021,20.8701,40.4388,1.20266,0.0,0.0
2046,511.25,47.1394,47.1956,167.357,115.914,102.05,0.0122218,0.170625,20.872,40.4087,1.14012,0.0,0.0
2052,512.75,46.315,47.4415,173.811,115.914,104.621,0.0123981,0.168861,20.8752,40.3487,0.91744,0.0,0.0
2058,514.25,45.9308,46.7112,168.716,115.934,104.056,0.0125434,0.16702,20.8786,40.3086,0.967467,0.0,0.0
2064,515.75,46.1366,46.4017,164.94,115.943,102.711,0.0126265,0.165373,20.8812,40.2986,1.08465,0.0,0.0
2070,517.25,45.2424,45.4438,167.409,115.911,104.394,0.0126856,0.163949,20.884,40.2386,0.936656,0.0,0.0
2076,518.75,45.4596,46.0551,169.885,115.89,102.97,0.0127376,0.162562,20.8855,40.2286,1.05798,0.0,0.0
2082,520.25,45.4544,45.7211,170.153,115.839,102.969,0.0127619,0.161573,20.8869,40.1985,1.05409,0.0,0.0
2088,521.75,44.8087,45.425,164.208,115.804,103.507,0.0127776,0.160919,20.8881,40.1685,1.00483,0.0,0.0
2094,523.25,44.6469,45.3495,169.74,115.748,103.876,0.0127786,0.16027,20.89,40.1084,0.968596,0.0,0.0
2100,524.75,44.8016,45.0728,168.825,115.7,104.462,0.0127641,0.159022,20.8926,40.0984,0.91455,0.0,0.0
2106,526.25,44.6141,45.1018,167.762,115.653,104.772,0.0127612,0.157181,20.8956,40.0584,0.884371,0.0,0.0
2112,527.75,44.4683,44.8315,166.048,115.628,106.024,0.0128076,0.155104,20.8986,40.0484,0.776156,0.0,0.0
2118,529.25,44.1505,44.2781,167.764,115.586,105.036,0.0128919,0.153197,20.9011,40.0284,0.856724,0.0,0.0
2124,530.75,43.9246,44.7506,167.663,115.819,106.032,0.0129416,0.151749,20.9038,39.9883,0.790188,0.0,0.0
2130,532.25,43.1621,43.8001,171.176,116.041,106.097,0.0129482,0.150679,20.9063,39.9583,0.801882,0.0,0.0
2136,533.75,42.8307,43.4497,167.764,116.235,105.929,0.0129786,0.149866,20.9081,39.9383,0.831005,0.0,0.0
2142,535.25,43.0152,43.1622,171.459,116.358,106.467,0.0130453,0.149145,20.909,39.9283,0.795199,0.0,0.0
2148,536.75,42.9474,43.0781,174.953,116.467,107.354,0.0130853,0.148395,20.9111,39.9283,0.729284,0.0,0.0
2154,538.25,42.7632,42.6741,170.571,116.508,107.016,0.0130978,0.14729,20.9128,39.8682,0.760645,0.0,0.0
2160,539.75,42.2091,42.4304,174.203,116.533,106.594,0.0131799,0.145846,20.9153,39.8582,0.797943,0.0,0.0
2166,541.25,42.2311,42.3009,169.489,116.488,107.881,0.013377,0.144654,20.9172,39.8382,0.68702,0.0,0.0
2172,542.75,41.7328,41.8012,171.559,116.406,108.319,0.0137183,0.143564,20.9192,39.8282,0.644446,0.0,0.0
2178,544.25,41.7191,41.7993,165.756,116.286,106.04,0.0139746,0.142512,20.9204,39.7781,0.825596,0.0,0.0
2184,545.75,41.3355,41.5436,169.648,116.094,106.931,0.014081,0.141819,20.9218,39.7581,0.735904,0.0,0.0
2190,547.25,41.4972,41.5031,170.651,115.862,106.415,0.0141233,0.141118,20.9229,39.7481,0.76131,0.0,0.0
2196,548.75,40.587,40.5677,172.141,115.867,107.067,0.0142955,0.140057,20.9258,39.7181,0.706992,0.0,0.0
2202,550.25,40.8193,40.855,174.796,115.955,106.471,0.0146191,0.138074,20.9307,39.698,0.76377,0.0,0.0
2208,551.75,40.3153,40.8864,169.673,116.05,106.299,0.0149846,0.134634,20.9352,39.668,0.785537,0.0,0.0
2214,553.25,39.9621,39.9978,170.556,116.173,107.11,0.0153258,0.131247,20.9387,39.638,0.727011,0.0,0.0
2220,554.75,39.4745,39.6337,173.379,116.29,106.338,0.0156054,0.128082,20.9415,39.628,0.80077,0.0,0.0
2226,556.25,39.289,39.5643,171.936,116.417,107.951,0.0158111,0.125905,20.9438,39.618,0.675817,0.0,0.0
2232,557.75,38.6111,38.2539,173.614,116.522,107.512,0.0159668,0.124247,20.9454,39.5979,0.720274,0.0,0.0
2238,559.25,39.0587,38.6552,165.637,116.627,108.085,0.0161147,0.123222,20.9462,39.5779,0.680771,0.0,0.0
2244,560.75,38.5606,38.7244,172.555,116.679,107.898,0.0161964,0.122701,20.9474,39.5379,0.700294,0.0,0.0
2250,562.25,38.582,37.9787,172.55,116.715,108.395,0.0161976,0.122401,20.9482,39.5179,0.661981,0.0,0.0
2256,563.75,38.5053,38.4279,173.648,116.707,109.013,0.0161792,0.121906,20.9488,39.4979,0.61042,0.0,0.0
2262,565.25,38.4182,37.8624,173.728,116.667,107.676,0.0161723,0.121525,20.9491,39.4778,0.717811,0.0,0.0
2268,566.75,37.9935,37.9592,173.782,116.576,108.113,0.0161644,0.121197,20.9492,39.4478,0.674615,0.0,0.0
2274,568.25,38.0107,37.3489,173.571,116.457,106.64,0.0161709,0.121028,20.9493,39.4478,0.788167,0.0,0.0
2280,569.75,37.7216,36.9866,172.079,116.282,107.197,0.0162112,0.120918,20.9494,39.4678,0.728164,0.0,0.0
2286,571.25,38.1126,36.7038,175.748,116.107,107.097,0.0162308,0.120986,20.9505,39.4278,0.723064,0.0,0.0
2292,572.75,36.465,35.9132,173.317,115.892,106.902,0.0161575,0.121008,20.9511,39.4078,0.722643,0.0,0.0
2298,574.25,36.6273,36.9361,170.871,115.676,107.268,0.0159885,0.121001,20.9514,39.3677,0.675457,0.0,0.0
2304,575.75,36.7569,36.7137,168.06,115.428,106.64,0.0158119,0.120972,20.9516,39.3677,0.708731,0.0,0.0
2310,577.25,36.9744,36.6432,173.088,115.21,106.459,0.0156835,0.120764,20.9519,39.3277,0.707075,0.0,0.0
2316,578.75,36.7988,35.6228,173.426,114.981,106.252,0.0156303,0.120623,20.9529,39.3277,0.706665,0.0,0.0
2322,580.25,35.722,34.7054,174.215,114.775,106.112,0.0155923,0.120299,20.9541,39.3077,0.702397,0.0,0.0
2328,581.75,35.8036,35.8604,172.144,114.596,105.715,0.0154965,0.119994,20.9552,39.2877,0.722029,0.0,0.0
2334,583.25,36.3917,35.6214,172.957,114.446,106.58,0.0153576,0.119772,20.9558,39.2676,0.637339,0.0,0.0
2340,584.75,34.9858,34.3407,169.774,114.344,105.188,0.015227,0.119774,20.9554,39.2276,0.747039,0.0,0.0
2346,586.25,35.8659,35.8764,175.09,114.289,106.083,0.0151365,0.119865,20.9548,39.2176,0.666828,0.0,0.0
2352,587.75,36.0937,35.5353,171.919,114.313,105.959,0.0151053,0.120012,20.9545,39.1976,0.679235,0.0,0.0
2358,589.25,35.7104,34.7425,175.849,114.349,105.433,0.0150925,0.1202,20.9543,39.1675,0.726573,0.0,0.0
2364,590.75,35.5409,34.9479,170.404,114.447,106.331,0.0150718,0.120459,20.9542,39.1375,0.658337,0.0,0.0
2370,592.25,35.6385,34.5943,170.389,114.568,106.078,0.0150406,0.120624,20.9549,39.1275,0.689161,0.0,0.0
2376,593.75,34.7095,34.6976,169.583,114.757,105.507,0.0150081,0.120723,20.9547,39.1375,0.752213,0.0,0.0
2382,595.25,35.2279,35.0009,172.698,114.933,105.831,0.0149824,0.120712,20.9551,39.1175,0.738453,0.0,0.0
2388,596.75,34.766,34.3699,167.111,115.134,107.049,0.0149587,0.120528,20.9553,39.0774,0.651661,0.0,0.0
2394,598.25,34.9681,34.4481,171.633,115.315,106.67,0.0149186,0.120028,20.9554,39.0474,0.697558,0.0,0.0
2400,599.75,34.922,34.0819,171.209,115.507,106.537,0.0148501,0.119525,20.9554,39.0274,0.723531,0.0,0.0
2406,601.25,35.0653,34.354,172.861,115.653,107.273,0.0147624,0.119228,20.9553,39.0074,0.673219,0.0,0.0
2412,602.75,34.8063,33.6656,173.376,115.767,107.704,0.0146782,0.119245,20.9552,38.9974,0.646167,0.0,0.0
2418,604.25,34.3934,33.6397,170.039,115.854,106.515,0.0146126,0.119604,20.9552,38.9774,0.752205,0.0,0.0
2424,605.75,34.4394,33.7321,171.585,115.914,107.308,0.0145899,0.119738,20.9551,38.9874,0.690411,0.0,0.0
2430,607.25,34.2604,33.3929,167.193,115.907,107.45,0.0146339,0.119494,20.9551,38.9774,0.678095,0.0,0.0
2436,608.75,34.2614,33.4687,171.244,115.872,107.018,0.0147737,0.11947,20.9562,38.9373,0.711456,0.0,0.0
2442,610.25,34.5739,33.557,174.721,115.864,106.628,0.0148454,0.119671,20.9568,38.9273,0.743496,0.0,0.0
2448,611.75,33.2768,32.4406,170.366,115.83,107.565,0.0148174,0.119901,20.9571,38.8873,0.662632,0.0,0.0
2454,613.25,33.5609,33.0611,172.075,115.767,106.794,0.0147522,0.12013,20.9573,38.8873,0.722129,0.0,0.0
2460,614.75,33.7367,33.2475,177.043,115.679,106.737,0.0146362,0.120181,20.9573,38.8773,0.720082,0.0,0.0
2466,616.25,34.0082,32.7887,174.191,115.61,106.916,0.0145212,0.120019,20.9574,38.8673,0.69968,0.0,0.0
2472,617.75,33.3807,32.6173,175.053,115.554,107.088,0.0144902,0.119444,20.9579,38.8472,0.680978,0.0,0.0
2478,619.25,32.8903,31.4729,170.872,115.692,106.976,0.014481,0.119092,20.9588,38.8272,0.701037,0.0,0.0
2484,620.75,33.0116,32.5385,177.157,116.007,108.012,0.0144315,0.11886,20.9592,38.7772,0.639136,0.0,0.0
2490,622.25,32.7906,31.8103,171.465,116.252,107.255,0.0143202,0.118669,20.9585,38.7772,0.720946,0.0,0.0
2496,623.75,33.3771,32.431,169.966,116.402,108.127,0.0141424,0.118748,20.9591,38.7571,0.660022,0.0,0.0
2502,625.25,32.9783,32.6924,172.175,116.493,107.896,0.0139449,0.118904,20.9597,38.7571,0.686212,0.0,0.0
2508,626.75,33.4194,32.4778,172.603,116.472,108.22,0.0138043,0.118821,20.9601,38.6971,0.657747,0.0,0.0
2514,628.25,32.801,32.5599,172.923,116.393,107.878,0.0137673,0.118625,20.9604,38.6971,0.679998,0.0,0.0
2520,629.75,32.6407,32.0431,170.845,116.242,107.733,0.0138359,0.118562,20.9605,38.6771,0.680389,0.0,0.0
2526,631.25,32.7071,31.8998,170.349,116.012,107.259,0.0139656,0.118752,20.9606,38.6671,0.702121,0.0,0.0
2532,632.75,32.7395,31.7044,176.56,115.806,106.126,0.0141069,0.119087,20.9606,38.647,0.781287,0.0,0.0
2538,634.25,32.7453,32.1523,170.557,115.926,106.912,0.0142337,0.119145,20.9606,38.6771,0.724491,0.0,0.0
2544,635.75,32.5489,31.6591,173.623,116.044,106.818,0.0142956,0.119139,20.9606,38.647,0.74149,0.0,0.0
2550,637.25,32.7421,31.7684,171.03,116.202,107.225,0.0142662,0.119,20.9606,38.627,0.719633,0.0,0.0
2556,638.75,32.8304,32.0786,173.92,116.363,107.029,0.0141957,0.118788,20.9613,38.597,0.748378,0.0,0.0
2562,640.25,32.0721,31.8413,171.589,116.513,107.487,0.0140892,0.118518,20.9621,38.567,0.721698,0.0,0.0
2568,641.75,32.86,31.2419,174.325,116.624,107.45,0.0140059,0.117982,20.9625,38.5369,0.733313,0.0,0.0
2574,643.25,32.224,32.0068,173.012,116.702,107.807,0.0139376,0.117564,20.9627,38.5169,0.709622,0.0,0.0
2580,644.75,32.3796,31.0803,170.187,116.723,108.263,0.0139051,0.11733,20.9628,38.4869,0.673452,0.0,0.0
2586,646.25,31.8741,31.6763,176.582,116.707,107.009,0.0139212,0.117203,20.9626,38.4669,0.77655,0.0,0.0
2592,647.75,31.9583,31.4173,171.667,116.628,107.784,0.0139696,0.117288,20.9624,38.4769,0.705823,0.0,0.0
2598,649.25,31.7326,31.1855,169.35,116.5,107.652,0.0140122,0.117453,20.9622,38.5069,0.706955,0.0,0.0
2604,650.75,31.4398,30.3383,171.308,116.32,107.228,0.0140464,0.117379,20.9622,38.4468,0.728464,0.0,0.0
2610,652.25,32.1014,30.4717,172.857,116.092,107.042,0.0140789,0.117206,20.9621,38.4368,0.726414,0.0,0.0
2616,653.75,31.9674,30.9661,172.322,115.859,106.936,0.0141209,0.117205,20.9621,38.4168,0.717298,0.0,0.0
2622,655.25,31.7874,31.717,175.019,115.57,107.421,0.0141648,0.117531,20.9621,38.3968,0.654455,0.0,0.0
2628,656.75,31.4964,30.9312,180.132,115.285,106.067,0.0141517,0.117769,20.9621,38.3568,0.745895,0.0,0.0
2634,658.25,30.9168,30.1073,176.192,115.01,105.834,0.0141037,0.117841,20.9617,38.3367,0.744219,0.0,0.0
2640,659.75,31.7207,30.9802,171.311,114.769,105.888,0.0140578,0.117748,20.9615,38.3367,0.720846,0.0,0.0
2646,661.25,31.0889,30.4619,170.73,114.564,106.063,,0.117601,,38.3267,0.690132,0.0,0.0
2652,662.75,31.5681,31.0449,177.187,114.432,105.465,,0.117475,,38.3468,0.730422,0.0,0.0
2658,664.25,31.6987,30.9567,173.284,114.349,105.713,,,,38.3367,0.702859,0.0,0.0
2664,665.75,31.9587,30.4038,175.924,114.334,105.224,,,,38.2967,0.74321,0.0,0.0
2670,667.25,31.6989,30.8908,172.732,114.392,105.528,,,,38.2667,0.721918,0.0,0.0
2676,668.75,31.4437,30.5034,168.892,114.498,106.11,,,,38.2767,0.680924,0.0,0.0
2682,670.25,31.2844,30.3515,172.587,114.648,105.997,,,,38.2266,0.702231,0.0,0.0
2684,670.75,31.2291,29.9119,173.01,114.707,105.559,,,,38.2667,0.743908,0.0,0.0