File: 01_Data/EPDM_Membrane/Cone/EPDM_Membrane_Cone_HF50-Frame+GridScan_220225_R3.csv
Names,Time,Stack TC,Smoke TC,Exh Press,Smoke Comp,Smoke Meas,CO Meter,CO2 Meter,O2 Meter,Sample Mass,Ext Coeff,Start Test,Flame Verif
Chan Gain,,500,500,1,1,1,1,1,1,1,1,1.0,1.0
Offset,,0,0,0.137915,0,0,0,0,0,0,0,0.0,0.0
Gain,,1,1,25.011,15.3125,15.3273,1,1,1,1.00096,1.02035,1.0,1.0
Units,sec,C,C,Pa,%,%,%,%,%,g,/m,,
Baseline,,32.1177,32.9673,175.844,115.493,111.267,-0.000186624,0.0431645,21.0584,-867.584,0.333716,,
10,2.25,29.2834,30.2168,172.168,116.005,112.642,6.26785e-06,0.0483055,21.0526,156.66,0.263302,0.0,0.0
20,4.75,30.0353,30.8672,177.297,116.035,112.621,-4.35909e-06,0.0479989,21.0525,156.66,0.267282,0.0,0.0
30,7.25,29.8229,30.6475,174.904,116.026,112.524,-0.000160692,0.0470096,21.0539,156.65,0.274293,0.0,0.0
40,9.75,30.3764,30.5656,175.625,116.043,112.305,-0.000294121,0.0456772,21.055,156.65,0.293131,0.0,0.0
50,12.25,30.2614,30.8111,180.663,116.043,112.277,-0.000311711,0.0446363,21.0562,156.68,0.295295,0.0,0.0
60,14.75,29.7199,29.9844,176.077,116.062,112.621,-0.00014635,0.0437596,21.0579,156.66,0.269408,0.0,0.0
70,17.25,30.2667,30.8794,172.882,116.048,111.574,-0.000162604,0.0429271,21.0584,156.61,0.351876,0.0,0.0
80,19.75,29.1434,30.9087,173.346,116.053,111.845,-0.000368558,0.0425924,21.0589,156.6,0.330572,0.0,0.0
90,22.25,30.3712,31.1188,179.891,116.036,111.49,-0.000486389,0.0422513,21.0603,156.61,0.35773,0.0,0.0
100,24.75,30.2424,31.3352,173.047,116.047,110.428,-0.000396513,0.0422707,21.0608,156.62,0.444173,0.0,0.0
110,27.25,30.5747,31.651,172.057,116.019,110.203,-0.000218911,0.0422569,21.0598,156.58,0.460264,0.0,0.0
120,29.75,29.5069,31.3296,176.89,116.015,109.237,-0.000198312,0.0422197,21.0591,156.6,0.538809,0.0,0.0
130,32.25,30.5494,31.4739,174.644,115.996,107.822,-6.53872e-05,0.0432626,21.059,156.61,0.654062,0.0,0.0
140,34.75,30.2101,31.3046,168.691,115.984,106.826,0.000581984,0.0488251,21.052,156.52,0.736212,0.0,0.0
150,37.25,30.6254,31.775,164.81,115.967,95.2961,0.00207008,0.0810073,21.0088,156.49,1.75711,0.0,1.0
160,39.75,30.898,32.4894,160.193,115.947,84.9434,0.00445631,0.142123,20.8899,156.35,2.78493,0.0,1.0
170,42.25,31.7407,33.6521,156.078,115.92,74.3212,0.00703994,0.210886,20.7625,156.18,3.97852,0.0,1.0
180,44.75,33.3003,34.6035,152.604,115.872,77.5865,0.00960144,0.272451,20.666,156.01,3.58995,0.0,0.0
190,47.25,35.0588,36.7316,156.205,115.833,72.5344,0.0120287,0.329245,20.567,155.769,4.18959,0.0,0.0
200,49.75,37.7411,39.2955,149.773,115.742,70.3191,0.0141819,0.385091,20.4691,155.509,4.4602,0.0,0.0
210,52.25,39.4769,41.1299,141.832,115.678,65.9185,0.0164494,0.437461,20.3777,155.329,5.0337,0.0,0.0
220,54.75,41.8963,43.9989,142.861,115.541,60.8101,0.0182147,0.48406,20.3067,155.019,5.74499,0.0,0.0
230,57.25,44.1954,46.1477,147.907,115.393,64.605,0.0198645,0.523604,20.2486,154.698,5.19172,0.0,0.0
240,59.75,46.5746,48.9594,143.294,115.41,57.8418,0.0213689,0.559005,20.1839,154.428,6.18281,0.0,0.0
250,62.25,48.5081,51.8674,141.099,115.484,60.2007,0.0225325,0.588962,20.1272,154.188,5.83073,0.0,0.0
260,64.75,49.8101,53.3079,142.996,115.553,55.4988,0.0233816,0.602515,20.1039,153.877,6.56399,0.0,0.0
270,67.25,53.0624,56.8971,142.932,115.648,56.0676,0.0241169,0.607057,20.0909,153.617,6.48004,0.0,0.0
280,69.75,54.6099,59.1593,144.831,115.734,54.8009,0.0243512,0.610388,20.0851,153.297,6.69122,0.0,0.0
290,72.25,56.6462,61.4252,146.166,115.827,58.6304,0.0242587,0.608432,20.0854,152.977,6.09387,0.0,0.0
300,74.75,58.2025,63.0021,144.914,115.948,52.0374,0.0240906,0.605715,20.0892,152.726,7.17088,0.0,0.0
310,77.25,59.6187,65.0871,144.967,116.046,53.8593,0.0241589,0.597872,20.0976,152.456,6.87048,0.0,0.0
320,79.75,61.3227,66.5875,145,116.173,57.2487,0.0240034,0.595087,20.1045,152.156,6.33401,0.0,0.0
330,82.25,62.7498,68.6994,147.776,116.221,54.351,0.023653,0.592904,20.1115,151.906,6.80259,0.0,0.0
340,84.75,63.5035,69.7485,144.779,116.287,61.4949,0.0233695,0.58515,20.1268,151.615,5.70238,0.0,0.0
350,87.25,64.968,70.8977,149.27,116.307,59.8199,0.0231977,0.576244,20.1413,151.345,5.95111,0.0,0.0
360,89.75,66.1852,72.0244,142.344,116.302,57.861,0.023065,0.570204,20.1538,151.095,6.24876,0.0,0.0
370,92.25,67.0006,73.7177,145.756,116.213,60.7217,0.0228184,0.56268,20.1676,150.835,5.80995,0.0,0.0
380,94.75,66.7315,74.2081,147.226,116.098,59.2904,0.0225041,0.557045,20.1765,150.574,6.01456,0.0,0.0
390,97.25,67.8136,75.4086,150.794,115.887,64.5522,0.0220808,0.551299,20.1856,150.304,5.23731,0.0,0.0
400,99.75,68.8454,75.8785,151.373,115.693,63.2911,0.0216253,0.547676,20.1918,150.034,5.39891,0.0,0.0
410,102.25,69.702,76.7952,147.8,115.402,61.4753,0.0211169,0.541147,20.2031,149.733,5.6369,0.0,0.0
420,104.75,70.2764,77.5998,141.562,115.14,63.952,0.020537,0.535221,20.2148,149.523,5.26298,0.0,0.0
430,107.25,70.3152,77.9686,146.15,114.826,60.8204,0.0202561,0.528633,20.2278,149.263,5.68795,0.0,0.0
440,109.75,70.7317,78.0347,147.49,114.521,59.3363,0.0202462,0.5227,20.2338,148.983,5.88522,0.0,0.0
450,112.25,71.4184,78.7435,152.071,114.291,62.6928,0.0202904,0.52408,20.2346,148.763,5.37476,0.0,0.0
460,114.75,72.0878,79.4748,145.082,114.096,62.8364,0.0203277,0.520455,20.2394,148.462,5.339,0.0,0.0
470,117.25,72.1895,80.03125,153.943,114.012,62.299,0.0203117,0.513685,20.2485,148.242,5.40929,0.0,0.0
480,119.75,72.6974,80.6364,151.675,113.975,58.8465,0.0204684,0.510857,20.2522,148.012,5.91668,0.0,0.0
490,122.25,72.2291,80.0948,144.018,114.053,60.4051,0.0206642,0.513362,20.2489,147.722,5.68884,0.0,0.0
500,124.75,73.5341,81.0568,146.343,114.18,60.5239,0.0206918,0.518699,20.2444,147.431,5.68122,0.0,0.0
510,127.25,73.925,81.9234,147.256,114.414,59.5678,0.0204916,0.520792,20.2423,147.191,5.842,0.0,0.0
520,129.75,73.9682,81.7159,148.213,114.675,64.6275,0.0202274,0.521778,20.2419,146.941,5.13276,0.0,0.0
530,132.25,74.2627,82.5244,144.223,114.976,59.8442,0.0199744,0.521655,20.2402,146.681,5.84443,0.0,0.0
540,134.75,74.414,82.8461,147.294,115.211,61.4912,0.020143,0.522027,20.2389,146.45,5.61971,0.0,0.0
550,137.25,75.2333,83.1891,145.495,115.437,65.6537,0.0203598,0.520734,20.2384,146.16,5.05104,0.0,0.0
560,139.75,75.5297,83.7209,145.044,115.532,59.9261,0.0205048,0.520229,20.2377,145.95,5.87538,0.0,0.0
570,142.25,75.4335,83.7098,151.074,115.542,58.7347,0.0206943,0.5221,20.2331,145.63,6.0559,0.0,0.0
580,144.75,75.0239,84.1643,141.745,115.42,60.9037,0.02095,0.525179,20.2234,145.399,5.72185,0.0,0.0
590,147.25,76.1736,84.6035,142.409,115.327,57.5967,0.0210857,0.529895,20.2165,145.129,6.21436,0.0,0.0
600,149.75,76.2768,84.5333,149.316,115.19,58.2244,0.0212155,0.532199,20.2139,144.839,6.10671,0.0,0.0
610,152.25,76.8517,85.5116,154.162,115.101,58.0588,0.0214685,0.534615,20.2097,144.619,6.12526,0.0,0.0
620,154.75,77.6385,84.9248,140.787,115.349,56.0063,0.0217594,0.540331,20.1995,144.338,6.46668,0.0,0.0
630,157.25,77.9168,86.2861,147.53,115.807,58.7188,0.0221227,0.548594,20.1836,144.138,6.07883,0.0,0.0
640,159.75,77.5901,85.9663,146.214,116.033,59.5163,0.0225749,0.55944,20.1671,143.648,5.97551,0.0,0.0
650,162.25,77.9775,86.6993,136.959,115.998,56.4451,0.0230038,0.565683,20.1571,143.447,6.44703,0.0,0.0
660,164.75,79.036,87.7996,147.646,115.712,56.9797,0.0234704,0.578865,20.1302,143.197,6.34059,0.0,0.0
670,167.25,79.5792,88.081,141.668,115.447,54.1101,0.024244,0.596923,20.096,142.817,6.78255,0.0,0.0
680,169.75,80.2337,88.953,144.844,115.685,53.4996,0.0253412,0.624712,20.0576,142.597,6.90255,0.0,0.0
690,172.25,81.3826,89.8428,143.251,115.936,55.7028,0.0265341,0.647968,20.0233,142.266,6.56079,0.0,0.0
700,174.75,81.8364,91.4,138.731,116.165,49.9901,0.0273159,0.666466,19.9899,141.886,7.5469,0.0,0.0
710,177.25,82.818,92.2501,139.436,116.284,48.7847,0.0279428,0.683807,19.9578,141.546,7.77454,0.0,0.0
720,179.75,83.6062,93.3916,141.107,116.343,53.0249,0.0285252,0.693899,19.9378,141.175,7.03306,0.0,0.0
730,182.25,84.5324,94.2541,137.118,116.284,49.0022,0.0289657,0.693262,19.9346,140.895,7.73469,0.0,0.0
740,184.75,85.2435,95.3714,141.137,116.124,51.6497,0.0288955,0.683997,19.9511,140.545,7.25145,0.0,0.0
750,187.25,86.0007,95.3075,142.281,115.843,52.5543,0.0280744,0.661804,19.9881,140.244,7.07437,0.0,0.0
760,189.75,86.0611,95.6982,142.734,115.513,52.5234,0.0269603,0.639759,20.021,139.934,7.05407,0.0,0.0
770,192.25,86.1002,96.5303,146.591,115.057,55.9497,0.0260343,0.618283,20.0529,139.594,6.45304,0.0,0.0
780,194.75,85.9991,95.8885,146.707,114.666,58.8423,0.0248538,0.59697,20.0879,139.344,5.97139,0.0,0.0
790,197.25,85.69,95.53,147.55,114.346,54.8243,0.0239354,0.575192,20.1287,139.033,6.57941,0.0,0.0
800,199.75,86.4669,96.2037,142.877,114.121,55.2897,0.0230361,0.553952,20.1685,138.773,6.4861,0.0,0.0
810,202.25,86.2981,95.479,149.158,114.053,58.02,0.0220143,0.535694,20.2057,138.543,6.04941,0.0,0.0
820,204.75,85.4805,95.474,146.334,114.077,59.0996,0.0209374,0.516199,20.2351,138.273,5.88623,0.0,0.0
830,207.25,85.5554,94.961,138.522,114.261,59.3573,0.0198142,0.49542,20.2756,138.062,5.86172,0.0,0.0
840,209.75,84.8877,94.8657,150.167,114.498,62.6629,0.0187655,0.479479,20.302,137.792,5.39519,0.0,0.0
850,212.25,84.3537,94.0442,156.68,114.809,63.8505,0.0180556,0.465879,20.3255,137.602,5.25144,0.0,0.0
860,214.75,83.6899,93.4461,147.722,115.11,61.864,0.0176573,0.450294,20.3486,137.342,5.55777,0.0,0.0
870,217.25,83.4167,92.7813,147.37,115.35,61.2213,0.0175438,0.442848,20.3627,137.151,5.66993,0.0,0.0
880,219.75,82.9485,92.3016,150.037,115.542,66.0943,0.0173994,0.439988,20.3704,136.911,4.99925,0.0,0.0
890,222.25,82.086,91.9401,149.249,115.599,63.2462,0.0170359,0.436937,20.3765,136.711,5.39792,0.0,0.0
900,224.75,82.2627,90.9737,147.222,115.551,65.3792,0.0165819,0.433255,20.3816,136.501,5.09735,0.0,0.0
910,227.25,81.9954,90.8082,149.496,115.417,63.8239,0.0165365,0.433304,20.3843,136.301,5.30249,0.0,0.0
920,229.75,81.7731,90.3646,148.313,115.295,60.464,0.0166021,0.430777,20.3871,136.07,5.77705,0.0,0.0
930,232.25,81.5799,90.1801,149.114,115.162,62.8439,0.0165307,0.426209,20.3897,135.89,5.42113,0.0,0.0
940,234.75,80.1715,88.7289,153.52,115.086,63.4815,0.0165504,0.426153,20.3891,135.64,5.32494,0.0,0.0
950,237.25,80.6529,89.1982,147.03,115.463,65.9657,0.0165975,0.426357,20.3885,135.41,5.01057,0.0,0.0
960,239.75,80.1992,88.8655,157.938,115.864,66.0209,0.0165326,0.423425,20.3918,135.22,5.03418,0.0,0.0
970,242.25,79.9921,88.5845,147.564,116.071,61.4439,0.0165509,0.419066,20.4019,135.019,5.69321,0.0,0.0
980,244.75,79.7171,87.702,154.749,116.088,65.2776,0.0165943,0.414692,20.4082,134.779,5.15279,0.0,0.0
990,247.25,79.4413,87.5136,149.919,115.857,65.302,0.0165358,0.4143,20.4115,134.619,5.1316,0.0,0.0
1000,249.75,79.4359,87.1142,150.398,115.497,62.0202,0.0164668,0.412229,20.414,134.419,5.56523,0.0,0.0
1010,252.25,78.9524,86.7327,154.052,115.654,63.8089,0.0163543,0.412078,20.4175,134.209,5.3229,0.0,0.0
1020,254.75,78.8804,86.3801,153.841,115.907,65.5401,0.0160967,0.410756,20.4195,134.018,5.10289,0.0,0.0
1030,257.25,78.9202,85.7983,156.516,116.145,64.4137,0.0159139,0.405508,20.4269,133.788,5.2764,0.0,0.0
1040,259.75,77.9301,84.9635,152.324,116.364,66.8577,0.0157353,0.399091,20.4365,133.608,4.95999,0.0,0.0
1050,262.25,78.2916,85.0471,153.205,116.447,68.6478,0.0153054,0.396947,20.4408,133.398,4.72982,0.0,0.0
1060,264.75,77.6496,85.5247,152.597,116.451,69.9453,0.0149423,0.394462,20.4467,133.198,4.56258,0.0,0.0
1070,267.25,76.8701,84.3117,150.252,116.315,64.598,0.0148064,0.39191,20.4506,132.977,5.26396,0.0,0.0
1080,269.75,77.4031,84.8475,147.587,116.085,65.4596,0.0147819,0.390526,20.4522,132.757,5.12759,0.0,0.0
1090,272.25,77.1941,83.9439,153.642,115.778,67.2464,0.0147302,0.387979,20.4567,132.507,4.86284,0.0,0.0
1100,274.75,76.9191,83.6744,155.239,115.382,67.4396,0.0147017,0.385742,20.4599,132.377,4.80655,0.0,0.0
1110,277.25,76.2619,84.103,150.818,115.005,67.0977,0.0146565,0.382937,20.4641,132.177,4.82275,0.0,0.0
1120,279.75,75.722,83.511,156.831,114.646,63.2055,0.0145616,0.379266,20.4701,131.996,5.32963,0.0,0.0
1130,282.25,75.6452,83.095,156.151,114.4,68.8106,0.01438,0.375532,20.4754,131.806,4.54994,0.0,0.0
1140,284.75,75.8553,82.2427,153.43,114.219,64.01,0.014177,0.372277,20.4804,131.576,5.18302,0.0,0.0
1150,287.25,75.5583,81.9542,155.71,114.222,69.2919,0.0140098,0.369292,20.4864,131.436,4.47361,0.0,0.0
1160,289.75,74.9529,82.0629,150.892,114.327,65.4119,0.0137693,0.369448,20.4888,131.276,4.99753,0.0,0.0
1170,292.25,75.0324,82.0969,150.135,114.508,64.4619,0.0137509,0.36995,20.4899,131.096,5.14266,0.0,0.0
1180,294.75,74.5915,82.1473,155.343,114.743,66.2637,0.0137886,0.367161,20.493,130.915,4.91431,0.0,0.0
1190,297.25,74.6233,81.3939,152.755,115.007,65.5157,0.0138286,0.364238,20.4972,130.735,5.03648,0.0,0.0
1200,299.75,73.9248,80.6235,150.171,115.243,66.8755,0.0138008,0.363457,20.5001,130.575,4.87096,0.0,0.0
1210,302.25,74.642,80.4795,150.044,115.447,64.1176,0.0137054,0.360731,20.5026,130.375,5.26367,0.0,0.0
1220,304.75,74.1142,80.4884,154.432,115.605,68.8915,0.0134715,0.357746,20.5067,130.175,4.63318,0.0,0.0
1230,307.25,73.0483,80.1281,154.891,115.7,65.9049,0.0130655,0.356473,20.5094,129.965,5.0372,0.0,0.0
1240,309.75,73.5732,79.7594,155.127,115.757,70.2297,0.0126719,0.354132,20.5138,129.824,4.47277,0.0,0.0
1250,312.25,72.9269,80.1441,155.547,115.736,67.1519,0.0125041,0.352233,20.518,129.594,4.87221,0.0,0.0
1260,314.75,73.5137,79.2274,152.592,115.675,69.2844,0.0124165,0.350867,20.5216,129.444,4.58767,0.0,0.0
1270,317.25,73.0114,79.2428,158.836,115.568,68.0093,0.0125404,0.348679,20.5259,129.264,4.74567,0.0,0.0
1280,319.75,72.9283,79.0144,151.776,115.496,66.4508,0.0125413,0.345099,20.531,129.134,4.9476,0.0,0.0
1290,322.25,72.5252,78.642,158.628,115.401,69.3616,0.0124772,0.341711,20.5355,128.944,4.55649,0.0,0.0
1300,324.75,72.1579,78.9992,153.839,115.314,70.0267,0.0124711,0.339799,20.5383,128.753,4.46429,0.0,0.0
1310,327.25,72.2451,78.391,156.643,115.204,69.5927,0.0122735,0.339869,20.5402,128.583,4.51141,0.0,0.0
1320,329.75,72.0308,78.3293,152.406,115.184,69.1081,0.0119945,0.337471,20.5416,128.443,4.57239,0.0,0.0
1330,332.25,71.6852,78.0012,159.653,115.392,69.7185,0.0117867,0.335786,20.545,128.283,4.50986,0.0,0.0
1340,334.75,71.6829,76.4371,156.725,115.679,71.8758,0.0116622,0.334966,20.5475,128.083,4.25937,0.0,0.0
1350,337.25,71.3995,77.3635,153.997,115.913,66.9396,0.0116272,0.333881,20.5497,127.973,4.91425,0.0,0.0
1360,339.75,71.723,76.9258,158.276,116.079,70.7218,0.0117061,0.331377,20.5538,127.802,4.43513,0.0,0.0
1370,342.25,70.3385,76.1895,155.359,116.17,69.4598,0.0117271,0.328015,20.5566,127.652,4.60328,0.0,0.0
1380,344.75,70.9685,76.8048,152.946,116.203,66.5453,0.0117739,0.32656,20.5586,127.522,4.98951,0.0,0.0
1390,347.25,70.9694,76.1575,154.892,116.2,69.8022,0.011782,0.324998,20.5619,127.332,4.56157,0.0,0.0
1400,349.75,70.409,76.2395,159.679,116.115,71.56,0.011672,0.322191,20.5655,127.112,4.33245,0.0,0.0
1410,352.25,70.4606,76.0197,158.012,116.021,67.5163,0.0115523,0.320255,20.5695,126.942,4.84579,0.0,0.0
1420,354.75,70.5509,75.4282,154.907,115.851,70.0964,0.0115128,0.318143,20.5727,126.771,4.49703,0.0,0.0
1430,357.25,69.9268,75.5256,163.695,115.678,70.9449,0.0116614,0.315693,20.5776,126.601,4.37594,0.0,0.0
1440,359.75,70.1339,74.8543,158.531,115.616,73.1967,0.0116783,0.313842,20.5813,126.451,4.09149,0.0,0.0
1450,362.25,69.3318,74.9629,157.413,115.724,69.7699,0.0114006,0.311372,20.5859,126.311,4.52896,0.0,0.0
1460,364.75,69.5578,74.664,155.066,115.799,71.0712,0.0110376,0.307575,20.591,126.181,4.36934,0.0,0.0
1470,367.25,69.6223,74.8135,158.084,115.915,73.1621,0.0107703,0.303994,20.598,126.041,4.11885,0.0,0.0
1480,369.75,69.2299,74.4696,157.886,115.993,71.6517,0.010588,0.300682,20.6039,125.901,4.31158,0.0,0.0
1490,372.25,68.7821,74.0366,159.749,116.115,77.8335,0.0104449,0.297016,20.6092,125.73,3.58029,0.0,0.0
1500,374.75,68.635,73.2178,159.541,116.206,74.0171,0.0102368,0.29483,20.6151,125.58,4.03727,0.0,0.0
1510,377.25,68.1684,73.2485,160.512,116.3,75.8975,0.010004,0.291505,20.6204,125.43,3.81996,0.0,0.0
1520,379.75,68.2417,72.7484,158.44,116.378,75.2403,0.00975433,0.28855,20.6257,125.29,3.9038,0.0,0.0
1530,382.25,68.0324,72.0905,154.15,116.429,74.382,0.00962172,0.28646,20.6306,125.21,4.01045,0.0,0.0
1540,384.75,67.7401,72.3717,156.464,116.504,73.069,0.00937405,0.283216,20.6344,125.04,4.17559,0.0,0.0
1550,387.25,67.7195,71.9009,158.857,116.525,74.3965,0.00907989,0.279121,20.6426,124.99,4.01603,0.0,0.0
1560,389.75,67.2506,71.7343,162.147,116.563,77.6815,0.00888347,0.276981,20.6475,124.78,3.6322,0.0,0.0
1570,392.25,67.1813,71.6343,159.55,116.581,77.8368,0.00867052,0.275164,20.65,124.659,3.61576,0.0,0.0
1580,394.75,66.732,70.754,159.25,116.576,77.3181,0.0084903,0.272427,20.6553,124.549,3.67517,0.0,0.0
1590,397.25,66.4826,70.9418,157.156,116.567,76.1281,0.00842436,0.269251,20.6607,124.389,3.81335,0.0,0.0
1600,399.75,66.6725,69.9304,158.637,116.548,80.1208,0.00833879,0.265296,20.6657,124.259,3.35435,0.0,0.0
1610,402.25,66.0075,70.1282,155.963,116.5,78.53,0.00828606,0.262801,20.6721,124.129,3.53012,0.0,0.0
1620,404.75,65.6074,69.2968,157.615,116.467,79.0558,0.00818549,0.262165,20.6762,123.979,3.46788,0.0,0.0
1630,407.25,65.3549,70.0231,165.401,116.411,79.6788,0.00784492,0.260613,20.6794,123.869,3.39334,0.0,0.0
1640,409.75,65.3661,69.1776,161.494,116.325,80.0254,0.0073668,0.257824,20.6843,123.729,3.34784,0.0,0.0
1650,412.25,65.0674,69.0963,156.441,116.237,82.4521,0.00698269,0.256291,20.6869,123.608,3.0737,0.0,0.0
1660,414.75,64.6641,68.9323,163.129,116.143,82.2954,0.00687413,0.255029,20.69,123.498,3.08345,0.0,0.0
1670,417.25,64.609,68.7966,162.305,116.039,82.0162,0.00689981,0.251819,20.6967,123.368,3.10588,0.0,0.0
1680,419.75,64.5796,68.2156,161.284,115.925,82.6846,0.00672437,0.248843,20.7016,123.268,3.02447,0.0,0.0
1690,422.25,64.5392,68.0801,161.316,115.804,80.6092,0.00657644,0.246778,20.7045,123.148,3.24261,0.0,0.0
1700,424.75,64.0081,67.8867,160.823,115.695,81.1751,0.00660479,0.245229,20.7065,123.048,3.1716,0.0,0.0
1710,427.25,63.6063,67.4295,159.601,115.602,82.8329,0.00673135,0.243747,20.7089,122.978,2.98343,0.0,0.0
1720,429.75,64.4758,67.0396,164.123,115.495,83.5176,0.00673903,0.242798,20.7116,122.878,2.90148,0.0,0.0
1730,432.25,63.2888,67.5965,157.797,115.424,81.2893,0.00659293,0.241608,20.7125,122.798,3.13803,0.0,0.0
1740,434.75,63.3333,66.9117,162.374,115.31,82.606,0.00634142,0.24016,20.7151,122.688,2.98533,0.0,0.0
1750,437.25,63.1095,66.6264,162.522,115.24,81.2116,0.00603409,0.237696,20.7201,122.557,3.13226,0.0,0.0
1760,439.75,62.4468,66.4544,163.748,115.131,83.2945,0.00574633,0.235728,20.7231,122.457,2.89717,0.0,0.0
1770,442.25,62.2225,66.1056,160.124,115.088,82.7866,0.00552451,0.234502,20.726,122.297,2.94858,0.0,0.0
1780,444.75,61.4447,65.3972,161.027,114.975,81.3038,0.00546112,0.233215,20.7292,122.167,3.10155,0.0,0.0
1790,447.25,61.1706,64.8486,162.681,114.91,83.055,0.00550866,0.232068,20.7308,122.087,2.90571,0.0,0.0
1800,449.75,62.1521,65.1886,159.923,114.808,83.8034,0.0054624,0.230888,20.7328,121.977,2.81752,0.0,0.0
1810,452.25,61.6092,64.8163,163.008,114.74,83.4138,0.0054726,0.230267,20.7352,121.837,2.85387,0.0,0.0
1820,454.75,61.3416,64.5944,162.476,114.684,83.6126,0.00551197,0.229915,20.736,121.757,2.82823,0.0,0.0
1830,457.25,61.0705,64.8227,158.841,114.621,85.5444,0.00542823,0.228787,20.7375,121.677,2.61886,0.0,0.0
1840,459.75,60.9465,64.0118,162.119,114.591,84.4354,0.00541707,0.227923,20.7397,121.607,2.73328,0.0,0.0
1850,462.25,61.343,63.5843,159.83,114.535,85.4743,0.00547275,0.226679,20.7428,121.506,2.61952,0.0,0.0
1860,464.75,60.6419,63.7824,165.634,114.507,85.9369,0.00531686,0.225406,20.7459,121.446,2.56902,0.0,0.0
1870,467.25,60.6613,63.7535,162.521,114.467,86.5473,0.00511191,0.224748,20.7473,121.316,2.50249,0.0,0.0
1880,469.75,60.4484,63.4349,162.155,114.438,85.949,0.00497467,0.224043,20.749,121.256,2.56235,0.0,0.0
1890,472.25,60.2774,63.1758,163.099,114.403,86.8836,0.00493875,0.221916,20.7523,121.186,2.46281,0.0,0.0
1900,474.75,60.1929,62.949,163.713,114.409,86.2601,0.00483468,0.220126,20.7544,121.076,2.52771,0.0,0.0
1910,477.25,59.997,63.059,161.055,114.362,86.4491,0.00464275,0.219849,20.7559,120.976,2.50447,0.0,0.0
1920,479.75,59.0743,61.8543,164.968,114.371,87.0379,0.00460885,0.219648,20.7567,120.896,2.44443,0.0,0.0
1930,482.25,59.9405,62.1372,162.893,114.363,88.3397,0.00449407,0.219811,20.7572,120.806,2.3109,0.0,0.0
1940,484.75,59.5602,62.624,164.077,114.368,88.038,0.0045625,0.218877,20.7574,120.686,2.34189,0.0,0.0
1950,487.25,59.5716,62.1815,163.693,114.378,88.6812,0.00471526,0.217537,20.7586,120.616,2.27751,0.0,0.0
1960,489.75,59.3036,62.1091,165.581,114.388,89.4516,0.00460318,0.216948,20.7598,120.505,2.20089,0.0,0.0
1970,492.25,58.7475,61.8443,166.243,114.405,87.5726,0.00458608,0.216579,20.7616,120.375,2.39226,0.0,0.0
1980,494.75,58.923,61.4645,163.63,114.432,89.5853,0.00461165,0.21649,20.7628,120.305,2.19099,0.0,0.0
1990,497.25,58.5276,62.0097,159.056,114.485,88.0633,0.0045114,0.215848,20.7638,120.205,2.34846,0.0,0.0
2000,499.75,58.7057,61.2414,162.297,114.487,88.7167,0.00434614,0.214069,20.7664,120.105,2.28251,0.0,0.0
2010,502.25,58.7437,61.2926,159.106,114.521,87.3775,0.00409295,0.212828,20.7685,120.135,2.42127,0.0,0.0
2020,504.75,58.6035,61.0762,163.854,114.539,87.6849,0.00401394,0.212201,20.7692,120.005,2.39124,0.0,0.0
2030,507.25,58.2509,60.8531,160.022,114.593,87.3588,0.00407078,0.213265,20.7685,119.925,2.42885,0.0,0.0
2040,509.75,58.0013,60.9888,161.025,114.613,88.3505,0.00402974,0.214215,20.7682,119.785,2.32936,0.0,0.0
2050,512.25,57.7661,60.7655,163.672,114.658,89.1957,0.00383764,0.212419,20.7703,119.695,2.24764,0.0,0.0
2060,514.75,57.7755,60.5428,163.259,114.667,88.5436,0.0036081,0.211019,20.7734,119.605,2.31404,0.0,0.0
2070,517.25,57.7246,60.7758,165.123,114.709,88.9501,0.0034812,0.210311,20.7749,119.535,2.27633,0.0,0.0
2080,519.75,57.5508,60.1303,166.324,114.721,90.497,0.00358315,0.20986,20.7755,119.434,2.12296,0.0,0.0
2090,522.25,58.0015,60.3277,161.036,114.75,89.6078,0.00366081,0.209017,20.7771,119.394,2.21357,0.0,0.0
2100,524.75,57.3372,60.1652,162.369,114.784,91.2346,0.00381406,0.208007,20.7797,119.294,2.05515,0.0,0.0
2110,527.25,57.6364,59.7219,167.918,114.818,90.1102,0.00391821,0.206654,20.7817,119.214,2.16881,0.0,0.0
2120,529.75,57.5376,59.4394,164.939,114.832,92.3792,0.00388493,0.206231,20.7824,119.144,1.94735,0.0,0.0
2130,532.25,57.8172,59.4395,160.876,114.853,90.7524,0.00377691,0.206427,20.7827,119.074,2.10798,0.0,0.0
2140,534.75,57.4784,59.3597,163.248,114.883,91.0499,0.00350456,0.207173,20.7832,118.994,2.08105,0.0,0.0
2150,537.25,56.9982,59.1514,165.506,114.874,90.6177,0.0034355,0.206016,20.7845,118.924,2.12295,0.0,0.0
2160,539.75,57.2426,59.2447,163.99,114.888,90.6172,0.00357971,0.204868,20.7858,118.844,2.12405,0.0,0.0
2170,542.25,56.8567,58.9694,165.228,114.894,91.5354,0.00372109,0.204085,20.7865,118.804,2.03432,0.0,0.0
2180,544.75,56.6971,58.9039,164.906,114.918,91.4222,0.00378385,0.202666,20.7898,118.694,2.04722,0.0,0.0
2190,547.25,56.2373,58.8075,162.129,114.927,90.3113,0.00378825,0.201915,20.792,118.584,2.15734,0.0,0.0
2200,549.75,56.5791,58.7419,164.391,114.951,91.556,0.00374048,0.20029,20.7943,118.544,2.03672,0.0,0.0
2210,552.25,56.1965,58.4656,166.471,114.946,92.3507,0.00359096,0.199903,20.7947,118.434,1.959,0.0,0.0
2220,554.75,56.5395,58.4965,161.882,114.954,92.977,0.00330254,0.199682,20.7958,118.363,1.89912,0.0,0.0
2230,557.25,56.3074,58.3616,164.549,114.944,92.4648,0.00306793,0.199126,20.797,118.293,1.94776,0.0,0.0
2240,559.75,56.088,58.5351,162.742,114.947,92.9438,0.00301713,0.19829,20.7985,118.183,1.90173,0.0,0.0
2250,562.25,56.0717,58.3498,168.813,114.923,92.8554,0.00291868,0.196135,20.8014,118.093,1.9084,0.0,0.0
2260,564.75,55.911,58.46,163.674,114.909,93.1926,0.00272877,0.195014,20.8035,118.023,1.87489,0.0,0.0
2270,567.25,56.2091,58.165,162.435,114.905,93.4939,0.00276083,0.195385,20.8056,117.943,1.84564,0.0,0.0
2280,569.75,55.6306,57.8796,163.957,114.908,92.3614,0.00286966,0.194232,20.8075,117.903,1.95497,0.0,0.0
2290,572.25,55.7517,58.0668,167.252,114.915,94.2081,0.00291811,0.193078,20.8088,117.833,1.77836,0.0,0.0
2300,574.75,55.7662,58.2301,167.902,114.878,93.6276,0.00290264,0.192173,20.811,117.763,1.83073,0.0,0.0
2310,577.25,54.7989,57.0423,164.854,114.866,94.3068,0.00292863,0.192011,20.812,117.703,1.76517,0.0,0.0
2320,579.75,55.4667,57.1686,163.996,114.833,94.6099,0.00290599,0.191406,20.8125,117.663,1.73382,0.0,0.0
2330,582.25,55.9044,57.74,165.869,114.81,95.3555,0.002767,0.19041,20.8153,117.653,1.66178,0.0,0.0
2340,584.75,54.6183,56.8281,168.556,114.756,95.4547,0.00252435,0.189059,20.818,117.543,1.64829,0.0,0.0
2350,587.25,55.4902,56.961,167.043,114.754,94.8499,0.00234472,0.188215,20.8167,117.463,1.70499,0.0,0.0
2360,589.75,55.116,57.0787,165.927,114.693,94.4242,0.00217877,0.187319,20.8178,117.393,1.74051,0.0,0.0
2370,592.25,54.9626,56.815,164.259,114.665,94.6558,0.00201955,0.186374,20.8196,117.332,1.71644,0.0,0.0
2380,594.75,54.8009,57.1304,163.238,114.647,96.2901,0.00204521,0.185318,20.8209,117.242,1.56176,0.0,0.0
2390,597.25,55.358,56.823,158.25,114.645,95.0258,0.00214635,0.184189,20.8217,117.172,1.67995,0.0,0.0
2400,599.75,54.8461,56.8238,165.411,114.608,95.5426,0.00216198,0.183525,20.8219,117.092,1.62852,0.0,0.0
2410,602.25,54.4211,56.9954,162.765,114.602,95.8083,0.00206459,0.1825,20.8246,117.012,1.60315,0.0,0.0
2420,604.75,54.729,56.5243,163.304,114.58,95.0735,0.00206725,0.18072,20.8279,116.942,1.67035,0.0,0.0
2430,607.25,54.8589,56.4908,162.457,114.56,97.7247,0.00206738,0.179554,20.8303,116.902,1.42264,0.0,0.0
2440,609.75,54.2458,56.1726,165.725,114.563,97.19,0.00208863,0.178504,20.8321,116.862,1.47196,0.0,0.0
2450,612.25,53.652,55.3078,164.241,114.513,97.6269,0.00215337,0.177349,20.8345,116.802,1.42788,0.0,0.0
2460,614.75,53.9374,56.2886,164.712,114.509,96.842,0.00212757,0.176625,20.8368,116.772,1.49983,0.0,0.0
2470,617.25,54.1791,55.8556,166.025,114.482,97.7556,0.00194023,0.176002,20.8384,116.732,1.41372,0.0,0.0
2480,619.75,54.252,55.5013,160.565,114.481,96.2676,0.00171322,0.175171,20.8407,116.672,1.55092,0.0,0.0
2490,622.25,54.0588,55.2243,163.821,114.448,97.0984,0.00151219,0.173983,20.8424,116.592,1.47143,0.0,0.0
2500,624.75,53.7268,55.4125,164.259,114.441,96.814,0.00147996,0.173184,20.844,116.562,1.49713,0.0,0.0
2510,627.25,53.7272,55.6057,167.372,114.405,97.5652,0.00157159,0.173004,20.8447,116.492,1.42514,0.0,0.0
2520,629.75,53.389,56.0176,160.988,114.407,98.5788,0.00159335,0.171958,20.847,116.372,1.33277,0.0,0.0
2530,632.25,53.0763,55.0808,159.744,114.386,97.8744,0.00151517,0.171337,20.8487,116.352,1.39532,0.0,0.0
2540,634.75,53.4598,55.2062,164.716,114.385,98.0114,0.00148146,0.17,20.85,116.261,1.38272,0.0,0.0
2550,637.25,53.11,54.4602,165.628,114.367,98.9221,0.00144766,0.169113,20.8521,116.191,1.29851,0.0,0.0
2560,639.75,52.5323,54.7143,161.261,114.375,98.7233,0.00137083,0.167668,20.8551,116.111,1.31717,0.0,0.0
2570,642.25,53.1323,54.7627,163.607,114.382,99.9895,0.00131326,0.166583,20.8574,116.101,1.20362,0.0,0.0
2580,644.75,53.1377,54.6751,170.937,114.385,99.3422,0.0012648,0.166218,20.8584,116.021,1.26197,0.0,0.0
2590,647.25,52.8471,54.3759,164.544,114.419,99.7805,0.00133314,0.165912,20.8598,116.011,1.22528,0.0,0.0
2600,649.75,52.4818,54.5828,168.239,114.42,100.498,0.00148875,0.165048,20.8608,115.971,1.16118,0.0,0.0
2610,652.25,52.6924,53.8853,166.585,114.46,100.074,0.00158306,0.163694,20.8627,115.941,1.20218,0.0,0.0
2620,654.75,52.2413,53.9018,166.548,114.487,100.528,0.00166676,0.162754,20.8645,115.881,1.16377,0.0,0.0
2630,657.25,51.8923,54.2046,167.307,114.557,100.833,0.00166367,0.161995,20.8659,115.851,1.1421,0.0,0.0
2640,659.75,51.279,53.6622,166.539,114.576,100.591,0.0015273,0.162045,20.8676,115.801,1.16517,0.0,0.0
2650,662.25,51.7155,54.1961,167.287,114.652,99.9456,0.00129761,0.161363,20.8685,115.791,1.22867,0.0,0.0
2660,664.75,51.6429,53.9792,165.137,114.684,101.867,0.00112966,0.160012,20.8697,115.731,1.06078,0.0,0.0
2670,667.25,51.5846,53.5656,168.094,114.755,102.172,0.00105807,0.158282,20.8717,115.701,1.03949,0.0,0.0
2680,669.75,51.6002,53.2288,166.327,114.8,101.035,0.00117205,0.156872,20.8745,115.601,1.14319,0.0,0.0
2690,672.25,51.7235,53.24,169.013,114.863,100.793,0.00125828,0.156424,20.8755,115.551,1.16952,0.0,0.0
2700,674.75,51.4225,52.2074,167.133,114.893,101.372,0.00123263,0.156181,20.8781,115.501,1.12065,0.0,0.0
2710,677.25,51.3905,53.0489,169.088,114.967,101.434,0.00127937,0.155716,20.8798,115.441,1.12095,0.0,0.0
2720,679.75,51.2079,53.2545,168.549,115.017,102.407,0.00133251,0.155337,20.8797,115.361,1.03932,0.0,0.0
2730,682.25,50.4511,52.8163,163.354,115.066,101.867,0.00134918,0.154698,20.8795,115.331,1.09048,0.0,0.0
2740,684.75,50.4874,52.1504,171.142,115.135,102.024,0.00138122,0.15469,20.8795,115.29,1.0821,0.0,0.0
2750,687.25,50.4509,52.7091,169.081,115.179,102.546,0.00134949,0.154115,20.8809,115.25,1.03984,0.0,0.0
2760,689.75,51.1418,52.6573,168.065,115.237,102.849,0.00129051,0.153146,20.8825,115.19,1.01788,0.0,0.0
2770,692.25,50.8793,52.3065,167.11,115.268,102.739,0.00123857,0.151777,20.8842,115.16,1.02997,0.0,0.0
2780,694.75,50.2785,52.6416,167.743,115.336,103.747,0.00125665,0.15103,20.8851,115.15,0.947875,0.0,0.0
2790,697.25,50.4218,52.1948,165.055,115.362,102.852,0.00133042,0.1508,20.8854,115.09,1.02737,0.0,0.0
2800,699.75,50.2812,52.1368,165.149,115.414,103.591,0.00131141,0.150668,20.8873,115.06,0.967305,0.0,0.0
2810,702.25,50.637,52.3391,172.611,115.448,103.196,0.00137372,0.149263,20.8894,115,1.00412,0.0,0.0
2820,704.75,49.898,52.0359,163.631,115.511,104.121,0.00165484,0.148315,20.8904,114.97,0.929202,0.0,0.0
2830,707.25,50.0188,51.6683,165.197,115.525,103.659,0.00185354,0.147273,20.8921,114.93,0.970068,0.0,0.0
2840,709.75,50.1569,52.1397,163.824,115.573,103.482,0.00167177,0.146261,20.8941,114.9,0.989035,0.0,0.0
2850,712.25,50.1738,51.3832,166.681,115.615,104.185,0.00140451,0.146364,20.8952,114.85,0.931727,0.0,0.0
2860,714.75,49.8592,51.2575,166.257,115.675,103.957,0.00119354,0.146047,20.8962,114.79,0.955911,0.0,0.0
2870,717.25,49.7544,51.3612,168.717,115.722,103.973,0.00107552,0.144762,20.8974,114.75,0.958233,0.0,0.0
2880,719.75,49.5254,51.425,168.11,115.757,104.673,0.00114248,0.144581,20.8979,114.68,0.900907,0.0,0.0
2890,722.25,49.1538,50.6249,165.059,115.806,104.337,0.00115386,0.144816,20.8988,114.63,0.933427,0.0,0.0
2900,724.75,49.3176,51.5627,167.963,115.85,105.54,0.00109796,0.144294,20.9002,114.61,0.834246,0.0,0.0
2910,727.25,49.3765,51.0501,166.284,115.886,104.543,0.00122549,0.143711,20.901,114.56,0.922,0.0,0.0
2920,729.75,49.3844,51.3238,171.101,115.906,104.92,0.00146928,0.143201,20.9013,114.51,0.891292,0.0,0.0
2930,732.25,49.1134,50.9896,172.362,115.956,105.021,0.00156108,0.142832,20.9014,114.49,0.886501,0.0,0.0
2940,734.75,49.1448,50.6076,165.49,115.979,105.845,0.00143822,0.142667,20.9019,114.47,0.818378,0.0,0.0
2950,737.25,49.2154,50.3797,169.064,116.022,105.59,0.00137036,0.141823,20.9032,114.46,0.843314,0.0,0.0
2960,739.75,48.6272,50.4331,170.48,116.025,106.668,0.00140119,0.140748,20.9036,114.41,0.752605,0.0,0.0
2970,742.25,48.7307,50.5588,168.012,116.075,105.815,0.00131866,0.140416,20.904,114.4,0.828296,0.0,0.0
2980,744.75,48.9653,49.9822,167.065,116.096,106.248,0.0013421,0.140017,20.9054,114.34,0.793359,0.0,0.0
2990,747.25,48.7972,49.8644,168.79,116.159,105.905,0.00146743,0.139061,20.9069,114.31,0.827186,0.0,0.0
3000,749.75,48.3992,49.2388,168.56,116.175,106.761,0.00156088,0.138283,20.9075,114.3,0.756358,0.0,0.0
3010,752.25,48.285,49.5904,171.081,116.221,105.598,0.00162496,0.137959,20.9089,114.26,0.857908,0.0,0.0
3020,754.75,48.0012,50.3164,173.388,116.251,106.031,0.00157677,0.137651,20.9097,114.189,0.823649,0.0,0.0
3030,757.25,47.7031,49.4163,167.496,116.282,106.202,0.00147119,0.137691,20.91,114.159,0.811587,0.0,0.0
3040,759.75,48.2899,49.9901,168.192,116.314,106.755,0.00149957,0.137147,20.9109,114.079,0.767558,0.0,0.0
3050,762.25,48.1764,49.9932,169.416,116.326,106.857,0.00157491,0.136321,20.9128,114.019,0.759947,0.0,0.0
3060,764.75,47.9067,49.5982,166.384,116.355,107.09,0.00162636,0.135519,20.9141,114.009,0.742608,0.0,0.0
3070,767.25,48.095,49.5219,172.142,116.373,106.664,0.00157594,0.13481,20.9157,113.949,0.779771,0.0,0.0
3080,769.75,47.6937,49.2627,172.581,116.405,106.929,0.00147397,0.134085,20.9167,113.949,0.759987,0.0,0.0
3090,772.25,47.1518,49.4029,169.326,116.432,106.101,0.00141309,0.133896,20.9166,113.889,0.83168,0.0,0.0
3100,774.75,47.8731,49.009,166.404,116.464,107.564,0.00146824,0.133884,20.9154,113.849,0.711464,0.0,0.0
3110,777.25,47.625,49.1602,167.912,116.483,106.769,0.00151078,0.133305,20.9168,113.789,0.779389,0.0,0.0
3120,779.75,47.4729,49.091,176.516,116.517,107.968,0.00152112,0.132349,20.9197,113.789,0.682067,0.0,0.0
3130,782.25,47.3755,49.2999,172.086,116.515,107.145,0.00161447,0.130978,20.9207,113.779,0.750395,0.0,0.0
3140,784.75,46.7521,48.2608,167.056,116.556,107.189,0.00171333,0.130474,20.9221,113.729,0.749807,0.0,0.0
3150,787.25,47.3807,48.8601,167.738,116.558,107.779,0.00182178,0.130135,20.9231,113.719,0.70083,0.0,0.0
3160,789.75,47.4722,48.9144,168.792,116.578,106.977,0.00191726,0.129332,20.9248,113.709,0.769275,0.0,0.0
3170,792.25,46.5706,47.7321,170.525,116.589,107.541,0.00191427,0.128526,20.9255,113.689,0.723031,0.0,0.0
3180,794.75,47.1555,48.9161,169.479,116.618,106.476,0.00191254,0.128306,20.9261,113.629,0.814301,0.0,0.0
3190,797.25,47.6527,47.5402,170.923,116.612,108.443,0.00191994,0.127972,20.9271,113.599,0.65008,0.0,0.0
3200,799.75,46.4173,48.2348,167.955,116.61,108.302,0.00189831,0.127175,20.929,113.579,0.661529,0.0,0.0
3210,802.25,46.5499,48.4855,168.768,116.617,107.337,0.00172683,0.126576,20.9309,113.529,0.742247,0.0,0.0
3220,804.75,46.6624,48.2681,169.328,116.617,106.954,0.0016307,0.12647,20.9315,113.499,0.774171,0.0,0.0
3230,807.25,46.4448,47.8065,169.637,116.622,108.08,0.00170468,0.126142,20.9318,113.429,0.680803,0.0,0.0
3240,809.75,46.7022,47.7132,168.015,116.611,108.409,0.00167998,0.125143,20.9328,113.389,0.652827,0.0,0.0
3250,812.25,46.5104,47.5496,163.022,116.636,107.571,0.00170989,0.12477,20.9337,113.329,0.724126,0.0,0.0
3260,814.75,46.2431,47.9649,167.649,116.6,107.719,0.00186665,0.124736,20.934,113.299,0.709145,0.0,0.0
3270,817.25,46.3874,48.1253,170.485,116.616,107.42,0.00208817,0.124707,20.9341,113.289,0.735235,0.0,0.0
3280,819.75,46.2422,47.3008,169.093,116.606,107.895,0.00238599,0.124651,20.9342,113.249,0.6949,0.0,0.0
3290,822.25,45.7105,47.0062,171.64,116.616,107.588,0.00269415,0.124551,20.9342,113.229,0.721219,0.0,0.0
3300,824.75,45.7068,47.3594,167.26,116.598,107.794,0.0028928,0.124532,20.9348,113.239,0.702673,0.0,0.0
3310,827.25,45.6155,46.8433,171.776,116.599,107.999,0.00288953,0.123579,20.9369,113.178,0.685749,0.0,0.0
3320,829.75,45.554,47.4407,168.928,116.587,107.694,0.0027394,0.122635,20.9382,113.178,0.710202,0.0,0.0
3330,832.25,45.241,47.1133,172.777,116.586,109.273,0.00261497,0.122534,20.9387,113.148,0.579805,0.0,0.0
3340,834.75,45.4045,47.09,169.573,116.576,108.726,0.00262956,0.121703,20.9402,113.138,0.623991,0.0,0.0
3350,837.25,45.7006,46.6944,167.146,116.548,107.683,0.00272358,0.121151,20.9409,113.118,0.708082,0.0,0.0
3360,839.75,45.3953,47.0513,167.709,116.534,108.179,0.00286513,0.120661,20.9411,113.058,0.665852,0.0,0.0
3370,842.25,45.6092,46.7779,170.643,116.497,108.114,0.00286776,0.120213,20.9422,112.998,0.668397,0.0,0.0
3380,844.75,45.2468,46.6482,169.149,116.459,108.283,0.00281152,0.11929,20.9436,112.978,0.651556,0.0,0.0
3390,847.25,44.8321,46.1699,164.89,116.401,108.29,0.00271512,0.118392,20.9447,112.908,0.646486,0.0,0.0
3400,849.75,45.5252,46.2823,170.054,116.367,108.327,0.0027694,0.118438,20.9451,112.898,0.640845,0.0,0.0
3410,852.25,45.2553,46.4452,167.462,116.281,108.399,0.00294102,0.118586,20.9452,112.868,0.62828,0.0,0.0
3420,854.75,45.2203,46.2857,167.114,116.243,108.805,0.00312909,0.118832,20.9452,112.858,0.591867,0.0,0.0
3430,857.25,45.2252,46.1721,167.653,116.158,108.194,0.00314502,0.11879,20.9449,112.788,0.635746,0.0,0.0
3440,859.75,44.3026,45.577,169.697,116.115,106.946,0.00315979,0.118184,20.9446,112.778,0.736234,0.0,0.0
3450,862.25,44.0649,46.2186,168.212,116.031,108.119,0.00328984,0.117907,20.9458,112.778,0.632105,0.0,0.0
3460,864.75,45.0365,45.7626,165.249,115.974,107.964,0.00348325,0.117358,20.9461,112.748,0.640607,0.0,0.0
3470,867.25,44.1815,46.0462,170.687,115.908,107.166,0.00376954,0.116917,20.9476,112.768,0.701921,0.0,0.0
3480,869.75,44.4083,45.6032,169.71,115.863,108.305,0.00402129,0.116603,20.949,112.738,0.603721,0.0,0.0
3490,872.25,44.2255,45.8237,172.476,115.805,107.425,0.0042191,0.115879,20.9508,112.698,0.672291,0.0,0.0
3500,874.75,44.0039,46.0038,170.838,115.748,108.284,0.0043438,0.115626,20.9501,112.678,0.596651,0.0,0.0
3510,877.25,43.9859,45.6762,168.546,115.707,108.755,0.00438541,0.115285,20.9498,112.668,0.554618,0.0,0.0
3520,879.75,44.7121,45.8461,172.725,115.658,109.065,0.00431989,0.114803,20.9501,112.618,0.525336,0.0,0.0
3530,882.25,44.1292,45.5424,171.041,115.755,107.129,0.0044519,0.113956,20.9502,112.588,0.69309,0.0,0.0
3540,884.75,44.3659,45.4261,169.017,115.838,107.398,0.00467911,0.113751,20.9503,112.568,0.677076,0.0,0.0
3550,887.25,44.1184,44.9667,169.41,115.954,108.439,0.0045753,0.113866,20.9505,112.508,0.599708,0.0,0.0
3560,889.75,43.3918,45.1377,171.106,116.043,108.3,0.00466659,0.113994,20.951,112.478,0.618108,0.0,0.0
3570,892.25,43.2509,44.9541,165.74,116.118,108.132,0.00492566,0.112799,20.9525,112.448,0.637759,0.0,0.0
3580,894.75,42.7461,44.3422,171.496,116.137,107.442,0.0049676,0.112021,20.9533,112.418,0.696529,0.0,0.0
3590,897.25,42.3732,44.0707,166.818,116.2,107.519,0.00488773,0.111872,20.955,112.378,0.694889,0.0,0.0
3600,899.75,43.5803,44.2882,174.865,116.226,108.408,0.0049502,0.112103,20.9558,112.368,0.6233,0.0,0.0
3610,902.25,43.3255,44.1194,169.844,116.264,108.816,0.00509235,0.112328,20.9565,112.338,0.592565,0.0,0.0
3620,904.75,42.9548,44.2014,175.79,116.275,108.981,0.00525656,0.111532,20.9567,112.318,0.579894,0.0,0.0
3630,907.25,43.3877,44.3463,170.773,116.261,108.333,0.00543553,0.110998,20.9568,112.338,0.632141,0.0,0.0
3640,909.75,43.1946,44.7183,173.081,116.244,108.959,0.00540796,0.110587,20.9584,112.318,0.579287,0.0,0.0
3650,912.25,42.7849,44.0554,169.913,116.212,107.451,0.00528505,0.110058,20.9597,112.278,0.701587,0.0,0.0
3660,914.75,43.0371,44.3194,178.292,116.169,109.08,0.00538956,0.109357,20.961,112.288,0.563584,0.0,0.0
3670,917.25,43.3526,44.1704,166.385,116.113,108.349,0.00548868,0.108099,20.9627,112.248,0.619416,0.0,0.0
3680,919.75,42.7728,44.0597,169.14,116.064,108.007,0.00541876,0.107469,20.9638,112.228,0.643887,0.0,0.0
3690,922.25,42.3351,43.9295,171.464,115.97,107.515,0.00544798,0.107052,20.9652,112.178,0.677548,0.0,0.0
3700,924.75,42.631,44.0014,171.328,115.918,108.582,0.00558464,0.106845,20.966,112.137,0.585124,0.0,0.0
3710,927.25,42.6571,43.4336,169.123,115.835,107.228,0.00566593,0.106412,20.9675,112.107,0.691096,0.0,0.0
3720,929.75,41.9488,43.0549,171.171,115.759,107.94,0.00559098,0.106294,20.9678,112.087,0.625942,0.0,0.0
3730,932.25,42.5744,43.216,174.073,115.664,107.358,0.00549652,0.106018,20.9662,112.077,0.666951,0.0,0.0
3740,934.75,42.6708,43.713,168.765,115.609,108.204,0.00556501,0.105549,20.9664,112.027,0.592525,0.0,0.0
3750,937.25,42.0471,43.9952,169.997,115.49,108.176,0.00563442,0.104919,20.9675,111.977,0.585542,0.0,0.0
3760,939.75,42.2512,43.9052,167.309,115.407,108.989,0.00570267,0.10382,20.9691,111.997,0.512081,0.0,0.0
3770,942.25,42.2061,43.1285,171.629,115.299,107.506,0.00580981,0.10363,20.9697,111.957,0.626347,0.0,0.0
3780,944.75,42.3247,43.6714,168.959,115.256,107.399,0.00591933,0.103725,20.9686,111.917,0.631934,0.0,0.0
3790,947.25,42.3035,43.4306,169.042,115.255,108.49,0.00602111,0.103561,20.9693,111.897,0.541451,0.0,0.0
3800,949.75,41.9995,43.2874,166.637,115.261,107.021,0.00613768,0.103504,20.9698,111.867,0.663922,0.0,0.0
3810,952.25,42.089,43.1614,169.816,115.267,107.552,0.00617024,0.102922,20.9717,111.837,0.620103,0.0,0.0
3820,954.75,42.0071,43.2415,171.932,115.279,108.074,0.00610243,0.102365,20.9727,111.777,0.57771,0.0,0.0
3830,957.25,41.6982,43.4094,169.768,115.316,108.371,0.00609373,0.102323,20.973,111.777,0.555972,0.0,0.0
3840,959.75,41.6789,42.9433,171.17,115.317,108.403,0.00614191,0.102499,20.9702,111.747,0.553343,0.0,0.0
3850,962.25,41.756,42.8463,172.04,115.357,107.903,0.0060389,0.101771,20.9695,111.737,0.597843,0.0,0.0
3860,964.75,41.4984,42.843,173.492,115.368,108.162,0.00610241,0.100965,20.9705,111.707,0.577282,0.0,0.0
3870,967.25,41.7537,42.7625,171.334,115.42,108.352,0.00628463,0.100516,20.9708,111.687,0.565569,0.0,0.0
3880,969.75,41.5145,42.7982,169.802,115.436,107.519,0.00644488,0.100784,20.971,111.667,0.63588,0.0,0.0
3890,972.25,41.4981,42.3808,171.559,115.477,107.571,0.0066305,0.100972,20.9708,111.637,0.634785,0.0,0.0
3900,974.75,41.9003,41.8988,169.489,115.492,107.814,0.00675066,0.10035,20.9704,111.627,0.615768,0.0,0.0
3910,977.25,41.5136,42.9978,173.198,115.537,109.318,0.00672593,0.10025,20.971,111.637,0.495222,0.0,0.0
3920,979.75,41.3755,42.4975,173.683,115.563,108.149,0.00675335,0.0997442,20.972,111.597,0.593435,0.0,0.0
3930,982.25,40.8821,42.5928,173.83,115.589,108.707,0.0066391,0.0989129,20.9729,111.617,0.549434,0.0,0.0
3940,984.75,41.7622,42.5854,173.281,115.614,107.891,0.00645792,0.0986481,20.9745,111.577,0.618846,0.0,0.0
3950,987.25,41.3594,42.4992,168.865,115.668,107.978,0.006417,0.0985362,20.9759,111.567,0.615716,0.0,0.0
3960,989.75,40.9142,42.637,170.335,115.696,107.244,0.00637787,0.0976165,20.9763,111.537,0.678965,0.0,0.0
3970,992.25,40.5345,41.7371,173.279,115.716,107.963,0.00625879,0.097178,20.9765,111.507,0.620719,0.0,0.0
3980,994.75,41.0955,42.2729,168.021,115.758,107.572,0.00630264,0.0973949,20.976,111.537,0.65641,0.0,0.0
3990,997.25,41.1217,41.9676,175.004,115.774,107.877,0.00641126,0.0970483,20.9758,111.487,0.632299,0.0,0.0
4000,999.75,40.8977,41.6233,174.916,115.81,107.922,0.00658001,0.0965806,20.9757,111.427,0.631391,0.0,0.0
4010,1002.25,40.6283,41.9589,172.989,115.816,107.861,0.00695143,0.0970827,20.9771,111.427,0.636944,0.0,0.0
4020,1004.75,40.8157,41.5175,172.763,115.836,107.925,0.00721589,0.0970735,20.9775,111.377,0.633145,0.0,0.0
4030,1007.25,40.7859,41.6707,173.14,115.832,107.586,0.00727674,0.0967522,20.978,111.347,0.660949,0.0,0.0
4040,1009.75,40.5724,42.0907,170.006,115.855,109.157,0.00758154,0.0959032,20.9788,111.337,0.533028,0.0,0.0
4050,1012.25,40.6149,41.5012,171.372,115.835,108.46,0.00819503,0.0944574,20.98,111.307,0.588844,0.0,0.0
4060,1014.75,40.513,41.5125,168.129,115.862,108.892,0.00887793,0.0928526,20.9819,111.317,0.555266,0.0,0.0
4070,1017.25,40.3452,40.6323,171.227,115.841,109.281,0.0093083,0.0912832,20.9826,111.237,0.521747,0.0,0.0
4080,1019.75,40.0624,40.6441,175.41,115.814,108.241,0.00955349,0.0899968,20.9852,111.227,0.605299,0.0,0.0
4090,1022.25,39.9303,41.0385,168.733,115.798,108.218,0.00975352,0.0893803,20.9868,111.177,0.605933,0.0,0.0
4100,1024.75,39.0733,40.2202,173.994,115.778,108.474,0.00984081,0.0893148,20.9869,111.147,0.583315,0.0,0.0
4110,1027.25,39.1983,39.6967,171.597,115.757,109.339,0.00987598,0.0893727,20.9859,111.167,0.510499,0.0,0.0
4120,1029.75,39.3389,40.6872,171.203,115.721,108.696,0.00979562,0.0894485,20.986,111.116,0.560518,0.0,0.0
4130,1032.25,39.0842,40.4298,170.863,115.692,108.115,0.00962925,0.0889132,20.9874,111.106,0.606245,0.0,0.0
4140,1034.75,39.2251,40.2564,172.1,115.635,108.924,0.00947089,0.088549,20.9881,111.116,0.535202,0.0,0.0
4150,1037.25,39.1113,40.1665,175.208,115.606,108.832,0.00939969,0.0887811,20.9883,111.056,0.540459,0.0,0.0
4160,1039.75,39.1022,40.0563,167.948,115.525,107.83,0.00942426,0.088859,20.9884,111.066,0.616982,0.0,0.0
4170,1042.25,39.2858,40.5924,169.407,115.503,108.533,0.00939756,0.0891123,20.9884,111.026,0.557114,0.0,0.0
4180,1044.75,39.4469,40.3576,169.161,115.408,108.547,0.00926184,0.0890937,20.9884,111.006,0.548603,0.0,0.0
4190,1047.25,38.722,40.0933,172.941,115.333,109.02,0.00911846,0.0886849,20.9884,110.996,0.503893,0.0,0.0
4200,1049.75,38.7558,40.1524,172.944,115.228,108.239,0.00907571,0.088742,20.9884,110.946,0.560015,0.0,0.0
4210,1052.25,38.6119,39.8866,175.854,115.13,107.827,0.00903442,0.0886239,20.9869,110.916,0.586568,0.0,0.0
4220,1054.75,38.7766,40.1803,172.825,115.024,107.388,0.00909835,0.0885601,20.9874,110.906,0.614889,0.0,0.0
4230,1057.25,39.0469,40.1143,171.447,114.907,108.147,0.00913282,0.0886091,20.9881,110.886,0.542741,0.0,0.0
4240,1059.75,39.1349,40.4223,171.844,114.8,106.925,0.00909845,0.0884774,20.9878,110.876,0.636058,0.0,0.0
4250,1062.25,37.7325,39.0028,173.597,114.678,107.253,0.00905738,0.0881399,20.9875,110.826,0.599099,0.0,0.0
4260,1064.75,38.7787,39.6231,172.473,114.598,107.709,0.00903538,0.0881081,20.9881,110.826,0.554883,0.0,0.0
4270,1067.25,38.6662,39.8782,173.085,114.507,108.06,0.00910288,0.0883143,20.9883,110.816,0.51866,0.0,0.0
4280,1069.75,38.3859,39.2111,174.797,114.454,108.168,0.0091611,0.0884519,20.9884,110.796,0.505548,0.0,0.0
4290,1072.25,39.2749,39.8927,169.387,114.385,107.609,0.00915415,0.0883694,20.9884,110.786,0.546585,0.0,0.0
4300,1074.75,38.6631,39.8053,172.477,114.356,107.59,0.00913644,0.0882656,20.9887,110.766,0.54595,0.0,0.0
4310,1077.25,38.4778,39.4726,169.11,114.325,106.879,0.00912369,0.0882758,20.989,110.756,0.602802,0.0,0.0
4320,1079.75,38.4134,39.9828,172.88,114.338,107.335,0.00906524,0.0887744,20.989,110.736,0.565717,0.0,0.0
4330,1082.25,38.409,39.3474,173.902,114.336,107.913,0.00889498,0.0885448,20.9893,110.706,0.517528,0.0,0.0
4340,1084.75,38.7037,39.2994,172.753,114.377,107.597,0.00882777,0.0882314,20.9902,110.706,0.546975,0.0,0.0
4350,1087.25,38.809,39.4762,168.454,114.442,106.978,0.00878788,0.0884854,20.9895,110.676,0.60372,0.0,0.0
4360,1089.75,38.3928,39.4548,175.725,114.48,107.161,0.00875527,0.0885441,20.9892,110.616,0.591352,0.0,0.0
4370,1092.25,38.6791,39.2064,174.552,114.548,107.278,0.00871766,0.0883137,20.9906,110.606,0.586925,0.0,0.0
4380,1094.75,38.325,39.2427,170.889,114.608,107.526,0.0087722,0.0883149,20.9911,110.586,0.570896,0.0,0.0
4390,1097.25,38.0897,39.5436,174.176,114.696,107.606,0.00873876,0.0882716,20.9909,110.546,0.571063,0.0,0.0
4400,1099.75,37.9391,39.323,175.961,114.779,107.333,0.00866568,0.0884277,20.99,110.536,0.600377,0.0,0.0
4410,1102.25,38.2762,39.2741,177.307,114.908,108.749,0.00858217,0.0882729,20.9895,110.546,0.493055,0.0,0.0
4420,1104.75,38.3243,39.4816,178.736,114.986,108.106,0.00846568,0.0883548,20.9893,110.486,0.552221,0.0,0.0
4430,1107.25,38.6497,39.0742,177.365,115.096,107.416,0.00848078,0.0883669,20.9893,110.476,0.618147,0.0,0.0
4440,1109.75,38.1301,39.0255,169.229,115.21,108.416,0.00849694,0.0880523,20.9895,110.436,0.544066,0.0,0.0
4450,1112.25,38.8495,39.4362,175.219,115.335,108.518,0.00847999,0.0882007,20.9899,110.406,0.545375,0.0,0.0
4460,1114.75,38.5077,39.2792,176.679,115.411,108.743,0.0086184,0.0884659,20.99,110.426,0.532672,0.0,0.0
4470,1117.25,37.7739,39.7135,171.278,115.544,108.84,0.00872372,0.0886932,20.9901,110.416,0.534991,0.0,0.0
4480,1119.75,38.0596,38.9059,171.493,115.66,108.455,0.00860974,0.0885204,20.9897,110.406,0.575716,0.0,0.0
4490,1122.25,38.3519,39.3902,173.529,115.764,108.998,0.00851772,0.0881553,20.9887,110.376,0.539072,0.0,0.0
4500,1124.75,38.0072,39.2409,170.156,115.86,108.279,0.00846076,0.0877956,20.9889,110.376,0.605705,0.0,0.0
4510,1127.25,37.7914,39.0014,175.643,115.97,108.389,,0.0878437,,110.376,0.605064,0.0,0.0
4520,1129.75,37.7746,38.8134,174.41,116.054,109.319,,,,110.336,0.535096,0.0,0.0
4530,1132.25,38.089,38.8712,171.652,116.128,108.454,,,,110.326,0.611879,0.0,0.0
4540,1134.75,37.5418,39.0394,175.363,116.241,109.386,,,,110.296,0.544026,0.0,0.0
4546,1136.25,37.7968,38.7966,167.91,116.272,109.127,,,,110.296,0.567701,0.0,0.0