File: 01_Data/EPDM_Membrane/Cone/EPDM_Membrane_Cone_HF75Scan_220225_R1.csv
Names,Time,Stack TC,Smoke TC,Exh Press,Smoke Comp,Smoke Meas,CO Meter,CO2 Meter,O2 Meter,Sample Mass,Ext Coeff,Start Test,Flame Verif
Chan Gain,,500,500,1,1,1,1,1,1,1,1,1.0,1.0
Offset,,0,0,0.137915,0,0,0,0,0,0,0,0.0,0.0
Gain,,1,1,25.011,15.3125,15.3273,1,1,1,1.00096,1.02035,1.0,1.0
Units,sec,C,C,Pa,%,%,%,%,%,g,/m,,
Baseline,,41.0018,42.896,170.223,115.585,109.274,-0.00037807,0.0479309,21.0509,-868.444,0.502805,,
6,1.25,40.4315,41.7148,166.914,115.694,109.665,-0.000629542,0.0524469,21.0467,151.896,0.479005,0.0,0.0
12,2.75,40.5255,41.5762,166.821,115.685,111.035,-0.000608862,0.0525626,21.0462,151.926,0.367231,0.0,0.0
18,4.25,39.9321,41.9785,168.709,115.654,111.268,-0.000630084,0.0528636,21.0459,151.946,0.345977,0.0,0.0
24,5.75,40.2183,41.6992,169.723,115.639,111.217,-0.000665852,0.0529646,21.0454,151.986,0.348996,0.0,0.0
30,7.25,40.2797,42.046,169.423,115.588,109.934,-0.000655145,0.0529785,21.0451,151.946,0.448871,0.0,0.0
36,8.75,40.1277,41.6788,168.229,115.573,110.432,-0.000591447,0.0527219,21.0449,151.936,0.407284,0.0,0.0
42,10.25,40.2999,41.8032,168.263,115.532,107.744,-0.000486932,0.0525069,21.0449,151.906,0.624594,0.0,0.0
48,11.75,40.7685,42.4481,167.725,115.518,107.303,-0.000311622,0.0526617,21.044,151.926,0.660264,0.0,0.0
54,13.25,40.5706,42.197,173.575,115.419,105.891,1.66895e-05,0.0539486,21.0375,151.866,0.771118,0.0,0.0
60,14.75,40.6408,42.2313,167.62,115.432,106.439,0.000591631,0.0640943,21.0107,151.896,0.725991,0.0,1.0
66,16.25,40.4667,41.7878,159.694,115.397,93.9008,0.00159907,0.0872266,20.9743,151.775,1.84505,0.0,1.0
72,17.75,41.0982,42.7565,158.338,115.356,80.336,0.003272,0.120399,20.9091,151.705,3.23832,0.0,1.0
78,19.25,40.645,42.1392,156.858,115.315,73.3211,0.00580583,0.162267,20.8185,151.585,4.05293,0.0,1.0
84,20.75,42.1934,43.7102,152.06,115.276,65.7117,0.00828733,0.220115,20.7204,151.475,5.03059,0.0,0.0
90,22.25,43.1284,44.7567,150.008,115.227,63.5881,0.0113736,0.282937,20.5924,151.305,5.32081,0.0,0.0
96,23.75,43.9254,45.5594,149.787,115.179,57.7319,0.0144578,0.344509,20.4917,151.065,6.18191,0.0,0.0
102,25.25,45.9563,48.0001,142.948,115.136,56.6911,0.0178285,0.414458,20.3973,150.935,6.34136,0.0,0.0
108,26.75,47.1602,49.7459,136.435,115.082,51.6843,0.0210673,0.474714,20.2939,150.714,7.16474,0.0,0.0
114,28.25,49.1898,51.8194,139.636,115.052,48.5513,0.02403,0.547612,20.161,150.534,7.72211,0.0,0.0
120,29.75,51.2006,54.2561,133.029,114.983,46.9165,0.0264738,0.608595,20.0436,150.284,8.02333,0.0,0.0
126,31.25,53.4537,56.7425,127.589,114.958,43.1099,0.0287738,0.66254,19.9527,150.094,8.77875,0.0,0.0
132,32.75,55.0379,59.0402,136.469,114.905,41.324,0.0305621,0.700931,19.8892,149.864,9.15329,0.0,0.0
138,34.25,57.2339,61.2884,132.505,114.885,44.1034,0.0320074,0.729471,19.8389,149.643,8.56907,0.0,0.0
144,35.75,59.6742,63.9411,129.375,114.825,43.523,0.0329983,0.754408,19.7977,149.403,8.683,0.0,0.0
150,37.25,61.1531,65.5517,132.349,114.812,43.1707,0.0336177,0.775552,19.7667,149.183,8.75474,0.0,0.0
156,38.75,62.8827,67.9012,138.749,114.76,47.229,0.0339727,0.791329,19.7463,148.913,7.94651,0.0,0.0
162,40.25,65.0803,70.3328,134.116,114.74,44.581,0.03417,0.799991,19.7368,148.693,8.46138,0.0,0.0
168,41.75,66.9213,72.4159,139.24,114.709,45.7831,0.0342523,0.801975,19.7337,148.482,8.22086,0.0,0.0
174,43.25,68.2945,73.9906,127.347,114.701,45.5357,0.0342135,0.803702,19.7353,148.212,8.26875,0.0,0.0
180,44.75,69.6247,75.7883,130.959,114.666,44.2933,0.0340517,0.804841,19.7362,148.022,8.51356,0.0,0.0
186,46.25,71.9242,78.334,135.069,114.649,45.3795,0.0337823,0.803406,19.7388,147.802,8.29542,0.0,0.0
192,47.75,72.6725,79.1779,132.188,114.611,46.0409,0.0333904,0.799988,19.7459,147.601,8.16296,0.0,0.0
198,49.25,73.4877,80.4365,132.355,114.584,47.5699,0.032962,0.795186,19.7605,147.371,7.86841,0.0,0.0
204,50.75,75.3938,82.4684,133.572,114.557,44.5174,0.0326019,0.784221,19.7791,147.121,8.4599,0.0,0.0
210,52.25,76.492,83.4296,132.949,114.546,45.0988,0.0321966,0.773818,19.7979,146.971,8.34288,0.0,0.0
216,53.75,77.8972,85.1549,131.214,114.517,46.5666,0.0317427,0.763738,19.8199,146.741,8.05399,0.0,0.0
222,55.25,77.86,86.0718,135.234,114.495,46.2079,0.0313594,0.750223,19.8427,146.53,8.1215,0.0,0.0
228,56.75,79.6061,87.4368,134.694,114.492,49.8507,0.0308915,0.737781,19.8668,146.29,7.44209,0.0,0.0
234,58.25,80.6512,88.2588,136.689,114.456,50.0261,0.0303499,0.729476,19.8819,146.15,7.40777,0.0,0.0
240,59.75,81.1303,89.1843,134.252,114.455,49.7876,0.0298027,0.720773,19.8934,145.92,7.45051,0.0,0.0
246,61.25,81.6266,90.6128,135.92,114.423,46.6803,0.029422,0.709864,19.9152,145.76,8.02482,0.0,0.0
252,62.75,82.5041,90.8759,133.201,114.427,47.0119,0.0291598,0.700827,19.9319,145.559,7.96172,0.0,0.0
258,64.25,83.1004,91.6046,141.579,114.39,47.9951,0.0288811,0.691937,19.9507,145.329,7.77357,0.0,0.0
264,65.75,84.2661,92.8691,140.962,114.395,47.8913,0.0284702,0.681313,19.9671,145.149,7.79336,0.0,0.0
270,67.25,84.6503,93.3367,136.717,114.37,50.8947,0.0280329,0.672275,19.9796,144.909,7.247,0.0,0.0
276,68.75,84.7519,93.3117,136.99,114.371,52.747,0.0276743,0.665422,19.99,144.769,6.92715,0.0,0.0
282,70.25,85.1898,93.6362,135.633,114.339,47.9343,0.0274292,0.660206,19.9974,144.609,7.78097,0.0,0.0
288,71.75,85.5247,94.5419,144.163,114.329,55.4221,0.027219,0.653774,20.0083,144.428,6.48103,0.0,0.0
294,73.25,85.9931,95.0221,135.055,114.299,51.1894,0.0269489,0.645676,20.0225,144.248,7.18973,0.0,0.0
300,74.75,86.476,95.9485,140.891,114.314,53.2714,0.0266479,0.638245,20.0365,144.038,6.83408,0.0,0.0
306,76.25,86.9647,96.1779,141.982,114.291,54.0174,0.0263783,0.631489,20.0473,143.858,6.7078,0.0,0.0
312,77.75,87.4327,96.5197,137.212,114.293,50.6524,0.0261287,0.626415,20.0548,143.678,7.28371,0.0,0.0
318,79.25,87.4698,96.8651,134.4,114.264,54.3547,0.0259051,0.621802,20.0599,143.488,6.64997,0.0,0.0
324,80.75,87.7114,97.0076,142.492,114.269,53.8907,0.0256654,0.615873,20.0703,143.297,6.72715,0.0,0.0
330,82.25,88.0797,97.5371,144.656,114.252,57.1944,0.0254046,0.609052,20.0838,143.127,6.19329,0.0,0.0
336,83.75,88.4543,97.6449,143.374,114.251,52.8163,0.0251129,0.603241,20.0923,142.947,6.90597,0.0,0.0
342,85.25,88.242,97.4983,138.592,114.237,50.2268,0.0249344,0.59938,20.0962,142.827,7.35485,0.0,0.0
348,86.75,88.4879,98.568,140.087,114.241,51.3101,0.0248502,0.598409,20.0978,142.597,7.16411,0.0,0.0
354,88.25,88.9379,98.4089,146.184,114.23,52.4332,0.0248479,0.597752,20.0987,142.457,6.96952,0.0,0.0
360,89.75,89.1263,98.3972,139.936,114.224,52.5871,0.0248611,0.595539,20.1039,142.286,6.94277,0.0,0.0
366,91.25,88.3003,97.7792,137.667,114.232,52.3289,0.0248352,0.593013,20.1078,142.126,6.98748,0.0,0.0
372,92.75,88.9333,98.392,138.166,114.22,51.4008,0.0247343,0.589627,20.1125,141.936,7.14665,0.0,0.0
378,94.25,89.6236,99.2751,140.199,114.233,52.9388,0.0245653,0.585893,20.1192,141.776,6.88383,0.0,0.0
384,95.75,89.6748,99.393,143.466,114.21,53.3373,0.024317,0.583278,20.1253,141.546,6.81488,0.0,0.0
390,97.25,89.7332,99.4456,142.151,114.232,52.6666,0.0240957,0.58177,20.1288,141.375,6.92987,0.0,0.0
396,98.75,89.6957,99.6707,141.444,114.208,54.2289,0.0239404,0.579826,20.1307,141.245,6.6664,0.0,0.0
402,100.25,90.4067,100.102,139.052,114.222,53.1993,0.0237931,0.578409,20.1316,141.055,6.83901,0.0,0.0
408,101.75,89.9606,99.8244,139.227,114.218,54.9693,0.0236587,0.578468,20.1319,140.865,6.54574,0.0,0.0
414,103.25,90.1746,100.289,142.686,114.229,49.7819,0.0236083,0.579573,20.1312,140.725,7.43382,0.0,0.0
420,104.75,89.8327,99.7702,136.847,114.213,51.1599,0.0236932,0.581128,20.1309,140.515,7.18815,0.0,0.0
426,106.25,90.2794,100.674,145.074,114.235,53.5455,0.0238037,0.580009,20.1296,140.334,6.78203,0.0,0.0
432,107.75,90.3487,100.439,136.812,114.215,50.0967,0.0239009,0.578813,20.1289,140.164,7.3763,0.0,0.0
438,109.25,90.7304,100.419,138.714,114.219,55.4403,0.023962,0.579343,20.1285,140.004,6.46949,0.0,0.0
444,110.75,91.6949,101.563,146.353,114.233,51.4892,0.0239844,0.579562,20.1274,139.814,7.1323,0.0,0.0
450,112.25,91.1427,101.437,140.629,114.252,53.0904,0.0240069,0.579271,20.124,139.654,6.85971,0.0,0.0
456,113.75,90.6186,100.833,138.666,114.239,56.258,0.0240509,0.581291,20.1203,139.474,6.34002,0.0,0.0
462,115.25,91.1898,101.097,136.154,114.27,55.2018,0.0241625,0.583688,20.1155,139.303,6.51203,0.0,0.0
468,116.75,90.408,100.631,141.167,114.252,51.754,0.0243453,0.585413,20.1127,139.133,7.08793,0.0,0.0
474,118.25,91.3736,101.671,139.079,114.278,54.321,0.0245989,0.586891,20.1121,138.943,6.65662,0.0,0.0
480,119.75,91.0185,101.176,136.804,114.279,54.0708,0.0247945,0.587551,20.1118,138.803,6.69809,0.0,0.0
486,121.25,91.6017,101.892,139.579,114.299,51.0715,0.0249355,0.586964,20.1117,138.563,7.21036,0.0,0.0
492,122.75,91.9474,102.159,151.704,114.309,55.5409,0.0250719,0.585838,20.1117,138.433,6.46029,0.0,0.0
498,124.25,91.7651,101.95,139.236,114.324,52.2016,0.0252078,0.587116,20.1067,138.222,7.01645,0.0,0.0
504,125.75,92.1951,102.33,142.429,114.342,53.4987,0.0252746,0.593352,20.094,138.062,6.79816,0.0,0.0
510,127.25,92.4622,102.621,145.914,114.345,53.0548,0.0253179,0.59921,20.0869,137.892,6.87299,0.0,0.0
516,128.75,92.3046,102.353,139.446,114.362,53.4042,0.0254725,0.604021,20.0791,137.652,6.81559,0.0,0.0
522,130.25,93.0147,103.173,138.768,114.358,50.1908,0.0256963,0.606775,20.0732,137.462,7.37075,0.0,0.0
528,131.75,93.0011,103.517,140.195,114.38,52.3499,0.0259642,0.609399,20.0677,137.282,6.99545,0.0,0.0
534,133.25,92.9973,103.763,136.583,114.376,46.865,0.0263427,0.61227,20.0613,137.121,7.98574,0.0,0.0
540,134.75,92.7428,103.227,134.032,114.405,48.2996,0.0267144,0.617296,20.0499,136.951,7.71817,0.0,0.0
546,136.25,93.7815,104.048,135.441,114.4,48.5663,0.0271376,0.624659,20.0362,136.731,7.66849,0.0,0.0
552,137.75,94.117,104.56,135.382,114.422,48.3848,0.0277298,0.633097,20.0177,136.501,7.70372,0.0,0.0
558,139.25,94.3612,105.132,135.608,114.416,48.3941,0.0284943,0.64689,19.9967,136.341,7.70155,0.0,0.0
564,140.75,94.8572,105.844,131.432,114.443,43.4214,0.0293907,0.663139,19.9652,136.1,8.67409,0.0,0.0
570,142.25,95.4511,106.313,131.815,114.433,46.4455,0.0305635,0.684127,19.9364,135.89,8.07069,0.0,0.0
576,143.75,95.518,106.42,128.026,114.472,46.1807,0.0318704,0.710314,19.8913,135.65,8.12496,0.0,0.0
582,145.25,96.6652,107.51,128.647,114.46,43.0304,0.0331069,0.734438,19.8401,135.38,8.75637,0.0,0.0
588,146.75,97.2532,108.176,125.253,114.503,43.0762,0.0339381,0.759537,19.7944,135.119,8.75021,0.0,0.0
594,148.25,98.0134,108.984,130.606,114.484,46.2546,0.0344054,0.778586,19.7631,134.919,8.11153,0.0,0.0
600,149.75,99.0365,110.168,127.87,114.512,43.1445,0.0346834,0.793326,19.7457,134.629,8.73672,0.0,0.0
606,151.25,99.4101,110.859,129.195,114.501,39.6701,0.0348776,0.802303,19.7334,134.429,9.48735,0.0,0.0
612,152.75,100.598,112.133,133.107,114.531,46.9712,0.0348647,0.80301,19.7322,134.199,7.97765,0.0,0.0
618,154.25,100.911,112.483,126.284,114.551,44.5483,0.0345934,0.797374,19.7465,133.968,8.45322,0.0,0.0
624,155.75,101.31,113.133,129.179,114.556,46.2659,0.0340871,0.786804,19.7654,133.698,8.11498,0.0,0.0
630,157.25,101.362,113.204,135.142,114.571,44.4725,0.0334313,0.772929,19.7934,133.578,8.47006,0.0,0.0
636,158.75,101.623,113.26,135.299,114.587,48.4339,0.0328091,0.758171,19.8195,133.338,7.70757,0.0,0.0
642,160.25,102.156,113.822,130.273,114.597,48.0901,0.0321564,0.743616,19.8474,133.128,7.77206,0.0,0.0
648,161.75,102.147,114.172,131.249,114.606,48.1986,0.0314423,0.731922,19.8648,132.847,7.75265,0.0,0.0
654,163.25,102.511,114.343,134.986,114.632,50.7334,0.0306521,0.724684,19.8741,132.697,7.29588,0.0,0.0
660,164.75,102.527,114.189,132.435,114.647,51.1431,0.0300389,0.71916,19.8826,132.477,7.22509,0.0,0.0
666,166.25,103.105,115.323,132.839,114.676,48.6972,0.0296251,0.713149,19.8956,132.287,7.66597,0.0,0.0
672,167.75,102.628,114.926,138.385,114.692,53.0099,0.0293759,0.704516,19.9134,132.077,6.90767,0.0,0.0
678,169.25,103.128,115.168,137.692,114.714,52.8195,0.0292397,0.696202,19.9271,131.866,6.94162,0.0,0.0
684,170.75,103.128,115.035,132.804,114.728,49.3016,0.0291235,0.689743,19.9346,131.676,7.55959,0.0,0.0
690,172.25,103.218,115.318,132.395,114.751,50.3124,0.0289598,0.685983,19.9386,131.456,7.3798,0.0,0.0
696,173.75,103.639,115.745,133.9,114.758,51.4687,0.0288155,0.684348,19.9399,131.276,7.17697,0.0,0.0
702,175.25,103.703,115.746,137.135,114.752,55.0975,0.0287771,0.684303,19.9399,131.036,6.56669,0.0,0.0
708,176.75,104.019,115.678,135.614,114.758,50.4078,0.0287989,0.684104,19.9393,130.825,7.36338,0.0,0.0
714,178.25,103.566,115.45,130.588,114.79,47.7383,0.0288373,0.684173,19.9397,130.645,7.85283,0.0,0.0
720,179.75,104.277,116.306,136.342,114.771,50.1281,0.0288858,0.683419,19.9405,130.455,7.41417,0.0,0.0
726,181.25,104.053,115.854,139.085,114.794,49.7993,0.0289717,0.681738,19.9417,130.235,7.4749,0.0,0.0
732,182.75,104.264,116.17,136.849,114.792,50.1678,0.0290898,0.679983,19.9424,130.055,7.40872,0.0,0.0
738,184.25,104.02,116.183,137.005,114.808,49.6996,0.0292516,0.678932,19.9428,129.834,7.49392,0.0,0.0
744,185.75,104.409,116.293,132.721,114.814,50.3086,0.0294063,0.680109,19.9401,129.634,7.38538,0.0,0.0
750,187.25,104.864,116.853,137.041,114.839,53.0656,0.0294808,0.682283,19.9358,129.464,6.90975,0.0,0.0
756,188.75,104.72,116.764,134.179,114.832,50.0102,0.0294373,0.683566,19.9344,129.234,7.44002,0.0,0.0
762,190.25,104.985,116.55,138.031,114.857,51.123,0.029327,0.683288,19.9356,129.044,7.24494,0.0,0.0
768,191.75,105.004,116.881,136.535,114.849,52.3125,0.0291769,0.68211,19.9366,128.793,7.03849,0.0,0.0
774,193.25,104.45,116.369,135.439,114.864,51.8405,0.0290379,0.680259,19.9377,128.603,7.12081,0.0,0.0
780,194.75,104.896,117.012,128.58,114.875,50.9827,0.0288635,0.679798,19.9395,128.433,7.27096,0.0,0.0
786,196.25,104.864,116.637,133.085,114.891,52.8415,0.028601,0.678808,19.9426,128.223,6.9517,0.0,0.0
792,197.75,105.178,117.147,140.268,114.909,54.8636,0.0282925,0.67586,19.9492,128.003,6.61701,0.0,0.0
798,199.25,105.528,117.459,138.804,114.922,51.5482,0.0279539,0.670664,19.9579,127.873,7.1759,0.0,0.0
804,200.75,105.43,117.496,134.722,114.952,52.9898,0.0276441,0.665105,19.9681,127.622,6.93139,0.0,0.0
810,202.25,105.462,117.607,137.514,114.959,52.9599,0.0273993,0.657641,19.9812,127.472,6.937,0.0,0.0
816,203.75,105.863,117.594,134.019,114.97,50.0897,0.0271896,0.651073,19.9924,127.272,7.43654,0.0,0.0
822,205.25,105.72,117.159,133.992,114.975,51.6787,0.0269675,0.64529,19.9997,127.082,7.15742,0.0,0.0
828,206.75,105.588,117.394,139.895,114.992,53.0445,0.0266907,0.640025,20.0072,126.902,6.92528,0.0,0.0
834,208.25,105.745,117.152,133.069,115.017,54.1737,0.0263427,0.634211,20.0179,126.741,6.73864,0.0,0.0
840,209.75,105.57,117.312,138.639,115.036,52.167,0.0260427,0.628025,20.0278,126.561,7.07797,0.0,0.0
846,211.25,105.168,116.895,139.21,115.035,56.2075,0.025719,0.623142,20.0363,126.381,6.41016,0.0,0.0
852,212.75,104.817,116.299,132.559,115.064,54.3248,0.0254657,0.618862,20.0423,126.161,6.71739,0.0,0.0
858,214.25,105.499,117.445,139.32,115.06,53.0515,0.0253003,0.613902,20.0519,126.041,6.92937,0.0,0.0
864,215.75,105.348,116.924,140.165,115.09,53.255,0.0252208,0.610375,20.0579,125.821,6.89743,0.0,0.0
870,217.25,105.003,116.783,135.333,115.075,52.0861,0.0251878,0.606081,20.0652,125.68,7.09491,0.0,0.0
876,218.75,105.015,116.452,135.88,115.103,54.4716,0.025182,0.600688,20.0726,125.5,6.69628,0.0,0.0
882,220.25,104.955,116.601,136.412,115.121,51.964,0.0252106,0.59583,20.0772,125.31,7.11951,0.0,0.0
888,221.75,105.041,116.489,136.223,115.148,55.5578,0.0252769,0.591739,20.0794,125.14,6.52302,0.0,0.0
894,223.25,104.883,116.213,142.245,115.136,55.8828,0.0253859,0.591654,20.0808,124.98,6.46993,0.0,0.0
900,224.75,104.916,116.315,137.616,115.165,55.6518,0.0254068,0.591825,20.0816,124.79,6.50926,0.0,0.0
906,226.25,104.239,115.669,142.541,115.153,52.7564,0.0252922,0.587829,20.0887,124.629,6.98654,0.0,0.0
912,227.75,104.992,115.996,138.671,115.173,53.8701,0.025156,0.583482,20.0934,124.439,6.80108,0.0,0.0
918,229.25,104.526,115.935,150.576,115.171,52.494,0.0250984,0.58391,20.0914,124.259,7.03251,0.0,0.0
924,230.75,104.031,115.281,139.176,115.171,52.0201,0.0251587,0.586625,20.0887,124.099,7.11374,0.0,0.0
930,232.25,104.408,115.522,136.509,115.175,51.4008,0.0252724,0.587363,20.0868,123.909,7.22119,0.0,0.0
936,233.75,104.308,115.437,141.122,115.174,52.3607,0.0253766,0.587709,20.0866,123.739,7.05556,0.0,0.0
942,235.25,104.079,115.246,137.718,115.179,54.996,0.0253976,0.588629,20.0899,123.548,6.61645,0.0,0.0
948,236.75,104.301,115.105,143.707,115.174,53.0946,0.0253393,0.587015,20.0922,123.398,6.93094,0.0,0.0
954,238.25,103.86,115.037,137.814,115.182,56.6383,0.0252581,0.583675,20.0944,123.228,6.35327,0.0,0.0
960,239.75,103.746,114.622,137.326,115.183,55.6462,0.0252305,0.582272,20.0956,123.048,6.51155,0.0,0.0
966,241.25,103.684,115.022,138.663,115.178,53.9973,0.025271,0.582846,20.0963,122.868,6.7804,0.0,0.0
972,242.75,104.014,115.288,135.515,115.175,53.531,0.0253942,0.583636,20.0966,122.698,6.85775,0.0,0.0
978,244.25,103.73,114.817,140.494,115.185,52.3438,0.0254767,0.582025,20.0968,122.527,7.05931,0.0,0.0
984,245.75,104.069,114.931,139.856,115.17,54.2808,0.0255019,0.580649,20.0969,122.347,6.73288,0.0,0.0
990,247.25,103.804,114.942,137.679,115.188,54.8842,0.0255165,0.58064,20.0969,122.177,6.63535,0.0,0.0
996,248.75,103.991,114.52,141.635,115.188,56.3501,0.0255824,0.581068,20.0954,122.047,6.39943,0.0,0.0
1002,250.25,103.574,114.623,134.49,115.191,56.0587,0.0257161,0.582386,20.0916,121.857,6.44605,0.0,0.0
1008,251.75,103.831,114.595,141.176,115.175,54.9118,0.0258614,0.58451,20.0856,121.667,6.62984,0.0,0.0
1014,253.25,103.794,114.749,141.11,115.185,55.9825,0.0259184,0.58654,20.0811,121.506,6.45772,0.0,0.0
1020,254.75,103.902,115.07,131.576,115.142,51.6455,0.0258544,0.587939,20.0787,121.326,7.17619,0.0,0.0
1026,256.25,103.926,114.554,133.501,115.15,54.9558,0.025792,0.58909,20.0775,121.146,6.62075,0.0,0.0
1032,257.75,103.772,114.439,141.087,115.111,52.574,0.0258259,0.59043,20.0766,120.966,7.01427,0.0,0.0
1038,259.25,103.837,114.956,137.808,115.114,52.0931,0.0259773,0.59148,20.074,120.826,7.09676,0.0,0.0
1044,260.75,103.897,114.749,137.129,115.1,53.7943,0.0261521,0.592048,20.0728,120.596,6.80797,0.0,0.0
1050,262.25,104.213,114.809,140.22,115.091,54.9151,0.0263047,0.593529,20.0704,120.485,6.62276,0.0,0.0
1056,263.75,104.009,114.853,136.803,115.073,51.7629,0.0265244,0.596638,20.0639,120.305,7.15045,0.0,0.0
1062,265.25,103.464,114.458,134.891,115.076,56.3557,0.0266728,0.598871,20.0588,120.095,6.38982,0.0,0.0
1068,266.75,104.321,115.251,140.327,115.037,50.7755,0.0267192,0.600515,20.056,119.945,7.32007,0.0,0.0
1074,268.25,103.84,114.393,141.739,115.021,53.0712,0.0266772,0.599378,20.0567,119.805,6.923,0.0,0.0
1080,269.75,104.305,114.96,142.163,115,55.5442,0.0266964,0.598641,20.0569,119.575,6.51375,0.0,0.0
1086,271.25,104.248,115.052,134.334,114.976,56.243,0.0268542,0.601678,20.0478,119.344,6.39992,0.0,0.0
1092,272.75,103.879,114.885,139.063,114.981,54.2312,0.026989,0.606807,20.0381,119.234,6.72638,0.0,0.0
1098,274.25,104.404,115.331,139.339,114.956,52.5333,0.0270858,0.611203,20.0309,119.034,7.00909,0.0,0.0
1104,275.75,104.499,115.1,136.554,114.93,49.5757,0.0271846,0.61513,20.0256,118.824,7.52577,0.0,0.0
1110,277.25,104.8,115.209,136.13,114.918,51.9565,0.0273896,0.618741,20.0183,118.674,7.10495,0.0,0.0
1116,278.75,104.679,115.495,139.682,114.92,53.1427,0.0276398,0.621231,20.0145,118.464,6.90308,0.0,0.0
1122,280.25,104.838,115.769,135.84,114.898,51.0425,0.0278192,0.621694,20.0141,118.343,7.26227,0.0,0.0
1128,281.75,105.103,115.906,134.431,114.89,50.9902,0.0279025,0.620706,20.0164,118.093,7.27085,0.0,0.0
1134,283.25,105.327,115.962,136.374,114.866,49.4218,0.0279302,0.618425,20.0187,117.943,7.54858,0.0,0.0
1140,284.75,104.841,115.607,133.398,114.868,51.71,0.0279026,0.616973,20.0215,117.813,7.14366,0.0,0.0
1146,286.25,105.308,115.745,134.461,114.846,53.3785,0.0278091,0.615751,20.0234,117.583,6.85768,0.0,0.0
1152,287.75,104.826,115.541,137.334,114.844,51.9607,0.0276949,0.614425,20.0222,117.403,7.09851,0.0,0.0
1158,289.25,105.249,115.921,134.654,114.814,52.7868,0.0276101,0.615582,20.0216,117.212,6.95493,0.0,0.0
1164,290.75,105.168,116.097,136.393,114.818,50.0355,0.0275775,0.616629,20.0213,117.052,7.43437,0.0,0.0
1170,292.25,105.535,116.086,134.636,114.797,51.0748,0.0275163,0.615655,20.0249,116.912,7.24875,0.0,0.0
1176,293.75,105.825,116.288,136.248,114.791,49.5986,0.0273781,0.611465,20.0332,116.712,7.51075,0.0,0.0
1182,295.25,105.632,116.241,130.695,114.76,51.855,0.0271582,0.605977,20.0407,116.542,7.11018,0.0,0.0
1188,296.75,105.724,116.218,137.297,114.769,53.0043,0.0268447,0.601613,20.0475,116.311,6.91463,0.0,0.0
1194,298.25,105.399,116.053,135.102,114.749,54.7111,0.0266221,0.599295,20.0514,116.131,6.62942,0.0,0.0
1200,299.75,105.935,116.111,136.531,114.768,53.7476,0.026512,0.597329,20.0543,115.971,6.78992,0.0,0.0
1206,301.25,105.147,115.806,134.797,114.717,53.6811,0.0264373,0.594746,20.0561,115.811,6.79702,0.0,0.0
1212,302.75,105.489,116.143,139.415,114.723,52.7452,0.0263448,0.589778,20.0595,115.591,6.95493,0.0,0.0
1218,304.25,105.616,116.079,133.643,114.693,52.3705,0.0260323,0.582816,20.0726,115.461,7.0164,0.0,0.0
1224,305.75,105.221,115.409,140.017,114.685,56.1499,0.0256895,0.577127,20.0898,115.29,6.39213,0.0,0.0
1230,307.25,105.173,115.742,131.706,114.661,51.3962,0.0252603,0.568542,20.1053,115.11,7.18197,0.0,0.0
1236,308.75,105.24,115.397,140.226,114.653,54.2186,0.0247652,0.5589,20.124,114.99,6.70289,0.0,0.0
1242,310.25,105.429,115.568,139.498,114.639,56.0391,0.0242668,0.549731,20.1399,114.8,6.4062,0.0,0.0
1248,311.75,105.195,115.35,141.287,114.619,57.0092,0.0239006,0.542883,20.1504,114.63,6.25101,0.0,0.0
1254,313.25,104.541,114.871,135.559,114.621,50.8059,0.0236319,0.536499,20.1642,114.5,7.28226,0.0,0.0
1260,314.75,104.829,114.977,134.94,114.614,54.2958,0.0233551,0.529656,20.1754,114.4,6.68713,0.0,0.0
1266,316.25,104.07,114.36,141.876,114.587,58.8615,0.0229745,0.523015,20.1868,114.219,5.96231,0.0,0.0
1272,317.75,104.306,114.198,137.995,114.565,52.3841,0.0225655,0.51412,20.2031,114.059,7.00412,0.0,0.0
1278,319.25,103.959,113.876,136.825,114.564,54.0708,0.0222007,0.504307,20.2211,113.969,6.72032,0.0,0.0
1284,320.75,103.813,113.741,142.158,114.532,59.7582,0.0217919,0.494233,20.2383,113.779,5.82268,0.0,0.0
1290,322.25,103.968,113.825,142.315,114.543,53.4786,0.0212952,0.482626,20.2537,113.609,6.81728,0.0,0.0
1296,323.75,103.24,112.901,144.444,114.513,57.1556,0.0206315,0.472141,20.2714,113.489,6.21973,0.0,0.0
1302,325.25,102.79,112.564,139.617,114.525,54.9904,0.0200749,0.463585,20.2858,113.339,6.56638,0.0,0.0
1308,326.75,102.342,111.909,143.547,114.498,61.0188,0.0195935,0.455928,20.2998,113.158,5.63321,0.0,0.0
1314,328.25,102.044,111.938,143.281,114.512,58.013,0.0191325,0.448452,20.3163,113.068,6.08639,0.0,0.0
1320,329.75,101.566,110.968,146.058,114.491,58.7221,0.0187282,0.439126,20.3331,112.948,5.97605,0.0,0.0
1326,331.25,101.042,110.109,143.815,114.491,58.4849,0.018265,0.431645,20.3465,112.818,6.01223,0.0,0.0
1332,332.75,100.903,110.089,146.868,114.461,60.7077,0.017698,0.425255,20.3577,112.698,5.67603,0.0,0.0
1338,334.25,100.475,109.714,146.771,114.467,60.5426,0.0171113,0.41827,20.3719,112.568,5.70088,0.0,0.0
1344,335.75,100.101,109.042,143.886,114.456,62.712,0.0166403,0.410957,20.3873,112.478,5.38496,0.0,0.0
1350,337.25,99.6349,108.539,145.147,114.448,65.345,0.0163365,0.403577,20.399,112.348,5.01616,0.0,0.0
1356,338.75,99.1526,107.942,147.222,114.434,61.2522,0.0160348,0.396141,20.4108,112.208,5.59399,0.0,0.0
1362,340.25,99.117,108.088,147.612,114.427,62.3982,0.0157694,0.389675,20.4252,112.107,5.42753,0.0,0.0
1368,341.75,98.3233,107.004,142.815,114.419,65.7833,0.0155092,0.381759,20.4399,111.977,4.9541,0.0,0.0
1374,343.25,98.012,106.754,148.512,114.407,64.4722,0.0151747,0.374197,20.4532,111.917,5.13334,0.0,0.0
1380,344.75,97.4201,105.971,144.218,114.392,63.0455,0.0146319,0.366253,20.4647,111.777,5.33245,0.0,0.0
1386,346.25,97.0414,105.495,145.469,114.385,66.0607,0.0140136,0.359328,20.4796,111.687,4.9138,0.0,0.0
1392,347.75,96.3514,104.646,145.721,114.378,66.9892,0.013481,0.352825,20.4927,111.567,4.78826,0.0,0.0
1398,349.25,96.16,104.531,145.734,114.379,67.1309,0.0130066,0.346877,20.5042,111.497,4.76945,0.0,0.0
1404,350.75,95.7012,103.768,147.13,114.383,69.9762,0.0125211,0.340756,20.5149,111.427,4.3982,0.0,0.0
1410,352.25,95.275,103.313,147.462,114.365,69.8808,0.0120709,0.335599,20.5238,111.287,4.40902,0.0,0.0
1416,353.75,94.8086,102.682,149.966,114.383,69.5234,0.0116505,0.32997,20.5338,111.237,4.45634,0.0,0.0
1422,355.25,93.8895,102.037,153.936,114.366,71.8416,0.0112193,0.324289,20.5462,111.126,4.16141,0.0,0.0
1428,356.75,93.3422,101.257,152.392,114.386,73.961,0.0108515,0.318866,20.5575,111.016,3.90279,0.0,0.0
1434,358.25,93.3252,101.005,150.502,114.377,72.8014,0.010425,0.313379,20.5685,110.946,4.04346,0.0,0.0
1440,359.75,93.1116,100.363,145.296,114.378,72.2139,0.0100001,0.3094,20.5772,110.856,4.11613,0.0,0.0
1446,361.25,92.547,99.9904,150.661,114.361,75.578,0.00962881,0.304984,20.5875,110.766,3.70721,0.0,0.0
1452,362.75,92.1388,99.6013,145.517,114.387,75.2277,0.00929002,0.300181,20.5968,110.676,3.75084,0.0,0.0
1458,364.25,91.5538,98.8006,150.483,114.355,76.1131,0.0090146,0.295783,20.6051,110.596,3.64358,0.0,0.0
1464,365.75,91.2791,98.4214,153.527,114.369,75.3325,0.00882923,0.291191,20.6122,110.526,3.73699,0.0,0.0
1470,367.25,90.2642,97.6015,152.441,114.349,76.5276,0.00870381,0.286659,20.6218,110.466,3.5945,0.0,0.0
1476,368.75,89.8886,96.8566,152.174,114.359,79.2672,0.0085126,0.282043,20.6325,110.356,3.28049,0.0,0.0
1482,370.25,89.5663,96.5344,150.825,114.349,78.4004,0.00826088,0.278218,20.6408,110.276,3.3781,0.0,0.0
1488,371.75,89.0273,95.8824,149.97,114.352,79.1797,0.0079631,0.275226,20.6462,110.226,3.28983,0.0,0.0
1494,373.25,88.7659,95.4448,150.563,114.337,76.9977,0.00770654,0.272677,20.6512,110.116,3.53881,0.0,0.0
1500,374.75,88.3555,94.7049,148.14,114.336,79.2466,0.00752478,0.270137,20.6557,110.126,3.28106,0.0,0.0
1506,376.25,87.8705,94.3541,152.349,114.333,81.2453,0.00737408,0.266647,20.6634,110.025,3.05783,0.0,0.0
1512,377.75,87.4156,93.9558,153.328,114.331,80.8154,0.00716759,0.263869,20.6703,109.965,3.1052,0.0,0.0
1518,379.25,86.9986,93.2346,154.157,114.32,81.3852,0.00683556,0.261091,20.6761,109.875,3.04144,0.0,0.0
1524,380.75,86.8531,93.0975,150.759,114.316,81.7598,0.00637847,0.25822,20.6821,109.825,3.00004,0.0,0.0
1530,382.25,86.1298,92.2282,147.057,114.306,82.0241,0.00592173,0.255526,20.6886,109.765,2.97035,0.0,0.0
1536,383.75,85.7619,91.9937,153.46,114.306,83.7777,0.00553726,0.253096,20.6939,109.665,2.78105,0.0,0.0
1542,385.25,85.2749,91.2056,158.426,114.309,84.7745,0.00530226,0.250367,20.6979,109.605,2.67541,0.0,0.0
1548,386.75,85.2186,91.1623,152.896,114.306,85.2142,0.00512288,0.247636,20.7036,109.565,2.62881,0.0,0.0
1554,388.25,84.5965,90.2921,153.147,114.312,85.5449,0.00494326,0.244927,20.7093,109.505,2.59466,0.0,0.0
1560,389.75,84.0545,89.9065,152.433,114.298,86.2217,0.00480153,0.242038,20.7146,109.475,2.52302,0.0,0.0
1566,391.25,84.1592,89.6553,150.204,114.306,84.5355,0.0046519,0.239764,20.7199,109.395,2.70042,0.0,0.0
1572,392.75,83.72,89.3168,154.596,114.287,86.9884,0.00450055,0.238052,20.7239,109.275,2.44295,0.0,0.0
1578,394.25,82.488,87.928,154.212,114.307,85.9682,0.00432083,0.235716,20.7286,109.275,2.55007,0.0,0.0
1584,395.75,83.0439,88.5163,154.484,114.3,88.4669,0.00417413,0.232693,20.7335,109.195,2.29312,0.0,0.0
1590,397.25,82.8046,88.1886,150.665,114.312,86.9416,0.00402448,0.229725,20.7391,109.155,2.44967,0.0,0.0
1596,398.75,81.8212,86.8886,150.94,114.285,89.1901,0.00382866,0.227471,20.7451,109.085,2.21901,0.0,0.0
1602,400.25,82.1863,87.4753,151.032,114.299,88.8584,0.00366784,0.225087,20.7491,109.065,2.25352,0.0,0.0
1608,401.75,81.2844,86.5299,151.42,114.287,89.307,0.00354161,0.223162,20.7537,108.994,2.20746,0.0,0.0
1614,403.25,81.2831,86.229,155.246,114.29,89.3912,0.00346597,0.221443,20.7576,108.974,2.19925,0.0,0.0
1620,404.75,81.1364,86.0347,156.288,114.27,91.6982,0.00345296,0.219927,20.7611,108.884,1.96965,0.0,0.0
1626,406.25,80.0399,85.0656,152.265,114.288,89.8632,0.00340208,0.218026,20.765,108.854,2.15201,0.0,0.0
1632,407.75,79.9775,85.0101,150.754,114.276,89.4689,0.00325901,0.216076,20.7683,108.814,2.19042,0.0,0.0
1638,409.25,80.0688,84.7828,153.748,114.268,90.9605,0.00309846,0.214654,20.7713,108.784,2.04176,0.0,0.0
1644,410.75,79.5122,84.3167,156.593,114.234,91.1733,0.00296985,0.213222,20.7757,108.744,2.01821,0.0,0.0
1650,412.25,79.5005,84.1729,153.151,114.243,90.686,0.00288191,0.211145,20.7804,108.674,2.06692,0.0,0.0
1656,413.75,78.8821,83.5143,155.871,114.227,93.818,0.00277506,0.209167,20.784,108.634,1.76169,0.0,0.0
1662,415.25,79.0048,83.2084,154.161,114.238,93.6917,0.00264318,0.206901,20.7871,108.604,1.77466,0.0,0.0
1668,416.75,78.5094,82.8492,155.588,114.23,93.6281,0.00253519,0.204857,20.791,108.554,1.78012,0.0,0.0
1674,418.25,78.158,82.706,157.074,114.225,93.6464,0.00243326,0.203527,20.7938,108.504,1.77794,0.0,0.0
1680,419.75,77.8296,81.9988,152.724,114.227,93.3353,0.00233446,0.202577,20.7964,108.444,1.80786,0.0,0.0
1686,421.25,77.5837,81.9097,155.079,114.221,93.9555,0.00225297,0.20129,20.7992,108.384,1.74811,0.0,0.0
1692,422.75,77.3639,81.6237,159.469,114.238,96.0253,0.00221965,0.199536,20.8018,108.344,1.55443,0.0,0.0
1698,424.25,76.8782,81.2155,154.954,114.218,95.6507,0.00216535,0.197917,20.8053,108.304,1.58784,0.0,0.0
1704,425.75,76.8085,80.9873,155.28,114.212,96.067,0.00196124,0.196131,20.8094,108.304,1.5485,0.0,0.0
1710,427.25,76.2868,80.7236,157.982,114.204,96.35,0.00177383,0.194087,20.8127,108.254,1.52158,0.0,0.0
1716,428.75,75.8889,79.8561,156.01,114.217,95.857,0.00156961,0.191637,20.8163,108.194,1.56852,0.0,0.0
1722,430.25,75.9691,79.7823,156.422,114.211,96.2578,0.00149069,0.190081,20.8208,108.184,1.5307,0.0,0.0
1728,431.75,75.2979,79.1697,153.54,114.22,96.7868,0.0015083,0.188278,20.8236,108.134,1.4823,0.0,0.0
1734,433.25,75.6918,79.5269,155.852,114.198,97.7022,0.0015763,0.186616,20.827,108.104,1.39632,0.0,0.0
1740,434.75,74.4761,78.4181,158.722,114.211,98.2949,0.00165672,0.184727,20.8308,108.074,1.34326,0.0,0.0
1746,436.25,74.7651,78.7525,153.006,114.194,98.0404,0.00169445,0.183281,20.8333,108.064,1.3651,0.0,0.0
1752,437.75,74.7516,78.3255,152.656,114.205,98.2556,0.00166894,0.182327,20.835,108.044,1.34636,0.0,0.0
1758,439.25,74.2261,78.0697,158.034,114.189,99.3043,0.00162705,0.181238,20.8374,107.953,1.25005,0.0,0.0
1764,440.75,74.0016,77.3274,152.915,114.224,99.4296,0.00158993,0.180249,20.8401,107.933,1.24151,0.0,0.0
1770,442.25,73.787,77.1289,155.959,114.198,98.9287,0.0015661,0.179345,20.8423,107.883,1.28471,0.0,0.0
1776,443.75,73.6784,77.1054,158.297,114.203,100.075,0.00162666,0.178419,20.8454,107.853,1.18198,0.0,0.0
1782,445.25,73.3877,76.8263,157.932,114.182,99.8067,0.00176753,0.177684,20.8479,107.803,1.20438,0.0,0.0
1788,446.75,72.997,76.223,155.973,114.199,99.5022,0.00185726,0.176879,20.8495,107.763,1.23301,0.0,0.0
1794,448.25,72.7056,76.0812,155.221,114.206,99.5653,0.00181548,0.176095,20.8503,107.743,1.22795,0.0,0.0
1800,449.75,72.6022,76.0717,156.079,114.203,100.553,0.00173812,0.175354,20.8512,107.723,1.13929,0.0,0.0
1806,451.25,72.2632,75.5391,160.741,114.19,100.582,0.00171531,0.174295,20.8539,107.663,1.13573,0.0,0.0
1812,452.75,71.9784,75.3936,156.641,114.193,100.84,0.00170064,0.172602,20.8579,107.613,1.11303,0.0,0.0
1818,454.25,71.8358,75.1983,160.57,114.191,100.369,0.00168466,0.170668,20.862,107.613,1.15476,0.0,0.0
1824,455.75,71.7214,74.71875,158.921,114.191,101.01,0.00166707,0.169088,20.8651,107.583,1.09775,0.0,0.0
1830,457.25,71.4183,74.6253,157.455,114.195,100.02,0.0016236,0.168046,20.8673,107.543,1.18626,0.0,0.0
1836,458.75,71.1043,74.7395,155.586,114.192,101.468,0.0015776,0.167282,20.8694,107.523,1.05738,0.0,0.0
1842,460.25,70.7371,73.7536,157.514,114.199,102.33,0.00157541,0.166058,20.8725,107.483,0.982205,0.0,0.0
1848,461.75,70.7317,73.735,162.55,114.196,101.685,0.00161289,0.164388,20.8755,107.443,1.03859,0.0,0.0
1854,463.25,70.5118,73.4052,155.574,114.197,102.974,0.00161316,0.162345,20.8794,107.433,0.925938,0.0,0.0
1860,464.75,70.3519,73.4066,157.814,114.216,102.505,0.00158501,0.160785,20.882,107.423,0.968235,0.0,0.0
1866,466.25,70.2566,72.9066,159.153,114.222,103.144,0.00153122,0.159221,20.884,107.383,0.91313,0.0,0.0
1872,467.75,69.6999,72.4908,162.438,114.22,102.599,0.00141228,0.158015,20.885,107.383,0.960363,0.0,0.0
1878,469.25,69.0641,71.8477,157.647,114.246,103.709,0.00129404,0.156602,20.8878,107.323,0.866062,0.0,0.0
1884,470.75,69.1835,72.0434,155.603,114.227,103.152,0.00124287,0.1554,20.8903,107.313,0.912769,0.0,0.0
1890,472.25,68.9032,71.5799,156.057,114.251,104.43,0.00134035,0.154456,20.8919,107.273,0.804509,0.0,0.0
1896,473.75,69.0419,71.5117,158.795,114.247,104.394,0.00147966,0.153496,20.8942,107.283,0.807226,0.0,0.0
1902,475.25,68.8171,71.3515,159.866,114.276,105.233,0.00156564,0.152586,20.8959,107.253,0.737878,0.0,0.0
1908,476.75,68.6531,71.2287,158.831,114.263,105.321,0.00153425,0.151583,20.8987,107.223,0.729299,0.0,0.0
1914,478.25,68.4097,70.8152,158.171,114.29,106.048,0.00149913,0.150534,20.9007,107.193,0.669863,0.0,0.0
1920,479.75,68.2388,70.9567,161.339,114.305,104.978,0.00153774,0.149445,20.9031,107.163,0.761858,0.0,0.0
1926,481.25,67.9091,70.3191,158.076,114.316,104.806,0.00163734,0.148481,20.9053,107.133,0.777385,0.0,0.0
1932,482.75,67.9051,70.4618,159.417,114.312,105.545,0.00171844,0.147427,20.9075,107.123,0.714162,0.0,0.0
1938,484.25,67.6409,69.9161,160.505,114.35,105.639,0.00178592,0.146367,20.9095,107.093,0.709232,0.0,0.0
1944,485.75,67.3017,69.7017,159.419,114.338,106.393,0.00184194,0.145547,20.9114,107.073,0.644583,0.0,0.0
1950,487.25,67.0339,69.4677,158.569,114.349,105.883,0.00191029,0.144655,20.9127,107.083,0.688419,0.0,0.0
1956,488.75,66.6813,68.973,161.458,114.349,105.414,0.00198529,0.143745,20.9145,107.053,0.728239,0.0,0.0
1962,490.25,66.495,68.8249,158.312,114.377,105.601,0.00207877,0.143129,20.9157,107.033,0.714528,0.0,0.0
1968,491.75,66.2496,68.6706,159.701,114.402,105.835,0.0021467,0.142901,20.9176,107.013,0.696661,0.0,0.0
1974,493.25,66.2851,68.7223,157.827,114.407,105.486,0.00220721,0.142727,20.9186,106.993,0.726622,0.0,0.0
1980,494.75,66.1886,68.4028,158.695,114.431,105.476,0.00228942,0.142899,20.9191,106.983,0.729396,0.0,0.0
1986,496.25,65.6374,67.5744,159.365,114.446,106.191,0.00238856,0.142749,20.9203,106.973,0.670004,0.0,0.0
1992,497.75,65.5956,67.7381,159.447,114.477,106.797,0.00248519,0.142151,20.9221,106.932,0.621545,0.0,0.0
1998,499.25,65.5027,67.8023,159.885,114.51,107.687,0.00254543,0.141644,20.9231,106.912,0.549848,0.0,0.0
2004,500.75,65.1766,67.3016,159.956,114.514,106.601,0.0025643,0.141255,20.9237,106.892,0.640906,0.0,0.0
2010,502.25,65.5801,67.4512,158.932,114.539,106.37,0.00257987,0.140823,20.9253,106.872,0.662227,0.0,0.0
2016,503.75,64.6197,66.5175,157.731,114.562,106.821,0.00261789,0.13994,20.9275,106.832,0.626194,0.0,0.0
2022,505.25,65.3531,67.0424,159.181,114.579,106.38,0.00263565,0.138908,20.9299,106.822,0.66454,0.0,0.0
2028,506.75,64.0918,66.0456,162.4,114.615,106.401,0.00263219,0.137928,20.9317,106.802,0.665619,0.0,0.0
2034,508.25,64.1882,66.2947,159.867,114.623,106.253,0.00268923,0.137328,20.9326,106.772,0.678681,0.0,0.0
2040,509.75,64.5028,66.565,157.49,114.663,106.453,0.0028207,0.136756,20.9339,106.752,0.664932,0.0,0.0
2046,511.25,63.9612,65.6847,158.466,114.667,107.062,0.00295804,0.136042,20.9347,106.702,0.614164,0.0,0.0
2052,512.75,63.9593,65.8267,159.603,114.708,105.8,0.00302865,0.135359,20.934,106.742,0.723543,0.0,0.0
2058,514.25,63.5745,65.4082,161.447,114.707,106.504,0.00301121,0.134887,20.9335,106.692,0.664037,0.0,0.0
2064,515.75,63.8286,65.4186,161.741,114.752,106.813,0.002963,0.13466,20.9341,106.702,0.641706,0.0,0.0
2070,517.25,63.1498,64.8179,154.978,114.756,106.716,0.00293017,0.134354,20.9345,106.662,0.650151,0.0,0.0
2076,518.75,63.4074,64.5851,162.361,114.778,106.427,0.00294168,0.133756,20.9346,106.652,0.676139,0.0,0.0
2082,520.25,63.5155,65.1541,158.769,114.79,106.84,0.00299072,0.13319,20.9358,106.652,0.642346,0.0,0.0
2088,521.75,62.8941,64.7312,160.579,114.811,108.186,0.00305156,0.132706,20.9365,106.642,0.531992,0.0,0.0
2094,523.25,63.0482,64.7266,161.739,114.812,107.983,0.00307534,0.132354,20.9368,106.632,0.548837,0.0,0.0
2100,524.75,62.7287,64.4117,162.007,114.821,107.555,0.00306379,0.132106,20.937,106.602,0.585113,0.0,0.0
2106,526.25,62.8399,64.4157,158.908,114.834,106.887,0.00302026,0.131736,20.9377,106.572,0.641853,0.0,0.0
2112,527.75,62.7429,63.9487,163.062,114.876,106.85,0.00299869,0.131293,20.9395,106.562,0.648262,0.0,0.0
2118,529.25,62.6269,64.0045,162.818,114.878,106.912,0.00303874,0.130935,20.9406,106.542,0.64316,0.0,0.0
2124,530.75,62.195,63.9531,163.178,114.882,108.263,0.00313013,0.130551,20.9412,106.532,0.531142,0.0,0.0
2130,532.25,61.7507,63.1593,158.597,114.905,107.896,0.00326574,0.130231,20.9415,106.542,0.563298,0.0,0.0
2136,533.75,62.1941,63.5529,161.028,114.927,108.392,0.00339263,0.130129,20.9421,106.492,0.52397,0.0,0.0
2142,535.25,61.5996,62.9805,157.553,114.951,108.519,0.00347583,0.129893,20.9427,106.462,0.515364,0.0,0.0
2148,536.75,61.9179,63.3502,159.433,114.957,107.677,0.00355427,0.129606,20.9428,106.492,0.585626,0.0,0.0
2154,538.25,61.2423,62.6985,158.232,114.978,108.44,0.00366386,0.129394,20.9428,106.432,0.523958,0.0,0.0
2160,539.75,60.9299,62.1714,160.901,114.983,107.203,0.00378176,0.129097,20.9438,106.412,0.627062,0.0,0.0
2166,541.25,61.246,62.6478,159.875,115.008,107.68,0.00380039,0.128798,20.9449,106.412,0.589283,0.0,0.0
2172,542.75,60.9892,62.0149,162.55,114.983,108.219,0.00376863,0.128389,20.9461,106.392,0.542602,0.0,0.0
2178,544.25,60.4846,61.8734,160.756,115.013,106.991,0.00375122,0.128108,20.9468,106.382,0.647061,0.0,0.0
2184,545.75,60.5779,61.9432,161.452,115.02,107.25,0.00376943,0.127786,20.9473,106.392,0.625955,0.0,0.0
2190,547.25,60.1596,61.4413,162.323,115.018,107.443,0.00386258,0.127539,20.9485,106.352,0.609741,0.0,0.0
2196,548.75,60.4877,61.4975,159.252,115.027,108.615,0.00403964,0.12732,20.9496,106.332,0.513313,0.0,0.0
2202,550.25,60.0682,61.3264,162.951,115.06,107.484,0.00418189,0.127021,20.9508,106.302,0.60966,0.0,0.0
2208,551.75,60.1243,61.287,166.761,115.062,107.689,0.00425182,0.126735,20.9514,106.292,0.592725,0.0,0.0
2214,553.25,59.7536,61.2647,161.282,115.076,107.917,0.00429456,0.12633,20.9518,106.282,0.5749,0.0,0.0
2220,554.75,59.1584,60.7534,159.801,115.062,108.229,0.00435176,0.126091,20.9519,106.222,0.54801,0.0,0.0
2226,556.25,59.1302,60.7253,162.971,115.088,107.764,0.00439898,0.126029,20.952,106.252,0.58854,0.0,0.0
2232,557.75,59.2557,60.1761,166.027,115.094,108.866,0.00441593,0.125728,20.9516,106.212,0.49795,0.0,0.0
2238,559.25,59.1931,60.1885,158.547,115.118,107.768,0.00441325,0.125384,20.9513,106.192,0.590517,0.0,0.0
2244,560.75,59.2321,59.979,161.239,115.103,108.094,0.00442775,0.125091,20.9511,106.192,0.562356,0.0,0.0
2250,562.25,58.9664,59.8207,162.816,115.113,107.482,0.00447989,0.125017,20.9514,106.152,0.613849,0.0,0.0
2256,563.75,59.0613,59.5627,161.113,115.127,107.478,0.00451645,0.12493,20.9522,106.152,0.615325,0.0,0.0
2262,565.25,58.7714,59.8243,161.49,115.138,108.461,0.00447962,0.124676,20.9529,106.072,0.534767,0.0,0.0
2268,566.75,58.2848,59.5526,159.743,115.133,109.05,0.00443604,0.124045,20.9541,106.062,0.485788,0.0,0.0
2274,568.25,58.7909,59.8041,158.591,115.13,106.993,0.00441719,0.123602,20.9548,106.062,0.656103,0.0,0.0
2280,569.75,58.2025,59.1143,157.918,115.151,108.495,0.00444297,0.123574,20.9547,106.072,0.532892,0.0,0.0
2286,571.25,57.7616,58.5853,162.118,115.14,108.093,0.00448395,0.123688,20.954,106.032,0.565303,0.0,0.0
2292,572.75,58.0138,59.1802,160.129,115.171,106.702,0.00450757,0.1239,20.9536,105.972,0.68356,0.0,0.0
2298,574.25,58.1182,59.3993,160.327,115.173,108.153,0.00451685,0.124019,20.9542,105.982,0.562887,0.0,0.0
2304,575.75,57.451,58.4027,158.079,115.201,107.861,0.00455617,0.12393,20.9548,105.942,0.589292,0.0,0.0
2310,577.25,58.0051,59.3172,164.469,115.207,107.605,0.00459988,0.12366,20.9551,105.922,0.610949,0.0,0.0
2316,578.75,57.3661,58.5976,160.149,115.222,107.928,0.00463533,0.12334,20.9553,105.942,0.585338,0.0,0.0
2322,580.25,57.3427,58.9521,159.176,115.222,107.415,0.00465284,0.122845,20.9565,105.911,0.628031,0.0,0.0
2328,581.75,57.5047,58.9052,161.836,115.245,108.257,0.00466538,0.12239,20.9571,105.901,0.559891,0.0,0.0
2334,583.25,57.5282,58.5022,163.96,115.235,108.135,0.00473159,0.121928,20.9577,105.871,0.569153,0.0,0.0
2340,584.75,57.7305,58.5867,161.356,115.263,107.693,0.00483475,0.12149,20.9582,105.891,0.608029,0.0,0.0
2346,586.25,57.7234,58.5914,158.803,115.267,108.091,0.00495197,0.12136,20.9584,105.841,0.575258,0.0,0.0
2352,587.75,57.8574,58.5724,160.795,115.306,107.892,0.00506585,0.121305,20.9585,105.831,0.594785,0.0,0.0
2358,589.25,57.5585,58.3662,160.61,115.307,108.106,0.0050649,0.120887,20.9596,105.821,0.577102,0.0,0.0
2364,590.75,57.8818,58.6129,160.866,115.327,108.345,0.00492837,0.120267,20.9609,105.791,0.558969,0.0,0.0
2370,592.25,57.1614,58.4665,165.792,115.328,108.729,0.00474681,0.119416,20.962,105.801,0.52741,0.0,0.0
2376,593.75,57.2893,58.2855,162.172,115.338,107.34,0.00468571,0.118888,20.9627,105.771,0.643193,0.0,0.0
2382,595.25,57.367,58.1292,158.627,115.332,107.783,0.00482013,0.118961,20.9626,105.771,0.605937,0.0,0.0
2388,596.75,57.5374,58.1127,163.656,115.348,108.443,0.00500621,0.118945,20.9625,105.721,0.552454,0.0,0.0
2394,598.25,57.0903,57.3802,163.689,115.342,108.018,0.00519249,0.118614,20.9625,105.721,0.587181,0.0,0.0
2400,599.75,57.0754,57.976,163.58,115.362,109.004,0.00535205,0.11849,20.9625,105.731,0.507409,0.0,0.0
2406,601.25,56.8122,57.6674,159.62,115.382,107.989,0.00542433,0.118722,20.9625,105.721,0.592742,0.0,0.0
2412,602.75,56.7746,58.1653,161.52,115.376,108.301,0.00540477,0.118984,20.9625,105.651,0.566412,0.0,0.0
2418,604.25,56.3558,57.6395,162.162,115.383,108.171,0.00518564,0.118816,20.9617,105.631,0.577706,0.0,0.0
2424,605.75,56.6434,57.8298,161.433,115.389,108.587,0.00500839,0.118387,20.9615,105.681,0.543799,0.0,0.0
2430,607.25,56.1333,57.0635,158.024,115.393,108.338,0.00489056,0.117725,20.9623,105.631,0.564736,0.0,0.0
2436,608.75,56.5584,57.8801,164.592,115.417,108.088,0.00485564,0.117304,20.9629,105.621,0.587245,0.0,0.0
2442,610.25,56.3468,57.4538,162.871,115.409,108.669,0.00489896,0.11704,20.9633,105.621,0.538612,0.0,0.0
2448,611.75,55.7852,57.3472,159.856,115.402,109.382,0.00501415,0.11704,20.9635,105.571,0.479547,0.0,0.0
2454,613.25,56.3199,57.533,158.233,115.418,107.414,0.00512446,0.117245,20.963,105.571,0.643232,0.0,0.0
2460,614.75,56.3708,57.3247,159.875,115.407,108.438,0.00520978,0.117495,20.9622,105.581,0.557486,0.0,0.0
2466,616.25,56.4,57.0227,160.63,115.421,108.647,0.0052833,0.117351,20.9615,105.541,0.541293,0.0,0.0
2472,617.75,56.1025,57.0374,162.288,115.413,107.891,0.00533768,0.117052,20.9615,105.521,0.603201,0.0,0.0
2478,619.25,56.0373,57.3754,162.935,115.416,107.696,0.00536988,0.116904,20.9621,105.501,0.61969,0.0,0.0
2484,620.75,56.1521,56.7778,165.247,115.403,109.173,0.00538758,0.116845,20.9631,105.461,0.496708,0.0,0.0
2490,622.25,55.9143,56.889,162.408,115.41,108.707,0.00543482,0.11678,20.9633,105.471,0.535566,0.0,0.0
2496,623.75,55.7392,56.739,161.133,115.396,109.088,0.00553427,0.11672,20.9631,105.461,0.503108,0.0,0.0
2502,625.25,55.8253,56.3687,160.066,115.424,107.788,0.00564939,0.116687,20.963,105.421,0.612611,0.0,0.0
2508,626.75,56.3546,57.2453,159.524,115.405,108.191,0.00567573,0.11664,20.9629,105.431,0.577748,0.0,0.0
2514,628.25,56.0581,56.7927,160.877,115.401,108.441,0.00560838,0.116511,20.9629,105.421,0.55678,0.0,0.0
2520,629.75,56.0481,56.7652,163.706,115.389,109.677,0.00549369,0.116334,20.9629,105.411,0.454413,0.0,0.0
2526,631.25,56.0386,56.6526,165.669,115.392,108.754,0.00537968,0.116093,20.9628,105.371,0.530226,0.0,0.0
2532,632.75,56.0695,56.3641,160.556,115.384,110.152,0.00525891,0.115944,20.9628,105.391,0.415353,0.0,0.0
2538,634.25,55.7533,57.1609,160.6,115.376,108.686,0.00519462,0.116034,20.9628,105.321,0.534577,0.0,0.0
2544,635.75,55.4585,56.5881,160.03,115.368,108.458,0.00519541,0.116022,20.9628,105.291,0.552814,0.0,0.0
2550,637.25,55.6856,56.4144,160.65,115.371,108.642,0.00525547,0.115814,20.9628,105.301,0.5378,0.0,0.0
2556,638.75,55.8858,56.8885,163.045,115.364,108.872,0.00531583,0.115507,20.9628,105.281,0.518355,0.0,0.0
2562,640.25,55.8754,56.5985,158.971,115.361,108.281,0.00532725,0.115359,20.9628,105.281,0.566874,0.0,0.0
2568,641.75,55.1614,56.4262,162.193,115.361,108.62,0.0052997,0.115341,20.9639,105.251,0.538925,0.0,0.0
2574,643.25,55.177,56.0431,163.873,115.343,109.242,0.00526475,0.114919,20.9645,105.241,0.486394,0.0,0.0
2580,644.75,54.7067,56.381,162.129,115.356,108.229,0.00523698,0.114569,20.9648,105.211,0.570771,0.0,0.0
2586,646.25,55.2012,56.3603,156.292,115.325,108.875,0.00521676,0.114499,20.9645,105.201,0.515112,0.0,0.0
2592,647.75,55.4725,56.5564,161.786,115.332,108.096,0.00521406,0.114872,20.9637,105.181,0.57995,0.0,0.0
2598,649.25,55.2342,56.1091,161.962,115.311,108.924,0.00523492,0.115051,20.9634,105.131,0.510026,0.0,0.0
2604,650.75,54.8902,56.3042,162.917,115.299,108.466,0.00528002,0.11497,20.9639,105.141,0.54679,0.0,0.0
2610,652.25,55.0172,56.3118,158.814,115.278,108.853,0.00531411,0.114837,20.9653,105.091,0.513294,0.0,0.0
2616,653.75,55.1748,56.6063,158.881,115.277,108.918,0.00532094,0.114506,20.966,105.091,0.507841,0.0,0.0
2622,655.25,55.2754,56.2593,162.073,115.252,108.189,0.00533259,0.114224,20.9666,105.091,0.566041,0.0,0.0
2628,656.75,54.4827,56.034,162.343,115.255,108.026,0.00537089,0.114056,20.9677,105.091,0.579739,0.0,0.0
2634,658.25,55.2068,55.7753,161.888,115.226,108.184,0.00540305,0.113971,20.9686,105.091,0.564399,0.0,0.0
2640,659.75,54.6015,56.1366,163.138,115.238,109.029,0.00535721,0.113822,20.9693,105.051,0.495722,0.0,0.0
2646,661.25,55.3718,56.1597,162.534,115.204,108.952,0.0052517,0.113524,20.9696,105.021,0.499411,0.0,0.0
2652,662.75,54.6877,55.8809,161.836,115.206,107.991,,0.113378,,104.991,0.578796,0.0,0.0
2658,664.25,54.8998,55.8426,164.887,115.171,108.568,,0.11333,,105.011,0.528472,0.0,0.0
2664,665.75,54.7542,56.0314,162.743,115.185,108.869,,,,105.011,0.504762,0.0,0.0
2670,667.25,54.313,56.0809,159.688,115.148,109.559,,,,104.961,0.445352,0.0,0.0
2676,668.75,54.687,55.6402,163.212,115.13,109.479,,,,104.951,0.450434,0.0,0.0
2682,670.25,54.9005,55.506,158.795,115.098,108.662,,,,104.921,0.515024,0.0,0.0
2688,671.75,54.4371,55.7058,163.693,115.113,108.305,,,,104.941,0.545668,0.0,0.0
2693,673,54.5181,55.7837,160.767,115.086,107.873,,,,104.951,0.579347,0.0,0.0