File: 01_Data/EPDM_Membrane/Cone/EPDM_Membrane_Cone_HF75-Frame+GridScan_220225_R2.csv
Names,Time,Stack TC,Smoke TC,Exh Press,Smoke Comp,Smoke Meas,CO Meter,CO2 Meter,O2 Meter,Sample Mass,Ext Coeff,Start Test,Flame Verif
Chan Gain,,500,500,1,1,1,1,1,1,1,1,1.0,1.0
Offset,,0,0,0.137915,0,0,0,0,0,0,0,0.0,0.0
Gain,,1,1,25.011,15.3125,15.3273,1,1,1,1.00096,1.02035,1.0,1.0
Units,sec,C,C,Pa,%,%,%,%,%,g,/m,,
Baseline,,44.4634,45.5979,166.862,115.498,108.876,-0.000420369,0.0517392,21.0427,-869.561,0.528637,,
6,1.25,41.2226,42.5594,171.791,115.704,109.379,-0.000299017,0.0522111,21.0409,159.493,0.503161,0.0,0.0
12,2.75,41.7359,43.0012,163.347,115.679,108.374,-0.000247866,0.052012,21.0412,159.423,0.583842,0.0,0.0
18,4.25,42.0458,43.0032,165.362,115.651,108.266,-0.000289,0.0518125,21.041,159.433,0.590598,0.0,0.0
24,5.75,41.9148,42.5006,165.147,115.618,108.431,-0.000444599,0.051838,21.0402,159.483,0.574428,0.0,0.0
30,7.25,41.943,42.9421,170.538,115.588,108.539,-0.000540173,0.0520724,21.0397,159.493,0.563199,0.0,0.0
36,8.75,41.529,43.5047,165.714,115.559,108.318,-0.000517464,0.0521564,21.0395,159.473,0.579218,0.0,0.0
42,10.25,42.295,42.8822,164.845,115.567,107.846,-0.000433271,0.0522573,21.0375,159.423,0.618878,0.0,0.0
48,11.75,42.2519,43.2581,168.352,115.571,106.815,-0.000284735,0.0526636,21.0361,159.423,0.705253,0.0,0.0
54,13.25,42.2796,43.7033,171.241,115.594,106.264,0.000331676,0.0555687,21.0373,159.393,0.753278,0.0,0.0
60,14.75,42.2625,42.9359,158.238,115.574,93.6422,0.00148445,0.0642301,21.0099,159.303,1.88343,0.0,1.0
66,16.25,41.8344,43.0906,158.492,115.59,74.6224,0.00353515,0.099556,20.9391,159.283,3.91677,0.0,1.0
72,17.75,42.7514,43.836,150.012,115.598,68.3601,0.005587,0.153422,20.8381,159.092,4.7019,0.0,1.0
78,19.25,42.9882,44.556,151.927,115.592,61.3864,0.00839459,0.211312,20.7347,159.002,5.66458,0.0,1.0
84,20.75,44.751,45.5772,148.891,115.594,60.8452,0.0110521,0.266075,20.6326,158.892,5.74395,0.0,0.0
90,22.25,45.802,46.6689,148.628,115.597,58.9162,0.013419,0.320606,20.5397,158.692,6.03256,0.0,0.0
96,23.75,46.7869,48.4435,144.482,115.602,49.1397,0.0162774,0.372593,20.4398,158.462,7.65701,0.0,0.0
102,25.25,48.0077,49.9378,138.714,115.605,53.1993,0.0188759,0.416274,20.3538,158.292,6.94672,0.0,0.0
108,26.75,49.617,51.192,138.15,115.6,50.8049,0.0215634,0.471695,20.268,158.162,7.35855,0.0,0.0
114,28.25,51.2803,53.2567,135.022,115.606,51.0959,0.0238592,0.522326,20.1788,157.921,7.30791,0.0,0.0
120,29.75,52.8325,55.5645,135.367,115.616,53.8752,0.0259835,0.569878,20.0858,157.671,6.83462,0.0,0.0
126,31.25,54.4884,57.4372,135.439,115.609,50.5832,0.0275764,0.614585,20.011,157.521,7.39842,0.0,0.0
132,32.75,56.0886,59.6189,141.974,115.628,46.2107,0.0289292,0.652641,19.9547,157.341,8.20903,0.0,0.0
138,34.25,57.9397,61.8023,132.39,115.621,46.3262,0.0300837,0.684539,19.9104,157.081,8.18621,0.0,0.0
144,35.75,59.9025,63.8829,133.618,115.637,49.1935,0.0311488,0.709153,19.876,156.84,7.64993,0.0,0.0
150,37.25,61.7885,65.7886,127.287,115.627,47.7528,0.0321966,0.728003,19.8466,156.57,7.91517,0.0,0.0
156,38.75,63.3363,68.1607,131.238,115.648,43.5772,0.0329667,0.742704,19.8256,156.41,8.73576,0.0,0.0
162,40.25,65.3539,69.9682,131.395,115.647,47.3922,0.0334291,0.751261,19.8127,156.17,7.98458,0.0,0.0
168,41.75,66.7472,72.0953,132.94,115.666,43.6567,0.0334777,0.756411,19.8078,155.959,8.72086,0.0,0.0
174,43.25,68.2501,74.046,136.282,115.67,43.4144,0.0333481,0.756985,19.8074,155.739,8.77096,0.0,0.0
180,44.75,69.512,75.4087,131.711,115.685,41.5257,0.0332577,0.755099,19.8085,155.509,9.17027,0.0,0.0
186,46.25,71.3889,76.6782,131.013,115.67,45.517,0.0333382,0.755272,19.8079,155.229,8.3477,0.0,0.0
192,47.75,72.6468,78.2296,135.249,115.685,44.4107,0.0334623,0.757496,19.8027,155.039,8.56911,0.0,0.0
198,49.25,73.6836,80.1144,135.224,115.69,50.775,0.0335344,0.760579,19.7995,154.868,7.37077,0.0,0.0
204,50.75,74.5234,82.0096,136.061,115.692,48.6065,0.0334445,0.761913,19.8004,154.628,7.76157,0.0,0.0
210,52.25,76.2111,83.1059,137.257,115.696,48.3006,0.0331765,0.758914,19.8079,154.438,7.81844,0.0,0.0
216,53.75,76.9415,84.3611,131.762,115.693,45.9422,0.0327301,0.752188,19.8204,154.188,8.26625,0.0,0.0
222,55.25,78.411,85.6781,141.033,115.715,44.8069,0.0322602,0.744145,19.8336,154.028,8.49193,0.0,0.0
228,56.75,79.0276,86.9376,134.83,115.693,46.2626,0.0318559,0.737923,19.8428,153.767,8.20401,0.0,0.0
234,58.25,80.0108,87.6639,131.439,115.705,48.6041,0.0315458,0.732272,19.8532,153.547,7.76305,0.0,0.0
240,59.75,80.7649,87.8088,128.084,115.694,49.3446,0.0312746,0.72771,19.8628,153.317,7.62686,0.0,0.0
246,61.25,81.5673,89.6935,131.695,115.716,47.4988,0.0310377,0.724797,19.8677,153.147,7.96977,0.0,0.0
252,62.75,82.5885,90.7083,134.145,115.698,52.7255,0.03074,0.719675,19.879,152.937,7.03403,0.0,0.0
258,64.25,83.1343,91.951,142.598,115.729,49.7698,0.0304622,0.713651,19.8939,152.736,7.55281,0.0,0.0
264,65.75,84.5199,92.0259,137.815,115.696,49.0448,0.0301548,0.705377,19.9075,152.616,7.68159,0.0,0.0
270,67.25,83.8886,92.715,135.566,115.725,47.2799,0.0299121,0.695109,19.923,152.346,8.01184,0.0,0.0
276,68.75,84.9076,94.3771,140.076,115.715,47.4132,0.029815,0.686395,19.9359,152.146,7.98588,0.0,0.0
282,70.25,85.2148,93.9523,137.378,115.736,44.2592,0.0297785,0.67843,19.9479,151.966,8.60361,0.0,0.0
288,71.75,86.1166,95.3418,138.62,115.719,51.3952,0.0297126,0.670254,19.9592,151.765,7.26437,0.0,0.0
294,73.25,86.8857,95.278,131.128,115.744,47.3768,0.0295385,0.665516,19.9652,151.495,7.99498,0.0,0.0
300,74.75,87.0321,96.2559,134.48,115.74,49.2099,0.0292054,0.66475,19.9683,151.355,7.6549,0.0,0.0
306,76.25,87.916,96.6298,130.023,115.746,50.4939,0.028788,0.664603,19.9705,151.125,7.4248,0.0,0.0
312,77.75,88.5458,96.6921,140.398,115.754,53.1086,0.028414,0.66391,19.9731,150.965,6.97357,0.0,0.0
318,79.25,89.0145,97.2981,139.175,115.766,51.8887,0.0281074,0.662929,19.9747,150.764,7.18249,0.0,0.0
324,80.75,88.9879,98.1916,138.144,115.767,49.2983,0.027897,0.660296,19.9769,150.574,7.64093,0.0,0.0
330,82.25,89.068,98.774,141.534,115.775,48.4994,0.027794,0.657084,19.983,150.414,7.78775,0.0,0.0
336,83.75,89.5334,99.4109,138.717,115.775,47.613,0.0276711,0.654026,19.9899,150.154,7.95288,0.0,0.0
342,85.25,89.9512,99.782,135.522,115.792,51.7549,0.0274643,0.652314,19.9947,149.974,7.20755,0.0,0.0
348,86.75,90.4273,100.072,135.112,115.79,53.3303,0.027234,0.649211,20.002,149.854,6.93906,0.0,0.0
354,88.25,90.7733,100.581,133.287,115.789,53.0029,0.0271198,0.644157,20.0109,149.593,6.99411,0.0,0.0
360,89.75,90.9274,100.836,139.364,115.795,49.3371,0.027107,0.640896,20.0157,149.513,7.63602,0.0,0.0
366,91.25,91.7136,101.219,137.352,115.793,54.2672,0.027148,0.639345,20.0182,149.253,6.7834,0.0,0.0
372,92.75,91.9091,101.524,137.27,115.791,50.7235,0.0271949,0.640374,20.0152,149.043,7.38768,0.0,0.0
378,94.25,92.0063,101.549,143.339,115.788,55.1859,0.0272149,0.642265,20.0136,148.813,6.63279,0.0,0.0
384,95.75,91.9588,101.919,143.481,115.795,50.6754,0.0272155,0.641748,20.0135,148.713,7.39651,0.0,0.0
390,97.25,93.035,102.693,137.654,115.783,55.0699,0.0272178,0.639708,20.0158,148.502,6.65119,0.0,0.0
396,98.75,92.6675,102.522,138.528,115.802,53.7008,0.0272297,0.638481,20.0182,148.272,6.878,0.0,0.0
402,100.25,93.2401,103.121,137.414,115.772,53.7574,0.0272108,0.635542,20.0228,148.152,6.8663,0.0,0.0
408,101.75,93.4519,103.485,143.7,115.791,47.2219,0.0270951,0.629836,20.0279,147.942,8.02789,0.0,0.0
414,103.25,93.5246,103.789,138.508,115.78,49.2188,0.0269224,0.626156,20.0317,147.782,7.65636,0.0,0.0
420,104.75,93.7459,103.829,138.506,115.791,52.5291,0.0267713,0.625541,20.0335,147.571,7.07463,0.0,0.0
426,106.25,93.377,103.689,139.632,115.764,51.028,0.0266422,0.626981,20.0339,147.381,7.33202,0.0,0.0
432,107.75,93.887,104.275,137.528,115.783,52.6572,0.0265623,0.627025,20.0341,147.181,7.05217,0.0,0.0
438,109.25,93.9273,104.431,141.37,115.772,53.3822,0.0265014,0.62574,20.0352,146.991,6.92894,0.0,0.0
444,110.75,94.4052,104.637,137.126,115.779,53.6732,0.0264843,0.625571,20.0372,146.781,6.88087,0.0,0.0
450,112.25,94.5161,104.79,141.771,115.78,53.008,0.0265587,0.624852,20.0396,146.611,6.99252,0.0,0.0
456,113.75,94.8591,105.118,138.853,115.785,47.199,0.0267067,0.622974,20.0412,146.44,8.03176,0.0,0.0
462,115.25,94.9756,104.981,139.929,115.763,52.6133,0.0268283,0.620595,20.0435,146.26,7.05813,0.0,0.0
468,116.75,95.2863,105.407,133.617,115.79,50.0986,0.0268773,0.617318,20.0468,146.03,7.49853,0.0,0.0
474,118.25,95.2026,105.463,139.745,115.747,52.7667,0.0268494,0.615394,20.0486,145.91,7.0308,0.0,0.0
480,119.75,95.206,106.069,138.933,115.784,51.9299,0.026799,0.615904,20.0461,145.67,7.17677,0.0,0.0
486,121.25,95.7163,105.748,142.429,115.755,51.8387,0.0267635,0.618077,20.0415,145.499,7.19023,0.0,0.0
492,122.75,95.845,106.323,136.075,115.761,49.2506,0.0267998,0.620129,20.0381,145.289,7.64913,0.0,0.0
498,124.25,95.8638,106.217,137.527,115.759,52.7798,0.0269673,0.620975,20.0348,145.139,7.02952,0.0,0.0
504,125.75,96.0203,106.557,139.791,115.765,48.475,0.0271482,0.622221,20.0308,144.919,7.79148,0.0,0.0
510,127.25,96.1036,107.182,139.002,115.747,49.1065,0.0273128,0.624368,20.0258,144.749,7.67423,0.0,0.0
516,128.75,96.3534,106.82,137.659,115.754,54.901,0.0274815,0.627648,20.0239,144.559,6.67647,0.0,0.0
522,130.25,97.1998,107.343,128.493,115.736,46.938,0.0276833,0.632061,20.0182,144.288,8.07764,0.0,0.0
528,131.75,96.5134,107.475,136.052,115.737,53.4281,0.0279312,0.64086,20.004,144.128,6.91855,0.0,0.0
534,133.25,96.8545,107.562,135.453,115.739,48.1556,0.0282832,0.649453,19.9881,143.948,7.84864,0.0,0.0
540,134.75,96.7679,107.751,133.908,115.729,47.2682,0.0288312,0.657921,19.9712,143.718,8.01438,0.0,0.0
546,136.25,97.5229,108.545,135.932,115.731,46.9946,0.0294193,0.668367,19.9542,143.548,8.06645,0.0,0.0
552,137.75,97.9118,108.377,139.279,115.711,43.7615,0.0301356,0.67797,19.9342,143.297,8.70287,0.0,0.0
558,139.25,98.4053,108.789,138.251,115.732,47.2219,0.0309114,0.687322,19.9175,143.057,8.02337,0.0,0.0
564,140.75,98.8486,109.532,134.119,115.711,45.0824,0.0318324,0.704619,19.8748,142.837,8.4367,0.0,0.0
570,142.25,98.6974,109.786,133.262,115.723,42.7984,0.0327994,0.727059,19.8326,142.587,8.90303,0.0,0.0
576,143.75,99.2758,111.346,130.089,115.692,42.6969,0.0336433,0.75169,19.7979,142.326,8.92186,0.0,0.0
582,145.25,100.598,111.165,134.987,115.694,44.1577,0.0343668,0.771751,19.767,142.126,8.62094,0.0,0.0
588,146.75,101.002,112.198,129.242,115.674,43.6661,0.0348403,0.789105,19.736,141.836,8.71955,0.0,0.0
594,148.25,101.313,113.557,130.136,115.684,41.4527,0.0351431,0.803426,19.7105,141.606,9.18594,0.0,0.0
600,149.75,102.313,113.475,128.387,115.647,44.9571,0.0353371,0.813787,19.6942,141.375,8.45667,0.0,0.0
606,151.25,102.839,114.806,134.503,115.663,45.2438,0.0354017,0.818802,19.6856,141.115,8.401,0.0,0.0
612,152.75,103.347,115.678,132.262,115.645,44.7288,0.0353119,0.820676,19.6851,140.865,8.50209,0.0,0.0
618,154.25,104.432,115.773,134.5,115.652,48.6621,0.0350832,0.82102,19.6879,140.625,7.74825,0.0,0.0
624,155.75,104.298,116.477,127.697,115.652,42.8059,0.0346956,0.81716,19.6977,140.385,8.89597,0.0,0.0
630,157.25,105.116,117.133,132.973,115.645,45.2125,0.03425,0.807317,19.7148,140.134,8.40582,0.0,0.0
636,158.75,105.898,117.557,128.438,115.647,43.7512,0.0338191,0.796617,19.7341,139.914,8.70002,0.0,0.0
642,160.25,106.226,117.79,129.485,115.623,46.5535,0.0334219,0.787464,19.75,139.684,8.14254,0.0,0.0
648,161.75,106.498,118.689,127.927,115.614,45.9992,0.0330444,0.780916,19.7631,139.454,8.24903,0.0,0.0
654,163.25,106.554,119.056,132.322,115.607,46.9726,0.032692,0.772628,19.7799,139.193,8.06109,0.0,0.0
660,164.75,106.993,119.225,130.327,115.609,44.385,0.0322825,0.763113,19.7954,139.033,8.56836,0.0,0.0
666,166.25,107.182,119.529,131.825,115.592,45.3065,0.0317684,0.752011,19.8112,138.793,8.38318,0.0,0.0
672,167.75,107.459,119.658,130.786,115.601,48.0452,0.0313182,0.741812,19.8283,138.573,7.85852,0.0,0.0
678,169.25,107.096,119.503,133.855,115.576,46.1452,0.031028,0.733461,19.8441,138.353,8.21774,0.0,0.0
684,170.75,106.957,119.251,132.417,115.599,45.4763,0.0308531,0.724123,19.8591,138.162,8.35017,0.0,0.0
690,172.25,107.241,120.085,136.869,115.591,45.944,0.0306929,0.713595,19.8743,137.942,8.25796,0.0,0.0
696,173.75,106.917,120.184,132.169,115.625,47.2149,0.0305055,0.704744,19.8846,137.742,8.01638,0.0,0.0
702,175.25,107.29,120.177,132.674,115.637,44.9767,0.0303029,0.696359,19.8958,137.502,8.45204,0.0,0.0
708,176.75,107.405,119.973,133.525,115.666,44.0248,0.0300688,0.691394,19.9053,137.272,8.6457,0.0,0.0
714,178.25,107.644,119.734,135.71,115.671,48.5162,0.0298408,0.686095,19.9117,137.101,7.77662,0.0,0.0
720,179.75,107.505,120.323,133.968,115.71,48.4994,0.0296259,0.681439,19.92,136.921,7.78276,0.0,0.0
726,181.25,106.99,120.149,138.691,115.706,49.0958,0.0294134,0.678906,19.9251,136.721,7.67305,0.0,0.0
732,182.75,107.201,120.271,130.013,115.738,41.5949,0.0292275,0.675652,19.9318,136.481,9.15945,0.0,0.0
738,184.25,107.49,119.898,133.296,115.727,48.2748,0.0289885,0.669967,19.9417,136.301,7.8256,0.0,0.0
744,185.75,107.657,119.775,138.443,115.782,49.4816,0.0285997,0.663814,19.9507,136.07,7.60883,0.0,0.0
750,187.25,107.615,119.272,134.354,115.785,46.691,0.0282361,0.659632,19.958,135.88,8.12865,0.0,0.0
756,188.75,107.266,119.408,131.592,115.819,51.5585,0.0278823,0.655937,19.9644,135.67,7.24368,0.0,0.0
762,190.25,107.142,120.012,130.398,115.825,51.1193,0.0274896,0.651771,19.9715,135.45,7.32076,0.0,0.0
768,191.75,107.307,119.471,135.86,115.86,49.1224,0.0271876,0.648691,19.9756,135.28,7.68007,0.0,0.0
774,193.25,107.022,119.483,134.035,115.883,51.341,0.0270227,0.645388,19.9803,135.119,7.28647,0.0,0.0
780,194.75,107.473,119.277,138.319,115.884,48.8558,0.0270246,0.640112,19.9904,134.949,7.73066,0.0,0.0
786,196.25,106.404,118.798,139.02,115.886,49.5701,0.0270447,0.633359,19.9999,134.769,7.6009,0.0,0.0
792,197.75,107.086,119.096,130.483,115.892,49.4344,0.0269439,0.627336,20.0083,134.539,7.6259,0.0,0.0
798,199.25,106.982,119.07,141.369,115.913,52.1245,0.0266648,0.6219,20.0175,134.379,7.15326,0.0,0.0
804,200.75,106.436,118.895,132.711,115.928,51.8779,0.0263342,0.619035,20.0246,134.149,7.19684,0.0,0.0
810,202.25,106.726,118.873,132.204,115.94,51.9102,0.0261444,0.615928,20.0321,134.008,7.19218,0.0,0.0
816,203.75,106.576,118.603,139.523,115.934,52.284,0.0260763,0.609847,20.0449,133.828,7.1275,0.0,0.0
822,205.25,106.564,118.647,140.106,115.941,49.5911,0.0260019,0.603844,20.0551,133.658,7.60136,0.0,0.0
828,206.75,106.474,118.643,137.78,115.941,53.3991,0.0258061,0.59857,20.0622,133.478,6.93915,0.0,0.0
834,208.25,106.149,117.972,134.798,115.946,54.4875,0.025488,0.594479,20.0691,133.318,6.75898,0.0,0.0
840,209.75,106.279,117.387,139.133,115.943,52.8626,0.0251897,0.590327,20.0756,133.128,7.02968,0.0,0.0
846,211.25,106.088,117.188,137.402,115.964,52.8312,0.0250162,0.586655,20.0822,132.927,7.03664,0.0,0.0
852,212.75,105.524,117.413,137.351,115.951,50.5972,0.0249359,0.583217,20.0861,132.717,7.42234,0.0,0.0
858,214.25,105.345,116.705,132.084,115.976,52.9206,0.0248524,0.581412,20.0882,132.607,7.02246,0.0,0.0
864,215.75,105.484,116.916,132.561,115.965,55.4375,0.024758,0.580431,20.0897,132.437,6.60571,0.0,0.0
870,217.25,105.758,116.505,135.757,115.97,55.2313,0.0247413,0.579394,20.0923,132.257,6.63944,0.0,0.0
876,218.75,105.211,116.322,134.948,115.949,53.1942,0.0247898,0.578414,20.0937,132.057,6.97417,0.0,0.0
882,220.25,104.444,117.061,128.219,115.974,52.2947,0.0248858,0.57756,20.0944,131.936,7.12876,0.0,0.0
888,221.75,105.138,116.277,135.445,115.97,49.0167,0.0249237,0.575362,20.0978,131.726,7.70783,0.0,0.0
894,223.25,104.76,116.245,135.505,115.983,51.6286,0.0248744,0.573149,20.1019,131.576,7.24422,0.0,0.0
900,224.75,104.873,115.941,139.829,115.987,54.7565,0.024781,0.571329,20.104,131.366,6.71804,0.0,0.0
906,226.25,104.545,116.146,139.259,116.007,52.9575,0.0247088,0.571857,20.1037,131.216,7.01859,0.0,0.0
912,227.75,104.554,115.377,142.528,116.002,53.9435,0.0246434,0.573978,20.1028,131.046,6.85311,0.0,0.0
918,229.25,104.518,115.615,134.823,116.026,55.9689,0.0245804,0.574043,20.1023,130.835,6.52505,0.0,0.0
924,230.75,104.505,115.42,137.871,116.028,56.2084,0.0245322,0.572658,20.1036,130.595,6.48698,0.0,0.0
930,232.25,104.594,114.991,135.871,116.033,56.1677,0.0245869,0.571059,20.1052,130.505,6.49386,0.0,0.0
936,233.75,104.11,114.732,136.509,116.035,53.6339,0.0247663,0.56893,20.1073,130.355,6.90716,0.0,0.0
942,235.25,104.185,114.167,138.612,116.046,50.7118,0.025053,0.566209,20.1102,130.195,7.40941,0.0,0.0
948,236.75,104.149,115.083,135.383,116.053,48.9133,0.0253053,0.563836,20.1117,130.015,7.73318,0.0,0.0
954,238.25,104.005,114.731,135.311,116.055,48.301,0.0254746,0.561975,20.1125,129.824,7.84604,0.0,0.0
960,239.75,103.445,114.381,136.458,116.066,51.3798,0.0255203,0.560508,20.1129,129.644,7.29388,0.0,0.0
966,241.25,103.664,114.302,136.063,116.069,50.1248,0.0254906,0.561032,20.1112,129.524,7.51543,0.0,0.0
972,242.75,103.11,114.028,137.192,116.08,51.7208,0.0255014,0.563056,20.1082,129.334,7.23575,0.0,0.0
978,244.25,103.293,113.947,138.29,116.086,53.6568,0.0256204,0.5652,20.1047,129.104,6.90727,0.0,0.0
984,245.75,102.892,114.09,137.349,116.092,50.0037,0.0258251,0.566836,20.1027,128.954,7.53885,0.0,0.0
990,247.25,103.278,113.794,133.576,116.086,51.3484,0.0259647,0.567804,20.1016,128.783,7.30089,0.0,0.0
996,248.75,102.922,113.192,136.797,116.111,49.8254,0.025968,0.56947,20.1011,128.593,7.57228,0.0,0.0
1002,250.25,102.964,113.629,136.668,116.093,53.7508,0.0258753,0.570053,20.1005,128.403,6.89217,0.0,0.0
1008,251.75,103.088,113.496,137.859,116.117,54.1704,0.0257127,0.568341,20.1007,128.233,6.82442,0.0,0.0
1014,253.25,103.158,113.509,138.155,116.1,52.8757,0.0254756,0.567953,20.1014,128.083,7.03957,0.0,0.0
1020,254.75,102.94,113.496,142.116,116.127,55.4441,0.0252767,0.568919,20.1007,127.883,6.61712,0.0,0.0
1026,256.25,103.318,112.884,137.073,116.106,51.2844,0.0251508,0.571048,20.097,127.712,7.31358,0.0,0.0
1032,257.75,103.225,113.362,137.312,116.102,50.8143,0.0251821,0.574739,20.0931,127.522,7.39571,0.0,0.0
1038,259.25,103.222,113.701,135.525,116.083,48.2005,0.0252636,0.576142,20.0911,127.382,7.86686,0.0,0.0
1044,260.75,103.332,113.814,134.76,116.105,52.725,0.0252607,0.574874,20.0918,127.152,7.0655,0.0,0.0
1050,262.25,103.257,113.153,139.442,116.072,52.5464,0.0251376,0.570599,20.0979,127.012,7.0934,0.0,0.0
1056,263.75,103.363,113.547,140.638,116.088,49.6229,0.0249314,0.565143,20.1061,126.842,7.60698,0.0,0.0
1062,265.25,103.283,113.197,139.265,116.07,53.93,0.0247793,0.559036,20.1145,126.661,6.86059,0.0,0.0
1068,266.75,103.071,113.068,135.925,116.065,54.7897,0.0246697,0.555146,20.1206,126.471,6.71867,0.0,0.0
1074,268.25,102.889,112.715,138.953,116.063,51.7662,0.0245678,0.551731,20.1241,126.371,7.22657,0.0,0.0
1080,269.75,102.751,112.816,135.536,116.057,53.176,0.0244723,0.547325,20.1292,126.111,6.98564,0.0,0.0
1086,271.25,101.87,111.87,141.222,116.047,53.7251,0.0244018,0.542198,20.1376,125.981,6.89286,0.0,0.0
1092,272.75,102.714,112.231,131.45,116.041,48.8245,0.0243453,0.539246,20.143,125.821,7.74852,0.0,0.0
1098,274.25,102.579,112.625,139.078,116.012,51.3054,0.0242494,0.537674,20.148,125.61,7.30266,0.0,0.0
1104,275.75,101.85,112.158,136.239,115.993,55.8052,0.0241,0.535035,20.1524,125.46,6.54871,0.0,0.0
1110,277.25,102.798,112.337,136.354,115.985,53.8243,0.0238061,0.530954,20.1599,125.35,6.87163,0.0,0.0
1116,278.75,102.458,111.858,137.662,115.989,49.1205,0.0234182,0.52532,20.169,125.12,7.69037,0.0,0.0
1122,280.25,101.858,111.869,140.159,115.938,53.0314,0.0230076,0.517805,20.1815,124.98,7.00081,0.0,0.0
1128,281.75,101.698,111.861,135.949,115.94,55.6359,0.0226021,0.510493,20.1955,124.8,6.5718,0.0,0.0
1134,283.25,101.913,111.241,140.155,115.921,52.4308,0.022218,0.503133,20.2076,124.689,7.10142,0.0,0.0
1140,284.75,102.142,110.665,139.968,115.889,54.3229,0.02191,0.496484,20.2198,124.549,6.78162,0.0,0.0
1146,286.25,101.307,110.885,140.77,115.888,54.5053,0.0216002,0.490865,20.2301,124.409,6.75155,0.0,0.0
1152,287.75,101.814,110.292,138.888,115.859,54.633,0.0212617,0.486813,20.2368,124.249,6.7284,0.0,0.0
1158,289.25,100.228,110.327,138.325,115.858,53.8448,0.0210167,0.48372,20.2425,124.089,6.85839,0.0,0.0
1164,290.75,100.436,109.939,144.782,115.828,54.1185,0.0206746,0.480737,20.2483,123.929,6.81068,0.0,0.0
1170,292.25,100.472,109.594,141.414,115.822,56.5302,0.0204795,0.476608,20.2549,123.739,6.42001,0.0,0.0
1176,293.75,100.563,109.39,139.994,115.802,53.7803,0.0203332,0.471288,20.2642,123.608,6.8648,0.0,0.0
1182,295.25,100.069,109.454,141.848,115.809,56.6925,0.0200989,0.464595,20.2777,123.488,6.39333,0.0,0.0
1188,296.75,99.9107,108.856,140.411,115.784,57.9274,0.0198265,0.458449,20.2877,123.398,6.19852,0.0,0.0
1194,298.25,99.7009,108.706,138.93,115.801,56.1845,0.0194502,0.452828,20.2975,123.188,6.47328,0.0,0.0
1200,299.75,99.0958,108.462,143.79,115.758,59.2156,0.0191261,0.447065,20.3049,123.068,5.99964,0.0,0.0
1206,301.25,99.176,107.885,146.717,115.761,55.5933,0.0187636,0.43979,20.3181,122.938,6.56486,0.0,0.0
1212,302.75,98.4559,107.708,139.829,115.743,59.1501,0.0185052,0.434695,20.3297,122.838,6.00835,0.0,0.0
1218,304.25,98.6337,107.243,140.397,115.754,57.774,0.0182682,0.428936,20.34,122.698,6.21991,0.0,0.0
1224,305.75,98.2574,107.22,146.414,115.748,59.1417,0.0179478,0.42382,20.3497,122.507,6.01006,0.0,0.0
1230,307.25,96.6568,106.759,144.642,115.739,57.7623,0.017627,0.41808,20.3615,122.397,6.2206,0.0,0.0
1236,308.75,97.6866,105.782,144.25,115.735,59.0729,0.0173709,0.411907,20.3743,122.237,6.01946,0.0,0.0
1242,310.25,96.3657,106.15,145.969,115.746,58.4625,0.0171885,0.405601,20.3845,122.157,6.11329,0.0,0.0
1248,311.75,96.8298,105.144,147.158,115.772,64.8749,0.0169308,0.400938,20.3912,121.987,5.18376,0.0,0.0
1254,313.25,96.0622,105.07,146.775,115.772,61.6133,0.0166627,0.39721,20.3961,121.897,5.64545,0.0,0.0
1260,314.75,96.3304,104.537,147.961,115.802,61.051,0.0163697,0.392735,20.4053,121.767,5.72985,0.0,0.0
1266,316.25,96.2211,103.672,145.424,115.807,59.5734,0.0161545,0.389138,20.4153,121.657,5.94947,0.0,0.0
1272,317.75,95.0355,103.675,147.044,115.847,61.0581,0.0159595,0.384822,20.4243,121.506,5.73229,0.0,0.0
1278,319.25,95.0912,103.259,144.738,115.861,62.306,0.0156823,0.380912,20.4319,121.406,5.55228,0.0,0.0
1284,320.75,94.6513,102.401,146.885,115.861,62.8678,0.0153868,0.376935,20.4387,121.316,5.47194,0.0,0.0
1290,322.25,95.0071,102.642,143.664,115.862,62.4781,0.0151162,0.37292,20.446,121.196,5.52766,0.0,0.0
1296,323.75,94.0474,101.889,146.047,115.87,62.6652,0.0148245,0.369268,20.4542,121.076,5.50151,0.0,0.0
1302,325.25,93.7475,101.225,147.982,115.874,63.8711,0.0145059,0.365112,20.462,120.926,5.33123,0.0,0.0
1308,326.75,93.0815,101.026,148.398,115.9,65.6186,0.0142562,0.362022,20.4683,120.836,5.09166,0.0,0.0
1314,328.25,92.9996,100.424,147.111,115.919,68.3325,0.0141014,0.359206,20.475,120.736,4.73034,0.0,0.0
1320,329.75,93.0509,100.096,147.03,115.931,62.0792,0.0139343,0.356671,20.4798,120.636,5.5903,0.0,0.0
1326,331.25,92.1569,100.132,149.516,115.929,65.8352,0.0137429,0.354353,20.4834,120.515,5.06441,0.0,0.0
1332,332.75,92.0644,99.4454,146.861,115.932,64.431,0.0135067,0.352039,20.4876,120.425,5.25759,0.0,0.0
1338,334.25,91.7316,99.4022,148.158,115.928,65.868,0.0132873,0.349328,20.4929,120.305,5.05988,0.0,0.0
1344,335.75,91.0277,98.8326,144.082,115.948,65.1668,0.0131055,0.346001,20.4975,120.185,5.15719,0.0,0.0
1350,337.25,91.0427,97.8712,150.596,115.932,67.2628,0.0129145,0.342897,20.5037,120.085,4.87258,0.0,0.0
1356,338.75,91.0188,97.6943,146.626,115.955,69.5716,0.0127652,0.340262,20.5084,119.985,4.57227,0.0,0.0
1362,340.25,90.7051,97.1806,148.419,115.946,70.0459,0.0125758,0.337249,20.5161,119.845,4.51077,0.0,0.0
1368,341.75,89.9349,96.3062,146.376,115.965,68.4387,0.0123422,0.335122,20.5222,119.785,4.72001,0.0,0.0
1374,343.25,90.0992,97.0037,147.562,115.962,67.0387,0.0121343,0.33296,20.5267,119.715,4.90479,0.0,0.0
1380,344.75,89.4812,95.2402,144.322,115.965,65.9896,0.0119273,0.330876,20.5313,119.555,5.04619,0.0,0.0
1386,346.25,89.3963,96.2213,147.578,115.956,67.8564,0.0116044,0.328419,20.5357,119.454,4.79581,0.0,0.0
1392,347.75,88.2601,96.0563,150.828,115.968,72.5736,0.0111404,0.325833,20.5416,119.384,4.19517,0.0,0.0
1398,349.25,88.7433,95.1054,146.841,115.981,72.6728,0.0106159,0.323348,20.5466,119.274,4.18399,0.0,0.0
1404,350.75,88.8466,94.4087,146.482,115.98,70.6189,0.0102532,0.320287,20.5526,119.214,4.44052,0.0,0.0
1410,352.25,87.8808,94.2009,145.382,115.99,70.8009,0.010011,0.317171,20.5589,119.124,4.41821,0.0,0.0
1416,353.75,87.8752,93.6121,146.019,115.985,73.084,0.00979253,0.314002,20.5648,119.024,4.13382,0.0,0.0
1422,355.25,87.6084,93.7969,147.599,115.995,72.3075,0.00956423,0.311111,20.5709,118.914,4.23018,0.0,0.0
1428,356.75,87.3204,93.2165,150.167,115.989,70.0104,0.0093401,0.308047,20.5778,118.834,4.51867,0.0,0.0
1434,358.25,86.792,92.8301,151.485,116.005,75.5013,0.00913442,0.304808,20.5834,118.784,3.84408,0.0,0.0
1440,359.75,86.3998,92.9155,147.397,115.993,73.7884,0.00881845,0.301324,20.5899,118.664,4.0485,0.0,0.0
1446,361.25,86.3354,91.9367,151.25,116.006,77.3428,0.00847864,0.297867,20.5961,118.644,3.62846,0.0,0.0
1452,362.75,85.4494,92.4574,150.464,115.987,74.5368,0.00815964,0.295035,20.6028,118.514,3.95778,0.0,0.0
1458,364.25,86.0726,91.5722,149.95,116.015,77.4523,0.00784505,0.292149,20.6084,118.413,3.61649,0.0,0.0
1464,365.75,86.112,90.8742,148.729,115.994,75.9302,0.0075966,0.289926,20.6124,118.343,3.79255,0.0,0.0
1470,367.25,84.6304,90.9717,148.24,116.014,75.8605,0.00729653,0.288103,20.6163,118.253,3.80232,0.0,0.0
1476,368.75,84.5105,90.0675,152.507,116.012,77.6993,0.00710107,0.286004,20.6215,118.173,3.58778,0.0,0.0
1482,370.25,84.7492,90.1506,151.129,116.031,80.2036,0.00700112,0.282957,20.6289,118.103,3.30532,0.0,0.0
1488,371.75,84.0671,90.1554,150.412,116.015,79.6942,0.0069133,0.279668,20.6353,118.023,3.36109,0.0,0.0
1494,373.25,84.0834,89.2179,151.298,116.032,78.6203,0.00675204,0.276007,20.6425,118.023,3.48386,0.0,0.0
1500,374.75,83.9059,88.6106,151.933,116.009,78.7667,0.00648116,0.273562,20.6486,117.903,3.46544,0.0,0.0
1506,376.25,82.8696,88.5717,152.394,116.022,80.6166,0.0062098,0.271365,20.6535,117.823,3.25863,0.0,0.0
1512,377.75,83.0197,88.2362,151.375,116.009,80.1283,0.00598047,0.269739,20.6568,117.803,3.312,0.0,0.0
1518,379.25,83.1261,87.8195,151.104,116.024,80.5133,0.00584556,0.268181,20.6608,117.673,3.27026,0.0,0.0
1524,380.75,81.7191,87.0184,149.152,116.001,80.09,0.0057846,0.266075,20.665,117.623,3.31567,0.0,0.0
1530,382.25,81.9175,87.2989,150.762,115.998,82.9666,0.0057164,0.264034,20.6691,117.563,2.99961,0.0,0.0
1536,383.75,81.8445,86.4887,154.442,115.999,86.0842,0.0055299,0.261708,20.6719,117.483,2.66949,0.0,0.0
1542,385.25,81.0097,87.1641,155.162,116,85.2147,0.00529973,0.258704,20.6776,117.443,2.76047,0.0,0.0
1548,386.75,80.9331,86.2618,150.633,115.999,85.6815,0.00513173,0.255129,20.6843,117.393,2.7115,0.0,0.0
1554,388.25,80.372,86.4697,151.307,116.007,84.5322,0.00503287,0.252008,20.6905,117.342,2.83301,0.0,0.0
1560,389.75,81.0265,85.4814,152.675,116.022,85.6969,0.00496788,0.249617,20.6945,117.252,2.71165,0.0,0.0
1566,391.25,80.3055,85.378,151.061,116.019,84.9083,0.0048623,0.246828,20.7009,117.192,2.79418,0.0,0.0
1572,392.75,80.2076,84.8056,153.673,116.028,85.8761,0.00469453,0.244014,20.7052,117.132,2.69339,0.0,0.0
1578,394.25,80.1474,84.3813,151.426,116.023,85.8625,0.00448255,0.241487,20.7093,117.032,2.69448,0.0,0.0
1584,395.75,79.5578,84.0143,149.616,116.035,87.9622,0.0042118,0.23934,20.7131,117.032,2.4791,0.0,0.0
1590,397.25,79.7921,83.5882,152.072,116.021,86.8925,0.00393792,0.237353,20.7168,116.942,2.58757,0.0,0.0
1596,398.75,79.5056,83.2325,155.13,116.047,89.6901,0.00370415,0.235242,20.7217,116.932,2.30596,0.0,0.0
1602,400.25,78.7827,83.3149,153.899,116.032,88.9651,0.00349264,0.233164,20.7272,116.832,2.37742,0.0,0.0
1608,401.75,78.8232,83.3157,151.724,116.051,89.7724,0.00322308,0.230248,20.7335,116.762,2.29808,0.0,0.0
1614,403.25,78.3261,83.2058,153.656,116.057,91.933,0.00303072,0.22737,20.7397,116.722,2.08565,0.0,0.0
1620,404.75,78.153,82.6084,155.031,116.077,90.3936,0.0029389,0.224824,20.7452,116.692,2.2383,0.0,0.0
1626,406.25,77.8851,82.5149,155.883,116.053,93.3596,0.00295397,0.222591,20.7491,116.622,1.94753,0.0,0.0
1632,407.75,77.6292,81.6779,156.249,116.066,90.845,0.00295535,0.220557,20.7535,116.582,2.19289,0.0,0.0
1638,409.25,77.5666,81.3276,157.763,116.057,92.0172,0.00289681,0.218304,20.7577,116.572,2.07749,0.0,0.0
1644,410.75,77.4343,81.3258,154.965,116.08,92.7759,0.00279305,0.215841,20.7629,116.482,2.00576,0.0,0.0
1650,412.25,76.467,79.9695,154.4,116.06,93.1463,0.00265103,0.213347,20.7696,116.462,1.96851,0.0,0.0
1656,413.75,76.8726,80.4719,151.821,116.077,93.2974,0.00250045,0.211232,20.7739,116.392,1.9553,0.0,0.0
1662,415.25,76.4617,80.259,157.66,116.075,94.9883,0.00233711,0.209549,20.7765,116.341,1.79442,0.0,0.0
1668,416.75,75.4958,79.5643,158.205,116.078,96.0548,0.00220259,0.207448,20.7799,116.311,1.69471,0.0,0.0
1674,418.25,76.4648,79.9157,153.879,116.06,93.7787,0.00211832,0.205675,20.7832,116.271,1.90798,0.0,0.0
1680,419.75,75.9496,78.9047,155.603,116.071,95.9037,0.0020716,0.204359,20.7863,116.231,1.70826,0.0,0.0
1686,421.25,75.1414,79.0453,156.68,116.079,95.3116,0.00205754,0.202944,20.7886,116.191,1.76431,0.0,0.0
1692,422.75,75.0295,78.8791,155.653,116.077,95.4851,0.00206202,0.201209,20.7922,116.161,1.74788,0.0,0.0
1698,424.25,75.3378,78.3324,152.88,116.063,97.01,0.00210294,0.199378,20.796,116.111,1.60496,0.0,0.0
1704,425.75,74.8611,78.0448,155.162,116.066,98.1326,0.00215573,0.197111,20.8014,116.081,1.50223,0.0,0.0
1710,427.25,74.4625,78.0421,152.766,116.072,98.0643,0.00218318,0.194537,20.8058,116.051,1.50893,0.0,0.0
1716,428.75,74.3191,78.0087,150.882,116.085,98.0685,0.00215808,0.192122,20.8097,116.031,1.50952,0.0,0.0
1722,430.25,74.4167,76.9448,154.549,116.082,98.9422,0.0020569,0.190144,20.8131,115.981,1.42991,0.0,0.0
1728,431.75,74.1414,77.0478,156.654,116.078,99.6612,0.00193128,0.18794,20.8172,115.941,1.36486,0.0,0.0
1734,433.25,73.5227,77.4849,157.266,116.09,97.9567,0.00178629,0.185425,20.8222,115.941,1.52012,0.0,0.0
1740,434.75,73.6917,76.8445,153.645,116.087,100.649,0.00166041,0.183353,20.8256,115.871,1.2773,0.0,0.0
1746,436.25,73.309,76.0057,154.79,116.11,99.5129,0.00158396,0.181701,20.828,115.851,1.38063,0.0,0.0
1752,437.75,73.0695,75.8806,157.944,116.091,101.268,0.00156201,0.180387,20.8303,115.781,1.22261,0.0,0.0
1758,439.25,72.4159,75.7827,159.58,116.121,100.99,0.00153187,0.179,20.8336,115.761,1.24954,0.0,0.0
1764,440.75,72.4098,75.652,157.294,116.095,101.874,0.00146812,0.17744,20.8366,115.701,1.16959,0.0,0.0
1770,442.25,72.7361,74.8433,156.899,116.114,101.78,0.00141818,0.176107,20.8383,115.701,1.17926,0.0,0.0
1776,443.75,72.0607,75.0609,156.307,116.099,101.676,0.00136659,0.174845,20.8418,115.651,1.18732,0.0,0.0
1782,445.25,71.7317,73.9606,157.154,116.126,102.109,0.00127422,0.173248,20.8459,115.611,1.15132,0.0,0.0
1788,446.75,71.1375,74.9369,155.429,116.113,102.047,0.0012039,0.171798,20.8493,115.591,1.15573,0.0,0.0
1794,448.25,71.6731,73.8053,154.539,116.132,103.825,0.00112698,0.170351,20.8518,115.571,1.00268,0.0,0.0
1800,449.75,71.3853,73.4471,153.798,116.127,102.768,0.00106149,0.168907,20.854,115.511,1.09377,0.0,0.0
1806,451.25,70.6935,73.8669,155.109,116.133,103.073,0.00103156,0.167384,20.8556,115.531,1.06772,0.0,0.0
1812,452.75,70.5115,73.0705,155.607,116.127,103.979,0.000981926,0.166091,20.8572,115.491,0.989031,0.0,0.0
1818,454.25,70.4714,73.2064,157.834,116.142,103.75,0.000874228,0.164897,20.859,115.461,1.00986,0.0,0.0
1824,455.75,69.9773,72.9279,155.377,116.128,104.27,0.000737909,0.163565,20.8619,115.451,0.964049,0.0,0.0
1830,457.25,69.9626,72.903,156.941,116.146,104.673,0.000575801,0.162183,20.8646,115.431,0.930914,0.0,0.0
1836,458.75,70.0014,72.1953,155.206,116.131,104.357,0.000435342,0.160855,20.8668,115.391,0.956765,0.0,0.0
1842,460.25,69.8505,72.2439,153.727,116.151,105.41,0.000415039,0.1597,20.8685,115.371,0.86846,0.0,0.0
1848,461.75,69.3021,71.7191,159.686,116.166,104.868,0.000560329,0.158474,20.8708,115.341,0.915839,0.0,0.0
1854,463.25,68.9025,72.1907,157.225,116.154,105.568,0.000770032,0.157578,20.8724,115.29,0.855301,0.0,0.0
1860,464.75,69.3601,71.692,159.221,116.176,105.646,0.000982278,0.156858,20.8739,115.26,0.850413,0.0,0.0
1866,466.25,68.7929,71.4374,158.002,116.165,106.023,0.00110045,0.155919,20.8762,115.24,0.817661,0.0,0.0
1872,467.75,68.6543,71.2299,158.803,116.176,106.219,0.00114259,0.154668,20.8792,115.21,0.801996,0.0,0.0
1878,469.25,68.5385,70.5597,159.197,116.179,106.144,0.00110191,0.153132,20.8825,115.18,0.808596,0.0,0.0
1884,470.75,68.0912,70.3824,156.685,116.181,107.332,0.000964832,0.151515,20.8851,115.15,0.709038,0.0,0.0
1890,472.25,67.6976,70.8382,157.152,116.177,107.215,0.000833109,0.150296,20.8876,115.14,0.718508,0.0,0.0
1896,473.75,67.6566,70.3176,157.592,116.199,106.538,0.000773114,0.149443,20.8891,115.13,0.776958,0.0,0.0
1902,475.25,67.474,70.0441,156.899,116.178,107.223,0.000769486,0.148658,20.8917,115.12,0.717917,0.0,0.0
1908,476.75,67.7409,69.7419,158.221,116.193,106.811,0.000796953,0.147494,20.8948,115.08,0.753607,0.0,0.0
1914,478.25,67.2896,69.2305,156.803,116.172,106.436,0.000870213,0.145987,20.8979,115.05,0.783442,0.0,0.0
1920,479.75,67.2724,69.2706,158.628,116.177,106.542,0.000947691,0.144758,20.9009,115.04,0.774873,0.0,0.0
1926,481.25,67.223,69.01,157.609,116.181,107.124,0.00101213,0.143671,20.9032,115,0.726412,0.0,0.0
1932,482.75,66.4229,68.2994,156.255,116.183,107.37,0.00104987,0.142752,20.9052,115.03,0.706097,0.0,0.0
1938,484.25,66.7333,68.3399,156.026,116.186,107.37,0.00107775,0.141757,20.907,114.97,0.706274,0.0,0.0
1944,485.75,66.5947,68.3158,156.182,116.19,107.237,0.00107939,0.140569,20.9093,114.94,0.717679,0.0,0.0
1950,487.25,66.1134,68.6151,158.527,116.186,108.264,0.00107494,0.13947,20.9107,114.91,0.632143,0.0,0.0
1956,488.75,65.8636,68.0089,157.845,116.19,107.294,0.00110791,0.138608,20.9124,114.99,0.712995,0.0,0.0
1962,490.25,65.9482,67.6988,160.642,116.191,108.686,0.00119795,0.137947,20.9145,114.87,0.597614,0.0,0.0
1968,491.75,65.6766,67.533,162.7,116.202,108.358,0.00129536,0.137214,20.9156,114.88,0.625562,0.0,0.0
1974,493.25,65.3316,67.2893,159.285,116.197,107.862,0.00128329,0.13636,20.917,114.84,0.666215,0.0,0.0
1980,494.75,65.5522,67.0623,158.325,116.194,108.235,0.00122241,0.135183,20.9203,114.83,0.635114,0.0,0.0
1986,496.25,65.3355,66.8838,161.996,116.193,108.181,0.00120675,0.133632,20.9226,114.82,0.63942,0.0,0.0
1992,497.75,65.2036,66.7169,158.171,116.206,108.055,0.0012546,0.132572,20.9231,114.8,0.650882,0.0,0.0
1998,499.25,64.5347,66.3974,156.953,116.185,108.006,0.00131649,0.131991,20.9241,114.79,0.653293,0.0,0.0
2004,500.75,64.5781,66.5818,158.151,116.177,107.82,0.00139974,0.131778,20.9248,114.77,0.668122,0.0,0.0
2010,502.25,64.4782,66.4378,160.252,116.175,108.706,0.00150206,0.131538,20.9249,114.73,0.59481,0.0,0.0
2016,503.75,63.9724,66.3932,162.281,116.176,109.243,0.00166384,0.131259,20.9261,114.73,0.55074,0.0,0.0
2022,505.25,64.2325,65.9003,163.286,116.159,107.547,0.00184775,0.13086,20.9267,114.7,0.689534,0.0,0.0
2028,506.75,64.4868,65.5849,158.949,116.151,108.711,0.00193654,0.130242,20.9279,114.7,0.592511,0.0,0.0
2034,508.25,63.8077,65.7398,158.089,116.173,108.011,0.001943,0.129605,20.9298,114.67,0.65208,0.0,0.0
2040,509.75,63.7989,65.0835,158.07,116.151,109.324,0.00188675,0.128912,20.9309,114.72,0.542206,0.0,0.0
2046,511.25,63.5853,65.5205,156.993,116.15,109.381,0.00176065,0.128192,20.9315,114.66,0.537461,0.0,0.0
2052,512.75,63.5652,64.7326,158.218,116.128,109.154,0.00166242,0.127338,20.9328,114.63,0.554351,0.0,0.0
2058,514.25,63.2899,64.7466,157.238,116.126,108.988,0.00161801,0.126891,20.934,114.64,0.567799,0.0,0.0
2064,515.75,63.2621,64.4002,160.348,116.086,108.295,0.00167522,0.127079,20.9346,114.59,0.621735,0.0,0.0
2070,517.25,62.7309,64.0481,160.3,116.096,107.962,0.00175638,0.12726,20.9349,114.61,0.650131,0.0,0.0
2076,518.75,62.6733,64.9437,158.254,116.053,107.734,0.00181258,0.127075,20.9351,114.6,0.665762,0.0,0.0
2082,520.25,63.4954,63.7833,161.283,116.041,108.434,0.00187141,0.126819,20.9357,114.55,0.606837,0.0,0.0
2088,521.75,62.1326,63.3561,162.522,116.017,107.769,0.00196216,0.126496,20.936,114.53,0.660071,0.0,0.0
2094,523.25,62.1545,63.8025,161.493,116.017,108.004,0.00209426,0.126158,20.9361,114.48,0.640629,0.0,0.0
2100,524.75,62.5538,63.6142,159.237,115.993,108.269,0.00223415,0.125849,20.9365,114.5,0.616799,0.0,0.0
2106,526.25,61.8514,63.2543,160.032,115.978,108.329,0.00238725,0.125518,20.9375,114.49,0.610698,0.0,0.0
2112,527.75,61.5945,63.3676,162.025,115.937,107.864,0.00249482,0.125013,20.938,114.49,0.64606,0.0,0.0
2118,529.25,61.9274,62.9867,161.561,115.921,108.03,0.00255783,0.12467,20.9394,114.49,0.630993,0.0,0.0
2124,530.75,61.7442,62.8725,160.795,115.87,108.078,0.00261015,0.124494,20.9402,114.45,0.623068,0.0,0.0
2130,532.25,61.5689,62.7942,161.283,115.828,108.66,0.00263575,0.124268,20.9405,114.44,0.571757,0.0,0.0
2136,533.75,61.2696,62.8872,160.113,115.781,107.256,0.00264711,0.123743,20.9407,114.38,0.684528,0.0,0.0
2142,535.25,62.2369,62.2531,162.294,115.756,108.279,0.00263896,0.123431,20.9415,114.38,0.597654,0.0,0.0
2148,536.75,61.0907,62.0267,163.779,115.675,107.491,0.00264059,0.123051,20.9433,114.39,0.656711,0.0,0.0
2154,538.25,60.8459,62.3786,162.169,115.63,107.623,0.00267121,0.1226,20.9448,114.33,0.642299,0.0,0.0
2160,539.75,60.4947,61.5367,163.342,115.581,107.898,0.00270533,0.122254,20.9463,114.38,0.615694,0.0,0.0
2166,541.25,60.6545,60.9793,161.758,115.586,107.827,0.00269978,0.12188,20.9471,114.38,0.621918,0.0,0.0
2172,542.75,60.4865,61.455,161.96,115.617,107.44,0.00261613,0.121526,20.9469,114.33,0.656509,0.0,0.0
2178,544.25,59.7294,60.9802,160.862,115.625,107.154,0.0025328,0.121468,20.9477,114.31,0.680968,0.0,0.0
2184,545.75,59.3823,60.6184,161.81,115.655,107.86,0.00254949,0.12154,20.9482,114.3,0.624554,0.0,0.0
2190,547.25,59.4959,60.5455,161.842,115.685,107.425,0.00268306,0.121338,20.9484,114.27,0.662964,0.0,0.0
2196,548.75,59.5298,60.8087,158.049,115.723,107.934,0.00285857,0.120805,20.9486,114.249,0.623665,0.0,0.0
2202,550.25,58.7933,60.7635,163.083,115.764,106.869,0.00299242,0.120157,20.9493,114.179,0.715642,0.0,0.0
2208,551.75,59.2555,60.6331,161.584,115.828,108.141,0.00307712,0.120064,20.9501,114.219,0.614702,0.0,0.0
2214,553.25,58.6628,60.1653,164.763,115.858,108.304,0.00315372,0.120299,20.9505,114.199,0.603437,0.0,0.0
2220,554.75,59.1532,60.6999,163.28,115.916,108.128,0.00326355,0.120343,20.9506,114.189,0.622458,0.0,0.0
2226,556.25,58.6896,59.5879,160.371,115.949,107.358,0.00333439,0.120071,20.9512,114.139,0.688983,0.0,0.0
2232,557.75,58.866,60.3437,163.334,116.019,107.654,0.0033584,0.119367,20.9523,114.149,0.669779,0.0,0.0
2238,559.25,58.8693,59.9736,161.184,116.061,108.388,0.00339862,0.11861,20.9535,114.129,0.612249,0.0,0.0
2244,560.75,58.6026,59.6643,161.949,116.144,107.522,0.00347663,0.118164,20.9541,114.109,0.690406,0.0,0.0
2250,562.25,58.6108,59.3814,159.6,116.186,108.623,0.00354017,0.118171,20.9534,114.119,0.602494,0.0,0.0
2256,563.75,58.8456,59.6427,164.407,116.262,107.389,0.00357554,0.118565,20.953,114.049,0.710505,0.0,0.0
2262,565.25,58.6237,59.6648,163.245,116.3,108.545,0.00358489,0.118886,20.9524,114.019,0.617712,0.0,0.0
2268,566.75,58.5458,59.6768,166.141,116.362,109.695,0.00358243,0.118894,20.9518,113.999,0.528077,0.0,0.0
2274,568.25,58.5734,59.519,163.148,116.389,109.016,0.00358623,0.11866,20.9525,113.979,0.58575,0.0,0.0
2280,569.75,58.4132,59.0986,162.897,116.441,109.431,0.00361398,0.118517,20.9531,113.979,0.5557,0.0,0.0
2286,571.25,57.8325,59.4476,160.014,116.487,107.785,0.00370645,0.118415,20.9535,113.949,0.694944,0.0,0.0
2292,572.75,58.3199,59.3774,160.756,116.503,108.54,0.00383787,0.118272,20.9537,113.939,0.633692,0.0,0.0
2298,574.25,58.0901,59.3301,166.756,116.52,108.328,0.00400976,0.118375,20.9538,113.919,0.652478,0.0,0.0
2304,575.75,57.4543,59.1021,161.128,116.532,108.659,0.00417235,0.118547,20.9538,113.929,0.626126,0.0,0.0
2310,577.25,57.5075,59.1655,160.749,116.524,109.145,0.00427713,0.118884,20.9539,113.909,0.585498,0.0,0.0
2316,578.75,57.6637,59.0377,160.457,116.497,108.754,0.00436081,0.119231,20.9536,113.889,0.615541,0.0,0.0
2322,580.25,57.4236,57.787,162.754,116.464,108.916,0.00447036,0.119409,20.9527,113.869,0.599756,0.0,0.0
2328,581.75,57.9554,58.5247,160.179,116.41,108.82,0.00457268,0.11958,20.9521,113.879,0.603434,0.0,0.0
2334,583.25,57.8516,58.852,163.058,116.337,107.982,0.00462935,0.119572,20.9523,113.859,0.667035,0.0,0.0
2340,584.75,56.7275,57.9561,159.924,116.255,107.46,0.0046462,0.119413,20.9531,113.819,0.704156,0.0,0.0
2346,586.25,57.1598,58.2576,158.815,116.152,108.445,0.00465627,0.119224,20.9534,113.799,0.614562,0.0,0.0
2352,587.75,57.0322,58.8537,162.544,116.006,108.825,0.00471633,0.118819,20.9543,113.789,0.571916,0.0,0.0
2358,589.25,57.2865,58.6871,162.363,115.884,108.213,0.00478399,0.118345,20.9543,113.789,0.612999,0.0,0.0
2364,590.75,57.3442,58.7185,160.03,115.736,107.81,0.00477425,0.118013,20.9542,113.749,0.634924,0.0,0.0
2370,592.25,56.5833,57.4516,157.838,115.583,107.586,0.00474655,0.117858,20.9541,113.759,0.641757,0.0,0.0
2376,593.75,57.0905,58.0176,164.609,115.411,107.129,0.00477575,0.117501,20.9543,113.749,0.666492,0.0,0.0
2382,595.25,56.8228,57.9472,161.59,115.251,109.049,0.00488241,0.117219,20.9553,113.719,0.495126,0.0,0.0
2388,596.75,57.0322,58.158,161.801,115.079,107.019,0.00500085,0.116984,20.9558,113.729,0.649913,0.0,0.0
2394,598.25,56.8591,58.0203,162.661,114.931,106.966,0.00503479,0.116942,20.9561,113.689,0.642884,0.0,0.0
2400,599.75,56.7323,58.0053,161.01,114.774,107.18,0.00496794,0.116923,20.9562,113.699,0.612665,0.0,0.0
2406,601.25,56.5615,57.8008,163.393,114.648,106.648,0.00485963,0.116932,20.9563,113.669,0.647379,0.0,0.0
2412,602.75,56.3046,58.2414,162.647,114.513,106.65,0.00477282,0.116846,20.9563,113.639,0.636676,0.0,0.0
2418,604.25,56.4287,57.6018,163.991,114.435,105.907,0.00475505,0.116405,20.9564,113.619,0.693203,0.0,0.0
2424,605.75,55.9303,57.6674,164.973,114.328,106.872,0.0047822,0.116069,20.9564,113.569,0.60361,0.0,0.0
2430,607.25,56.2786,57.5682,161.736,114.29,107.168,0.00481366,0.115763,20.9564,113.629,0.575884,0.0,0.0
2436,608.75,55.9815,57.5479,162.016,114.262,106.229,0.00482734,0.115556,20.9564,113.619,0.652401,0.0,0.0
2442,610.25,56.4529,57.2684,160.953,114.271,106.168,0.00483237,0.115486,20.9564,113.579,0.658298,0.0,0.0
2448,611.75,56.6167,57.1968,163.838,114.305,107.277,0.00482017,0.115578,20.9562,113.549,0.56792,0.0,0.0
2454,613.25,56.2982,57.2874,162.619,114.381,106.508,0.00480059,0.115693,20.956,113.529,0.638273,0.0,0.0
2460,614.75,55.7464,57.2615,166.927,114.477,107.327,0.00480016,0.115878,20.9559,113.549,0.577276,0.0,0.0
2466,616.25,55.966,57.166,166.376,114.6,106.018,0.00483741,0.116038,20.9558,113.539,0.696696,0.0,0.0
2472,617.75,55.8979,57.1523,161.858,114.725,107.018,0.00487181,0.115978,20.9555,113.519,0.622441,0.0,0.0
2478,619.25,55.3435,56.819,160.627,114.864,107.607,0.00487337,0.11591,20.9552,113.519,0.584106,0.0,0.0
2484,620.75,55.2527,56.9667,166.272,115.014,107.176,0.00487945,0.116227,20.9551,113.459,0.631692,0.0,0.0
2490,622.25,55.9802,56.1967,160.648,115.142,107.426,0.00492981,0.116744,20.9547,113.429,0.620815,0.0,0.0
2496,623.75,55.373,56.8398,159.973,115.299,107.751,0.00501744,0.117316,20.9537,113.469,0.605967,0.0,0.0
2502,625.25,55.3729,56.2772,160.939,115.423,107.431,0.00509603,0.117738,20.9531,113.469,0.642266,0.0,0.0
2508,626.75,55.1514,56.686,160.212,115.559,107.324,0.00517692,0.117732,20.9529,113.429,0.661691,0.0,0.0
2514,628.25,55.262,56.6346,161.516,115.663,107.235,0.00527652,0.117544,20.9536,113.399,0.677176,0.0,0.0
2520,629.75,55.201,56.31,164.672,115.739,107.778,0.00530355,0.117155,20.9554,113.389,0.637859,0.0,0.0
2526,631.25,55.3053,56.7014,162.353,115.766,107.814,0.00524381,0.116648,20.9566,113.369,0.636965,0.0,0.0
2532,632.75,54.4244,56.1701,162.555,115.787,108.5,0.00515637,0.11608,20.9573,113.369,0.581805,0.0,0.0
2538,634.25,55.189,56.4688,160.23,115.771,107.069,0.00514641,0.115656,20.9577,113.349,0.699471,0.0,0.0
2544,635.75,55.3178,56.3208,163.106,115.75,107.434,0.00523253,0.115513,20.9576,113.299,0.667287,0.0,0.0
2550,637.25,55.348,56.3244,165.058,115.653,107.557,0.0053251,0.115402,20.9575,113.269,0.649558,0.0,0.0
2556,638.75,54.7404,56.2017,160.822,115.583,108.348,0.00542296,0.115261,20.9574,113.289,0.578554,0.0,0.0
2562,640.25,54.4796,56.0234,161.591,115.492,107.514,0.00554124,0.115266,20.9574,113.299,0.640657,0.0,0.0
2568,641.75,55.3956,56.2586,162.104,115.419,106.778,0.00560319,0.115386,20.9574,113.269,0.696545,0.0,0.0
2574,643.25,54.6667,56.0928,164.184,115.347,107.149,0.00557008,0.115522,20.9574,113.249,0.659846,0.0,0.0
2580,644.75,54.78,55.6669,162.746,115.257,107.226,0.00550138,0.115762,20.9574,113.229,0.646478,0.0,0.0
2586,646.25,54.5906,55.7602,164.307,115.206,106.374,0.00548777,0.115962,20.9574,113.219,0.71383,0.0,0.0
2592,647.75,55.1436,56.5164,162.513,115.27,106.841,,0.116149,,113.188,0.67961,0.0,0.0
2598,649.25,54.3385,56.0798,161.404,115.574,107.082,,0.11631,,113.188,0.683082,0.0,0.0
2604,650.75,53.8041,55.4072,160.048,115.819,107.697,,,,113.168,0.650796,0.0,0.0
2610,652.25,54.7699,56.2283,163.261,116.01,108.117,,,,113.118,0.630675,0.0,0.0
2616,653.75,54.62,55.8722,161.571,116.128,107.598,,,,113.128,0.682876,0.0,0.0
2622,655.25,54.3886,55.5673,161.406,116.218,107.954,,,,113.128,0.660192,0.0,0.0
2628,656.75,54.2478,55.2746,162.935,116.2,107.772,,,,113.108,0.673959,0.0,0.0
2634,658.25,54.8219,55.6337,166.699,116.149,108.609,,,,113.068,0.600731,0.0,0.0