File: 01_Data/EPDM_Membrane/Cone/EPDM_Membrane_Cone_HF25Scan_220225_R3.csv
Names,Time,Stack TC,Smoke TC,Exh Press,Smoke Comp,Smoke Meas,CO Meter,CO2 Meter,O2 Meter,Sample Mass,Ext Coeff,Start Test,Flame Verif
Chan Gain,,500,500,1,1,1,1,1,1,1,1,1.0,1.0
Offset,,0,0,0.135243,0,0,0,0,0,0,0,0.0,0.0
Gain,,1,1,25.011,15.3125,15.3273,1,1,1,1.00096,1.02035,1.0,1.0
Units,sec,C,C,Pa,%,%,%,%,%,g,/m,,
Baseline,,18.0203,18.5593,182.427,115.472,111.65,0.000225246,0.0401596,21.063,-867.782,0.30128,,
11,2.5,16.5631,16.8125,184.15,115.1,112.357,0.000186775,0.0448774,21.0596,161.144,0.215889,0.0,0.0
22,5.25,16.5542,16.939,182.205,114.823,111.986,0.000273051,0.0446007,21.0594,161.184,0.223874,0.0,0.0
33,8,16.8545,17.189,184.423,114.583,111.773,0.000278415,0.0442274,21.0596,161.124,0.222269,0.0,0.0
44,10.75,15.8091,16.1574,184.315,114.356,111.406,0.000127078,0.0442355,21.0591,161.114,0.23389,0.0,0.0
55,13.5,16.5678,17.2518,185.029,114.217,110.958,-5.79523e-05,0.0450849,21.0579,161.144,0.259094,0.0,0.0
66,16.25,16.2762,17.2524,184.438,114.122,112.082,-8.60518e-05,0.0475168,21.0555,161.114,0.161444,0.0,0.0
77,19,17.155,17.2371,187.012,114.17,111.499,-1.42775e-05,0.0498553,21.0536,161.084,0.211883,0.0,0.0
88,21.75,16.1755,16.4933,183.85,114.323,111.581,0.000154665,0.0495413,21.0539,161.094,0.217248,0.0,0.0
99,24.5,16.7552,17.0548,184.779,114.571,111.621,0.000323865,0.0472675,21.056,161.134,0.233501,0.0,0.0
110,27.25,16.6674,16.8453,181.892,114.854,111.873,0.000337297,0.0447725,21.0591,161.124,0.235367,0.0,0.0
121,30,16.2263,17.2315,186.21,115.202,112.361,0.000224322,0.042952,21.0615,161.094,0.223508,0.0,0.0
132,32.75,17.1594,17.5515,178.503,115.542,113.031,0.000149976,0.041476,21.063,161.084,0.196665,0.0,0.0
143,35.5,17.1367,17.7067,182.956,115.885,113.195,-7.67412e-06,0.0405125,21.0644,161.074,0.210206,0.0,0.0
154,38.25,16.9086,17.424,182.645,116.165,113.821,4.43311e-05,0.040075,21.066,161.104,0.182485,0.0,0.0
165,41,16.985,17.9637,183.467,116.351,113.934,0.000165226,0.0401179,21.0663,161.094,0.187907,0.0,0.0
176,43.75,16.7529,17.3306,184.909,116.478,113.763,0.000245103,0.0405702,21.0645,161.074,0.211138,0.0,0.0
187,46.5,17.3052,17.8842,179.869,116.548,113.53,0.000316816,0.041459,21.062,161.094,0.234832,0.0,0.0
198,49.25,16.9279,17.8656,180.991,116.525,113.373,0.000305636,0.0430034,21.0599,161.084,0.245472,0.0,0.0
209,52,16.77,17.3097,184.066,116.433,113.649,0.000205776,0.0442199,21.0592,161.084,0.2166,0.0,0.0
220,54.75,17.3548,17.9307,183.302,116.282,113.604,0.000109243,0.0444467,21.0598,161.074,0.208564,0.0,0.0
231,57.5,17.0984,17.9661,181.809,116.119,113.43,8.40936e-05,0.0437095,21.0617,161.074,0.209722,0.0,0.0
242,60.25,17.3648,17.7098,181.602,115.959,113.405,0.000149228,0.042782,21.0633,161.094,0.199351,0.0,0.0
253,63,17.3847,17.7646,185.116,115.795,113.49,0.000135965,0.0420294,21.0638,161.094,0.179929,0.0,0.0
264,65.75,17.3092,17.6724,181.667,115.661,112.331,-6.1164e-05,0.0416465,21.064,161.114,0.261439,0.0,0.0
275,68.5,17.2888,18.2795,182.215,115.807,113.314,-0.000135968,0.0419142,21.0627,161.114,0.194713,0.0,0.0
286,71.25,17.9522,17.9902,182.708,116.077,112.841,-1.44722e-05,0.0425408,21.0618,161.114,0.25307,0.0,0.0
297,74,17.3143,17.6305,179.004,116.25,113.033,3.63816e-07,0.042891,21.0601,161.094,0.251228,0.0,0.0
308,76.75,17.0541,17.8683,179.7,116.33,113.212,-5.83845e-07,0.0430255,21.0619,161.094,0.243168,0.0,0.0
319,79.5,17.2293,18.4263,178.04,116.321,112.965,0.000206051,0.0426243,21.064,161.074,0.261959,0.0,0.0
330,82.25,17.5476,17.2892,182.525,116.237,113.154,0.000341462,0.0419806,21.0646,161.074,0.240633,0.0,0.0
341,85,16.9278,17.6039,188.005,116.108,112.783,0.000144441,0.041531,21.0648,161.074,0.260086,0.0,0.0
352,87.75,17.6776,18.1181,180.26,115.93,112.552,1.64016e-05,0.0412532,21.0649,161.084,0.264706,0.0,0.0
363,90.5,17.4861,17.5302,181.65,115.712,112.697,0.000185774,0.0411227,21.0654,161.074,0.236317,0.0,0.0
374,93.25,17.7913,18.0921,181.82,115.449,112.356,0.000405856,0.0414165,21.0664,161.064,0.242994,0.0,0.0
385,96,17.1773,17.9963,179.125,115.414,112.069,0.000399663,0.0419767,21.0654,161.064,0.263293,0.0,0.0
396,98.75,17.9794,18.3864,181.288,115.455,112.156,0.000256229,0.042412,21.0643,161.034,0.259464,0.0,0.0
407,101.5,17.5761,18.4085,180.48,115.502,111.542,8.89384e-06,0.0425232,21.0634,161.044,0.31227,0.0,0.0
418,104.25,17.5929,18.3373,177.48,115.543,112.18,-0.00019088,0.0422542,21.0632,161.024,0.264369,0.0,0.0
429,107,17.6297,18.3163,182.009,115.573,111.38,-0.000265863,0.0419891,21.0623,161.004,0.330768,0.0,0.0
440,109.75,17.503,18.3523,185.141,115.614,112.124,-0.000291078,0.0421604,21.0612,160.994,0.274312,0.0,0.0
451,112.5,18.2241,18.177,182.438,115.65,111.168,-0.00015022,0.0431376,21.0597,160.994,0.353816,0.0,0.0
462,115.25,17.5202,18.1186,180.507,115.662,111.355,7.70691e-05,0.0439741,21.0581,160.994,0.339671,0.0,0.0
473,118,17.8516,18.2905,177.211,115.684,111.214,0.000225349,0.0448815,21.0567,161.004,0.352694,0.0,0.0
484,120.75,18.0228,18.5924,181.355,115.682,111.45,0.000279026,0.045826,21.0564,160.984,0.333558,0.0,0.0
495,123.5,18.0334,18.5103,184.25,115.694,111.318,0.00019433,0.0464452,21.0551,161.004,0.3451,0.0,0.0
506,126.25,18.1854,18.6333,182.869,115.712,111.424,4.83319e-05,0.0471699,21.0546,161.034,0.337977,0.0,0.0
517,129,17.5939,18.5737,181.385,115.706,110.975,8.91529e-06,0.0477503,21.0544,161.004,0.373648,0.0,0.0
528,131.75,17.7994,18.6666,183.105,115.708,111.362,0.000120651,0.0474669,21.0544,161.014,0.342686,0.0,0.0
539,134.5,17.6108,18.2413,183.154,115.723,110.732,0.000269912,0.0464002,21.0553,160.984,0.394552,0.0,0.0
550,137.25,18.285,18.5082,179.997,115.714,109.995,0.000297279,0.0457078,21.0562,160.974,0.45365,0.0,0.0
561,140,17.6888,18.7717,180.577,115.708,110.864,0.000253863,0.0454261,21.0557,160.964,0.382777,0.0,0.0
572,142.75,17.7946,18.9049,185.272,115.695,110.433,0.000282932,0.0451459,21.0548,160.974,0.416649,0.0,0.0
583,145.5,17.8638,18.35,185.25,115.672,110.629,0.000409739,0.0451278,21.0545,160.914,0.399009,0.0,0.0
594,148.25,17.7496,18.7243,183.089,115.655,109.201,0.000415882,0.046078,21.053,160.874,0.513883,0.0,0.0
605,151,18.0653,19.0675,178.484,115.647,109.071,0.000396786,0.0473722,21.0507,160.874,0.52397,0.0,0.0
616,153.75,17.8439,18.3284,181.288,115.633,109.058,0.000524505,0.0481592,21.0487,160.894,0.523958,0.0,0.0
627,156.5,17.9312,18.988,182.241,115.599,110.567,0.000796756,0.0510205,21.0398,160.874,0.398362,0.0,1.0
638,159.25,18.342,18.5485,175.106,115.552,99.5718,0.00162606,0.0658032,21.012,160.814,1.33222,0.0,1.0
649,162,17.7807,18.7022,171.195,115.524,88.4623,0.00366413,0.104215,20.9329,160.694,2.38892,0.0,1.0
660,164.75,19.6241,19.8727,167.196,115.5,83.1233,0.00596236,0.165556,20.8304,160.554,2.94424,0.0,1.0
671,167.5,20.8044,21.021,163.785,115.454,77.7793,0.00797413,0.216891,20.7582,160.394,3.53538,0.0,0.0
682,170.25,22.159,23.1497,160.702,115.429,75.252,0.00991945,0.263718,20.6749,160.214,3.82915,0.0,0.0
693,173,23.4185,25.2577,162.442,115.403,74.4362,0.0117098,0.304672,20.6086,160.013,3.92464,0.0,0.0
704,175.75,25.2731,26.7956,166.176,115.616,74.7066,0.0132914,0.336553,20.55,159.783,3.90871,0.0,0.0
715,178.5,27.364,28.2385,160.826,115.828,71.0025,0.0142225,0.36394,20.5041,159.553,4.38028,0.0,0.0
726,181.25,28.941,30.6852,152.952,115.996,68.2376,0.0150482,0.384295,20.4714,159.323,4.74877,0.0,0.0
737,184,31.2933,32.235,157.981,116.149,68.3498,0.0158873,0.402137,20.4389,159.082,4.74584,0.0,0.0
748,186.75,32.114,34.1941,151.433,116.245,68.0509,0.0165516,0.418247,20.4116,158.882,4.79248,0.0,0.0
759,189.5,33.958,36.4511,155.596,116.335,65.3165,0.0172928,0.429615,20.3951,158.622,5.16643,0.0,0.0
770,192.25,35.602,37.5515,157.228,116.349,66.4643,0.0178847,0.43831,20.3836,158.352,5.01162,0.0,0.0
781,195,36.0187,39.941,160.206,116.303,65.8156,0.0182145,0.446932,20.3676,158.152,5.09586,0.0,0.0
792,197.75,37.8245,41.8214,156.469,116.15,67.0542,0.0183399,0.452094,20.3578,157.881,4.91718,0.0,0.0
803,200.5,39.7284,42.3529,155.605,115.926,66.6168,0.0183527,0.457628,20.3497,157.651,4.95852,0.0,0.0
814,203.25,40.8761,44.1631,148.84,115.654,67.0135,0.0184334,0.463484,20.3422,157.371,4.88436,0.0,0.0
825,206,41.8512,45.622,163.743,115.768,68.0991,0.0183712,0.466543,20.3392,157.151,4.74934,0.0,0.0
836,208.75,42.9082,47.0279,152.581,115.958,65.047,0.0181562,0.465816,20.3396,156.88,5.17441,0.0,0.0
847,211.5,43.9195,48.0599,161.27,116.15,69.5515,0.0179866,0.465638,20.3398,156.67,4.58992,0.0,0.0
858,214.25,44.8471,49.1833,155.307,116.348,69.2334,0.0179275,0.466611,20.3402,156.42,4.64617,0.0,0.0
869,217,45.5637,50.2514,159.155,116.476,72.4567,0.0178232,0.467221,20.3408,156.2,4.24872,0.0,0.0
880,219.75,46.6379,51.5445,155.378,116.561,73.1887,0.0176024,0.465349,20.3447,155.929,4.16528,0.0,0.0
891,222.5,46.9994,51.628,161.576,116.529,69.0463,0.017259,0.461556,20.3514,155.679,4.68433,0.0,0.0
902,225.25,48.3623,53.2482,155.017,116.386,69.9009,0.0173436,0.456424,20.3597,155.439,4.56324,0.0,0.0
913,228,48.898,54.1389,155.124,116.165,67.4419,0.0173698,0.449758,20.3681,155.199,4.86676,0.0,0.0
924,230.75,49.1376,54.7211,156.151,115.846,68.1473,0.0173481,0.447265,20.3694,154.938,4.74904,0.0,0.0
935,233.5,50.0267,55.2792,157.508,115.465,67.6103,0.0173288,0.447366,20.3685,154.708,4.79034,0.0,0.0
946,236.25,50.3976,56.2558,161.281,115.036,65.505,0.0175423,0.447272,20.3699,154.438,5.04017,0.0,0.0
957,239,50.9742,56.4317,149.566,114.653,66.4101,0.0178119,0.448308,20.3701,154.238,4.88752,0.0,0.0
968,241.75,51.7193,56.7463,155.194,114.333,70.1703,0.017808,0.448302,20.369,153.938,4.36949,0.0,0.0
979,244.5,52.1612,57.6259,157.014,114.176,67.789,0.0175862,0.4475,20.3674,153.737,4.66625,0.0,0.0
990,247.25,52.1746,58.3263,155.676,114.16,69.9963,0.0176623,0.449365,20.3641,153.497,4.37817,0.0,0.0
1001,250,52.7845,58.7077,164.71,114.303,66.1631,0.0178773,0.448975,20.3631,153.207,4.89346,0.0,0.0
1012,252.75,52.2956,58.3503,151.445,114.587,65.5882,0.01805,0.450579,20.3573,152.977,4.99379,0.0,0.0
1023,255.5,53.5907,59.5157,161.217,114.948,67.7778,0.0182654,0.456423,20.3476,152.766,4.72804,0.0,0.0
1034,258.25,54.7531,59.8508,152.303,115.295,67.992,0.0184417,0.461275,20.3418,152.466,4.72675,0.0,0.0
1045,261,53.6026,60.3595,158.774,115.571,65.9044,0.0184395,0.461113,20.3434,152.226,5.02725,0.0,0.0
1056,263.75,55.024,61.2964,149.977,115.715,65.7833,0.0186311,0.459695,20.3448,151.976,5.05489,0.0,0.0
1067,266.5,54.9569,61.3119,156.243,115.749,62.7097,0.0189124,0.462481,20.3377,151.695,5.48577,0.0,0.0
1078,269.25,54.6736,63.2593,156.902,115.714,64.9203,0.0191136,0.464356,20.3329,151.425,5.17298,0.0,0.0
1089,272,56.569,62.5793,163.775,115.627,67.18,0.0195013,0.469685,20.3207,151.155,4.86001,0.0,0.0
1100,274.75,56.8665,62.9407,148.861,115.487,65.5761,0.0198978,0.475779,20.3066,150.905,5.06547,0.0,0.0
1111,277.5,57.2546,63.5426,148.147,115.378,60.7568,0.0202245,0.482298,20.2954,150.634,5.7402,0.0,0.0
1122,280.25,57.7726,64.033,154.845,115.837,64.8066,0.0205198,0.488918,20.2855,150.354,5.19824,0.0,0.0
1133,283,58.0999,64.5339,150.868,116.214,63.5839,0.0206639,0.488102,20.2897,150.094,5.39774,0.0,0.0
1144,285.75,57.927,64.55,157.425,116.324,64.1513,0.0206824,0.48462,20.2974,149.824,5.32671,0.0,0.0
1155,288.5,58.8367,65.2976,156.375,116.136,63.6798,0.0204536,0.478505,20.3104,149.563,5.37824,0.0,0.0
1166,291.25,58.4677,64.6092,156.417,115.671,59.2132,0.0200338,0.47242,20.3199,149.293,5.99327,0.0,0.0
1177,294,58.9331,65.7734,151.107,115.835,63.242,0.0193121,0.4643,20.3395,149.023,5.41684,0.0,0.0
1188,296.75,59.1963,65.8659,159.204,116.115,65.244,0.0186617,0.451909,20.359,148.853,5.15946,0.0,0.0
1199,299.5,58.2963,66.1975,161.096,116.38,67.9944,0.018146,0.441084,20.3751,148.562,4.81032,0.0,0.0
1210,302.25,58.929,65.6871,153.973,116.535,64.7959,0.0178348,0.430788,20.3942,148.302,5.25347,0.0,0.0
1221,305,58.947,65.7494,155.848,116.52,66.4012,0.0176092,0.421192,20.4074,148.112,5.03328,0.0,0.0
1232,307.75,59.0817,65.3378,159.296,116.278,68.1562,0.0172768,0.41496,20.4204,147.912,4.78114,0.0,0.0
1243,310.5,58.9734,65.5454,156.175,115.849,67.0172,0.0166699,0.407307,20.4357,147.672,4.89893,0.0,0.0
1254,313.25,58.8969,65.359,152.277,115.291,67.7357,0.015968,0.398412,20.4519,147.451,4.76027,0.0,0.0
1265,316,58.5918,65.1936,157.364,114.738,65.8651,0.0156999,0.388427,20.4704,147.231,4.9679,0.0,0.0
1276,318.75,58.3734,64.5652,156.356,114.34,66.0532,0.0154291,0.377651,20.4871,147.001,4.91127,0.0,0.0
1287,321.5,57.9931,64.1562,163.914,114.171,68.0973,0.015006,0.367363,20.504,146.871,4.62527,0.0,0.0
1298,324.25,57.1847,63.8984,156.59,114.273,67.158,0.0146359,0.361417,20.5128,146.611,4.75753,0.0,0.0
1309,327,57.0031,63.6055,157.622,114.562,69.4261,0.0141128,0.357354,20.5196,146.44,4.48283,0.0,0.0
1320,329.75,56.7551,62.5817,157.988,115.017,72.6443,0.0137166,0.352067,20.531,146.23,4.11276,0.0,0.0
1331,332.5,56.4058,62.5527,164.239,115.375,69.7929,0.0133713,0.34343,20.549,146.09,4.49901,0.0,0.0
1342,335.25,55.4625,61.9233,163.198,115.654,74.5083,0.0129549,0.332009,20.5683,145.93,3.93546,0.0,0.0
1353,338,55.4813,62.0847,158.216,115.749,70.2466,0.0125181,0.324321,20.5813,145.74,4.46997,0.0,0.0
1364,340.75,55.1127,60.8634,162.234,115.659,75.0579,0.0121129,0.318247,20.5912,145.559,3.87008,0.0,0.0
1375,343.5,54.608,60.689,163.01,115.527,76.1749,0.0116148,0.313217,20.6014,145.369,3.72759,0.0,0.0
1386,346.25,54.3291,60.3934,163.938,115.375,75.2118,0.0112522,0.308468,20.6086,145.219,3.82974,0.0,0.0
1397,349,54.175,59.9677,163.069,115.672,77.4425,0.0111472,0.305766,20.6128,145.069,3.59112,0.0,0.0
1408,351.75,54.4275,58.8641,161.334,116.172,74.4526,0.0111463,0.303056,20.6178,144.909,3.98217,0.0,0.0
1419,354.5,53.6114,59.1177,162.319,116.283,78.9253,0.0108699,0.300975,20.6222,144.779,3.46854,0.0,0.0
1430,357.25,53.5203,58.5707,162.503,115.985,77.0959,0.0105208,0.298268,20.6278,144.579,3.65547,0.0,0.0
1441,360,52.056,56.9734,162.845,115.711,78.451,0.0104031,0.294978,20.6319,144.438,3.47832,0.0,0.0
1452,362.75,52.5156,57.7851,161.686,116.016,76.2371,0.010258,0.291342,20.6372,144.278,3.75811,0.0,0.0
1463,365.5,52.1541,57.1401,164.582,116.34,76.6529,0.0101555,0.288631,20.6405,144.148,3.7344,0.0,0.0
1474,368.25,52.0814,56.5332,166.929,116.543,77.841,0.0100462,0.287605,20.6432,144.028,3.61237,0.0,0.0
1485,371,51.3053,56.3377,165.115,116.512,81.9572,0.0100907,0.285642,20.6443,143.818,3.14875,0.0,0.0
1496,373.75,51.2419,56.0594,162.898,116.208,81.0315,0.0100403,0.284653,20.6454,143.668,3.22702,0.0,0.0
1507,376.5,51.3219,55.7565,163.699,115.696,80.1077,0.00982309,0.284305,20.6487,143.528,3.29011,0.0,0.0
1518,379.25,50.842,55.4661,169.171,115.102,78.574,0.00956631,0.282427,20.6534,143.367,3.41711,0.0,0.0
1529,382,51.0062,55.7069,163.182,114.591,77.4125,0.00937815,0.280079,20.6585,143.247,3.51056,0.0,0.0
1540,384.75,50.3651,54.9378,163.878,114.26,78.3153,0.00937755,0.278379,20.6604,143.127,3.3809,0.0,0.0
1551,387.5,50.4075,54.9022,166.363,114.214,77.1118,0.0094393,0.27891,20.6587,143.007,3.51589,0.0,0.0
1562,390.25,50.0758,54.2893,160.196,114.436,79.4548,0.00955157,0.278707,20.6601,142.817,3.26541,0.0,0.0
1573,393,49.3045,53.5113,162.811,114.803,77.2016,0.00966892,0.276984,20.6618,142.687,3.5515,0.0,0.0
1584,395.75,50.0207,53.9826,168.945,115.242,80.7065,0.00972876,0.27668,20.6623,142.507,3.18829,0.0,0.0
1595,398.5,49.666,53.4235,164.87,115.562,79.8739,0.00946447,0.273763,20.668,142.356,3.3059,0.0,0.0
1606,401.25,49.2155,53.4002,162.546,115.732,78.6839,0.00931546,0.271757,20.6712,142.256,3.45345,0.0,0.0
1617,404,48.8039,53.0942,163.543,115.73,79.2695,0.00946165,0.272314,20.671,142.136,3.38693,0.0,0.0
1628,406.75,49.2923,52.6097,165.691,115.603,76.1931,0.00936358,0.272181,20.671,141.926,3.73138,0.0,0.0
1639,409.5,48.9504,52.5031,163.847,115.459,78.0342,0.00903457,0.270877,20.6736,141.766,3.50653,0.0,0.0
1650,412.25,48.0387,52.5865,165.178,115.326,78.3064,0.0088708,0.26825,20.6765,141.626,3.46499,0.0,0.0
1661,415,48.5845,52.3714,163.601,115.368,80.8954,0.00891783,0.267934,20.6775,141.526,3.17712,0.0,0.0
1672,417.75,48.262,52.1826,161.357,115.894,79.5684,0.00898925,0.267721,20.6778,141.406,3.36589,0.0,0.0
1683,420.5,47.6368,51.8288,162.053,116.182,80.1447,0.00877256,0.265256,20.6819,141.255,3.32354,0.0,0.0
1694,423.25,47.6254,51.4603,165.456,116.271,82.0742,0.00858358,0.263132,20.687,141.135,3.11748,0.0,0.0
1705,426,47.6,51.8397,171.158,116.137,82.773,0.00850141,0.262109,20.6886,140.995,3.03127,0.0,0.0
1716,428.75,46.8207,50.7753,163.184,115.843,76.557,0.00858487,0.262762,20.6879,140.805,3.70731,0.0,0.0
1727,431.5,47.8281,51.2888,166.767,115.627,80.6948,0.00857888,0.262934,20.6879,140.725,3.21945,0.0,0.0
1738,434.25,47.1743,51.1287,166.436,115.794,79.2223,0.00839661,0.261305,20.6909,140.575,3.39718,0.0,0.0
1749,437,46.8675,51.0998,162.443,115.996,80.4562,0.00840332,0.258655,20.6946,140.465,3.27444,0.0,0.0
1760,439.75,47.2062,50.8351,167.153,116.194,81.3875,0.00842532,0.256507,20.6974,140.284,3.18674,0.0,0.0
1771,442.5,47.1884,50.7497,168.786,116.343,81.5035,0.00827483,0.256531,20.6983,140.134,3.18547,0.0,0.0
1782,445.25,46.8555,50.3095,163.824,116.466,80.0755,0.00801093,0.255025,20.6996,140.034,3.35314,0.0,0.0
1793,448,46.9163,50.3542,161.125,116.519,78.5805,0.00788696,0.252656,20.7024,139.904,3.52583,0.0,0.0
1804,450.75,46.3007,50.124,167.807,116.538,78.7784,0.00805933,0.253166,20.7017,139.784,3.5048,0.0,0.0
1815,453.5,45.64,49.607,160.379,116.463,79.1849,0.00814025,0.252563,20.7027,139.634,3.45295,0.0,0.0
1826,456.25,45.858,49.3134,165.942,116.336,78.4103,0.00805232,0.252698,20.7023,139.494,3.53124,0.0,0.0
1837,459,46.4352,49.36,165.443,116.169,82.5022,0.00788869,0.253395,20.7,139.354,3.06305,0.0,0.0
1848,461.75,45.1993,48.094,167.285,115.974,76.9775,0.00784876,0.253285,20.6993,139.213,3.66835,0.0,0.0
1859,464.5,46.422,49.3574,164.136,115.807,79.6358,0.00795263,0.253508,20.6987,139.103,3.35164,0.0,0.0
1870,467.25,45.9876,49.1186,166.281,115.609,79.4898,0.00812135,0.255158,20.6982,138.993,3.35273,0.0,0.0
1881,470,46.0408,49.5839,160.975,115.419,77.9514,0.00833219,0.256608,20.6975,138.823,3.51292,0.0,0.0
1892,472.75,46.1491,49.3209,165.385,115.253,78.9108,0.00836095,0.256765,20.6966,138.673,3.39056,0.0,0.0
1903,475.5,46.0838,48.4088,163.329,115.079,77.6993,0.00825679,0.256323,20.6957,138.493,3.51553,0.0,0.0
1914,478.25,45.5796,49.0869,166.807,114.924,79.9646,0.00817037,0.256239,20.6949,138.373,3.24623,0.0,0.0
1925,481,45.8519,49.0808,163.311,114.795,77.9453,0.00814659,0.25569,20.6946,138.333,3.46507,0.0,0.0
1936,483.75,46.55,48.481,162.487,114.677,78.6483,0.00833147,0.256945,20.6916,138.192,3.37548,0.0,0.0
1947,486.5,45.8042,48.6801,163.808,114.592,76.5612,0.00843069,0.257744,20.691,138.032,3.60957,0.0,0.0
1958,489.25,45.7925,48.7777,166.948,114.513,75.0102,0.00828989,0.25709,20.6928,137.862,3.78662,0.0,0.0
1969,492,46.4718,48.6779,163.411,114.451,78.4959,0.00824568,0.255027,20.6971,137.742,3.37521,0.0,0.0
1980,494.75,45.8231,48.7449,164.223,114.366,77.6876,0.00801663,0.254062,20.7001,137.582,3.46124,0.0,0.0
1991,497.5,45.9715,48.3473,165.756,114.355,76.3835,0.00787025,0.253294,20.7022,137.472,3.61185,0.0,0.0
2002,500.25,45.5404,48.4224,163.387,114.324,77.7844,0.00785879,0.252221,20.7036,137.392,3.4468,0.0,0.0
2013,503,45.5111,48.4376,165.413,114.299,79.6928,0.00778094,0.250871,20.7069,137.221,3.22787,0.0,0.0
2024,505.75,45.3552,48.1873,160.076,114.288,76.2067,0.00773242,0.250177,20.7083,137.101,3.62736,0.0,0.0
2035,508.5,45.7459,46.9957,169.829,114.266,79.9061,0.00783279,0.248882,20.7095,136.951,3.20139,0.0,0.0
2046,511.25,45.443,48.423,175.463,114.266,80.5956,0.00784198,0.247622,20.7107,136.841,3.12449,0.0,0.0
2057,514,44.9427,47.8527,164.159,114.242,79.8163,0.00762991,0.247433,20.7116,136.721,3.20952,0.0,0.0
2068,516.75,44.9702,47.6481,169.198,114.263,78.5043,0.00726554,0.246164,20.7135,136.581,3.35952,0.0,0.0
2079,519.5,45.6269,47.3194,166.274,114.249,80.2191,0.00700943,0.244926,20.7164,136.421,3.16509,0.0,0.0
2090,522.25,45.7934,47.594,163.316,114.245,78.4421,0.0069758,0.242884,20.7188,136.321,3.36526,0.0,0.0
2101,525,44.5912,47.6202,166.319,114.244,79.8734,0.00713056,0.240988,20.7239,136.17,3.2033,0.0,0.0
2112,527.75,44.6323,47.3389,162.238,114.248,81.0764,0.00711262,0.238378,20.7285,136.08,3.06979,0.0,0.0
2123,530.5,43.5907,46.3898,173.203,114.254,82.2365,0.00713422,0.236757,20.7304,135.97,2.94311,0.0,0.0
2134,533.25,45.0855,46.6175,165.916,114.258,82.3202,0.00721292,0.236564,20.73,135.85,2.93433,0.0,0.0
2145,536,43.8722,46.462,165.436,114.259,80.3912,0.00710848,0.236489,20.7299,135.72,3.14664,0.0,0.0
2156,538.75,44.3486,47.0036,165.68,114.271,81.8482,0.00712325,0.235232,20.7324,135.59,2.98682,0.0,0.0
2167,541.5,44.0984,46.8326,166.683,114.303,81.677,0.00714791,0.234654,20.7331,135.48,3.00808,0.0,0.0
2178,544.25,44.2899,46.8905,168.565,114.296,80.4843,0.00705419,0.233386,20.7348,135.41,3.13917,0.0,0.0
2189,547,44.2536,46.6735,166.542,114.336,81.0956,0.00676589,0.232182,20.7355,135.29,3.07462,0.0,0.0
2200,549.75,44.256,46.7916,164.536,114.377,80.6288,0.00675888,0.231552,20.7371,135.14,3.12944,0.0,0.0
2211,552.5,44.1088,46.1899,165.871,114.399,83.4494,0.00673888,0.229749,20.7395,135.039,2.82341,0.0,0.0
2222,555.25,43.9675,46.3583,167.375,114.444,84.1631,0.00645425,0.227528,20.7424,134.939,2.75072,0.0,0.0
2233,558,43.843,46.4132,169.13,114.47,84.3306,0.00628327,0.226209,20.7443,134.809,2.73497,0.0,0.0
2244,560.75,43.728,46.2321,169.473,114.518,82.019,0.00625995,0.226417,20.7471,134.709,2.98747,0.0,0.0
2255,563.5,43.7631,45.8773,163.156,114.589,83.4442,0.00630292,0.226247,20.7498,134.569,2.83886,0.0,0.0
2266,566.25,43.2611,45.5568,163.922,114.666,85.0612,0.00640194,0.224823,20.7541,134.479,2.6731,0.0,0.0
2277,569,42.7255,45.1041,169.469,114.75,85.0706,0.00633335,0.222943,20.7578,134.359,2.67867,0.0,0.0
2288,571.75,43.6468,44.1587,168.193,114.865,84.5682,0.00618444,0.221058,20.7602,134.219,2.74065,0.0,0.0
2299,574.5,43.1537,45.432,165.284,114.968,85.8625,0.00627815,0.220211,20.7617,134.129,2.61268,0.0,0.0
2310,577.25,42.8105,45.2228,163.348,115.093,86.588,0.00626488,0.220264,20.7622,133.988,2.54715,0.0,0.0
2321,580,42.5646,45.1196,166.065,115.18,82.1331,0.00602506,0.219021,20.7643,133.908,3.02663,0.0,0.0
2332,582.75,42.7682,45.047,167.249,115.304,84.8119,0.00599619,0.216648,20.7673,133.828,2.74902,0.0,0.0
2343,585.5,42.839,44.9636,169.36,115.41,86.2344,0.00614562,0.215195,20.7679,133.698,2.60835,0.0,0.0
2354,588.25,42.6781,44.8371,166.972,115.549,87.9323,0.00619073,0.215051,20.7685,133.598,2.44458,0.0,0.0
2365,591,42.7141,44.9696,170.524,115.666,85.1291,0.00593097,0.214532,20.7702,133.498,2.74368,0.0,0.0
2376,593.75,42.3732,44.8888,167.806,115.778,88.0272,0.00590872,0.214346,20.771,133.388,2.45264,0.0,0.0
2387,596.5,42.6123,45.4474,166.207,115.877,86.196,0.0059816,0.214065,20.7712,133.298,2.64849,0.0,0.0
2398,599.25,42.675,44.5168,166.935,115.99,88.2298,0.00582452,0.213112,20.7724,133.198,2.44849,0.0,0.0
2409,602,42.297,44.4317,169.25,116.109,89.459,0.00563404,0.212369,20.7728,133.118,2.33384,0.0,0.0
2420,604.75,41.2494,44.1837,161.161,116.216,87.8032,0.005532,0.210941,20.7743,133.027,2.50927,0.0,0.0
2431,607.5,42.796,43.3363,166.261,116.302,88.0815,0.00541611,0.209636,20.777,132.917,2.48757,0.0,0.0
2442,610.25,40.8499,43.7511,165.383,116.372,89.9998,0.00535118,0.208803,20.7806,132.757,2.30016,0.0,0.0
2453,613,42.1401,43.8445,170.778,116.44,87.2985,0.00536804,0.208208,20.7819,132.707,2.57813,0.0,0.0
2464,615.75,41.5807,43.6316,169.568,116.489,89.1274,0.0054776,0.207709,20.7823,132.607,2.39629,0.0,0.0
2475,618.5,41.5023,43.9733,164.176,116.506,87.9706,0.00547365,0.207288,20.7835,132.507,2.51454,0.0,0.0
2486,621.25,41.5006,43.4243,166.592,116.523,90.0737,0.0055318,0.207155,20.7852,132.427,2.30442,0.0,0.0
2497,624,42.5294,42.0807,172.485,116.511,89.9768,0.00559841,0.205032,20.7882,132.317,2.31311,0.0,0.0
2508,626.75,41.7392,43.2707,169.021,116.507,90.185,0.00548308,0.203437,20.7891,132.197,2.29207,0.0,0.0
2519,629.5,40.9413,42.6387,173.43,116.466,89.133,0.00541496,0.202707,20.7896,132.147,2.394,0.0,0.0
2530,632.25,41.416,42.728,167.819,116.405,88.0099,0.00541392,0.201262,20.7922,132.047,2.50275,0.0,0.0
2541,635,40.5363,42.7715,163.784,116.347,90.1901,0.00531608,0.199296,20.7957,131.936,2.27928,0.0,0.0
2552,637.75,41.0064,43.4458,168.525,116.257,91.0372,0.00490974,0.199335,20.7982,131.836,2.1887,0.0,0.0
2563,640.5,41.1849,42.5119,169.919,116.181,91.6491,0.00475858,0.1994,20.7991,131.776,2.12291,0.0,0.0
2574,643.25,40.2357,42.4969,166.532,116.083,90.8118,0.00477845,0.198069,20.8021,131.656,2.19746,0.0,0.0
2585,646,39.9348,42.7906,170.269,115.989,91.2314,0.00464982,0.195959,20.8044,131.556,2.14896,0.0,0.0
2596,648.75,39.0123,42.7752,170.933,115.884,91.3562,0.00459218,0.195254,20.8053,131.456,2.1286,0.0,0.0
2607,651.5,40.2658,41.9729,168.676,115.788,91.0625,0.00478805,0.194883,20.8052,131.346,2.15002,0.0,0.0
2618,654.25,40.2082,41.9987,169.55,115.694,90.1588,0.00489357,0.194975,20.8044,131.336,2.23206,0.0,0.0
2629,657,40.454,40.6875,169.616,115.607,91.301,0.00472117,0.193387,20.8072,131.196,2.11265,0.0,0.0
2640,659.75,39.9528,41.8728,169.872,115.651,92.3558,0.00446159,0.192581,20.8094,131.106,2.01324,0.0,0.0
2651,662.5,39.98,41.7338,166.67,115.841,92.2197,0.00436018,0.190903,20.8114,131.086,2.04107,0.0,0.0
2662,665.25,40.1164,41.2945,170.988,115.987,94.7858,0.00436321,0.189983,20.8138,130.956,1.80672,0.0,0.0
2673,668,40.0294,40.4803,175.212,116.109,93.7965,0.00426303,0.188478,20.8163,130.885,1.91007,0.0,0.0
2684,670.75,39.6927,41.2518,170.228,116.193,90.5695,0.00420339,0.187248,20.8179,130.825,2.22987,0.0,0.0
2695,673.5,39.5687,41.3216,169.133,116.235,92.6931,0.00421136,0.186633,20.8193,130.725,2.02564,0.0,0.0
2706,676.25,39.3443,41.2488,171.811,116.221,94.6399,0.00422138,0.185574,20.8208,130.625,1.83859,0.0,0.0
2717,679,39.1862,40.813,170.182,116.186,94.9224,0.0042054,0.18437,20.8246,130.595,1.80918,0.0,0.0
2728,681.75,39.3068,40.7877,170.262,116.078,94.797,0.00410635,0.183802,20.8261,130.465,1.81265,0.0,0.0
2739,684.5,39.2197,40.671,166.223,115.929,95.8322,0.00406493,0.18253,20.8282,130.395,1.70398,0.0,0.0
2750,687.25,38.4526,40.5655,163.743,115.708,92.6435,0.00405367,0.181319,20.8299,130.335,1.98981,0.0,0.0
2761,690,38.8323,40.165,168.935,115.414,90.5742,0.00398837,0.181004,20.8303,130.275,2.16917,0.0,0.0
2772,692.75,38.4691,39.8111,174.583,115.242,94.1445,0.00384502,0.180896,20.8313,130.175,1.80985,0.0,0.0
2783,695.5,38.8999,40.0838,165.412,115.295,92.1683,0.00379314,0.179696,20.8332,130.105,2.00383,0.0,0.0
2794,698.25,38.5386,39.9862,173.035,115.351,94.965,0.00380562,0.178681,20.8347,129.985,1.74064,0.0,0.0
2805,701,38.2072,39.8281,168.267,115.416,94.7849,0.00382563,0.177908,20.8357,129.935,1.76267,0.0,0.0
2816,703.75,38.3791,39.836,170.669,115.504,95.653,0.0038153,0.177122,20.8373,129.864,1.68787,0.0,0.0
2827,706.5,37.6527,39.7107,169.18,115.584,95.3144,0.00391098,0.176671,20.8386,129.774,1.72581,0.0,0.0
2838,709.25,38.2771,39.7134,171.362,115.64,96.2157,0.00385075,0.175526,20.8401,129.694,1.6459,0.0,0.0
2849,712,38.3466,39.1109,170.816,115.707,95.6619,0.00367574,0.175567,20.8391,129.644,1.70271,0.0,0.0
2860,714.75,38.3925,39.4323,167.814,115.715,96.0445,0.00365475,0.174841,20.8403,129.584,1.66766,0.0,0.0
2871,717.5,38.3294,38.8391,174.561,115.702,96.4126,0.00369315,0.173953,20.8426,129.514,1.63238,0.0,0.0
2882,720.25,37.6769,39.1077,168.358,115.62,95.5936,0.00352935,0.172761,20.8436,129.464,1.70241,0.0,0.0
2893,723,37.9481,39.0167,168.571,115.508,98.4212,0.00325553,0.172823,20.8438,129.384,1.43282,0.0,0.0
2904,725.75,37.9274,37.7544,170.82,115.349,97.6695,0.00315286,0.171961,20.8458,129.314,1.48912,0.0,0.0
2915,728.5,37.8591,38.3288,173.259,115.161,99.4339,0.00327837,0.170097,20.8482,129.204,1.31425,0.0,0.0
2926,731.25,37.2317,38.8195,177.622,114.962,97.8136,0.00322717,0.168664,20.8497,129.144,1.44581,0.0,0.0
2937,734,37.4493,38.6525,168.692,114.765,97.3641,0.00313222,0.167888,20.8515,129.114,1.47171,0.0,0.0
2948,736.75,36.5333,37.5938,168.027,114.583,96.5272,0.00321172,0.167759,20.8523,129.004,1.53478,0.0,0.0
2959,739.5,36.7683,38.4881,168.473,114.42,97.612,0.00343995,0.166206,20.8553,128.974,1.42201,0.0,0.0
2970,742.25,36.5879,38.2109,171.882,114.295,96.3893,0.00341839,0.164879,20.8565,128.924,1.52504,0.0,0.0
2981,745,36.6324,38.069,173.068,114.211,97.7551,0.00310151,0.164717,20.8571,128.803,1.39251,0.0,0.0
2992,747.75,36.5598,37.5759,168.817,114.173,96.8855,0.00288725,0.163994,20.8595,128.793,1.46951,0.0,0.0
3003,750.5,36.4958,37.7715,170.364,114.195,99.3871,0.00299425,0.163373,20.8623,128.693,1.24311,0.0,0.0
3014,753.25,36.7579,37.3174,170.255,114.277,97.329,0.0030735,0.163143,20.8631,128.623,1.43681,0.0,0.0
3025,756,36.8398,37.8407,174.253,114.449,98.4895,0.00305637,0.163019,20.8634,128.573,1.34414,0.0,0.0
3036,758.75,35.9539,37.4107,171.56,114.673,99.8506,0.00284548,0.16247,20.8635,128.553,1.23881,0.0,0.0
3047,761.5,36.1981,37.4846,170.685,114.937,100.429,0.00256563,0.161615,20.8658,128.443,1.20772,0.0,0.0
3058,764.25,36.2533,37.4413,174.792,115.24,100.412,0.00242829,0.160651,20.8671,128.403,1.23277,0.0,0.0
3069,767,36.3568,37.0539,172.175,115.545,100.908,0.00256163,0.15966,20.8685,128.303,1.21232,0.0,0.0
3080,769.75,35.9008,37.1848,171.737,115.835,101.149,0.00274308,0.159307,20.8697,128.273,1.21342,0.0,0.0
3091,772.5,35.7303,36.9904,170.769,116.105,102.011,0.0029682,0.158655,20.8702,128.223,1.15832,0.0,0.0
3102,775.25,35.3078,36.3857,172.844,116.312,101.363,0.0031335,0.157238,20.8724,128.173,1.23124,0.0,0.0
3113,778,35.7484,36.779,176.723,116.443,102.588,0.00316395,0.155973,20.8741,128.093,1.13378,0.0,0.0
3124,780.75,35.8866,37.1899,169.518,116.523,103.14,0.00312391,0.155432,20.8754,128.043,1.09193,0.0,0.0
3135,783.5,34.7095,36.7203,170.827,116.523,102.776,0.00295597,0.154812,20.8766,127.983,1.12361,0.0,0.0
3146,786.25,35.6519,36.6106,175.38,116.447,103.856,0.00265063,0.154622,20.877,127.933,1.02415,0.0,0.0
3157,789,34.6174,36.6106,172.86,116.32,103.01,0.00252627,0.15419,20.8783,127.853,1.08759,0.0,0.0
3168,791.75,34.3389,36.764,172.938,116.127,105.149,0.0024518,0.153974,20.8791,127.812,0.888813,0.0,0.0
3179,794.5,35.1125,36.3211,167.893,115.96,104.304,0.00236153,0.152905,20.8815,127.742,0.948148,0.0,0.0
3190,797.25,34.5753,36.5491,170.832,115.779,103.801,0.00227641,0.151152,20.8846,127.692,0.977472,0.0,0.0
3201,800,34.633,36.2597,170.656,115.644,104.846,0.00227796,0.150444,20.8862,127.642,0.877408,0.0,0.0
3212,802.75,35.2147,36.0843,167.654,115.766,104.501,0.00239252,0.150262,20.886,127.602,0.916321,0.0,0.0
3223,805.5,35.1842,36.2538,172.02,116.024,105.028,0.00247435,0.150327,20.8855,127.542,0.891168,0.0,0.0
3234,808.25,34.4656,35.6296,172.926,116.198,104.677,0.00228055,0.149966,20.8873,127.502,0.93459,0.0,0.0
3245,811,35.9375,34.9167,176.17,116.273,105.15,0.0021755,0.149413,20.8896,127.452,0.899964,0.0,0.0
3256,813.75,34.4683,35.5356,173.29,116.253,105.163,0.00229247,0.148058,20.8914,127.382,0.897379,0.0,0.0
3267,816.5,34.785,35.8746,170.871,116.103,105.677,0.00239026,0.147504,20.8921,127.332,0.842101,0.0,0.0
3278,819.25,34.4868,35.6676,169.205,115.901,105.087,0.00251093,0.147444,20.8926,127.292,0.876701,0.0,0.0
3289,822,34.8167,35.8227,171.34,115.603,104.41,0.00254196,0.147111,20.8935,127.222,0.911483,0.0,0.0
3300,824.75,34.4737,35.5351,174.041,115.346,106.172,0.00240141,0.146615,20.8948,127.202,0.741771,0.0,0.0
3311,827.5,34.7011,35.5053,173.536,115.366,104.782,0.00222299,0.145708,20.8961,127.162,0.861335,0.0,0.0
3322,830.25,34.7601,35.2759,174.117,115.402,105.809,0.00234377,0.144455,20.898,127.102,0.776772,0.0,0.0
3333,833,34.1767,35.1009,169.264,115.507,106.503,0.00242956,0.143641,20.8987,127.082,0.726475,0.0,0.0
3344,835.75,34.2571,35.6117,177.285,115.567,106.236,0.00237909,0.143152,20.8991,126.982,0.753544,0.0,0.0
3355,838.5,34.5564,35.0678,171.211,115.628,105.656,0.00233845,0.142589,20.9006,126.962,0.807245,0.0,0.0
3366,841.25,34.1801,35.1912,171.069,115.682,107.104,0.00241661,0.14243,20.9024,126.912,0.689597,0.0,0.0
3377,844,34.2549,35.0774,174.936,115.717,106.199,0.00234625,0.142442,20.9023,126.862,0.768267,0.0,0.0
3388,846.75,34.2126,35.5194,170.264,115.732,107.035,0.00235961,0.142191,20.9042,126.812,0.699216,0.0,0.0
3399,849.5,33.6518,34.6991,171.871,115.678,107.059,0.00241024,0.141265,20.906,126.782,0.693061,0.0,0.0
3410,852.25,33.5736,34.6702,169.452,115.573,106.912,0.0023997,0.13989,20.908,126.751,0.697249,0.0,0.0
3421,855,33.8229,34.6995,172.431,115.424,106.28,0.00243711,0.138919,20.9104,126.691,0.738719,0.0,0.0
3432,857.75,33.599,34.7659,174.028,115.241,106.116,0.00249776,0.138877,20.9114,126.601,0.73838,0.0,0.0
3443,860.5,33.9037,34.6293,176.921,115.055,107.051,0.0024081,0.139162,20.9121,126.561,0.645363,0.0,0.0
3454,863.25,32.8049,34.4171,173.784,114.838,106.514,0.00249544,0.138817,20.9112,126.551,0.673453,0.0,0.0
3465,866,33.4702,34.5072,170.489,114.621,106.367,0.00258602,0.1388,20.9099,126.491,0.668887,0.0,0.0
3476,868.75,33.5533,34.5768,173.526,114.438,105.906,0.00256612,0.137932,20.9105,126.471,0.693541,0.0,0.0
3487,871.5,33.6315,34.4261,170.743,114.276,105.835,0.00264841,0.13732,20.9125,126.411,0.686822,0.0,0.0
3498,874.25,32.8114,32.3906,170.609,114.174,106.081,0.0027344,0.136084,20.9145,126.351,0.658058,0.0,0.0
3509,877,32.6758,34.1162,173.256,114.139,106.301,0.00283797,0.134972,20.9144,126.301,0.636778,0.0,0.0
3520,879.75,32.9261,34.3016,172.616,114.183,107.388,0.00287598,0.13475,20.9137,126.261,0.549082,0.0,0.0
3531,882.5,32.9357,33.6422,172.516,114.279,107.355,0.00283352,0.134165,20.9151,126.241,0.559392,0.0,0.0
3542,885.25,33.1745,34.4632,171.727,114.477,107.513,0.00266194,0.13376,20.9171,126.181,0.561728,0.0,0.0
3553,888,32.9027,33.6484,172.832,114.725,107.975,0.00246267,0.133495,20.9181,126.141,0.542755,0.0,0.0
3564,890.75,32.7563,33.3104,172.162,115.023,109.441,0.00246268,0.133096,20.918,126.131,0.445248,0.0,0.0
3575,893.5,32.5939,33.4431,174.486,115.328,108.191,0.00261333,0.132513,20.9195,126.061,0.571767,0.0,0.0
3586,896.25,32.5899,33.6741,176.089,115.628,109.971,0.00283977,0.131922,20.9217,126.031,0.448939,0.0,0.0
3597,899,32.8549,33.6171,171.778,115.893,108.839,0.00301354,0.131703,20.9224,125.991,0.56203,0.0,0.0
3608,901.75,32.8174,33.5811,171.932,116.141,110.438,0.00296179,0.131571,20.9226,125.961,0.450656,0.0,0.0
3619,904.5,32.4467,33.832,173.383,116.326,109.576,0.00286834,0.130655,20.9234,125.921,0.535082,0.0,0.0
3630,907.25,32.6494,33.4387,175.329,116.448,110.02,0.00300836,0.130128,20.9245,125.881,0.508276,0.0,0.0
3641,910,32.7068,32.9435,169.225,116.516,109.925,0.00318769,0.129524,20.9247,125.831,0.521172,0.0,0.0
3652,912.75,32.2086,33.181,173.451,116.531,110.086,0.00329653,0.128968,20.9245,125.791,0.509265,0.0,0.0
3663,915.5,32.4982,33.7922,175.76,116.469,110.485,0.0032706,0.128833,20.9244,125.73,0.472111,0.0,0.0
3674,918.25,32.1687,32.7366,173.56,116.383,110.711,0.00315095,0.127989,20.9246,125.7,0.447142,0.0,0.0
3685,921,32.235,32.9976,173.219,116.253,111.452,0.0030707,0.126895,20.9255,125.68,0.377482,0.0,0.0
3696,923.75,32.237,32.9996,174.354,116.103,110.441,0.00305069,0.126331,20.9257,125.61,0.447473,0.0,0.0
3707,926.5,31.8007,32.6175,172.688,115.937,109.745,0.00317078,0.125892,20.9258,125.56,0.491261,0.0,0.0
3718,929.25,31.8457,32.7749,176.087,115.791,110.685,0.00339647,0.125473,20.9274,125.57,0.40361,0.0,0.0
3729,932,30.9443,32.7779,172.076,115.658,109.774,0.00343476,0.125085,20.9281,125.5,0.467371,0.0,0.0
3740,934.75,31.6937,32.4103,174.07,115.655,110.826,0.00345343,0.123484,20.9296,125.5,0.381789,0.0,0.0
3751,937.5,31.3349,32.4215,171.655,115.929,110.371,0.00354037,0.122643,20.9306,125.44,0.439785,0.0,0.0
3762,940.25,31.6051,32.8222,176.957,116.129,110.447,0.00352342,0.122767,20.9314,125.41,0.449071,0.0,0.0
3773,943,31.7602,32.2489,175.627,116.237,110.381,0.00357784,0.122281,20.9318,125.35,0.46266,0.0,0.0
3784,945.75,31.1051,31.9911,171.147,116.282,111.234,0.00353011,0.122214,20.9319,125.33,0.397235,0.0,0.0
3795,948.5,30.9519,30.8649,174.403,116.283,111.293,0.00344938,0.121668,20.9334,125.31,0.392528,0.0,0.0
3806,951.25,31.2518,31.7572,174.658,116.226,111.243,0.00362623,0.121063,20.9336,125.27,0.392239,0.0,0.0
3817,954,31.1504,31.9857,176.487,116.107,112.349,0.00374971,0.119935,20.9335,125.24,0.294454,0.0,0.0
3828,956.75,30.9765,31.56,173.098,115.905,110.86,0.0038417,0.118177,20.9366,125.23,0.398284,0.0,0.0
3839,959.5,31.132,32.2161,177.756,115.653,111.222,0.00393036,0.116928,20.939,125.19,0.349705,0.0,0.0
3850,962.25,31.0582,31.7017,178.688,115.371,110.515,0.00407712,0.116001,20.9409,125.15,0.384856,0.0,0.0
3861,965,31.0231,31.8167,177.36,115.374,110.848,0.00406623,0.115637,20.9415,125.11,0.358178,0.0,0.0
3872,967.75,30.8266,31.6052,176.598,115.432,110.747,0.00380905,0.115716,20.9425,125.06,0.370834,0.0,0.0
3883,970.5,30.6669,31.1276,173.411,115.501,110.571,0.0036274,0.115861,20.9437,125.03,0.390459,0.0,0.0
3894,973.25,30.2228,30.5994,175.042,115.541,110.79,0.00372737,0.116111,20.944,125,0.375794,0.0,0.0
3905,976,30.1459,30.4581,172.431,115.608,110.465,0.00401119,0.115896,20.9441,124.98,0.407344,0.0,0.0
3916,978.75,30.7223,31.093,176.231,115.638,110.681,0.00406071,0.114978,20.945,124.92,0.39213,0.0,0.0
3927,981.5,30.296,30.8589,176.596,115.674,111.29,0.00398469,0.113349,20.9462,124.88,0.34584,0.0,0.0
3938,984.25,29.3735,30.2983,173.594,115.682,111.115,0.00426076,0.111981,20.9476,124.84,0.360534,0.0,0.0
3949,987,29.3078,30.6226,178.348,115.686,110.956,0.0046076,0.111169,20.9489,124.81,0.37364,0.0,0.0
3960,989.75,29.7966,30.6795,172.57,115.7,111.139,0.00464995,0.110835,20.9487,124.78,0.359912,0.0,0.0
3971,992.5,29.85,30.4131,176.168,115.721,110.519,0.00438482,0.111218,20.95,124.76,0.411664,0.0,0.0
3982,995.25,29.8147,30.4394,175.873,115.72,110.548,0.00403586,0.111404,20.9504,124.76,0.409281,0.0,0.0
3993,998,29.8407,30.5149,178.4,115.726,112.478,0.00412943,0.111351,20.9517,124.72,0.254842,0.0,0.0
4004,1000.75,30.039,30.5825,176.106,115.726,111.017,0.00443655,0.11045,20.9524,124.649,0.37181,0.0,0.0
4015,1003.5,29.8048,30.6712,177.213,115.718,111.247,0.00478836,0.109201,20.9523,124.619,0.352659,0.0,0.0
4026,1006.25,29.7261,30.1556,177.515,115.7,110.995,0.00513561,0.107329,20.9551,124.579,0.371559,0.0,0.0
4037,1009,29.6819,30.1296,174.409,115.702,111.542,0.0055849,0.105227,20.9578,124.549,0.32779,0.0,0.0
4048,1011.75,28.8417,29.5327,174.495,115.69,111.361,0.00575076,0.104028,20.96,124.489,0.341352,0.0,0.0
4059,1014.5,29.575,30.6535,175.734,115.694,111.274,0.00575037,0.103748,20.9597,124.489,0.348672,0.0,0.0
4070,1017.25,28.9747,29.7291,171.795,115.684,110.573,0.00605402,0.102919,20.9599,124.439,0.404415,0.0,0.0
4081,1020,29.3339,29.9514,176.773,115.676,111.205,0.0061521,0.101883,20.962,124.409,0.352796,0.0,0.0
4092,1022.75,28.7415,29.7605,175.632,115.664,111.018,0.00608524,0.101328,20.9634,124.389,0.366961,0.0,0.0
4103,1025.5,29.1229,30.062,175.41,115.671,110.812,0.00616358,0.100811,20.9638,124.359,0.38415,0.0,0.0
4114,1028.25,28.8976,29.7423,178.045,115.693,111.57,0.00634512,0.100103,20.9644,124.329,0.324851,0.0,0.0
4125,1031,28.8933,29.3683,172.704,115.7,110.99,0.00644232,0.099665,20.9657,124.309,0.372009,0.0,0.0
4136,1033.75,29.1401,29.2829,171.823,115.704,110.354,0.0063455,0.0992986,20.9661,124.259,0.423746,0.0,0.0
4147,1036.5,28.8465,29.6702,175.667,115.708,112.097,0.00631353,0.0989864,20.9669,124.239,0.283819,0.0,0.0
4158,1039.25,28.8658,29.5273,175.317,115.713,111.312,0.0063998,0.0988084,20.9681,124.219,0.347035,0.0,0.0
4169,1042,28.7463,29.2845,172.055,115.728,111.868,0.00649989,0.0981769,20.9685,124.179,0.303582,0.0,0.0
4180,1044.75,28.5645,29.0487,172.46,115.724,111.102,0.00655793,0.0976849,20.9686,124.149,0.364805,0.0,0.0
4191,1047.5,28.2657,29.0657,176.861,115.721,111.553,0.00647069,0.0976215,20.969,124.129,0.328334,0.0,0.0
4202,1050.25,27.8728,28.2743,173.815,115.721,111.141,0.00639324,0.0980609,20.9686,124.069,0.361423,0.0,0.0
4213,1053,28.4525,28.5156,178.876,115.724,111.164,0.00638534,0.098708,20.9686,124.059,0.359795,0.0,0.0
4224,1055.75,28.0294,28.4822,174.159,115.715,111.671,0.00640717,0.0985575,20.9691,124.009,0.318414,0.0,0.0
4235,1058.5,28.0983,28.4278,175.624,115.703,111.608,0.00672856,0.0987593,20.9683,124.009,0.322536,0.0,0.0
4246,1061.25,27.8074,28.8634,177.117,115.698,111.236,0.0070774,0.0993053,20.9674,123.989,0.352046,0.0,0.0
4257,1064,28.0824,28.7339,178.179,115.668,110.827,0.00714467,0.0987137,20.9687,123.949,0.38265,0.0,0.0
4268,1066.75,28.0211,28.1881,176.427,115.671,111.166,0.00694981,0.0979004,20.9691,123.929,0.355559,0.0,0.0
4279,1069.5,27.5588,28.5369,178.114,115.625,111.231,0.00679671,0.0974029,20.9693,123.879,0.346783,0.0,0.0
4290,1072.25,27.5913,28.4791,178.369,115.58,111.025,0.00664182,0.0972017,20.97,123.879,0.359922,0.0,0.0
4301,1075,27.6838,28.3279,175.486,115.526,110.818,0.00665489,0.095792,20.9728,123.839,0.372406,0.0,0.0
4312,1077.75,27.3413,28.0201,173.074,115.479,111.384,0.00686288,0.0935513,20.9752,123.779,0.323226,0.0,0.0
4323,1080.5,27.7725,28.4587,183.676,115.436,111.516,0.00715816,0.0929613,20.9759,123.789,0.309189,0.0,0.0
4334,1083.25,27.5238,27.9919,181.158,115.392,110.762,0.00718349,0.0927262,20.9759,123.729,0.366579,0.0,0.0
4345,1086,27.1961,27.6417,174.716,115.375,110.502,0.0069289,0.0925807,20.9775,123.719,0.386243,0.0,0.0
4356,1088.75,26.9455,27.5252,175.952,115.662,110.897,0.00687387,0.0929109,20.9777,123.709,0.376591,0.0,0.0
4367,1091.5,26.9583,27.8676,175.561,115.907,111.246,0.00706383,0.0920067,20.979,123.679,0.367399,0.0,0.0
4378,1094.25,27.0576,27.6433,180.287,116.116,111.969,0.0072631,0.0908942,20.9795,123.659,0.325485,0.0,0.0
4389,1097,27.2088,27.3307,177.543,116.256,111.591,0.00721321,0.0905946,20.9797,123.608,0.366512,0.0,0.0
4400,1099.75,27.2415,27.0759,175.263,116.315,110.478,0.00726088,0.0907084,20.98,123.578,0.460781,0.0,0.0
4411,1102.5,27.0978,27.2453,179.439,116.273,112.192,0.00727775,0.0907033,20.9809,123.548,0.319763,0.0,0.0
4422,1105.25,26.6888,27.4629,180.119,116.145,111.13,0.00724666,0.0907268,20.9817,123.518,0.395012,0.0,0.0
4433,1108,27.015,27.3358,180.593,115.904,111.903,0.00730125,0.0910524,20.9819,123.488,0.314428,0.0,0.0
4444,1110.75,26.8231,27.415,175.353,115.642,111.368,0.00733384,0.0901481,20.9821,123.468,0.3371,0.0,0.0
4455,1113.5,26.3573,26.8061,175.712,115.766,110.549,0.0074292,0.0891078,20.9835,123.438,0.412783,0.0,0.0
4466,1116.25,26.4232,27.4717,181.741,115.952,111.913,0.00762903,0.0892373,20.9824,123.418,0.317357,0.0,0.0
4477,1119,26.3741,26.8548,178.604,116.163,111.58,0.0078278,0.0892133,20.9819,123.408,0.360323,0.0,0.0
4488,1121.75,25.7582,26.4663,174.095,116.334,111.398,0.00821781,0.0871054,20.9851,123.338,0.387989,0.0,0.0
4499,1124.5,26.2968,26.9552,180.497,116.461,111.417,0.00871133,0.0835914,20.9904,123.338,0.396333,0.0,0.0
4510,1127.25,26.3664,26.8275,176.257,116.521,110.891,0.00885669,0.0817885,20.9921,123.288,0.443265,0.0,0.0
4521,1130,26.3819,27.176,178.158,116.538,111.417,0.00878651,0.0812123,20.9926,123.298,0.402219,0.0,0.0
4532,1132.75,26.055,26.7227,172.993,116.426,111.518,0.00870826,0.0806043,20.9927,123.258,0.38549,0.0,0.0
4543,1135.5,26.1017,26.6472,171.159,116.223,110.561,0.00862042,0.08036,20.9928,123.218,0.447027,0.0,0.0
4554,1138.25,25.8604,26.483,175.646,115.917,110.391,0.00857874,0.0811338,20.9926,123.198,0.437217,0.0,0.0
4565,1141,26.1084,26.0104,182.008,115.559,110.418,0.00857193,0.0814361,20.992,123.208,0.407336,0.0,0.0
4576,1143.75,25.7397,26.2402,179.577,115.157,110.973,0.00854866,0.080911,20.9922,123.178,0.331263,0.0,0.0
4587,1146.5,25.435,26.2161,180.276,114.767,109.856,0.00856702,0.0805014,20.9937,123.158,0.391393,0.0,0.0
4598,1149.25,25.0532,25.6608,179.203,114.448,110.022,0.008607,0.0798874,20.9944,123.148,0.353024,0.0,0.0
4609,1152,24.6405,25.084,180.451,114.231,109.517,0.00853053,0.0788662,20.9957,123.098,0.377203,0.0,0.0
4620,1154.75,25.8763,26.107,178.802,114.159,109.779,0.00850388,0.0785239,20.996,123.058,0.350144,0.0,0.0
4631,1157.5,25.285,26.1204,184.435,114.228,109.754,0.0085841,0.0787242,20.9961,123.028,0.357623,0.0,0.0
4642,1160.25,24.4316,25.3441,176.698,114.436,109.114,0.00862879,0.0786453,20.9962,123.038,0.426277,0.0,0.0
4653,1163,25.518,25.6643,177.292,114.727,110.025,0.00856929,0.078733,20.9966,123.018,0.374586,0.0,0.0
4664,1165.75,25.2826,25.9521,176.582,115.052,110.197,0.00851176,0.0784941,20.9974,122.968,0.385895,0.0,0.0
4675,1168.5,25.2096,25.5641,178.917,115.359,110.24,0.00864023,0.0778634,20.9986,122.928,0.406251,0.0,0.0
4686,1171.25,24.9415,25.3187,178.623,115.589,110.251,0.00867918,0.0784788,20.999,122.908,0.423198,0.0,0.0
4697,1174,25.4227,25.768,177.298,115.72,110.645,0.00862295,0.0781452,20.9994,122.878,0.401371,0.0,0.0
4708,1176.75,24.4149,24.7891,179.91,115.727,110.569,0.00871059,0.0769816,21.0014,122.848,0.408081,0.0,0.0
4719,1179.5,24.733,24.9638,174.371,115.637,110.422,0.00886728,0.0756454,21.0035,122.848,0.413074,0.0,0.0
4730,1182.25,24.3485,24.7529,178.56,115.548,109.663,0.00908943,0.0747997,21.0044,122.828,0.467912,0.0,0.0
4741,1185,24.4716,25.1808,180.525,115.427,110.869,0.0092604,0.0742959,21.0043,122.828,0.360573,0.0,0.0
4752,1187.75,24.3846,24.8162,184.208,115.315,110.542,0.00924828,0.0736594,21.004,122.798,0.37838,0.0,0.0
4763,1190.5,24.3862,24.7741,180.123,115.642,109.942,0.0092132,0.073161,21.0039,122.728,0.452384,0.0,0.0
4774,1193.25,23.4259,24.5975,176.325,116.067,110.809,0.00927799,0.0730944,21.0039,122.708,0.414951,0.0,0.0
4785,1196,23.4926,23.5635,173.38,116.264,111.502,0.00944628,0.0732059,21.0039,122.708,0.37429,0.0,0.0
4796,1198.75,24.3352,23.9532,178.209,116.237,111.133,0.00929578,0.0730258,21.0054,122.668,0.401877,0.0,0.0
4807,1201.5,23.9114,24.5996,179.618,115.935,110.822,0.0093109,0.0729206,21.006,122.638,0.403726,0.0,0.0
4818,1204.25,24.0266,24.2818,176.215,115.648,109.604,0.00945148,0.0727701,21.0062,122.618,0.48043,0.0,0.0
4829,1207,23.9018,24.1916,181.512,115.883,110.252,0.00938976,0.0730361,21.0061,122.607,0.445854,0.0,0.0
4840,1209.75,24.0008,23.8181,179.094,116.162,110.654,0.00908273,0.0732855,21.0058,122.577,0.434778,0.0,0.0
4851,1212.5,23.8025,24.3204,181.138,116.414,109.998,0.00897697,0.0736118,21.0041,122.547,0.507404,0.0,0.0
4862,1215.25,24.2549,24.2927,177.548,116.536,111.533,0.00904397,0.0742015,21.0037,122.557,0.392726,0.0,0.0
4873,1218,24.064,24.3494,178.401,116.502,110.913,0.00896823,0.0745,21.004,122.507,0.440016,0.0,0.0
4884,1220.75,23.7648,24.1439,184.036,116.315,110.675,0.0088645,0.074955,21.0041,122.517,0.444916,0.0,0.0
4895,1223.5,23.5196,23.9455,178.165,115.935,110.387,0.00867897,0.0752545,21.0041,122.457,0.438891,0.0,0.0
4906,1226.25,23.622,23.7579,178.821,115.464,109.272,0.00881152,0.0750022,21.004,122.417,0.493364,0.0,0.0
4917,1229,23.7312,24.0845,173.923,114.959,109.907,0.00906077,0.0742897,21.0051,122.417,0.402242,0.0,0.0
4928,1231.75,23.2426,23.7154,180.277,114.549,108.783,0.00925718,0.0736869,21.006,122.407,0.462284,0.0,0.0
4939,1234.5,23.9183,24.0391,181.432,114.277,109.12,0.00907196,0.0733882,21.0069,122.377,0.413343,0.0,0.0
4950,1237.25,23.5482,23.746,181.795,114.204,108.259,0.00876403,0.0726091,21.0079,122.367,0.478468,0.0,0.0
4961,1240,23.6191,23.3517,179.559,114.339,108.846,0.00868828,0.0723694,21.0077,122.317,0.440644,0.0,0.0
4972,1242.75,23.7004,24.2062,171.605,114.585,109.259,0.00859501,0.0726616,21.0083,122.317,0.42604,0.0,0.0
4983,1245.5,23.4504,23.6392,174.706,114.954,109.717,0.00860167,0.0729518,21.0073,122.307,0.417284,0.0,0.0
4994,1248.25,23.864,24.0663,179.869,115.328,109.293,0.00867985,0.0732066,21.0068,122.267,0.481094,0.0,0.0
5005,1251,23.1412,23.8375,179.207,115.605,109.875,0.00859988,0.0728304,21.0081,122.227,0.455013,0.0,0.0
5016,1253.75,23.3945,23.5667,182.087,115.757,110.412,0.00847951,0.0728343,21.0079,122.227,0.423087,0.0,0.0
5027,1256.5,23.1569,23.9046,176.606,115.717,109.465,0.00845962,0.0729189,21.007,122.207,0.497169,0.0,0.0
5038,1259.25,23.6503,23.5642,180.875,115.587,109.458,0.00865249,0.0728563,21.0067,122.167,0.487652,0.0,0.0
5049,1262,22.9973,23.6831,181.766,115.445,109.607,0.00851963,0.0727302,21.0067,122.147,0.46449,0.0,0.0
5060,1264.75,23.2279,23.5965,180.53,115.318,109.52,0.00850526,0.0727707,21.0066,122.147,0.461699,0.0,0.0
5071,1267.5,22.9157,23.6137,178.352,115.429,109.852,0.00853211,0.0727952,21.0068,122.117,0.443265,0.0,0.0
5082,1270.25,23.0334,23.5939,174.822,115.957,110.415,0.00846591,0.072872,21.0073,122.107,0.438311,0.0,0.0
5093,1273,22.6089,23.4008,173.851,116.227,110.083,0.00841187,0.0727214,21.0074,122.097,0.486061,0.0,0.0
5104,1275.75,23.1446,23.3984,177.681,116.226,110.425,0.00845156,0.0726318,21.0086,122.087,0.458305,0.0,0.0
5115,1278.5,23.589,23.3412,180.596,115.921,110.019,0.00851363,0.0727487,21.009,122.087,0.467745,0.0,0.0
5126,1281.25,22.9412,23.9594,178.846,115.645,109.14,0.00855491,0.0727526,21.0072,122.017,0.518147,0.0,0.0
5137,1284,23.0809,23.4541,178.16,115.882,109.536,,0.0734392,,122.017,0.504071,0.0,0.0
5148,1286.75,23.1101,23.3443,181.12,116.176,109.996,,,,121.987,0.489214,0.0,0.0
5159,1289.5,22.4257,22.7264,177.17,116.428,110.158,,,,121.987,0.495439,0.0,0.0
5170,1292.25,23.2351,23.4995,182.177,116.539,109.975,,,,121.977,0.518895,0.0,0.0
5178,1294.25,23.084,23.652,178.314,116.498,109.712,,,,121.937,0.537154,0.0,0.0