File: 01_Data/EPDM_Membrane/Cone/EPDM_Membrane_Cone_HF50Scan_220225_R2.csv
Names,Time,Stack TC,Smoke TC,Exh Press,Smoke Comp,Smoke Meas,CO Meter,CO2 Meter,O2 Meter,Sample Mass,Ext Coeff,Start Test,Flame Verif
Chan Gain,,500,500,1,1,1,1,1,1,1,1,1.0,1.0
Offset,,0,0,0.137915,0,0,0,0,0,0,0,0.0,0.0
Gain,,1,1,25.011,15.3125,15.3273,1,1,1,1.00096,1.02035,1.0,1.0
Units,sec,C,C,Pa,%,%,%,%,%,g,/m,,
Baseline,,31.7523,32.8219,175.076,115.192,110.628,-0.000360785,0.0416978,21.0642,-867.557,0.361881,,
8,1.75,29.551,31.329,176.309,115.744,111.286,-0.000159823,0.045165,21.0588,161.565,0.351524,0.0,0.0
16,3.75,29.838,30.9253,179.337,115.682,111.525,-0.000171434,0.0446709,21.0591,161.535,0.327514,0.0,0.0
24,5.75,30.4515,30.6993,176.054,115.6,112.326,-0.000185416,0.0445745,21.0594,161.535,0.257183,0.0,0.0
32,7.75,29.9998,30.3633,174.594,115.55,111.231,-0.000294496,0.0450092,21.0595,161.535,0.340992,0.0,0.0
40,9.75,29.9137,30.9845,172.966,115.482,111.609,-0.000396083,0.0454668,21.0594,161.505,0.305382,0.0,0.0
48,11.75,29.708,30.8375,171.115,115.428,111.232,-0.000406872,0.0454365,21.0594,161.535,0.331465,0.0,0.0
56,13.75,29.8154,30.7241,178.871,115.375,111.099,-0.000429662,0.0450294,21.0597,161.525,0.33803,0.0,0.0
64,15.75,30.1632,30.7279,175.321,115.335,110.317,-0.000417625,0.0445697,21.0599,161.545,0.398214,0.0,0.0
72,17.75,29.7594,30.5602,174.087,115.305,110.325,-0.000419222,0.0440409,21.0599,161.525,0.395173,0.0,0.0
80,19.75,30.0314,31.3543,173.491,115.294,109.273,-0.000613471,0.0436737,21.06,161.515,0.480057,0.0,0.0
88,21.75,29.8166,31.0243,172.605,115.283,110.356,-0.000830055,0.04341,21.06,161.515,0.390927,0.0,0.0
96,23.75,30.2047,31.1418,173.813,115.277,110.224,-0.000841446,0.0431771,21.0606,161.485,0.401234,0.0,0.0
104,25.75,30.2091,31.2798,176.071,115.277,108.462,-0.000579605,0.042996,21.0621,161.515,0.545433,0.0,0.0
112,27.75,29.8231,30.4492,171.892,115.295,108.432,-0.00035137,0.0428313,21.0627,161.485,0.549319,0.0,0.0
120,29.75,30.3481,30.9578,173.321,115.321,108.447,-0.000207054,0.04281,21.0622,161.455,0.550079,0.0,0.0
128,31.75,29.3566,30.6031,175.478,115.336,107.357,-8.48832e-05,0.0435683,21.0632,161.475,0.641683,0.0,0.0
136,33.75,30.0139,31.5094,172.955,115.367,104.974,0.000310085,0.0459301,21.0604,161.425,0.844962,0.0,0.0
144,35.75,29.7355,30.8003,168.441,115.4,100.138,0.00116411,0.0631745,21.0238,161.315,1.26964,0.0,1.0
152,37.75,30.5409,31.314,166.405,115.46,88.6386,0.00281649,0.100473,20.9551,161.305,2.36613,0.0,1.0
160,39.75,30.4437,31.803,159.772,115.518,77.3658,0.00513861,0.151144,20.871,161.114,3.58809,0.0,1.0
168,41.75,31.8423,32.7715,157.142,115.587,69.8046,0.00783092,0.205765,20.759,161.034,4.51396,0.0,0.0
176,43.75,32.6648,33.692,153.32,115.663,65.6757,0.00995047,0.267072,20.6622,160.904,5.06549,0.0,0.0
184,45.75,34.3997,35.6061,151.763,115.74,67.6669,0.0126677,0.327174,20.5649,160.724,4.80416,0.0,0.0
192,47.75,36.2075,37.0405,145.66,115.816,56.221,0.0154412,0.376827,20.4562,160.494,6.46859,0.0,0.0
200,49.75,37.9976,39.1302,150.342,115.862,60.1969,0.0177605,0.438317,20.3439,160.344,5.86058,0.0,0.0
208,51.75,39.758,40.9378,139.591,115.931,57.636,0.019592,0.489276,20.268,160.123,6.25503,0.0,0.0
216,53.75,42.1796,44.0576,145.728,116.006,60.1254,0.0211264,0.52615,20.2208,159.823,5.8823,0.0,0.0
224,55.75,44.548,46.4109,149.49,116.065,59.4335,0.0227721,0.554838,20.1812,159.643,5.99046,0.0,0.0
232,57.75,45.7581,48.2803,139.449,116.13,53.7391,0.0240902,0.579502,20.1375,159.353,6.89693,0.0,0.0
240,59.75,47.7419,50.4322,148.445,116.178,53.7532,0.0250059,0.602084,20.099,159.082,6.89827,0.0,0.0
248,61.75,49.6812,52.8478,144.628,116.228,49.2464,0.0255975,0.616476,20.0733,158.812,7.68588,0.0,0.0
256,63.75,50.3298,54.1155,144.066,116.258,54.7752,0.0258872,0.62631,20.0585,158.632,6.73591,0.0,0.0
264,65.75,53.0147,56.5372,144.686,116.291,55.6256,0.0259989,0.629218,20.0528,158.372,6.60054,0.0,0.0
272,67.75,54.5617,58.9496,149.944,116.313,55.9783,0.0259366,0.626424,20.0584,158.092,6.54563,0.0,0.0
280,69.75,55.9184,60.7885,145,116.307,54.241,0.025686,0.6174,20.077,157.941,6.8274,0.0,0.0
288,71.75,57.6582,62.0858,147.217,116.309,56.5195,0.0252556,0.606678,20.0957,157.661,6.45922,0.0,0.0
296,73.75,58.5308,63.656,143.488,116.283,51.3793,0.0247022,0.595273,20.1124,157.401,7.31063,0.0,0.0
304,75.75,59.7346,64.9135,137.583,116.25,55.3646,0.0242436,0.590116,20.1224,157.181,6.63947,0.0,0.0
312,77.75,60.3439,66.5462,146.83,116.2,55.024,0.0239054,0.585758,20.1305,156.96,6.69088,0.0,0.0
320,79.75,61.6408,66.9419,149.478,116.143,56.4077,0.0236017,0.578166,20.1426,156.75,6.46421,0.0,0.0
328,81.75,61.9398,68.5357,145.283,116.078,58.3297,0.0233156,0.569906,20.1572,156.58,6.15927,0.0,0.0
336,83.75,63.2627,69.6488,150.302,115.995,56.4493,0.0231202,0.563524,20.1692,156.36,6.44614,0.0,0.0
344,85.75,64.9166,70.2613,152.469,115.913,58.891,0.0229741,0.559992,20.1769,156.14,6.06079,0.0,0.0
352,87.75,64.8247,71.0447,149.406,115.824,56.8057,0.0226753,0.55471,20.1849,155.929,6.37664,0.0,0.0
360,89.75,65.8105,71.7424,145.81,115.732,53.5436,0.0222347,0.545385,20.2003,155.679,6.89882,0.0,0.0
368,91.75,66.2544,72.5306,150.109,115.626,57.6392,0.021909,0.535313,20.2161,155.479,6.2309,0.0,0.0
376,93.75,66.8285,73.2687,149.897,115.53,55.5245,0.0217941,0.530562,20.2248,155.249,6.55807,0.0,0.0
384,95.75,67.6282,73.6691,150.117,115.46,57.6107,0.0217459,0.527263,20.2305,155.069,6.22248,0.0,0.0
392,97.75,67.429,73.8819,148.314,115.398,59.5379,0.0216896,0.522567,20.2385,154.868,5.92319,0.0,0.0
400,99.75,67.9886,74.8109,154.286,115.545,60.4224,0.0215948,0.518492,20.2436,154.708,5.80257,0.0,0.0
408,101.75,67.6632,74.6056,153.871,115.719,57.0592,0.0212924,0.513926,20.2526,154.448,6.32861,0.0,0.0
416,103.75,68.5168,75.5705,141.63,115.859,57.9152,0.0208749,0.508264,20.2644,154.278,6.20621,0.0,0.0
424,105.75,68.8704,75.8947,149.364,115.964,61.8181,0.0205383,0.503383,20.2716,154.068,5.63061,0.0,0.0
432,107.75,68.7241,76.3013,149.745,116.024,60.5884,0.0203668,0.501152,20.2768,153.867,5.81507,0.0,0.0
440,109.75,69.3077,76.5959,150.357,116.052,57.4573,0.0202354,0.498565,20.2794,153.637,6.29212,0.0,0.0
448,111.75,69.3853,77.0152,146.741,116.045,58.5009,0.0200795,0.49755,20.282,153.477,6.13048,0.0,0.0
456,113.75,69.9382,77.6811,147.846,115.996,60.101,0.0199096,0.493856,20.2879,153.367,5.8852,0.0,0.0
464,115.75,70.7837,77.2624,145.293,115.907,56.2463,0.0196389,0.488977,20.2932,153.177,6.47157,0.0,0.0
472,117.75,71.2166,77.2275,148.239,115.778,61.8607,0.0194521,0.486835,20.2952,152.927,5.61008,0.0,0.0
480,119.75,70.4911,78.4218,149.91,115.637,58.9176,0.0194147,0.487389,20.2941,152.736,6.03546,0.0,0.0
488,121.75,70.6614,77.6109,154.741,115.428,60.0884,0.0193817,0.488263,20.2934,152.486,5.84313,0.0,0.0
496,123.75,71.246,78.1691,152.792,115.194,59.5322,0.0192822,0.486731,20.295,152.266,5.90822,0.0,0.0
504,125.75,70.8963,79.1865,145.654,115.107,58.7965,0.0191644,0.48531,20.2984,152.086,6.0127,0.0,0.0
512,127.75,71.5982,78.9101,151.218,115.149,59.9481,0.0191038,0.485608,20.3004,152.086,5.84236,0.0,0.0
520,129.75,71.6453,79.2698,156.57,115.188,61.7915,0.0191315,0.481732,20.3009,151.805,5.57433,0.0,0.0
528,131.75,71.459,78.8486,156.502,115.246,63.7799,0.0193217,0.481751,20.297,151.635,5.29538,0.0,0.0
536,133.75,71.4279,79.6083,154.256,115.284,60.4967,0.0196247,0.493421,20.2785,151.395,5.7713,0.0,0.0
544,135.75,72.3004,79.6786,151.555,115.334,61.0398,0.0199057,0.503878,20.2654,151.185,5.6952,0.0,0.0
552,137.75,72.3053,79.6073,148.302,115.376,58.4751,0.020076,0.512697,20.2527,151.075,6.08269,0.0,0.0
560,139.75,71.7711,79.396,147.767,115.412,58.5939,0.0201286,0.519045,20.246,150.835,6.06728,0.0,0.0
568,141.75,72.4999,80.6163,147.67,115.461,59.3447,0.0201924,0.518009,20.2469,150.594,5.95714,0.0,0.0
576,143.75,72.483,81.1628,148.359,115.481,61.9861,0.0203484,0.515693,20.2469,150.354,5.56892,0.0,0.0
584,145.75,72.9817,81.2495,148.255,115.517,56.0433,0.0206017,0.518898,20.2411,150.154,6.47382,0.0,0.0
592,147.75,73.6886,81.2644,147.623,115.54,57.904,0.0209012,0.524077,20.2324,149.954,6.18326,0.0,0.0
600,149.75,73.5446,81.9846,148.724,115.532,61.8762,0.021163,0.526466,20.2285,149.713,5.58876,0.0,0.0
608,151.75,73.8346,81.9637,146.157,115.498,60.2563,0.0214469,0.529514,20.2237,149.503,5.82354,0.0,0.0
616,153.75,74.9412,82.3564,143.131,115.449,58.6636,0.021722,0.532173,20.2195,149.263,6.05954,0.0,0.0
624,155.75,74.7313,83.0153,144.093,115.371,60.8335,0.0218334,0.532956,20.2166,149.023,5.72843,0.0,0.0
632,157.75,75.0797,83.0545,144.852,115.304,57.3212,0.0218656,0.534522,20.2143,148.843,6.2555,0.0,0.0
640,159.75,75.4947,83.7855,148.276,115.178,52.24,0.022104,0.539133,20.2018,148.602,7.07654,0.0,0.0
648,161.75,76.1091,84.1509,147.619,115.058,56.8637,0.0227311,0.551396,20.1793,148.382,6.30812,0.0,0.0
656,163.75,76.1065,84.818,147.953,114.911,55.9624,0.0235355,0.564465,20.1595,148.192,6.43964,0.0,0.0
664,165.75,76.784,85.4816,141.055,114.748,50.9644,0.0246726,0.579159,20.1257,147.872,7.26429,0.0,0.0
672,167.75,77.3632,86.1397,137.047,114.593,48.0934,0.026237,0.607105,20.0737,147.641,7.7712,0.0,0.0
680,169.75,77.9364,86.5745,142.988,114.434,46.1199,0.0276016,0.635972,20.0327,147.351,8.13372,0.0,0.0
688,171.75,79.0506,87.0766,142.648,114.276,43.2676,0.0294211,0.659689,19.9972,147.071,8.69277,0.0,0.0
696,173.75,80.3384,88.3533,129.56,114.146,44.8425,0.0309628,0.69177,19.9397,146.771,8.36263,0.0,0.0
704,175.75,80.7333,89.1729,140.652,114.045,47.2023,0.0320978,0.721582,19.885,146.46,7.89563,0.0,0.0
712,177.75,82.2514,90.4635,134.98,113.962,46.7663,0.0326734,0.741244,19.8556,146.17,7.97219,0.0,0.0
720,179.75,82.7321,91.8976,137.468,113.92,44.0922,0.0327375,0.74713,19.8439,145.85,8.49589,0.0,0.0
728,181.75,83.9355,92.7627,138.721,113.93,43.2063,0.0324358,0.739174,19.8587,145.57,8.67837,0.0,0.0
736,183.75,84.3246,93.6952,139.255,113.973,47.5185,0.0317948,0.722273,19.8844,145.309,7.83026,0.0,0.0
744,185.75,84.9008,94.6445,139.267,114.054,50.1978,0.0310022,0.70692,19.9101,145.019,7.34562,0.0,0.0
752,187.75,85.7313,95.2225,137.522,114.172,50.049,0.0300479,0.685604,19.954,144.729,7.38149,0.0,0.0
760,189.75,85.9965,95.5343,148.506,114.318,48.011,0.0290017,0.659754,19.9987,144.498,7.76497,0.0,0.0
768,191.75,85.9362,95.831,142.013,114.508,51.2353,0.0279066,0.633606,20.0346,144.258,7.1981,0.0,0.0
776,193.75,86.2917,96.0073,144.754,114.732,52.8691,0.0268546,0.608355,20.0727,144.018,6.93464,0.0,0.0
784,195.75,85.7439,96.1803,139.039,114.925,50.7268,0.0255903,0.585704,20.1197,143.818,7.31992,0.0,0.0
792,197.75,85.9578,95.6444,151.004,115.136,60.1979,0.0243351,0.565649,20.1579,143.528,5.8042,0.0,0.0
800,199.75,85.668,95.1374,141.329,115.353,60.9846,0.0232865,0.552158,20.1829,143.417,5.70478,0.0,0.0
808,201.75,85.5511,95.3207,144.716,115.573,62.1409,0.0224273,0.53748,20.2142,143.167,5.55373,0.0,0.0
816,203.75,84.7088,93.9502,145.911,115.76,65.193,0.0215283,0.518253,20.2478,143.017,5.13908,0.0,0.0
824,205.75,85.106,94.9603,151.824,115.929,61.9164,0.0205349,0.497642,20.2795,142.827,5.61366,0.0,0.0
832,207.75,83.9116,93.4936,150.322,116.071,65.8867,0.0196853,0.480259,20.3122,142.597,5.06834,0.0,0.0
840,209.75,84.1727,93.582,149.935,116.178,66.4063,0.0189284,0.465408,20.338,142.437,5.00627,0.0,0.0
848,211.75,83.3302,92.4294,150.201,116.258,67.8807,0.0183385,0.457357,20.351,142.176,4.81591,0.0,0.0
856,213.75,83.1424,92.2577,150.252,116.313,64.9675,0.0179726,0.453042,20.3572,142.046,5.21272,0.0,0.0
864,215.75,82.984,91.6617,150.886,116.323,69.4706,0.0178343,0.451512,20.3614,141.876,4.61369,0.0,0.0
872,217.75,82.494,91.722,149.197,116.322,61.2063,0.0177056,0.449439,20.3657,141.656,5.74719,0.0,0.0
880,219.75,82.2873,90.7437,150.69,116.275,61.8902,0.0176691,0.447246,20.3676,141.506,5.64414,0.0,0.0
888,221.75,82.4869,90.7273,155.335,116.2,64.6738,0.0177376,0.448703,20.3654,141.295,5.24454,0.0,0.0
896,223.75,81.3747,90.5496,150.883,116.112,61.8121,0.017879,0.450904,20.3612,141.135,5.64288,0.0,0.0
904,225.75,81.915,90.2128,151.408,115.998,61.7728,0.0180286,0.452038,20.3584,140.935,5.63978,0.0,0.0
912,227.75,81.0213,89.9955,147.795,115.866,60.0519,0.0181246,0.452484,20.3565,140.735,5.88249,0.0,0.0
920,229.75,80.896,89.3182,146.017,115.759,61.2409,0.0183065,0.453488,20.3513,140.525,5.69873,0.0,0.0
928,231.75,80.3903,89.9465,153.475,115.631,67.6964,0.0185417,0.45723,20.3439,140.395,4.79184,0.0,0.0
936,233.75,80.9587,89.1925,152.803,115.532,61.4444,0.018695,0.461972,20.3362,140.164,5.65146,0.0,0.0
944,235.75,80.4294,89.5354,144.816,115.457,57.8151,0.0187579,0.464711,20.3311,139.914,6.19056,0.0,0.0
952,237.75,80.3651,89.1536,150.349,115.4,59.1309,0.0188158,0.466782,20.3264,139.744,5.98472,0.0,0.0
960,239.75,79.5031,88.3485,150.767,115.599,61.11,0.0188995,0.467006,20.324,139.554,5.70549,0.0,0.0
968,241.75,80.4196,88.46,148.844,115.78,57.8109,0.0190739,0.466669,20.3246,139.344,6.21624,0.0,0.0
976,243.75,79.6123,88.8376,148.551,115.932,61.0693,0.0191438,0.466556,20.3267,139.163,5.73718,0.0,0.0
984,245.75,80.1853,87.8607,149.518,116.028,62.4482,0.0191883,0.464981,20.3283,138.923,5.54472,0.0,0.0
992,247.75,79.9955,88.1319,145.817,116.072,57.6177,0.0192693,0.46556,20.329,138.753,6.26875,0.0,0.0
1000,249.75,79.3504,88.1824,151.272,116.07,59.6889,0.0192715,0.465972,20.3294,138.593,5.95248,0.0,0.0
1008,251.75,79.3183,88.0401,144.787,116.023,61.45,0.019139,0.462912,20.3357,138.403,5.68861,0.0,0.0
1016,253.75,79.5758,87.4469,151.46,115.929,60.021,0.0189538,0.457012,20.3425,138.202,5.89192,0.0,0.0
1024,255.75,79.6733,87.3654,150.715,115.79,63.7144,0.0188383,0.453329,20.3456,137.982,5.34668,0.0,0.0
1032,257.75,79.2092,87.3488,146.509,115.596,62.3509,0.0187799,0.454199,20.3466,137.782,5.52534,0.0,0.0
1040,259.75,78.6522,87.7194,151.089,115.355,60.6361,0.0186212,0.453316,20.348,137.592,5.75625,0.0,0.0
1048,261.75,79.3038,87.3036,147.717,115.136,59.071,0.0182741,0.448176,20.3539,137.492,5.97329,0.0,0.0
1056,263.75,79.5265,86.5614,146.499,115.167,63.3842,0.0178922,0.442734,20.3626,137.342,5.34495,0.0,0.0
1064,265.75,78.9242,86.6766,147.52,115.225,61.3453,0.0177427,0.438478,20.3704,137.081,5.64207,0.0,0.0
1072,267.75,78.3362,86.8412,148.136,115.293,61.2232,0.0177249,0.433868,20.377,136.941,5.66519,0.0,0.0
1080,269.75,78.5316,86.4112,147.081,115.362,63.9717,0.0175894,0.431644,20.38,136.691,5.27747,0.0,0.0
1088,271.75,78.0992,86.3319,153.276,115.413,64.9137,0.0173876,0.43186,20.3825,136.541,5.15061,0.0,0.0
1096,273.75,78.3917,85.7083,151.588,115.447,63.4796,0.0172398,0.430408,20.3864,136.381,5.35321,0.0,0.0
1104,275.75,78.5303,85.4506,151.795,115.478,64.1915,0.0170721,0.42674,20.3922,136.17,5.25582,0.0,0.0
1112,277.75,78.0503,85.0083,149.667,115.485,68.7984,0.016795,0.423231,20.3957,135.99,4.63594,0.0,0.0
1120,279.75,77.8594,85.2016,147.088,115.508,68.1632,0.0165743,0.423188,20.3972,135.84,4.72081,0.0,0.0
1128,281.75,77.6736,84.96,148.087,115.519,63.4389,0.0164908,0.423536,20.3983,135.66,5.3645,0.0,0.0
1136,283.75,77.8243,84.7011,149.319,115.496,61.9276,0.0164997,0.421883,20.4006,135.52,5.57853,0.0,0.0
1144,285.75,77.7231,84.5968,150.779,115.437,62.7406,0.0165658,0.419384,20.4043,135.33,5.45727,0.0,0.0
1152,287.75,77.3707,84.5495,149.898,115.356,64.3183,0.0166705,0.416754,20.4095,135.13,5.22863,0.0,0.0
1160,289.75,77.3207,84.3995,153.798,115.243,65.0966,0.0167099,0.414835,20.413,134.949,5.11227,0.0,0.0
1168,291.75,76.99,84.1405,155.983,115.118,66.1102,0.0167714,0.414197,20.415,134.769,4.96424,0.0,0.0
1176,293.75,77.2082,83.9874,154.95,114.97,63.024,0.0168098,0.413225,20.4171,134.609,5.38058,0.0,0.0
1184,295.75,77.2579,83.827,152.078,114.809,60.079,0.0166524,0.41065,20.4181,134.499,5.79642,0.0,0.0
1192,297.75,76.7593,83.7316,150.667,114.674,63.5998,0.0164243,0.406457,20.4228,134.329,5.27616,0.0,0.0
1200,299.75,76.754,83.6587,149.38,114.492,62.3355,0.0162556,0.403956,20.4259,134.129,5.44161,0.0,0.0
1208,301.75,75.9594,82.4941,150.158,114.342,62.6624,0.0161115,0.403336,20.4272,134.038,5.38305,0.0,0.0
1216,303.75,76.4,82.9683,155.806,114.194,64.1326,0.0161395,0.402386,20.4278,133.848,5.16395,0.0,0.0
1224,305.75,75.7216,82.4556,150.945,114.068,59.6085,0.0163911,0.402903,20.4259,133.658,5.80883,0.0,0.0
1232,307.75,76.5811,83.0202,146.876,113.977,61.5871,0.0166556,0.404811,20.4246,133.548,5.50941,0.0,0.0
1240,309.75,75.06,82.6008,147.13,113.919,61.4159,0.0167731,0.404781,20.4265,133.368,5.52973,0.0,0.0
1248,311.75,75.9861,82.6039,151.226,113.888,61.146,0.0166997,0.403779,20.4293,133.158,5.56673,0.0,0.0
1256,313.75,75.5763,82.0649,153.049,113.912,62.7784,0.0166478,0.4022,20.4305,132.987,5.33278,0.0,0.0
1264,315.75,75.9505,82.1545,152.533,113.964,62.7883,0.0167345,0.401195,20.431,132.867,5.33549,0.0,0.0
1272,317.75,75.6116,81.9972,149.857,114.054,61.5745,0.0166861,0.401867,20.4299,132.677,5.51726,0.0,0.0
1280,319.75,75.6045,81.6878,150.564,114.184,63.0867,0.0165386,0.401846,20.4301,132.447,5.31032,0.0,0.0
1288,321.75,75.2868,81.656,148.608,114.328,60.1642,0.0164722,0.401077,20.4313,132.367,5.74614,0.0,0.0
1296,323.75,75.6295,81.638,149.683,114.517,61.0019,0.0164507,0.398155,20.4346,132.147,5.63714,0.0,0.0
1304,325.75,75.2682,81.7078,152.481,114.714,60.7662,0.0164078,0.396237,20.4363,131.966,5.68723,0.0,0.0
1312,327.75,74.9621,81.4397,154.671,114.937,62.6016,0.0163302,0.397718,20.4339,131.816,5.43822,0.0,0.0
1320,329.75,75.0935,81.5756,147.774,115.142,62.893,0.0162169,0.399485,20.4325,131.686,5.41261,0.0,0.0
1328,331.75,75.219,81.1524,148.06,115.368,61.9777,0.0161468,0.399651,20.4342,131.466,5.56137,0.0,0.0
1336,333.75,75.337,81.5169,155.205,115.55,67.3573,0.0162177,0.398067,20.4371,131.376,4.83049,0.0,0.0
1344,335.75,75.1588,81.1991,152.777,115.743,62.4571,0.0163386,0.396683,20.4405,131.176,5.5215,0.0,0.0
1352,337.75,75.1066,80.8754,149.636,115.924,60.4055,0.0164076,0.394735,20.4427,131.036,5.83441,0.0,0.0
1360,339.75,75.2652,80.4634,152.272,116.065,63.5764,0.0162554,0.392586,20.4447,130.865,5.38738,0.0,0.0
1368,341.75,75.0545,80.7851,155.587,116.191,65.65,0.0159514,0.389435,20.451,130.675,5.1098,0.0,0.0
1376,343.75,74.5472,80.7721,154.649,116.27,64.439,0.0156761,0.384431,20.4576,130.525,5.28253,0.0,0.0
1384,345.75,74.6168,80.1725,151.885,116.317,61.9304,0.0155661,0.382091,20.46,130.375,5.64153,0.0,0.0
1392,347.75,74.2243,80.0118,153.157,116.321,66.8123,0.0156524,0.384112,20.4569,130.195,4.96272,0.0,0.0
1400,349.75,74.767,79.9429,155.239,116.312,62.6634,0.0156828,0.386795,20.4549,130.065,5.53586,0.0,0.0
1408,351.75,73.4516,79.2434,153.448,116.256,63.9207,0.0156063,0.38551,20.4564,129.874,5.35373,0.0,0.0
1416,353.75,73.9397,79.9104,155.65,116.178,67.9859,0.0155496,0.383184,20.459,129.734,4.79589,0.0,0.0
1424,355.75,74.2528,79.4799,152.979,116.08,64.9628,0.0154456,0.380436,20.4647,129.624,5.19541,0.0,0.0
1432,357.75,73.9447,79.3799,151.868,115.974,65.7477,0.0152856,0.378231,20.4681,129.444,5.07973,0.0,0.0
1440,359.75,73.6116,79.7054,152.466,115.843,65.0784,0.0151302,0.37601,20.4704,129.304,5.16125,0.0,0.0
1448,361.75,73.7145,79.2684,154.642,115.726,62.5469,0.0150643,0.372428,20.4778,129.114,5.50727,0.0,0.0
1456,363.75,73.3932,78.9293,153.956,115.613,66.3245,0.0150588,0.368202,20.4826,128.974,4.97368,0.0,0.0
1464,365.75,73.6195,78.8302,149.628,115.505,65.5686,0.0150515,0.367152,20.4846,128.793,5.06787,0.0,0.0
1472,367.75,73.4125,78.4632,154.404,115.434,64.808,0.0150112,0.367072,20.4862,128.643,5.16679,0.0,0.0
1480,369.75,73.7439,78.3663,153.609,115.516,68.9612,0.0148872,0.366528,20.4875,128.503,4.61725,0.0,0.0
1488,371.75,73.7047,78.2626,153.603,115.721,69.2306,0.0146986,0.365015,20.4894,128.353,4.59816,0.0,0.0
1496,373.75,73.2042,78.0788,152.221,115.876,65.0732,0.0144139,0.362278,20.4946,128.233,5.16445,0.0,0.0
1504,375.75,72.3327,78.866,160.276,115.99,65.3282,0.0140834,0.35786,20.5019,128.083,5.1383,0.0,0.0
1512,377.75,72.4962,78.4311,153.939,116.073,65.6313,0.013833,0.352977,20.5107,127.953,5.10324,0.0,0.0
1520,379.75,72.7914,77.528,153.005,116.103,65.6986,0.0137481,0.350339,20.5157,127.822,5.09637,0.0,0.0
1528,381.75,72.4354,77.5269,155.006,116.109,68.5818,0.0136891,0.348404,20.5194,127.632,4.71245,0.0,0.0
1536,383.75,72.078,76.5639,156.291,116.064,68.6221,0.0135602,0.345998,20.5254,127.492,4.70367,0.0,0.0
1544,385.75,72.7184,77.3303,151.715,115.985,69.7147,0.0134709,0.343999,20.5295,127.342,4.55622,0.0,0.0
1552,387.75,71.6171,76.3287,153.8,115.877,70.719,0.0133188,0.341856,20.5324,127.202,4.41984,0.0,0.0
1560,389.75,71.5368,76.8745,150.488,115.721,70.5207,0.013105,0.339825,20.5368,127.112,4.43298,0.0,0.0
1568,391.75,71.2796,77.267,151.436,115.568,66.4283,0.012978,0.338433,20.5389,126.932,4.95616,0.0,0.0
1576,393.75,71.7898,76.164,154.154,115.365,69.2068,0.0129,0.337075,20.542,126.822,4.5737,0.0,0.0
1584,395.75,71.3993,76.5904,153.411,115.173,68.6848,0.0128374,0.333322,20.5497,126.681,4.62655,0.0,0.0
1592,397.75,70.3156,76.4144,155.025,115.2,68.3447,0.0127375,0.32846,20.5572,126.561,4.67308,0.0,0.0
1600,399.75,71.4262,75.0041,153.968,115.233,73.7847,0.0125968,0.326294,20.561,126.431,3.99013,0.0,0.0
1608,401.75,71.2924,75.3249,151.6,115.27,71.285,0.0124349,0.324974,20.5649,126.281,4.30152,0.0,0.0
1616,403.75,70.4824,75.5972,153.997,115.309,71.3944,0.0122668,0.322239,20.5702,126.171,4.2908,0.0,0.0
1624,405.75,70.8318,75.0932,154.684,115.356,72.0755,0.0120457,0.319789,20.575,126.031,4.20948,0.0,0.0
1632,407.75,69.9294,75.4783,151.714,115.421,69.7765,0.0117957,0.317112,20.5799,125.941,4.50467,0.0,0.0
1640,409.75,70.4605,74.7571,154.355,115.466,71.67,0.0116406,0.314238,20.5863,125.811,4.26854,0.0,0.0
1648,411.75,70.2632,74.3105,153.899,115.485,72.5119,0.0114868,0.310965,20.5917,125.7,4.16549,0.0,0.0
1656,413.75,69.6944,74.1832,153.865,115.512,73.7683,0.0112254,0.308039,20.5955,125.59,4.01376,0.0,0.0
1664,415.75,69.4824,74.3187,153.794,115.539,71.9015,0.0109592,0.305571,20.6001,125.45,4.24528,0.0,0.0
1672,417.75,69.4471,73.8068,155.981,115.529,74.3095,0.010721,0.303347,20.6052,125.23,3.94972,0.0,0.0
1680,419.75,69.1617,73.8808,158.245,115.516,75.0191,0.0105365,0.299308,20.6116,125.13,3.8636,0.0,0.0
1688,421.75,69.0231,73.0764,157.158,115.498,74.4428,0.0103545,0.295994,20.6154,125.17,3.93121,0.0,0.0
1696,423.75,68.5633,73.4292,157.235,115.507,76.1908,0.010169,0.293072,20.6205,124.97,3.7242,0.0,0.0
1704,425.75,68.0706,73.1039,159.675,115.497,77.4495,0.00993164,0.290072,20.6261,124.93,3.57678,0.0,0.0
1712,427.75,68.0445,72.7991,160.407,115.471,73.6963,0.0097523,0.287262,20.6311,124.8,4.01939,0.0,0.0
1720,429.75,68.2148,72.289,153.975,115.438,73.3969,0.00961268,0.284691,20.637,124.689,4.05322,0.0,0.0
1728,431.75,67.522,72.7299,159.408,115.409,76.3086,0.00940563,0.282289,20.6419,124.609,3.70276,0.0,0.0
1736,433.75,67.6153,72.093,162.192,115.363,76.3344,0.00912489,0.280517,20.6461,124.469,3.69619,0.0,0.0
1744,435.75,67.2013,71.9079,150.367,115.318,77.7086,0.00889278,0.278464,20.65,124.359,3.53297,0.0,0.0
1752,437.75,67.6968,71.6202,158.393,115.258,77.3849,0.00888396,0.276357,20.6552,124.259,3.56572,0.0,0.0
1760,439.75,67.242,70.7754,160.72,115.222,76.0635,0.00891038,0.274239,20.6583,124.179,3.71708,0.0,0.0
1768,441.75,66.9208,71.0307,158.506,115.14,78.915,0.00879688,0.272141,20.6618,124.099,3.38126,0.0,0.0
1776,443.75,66.7507,70.3313,153.043,115.097,77.703,0.00861821,0.270018,20.6651,123.999,3.51644,0.0,0.0
1784,445.75,66.0643,70.399,161.136,115.013,81.3463,0.00845838,0.267997,20.6681,123.879,3.09977,0.0,0.0
1792,447.75,66.2797,69.7197,157.68,114.941,80.1835,0.00827021,0.265108,20.6733,123.759,3.22307,0.0,0.0
1800,449.75,65.5795,69.9043,154.623,114.857,81.8539,0.0081031,0.263151,20.6772,123.669,3.03199,0.0,0.0
1808,451.75,65.538,70.0784,162.377,114.779,83.7389,0.0079823,0.261802,20.6808,123.538,2.82215,0.0,0.0
1816,453.75,65.1076,69.478,157.08,114.687,81.4188,0.00782336,0.260652,20.6836,123.458,3.06645,0.0,0.0
1824,455.75,65.3608,68.9097,163.087,114.609,81.1508,0.00753655,0.258918,20.686,123.358,3.08983,0.0,0.0
1832,457.75,65.3071,68.8739,161.383,114.545,80.7972,0.00737977,0.256092,20.6908,123.308,3.12396,0.0,0.0
1840,459.75,64.4687,68.5023,157.885,114.517,80.9534,0.0073579,0.253843,20.6959,123.188,3.10444,0.0,0.0
1848,461.75,64.8204,68.4901,164.226,114.478,81.3248,0.00716857,0.251806,20.7005,123.088,3.0604,0.0,0.0
1856,463.75,64.4304,68.1092,159.259,114.444,83.3418,0.00692812,0.249345,20.7051,123.008,2.8385,0.0,0.0
1864,465.75,64.1567,67.9471,159.488,114.418,82.4063,0.00676173,0.247538,20.7095,122.888,2.93749,0.0,0.0
1872,467.75,63.939,67.5785,163.141,114.38,81.2972,0.00666062,0.245591,20.7134,122.828,3.0558,0.0,0.0
1880,469.75,63.6962,66.8957,158.176,114.374,83.3488,0.00637163,0.243827,20.7161,122.758,2.8323,0.0,0.0
1888,471.75,63.756,66.7721,156.938,114.365,84.4031,0.006095,0.242284,20.7188,122.648,2.71906,0.0,0.0
1896,473.75,63.9188,66.2849,156.478,114.362,83.2459,0.0059829,0.24011,20.7224,122.607,2.84241,0.0,0.0
1904,475.75,62.7372,66.872,160.98,114.377,86.3939,0.00598786,0.238565,20.7251,122.507,2.51132,0.0,0.0
1912,477.75,62.3845,65.7723,161.386,114.374,86.7835,0.00596541,0.237102,20.7288,122.447,2.47086,0.0,0.0
1920,479.75,63.1796,66.1155,159.911,114.399,85.1351,0.00579297,0.23492,20.7329,122.357,2.64444,0.0,0.0
1928,481.75,61.8002,65.4027,164.489,114.397,89.1363,0.00556899,0.231889,20.7379,122.297,2.23319,0.0,0.0
1936,483.75,62.2377,65.6629,163.545,114.42,85.4532,0.00538202,0.230035,20.7414,122.197,2.6127,0.0,0.0
1944,485.75,61.7628,64.7827,159.332,114.442,86.9617,0.00529532,0.229421,20.7431,122.137,2.45776,0.0,0.0
1952,487.75,61.805,65.1704,159.57,114.486,88.1526,0.0052186,0.227981,20.7461,122.037,2.33949,0.0,0.0
1960,489.75,61.6974,64.9615,158.787,114.549,88.2817,0.00510123,0.225931,20.7492,121.947,2.33132,0.0,0.0
1968,491.75,61.5864,64.4133,159.844,114.591,90.1485,0.00503688,0.224091,20.7524,121.807,2.14728,0.0,0.0
1976,493.75,61.3175,64.1078,159.1,114.64,90.4544,0.00491729,0.222161,20.7566,121.817,2.12079,0.0,0.0
1984,495.75,61.191,64.1136,162.632,114.714,88.6208,0.00470528,0.220882,20.7588,121.737,2.30989,0.0,0.0
1992,497.75,60.6523,64.048,159.997,114.771,90.692,0.00442676,0.219261,20.7626,121.607,2.10752,0.0,0.0
2000,499.75,61.0182,63.6884,160.527,114.834,91.3375,0.00416309,0.217386,20.7661,121.597,2.04896,0.0,0.0
2008,501.75,60.879,63.5435,159.621,114.901,90.1097,0.00396395,0.215512,20.7699,121.566,2.17534,0.0,0.0
2016,503.75,60.7891,63.5992,156.37,114.991,90.3702,0.00388566,0.213947,20.7721,121.436,2.15648,0.0,0.0
2024,505.75,60.1978,62.8114,165.943,115.071,91.1808,0.0038705,0.212607,20.7748,121.406,2.08277,0.0,0.0
2032,507.75,60.1072,62.8664,158.402,115.164,93.1566,0.00374306,0.210899,20.7784,121.336,1.89813,0.0,0.0
2040,509.75,59.7959,62.902,159.182,115.231,91.7538,0.00360198,0.209226,20.7819,121.256,2.03916,0.0,0.0
2048,511.75,59.8712,62.3985,158.548,115.298,92.3825,0.00360213,0.208053,20.7852,121.226,1.98327,0.0,0.0
2056,513.75,59.6273,61.5525,161.798,115.36,94.0949,0.00368518,0.206756,20.7876,121.126,1.82367,0.0,0.0
2064,515.75,59.4022,62.2179,161.384,115.414,93.4957,0.00359538,0.205464,20.79,121.116,1.88505,0.0,0.0
2072,517.75,58.9249,61.9377,158.279,115.472,95.1736,0.00332333,0.203977,20.7933,121.026,1.73035,0.0,0.0
2080,519.75,59.0494,61.1968,162.162,115.507,95.3621,0.00311351,0.202155,20.797,120.966,1.71539,0.0,0.0
2088,521.75,58.3997,61.8068,161.834,115.518,94.9336,0.00301533,0.199939,20.801,120.956,1.75653,0.0,0.0
2096,523.75,58.5985,61.4898,159.077,115.532,96.4155,0.00293011,0.198375,20.8033,120.836,1.61895,0.0,0.0
2104,525.75,58.5288,60.5399,159.485,115.552,96.7485,0.00280501,0.197285,20.8064,120.736,1.58968,0.0,0.0
2112,527.75,58.588,60.5888,160.562,115.564,94.4883,0.00268852,0.195438,20.8095,120.726,1.80216,0.0,0.0
2120,529.75,58.3134,60.5173,158.028,115.544,95.6418,0.00255191,0.193952,20.8119,120.666,1.69204,0.0,0.0
2128,531.75,57.9,60.4084,161.042,115.499,95.3986,0.00238936,0.192645,20.8149,120.646,1.71132,0.0,0.0
2136,533.75,57.3068,60.6138,160.102,115.45,97.4347,0.00225917,0.191057,20.8189,120.576,1.51845,0.0,0.0
2144,535.75,57.4603,60.4426,163.07,115.383,98.119,0.00222032,0.189345,20.8211,120.505,1.45063,0.0,0.0
2152,537.75,57.1868,60.2045,165.251,115.316,99.0007,0.00217508,0.188081,20.8225,120.405,1.36541,0.0,0.0
2160,539.75,57.0247,59.7972,159.666,115.262,96.3836,0.00207375,0.187124,20.824,120.415,1.60095,0.0,0.0
2168,541.75,57.1403,59.3481,157.999,115.211,99.6172,0.00200045,0.186331,20.8263,120.345,1.30168,0.0,0.0
2176,543.75,56.6488,59.8233,163.14,115.304,99.6032,0.00198004,0.1853,20.8275,120.325,1.31013,0.0,0.0
2184,545.75,57.0625,58.5616,160.988,115.587,99.7388,0.0020182,0.183982,20.8299,120.285,1.31994,0.0,0.0
2192,547.75,56.8851,58.9786,162.813,115.818,100.239,0.00206101,0.182774,20.8329,120.235,1.29296,0.0,0.0
2200,549.75,56.8205,58.9067,158.148,115.969,99.1668,0.00199411,0.181352,20.8359,120.145,1.40094,0.0,0.0
2208,551.75,55.6461,57.6267,163.815,116.077,100.68,0.00189937,0.179629,20.8391,120.105,1.27368,0.0,0.0
2216,553.75,56.2745,58.2287,162.712,116.124,101.185,0.00183664,0.177875,20.8413,120.075,1.23256,0.0,0.0
2224,555.75,55.9573,58.5181,167.09,116.111,102.38,0.00183731,0.176145,20.8445,120.025,1.12646,0.0,0.0
2232,557.75,55.806,57.8914,164.732,116.009,102.629,0.00186805,0.17459,20.847,119.975,1.09688,0.0,0.0
2240,559.75,55.4491,57.8057,160.759,115.864,101.965,0.00185485,0.174162,20.8484,119.965,1.14373,0.0,0.0
2248,561.75,54.9147,57.8339,160.796,115.669,103.022,0.00176486,0.173209,20.8511,119.875,1.03639,0.0,0.0
2256,563.75,55.2676,57.0432,161.392,115.428,102.773,0.00168613,0.172168,20.8538,119.855,1.03932,0.0,0.0
2264,565.75,54.931,57.0306,163.835,115.512,102.624,0.00161208,0.171235,20.8561,119.785,1.05888,0.0,0.0
2272,567.75,54.1381,57.4086,161.614,115.626,103.736,0.00156004,0.170114,20.8577,119.745,0.971218,0.0,0.0
2280,569.75,55.114,56.7484,164.681,115.768,103.353,0.00154152,0.168766,20.8603,119.705,1.01536,0.0,0.0
2288,571.75,54.2108,56.7675,162.993,115.92,103.1,0.00158127,0.167411,20.8622,119.685,1.04904,0.0,0.0
2296,573.75,54.7052,56.2855,165.304,116.079,104.784,0.00157292,0.165618,20.8651,119.685,0.916213,0.0,0.0
2304,575.75,54.3047,56.3387,164.683,116.191,103.338,0.00148312,0.164596,20.8675,119.585,1.04922,0.0,0.0
2312,577.75,53.9284,56.9005,163.329,116.278,103.608,0.00144103,0.163831,20.8699,119.535,1.03264,0.0,0.0
2320,579.75,54.2773,55.2582,156.967,116.321,104.726,0.0014495,0.162914,20.8718,119.495,0.939778,0.0,0.0
2328,581.75,53.61,56.2632,163.587,116.325,104.971,0.00146043,0.16159,20.8738,119.464,0.919258,0.0,0.0
2336,583.75,53.7744,54.5199,165.792,116.288,106.273,0.00142734,0.160579,20.8756,119.404,0.8061,0.0,0.0
2344,585.75,53.4523,56.2573,161.413,116.193,104.632,0.00123573,0.159348,20.8783,119.384,0.93796,0.0,0.0
2352,587.75,52.7019,55.6527,166.134,116.063,104.726,0.00112892,0.158272,20.8812,119.324,0.919948,0.0,0.0
2360,589.75,53.1683,55.2992,164.034,115.878,105.417,0.00124423,0.156971,20.8827,119.314,0.846886,0.0,0.0
2368,591.75,53.5138,55.0272,165.466,115.666,105.314,0.00138626,0.156406,20.8843,119.274,0.839266,0.0,0.0
2376,593.75,53.3953,54.7159,165.4,115.423,104.924,0.00140289,0.155778,20.8853,119.254,0.853618,0.0,0.0
2384,595.75,52.7572,55.1773,162.432,115.174,105.298,0.00133315,0.154763,20.8868,119.194,0.802423,0.0,0.0
2392,597.75,52.5417,54.3964,161.629,114.907,104.406,0.00131536,0.153725,20.8882,119.174,0.857808,0.0,0.0
2400,599.75,52.6872,54.4679,157.577,114.664,105.14,0.00125887,0.152991,20.8897,119.124,0.7762,0.0,0.0
2408,601.75,51.8604,54.6295,164.938,114.42,105.207,0.00116687,0.152693,20.8903,119.084,0.751334,0.0,0.0
2416,603.75,52.8981,53.5335,169.722,114.21,105.277,0.00115158,0.152429,20.8912,119.044,0.7289,0.0,0.0
2424,605.75,52.4655,54.1406,162.794,114.034,105.558,0.00118188,0.152144,20.8923,119.054,0.691294,0.0,0.0
2432,607.75,52.506,53.9924,164.405,113.948,104.571,0.00116208,0.151421,20.8931,118.984,0.768582,0.0,0.0
2440,609.75,51.6866,53.7294,164.995,113.895,104.925,0.00109707,0.150607,20.8941,118.944,0.734254,0.0,0.0
2448,611.75,51.5751,53.8804,166.404,113.922,105.335,0.00108409,0.149301,20.8957,118.884,0.701458,0.0,0.0
2456,613.75,51.7598,53.53,167.849,114.02,106.151,0.00114741,0.147967,20.8975,118.854,0.640041,0.0,0.0
2464,615.75,51.8469,53.4842,157.535,114.148,105.461,0.00120694,0.146981,20.8987,118.864,0.708489,0.0,0.0
2472,617.75,51.635,52.9464,165.222,114.32,106.067,0.00116871,0.146278,20.9003,118.804,0.670625,0.0,0.0
2480,619.75,51.5512,52.7891,166.229,114.529,106.465,0.00111585,0.145427,20.9021,118.764,0.653513,0.0,0.0
2488,621.75,51.7306,53.1499,162.052,114.749,105.678,0.00112878,0.145214,20.9037,118.744,0.737009,0.0,0.0
2496,623.75,51.1252,53.1024,170.808,114.954,106.592,0.00126534,0.144915,20.9049,118.724,0.675955,0.0,0.0
2504,625.75,50.5065,52.6833,162.532,115.141,107.018,0.00143212,0.143978,20.9067,118.674,0.654751,0.0,0.0
2512,627.75,50.7686,52.5808,167.142,115.3,106.687,0.00151127,0.143363,20.9075,118.684,0.694905,0.0,0.0
2520,629.75,51.087,52.3901,162.793,115.407,107.201,0.0014802,0.143315,20.9083,118.614,0.660189,0.0,0.0
2528,631.75,50.4936,52.3356,171.19,115.48,107.955,0.00138383,0.143107,20.9088,118.564,0.603068,0.0,0.0
2536,633.75,49.9291,52.5006,164.261,115.514,108.337,0.00131723,0.142366,20.9092,118.544,0.574159,0.0,0.0
2544,635.75,49.9728,52.2742,166.999,115.488,107.836,0.00129293,0.141303,20.9102,118.524,0.613615,0.0,0.0
2552,637.75,50.027,52.0554,161.523,115.487,108.272,0.0012493,0.140255,20.912,118.494,0.577469,0.0,0.0
2560,639.75,49.7754,52.2262,164.728,115.44,108.457,0.00137094,0.139161,20.9135,118.474,0.558475,0.0,0.0
2568,641.75,50.3061,51.5198,165.555,115.365,107.765,0.00149296,0.138343,20.915,118.434,0.609912,0.0,0.0
2576,643.75,50.5651,51.1233,166.235,115.273,108.836,0.00150996,0.137842,20.9168,118.444,0.51428,0.0,0.0
2584,645.75,49.5328,52.1006,165.192,115.199,106.414,0.00151156,0.137227,20.9176,118.413,0.709977,0.0,0.0
2592,647.75,49.4921,51.4801,168.508,115.155,107.681,0.00156219,0.1368,20.9179,118.383,0.600578,0.0,0.0
2600,649.75,49.4379,51.1202,163.655,115.506,107.064,0.0016613,0.136788,20.9191,118.303,0.67928,0.0,0.0
2608,651.75,49.2405,49.9318,168.816,115.814,108.865,0.0017137,0.136239,20.9199,118.283,0.553778,0.0,0.0
2616,653.75,49.1173,51.042,171.449,115.997,107.934,0.00167711,0.135207,20.9217,118.253,0.644856,0.0,0.0
2624,655.75,49.2876,50.9998,165.131,116.107,108.773,0.00161562,0.134389,20.9229,118.263,0.583969,0.0,0.0
2632,657.75,48.6093,49.7868,166.757,116.103,109.352,0.00157036,0.133838,20.9241,118.233,0.536197,0.0,0.0
2640,659.75,48.8109,51.1128,167.213,116.005,108.822,0.00161532,0.133683,20.9252,118.203,0.572075,0.0,0.0
2648,661.75,48.3888,49.5502,164.807,115.828,109.757,0.00177066,0.13318,20.9258,118.173,0.481824,0.0,0.0
2656,663.75,48.7399,50.2413,166.772,115.552,109.893,0.00188204,0.132492,20.927,118.123,0.449438,0.0,0.0
2664,665.75,48.6477,50.0074,171.623,115.478,108.199,0.00194341,0.132343,20.9278,118.083,0.582743,0.0,0.0
2672,667.75,48.2022,50.261,166.881,115.6,107.765,0.0020269,0.131933,20.9282,118.053,0.628207,0.0,0.0
2680,669.75,48.4775,49.9939,172.239,115.774,109.182,0.0021324,0.130949,20.9295,118.013,0.524709,0.0,0.0
2688,671.75,48.2742,49.9563,162.647,115.92,108.552,0.00223015,0.130264,20.9305,118.023,0.587776,0.0,0.0
2696,673.75,48.0848,49.6283,167.294,116.074,108.858,0.00231208,0.130276,20.932,117.983,0.574448,0.0,0.0
2704,675.75,47.6889,49.843,162.543,116.209,109.885,0.00236554,0.129851,20.9327,118.003,0.500795,0.0,0.0
2712,677.75,48.0529,49.3584,170.145,116.313,109.914,0.00239643,0.129378,20.933,117.993,0.506456,0.0,0.0
2720,679.75,48.3783,49.1413,172.411,116.331,109.854,0.00243402,0.129014,20.9331,117.943,0.512698,0.0,0.0
2728,681.75,47.7575,49.4653,165.91,116.299,109.485,0.00243261,0.129182,20.9331,117.903,0.540412,0.0,0.0
2736,683.75,47.8562,49.2093,162.88,116.21,109.614,0.00246612,0.129435,20.9336,117.883,0.522954,0.0,0.0
2744,685.75,47.1807,49.6417,167.959,116.014,108.835,0.00256002,0.128951,20.936,117.843,0.571722,0.0,0.0
2752,687.75,47.4453,49.1803,164.964,115.769,109.384,0.00274812,0.128311,20.9371,117.813,0.507761,0.0,0.0
2760,689.75,47.3418,49.2248,168.874,115.467,109.014,0.00295274,0.127546,20.9375,117.783,0.514756,0.0,0.0
2768,691.75,46.8596,47.7486,164.347,115.15,108.61,0.00303356,0.127133,20.9377,117.773,0.52337,0.0,0.0
2776,693.75,47.1679,48.2316,169.135,114.805,108.266,0.00312496,0.126925,20.9378,117.723,0.524862,0.0,0.0
2784,695.75,47.0902,48.583,174.161,114.484,107.531,0.00323892,0.12695,20.9378,117.713,0.560758,0.0,0.0
2792,697.75,46.6099,48.5053,166.439,114.199,107.115,0.00330003,0.126793,20.9378,117.673,0.573199,0.0,0.0
2800,699.75,47.2215,48.1359,166.875,114.023,106.552,0.00332871,0.126599,20.9379,117.623,0.606524,0.0,0.0
2808,701.75,45.989,47.318,173.195,113.935,106.14,0.00332769,0.126286,20.939,117.683,0.634305,0.0,0.0
2816,703.75,46.9273,48.0401,167.701,113.951,107.872,0.00330486,0.124946,20.9399,117.633,0.490674,0.0,0.0
2824,705.75,46.9148,47.6474,167.717,114.093,107.832,0.003243,0.124048,20.9407,117.593,0.505201,0.0,0.0
2832,707.75,46.0031,48.1613,165.474,114.314,108.105,0.00323076,0.123471,20.9419,117.543,0.499805,0.0,0.0
2840,709.75,47.1946,46.8171,171.576,114.611,108.142,0.00326122,0.122753,20.9438,117.543,0.520025,0.0,0.0
2848,711.75,46.7011,46.9439,167.761,114.912,107.718,0.0033037,0.122226,20.9452,117.513,0.578638,0.0,0.0
2856,713.75,46.4389,47.1939,165.539,115.188,108.263,0.00337579,0.121694,20.9457,117.483,0.554959,0.0,0.0
2864,715.75,46.2788,47.632,167.839,115.402,106.734,0.00347514,0.121113,20.9472,117.493,0.698887,0.0,0.0
2872,717.75,46.119,47.222,169.353,115.52,107.968,0.00363773,0.121068,20.9479,117.463,0.605135,0.0,0.0
2880,719.75,45.675,47.2061,165.808,115.516,108.944,0.0038469,0.120932,20.9478,117.393,0.524283,0.0,0.0
2888,721.75,45.7262,47.1272,169.008,115.445,107.85,0.0039519,0.120782,20.9477,117.403,0.60908,0.0,0.0
2896,723.75,46.4056,46.4249,166.489,115.371,108.083,0.00400188,0.120339,20.9478,117.393,0.584007,0.0,0.0
2904,725.75,46.0105,47.2159,165.068,115.258,109.097,0.00402337,0.119725,20.9478,117.413,0.491716,0.0,0.0
2912,727.75,44.5792,46.1789,167.866,115.157,107.623,0.00402694,0.118961,20.9479,117.352,0.605582,0.0,0.0
2920,729.75,45.0252,46.6,169.461,115.163,109.01,0.00400828,0.118661,20.9481,117.332,0.49149,0.0,0.0
2928,731.75,45.1617,46.3691,168.336,115.639,108.76,0.00394568,0.118413,20.9487,117.312,0.54888,0.0,0.0
2936,733.75,45.3836,46.2754,167.536,115.969,108.375,0.00387694,0.118056,20.9501,117.242,0.60619,0.0,0.0
2944,735.75,45.0918,46.4,171.444,116.076,107.996,0.00396792,0.117358,20.952,117.232,0.645829,0.0,0.0
2952,737.75,45.1964,46.4023,167.968,116.008,109.461,0.00420924,0.116353,20.9536,117.232,0.519967,0.0,0.0
2960,739.75,44.7792,46.5409,172.381,115.78,109.529,0.00456041,0.115575,20.9548,117.202,0.496771,0.0,0.0
2968,741.75,44.9385,46.0025,167.662,115.419,108.265,0.00487149,0.115209,20.955,117.132,0.572684,0.0,0.0
2976,743.75,44.9647,46.3028,170.179,115.537,108.32,0.00519145,0.115381,20.955,117.152,0.577287,0.0,0.0
2984,745.75,45.2311,45.4563,174.391,115.747,107.671,0.00541703,0.115753,20.955,117.132,0.647335,0.0,0.0
2992,747.75,44.4683,46.1432,168.887,115.955,108.528,0.00545557,0.116115,20.9553,117.092,0.592447,0.0,0.0
3000,749.75,44.204,46.3457,169.672,116.145,108.966,0.00537645,0.116261,20.9566,117.022,0.57108,0.0,0.0
3008,751.75,44.1619,45.7984,173.662,116.27,109.834,0.0052331,0.115398,20.9573,117.032,0.5097,0.0,0.0
3016,753.75,44.5436,45.977,168.81,116.311,109.139,0.00515224,0.114521,20.9581,117.042,0.569689,0.0,0.0
3024,755.75,43.7336,44.804,168.942,116.301,108.096,0.0051791,0.113362,20.9593,117.012,0.654849,0.0,0.0
3032,757.75,44.6378,45.5051,167.468,116.207,109.157,0.00534506,0.112588,20.9598,116.972,0.560172,0.0,0.0
3040,759.75,43.316,44.8239,170.371,116.045,107.513,0.00554971,0.112723,20.9601,116.932,0.683508,0.0,0.0
3048,761.75,44.276,45.317,171.973,115.826,108.458,0.00576794,0.113077,20.9602,116.892,0.588272,0.0,0.0
3056,763.75,43.0578,44.3852,169.873,115.531,107.9,0.00593757,0.112685,20.9602,116.902,0.611668,0.0,0.0
3064,765.75,44.1578,44.7628,163.454,115.26,107.389,0.00604297,0.112497,20.9602,116.882,0.633115,0.0,0.0
3072,767.75,43.6227,44.7633,165.199,114.964,107.481,0.00609598,0.112414,20.9609,116.872,0.602478,0.0,0.0
3080,769.75,43.8369,44.9506,167.703,114.699,107.395,0.00624336,0.111867,20.9618,116.882,0.588882,0.0,0.0
3088,771.75,44.0315,44.5135,170.946,114.453,107.311,0.00644284,0.11088,20.9625,116.862,0.576739,0.0,0.0
3096,773.75,43.5475,44.6214,166.976,114.241,106.16,0.00657106,0.109889,20.9639,116.772,0.656589,0.0,0.0
3104,775.75,43.0493,44.9126,168.431,114.082,106.156,0.00657358,0.109571,20.9644,116.752,0.644484,0.0,0.0
3112,777.75,43.6017,44.7854,168.095,113.993,106.708,0.00655048,0.109412,20.9651,116.782,0.591138,0.0,0.0
3120,779.75,43.1014,43.9249,168.609,113.947,106.367,0.00650326,0.10937,20.9653,116.762,0.616153,0.0,0.0
3128,781.75,43.2373,44.1229,172.696,113.946,106.53,0.00647226,0.109166,20.9651,116.732,0.602355,0.0,0.0
3136,783.75,42.814,43.4209,173.368,113.977,106.755,0.00652497,0.10892,20.9662,116.722,0.585855,0.0,0.0
3144,785.75,42.538,43.4954,166.136,114.069,107.16,0.00659726,0.108594,20.9668,116.662,0.559221,0.0,0.0
3152,787.75,42.6064,43.2877,170.023,114.181,106.892,0.00673048,0.108425,20.967,116.632,0.590395,0.0,0.0
3160,789.75,42.6735,43.3058,170.258,114.301,106.674,0.00688302,0.108427,20.9679,116.642,0.618113,0.0,0.0
3168,791.75,42.5156,43.5159,169.908,114.431,107.735,0.00694279,0.10772,20.9689,116.582,0.539708,0.0,0.0
3176,793.75,42.6294,43.4754,173.659,114.581,107.545,0.00685664,0.106978,20.9681,116.572,0.56726,0.0,0.0
3184,795.75,42.5896,43.6122,169.679,114.735,107.759,0.00680633,0.106821,20.9678,116.552,0.561412,0.0,0.0
3192,797.75,41.8787,43.0784,169.085,114.841,107.151,0.00684058,0.106291,20.9677,116.552,0.620335,0.0,0.0
3200,799.75,42.5588,43.3337,165.983,114.956,107.182,0.00692992,0.105933,20.9679,116.512,0.626673,0.0,0.0
3208,801.75,42.3239,43.1952,173.082,115.062,107.933,0.0070614,0.106143,20.969,116.482,0.572491,0.0,0.0
3216,803.75,41.9396,43.4079,170.064,115.17,108.355,0.00722013,0.105516,20.9702,116.492,0.545926,0.0,0.0
3224,805.75,41.8449,43.0224,168.08,115.232,109.03,0.00737236,0.104813,20.9718,116.512,0.495212,0.0,0.0
3232,807.75,41.9239,42.8356,171.715,115.298,108.696,0.00748568,0.103842,20.9733,116.422,0.527786,0.0,0.0
3240,809.75,41.5518,42.7829,171.606,115.368,108.998,0.007672,0.102998,20.974,116.452,0.508344,0.0,0.0
3248,811.75,41.4316,42.3154,169.966,115.41,108.882,0.00793103,0.103088,20.9743,116.412,0.521098,0.0,0.0
3256,813.75,41.4937,42.4578,171.435,115.456,108.837,0.00810483,0.103512,20.9745,116.402,0.528417,0.0,0.0
3264,815.75,41.6317,42.664,171.707,115.465,109.131,0.00816722,0.103714,20.9747,116.362,0.504979,0.0,0.0
3272,817.75,41.8396,42.9088,164.871,115.489,109.201,0.00834828,0.103577,20.975,116.321,0.50111,0.0,0.0
3280,819.75,41.748,42.464,175.094,115.51,110.467,0.00877122,0.102739,20.9756,116.341,0.399554,0.0,0.0
3288,821.75,41.2996,42.5251,169.128,115.509,109.142,0.00920243,0.101206,20.9781,116.331,0.507499,0.0,0.0
3296,823.75,41.4407,42.1939,173.46,115.503,108.797,0.00930031,0.099869,20.9791,116.301,0.535343,0.0,0.0
3304,825.75,41.3559,42.0305,166.35,115.521,108.8,0.00916774,0.0992588,20.9796,116.271,0.536527,0.0,0.0
3312,827.75,41.3619,42.3721,168.7,115.494,109.204,0.0093446,0.0991156,20.9798,116.241,0.501204,0.0,0.0
3320,829.75,41.0567,41.8948,170.648,115.5,108.2,0.00981597,0.0986005,20.9807,116.221,0.584291,0.0,0.0
3328,831.75,40.553,42.2322,172.406,115.481,108.664,0.0103355,0.0979221,20.9815,116.191,0.544579,0.0,0.0
3336,833.75,40.9836,41.4146,168.165,115.471,109.014,0.0106368,0.0972096,20.9824,116.171,0.515044,0.0,0.0
3344,835.75,40.5324,42.1003,171.299,115.469,108.663,0.0105662,0.0961469,20.9836,116.151,0.543714,0.0,0.0
3352,837.75,40.4917,41.501,170.138,115.458,107.937,0.0102999,0.0956401,20.9842,116.141,0.602877,0.0,0.0
3360,839.75,40.3304,41.3249,176.184,115.463,109.604,0.0102555,0.0958518,20.9821,116.161,0.466097,0.0,0.0
3368,841.75,40.0408,41.2081,177.64,115.467,108.437,0.0103603,0.0960294,20.9807,116.141,0.562273,0.0,0.0
3376,843.75,40.9883,41.5634,169.619,115.442,109.589,0.0103893,0.0958654,20.9809,116.091,0.465651,0.0,0.0
3384,845.75,40.681,41.1582,174.146,115.449,108.802,0.0103178,0.0954638,20.9815,116.071,0.530683,0.0,0.0
3392,847.75,40.5368,41.2995,170.152,115.433,108.722,0.0102734,0.0951612,20.9817,116.051,0.536072,0.0,0.0
3400,849.75,40.2386,40.9821,169.034,115.435,110.102,0.0102764,0.0949716,20.9819,116.031,0.423297,0.0,0.0
3408,851.75,40.1773,40.8987,173.091,115.429,110.223,0.0103515,0.0950744,20.9819,116.011,0.413094,0.0,0.0
3416,853.75,39.4761,40.4426,167.614,115.439,109.982,0.0103714,0.0952254,20.9819,115.971,0.433438,0.0,0.0
3424,855.75,39.9807,40.4374,175.592,115.434,108.393,0.0102502,0.0951144,20.9819,115.971,0.563256,0.0,0.0
3432,857.75,39.3718,40.1183,172.624,115.442,109.363,0.0100616,0.0949485,20.9823,115.951,0.484196,0.0,0.0
3440,859.75,40.3377,40.6932,170.71,115.462,109.092,0.0100858,0.0947695,20.9826,115.931,0.507985,0.0,0.0
3448,861.75,39.6085,40.5711,174.991,115.461,108.892,0.010187,0.0949528,20.9834,115.901,0.524314,0.0,0.0
3456,863.75,39.8665,40.994,168.845,115.467,108.778,0.0101816,0.095188,20.985,115.881,0.534135,0.0,0.0
3464,865.75,38.6548,39.726,171.395,115.478,109.266,0.0100818,0.0952927,20.9857,115.861,0.494875,0.0,0.0
3472,867.75,39.9353,40.789,175.542,115.478,108.77,0.0100612,0.0950183,20.9862,115.851,0.535656,0.0,0.0
3480,869.75,39.2141,40.6157,168.414,115.486,108.465,0.010043,0.0948041,20.9871,115.801,0.561405,0.0,0.0
3488,871.75,39.3687,40.489,170.432,115.497,109.999,0.00994874,0.0945525,20.9874,115.761,0.436557,0.0,0.0
3496,873.75,39.9165,40.5293,175.661,115.501,110.143,0.00984328,0.094604,20.9876,115.791,0.425132,0.0,0.0
3504,875.75,39.6876,40.7571,174.426,115.503,109.321,0.00982664,0.0946914,20.9877,115.781,0.492312,0.0,0.0
3512,877.75,39.5411,40.8085,176.085,115.531,108.896,0.00987999,0.0949571,20.9866,115.761,0.529362,0.0,0.0
3520,879.75,39.5067,40.9689,175.955,115.515,109.356,0.00991159,0.0949025,20.9864,115.721,0.490418,0.0,0.0
3528,881.75,39.5199,40.7844,171.789,115.506,108.857,0.00998098,0.0945591,20.9874,115.711,0.530601,0.0,0.0
3536,883.75,39.8407,40.165,169.387,115.52,109.784,0.0100859,0.0943904,20.9881,115.681,0.45582,0.0,0.0
3544,885.75,39.5106,40.3067,169.117,115.502,108.663,0.0100859,0.0943815,20.9882,115.661,0.546325,0.0,0.0
3552,887.75,39.3961,40.1461,172.782,115.511,108.696,0.00995469,0.0941484,20.9885,115.641,0.544238,0.0,0.0
3560,889.75,39.6924,40.4036,168.365,115.517,109.247,,0.0939989,,115.651,0.499452,0.0,0.0
3568,891.75,39.5021,40.1791,169.977,115.494,109.326,,,,115.611,0.49124,0.0,0.0
3576,893.75,39.5057,40.0132,167.843,115.497,108.498,,,,115.611,0.55946,0.0,0.0
3584,895.75,39.2854,40.1336,170.493,115.476,110.028,,,,115.591,0.432607,0.0,0.0
3592,897.75,39.3097,40.3841,175.934,115.456,110.121,,,,115.591,0.423442,0.0,0.0
3596,898.75,38.9869,40.2402,166.169,115.446,109.043,,,,115.561,0.510671,0.0,0.0