File: 01_Data/EPDM_Membrane/Cone/EPDM_Membrane_Cone_HF50Scan_220311_R4.csv
Names,Time,Stack TC,Smoke TC,Exh Press,Smoke Comp,Smoke Meas,CO Meter,CO2 Meter,O2 Meter,Sample Mass,Ext Coeff,Start Test,Flame Verif
Chan Gain,,500,500,1,1,1,1,1,1,1,1,1.0,1.0
Offset,,0,0,0.135167,0,0,0,0,0,0,0,0.0,0.0
Gain,,1,1,25.011,13.0486,13.2841,1,1,1,1.00089,1.0079,1.0,1.0
Units,sec,C,C,Pa,%,%,%,%,%,g,/m,,
Baseline,,32.9333,33.8397,155.551,98.5375,95.0278,0.000302862,0.0585862,21.0029,-493.148,0.320737,,
7,1.5,31.0653,31.839,155.793,97.7671,94.1055,0.000410098,0.0626344,20.9988,510.125,0.337485,0.0,0.0
14,3.25,30.7748,32.0833,153.598,97.8021,94.6796,0.00029355,0.0620153,20.999,510.135,0.286885,0.0,0.0
21,5,30.8464,31.9761,156.148,97.828,94.1611,0.000208376,0.0617,20.9992,510.205,0.337775,0.0,0.0
28,6.75,31.0904,31.7799,155.058,97.8639,94.654,0.000237518,0.061605,20.9996,510.175,0.294848,0.0,0.0
35,8.5,31.1651,31.7735,156.371,97.9156,94.1181,0.000285883,0.0616173,20.9999,510.205,0.349725,0.0,0.0
42,10.25,30.7638,32.6036,154.393,97.9527,94.2867,0.000309321,0.0613633,21,510.145,0.33724,0.0,0.0
49,12,31.2313,31.9433,153.263,97.9837,94.2109,0.000348276,0.061003,20.9993,510.155,0.347155,0.0,0.0
56,13.75,31.7884,32.1007,156.807,98.0188,93.8388,0.000387832,0.0610588,20.9985,510.165,0.385311,0.0,0.0
63,15.5,31.3727,32.2572,153.368,98.0634,94.0779,0.000433339,0.0616448,20.9981,510.155,0.366826,0.0,0.0
70,17.25,31.5072,32.0132,156.106,98.1092,94.185,0.000592315,0.0622833,20.9975,510.085,0.360902,0.0,0.0
77,19,31.4052,32.2281,153.243,98.1601,91.6541,0.000874827,0.0637863,20.9926,510.175,0.606324,0.0,0.0
84,20.75,31.2844,31.5098,152.621,98.1769,91.4299,0.00162467,0.0724722,20.9704,510.075,0.629483,0.0,1.0
91,22.5,31.5316,32.1652,144.265,98.2354,82.4032,0.00304287,0.0942488,20.9295,510.034,1.55378,0.0,1.0
98,24.25,31.9039,32.3888,144.702,98.2788,69.3364,0.00577932,0.13915,20.8488,509.904,3.08417,0.0,1.0
105,26,32.4829,32.8009,140.317,98.3154,59.7592,0.00909224,0.213178,20.7098,509.764,4.40169,0.0,1.0
112,27.75,33.7875,34.6831,136.644,98.3513,55.6699,0.0131838,0.310049,20.5308,509.544,5.03161,0.0,0.0
119,29.5,35.1682,35.9848,129.534,98.4058,52.8107,0.0167312,0.399026,20.3757,509.374,5.50269,0.0,0.0
126,31.25,37.8232,38.2218,133.574,98.4468,50.0024,0.0206484,0.48212,20.2416,509.104,5.98947,0.0,0.0
133,33,39.9909,40.7594,124.305,98.4771,42.117,0.0238809,0.550704,20.1235,508.934,7.50953,0.0,0.0
140,34.75,42.195,43.4347,128.366,98.5038,44.6155,0.0265327,0.611399,20.0147,508.713,7.00241,0.0,0.0
147,36.5,44.6217,45.9169,123.609,98.5428,46.1102,0.0285292,0.661152,19.9387,508.423,6.71456,0.0,0.0
154,38.25,47.3318,48.7501,123.507,98.5795,44.1489,0.0300282,0.698545,19.8877,508.223,7.10215,0.0,0.0
161,40,49.4138,51.3709,126.239,98.6276,43.0725,0.0312303,0.720366,19.8606,507.953,7.32469,0.0,0.0
168,41.75,51.4127,53.6903,123.663,98.6547,46.8168,0.0320268,0.733843,19.8429,507.622,6.59014,0.0,0.0
175,43.5,53.5434,56.0658,127.98,98.6977,43.5846,0.032398,0.740987,19.8331,507.382,7.22649,0.0,0.0
182,45.25,55.452,58.5429,123.16,98.7272,42.2775,0.0324643,0.74047,19.8325,507.182,7.49831,0.0,0.0
189,47,57.1902,60.4081,124.769,98.7782,42.2723,0.0323415,0.738906,19.8348,506.922,7.50398,0.0,0.0
196,48.75,58.6471,62.3744,132.453,98.8072,44.009,0.0318785,0.736192,19.8431,506.702,7.15061,0.0,0.0
203,50.5,60.7611,64.3901,126.86,98.8347,43.6733,0.0314058,0.728441,19.8569,506.491,7.22076,0.0,0.0
210,52.25,61.824,65.8188,122.811,98.8642,44.6629,0.0307946,0.718894,19.872,506.251,7.0253,0.0,0.0
217,54,63.3357,67.6062,124.073,98.8916,47.3446,0.0301011,0.709081,19.8914,505.991,6.51222,0.0,0.0
224,55.75,64.7329,68.6838,126.055,98.9231,47.2632,0.0293811,0.698826,19.9146,505.761,6.53026,0.0,0.0
231,57.5,65.7296,69.9935,133.623,98.9255,46.5286,0.0287385,0.688217,19.9306,505.581,6.66897,0.0,0.0
238,59.25,66.3717,71.0796,129.934,98.9514,46.7568,0.0281903,0.677026,19.9476,505.37,6.62802,0.0,0.0
245,61,67.8606,72.4121,126.93,98.9705,48.346,0.0276057,0.665445,19.9654,505.15,6.33422,0.0,0.0
252,62.75,68.6466,72.9278,124.984,98.9932,50.4954,0.0267865,0.656236,19.9828,504.88,5.95166,0.0,0.0
259,64.5,69.1512,74.3649,130.315,99.0171,49.4438,0.0261028,0.645116,20.0015,504.68,6.13987,0.0,0.0
266,66.25,69.9012,75.2641,128.562,99.0362,48.8868,0.0255538,0.633999,20.0223,504.49,6.24174,0.0,0.0
273,68,69.8696,75.5023,128.251,99.0569,50.341,0.0252489,0.628198,20.0358,504.319,5.98444,0.0,0.0
280,69.75,71.5544,76.7147,124.888,99.0808,49.8302,0.0250459,0.622752,20.0467,504.099,6.07674,0.0,0.0
287,71.5,72.0019,77.6461,134.935,99.1115,50.431,0.0248827,0.616752,20.0584,503.949,5.97351,0.0,0.0
294,73.25,72.2011,78.1504,133.068,99.1099,54.0066,0.024653,0.60549,20.0792,503.709,5.36774,0.0,0.0
301,75,72.7242,78.4931,125.263,99.1274,51.6512,0.0242353,0.595556,20.0969,503.529,5.76355,0.0,0.0
308,76.75,73.112,79.5923,122.707,99.1716,51.9869,0.0237182,0.585069,20.1182,503.359,5.71022,0.0,0.0
315,78.5,73.3969,79.7277,130.535,99.176,50.5583,0.0231886,0.575315,20.1318,503.188,5.95698,0.0,0.0
322,80.25,73.8821,80.0048,133.916,99.1804,52.0781,0.0226592,0.568781,20.141,502.938,5.6955,0.0,0.0
329,82,74.3045,80.4244,127.924,99.2011,53.1139,0.0222467,0.563814,20.1477,502.788,5.52323,0.0,0.0
336,83.75,74.5953,80.3545,128.71,99.2218,52.6667,0.0219843,0.560764,20.151,502.608,5.59982,0.0,0.0
343,85.5,74.6997,80.9312,129.747,99.2297,52.4717,0.0218444,0.560299,20.1534,502.408,5.63333,0.0,0.0
350,87.25,74.7375,81.0514,129.565,99.2349,52.5082,0.0216864,0.558924,20.1566,502.228,5.62764,0.0,0.0
357,89,75.4789,81.8781,129.67,99.2281,52.7069,0.0214599,0.554752,20.1653,502.087,5.59365,0.0,0.0
364,90.75,75.7517,82.0836,130.583,99.2461,54.9163,0.0212578,0.550297,20.1744,501.887,5.23219,0.0,0.0
371,92.5,76.1035,82.2009,128.488,99.2791,52.8017,0.0211491,0.547638,20.1787,501.727,5.5823,0.0,0.0
378,94.25,75.8826,82.2601,129.037,99.2751,55.1668,0.0210241,0.545412,20.1827,501.537,5.19453,0.0,0.0
385,96,76.4025,83.1003,133.317,99.2676,54.9459,0.0208221,0.542599,20.187,501.367,5.22934,0.0,0.0
392,97.75,76.5263,82.7677,132.404,99.2719,54.2689,0.0206243,0.538443,20.1929,501.157,5.33935,0.0,0.0
399,99.5,76.4568,82.7936,135.135,99.2851,56.5918,0.0205153,0.532226,20.2022,500.996,4.96995,0.0,0.0
406,101.25,76.7668,83.2668,129.485,99.2934,54.7732,0.0204917,0.527464,20.2078,500.836,5.25948,0.0,0.0
413,103,76.8344,83.6514,128.414,99.2843,56.4094,0.0204759,0.526756,20.2097,500.676,4.99842,0.0,0.0
420,104.75,76.5271,83.9339,129.629,99.2803,56.9393,0.0204389,0.527857,20.208,500.446,4.91541,0.0,0.0
427,106.5,76.9539,83.6785,126.697,99.2851,57.5113,0.020305,0.528717,20.2069,500.306,4.82746,0.0,0.0
434,108.25,76.8618,84.5993,133.703,99.2978,52.5504,0.020158,0.526976,20.2108,500.146,5.62615,0.0,0.0
441,110,77.0032,84.4281,129.355,99.307,54.3414,0.0200906,0.524132,20.216,499.966,5.33065,0.0,0.0
448,111.75,77.7544,84.2391,128.362,99.2918,57.0386,0.0201415,0.522005,20.2181,499.785,4.90103,0.0,0.0
455,113.5,77.0027,85.1177,132.418,99.2907,56.9344,0.0202221,0.522053,20.2183,499.605,4.91709,0.0,0.0
462,115.25,77.459,84.3765,133.359,99.301,54.894,0.020312,0.523145,20.2172,499.435,5.24067,0.0,0.0
469,117,77.7927,84.7208,132.526,99.3014,55.1608,0.0204219,0.523494,20.2154,499.305,5.19785,0.0,0.0
476,118.75,78.3051,84.4086,127.365,99.3002,54.32,0.0205658,0.524589,20.2126,499.115,5.33355,0.0,0.0
483,120.5,77.7943,85.4418,129.142,99.297,58.2499,0.0206307,0.52731,20.2074,498.925,4.71569,0.0,0.0
490,122.25,78.1328,85.2683,129.085,99.2855,54.5883,0.0207544,0.531689,20.2006,498.754,5.28866,0.0,0.0
497,124,78.4395,85.5696,130.106,99.3002,55.0631,0.0210514,0.536537,20.1914,498.584,5.21342,0.0,0.0
504,125.75,78.4676,85.5184,130.789,99.3161,54.2141,0.02137,0.542888,20.1812,498.394,5.3522,0.0,0.0
511,127.5,78.8543,85.8353,127.944,99.2867,54.9998,0.021523,0.547447,20.1755,498.174,5.22237,0.0,0.0
518,129.25,78.9738,86.1574,128.647,99.2807,58.014,0.0216465,0.552085,20.1648,497.994,4.75012,0.0,0.0
525,131,78.721,86.3491,135.372,99.2986,53.6774,0.0217401,0.559102,20.153,497.814,5.43861,0.0,0.0
532,132.75,79.5061,86.5155,124.793,99.2923,53.9312,0.0220623,0.566438,20.1427,497.573,5.39634,0.0,0.0
539,134.5,80.1051,86.9802,130.521,99.2783,52.7531,0.022486,0.571902,20.1341,497.443,5.59037,0.0,0.0
546,136.25,79.9972,87.5391,127.075,99.2696,52.044,0.022953,0.578761,20.1232,497.233,5.70923,0.0,0.0
553,138,80.3336,87.9643,121.055,99.2763,52.098,0.0235668,0.590749,20.0972,497.013,5.70068,0.0,0.0
560,139.75,81.0694,88.6308,123.937,99.2739,46.9526,0.024485,0.603243,20.0699,496.763,6.61984,0.0,0.0
567,141.5,81.5003,88.7171,120.008,99.2735,51.0666,0.0256089,0.618034,20.0437,496.593,5.87721,0.0,0.0
574,143.25,81.8495,89.8828,126.162,99.2672,46.1621,0.0272392,0.635073,20.0117,496.332,6.76937,0.0,0.0
581,145,82.8536,90.2272,123.68,99.2588,42.134,0.0290035,0.657118,19.9694,496.122,7.57586,0.0,0.0
588,146.75,83.443,90.987,120.326,99.2807,44.0479,0.0311223,0.68317,19.9128,495.842,7.18506,0.0,0.0
595,148.5,84.3171,91.2393,125.684,99.268,40.9892,0.0330729,0.710738,19.8649,495.532,7.82023,0.0,0.0
602,150.25,84.6168,92.5814,116.89,99.2608,43.4982,0.0354558,0.743177,19.8079,495.271,7.29432,0.0,0.0
609,152,85.5808,93.7584,121.368,99.2461,40.9665,0.0380618,0.781343,19.7327,494.981,7.82318,0.0,0.0
616,153.75,87.3076,95.2409,112.837,99.2656,38.8454,0.0408407,0.828802,19.6584,494.631,8.29495,0.0,0.0
623,155.5,88.5537,96.4598,113.889,99.2648,38.9492,0.0434108,0.880744,19.5931,494.3,8.27129,0.0,0.0
630,157.25,89.7545,98.3795,110.118,99.2524,38.483,0.0460538,0.925588,19.514,493.95,8.37665,0.0,0.0
637,159,91.4894,100.336,115.66,99.2425,40.2351,0.0481697,0.974761,19.4278,493.6,7.98212,0.0,0.0
644,160.75,93.2094,102.293,107.658,99.2465,37.4294,0.0499279,1.01003,19.3595,493.27,8.62156,0.0,0.0
651,162.5,94.5612,103.74,106.198,99.2461,38.3877,0.0512076,1.04103,19.3103,492.889,8.398,0.0,0.0
658,164.25,96.1559,105.848,111.401,99.2453,37.4938,0.0519539,1.0632,19.2829,492.579,8.60625,0.0,0.0
665,166,97.7947,107.406,112.881,99.2349,39.4248,0.0519749,1.06935,19.2786,492.249,8.16134,0.0,0.0
672,167.75,99.037,109.149,110.356,99.221,38.3979,0.0514736,1.06467,19.2869,491.928,8.39343,0.0,0.0
679,169.5,100.465,110.379,114.629,99.2242,41.0642,0.050362,1.05817,19.2974,491.598,7.80016,0.0,0.0
686,171.25,102.03,111.102,115.787,99.2198,39.2071,0.0487208,1.04527,19.3235,491.248,8.20894,0.0,0.0
693,173,102.726,113.213,115.77,99.213,38.4704,0.0468231,1.02692,19.3637,490.998,8.37603,0.0,0.0
700,174.75,103.481,114.139,118.227,99.1899,40.1918,0.0452003,1.0026,19.4032,490.687,7.98697,0.0,0.0
707,176.5,104.251,115.056,116.043,99.1979,38.7935,0.043636,0.97941,19.4348,490.387,8.30074,0.0,0.0
714,178.25,104.688,115.557,115.757,99.2094,39.1673,0.0424836,0.960864,19.4618,490.077,8.21699,0.0,0.0
721,180,105.135,115.828,117.934,99.1915,39.3935,0.0414606,0.947257,19.4845,489.766,8.16447,0.0,0.0
728,181.75,105.117,116.364,124.129,99.1796,40.1022,0.040663,0.93487,19.508,489.506,8.00578,0.0,0.0
735,183.5,105.632,116.834,125.164,99.1636,41.8823,0.0400468,0.92349,19.5268,489.156,7.62036,0.0,0.0
742,185.25,105.797,116.95,117.596,99.164,44.3783,0.0392064,0.912404,19.5455,488.916,7.10859,0.0,0.0
749,187,106.135,117.684,122.199,99.1533,41.5357,0.0382023,0.901868,19.5661,488.655,7.69291,0.0,0.0
756,188.75,106.905,117.123,119.904,99.1421,44.4355,0.0372508,0.890984,19.5872,488.375,7.09526,0.0,0.0
763,190.5,106.317,117.873,118.549,99.1326,45.7859,0.0364205,0.880704,19.6033,488.095,6.82972,0.0,0.0
770,192.25,106.786,117.759,117.585,99.1286,42.1434,0.0358434,0.872033,19.6177,487.845,7.56229,0.0,0.0
777,194,106.97,118.329,116.566,99.1222,43.1743,0.0354953,0.866628,19.627,487.504,7.34805,0.0,0.0
784,195.75,107.03,118.644,115.557,99.1178,42.8719,0.0352714,0.859577,19.6402,487.274,7.40981,0.0,0.0
791,197.5,106.991,118.703,120.981,99.0912,40.3924,0.0351767,0.84916,19.6517,486.934,7.93413,0.0,0.0
798,199.25,107.062,118.718,116.15,99.0876,44.127,0.0351171,0.845665,19.6573,486.714,7.15199,0.0,0.0
805,201,107.201,118.178,117.13,99.09,42.3209,0.0350044,0.847321,19.6599,486.443,7.52168,0.0,0.0
812,202.75,107.084,119.006,117.747,99.0864,41.6812,0.0347248,0.845021,19.6636,486.193,7.65602,0.0,0.0
819,204.5,107.549,119.217,122.477,99.076,45.3959,0.034517,0.837356,19.6755,485.913,6.90031,0.0,0.0
826,206.25,107.467,118.977,121.4,99.0625,42.5216,0.0342965,0.821697,19.6988,485.703,7.4774,0.0,0.0
833,208,107.451,118.9,124.32,99.0577,43.8631,0.0339493,0.80517,19.7274,485.403,7.20236,0.0,0.0
840,209.75,107.326,118.995,123.197,99.0521,42.4697,0.0335661,0.78637,19.7583,485.142,7.48727,0.0,0.0
847,211.5,107.049,119.072,121.929,99.047,46.6352,0.0330715,0.77373,19.7762,484.902,6.65958,0.0,0.0
854,213.25,107.226,118.454,122.915,99.029,48.9857,0.0324559,0.765607,19.7896,484.682,6.22323,0.0,0.0
861,215,106.722,118.47,123.62,99.0123,47.6698,0.0318125,0.758154,19.8032,484.442,6.46249,0.0,0.0
868,216.75,106.957,118.323,116.695,99.0219,47.2299,0.0313689,0.748812,19.8213,484.252,6.54531,0.0,0.0
875,218.5,106.554,117.704,124.555,99.0175,47.1014,0.0311341,0.735808,19.8404,483.961,6.569,0.0,0.0
882,220.25,106.16,117.539,121.58,99.0023,48.4157,0.0309993,0.72203,19.8634,483.751,6.32433,0.0,0.0
889,222,105.769,117.69,121.395,98.9916,47.8311,0.0308805,0.712033,19.8772,483.511,6.43077,0.0,0.0
896,223.75,106.295,117.426,119.702,98.9968,47.8437,0.0306664,0.705331,19.8876,483.271,6.42891,0.0,0.0
903,225.5,105.274,117.322,123.999,98.98,49.5569,0.0304853,0.699894,19.896,483.04,6.11636,0.0,0.0
910,227.25,105.203,116.747,129.151,98.9773,47.373,0.0305644,0.695678,19.9052,482.83,6.51457,0.0,0.0
917,229,105.106,116.508,129.403,98.9613,46.8318,0.0308339,0.690443,19.913,482.56,6.61474,0.0,0.0
924,230.75,104.989,115.361,125.827,98.9653,44.9439,0.0309958,0.685398,19.9185,482.31,6.9789,0.0,0.0
931,232.5,104.452,115.555,128.909,98.9526,45.5382,0.0308638,0.680465,19.9245,482.11,6.86161,0.0,0.0
938,234.25,104.442,115.004,124.147,98.9462,46.6838,0.0306435,0.673497,19.9369,481.849,6.64137,0.0,0.0
945,236,103.98,114.559,128.338,98.9207,46.152,0.0304882,0.665677,19.9491,481.649,6.7404,0.0,0.0
952,237.75,103.833,114.016,129.041,98.9092,46.291,0.0303198,0.660074,19.9577,481.459,6.71277,0.0,0.0
959,239.5,102.852,113.972,129.561,98.9136,48.4858,0.0299385,0.652073,19.9721,481.209,6.3036,0.0,0.0
966,241.25,102.848,113.614,124.471,98.9139,48.0521,0.0295692,0.641333,19.9906,480.979,6.38308,0.0,0.0
973,243,102.168,113.098,123.263,98.8813,48.5349,0.0292713,0.632215,20.0063,480.778,6.29177,0.0,0.0
980,244.75,101.95,112.736,130.576,98.8594,47.1521,0.0290579,0.625667,20.0184,480.578,6.54537,0.0,0.0
987,246.5,101.624,111.751,125.398,98.8475,49.9169,0.0287356,0.618345,20.0293,480.398,6.04051,0.0,0.0
994,248.25,101.138,111.615,129.351,98.8359,51.0005,0.0283522,0.611985,20.0398,480.188,5.8496,0.0,0.0
1001,250,100.666,111.007,135.262,98.8379,48.1441,0.0277368,0.601961,20.0598,479.978,6.35937,0.0,0.0
1008,251.75,99.8884,110.836,127.75,98.8104,51.2835,0.0270806,0.589909,20.0825,479.768,5.7984,0.0,0.0
1015,253.5,99.4736,110.154,135.358,98.7953,51.8328,0.0265362,0.578786,20.1,479.547,5.70285,0.0,0.0
1022,255.25,99.5077,109.739,126.819,98.7933,48.5673,0.026199,0.571978,20.1107,479.367,6.27799,0.0,0.0
1029,257,98.9304,108.636,129.363,98.775,49.2439,0.025998,0.569836,20.1175,479.167,6.15403,0.0,0.0
1036,258.75,98.4248,108.524,125.523,98.767,50.7403,0.0258424,0.566738,20.1241,479.007,5.88867,0.0,0.0
1043,260.5,97.9747,107.59,131.08,98.763,51.9658,0.0256705,0.559294,20.137,478.827,5.67731,0.0,0.0
1050,262.25,97.7733,107.24,130.38,98.7487,53.2302,0.0254919,0.552867,20.1442,478.607,5.46347,0.0,0.0
1057,264,97.0083,106.471,125.857,98.7475,51.4473,0.0251663,0.551562,20.1505,478.446,5.76458,0.0,0.0
1064,265.75,96.4079,107.036,127.654,98.7375,50.3572,0.0248691,0.549303,20.1566,478.216,5.95304,0.0,0.0
1071,267.5,96.695,105.647,128.576,98.732,55.2289,0.0245745,0.543874,20.1645,478.046,5.13609,0.0,0.0
1078,269.25,96.2497,105.724,129.683,98.726,55.4855,0.0242217,0.538214,20.1732,477.846,5.09457,0.0,0.0
1085,271,95.9295,104.983,126.553,98.7216,57.0301,0.0239088,0.534114,20.178,477.666,4.85143,0.0,0.0
1092,272.75,95.6895,104.27,133.334,98.7172,56.0271,0.0236321,0.533174,20.1803,477.486,5.00791,0.0,0.0
1099,274.5,94.3855,104.985,129.565,98.7061,57.9917,0.023502,0.536335,20.1786,477.285,4.7022,0.0,0.0
1106,276.25,94.1629,104.656,128.523,98.6909,52.4381,0.0234571,0.538514,20.1733,477.115,5.59086,0.0,0.0
1113,278,94.6075,103.438,127.008,98.6917,54.6297,0.0234089,0.541831,20.1666,476.895,5.22894,0.0,0.0
1120,279.75,94.2302,103.36,123.708,98.6798,52.5715,0.0234411,0.546085,20.1606,476.775,5.5674,0.0,0.0
1127,281.5,94.1685,102.776,126.929,98.6722,50.3697,0.023514,0.550361,20.1542,476.545,5.94498,0.0,0.0
1134,283.25,93.8192,102.311,125.58,98.6575,56.4276,0.0234967,0.554216,20.1487,476.365,4.93957,0.0,0.0
1141,285,93.7297,102.254,127.784,98.6479,57.9609,0.0232842,0.558106,20.1456,476.194,4.70169,0.0,0.0
1148,286.75,93.3434,102.016,129.207,98.6456,57.6053,0.0230013,0.557682,20.1496,475.994,4.75588,0.0,0.0
1155,288.5,93.147,102.11,130.209,98.6412,58.4023,0.0227088,0.550919,20.1595,475.834,4.634,0.0,0.0
1162,290.25,92.5581,101.471,129.986,98.6256,58.4526,0.0224969,0.546395,20.1642,475.644,4.625,0.0,0.0
1169,292,92.973,101.066,125.037,98.6165,57.1825,0.0222507,0.54759,20.1664,475.464,4.81841,0.0,0.0
1176,293.75,92.2785,100.616,129.18,98.6165,59.7596,0.0220358,0.546249,20.1683,475.294,4.42866,0.0,0.0
1183,295.5,92.1924,100.746,127.711,98.6085,56.2152,0.0217216,0.539783,20.1774,475.123,4.96853,0.0,0.0
1190,297.25,91.6816,101.061,130.75,98.5894,59.5075,0.0214193,0.532458,20.1898,474.973,4.46362,0.0,0.0
1197,299,91.5898,100.344,125.749,98.5755,59.7471,0.0209818,0.525214,20.2048,474.753,4.42684,0.0,0.0
1204,300.75,91.7324,99.7917,130.219,98.5838,60.1095,0.0204934,0.519551,20.2159,474.613,4.37413,0.0,0.0
1211,302.5,91.4652,99.2961,132.219,98.5683,62.4044,0.0198892,0.513194,20.2285,474.473,4.04146,0.0,0.0
1218,304.25,91.0912,99.4772,130.882,98.5627,62.5934,0.0192879,0.506046,20.2416,474.323,4.01423,0.0,0.0
1225,306,90.5794,98.9925,130.948,98.54,61.6508,0.0186819,0.496689,20.2612,474.183,4.14635,0.0,0.0
1232,307.75,90.7572,98.1506,133.822,98.5376,61.3224,0.018279,0.486849,20.2754,474.022,4.19335,0.0,0.0
1239,309.5,90.1679,97.9357,131.955,98.5357,63.8185,0.0180243,0.481651,20.2825,473.842,3.84043,0.0,0.0
1246,311.25,89.64,98.114,132.702,98.5225,64.3933,0.0177105,0.476782,20.2925,473.722,3.75997,0.0,0.0
1253,313,89.858,96.8669,129.948,98.5126,66.904,0.0174237,0.469521,20.3086,473.582,3.42091,0.0,0.0
1260,314.75,89.3598,96.9569,133.976,98.4986,63.1467,0.0170758,0.460407,20.3224,473.452,3.93066,0.0,0.0
1267,316.5,89.1894,96.4368,135.281,98.501,65.0927,0.016676,0.454483,20.3302,473.322,3.66254,0.0,0.0
1274,318.25,88.3044,95.6054,132.281,98.495,65.0683,0.0162585,0.450474,20.337,473.182,3.66531,0.0,0.0
1281,320,88.1302,95.6739,136.818,98.4883,66.9449,0.0157678,0.446931,20.3453,473.062,3.41332,0.0,0.0
1288,321.75,87.8738,95.1442,135.046,98.4783,65.5856,0.0153496,0.44077,20.3582,472.931,3.5938,0.0,0.0
1295,323.5,87.4405,94.9058,133.535,98.4863,65.145,0.0150304,0.435204,20.3667,472.791,3.65412,0.0,0.0
1302,325.25,87.1709,94.3821,131.857,98.5197,63.6474,0.0148104,0.430031,20.3745,472.661,3.86273,0.0,0.0
1309,327,86.6139,93.9886,134.339,98.5436,67.0463,0.0146621,0.424902,20.3842,472.531,3.40491,0.0,0.0
1316,328.75,86.5676,93.2018,133.346,98.5663,68.0237,0.0145657,0.4217,20.3903,472.381,3.27899,0.0,0.0
1323,330.5,86.1204,92.9742,135.778,98.5874,66.4163,0.0143739,0.417969,20.3975,472.291,3.49231,0.0,0.0
1330,332.25,85.7365,92.7631,132.758,98.6141,67.2814,0.0141734,0.412369,20.4067,472.191,3.38028,0.0,0.0
1337,334,84.7035,92.6582,133.689,98.6169,68.7388,0.0140566,0.406794,20.4162,472.041,3.19106,0.0,0.0
1344,335.75,85.2121,91.4152,134.923,98.6229,68.5471,0.0138967,0.40279,20.4227,471.901,3.2163,0.0,0.0
1351,337.5,84.9092,91.2161,137.811,98.6296,69.4183,0.013427,0.398565,20.4301,471.77,3.10524,0.0,0.0
1358,339.25,84.3164,90.7708,139.762,98.6535,68.9322,0.0129157,0.391188,20.445,471.62,3.16951,0.0,0.0
1365,341,84.0226,90.3823,132.948,98.6627,69.2468,0.0125742,0.38067,20.4611,471.69,3.13007,0.0,0.0
1372,342.75,82.8756,89.757,138.184,98.6742,69.1872,0.0124134,0.373447,20.4735,471.4,3.13872,0.0,0.0
1379,344.5,82.5894,89.0128,138.872,98.6679,68.8438,0.0123716,0.369162,20.4807,471.39,3.18214,0.0,0.0
1386,346.25,82.4506,88.8826,137.296,98.6806,69.16,0.0124401,0.367415,20.4854,471.24,3.14276,0.0,0.0
1393,348,82.0937,88.1136,139.369,98.7097,66.4139,0.0124433,0.365296,20.4901,471.11,3.50359,0.0,0.0
1400,349.75,81.9747,87.4054,134.503,98.7077,67.4667,0.0122554,0.36228,20.4964,470.99,3.36436,0.0,0.0
1407,351.5,81.2828,87.196,137.717,98.7129,66.9786,0.0119474,0.357182,20.5031,470.89,3.42902,0.0,0.0
1414,353.25,80.7787,86.6911,135.125,98.7216,69.8302,0.0117731,0.351495,20.513,470.78,3.06118,0.0,0.0
1421,355,80.4492,86.0484,136.991,98.7559,69.3481,0.0118785,0.347765,20.519,470.679,3.12549,0.0,0.0
1428,356.75,79.9705,85.4841,134.134,98.7754,68.4668,0.0120373,0.346479,20.5228,470.539,3.24032,0.0,0.0
1435,358.5,79.4232,85.2592,136.787,98.7774,71.3889,0.0120279,0.344498,20.5267,470.439,2.87099,0.0,0.0
1442,360.25,79.1209,84.8054,139.052,98.7845,72.3805,0.0118534,0.341643,20.5318,470.359,2.74967,0.0,0.0
1449,362,79.3471,83.9616,136.231,98.7901,70.0487,0.0116,0.338158,20.5379,470.259,3.03969,0.0,0.0
1456,363.75,78.3965,83.8382,140.497,98.8176,73.8801,0.0113586,0.333784,20.5447,470.139,2.57132,0.0,0.0
1463,365.5,78.1348,83.5483,139.261,98.8236,70.4958,0.0111589,0.329223,20.5511,470.059,2.98642,0.0,0.0
1470,367.25,77.7636,83.2135,138.437,98.822,71.738,0.0110092,0.327636,20.5556,469.969,2.83185,0.0,0.0
1477,369,77.4925,82.8747,134.037,98.8232,70.4139,0.0109715,0.327641,20.5575,469.879,2.99667,0.0,0.0
1484,370.75,77.287,82.2303,137.396,98.8387,71.436,0.0110443,0.325521,20.5614,469.779,2.87065,0.0,0.0
1491,372.5,76.5578,81.7149,136.413,98.8443,73.1585,0.0112084,0.322779,20.566,469.709,2.66049,0.0,0.0
1498,374.25,76.2781,81.2913,140.669,98.8319,72.9631,0.0113427,0.319619,20.5713,469.628,2.68303,0.0,0.0
1505,376,76.3066,80.6875,140.453,98.8275,72.9935,0.011319,0.316551,20.5773,469.508,2.67896,0.0,0.0
1512,377.75,75.7198,80.5362,139.413,98.8395,71.9362,0.0111812,0.313854,20.5834,469.418,2.80902,0.0,0.0
1519,379.5,75.6189,80.0465,139.886,98.8542,74.1035,0.0109603,0.309794,20.5906,469.328,2.54791,0.0,0.0
1526,381.25,75.18,79.4901,138.988,98.8463,74.2563,0.0107619,0.304294,20.5996,469.258,2.52898,0.0,0.0
1533,383,74.3801,79.3867,139.281,98.8447,74.2612,0.0105539,0.301136,20.6062,469.158,2.52826,0.0,0.0
1540,384.75,74.4561,78.6824,137.716,98.8494,76.8484,0.0103147,0.298628,20.6118,469.088,2.2259,0.0,0.0
1547,386.5,73.9956,78.634,137.438,98.861,76.0478,0.010155,0.296026,20.615,468.998,2.31953,0.0,0.0
1554,388.25,73.6749,77.9979,141.607,98.8606,74.9581,0.0100624,0.295011,20.6168,468.928,2.4471,0.0,0.0
1561,390,73.2981,77.4289,141.014,98.8626,73.6543,0.00989909,0.295178,20.6177,468.818,2.60241,0.0,0.0
1568,391.75,72.9655,77.2826,143.093,98.855,77.4342,0.00969774,0.293932,20.6198,468.738,2.15926,0.0,0.0
1575,393.5,72.595,76.7083,139.353,98.8558,74.2969,0.00957036,0.291881,20.6224,468.658,2.52501,0.0,0.0
1582,395.25,72.0789,76.0675,138.405,98.8666,75.5333,0.00949474,0.289529,20.6278,468.588,2.38004,0.0,0.0
1589,397,71.9672,75.8502,138.818,98.8741,77.0021,0.00947389,0.287261,20.6331,468.508,2.21045,0.0,0.0
1596,398.75,71.1974,75.7346,142.101,98.8686,75.9704,0.00944732,0.285204,20.6365,468.377,2.32921,0.0,0.0
1603,400.5,71.3069,75.1944,137.176,98.8801,77.1403,0.00934245,0.28337,20.6404,468.377,2.19512,0.0,0.0
1610,402.25,71.0043,74.9754,143.928,98.8889,77.0722,0.00919097,0.281566,20.6431,468.277,2.20372,0.0,0.0
1617,404,71.0708,74.1958,137.819,98.8984,79.8622,0.00901107,0.279251,20.6465,468.217,1.89018,0.0,0.0
1624,405.75,70.3144,74.334,141.452,98.9028,78.1944,0.00888204,0.275435,20.6527,468.067,2.07717,0.0,0.0
1631,407.5,69.9225,73.7004,139.607,98.906,78.8738,0.0088069,0.273273,20.6569,468.027,2.00096,0.0,0.0
1638,409.25,69.6539,73.3951,144.893,98.91,79.2217,0.00877432,0.272588,20.6589,467.967,1.96241,0.0,0.0
1645,411,69.5677,72.9599,137.186,98.9112,79.248,0.00872401,0.272093,20.6598,467.887,1.95958,0.0,0.0
1652,412.75,69.2423,72.6303,139.191,98.9215,77.9061,0.00857181,0.270645,20.6655,467.797,2.11149,0.0,0.0
1659,414.5,69.1167,72.1572,139.422,98.9143,79.8204,0.00837389,0.268385,20.6702,467.707,1.89623,0.0,0.0
1666,416.25,69.2054,72.0992,145.177,98.9402,80.0304,0.00824189,0.266188,20.6762,467.647,1.87531,0.0,0.0
1673,418,68.3666,71.9001,142.615,98.9446,79.4548,0.00811425,0.264451,20.6794,467.597,1.93953,0.0,0.0
1680,419.75,68.1367,71.7964,146.869,98.9442,81.2268,0.00794695,0.262676,20.6834,467.507,1.74448,0.0,0.0
1687,421.5,67.9618,71.0526,142.119,98.9593,81.1672,0.00778754,0.260954,20.6862,467.447,1.75232,0.0,0.0
1694,423.25,67.7402,70.6404,143.976,98.9498,81.2219,0.00761868,0.258866,20.6897,467.397,1.74551,0.0,0.0
1701,425,67.52,70.4642,144.183,98.9613,81.3504,0.0075212,0.256897,20.6931,467.316,1.73256,0.0,0.0
1708,426.75,67.5373,70.2616,137.097,98.9649,81.6176,0.00749645,0.255411,20.6964,467.266,1.7039,0.0,0.0
1715,428.5,66.2814,70.1152,141.993,98.9697,81.9026,0.00748308,0.253626,20.6993,467.206,1.6735,0.0,0.0
1722,430.25,66.4715,69.7111,140.684,98.9669,82.9258,0.00746688,0.251993,20.7024,467.156,1.56348,0.0,0.0
1729,432,65.9928,69.124,141.745,98.9876,82.2427,0.00744455,0.250681,20.7048,467.076,1.63846,0.0,0.0
1736,433.75,66.0059,69.0272,144.335,98.988,81.9638,0.00741997,0.249534,20.7065,466.986,1.66853,0.0,0.0
1743,435.5,65.5437,68.9394,140.469,98.9856,83.1784,0.00738239,0.247748,20.7085,466.946,1.53827,0.0,0.0
1750,437.25,65.8082,68.1811,142.18,98.9904,83.7139,0.00729986,0.246085,20.7109,466.886,1.48195,0.0,0.0
1757,439,65.4646,68.3455,140.483,98.9868,82.5553,0.00721768,0.244446,20.7148,466.816,1.60486,0.0,0.0
1764,440.75,65.1725,67.8363,142.722,98.9988,83.3109,0.00716646,0.242671,20.7179,466.756,1.52536,0.0,0.0
1771,442.5,64.652,67.9545,141.541,99.0055,83.9393,0.00708511,0.241169,20.7204,466.696,1.45953,0.0,0.0
1778,444.25,64.6477,67.1166,143.374,98.9988,84.7606,0.00702221,0.239676,20.7226,466.646,1.37284,0.0,0.0
1785,446,64.7098,66.6548,142.375,99.0223,83.2225,0.00703707,0.238214,20.7253,466.596,1.53684,0.0,0.0
1792,447.75,64.4591,66.7315,143.11,99.0163,85.6841,0.00713525,0.237554,20.7278,466.526,1.27859,0.0,0.0
1799,449.5,63.9623,66.6885,144.415,99.0127,85.6618,0.00729855,0.236528,20.7292,466.466,1.28058,0.0,0.0
1806,451.25,64.1284,66.1779,141.298,99.0119,85.8187,0.00734186,0.234937,20.7328,466.386,1.26433,0.0,0.0
1813,453,63.1491,66.2722,144.386,99.0043,85.4117,0.00732255,0.23297,20.7362,466.316,1.30568,0.0,0.0
1820,454.75,63.0356,65.2516,141.661,99.0127,86.1066,0.00729793,0.231029,20.739,466.275,1.23479,0.0,0.0
1827,456.5,63.0977,65.7849,142.451,99.0215,85.7251,0.00715018,0.228911,20.7429,466.266,1.27483,0.0,0.0
1834,458.25,62.7353,65.1467,144.744,99.0191,85.8917,0.00694639,0.227295,20.7451,466.195,1.25745,0.0,0.0
1841,460,62.8173,64.6679,142.584,99.0103,85.4989,0.00676605,0.226124,20.7469,466.145,1.2972,0.0,0.0
1848,461.75,62.4162,64.7001,146.165,99.0131,85.9967,0.00667626,0.225754,20.7486,466.085,1.24612,0.0,0.0
1855,463.5,62.0584,64.4807,141.174,99.0195,86.7524,0.00667209,0.224463,20.7509,466.035,1.16934,0.0,0.0
1862,465.25,61.9769,64.2318,143.983,99.0255,87.022,0.00669992,0.223003,20.7539,465.965,1.14244,0.0,0.0
1869,467,61.6707,63.8657,146.175,99.0131,87.7278,0.00666642,0.222137,20.7556,465.925,1.06991,0.0,0.0
1876,468.75,61.631,63.9141,145.031,99.0027,88.2694,0.00652667,0.221267,20.7575,465.855,1.01457,0.0,0.0
1883,470.5,61.4745,63.6549,145.724,99.0159,87.9844,0.00646876,0.219056,20.7609,465.825,1.04434,0.0,0.0
1890,472.25,61.0659,63.508,141.221,99.0195,87.028,0.00655804,0.217385,20.7636,465.765,1.14129,0.0,0.0
1897,474,60.943,62.9783,145.647,99.0079,87.7813,0.00665535,0.217094,20.7651,465.725,1.06406,0.0,0.0
1904,475.75,60.4206,62.5546,146.775,99.0075,88.8572,0.00672356,0.216056,20.768,465.695,0.956317,0.0,0.0
1911,477.5,60.6934,62.726,143.48,99.0016,88.1542,0.00674605,0.214452,20.7701,465.635,1.02601,0.0,0.0
1918,479.25,60.479,62.3235,144.398,99.0075,88.0302,0.00673226,0.213264,20.7728,465.605,1.03899,0.0,0.0
1925,481,60.5894,61.7683,142.288,99.0051,88.2856,0.00674028,0.211484,20.7761,465.535,1.01316,0.0,0.0
1932,482.75,60.0941,62.1183,146.563,99.0023,89.2703,0.00677328,0.210068,20.7782,465.485,0.914846,0.0,0.0
1939,484.5,59.729,61.777,143.996,98.9928,88.4567,0.00671324,0.209218,20.7793,465.465,0.994945,0.0,0.0
1946,486.25,60.0901,61.8733,141.655,99.0012,89.1483,0.00662022,0.208402,20.7797,465.405,0.926834,0.0,0.0
1953,488,59.2919,61.3652,147.215,99.0023,89.109,0.00661192,0.206524,20.7837,465.355,0.930841,0.0,0.0
1960,489.75,59.7294,60.9749,146.09,99.002,89.533,0.00671689,0.204587,20.7867,465.325,0.888832,0.0,0.0
1967,491.5,58.8892,61.3097,142.351,98.9852,89.2573,0.00690941,0.20302,20.7889,465.285,0.914602,0.0,0.0
1974,493.25,58.8479,60.6393,143.426,99.002,89.7102,0.00703451,0.201602,20.7911,465.215,0.871355,0.0,0.0
1981,495,58.7865,60.4942,145.352,99.0091,90.4002,0.00709478,0.199958,20.7947,465.195,0.804255,0.0,0.0
1988,496.75,58.9359,59.7214,145.738,99.0107,89.801,0.00706567,0.198566,20.7964,465.165,0.863192,0.0,0.0
1995,498.5,58.0864,59.7694,147.764,98.9948,90.5834,0.00698437,0.197596,20.7985,465.094,0.785071,0.0,0.0
2002,500.25,58.0456,59.989,144.732,98.9972,91.0456,0.00695493,0.195997,20.801,465.084,0.740291,0.0,0.0
2009,502,58.0089,59.4597,144.589,99.0051,90.3503,0.00702026,0.194271,20.8031,465.044,0.808777,0.0,0.0
2016,503.75,57.8016,59.5482,145.571,99.0143,90.8019,0.00709817,0.193185,20.8041,464.974,0.765512,0.0,0.0
2023,505.5,57.8369,58.9333,150.361,98.9968,91.1137,0.00714346,0.192375,20.8053,464.954,0.733644,0.0,0.0
2030,507.25,57.5156,58.6739,147.631,98.9912,91.2811,0.00710703,0.191047,20.8067,464.884,0.716914,0.0,0.0
2037,509,57.1767,58.6472,145.979,98.9952,91.0435,0.00703284,0.188993,20.8121,464.874,0.740311,0.0,0.0
2044,510.75,57.1947,58.7299,145.167,99.0051,91.2191,0.00702874,0.18745,20.8153,464.834,0.724169,0.0,0.0
2051,512.5,56.8512,57.9201,148.538,99.0035,91.1343,0.00717863,0.186131,20.8175,464.794,0.732243,0.0,0.0
2058,514.25,56.8295,57.8469,155.328,98.9868,92.2443,0.00732851,0.184726,20.8204,464.774,0.623716,0.0,0.0
2065,516,56.7553,57.5563,148.167,98.9904,93.3413,0.00736581,0.183307,20.8237,464.694,0.519511,0.0,0.0
2072,517.75,56.3346,57.7748,145.171,98.9968,91.1947,0.00734415,0.182142,20.8257,464.664,0.725781,0.0,0.0
2079,519.5,56.1775,57.5457,147.707,98.9916,92.0315,0.00734683,0.180873,20.8275,464.644,0.644566,0.0,0.0
2086,521.25,55.8028,57.2743,148.482,99,92.3055,0.00738812,0.178648,20.8309,464.584,0.619024,0.0,0.0
2093,523,55.6703,57.1434,148.689,98.9805,91.6492,0.0074838,0.176501,20.834,464.574,0.680372,0.0,0.0
2100,524.75,55.6321,56.9549,145.735,98.9952,92.58,0.00761193,0.175163,20.8367,464.554,0.592348,0.0,0.0
2107,526.5,55.1392,56.5551,148.482,99.0004,91.8284,0.00777538,0.174636,20.838,464.504,0.664881,0.0,0.0
2114,528.25,55.09,56.3631,144.619,99.0139,92.2772,0.00789531,0.174576,20.8384,464.464,0.622988,0.0,0.0
2121,530,54.7275,56.0627,148.675,98.9876,93.3794,0.00794114,0.174032,20.8385,464.454,0.515654,0.0,0.0
2128,531.75,54.9373,55.4679,149.108,99.0055,92.9205,0.00797626,0.173172,20.8405,464.404,0.560812,0.0,0.0
2135,533.5,54.5256,55.8639,142.639,99.0083,93.4617,0.00802729,0.172569,20.8424,464.374,0.509715,0.0,0.0
2142,535.25,54.0034,55.4453,147.717,98.9996,93.6097,0.00799392,0.171465,20.8455,464.344,0.494946,0.0,0.0
2149,537,54.2755,55.0319,146.216,98.9932,94.1229,0.00802532,0.169051,20.8492,464.274,0.446035,0.0,0.0
2156,538.75,53.4729,55.0742,144.588,98.9916,92.9781,0.00820647,0.167466,20.851,464.264,0.554091,0.0,0.0
2163,540.5,53.8291,54.7404,146.345,99.002,93.7589,0.00850705,0.167124,20.8518,464.244,0.48108,0.0,0.0
2170,542.25,53.3221,54.3338,149.647,99.0091,94.0889,0.00878129,0.167298,20.8522,464.214,0.450657,0.0,0.0
2177,544,53.1895,53.7987,147.711,98.9968,93.6267,0.00891419,0.167141,20.8524,464.174,0.493089,0.0,0.0
2184,545.75,53.2517,54.1235,152.191,98.9912,93.4334,0.00892327,0.166553,20.8531,464.134,0.51087,0.0,0.0
2191,547.5,53.0272,53.9228,147.19,98.9932,93.6146,0.00893036,0.165524,20.8541,464.104,0.493917,0.0,0.0
2198,549.25,52.864,53.7316,148.11,98.9972,93.1917,0.00895959,0.164719,20.8548,464.064,0.534297,0.0,0.0
2205,551,52.7602,53.6072,148.001,98.9932,93.5704,0.00901687,0.164075,20.8564,464.044,0.498092,0.0,0.0
2212,552.75,52.4079,53.7552,153.668,98.9805,93.8505,0.00911816,0.163159,20.8587,464.034,0.470524,0.0,0.0
2219,554.5,52.1618,53.4001,147.605,98.9721,94.3467,0.00924554,0.161983,20.8609,464.003,0.423154,0.0,0.0
2226,556.25,52.012,53.066,148.885,98.9809,93.3953,0.0094231,0.160923,20.8631,463.973,0.513553,0.0,0.0
2233,558,52.1223,53.0124,150.373,98.9785,93.9831,0.00963797,0.160449,20.8642,463.923,0.457866,0.0,0.0
2240,559.75,51.714,52.6944,150.493,98.9737,93.7954,0.00981502,0.160654,20.8648,463.893,0.475114,0.0,0.0
2247,561.5,51.7419,52.5363,151.85,98.9745,93.7743,0.00993634,0.160823,20.8651,463.903,0.477173,0.0,0.0
2254,563.25,51.5947,52.2902,150.941,98.9653,93.8542,0.00993428,0.160379,20.8658,463.883,0.468829,0.0,0.0
2261,565,51.1661,52.2206,154.262,98.9864,94.0402,0.00985756,0.159565,20.8672,463.843,0.453202,0.0,0.0
2268,566.75,51.2441,51.894,151.438,98.9721,93.8769,0.00987159,0.159146,20.8687,463.783,0.467295,0.0,0.0
2275,568.5,51.0317,52.0036,151.658,98.9566,93.2663,0.010013,0.158934,20.8693,463.753,0.523595,0.0,0.0
2282,570.25,50.8325,51.8252,148.698,98.9601,94.2202,0.0102337,0.158498,20.8696,463.763,0.433948,0.0,0.0
2289,572,51.0217,51.7662,151.444,98.9757,93.7816,0.0104409,0.15779,20.871,463.693,0.476592,0.0,0.0
2296,573.75,50.5679,51.1382,147.697,98.9721,93.8505,0.0105505,0.157496,20.8711,463.653,0.469777,0.0,0.0
2303,575.5,50.5661,51.4777,150.232,98.9645,93.673,0.0105717,0.157324,20.8708,463.633,0.485845,0.0,0.0
2310,577.25,50.0941,51.1788,152.314,98.9661,93.709,0.0105388,0.157284,20.8708,463.583,0.482582,0.0,0.0
2317,579,50.3198,51.2788,149.79,98.9729,94.1404,0.0105632,0.156914,20.8708,463.553,0.442583,0.0,0.0
2324,580.75,50.3376,50.8593,149.135,98.9753,93.3653,0.0106208,0.156457,20.8708,463.543,0.515894,0.0,0.0
2331,582.5,49.8673,51.0144,149.69,98.9665,92.9501,0.0106399,0.156089,20.8716,463.533,0.554511,0.0,0.0
2338,584.25,49.8901,50.6987,151.102,98.9574,93.5128,0.0106126,0.156002,20.8724,463.543,0.500331,0.0,0.0
2345,586,49.7626,50.5949,149.848,98.9625,94.6147,0.0107188,0.155423,20.8736,463.503,0.397224,0.0,0.0
2352,587.75,49.8061,50.4005,147.075,98.9705,94.6488,0.0109313,0.154187,20.8753,463.493,0.394754,0.0,0.0
2359,589.5,49.7027,49.855,149.328,98.9574,94.8973,0.0111476,0.153543,20.8762,463.463,0.370397,0.0,0.0
2366,591.25,49.4608,50.1425,151.529,98.955,94.3609,0.0113433,0.153232,20.8766,463.443,0.420295,0.0,0.0
2373,593,49.3866,50.0965,150.235,98.9414,94.1562,0.0115975,0.153137,20.8768,463.393,0.438289,0.0,0.0
2380,594.75,49.2746,49.7479,154.181,98.9601,94.2142,0.0117698,0.152722,20.8769,463.353,0.434519,0.0,0.0
2387,596.5,49.0392,49.7063,147.044,98.9745,94.0536,0.0118942,0.152552,20.8768,463.323,0.450877,0.0,0.0
2394,598.25,48.9689,49.4038,151.744,98.9617,93.9717,0.012041,0.152675,20.8765,463.323,0.45744,0.0,0.0
2401,600,48.7416,49.252,148.486,98.9609,94.5583,0.0121732,0.152737,20.8764,463.303,0.402349,0.0,0.0
2408,601.75,48.9373,49.2287,149.117,98.9769,94.4789,0.0122629,0.152269,20.8766,463.273,0.411205,0.0,0.0
2415,603.5,48.4583,49.0547,151.574,98.9872,94.7894,0.0122882,0.151982,20.8777,463.253,0.383117,0.0,0.0
2422,605.25,48.1103,48.8489,151.963,98.9705,93.6892,0.0122042,0.151078,20.8794,463.163,0.484848,0.0,0.0
2429,607,48.2638,48.7995,146.047,98.9574,93.9515,0.0120919,0.150537,20.8799,463.183,0.458956,0.0,0.0
2436,608.75,48.2179,48.1661,150.751,98.9645,93.6596,0.0120798,0.150495,20.8796,463.143,0.487107,0.0,0.0
2443,610.5,48.0806,48.7052,147.333,98.9713,93.7111,0.0121683,0.150981,20.8786,463.103,0.482853,0.0,0.0
2450,612.25,47.7761,48.4881,152.353,98.9789,94.003,0.0122759,0.151607,20.8782,463.083,0.456033,0.0,0.0
2457,614,47.7429,48.6622,148.008,98.9677,93.9093,0.0125096,0.151745,20.878,463.063,0.463849,0.0,0.0
2464,615.75,47.7779,48.5225,146.714,98.9566,94.382,0.0125954,0.151877,20.8779,463.033,0.418463,0.0,0.0
2471,617.5,47.8806,48.2699,148,98.9585,93.8165,0.0124902,0.151875,20.8778,462.983,0.471776,0.0,0.0
2478,619.25,47.6761,48.2121,153.272,98.9705,93.8667,0.0123324,0.151637,20.8794,462.993,0.468107,0.0,0.0
2485,621,47.6075,47.9156,150.371,98.9589,93.9681,0.0121833,0.151022,20.8816,462.973,0.457534,0.0,0.0
2492,622.75,47.2526,48.1264,146.508,98.9438,93.69,0.0121026,0.149973,20.8828,462.963,0.482388,0.0,0.0
2499,624.5,47.2859,48.2262,151.141,98.9486,93.8351,0.0120871,0.148998,20.8844,462.913,0.469129,0.0,0.0
2506,626.25,47.0759,47.889,154.289,98.9554,93.8513,0.0120654,0.148122,20.8854,462.902,0.468205,0.0,0.0
2513,628,47.2815,47.7836,150.435,98.9522,94.3386,0.0121076,0.147204,20.8863,462.902,0.422135,0.0,0.0
2520,629.75,47.0663,47.4678,155.084,98.9438,94.3159,0.0122929,0.146061,20.8875,462.842,0.423516,0.0,0.0
2527,631.5,46.3541,46.7971,151.712,98.9514,94.3658,0.012622,0.145196,20.887,462.802,0.419519,0.0,0.0
2534,633.25,46.2058,46.9422,150.544,98.9558,94.5105,0.0128129,0.146437,20.8851,462.812,0.406361,0.0,0.0
2541,635,46.3903,47.134,149.72,98.9562,94.2263,0.0128693,0.148959,20.8821,462.772,0.433021,0.0,0.0
2548,636.75,45.7791,46.566,148.51,98.951,93.9263,0.0129456,0.150824,20.8798,462.712,0.460752,0.0,0.0
2555,638.5,46.2166,46.6937,149.708,98.9422,94.1801,0.0130415,0.152204,20.8782,462.692,0.436114,0.0,0.0
2562,640.25,46.2687,46.4851,146.989,98.9362,93.8992,0.0131481,0.15224,20.8782,462.672,0.461993,0.0,0.0
2569,642,46.1307,45.9439,150.826,98.9442,95.2167,0.0132853,0.151271,20.8789,462.652,0.33951,0.0,0.0
2576,643.75,45.5687,45.3404,153.199,98.9327,94.1181,0.0134218,0.150054,20.8804,462.632,0.441085,0.0,0.0
2583,645.5,46.1184,45.9124,150.917,98.9271,94.0654,0.0135314,0.149069,20.882,462.632,0.445538,0.0,0.0
2590,647.25,45.5136,46.4608,150.528,98.9295,94.082,0.0135652,0.148471,20.8838,462.602,0.44419,0.0,0.0
2597,649,45.8351,46.416,148.957,98.9374,94.9159,0.0135958,0.147596,20.8854,462.562,0.366881,0.0,0.0
2604,650.75,45.0148,45.7518,151.043,98.9311,93.8489,0.013623,0.146604,20.8871,462.542,0.466265,0.0,0.0
2611,652.5,46.0984,46.1799,145.689,98.9247,94.172,0.013537,0.145637,20.8888,462.522,0.435308,0.0,0.0
2618,654.25,45.4492,46.2898,152.382,98.9159,94.0119,0.0133246,0.144562,20.8904,462.492,0.449572,0.0,0.0
2625,656,45.4722,45.4885,151.246,98.9092,93.4626,0.0131072,0.143741,20.8912,462.452,0.500779,0.0,0.0
2632,657.75,45.4432,45.4373,148.544,98.9132,94.4675,0.0129804,0.143329,20.8915,462.442,0.406575,0.0,0.0
2639,659.5,45.4468,45.8916,153.884,98.8905,94.4023,0.0129012,0.142914,20.8917,462.412,0.410656,0.0,0.0
2646,661.25,45.3028,45.5474,148.74,98.8777,93.5132,0.0128452,0.142672,20.8929,462.372,0.493174,0.0,0.0
2653,663,45.262,46.0493,148.826,98.8693,94.1436,0.0128062,0.142498,20.8935,462.342,0.433025,0.0,0.0
2660,664.75,44.6667,45.5952,150.573,98.8725,92.8719,0.0127713,0.142199,20.8939,462.342,0.553557,0.0,0.0
2667,666.5,44.9416,45.1715,152.779,98.8737,93.9077,0.0127579,0.142092,20.8938,462.292,0.455602,0.0,0.0
2674,668.25,44.9942,45.3175,155.432,98.8482,94.7919,0.0127074,0.142148,20.8938,462.252,0.370469,0.0,0.0
2681,670,44.7716,44.7449,150.816,98.8339,94.7092,0.0126034,0.142405,20.8933,462.242,0.376903,0.0,0.0
2688,671.75,43.8351,44.8292,152.261,98.8311,93.8128,0.0124953,0.14244,20.8929,462.222,0.460727,0.0,0.0
2695,673.5,44.8044,45.3028,151.321,98.8307,94.3151,0.0123396,0.142138,20.8933,462.192,0.413481,0.0,0.0
2702,675.25,44.1768,45.1605,152.78,98.8152,94.326,0.0122525,0.141868,20.8935,462.182,0.411066,0.0,0.0
2709,677,44.4108,44.982,151.616,98.7949,94.1193,0.0122483,0.141664,20.8936,462.152,0.428649,0.0,0.0
2716,678.75,44.8687,44.9355,152.125,98.7901,94.7529,0.0123184,0.141434,20.8937,462.142,0.368898,0.0,0.0
2723,680.5,44.7052,45.0034,146.958,98.7985,93.8011,0.0123878,0.141555,20.8939,462.132,0.458914,0.0,0.0
2730,682.25,44.4985,44.8858,147.534,98.7837,94.7298,0.0124905,0.141553,20.8942,462.102,0.370484,0.0,0.0
2737,684,44.3031,44.8522,150.828,98.7714,94.6504,0.0125449,0.141278,20.8944,462.092,0.376799,0.0,0.0
2744,685.75,44.8326,44.794,150.673,98.7682,94.9159,0.0125239,0.141426,20.8945,462.062,0.351744,0.0,0.0
2751,687.5,44.566,44.704,154.568,98.7642,94.3666,0.0124745,0.141294,20.8945,462.062,0.402704,0.0,0.0
2758,689.25,44.4522,44.8885,146.076,98.7527,94.8628,0.0125028,0.141463,20.8925,462.022,0.355303,0.0,0.0
2765,691,44.6279,44.5834,151.007,98.7427,93.589,0.0125541,0.141952,20.891,462.022,0.473931,0.0,0.0
2772,692.75,43.9532,44.4638,156.342,98.7411,94.0763,0.0125019,0.142285,20.89,461.962,0.427875,0.0,0.0
2779,694.5,43.5576,44.5136,151.703,98.7411,94.3897,0.0123854,0.142055,20.8899,461.942,0.398472,0.0,0.0
2786,696.25,44.3495,44.4904,147.839,98.7507,93.482,0.0122237,0.14165,20.8905,461.932,0.48476,0.0,0.0
2793,698,44.0961,44.4642,149.267,98.7371,94.3423,0.0120404,0.141346,20.8917,461.912,0.402559,0.0,0.0
2800,699.75,43.9098,44.1147,154.127,98.7336,94.4088,0.0118185,0.140887,20.8926,461.912,0.39601,0.0,0.0
2807,701.5,43.9051,43.6215,154.551,98.728,93.8088,0.0116683,0.140541,20.8931,461.852,0.451879,0.0,0.0
2814,703.25,44.2852,44.1457,151.046,98.7547,94.4821,0.0116913,0.140235,20.8929,461.812,0.39103,0.0,0.0
2821,705,43.8242,43.7484,151.093,98.7407,94.4444,0.0117692,0.140104,20.8927,461.812,0.393312,0.0,0.0
2828,706.75,43.2163,43.9274,152.666,98.7344,94.1862,0.011839,0.140435,20.8927,461.781,0.416949,0.0,0.0
2835,708.5,43.3801,43.7157,152.507,98.734,93.8371,0.0118417,0.140694,20.8927,461.751,0.449738,0.0,0.0
2842,710.25,43.5598,43.6712,151.289,98.73,93.5493,0.0117847,0.140461,20.8926,461.731,0.476543,0.0,0.0
2849,712,43.9236,43.8345,151.666,98.7523,93.5594,0.0116866,0.139761,20.894,461.711,0.477583,0.0,0.0
2856,713.75,43.8667,43.7984,153.936,98.7248,94.0492,0.011548,0.139046,20.8958,461.661,0.428965,0.0,0.0
2863,715.5,44.218,44.1719,148.191,98.7196,94.4047,0.0114636,0.13858,20.8973,461.671,0.395141,0.0,0.0
2870,717.25,43.3076,43.4828,153.427,98.7216,93.3782,0.0115552,0.138219,20.8991,461.631,0.491978,0.0,0.0
2877,719,43.0787,43.9074,150.47,98.7419,93.9296,0.011718,0.137846,20.9007,461.601,0.441747,0.0,0.0
2884,720.75,43.7032,43.5518,151.234,98.7423,93.3239,0.0118049,0.137637,20.9015,461.591,0.498977,0.0,0.0
2891,722.5,43.3894,43.673,152.261,98.7344,93.4309,0.0118113,0.137181,20.9027,461.581,0.488131,0.0,0.0
2898,724.25,43.298,43.2802,149.588,98.7324,93.7123,0.0118077,0.136697,20.9037,461.571,0.461369,0.0,0.0
2905,726,43.2315,43.579,150.116,98.7499,93.5582,0.0117979,0.136726,20.9032,461.531,0.477484,0.0,0.0
2912,727.75,43.219,44.0788,148.553,98.767,94.7075,0.0117315,0.137217,20.9027,461.521,0.371068,0.0,0.0
2919,729.5,43.32,43.7744,151.602,98.7559,94.3139,0.0115891,0.137257,20.9024,461.481,0.406895,0.0,0.0
2926,731.25,43.3989,43.0646,155.977,98.7638,93.5124,0.0113961,0.136593,20.9035,461.451,0.483062,0.0,0.0
2933,733,43.0711,43.429,151.528,98.7694,94.4724,0.0112253,0.136033,20.904,461.421,0.39326,0.0,0.0
2940,734.75,43.3351,43.5519,151.891,98.7933,93.8992,0.0111611,0.135994,20.9043,461.421,0.449209,0.0,0.0
2947,736.5,42.9568,43.5762,148.375,98.8052,93.9547,0.0112654,0.136376,20.9045,461.401,0.44505,0.0,0.0
2954,738.25,43.072,43.6245,151.829,98.8164,94.3451,0.0113438,0.136646,20.9046,461.381,0.409387,0.0,0.0
2961,740,43.1763,43.5239,152.533,98.8204,93.8538,,0.136467,,461.351,0.455908,0.0,0.0
2968,741.75,42.854,43.8061,146.927,98.8486,94.1611,,0.136624,,461.371,0.429536,0.0,0.0
2975,743.5,43.3061,43.4428,151.16,98.8486,94.7237,,,,461.381,0.376859,0.0,0.0
2982,745.25,42.2158,42.9438,153.533,98.8411,94.5843,,,,461.321,0.389209,0.0,0.0
2989,747,42.7627,43.5485,149.233,98.8451,94.2182,,,,461.231,0.42385,0.0,0.0
2996,748.75,42.9099,43.562,151.745,98.8554,94.9694,,,,461.271,0.354564,0.0,0.0
3001,750,42.7666,43.1128,152.724,98.8475,94.787,,,,461.251,0.370852,0.0,0.0