File: 01_Data/EPDM_Membrane/Cone/EPDM_Membrane_Cone_HF25-Frame+GridScan_220311_R4.csv
Names,Time,Stack TC,Smoke TC,Exh Press,Smoke Comp,Smoke Meas,CO Meter,CO2 Meter,O2 Meter,Sample Mass,Ext Coeff,Start Test,Flame Verif
Chan Gain,,500,500,1,1,1,1,1,1,1,1,1.0,1.0
Offset,,0,0,0.136191,0,0,0,0,0,0,0,0.0,0.0
Gain,,1,1,25.011,13.291,13.2919,1,1,1,1.00093,1.00758,1.0,1.0
Units,sec,C,C,Pa,%,%,%,%,%,g,/m,,
Baseline,,18.9491,19.6415,176.164,100.15,98.1024,0.000820186,0.0675592,21.0282,-0.60114,0.182584,,
12,2.75,17.3931,18.8977,176.327,100.368,98.777,0.000518277,0.0711341,21.0282,1030.68,0.141252,0.0,0.0
24,5.75,18.6261,18.5623,178.175,100.353,98.9486,0.000761132,0.0708951,21.027,1030.69,0.124591,0.0,0.0
36,8.75,17.8541,18.4712,177.869,100.347,98.9186,0.000895959,0.0721183,21.0269,1030.77,0.126702,0.0,0.0
48,11.75,18.0036,18.1799,170.134,100.341,98.8439,0.000866409,0.0723217,21.0251,1030.73,0.132872,0.0,0.0
60,14.75,18.3194,19.0774,177.635,100.321,99.3551,0.000587397,0.0717214,21.0251,1030.71,0.0855369,0.0,0.0
72,17.75,18.0239,18.4479,173.346,100.305,98.964,0.000476933,0.0712848,21.0256,1030.69,0.118998,0.0,0.0
84,20.75,18.4372,19.5095,178.081,100.299,99.0549,0.0006523,0.0700759,21.0282,1030.72,0.110315,0.0,0.0
96,23.75,18.4033,18.8363,175.792,100.267,98.1941,0.000831557,0.0684334,21.031,1030.7,0.184666,0.0,0.0
108,26.75,18.3699,19.1978,173.537,100.263,98.7048,0.000962601,0.0672584,21.0323,1030.72,0.138424,0.0,0.0
120,29.75,18.3155,18.6817,177.235,100.242,98.893,0.00100977,0.0666543,21.0326,1030.73,0.119762,0.0,0.0
132,32.75,18.5309,18.5764,178.816,100.227,99.207,0.000890691,0.0664004,21.0327,1030.73,0.0904243,0.0,0.0
144,35.75,18.7657,18.79,179.955,100.205,98.8525,0.000653685,0.0666044,21.0327,1030.71,0.120098,0.0,0.0
156,38.75,18.917,19.3058,175.128,100.19,98.7608,0.000512253,0.067542,21.0311,1030.68,0.12701,0.0,0.0
168,41.75,18.0495,18.9733,177.401,100.153,98.6561,0.000650249,0.0683924,21.0283,1030.69,0.133053,0.0,0.0
180,44.75,18.485,18.4637,177.36,100.141,98.7048,0.000740603,0.0681892,21.028,1030.7,0.127692,0.0,0.0
192,47.75,18.7038,19.0304,164.372,100.105,98.1454,0.000607248,0.0680513,21.0291,1030.73,0.17477,0.0,0.0
204,50.75,18.4387,18.6954,170.943,100.088,98.2116,0.000498904,0.0684632,21.0281,1030.68,0.167314,0.0,0.0
216,53.75,18.3457,19.0369,175.613,100.082,98.6699,0.000629628,0.0689545,21.0275,1030.68,0.125551,0.0,0.0
228,56.75,18.7487,19.1269,173.707,100.028,98.2148,0.000804806,0.0689276,21.0281,1030.69,0.161684,0.0,0.0
240,59.75,18.5706,18.882,174.371,99.9802,98.2355,0.000787676,0.0690457,21.0289,1030.7,0.155592,0.0,0.0
252,62.75,18.3418,18.7581,176.533,99.9457,98.214,0.000823408,0.0703672,21.0263,1030.68,0.154479,0.0,0.0
264,65.75,18.5855,19.1491,178.143,99.9051,97.9215,0.000885286,0.072345,21.0242,1030.67,0.177249,0.0,0.0
276,68.75,18.6605,19.2999,175.086,99.8788,98.487,0.000669981,0.0729283,21.0247,1030.65,0.124025,0.0,0.0
288,71.75,18.6168,19.2471,176.644,99.8483,98.4184,0.000491316,0.0720718,21.0248,1030.67,0.127487,0.0,0.0
300,74.75,18.4692,19.4231,178.055,99.8277,98.2116,0.000419467,0.070791,21.0264,1030.66,0.144254,0.0,0.0
312,77.75,18.2478,19.0818,177.727,99.7989,98.0895,0.000476245,0.0700596,21.0269,1030.65,0.152698,0.0,0.0
324,80.75,18.5667,19.5084,174.616,99.7802,98.0599,0.000580926,0.0691741,21.0301,1030.66,0.153715,0.0,0.0
336,83.75,18.9364,19.2675,178.398,99.7615,97.4623,0.000639984,0.0682669,21.0308,1030.65,0.206082,0.0,0.0
348,86.75,18.7855,19.2881,176.646,99.7417,97.8165,0.000736531,0.067447,21.031,1030.63,0.172264,0.0,0.0
360,89.75,19.2999,19.4123,178.273,99.7372,97.3058,0.000722751,0.0669459,21.0311,1030.64,0.218135,0.0,0.0
372,92.75,18.7087,19.4316,172.018,99.7035,97.7832,0.000634199,0.0670252,21.0306,1030.63,0.171891,0.0,0.0
384,95.75,18.9548,19.0915,174.853,99.6865,96.9265,0.000604835,0.0689724,21.0293,1030.62,0.248157,0.0,0.0
396,98.75,18.9016,19.4392,182.67,99.6845,97.2774,0.000587289,0.0708704,21.0289,1030.61,0.216041,0.0,0.0
408,101.75,18.8217,19.71,179.226,99.6549,97.4546,0.000529204,0.0707556,21.0288,1030.64,0.197324,0.0,0.0
420,104.75,19.0938,19.5295,175.265,99.6313,97.6364,0.000777087,0.0697633,21.0312,1030.65,0.178771,0.0,0.0
432,107.75,18.6852,19.481,176.485,99.6212,97.1938,0.00085828,0.068309,21.0334,1030.62,0.218024,0.0,0.0
444,110.75,18.9869,19.3225,173.501,99.6029,96.9573,0.000744703,0.0674231,21.0346,1030.61,0.237936,0.0,0.0
456,113.75,18.6955,19.2422,174.418,99.6642,96.9687,0.000658233,0.0669293,21.0349,1030.59,0.242333,0.0,0.0
468,116.75,18.879,19.0263,174.528,99.7023,97.12,0.000591735,0.067357,21.0339,1030.58,0.231934,0.0,0.0
480,119.75,19.2043,19.5884,177.665,99.7498,97.2283,0.000585749,0.0685408,21.032,1030.57,0.226289,0.0,0.0
492,122.75,18.7688,19.2366,174.912,99.8049,97.4713,0.000555618,0.0687511,21.0325,1030.56,0.209116,0.0,0.0
504,125.75,18.667,19.4674,174.685,99.8617,96.961,0.000653628,0.0681979,21.0335,1030.56,0.260536,0.0,0.0
516,128.75,19.1944,19.8412,170.93,99.9015,97.1898,0.000760345,0.0673896,21.0346,1030.55,0.243223,0.0,0.0
528,131.75,18.9877,19.5207,174.752,99.9457,97.2583,0.000750038,0.0664693,21.0349,1030.55,0.240902,0.0,0.0
540,134.75,19.2626,19.4949,179.939,99.9842,97.492,0.000767295,0.0659996,21.035,1030.52,0.223102,0.0,0.0
552,137.75,19.1767,19.5123,174.229,100.021,97.2113,0.00100163,0.0656226,21.0351,1030.52,0.251813,0.0,0.0
564,140.75,18.7872,19.7104,177.315,100.056,97.1123,0.00110892,0.0660171,21.0351,1030.5,0.26397,0.0,0.0
576,143.75,19.1798,19.5229,179.129,100.087,96.4393,0.000983261,0.0667287,21.0341,1030.5,0.328153,0.0,0.0
588,146.75,18.874,19.7395,173.263,100.108,97.2299,0.000838715,0.06774,21.0321,1030.48,0.257784,0.0,0.0
600,149.75,18.8605,19.609,166.513,100.14,96.8531,0.000847158,0.06905,21.0306,1030.45,0.295005,0.0,0.0
612,152.75,18.9524,19.7267,174.631,100.158,96.9001,0.000984137,0.0704317,21.0256,1030.37,0.292252,0.0,0.0
624,155.75,19.7027,19.9562,177.426,100.178,91.9331,0.0021176,0.0815356,20.997,1030.36,0.75908,0.0,1.0
636,158.75,19.6902,20.3941,160.777,100.189,71.3811,0.00508399,0.140813,20.863,1030.24,2.99641,0.0,0.0
648,161.75,21.8775,22.0986,161.195,100.209,71.4773,0.00861424,0.224894,20.7154,1030.07,2.98634,0.0,0.0
660,164.75,23.5031,23.4169,157.842,100.221,65.6645,0.0113387,0.29445,20.6159,1029.82,3.73706,0.0,0.0
672,167.75,25.474,25.6431,155.562,100.218,63.6136,0.0129555,0.348196,20.5325,1029.61,4.01726,0.0,0.0
684,170.75,28.0578,28.2881,150.997,100.229,63.7831,0.014265,0.385475,20.4789,1029.37,3.99466,0.0,0.0
696,173.75,30.0732,30.3872,152.19,100.225,63.8306,0.0152437,0.409374,20.4516,1029.1,3.98777,0.0,0.0
708,176.75,31.995,32.9607,150.539,100.221,61.4528,0.0158563,0.429974,20.42,1028.87,4.32295,0.0,0.0
720,179.75,33.4261,34.3965,153.074,100.201,59.7024,0.0163518,0.448417,20.387,1028.62,4.57659,0.0,0.0
732,182.75,36.3986,37.1514,151.47,100.204,62.4088,0.0168469,0.463368,20.3661,1028.36,4.18496,0.0,0.0
744,185.75,37.515,38.8572,151.832,100.183,60.5685,0.017182,0.470614,20.3558,1028.11,4.44773,0.0,0.0
756,188.75,39.4927,41.01,146.931,100.181,61.5469,0.0176598,0.478796,20.3405,1027.82,4.30592,0.0,0.0
768,191.75,41.1595,42.8437,147.569,100.145,58.6522,0.0180434,0.487367,20.328,1027.56,4.72851,0.0,0.0
780,194.75,42.9186,44.9985,143.93,100.108,61.8539,0.018141,0.492767,20.321,1027.3,4.25545,0.0,0.0
792,197.75,44.2482,46.606,148.613,100.092,58.9861,0.0182111,0.49622,20.3158,1027,4.67365,0.0,0.0
804,200.75,45.7037,47.532,150.192,100.071,58.6989,0.0185463,0.495089,20.3182,1026.73,4.71493,0.0,0.0
816,203.75,46.57,49.5286,152.44,100.046,60.3527,0.0188312,0.491997,20.3224,1026.47,4.46717,0.0,0.0
828,206.75,47.8802,50.6132,151.023,100.007,54.7395,0.0188731,0.488262,20.3273,1026.2,5.32647,0.0,0.0
840,209.75,48.6578,51.4912,155.443,100.001,58.2685,0.0190489,0.48581,20.3295,1025.89,4.77377,0.0,0.0
852,212.75,49.676,52.605,152.785,99.9834,59.8404,0.0189809,0.484442,20.3321,1025.63,4.53696,0.0,0.0
864,215.75,50.8094,54.1315,150.612,99.9643,59.4785,0.0186583,0.483122,20.3355,1025.39,4.58888,0.0,0.0
876,218.75,52.3496,55.6969,151.646,99.9647,62.4543,0.0182199,0.479494,20.3428,1025.11,4.15743,0.0,0.0
888,221.75,52.8479,56.3209,146.918,99.9765,63.3341,0.018001,0.476892,20.3489,1024.85,4.03483,0.0,0.0
900,224.75,52.7586,56.4217,150.742,100.001,58.9086,0.0179227,0.475396,20.3525,1024.56,4.67721,0.0,0.0
912,227.75,53.8267,57.6909,151.263,100.043,59.3309,0.0180026,0.470311,20.3614,1024.33,4.61777,0.0,0.0
924,230.75,53.6464,57.6714,154.325,100.082,58.647,0.0181946,0.464591,20.3678,1024.06,4.72372,0.0,0.0
936,233.75,54.2714,58.2672,154.944,100.114,63.8233,0.0179206,0.460852,20.3762,1023.82,3.97901,0.0,0.0
948,236.75,55.2889,59.3827,159.165,100.138,60.2164,0.0176796,0.455535,20.3819,1023.57,4.49529,0.0,0.0
960,239.75,54.8131,59.046,153.838,100.151,59.8687,0.0176228,0.454463,20.382,1023.32,4.54753,0.0,0.0
972,242.75,54.3636,58.7741,151.351,100.179,60.2322,0.0179519,0.455573,20.3817,1023.04,4.49654,0.0,0.0
984,245.75,55.4366,60.083,151.19,100.218,57.6751,0.0180464,0.455199,20.3834,1022.8,4.88341,0.0,0.0
996,248.75,56.3871,60.967,151.258,100.224,60.6119,0.0179787,0.449271,20.3899,1022.6,4.44498,0.0,0.0
1008,251.75,56.2835,60.9591,155.453,100.218,60.82,0.0180677,0.448239,20.3899,1022.32,4.41415,0.0,0.0
1020,254.75,56.2795,61.0235,155.363,100.179,61.0175,0.0179178,0.454263,20.3828,1022.05,4.38209,0.0,0.0
1032,257.75,56.3553,61.0277,154.579,100.117,56.5052,0.0179421,0.452303,20.3865,1021.73,5.05561,0.0,0.0
1044,260.75,56.9359,61.8057,147.012,100.042,59.8075,0.0179947,0.450569,20.3858,1021.55,4.54698,0.0,0.0
1056,263.75,57.0709,62.0153,154.198,99.9319,60.9672,0.0178801,0.461081,20.3663,1021.23,4.36752,0.0,0.0
1068,266.75,57.767,62.7087,150.767,99.7814,61.3627,0.0177503,0.470698,20.3589,1020.99,4.29705,0.0,0.0
1080,269.75,58.2769,63.0649,148.937,99.6042,56.5729,0.018001,0.471911,20.3548,1020.74,4.99965,0.0,0.0
1092,272.75,59.0028,63.9554,149.879,99.6593,58.7938,0.0185047,0.474275,20.3498,1020.47,4.66421,0.0,0.0
1104,275.75,58.4186,63.5191,150.073,99.7469,60.1239,0.0187981,0.474849,20.3469,1020.2,4.47426,0.0,0.0
1116,278.75,59.0019,64.1939,153.431,99.8281,59.1848,0.0189448,0.475924,20.3417,1019.92,4.62057,0.0,0.0
1128,281.75,59.4408,64.7186,147.915,99.955,60.2983,0.0190941,0.481113,20.3349,1019.63,4.46707,0.0,0.0
1140,284.75,60.3204,65.243,146.405,100.077,59.1994,0.0188523,0.481249,20.3357,1019.4,4.64042,0.0,0.0
1152,287.75,59.9437,65.297,156.288,100.202,60.3271,0.0184885,0.481688,20.3376,1019.1,4.48467,0.0,0.0
1164,290.75,60.7482,66.0987,148.489,100.319,59.9304,0.018257,0.47891,20.3439,1018.82,4.55331,0.0,0.0
1176,293.75,60.8204,66.2501,144.997,100.366,59.3901,0.018113,0.47343,20.3563,1018.57,4.6375,0.0,0.0
1188,296.75,60.9921,66.4596,153.088,100.365,58.316,0.0174758,0.464365,20.3739,1018.32,4.79867,0.0,0.0
1200,299.75,60.9088,66.557,160.28,100.306,64.9169,0.0167592,0.450959,20.3989,1018.09,3.84573,0.0,0.0
1212,302.75,60.3227,66.0857,152.095,100.168,63.8639,0.0163367,0.438365,20.4159,1017.83,3.97808,0.0,0.0
1224,305.75,60.6105,66.2548,150.02,99.9651,62.5747,0.0160374,0.426806,20.4387,1017.63,4.14044,0.0,0.0
1236,308.75,61.4404,67.1508,154.484,99.6966,61.9943,0.0157749,0.412092,20.4602,1017.39,4.19904,0.0,0.0
1248,311.75,59.7108,65.3962,152.484,99.3859,64.8337,0.0153352,0.401421,20.4748,1017.18,3.77563,0.0,0.0
1260,314.75,59.6285,65.2055,158.383,99.0363,64.2054,0.0148703,0.396179,20.4815,1016.95,3.83056,0.0,0.0
1272,317.75,59.5202,65.0049,156.519,98.7147,65.8746,0.014205,0.38893,20.4977,1016.75,3.57496,0.0,0.0
1284,320.75,59.0353,64.4709,155.861,98.4632,65.3907,0.0138176,0.380807,20.5103,1016.54,3.61758,0.0,0.0
1296,323.75,58.6125,64.2883,154.576,98.3094,66.5317,0.0135392,0.373492,20.5224,1016.36,3.45088,0.0,0.0
1308,326.75,57.93,63.8612,151.867,98.2721,68.71,0.0131411,0.364957,20.5388,1016.18,3.16278,0.0,0.0
1320,329.75,57.6894,63.3774,156.278,98.3861,67.2063,0.0128601,0.355162,20.5504,1016,3.3686,0.0,0.0
1332,332.75,57.3026,62.8562,156.64,98.5991,68.5263,0.0127286,0.354663,20.5539,1015.78,3.21581,0.0,0.0
1344,335.75,56.4392,61.8933,157.957,98.8639,67.8042,0.0123384,0.352897,20.5565,1015.56,3.33314,0.0,0.0
1356,338.75,56.5572,61.8612,159.945,99.1629,68.3023,0.0120159,0.350186,20.5626,1015.43,3.29513,0.0,0.0
1368,341.75,56.4224,61.8994,162.179,99.4322,69.7943,0.0115648,0.344901,20.5743,1015.26,3.12812,0.0,0.0
1380,344.75,55.9822,61.2537,152.903,99.6143,70.1074,0.0110474,0.338942,20.5853,1015.09,3.10473,0.0,0.0
1392,347.75,55.6439,60.6426,164.154,99.6946,69.8969,0.0108066,0.335043,20.5915,1014.89,3.13843,0.0,0.0
1404,350.75,55.0603,60.5251,158.323,99.7254,69.2041,0.0106048,0.330401,20.6002,1014.74,3.22921,0.0,0.0
1416,353.75,54.8838,60.0079,155.233,99.6833,72.364,0.0105649,0.324118,20.6101,1014.53,2.83084,0.0,0.0
1428,356.75,54.4416,59.5167,157.025,99.5782,72.166,0.0105462,0.318655,20.6176,1014.38,2.84573,0.0,0.0
1440,359.75,54.1834,58.9988,160.955,99.4614,70.109,0.0104095,0.315579,20.6229,1014.24,3.09095,0.0,0.0
1452,362.75,53.5292,58.536,159.8,99.6289,72.2001,0.0100457,0.310425,20.6305,1014.08,2.84606,0.0,0.0
1464,365.75,53.22,58.0966,160.081,100.058,73.8364,0.00984767,0.30809,20.634,1013.91,2.68601,0.0,0.0
1476,368.75,52.6833,57.6835,157.907,100.224,73.1931,0.0095988,0.304761,20.6405,1013.76,2.77796,0.0,0.0
1488,371.75,51.687,56.5916,161.671,100.132,72.8077,0.00937087,0.301162,20.644,1013.61,2.81649,0.0,0.0
1500,374.75,51.9834,56.7705,163.452,99.7473,72.9404,0.00956688,0.299739,20.6469,1013.44,2.7664,0.0,0.0
1512,377.75,51.8424,56.4458,158.614,99.7567,72.9274,0.00961452,0.297699,20.6499,1013.31,2.7688,0.0,0.0
1524,380.75,51.2412,55.8224,161.628,100.022,74.3046,0.0093903,0.295768,20.654,1013.16,2.62689,0.0,0.0
1536,383.75,51.0904,55.4923,161.373,100.265,73.1704,0.00924971,0.293992,20.6576,1012.99,2.78432,0.0,0.0
1548,386.75,50.9872,55.1757,161.872,100.392,75.2481,0.0092842,0.291992,20.6627,1012.83,2.54807,0.0,0.0
1560,389.75,50.7389,55.1019,159.989,100.328,73.2296,0.00926235,0.289241,20.6667,1012.7,2.78271,0.0,0.0
1572,392.75,50.4104,54.7566,162.68,100.044,73.5022,0.00914922,0.28631,20.669,1012.57,2.72482,0.0,0.0
1584,395.75,50.1728,54.6124,159.474,99.5871,70.5228,0.00897792,0.284972,20.6709,1012.43,3.05011,0.0,0.0
1596,398.75,49.9583,54.0697,160.246,99.0635,70.8984,0.00895264,0.283981,20.6727,1012.27,2.95656,0.0,0.0
1608,401.75,49.515,53.6615,160.656,98.6031,72.7976,0.00898025,0.28237,20.674,1012.13,2.68175,0.0,0.0
1620,404.75,49.3066,53.3666,164.01,98.3338,70.0381,0.00906833,0.281712,20.6761,1011.98,2.99913,0.0,0.0
1632,407.75,48.7231,52.7866,159.411,98.3476,71.4858,0.00922087,0.282124,20.6762,1011.83,2.81953,0.0,0.0
1644,410.75,48.4434,52.3822,161.049,98.6335,70.0466,0.00908956,0.283629,20.6757,1011.71,3.02495,0.0,0.0
1656,413.75,49.2694,53.3206,161.468,99.0371,72.2654,0.00899875,0.282881,20.6779,1011.55,2.78541,0.0,0.0
1668,416.75,48.868,52.9616,158.145,99.4289,71.9782,0.00903195,0.280421,20.6807,1011.4,2.85551,0.0,0.0
1680,419.75,48.6567,52.4306,155.553,99.6638,72.2046,0.00887664,0.280908,20.6818,1011.24,2.84861,0.0,0.0
1692,422.75,48.5095,52.2497,161.089,99.6857,74.0303,0.00902146,0.281334,20.6808,1011.11,2.62984,0.0,0.0
1704,425.75,48.1078,51.9317,165.849,99.622,72.6763,0.00905236,0.280366,20.6803,1010.97,2.78734,0.0,0.0
1716,428.75,48.2621,51.9232,156.738,99.4602,74.0344,0.00886281,0.279801,20.6787,1010.8,2.60934,0.0,0.0
1728,431.75,47.9897,51.6043,161.482,99.375,75.2765,0.00888705,0.281234,20.6766,1010.66,2.45472,0.0,0.0
1740,434.75,48.0078,51.6311,161.107,99.9566,74.7098,0.00891786,0.281496,20.6764,1010.57,2.57308,0.0,0.0
1752,437.75,47.8775,51.5618,158.603,100.194,71.7693,0.00874,0.280054,20.6804,1010.43,2.94897,0.0,0.0
1764,440.75,47.8927,51.314,156.778,100.041,72.1745,0.00867452,0.278426,20.6816,1010.25,2.88567,0.0,0.0
1776,443.75,47.2734,50.7928,153.84,99.6277,72.4905,0.0088996,0.279693,20.6807,1010.14,2.81047,0.0,0.0
1788,446.75,47.6496,50.9252,158.096,99.9031,76.3425,0.00907986,0.280543,20.679,1009.98,2.37728,0.0,0.0
1800,449.75,47.2069,50.6106,159.54,100.202,74.6887,0.0090382,0.281936,20.6791,1009.86,2.59729,0.0,0.0
1812,452.75,47.5526,50.9688,155.253,100.386,75.2781,0.00900389,0.281195,20.6805,1009.7,2.54397,0.0,0.0
1824,455.75,47.4911,50.6947,156.068,100.328,70.6343,0.0091668,0.278931,20.6819,1009.59,3.10166,0.0,0.0
1836,458.75,47.3834,50.5046,159.954,100.026,74.1042,0.00910921,0.280451,20.6823,1009.44,2.65119,0.0,0.0
1848,461.75,47.1171,50.4619,159.37,99.5044,72.267,0.00876508,0.279221,20.6825,1009.27,2.82682,0.0,0.0
1860,464.75,47.3262,50.4238,163.129,98.9244,70.943,0.0085923,0.278804,20.6835,1009.18,2.93858,0.0,0.0
1872,467.75,47.2539,50.3693,160.245,98.4822,71.6452,0.00870964,0.278374,20.6838,1008.97,2.81194,0.0,0.0
1884,470.75,46.6833,50.0105,160.96,98.3277,72.0675,0.00863298,0.278936,20.6827,1008.89,2.74612,0.0,0.0
1896,473.75,47.5196,50.466,156.14,98.4891,72.8215,0.00867521,0.279727,20.6815,1008.74,2.66862,0.0,0.0
1908,476.75,47.3997,50.4794,160.324,98.8603,72.9708,0.00883307,0.281131,20.681,1008.59,2.68376,0.0,0.0
1920,479.75,47.1871,50.409,157.336,99.272,72.6897,0.00885858,0.281188,20.6808,1008.44,2.75461,0.0,0.0
1932,482.75,46.8398,49.8771,161.502,99.5883,73.4495,0.00879783,0.280724,20.6802,1008.28,2.69083,0.0,0.0
1944,485.75,47.2552,50.3899,159.905,99.7092,72.4853,0.00883808,0.280075,20.68,1008.14,2.81834,0.0,0.0
1956,488.75,47.2126,50.2971,154.416,99.6463,73.8279,0.00892486,0.279856,20.6809,1008.01,2.65055,0.0,0.0
1968,491.75,47.3391,50.3982,165.019,99.5385,73.0008,0.00877209,0.279063,20.6824,1007.81,2.74055,0.0,0.0
1980,494.75,46.8585,49.8832,162.36,99.3896,72.9619,0.0086202,0.280179,20.6812,1007.66,2.73204,0.0,0.0
1992,497.75,47.1515,50.1401,162.79,99.4967,72.8832,0.00877336,0.279696,20.6835,1007.55,2.7511,0.0,0.0
2004,500.75,47.2834,50.4018,161.099,99.9948,74.019,0.00881768,0.278403,20.6853,1007.42,2.65856,0.0,0.0
2016,503.75,47.4809,50.3964,158.018,100.168,75.1114,0.00877081,0.27782,20.6857,1007.3,2.54437,0.0,0.0
2028,506.75,47.2327,50.3098,162.153,100.072,73.9975,0.00857814,0.278315,20.6858,1007.15,2.66793,0.0,0.0
2040,509.75,46.7166,49.5646,160.651,99.7011,73.3862,0.00854153,0.278495,20.6858,1007.02,2.70845,0.0,0.0
2052,512.75,46.9934,50.2262,167.801,99.7214,75.5965,0.00871571,0.276632,20.6888,1006.8,2.44797,0.0,0.0
2064,515.75,46.8942,49.9053,155.189,99.9514,72.5246,0.0087119,0.275778,20.69,1006.74,2.83499,0.0,0.0
2076,518.75,47.0346,50.0559,159.89,100.185,75.0387,0.00874146,0.275373,20.69,1006.6,2.55446,0.0,0.0
2088,521.75,46.8158,49.944,154.457,100.346,74.0518,0.00882843,0.275211,20.6908,1006.44,2.68559,0.0,0.0
2100,524.75,47.0727,49.9757,161.591,100.383,74.4676,0.00875486,0.275271,20.6912,1006.3,2.63936,0.0,0.0
2112,527.75,46.9923,49.6486,163.929,100.297,75.0602,0.00878079,0.273931,20.6913,1006.14,2.56176,0.0,0.0
2124,530.75,46.9861,49.7119,160.789,100.074,74.8623,0.00879775,0.27334,20.6913,1006.03,2.56542,0.0,0.0
2136,533.75,46.742,49.6383,164.158,99.7753,74.5337,0.00868087,0.273454,20.6922,1005.9,2.57789,0.0,0.0
2148,536.75,46.6892,49.3558,158.378,99.4143,71.6995,0.00857885,0.270251,20.6987,1005.78,2.88849,0.0,0.0
2160,539.75,46.7623,49.5964,159.894,99.0489,73.6068,0.00830704,0.267949,20.7024,1005.64,2.6239,0.0,0.0
2172,542.75,46.4282,49.0974,149.63,98.728,72.626,0.00812091,0.265569,20.706,1005.5,2.71379,0.0,0.0
2184,545.75,46.4965,49.2498,160.754,98.4928,73.1404,0.00807971,0.264025,20.7076,1005.39,2.63033,0.0,0.0
2196,548.75,46.4066,48.956,158.052,98.3654,73.1331,0.0082757,0.264028,20.7081,1005.24,2.61978,0.0,0.0
2208,551.75,46.2738,48.9048,162.343,98.3618,72.1628,0.00846871,0.26326,20.7082,1005.09,2.7375,0.0,0.0
2220,554.75,46.0508,48.8021,164.569,98.4676,72.1543,0.00820003,0.261965,20.7112,1004.97,2.74805,0.0,0.0
2232,557.75,46.2768,48.8383,163.157,98.6741,72.4845,0.00796986,0.26073,20.7132,1004.82,2.72621,0.0,0.0
2244,560.75,46.0877,48.8684,158.514,98.902,72.022,0.00798451,0.26057,20.713,1004.73,2.80317,0.0,0.0
2256,563.75,46.0405,48.5462,161.27,99.1385,72.4784,0.00790988,0.260592,20.7129,1004.62,2.76845,0.0,0.0
2268,566.75,45.8211,48.3997,160.404,99.3811,74.9,0.00778656,0.26014,20.7136,1004.49,2.49957,0.0,0.0
2280,569.75,46.0018,48.4603,162.373,99.5478,76.7968,0.00767897,0.258743,20.716,1004.34,2.29334,0.0,0.0
2292,572.75,45.5613,47.9828,161.844,99.6573,76.0987,0.00755866,0.255623,20.7214,1004.19,2.38377,0.0,0.0
2304,575.75,45.5686,48.0263,165.049,99.6922,74.4421,0.00752508,0.253996,20.725,1004.07,2.5814,0.0,0.0
2316,578.75,45.3268,47.8945,158.987,99.6646,73.5951,0.00730843,0.252577,20.7277,1003.97,2.68009,0.0,0.0
2328,581.75,45.2979,47.802,166.725,99.581,76.2999,0.00727352,0.250934,20.7292,1003.82,2.35367,0.0,0.0
2340,584.75,45.1935,47.9938,161.302,99.4922,75.4286,0.00726168,0.249866,20.7306,1003.71,2.44729,0.0,0.0
2352,587.75,45.2232,47.6801,153.877,99.4042,75.7093,0.00711447,0.249038,20.7323,1003.6,2.40664,0.0,0.0
2364,590.75,45.1716,47.5441,164.511,99.332,77.6949,0.00710484,0.247538,20.734,1003.44,2.17141,0.0,0.0
2376,593.75,44.5793,46.9707,169.717,99.2935,76.1149,0.00706802,0.247122,20.7357,1003.36,2.34956,0.0,0.0
2388,596.75,44.1857,46.566,165.971,99.5502,75.874,0.00691435,0.245642,20.7385,1003.21,2.40041,0.0,0.0
2400,599.75,44.52,46.9855,167.541,99.835,76.0954,0.00695452,0.244987,20.7404,1003.11,2.39989,0.0,0.0
2412,602.75,44.5386,46.8708,164.286,100.029,76.7205,0.00680426,0.243551,20.7423,1003.01,2.34473,0.0,0.0
2424,605.75,44.1447,46.8687,163.24,100.129,75.5872,0.00667652,0.242061,20.744,1002.9,2.48516,0.0,0.0
2436,608.75,43.9631,46.4904,160.179,100.128,75.3044,0.00668683,0.240528,20.7452,1002.79,2.51813,0.0,0.0
2448,611.75,43.6429,45.9302,157.533,100.071,75.9405,0.00676981,0.239667,20.7473,1002.65,2.43875,0.0,0.0
2460,614.75,44.1644,46.4098,165.401,100.035,77.7111,0.00673053,0.238434,20.7503,1002.54,2.23192,0.0,0.0
2472,617.75,44.0652,46.5434,162.943,100.017,76.4443,0.00664574,0.236471,20.7526,1002.44,2.37561,0.0,0.0
2484,620.75,43.5958,45.9667,164.747,99.8889,76.8231,0.00658285,0.234551,20.7559,1002.32,2.32055,0.0,0.0
2496,623.75,43.3116,45.5111,160.842,99.7331,76.7436,0.00656133,0.23446,20.7569,1002.21,2.3159,0.0,0.0
2508,626.75,43.6656,45.7102,164.947,99.6443,77.7338,0.00634132,0.233072,20.76,1002.13,2.19472,0.0,0.0
2520,629.75,43.494,45.7969,165.145,99.682,78.7625,0.00621039,0.231478,20.7628,1002,2.08187,0.0,0.0
2532,632.75,43.1896,45.5242,157.198,99.6394,77.907,0.00613405,0.230192,20.7644,1001.9,2.17462,0.0,0.0
2544,635.75,43.1785,45.0697,162.445,99.6796,79.3235,0.00614966,0.228622,20.7669,1001.81,2.01893,0.0,0.0
2556,638.75,42.9149,45.1847,164.512,99.7425,77.4434,0.00604621,0.227761,20.7688,1001.68,2.23651,0.0,0.0
2568,641.75,42.7839,44.9042,163.034,99.8098,79.5908,0.00596835,0.226523,20.7709,1001.56,2.00073,0.0,0.0
2580,644.75,42.5165,44.7975,161.501,99.8885,77.6077,0.00593734,0.225279,20.7723,1001.47,2.23071,0.0,0.0
2592,647.75,42.2833,44.4593,161.465,99.9858,77.3428,0.00590797,0.224729,20.774,1001.38,2.26954,0.0,0.0
2604,650.75,42.4423,44.5928,164.49,100.045,78.5073,0.0057918,0.223294,20.7761,1001.28,2.14268,0.0,0.0
2616,653.75,42.6041,44.7618,163.798,100.129,79.4135,0.00568589,0.222304,20.7772,1001.18,2.04862,0.0,0.0
2628,656.75,42.2213,44.4093,165.742,100.193,78.9702,0.00560634,0.220816,20.7818,1001.09,2.10376,0.0,0.0
2640,659.75,42.0462,44.0504,161.752,100.248,81.0535,0.00545386,0.219027,20.7849,1000.99,1.87848,0.0,0.0
2652,662.75,42.0301,43.9052,166.883,100.304,81.632,0.00526368,0.218819,20.7862,1000.9,1.82056,0.0,0.0
2664,665.75,41.7984,43.8907,160.883,100.355,80.7631,0.0051385,0.217762,20.7892,1000.8,1.91961,0.0,0.0
2676,668.75,41.7653,43.4552,166.442,100.39,82.0611,0.00514438,0.216309,20.7908,1000.7,1.78183,0.0,0.0
2688,671.75,41.2843,43.3075,165.986,100.421,82.0887,0.00513336,0.21498,20.7931,1000.64,1.78153,0.0,0.0
2700,674.75,41.4901,43.5057,163.149,100.443,81.2381,0.00504329,0.213418,20.796,1000.54,1.87552,0.0,0.0
2712,677.75,40.9896,42.847,167.402,100.466,82.3593,0.00499061,0.213323,20.7954,1000.45,1.75645,0.0,0.0
2724,680.75,41.0899,43.118,168.367,100.451,82.945,0.00489637,0.211779,20.7977,1000.36,1.69253,0.0,0.0
2736,683.75,40.8557,42.853,165.82,100.455,82.3714,0.00463929,0.210723,20.7992,1000.28,1.75418,0.0,0.0
2748,686.75,40.7678,42.8098,163.001,100.419,84.4382,0.0044249,0.210632,20.8006,1000.19,1.53202,0.0,0.0
2760,689.75,40.7309,42.721,163.893,100.392,82.625,0.00443942,0.208962,20.8036,1000.09,1.72148,0.0,0.0
2772,692.75,40.5317,42.4255,162.798,100.337,82.571,0.00443408,0.207505,20.8059,1000.01,1.7224,0.0,0.0
2784,695.75,40.3228,42.1337,163.398,100.285,84.4199,0.00435531,0.206338,20.8079,999.917,1.52207,0.0,0.0
2796,698.75,40.0586,41.9606,165.739,100.251,85.013,0.0042267,0.206076,20.81,999.817,1.45723,0.0,0.0
2808,701.75,40.4688,42.0876,170.194,100.191,85.3107,0.00417683,0.205429,20.811,999.757,1.421,0.0,0.0
2820,704.75,40.1364,41.8643,168.927,100.142,84.7392,0.00415867,0.204778,20.8123,999.697,1.47608,0.0,0.0
2832,707.75,40.2655,41.9277,168.819,100.104,85.5472,0.00404107,0.203018,20.816,999.607,1.38887,0.0,0.0
2844,710.75,39.7511,41.536,164.587,100.059,84.8276,0.00388119,0.201329,20.8182,999.507,1.45955,0.0,0.0
2856,713.75,39.439,41.3877,167.542,100.002,85.5123,0.00365755,0.201407,20.8184,999.467,1.38348,0.0,0.0
2868,716.75,39.3513,41.1711,164.546,99.9497,85.4681,0.00354568,0.20054,20.8199,999.377,1.38343,0.0,0.0
2880,719.75,39.3507,41.1646,163.324,99.8678,85.0377,0.00356036,0.19957,20.8219,999.297,1.4208,0.0,0.0
2892,722.75,39.5995,41.1809,165.806,99.7741,86.3986,0.00340703,0.198298,20.8226,999.217,1.27218,0.0,0.0
2904,725.75,39.3596,40.9011,169.48,99.7035,85.3281,0.00321215,0.19714,20.8243,999.156,1.37611,0.0,0.0
2916,728.75,39.2148,40.6091,167.463,99.6257,85.2117,0.00304715,0.195971,20.8276,999.066,1.38127,0.0,0.0
2928,731.75,38.6562,40.2835,167.644,99.5498,86.5004,0.00310469,0.195147,20.8305,999.016,1.24187,0.0,0.0
2940,734.75,39.1148,40.4541,165.651,99.4857,86.4964,0.00314671,0.193974,20.832,998.926,1.2366,0.0,0.0
2952,737.75,39.0011,40.3867,160.906,99.4042,86.4915,0.00315461,0.192894,20.8348,998.816,1.22985,0.0,0.0
2964,740.75,38.4647,40.1191,168.628,99.3101,85.6498,0.00315019,0.192782,20.8355,998.776,1.30791,0.0,0.0
2976,743.75,38.8761,40.2783,162.713,99.2286,86.3191,0.00297382,0.192157,20.8375,998.706,1.23185,0.0,0.0
2988,746.75,38.3822,40.0367,173.975,99.1519,87.4922,0.00272455,0.190572,20.8406,998.656,1.10571,0.0,0.0
3000,749.75,38.5603,39.9181,171.771,99.0558,87.0622,0.00246931,0.189292,20.8427,998.556,1.14068,0.0,0.0
3012,752.75,38.0217,39.6122,165.015,98.9694,87.8183,0.00249601,0.188702,20.8433,998.496,1.05654,0.0,0.0
3024,755.75,38.0854,39.6986,162.145,98.887,86.9551,0.00252791,0.188563,20.8441,998.436,1.13649,0.0,0.0
3036,758.75,38.162,39.5919,165.606,98.8108,86.7118,0.00244937,0.187098,20.8472,998.366,1.15445,0.0,0.0
3048,761.75,37.9294,39.5995,166.751,98.7426,87.4695,0.00233369,0.186376,20.8486,998.276,1.07145,0.0,0.0
3060,764.75,38.0192,39.2778,165.695,98.6826,87.8784,0.00230304,0.186114,20.849,998.206,1.02486,0.0,0.0
3072,767.75,37.8291,39.2594,168.921,98.6343,87.4756,0.0023792,0.185581,20.8485,998.166,1.06114,0.0,0.0
3084,770.75,37.4967,38.9766,160.141,98.5865,88.5371,0.00236086,0.185061,20.8488,998.116,0.950236,0.0,0.0
3096,773.75,37.6372,39.424,166.855,98.5544,88.7866,0.00234299,0.184178,20.8505,998.035,0.922495,0.0,0.0
3108,776.75,37.6968,39.0691,168.556,98.5301,89.1642,0.00224504,0.183502,20.8522,997.975,0.882798,0.0,0.0
3120,779.75,37.5746,39.0485,164.589,98.5131,88.7253,0.00225187,0.182605,20.8544,997.925,0.924883,0.0,0.0
3132,782.75,37.4672,38.9128,167.067,98.5135,89.2198,0.00229081,0.181927,20.8559,997.845,0.875799,0.0,0.0
3144,785.75,37.5239,38.7219,168.286,98.5163,89.1622,0.00233716,0.181037,20.8573,997.795,0.881762,0.0,0.0
3156,788.75,37.4555,38.679,169.285,98.5033,89.1488,0.00234358,0.18019,20.8571,997.725,0.881924,0.0,0.0
3168,791.75,37.3793,38.9547,165.02,98.5143,89.6181,0.00226458,0.179978,20.857,997.665,0.836499,0.0,0.0
3180,794.75,37.2105,38.6773,166.833,98.5256,89.604,0.0020952,0.1794,20.8585,997.635,0.838918,0.0,0.0
3192,797.75,36.9705,38.5868,163.09,98.5504,88.9476,0.00211309,0.178327,20.8602,997.535,0.906114,0.0,0.0
3204,800.75,36.5842,37.9654,171.614,98.567,89.3695,0.0022545,0.177858,20.8617,997.485,0.865786,0.0,0.0
3216,803.75,36.6029,37.99,160.704,98.6088,89.3715,0.00231426,0.17688,20.8643,997.445,0.86933,0.0,0.0
3228,806.75,36.6367,38.2073,163.707,98.6416,90.2789,0.00229,0.176618,20.8653,997.385,0.782989,0.0,0.0
3240,809.75,36.9141,38.2695,164.073,98.6863,89.3228,0.00239568,0.175461,20.8666,997.345,0.881087,0.0,0.0
3252,812.75,36.3837,37.6815,168.957,98.7114,91.0874,0.00238589,0.174813,20.8676,997.255,0.710444,0.0,0.0
3264,815.75,36.2954,37.5754,164.962,98.756,90.268,0.00234589,0.173948,20.8692,997.205,0.794304,0.0,0.0
3276,818.75,36.1891,37.3405,168.789,98.8144,90.152,0.00233462,0.1738,20.8705,997.175,0.810897,0.0,0.0
3288,821.75,36.3027,37.8543,166.405,98.8643,90.9426,0.00244737,0.172646,20.8724,997.115,0.738187,0.0,0.0
3300,824.75,36.342,37.4667,166.25,98.9199,90.8407,0.00245353,0.171835,20.8737,997.065,0.753054,0.0,0.0
3312,827.75,36.1405,37.1893,167.993,98.973,91.7615,0.00232828,0.17171,20.8747,997.025,0.668663,0.0,0.0
3324,830.75,35.8682,37.1338,166.629,99.0469,92.0353,0.00232114,0.170468,20.877,996.964,0.648919,0.0,0.0
3336,833.75,35.6892,37.17,168.488,99.1138,91.8293,0.00239518,0.169954,20.8789,996.904,0.674699,0.0,0.0
3348,836.75,36.1764,37.5714,172.473,99.1669,91.9319,0.00237756,0.169262,20.8795,996.864,0.669565,0.0,0.0
3360,839.75,35.5927,36.7973,166.741,99.2351,92.5902,0.00227851,0.168459,20.8812,996.784,0.612568,0.0,0.0
3372,842.75,35.7505,36.8698,172.145,99.2955,91.5137,0.00232935,0.167855,20.8814,996.754,0.721316,0.0,0.0
3384,845.75,35.6554,36.8451,171.875,99.3571,92.3619,0.00249209,0.167126,20.8823,996.704,0.645261,0.0,0.0
3396,848.75,35.4263,36.5848,172.661,99.3981,92.0946,0.00277758,0.166327,20.8832,996.634,0.674523,0.0,0.0
3408,851.75,35.3685,36.6272,169.157,99.4435,92.845,0.00289815,0.165721,20.8839,996.614,0.606833,0.0,0.0
3420,854.75,34.7621,36.0899,164.032,99.4573,92.8539,0.00292057,0.164606,20.8847,996.534,0.60721,0.0,0.0
3432,857.75,35.3546,36.1769,164.138,99.4776,92.6243,0.00310138,0.163389,20.8865,996.504,0.630892,0.0,0.0
3444,860.75,34.7006,35.9701,170.834,99.4983,92.8718,0.00301776,0.163259,20.8871,996.454,0.60915,0.0,0.0
3456,863.75,35.1522,36.3827,170.682,99.5007,93.0604,0.00293162,0.162969,20.8884,996.384,0.591434,0.0,0.0
3468,866.75,34.545,35.9422,167.161,99.5109,92.802,0.00305696,0.162103,20.8892,996.334,0.616909,0.0,0.0
3480,869.75,34.7419,36.1089,166.329,99.523,92.7939,0.00305816,0.160761,20.891,996.304,0.618763,0.0,0.0
3492,872.75,34.5674,35.6236,171.351,99.5255,92.7411,0.00311246,0.16019,20.8929,996.254,0.624004,0.0,0.0
3504,875.75,34.5401,35.9343,167.003,99.5259,93.1946,0.00327714,0.15894,20.8942,996.194,0.580925,0.0,0.0
3516,878.75,34.2444,35.4969,165.427,99.5291,92.9598,0.00334786,0.158304,20.8962,996.144,0.603515,0.0,0.0
3528,881.75,34.4598,35.6941,166.848,99.5372,92.6134,0.00345386,0.15759,20.8972,996.114,0.637233,0.0,0.0
3540,884.75,34.3531,35.6832,159.141,99.5478,93.9268,0.00344262,0.157111,20.8987,996.074,0.513703,0.0,0.0
3552,887.75,34.134,34.9767,166.987,99.549,93.4437,0.00342319,0.156831,20.8988,996.024,0.559389,0.0,0.0
3564,890.75,34.1459,35.3297,167.777,99.5616,93.0778,0.0037402,0.156276,20.8962,995.974,0.595181,0.0,0.0
3576,893.75,33.8725,35.0488,169.551,99.549,93.7354,0.00401255,0.155559,20.8962,995.934,0.531846,0.0,0.0
3588,896.75,33.8036,35.1463,169.909,99.5401,93.6725,0.00390682,0.15423,20.8984,995.893,0.536984,0.0,0.0
3600,899.75,33.9324,35.0655,167.79,99.5433,94.0311,0.00375849,0.153281,20.899,995.853,0.503504,0.0,0.0
3612,902.75,33.7356,34.9138,167.979,99.5312,93.6271,0.0036303,0.152598,20.9013,995.823,0.54048,0.0,0.0
3624,905.75,33.9153,35.0545,168.199,99.5194,93.9694,0.0036409,0.151917,20.9029,995.763,0.507176,0.0,0.0
3636,908.75,33.4877,34.7141,169.349,99.5153,93.5415,0.00377646,0.151341,20.9043,995.733,0.547158,0.0,0.0
3648,911.75,33.4267,34.3224,170.603,99.5007,94.4055,0.00400925,0.151251,20.9049,995.693,0.464599,0.0,0.0
3660,914.75,33.6799,34.8747,166.056,99.5072,93.812,0.00425808,0.151001,20.9064,995.633,0.52091,0.0,0.0
3672,917.75,33.4813,34.6763,170.616,99.5044,94.5166,0.00420839,0.1498,20.9093,995.583,0.454524,0.0,0.0
3684,920.75,33.3968,34.4707,167.597,99.4817,93.8534,0.00420617,0.149016,20.9101,995.533,0.514743,0.0,0.0
3696,923.75,33.0072,34.0451,173.132,99.4723,93.692,0.00417519,0.148209,20.9105,995.503,0.529131,0.0,0.0
3708,926.75,32.9444,34.0367,170.204,99.4549,93.8688,0.0041784,0.147389,20.9109,995.473,0.510913,0.0,0.0
3720,929.75,33.3671,34.4365,162.502,99.4334,94.9551,0.00411616,0.146877,20.9116,995.423,0.407307,0.0,0.0
3732,932.75,33.1676,34.3405,166.217,99.4058,94.1641,0.00429447,0.146658,20.9118,995.383,0.478789,0.0,0.0
3744,935.75,33.0052,34.0375,170.269,99.3908,93.7447,0.00468106,0.146497,20.9115,995.353,0.516911,0.0,0.0
3756,938.75,32.5739,33.5542,167.843,99.3604,93.896,0.00490465,0.145397,20.9126,995.293,0.499951,0.0,0.0
3768,941.75,32.5348,33.5271,175.281,99.3474,94.831,0.00472511,0.143929,20.9146,995.253,0.411221,0.0,0.0
3780,944.75,32.6521,33.6219,171.607,99.3239,94.0258,0.00480001,0.143285,20.9158,995.243,0.484493,0.0,0.0
3792,947.75,32.3462,33.5695,172.046,99.2999,94.5986,0.00486722,0.143168,20.9164,995.183,0.428688,0.0,0.0
3804,950.75,31.5987,32.3174,166.306,99.2821,94.7308,0.00474949,0.142609,20.9182,995.143,0.414753,0.0,0.0
3816,953.75,32.4416,33.4055,165.3,99.2586,93.4543,0.00474477,0.141713,20.9187,995.103,0.532569,0.0,0.0
3828,956.75,32.27,33.4828,172.684,99.2363,93.8737,0.00465642,0.140822,20.9189,995.073,0.491004,0.0,0.0
3840,959.75,31.76,32.8307,169.019,99.2261,93.664,0.00484898,0.140666,20.9184,995.053,0.509867,0.0,0.0
3852,962.75,31.8801,33.0199,170.391,99.2034,93.3362,0.00509143,0.140889,20.9181,995.013,0.538827,0.0,0.0
3864,965.75,31.9039,33.0257,167.464,99.1868,94.1552,0.00522134,0.14064,20.9179,994.963,0.46013,0.0,0.0
3876,968.75,31.6808,32.548,165.839,99.1775,93.5966,0.00548174,0.139596,20.9197,994.933,0.511887,0.0,0.0
3888,971.75,31.4103,32.2821,168.56,99.1669,93.9301,0.00563884,0.138026,20.9229,994.873,0.479517,0.0,0.0
3900,974.75,31.6609,32.609,172.552,99.156,94.21,0.00563508,0.137425,20.924,994.823,0.452245,0.0,0.0
3912,977.75,31.1373,32.0319,168.747,99.1466,93.9698,0.00565878,0.136905,20.9247,994.8125,0.47397,0.0,0.0
3924,980.75,31.4525,32.4278,172.849,99.1345,93.7366,0.00571513,0.136805,20.9253,994.752,0.49485,0.0,0.0
3936,983.75,31.0422,32.0044,167.257,99.1304,94.7373,0.00579127,0.135834,20.9275,994.752,0.400632,0.0,0.0
3948,986.75,31.2904,32.2389,167.964,99.1276,94.1309,0.00595726,0.133765,20.9293,994.752,0.457137,0.0,0.0
3960,989.75,30.9228,31.9316,166.564,99.113,94.528,0.00615778,0.13266,20.9311,994.652,0.418626,0.0,0.0
3972,992.75,30.9841,31.7168,165.681,99.1101,93.5808,0.00601219,0.132179,20.9319,994.582,0.50738,0.0,0.0
3984,995.75,30.4716,31.4701,166.903,99.1142,94.5811,0.00595973,0.131582,20.9333,994.582,0.413768,0.0,0.0
3996,998.75,30.6424,31.6797,171.62,99.1036,94.2217,0.0062864,0.131474,20.9347,994.512,0.446476,0.0,0.0
4008,1001.75,30.6532,31.5752,172.344,99.0858,93.8587,0.00655072,0.131388,20.9352,994.532,0.479005,0.0,0.0
4020,1004.75,30.5812,31.5784,171.827,99.0724,94.3515,0.00664285,0.131367,20.9345,994.502,0.431522,0.0,0.0
4032,1007.75,30.6136,31.411,167.627,99.0513,94.1487,0.0067885,0.131258,20.9334,994.482,0.448659,0.0,0.0
4044,1010.75,30.6108,31.3752,168.494,99.0351,94.3296,0.00688166,0.130736,20.933,994.422,0.430244,0.0,0.0
4056,1013.75,30.6148,31.4528,173.546,99.0055,93.9009,0.00675172,0.129383,20.9343,994.382,0.467866,0.0,0.0
4068,1016.75,30.2009,30.7929,174.321,98.9832,94.7669,0.0066763,0.12878,20.9362,994.312,0.384733,0.0,0.0
4080,1019.75,30.3693,31.3906,172.059,98.9576,94.7916,0.00670211,0.128751,20.9369,994.312,0.380142,0.0,0.0
4092,1022.75,29.8647,30.541,175.064,98.9235,93.8295,0.00674232,0.128523,20.937,994.322,0.467271,0.0,0.0
4104,1025.75,29.9886,30.8932,169.336,98.9016,94.36,0.00694567,0.12789,20.9371,994.192,0.415478,0.0,0.0
4116,1028.75,30.2277,31.1141,169.738,98.8513,95.2378,0.00708172,0.127633,20.9384,994.152,0.329141,0.0,0.0
4128,1031.75,29.5686,30.3743,176.437,98.8294,94.7223,0.00714575,0.126234,20.9418,994.182,0.375158,0.0,0.0
4140,1034.75,29.4489,30.1283,168.922,98.7974,94.0931,0.00731982,0.125531,20.943,994.112,0.431193,0.0,0.0
4152,1037.75,29.04,29.8297,171.522,98.7755,93.9309,0.00750679,0.125446,20.9438,994.032,0.444486,0.0,0.0
4164,1040.75,29.334,29.9791,174.006,98.7276,94.6975,0.00768095,0.125152,20.9447,993.992,0.368357,0.0,0.0
4176,1043.75,29.2725,30.0288,172.166,98.6903,94.5909,0.00791437,0.124607,20.9449,993.912,0.374979,0.0,0.0
4188,1046.75,29.2107,30.0784,172.179,98.6672,94.3576,0.00798849,0.124537,20.9449,993.942,0.394729,0.0,0.0
4200,1049.75,29.0787,29.7916,172.794,98.6327,94.5288,0.0080732,0.124358,20.9449,993.922,0.375621,0.0,0.0
4212,1052.75,29.1457,29.8496,171.486,98.6047,93.6721,0.00792039,0.123593,20.9449,993.922,0.453579,0.0,0.0
4224,1055.75,28.9081,29.773,171.414,98.5763,93.9005,0.00776986,0.122349,20.9468,993.922,0.429512,0.0,0.0
4236,1058.75,28.8959,29.5818,165.816,98.569,94.2031,0.00770746,0.12097,20.9476,993.822,0.40042,0.0,0.0
4248,1061.75,28.8677,29.5868,174.509,98.5504,94.1905,0.00802264,0.120402,20.9493,993.762,0.399927,0.0,0.0
4260,1064.75,28.9278,29.3972,167.462,98.5342,93.8733,0.00812143,0.119569,20.9513,993.661,0.428287,0.0,0.0
4272,1067.75,28.7431,29.3555,172.124,98.5394,93.9248,0.00806158,0.117569,20.9543,993.691,0.423911,0.0,0.0
4284,1070.75,28.5502,29.4169,170.807,98.5167,93.2149,0.00836502,0.116919,20.954,993.711,0.488926,0.0,0.0
4296,1073.75,28.6034,29.2084,175.447,98.5248,94.2213,0.00859911,0.118004,20.9535,993.651,0.394742,0.0,0.0
4308,1076.75,28.5839,29.2115,174.123,98.5374,94.2996,0.00875549,0.117489,20.9548,993.611,0.388529,0.0,0.0
4320,1079.75,28.3678,29.1459,175.098,98.5597,94.6128,0.00872415,0.117213,20.9558,993.651,0.361228,0.0,0.0
4332,1082.75,28.1909,28.6892,168.752,98.5662,94.3767,0.00871017,0.116821,20.9561,993.631,0.383892,0.0,0.0
4344,1085.75,28.5975,29.5409,168.963,98.6035,94.4205,0.00867613,0.115896,20.9576,993.491,0.383135,0.0,0.0
4356,1088.75,28.2438,28.9045,172.143,98.6165,94.2931,0.00879404,0.114958,20.9589,993.501,0.396229,0.0,0.0
4368,1091.75,28.0811,28.9979,171.342,98.6745,94.7645,0.00882881,0.114275,20.9604,993.571,0.357355,0.0,0.0
4380,1094.75,28.1865,29.1032,173.976,98.7317,94.0846,0.00858285,0.113452,20.9614,993.491,0.426112,0.0,0.0
4392,1097.75,27.996,28.383,171.222,98.8031,94.7535,0.00855375,0.113441,20.9602,993.441,0.369886,0.0,0.0
4404,1100.75,28.0779,28.7931,172.305,98.8964,94.257,0.00865979,0.11363,20.9596,993.421,0.424662,0.0,0.0
4416,1103.75,27.3239,28.1224,171.377,99.0079,94.9945,0.00880882,0.112932,20.9588,993.391,0.365744,0.0,0.0
4428,1106.75,27.5367,28.2417,169.01,99.1085,94.9811,0.00877941,0.112559,20.9585,993.361,0.375965,0.0,0.0
4440,1109.75,27.2307,27.9479,167.904,99.218,94.56,0.00869913,0.112338,20.9589,993.321,0.424993,0.0,0.0
4452,1112.75,27.681,28.3392,172.636,99.3283,95.3733,0.0087767,0.112147,20.9602,993.281,0.359123,0.0,0.0
4464,1115.75,26.4964,27.505,170.912,99.48,95.3628,0.00892298,0.111218,20.9606,993.251,0.373588,0.0,0.0
4476,1118.75,27.69,28.4295,174.904,99.6532,95.2695,0.00908113,0.111032,20.9611,993.231,0.397614,0.0,0.0
4488,1121.75,27.4734,28.2643,173.084,99.7887,95.8901,0.0091636,0.110664,20.9635,993.211,0.352231,0.0,0.0
4500,1124.75,26.7115,27.7015,169.139,99.9185,96.3574,0.00909005,0.110461,20.9648,993.151,0.320752,0.0,0.0
4512,1127.75,26.9674,27.7556,173.69,100.039,96.7391,0.00908559,0.109377,20.9669,993.171,0.296495,0.0,0.0
4524,1130.75,27.3996,27.9028,172.508,100.144,95.6552,0.00922409,0.108996,20.9675,993.121,0.405284,0.0,0.0
4536,1133.75,27.3518,28.1081,170.659,100.236,95.68,0.00931746,0.109034,20.9677,993.081,0.411156,0.0,0.0
4548,1136.75,26.6688,27.3395,173.862,100.317,96.5963,0.00921807,0.108837,20.9677,992.981,0.334064,0.0,0.0
4560,1139.75,27.1223,27.6633,175.621,100.398,96.604,0.00888751,0.108438,20.9685,992.951,0.340431,0.0,0.0
4572,1142.75,27.1149,27.9512,169.383,100.449,97.0332,0.00874534,0.108237,20.9698,992.901,0.305751,0.0,0.0
4584,1145.75,26.7412,27.5205,170.788,100.496,96.7894,0.00905444,0.10799,20.9697,992.941,0.332195,0.0,0.0
4596,1148.75,26.8515,27.6036,176.772,100.519,96.213,0.0093468,0.108503,20.9689,992.921,0.386986,0.0,0.0
4608,1151.75,26.874,27.5327,173.959,100.522,97.5844,0.00942893,0.108264,20.9685,992.941,0.262174,0.0,0.0
4620,1154.75,26.4034,26.8212,168.338,100.515,97.1188,0.0094106,0.108085,20.969,992.861,0.303774,0.0,0.0
4632,1157.75,26.6674,27.2222,172.706,100.487,96.8105,0.00906423,0.108686,20.9701,992.891,0.329449,0.0,0.0
4644,1160.75,26.3809,27.0578,176.345,100.456,96.6008,0.00890542,0.108678,20.9704,992.871,0.345833,0.0,0.0
4656,1163.75,26.2945,26.8945,172.714,100.405,95.966,0.00890547,0.108958,20.9705,992.761,0.39968,0.0,0.0
4668,1166.75,26.399,27.058,171.955,100.361,96.7991,0.00893942,0.108396,20.9709,992.771,0.319348,0.0,0.0
4680,1169.75,26.6565,27.1706,178.438,100.307,96.6142,0.00912763,0.108005,20.9714,992.751,0.331573,0.0,0.0
4692,1172.75,26.5279,26.9125,176.658,100.243,96.6085,0.00927397,0.108145,20.9715,992.741,0.326408,0.0,0.0
4704,1175.75,26.4541,27.015,175.988,100.191,96.7529,0.00931773,0.10736,20.9715,992.711,0.308664,0.0,0.0
4716,1178.75,25.814,26.5458,169.323,100.141,96.0463,0.00946483,0.106772,20.9725,992.721,0.368976,0.0,0.0
4728,1181.75,26.5506,27.0573,173.748,100.084,96.1708,0.00952895,0.106539,20.9735,992.61,0.352475,0.0,0.0
4740,1184.75,25.8312,26.8027,172.893,100.025,96.0876,0.00931299,0.106565,20.9737,992.61,0.354961,0.0,0.0
4752,1187.75,26.165,26.803,174.006,99.966,96.3148,0.00937777,0.106994,20.9724,992.59,0.328858,0.0,0.0
4764,1190.75,26.1109,26.8243,169.869,99.9128,96.5874,0.0093759,0.106522,20.9725,992.6,0.299179,0.0,0.0
4776,1193.75,26.0803,26.7908,172.75,99.865,96.7906,0.00933709,0.105367,20.9744,992.59,0.276367,0.0,0.0
4788,1196.75,25.9485,26.6937,170.852,99.8114,96.5253,0.00947266,0.105317,20.9752,992.59,0.295885,0.0,0.0
4800,1199.75,25.9953,26.6696,174.767,99.7603,95.9615,0.00938255,0.105014,20.9754,992.48,0.343137,0.0,0.0
4812,1202.75,26.0417,26.6813,174.977,99.7291,96.6259,0.00924876,0.104318,20.9771,992.51,0.279384,0.0,0.0
4824,1205.75,25.6891,26.4692,174.831,99.7271,96.073,0.00927557,0.104371,20.9767,992.45,0.329922,0.0,0.0
4836,1208.75,25.9228,26.5836,171.97,99.8646,96.5014,0.00916253,0.104455,20.9752,992.49,0.302781,0.0,0.0
4848,1211.75,25.7757,26.3733,174.115,99.9757,96.7606,0.00915559,0.104277,20.9748,992.44,0.288904,0.0,0.0
4860,1214.75,25.8822,26.5913,168.568,100.065,96.0081,0.00914857,0.104417,20.9742,992.41,0.365789,0.0,0.0
4872,1217.75,25.8164,26.429,168.15,100.152,96.8855,0.00925184,0.104855,20.974,992.39,0.293047,0.0,0.0
4884,1220.75,25.8315,26.4562,176.973,100.198,96.0597,0.00940382,0.104387,20.9751,992.35,0.372791,0.0,0.0
4896,1223.75,25.8104,26.3234,176.414,100.245,96.2081,0.00953839,0.102679,20.9775,992.33,0.363291,0.0,0.0
4908,1226.75,25.7922,26.4832,171.81,100.264,96.8876,0.00950096,0.102071,20.9782,992.32,0.302807,0.0,0.0
4920,1229.75,25.2487,25.9037,165.291,100.267,96.3716,0.009463,0.102151,20.9784,992.22,0.35018,0.0,0.0
4932,1232.75,25.6997,26.2445,184.472,100.245,97.047,0.00942896,0.102077,20.9774,992.26,0.286596,0.0,0.0
4944,1235.75,25.3418,25.9954,169.115,100.207,96.3692,0.00932602,0.103849,20.9761,992.2,0.345182,0.0,0.0
4956,1238.75,25.5002,26.1944,170.898,100.149,96.9922,0.00926185,0.106905,20.9734,992.17,0.28307,0.0,0.0
4968,1241.75,25.6019,26.3006,171.007,100.082,96.8859,0.00942461,0.107374,20.9737,992.14,0.286888,0.0,0.0
4980,1244.75,25.3673,26.2442,177.388,99.9729,96.6746,0.00963411,0.104455,20.9773,992.18,0.29651,0.0,0.0
4992,1247.75,25.8678,26.1107,170.312,99.8427,95.9656,0.00986365,0.10173,20.98,992.13,0.350056,0.0,0.0
5004,1250.75,24.6393,25.4232,164.709,99.6824,96.1574,0.00990999,0.100686,20.9816,992.11,0.318208,0.0,0.0
5016,1253.75,25.2898,25.9539,174.266,99.4918,96.0645,0.0100033,0.100096,20.9821,992.09,0.309832,0.0,0.0
5028,1256.75,24.8003,25.3818,171.728,99.4156,96.0159,0.00984797,0.100953,20.981,992.07,0.307534,0.0,0.0
5040,1259.75,25.974,26.7418,176.422,99.45,96.0179,0.00970164,0.102515,20.9786,992.02,0.310413,0.0,0.0
5052,1262.75,25.3268,25.9744,171.085,99.4776,96.1319,0.00964748,0.102826,20.9766,991.95,0.302377,0.0,0.0
5064,1265.75,24.6986,25.2271,172.549,99.5222,96.2377,0.00953271,0.101752,20.9786,991.91,0.296612,0.0,0.0
5076,1268.75,25.228,25.9088,176.997,99.5632,96.4568,0.00955576,0.100466,20.9793,991.96,0.280155,0.0,0.0
5088,1271.75,25.0022,25.7375,171.346,99.6119,95.8203,0.00966433,0.0999646,20.9794,991.9,0.342986,0.0,0.0
5100,1274.75,24.9169,25.5994,175.315,99.6618,96.7606,0.00969121,0.0997986,20.9795,991.88,0.261105,0.0,0.0
5112,1277.75,23.8391,24.9736,172.645,99.708,96.3513,0.00968257,0.099188,20.9812,991.86,0.30267,0.0,0.0
5124,1280.75,24.2553,25.3184,172.708,99.7388,95.9741,0.00969053,0.098654,20.9816,991.84,0.340075,0.0,0.0
5136,1283.75,24.2734,24.6737,174.722,99.7855,96.6774,0.00962714,0.098269,20.9818,991.71,0.279668,0.0,0.0
5148,1286.75,24.7539,25.0303,170.001,99.8147,96.9995,0.0095688,0.0973945,20.9832,991.81,0.252859,0.0,0.0
5160,1289.75,24.33,25.0927,174.781,99.835,96.3834,0.00962995,0.0976456,20.9836,991.74,0.310978,0.0,0.0
5172,1292.75,24.3076,24.9934,174.745,99.8427,96.4158,0.00983419,0.0982562,20.9823,991.71,0.308684,0.0,0.0
5184,1295.75,24.2555,25.5271,175.937,99.8272,96.8746,0.00971981,0.0988101,20.982,991.67,0.265364,0.0,0.0
5196,1298.75,24.0868,25.1412,170.559,99.8106,96.2661,0.0093967,0.0985104,20.9819,991.7,0.319579,0.0,0.0
5208,1301.75,24.7493,25.2491,174.291,99.781,96.7204,0.00945423,0.09838,20.9836,991.589,0.275343,0.0,0.0
5220,1304.75,24.2037,24.9119,175.846,99.7364,96.4255,0.00946333,0.0977848,20.9854,991.549,0.298379,0.0,0.0
5232,1307.75,24.1171,24.9767,172.575,99.6881,97.0871,0.00934252,0.0970813,20.9865,991.529,0.233666,0.0,0.0
5244,1310.75,24.2798,24.8916,170.166,99.622,96.3817,0.00939276,0.0972313,20.9853,991.499,0.292253,0.0,0.0
5256,1313.75,24.2398,25.1204,174.517,99.5514,95.8366,0.00938688,0.0978468,20.9852,991.539,0.336126,0.0,0.0
5268,1316.75,23.924,24.8517,176.856,99.4809,95.5713,0.00927884,0.0978489,20.9866,991.479,0.354358,0.0,0.0
5280,1319.75,24.0269,25.2052,173.697,99.4018,96.5919,0.0093666,0.0973965,20.9876,991.419,0.253444,0.0,0.0
5292,1322.75,24.0207,24.6327,173.814,99.3401,95.9749,0.00943142,0.096088,20.9899,991.479,0.304596,0.0,0.0
5304,1325.75,23.8106,24.9151,173.668,99.2334,96.2929,0.00931214,0.0951258,20.9906,991.379,0.265863,0.0,0.0
5316,1328.75,24.2387,24.4925,176.397,99.158,96.0816,0.00927199,0.0947578,20.9908,991.339,0.27856,0.0,0.0
5328,1331.75,24.079,24.4024,171.121,99.0789,95.9205,0.00939482,0.0950004,20.9912,991.329,0.286333,0.0,0.0
5340,1334.75,23.2582,24.259,174.328,99.0067,95.8329,0.00925527,0.0947231,20.9932,991.369,0.287967,0.0,0.0
5352,1337.75,23.6277,24.3472,168.715,98.9325,96.4268,0.008995,0.0938208,20.9953,991.229,0.226738,0.0,0.0
5364,1340.75,23.9146,24.235,176.175,98.8522,96.0203,0.00900769,0.0936348,20.9963,991.269,0.256894,0.0,0.0
5376,1343.75,23.3888,24.0447,170.217,98.7921,95.4784,0.00922714,0.093637,20.9965,991.239,0.301549,0.0,0.0
5388,1346.75,23.8405,24.1821,174.852,98.7284,95.822,0.00955237,0.0926538,20.9983,991.209,0.264103,0.0,0.0
5400,1349.75,23.6664,24.1289,166.62,98.6729,96.1619,0.00971514,0.0932819,20.9972,991.249,0.227828,0.0,0.0
5412,1352.75,23.6929,24.2884,177.465,98.6343,95.6974,0.00958482,0.0928113,20.9974,991.209,0.267168,0.0,0.0
5424,1355.75,23.5444,24.2654,170.909,98.5759,95.5506,0.00931043,0.092045,20.9986,991.219,0.275506,0.0,0.0
5436,1358.75,23.7675,24.3434,174.298,98.5293,95.6597,0.00913657,0.0913817,20.9998,991.169,0.261235,0.0,0.0
5448,1361.75,24.008,23.9324,175.283,98.5037,95.4609,0.00911561,0.0908337,21.0001,991.139,0.277325,0.0,0.0
5460,1364.75,23.6442,24.4724,168.478,98.492,95.4528,0.00921628,0.0906629,21.0002,991.039,0.277021,0.0,0.0
5472,1367.75,23.246,24.6607,174.033,98.496,95.3985,0.00927766,0.0906692,21.0012,991.129,0.28242,0.0,0.0
5484,1370.75,23.8891,24.5057,173.464,98.5297,95.0545,0.00925967,0.0903303,21.003,991.039,0.317367,0.0,0.0
5496,1373.75,23.9861,24.0617,175.322,98.5861,96.4523,0.00907599,0.0897158,21.005,991.009,0.193395,0.0,0.0
5508,1376.75,23.3708,24.2506,171.583,98.6684,96,0.00899113,0.0891633,21.0063,991.089,0.242317,0.0,0.0
5520,1379.75,23.274,24.6072,176.688,98.754,96.3464,0.00888457,0.0880867,21.0071,990.919,0.218144,0.0,0.0
5532,1382.75,23.3203,24.3482,172.097,98.8461,96.1091,0.00899754,0.0878963,21.0073,990.929,0.248176,0.0,0.0
5544,1385.75,23.485,24.342,173.874,98.9917,96.0718,,0.0880736,,990.929,0.264619,0.0,0.0
5556,1388.75,23.7484,23.9479,178.091,99.1462,97.0011,,,,990.939,0.193322,0.0,0.0
5568,1391.75,23.8679,24.1612,172.102,99.2999,96.529,,,,990.929,0.250142,0.0,0.0
5580,1394.75,23.6412,24.4407,175.008,99.4549,97.4035,,,,990.849,0.184208,0.0,0.0
5583,1395.5,23.3448,23.8347,167.431,99.5068,97.5341,,,,990.809,0.176977,0.0,0.0