File: 01_Data/EPDM_Membrane/Cone/EPDM_Membrane_Cone_HF25Scan_220311_R5.csv
Names,Time,Stack TC,Smoke TC,Exh Press,Smoke Comp,Smoke Meas,CO Meter,CO2 Meter,O2 Meter,Sample Mass,Ext Coeff,Start Test,Flame Verif
Chan Gain,,500,500,1,1,1,1,1,1,1,1,1.0,1.0
Offset,,0,0,0.136191,0,0,0,0,0,0,0,0.0,0.0
Gain,,1,1,25.011,13.291,13.2919,1,1,1,1.00093,1.00758,1.0,1.0
Units,sec,C,C,Pa,%,%,%,%,%,g,/m,,
Baseline,,18.7713,19.3395,177.007,100.444,98.6897,0.000306579,0.0426668,21.0846,-0.839028,0.155754,,
12,2.75,17.9886,18.2561,184.217,100.009,98.6282,0.000501846,0.0437333,21.0834,1055.32,0.122881,0.0,0.0
24,5.75,17.8263,18.1394,173.258,99.9489,97.9686,0.000352963,0.0437429,21.0841,1055.3,0.176877,0.0,0.0
36,8.75,18.1553,18.1203,184,99.8832,98.1605,0.00040376,0.0435214,21.0843,1055.28,0.153773,0.0,0.0
48,11.75,17.3198,18.5115,178.636,99.822,98.4468,0.000507037,0.0431235,21.0843,1055.18,0.122604,0.0,0.0
60,14.75,17.4944,18.0736,177.8,99.7656,97.6684,0.000611277,0.0428562,21.0843,1055.29,0.187772,0.0,0.0
72,17.75,17.9856,18.3732,176.196,99.7295,97.408,0.000790904,0.0426359,21.0846,1055.29,0.208172,0.0,0.0
84,20.75,17.5097,18.3411,176.405,99.8268,98.1519,0.000833905,0.0426772,21.0851,1055.2,0.14955,0.0,0.0
96,23.75,17.7786,18.5233,178.226,99.9798,98.0976,0.000636148,0.0425622,21.0845,1055.27,0.167974,0.0,0.0
108,26.75,17.585,18.1627,176.148,100.1,98.6322,0.000526215,0.0426657,21.0835,1055.15,0.130578,0.0,0.0
120,29.75,17.8862,18.5489,178.552,100.204,98.5056,0.000559466,0.042649,21.083,1055.2,0.15109,0.0,0.0
132,32.75,17.7177,18.5704,174.653,100.275,98.4347,0.000435021,0.0426766,21.0829,1055.27,0.163757,0.0,0.0
144,35.75,17.8861,18.4712,176.385,100.288,98.3775,0.00015966,0.0426296,21.0828,1055.16,0.169966,0.0,0.0
156,38.75,17.7048,18.1624,179.553,100.268,98.9502,5.25744e-05,0.0424778,21.083,1055.18,0.116942,0.0,0.0
168,41.75,18.1209,18.0555,180.042,100.196,99.0825,0.000182632,0.042533,21.0835,1055.27,0.0988073,0.0,0.0
180,44.75,17.6915,18.7979,181.889,100.074,98.5896,0.00026964,0.0426199,21.0841,1055.16,0.132103,0.0,0.0
192,47.75,17.9916,17.6693,177.72,99.9011,98.5267,0.000216662,0.0424472,21.0855,1055.29,0.122432,0.0,0.0
204,50.75,18.104,18.6632,181.397,99.6853,98.1515,0.000261671,0.0422315,21.0844,1055.21,0.137045,0.0,0.0
216,53.75,17.7818,18.3913,182.66,99.4435,97.8217,0.000260504,0.0421292,21.0839,1055.29,0.145331,0.0,0.0
228,56.75,18.4333,18.5138,181.063,99.4809,97.7954,0.000214692,0.0421535,21.0848,1055.19,0.151029,0.0,0.0
240,59.75,17.9191,18.5377,177.591,99.5279,98.2696,0.000366192,0.042092,21.0857,1055.28,0.112456,0.0,0.0
252,62.75,18.1246,18.5425,180.416,99.5879,97.8075,0.000310469,0.0421136,21.0859,1055.13,0.159439,0.0,0.0
264,65.75,18.0662,18.513,176.873,99.6415,97.636,8.72742e-05,0.042024,21.0854,1055.18,0.179708,0.0,0.0
276,68.75,17.6955,19.0253,178.967,99.6833,98.414,1.84551e-05,0.0418176,21.0848,1055.16,0.113262,0.0,0.0
288,71.75,17.6277,18.482,171.192,99.7287,97.9369,0.000123596,0.0419032,21.0844,1055.15,0.160236,0.0,0.0
300,74.75,17.7172,18.4499,179.745,99.7741,98.0238,0.00025801,0.0419894,21.0839,1055.2,0.15643,0.0,0.0
312,77.75,17.6688,18.7297,173.202,99.8082,98.0846,0.000523335,0.0421087,21.0837,1055.17,0.153963,0.0,0.0
324,80.75,18.1931,18.8571,180.774,99.7993,98.0193,0.000529307,0.0422381,21.0837,1055.14,0.159059,0.0,0.0
336,83.75,18.0942,18.5167,179.3,99.755,98.2197,0.000504671,0.0422059,21.0831,1055.09,0.137093,0.0,0.0
348,86.75,17.9525,18.1121,177.224,99.665,97.58,0.000504565,0.0421597,21.0844,1055.21,0.186863,0.0,0.0
360,89.75,17.7186,18.4847,177.672,99.5433,97.7102,0.000441793,0.0420392,21.0836,1055.18,0.164279,0.0,0.0
372,92.75,17.8398,18.2548,174.964,99.3709,96.787,0.000366242,0.0420739,21.0837,1055.18,0.232869,0.0,0.0
384,95.75,18.0236,19.1496,176.059,99.1848,97.2072,0.000410855,0.0420545,21.0842,1055.11,0.178001,0.0,0.0
396,98.75,17.8009,18.9833,178.16,98.9909,96.5793,0.000455009,0.0420369,21.0843,1055.12,0.217986,0.0,0.0
408,101.75,18.0926,19.1821,176.63,98.8152,96.9504,0.00034185,0.0420971,21.0843,1055.18,0.168389,0.0,0.0
420,104.75,18.4489,18.648,180.704,98.681,96.7107,0.000381735,0.0420922,21.0843,1055.23,0.178254,0.0,0.0
432,107.75,17.8559,18.3545,174.164,98.5735,95.2545,0.000423663,0.0421903,21.0843,1055.11,0.30272,0.0,0.0
444,110.75,18.0614,18.4353,175.421,98.479,95.6999,0.000468605,0.0420624,21.0843,1055.09,0.253012,0.0,0.0
456,113.75,17.6372,18.8621,178.914,98.4437,96.1659,0.000545943,0.0420712,21.0843,1055.04,0.206904,0.0,0.0
468,116.75,18.1365,18.6836,179.982,98.4506,95.9217,0.000682579,0.0421118,21.0854,1055.09,0.229995,0.0,0.0
480,119.75,17.9953,18.5713,177.17,98.5224,96.0098,0.000688494,0.0422373,21.0858,1054.94,0.22833,0.0,0.0
492,122.75,18.0164,18.3113,176.712,98.6242,96.0337,0.000595643,0.0423759,21.0852,1054.97,0.235256,0.0,0.0
504,125.75,18.0661,18.3639,178.484,98.7552,96.2418,0.000367517,0.0424272,21.0835,1055.04,0.227859,0.0,0.0
516,128.75,18.4901,19.2087,174.356,98.9276,95.9923,0.000289759,0.042402,21.083,1055.01,0.266213,0.0,0.0
528,131.75,17.9557,18.7383,171.515,99.1154,96.4584,0.000432339,0.0424228,21.0829,1055.05,0.240166,0.0,0.0
540,134.75,18.2398,19.086,174.255,99.3393,96.6198,0.000503165,0.0422514,21.0828,1054.95,0.245328,0.0,0.0
552,137.75,17.9305,19.131,170.693,99.5518,95.9895,0.000520956,0.0429194,21.0828,1054.99,0.32207,0.0,0.0
564,140.75,18.5233,18.4215,178.799,99.7895,96.8608,0.000434736,0.0443138,21.0811,1054.94,0.263282,0.0,0.0
576,143.75,17.8321,18.5799,178.743,100.015,96.3675,0.000617791,0.0449619,21.0806,1054.96,0.328394,0.0,0.0
588,146.75,18.0043,18.9358,183.067,100.194,96.817,0.000903494,0.0458482,21.0769,1054.88,0.30299,0.0,0.0
600,149.75,17.9874,19.1422,179.584,100.329,96.4681,0.00125878,0.0492409,21.069,1054.9,0.346871,0.0,0.0
612,152.75,19.0205,19.0493,173.033,100.426,85.1931,0.0028839,0.0695952,21.016,1054.84,1.45389,0.0,1.0
624,155.75,19.0279,19.8992,167.417,100.488,73.9833,0.00584216,0.146481,20.8848,1054.73,2.70627,0.0,0.0
636,158.75,20.8788,21.5562,156.836,100.507,60.6853,0.00935338,0.22994,20.7459,1054.45,4.45921,0.0,0.0
648,161.75,22.5053,23.6851,160.218,100.484,67.2826,0.0119821,0.303925,20.6326,1054.27,3.54505,0.0,0.0
660,164.75,24.8545,25.9218,153.725,100.424,60.2367,0.0136768,0.344972,20.573,1053.99,4.51748,0.0,0.0
672,167.75,27.4875,27.8671,151.334,100.334,56.2683,0.0149081,0.374433,20.5211,1053.74,5.11192,0.0,0.0
684,170.75,29.4194,30.3094,164.894,100.218,62.7626,0.0157673,0.395318,20.4893,1053.56,4.1363,0.0,0.0
696,173.75,31.2575,32.0079,150.627,100.083,60.6249,0.0164194,0.410624,20.4601,1053.18,4.43063,0.0,0.0
708,176.75,32.9974,34.2932,161.218,99.9497,57.5156,0.0170366,0.427909,20.4291,1053,4.88419,0.0,0.0
720,179.75,34.8066,35.7728,160.554,99.8431,57.5797,0.0179563,0.444563,20.4046,1052.76,4.86491,0.0,0.0
732,182.75,36.4953,38.1018,153.299,99.7636,55.3861,0.0183951,0.451353,20.391,1052.48,5.20118,0.0,0.0
744,185.75,38.0756,40.0433,150.213,99.8053,57.7087,0.0183055,0.463715,20.3767,1052.22,4.84179,0.0,0.0
756,188.75,40.041,41.8374,153.888,100.047,57.486,0.0183999,0.473197,20.3659,1051.98,4.89739,0.0,0.0
768,191.75,41.8916,44.1351,152.398,100.199,57.8357,0.0187248,0.47309,20.3645,1051.62,4.85718,0.0,0.0
780,194.75,42.9362,45.43,154.722,100.286,55.225,0.0185674,0.459716,20.3867,1051.24,5.27304,0.0,0.0
792,197.75,43.9214,46.5466,154.558,100.306,53.2548,0.0186601,0.448066,20.3981,1051.08,5.59594,0.0,0.0
804,200.75,44.6311,47.4503,161.289,100.248,60.4103,0.0185685,0.455875,20.388,1050.79,4.47657,0.0,0.0
816,203.75,46.0152,48.8685,157.438,100.116,55.3179,0.0184884,0.449598,20.3991,1050.51,5.24327,0.0,0.0
828,206.75,46.6159,49.644,154.821,99.9331,58.2202,0.0185568,0.440553,20.4118,1050.18,4.77511,0.0,0.0
840,209.75,47.1065,50.0035,148.095,99.6634,54.8636,0.0182562,0.436729,20.4134,1050.01,5.27607,0.0,0.0
852,212.75,47.5748,51.1859,152.9,99.4727,55.7187,0.0178277,0.447181,20.4043,1049.74,5.12246,0.0,0.0
864,215.75,48.0681,51.4395,154.976,99.5226,58.9682,0.017414,0.44366,20.4151,1049.34,4.6259,0.0,0.0
876,218.75,49.6106,52.6401,149.381,99.5737,56.3292,0.0172312,0.435635,20.4221,1049.2,5.03512,0.0,0.0
888,221.75,49.9353,53.4466,154.596,99.6289,55.5584,0.0173155,0.439058,20.4231,1048.94,5.16178,0.0,0.0
900,224.75,50.6592,54.626,158.56,99.6853,59.1731,0.0174623,0.431365,20.4352,1048.7,4.60968,0.0,0.0
912,227.75,50.7354,55.0778,155.066,99.7376,59.6704,0.0170567,0.426187,20.442,1048.31,4.54035,0.0,0.0
924,230.75,51.3638,55.5338,156.823,99.7615,58.2308,0.0165713,0.416241,20.4514,1048.19,4.75832,0.0,0.0
936,233.75,50.6728,56.0982,154.959,99.7769,59.427,0.0165093,0.419255,20.4513,1048.01,4.57996,0.0,0.0
948,236.75,51.7191,56.4391,155.46,99.7989,58.0702,0.0163951,0.423328,20.4506,1047.78,4.78604,0.0,0.0
960,239.75,52.2349,57.1508,152.901,99.7705,61.2503,0.016137,0.418935,20.4586,1047.44,4.31228,0.0,0.0
972,242.75,52.8325,57.1061,150.059,99.7303,56.9826,0.0161735,0.406866,20.4732,1047.31,4.94706,0.0,0.0
984,245.75,52.8138,57.3896,152.671,99.6516,57.587,0.0163117,0.405737,20.4724,1047.07,4.84683,0.0,0.0
996,248.75,53.0286,57.7997,152.766,99.5563,58.6056,0.0162366,0.407908,20.4711,1046.77,4.68341,0.0,0.0
1008,251.75,52.7772,57.6026,157.362,99.446,60.6553,0.016078,0.406194,20.4748,1046.49,4.36978,0.0,0.0
1020,254.75,52.796,57.9302,154.652,99.306,58.9114,0.0158646,0.401534,20.4838,1046.07,4.61516,0.0,0.0
1032,257.75,52.9265,58.2248,157.056,99.1633,54.3545,0.0158802,0.393233,20.4919,1046.06,5.314,0.0,0.0
1044,260.75,53.2099,58.2911,157.578,99.0055,59.1341,0.0160085,0.395778,20.4856,1045.8,4.55502,0.0,0.0
1056,263.75,53.6421,58.5102,152.356,98.853,59.9937,0.0161018,0.407492,20.4669,1045.56,4.41385,0.0,0.0
1068,266.75,54.0977,59.134,150.83,98.724,59.9203,0.0160877,0.416948,20.4562,1045.33,4.41313,0.0,0.0
1080,269.75,54.6631,59.4553,154.023,98.6157,62.0665,0.016002,0.42048,20.455,1045.11,4.09239,0.0,0.0
1092,272.75,55.0369,59.9519,154.489,98.5325,61.7562,0.0160918,0.418993,20.4601,1044.8,4.12924,0.0,0.0
1104,275.75,55.1139,60.0552,159.132,98.4689,58.4798,0.0163023,0.414912,20.4662,1044.51,4.60532,0.0,0.0
1116,278.75,55.2065,60.6048,150.957,98.4364,58.1253,0.0164855,0.407579,20.4681,1044.33,4.65615,0.0,0.0
1128,281.75,55.4475,60.3027,160.541,98.425,63.1082,0.0167599,0.409195,20.467,1044.09,3.92819,0.0,0.0
1140,284.75,55.2248,60.6525,151.033,98.4242,60.2216,0.0169836,0.412046,20.4649,1043.86,4.34191,0.0,0.0
1152,287.75,55.4952,60.8208,155.149,98.4421,63.141,0.0168262,0.413207,20.4641,1043.63,3.92512,0.0,0.0
1164,290.75,55.1554,60.6764,149.51,98.4871,59.193,0.0165954,0.412814,20.4651,1043.39,4.49984,0.0,0.0
1176,293.75,55.9454,61.217,148.2,98.5419,61.4856,0.0163608,0.411571,20.4685,1043.1,4.16888,0.0,0.0
1188,296.75,55.9199,61.2268,160.776,98.6039,61.0812,0.0161676,0.406608,20.4746,1042.89,4.23277,0.0,0.0
1200,299.75,55.7653,61.8632,153.482,98.6932,60.4379,0.0157208,0.405818,20.4753,1042.56,4.33435,0.0,0.0
1212,302.75,55.6819,61.7762,152.234,98.782,61.5152,0.0151634,0.407569,20.475,1042.37,4.18614,0.0,0.0
1224,305.75,56.3908,61.5247,152.793,98.8887,61.9067,0.0150823,0.407126,20.4768,1042.19,4.13961,0.0,0.0
1236,308.75,56.533,61.8855,154.144,98.9925,64.3271,0.0149615,0.400723,20.4866,1041.93,3.80991,0.0,0.0
1248,311.75,56.4145,62.0905,155.035,99.0927,64.2188,0.014533,0.39817,20.4923,1041.7,3.83374,0.0,0.0
1260,314.75,56.6245,61.921,155.634,99.1994,65.2515,0.0139846,0.390268,20.5116,1041.41,3.70225,0.0,0.0
1272,317.75,56.298,61.7628,154.943,99.3016,65.4957,0.013626,0.37913,20.5274,1041.17,3.67834,0.0,0.0
1284,320.75,56.0879,61.415,163.257,99.4208,63.6789,0.0133195,0.367863,20.5471,1041.03,3.93758,0.0,0.0
1296,323.75,55.9265,61.6081,156.001,99.5316,69.4844,0.0131467,0.359253,20.5588,1040.84,3.17628,0.0,0.0
1308,326.75,55.8069,61.1979,164.862,99.6338,68.3299,0.0129784,0.354231,20.5673,1040.625,3.33343,0.0,0.0
1320,329.75,55.5177,60.3537,159.833,99.7327,65.8223,0.012601,0.345077,20.5858,1040.44,3.67267,0.0,0.0
1332,332.75,55.434,60.6435,150.139,99.8289,68.7015,0.0121437,0.334042,20.6007,1040.23,3.30279,0.0,0.0
1344,335.75,54.4993,59.814,156.442,99.9282,70.4542,0.0118409,0.328206,20.6121,1040.08,3.08892,0.0,0.0
1356,338.75,53.7773,59.2262,163.549,100.007,67.6598,0.0115825,0.322073,20.6236,1039.91,3.45354,0.0,0.0
1368,341.75,53.7649,59.1418,157.117,100.091,70.1508,0.011338,0.315072,20.6369,1039.72,3.14148,0.0,0.0
1380,344.75,53.1401,58.5745,157.18,100.166,69.8726,0.0111639,0.308488,20.6448,1039.55,3.18323,0.0,0.0
1392,347.75,53.2366,58.1632,160.517,100.249,74.9495,0.0109296,0.304238,20.6501,1039.28,2.57059,0.0,0.0
1404,350.75,52.931,57.9319,163.265,100.301,68.4849,0.0106213,0.301922,20.6565,1039.25,3.3724,0.0,0.0
1416,353.75,52.5651,57.3859,160.579,100.334,73.0852,0.0102778,0.299734,20.662,1039.07,2.80069,0.0,0.0
1428,356.75,51.9501,56.5125,160.186,100.376,73.3505,0.0102232,0.295143,20.6719,1038.88,2.77234,0.0,0.0
1440,359.75,51.3053,56.5151,160.764,100.398,72.1409,0.0101398,0.289908,20.6805,1038.69,2.92124,0.0,0.0
1452,362.75,51.5897,56.3571,161.41,100.42,71.1154,0.00992004,0.285779,20.6861,1038.57,3.04974,0.0,0.0
1464,365.75,50.9727,55.4485,161.526,100.448,74.7183,0.0096011,0.282771,20.6921,1038.06,2.6154,0.0,0.0
1476,368.75,50.7902,55.1514,162.985,100.451,69.6499,0.0095229,0.276903,20.6965,1038,3.2365,0.0,0.0
1488,371.75,50.1259,55.0859,161.779,100.465,69.8851,0.0097929,0.276866,20.6966,1038.06,3.20798,0.0,0.0
1500,374.75,49.8759,54.2897,158.824,100.454,73.6142,0.00984458,0.277723,20.6944,1037.94,2.74752,0.0,0.0
1512,377.75,49.7688,54.4084,161.895,100.467,74.2161,0.00962127,0.28009,20.6928,1037.83,2.67672,0.0,0.0
1524,380.75,49.3824,53.6544,160.68,100.458,74.5147,0.00946434,0.278863,20.6957,1037.64,2.64045,0.0,0.0
1536,383.75,49.9998,54.4988,161.116,100.471,71.2959,0.00940549,0.27471,20.7026,1037.48,3.03183,0.0,0.0
1548,386.75,49.0602,53.6768,160.092,100.465,74.4599,0.00921435,0.271068,20.7074,1037.3,2.64755,0.0,0.0
1560,389.75,48.4074,52.7785,158,100.453,75.1134,0.00890617,0.269649,20.7097,1037.16,2.56922,0.0,0.0
1572,392.75,48.2614,52.5601,158.2,100.455,75.2257,0.00856025,0.268139,20.7131,1037.07,2.55619,0.0,0.0
1584,395.75,47.9364,51.9264,164.675,100.439,74.4096,0.00846341,0.265429,20.7184,1036.86,2.65121,0.0,0.0
1596,398.75,48.0611,52.3942,165.887,100.421,73.7902,0.00862695,0.261623,20.724,1036.76,2.72355,0.0,0.0
1608,401.75,47.1829,51.2291,159.835,100.414,74.0973,0.0085691,0.25974,20.7268,1036.62,2.68621,0.0,0.0
1620,404.75,47.5038,51.7662,163.012,100.405,75.1864,0.00854035,0.259919,20.7276,1036.47,2.55642,0.0,0.0
1632,407.75,47.8439,52.2146,164.604,100.377,74.9511,0.0085888,0.259697,20.7282,1036.34,2.58169,0.0,0.0
1644,410.75,47.0552,50.6793,162.677,100.376,76.0159,0.00866465,0.257822,20.7296,1036.19,2.4569,0.0,0.0
1656,413.75,47.6168,51.2661,158.9,100.346,74.4546,0.00863545,0.255831,20.7321,1035.99,2.63772,0.0,0.0
1668,416.75,46.9804,50.216,158.89,100.323,75.7117,0.00857615,0.255567,20.7327,1035.9,2.48767,0.0,0.0
1680,419.75,47.0207,50.4867,163.906,100.291,76.0147,0.00852192,0.257809,20.7305,1035.81,2.44958,0.0,0.0
1692,422.75,46.6394,50.393,152.203,100.246,74.6956,0.00853857,0.255427,20.7334,1035.65,2.6003,0.0,0.0
1704,425.75,46.2337,49.78,158.335,100.2,74.1695,0.00853132,0.253595,20.7344,1035.51,2.65869,0.0,0.0
1716,428.75,45.7511,49.4173,159.22,100.167,76.9781,0.00843364,0.253959,20.735,1035.38,2.32729,0.0,0.0
1728,431.75,45.7868,49.3155,162.736,100.097,76.205,0.00824128,0.251939,20.7385,1035.23,2.41035,0.0,0.0
1740,434.75,46.6176,50.0048,161.96,100.025,77.0609,0.00799954,0.249491,20.7423,1035.1,2.30529,0.0,0.0
1752,437.75,46.1163,49.7708,160.885,99.9595,76.0593,0.00802501,0.248551,20.7437,1034.96,2.4151,0.0,0.0
1764,440.75,45.3721,48.8717,160.694,99.8747,76.6069,0.0081277,0.248993,20.7448,1034.8,2.3442,0.0,0.0
1776,443.75,45.5309,48.8807,161.953,99.7498,73.0937,0.00817097,0.248519,20.7463,1034.62,2.74806,0.0,0.0
1788,446.75,45.8684,49.1789,161.637,99.6585,72.2017,0.00823519,0.246467,20.7488,1034.47,2.84849,0.0,0.0
1800,449.75,45.9043,48.6941,162.71,99.5794,74.3078,0.00818536,0.246452,20.7494,1034.42,2.58735,0.0,0.0
1812,452.75,45.4385,48.7234,166.706,99.5092,73.3639,0.00797125,0.247079,20.7485,1034.23,2.69411,0.0,0.0
1824,455.75,45.4666,48.358,163.341,99.4362,76.2885,0.00791268,0.245197,20.7512,1034.01,2.34213,0.0,0.0
1836,458.75,45.0147,48.0343,159.536,99.3324,74.3707,0.00822342,0.244302,20.7509,1033.95,2.55792,0.0,0.0
1848,461.75,44.5525,48.3028,162.793,99.2497,72.7428,0.0083454,0.245505,20.7504,1033.84,2.74616,0.0,0.0
1860,464.75,44.9052,47.4965,160.57,99.1795,77.6198,0.00829645,0.245779,20.7514,1033.71,2.16637,0.0,0.0
1872,467.75,45.2184,48.4107,164.005,99.1272,73.7204,0.00807586,0.24507,20.7519,1033.59,2.61726,0.0,0.0
1884,470.75,44.9633,48.3366,160.28,99.0546,73.6381,0.00784557,0.245294,20.7507,1033.47,2.62066,0.0,0.0
1896,473.75,44.7835,48.1217,165.629,98.9641,74.814,0.00782363,0.246288,20.7495,1033.35,2.47256,0.0,0.0
1908,476.75,44.097,46.9497,166.764,98.9008,74.4911,0.00793346,0.245631,20.7505,1033.2,2.50513,0.0,0.0
1920,479.75,44.5109,47.2353,164.461,98.8453,75.4525,0.00809848,0.243612,20.7539,1033.1,2.38683,0.0,0.0
1932,482.75,44.389,47.5979,166.616,98.7759,75.6602,0.00844907,0.241078,20.7554,1032.94,2.35633,0.0,0.0
1944,485.75,44.2435,46.8841,164.805,98.7061,76.8487,0.00834103,0.240648,20.7559,1032.71,2.21233,0.0,0.0
1956,488.75,44.3564,46.9922,167.316,98.6664,73.3854,0.00819164,0.242107,20.7565,1032.58,2.61634,0.0,0.0
1968,491.75,44.6306,47.4883,160.874,98.5905,73.6576,0.00813175,0.243201,20.7555,1032.43,2.57682,0.0,0.0
1980,494.75,44.049,47.0116,157.839,98.5524,71.2943,0.00813258,0.243223,20.756,1032.44,2.86163,0.0,0.0
1992,497.75,43.7815,46.5157,159.872,98.5025,75.5689,0.00808082,0.241583,20.7602,1031.97,2.3425,0.0,0.0
2004,500.75,43.9522,46.3682,159.122,98.4713,72.2309,0.00812078,0.23746,20.7643,1032.05,2.73899,0.0,0.0
2016,503.75,43.7904,46.8483,163.929,98.4636,72.5189,0.00830511,0.238225,20.7625,1031.94,2.70313,0.0,0.0
2028,506.75,43.709,46.5567,160.353,98.4538,73.3829,0.00829118,0.240455,20.7598,1031.87,2.59757,0.0,0.0
2040,509.75,43.7115,46.6348,156.416,98.4559,74.8445,0.00821485,0.242881,20.7574,1031.74,2.42346,0.0,0.0
2052,512.75,44.1989,46.9418,159.227,98.492,75.0375,0.00822688,0.242669,20.7569,1031.59,2.40393,0.0,0.0
2064,515.75,44.4108,46.3815,160.155,98.5435,75.1402,0.0081428,0.241386,20.7577,1031.47,2.39647,0.0,0.0
2076,518.75,44.0661,46.5027,163.539,98.6084,74.5767,0.00785544,0.240778,20.7595,1031.37,2.46881,0.0,0.0
2088,521.75,44.2632,46.7838,156.154,98.711,73.8478,0.00755708,0.240056,20.7602,1031.19,2.56482,0.0,0.0
2100,524.75,44.3351,46.4912,168.9,98.8027,75.5693,0.00761637,0.237262,20.7632,1031.06,2.36935,0.0,0.0
2112,527.75,43.4492,46.2662,153.493,98.8976,76.2321,0.00785734,0.236139,20.7645,1030.97,2.30065,0.0,0.0
2124,530.75,43.4103,46.349,163.732,99.0278,73.8166,0.00785231,0.236607,20.7649,1030.82,2.59688,0.0,0.0
2136,533.75,43.4935,45.6791,155.866,99.1888,74.1654,0.00792605,0.23719,20.7661,1030.7,2.56957,0.0,0.0
2148,536.75,43.757,46.1164,166.805,99.3543,74.9308,0.00798821,0.23532,20.7688,1030.59,2.49355,0.0,0.0
2160,539.75,43.1498,45.5607,160.76,99.5141,74.9499,0.00781675,0.23348,20.7703,1030.45,2.50551,0.0,0.0
2172,542.75,43.5706,46.4304,163.139,99.6281,76.8905,0.00763552,0.234103,20.7707,1030.32,2.2897,0.0,0.0
2184,545.75,44.0846,46.4189,160.646,99.7315,76.8503,0.00751019,0.231977,20.7738,1030.22,2.30348,0.0,0.0
2196,548.75,43.5991,46.2218,161.195,99.8053,77.1736,0.00735172,0.230405,20.7767,1030.11,2.27292,0.0,0.0
2208,551.75,43.1696,45.4936,156.785,99.8439,73.6997,0.00729782,0.227834,20.7792,1029.96,2.68341,0.0,0.0
2220,554.75,43.6403,45.7278,162.202,99.8625,76.4151,0.00737323,0.228202,20.7798,1029.85,2.36529,0.0,0.0
2232,557.75,43.0178,45.2606,162.849,99.8435,76.4532,0.00722603,0.227061,20.782,1029.48,2.35919,0.0,0.0
2244,560.75,43.3759,45.5246,164.138,99.8191,76.398,0.00729235,0.224258,20.783,1029.59,2.36341,0.0,0.0
2256,563.75,43.1311,45.5724,161.224,99.7964,75.5669,0.00719972,0.225063,20.7832,1029.47,2.45808,0.0,0.0
2268,566.75,42.6392,44.5869,164.224,99.7453,75.1341,0.00711167,0.2247,20.7837,1029.33,2.50433,0.0,0.0
2280,569.75,42.7066,45.0003,160.344,99.6828,78.0956,0.00683046,0.224477,20.7851,1029.16,2.1571,0.0,0.0
2292,572.75,42.7302,45.0277,166.546,99.6175,78.5211,0.00678459,0.222627,20.7893,1029.04,2.10328,0.0,0.0
2304,575.75,42.468,45.0025,166.436,99.5648,76.5104,0.00685086,0.220221,20.792,1029.02,2.32788,0.0,0.0
2316,578.75,42.5018,45.0926,159.976,99.5786,76.0747,0.00675895,0.218954,20.7933,1028.8,2.37957,0.0,0.0
2328,581.75,42.4168,44.7942,167.062,99.8775,76.5858,0.00671836,0.219791,20.7933,1028.77,2.34688,0.0,0.0
2340,584.75,42.3574,44.8002,155.798,100.108,76.5923,0.00672678,0.220418,20.7933,1028.59,2.3665,0.0,0.0
2352,587.75,42.5731,44.9056,166.954,100.247,79.3827,0.00682729,0.220206,20.7938,1028.52,2.0625,0.0,0.0
2364,590.75,42.232,44.6335,158.863,100.332,76.9371,0.0069102,0.21868,20.7959,1028.34,2.34658,0.0,0.0
2376,593.75,42.5093,44.5349,159.001,100.346,77.0515,0.00688638,0.215136,20.801,1028.25,2.3347,0.0,0.0
2388,596.75,41.8493,44.1521,163.223,100.309,78.2072,0.00688839,0.214418,20.8015,1028.23,2.19984,0.0,0.0
2400,599.75,42.1742,44.0726,166.157,100.205,80.452,0.00670636,0.214532,20.8025,1028.12,1.94053,0.0,0.0
2412,602.75,41.3834,43.5513,160.069,100.059,79.8614,0.00649759,0.212497,20.8075,1027.83,1.9928,0.0,0.0
2424,605.75,41.9509,44.0768,164.707,99.869,76.8702,0.00651772,0.210629,20.8104,1027.87,2.31337,0.0,0.0
2436,608.75,41.4322,43.8025,163.133,99.7644,78.3759,0.00655706,0.210816,20.8091,1027.77,2.13266,0.0,0.0
2448,611.75,41.2343,43.4861,164.2,99.8508,79.1852,0.00647593,0.211767,20.808,1027.61,2.04952,0.0,0.0
2460,614.75,41.5874,43.8876,163.437,99.9587,79.4906,0.0064497,0.210365,20.8104,1027.61,2.02504,0.0,0.0
2472,617.75,41.6185,43.7123,166.559,100.057,81.1059,0.00646955,0.208687,20.8131,1027.47,1.85591,0.0,0.0
2484,620.75,41.3037,43.5955,160.252,100.161,80.325,0.00632913,0.207167,20.8169,1027.31,1.95066,0.0,0.0
2496,623.75,41.5508,43.7977,165.453,100.277,80.0358,0.00623092,0.205539,20.8194,1027.3,1.9927,0.0,0.0
2508,626.75,41.6828,43.5746,164.324,100.362,81.2904,0.00615513,0.204399,20.8224,1027.16,1.86276,0.0,0.0
2520,629.75,41.7308,43.5675,163.553,100.448,81.7857,0.00593663,0.203096,20.8254,1026.95,1.81661,0.0,0.0
2532,632.75,40.4486,42.5816,163.224,100.522,79.8857,0.0059238,0.201905,20.827,1026.9,2.03089,0.0,0.0
2544,635.75,40.3612,42.8257,165.465,100.539,80.1116,0.00591326,0.200331,20.8298,1026.78,2.00743,0.0,0.0
2556,638.75,40.6228,42.5127,163.346,100.536,79.4642,0.00583777,0.19902,20.8315,1026.79,2.07889,0.0,0.0
2568,641.75,40.2447,42.3245,161.631,100.473,79.0286,0.00564864,0.198392,20.8333,1026.68,2.12195,0.0,0.0
2580,644.75,40.9119,42.9014,163.409,100.376,80.4074,0.00547384,0.196548,20.8349,1026.38,1.96052,0.0,0.0
2592,647.75,40.7651,42.364,157.568,100.233,80.3717,0.00537678,0.195493,20.8351,1026.47,1.95182,0.0,0.0
2604,650.75,40.188,42.4328,163.175,100.041,80.5217,0.00530753,0.196186,20.8344,1026.37,1.91844,0.0,0.0
2616,653.75,40.4364,42.2201,166.313,99.8033,81.9338,0.00511784,0.194549,20.8374,1026.15,1.74373,0.0,0.0
2628,656.75,40.4455,42.4819,157.491,99.5599,80.4333,0.0049072,0.193289,20.8385,1026.18,1.88551,0.0,0.0
2640,659.75,39.9126,41.8056,165.077,99.3198,83.1474,0.00496336,0.192916,20.8401,1026.11,1.57085,0.0,0.0
2652,662.75,39.9451,41.9927,166.256,99.0898,81.6401,0.00504613,0.191338,20.8436,1026.02,1.71206,0.0,0.0
2664,665.75,39.9399,41.6217,166.313,98.8895,81.3651,0.00499642,0.188366,20.8479,1025.87,1.72399,0.0,0.0
2676,668.75,40.0261,41.321,166.645,98.7057,83.016,0.00497409,0.18732,20.8498,1025.74,1.53001,0.0,0.0
2688,671.75,39.7204,41.3653,164.715,98.5767,82.0571,0.00466831,0.187122,20.8512,1025.72,1.62114,0.0,0.0
2700,674.75,39.1748,40.9753,169.824,98.494,83.8626,0.00436569,0.185452,20.8535,1025.72,1.42136,0.0,0.0
2712,677.75,39.2107,41.0061,159.602,98.4697,81.3148,0.00416015,0.184461,20.8564,1025.56,1.69186,0.0,0.0
2724,680.75,39.4808,41.1513,168.47,98.4871,82.9292,0.00402403,0.183169,20.8585,1025.48,1.51966,0.0,0.0
2736,683.75,38.3137,40.0902,166.366,98.5873,82.6899,0.00405417,0.18186,20.861,1025.38,1.55419,0.0,0.0
2748,686.75,39.3382,40.7099,156.668,98.6903,82.0356,0.00414488,0.181318,20.8619,1025.35,1.63364,0.0,0.0
2760,689.75,38.659,40.4751,161.454,98.8266,82.5183,0.00407739,0.181138,20.8628,1025.28,1.59398,0.0,0.0
2772,692.75,38.8223,40.3642,166.003,98.9921,83.0201,0.00395639,0.180543,20.8641,1025.15,1.55518,0.0,0.0
2784,695.75,38.8036,40.6433,164.767,99.1584,83.7749,0.00410066,0.178163,20.8677,1025.05,1.49002,0.0,0.0
2796,698.75,38.4811,40.5059,168.131,99.3219,84.0029,0.00400749,0.176737,20.8694,1025,1.48056,0.0,0.0
2808,701.75,38.7959,40.3156,164.589,99.4707,83.9279,0.00381405,0.175479,20.8725,1024.91,1.50169,0.0,0.0
2820,704.75,38.0555,40.0677,166.151,99.624,85.1334,0.00392306,0.174298,20.8741,1024.77,1.38925,0.0,0.0
2832,707.75,38.2836,39.8948,167.612,99.7469,85.7926,0.00389118,0.173434,20.8745,1024.63,1.33198,0.0,0.0
2844,710.75,37.6792,39.552,165.184,99.8313,86.5093,0.00361426,0.172347,20.8763,1024.71,1.26592,0.0,0.0
2856,713.75,37.6223,39.2309,166.907,99.8483,85.5995,0.00356554,0.171941,20.8768,1024.63,1.36088,0.0,0.0
2868,716.75,37.1,38.8718,168.992,99.8033,85.0219,0.00358876,0.171228,20.8788,1024.53,1.41673,0.0,0.0
2880,719.75,37.7317,39.3302,168.475,99.749,87.1864,0.00334392,0.170065,20.8816,1024.33,1.18973,0.0,0.0
2892,722.75,37.8281,39.2507,163.042,99.6906,84.7651,0.00314912,0.168559,20.8841,1024.34,1.43347,0.0,0.0
2904,725.75,37.4166,38.8084,158.463,99.5782,84.127,0.00324855,0.168351,20.8848,1024.33,1.49029,0.0,0.0
2916,728.75,37.3537,38.8305,164.741,99.4987,86.8221,0.00325151,0.168352,20.8861,1024.07,1.20453,0.0,0.0
2928,731.75,36.7305,38.1947,166.824,99.7384,85.896,0.00327917,0.165778,20.89,1024.11,1.32058,0.0,0.0
2940,734.75,37.4241,38.8442,166.646,100.11,87.5092,0.0032455,0.163688,20.8928,1024.04,1.18902,0.0,0.0
2952,737.75,36.9171,38.3081,167.917,100.307,87.5608,0.00302354,0.163317,20.8939,1024.07,1.20117,0.0,0.0
2964,740.75,36.9533,38.4038,168.173,100.303,87.5421,0.00281112,0.163799,20.8937,1023.99,1.20266,0.0,0.0
2976,743.75,36.7589,37.98,163.691,100.092,88.108,0.00284234,0.163058,20.8961,1023.92,1.12711,0.0,0.0
2988,746.75,36.4047,37.9336,158.311,99.7632,87.7437,0.00282537,0.161853,20.899,1023.59,1.13466,0.0,0.0
3000,749.75,36.1794,37.7324,165.442,99.9132,89.5549,0.00284762,0.159097,20.9016,1023.62,0.967369,0.0,0.0
3012,752.75,35.9579,37.4022,165.378,100.123,88.9249,0.00281839,0.160083,20.9008,1023.76,1.04829,0.0,0.0
3024,755.75,36.1902,37.4507,168.654,100.328,90.268,0.00273574,0.159345,20.9018,1023.52,0.933899,0.0,0.0
3036,758.75,35.8865,37.3847,168.992,100.473,90.1345,0.00266406,0.156691,20.907,1023.33,0.959687,0.0,0.0
3048,761.75,35.9322,37.4169,168.514,100.543,89.7281,0.00271854,0.153746,20.9106,1023.38,1.00584,0.0,0.0
3060,764.75,35.1926,36.4034,165.985,100.527,91.0273,0.00285649,0.15478,20.9089,1023.31,0.877352,0.0,0.0
3072,767.75,35.0614,36.4288,164.538,100.433,89.1014,0.00291872,0.15602,20.9073,1023.18,1.05808,0.0,0.0
3084,770.75,35.5022,36.6141,164.923,100.256,90.1236,0.00275304,0.156069,20.9076,1023.07,0.941722,0.0,0.0
3096,773.75,35.7546,36.9753,167.733,100.0625,90.6525,0.00254994,0.154829,20.9098,1023,0.872892,0.0,0.0
3108,776.75,35.3411,36.7415,168.995,99.7964,89.7338,0.00243023,0.15362,20.9105,1023.14,0.939392,0.0,0.0
3120,779.75,34.6309,35.9331,171.375,99.5023,90.6943,0.00257453,0.151329,20.9138,1023.07,0.819202,0.0,0.0
3132,782.75,35.1309,36.6585,157.515,99.2225,90.7892,0.00282967,0.151289,20.9147,1022.97,0.785063,0.0,0.0
3144,785.75,34.8814,36.2091,166.879,98.9682,90.3065,0.00297103,0.150392,20.916,1022.9,0.809497,0.0,0.0
3156,788.75,34.5952,35.8396,170.322,98.7637,90.225,0.00274279,0.149982,20.9196,1022.9,0.799205,0.0,0.0
3168,791.75,34.7927,35.9771,170.269,98.621,90.4286,0.00242934,0.150076,20.9207,1022.72,0.766494,0.0,0.0
3180,794.75,34.6967,35.7227,171.436,98.5342,90.0721,0.00221848,0.148796,20.9222,1022.73,0.793629,0.0,0.0
3192,797.75,34.3714,35.6639,172.997,98.4989,89.8944,0.00221227,0.147791,20.9227,1022.68,0.807915,0.0,0.0
3204,800.75,34.7023,35.7598,166.171,98.4916,89.9512,0.00239969,0.148778,20.9226,1022.69,0.801678,0.0,0.0
3216,803.75,34.8205,35.6296,171.852,98.5123,90.1199,0.00242487,0.147238,20.9246,1022.59,0.786969,0.0,0.0
3228,806.75,34.1356,35.2889,170.401,98.5654,90.412,0.00253884,0.145882,20.9265,1022.65,0.763138,0.0,0.0
3240,809.75,34.4793,35.4667,167.76,98.6295,91.6885,0.00279359,0.14464,20.9265,1022.32,0.644966,0.0,0.0
3252,812.75,34.0148,35.1806,166.945,98.6952,91.7185,0.00268699,0.142769,20.9273,1022.37,0.647957,0.0,0.0
3264,815.75,34.0796,35.3695,169.992,98.7864,91.2379,0.00253894,0.142385,20.9275,1022.42,0.702569,0.0,0.0
3276,818.75,34.2929,35.3478,168.118,98.8785,91.7794,0.00247645,0.143617,20.9256,1022.42,0.658499,0.0,0.0
3288,821.75,33.9376,35.0123,171.004,98.9308,92.1891,0.00245761,0.143906,20.9259,1022.32,0.62381,0.0,0.0
3300,824.75,33.6543,34.7965,169.667,99.0241,92.527,0.00247281,0.141878,20.9278,1022.25,0.599805,0.0,0.0
3312,827.75,33.9816,34.935,167.784,99.0971,92.3862,0.00270859,0.140711,20.9287,1022.22,0.619774,0.0,0.0
3324,830.75,33.5343,34.6856,168.98,99.156,92.3574,0.00289592,0.141382,20.9296,1022.22,0.627774,0.0,0.0
3336,833.75,33.5212,34.4825,170.277,99.2152,93.088,0.00288338,0.140814,20.9318,1022.13,0.563414,0.0,0.0
3348,836.75,33.5441,34.4231,172.99,99.2679,92.8125,0.00300362,0.138827,20.9357,1022.14,0.5943,0.0,0.0
3360,839.75,33.3287,34.5417,168.922,99.3174,92.9529,0.00327552,0.136413,20.9387,1022.09,0.585349,0.0,0.0
3372,842.75,32.499,33.5747,173.164,99.349,93.3739,0.00339658,0.136199,20.94,1021.95,0.548219,0.0,0.0
3384,845.75,33.4324,34.6003,171.903,99.3892,93.3098,0.00344901,0.136015,20.9406,1021.86,0.557859,0.0,0.0
3396,848.75,32.6356,34.3943,169.585,99.4293,93.1711,0.00367354,0.133981,20.9423,1021.83,0.574579,0.0,0.0
3408,851.75,33.4068,34.2425,166.5,99.4529,93.6473,0.00371556,0.134326,20.9427,1021.82,0.53161,0.0,0.0
3420,854.75,32.8219,34.2061,164.592,99.4719,93.8295,0.00366589,0.134465,20.9422,1021.9,0.516133,0.0,0.0
3432,857.75,32.9037,34.0273,163.203,99.476,92.5038,0.00372944,0.134463,20.9438,1021.85,0.642252,0.0,0.0
3444,860.75,32.8524,33.7903,168.378,99.4877,94.6906,0.00382462,0.132952,20.9461,1021.74,0.436788,0.0,0.0
3456,863.75,32.7911,33.6348,172.694,99.4841,94.6744,0.00371806,0.131104,20.9494,1021.59,0.437979,0.0,0.0
3468,866.75,32.4514,33.6654,166.059,99.4869,93.7321,0.00380035,0.132159,20.9479,1021.48,0.52664,0.0,0.0
3480,869.75,32.5974,33.7168,168.979,99.478,94.4797,0.00396458,0.133472,20.9466,1021.66,0.455634,0.0,0.0
3492,872.75,32.1631,33.223,171.547,99.5011,94.5089,0.00395725,0.131331,20.9489,1021.39,0.454955,0.0,0.0
3504,875.75,32.2353,33.2937,168.667,99.4865,94.2826,0.00395318,0.130967,20.9488,1021.51,0.474852,0.0,0.0
3516,878.75,31.6861,32.5708,162.585,99.4809,94.584,0.00394874,0.129902,20.9505,1021.45,0.446139,0.0,0.0
3528,881.75,31.8715,33.1295,171.281,99.4711,94.1171,0.00395334,0.128152,20.9513,1021.36,0.489011,0.0,0.0
3540,884.75,31.9513,33.2512,170.899,99.4654,95.1466,0.00421766,0.127519,20.9539,1021.25,0.392352,0.0,0.0
3552,887.75,31.5026,32.7641,169.698,99.4833,93.6769,0.00445658,0.126216,20.9556,1021.16,0.531519,0.0,0.0
3564,890.75,31.7431,32.7899,174.364,99.4561,94.9393,0.00441199,0.125706,20.9574,1021.24,0.410798,0.0,0.0
3576,893.75,31.4739,32.6215,163.167,99.4529,95.2614,0.00418296,0.124663,20.9582,1021.17,0.380577,0.0,0.0
3588,896.75,31.6693,32.7312,172.539,99.4233,94.9174,0.00432552,0.124043,20.9584,1021.16,0.409917,0.0,0.0
3600,899.75,30.9567,32.1799,170.714,99.3872,94.732,0.00452787,0.123639,20.9568,1021.21,0.423986,0.0,0.0
3612,902.75,31.1373,32.1937,170.561,99.3632,94.7328,0.0047361,0.123141,20.9585,1021.27,0.421783,0.0,0.0
3624,905.75,31.293,32.3463,164.131,99.3324,95.1263,0.00495845,0.122657,20.9618,1021.05,0.382406,0.0,0.0
3636,908.75,30.7597,31.7145,169.524,99.2999,95.1924,0.00508679,0.121608,20.9635,1020.94,0.373378,0.0,0.0
3648,911.75,30.7688,31.6516,169.966,99.2452,94.8119,0.00512396,0.119335,20.9665,1021,0.403901,0.0,0.0
3660,914.75,31.0819,31.4377,173.87,99.1921,94.4464,0.00487017,0.120272,20.9653,1020.91,0.433303,0.0,0.0
3672,917.75,30.6173,30.9688,176.018,99.1353,94.6314,0.00467172,0.119427,20.9662,1020.86,0.410948,0.0,0.0
3684,920.75,30.0765,31.1865,171.151,99.0687,94.1848,0.00486279,0.118292,20.9666,1020.88,0.446827,0.0,0.0
3696,923.75,30.2013,31.0559,178.052,99.0039,95.6094,0.00489148,0.117906,20.9668,1020.87,0.30835,0.0,0.0
3708,926.75,30.2995,31.1405,170.102,98.9288,95.1604,0.0049095,0.117792,20.9664,1020.69,0.343258,0.0,0.0
3720,929.75,30.17,30.9256,175.554,98.8566,95.3579,0.00489377,0.117249,20.9674,1020.71,0.318477,0.0,0.0
3732,932.75,30.0396,30.8839,168.605,98.7828,95.1429,0.00508713,0.117436,20.9677,1020.72,0.331822,0.0,0.0
3744,935.75,29.9763,31.1975,160.506,98.7017,94.427,0.00549589,0.116432,20.9691,1020.7,0.391322,0.0,0.0
3756,938.75,29.9887,30.8991,168.485,98.655,93.9938,0.00565554,0.115592,20.9695,1020.6,0.427786,0.0,0.0
3768,941.75,29.7326,30.8565,176.701,98.584,95.7153,0.0056548,0.114238,20.971,1020.65,0.261012,0.0,0.0
3780,944.75,30.2991,31.1116,172.69,98.5301,94.7138,0.00568418,0.114249,20.9715,1020.59,0.349141,0.0,0.0
3792,947.75,29.8069,30.5369,168.86,98.4847,94.5004,0.00546389,0.113814,20.9718,1020.45,0.365,0.0,0.0
3804,950.75,29.7917,30.6377,166.181,98.4587,95.0565,0.00545797,0.113362,20.9737,1020.46,0.310808,0.0,0.0
3816,953.75,29.5153,30.4276,171.175,98.4441,95.0464,0.00576374,0.111415,20.9757,1020.44,0.310441,0.0,0.0
3828,956.75,29.2727,30.2513,174.083,98.4474,94.9961,0.0060087,0.110741,20.9768,1020.39,0.31541,0.0,0.0
3840,959.75,28.7784,29.4719,168.244,98.4705,94.672,0.00612405,0.110394,20.9771,1020.4,0.347692,0.0,0.0
3852,962.75,28.9881,29.9609,170.623,98.5289,95.2853,0.0061871,0.110399,20.9778,1020.3,0.295859,0.0,0.0
3864,965.75,29.4325,30.2607,166.342,98.6015,95.3689,0.00586977,0.108944,20.9803,1020.21,0.294622,0.0,0.0
3876,968.75,29.1059,29.7585,172.745,98.6854,95.8889,0.00570065,0.108439,20.982,1020.24,0.254082,0.0,0.0
3888,971.75,28.7538,29.5525,170.316,98.8104,94.9584,0.00605103,0.108335,20.9831,1020.19,0.351452,0.0,0.0
3900,974.75,28.5504,29.4169,165.302,98.9357,95.3133,0.00634363,0.108429,20.9829,1020.17,0.329682,0.0,0.0
3912,977.75,28.1989,28.8957,169.586,99.1032,95.2772,0.00648477,0.108036,20.9833,1020.08,0.347982,0.0,0.0
3924,980.75,28.1869,28.9981,172.034,99.2342,95.8589,0.00670305,0.106819,20.985,1020.04,0.305862,0.0,0.0
3936,983.75,28.1136,29.0298,171.43,99.3855,95.5218,0.0065778,0.10653,20.9876,1019.93,0.350463,0.0,0.0
3948,986.75,28.2988,29.3415,168.275,99.5567,96.0211,0.00642575,0.10551,20.9885,1020.02,0.319589,0.0,0.0
3960,989.75,28.1893,29.0756,179.006,99.7189,96.8653,0.00659931,0.104326,20.9895,1019.96,0.256621,0.0,0.0
3972,992.75,27.7622,28.7904,172.571,99.8938,96.0755,0.00664474,0.103376,20.9907,1019.91,0.344461,0.0,0.0
3984,995.75,28.337,28.9374,173.894,100.04,96.4649,0.0067274,0.103413,20.9901,1019.94,0.321655,0.0,0.0
3996,998.75,28.1692,28.9037,171.778,100.176,96.1436,0.00701596,0.103123,20.9897,1019.89,0.363173,0.0,0.0
4008,1001.75,27.8834,29.0378,172.105,100.293,96.9415,0.00716656,0.101203,20.9919,1019.78,0.30039,0.0,0.0
4020,1004.75,27.9172,28.7842,177.248,100.393,96.8162,0.00715883,0.100268,20.9942,1019.76,0.320614,0.0,0.0
4032,1007.75,27.8826,28.6504,168.624,100.45,96.9419,0.00731329,0.10077,20.9949,1019.73,0.314211,0.0,0.0
4044,1010.75,27.6853,28.5766,172.117,100.472,97.2713,0.00746605,0.100082,20.9965,1019.73,0.286159,0.0,0.0
4056,1013.75,27.648,28.5333,170.156,100.486,96.671,0.00753629,0.0996829,20.9961,1019.67,0.34209,0.0,0.0
4068,1016.75,27.1559,28.0293,167.521,100.458,97.3946,0.00764106,0.099585,20.9958,1019.62,0.273677,0.0,0.0
4080,1019.75,27.0495,27.8495,174.651,100.411,97.7929,0.00769124,0.0979444,20.9957,1019.56,0.233462,0.0,0.0
4092,1022.75,26.7138,27.6689,173.718,100.332,97.0798,0.00792659,0.0974789,20.997,1019.56,0.291219,0.0,0.0
4104,1025.75,27.1203,27.8691,169.748,100.252,97.6356,0.00806584,0.0961255,20.9981,1019.58,0.233726,0.0,0.0
4116,1028.75,27.0271,27.6931,175.622,100.15,97.0774,0.00803024,0.0944997,21.0009,1019.55,0.275418,0.0,0.0
4128,1031.75,26.8353,27.5421,172.281,100.042,97.6619,0.00803945,0.094597,21.0014,1019.42,0.212796,0.0,0.0
4140,1034.75,26.6937,27.1037,169.918,99.9396,97.204,0.00824646,0.0954507,21.0012,1019.39,0.245306,0.0,0.0
4152,1037.75,26.959,27.3116,173.591,99.8256,96.7164,0.00841313,0.0953396,21.0011,1019.4,0.279665,0.0,0.0
4164,1040.75,26.3937,27.1203,168.333,99.7429,97.4335,0.00859842,0.095351,21.0019,1019.39,0.20704,0.0,0.0
4176,1043.75,25.8311,26.8325,166.971,99.6707,96.4231,0.00860119,0.0946322,21.0039,1019.37,0.292777,0.0,0.0
4188,1046.75,26.1708,26.7906,171.492,99.8605,96.5606,0.00855138,0.0936291,21.0061,1019.36,0.296999,0.0,0.0
4200,1049.75,26.2664,27.0158,173.119,100.045,96.6945,0.00859902,0.0925681,21.0071,1019.27,0.301074,0.0,0.0
4212,1052.75,26.1798,27.048,170.444,100.17,97.3703,0.00865035,0.0919374,21.0089,1019.21,0.250512,0.0,0.0
4224,1055.75,26.1884,27.0809,168.902,100.227,96.3959,0.00851402,0.0910592,21.0087,1019.27,0.34448,0.0,0.0
4236,1058.75,26.0597,26.7911,177.984,100.245,97.06,0.00828755,0.090919,21.0078,1019.26,0.285342,0.0,0.0
4248,1061.75,26.0795,26.7792,169.558,100.201,97.2466,0.00831507,0.0906911,21.009,1019.21,0.26454,0.0,0.0
4260,1064.75,25.9421,26.6178,178.671,100.103,97.0356,0.00856223,0.0900136,21.008,1019.2,0.27507,0.0,0.0
4272,1067.75,25.6795,26.3961,166.948,99.9428,97.4019,0.00873998,0.0891258,21.0093,1019.03,0.227612,0.0,0.0
4284,1070.75,25.9662,26.5952,173.762,99.7161,97.1318,0.00904216,0.0880894,21.0113,1019.1,0.232086,0.0,0.0
4296,1073.75,25.4883,26.4042,166.646,99.4354,96.7594,0.00926221,0.0879442,21.0102,1018.97,0.241122,0.0,0.0
4308,1076.75,25.7948,26.3424,171.869,99.4448,96.447,0.00938139,0.0882108,21.0103,1019.08,0.270528,0.0,0.0
4320,1079.75,25.4752,25.9807,178.294,99.4918,97.5216,0.00927741,0.086548,21.0116,1019.02,0.176782,0.0,0.0
4332,1082.75,25.9262,26.6758,173.703,99.532,96.7387,0.00942809,0.0863264,21.0115,1019.01,0.251589,0.0,0.0
4344,1085.75,25.4669,26.167,175.663,99.5847,96.6856,0.0095176,0.0866316,21.0123,1018.97,0.261126,0.0,0.0
4356,1088.75,24.6056,25.3861,170.464,99.6557,97.0267,0.00956184,0.0861882,21.0147,1019,0.236292,0.0,0.0
4368,1091.75,25.2667,25.8659,177.165,99.7015,96.6413,0.00935263,0.0853774,21.0166,1018.82,0.27553,0.0,0.0
4380,1094.75,25.1086,25.7667,173.496,99.736,97.3829,0.00910888,0.0840309,21.0185,1018.84,0.211029,0.0,0.0
4392,1097.75,25.2451,25.8322,175.968,99.7786,97.2672,0.00908904,0.0846412,21.0184,1018.82,0.225301,0.0,0.0
4404,1100.75,24.8567,25.607,170.847,99.8049,96.9229,0.00914752,0.0852364,21.0174,1018.8,0.258985,0.0,0.0
4416,1103.75,24.9238,25.7707,176.612,99.7794,97.4295,0.00943756,0.0847841,21.0179,1018.7,0.210641,0.0,0.0
4428,1106.75,25.3314,25.8626,174.478,99.7287,97.1188,0.00970499,0.0853843,21.017,1018.66,0.234382,0.0,0.0
4440,1109.75,24.7938,25.7766,175.069,99.6289,97.5268,0.00974994,0.0853711,21.0166,1018.66,0.188475,0.0,0.0
4452,1112.75,24.7253,24.8809,172.536,99.521,97.0308,0.00962711,0.0843379,21.0179,1018.65,0.223972,0.0,0.0
4464,1115.75,24.4387,25.1999,171.63,99.3872,97.1971,0.00954752,0.085231,21.0168,1018.67,0.19694,0.0,0.0
4476,1118.75,24.8616,25.5169,173.905,99.2306,96.4328,0.00955308,0.0858551,21.0165,1018.62,0.252773,0.0,0.0
4488,1121.75,24.7347,25.2557,173.382,99.0724,96.6182,0.0095689,0.085182,21.018,1018.63,0.221698,0.0,0.0
4500,1124.75,24.4775,25.098,175.928,98.9223,96.677,0.00952251,0.084025,21.0181,1018.63,0.202921,0.0,0.0
4512,1127.75,24.4633,25.3286,171.81,98.7942,96.7306,0.00951255,0.083139,21.0196,1018.58,0.186568,0.0,0.0
4524,1130.75,24.4915,25.1349,170.871,98.6453,96.0771,0.00992288,0.0828425,21.0199,1018.56,0.233153,0.0,0.0
4536,1133.75,23.7989,24.4019,173.85,98.5325,96.6312,0.010117,0.0821847,21.0196,1018.42,0.172216,0.0,0.0
4548,1136.75,24.4893,25.1055,174.917,98.4433,96.5817,0.00992494,0.0810523,21.0212,1018.52,0.168737,0.0,0.0
4560,1139.75,24.6029,24.9276,173.019,98.4299,96.256,0.00976991,0.081087,21.0211,1018.46,0.197393,0.0,0.0
4572,1142.75,24.1268,24.8293,173.899,98.4583,96.6945,0.00976609,0.0806916,21.0216,1018.44,0.15977,0.0,0.0
4584,1145.75,24.1633,24.8839,173.551,98.5471,95.7412,0.00958947,0.0806716,21.0222,1018.41,0.255305,0.0,0.0
4596,1148.75,24.2101,24.7253,173.324,98.6972,96.5059,0.00942318,0.0807105,21.0225,1018.37,0.198449,0.0,0.0
4608,1151.75,24.0831,24.7252,171.862,98.8846,96.0487,0.00958422,0.0808977,21.0226,1018.38,0.257181,0.0,0.0
4620,1154.75,24.0225,24.6405,173.759,99.0975,96.2381,0.00969198,0.0807437,21.0219,1018.33,0.25878,0.0,0.0
4632,1157.75,23.9331,24.4197,171.052,99.321,97.1123,0.00958483,0.0805176,21.0222,1018.18,0.198771,0.0,0.0
4644,1160.75,23.6447,24.2538,173.906,99.5652,97.3082,0.00959518,0.0793484,21.0228,1018.21,0.20266,0.0,0.0
4656,1163.75,23.5008,24.0931,174.583,99.7883,97.9974,0.00976993,0.0791748,21.023,1018.18,0.160066,0.0,0.0
4668,1166.75,23.8682,24.4228,174.019,99.9676,97.8716,0.00973669,0.0796455,21.0227,1018.12,0.187278,0.0,0.0
4680,1169.75,23.8017,24.4546,171.762,100.157,98.0728,0.00988026,0.0798423,21.0224,1018.15,0.185824,0.0,0.0
4692,1172.75,23.5104,24.0652,165.295,100.313,98.2959,0.00997174,0.0796326,21.0215,1018.15,0.179546,0.0,0.0
4704,1175.75,22.7854,23.7201,171.613,100.387,97.814,0.00994888,0.0798702,21.022,1018.15,0.229449,0.0,0.0
4716,1178.75,23.9056,24.4541,168.541,100.491,99.1908,0.00985003,0.0792552,21.0226,1018.03,0.115089,0.0,0.0
4728,1181.75,23.7856,24.7859,174.007,100.511,98.1625,0.00968033,0.079043,21.023,1018.08,0.208976,0.0,0.0
4740,1184.75,23.7718,24.1225,173.858,100.509,98.79,0.00956197,0.0791111,21.0231,1018.07,0.152441,0.0,0.0
4752,1187.75,23.6266,24.3355,173.337,100.475,98.2696,0.00963104,0.0792995,21.0231,1018,0.196128,0.0,0.0
4764,1190.75,23.2498,23.3859,172.621,100.43,98.1653,0.00973272,0.0789595,21.0231,1017.99,0.201548,0.0,0.0
4776,1193.75,23.1079,23.4829,178.14,100.373,98.141,0.00978537,0.0788182,21.0231,1017.95,0.198776,0.0,0.0
4788,1196.75,23.6588,24.2211,177.813,100.328,98.3783,0.00982484,0.0788459,21.0231,1017.9,0.173467,0.0,0.0
4800,1199.75,23.4958,24.1217,175.395,100.275,98.0266,0.00980812,0.0810701,21.0219,1017.95,0.200402,0.0,0.0
4812,1202.75,23.1351,23.5601,180.747,100.194,97.7224,0.00973304,0.0819843,21.0199,1017.92,0.220757,0.0,0.0
4824,1205.75,23.6458,24.3411,176.118,100.144,97.8972,0.00958527,0.0811649,21.0219,1017.89,0.200557,0.0,0.0
4836,1208.75,23.7137,23.9617,175.083,100.088,97.8047,0.00964423,0.080354,21.0237,1017.84,0.204004,0.0,0.0
4848,1211.75,23.5497,23.9639,170.523,100.041,98.1893,0.00958846,0.0795743,21.0255,1017.84,0.165167,0.0,0.0
4860,1214.75,23.6788,24.1202,174.54,99.9806,97.7422,0.00946193,0.0793354,21.0249,1017.79,0.20012,0.0,0.0
4872,1217.75,23.0475,23.368,181.255,99.9534,98.0842,0.00932907,0.0794042,21.0261,1017.66,0.16685,0.0,0.0
4884,1220.75,23.4765,23.8998,174.119,99.9149,97.7179,0.00929288,0.0784222,21.0261,1017.74,0.19651,0.0,0.0
4896,1223.75,22.1865,23.1577,173.936,99.88,97.0953,0.00953699,0.0780854,21.0261,1017.72,0.249921,0.0,0.0
4908,1226.75,22.9201,23.1046,174.315,99.8491,98.16,0.00983618,0.078334,21.0261,1017.69,0.150793,0.0,0.0
4920,1229.75,22.7916,23.4146,170.624,99.8037,97.208,0.0098905,0.0781052,21.0261,1017.64,0.232912,0.0,0.0
4932,1232.75,22.3916,23.0088,175.047,99.7847,97.6802,0.00979202,0.0777251,21.0261,1017.61,0.188397,0.0,0.0
4944,1235.75,23.0551,23.0626,171.78,99.7623,97.3995,0.00973751,0.0778443,21.0261,1017.61,0.211856,0.0,0.0
4956,1238.75,23.0155,23.8423,172.019,99.7774,96.98,0.00969299,0.0780872,21.0261,1017.55,0.251328,0.0,0.0
4968,1241.75,22.5132,23.605,169.903,99.8443,97.9288,0.00951985,0.0779014,21.0261,1017.59,0.171206,0.0,0.0
4980,1244.75,22.9381,23.8542,176.502,99.8921,97.5832,0.0096008,0.0775405,21.0261,1017.54,0.20669,0.0,0.0
4992,1247.75,22.2413,23.2774,172.65,99.9364,97.1995,0.00983541,0.0778241,21.027,1017.49,0.245425,0.0,0.0
5004,1250.75,22.4997,22.5149,169.779,99.9923,97.4303,0.00984016,0.0781467,21.028,1017.48,0.229411,0.0,0.0
5016,1253.75,22.7148,23.5162,172.918,100.025,97.7057,0.00949399,0.0782405,21.0289,1017.42,0.207364,0.0,0.0
5028,1256.75,22.5275,22.9344,176.474,100.035,97.3739,0.00928006,0.0779586,21.0292,1017.44,0.238255,0.0,0.0
5040,1259.75,23.0748,23.3863,177.506,100.035,97.5013,0.00930409,0.0779397,21.0276,1017.38,0.226702,0.0,0.0
5052,1262.75,23.082,23.1773,177.146,99.9984,98.0315,0.00930275,0.077839,21.0271,1017.23,0.175582,0.0,0.0
5064,1265.75,22.2934,22.6911,179.158,99.9842,97.3317,0.00931311,0.0771491,21.0287,1017.23,0.23764,0.0,0.0
5076,1268.75,22.8339,22.9049,172.31,99.9627,97.8461,0.0093394,0.0775888,21.028,1017.3,0.189155,0.0,0.0
5088,1271.75,22.4305,23.279,177.06,99.9789,98.1053,0.00925469,0.0774661,21.0289,1017.23,0.167208,0.0,0.0
5100,1274.75,21.8956,22.7945,168.644,99.9692,97.6518,0.00921115,0.0774992,21.0297,1017.24,0.207298,0.0,0.0
5112,1277.75,22.8523,22.9567,172.136,99.94,97.9244,0.00914316,0.0779672,21.029,1017.21,0.180078,0.0,0.0
5124,1280.75,21.8391,22.6155,174.148,99.9193,97.8631,0.00924702,0.0778489,21.0295,1017.14,0.18378,0.0,0.0
5136,1283.75,22.4634,23.6097,172.487,99.8779,97.4936,0.00938328,0.0779293,21.0299,1017.22,0.213557,0.0,0.0
5148,1286.75,22.1048,22.6738,173.88,99.8325,97.8185,0.00933291,0.0780045,21.03,1017.18,0.180129,0.0,0.0
5160,1289.75,22.2031,23.0049,177.397,99.7924,97.4088,0.00934723,0.0775767,21.0301,1017.15,0.213669,0.0,0.0
5172,1292.75,22.2188,22.4366,172.593,99.7579,97.7548,0.00940994,0.0777051,21.0304,1017.11,0.179275,0.0,0.0
5184,1295.75,22.5364,22.9297,169.24,99.7753,97.5305,0.00948085,0.0775449,21.0297,1017.08,0.201124,0.0,0.0
5196,1298.75,22.4079,23.208,171.384,99.766,96.892,0.00959413,0.0773169,21.0295,1017.05,0.258348,0.0,0.0
5208,1301.75,21.9289,22.9744,171.886,99.781,97.4538,0.00960034,0.077163,21.0295,1017.1,0.208578,0.0,0.0
5220,1304.75,22.153,23.1408,171.334,99.781,97.4315,0.00952855,0.077162,21.0294,1017.03,0.210601,0.0,0.0
5232,1307.75,21.8709,22.9966,174.443,99.7968,97.305,0.00936467,0.0773981,21.0294,1016.88,0.223491,0.0,0.0
5244,1310.75,22.4692,22.6855,174.696,99.8135,97.6088,0.00937157,0.0771754,21.0294,1016.89,0.197409,0.0,0.0
5256,1313.75,21.8882,22.3619,177.604,99.8305,97.2311,0.00920775,0.0773519,21.0289,1016.96,0.233181,0.0,0.0
5268,1316.75,22.7083,22.9564,175.837,99.8382,97.41,0.00903101,0.077257,21.0289,1016.91,0.217616,0.0,0.0
5280,1319.75,21.9728,23.1361,174.96,99.8508,97.7682,0.00890562,0.0768004,21.0307,1016.93,0.18629,0.0,0.0
5292,1322.75,22.0452,23.0754,174.68,99.8844,97.2178,0.00914929,0.0765638,21.0314,1016.89,0.239172,0.0,0.0
5304,1325.75,22.6188,22.9591,171.82,99.9104,96.9857,0.00918875,0.0773958,21.032,1016.85,0.262588,0.0,0.0
5316,1328.75,21.5757,21.7119,173.701,99.9473,97.6968,0.00908451,0.0773527,21.0322,1016.86,0.201288,0.0,0.0
5328,1331.75,22.4521,23.0405,175.126,99.9696,97.0575,,0.0771652,,1016.76,0.261284,0.0,0.0
5340,1334.75,22.3608,23.2834,175.083,100.013,98.0059,,,,1016.74,0.179213,0.0,0.0
5352,1337.75,22.4839,23.2794,174.673,100.036,98.0335,,,,1016.75,0.178698,0.0,0.0
5364,1340.75,22.371,22.607,173.641,100.071,97.5094,,,,1016.57,0.229191,0.0,0.0