File: 01_Data/FDNY_LDF/MCC/FDNY_LDF_MCC_30K_min_211207_R1.txt
Sample ID:	C:\MCC\MCC Cal\Test\FDNY_LDF_MCC_30K_min_211207_R1.txt
Sample Weight (mg):	4.05
Heating Rate (C/s):	0.5
Combustor Temp (C):	900
N2 Flow Rate (cc/min):	80
O2 Flow Rate (cc/min):	20
Calibration File:	C:\MCC\MCC Cal\Coeff1 JN10440_30_210304.txt.txt
T Correction Coefficients:	0	1.024463	0
Time Shift (s):	14
*
Time (s)	Temperature (C)	N2 flow rate (cc/min)	O2 flow rate (cc/min)	Flow Rate (cc/min)	Oxygen (%)	HRR (W/g)	Heating rate (C/s)
0.000	112.554	80.013	19.993	103.053	20.171	-0.329	0.002
2.000	112.549	79.997	19.996	103.056	20.167	-0.056	0.024
4.001	112.567	80.008	19.994	103.052	20.169	-0.154	0.002
6.001	112.552	80.016	19.992	103.053	20.167	-0.013	0.026
8.000	112.564	79.993	19.994	103.058	20.165	0.147	-0.003
10.000	112.512	80.013	19.993	103.059	20.165	0.164	-0.021
12.001	112.536	80.008	19.993	103.060	20.165	0.121	-0.005
14.000	112.511	79.997	19.995	103.061	20.164	0.182	0.041
16.000	112.503	79.994	19.994	103.052	20.161	0.454	-0.032
18.000	112.504	80.012	19.995	103.052	20.163	0.294	0.002
20.000	112.508	80.006	19.993	103.050	20.161	0.455	0.012
22.000	112.500	80.007	19.993	103.076	20.160	0.518	-0.006
24.000	112.532	79.989	19.995	103.113	20.159	0.615	0.014
26.000	112.588	79.997	19.995	103.132	20.155	0.905	0.035
28.000	112.641	80.003	19.994	103.144	20.151	1.252	0.048
30.000	112.716	80.000	19.993	103.161	20.150	1.356	0.033
32.000	112.870	79.997	19.994	103.186	20.145	1.759	0.088
34.000	113.075	80.010	19.991	103.202	20.136	2.407	0.136
36.001	113.243	80.006	19.994	103.229	20.134	2.585	0.098
38.000	113.426	79.992	19.995	103.238	20.133	2.706	0.126
40.000	113.707	79.996	19.994	103.246	20.128	3.090	0.140
42.001	113.985	79.996	19.996	103.246	20.127	3.144	0.146
44.001	114.312	80.000	19.994	103.240	20.124	3.413	0.172
46.001	114.591	80.002	19.996	103.255	20.126	3.270	0.158
48.000	114.915	80.006	19.993	103.254	20.127	3.192	0.168
50.000	115.322	80.007	19.993	103.267	20.126	3.240	0.178
52.000	115.771	80.007	19.994	103.273	20.127	3.168	0.230
54.000	116.193	80.004	19.993	103.277	20.122	3.577	0.189
56.000	116.668	80.009	19.992	103.266	20.121	3.632	0.228
58.000	117.160	80.001	19.993	103.266	20.125	3.348	0.227
60.000	117.704	80.001	19.994	103.280	20.123	3.461	0.266
62.000	118.251	80.003	19.995	103.280	20.124	3.413	0.303
64.001	118.770	80.003	19.993	103.264	20.121	3.610	0.257
66.000	119.310	80.007	19.994	103.267	20.121	3.615	0.258
68.000	119.878	79.999	19.995	103.284	20.119	3.814	0.272
70.000	120.495	79.980	19.996	103.281	20.121	3.610	0.296
72.000	121.145	80.004	19.993	103.263	20.117	3.978	0.314
74.000	121.776	80.024	19.990	103.277	20.120	3.710	0.332
76.000	122.397	80.021	19.992	103.283	20.118	3.834	0.327
78.000	123.041	80.009	19.994	103.296	20.116	4.013	0.345
80.000	123.705	80.010	19.993	103.291	20.120	3.736	0.356
82.000	124.370	79.995	19.997	103.277	20.118	3.877	0.364
84.000	125.045	80.011	19.993	103.276	20.118	3.864	0.345
86.000	125.771	79.997	19.994	103.292	20.115	4.137	0.335
88.000	126.464	80.012	19.994	103.286	20.117	3.990	0.346
90.000	127.244	79.999	19.995	103.272	20.115	4.081	0.373
92.000	127.939	79.988	19.997	103.278	20.113	4.230	0.321
94.000	128.747	80.001	19.992	103.277	20.118	3.849	0.393
96.000	129.525	79.998	19.994	103.289	20.117	3.988	0.388
98.000	130.254	80.007	19.992	103.279	20.115	4.078	0.374
100.000	130.993	79.997	19.996	103.286	20.110	4.477	0.397
102.000	131.822	79.994	19.997	103.290	20.110	4.484	0.422
104.000	132.596	79.996	19.995	103.282	20.114	4.193	0.403
106.000	133.387	80.005	19.995	103.285	20.114	4.194	0.369
108.000	134.222	80.009	19.993	103.278	20.115	4.146	0.424
110.000	135.033	79.998	19.995	103.282	20.114	4.179	0.412
112.000	135.848	79.994	19.996	103.282	20.115	4.092	0.403
114.000	136.672	79.994	19.995	103.284	20.113	4.302	0.417
116.001	137.556	80.006	19.993	103.293	20.111	4.469	0.451
118.000	138.411	79.986	19.995	103.295	20.109	4.556	0.447
120.000	139.290	80.001	19.992	103.300	20.110	4.482	0.459
122.000	140.136	80.000	19.994	103.296	20.109	4.562	0.431
124.000	141.020	80.010	19.993	103.291	20.113	4.261	0.427
126.000	141.908	80.015	19.993	103.291	20.109	4.560	0.444
128.000	142.740	80.002	19.994	103.296	20.112	4.328	0.424
130.000	143.676	79.999	19.994	103.290	20.113	4.306	0.441
132.000	144.591	80.004	19.994	103.290	20.111	4.452	0.445
134.000	145.505	80.003	19.992	103.291	20.111	4.397	0.485
136.000	146.383	79.985	19.996	103.293	20.111	4.449	0.450
138.000	147.363	80.002	19.994	103.284	20.109	4.618	0.455
140.000	148.281	79.995	19.995	103.290	20.104	4.984	0.478
142.000	149.254	80.009	19.992	103.294	20.108	4.690	0.499
144.000	150.209	80.007	19.994	103.292	20.104	4.989	0.469
146.000	151.100	79.998	19.993	103.288	20.105	4.880	0.429
148.000	152.015	79.997	19.997	103.284	20.107	4.762	0.425
150.000	153.017	80.004	19.994	103.277	20.106	4.798	0.477
152.000	153.934	80.011	19.994	103.287	20.108	4.640	0.469
154.000	154.881	79.998	19.994	103.286	20.106	4.807	0.455
156.000	155.837	80.004	19.995	103.282	20.108	4.698	0.461
158.000	156.830	79.991	19.995	103.285	20.105	4.872	0.507
160.000	157.799	80.009	19.992	103.290	20.103	5.097	0.497
162.000	158.812	80.004	19.993	103.288	20.104	4.977	0.511
164.000	159.806	79.996	19.993	103.284	20.103	5.066	0.500
166.000	160.793	80.004	19.994	103.284	20.109	4.585	0.501
168.000	161.740	80.006	19.995	103.278	20.106	4.854	0.495
170.000	162.772	80.003	19.994	103.288	20.106	4.854	0.506
172.000	163.798	80.001	19.994	103.279	20.107	4.709	0.522
174.000	164.775	80.001	19.995	103.271	20.104	4.949	0.500
176.000	165.797	79.998	19.995	103.266	20.108	4.704	0.491
178.000	166.831	80.010	19.995	103.276	20.106	4.812	0.501
180.000	167.845	80.007	19.993	103.277	20.105	4.905	0.524
182.000	168.857	80.007	19.995	103.269	20.104	4.986	0.484
184.000	169.845	79.995	19.997	103.274	20.106	4.790	0.498
186.000	170.884	80.004	19.994	103.260	20.102	5.128	0.522
188.000	171.871	80.002	19.995	103.256	20.103	5.081	0.470
190.000	172.920	80.001	19.995	103.256	20.104	4.981	0.541
192.000	173.903	80.003	19.996	103.258	20.107	4.771	0.481
194.000	174.893	80.002	19.994	103.258	20.103	5.039	0.478
196.000	175.946	79.992	19.997	103.256	20.105	4.909	0.524
198.000	176.947	80.002	19.996	103.260	20.107	4.749	0.506
200.000	177.913	79.999	19.996	103.263	20.102	5.165	0.503
202.000	178.952	80.001	19.996	103.251	20.100	5.273	0.467
204.000	179.967	80.004	19.995	103.254	20.104	5.018	0.508
206.000	181.045	80.002	19.994	103.253	20.103	5.091	0.525
208.000	182.019	80.003	19.994	103.252	20.102	5.173	0.492
210.000	183.011	80.000	19.995	103.250	20.101	5.228	0.508
212.000	184.046	79.995	19.996	103.249	20.099	5.364	0.508
214.000	185.082	80.005	19.994	103.249	20.102	5.182	0.527
216.000	186.080	80.001	19.996	103.250	20.102	5.136	0.518
218.000	187.089	79.989	19.997	103.247	20.101	5.212	0.514
220.000	188.100	79.991	19.995	103.250	20.099	5.370	0.500
222.000	189.127	80.003	19.994	103.248	20.100	5.273	0.537
224.000	190.169	79.994	19.995	103.249	20.101	5.208	0.539
226.000	191.101	80.001	19.994	103.246	20.099	5.359	0.508
228.000	192.148	80.001	19.994	103.248	20.095	5.667	0.534
230.000	193.127	80.003	19.994	103.246	20.099	5.370	0.518
232.000	194.098	80.002	19.996	103.238	20.098	5.457	0.482
234.000	195.083	80.004	19.994	103.243	20.096	5.589	0.498
236.000	196.069	80.002	19.994	103.238	20.095	5.663	0.504
238.000	197.103	80.004	19.992	103.239	20.095	5.693	0.509
240.000	198.053	80.008	19.994	103.246	20.093	5.886	0.510
242.000	199.015	80.004	19.993	103.245	20.093	5.827	0.492
244.000	200.040	80.004	19.996	103.250	20.096	5.596	0.509
246.000	201.047	80.006	19.993	103.248	20.094	5.745	0.505
248.000	201.966	80.007	19.993	103.249	20.092	5.949	0.470
250.000	202.996	80.004	19.994	103.248	20.093	5.840	0.507
252.000	203.991	80.003	19.994	103.240	20.091	6.033	0.490
254.000	204.948	80.005	19.994	103.243	20.092	5.946	0.488
256.000	205.930	80.004	19.994	103.249	20.091	6.026	0.478
258.000	206.956	80.001	19.995	103.244	20.090	6.102	0.513
260.000	207.961	80.007	19.992	103.240	20.090	6.089	0.520
262.000	208.937	80.005	19.995	103.246	20.089	6.165	0.493
264.000	209.917	80.005	19.994	103.242	20.090	6.081	0.477
266.000	210.919	80.005	19.994	103.237	20.090	6.100	0.475
268.000	211.878	80.003	19.994	103.237	20.089	6.143	0.489
270.000	212.873	80.000	19.995	103.245	20.092	5.956	0.490
272.000	213.852	80.004	19.994	103.238	20.091	6.004	0.491
274.000	214.883	80.001	19.995	103.243	20.091	6.039	0.526
276.000	215.821	79.998	19.996	103.243	20.088	6.256	0.475
278.000	216.861	80.002	19.995	103.243	20.086	6.385	0.503
280.000	217.858	80.001	19.994	103.228	20.085	6.455	0.505
282.000	218.846	80.002	19.996	103.231	20.089	6.147	0.536
284.000	219.857	80.001	19.995	103.234	20.088	6.289	0.486
286.000	220.852	80.003	19.995	103.237	20.087	6.312	0.482
288.000	221.840	79.998	19.996	103.231	20.086	6.403	0.496
290.000	222.831	80.003	19.995	103.230	20.086	6.386	0.503
292.000	223.808	80.002	19.995	103.224	20.084	6.559	0.507
294.000	224.811	80.000	19.995	103.239	20.085	6.455	0.482
296.000	225.842	80.004	19.996	103.246	20.085	6.528	0.529
298.000	226.861	80.001	19.995	103.231	20.084	6.603	0.531
300.000	227.825	80.003	19.995	103.236	20.084	6.572	0.472
302.000	228.825	79.999	19.995	103.239	20.081	6.822	0.515
304.000	229.876	80.001	19.995	103.244	20.079	6.969	0.495
306.000	230.861	80.003	19.994	103.232	20.077	7.168	0.486
308.000	231.876	80.003	19.994	103.234	20.077	7.166	0.506
310.000	232.880	80.004	19.993	103.240	20.072	7.493	0.524
312.000	233.832	80.003	19.994	103.242	20.071	7.574	0.504
314.000	234.867	80.005	19.993	103.244	20.069	7.774	0.495
316.001	235.816	80.005	19.993	103.233	20.065	8.052	0.438
318.000	236.827	80.002	19.995	103.235	20.066	8.025	0.515
320.000	237.812	80.003	19.994	103.242	20.066	7.981	0.497
322.000	238.829	80.000	19.994	103.234	20.066	8.039	0.516
324.000	239.778	80.005	19.993	103.218	20.062	8.303	0.484
326.000	240.763	80.002	19.995	103.245	20.060	8.475	0.484
328.000	241.773	80.002	19.994	103.237	20.057	8.735	0.479
330.000	242.766	80.002	19.994	103.236	20.058	8.629	0.518
332.000	243.798	80.000	19.993	103.245	20.053	9.024	0.507
334.000	244.830	80.005	19.995	103.236	20.054	8.947	0.519
336.000	245.816	80.004	19.993	103.237	20.052	9.081	0.505
338.000	246.776	80.005	19.994	103.250	20.050	9.258	0.453
340.000	247.831	80.005	19.994	103.241	20.047	9.484	0.512
342.000	248.810	80.006	19.994	103.231	20.040	10.054	0.499
344.000	249.800	80.005	19.993	103.245	20.041	10.029	0.481
346.001	250.831	80.003	19.993	103.235	20.036	10.352	0.491
348.000	251.882	80.004	19.994	103.239	20.035	10.435	0.501
350.000	252.888	80.002	19.994	103.240	20.033	10.654	0.516
352.000	253.872	80.000	19.995	103.245	20.031	10.784	0.483
354.000	254.906	79.999	19.995	103.241	20.026	11.170	0.512
356.000	255.908	80.005	19.996	103.238	20.020	11.632	0.526
358.000	256.859	80.005	19.994	103.241	20.021	11.549	0.503
360.000	257.894	80.002	19.995	103.246	20.018	11.863	0.545
362.000	258.911	80.004	19.997	103.247	20.009	12.533	0.515
364.000	259.938	80.004	19.994	103.250	20.009	12.561	0.503
366.000	260.905	80.005	19.994	103.251	20.005	12.891	0.503
368.000	261.892	80.002	19.995	103.250	20.003	13.007	0.472
370.000	262.857	80.003	19.995	103.250	19.999	13.332	0.479
372.000	263.922	80.003	19.994	103.249	19.996	13.594	0.502
374.000	264.943	80.003	19.992	103.251	19.989	14.134	0.499
376.000	265.884	79.997	19.995	103.252	19.983	14.590	0.495
378.000	266.883	80.002	19.995	103.253	19.980	14.868	0.472
380.000	267.832	80.002	19.994	103.250	19.976	15.175	0.448
382.000	268.882	80.002	19.997	103.251	19.969	15.693	0.482
384.000	269.887	80.003	19.995	103.251	19.966	15.979	0.495
386.000	270.924	80.005	19.991	103.254	19.962	16.250	0.516
388.000	271.904	80.001	19.995	103.260	19.958	16.588	0.503
390.000	272.887	80.002	19.994	103.259	19.954	16.889	0.457
392.000	273.898	80.005	19.993	103.258	19.949	17.312	0.509
394.000	274.915	80.006	19.994	103.261	19.943	17.778	0.500
396.000	275.919	80.004	19.993	103.259	19.937	18.252	0.481
398.000	276.919	80.007	19.988	103.262	19.930	18.847	0.497
400.000	277.934	80.007	19.991	103.259	19.928	18.977	0.521
402.000	278.944	80.003	19.994	103.263	19.925	19.223	0.500
404.000	279.939	80.003	19.993	103.267	19.918	19.793	0.503
406.000	280.956	80.002	19.995	103.263	19.912	20.237	0.501
408.000	281.934	80.004	19.993	103.266	19.908	20.578	0.489
410.000	282.959	80.005	19.997	103.268	19.905	20.833	0.491
412.000	283.949	80.003	19.993	103.268	19.895	21.583	0.494
414.000	284.950	80.002	19.997	103.280	19.892	21.882	0.538
416.001	285.989	80.008	19.996	103.286	19.883	22.602	0.537
418.000	286.963	80.006	19.997	103.288	19.878	22.975	0.514
420.000	287.956	80.005	19.993	103.289	19.872	23.439	0.488
422.000	288.967	80.009	19.993	103.286	19.867	23.878	0.521
424.000	289.970	80.006	19.993	103.287	19.858	24.564	0.498
426.000	290.995	80.002	19.995	103.288	19.853	24.969	0.530
428.000	292.028	80.009	19.992	103.286	19.846	25.530	0.503
430.001	293.034	80.004	19.992	103.288	19.839	26.066	0.522
432.000	294.047	80.003	19.989	103.290	19.832	26.623	0.546
434.000	294.997	80.001	19.995	103.295	19.824	27.236	0.504
436.000	296.010	80.003	19.993	103.295	19.817	27.813	0.482
438.000	296.995	80.001	19.995	103.297	19.810	28.356	0.482
440.000	298.067	80.006	19.992	103.308	19.805	28.768	0.534
442.000	299.067	80.002	19.994	103.317	19.796	29.488	0.494
444.000	300.056	80.001	19.995	103.315	19.787	30.239	0.490
446.000	301.047	80.001	19.995	103.319	19.782	30.586	0.479
448.000	302.058	80.001	19.997	103.326	19.772	31.386	0.484
450.000	303.065	80.002	19.995	103.327	19.765	31.967	0.509
452.000	304.067	80.003	19.993	103.328	19.755	32.771	0.525
454.000	305.060	80.001	19.995	103.329	19.748	33.325	0.504
456.000	306.058	80.003	19.993	103.331	19.738	34.108	0.503
458.000	307.069	80.002	19.995	103.330	19.730	34.773	0.490
460.000	308.084	80.005	19.996	103.332	19.721	35.492	0.526
462.000	309.103	80.002	19.994	103.334	19.710	36.324	0.521
464.000	310.124	80.002	19.995	103.336	19.701	37.043	0.512
466.001	311.101	80.003	19.995	103.335	19.691	37.863	0.502
468.000	312.137	79.999	19.996	103.339	19.683	38.498	0.512
470.000	313.174	80.001	19.996	103.348	19.667	39.795	0.523
472.000	314.193	80.002	19.996	103.349	19.662	40.178	0.520
474.000	315.193	80.003	19.995	103.357	19.651	41.092	0.500
476.000	316.207	80.004	19.992	103.362	19.641	41.851	0.509
478.000	317.160	79.999	20.004	103.364	19.633	42.493	0.476
480.000	318.232	80.004	19.999	103.361	19.621	43.418	0.527
482.000	319.225	80.003	19.996	103.365	19.614	44.000	0.528
484.000	320.184	80.002	19.996	103.364	19.602	44.940	0.458
486.000	321.214	80.002	19.986	103.365	19.597	45.362	0.479
488.000	322.203	80.004	19.993	103.368	19.592	45.802	0.484
490.000	323.241	80.005	19.995	103.364	19.580	46.718	0.501
492.000	324.225	80.005	19.991	103.364	19.574	47.158	0.494
494.000	325.226	80.000	19.993	103.368	19.565	47.949	0.492
496.000	326.252	80.002	19.996	103.368	19.558	48.496	0.517
498.000	327.287	80.006	19.994	103.369	19.549	49.156	0.518
500.000	328.286	80.003	19.993	103.372	19.548	49.301	0.489
502.000	329.307	80.005	19.993	103.370	19.538	50.041	0.503
504.000	330.329	80.007	19.991	103.371	19.533	50.469	0.499
506.000	331.290	80.005	19.994	103.368	19.527	50.919	0.480
508.000	332.326	80.005	19.994	103.368	19.522	51.350	0.509
510.000	333.319	80.003	19.995	103.368	19.519	51.579	0.493
512.000	334.371	80.002	19.996	103.372	19.513	52.035	0.510
514.001	335.383	80.003	19.994	103.372	19.510	52.282	0.521
516.000	336.397	79.997	19.999	103.373	19.507	52.531	0.491
518.000	337.379	80.001	19.993	103.370	19.503	52.868	0.502
520.000	338.423	80.002	19.991	103.383	19.496	53.377	0.498
522.000	339.468	80.000	19.996	103.378	19.493	53.641	0.518
524.000	340.445	80.000	19.995	103.373	19.490	53.868	0.517
526.000	341.476	80.004	19.992	103.387	19.485	54.252	0.500
528.000	342.488	80.003	19.993	103.385	19.482	54.562	0.504
530.000	343.508	80.004	19.995	103.375	19.478	54.807	0.511
532.000	344.521	80.002	19.996	103.379	19.476	54.992	0.497
534.000	345.520	80.005	19.992	103.376	19.467	55.708	0.495
536.000	346.558	79.997	19.998	103.381	19.463	56.046	0.524
538.000	347.562	79.999	20.001	103.384	19.456	56.609	0.522
540.000	348.571	80.008	19.990	103.371	19.447	57.356	0.469
542.000	349.569	79.995	20.001	103.376	19.443	57.618	0.512
544.000	350.597	80.011	19.990	103.398	19.433	58.425	0.507
546.000	351.634	80.008	19.994	103.404	19.425	59.110	0.488
548.000	352.615	79.999	19.999	103.404	19.417	59.733	0.479
550.000	353.669	80.002	19.995	103.404	19.408	60.403	0.516
552.000	354.651	79.998	19.999	103.404	19.399	61.152	0.528
554.000	355.652	80.000	19.996	103.403	19.391	61.838	0.469
556.000	356.724	79.999	19.991	103.405	19.376	62.976	0.533
558.000	357.709	80.006	19.993	103.409	19.372	63.335	0.523
560.000	358.691	80.006	19.993	103.408	19.356	64.586	0.498
562.000	359.736	80.008	19.995	103.421	19.346	65.409	0.518
564.000	360.739	80.002	19.991	103.426	19.333	66.430	0.479
566.000	361.762	80.002	19.994	103.439	19.319	67.575	0.517
568.000	362.770	80.003	19.999	103.426	19.309	68.311	0.500
570.000	363.719	80.004	19.995	103.440	19.294	69.583	0.490
572.000	364.733	80.001	19.995	103.445	19.282	70.521	0.496
574.000	365.745	80.004	19.995	103.445	19.270	71.440	0.499
576.000	366.771	80.004	19.997	103.444	19.257	72.478	0.491
578.000	367.786	80.002	19.998	103.449	19.246	73.392	0.499
580.000	368.815	80.003	19.996	103.448	19.237	74.073	0.479
582.000	369.833	80.000	19.997	103.447	19.229	74.742	0.525
584.000	370.814	80.005	19.990	103.448	19.221	75.318	0.475
586.000	371.830	80.007	19.994	103.449	19.216	75.759	0.550
588.000	372.877	80.004	19.998	103.446	19.214	75.925	0.527
590.000	373.911	80.005	19.995	103.444	19.210	76.246	0.539
592.000	374.924	80.003	19.989	103.444	19.215	75.817	0.515
594.000	375.899	80.004	19.995	103.423	19.213	75.945	0.502
596.000	376.913	80.006	19.989	103.411	19.220	75.352	0.492
598.000	377.945	80.003	19.992	103.407	19.229	74.661	0.505
600.000	378.971	80.005	19.993	103.406	19.242	73.605	0.538
602.000	380.004	80.005	19.995	103.404	19.263	71.933	0.560
604.000	380.983	79.993	19.997	103.399	19.282	70.378	0.490
606.000	382.044	80.009	19.990	103.370	19.302	68.813	0.500
608.000	383.014	80.000	19.998	103.359	19.323	67.130	0.469
610.000	384.031	80.005	19.998	103.333	19.350	64.919	0.450
612.000	385.073	80.000	19.995	103.325	19.381	62.527	0.509
614.000	386.127	80.005	19.993	103.318	19.415	59.753	0.481
616.000	387.180	80.004	19.996	103.299	19.448	57.179	0.556
618.000	388.167	80.004	19.997	103.286	19.485	54.226	0.518
620.000	389.203	80.009	19.996	103.261	19.524	51.055	0.489
622.000	390.200	79.995	20.002	103.248	19.563	47.954	0.497
624.000	391.189	80.004	19.993	103.238	19.605	44.675	0.464
626.000	392.278	80.005	19.991	103.214	19.647	41.308	0.546
628.000	393.307	79.998	19.997	103.211	19.686	38.187	0.536
630.000	394.337	79.998	19.998	103.208	19.728	34.879	0.502
632.000	395.373	79.999	19.996	103.187	19.766	31.868	0.508
634.000	396.395	80.000	19.995	103.178	19.803	28.929	0.521
636.000	397.388	80.002	19.995	103.176	19.834	26.467	0.508
638.000	398.433	80.003	19.994	103.173	19.859	24.438	0.505
640.000	399.456	80.002	19.995	103.171	19.887	22.216	0.547
642.000	400.491	80.002	19.996	103.170	19.910	20.432	0.488
644.000	401.514	80.002	19.992	103.168	19.933	18.570	0.528
646.000	402.534	80.004	19.996	103.169	19.948	17.371	0.509
648.000	403.574	80.000	20.002	103.173	19.966	15.916	0.530
650.000	404.605	80.004	19.993	103.172	19.976	15.176	0.516
652.000	405.614	80.004	19.994	103.169	19.988	14.192	0.516
654.000	406.607	80.001	19.996	103.161	19.995	13.605	0.534
656.000	407.629	80.007	19.993	103.162	20.003	13.013	0.534
658.000	408.638	80.005	19.995	103.167	20.008	12.645	0.508
660.000	409.640	80.003	20.000	103.159	20.015	12.088	0.470
662.000	410.692	80.003	19.999	103.165	20.018	11.804	0.521
664.000	411.701	80.004	19.994	103.168	20.019	11.769	0.495
666.000	412.743	80.007	19.995	103.165	20.021	11.585	0.537
668.000	413.752	80.003	19.997	103.157	20.023	11.431	0.539
670.000	414.769	80.004	19.999	103.166	20.022	11.522	0.504
672.000	415.774	80.001	19.999	103.166	20.025	11.242	0.509
674.000	416.802	80.007	19.993	103.164	20.030	10.849	0.514
676.000	417.810	80.002	19.993	103.162	20.030	10.897	0.529
678.000	418.814	80.004	19.991	103.164	20.033	10.653	0.495
680.000	419.852	80.004	19.995	103.162	20.034	10.549	0.507
682.000	420.874	80.002	19.990	103.160	20.035	10.434	0.493
684.000	421.884	80.004	19.990	103.157	20.033	10.634	0.532
686.000	422.893	80.003	19.993	103.165	20.034	10.564	0.494
688.000	423.940	80.006	19.992	103.168	20.035	10.437	0.544
690.000	425.003	80.002	19.993	103.169	20.037	10.306	0.552
692.000	425.999	80.003	19.995	103.164	20.040	10.087	0.494
694.000	427.039	80.002	19.995	103.158	20.041	9.974	0.544
696.000	428.052	80.005	19.993	103.160	20.041	9.949	0.496
698.000	429.024	80.002	19.994	103.171	20.042	9.892	0.474
700.000	430.057	80.000	19.996	103.166	20.040	10.076	0.481
702.000	431.032	80.002	19.995	103.167	20.043	9.820	0.508
704.000	432.068	80.000	19.995	103.157	20.042	9.897	0.485
706.000	433.082	80.002	19.995	103.164	20.043	9.858	0.485
708.000	434.166	80.001	19.995	103.164	20.043	9.829	0.527
710.000	435.164	80.002	19.994	103.155	20.045	9.653	0.522
712.000	436.190	80.001	19.994	103.156	20.045	9.688	0.505
714.000	437.144	79.998	19.995	103.157	20.045	9.699	0.481
716.000	438.178	80.002	19.991	103.168	20.048	9.409	0.508
718.000	439.179	80.004	19.998	103.166	20.048	9.400	0.487
720.000	440.194	80.001	19.994	103.155	20.052	9.104	0.491
722.001	441.215	80.003	19.996	103.157	20.049	9.337	0.504
724.000	442.254	80.005	19.994	103.156	20.051	9.196	0.517
726.000	443.259	79.999	19.991	103.153	20.054	8.953	0.519
728.000	444.253	80.004	19.993	103.147	20.054	8.917	0.533
730.000	445.251	80.006	19.994	103.153	20.053	9.044	0.545
732.000	446.308	80.007	19.989	103.152	20.059	8.560	0.518
734.000	447.354	80.004	19.993	103.152	20.057	8.679	0.514
736.000	448.343	80.002	19.995	103.135	20.059	8.563	0.493
738.000	449.352	80.003	19.994	103.151	20.061	8.421	0.516
740.000	450.347	80.005	19.993	103.148	20.062	8.304	0.493
742.000	451.366	80.005	19.994	103.148	20.062	8.349	0.519
744.000	452.414	80.005	19.994	103.152	20.067	7.952	0.509
746.000	453.462	80.006	19.994	103.138	20.065	8.075	0.525
748.000	454.452	80.004	19.994	103.137	20.070	7.665	0.520
750.000	455.518	80.004	19.993	103.141	20.069	7.783	0.536
752.000	456.543	80.005	19.994	103.132	20.068	7.810	0.527
754.000	457.548	80.002	19.996	103.146	20.068	7.803	0.524
756.000	458.565	80.002	19.995	103.148	20.072	7.505	0.514
758.000	459.662	80.002	19.994	103.139	20.069	7.784	0.529
760.000	460.656	80.003	19.995	103.138	20.076	7.243	0.502
762.000	461.705	80.003	19.996	103.144	20.073	7.433	0.519
764.000	462.727	80.002	19.995	103.133	20.077	7.139	0.527
766.000	463.711	80.001	19.994	103.135	20.079	6.986	0.494
768.000	464.727	80.001	19.993	103.135	20.078	7.005	0.505
770.000	465.750	80.004	19.995	103.137	20.077	7.092	0.510
772.000	466.806	80.004	19.994	103.136	20.078	7.023	0.495
774.000	467.841	80.003	19.994	103.134	20.078	7.051	0.521
776.001	468.844	80.000	19.992	103.136	20.085	6.475	0.526
778.000	469.814	80.000	19.994	103.140	20.085	6.451	0.507
780.000	470.876	80.003	19.992	103.138	20.088	6.215	0.501
782.000	471.873	79.999	19.995	103.141	20.091	6.048	0.485
784.000	472.922	80.002	19.994	103.142	20.092	5.901	0.528
786.001	473.924	80.003	19.995	103.140	20.094	5.806	0.506
788.000	474.998	80.002	19.995	103.137	20.090	6.057	0.534
790.000	476.039	80.001	19.996	103.134	20.095	5.689	0.531
792.000	477.098	80.002	19.994	103.132	20.096	5.633	0.544
794.000	478.130	80.001	19.994	103.133	20.092	5.931	0.540
796.000	479.135	80.002	19.993	103.133	20.094	5.776	0.526
798.000	480.171	80.003	19.992	103.134	20.095	5.670	0.537
800.000	481.223	80.003	19.995	103.135	20.096	5.615	0.515
802.000	482.191	80.005	19.993	103.133	20.094	5.767	0.486
804.000	483.244	80.006	19.993	103.133	20.100	5.297	0.500
806.000	484.271	80.005	19.994	103.131	20.100	5.334	0.529
808.000	485.261	80.005	19.993	103.132	20.103	5.057	0.512
810.000	486.285	80.002	19.994	103.132	20.100	5.274	0.509
812.000	487.303	80.003	19.993	103.131	20.099	5.369	0.489
814.000	488.307	80.005	19.995	103.132	20.102	5.174	0.524
816.000	489.352	80.002	19.994	103.132	20.103	5.064	0.512
818.000	490.405	80.003	19.994	103.132	20.105	4.891	0.533
820.000	491.408	80.005	19.994	103.132	20.105	4.893	0.514
822.000	492.445	80.003	19.996	103.133	20.102	5.172	0.477
824.000	493.490	80.002	19.994	103.131	20.104	4.951	0.499
826.000	494.516	80.006	19.993	103.134	20.105	4.906	0.498
828.000	495.550	80.003	19.993	103.135	20.106	4.841	0.540
830.000	496.602	80.005	19.993	103.133	20.103	5.096	0.504
832.000	497.626	80.003	19.994	103.132	20.104	4.940	0.492
834.000	498.655	80.005	19.994	103.133	20.107	4.774	0.518
836.000	499.669	80.004	19.995	103.132	20.105	4.904	0.487
838.000	500.682	80.002	19.995	103.132	20.101	5.209	0.497
840.000	501.708	80.003	19.994	103.134	20.105	4.917	0.508
842.000	502.738	80.002	19.995	103.135	20.105	4.875	0.517
844.001	503.713	80.001	19.996	103.135	20.105	4.901	0.488
846.000	504.762	80.002	19.994	103.136	20.105	4.938	0.509
848.000	505.786	80.002	19.995	103.136	20.108	4.648	0.523
850.000	506.787	80.003	19.996	103.135	20.109	4.586	0.509
852.000	507.774	80.003	19.995	103.132	20.109	4.549	0.489
854.000	508.805	80.001	19.995	103.133	20.110	4.473	0.515
856.000	509.862	80.004	19.995	103.131	20.108	4.642	0.494
858.000	510.885	80.004	19.994	103.132	20.107	4.739	0.493
860.000	511.898	80.005	19.993	103.132	20.106	4.826	0.502
862.000	512.895	80.004	19.993	103.135	20.105	4.895	0.487
864.000	513.950	80.002	19.994	103.133	20.105	4.936	0.491
866.001	515.022	80.002	19.995	103.133	20.105	4.901	0.517
868.000	516.039	80.002	19.995	103.132	20.105	4.869	0.518
870.000	517.106	80.002	19.993	103.132	20.104	4.984	0.535
872.000	518.068	80.003	19.994	103.132	20.107	4.776	0.513
874.000	519.111	80.003	19.993	103.129	20.109	4.581	0.520
876.000	520.090	80.004	19.994	103.132	20.106	4.858	0.494
878.000	521.164	80.002	19.992	103.132	20.106	4.793	0.502
880.000	522.158	80.006	19.993	103.132	20.108	4.683	0.503
882.000	523.222	80.006	19.994	103.129	20.108	4.624	0.518
884.000	524.260	80.004	19.995	103.132	20.104	4.964	0.507
886.000	525.307	80.002	19.995	103.132	20.106	4.815	0.522
888.000	526.317	80.005	19.994	103.133	20.108	4.648	0.521
890.000	527.367	80.004	19.993	103.135	20.108	4.691	0.521
892.000	528.377	80.002	19.995	103.133	20.107	4.728	0.497
894.000	529.414	80.004	19.993	103.134	20.105	4.906	0.505
896.000	530.438	80.002	19.994	103.134	20.106	4.849	0.510
898.000	531.429	80.001	19.996	103.132	20.104	4.946	0.466
900.000	532.500	80.004	19.995	103.130	20.105	4.884	0.495
902.000	533.551	80.003	19.996	103.129	20.104	4.999	0.528
904.000	534.572	80.002	19.994	103.132	20.107	4.715	0.546
906.000	535.595	80.005	19.994	103.131	20.106	4.858	0.516
908.000	536.623	79.999	19.993	103.119	20.107	4.737	0.519
910.000	537.643	80.002	19.994	103.120	20.109	4.555	0.529
912.000	538.648	80.005	19.994	103.129	20.106	4.780	0.519
914.000	539.657	80.006	19.996	103.125	20.108	4.624	0.503
916.000	540.698	80.003	19.995	103.124	20.109	4.592	0.543
918.000	541.698	80.002	19.996	103.127	20.108	4.672	0.517
920.000	542.692	80.000	19.993	103.129	20.109	4.590	0.490
922.000	543.728	80.004	19.991	103.119	20.108	4.693	0.501
924.000	544.724	79.999	19.995	103.125	20.109	4.568	0.511
926.000	545.762	80.000	19.995	103.129	20.109	4.617	0.491
928.000	546.808	80.004	19.993	103.125	20.110	4.514	0.531
930.000	547.796	80.003	19.996	103.130	20.113	4.230	0.473
932.000	548.831	80.002	19.993	103.127	20.112	4.303	0.541
934.000	549.833	80.002	19.994	103.120	20.113	4.286	0.513
936.000	550.843	80.003	19.997	103.120	20.114	4.169	0.494
938.000	551.873	80.003	19.995	103.118	20.112	4.312	0.548
940.000	552.897	80.002	19.996	103.121	20.114	4.200	0.512
942.000	553.964	80.002	19.997	103.120	20.114	4.219	0.513
944.000	555.005	80.005	19.994	103.110	20.113	4.291	0.536
946.001	556.017	79.997	20.000	103.120	20.115	4.081	0.502
948.000	557.076	80.003	19.991	103.116	20.114	4.203	0.541
950.000	558.057	80.002	19.994	103.119	20.112	4.380	0.523
952.000	559.081	80.002	19.992	103.119	20.113	4.228	0.503
954.000	560.101	80.004	19.996	103.117	20.113	4.280	0.525
956.000	561.134	80.002	19.994	103.124	20.109	4.570	0.531
958.000	562.160	80.003	19.994	103.132	20.110	4.490	0.499
960.000	563.137	80.001	19.997	103.135	20.115	4.101	0.483
962.000	564.172	80.006	19.994	103.124	20.109	4.568	0.482
964.000	565.129	80.006	19.996	103.128	20.107	4.730	0.493
966.000	566.143	80.005	19.996	103.128	20.111	4.388	0.521
968.000	567.161	80.003	19.997	103.121	20.112	4.323	0.503
970.000	568.140	80.008	19.991	103.125	20.112	4.364	0.524
972.000	569.178	80.003	19.994	103.136	20.110	4.468	0.525
974.000	570.190	80.002	19.997	103.120	20.113	4.251	0.511
976.000	571.200	80.003	19.992	103.116	20.116	4.043	0.527
978.000	572.175	80.001	19.996	103.128	20.112	4.303	0.502
980.000	573.206	80.004	19.995	103.127	20.112	4.364	0.543
982.000	574.281	80.007	19.993	103.125	20.115	4.109	0.517
984.000	575.315	80.005	19.996	103.125	20.114	4.193	0.533
986.000	576.344	80.004	19.995	103.106	20.116	3.999	0.518
988.000	577.379	80.006	19.994	103.106	20.118	3.906	0.523
990.000	578.387	80.005	19.995	103.119	20.110	4.473	0.510
992.000	579.410	80.005	19.997	103.113	20.113	4.277	0.522
994.000	580.403	80.003	19.994	103.125	20.114	4.195	0.519
996.001	581.414	80.007	19.995	103.125	20.117	3.975	0.477
998.000	582.487	80.004	19.994	103.131	20.114	4.159	0.513
1000.000	583.513	80.001	19.997	103.131	20.113	4.251	0.513
1002.000	584.514	80.002	19.996	103.122	20.111	4.418	0.486
1004.000	585.523	80.001	19.994	103.114	20.111	4.390	0.504
1006.000	586.514	80.006	19.994	103.122	20.107	4.732	0.531
1008.000	587.538	80.006	19.994	103.123	20.109	4.615	0.491
1010.000	588.541	80.003	19.996	103.120	20.110	4.498	0.498
1012.000	589.568	80.002	19.997	103.113	20.109	4.587	0.553
1014.000	590.529	80.003	19.994	103.127	20.107	4.714	0.494
1016.000	591.585	80.000	19.999	103.120	20.109	4.601	0.511
1018.000	592.581	80.001	19.994	103.125	20.107	4.775	0.519
1020.000	593.563	80.003	19.995	103.113	20.106	4.839	0.511
1022.000	594.655	80.008	19.992	103.113	20.108	4.684	0.500
1024.000	595.662	80.000	19.998	103.116	20.108	4.684	0.512
1026.000	596.688	80.003	19.995	103.098	20.104	4.948	0.529
1028.000	597.708	80.001	19.996	103.102	20.098	5.450	0.523
1030.000	598.755	80.002	20.001	103.098	20.098	5.491	0.542
1032.000	599.801	80.003	19.990	103.098	20.099	5.394	0.514
1034.000	600.876	80.002	19.988	103.108	20.096	5.601	0.543
1036.000	601.906	80.001	19.996	103.104	20.096	5.627	0.498
1038.001	602.955	79.998	20.002	103.102	20.095	5.661	0.524
1040.001	603.989	79.995	20.002	103.110	20.096	5.589	0.537
1042.000	605.093	80.002	19.996	103.111	20.099	5.364	0.542
1044.000	606.106	80.005	19.995	103.107	20.099	5.373	0.515
1046.001	607.212	80.007	19.991	103.102	20.100	5.265	0.551
1048.000	608.262	80.006	19.993	103.116	20.104	4.977	0.545
1050.001	609.319	80.006	19.995	103.131	20.107	4.739	0.520
1052.000	610.372	80.005	19.992	103.129	20.104	4.942	0.538
1054.001	611.443	80.004	19.994	103.132	20.110	4.536	0.546
1056.000	612.523	80.003	19.996	103.131	20.110	4.540	0.517
1058.001	613.586	80.003	19.994	103.131	20.107	4.707	0.536
1060.001	614.702	80.007	19.996	103.131	20.112	4.317	0.540
1062.000	615.733	80.005	19.996	103.127	20.113	4.237	0.553
1064.001	616.836	80.005	19.995	103.131	20.106	4.787	0.554
1066.000	617.896	80.008	19.990	103.130	20.107	4.758	0.546
1068.001	619.004	80.009	19.993	103.133	20.108	4.691	0.536
1070.000	620.013	80.006	19.995	103.131	20.111	4.434	0.539
1072.001	621.065	80.009	19.992	103.130	20.107	4.731	0.534
1074.000	622.159	80.006	19.997	103.136	20.110	4.464	0.571
1076.000	623.238	80.005	19.995	103.133	20.115	4.118	0.568
1078.000	624.245	80.004	19.992	103.128	20.108	4.626	0.471
1080.000	625.247	80.002	19.992	103.131	20.113	4.259	0.540
1082.000	626.293	80.005	19.993	103.132	20.114	4.183	0.515
1084.001	627.410	80.004	19.993	103.134	20.112	4.376	0.564
1086.001	628.379	80.004	19.992	103.133	20.113	4.226	0.576
1088.000	629.647	80.007	19.992	103.133	20.109	4.559	0.487
1090.000	630.857	80.008	19.990	103.132	20.110	4.490	0.694
1092.000	631.500	80.008	19.989	103.134	20.110	4.464	0.450
1094.000	632.698	80.001	19.991	103.137	20.111	4.430	0.746
1096.001	633.699	80.004	19.997	103.133	20.113	4.237	0.840
1098.000	634.750	80.004	19.995	103.116	20.111	4.447	0.588
1100.000	635.713	80.007	19.993	103.123	20.110	4.486	0.569
1102.000	636.728	80.004	19.992	103.134	20.110	4.514	0.532
1104.000	637.762	80.004	19.993	103.134	20.109	4.578	0.547
1106.000	638.805	80.001	19.994	103.136	20.111	4.404	0.534
1108.000	639.815	80.002	19.993	103.122	20.109	4.594	0.504
1110.000	640.910	80.003	19.995	103.132	20.106	4.788	0.520
1112.001	641.988	80.002	19.994	103.127	20.105	4.862	0.538
1114.001	643.047	80.002	19.995	103.119	20.106	4.817	0.500
1116.000	644.058	80.005	19.996	103.122	20.104	4.944	0.533
1118.001	645.102	80.002	19.997	103.128	20.106	4.844	0.508
1120.000	646.215	80.004	19.993	103.122	20.104	4.940	0.565
1122.000	647.274	80.000	19.997	103.116	20.105	4.866	0.543
1124.000	648.317	80.001	19.994	103.130	20.107	4.771	0.530
1126.000	649.361	80.001	20.001	103.124	20.107	4.707	0.537
1128.000	650.418	80.005	19.997	103.113	20.109	4.614	0.575
1130.000	651.476	80.003	19.995	103.119	20.106	4.794	0.525
1132.000	652.494	80.005	19.994	103.117	20.107	4.708	0.488
1134.000	653.508	80.003	19.995	103.110	20.112	4.327	0.529
1136.000	654.562	80.004	19.995	103.105	20.108	4.654	0.512
1138.000	655.608	80.000	19.997	103.098	20.107	4.727	0.552
1140.000	656.689	80.004	19.994	103.101	20.109	4.563	0.576
1142.000	657.636	80.004	19.993	103.103	20.109	4.543	0.755
1144.000	658.462	80.008	19.995	103.115	20.109	4.551	0.491
1146.000	659.595	80.010	19.989	103.110	20.110	4.487	0.482
1148.001	660.597	80.006	19.991	103.110	20.109	4.565	0.483
1150.000	661.549	80.001	19.996	103.120	20.108	4.636	0.496
1152.000	662.501	80.008	19.992	103.116	20.112	4.374	0.510
1154.000	663.462	80.004	19.992	103.101	20.113	4.296	0.502
1156.000	664.439	80.004	19.995	103.100	20.108	4.667	0.518
1158.001	665.402	79.999	19.997	103.109	20.108	4.651	0.473
1160.000	666.369	80.008	19.992	103.106	20.107	4.732	0.508
1162.001	667.304	80.001	19.994	103.105	20.111	4.418	0.482
1164.001	668.279	79.999	19.994	103.098	20.112	4.340	0.484
1166.000	669.292	80.002	19.993	103.108	20.111	4.412	0.509
1168.000	670.231	80.006	19.991	103.107	20.109	4.613	0.511
1170.000	671.232	80.000	19.990	103.109	20.104	4.939	0.482
1172.000	672.174	80.003	19.992	103.107	20.104	4.955	0.511
1174.000	673.122	80.004	19.995	103.103	20.107	4.712	0.496
1176.000	674.151	80.006	19.992	103.114	20.104	5.010	0.497
1178.000	675.199	80.006	19.990	103.121	20.106	4.800	0.528
1180.000	676.170	80.009	19.994	103.119	20.108	4.646	0.560
1182.001	677.121	80.003	19.992	103.108	20.105	4.893	0.495
1184.000	678.093	79.997	19.997	103.109	20.107	4.749	0.472
1186.001	679.096	80.003	19.998	103.098	20.099	5.337	0.482
1188.000	680.095	80.001	19.992	103.103	20.104	4.943	0.512
1190.000	681.119	79.999	19.995	103.097	20.103	5.032	0.505
1192.001	682.112	80.002	19.995	103.097	20.102	5.099	0.492
1194.000	683.111	79.999	19.992	103.103	20.107	4.762	0.520
1196.000	684.137	80.000	19.995	103.104	20.104	4.963	0.523
1198.000	685.179	80.003	19.995	103.106	20.104	5.000	0.518
1200.000	685.985	80.003	19.989	103.108	20.102	5.171	0.226
1202.000	687.213	80.002	19.999	103.104	20.103	5.032	0.564
1204.001	688.207	80.005	19.993	103.112	20.104	5.001	0.501
1206.000	689.245	80.001	19.994	103.108	20.099	5.341	0.507
1208.001	690.284	80.002	19.999	103.106	20.104	5.006	0.505
1210.000	691.336	80.007	19.993	103.121	20.106	4.829	0.534
1212.000	692.332	80.006	19.995	103.109	20.105	4.900	0.522
1214.000	693.324	80.006	19.990	103.100	20.103	5.056	0.492
1216.000	694.449	80.005	19.994	103.098	20.103	5.067	0.571
1218.000	695.466	80.007	19.992	103.099	20.103	5.095	0.453
1220.000	696.505	80.002	19.992	103.102	20.106	4.835	0.522
1222.000	697.583	80.003	19.996	103.112	20.101	5.198	0.526
1224.000	698.613	80.004	19.995	103.106	20.104	4.976	0.518
1226.001	699.729	80.002	19.994	103.107	20.103	5.026	0.546
1228.000	700.740	80.006	19.994	103.106	20.103	5.039	0.515
1230.000	701.761	80.003	19.995	103.112	20.103	5.045	0.516
1232.000	702.858	80.005	19.994	103.102	20.102	5.104	0.508
1234.000	703.966	80.005	19.993	103.105	20.105	4.913	0.518
1236.000	704.993	80.006	19.993	103.114	20.107	4.714	0.519
1238.000	706.054	80.004	19.994	103.113	20.103	5.041	0.539
1240.000	707.133	80.005	19.995	103.117	20.104	5.008	0.556
1242.001	708.142	80.001	19.994	103.109	20.102	5.114	0.514
1244.000	709.219	80.001	19.994	103.114	20.103	5.069	0.525
1246.000	710.260	80.004	19.993	103.108	20.106	4.796	0.518
1248.000	711.309	80.002	19.996	103.105	20.104	4.965	0.510
1250.000	712.342	80.002	19.994	103.107	20.106	4.786	0.552
1252.000	713.388	80.004	19.992	103.097	20.106	4.827	0.511
1254.001	714.406	80.003	19.993	103.105	20.102	5.138	0.532
1256.001	715.478	80.002	19.994	103.108	20.101	5.218	0.518
1258.000	716.534	80.003	19.995	103.100	20.103	5.066	0.535
1260.000	717.571	80.004	19.994	103.108	20.105	4.889	0.523
1262.000	718.569	80.006	19.994	103.115	20.104	4.982	0.511
1264.000	719.612	80.004	19.995	103.113	20.106	4.815	0.532
1266.000	720.598	80.003	19.994	103.100	20.105	4.872	0.477
1268.000	721.602	80.002	19.995	103.100	20.101	5.237	0.501
1270.001	722.605	80.004	19.993	103.099	20.103	5.084	0.514
1272.001	723.617	80.004	19.994	103.102	20.106	4.799	0.479
1274.000	724.632	79.998	19.995	103.098	20.109	4.603	0.507
1276.000	725.616	79.999	19.997	103.095	20.105	4.937	0.509
1278.000	726.641	80.003	19.996	103.097	20.107	4.775	0.513
1280.000	727.629	80.002	19.995	103.097	20.105	4.889	0.498
1282.000	728.604	80.002	19.995	103.112	20.107	4.760	0.491
1284.001	729.633	80.002	19.994	103.101	20.108	4.688	0.497
1286.000	730.663	80.007	19.988	103.098	20.109	4.615	0.525
1288.000	731.678	80.004	19.995	103.107	20.110	4.497	0.514
1290.000	732.668	80.005	19.995	103.097	20.109	4.540	0.533
1292.000	733.662	80.003	19.996	103.106	20.106	4.785	0.525
1294.000	734.677	80.002	19.995	103.107	20.108	4.640	0.505
1296.000	735.707	80.003	19.994	103.100	20.108	4.645	0.497
1298.000	736.675	80.003	19.993	103.106	20.104	4.946	0.465
1300.000	737.742	80.001	19.997	103.096	20.107	4.722	0.515
1302.001	738.754	80.005	19.994	103.095	20.104	5.014	0.504
1304.000	739.746	80.002	19.995	103.095	20.105	4.869	0.482
1306.001	740.768	80.004	19.996	103.104	20.106	4.835	0.491
1308.001	741.808	80.002	19.994	103.099	20.106	4.807	0.501
1310.001	742.831	80.003	19.998	103.101	20.105	4.876	0.526
1311.000	743.311	80.002	19.994	103.099	20.106	4.781	0.487