File: 01_Data/FDNY_LDF/MCC/FDNY_LDF_MCC_30K_min_211208_R2.txt
Sample ID:	C:\MCC\MCC Cal\Test\FDNY_LDF_MCC_30K_min_211208_R2.txt
Sample Weight (mg):	4.55
Heating Rate (C/s):	0.5
Combustor Temp (C):	900
N2 Flow Rate (cc/min):	80
O2 Flow Rate (cc/min):	20
Calibration File:	C:\MCC\MCC Cal\Coeff1 JN10440_30_210304.txt.txt
T Correction Coefficients:	0	1.024463	0
Time Shift (s):	14
*
Time (s)	Temperature (C)	N2 flow rate (cc/min)	O2 flow rate (cc/min)	Flow Rate (cc/min)	Oxygen (%)	HRR (W/g)	Heating rate (C/s)
0.000	108.843	80.009	19.996	103.067	20.224	-0.455	-0.004
2.001	108.846	80.006	19.995	103.068	20.219	-0.047	0.006
4.000	108.865	80.005	19.995	103.065	20.216	0.178	-0.015
6.000	108.851	80.006	19.997	103.066	20.218	-0.027	-0.007
8.000	108.874	80.007	19.994	103.088	20.217	0.061	0.005
10.001	108.867	80.007	19.996	103.108	20.214	0.314	0.015
12.000	108.893	80.006	19.997	103.098	20.210	0.562	0.025
14.001	108.930	80.007	19.994	103.096	20.207	0.752	0.039
16.000	108.947	80.008	19.995	103.175	20.209	0.635	0.021
18.000	109.000	80.007	19.993	103.139	20.206	0.883	0.030
20.000	109.069	80.008	19.995	103.150	20.205	0.901	0.045
22.000	109.114	80.008	19.993	103.163	20.203	1.049	0.025
24.001	109.267	80.006	19.995	103.207	20.197	1.505	0.057
26.000	109.356	80.006	19.996	103.238	20.197	1.515	0.060
28.000	109.538	80.007	19.993	103.247	20.191	1.880	0.079
30.000	109.751	80.006	19.993	103.252	20.189	2.049	0.108
32.001	109.991	80.007	19.995	103.254	20.187	2.162	0.126
34.000	110.287	80.007	19.993	103.269	20.185	2.358	0.140
36.000	110.546	80.008	19.995	103.279	20.184	2.377	0.148
38.002	110.831	80.007	19.995	103.287	20.183	2.461	0.134
40.000	111.185	80.010	19.994	103.296	20.176	2.953	0.152
42.000	111.580	80.006	19.994	103.319	20.174	3.086	0.217
44.000	111.969	80.008	19.995	103.310	20.175	3.028	0.211
46.001	112.418	80.008	19.994	103.305	20.174	3.085	0.200
48.000	112.873	80.006	19.996	103.311	20.174	3.097	0.254
50.000	113.369	80.006	19.995	103.307	20.173	3.223	0.249
52.000	113.865	80.004	19.995	103.236	20.173	3.158	0.270
54.000	114.364	80.007	19.997	103.349	20.174	3.123	0.291
56.000	114.917	80.005	19.996	103.319	20.174	3.135	0.277
58.000	115.485	80.006	19.994	103.309	20.172	3.270	0.301
60.000	116.072	80.006	19.996	103.328	20.175	3.064	0.306
62.000	116.697	80.006	19.995	103.328	20.174	3.115	0.307
64.000	117.297	80.005	19.995	103.327	20.172	3.262	0.292
66.001	117.953	80.006	19.995	103.333	20.173	3.158	0.335
68.000	118.632	80.006	19.996	103.341	20.174	3.090	0.388
70.000	119.323	80.006	19.995	103.330	20.174	3.092	0.354
72.000	119.971	80.004	19.995	103.327	20.173	3.219	0.353
74.000	120.697	80.005	19.995	103.328	20.170	3.399	0.370
76.000	121.421	80.006	19.993	103.327	20.174	3.099	0.386
78.000	122.189	80.004	19.997	103.327	20.168	3.553	0.377
80.001	123.011	80.005	19.997	103.329	20.170	3.436	0.422
82.000	123.789	80.005	19.997	103.327	20.170	3.414	0.410
84.001	124.538	80.004	19.994	103.331	20.174	3.103	0.398
86.000	125.294	80.004	19.995	103.330	20.171	3.311	0.375
88.000	126.093	80.005	19.995	103.336	20.173	3.213	0.380
90.000	126.991	80.005	19.995	103.336	20.174	3.090	0.441
92.000	127.716	80.008	19.994	103.336	20.171	3.340	0.358
94.000	128.601	80.006	19.994	103.336	20.171	3.340	0.427
96.000	129.442	80.008	19.995	103.337	20.171	3.307	0.422
98.000	130.300	80.008	19.995	103.340	20.168	3.516	0.460
100.000	131.171	80.006	19.994	103.336	20.167	3.586	0.385
102.000	132.079	80.007	19.995	103.339	20.168	3.520	0.476
104.000	132.958	80.007	19.996	103.335	20.167	3.584	0.454
106.000	133.855	80.007	19.994	103.336	20.169	3.496	0.435
108.001	134.715	80.006	19.993	103.332	20.169	3.501	0.428
110.000	135.617	80.006	19.993	103.333	20.170	3.373	0.454
112.000	136.533	80.006	19.994	103.332	20.169	3.442	0.446
114.000	137.467	80.007	19.995	103.333	20.168	3.531	0.456
116.000	138.361	80.006	19.995	103.330	20.169	3.461	0.474
118.001	139.350	80.008	19.993	103.328	20.173	3.170	0.485
120.001	140.274	80.007	19.993	103.341	20.171	3.307	0.481
122.001	141.243	80.009	19.993	103.335	20.171	3.357	0.472
124.000	142.188	80.008	19.993	103.331	20.172	3.295	0.479
126.000	143.204	80.008	19.996	103.329	20.170	3.412	0.460
128.000	144.163	80.009	19.995	103.329	20.171	3.344	0.509
130.000	145.141	80.008	19.994	103.333	20.170	3.416	0.477
132.000	146.162	80.005	19.996	103.330	20.171	3.338	0.497
134.000	147.103	80.006	19.995	103.327	20.170	3.375	0.446
136.000	148.095	80.006	19.995	103.329	20.168	3.514	0.507
138.000	149.090	80.006	19.996	103.328	20.172	3.281	0.503
140.000	150.079	80.006	19.997	103.327	20.173	3.201	0.489
142.000	151.097	80.007	19.998	103.325	20.171	3.304	0.509
144.000	152.111	80.005	19.996	103.323	20.168	3.555	0.508
146.000	153.092	80.005	19.995	103.323	20.171	3.326	0.520
148.000	154.069	80.004	19.995	103.326	20.174	3.130	0.501
150.000	155.046	80.006	19.996	103.321	20.170	3.388	0.512
152.000	156.057	80.006	19.994	103.322	20.171	3.365	0.499
154.000	157.108	80.004	19.995	103.320	20.172	3.261	0.546
156.000	158.054	80.004	19.994	103.323	20.171	3.359	0.495
158.000	159.050	80.007	19.995	103.312	20.167	3.580	0.490
160.000	160.064	80.004	19.994	103.315	20.169	3.453	0.478
162.000	161.074	80.004	19.994	103.314	20.167	3.586	0.473
164.000	162.070	80.004	19.995	103.315	20.170	3.426	0.475
166.000	163.075	80.004	19.996	103.305	20.170	3.369	0.471
168.000	164.137	80.004	19.995	103.305	20.168	3.542	0.534
170.000	165.097	80.005	19.996	103.308	20.170	3.384	0.481
172.000	166.103	80.004	19.997	103.313	20.167	3.610	0.467
174.000	167.140	80.007	19.995	103.319	20.167	3.597	0.513
176.000	168.150	80.007	19.996	103.312	20.169	3.503	0.500
178.000	169.128	80.008	19.995	103.302	20.165	3.777	0.497
180.000	170.187	80.007	19.995	103.294	20.167	3.614	0.524
182.000	171.133	80.007	19.992	103.291	20.165	3.738	0.500
184.000	172.142	80.007	19.994	103.288	20.167	3.608	0.503
186.000	173.145	80.006	19.996	103.292	20.166	3.690	0.486
188.000	174.173	80.007	19.996	103.300	20.166	3.649	0.535
190.000	175.138	80.007	19.997	103.294	20.171	3.296	0.511
192.000	176.121	80.006	19.997	103.294	20.166	3.673	0.463
194.000	177.121	80.007	19.995	103.290	20.166	3.657	0.477
196.000	178.140	80.007	19.997	103.290	20.165	3.757	0.492
198.000	179.153	80.008	19.995	103.288	20.166	3.714	0.525
200.000	180.095	80.009	19.994	103.288	20.166	3.718	0.496
202.000	181.106	80.008	19.994	103.287	20.161	4.017	0.489
204.000	182.146	80.008	19.994	103.288	20.162	3.933	0.523
206.001	183.117	80.008	19.998	103.284	20.164	3.810	0.484
208.000	184.097	80.009	19.993	103.281	20.160	4.128	0.499
210.000	185.088	80.005	19.994	103.287	20.161	4.048	0.477
212.000	186.104	80.006	19.994	103.288	20.158	4.226	0.507
214.000	187.112	80.005	19.993	103.286	20.157	4.291	0.500
216.001	188.087	80.007	19.994	103.289	20.158	4.261	0.487
218.000	189.037	80.006	19.993	103.288	20.159	4.179	0.452
220.000	190.090	80.005	19.995	103.286	20.157	4.298	0.510
222.000	191.047	80.005	19.993	103.285	20.158	4.255	0.472
224.000	192.010	80.006	19.994	103.282	20.157	4.345	0.490
226.000	192.982	80.007	19.993	103.286	20.156	4.406	0.495
228.000	194.007	80.006	19.995	103.284	20.158	4.222	0.508
230.000	194.981	80.005	19.996	103.279	20.156	4.410	0.503
232.000	195.972	80.004	19.994	103.284	20.156	4.382	0.475
234.000	196.961	80.005	19.993	103.277	20.153	4.601	0.513
236.000	197.898	80.005	19.993	103.286	20.152	4.662	0.469
238.001	198.880	80.005	19.994	103.278	20.156	4.411	0.453
240.000	199.911	80.006	19.996	103.284	20.152	4.669	0.482
242.001	200.940	80.004	19.995	103.285	20.149	4.863	0.499
244.000	201.894	80.007	19.995	103.278	20.148	4.958	0.495
246.000	202.886	80.005	19.996	103.282	20.149	4.876	0.471
248.000	203.883	80.006	19.995	103.280	20.152	4.671	0.510
250.000	204.835	80.006	19.996	103.277	20.147	5.062	0.462
252.001	205.852	80.006	19.994	103.282	20.148	4.932	0.522
254.000	206.846	80.006	19.995	103.279	20.150	4.798	0.487
256.000	207.850	80.007	19.996	103.275	20.145	5.190	0.505
258.000	208.837	80.006	19.995	103.277	20.145	5.182	0.488
260.000	209.846	80.006	19.995	103.277	20.144	5.222	0.491
262.000	210.826	80.006	19.995	103.272	20.142	5.353	0.506
264.000	211.793	80.005	19.996	103.269	20.142	5.386	0.509
266.000	212.756	80.007	19.998	103.265	20.141	5.472	0.476
268.000	213.801	80.006	19.996	103.258	20.140	5.526	0.493
270.001	214.767	80.006	19.996	103.267	20.142	5.418	0.495
272.000	215.764	80.006	19.994	103.273	20.140	5.492	0.507
274.000	216.781	80.007	19.995	103.276	20.140	5.531	0.472
276.000	217.712	80.006	19.995	103.270	20.140	5.513	0.467
278.000	218.725	80.006	19.994	103.267	20.141	5.453	0.483
280.000	219.736	80.006	19.996	103.270	20.136	5.775	0.509
282.000	220.746	80.008	19.995	103.280	20.137	5.752	0.513
284.000	221.717	80.009	19.993	103.276	20.139	5.594	0.496
286.000	222.752	80.007	19.994	103.271	20.134	5.922	0.508
288.000	223.740	80.007	19.994	103.268	20.138	5.632	0.504
290.000	224.732	80.006	19.994	103.273	20.138	5.679	0.503
292.000	225.731	80.005	19.995	103.272	20.137	5.758	0.505
294.000	226.730	80.005	19.995	103.283	20.134	5.975	0.496
296.000	227.724	80.004	19.995	103.274	20.135	5.862	0.485
298.000	228.764	80.006	19.993	103.272	20.128	6.349	0.520
300.000	229.783	80.005	19.993	103.277	20.131	6.170	0.511
302.000	230.787	80.004	19.995	103.276	20.131	6.197	0.462
304.000	231.841	80.006	19.994	103.277	20.127	6.468	0.488
306.000	232.840	80.005	19.992	103.279	20.123	6.752	0.508
308.000	233.846	80.005	19.993	103.272	20.122	6.772	0.503
310.000	234.822	80.006	19.993	103.272	20.118	7.048	0.486
312.000	235.800	80.006	19.994	103.276	20.118	7.077	0.511
314.000	236.826	80.007	19.994	103.255	20.118	7.072	0.503
316.000	237.786	80.006	19.994	103.260	20.115	7.327	0.480
318.000	238.789	80.005	19.993	103.272	20.112	7.515	0.513
320.000	239.750	80.005	19.994	103.269	20.109	7.748	0.496
322.000	240.750	80.006	19.994	103.277	20.109	7.688	0.486
324.000	241.751	80.005	19.996	103.278	20.105	7.997	0.495
326.000	242.760	80.005	19.995	103.278	20.102	8.223	0.537
328.000	243.755	80.005	19.995	103.270	20.100	8.338	0.504
330.000	244.771	80.004	19.995	103.281	20.098	8.497	0.523
332.000	245.748	80.003	19.996	103.286	20.097	8.563	0.482
334.000	246.746	80.005	19.995	103.279	20.092	8.890	0.522
336.001	247.752	80.006	19.997	103.273	20.090	9.087	0.529
338.000	248.730	80.007	19.994	103.282	20.089	9.115	0.514
340.000	249.721	80.007	19.996	103.287	20.087	9.247	0.485
342.000	250.757	80.006	19.994	103.284	20.087	9.294	0.508
344.000	251.774	80.006	19.996	103.282	20.080	9.806	0.541
346.000	252.785	80.006	19.995	103.290	20.076	10.086	0.487
348.000	253.783	80.005	19.994	103.289	20.077	10.002	0.507
350.000	254.760	80.006	19.995	103.288	20.069	10.563	0.499
352.000	255.777	80.003	19.995	103.280	20.068	10.632	0.505
354.000	256.750	80.005	19.996	103.290	20.063	10.970	0.487
356.000	257.753	80.004	19.995	103.288	20.059	11.244	0.488
358.000	258.774	80.005	19.996	103.291	20.052	11.793	0.484
360.000	259.785	80.005	19.996	103.292	20.051	11.831	0.501
362.000	260.742	80.007	19.994	103.290	20.049	11.980	0.477
364.000	261.732	80.008	19.993	103.294	20.041	12.560	0.498
366.000	262.758	80.007	19.995	103.294	20.039	12.695	0.487
368.000	263.781	80.008	19.992	103.295	20.031	13.274	0.508
370.000	264.756	80.007	19.994	103.292	20.025	13.654	0.505
372.000	265.737	80.006	19.994	103.305	20.022	13.872	0.502
374.000	266.710	80.006	19.993	103.296	20.018	14.171	0.489
376.000	267.744	80.006	19.993	103.299	20.013	14.515	0.494
378.000	268.715	80.006	19.994	103.304	20.012	14.571	0.487
380.000	269.730	80.005	19.995	103.302	20.002	15.296	0.546
382.000	270.733	80.004	19.994	103.313	20.002	15.308	0.532
384.000	271.747	80.006	19.995	103.305	19.994	15.887	0.501
386.000	272.756	80.007	19.995	103.295	19.987	16.357	0.487
388.000	273.743	80.005	19.995	103.306	19.981	16.814	0.505
390.000	274.757	80.007	19.994	103.308	19.978	17.012	0.514
392.000	275.766	80.006	19.993	103.321	19.971	17.524	0.484
394.000	276.752	80.005	19.993	103.322	19.966	17.837	0.484
396.000	277.811	80.006	19.994	103.327	19.960	18.264	0.506
398.000	278.791	80.006	19.994	103.326	19.955	18.618	0.497
400.000	279.758	80.006	19.994	103.326	19.945	19.341	0.464
402.000	280.741	80.005	19.995	103.326	19.943	19.487	0.489
404.000	281.765	80.006	19.994	103.326	19.938	19.816	0.496
406.000	282.804	80.004	19.993	103.328	19.931	20.316	0.507
408.000	283.816	80.005	19.994	103.332	19.919	21.184	0.512
410.000	284.789	80.004	19.995	103.332	19.914	21.536	0.483
412.000	285.806	80.005	19.994	103.334	19.904	22.276	0.482
414.000	286.830	80.005	19.995	103.338	19.900	22.564	0.478
416.000	287.862	80.005	19.995	103.335	19.893	23.060	0.507
418.000	288.808	80.007	19.994	103.331	19.882	23.818	0.491
420.000	289.847	80.007	19.994	103.335	19.878	24.113	0.495
422.001	290.801	80.006	19.996	103.332	19.870	24.649	0.492
424.000	291.825	80.005	19.995	103.352	19.862	25.208	0.462
426.000	292.802	80.005	19.995	103.350	19.857	25.603	0.477
428.000	293.866	80.006	19.995	103.355	19.849	26.161	0.540
430.000	294.856	80.006	19.996	103.351	19.841	26.686	0.519
432.000	295.848	80.006	19.994	103.347	19.832	27.360	0.475
434.000	296.867	80.006	19.996	103.364	19.819	28.252	0.504
436.000	297.875	80.006	19.996	103.370	19.810	28.943	0.528
438.000	298.880	80.006	19.994	103.369	19.808	29.090	0.497
440.000	299.903	80.007	19.995	103.362	19.798	29.747	0.491
442.000	300.912	80.007	19.995	103.366	19.787	30.526	0.489
444.000	301.940	80.006	19.995	103.365	19.777	31.259	0.505
446.000	302.929	80.008	19.995	103.371	19.770	31.788	0.515
448.001	303.936	80.007	19.996	103.372	19.757	32.685	0.515
450.000	304.870	80.007	19.995	103.367	19.746	33.438	0.483
452.000	305.927	80.007	19.996	103.384	19.738	34.038	0.517
454.000	306.978	80.004	19.996	103.388	19.728	34.779	0.547
456.000	307.947	80.006	19.995	103.390	19.718	35.470	0.493
458.000	308.948	80.006	19.994	103.396	19.710	36.016	0.497
460.000	309.935	80.005	19.994	103.402	19.698	36.895	0.506
462.000	311.010	80.006	19.995	103.401	19.687	37.680	0.527
464.000	311.970	80.007	19.994	103.404	19.679	38.199	0.484
466.000	313.031	80.006	19.995	103.406	19.668	39.031	0.527
468.000	313.980	80.005	19.994	103.406	19.659	39.641	0.469
470.000	315.022	80.005	19.994	103.406	19.647	40.517	0.505
472.000	316.010	80.005	19.994	103.407	19.639	41.043	0.460
474.000	317.024	80.006	19.995	103.407	19.628	41.814	0.514
476.001	318.015	80.005	19.995	103.409	19.615	42.773	0.478
478.000	319.030	80.006	19.993	103.413	19.609	43.211	0.484
480.000	320.020	80.007	19.996	103.410	19.597	44.012	0.511
482.000	321.000	80.006	19.994	103.414	19.590	44.547	0.461
484.000	322.012	80.006	19.995	103.422	19.583	45.046	0.492
486.000	323.008	80.005	19.996	103.427	19.571	45.870	0.498
488.000	324.059	80.004	19.995	103.430	19.564	46.420	0.503
490.000	324.988	80.004	19.993	103.426	19.558	46.800	0.460
492.000	326.002	80.004	19.995	103.428	19.552	47.264	0.500
494.000	327.036	80.005	19.993	103.433	19.543	47.890	0.498
496.000	328.032	80.005	19.996	103.449	19.538	48.199	0.519
498.001	329.078	80.006	19.995	103.444	19.534	48.536	0.515
500.000	330.034	80.007	19.994	103.434	19.529	48.851	0.496
502.000	331.014	80.007	19.994	103.446	19.522	49.389	0.474
504.000	332.034	80.007	19.994	103.442	19.518	49.625	0.526
506.000	332.991	80.007	19.996	103.437	19.507	50.417	0.517
508.000	334.017	80.007	19.995	103.437	19.505	50.569	0.482
510.000	335.015	80.007	19.994	103.440	19.500	50.908	0.499
512.000	336.040	80.005	19.995	103.437	19.500	50.928	0.504
514.001	337.065	80.006	19.993	103.439	19.487	51.846	0.490
516.000	338.104	80.007	19.996	103.444	19.485	51.964	0.519
518.000	339.104	80.007	19.995	103.439	19.481	52.299	0.535
520.000	340.075	80.006	19.996	103.445	19.478	52.504	0.494
522.000	341.049	80.006	19.993	103.445	19.469	53.161	0.464
524.000	342.112	80.008	19.995	103.445	19.466	53.320	0.492
526.000	343.143	80.008	19.996	103.446	19.456	54.086	0.533
528.000	344.140	80.006	19.994	103.445	19.453	54.282	0.514
530.000	345.127	80.007	19.995	103.451	19.447	54.722	0.533
532.001	346.138	80.008	19.997	103.445	19.437	55.442	0.496
534.000	347.194	80.007	19.995	103.451	19.429	55.966	0.521
536.000	348.192	80.007	19.995	103.458	19.418	56.772	0.510
538.000	349.241	80.004	19.994	103.466	19.407	57.584	0.525
540.000	350.275	80.004	19.996	103.482	19.400	58.030	0.517
542.000	351.290	80.004	19.995	103.476	19.387	58.961	0.538
544.000	352.302	80.004	19.994	103.480	19.378	59.611	0.518
546.000	353.326	80.004	19.998	103.485	19.361	60.799	0.480
548.000	354.343	80.006	19.995	103.486	19.351	61.521	0.473
550.000	355.346	80.005	19.996	103.486	19.337	62.544	0.510
552.000	356.398	80.006	19.995	103.489	19.324	63.443	0.516
554.000	357.441	80.005	19.995	103.491	19.310	64.465	0.539
556.000	358.433	80.005	19.994	103.492	19.297	65.363	0.525
558.000	359.452	80.005	19.994	103.511	19.283	66.401	0.504
560.000	360.455	80.005	19.994	103.496	19.271	67.221	0.501
562.000	361.480	80.005	19.994	103.510	19.258	68.152	0.508
564.000	362.522	80.003	19.994	103.511	19.245	69.040	0.521
566.000	363.466	80.004	19.995	103.518	19.236	69.722	0.487
568.000	364.512	80.004	19.995	103.526	19.226	70.435	0.502
570.000	365.500	80.003	19.995	103.524	19.213	71.323	0.505
572.000	366.548	80.005	19.995	103.525	19.205	71.856	0.523
574.000	367.590	80.005	19.995	103.522	19.200	72.216	0.515
576.000	368.578	80.006	19.995	103.522	19.198	72.363	0.501
578.000	369.620	80.006	19.995	103.522	19.197	72.482	0.501
580.000	370.601	80.005	19.993	103.519	19.194	72.655	0.528
582.000	371.639	80.006	19.997	103.495	19.198	72.356	0.502
584.000	372.663	80.008	19.995	103.490	19.204	71.913	0.487
586.000	373.728	80.006	19.995	103.483	19.208	71.611	0.538
588.000	374.753	80.007	19.995	103.484	19.222	70.630	0.512
590.000	375.801	80.007	19.994	103.481	19.236	69.648	0.514
592.000	376.783	80.007	19.995	103.455	19.251	68.558	0.512
594.000	377.824	80.007	19.994	103.448	19.276	66.767	0.540
596.000	378.858	80.006	19.995	103.441	19.299	65.155	0.509
598.000	379.831	80.006	19.994	103.419	19.326	63.227	0.504
600.000	380.887	80.007	19.995	103.407	19.358	60.905	0.515
602.000	381.874	80.006	19.995	103.397	19.390	58.657	0.492
604.000	382.889	80.006	19.995	103.377	19.425	56.154	0.493
606.000	383.892	80.007	19.996	103.370	19.464	53.376	0.499
608.000	384.916	80.008	19.996	103.354	19.503	50.664	0.510
610.000	385.958	80.008	19.995	103.336	19.545	47.627	0.518
612.000	386.960	80.008	19.995	103.329	19.587	44.687	0.539
614.000	388.009	80.008	19.995	103.314	19.633	41.417	0.511
616.001	389.026	80.006	19.994	103.300	19.670	38.827	0.485
618.000	390.042	80.005	19.995	103.292	19.710	35.964	0.539
620.000	391.054	80.006	19.995	103.287	19.750	33.144	0.527
622.000	392.057	80.004	19.994	103.261	19.790	30.302	0.474
624.000	393.077	80.003	19.995	103.257	19.826	27.727	0.493
626.000	394.148	80.005	19.995	103.253	19.859	25.402	0.551
628.000	395.177	80.004	19.994	103.247	19.893	22.972	0.523
630.000	396.177	80.004	19.995	103.239	19.918	21.212	0.503
632.000	397.175	80.005	19.995	103.228	19.947	19.206	0.474
634.000	398.200	80.005	19.995	103.220	19.971	17.477	0.527
636.000	399.184	80.005	19.995	103.213	19.993	15.931	0.507
638.000	400.249	80.006	19.996	103.211	20.006	15.010	0.546
640.000	401.256	80.005	19.996	103.212	20.023	13.834	0.518
642.000	402.275	80.007	19.995	103.212	20.030	13.272	0.552
644.000	403.252	80.005	19.994	103.211	20.042	12.483	0.499
646.000	404.259	80.004	19.995	103.214	20.049	11.946	0.455
648.000	405.296	80.006	19.994	103.212	20.057	11.381	0.508
650.000	406.279	80.004	19.995	103.211	20.061	11.100	0.480
652.000	407.301	80.005	19.993	103.211	20.064	10.872	0.509
654.000	408.346	80.006	19.995	103.212	20.066	10.791	0.526
656.000	409.291	80.006	19.995	103.211	20.072	10.362	0.487
658.000	410.347	80.006	19.995	103.213	20.075	10.157	0.533
660.000	411.323	80.008	19.995	103.211	20.075	10.147	0.492
662.000	412.339	80.008	19.994	103.214	20.079	9.871	0.510
664.000	413.345	80.006	19.994	103.213	20.079	9.850	0.468
666.000	414.281	80.007	19.996	103.212	20.078	9.926	0.461
668.000	415.296	80.007	19.994	103.211	20.081	9.713	0.507
670.000	416.314	80.008	19.994	103.210	20.083	9.532	0.505
672.000	417.362	80.007	19.995	103.208	20.084	9.495	0.494
674.000	418.413	80.008	19.994	103.212	20.087	9.264	0.513
676.000	419.370	80.006	19.994	103.213	20.084	9.463	0.477
678.000	420.410	80.006	19.996	103.214	20.085	9.385	0.524
680.000	421.378	80.007	19.995	103.213	20.086	9.377	0.483
682.000	422.393	80.007	19.994	103.213	20.085	9.393	0.482
684.000	423.428	80.007	19.994	103.214	20.087	9.303	0.509
686.000	424.467	80.007	19.994	103.212	20.089	9.139	0.512
688.000	425.491	80.009	19.994	103.211	20.090	9.027	0.524
690.000	426.445	80.009	19.993	103.214	20.091	9.010	0.487
692.000	427.493	80.008	19.994	103.213	20.092	8.953	0.498
694.000	428.447	80.007	19.995	103.213	20.093	8.865	0.499
696.000	429.486	80.007	19.994	103.211	20.093	8.871	0.512
698.000	430.531	80.006	19.995	103.209	20.093	8.822	0.495
700.000	431.529	80.007	19.996	103.209	20.094	8.748	0.501
702.000	432.606	80.006	19.996	103.210	20.098	8.501	0.523
704.000	433.602	80.006	19.996	103.209	20.094	8.781	0.486
706.000	434.661	80.005	19.994	103.207	20.096	8.602	0.512
708.000	435.670	80.007	19.995	103.208	20.103	8.157	0.537
710.000	436.703	80.004	19.996	103.207	20.102	8.242	0.535
712.000	437.706	80.005	19.995	103.202	20.104	8.051	0.496
714.000	438.690	80.006	19.995	103.204	20.104	8.047	0.501
716.000	439.716	80.006	19.995	103.194	20.106	7.936	0.508
718.000	440.703	80.006	19.995	103.190	20.107	7.871	0.478
720.000	441.744	80.006	19.995	103.198	20.112	7.512	0.515
722.000	442.822	80.005	19.995	103.211	20.110	7.615	0.550
724.000	443.781	80.005	19.996	103.203	20.110	7.630	0.502
726.000	444.812	80.005	19.995	103.211	20.115	7.307	0.492
728.000	445.833	80.006	19.995	103.211	20.119	7.039	0.497
730.000	446.867	80.003	19.996	103.210	20.118	7.063	0.511
732.000	447.856	80.004	19.996	103.208	20.119	7.039	0.487
734.001	448.908	80.004	19.997	103.202	20.115	7.314	0.536
736.000	449.899	80.003	19.995	103.208	20.127	6.469	0.507
738.000	450.915	80.004	19.996	103.213	20.122	6.823	0.503
740.000	452.022	80.007	19.995	103.214	20.124	6.636	0.495
742.000	453.020	80.006	19.995	103.210	20.124	6.627	0.554
744.000	454.088	80.008	19.994	103.202	20.129	6.298	0.497
746.000	455.177	80.008	19.995	103.205	20.128	6.341	0.556
748.000	455.984	80.008	19.993	103.211	20.129	6.285	0.443
750.000	457.535	80.007	19.994	103.203	20.130	6.256	0.950
752.001	458.133	80.007	19.994	103.194	20.134	5.960	0.581
754.000	459.144	80.007	19.993	103.201	20.136	5.798	0.415
756.000	460.226	80.007	19.995	103.190	20.137	5.705	0.548
758.000	461.193	80.006	19.994	103.193	20.142	5.403	0.614
760.000	462.146	80.007	19.995	103.206	20.145	5.179	0.512
762.000	463.170	80.009	19.995	103.204	20.145	5.168	0.514
764.000	464.152	80.006	19.993	103.198	20.146	5.068	0.468
766.000	465.211	80.008	19.994	103.186	20.148	4.962	0.533
768.000	466.200	80.008	19.994	103.183	20.150	4.847	0.524
770.000	467.207	80.009	19.995	103.195	20.148	4.933	0.493
772.000	468.234	80.007	19.995	103.195	20.146	5.073	0.518
774.000	469.270	80.009	19.995	103.206	20.150	4.788	0.535
776.000	470.284	80.006	19.991	103.200	20.151	4.765	0.519
778.000	471.212	80.007	19.995	103.190	20.152	4.688	0.475
780.000	472.249	80.007	19.993	103.198	20.146	5.073	0.487
782.000	473.301	80.005	19.996	103.192	20.152	4.641	0.522
784.000	474.312	80.007	19.994	103.189	20.153	4.585	0.493
786.000	475.282	80.006	19.995	103.200	20.155	4.468	0.518
788.000	476.298	80.006	19.994	103.186	20.159	4.189	0.484
790.000	477.279	80.007	19.995	103.183	20.159	4.189	0.497
792.000	478.330	80.006	19.996	103.175	20.158	4.230	0.535
794.000	479.318	80.006	19.994	103.180	20.162	3.992	0.497
796.000	480.280	80.005	19.995	103.205	20.161	4.023	0.476
798.000	481.303	80.006	19.994	103.188	20.159	4.171	0.522
800.001	482.319	80.006	19.995	103.189	20.159	4.150	0.529
802.000	483.341	80.006	19.996	103.205	20.161	4.042	0.535
804.000	484.343	80.005	19.994	103.200	20.162	3.941	0.508
806.000	485.346	80.004	19.996	103.199	20.162	3.940	0.527
808.000	486.343	80.004	19.994	103.181	20.164	3.853	0.523
810.000	487.327	80.007	19.993	103.187	20.165	3.740	0.517
812.000	488.339	80.005	19.995	103.184	20.164	3.820	0.534
814.000	489.341	80.004	19.994	103.190	20.166	3.691	0.523
816.000	490.372	80.004	19.994	103.184	20.164	3.798	0.542
818.000	491.300	80.005	19.995	103.188	20.163	3.859	0.459
820.000	492.365	80.004	19.996	103.191	20.168	3.517	0.504
822.000	493.416	80.005	19.995	103.192	20.165	3.726	0.532
824.001	494.426	80.006	19.996	103.185	20.168	3.509	0.527
826.000	495.434	80.006	19.996	103.182	20.168	3.544	0.488
828.000	496.455	80.007	19.995	103.184	20.170	3.408	0.539
830.000	497.452	80.007	19.995	103.195	20.170	3.394	0.499
832.000	498.460	80.006	19.994	103.198	20.168	3.535	0.502
834.000	499.505	80.007	19.994	103.177	20.167	3.632	0.540
836.001	500.506	80.006	19.994	103.175	20.167	3.591	0.526
838.000	501.558	80.007	19.996	103.186	20.171	3.341	0.532
840.000	502.549	80.007	19.995	103.197	20.168	3.530	0.483
842.000	503.584	80.007	19.995	103.199	20.168	3.519	0.509
844.000	504.629	80.008	19.993	103.199	20.169	3.441	0.535
846.000	505.636	80.009	19.995	103.191	20.167	3.636	0.477
848.001	506.648	80.010	19.995	103.183	20.170	3.377	0.514
850.001	507.658	80.007	19.994	103.176	20.169	3.476	0.495
852.000	508.704	80.010	19.995	103.188	20.171	3.322	0.538
854.000	509.739	80.008	19.994	103.181	20.168	3.506	0.550
856.000	510.745	80.007	19.993	103.183	20.167	3.613	0.528
858.000	511.772	80.007	19.994	103.199	20.166	3.673	0.499
860.000	512.788	80.007	19.995	103.197	20.169	3.504	0.537
862.000	513.802	80.007	19.996	103.189	20.168	3.543	0.535
864.000	514.903	80.007	19.995	103.199	20.168	3.531	0.539
866.000	515.892	80.005	19.994	103.209	20.170	3.417	0.498
868.000	516.952	80.007	19.994	103.196	20.167	3.622	0.519
870.000	517.971	80.005	19.994	103.191	20.168	3.525	0.522
872.000	519.049	80.006	19.995	103.203	20.170	3.394	0.527
874.000	520.083	80.005	19.995	103.193	20.168	3.519	0.525
876.000	521.133	80.006	19.995	103.185	20.169	3.433	0.520
878.000	522.142	80.005	19.995	103.192	20.168	3.525	0.531
880.000	523.166	80.006	19.995	103.187	20.167	3.617	0.518
882.000	524.222	80.006	19.995	103.190	20.171	3.360	0.514
884.000	525.256	80.006	19.995	103.188	20.171	3.337	0.515
886.000	526.314	80.005	19.995	103.193	20.172	3.255	0.527
888.000	527.344	80.006	19.995	103.188	20.170	3.402	0.495
890.000	528.419	80.006	19.995	103.196	20.172	3.253	0.544
892.000	529.400	80.006	19.996	103.183	20.172	3.240	0.471
894.000	530.445	80.005	19.997	103.179	20.170	3.374	0.561
896.000	531.493	80.006	19.995	103.178	20.174	3.105	0.495
898.000	532.505	80.004	19.995	103.188	20.171	3.335	0.488
900.000	533.587	80.006	19.997	103.179	20.171	3.361	0.537
902.000	534.643	80.006	19.995	103.186	20.171	3.314	0.544
904.000	535.689	80.007	19.996	103.183	20.171	3.322	0.540
906.000	536.704	80.008	19.996	103.179	20.171	3.294	0.509
908.000	537.719	80.008	19.996	103.187	20.171	3.308	0.532
910.000	538.775	80.007	19.996	103.190	20.169	3.444	0.527
912.000	539.773	80.005	19.997	103.185	20.172	3.234	0.504
914.000	540.810	80.006	19.995	103.178	20.171	3.345	0.510
916.000	541.855	80.006	19.996	103.181	20.175	3.071	0.532
918.000	542.911	80.005	19.996	103.179	20.173	3.173	0.541
920.000	543.942	80.006	19.996	103.180	20.171	3.321	0.543
922.000	544.936	80.006	19.996	103.188	20.173	3.198	0.516
924.000	545.965	80.006	19.996	103.199	20.173	3.198	0.507
926.000	547.039	80.007	19.996	103.152	20.171	3.349	0.558
928.000	548.074	80.007	19.995	103.226	20.174	3.126	0.521
930.000	549.117	80.008	19.995	103.185	20.176	2.978	0.525
932.000	550.096	80.009	19.993	103.177	20.174	3.101	0.514
934.000	551.137	80.008	19.994	103.175	20.172	3.226	0.489
936.000	552.173	80.009	19.994	103.187	20.172	3.233	0.500
938.000	553.204	80.008	19.994	103.177	20.171	3.323	0.505
940.000	554.217	80.008	19.994	103.179	20.173	3.171	0.520
942.000	555.267	80.005	19.993	103.177	20.169	3.460	0.515
944.000	556.326	80.006	19.995	103.182	20.173	3.218	0.536
946.000	557.343	80.004	19.994	103.182	20.175	3.058	0.508
948.000	558.355	80.006	19.993	103.180	20.171	3.298	0.523
950.000	559.303	80.004	19.993	103.183	20.171	3.302	0.497
952.001	560.358	80.006	19.994	103.179	20.174	3.146	0.514
954.000	561.353	80.006	19.995	103.181	20.173	3.167	0.535
956.000	562.408	80.006	19.995	103.174	20.171	3.339	0.496
958.000	563.453	80.006	19.993	103.174	20.174	3.134	0.546
960.000	564.392	80.004	19.996	103.178	20.174	3.087	0.509
962.000	565.393	80.004	19.994	103.174	20.169	3.433	0.477
964.000	566.432	80.006	19.993	103.182	20.170	3.363	0.523
966.001	567.438	80.004	19.995	103.184	20.173	3.197	0.500
968.000	568.503	80.005	19.995	103.187	20.174	3.112	0.523
970.000	569.510	80.006	19.995	103.182	20.173	3.193	0.516
972.000	570.528	80.007	19.995	103.190	20.171	3.298	0.516
974.000	571.514	80.003	19.995	103.187	20.176	2.982	0.519
976.001	572.553	80.005	19.995	103.188	20.172	3.249	0.513
978.000	573.567	80.004	19.996	103.180	20.175	3.036	0.489
980.000	574.639	80.004	19.996	103.189	20.173	3.173	0.535
982.000	575.707	80.006	19.996	103.196	20.174	3.116	0.558
984.000	576.722	80.006	19.996	103.193	20.175	3.040	0.500
986.000	577.709	80.005	19.996	103.187	20.177	2.890	0.508
988.000	578.760	80.006	19.996	103.177	20.174	3.101	0.526
990.001	579.792	80.007	19.994	103.187	20.177	2.876	0.508
992.000	580.762	80.006	19.995	103.185	20.174	3.093	0.486
994.000	581.773	80.007	19.994	103.179	20.174	3.110	0.515
996.000	582.846	80.007	19.994	103.188	20.178	2.827	0.529
998.000	583.844	80.007	19.997	103.179	20.177	2.917	0.497
1000.000	584.903	80.005	19.996	103.183	20.174	3.116	0.507
1002.000	585.847	80.005	19.995	103.179	20.172	3.235	0.465
1004.000	586.904	80.005	19.996	103.177	20.178	2.816	0.524
1006.000	587.923	80.006	19.995	103.174	20.176	2.976	0.487
1008.000	588.949	80.006	19.997	103.176	20.176	2.964	0.544
1010.000	589.933	80.005	19.994	103.182	20.173	3.188	0.523
1012.000	590.981	80.006	19.994	103.174	20.175	3.062	0.501
1014.000	591.970	80.009	19.997	103.174	20.174	3.143	0.493
1016.000	593.002	80.006	19.994	103.183	20.173	3.157	0.508
1018.000	594.096	80.007	19.995	103.183	20.170	3.405	0.548
1020.000	595.158	80.007	19.992	103.174	20.173	3.200	0.539
1022.000	596.177	80.007	19.994	103.175	20.173	3.206	0.533
1024.000	597.188	80.005	19.994	103.188	20.172	3.286	0.511
1026.000	598.211	80.006	19.993	103.133	20.172	3.239	0.488
1028.000	599.264	80.006	19.995	103.228	20.178	2.808	0.522
1030.000	600.288	80.005	19.995	103.192	20.176	3.005	0.525
1032.000	601.317	80.007	19.994	103.178	20.174	3.095	0.513
1034.000	602.334	80.009	19.996	103.172	20.172	3.251	0.516
1036.001	603.390	80.006	19.997	103.173	20.176	2.979	0.542
1038.000	604.403	80.006	19.993	103.173	20.175	3.056	0.499
1040.000	605.433	80.006	19.995	103.178	20.175	3.066	0.498
1042.000	606.471	80.006	19.993	103.172	20.173	3.189	0.514
1044.000	607.498	80.005	19.996	103.182	20.177	2.923	0.522
1046.000	608.564	80.007	19.993	103.174	20.172	3.232	0.519
1048.000	609.553	80.006	19.994	103.171	20.169	3.440	0.487
1050.000	610.595	80.006	19.995	103.181	20.175	3.009	0.545
1052.000	611.642	80.006	19.995	103.188	20.175	3.050	0.542
1054.000	612.655	80.007	19.993	103.176	20.172	3.241	0.487
1056.000	613.688	80.006	19.995	103.180	20.172	3.290	0.489
1058.000	614.703	80.004	19.994	103.180	20.172	3.271	0.490
1060.000	615.773	80.007	19.994	103.179	20.175	3.067	0.501
1062.000	616.782	80.006	19.994	103.182	20.173	3.165	0.499
1064.000	617.832	80.005	19.996	103.181	20.172	3.239	0.535
1066.000	618.878	80.005	19.993	103.177	20.169	3.497	0.517
1068.000	619.900	80.005	19.994	103.180	20.173	3.163	0.526
1070.000	620.918	80.007	19.995	103.181	20.174	3.128	0.527
1072.001	621.936	80.006	19.994	103.179	20.171	3.317	0.496
1074.000	622.941	80.007	19.996	103.177	20.171	3.347	0.478
1076.000	623.968	80.007	19.995	103.174	20.174	3.085	0.484
1078.000	624.970	80.004	19.996	103.175	20.172	3.231	0.515
1080.000	625.970	80.006	19.994	103.173	20.175	3.040	0.506
1082.000	627.015	80.005	19.996	103.174	20.172	3.272	0.522
1084.000	627.995	80.008	19.995	103.173	20.171	3.300	0.496
1086.000	629.039	80.007	19.995	103.175	20.174	3.140	0.513
1088.000	630.042	80.006	19.993	103.177	20.173	3.212	0.500
1090.000	631.079	80.008	19.995	103.172	20.175	3.065	0.518
1092.000	632.114	80.009	19.994	103.174	20.174	3.134	0.521
1094.000	633.139	80.008	19.995	103.178	20.173	3.216	0.512
1096.000	634.171	80.010	19.993	103.171	20.172	3.239	0.484
1098.000	635.176	80.006	19.997	103.171	20.175	3.059	0.512
1100.000	636.206	80.009	19.995	103.170	20.172	3.249	0.533
1102.001	637.282	80.008	19.994	103.171	20.172	3.225	0.519
1104.000	638.231	80.006	19.996	103.170	20.174	3.130	0.482
1106.001	639.287	80.005	19.995	103.174	20.176	2.960	0.519
1108.000	640.259	80.005	19.996	103.174	20.173	3.175	0.460
1110.000	641.316	80.005	19.995	103.169	20.171	3.319	0.518
1112.000	642.317	80.004	19.995	103.170	20.169	3.489	0.501
1114.000	643.354	80.007	19.994	103.170	20.167	3.620	0.506
1116.001	644.377	80.007	19.994	103.170	20.173	3.163	0.493
1118.001	645.412	80.004	19.992	103.171	20.170	3.362	0.530
1120.001	646.414	80.007	19.995	103.171	20.171	3.321	0.507
1122.000	647.397	80.007	19.993	103.174	20.169	3.438	0.493
1124.000	648.420	80.007	19.996	103.166	20.169	3.435	0.493
1126.000	649.462	80.006	19.996	103.173	20.167	3.612	0.511
1128.000	650.464	80.007	19.996	103.174	20.169	3.436	0.508
1130.000	651.499	80.006	19.996	103.170	20.167	3.610	0.551
1132.000	652.467	80.005	19.993	103.168	20.170	3.399	0.488
1134.000	653.519	80.006	19.997	103.176	20.170	3.421	0.529
1136.000	654.518	80.005	19.995	103.173	20.170	3.417	0.505
1138.000	655.514	80.005	19.994	103.174	20.171	3.298	0.501
1140.000	656.574	80.005	19.993	103.177	20.172	3.266	0.518
1142.000	657.577	80.006	19.996	103.175	20.172	3.235	0.514
1144.001	658.622	80.005	19.994	103.174	20.173	3.190	0.491
1146.000	659.625	80.005	19.995	103.179	20.172	3.286	0.501
1148.000	660.626	80.007	19.993	103.187	20.170	3.423	0.528
1150.000	661.651	80.007	19.994	103.176	20.170	3.374	0.493
1152.000	662.660	80.009	19.995	103.172	20.170	3.372	0.457
1154.000	663.686	80.008	19.994	103.167	20.166	3.680	0.513
1156.000	664.717	80.009	19.996	103.159	20.171	3.325	0.531
1158.000	665.719	80.007	19.993	103.170	20.167	3.594	0.512
1160.000	666.747	80.009	19.995	103.171	20.168	3.516	0.479
1162.000	667.730	80.007	19.994	103.170	20.168	3.565	0.482
1164.000	668.716	80.008	19.995	103.171	20.171	3.358	0.508
1166.000	669.798	80.007	19.995	103.170	20.170	3.399	0.478
1168.001	670.776	80.007	19.992	103.169	20.170	3.424	0.500
1170.000	671.781	80.007	19.995	103.169	20.166	3.663	0.511
1172.001	672.793	80.007	19.995	103.169	20.166	3.676	0.500
1174.000	673.862	80.007	19.995	103.167	20.165	3.786	0.490
1176.000	674.893	80.007	19.995	103.165	20.171	3.317	0.531
1178.001	675.918	80.008	19.994	103.168	20.170	3.405	0.533
1180.000	676.919	80.009	19.994	103.165	20.172	3.263	0.485
1182.000	677.958	80.009	19.995	103.169	20.171	3.346	0.545
1184.000	678.983	80.007	19.995	103.173	20.170	3.407	0.533
1186.001	679.939	80.008	19.994	103.171	20.165	3.725	0.489
1188.000	680.968	80.008	19.994	103.170	20.170	3.421	0.516
1190.001	681.981	80.005	19.994	103.171	20.172	3.253	0.515
1192.000	683.057	80.007	19.995	103.171	20.169	3.448	0.561
1194.000	684.020	80.005	19.995	103.174	20.164	3.819	0.507
1196.001	685.021	80.006	19.995	103.172	20.169	3.468	0.474
1198.000	686.059	80.005	19.994	103.171	20.165	3.735	0.487
1200.000	687.043	80.004	19.994	103.172	20.163	3.907	0.476
1202.000	688.073	80.006	19.996	103.170	20.170	3.405	0.532
1204.000	689.090	80.007	19.995	103.171	20.168	3.536	0.509
1206.001	690.115	80.006	19.995	103.169	20.163	3.905	0.517
1208.000	691.082	80.005	19.995	103.173	20.163	3.877	0.483
1210.000	692.107	80.004	19.996	103.174	20.166	3.708	0.525
1212.000	693.112	80.005	19.995	103.169	20.164	3.792	0.501
1214.000	694.153	80.004	19.992	103.172	20.168	3.509	0.468
1216.000	695.132	80.006	19.994	103.172	20.165	3.766	0.520
1218.001	696.155	80.005	19.995	103.170	20.165	3.729	0.543
1220.000	697.163	80.005	19.995	103.170	20.165	3.723	0.499
1222.000	698.174	80.004	19.994	103.171	20.160	4.100	0.504
1224.000	699.132	80.007	19.994	103.171	20.165	3.764	0.510
1226.000	700.188	80.006	19.995	103.171	20.164	3.842	0.532
1228.000	701.199	80.006	19.995	103.171	20.159	4.203	0.519
1230.000	702.206	80.007	19.995	103.172	20.164	3.789	0.494
1232.001	703.180	80.008	19.994	103.171	20.161	4.008	0.480
1234.000	704.203	80.009	19.994	103.170	20.164	3.856	0.533
1236.000	705.173	80.007	19.995	103.171	20.163	3.920	0.494
1238.000	706.156	80.009	19.995	103.166	20.165	3.749	0.478
1240.000	707.152	80.010	19.995	103.165	20.164	3.852	0.486
1242.001	708.186	80.007	19.994	103.167	20.159	4.146	0.470
1244.000	709.199	80.008	19.993	103.169	20.163	3.911	0.515
1246.000	710.213	80.007	19.994	103.167	20.162	3.987	0.506
1248.000	711.179	80.008	19.993	103.168	20.161	4.065	0.475
1250.000	712.237	80.008	19.994	103.170	20.161	4.012	0.511
1252.000	713.263	80.008	19.992	103.159	20.163	3.870	0.491
1254.000	714.247	80.009	19.993	103.168	20.159	4.145	0.494
1256.001	715.282	80.009	19.993	103.173	20.156	4.356	0.528
1258.000	716.334	80.010	19.993	103.174	20.156	4.366	0.513
1260.000	717.317	80.009	19.994	103.168	20.157	4.282	0.478
1262.000	718.362	80.009	19.993	103.172	20.161	4.044	0.521
1264.000	719.386	80.008	19.995	103.169	20.159	4.184	0.514
1266.000	720.458	80.009	19.995	103.171	20.161	4.034	0.525
1268.000	721.462	80.007	19.994	103.172	20.164	3.799	0.530
1270.001	722.490	80.006	19.995	103.171	20.163	3.907	0.529
1272.000	723.496	80.006	19.995	103.177	20.158	4.262	0.544
1274.000	724.496	80.007	19.995	103.173	20.161	4.049	0.522
1276.000	725.551	80.007	19.994	103.172	20.159	4.153	0.534
1278.001	726.531	80.007	19.994	103.173	20.159	4.207	0.491
1280.000	727.531	80.006	19.994	103.172	20.155	4.485	0.469
1282.000	728.612	80.007	19.994	103.172	20.159	4.198	0.518
1284.001	729.557	80.008	19.994	103.171	20.152	4.656	0.510
1286.000	730.558	80.006	19.995	103.170	20.155	4.489	0.498
1288.001	731.512	80.006	19.994	103.170	20.156	4.375	0.452
1290.000	732.543	80.007	19.995	103.166	20.151	4.735	0.491
1292.000	733.550	80.007	19.995	103.169	20.152	4.678	0.497
1294.000	734.528	80.005	19.994	103.169	20.156	4.395	0.504
1296.000	735.528	80.006	19.996	103.169	20.159	4.194	0.498
1298.000	736.501	80.005	19.995	103.167	20.157	4.318	0.496
1300.000	737.542	80.006	19.995	103.168	20.152	4.672	0.516
1302.000	738.535	80.005	19.996	103.169	20.156	4.411	0.513
1304.000	739.576	80.006	19.995	103.166	20.154	4.518	0.507
1306.000	740.523	80.006	19.993	103.166	20.148	4.924	0.505
1308.000	741.557	80.007	19.995	103.161	20.155	4.434	0.528
1310.000	742.552	80.008	19.996	103.159	20.149	4.879	0.494
1312.000	743.565	80.006	19.994	103.173	20.153	4.627	0.523