File: 01_Data/FDNY_LDF/MCC/FDNY_LDF_MCC_30K_min_211208_R3.txt
Sample ID:	C:\MCC\MCC Cal\Test\FDNY_LDF_MCC_30K_min_211208_R3.txt
Sample Weight (mg):	4.62
Heating Rate (C/s):	0.5
Combustor Temp (C):	900
N2 Flow Rate (cc/min):	80
O2 Flow Rate (cc/min):	20
Calibration File:	C:\MCC\MCC Cal\Coeff1 JN10440_30_210304.txt.txt
T Correction Coefficients:	0	1.024463	0
Time Shift (s):	14
*
Time (s)	Temperature (C)	N2 flow rate (cc/min)	O2 flow rate (cc/min)	Flow Rate (cc/min)	Oxygen (%)	HRR (W/g)	Heating rate (C/s)
0.000	109.452	80.012	19.995	103.084	20.054	-0.044	-0.013
2.000	109.423	80.011	19.995	103.083	20.053	-0.002	-0.014
4.000	109.455	80.011	19.994	103.088	20.051	0.135	0.008
6.000	109.462	80.010	19.994	103.084	20.054	-0.021	-0.009
8.000	109.394	80.010	19.995	103.081	20.055	-0.117	-0.026
10.001	109.485	80.009	19.995	103.090	20.057	-0.260	0.001
12.000	109.427	80.007	19.996	103.089	20.052	0.073	0.011
14.000	109.452	80.008	19.996	103.097	20.053	-0.017	0.031
16.000	109.462	80.008	19.994	103.110	20.055	-0.096	0.013
18.000	109.469	80.007	19.995	103.127	20.051	0.158	0.013
20.000	109.491	80.009	19.996	103.154	20.043	0.685	0.043
22.000	109.565	80.008	19.995	103.194	20.043	0.702	0.020
24.000	109.694	80.007	19.996	103.210	20.037	1.108	0.062
26.000	109.780	80.008	19.996	103.229	20.034	1.309	0.056
28.000	109.942	80.009	19.998	103.246	20.028	1.771	0.129
30.000	110.091	80.009	19.996	103.250	20.026	1.923	0.080
32.000	110.313	80.008	19.996	103.257	20.022	2.180	0.081
34.001	110.532	80.008	19.995	103.250	20.024	2.035	0.148
36.001	110.806	80.008	19.994	103.256	20.023	2.132	0.116
38.000	111.095	80.007	19.994	103.272	20.022	2.164	0.164
40.000	111.375	80.007	19.994	103.288	20.021	2.224	0.134
42.000	111.703	80.007	19.994	103.298	20.019	2.401	0.168
44.000	112.070	80.008	19.994	103.310	20.017	2.540	0.155
46.000	112.489	80.008	19.994	103.320	20.013	2.788	0.198
48.000	112.912	80.008	19.994	103.323	20.010	3.023	0.196
50.000	113.363	80.007	19.994	103.313	20.012	2.875	0.197
52.001	113.879	80.008	19.994	103.315	20.015	2.675	0.281
54.001	114.388	80.010	19.995	103.318	20.011	2.966	0.270
56.000	114.886	80.009	19.994	103.314	20.013	2.777	0.241
58.000	115.421	80.010	19.994	103.308	20.011	2.925	0.260
60.001	115.980	80.010	19.995	103.320	20.012	2.881	0.279
62.001	116.545	80.010	19.994	103.326	20.009	3.118	0.295
64.000	117.123	80.009	19.994	103.324	20.010	2.983	0.298
66.000	117.767	80.009	19.994	103.324	20.008	3.184	0.311
68.001	118.383	80.010	19.995	103.326	20.012	2.907	0.289
70.000	119.026	80.009	19.995	103.325	20.011	2.952	0.299
72.000	119.684	80.011	19.995	103.328	20.009	3.064	0.328
74.000	120.351	80.011	19.994	103.334	20.014	2.723	0.337
76.001	121.049	80.010	19.994	103.327	20.010	2.985	0.351
78.000	121.798	80.010	19.993	103.349	20.013	2.804	0.375
80.000	122.478	80.010	19.993	103.342	20.012	2.857	0.343
82.000	123.244	80.012	19.993	103.326	20.008	3.126	0.361
84.000	124.035	80.011	19.994	103.327	20.006	3.309	0.410
86.001	124.821	80.010	19.993	103.329	20.006	3.305	0.392
88.000	125.588	80.010	19.993	103.333	20.007	3.255	0.391
90.000	126.397	80.009	19.994	103.342	20.008	3.161	0.410
92.000	127.207	80.008	19.994	103.352	20.004	3.459	0.416
94.001	128.004	80.008	19.995	103.349	20.005	3.342	0.427
96.000	128.835	80.006	19.995	103.351	20.004	3.423	0.396
98.000	129.644	80.008	19.993	103.345	20.004	3.437	0.407
100.000	130.484	80.008	19.994	103.344	20.006	3.323	0.438
102.000	131.331	80.009	19.994	103.337	20.006	3.267	0.405
104.000	132.200	80.007	19.994	103.343	20.007	3.230	0.427
106.000	133.117	80.008	19.994	103.341	20.006	3.328	0.456
108.000	133.997	80.007	19.995	103.363	20.009	3.105	0.488
110.000	134.873	80.007	19.994	103.353	20.011	2.962	0.460
112.000	135.816	80.008	19.994	103.353	20.008	3.149	0.478
114.000	136.760	80.007	19.995	103.345	20.009	3.052	0.447
116.000	137.655	80.007	19.994	103.346	20.009	3.095	0.476
118.000	138.584	80.008	19.995	103.348	20.010	3.035	0.478
120.001	139.510	80.006	19.996	103.338	20.008	3.137	0.456
122.000	140.490	80.007	19.996	103.340	20.007	3.220	0.482
124.001	141.426	80.007	19.995	103.343	20.006	3.282	0.470
126.000	142.358	80.007	19.995	103.328	20.005	3.389	0.469
128.000	143.340	80.006	19.995	103.325	20.010	3.018	0.474
130.000	144.296	80.006	19.995	103.327	20.004	3.453	0.468
132.000	145.254	80.007	19.996	103.330	20.007	3.258	0.497
134.000	146.253	80.008	19.994	103.340	20.006	3.264	0.475
136.000	147.222	80.008	19.994	103.326	20.008	3.164	0.486
138.000	148.167	80.009	19.994	103.329	20.007	3.193	0.473
140.000	149.159	80.009	19.994	103.333	20.007	3.202	0.475
142.000	150.183	80.010	19.994	103.336	20.008	3.174	0.485
144.000	151.162	80.009	19.994	103.324	20.007	3.229	0.462
146.000	152.130	80.009	19.993	103.323	20.005	3.360	0.485
148.000	153.182	80.008	19.993	103.326	20.007	3.226	0.518
150.000	154.147	80.008	19.994	103.326	20.005	3.339	0.488
152.000	155.112	80.008	19.994	103.327	20.009	3.085	0.474
154.000	156.117	80.008	19.994	103.323	20.007	3.251	0.462
156.000	157.141	80.009	19.993	103.328	20.005	3.393	0.485
158.000	158.137	80.008	19.993	103.324	20.012	2.906	0.512
160.000	159.155	80.010	19.993	103.326	20.007	3.216	0.513
162.000	160.161	80.010	19.993	103.323	20.005	3.329	0.515
164.001	161.177	80.010	19.995	103.321	20.008	3.123	0.520
166.000	162.177	80.010	19.994	103.323	20.006	3.292	0.492
168.000	163.189	80.010	19.992	103.322	20.007	3.210	0.514
170.000	164.180	80.009	19.993	103.325	20.007	3.244	0.481
172.000	165.226	80.008	19.993	103.312	20.007	3.254	0.503
174.000	166.246	80.007	19.993	103.323	20.004	3.435	0.507
176.001	167.243	80.007	19.994	103.312	20.003	3.483	0.506
178.000	168.235	80.007	19.994	103.310	20.004	3.460	0.484
180.000	169.201	80.007	19.994	103.316	20.003	3.481	0.471
182.000	170.257	80.006	19.994	103.296	20.005	3.335	0.504
184.000	171.240	80.008	19.994	103.304	20.003	3.488	0.496
186.000	172.256	80.009	19.994	103.310	20.005	3.367	0.488
188.000	173.261	80.008	19.995	103.299	20.005	3.350	0.510
190.001	174.269	80.007	19.994	103.305	20.006	3.277	0.496
192.000	175.222	80.007	19.996	103.305	20.005	3.352	0.502
194.000	176.222	80.008	19.994	103.310	20.003	3.527	0.484
196.000	177.255	80.008	19.995	103.288	20.004	3.444	0.520
198.000	178.260	80.008	19.995	103.293	20.001	3.641	0.494
200.000	179.293	80.008	19.995	103.289	19.998	3.843	0.520
202.000	180.252	80.007	19.994	103.292	19.997	3.929	0.530
204.000	181.294	80.008	19.995	103.289	20.001	3.629	0.531
206.000	182.270	80.009	19.994	103.290	19.999	3.752	0.481
208.000	183.281	80.007	19.995	103.292	20.003	3.511	0.537
210.000	184.242	80.007	19.994	103.305	20.002	3.555	0.489
212.001	185.249	80.007	19.995	103.285	20.000	3.698	0.504
214.000	186.269	80.007	19.995	103.281	20.002	3.580	0.503
216.000	187.253	80.006	19.995	103.287	20.001	3.669	0.495
218.000	188.293	80.006	19.994	103.287	19.998	3.852	0.537
220.000	189.246	80.008	19.995	103.287	20.003	3.504	0.493
222.000	190.264	80.010	19.995	103.288	20.001	3.652	0.492
224.000	191.281	80.009	19.994	103.287	19.999	3.808	0.512
226.000	192.256	80.008	19.993	103.284	19.999	3.815	0.486
228.000	193.245	80.010	19.994	103.285	19.999	3.783	0.508
230.000	194.231	80.008	19.994	103.286	19.997	3.888	0.515
232.000	195.257	80.008	19.993	103.288	20.002	3.552	0.500
234.000	196.238	80.008	19.994	103.288	19.999	3.792	0.505
236.001	197.222	80.008	19.994	103.289	20.002	3.604	0.507
238.000	198.234	80.008	19.994	103.288	20.002	3.569	0.472
240.000	199.188	80.008	19.994	103.280	20.004	3.411	0.474
242.000	200.225	80.008	19.994	103.285	20.000	3.734	0.460
244.000	201.209	80.010	19.994	103.289	20.001	3.663	0.485
246.000	202.219	80.009	19.995	103.286	19.999	3.786	0.541
248.000	203.179	80.011	19.993	103.287	20.000	3.700	0.477
250.001	204.195	80.009	19.993	103.274	19.998	3.823	0.517
252.000	205.168	80.010	19.994	103.278	20.000	3.715	0.475
254.000	206.140	80.010	19.995	103.284	19.998	3.865	0.476
256.000	207.143	80.010	19.994	103.277	19.996	3.956	0.515
258.000	208.125	80.008	19.994	103.278	19.995	4.025	0.480
260.000	209.131	80.008	19.994	103.281	19.995	4.059	0.482
262.000	210.130	80.008	19.994	103.271	19.994	4.154	0.474
264.000	211.098	80.008	19.995	103.275	19.995	4.071	0.486
266.000	212.130	80.009	19.994	103.287	19.994	4.123	0.498
268.000	213.061	80.007	19.995	103.278	19.996	3.971	0.474
270.000	214.037	80.006	19.993	103.262	19.993	4.192	0.454
272.000	215.050	80.008	19.994	103.271	19.994	4.098	0.504
274.000	216.033	80.007	19.995	103.283	19.993	4.219	0.484
276.000	217.021	80.007	19.995	103.271	19.993	4.216	0.500
278.000	217.994	80.008	19.994	103.278	19.991	4.354	0.470
280.000	219.041	80.008	19.995	103.269	19.991	4.371	0.496
282.000	220.064	80.007	19.994	103.275	19.986	4.687	0.503
284.000	221.021	80.006	19.995	103.273	19.992	4.265	0.485
286.000	221.994	80.007	19.995	103.280	19.991	4.350	0.477
288.001	223.009	80.008	19.995	103.280	19.987	4.601	0.509
290.000	223.976	80.007	19.995	103.279	19.987	4.629	0.506
292.000	224.961	80.007	19.994	103.270	19.988	4.514	0.503
294.000	225.949	80.008	19.995	103.278	19.983	4.924	0.483
296.000	226.921	80.006	19.995	103.270	19.983	4.899	0.477
298.000	227.972	80.008	19.995	103.280	19.980	5.080	0.533
300.000	228.978	80.007	19.995	103.282	19.977	5.290	0.534
302.000	229.948	80.007	19.994	103.287	19.979	5.161	0.490
304.001	230.956	80.007	19.993	103.284	19.982	4.951	0.512
306.000	231.984	80.007	19.996	103.281	19.979	5.157	0.477
308.000	232.977	80.007	19.995	103.272	19.975	5.440	0.510
310.000	233.978	80.008	19.996	103.285	19.973	5.620	0.511
312.000	234.908	80.008	19.995	103.285	19.969	5.881	0.450
314.000	235.940	80.008	19.996	103.285	19.970	5.804	0.508
316.000	236.966	80.009	19.995	103.276	19.969	5.841	0.530
318.000	237.948	80.008	19.995	103.280	19.968	5.975	0.504
320.000	238.960	80.008	19.995	103.272	19.966	6.056	0.514
322.000	239.895	80.009	19.995	103.279	19.962	6.331	0.482
324.000	240.928	80.010	19.995	103.284	19.960	6.520	0.492
326.000	241.902	80.009	19.994	103.276	19.957	6.702	0.520
328.000	242.896	80.009	19.994	103.268	19.958	6.670	0.494
330.000	243.917	80.011	19.996	103.277	19.958	6.629	0.464
332.000	244.918	80.010	19.995	103.277	19.953	6.992	0.476
334.000	245.977	80.009	19.995	103.280	19.951	7.124	0.512
336.000	246.905	80.009	19.994	103.271	19.951	7.148	0.462
338.000	247.925	80.010	19.994	103.267	19.948	7.356	0.508
340.001	248.948	80.007	19.995	103.281	19.945	7.557	0.537
342.000	249.986	80.007	19.994	103.283	19.940	7.868	0.519
344.000	251.020	80.009	19.995	103.280	19.939	7.947	0.521
346.000	252.022	80.008	19.995	103.282	19.934	8.303	0.471
348.001	253.030	80.007	19.994	103.287	19.932	8.451	0.506
350.000	254.042	80.008	19.994	103.287	19.931	8.518	0.480
352.000	255.068	80.007	19.996	103.286	19.925	8.915	0.494
354.000	256.070	80.007	19.994	103.289	19.921	9.198	0.498
356.000	257.014	80.008	19.994	103.289	19.920	9.269	0.505
358.000	258.037	80.009	19.994	103.289	19.912	9.847	0.508
360.000	259.080	80.006	19.994	103.286	19.910	10.003	0.520
362.000	260.082	80.008	19.993	103.289	19.905	10.371	0.478
364.000	261.058	80.008	19.993	103.286	19.901	10.610	0.509
366.000	262.002	80.008	19.994	103.288	19.898	10.850	0.500
368.000	263.031	80.007	19.994	103.291	19.892	11.262	0.517
370.000	264.031	80.007	19.994	103.292	19.890	11.388	0.526
372.000	264.977	80.006	19.993	103.295	19.892	11.252	0.481
374.000	266.003	80.007	19.995	103.298	19.888	11.534	0.497
376.001	267.020	80.006	19.995	103.295	19.883	11.866	0.511
378.000	267.994	80.006	19.995	103.300	19.877	12.276	0.491
380.000	269.003	80.007	19.996	103.307	19.874	12.529	0.527
382.000	270.007	80.008	19.995	103.302	19.869	12.847	0.513
384.000	271.044	80.009	19.995	103.310	19.864	13.214	0.504
386.000	272.086	80.010	19.993	103.311	19.857	13.684	0.536
388.000	273.113	80.010	19.995	103.299	19.849	14.232	0.515
390.001	274.052	80.010	19.994	103.306	19.848	14.316	0.483
392.000	275.048	80.009	19.994	103.312	19.838	15.011	0.472
394.001	276.058	80.009	19.994	103.311	19.832	15.465	0.485
396.000	277.042	80.010	19.995	103.313	19.831	15.508	0.478
398.000	278.050	80.007	19.994	103.313	19.822	16.153	0.503
400.000	279.054	80.009	19.995	103.315	19.820	16.299	0.514
402.000	280.013	80.006	19.995	103.320	19.811	16.918	0.479
404.000	281.005	80.007	19.996	103.323	19.807	17.192	0.475
406.000	281.969	80.007	19.995	103.325	19.803	17.477	0.467
408.000	283.000	80.008	19.996	103.325	19.792	18.206	0.518
410.000	284.021	80.009	19.996	103.323	19.788	18.526	0.522
412.000	284.997	80.009	19.994	103.326	19.780	19.061	0.482
414.000	285.958	80.011	19.994	103.331	19.775	19.445	0.477
416.000	286.981	80.010	19.995	103.335	19.771	19.707	0.487
418.000	288.027	80.008	19.994	103.332	19.760	20.431	0.483
420.000	288.984	80.010	19.994	103.338	19.753	20.945	0.495
422.001	289.983	80.007	19.994	103.348	19.749	21.235	0.495
424.000	290.975	80.008	19.995	103.354	19.738	22.010	0.491
426.000	292.011	80.008	19.994	103.352	19.733	22.342	0.512
428.000	292.963	80.007	19.994	103.364	19.728	22.728	0.468
430.000	294.008	80.009	19.994	103.358	19.716	23.535	0.525
432.000	295.014	80.007	19.995	103.365	19.711	23.869	0.492
434.000	295.986	80.006	19.994	103.363	19.707	24.175	0.495
436.000	297.052	80.007	19.995	103.369	19.695	24.995	0.533
438.000	298.026	80.008	19.993	103.372	19.691	25.270	0.504
440.000	299.028	80.006	19.994	103.373	19.677	26.248	0.487
442.000	300.040	80.008	19.994	103.373	19.669	26.844	0.485
444.000	301.074	80.009	19.994	103.382	19.663	27.240	0.515
446.000	302.068	80.008	19.994	103.377	19.651	28.063	0.514
448.000	303.082	80.009	19.995	103.377	19.642	28.704	0.508
450.000	304.104	80.009	19.995	103.370	19.637	29.045	0.507
452.000	305.087	80.008	19.996	103.391	19.625	29.895	0.504
454.000	306.103	80.007	19.994	103.398	19.616	30.542	0.470
456.000	307.090	80.009	19.994	103.398	19.607	31.186	0.513
458.000	308.136	80.008	19.994	103.402	19.596	31.926	0.492
460.000	309.102	80.007	19.994	103.404	19.580	33.065	0.470
462.000	310.107	80.008	19.995	103.399	19.572	33.624	0.514
464.000	311.163	80.009	19.995	103.404	19.565	34.097	0.510
466.000	312.193	80.008	19.993	103.404	19.552	35.012	0.534
468.000	313.212	80.007	19.995	103.404	19.538	36.006	0.507
470.001	314.233	80.008	19.996	103.404	19.532	36.415	0.535
472.000	315.228	80.008	19.996	103.403	19.516	37.543	0.496
474.000	316.258	80.010	19.994	103.407	19.509	38.041	0.504
476.000	317.194	80.008	19.995	103.422	19.501	38.554	0.458
478.000	318.247	80.008	19.994	103.418	19.487	39.555	0.520
480.000	319.216	80.008	19.994	103.414	19.478	40.161	0.496
482.000	320.204	80.007	19.994	103.422	19.476	40.344	0.464
484.000	321.206	80.008	19.994	103.422	19.463	41.222	0.523
486.000	322.262	80.008	19.993	103.435	19.452	41.977	0.522
488.001	323.243	80.009	19.994	103.441	19.445	42.453	0.508
490.000	324.259	80.009	19.995	103.439	19.443	42.617	0.528
492.000	325.235	80.009	19.995	103.444	19.424	43.962	0.448
494.000	326.259	80.009	19.994	103.442	19.419	44.294	0.504
496.000	327.243	80.009	19.995	103.439	19.411	44.834	0.520
498.000	328.248	80.009	19.994	103.443	19.407	45.144	0.491
500.000	329.276	80.009	19.995	103.444	19.400	45.637	0.504
502.000	330.246	80.009	19.996	103.441	19.395	45.978	0.465
504.000	331.240	80.007	19.996	103.443	19.390	46.310	0.478
506.000	332.258	80.008	19.995	103.435	19.387	46.540	0.518
508.000	333.340	80.008	19.995	103.439	19.387	46.515	0.546
510.000	334.368	80.007	19.994	103.443	19.381	46.928	0.522
512.000	335.276	80.008	19.993	103.442	19.369	47.798	0.520
514.000	336.299	80.008	19.994	103.442	19.369	47.792	0.495
516.000	337.359	80.007	19.994	103.442	19.366	47.993	0.514
518.000	338.360	80.008	19.995	103.444	19.360	48.403	0.525
520.000	339.316	80.009	19.994	103.444	19.358	48.571	0.471
522.000	340.374	80.009	19.994	103.443	19.345	49.439	0.500
524.000	341.413	80.010	19.994	103.446	19.346	49.415	0.544
526.000	342.424	80.009	19.993	103.444	19.337	50.089	0.486
528.000	343.401	80.008	19.994	103.452	19.332	50.379	0.495
530.000	344.427	80.009	19.994	103.446	19.324	50.919	0.514
532.000	345.450	80.009	19.995	103.461	19.320	51.257	0.511
534.000	346.484	80.008	19.994	103.410	19.309	52.019	0.494
536.000	347.519	80.007	19.993	103.498	19.302	52.496	0.516
538.000	348.535	80.009	19.995	103.471	19.294	53.061	0.533
540.000	349.551	80.007	19.994	103.464	19.282	53.887	0.511
542.000	350.572	80.009	19.993	103.466	19.273	54.552	0.518
544.000	351.568	80.007	19.994	103.471	19.263	55.256	0.513
546.000	352.625	80.009	19.994	103.482	19.255	55.782	0.544
548.000	353.618	80.008	19.994	103.486	19.242	56.723	0.504
550.000	354.665	80.009	19.993	103.486	19.229	57.586	0.515
552.000	355.707	80.009	19.993	103.489	19.214	58.658	0.472
554.000	356.670	80.009	19.994	103.492	19.203	59.450	0.504
556.000	357.708	80.008	19.992	103.492	19.190	60.355	0.506
558.000	358.719	80.009	19.994	103.505	19.179	61.086	0.500
560.000	359.756	80.009	19.994	103.509	19.161	62.361	0.520
562.000	360.783	80.009	19.995	103.520	19.154	62.897	0.511
564.000	361.766	80.006	19.994	103.523	19.136	64.104	0.536
566.000	362.798	80.008	19.994	103.525	19.127	64.784	0.519
568.000	363.807	80.009	19.995	103.525	19.113	65.705	0.540
570.000	364.827	80.008	19.995	103.525	19.096	66.885	0.503
572.000	365.824	80.010	19.995	103.525	19.091	67.260	0.473
574.000	366.843	80.010	19.995	103.522	19.082	67.860	0.482
576.000	367.859	80.011	19.994	103.521	19.079	68.070	0.534
578.000	368.900	80.010	19.994	103.519	19.069	68.790	0.507
580.000	369.906	80.011	19.994	103.519	19.067	68.892	0.502
582.001	370.934	80.009	19.995	103.516	19.067	68.916	0.533
584.000	371.913	80.008	19.994	103.508	19.065	69.047	0.544
586.000	372.982	80.008	19.995	103.499	19.070	68.676	0.550
588.000	374.032	80.006	19.994	103.491	19.078	68.096	0.525
590.000	375.078	80.008	19.995	103.481	19.083	67.755	0.494
592.000	376.075	80.007	19.996	103.476	19.106	66.160	0.517
594.000	377.119	80.007	19.995	103.448	19.113	65.621	0.528
596.000	378.153	80.009	19.996	103.444	19.133	64.230	0.497
598.000	379.120	80.007	19.996	103.438	19.170	61.662	0.526
600.000	380.217	80.008	19.995	103.430	19.189	60.337	0.517
602.000	381.196	80.007	19.995	103.412	19.224	57.868	0.521
604.000	382.274	80.006	19.993	103.400	19.259	55.389	0.488
606.000	383.363	80.007	19.994	103.388	19.297	52.738	0.471
608.000	383.947	80.007	19.994	103.367	19.333	50.225	0.205
610.000	384.933	80.007	19.993	103.364	19.377	47.188	0.237
612.000	386.437	80.009	19.996	103.349	19.414	44.560	0.790
614.000	387.285	80.007	19.995	103.331	19.458	41.495	0.596
616.000	388.321	80.006	19.994	103.326	19.501	38.492	0.519
618.000	389.402	80.008	19.995	103.311	19.545	35.443	0.585
620.000	390.455	80.005	19.994	103.296	19.592	32.170	0.554
622.000	391.452	80.006	19.995	103.283	19.633	29.294	0.443
624.000	392.517	80.007	19.993	103.282	19.673	26.484	0.532
626.000	393.540	80.007	19.993	103.263	19.708	24.037	0.506
628.000	394.639	80.008	19.994	103.254	19.745	21.451	0.545
630.000	395.676	80.007	19.993	103.247	19.776	19.311	0.508
632.000	396.776	80.009	19.993	103.241	19.804	17.364	0.560
634.000	397.819	80.009	19.994	103.230	19.830	15.558	0.548
636.000	398.837	80.009	19.995	103.228	19.855	13.798	0.512
638.000	399.980	80.008	19.992	103.218	19.874	12.512	0.518
640.000	400.960	80.009	19.994	103.212	19.895	11.027	0.520
642.000	402.044	80.009	19.995	103.210	19.908	10.097	0.557
644.000	403.072	80.009	19.994	103.210	19.920	9.258	0.520
646.000	404.083	80.007	19.994	103.210	19.934	8.300	0.513
648.000	405.185	80.008	19.994	103.213	19.942	7.779	0.505
650.000	406.226	80.009	19.994	103.205	19.950	7.215	0.504
652.000	407.274	80.010	19.995	103.209	19.951	7.136	0.515
654.000	408.331	80.009	19.994	103.210	19.958	6.659	0.520
656.001	409.402	80.010	19.995	103.208	19.960	6.509	0.531
658.000	410.406	80.010	19.994	103.207	19.962	6.363	0.501
660.000	411.451	80.011	19.996	103.205	19.967	6.040	0.491
662.000	412.472	80.011	19.995	103.206	19.964	6.242	0.513
664.000	413.504	80.008	19.995	103.207	19.972	5.680	0.507
666.000	414.478	80.007	19.995	103.207	19.971	5.748	0.511
668.000	415.529	80.006	19.995	103.202	19.973	5.563	0.519
670.000	416.540	80.007	19.994	103.207	19.973	5.597	0.500
672.000	417.569	80.007	19.995	103.208	19.979	5.172	0.532
674.000	418.576	80.008	19.995	103.206	19.984	4.851	0.529
676.000	419.605	80.007	19.996	103.208	19.981	5.059	0.524
678.000	420.607	80.008	19.995	103.211	19.986	4.711	0.524
680.000	421.639	80.007	19.996	103.210	19.985	4.749	0.491
682.000	422.666	80.007	19.995	103.206	19.983	4.874	0.516
684.000	423.664	80.007	19.995	103.205	19.987	4.627	0.527
686.000	424.660	80.007	19.995	103.205	19.992	4.276	0.518
688.000	425.700	80.006	19.995	103.207	19.991	4.343	0.523
690.000	426.673	80.008	19.995	103.204	19.991	4.330	0.498
692.000	427.719	80.006	19.995	103.203	19.992	4.274	0.523
694.000	428.735	80.007	19.995	103.195	19.993	4.204	0.510
696.000	429.702	80.006	19.994	103.196	19.997	3.933	0.471
698.000	430.677	80.010	19.995	103.193	19.994	4.147	0.468
700.000	431.746	80.008	19.994	103.204	19.997	3.945	0.537
702.000	432.732	80.009	19.994	103.202	20.001	3.652	0.526
704.000	433.740	80.007	19.994	103.192	20.001	3.612	0.544
706.000	434.744	80.008	19.996	103.191	20.004	3.398	0.519
708.000	435.744	80.009	19.994	103.205	20.002	3.560	0.519
710.000	436.781	80.009	19.994	103.190	20.001	3.635	0.507
712.000	437.704	80.010	19.994	103.198	20.009	3.071	0.484
714.001	438.720	80.010	19.995	103.201	20.010	3.004	0.474
716.000	439.776	80.008	19.994	103.198	20.012	2.902	0.538
718.000	440.755	80.010	19.995	103.189	20.012	2.887	0.474
720.000	441.752	80.010	19.994	103.186	20.019	2.410	0.496
722.000	442.703	80.009	19.994	103.183	20.016	2.608	0.463
724.000	443.673	80.008	19.994	103.179	20.018	2.486	0.474
726.000	444.722	80.010	19.995	103.186	20.020	2.318	0.494
728.000	445.707	80.009	19.994	103.186	20.023	2.091	0.499
730.000	446.701	80.009	19.994	103.182	20.023	2.073	0.495
732.000	447.697	80.010	19.995	103.187	20.023	2.121	0.501
734.000	448.714	80.009	19.995	103.180	20.026	1.929	0.489
736.000	449.721	80.010	19.994	103.150	20.023	2.071	0.529
738.000	450.665	80.010	19.995	103.226	20.027	1.839	0.487
740.000	451.667	80.010	19.995	103.196	20.033	1.389	0.489
742.000	452.723	80.009	19.993	103.189	20.037	1.142	0.523
744.000	453.680	80.010	19.994	103.176	20.039	0.989	0.474
746.000	454.754	80.008	19.995	103.195	20.041	0.883	0.490
748.000	455.751	80.008	19.994	103.186	20.041	0.881	0.508
750.001	456.727	80.007	19.994	103.189	20.041	0.833	0.475
752.000	457.765	80.007	19.995	103.188	20.042	0.785	0.513
754.000	458.825	80.007	19.994	103.189	20.036	1.175	0.551
756.000	459.827	80.006	19.995	103.194	20.043	0.683	0.534
758.000	460.839	80.007	19.995	103.191	20.047	0.440	0.500
760.000	461.895	80.005	19.994	103.194	20.044	0.625	0.508
762.000	462.958	80.007	19.995	103.179	20.042	0.758	0.529
764.000	463.924	80.009	19.994	103.180	20.046	0.473	0.498
766.000	464.918	80.008	19.994	103.182	20.049	0.300	0.513
768.000	465.905	80.009	19.995	103.185	20.048	0.331	0.494
770.000	466.930	80.007	19.996	103.191	20.050	0.204	0.490
772.000	468.033	80.007	19.995	103.191	20.057	-0.275	0.540
774.000	469.005	80.007	19.995	103.192	20.056	-0.188	0.502
776.000	470.033	80.008	19.995	103.176	20.054	-0.029	0.494
778.000	471.100	80.006	19.995	103.175	20.055	-0.148	0.503
780.000	472.087	80.008	19.996	103.173	20.059	-0.383	0.468
782.001	473.152	80.006	19.996	103.172	20.060	-0.460	0.528
784.000	474.215	80.007	19.995	103.172	20.066	-0.860	0.532
786.000	475.222	80.008	19.996	103.177	20.060	-0.448	0.516
788.000	476.274	80.007	19.995	103.173	20.065	-0.802	0.502
790.000	477.265	80.009	19.993	103.173	20.062	-0.606	0.497
792.000	478.298	80.009	19.995	103.173	20.064	-0.765	0.525
794.000	479.303	80.007	19.994	103.187	20.067	-0.954	0.483
796.000	480.379	80.009	19.994	103.174	20.072	-1.306	0.510
798.001	481.398	80.008	19.994	103.181	20.069	-1.110	0.500
800.000	482.392	80.009	19.994	103.190	20.070	-1.163	0.462
802.000	483.457	80.008	19.996	103.185	20.069	-1.111	0.513
804.000	484.460	80.008	19.994	103.176	20.071	-1.267	0.505
806.000	485.587	80.007	19.994	103.186	20.079	-1.819	0.571
808.000	486.518	80.008	19.994	103.186	20.074	-1.463	0.492
810.000	487.550	80.008	19.995	103.186	20.079	-1.808	0.486
812.000	488.560	80.008	19.994	103.175	20.078	-1.723	0.494
814.000	489.589	80.009	19.994	103.174	20.080	-1.838	0.496
816.000	490.663	80.010	19.993	103.174	20.077	-1.631	0.501
818.000	491.669	80.009	19.993	103.175	20.081	-1.923	0.513
820.000	492.709	80.011	19.995	103.175	20.083	-2.085	0.515
822.000	493.744	80.011	19.995	103.179	20.083	-2.096	0.545
824.000	494.811	80.010	19.993	103.178	20.077	-1.692	0.537
826.000	495.814	80.009	19.993	103.176	20.074	-1.473	0.493
828.000	496.834	80.008	19.995	103.171	20.077	-1.663	0.487
830.000	497.893	80.008	19.994	103.176	20.079	-1.765	0.524
832.001	498.910	80.007	19.993	103.186	20.083	-2.065	0.489
834.000	499.896	80.008	19.993	103.184	20.085	-2.188	0.496
836.000	500.946	80.009	19.994	103.176	20.087	-2.333	0.530
838.000	501.941	80.008	19.994	103.182	20.083	-2.107	0.504
840.000	502.962	80.007	19.995	103.180	20.089	-2.482	0.521
842.000	503.936	80.006	19.994	103.179	20.084	-2.167	0.487
844.000	504.982	80.007	19.994	103.183	20.085	-2.225	0.514
846.000	506.044	80.008	19.994	103.177	20.088	-2.436	0.530
848.000	507.082	80.008	19.994	103.174	20.085	-2.202	0.523
850.000	508.082	80.008	19.995	103.172	20.087	-2.352	0.515
852.000	509.120	80.008	19.995	103.170	20.088	-2.408	0.499
854.000	510.133	80.008	19.994	103.173	20.082	-2.000	0.517
856.001	511.142	80.008	19.995	103.177	20.083	-2.109	0.485
858.000	512.158	80.008	19.996	103.174	20.089	-2.486	0.529
860.000	513.175	80.007	19.995	103.177	20.087	-2.340	0.519
862.000	514.206	80.006	19.995	103.178	20.085	-2.227	0.505
864.000	515.246	80.007	19.995	103.176	20.089	-2.484	0.528
866.000	516.269	80.007	19.995	103.175	20.082	-1.973	0.507
868.000	517.298	80.008	19.995	103.176	20.085	-2.229	0.525
870.000	518.342	80.009	19.996	103.178	20.088	-2.425	0.515
872.000	519.350	80.008	19.995	103.176	20.086	-2.315	0.495
874.000	520.398	80.009	19.996	103.174	20.090	-2.554	0.507
876.000	521.432	80.010	19.996	103.175	20.092	-2.715	0.516
878.000	522.459	80.010	19.995	103.174	20.091	-2.609	0.534
880.000	523.470	80.008	19.994	103.174	20.089	-2.519	0.490
882.000	524.531	80.009	19.994	103.176	20.090	-2.571	0.518
884.000	525.577	80.008	19.994	103.174	20.092	-2.729	0.530
886.000	526.612	80.008	19.993	103.174	20.089	-2.519	0.515
888.000	527.655	80.010	19.995	103.173	20.096	-3.004	0.516
890.000	528.689	80.009	19.994	103.176	20.088	-2.423	0.506
892.000	529.739	80.007	19.993	103.179	20.091	-2.636	0.502
894.001	530.799	80.009	19.993	103.174	20.091	-2.611	0.543
896.000	531.795	80.011	19.995	103.176	20.092	-2.694	0.549
898.000	532.861	80.010	19.996	103.173	20.087	-2.377	0.522
900.000	533.908	80.012	19.994	103.173	20.091	-2.646	0.523
902.000	534.964	80.012	19.994	103.174	20.088	-2.421	0.539
904.000	535.995	80.011	19.995	103.172	20.092	-2.717	0.504
906.000	536.951	80.010	19.994	103.171	20.096	-3.011	0.512
908.000	538.048	80.009	19.994	103.171	20.097	-3.030	0.516
910.000	539.043	80.007	19.994	103.171	20.096	-2.975	0.536
912.000	540.057	80.009	19.995	103.172	20.093	-2.802	0.539
914.000	541.123	80.009	19.996	103.175	20.097	-3.079	0.533
916.000	542.137	80.007	19.994	103.171	20.101	-3.342	0.520
918.000	543.184	80.007	19.994	103.173	20.098	-3.117	0.535
920.000	544.226	80.008	19.994	103.172	20.097	-3.029	0.550
922.000	545.243	80.007	19.994	103.172	20.098	-3.092	0.507
924.000	546.259	80.009	19.994	103.174	20.101	-3.365	0.494
926.000	547.301	80.009	19.993	103.173	20.097	-3.019	0.501
928.000	548.386	80.008	19.993	103.172	20.097	-3.029	0.552
930.000	549.373	80.009	19.995	103.174	20.095	-2.900	0.505
932.000	550.387	80.010	19.994	103.173	20.102	-3.413	0.499
934.000	551.473	80.008	19.995	103.177	20.096	-2.998	0.545
936.000	552.492	80.008	19.994	103.173	20.097	-3.079	0.511
938.001	553.575	80.007	19.995	103.173	20.099	-3.192	0.551
940.001	554.591	80.007	19.994	103.175	20.093	-2.750	0.527
942.001	555.619	80.007	19.995	103.173	20.095	-2.896	0.492
944.000	556.686	80.008	19.996	103.175	20.096	-2.981	0.536
946.000	557.698	80.008	19.995	103.175	20.098	-3.150	0.514
948.000	558.762	80.008	19.995	103.175	20.095	-2.900	0.521
950.000	559.782	80.007	19.993	103.174	20.099	-3.221	0.505
952.000	560.855	80.006	19.994	103.176	20.097	-3.073	0.519
954.000	561.862	80.010	19.994	103.178	20.098	-3.130	0.508
956.000	562.929	80.010	19.993	103.175	20.101	-3.313	0.548
958.000	563.983	80.009	19.995	103.175	20.098	-3.111	0.536
960.000	564.984	80.009	19.994	103.173	20.099	-3.176	0.505
962.001	566.036	80.008	19.994	103.174	20.098	-3.155	0.525
964.000	567.108	80.007	19.994	103.172	20.099	-3.171	0.505
966.000	568.098	80.006	19.995	103.169	20.103	-3.461	0.476
968.000	569.156	80.009	19.996	103.169	20.099	-3.196	0.556
970.000	570.217	80.007	19.996	103.168	20.104	-3.559	0.541
972.000	571.201	80.010	19.998	103.169	20.101	-3.313	0.492
974.000	572.288	80.007	19.995	103.170	20.101	-3.307	0.544
976.000	573.272	80.010	19.995	103.169	20.097	-3.030	0.508
978.001	574.417	80.012	19.994	103.170	20.101	-3.313	0.579
980.000	575.434	80.009	19.993	103.170	20.099	-3.171	0.542
982.000	576.452	80.009	19.993	103.171	20.101	-3.340	0.511
984.000	577.415	80.009	19.993	103.171	20.102	-3.392	0.473
986.000	578.432	80.010	19.993	103.171	20.104	-3.569	0.496
988.000	579.468	80.009	19.995	103.169	20.106	-3.650	0.495
990.000	580.506	80.009	19.993	103.169	20.107	-3.752	0.514
992.000	581.490	80.010	19.993	103.170	20.105	-3.605	0.519
994.000	582.499	80.008	19.994	103.171	20.101	-3.365	0.485
996.000	583.530	80.007	19.993	103.173	20.103	-3.450	0.551
998.000	584.512	80.007	19.994	103.174	20.105	-3.594	0.504
1000.000	585.496	80.005	19.995	103.174	20.100	-3.284	0.447
1002.000	586.535	80.007	19.994	103.174	20.103	-3.496	0.513
1004.000	587.582	80.007	19.995	103.172	20.104	-3.536	0.517
1006.000	588.548	80.008	19.994	103.174	20.106	-3.713	0.491
1008.000	589.575	80.008	19.994	103.173	20.104	-3.555	0.498
1010.000	590.599	80.007	19.995	103.173	20.109	-3.884	0.508
1012.001	591.663	80.007	19.993	103.172	20.106	-3.654	0.547
1014.000	592.615	80.006	19.993	103.174	20.107	-3.717	0.515
1016.000	593.654	80.008	19.993	103.175	20.109	-3.922	0.487
1018.001	594.698	80.008	19.993	103.175	20.105	-3.634	0.550
1020.000	595.727	80.007	19.994	103.173	20.114	-4.251	0.526
1022.000	596.756	80.009	19.994	103.173	20.108	-3.836	0.522
1024.000	597.745	80.009	19.995	103.172	20.108	-3.807	0.534
1026.000	598.729	80.007	19.995	103.159	20.111	-4.044	0.485
1028.000	599.747	80.009	19.994	103.163	20.112	-4.086	0.472
1030.000	600.770	80.008	19.994	103.169	20.110	-3.936	0.514
1032.000	601.776	80.008	19.997	103.162	20.109	-3.911	0.470
1034.000	602.801	80.009	19.995	103.161	20.106	-3.690	0.525
1036.000	603.742	80.009	19.995	103.167	20.109	-3.863	0.474
1038.000	604.779	80.008	19.995	103.169	20.112	-4.092	0.487
1040.001	605.779	80.010	19.995	103.163	20.110	-3.943	0.502
1042.000	606.759	80.009	19.994	103.166	20.106	-3.709	0.496
1044.002	607.776	80.009	19.995	103.165	20.114	-4.224	0.480
1046.000	608.838	80.010	19.995	103.168	20.112	-4.130	0.530
1048.000	609.790	80.008	19.994	103.168	20.114	-4.218	0.502
1050.000	610.787	80.006	19.995	103.157	20.115	-4.289	0.525
1052.000	611.840	80.008	19.996	103.149	20.114	-4.243	0.517
1054.000	612.857	80.010	19.995	103.165	20.112	-4.105	0.523
1056.000	613.885	80.008	19.994	103.164	20.111	-4.035	0.518
1058.001	614.956	80.010	19.996	103.163	20.112	-4.120	0.526
1060.000	615.940	80.009	19.995	103.152	20.115	-4.326	0.509
1062.001	617.009	80.011	19.995	103.161	20.112	-4.069	0.499
1064.000	617.999	80.008	19.996	103.148	20.115	-4.336	0.499
1066.000	619.032	80.009	19.994	103.153	20.115	-4.332	0.517
1068.000	620.024	80.008	19.994	103.155	20.117	-4.430	0.473
1070.000	620.971	80.008	19.994	103.160	20.114	-4.228	0.510
1072.000	622.031	80.006	19.993	103.171	20.110	-3.940	0.492
1074.001	623.035	80.007	19.994	103.170	20.112	-4.113	0.486
1076.000	624.027	80.008	19.994	103.162	20.113	-4.157	0.509
1078.001	625.117	80.009	19.993	103.161	20.113	-4.149	0.518
1080.000	626.147	80.007	19.993	103.169	20.112	-4.115	0.505
1082.000	627.130	80.007	19.994	103.163	20.117	-4.420	0.470
1084.000	628.195	80.009	19.994	103.169	20.118	-4.538	0.502
1086.000	629.153	80.007	19.994	103.159	20.118	-4.490	0.501
1088.000	630.144	80.008	19.993	103.166	20.121	-4.724	0.480
1090.000	631.203	80.009	19.994	103.166	20.116	-4.372	0.551
1092.000	632.196	80.009	19.995	103.159	20.117	-4.438	0.491
1094.000	633.172	80.009	19.994	103.168	20.115	-4.339	0.486
1096.000	634.229	80.008	19.996	103.168	20.122	-4.768	0.513
1098.000	635.286	80.010	19.994	103.163	20.120	-4.678	0.539
1100.001	636.321	80.007	19.994	103.157	20.120	-4.622	0.507
1102.001	637.360	80.009	19.996	103.163	20.119	-4.568	0.527
1104.000	638.368	80.008	19.994	103.161	20.126	-5.051	0.491
1106.000	639.387	80.005	19.993	103.148	20.119	-4.603	0.555
1108.000	640.435	80.004	19.994	103.164	20.119	-4.602	0.536
1110.000	641.459	80.008	19.994	103.164	20.122	-4.787	0.499
1112.000	642.498	80.012	19.994	103.166	20.117	-4.464	0.529
1114.001	643.517	80.010	19.995	103.151	20.114	-4.234	0.492
1116.001	644.502	80.007	19.994	103.165	20.117	-4.457	0.480
1118.001	645.589	80.009	19.994	103.154	20.116	-4.366	0.518
1120.000	646.610	80.007	19.993	103.157	20.115	-4.301	0.516
1122.000	647.587	80.008	19.995	103.157	20.118	-4.481	0.478
1124.001	648.655	80.007	19.995	103.162	20.113	-4.166	0.489
1126.000	649.702	80.007	19.995	103.160	20.117	-4.452	0.538
1128.000	650.757	80.008	19.994	103.166	20.118	-4.506	0.556
1130.000	651.787	80.009	19.995	103.154	20.118	-4.507	0.529
1132.000	652.803	80.008	19.996	103.146	20.119	-4.570	0.528
1134.000	653.833	80.009	19.995	103.142	20.115	-4.316	0.517
1136.000	654.879	80.009	19.994	103.144	20.114	-4.239	0.511
1138.000	655.959	80.008	19.994	103.141	20.118	-4.493	0.523
1140.000	656.960	80.009	19.995	103.148	20.118	-4.493	0.487
1142.001	658.010	80.012	19.995	103.161	20.122	-4.785	0.512
1144.000	659.067	80.009	19.994	103.162	20.117	-4.422	0.521
1146.001	660.126	80.009	19.993	103.153	20.120	-4.683	0.497
1148.001	661.155	80.008	19.994	103.158	20.116	-4.353	0.541
1150.000	662.302	80.011	19.994	103.163	20.122	-4.795	0.551
1152.000	663.223	80.006	19.995	103.157	20.123	-4.869	0.547
1154.001	664.281	80.008	19.994	103.148	20.125	-4.968	0.526
1156.001	665.297	80.007	19.995	103.160	20.120	-4.675	0.491
1158.000	666.297	80.006	19.996	103.153	20.124	-4.919	0.517
1160.000	667.315	80.007	19.995	103.159	20.122	-4.796	0.488
1162.000	668.377	80.005	19.994	103.144	20.120	-4.668	0.484
1164.000	669.455	80.009	19.993	103.142	20.121	-4.694	0.552
1166.000	670.460	80.007	19.993	103.152	20.120	-4.671	0.532
1168.000	671.480	80.007	19.993	103.139	20.120	-4.629	0.491
1170.001	672.489	80.007	19.994	103.142	20.124	-4.944	0.519
1172.000	673.459	80.009	19.995	103.140	20.118	-4.537	0.500
1174.001	674.501	80.006	19.994	103.147	20.124	-4.906	0.499
1176.000	675.580	80.009	19.994	103.142	20.122	-4.806	0.534
1178.000	676.634	80.006	19.993	103.146	20.131	-5.394	0.558
1180.000	677.648	80.008	19.995	103.139	20.121	-4.709	0.512
1182.000	678.652	80.005	19.993	103.146	20.126	-5.094	0.508
1184.000	679.703	80.008	19.994	103.145	20.128	-5.238	0.555
1186.001	680.723	80.005	19.994	103.138	20.122	-4.823	0.545
1188.000	681.757	80.007	19.994	103.138	20.125	-5.004	0.513
1190.000	682.781	80.007	19.995	103.139	20.126	-5.036	0.500
1192.000	683.798	80.007	19.994	103.136	20.123	-4.829	0.511
1194.000	684.863	80.009	19.994	103.138	20.120	-4.687	0.550
1196.001	685.833	80.007	19.995	103.138	20.127	-5.135	0.508
1198.001	686.896	80.009	19.994	103.138	20.128	-5.232	0.508
1200.000	687.915	80.010	19.993	103.135	20.130	-5.365	0.533
1202.000	688.880	80.009	19.995	103.136	20.130	-5.346	0.503
1204.000	689.906	80.007	19.993	103.139	20.131	-5.398	0.514
1206.000	690.926	80.007	19.993	103.146	20.129	-5.298	0.476
1208.000	691.969	80.006	19.993	103.146	20.132	-5.484	0.523
1210.001	692.945	80.008	19.994	103.137	20.130	-5.349	0.498
1212.000	693.990	80.006	19.995	103.143	20.131	-5.429	0.514
1214.000	695.040	80.007	19.995	103.145	20.133	-5.543	0.523
1216.001	696.055	80.009	19.995	103.143	20.130	-5.359	0.512
1218.000	697.063	80.010	19.994	103.136	20.133	-5.538	0.495
1220.000	698.049	80.009	19.995	103.134	20.129	-5.247	0.483
1222.000	699.072	80.011	19.996	103.139	20.135	-5.690	0.482
1224.000	700.062	80.010	19.996	103.141	20.134	-5.613	0.489
1226.000	701.064	80.009	19.995	103.135	20.135	-5.669	0.490
1228.000	702.085	80.010	19.995	103.145	20.132	-5.515	0.487
1230.000	703.071	80.011	19.995	103.141	20.135	-5.667	0.489
1232.000	704.066	80.007	19.995	103.135	20.135	-5.701	0.516
1234.000	705.096	80.010	19.995	103.135	20.134	-5.653	0.504
1236.001	706.081	80.004	19.995	103.132	20.133	-5.530	0.488
1238.000	707.105	80.008	19.995	103.141	20.137	-5.859	0.496
1240.000	708.082	80.006	19.996	103.135	20.132	-5.522	0.494
1242.000	709.073	80.004	19.996	103.140	20.131	-5.447	0.507
1244.001	710.111	80.008	19.996	103.132	20.131	-5.422	0.524
1246.001	711.111	80.005	19.996	103.131	20.132	-5.492	0.502
1248.000	712.115	80.006	19.996	103.133	20.136	-5.792	0.476
1250.000	713.111	80.005	19.995	103.132	20.128	-5.179	0.511
1252.000	714.113	80.007	19.996	103.134	20.132	-5.504	0.483
1254.000	715.138	80.008	19.994	103.133	20.132	-5.473	0.499
1256.000	716.132	80.007	19.994	103.134	20.133	-5.571	0.508
1258.001	717.112	80.007	19.993	103.140	20.135	-5.707	0.493
1260.000	718.122	80.007	19.994	103.141	20.127	-5.146	0.524
1262.000	719.112	80.006	19.996	103.143	20.131	-5.440	0.500
1264.000	720.122	80.005	19.994	103.141	20.132	-5.469	0.499
1266.000	721.087	80.004	19.995	103.137	20.127	-5.128	0.515
1268.000	722.094	80.006	19.994	103.139	20.136	-5.742	0.501
1270.000	723.097	80.008	19.994	103.137	20.138	-5.939	0.483
1272.000	724.115	80.006	19.996	103.137	20.137	-5.811	0.508
1274.001	725.108	80.006	19.995	103.141	20.135	-5.680	0.487
1276.001	726.102	80.007	19.994	103.136	20.137	-5.830	0.526
1278.000	727.085	80.009	19.994	103.135	20.135	-5.726	0.506
1280.000	728.132	80.009	19.995	103.134	20.141	-6.103	0.484
1282.001	729.121	80.009	19.995	103.132	20.138	-5.893	0.490
1284.000	730.087	80.011	19.994	103.132	20.134	-5.659	0.472
1286.000	731.095	80.006	19.994	103.132	20.137	-5.832	0.494
1288.000	732.103	80.007	19.994	103.131	20.135	-5.674	0.492
1290.000	733.120	80.006	19.994	103.128	20.138	-5.912	0.501
1292.000	734.132	80.008	19.994	103.137	20.132	-5.461	0.478
1294.001	735.117	80.009	19.996	103.135	20.132	-5.468	0.490
1296.000	736.134	80.009	19.994	103.136	20.130	-5.370	0.508
1298.000	737.136	80.010	19.995	103.132	20.131	-5.434	0.487
1300.000	738.125	80.009	19.995	103.129	20.133	-5.568	0.495
1302.000	739.159	80.011	19.995	103.130	20.137	-5.851	0.500
1304.000	740.143	80.010	19.994	103.132	20.136	-5.759	0.493
1306.000	741.208	80.009	19.994	103.131	20.137	-5.836	0.531
1308.000	742.164	80.009	19.994	103.132	20.136	-5.746	0.484
1310.000	743.171	80.007	19.994	103.129	20.138	-5.938	0.523
1310.500	743.464	80.009	19.995	103.129	20.138	-5.932	0.519