File: 01_Data/Bean_Bag_Chair_Beads/STA/N2/10K_min/Bean_Bag_Chair_Beads_STA_N2_10KData_220518_R2.csv
##Temp./Â°C,Time/min,Mass loss(subtr.2)/mg,DSC(subtr.2)/(mW/mg),Sensit./(uV/mW)
49.738,10.01,0.00505,-0.01056838,1.07017
50.238,10.6964,0.004622248,0.01571192,1.07003
50.738,10.8735,0.004541506,0.03174178,1.06989
51.238,11.00495,0.004160626,0.04918427,1.06976
51.738,11.1145,0.003796975,0.06286159,1.06962
52.238,11.21061,0.00714827,0.07585066,1.06948
52.738,11.2978,0.004512379,0.0900807,1.06934
53.238,11.37825,0.005204108,0.09763582,1.0692
53.738,11.45479,0.00551793,0.10588,1.06906
54.238,11.52838,0.005726574,0.11487,1.06892
54.738,11.59918,0.004485386,0.11999,1.06878
55.238,11.667,0.004819121,0.12749,1.06864
55.738,11.7327,0.006337349,0.13431,1.0685
56.238,11.7972,0.00567968,0.1401,1.06836
56.738,11.85999,0.00636006,0.14302,1.06822
57.238,11.92146,0.007377781,0.14731,1.06808
57.738,11.98189,0.00611778,0.15083,1.06794
58.238,12.04157,0.006958675,0.15559,1.0678
58.738,12.10052,0.006140201,0.15985,1.06766
59.238,12.15884,0.004858555,0.16151,1.06751
59.738,12.21637,0.005594511,0.16345,1.06737
60.238,12.2735,0.004609447,0.16598,1.06723
60.738,12.3302,0.004619132,0.16724,1.06709
61.238,12.38655,0.004735609,0.17029,1.06694
61.738,12.44265,0.004608587,0.17267,1.0668
62.238,12.4984,0.004579921,0.17406,1.06666
62.738,12.55406,0.004847685,0.17383,1.06651
63.238,12.60938,0.00589095,0.17549,1.06637
63.738,12.6638,0.004526211,0.17579,1.06623
64.238,12.71791,0.004612445,0.1797,1.06608
64.738,12.77165,0.005955347,0.17875,1.06594
65.238,12.82564,0.00470306,0.18358,1.06579
65.738,12.88035,0.00431103,0.18314,1.06565
66.238,12.9351,0.004149437,0.18478,1.0655
66.738,12.98985,0.004595898,0.18514,1.06535
67.238,13.044,0.004597988,0.18631,1.06521
67.738,13.09799,0.004658023,0.18746,1.06506
68.238,13.1518,0.004610114,0.18751,1.06491
68.738,13.2055,0.004391054,0.18845,1.06477
69.238,13.2591,0.004609867,0.19166,1.06462
69.738,13.3123,0.004616265,0.19075,1.06447
70.238,13.3655,0.00589393,0.19133,1.06433
70.738,13.4186,0.004603832,0.19101,1.06418
71.238,13.4714,0.004696005,0.19202,1.06403
71.738,13.5243,0.004423021,0.19482,1.06388
72.238,13.5771,0.005232179,0.19662,1.06373
72.738,13.6297,0.004609932,0.19575,1.06358
73.238,13.6827,0.00590564,0.19677,1.06343
73.738,13.7351,0.005728125,0.20001,1.06328
74.238,13.78774,0.005919698,0.20048,1.06313
74.738,13.8402,0.005926977,0.20253,1.06298
75.238,13.89238,0.005915786,0.20209,1.06283
75.738,13.9451,0.006114051,0.20335,1.06268
76.238,13.99731,0.005605485,0.20554,1.06253
76.738,14.04946,0.004596933,0.2058,1.06238
77.238,14.10144,0.004614743,0.20765,1.06223
77.738,14.15296,0.006038,0.20948,1.06208
78.238,14.20466,0.006026758,0.20994,1.06193
78.738,14.25642,0.007264984,0.21032,1.06177
79.238,14.30814,0.006032081,0.21352,1.06162
79.738,14.36002,0.00735,0.21544,1.06147
80.238,14.4116,0.006031295,0.21697,1.06132
80.738,14.4629,0.005949628,0.22017,1.06116
81.238,14.5143,0.006042356,0.22009,1.06101
81.738,14.56546,0.006040493,0.22177,1.06086
82.238,14.61664,0.004654223,0.22179,1.0607
82.738,14.6679,0.005872869,0.22231,1.06055
83.238,14.719,0.006030064,0.22376,1.06039
83.738,14.77,0.006030001,0.22311,1.06024
84.238,14.82094,0.006031015,0.22427,1.06008
84.738,14.87168,0.006029859,0.22218,1.05993
85.238,14.9224,0.00740129,0.2213,1.05977
85.738,14.9733,0.006384311,0.21915,1.05962
86.238,15.0239,0.006032361,0.21626,1.05946
86.738,15.07438,0.00732468,0.21632,1.0593
87.238,15.12473,0.00735333,0.21293,1.05915
87.738,15.17489,0.005991621,0.21222,1.05899
88.238,15.2251,0.0060401,0.21005,1.05883
88.738,15.27556,0.006014704,0.20843,1.05868
89.238,15.32586,0.004722548,0.20868,1.05852
89.738,15.37595,0.005834019,0.20823,1.05836
90.238,15.426,0.00603022,0.20802,1.0582
90.738,15.47592,0.006023305,0.20887,1.05804
91.238,15.52583,0.00735626,0.20837,1.05789
91.738,15.57576,0.005948661,0.20888,1.05773
92.238,15.6256,0.00602994,0.21036,1.05757
92.738,15.6754,0.005200738,0.21042,1.05741
93.238,15.7249,0.006027751,0.2108,1.05725
93.738,15.77457,0.006042341,0.21159,1.05709
94.238,15.8245,0.007342305,0.21142,1.05693
94.738,15.87429,0.0060325,0.21374,1.05677
95.238,15.92421,0.00625125,0.21621,1.05661
95.738,15.9738,0.007349025,0.21764,1.05644
96.238,16.0235,0.00735019,0.21798,1.05628
96.738,16.07292,0.007220673,0.21952,1.05612
97.238,16.12237,0.00718082,0.22176,1.05596
97.738,16.17194,0.007386458,0.22279,1.0558
98.238,16.22148,0.006029662,0.22452,1.05564
98.738,16.27072,0.006030001,0.22684,1.05547
99.238,16.3199,0.006030083,0.22833,1.05531
99.738,16.36908,0.00502978,0.23279,1.05515
100.238,16.41822,0.004757643,0.23534,1.05498
100.738,16.46719,0.0058032,0.23869,1.05482
101.238,16.51654,0.006030393,0.24151,1.05465
101.738,16.56571,0.005934954,0.24524,1.05449
102.238,16.61478,0.006052205,0.24917,1.05433
102.738,16.66408,0.00466822,0.25253,1.05416
103.238,16.71325,0.004719921,0.25625,1.054
103.738,16.76227,0.004802736,0.25863,1.05383
104.238,16.81155,0.006249005,0.26216,1.05366
104.738,16.86074,0.006250001,0.2651,1.0535
105.238,16.9098,0.00625006,0.27062,1.05333
105.738,16.9588,0.00537231,0.27224,1.05317
106.238,17.00773,0.004929635,0.274,1.053
106.738,17.05632,0.00552903,0.27677,1.05283
107.238,17.10519,0.004942651,0.27799,1.05267
107.738,17.15405,0.00492998,0.28036,1.0525
108.238,17.20297,0.004929994,0.28021,1.05233
108.738,17.25226,0.004933077,0.2822,1.05216
109.238,17.30142,0.00361478,0.28016,1.05199
109.738,17.35043,0.003947727,0.28214,1.05182
110.238,17.3994,0.00391558,0.2811,1.05166
110.738,17.44836,0.004939354,0.28331,1.05149
111.238,17.49711,0.00494,0.2825,1.05132
111.738,17.546,0.00494004,0.28167,1.05115
112.238,17.5948,0.00487715,0.28325,1.05098
112.738,17.64361,0.003623167,0.28415,1.05081
113.238,17.6924,0.004917155,0.28397,1.05064
113.738,17.7412,0.004941618,0.28267,1.05047
114.238,17.78995,0.00362021,0.28344,1.0503
114.738,17.83865,0.00363598,0.28476,1.05012
115.238,17.8873,0.00492889,0.28397,1.04995
115.738,17.93605,0.005002158,0.28457,1.04978
116.238,17.98496,0.004271199,0.28273,1.04961
116.738,18.03388,0.004336711,0.28515,1.04944
117.238,18.08274,0.005199215,0.28509,1.04926
117.738,18.1315,0.004600343,0.28755,1.04909
118.238,18.18018,0.0046,0.28455,1.04892
118.738,18.22881,0.0046,0.28418,1.04874
119.238,18.27732,0.004599993,0.28467,1.04857
119.738,18.32591,0.004605876,0.28539,1.0484
120.238,18.37451,0.003429486,0.28646,1.04822
120.738,18.42316,0.003609147,0.28659,1.04805
121.238,18.47167,0.00381391,0.28631,1.04787
121.738,18.52037,0.003289943,0.28666,1.0477
122.238,18.5685,0.003289995,0.28607,1.04752
122.738,18.61701,0.003294477,0.28691,1.04735
123.238,18.66562,0.00218096,0.28596,1.04717
123.738,18.71405,0.00383096,0.28667,1.04699
124.238,18.763,0.003211774,0.28576,1.04682
124.738,18.81157,0.00251965,0.28513,1.04664
125.238,18.86015,0.002520008,0.28685,1.04646
125.738,18.90871,0.0025569,0.28746,1.04629
126.238,18.95717,0.001528856,0.28803,1.04611
126.738,19.00553,0.00292362,0.286,1.04593
127.238,19.05392,0.00283982,0.28768,1.04575
127.738,19.10241,0.00286313,0.28576,1.04557
128.238,19.15083,0.00380575,0.2876,1.0454
128.738,19.19925,0.002519501,0.28812,1.04522
129.238,19.24761,0.00252001,0.28839,1.04504
129.738,19.29596,0.002516278,0.29033,1.04486
130.238,19.34432,0.003879833,0.29189,1.04468
130.738,19.3927,0.002533126,0.29075,1.0445
131.238,19.44073,0.002519997,0.29155,1.04432
131.738,19.48884,0.002523951,0.2914,1.04414
132.238,19.53704,0.00102155,0.29114,1.04396
132.738,19.5852,0.0002129055,0.29248,1.04378
133.238,19.63354,0.001414712,0.29269,1.04359
133.738,19.68214,0.00154504,0.2936,1.04341
134.238,19.73036,0.00120024,0.29234,1.04323
134.738,19.77825,0.002003402,0.293,1.04305
135.238,19.82657,0.001534671,0.29356,1.04287
135.738,19.87485,0.00153938,0.29275,1.04268
136.238,19.92298,0.001175752,0.2942,1.0425
136.738,19.97129,0.001203223,0.29628,1.04232
137.238,20.01951,0.0002223943,0.29595,1.04213
137.738,20.0674,0.0002195249,0.29558,1.04195
138.238,20.1155,0.000731559,0.29501,1.04177
138.738,20.16369,0.001529856,0.29701,1.04158
139.238,20.212,0.00153,0.29804,1.0414
139.738,20.26025,0.001530001,0.29733,1.04121
140.238,20.3084,0.001531765,0.29852,1.04103
140.738,20.3566,0.001208075,0.29766,1.04084
141.238,20.40464,0.001916414,0.29757,1.04065
141.738,20.4527,0.0005530437,0.29751,1.04047
142.238,20.50052,0.0005399827,0.29999,1.04028
142.738,20.54855,0.0005229467,0.29987,1.0401
143.238,20.59657,0.001201298,0.30063,1.03991
143.738,20.64473,0.00119841,0.30144,1.03972
144.238,20.6928,-9.504194e-05,0.3013,1.03953
144.738,20.74096,-0.000120018,0.29919,1.03935
145.238,20.7891,-0.0001201689,0.30029,1.03916
145.738,20.83705,0.0003653517,0.29966,1.03897
146.238,20.885,0.0005444321,0.30173,1.03878
146.738,20.93304,-0.000455373,0.30129,1.03859
147.238,20.98095,-0.00043835,0.30212,1.0384
147.738,21.02891,-0.0001118778,0.30199,1.03821
148.238,21.07685,-0.0001100106,0.30296,1.03802
148.738,21.12464,-9.74891e-05,0.30411,1.03783
149.238,21.1725,0.001197271,0.30317,1.03764
149.738,21.22052,0.001209999,0.30318,1.03745
150.238,21.26826,0.00119977,0.30285,1.03726
150.738,21.316,-9.895127e-05,0.30466,1.03707
151.238,21.36394,-0.0001100194,0.30352,1.03688
151.738,21.4117,-0.0001100017,0.30275,1.03669
152.238,21.45952,-0.0001102617,0.30352,1.0365
152.738,21.5075,-0.00132294,0.30417,1.0363
153.238,21.5552,-0.001430244,0.30334,1.03611
153.738,21.60295,-0.001430021,0.3028,1.03592
154.238,21.6507,-0.001426719,0.30431,1.03573
154.738,21.69828,-0.0001177316,0.3053,1.03553
155.238,21.74589,-0.0001200103,0.30636,1.03534
155.738,21.79363,-0.0001186455,0.30488,1.03515
156.238,21.84144,-0.0007966891,0.30656,1.03495
156.738,21.8894,-0.0007800135,0.30626,1.03476
157.238,21.93724,-0.000780006,0.30672,1.03456
157.738,21.98498,-0.000775772,0.30449,1.03437
158.238,22.03274,0.0001754634,0.30438,1.03417
158.738,22.0804,0.0005235492,0.30535,1.03398
159.238,22.12818,-0.0001195241,0.30406,1.03378
159.738,22.17551,-0.0001200012,0.30486,1.03358
160.238,22.22335,-0.0001202286,0.30415,1.03339
160.738,22.27117,-6.594563e-05,0.30512,1.03319
161.238,22.31904,-0.0001069289,0.30431,1.033
161.738,22.36701,-0.000103525,0.30448,1.0328
162.238,22.41517,-0.00143649,0.30402,1.0326
162.738,22.46295,-0.00142999,0.30515,1.0324
163.238,22.51073,-0.00143012,0.30549,1.0322
163.738,22.55829,-0.001946355,0.30638,1.03201
164.238,22.60603,-0.001674891,0.30669,1.03181
164.738,22.6537,-0.001760149,0.30675,1.03161
165.238,22.7014,-0.00176,0.3069,1.03141
165.738,22.74905,-0.00176001,0.30783,1.03121
166.238,22.7971,-0.001750982,0.30701,1.03101
166.738,22.8448,-0.00142773,0.30824,1.03081
167.238,22.89249,-0.00138144,0.30674,1.03061
167.738,22.94025,-0.00275004,0.30657,1.03041
168.238,22.98789,-0.002466176,0.30744,1.03021
168.738,23.03559,-0.001112071,0.30749,1.03001
169.238,23.08312,-0.001100179,0.30716,1.02981
169.738,23.1309,-0.00148753,0.30477,1.0296
170.238,23.17865,-0.0020897,0.30759,1.0294
170.738,23.22654,-0.002089737,0.30764,1.0292
171.238,23.27441,-0.00231213,0.30687,1.029
171.738,23.32224,-0.003409135,0.31002,1.02879
172.238,23.37,-0.003409942,0.30825,1.02859
172.738,23.41763,-0.004397824,0.30827,1.02839
173.238,23.4654,-0.004397364,0.30931,1.02818
173.738,23.51313,-0.003427842,0.3091,1.02798
174.238,23.56083,-0.003399983,0.31144,1.02778
174.738,23.6083,-0.0034,0.31128,1.02757
175.238,23.65599,-0.00339885,0.31006,1.02737
175.738,23.7036,-0.002569131,0.31153,1.02716
176.238,23.7514,-0.002419945,0.312,1.02696
176.738,23.7991,-0.002419782,0.31301,1.02675
177.238,23.84725,-0.00379353,0.31301,1.02654
177.738,23.89506,-0.003739872,0.31384,1.02634
178.238,23.94235,-0.00374,0.31599,1.02613
178.738,23.99,-0.00374,0.31615,1.02592
179.238,24.03765,-0.00374,0.31668,1.02572
179.738,24.08507,-0.003739352,0.31714,1.02551
180.238,24.1328,-0.003376295,0.31856,1.0253
180.738,24.18049,-0.00341001,0.3187,1.02509
181.238,24.22791,-0.003411488,0.32221,1.02489
181.738,24.2758,-0.004708225,0.32431,1.02468
182.238,24.3236,-0.004730036,0.32508,1.02447
182.738,24.3716,-0.00473,0.32435,1.02426
183.238,24.41951,-0.00473,0.32585,1.02405
183.738,24.467,-0.004730304,0.3283,1.02384
184.238,24.51461,-0.005393664,0.33224,1.02363
184.738,24.56221,-0.00572188,0.33105,1.02342
185.238,24.60975,-0.004408144,0.33475,1.02321
185.738,24.6574,-0.00439986,0.33492,1.023
186.238,24.70506,-0.004403265,0.33616,1.02279
186.738,24.7528,-0.002909009,0.33646,1.02258
187.238,24.8005,-0.00296944,0.33791,1.02236
187.738,24.84844,-0.004282277,0.33936,1.02215
188.238,24.89622,-0.004290029,0.34017,1.02194
188.738,24.94383,-0.004289618,0.34158,1.02173
189.238,24.9914,-0.00567275,0.34173,1.02151
189.738,25.03903,-0.005661359,0.34309,1.0213
190.238,25.0867,-0.004621346,0.34356,1.02109
190.738,25.1345,-0.00464245,0.34469,1.02087
191.238,25.18215,-0.005928404,0.34701,1.02066
191.738,25.22974,-0.00593,0.34493,1.02045
192.238,25.2773,-0.00593,0.34528,1.02023
192.738,25.32485,-0.005930021,0.34601,1.02002
193.238,25.37239,-0.005922266,0.34794,1.0198
193.738,25.41986,-0.00493926,0.34855,1.01959
194.238,25.46741,-0.006033659,0.34802,1.01937
194.738,25.51499,-0.004398089,0.34729,1.01915
195.238,25.56263,-0.005937947,0.34778,1.01894
195.738,25.61036,-0.0059297,0.34833,1.01872
196.238,25.65796,-0.00661839,0.34825,1.0185
196.738,25.70561,-0.006589915,0.34853,1.01829
197.238,25.75318,-0.00659,0.34969,1.01807
197.738,25.80088,-0.00659,0.34848,1.01785
198.238,25.84852,-0.006589826,0.35095,1.01763
198.738,25.89599,-0.006925651,0.35053,1.01742
199.238,25.9436,-0.007908991,0.35208,1.0172
199.738,25.99106,-0.007909808,0.35245,1.01698
200.238,26.03865,-0.00736282,0.35142,1.01676
200.738,26.08607,-0.006590729,0.35306,1.01654
201.238,26.1338,-0.00661766,0.3538,1.01632
201.738,26.18125,-0.006993089,0.35427,1.0161
202.238,26.2287,-0.007249923,0.35655,1.01588
202.738,26.27624,-0.007250266,0.35583,1.01566
203.238,26.32375,-0.007069929,0.35809,1.01544
203.738,26.37128,-0.005930585,0.3564,1.01522
204.238,26.41913,-0.005929884,0.35665,1.015
204.738,26.46671,-0.006321141,0.35732,1.01477
205.238,26.51425,-0.00724901,0.35667,1.01455
205.738,26.5619,-0.007250001,0.3597,1.01433
206.238,26.60943,-0.00725,0.35858,1.01411
206.738,26.6567,-0.007253744,0.35936,1.01388
207.238,26.70435,-0.00587958,0.35979,1.01366
207.738,26.75195,-0.005939939,0.35974,1.01344
208.238,26.7995,-0.007250606,0.35941,1.01321
208.738,26.84719,-0.007249994,0.3601,1.01299
209.238,26.8949,-0.007249994,0.36073,1.01276
209.738,26.9424,-0.00725213,0.36006,1.01254
210.238,26.98981,-0.008231907,0.36015,1.01231
210.738,27.0373,-0.008229967,0.36144,1.01209
211.238,27.08472,-0.008221695,0.36151,1.01186
211.738,27.13219,-0.007907315,0.36156,1.01164
212.238,27.17967,-0.007264445,0.36215,1.01141
212.738,27.2271,-0.007249775,0.36117,1.01118
213.238,27.2746,-0.00725834,0.36329,1.01096
213.738,27.3221,-0.00758211,0.36217,1.01073
214.238,27.36973,-0.007579973,0.36251,1.0105
214.738,27.41715,-0.00782696,0.36474,1.01028
215.238,27.46476,-0.007910176,0.36389,1.01005
215.738,27.5124,-0.00791,0.36412,1.00982
216.238,27.55995,-0.00791,0.3638,1.00959
216.738,27.6075,-0.007909967,0.36448,1.00936
217.238,27.65457,-0.007965902,0.36373,1.00913
217.738,27.7017,-0.009218292,0.36412,1.0089
218.238,27.7493,-0.01018303,0.36469,1.00867
218.738,27.79679,-0.0102102,0.36469,1.00844
219.238,27.84465,-0.01021385,0.36332,1.00821
219.738,27.89289,-0.009213747,0.36539,1.00798
220.238,27.9406,-0.009230007,0.36505,1.00775
220.738,27.98807,-0.00923,0.36578,1.00752
221.238,28.0357,-0.00923,0.3658,1.00729
221.738,28.08302,-0.00923,0.36659,1.00706
222.238,28.1304,-0.00923,0.36575,1.00683
222.738,28.178,-0.00923,0.36764,1.00659
223.238,28.22543,-0.00923,0.36853,1.00636
223.738,28.27315,-0.009230086,0.3682,1.00613
224.238,28.321,-0.009647258,0.36747,1.0059
224.738,28.3686,-0.0105721,0.36642,1.00566
225.238,28.41625,-0.01022051,0.3712,1.00543
225.738,28.4639,-0.01022,0.36673,1.00519
226.238,28.5115,-0.01022,0.36956,1.00496
226.738,28.559,-0.01022,0.36905,1.00472
227.238,28.6067,-0.0102199,0.3684,1.00449
227.738,28.65425,-0.01027977,0.36719,1.00425
228.238,28.7019,-0.00956107,0.36746,1.00402
228.738,28.7494,-0.009560001,0.36671,1.00378
229.238,28.79712,-0.00956,0.36748,1.00355
229.738,28.8448,-0.009560091,0.36862,1.00331
230.238,28.8925,-0.00952433,0.36927,1.00307
230.738,28.9402,-0.01022062,0.36932,1.00284
231.238,28.9877,-0.01154311,0.36913,1.0026
231.738,29.03518,-0.01153999,0.36861,1.00236
232.238,29.0827,-0.01154,0.37139,1.00212
232.738,29.1303,-0.01154,0.36874,1.00189
233.238,29.1781,-0.01154,0.37073,1.00165
233.738,29.22568,-0.01154438,0.37017,1.00141
234.238,29.27338,-0.01053364,0.3718,1.00117
234.738,29.321,-0.01055001,0.36951,1.00093
235.238,29.36838,-0.01054639,0.37062,1.00069
235.738,29.4161,-0.01128668,0.37239,1.00045
236.238,29.4638,-0.01251815,0.37168,1.00021
236.738,29.51142,-0.01252,0.37171,0.99997
237.238,29.559,-0.01252,0.37388,0.99973
237.738,29.60659,-0.01252,0.37411,0.99949
238.238,29.6542,-0.01252003,0.37294,0.99925
238.738,29.70168,-0.01251173,0.37182,0.999
239.238,29.74932,-0.01317918,0.37449,0.99876
239.738,29.797,-0.01318001,0.37329,0.99852
240.238,29.8445,-0.01318,0.37499,0.99828
240.738,29.89217,-0.01318,0.37448,0.99803
241.238,29.93972,-0.01318,0.37538,0.99779
241.738,29.9873,-0.01317332,0.37646,0.99755
242.238,30.03483,-0.01449657,0.37627,0.9973
242.738,30.08245,-0.01448999,0.37651,0.99706
243.238,30.13024,-0.01449,0.37597,0.99681
243.738,30.17775,-0.01449043,0.37678,0.99657
244.238,30.22533,-0.01502956,0.37677,0.99632
244.738,30.2728,-0.01515013,0.37875,0.99608
245.238,30.3202,-0.01514988,0.37865,0.99583
245.738,30.36763,-0.01636968,0.38073,0.99559
246.238,30.4153,-0.01647025,0.3801,0.99534
246.738,30.46289,-0.01646597,0.37984,0.99509
247.238,30.5105,-0.01581189,0.38032,0.99485
247.738,30.55817,-0.01581001,0.38071,0.9946
248.238,30.6057,-0.01581509,0.38166,0.99435
248.738,30.6532,-0.01516856,0.38288,0.99411
249.238,30.70066,-0.01515001,0.38363,0.99386
249.738,30.7482,-0.01516938,0.38229,0.99361
250.238,30.79573,-0.0164685,0.38533,0.99336
250.738,30.84335,-0.01646749,0.38564,0.99311
251.238,30.8908,-0.01781105,0.3834,0.99286
251.738,30.9383,-0.01779009,0.3849,0.99261
252.238,30.98576,-0.01779,0.38575,0.99236
252.738,31.0333,-0.01779,0.38585,0.99211
253.238,31.0808,-0.01779,0.38935,0.99186
253.738,31.1283,-0.01779,0.38764,0.99161
254.238,31.1758,-0.01778996,0.38784,0.99136
254.738,31.22317,-0.01780678,0.38883,0.99111
255.238,31.2706,-0.01910943,0.38718,0.99086
255.738,31.3179,-0.01911041,0.38631,0.99061
256.238,31.36518,-0.01862888,0.38753,0.99035
256.738,31.41279,-0.01779013,0.38938,0.9901
257.238,31.4604,-0.01779,0.38869,0.98985
257.738,31.50784,-0.01779,0.38671,0.98959
258.238,31.5557,-0.01779001,0.38918,0.98934
258.738,31.60306,-0.01778731,0.38895,0.98909
259.238,31.6507,-0.018786,0.38903,0.98883
259.738,31.6983,-0.01912154,0.38846,0.98858
260.238,31.7458,-0.0191193,0.38758,0.98832
260.738,31.79332,-0.01943957,0.38618,0.98807
261.238,31.84062,-0.02043524,0.38908,0.98781
261.738,31.88795,-0.02055963,0.38878,0.98756
262.238,31.9355,-0.02239723,0.38813,0.9873
262.738,31.98303,-0.0224002,0.38855,0.98705
263.238,32.03075,-0.02277911,0.39029,0.98679
263.738,32.07847,-0.02338966,0.3911,0.98653
264.238,32.1263,-0.02338493,0.39112,0.98628
264.738,32.17387,-0.02403108,0.39104,0.98602
265.238,32.22153,-0.02405002,0.39337,0.98576
265.738,32.26911,-0.02405,0.39177,0.9855
266.238,32.31671,-0.02405001,0.39296,0.98524
266.738,32.36415,-0.02404636,0.39499,0.98499
267.238,32.41174,-0.02308308,0.39326,0.98473
267.738,32.4594,-0.02437072,0.39252,0.98447
268.238,32.50698,-0.02437181,0.39465,0.98421
268.738,32.5546,-0.02557853,0.39268,0.98395
269.238,32.60236,-0.02438941,0.39383,0.98369
269.738,32.65007,-0.02438,0.39414,0.98343
270.238,32.69777,-0.0243796,0.39398,0.98317
270.738,32.74522,-0.02577105,0.3935,0.98291
271.238,32.79285,-0.02701646,0.39541,0.98265
271.738,32.84037,-0.02701,0.39412,0.98238
272.238,32.88798,-0.02701,0.39562,0.98212
272.738,32.93584,-0.0270082,0.3973,0.98186
273.238,32.9836,-0.02581478,0.39636,0.9816
273.738,33.0313,-0.02611678,0.39767,0.98133
274.238,33.07913,-0.02666756,0.39662,0.98107
274.738,33.1265,-0.02800259,0.39771,0.98081
275.238,33.17423,-0.02800004,0.39874,0.98054
275.738,33.222,-0.02798632,0.39903,0.98028
276.238,33.2695,-0.02833013,0.39884,0.98002
276.738,33.3172,-0.02881739,0.40021,0.97975
277.238,33.365,-0.0299202,0.39996,0.97949
277.738,33.41255,-0.03062873,0.39995,0.97922
278.238,33.4604,-0.03063,0.39943,0.97896
278.738,33.50806,-0.03062979,0.39964,0.97869
279.238,33.5559,-0.03095699,0.40059,0.97842
279.738,33.6038,-0.031949,0.40189,0.97816
280.238,33.65152,-0.03195,0.40208,0.97789
280.738,33.69919,-0.03195,0.40274,0.97762
281.238,33.747,-0.03195,0.40091,0.97736
281.738,33.79446,-0.03195156,0.40211,0.97709
282.238,33.84235,-0.03324696,0.40239,0.97682
282.738,33.89017,-0.03327,0.40512,0.97655
283.238,33.9379,-0.03327,0.40337,0.97628
283.738,33.98584,-0.03327064,0.40388,0.97602
284.238,34.03346,-0.03365408,0.40567,0.97575
284.738,34.08112,-0.03491915,0.40724,0.97548
285.238,34.1289,-0.03547623,0.40761,0.97521
285.738,34.1768,-0.03622934,0.40955,0.97494
286.238,34.22455,-0.03623,0.40901,0.97467
286.738,34.27239,-0.03623002,0.40966,0.9744
287.238,34.32,-0.03622986,0.41069,0.97413
287.738,34.36765,-0.03732154,0.41065,0.97385
288.238,34.4154,-0.03787988,0.40969,0.97358
288.738,34.46329,-0.03787753,0.41059,0.97331
289.238,34.51108,-0.03922593,0.41204,0.97304
289.738,34.55893,-0.04051457,0.41245,0.97277
290.238,34.6068,-0.04052007,0.41265,0.97249
290.738,34.65424,-0.04049024,0.41409,0.97222
291.238,34.70187,-0.04223482,0.41333,0.97195
291.738,34.74929,-0.04216018,0.41494,0.97167
292.238,34.79699,-0.04171257,0.41417,0.9714
292.738,34.84473,-0.0411703,0.41501,0.97112
293.238,34.8926,-0.04117098,0.41384,0.97085
293.738,34.94062,-0.04220862,0.41737,0.97058
294.238,34.98854,-0.0437986,0.41709,0.9703
294.738,35.03632,-0.04445616,0.41871,0.97002
295.238,35.08415,-0.04436135,0.41876,0.96975
295.738,35.13173,-0.0461199,0.41864,0.96947
296.238,35.17934,-0.04612895,0.41916,0.9692
296.738,35.22705,-0.04742883,0.41899,0.96892
297.238,35.27479,-0.04742955,0.41931,0.96864
297.738,35.3225,-0.04762656,0.41845,0.96836
298.238,35.3703,-0.04874997,0.41879,0.96809
298.738,35.418,-0.04875,0.41872,0.96781
299.238,35.46563,-0.04874949,0.41969,0.96753
299.738,35.51334,-0.05016555,0.41886,0.96725
300.238,35.56111,-0.05005938,0.41883,0.96697
300.738,35.60882,-0.05138699,0.42089,0.96669
301.238,35.65658,-0.05138629,0.41913,0.96642
301.738,35.7044,-0.05274985,0.42065,0.96614
302.238,35.75215,-0.05269994,0.42136,0.96586
302.738,35.79992,-0.05269998,0.42147,0.96557
303.238,35.84775,-0.05347119,0.42179,0.96529
303.738,35.89547,-0.05402171,0.4219,0.96501
304.238,35.9433,-0.0553142,0.42184,0.96473
304.738,35.99109,-0.05538624,0.42318,0.96445
305.238,36.03886,-0.05627714,0.4227,0.96417
305.738,36.08665,-0.05765034,0.42218,0.96389
306.238,36.13431,-0.05765,0.42396,0.9636
306.738,36.18204,-0.05765084,0.42542,0.96332
307.238,36.22975,-0.05861639,0.42596,0.96304
307.738,36.27738,-0.05763891,0.42503,0.96275
308.238,36.32529,-0.05871619,0.4255,0.96247
308.738,36.37311,-0.05898625,0.42484,0.96219
309.238,36.42088,-0.06028345,0.42901,0.9619
309.738,36.46868,-0.06183331,0.42928,0.96162
310.238,36.5163,-0.06291859,0.42776,0.96133
310.738,36.5638,-0.0629197,0.42857,0.96105
311.238,36.61153,-0.06429642,0.42984,0.96076
311.738,36.65914,-0.06423007,0.43283,0.96048
312.238,36.70686,-0.06424413,0.4324,0.96019
312.738,36.75478,-0.06506767,0.43241,0.9599
313.238,36.80253,-0.06506639,0.4313,0.95962
313.738,36.85037,-0.06555013,0.43302,0.95933
314.238,36.8982,-0.06606009,0.43407,0.95904
314.738,36.946,-0.06688275,0.4346,0.95875
315.238,36.9938,-0.06958306,0.43392,0.95847
315.738,37.04166,-0.06950412,0.4325,0.95818
316.238,37.08971,-0.07049894,0.43526,0.95789
316.738,37.13753,-0.07094609,0.43483,0.9576
317.238,37.18543,-0.07180198,0.43727,0.95731
317.738,37.2333,-0.07312433,0.43808,0.95702
318.238,37.28112,-0.07446809,0.43801,0.95673
318.738,37.329,-0.07444098,0.44094,0.95644
319.238,37.37715,-0.07574513,0.4406,0.95615
319.738,37.4251,-0.0757446,0.43992,0.95586
320.238,37.47307,-0.07676007,0.44056,0.95557
320.738,37.5211,-0.07708134,0.44031,0.95528
321.238,37.5691,-0.07707834,0.44119,0.95499
321.738,37.61716,-0.07841574,0.44324,0.95469
322.238,37.66537,-0.07975642,0.44313,0.9544
322.738,37.7134,-0.0797407,0.4452,0.95411
323.238,37.76153,-0.08102659,0.4451,0.95382
323.738,37.80957,-0.08234814,0.44511,0.95352
324.238,37.85768,-0.0823792,0.44615,0.95323
324.738,37.90567,-0.08269445,0.44946,0.95294
325.238,37.9538,-0.08389054,0.45154,0.95264
325.738,38.00199,-0.08583115,0.45172,0.95235
326.238,38.05008,-0.08696653,0.45303,0.95205
326.738,38.09787,-0.08790681,0.45287,0.95176
327.238,38.146,-0.08926271,0.45484,0.95146
327.738,38.19388,-0.08944797,0.45471,0.95117
328.238,38.24137,-0.0905805,0.45784,0.95087
328.738,38.2896,-0.09156667,0.45802,0.95057
329.238,38.33763,-0.09236343,0.46016,0.95028
329.738,38.3857,-0.09322109,0.46071,0.94998
330.238,38.43412,-0.09449854,0.46218,0.94968
330.738,38.48227,-0.09585637,0.46138,0.94939
331.238,38.53028,-0.09653328,0.46376,0.94909
331.738,38.5782,-0.09716441,0.46688,0.94879
332.238,38.6261,-0.09849613,0.46847,0.94849
332.738,38.6743,-0.09990311,0.47079,0.94819
333.238,38.72248,-0.10118,0.47166,0.94789
333.738,38.7706,-0.10386,0.47215,0.94759
334.238,38.81868,-0.10516,0.4747,0.94729
334.738,38.86681,-0.10654,0.47491,0.94699
335.238,38.91489,-0.10786,0.47813,0.94669
335.738,38.96282,-0.10852,0.47946,0.94639
336.238,39.0109,-0.10982,0.48099,0.94609
336.738,39.05874,-0.1107,0.4822,0.94579
337.238,39.10644,-0.11246,0.48357,0.94549
337.738,39.15442,-0.11354,0.48425,0.94519
338.238,39.20251,-0.11387,0.4867,0.94489
338.738,39.25058,-0.11515,0.48997,0.94458
339.238,39.29886,-0.11648,0.49023,0.94428
339.738,39.34707,-0.11784,0.49241,0.94398
340.238,39.39529,-0.11917,0.49427,0.94368
340.738,39.4435,-0.12137,0.49601,0.94337
341.238,39.4917,-0.12364,0.49794,0.94307
341.738,39.5398,-0.12493,0.49794,0.94276
342.238,39.58802,-0.12625,0.50233,0.94246
342.738,39.63624,-0.12753,0.50362,0.94215
343.238,39.6845,-0.12953,0.50657,0.94185
343.738,39.73278,-0.13101,0.50563,0.94154
344.238,39.78106,-0.13313,0.51007,0.94124
344.738,39.8292,-0.13721,0.51159,0.94093
345.238,39.87729,-0.13686,0.51323,0.94063
345.738,39.92538,-0.1372,0.51502,0.94032
346.238,39.97353,-0.14004,0.51634,0.94001
346.738,40.02169,-0.14218,0.52105,0.9397
347.238,40.06995,-0.14437,0.52463,0.9394
347.738,40.11834,-0.14585,0.52809,0.93909
348.238,40.16648,-0.14804,0.53008,0.93878
348.738,40.21431,-0.14962,0.5326,0.93847
349.238,40.26251,-0.15256,0.53674,0.93816
349.738,40.31067,-0.15391,0.53925,0.93785
350.238,40.3587,-0.1564,0.54254,0.93755
350.738,40.40702,-0.15902,0.5442,0.93724
351.238,40.45541,-0.16194,0.54793,0.93693
351.738,40.50357,-0.16387,0.54973,0.93662
352.238,40.55171,-0.16664,0.55403,0.9363
352.738,40.59993,-0.16797,0.55746,0.93599
353.238,40.64837,-0.17033,0.56031,0.93568
353.738,40.69678,-0.17312,0.56572,0.93537
354.238,40.74525,-0.17605,0.56569,0.93506
354.738,40.79379,-0.1791,0.56998,0.93475
355.238,40.84206,-0.1816,0.57551,0.93443
355.738,40.89032,-0.18402,0.57977,0.93412
356.238,40.9383,-0.18696,0.58484,0.93381
356.738,40.98657,-0.1899,0.58688,0.9335
357.238,41.0349,-0.19149,0.59236,0.93318
357.738,41.08313,-0.19502,0.59661,0.93287
358.238,41.13126,-0.19816,0.60054,0.93255
358.738,41.17958,-0.20168,0.60434,0.93224
359.238,41.22769,-0.20494,0.60863,0.93192
359.738,41.27605,-0.20855,0.61503,0.93161
360.238,41.32444,-0.21105,0.61994,0.93129
360.738,41.37293,-0.21496,0.62533,0.93098
361.238,41.42132,-0.21949,0.63287,0.93066
361.738,41.46979,-0.22153,0.63498,0.93034
362.238,41.51811,-0.22518,0.64009,0.93003
362.738,41.56648,-0.23063,0.64878,0.92971
363.238,41.61488,-0.23424,0.65626,0.92939
363.738,41.66324,-0.238,0.6599,0.92908
364.238,41.7116,-0.24135,0.66789,0.92876
364.738,41.75996,-0.24471,0.67412,0.92844
365.238,41.8082,-0.24996,0.67978,0.92812
365.738,41.85649,-0.25395,0.68737,0.9278
366.238,41.9043,-0.25813,0.69443,0.92748
366.738,41.9527,-0.26243,0.70387,0.92716
367.238,42.00099,-0.26666,0.70983,0.92684
367.738,42.04951,-0.27246,0.71891,0.92652
368.238,42.0983,-0.27651,0.72575,0.9262
368.738,42.14693,-0.28257,0.73433,0.92588
369.238,42.19552,-0.28681,0.74301,0.92556
369.738,42.24392,-0.29261,0.75225,0.92524
370.238,42.29238,-0.29766,0.7617,0.92492
370.738,42.3407,-0.30224,0.76924,0.9246
371.238,42.38913,-0.30749,0.78141,0.92428
371.738,42.4373,-0.31375,0.78833,0.92395
372.238,42.4854,-0.32,0.79863,0.92363
372.738,42.53351,-0.32634,0.80752,0.92331
373.238,42.58146,-0.33371,0.8183,0.92298
373.738,42.62955,-0.34039,0.82748,0.92266
374.238,42.67797,-0.34634,0.83858,0.92234
374.738,42.72627,-0.35305,0.84772,0.92201
375.238,42.7745,-0.35901,0.85958,0.92169
375.738,42.82306,-0.36572,0.87178,0.92136
376.238,42.87157,-0.37247,0.88384,0.92104
376.738,42.92015,-0.38021,0.89948,0.92071
377.238,42.96857,-0.38832,0.91038,0.92039
377.738,43.01716,-0.39722,0.92196,0.92006
378.238,43.06544,-0.40497,0.93591,0.91973
378.738,43.1143,-0.41366,0.94866,0.91941
379.238,43.16322,-0.42289,0.9622,0.91908
379.738,43.212,-0.43059,0.97744,0.91875
380.238,43.26103,-0.43817,0.98977,0.91842
380.738,43.30958,-0.44765,1.00606,0.9181
381.238,43.3581,-0.45812,1.02148,0.91777
381.738,43.40674,-0.46778,1.03074,0.91744
382.238,43.45544,-0.47762,1.04796,0.91711
382.738,43.50399,-0.48826,1.06516,0.91678
383.238,43.55258,-0.49921,1.08139,0.91645
383.738,43.6012,-0.50843,1.1028,0.91612
384.238,43.64983,-0.51769,1.12333,0.91579
384.738,43.69851,-0.52911,1.14525,0.91546
385.238,43.74705,-0.54145,1.16128,0.91513
385.738,43.79571,-0.55348,1.1861,0.9148
386.238,43.84449,-0.56516,1.20772,0.91447
386.738,43.89308,-0.57892,1.22963,0.91414
387.238,43.94192,-0.59161,1.25571,0.91381
387.738,43.99074,-0.60491,1.27876,0.91347
388.238,44.03951,-0.61869,1.30124,0.91314
388.738,44.0884,-0.63346,1.32778,0.91281
389.238,44.13718,-0.64835,1.35506,0.91247
389.738,44.186,-0.66234,1.37848,0.91214
390.238,44.23483,-0.67694,1.41117,0.91181
390.738,44.28371,-0.69352,1.43565,0.91147
391.238,44.33262,-0.7115,1.46657,0.91114
391.738,44.3814,-0.72763,1.49831,0.91081
392.238,44.43,-0.74488,1.52835,0.91047
392.738,44.4788,-0.76298,1.56244,0.91014
393.238,44.52756,-0.78276,1.5939,0.9098
393.738,44.5764,-0.80068,1.62134,0.90946
394.238,44.6254,-0.82002,1.65493,0.90913
394.738,44.67432,-0.84049,1.69023,0.90879
395.238,44.72313,-0.86062,1.7272,0.90845
395.738,44.77196,-0.88138,1.76148,0.90812
396.238,44.82103,-0.90258,1.80021,0.90778
396.738,44.86992,-0.92489,1.83883,0.90744
397.238,44.91888,-0.94803,1.87444,0.90711
397.738,44.9679,-0.97182,1.91456,0.90677
398.238,45.01672,-0.99513,1.95481,0.90643
398.738,45.06563,-1.01956,1.99455,0.90609
399.238,45.11462,-1.04468,2.03715,0.90575
399.738,45.1635,-1.07191,2.08944,0.90541
400.238,45.21268,-1.09879,2.12396,0.90507
400.738,45.2619,-1.12632,2.16739,0.90473
401.238,45.311,-1.15415,2.20928,0.90439
401.738,45.3603,-1.1828,2.25448,0.90405
402.238,45.4096,-1.21583,2.30498,0.90371
402.738,45.45882,-1.24457,2.35088,0.90337
403.238,45.50782,-1.27566,2.39816,0.90303
403.738,45.55686,-1.3062,2.44485,0.90269
404.238,45.606,-1.34085,2.49158,0.90234
404.738,45.655,-1.37439,2.5359,0.902
405.238,45.70436,-1.40795,2.5812,0.90166
405.738,45.75357,-1.44308,2.64293,0.90132
406.238,45.8027,-1.48037,2.69226,0.90097
406.738,45.85187,-1.51834,2.74096,0.90063
407.238,45.90102,-1.55629,2.779,0.90029
407.738,45.9501,-1.59412,2.82196,0.89994
408.238,45.99935,-1.63352,2.86298,0.8996
408.738,46.0486,-1.67516,2.90354,0.89925
409.238,46.09791,-1.71478,2.94748,0.89891
409.738,46.14723,-1.75472,2.99268,0.89856
410.238,46.19641,-1.79674,3.03064,0.89822
410.738,46.24558,-1.84043,3.07582,0.89787
411.238,46.29483,-1.88374,3.10685,0.89752
411.738,46.3439,-1.92651,3.14328,0.89718
412.238,46.39311,-1.97092,3.17444,0.89683
412.738,46.44236,-2.01676,3.19558,0.89648
413.238,46.4914,-2.06316,3.21997,0.89614
413.738,46.5405,-2.10757,3.24577,0.89579
414.238,46.5896,-2.15346,3.27363,0.89544
414.738,46.63859,-2.19955,3.28218,0.89509
415.238,46.6875,-2.24765,3.30186,0.89474
415.738,46.73665,-2.29486,3.31787,0.89439
416.238,46.78573,-2.34086,3.3462,0.89405
416.738,46.8346,-2.38858,3.35268,0.8937
417.238,46.88353,-2.43791,3.36059,0.89335
417.738,46.93237,-2.48672,3.3592,0.893
418.238,46.98124,-2.53394,3.35079,0.89265
418.738,47.03007,-2.58052,3.33524,0.89229
419.238,47.07897,-2.62848,3.31277,0.89194
419.738,47.12778,-2.67736,3.28849,0.89159
420.238,47.17645,-2.72491,3.26001,0.89124
420.738,47.22504,-2.76994,3.22989,0.89089
421.238,47.2737,-2.81614,3.18982,0.89054
421.738,47.32213,-2.86219,3.1435,0.89018
422.238,47.37065,-2.90843,3.09744,0.88983
422.738,47.41899,-2.95133,3.04162,0.88948
423.238,47.4673,-2.99419,2.98173,0.88913
423.738,47.51582,-3.03617,2.93191,0.88877
424.238,47.56407,-3.07798,2.87435,0.88842
424.738,47.6124,-3.11911,2.81244,0.88806
425.238,47.66072,-3.15787,2.7524,0.88771
425.738,47.70898,-3.19674,2.67721,0.88736
426.238,47.7573,-3.23723,2.59934,0.887
426.738,47.80545,-3.27382,2.5174,0.88664
427.238,47.85388,-3.30924,2.43124,0.88629
427.738,47.90215,-3.34188,2.34552,0.88593
428.238,47.95,-3.37464,2.26007,0.88558
428.738,47.99817,-3.4076,2.17349,0.88522
429.238,48.0461,-3.43942,2.08334,0.88486
429.738,48.09425,-3.46842,1.98858,0.88451
430.238,48.1423,-3.49673,1.89665,0.88415
430.738,48.1905,-3.52367,1.80262,0.88379
431.238,48.2385,-3.54841,1.71308,0.88343
431.738,48.2864,-3.57308,1.62483,0.88308
432.238,48.3345,-3.59573,1.53732,0.88272
432.738,48.38247,-3.61654,1.45227,0.88236
433.238,48.43039,-3.63707,1.37139,0.882
433.738,48.47834,-3.65719,1.29141,0.88164
434.238,48.52626,-3.67628,1.21396,0.88128
434.738,48.5743,-3.69294,1.14048,0.88092
435.238,48.62216,-3.70742,1.06802,0.88056
435.738,48.67013,-3.72236,1.0003,0.8802
436.238,48.71813,-3.73728,0.93393,0.87984
436.738,48.76618,-3.75047,0.8726,0.87948
437.238,48.81423,-3.76462,0.81517,0.87911
437.738,48.8624,-3.7758,0.75799,0.87875
438.238,48.91049,-3.78633,0.70804,0.87839
438.738,48.9587,-3.79518,0.65629,0.87803
439.238,49.00683,-3.80484,0.61153,0.87767
439.738,49.05475,-3.81397,0.57054,0.8773
440.238,49.10272,-3.82269,0.52891,0.87694
440.738,49.1506,-3.83109,0.49271,0.87658
441.238,49.19846,-3.83912,0.45912,0.87621
441.738,49.24641,-3.84612,0.42442,0.87585
442.238,49.29446,-3.85276,0.39757,0.87548
442.738,49.34261,-3.85902,0.36803,0.87512
443.238,49.39052,-3.86346,0.34196,0.87475
443.738,49.43858,-3.86998,0.31884,0.87439
444.238,49.48661,-3.87444,0.29853,0.87402
444.738,49.53513,-3.87961,0.27861,0.87366
445.238,49.58393,-3.88466,0.25702,0.87329
445.738,49.6329,-3.88845,0.23646,0.87293
446.238,49.68195,-3.89282,0.2202,0.87256
446.738,49.73061,-3.8964,0.20596,0.87219
447.238,49.77922,-3.89975,0.18867,0.87183
447.738,49.82809,-3.9017,0.17542,0.87146
448.238,49.87724,-3.9052,0.16351,0.87109
448.738,49.92637,-3.90782,0.1504,0.87072
449.238,49.97554,-3.91201,0.13765,0.87035
449.738,50.02454,-3.9138,0.12684,0.86998
450.238,50.07331,-3.91618,0.11632,0.86962
450.738,50.12208,-3.91856,0.10716,0.86925
451.238,50.17083,-3.92048,0.10136,0.86888
451.738,50.21973,-3.92331,0.09183629,0.86851
452.238,50.2686,-3.9246,0.08445786,0.86814
452.738,50.31736,-3.92659,0.07686064,0.86777
453.238,50.3662,-3.92919,0.0691497,0.8674
453.738,50.41489,-3.93049,0.06178801,0.86703
454.238,50.46378,-3.93175,0.05472284,0.86665
454.738,50.5127,-3.93312,0.04799751,0.86628
455.238,50.5617,-3.93448,0.04447662,0.86591
455.738,50.61063,-3.9372,0.03857676,0.86554
456.238,50.6595,-3.93717,0.0350627,0.86517
456.738,50.70835,-3.93847,0.02920295,0.86479
457.238,50.75741,-3.93772,0.02548104,0.86442
457.738,50.8064,-3.93904,0.02168308,0.86405
458.238,50.85536,-3.94075,0.01822616,0.86367
458.738,50.90421,-3.9417,0.01366054,0.8633
459.238,50.95303,-3.94309,0.01129633,0.86293
459.738,51.002,-3.94439,0.00607979,0.86255
460.238,51.05087,-3.94439,0.00176536,0.86218
460.738,51.09988,-3.9454,0.0006734505,0.8618
461.238,51.14907,-3.94672,-0.004626246,0.86143
461.738,51.19809,-3.94559,-0.007047749,0.86105
462.238,51.2473,-3.94672,-0.01070625,0.86068
462.738,51.29655,-3.94672,-0.01402874,0.8603
463.238,51.34559,-3.94811,-0.01993722,0.85992
463.738,51.3946,-3.94803,-0.02219471,0.85955
464.238,51.44368,-3.94821,-0.02510669,0.85917
464.738,51.49268,-3.94935,-0.02954715,0.85879
465.238,51.5418,-3.94935,-0.03277946,0.85842
465.738,51.59091,-3.94935,-0.0329478,0.85804
466.238,51.64004,-3.94935,-0.03598507,0.85766
466.738,51.6887,-3.94935,-0.03523845,0.85728
467.238,51.73768,-3.94805,-0.0359493,0.8569
467.738,51.78683,-3.94803,-0.03656501,0.85652
468.238,51.83585,-3.94803,-0.03709025,0.85615
468.738,51.88527,-3.94803,-0.03494492,0.85577
469.238,51.9345,-3.94854,-0.03417104,0.85539
469.738,51.98362,-3.94868,-0.03251356,0.85501
470.238,52.03283,-3.94968,-0.03123449,0.85463
470.738,52.08208,-3.94968,-0.03216261,0.85425
471.238,52.1313,-3.94968,-0.03236826,0.85386
471.738,52.18022,-3.94968,-0.03032951,0.85348
472.238,52.2292,-3.94968,-0.03118025,0.8531
472.738,52.27838,-3.94968,-0.03238409,0.85272
473.238,52.32763,-3.94968,-0.03140805,0.85234
473.738,52.37689,-3.94968,-0.02934332,0.85196
474.238,52.42641,-3.95,-0.02917768,0.85157
474.738,52.47538,-3.95001,-0.03080825,0.85119
475.238,52.52445,-3.95001,-0.03154171,0.85081
475.738,52.5732,-3.95001,-0.02930874,0.85043
476.238,52.62225,-3.95001,-0.02964945,0.85004
476.738,52.6717,-3.95034,-0.02951832,0.84966
477.238,52.72093,-3.95034,-0.02983902,0.84927
477.738,52.7705,-3.94899,-0.03118908,0.84889
478.238,52.8199,-3.94902,-0.03049177,0.84851
478.738,52.8689,-3.94902,-0.02868732,0.84812
479.238,52.9181,-3.94983,-0.03066309,0.84774
479.738,52.9673,-3.95034,-0.03079903,0.84735
480.238,53.01664,-3.94995,-0.03123431,0.84696
480.738,53.0659,-3.94902,-0.03121281,0.84658
481.238,53.11521,-3.94902,-0.03098593,0.84619
481.738,53.16446,-3.94902,-0.03011534,0.84581
482.238,53.2137,-3.94902,-0.03129487,0.84542
482.738,53.263,-3.94902,-0.03304392,0.84503
483.238,53.3122,-3.94902,-0.03278676,0.84464
483.738,53.3616,-3.94999,-0.03278085,0.84426
484.238,53.4108,-3.95067,-0.03250002,0.84387
484.738,53.46003,-3.95067,-0.03432197,0.84348
485.238,53.5093,-3.95067,-0.03824565,0.84309
485.738,53.55856,-3.95096,-0.03996248,0.8427
486.238,53.6078,-3.9517,-0.03919849,0.84231
486.738,53.6571,-3.95165,-0.04021006,0.84192
487.238,53.7065,-3.95164,-0.03934332,0.84154
487.738,53.75583,-3.95262,-0.04051291,0.84115
488.238,53.80529,-3.95264,-0.04073479,0.84076
488.738,53.8546,-3.95273,-0.041758,0.84037
489.238,53.9039,-3.95133,-0.0430288,0.83997
489.738,53.95304,-3.95133,-0.0425536,0.83958
490.238,54.0025,-3.95133,-0.04317817,0.83919
490.738,54.0518,-3.95213,-0.04319849,0.8388
491.238,54.10122,-3.95264,-0.04429534,0.83841
491.738,54.15061,-3.95133,-0.04406357,0.83802
492.238,54.1998,-3.95133,-0.04304058,0.83763
492.738,54.2492,-3.95167,-0.04274932,0.83723
493.238,54.29845,-3.95166,-0.04225136,0.83684
493.738,54.34775,-3.95235,-0.04214526,0.83645
494.238,54.3972,-3.95264,-0.04403472,0.83605
494.738,54.44645,-3.95265,-0.04455798,0.83566
495.238,54.49589,-3.95265,-0.04459753,0.83527
495.738,54.5453,-3.95265,-0.0450069,0.83487
496.238,54.59455,-3.95265,-0.04317771,0.83448
496.738,54.64399,-3.95265,-0.04279002,0.83408
497.238,54.69327,-3.95265,-0.0427873,0.83369
497.738,54.7426,-3.95265,-0.04436526,0.83329
498.238,54.792,-3.95257,-0.04363645,0.8329
498.738,54.84126,-3.95133,-0.04445846,0.8325
499.238,54.89054,-3.95133,-0.04604456,0.83211
499.738,54.9398,-3.95265,-0.04406294,0.83171
500.238,54.98901,-3.9524,-0.04644808,0.83131
500.738,55.0381,-3.95133,-0.04627547,0.83092
501.238,55.0875,-3.95159,-0.04790624,0.83052
501.738,55.13646,-3.95237,-0.04587364,0.83012
502.238,55.1857,-3.95232,-0.04444402,0.82973
502.738,55.23514,-3.95232,-0.04501632,0.82933
503.238,55.2845,-3.95232,-0.04343499,0.82893
503.738,55.33419,-3.95123,-0.04482346,0.82853
504.238,55.38358,-3.95232,-0.04524355,0.82813
504.738,55.4328,-3.95232,-0.04643422,0.82773
505.238,55.48225,-3.95232,-0.04746477,0.82733
505.738,55.5316,-3.95303,-0.0472314,0.82694
506.238,55.581,-3.95298,-0.04671585,0.82654
506.738,55.63054,-3.95296,-0.04709144,0.82614
507.238,55.6798,-3.95232,-0.04875086,0.82574
507.738,55.72948,-3.95232,-0.04644313,0.82534
508.238,55.779,-3.95232,-0.04595177,0.82493
508.738,55.82846,-3.95232,-0.04718687,0.82453
509.238,55.87823,-3.95178,-0.04681835,0.82413
509.738,55.92751,-3.95231,-0.0473162,0.82373
510.238,55.977,-3.95232,-0.04562716,0.82333
510.738,56.0266,-3.95232,-0.04712474,0.82293
511.238,56.07586,-3.95232,-0.04878057,0.82252
511.738,56.12546,-3.9523,-0.04956396,0.82212
512.238,56.175,-3.95427,-0.05027184,0.82172
512.738,56.2246,-3.95348,-0.04911261,0.82132
513.238,56.27449,-3.95297,-0.04954697,0.82091
513.738,56.3241,-3.95297,-0.05013755,0.82051
514.238,56.37375,-3.95297,-0.05066015,0.82011
514.738,56.42326,-3.95297,-0.05200086,0.8197
515.238,56.4729,-3.95297,-0.05037242,0.8193
515.738,56.52247,-3.95297,-0.05060839,0.81889
516.238,56.57195,-3.95297,-0.05189481,0.81849
516.738,56.6215,-3.95297,-0.05054114,0.81808
517.238,56.67097,-3.95297,-0.05283178,0.81768
517.738,56.72055,-3.95297,-0.05181591,0.81727
518.238,56.76996,-3.95297,-0.05092619,0.81687
518.738,56.8193,-3.95297,-0.05118006,0.81646
519.238,56.8689,-3.95263,-0.05028923,0.81605
519.738,56.9187,-3.95264,-0.05117577,0.81565
520.238,56.96845,-3.95264,-0.05079995,0.81524
520.738,57.01854,-3.95395,-0.05165036,0.81483
521.238,57.0681,-3.95396,-0.05144016,0.81443
521.738,57.1176,-3.95396,-0.0518203,0.81402
522.238,57.1671,-3.95393,-0.050865,0.81361
522.738,57.2166,-3.95296,-0.05198948,0.8132
523.238,57.26622,-3.95301,-0.0544843,0.8128
523.738,57.3159,-3.95264,-0.05373588,0.81239
524.238,57.3656,-3.95368,-0.0546911,0.81198
524.738,57.4153,-3.95363,-0.05294378,0.81157
525.238,57.46495,-3.95364,-0.05177213,0.81116
525.738,57.5146,-3.9523,-0.05373743,0.81075
526.238,57.56415,-3.95231,-0.05220299,0.81034
526.738,57.61359,-3.95214,-0.05183813,0.80993
527.238,57.6631,-3.95099,-0.05162738,0.80952
527.738,57.71255,-3.95215,-0.05191457,0.80911
528.238,57.76203,-3.95231,-0.05076075,0.8087
528.738,57.8117,-3.95331,-0.05367832,0.80829
529.238,57.86135,-3.9533,-0.05302292,0.80788
529.738,57.9108,-3.9533,-0.05171111,0.80746
530.238,57.9603,-3.9533,-0.05059228,0.80705
530.738,58.0099,-3.95331,-0.05179934,0.80664
531.238,58.05933,-3.95198,-0.05353358,0.80623
531.738,58.10889,-3.95265,-0.05227955,0.80582
532.238,58.1584,-3.95264,-0.05421286,0.8054
532.738,58.2079,-3.95264,-0.05549875,0.80499
533.238,58.25756,-3.95351,-0.05478353,0.80458
533.738,58.30681,-3.95363,-0.05407443,0.80416
534.238,58.35634,-3.95363,-0.05421066,0.80375
534.738,58.40585,-3.95379,-0.05373241,0.80333
535.238,58.4555,-3.95426,-0.0519218,0.80292
535.738,58.5052,-3.95298,-0.05212976,0.80251
536.238,58.5551,-3.95298,-0.05009504,0.80209
536.738,58.6048,-3.95298,-0.05245055,0.80168
537.238,58.65446,-3.95298,-0.05144572,0.80126
537.738,58.70406,-3.95331,-0.05003365,0.80085
538.238,58.7537,-3.95396,-0.05221833,0.80043
538.738,58.8032,-3.95397,-0.05162819,0.80001
539.238,58.85265,-3.95397,-0.05166363,0.7996
539.738,58.90217,-3.95397,-0.05328191,0.79918
540.238,58.95165,-3.95397,-0.05293616,0.79876
540.738,59.00115,-3.95325,-0.05211146,0.79835
541.238,59.0508,-3.95331,-0.05243228,0.79793
541.738,59.10026,-3.95331,-0.05263952,0.79751
542.238,59.14975,-3.95331,-0.05316799,0.7971
542.738,59.1993,-3.95331,-0.0532603,0.79668
543.238,59.2487,-3.95331,-0.053759,0.79626
543.738,59.29812,-3.95331,-0.05473561,0.79584
544.238,59.34729,-3.95441,-0.0545466,0.79542
544.738,59.397,-3.95462,-0.05564093,0.795
545.238,59.4466,-3.95462,-0.05562479,0.79458
545.738,59.49631,-3.95462,-0.05385021,0.79417
546.238,59.5461,-3.95435,-0.05469852,0.79375
546.738,59.5957,-3.95298,-0.05361414,0.79333
547.238,59.6453,-3.95405,-0.05519018,0.79291
547.738,59.69474,-3.95429,-0.05321507,0.79249
548.238,59.74435,-3.95429,-0.05377703,0.79206
548.738,59.794,-3.95429,-0.05343457,0.79164
549.238,59.84339,-3.95429,-0.05490671,0.79122
549.738,59.89301,-3.95296,-0.05329683,0.7908
550.238,59.9426,-3.95297,-0.05544213,0.79038
550.738,59.99267,-3.95297,-0.05623277,0.78996