File: 01_Data/Bean_Bag_Chair_Beads/STA/N2/10K_min/Bean_Bag_PS_Beads_STA_N2_10KData_220516_R1.csv
##Temp./Â°C,Time/min,Mass loss(subtr.2)/mg,DSC(subtr.2)/(mW/mg),Sensit./(uV/mW)
49.71,10.00917,0.01514,0.0237638,1.07018
50.41,10.77299,0.01498607,0.07583349,1.06998
51.11,10.97521,0.01487782,0.10963,1.06979
51.81,11.1267,0.01717661,0.13595,1.0696
52.51,11.2561,0.01632992,0.15846,1.0694
53.21,11.37167,0.01603778,0.18018,1.06921
53.91,11.47708,0.01477032,0.19396,1.06901
54.61,11.57674,0.01474202,0.2114,1.06882
55.31,11.67203,0.01462141,0.22205,1.06862
56.01,11.76339,0.01595214,0.23364,1.06843
56.71,11.8519,0.01639,0.24165,1.06823
57.41,11.9381,0.01644176,0.25266,1.06803
58.11,12.02243,0.01777544,0.26011,1.06784
58.81,12.10535,0.01719682,0.2647,1.06764
59.51,12.1869,0.01794983,0.27067,1.06744
60.21,12.26652,0.01797112,0.27498,1.06724
60.91,12.34487,0.01785593,0.28109,1.06704
61.61,12.42264,0.01711849,0.28483,1.06684
62.31,12.50031,0.01721254,0.2913,1.06664
63.01,12.57874,0.01525011,0.29272,1.06644
63.71,12.65685,0.01517013,0.29676,1.06623
64.41,12.73472,0.01657012,0.29811,1.06603
65.11,12.8114,0.01789917,0.30196,1.06583
65.81,12.88728,0.01775472,0.30507,1.06562
66.51,12.96299,0.01794131,0.30818,1.06542
67.21,13.0383,0.01784699,0.31137,1.06522
67.91,13.11381,0.01782716,0.31331,1.06501
68.61,13.18861,0.01789499,0.31688,1.06481
69.31,13.26305,0.01807854,0.31883,1.0646
70.01,13.3367,0.01921136,0.32134,1.06439
70.71,13.41109,0.01921097,0.32332,1.06419
71.41,13.48562,0.01920672,0.32552,1.06398
72.11,13.5606,0.01811437,0.32848,1.06377
72.81,13.6342,0.01914836,0.33098,1.06356
73.51,13.7079,0.01788966,0.33434,1.06335
74.21,13.7814,0.01788235,0.3364,1.06314
74.91,13.85489,0.01883581,0.33796,1.06293
75.61,13.92775,0.0191555,0.3391,1.06272
76.31,14.00061,0.01790358,0.34154,1.06251
77.01,14.07345,0.0169492,0.34335,1.0623
77.71,14.14621,0.01788814,0.34724,1.06209
78.41,14.21884,0.01788872,0.3503,1.06187
79.11,14.2908,0.0165877,0.35424,1.06166
79.81,14.3626,0.01789064,0.35678,1.06145
80.51,14.4345,0.01918669,0.35874,1.06123
81.21,14.5061,0.01920988,0.36072,1.06102
81.91,14.578,0.01786716,0.36484,1.0608
82.61,14.64984,0.01849406,0.36613,1.06059
83.31,14.72122,0.019061,0.36474,1.06037
84.01,14.7925,0.01789126,0.36737,1.06015
84.71,14.8635,0.0191984,0.36523,1.05994
85.41,14.93508,0.0178844,0.36309,1.05972
86.11,15.0058,0.01789,0.36216,1.0595
86.81,15.0764,0.01789,0.35915,1.05928
87.51,15.14659,0.01787698,0.35814,1.05906
88.21,15.2171,0.01773198,0.35916,1.05884
88.91,15.28718,0.01788695,0.35627,1.05862
89.61,15.3576,0.01788376,0.35589,1.0584
90.31,15.4276,0.01791792,0.35713,1.05818
91.01,15.49741,0.01789,0.35919,1.05796
91.71,15.56701,0.01789,0.35912,1.05774
92.41,15.6368,0.01787751,0.36023,1.05751
93.11,15.7066,0.01730395,0.3624,1.05729
93.81,15.7761,0.01650979,0.36336,1.05706
94.51,15.84515,0.0178956,0.36568,1.05684
95.21,15.9145,0.01788763,0.37,1.05661
95.91,15.98337,0.01788864,0.37307,1.05639
96.61,16.0527,0.01788001,0.37532,1.05616
97.31,16.12177,0.01782926,0.37778,1.05594
98.01,16.19129,0.01924044,0.3825,1.05571
98.71,16.26049,0.01897861,0.38509,1.05548
99.41,16.32945,0.01788925,0.39066,1.05525
100.11,16.39835,0.01692029,0.39523,1.05502
100.81,16.4668,0.01694177,0.39953,1.0548
101.51,16.5354,0.01680643,0.40329,1.05457
102.21,16.60387,0.01715364,0.41021,1.05434
102.91,16.67259,0.01843858,0.41619,1.0541
103.61,16.7414,0.01713133,0.42079,1.05387
104.31,16.80994,0.01712901,0.42829,1.05364
105.01,16.87864,0.01715318,0.43167,1.05341
105.71,16.9471,0.01712031,0.43639,1.05318
106.41,17.01582,0.01706748,0.43729,1.05294
107.11,17.0844,0.01712001,0.44032,1.05271
107.81,17.1528,0.01712491,0.44258,1.05247
108.51,17.22105,0.01578044,0.44365,1.05224
109.21,17.28932,0.01712002,0.44577,1.052
109.91,17.35755,0.01724882,0.44653,1.05177
110.61,17.42585,0.0171275,0.44721,1.05153
111.31,17.49418,0.0180952,0.45008,1.05129
112.01,17.5628,0.01793865,0.45067,1.05106
112.71,17.6313,0.01792793,0.45039,1.05082
113.41,17.69964,0.01810999,0.4509,1.05058
114.11,17.76792,0.01844835,0.4531,1.05034
114.81,17.83626,0.01942038,0.45484,1.0501
115.51,17.90472,0.01942824,0.45585,1.04986
116.21,17.9729,0.01811189,0.45676,1.04962
116.91,18.04082,0.0181094,0.4579,1.04938
117.61,18.1092,0.01679,0.45803,1.04913
118.31,18.17755,0.0167851,0.45876,1.04889
119.01,18.24596,0.01811058,0.45781,1.04865
119.71,18.31428,0.01674166,0.46074,1.04841
120.41,18.38224,0.01684916,0.46161,1.04816
121.11,18.4502,0.01622601,0.46314,1.04792
121.81,18.51802,0.01678999,0.4628,1.04767
122.51,18.58607,0.01678764,0.46536,1.04743
123.21,18.6544,0.01679792,0.46491,1.04718
123.91,18.72261,0.01679,0.46649,1.04693
124.61,18.79035,0.01679,0.46921,1.04669
125.31,18.8584,0.01679146,0.46843,1.04644
126.01,18.92623,0.01546778,0.46959,1.04619
126.71,18.9943,0.01547,0.46981,1.04594
127.41,19.06213,0.01549426,0.46907,1.04569
128.11,19.1298,0.01678996,0.47067,1.04544
128.81,19.19742,0.01730489,0.47254,1.04519
129.51,19.26482,0.01810994,0.47601,1.04494
130.21,19.33247,0.0181099,0.47659,1.04469
130.91,19.3997,0.01679812,0.47571,1.04444
131.61,19.46734,0.0159824,0.47603,1.04418
132.31,19.53503,0.01547997,0.47805,1.04393
133.01,19.60305,0.01582291,0.47773,1.04368
133.71,19.6709,0.01678999,0.47848,1.04342
134.41,19.7381,0.01679,0.48023,1.04317
135.11,19.80513,0.01669148,0.48,1.04291
135.81,19.87226,0.01543737,0.48224,1.04266
136.51,19.93948,0.01711837,0.48192,1.0424
137.21,20.00692,0.01712023,0.48423,1.04214
137.91,20.0742,0.0157523,0.48386,1.04189
138.61,20.1417,0.0164511,0.48337,1.04163
139.31,20.2098,0.01709881,0.48457,1.04137
140.01,20.27754,0.01579992,0.48502,1.04111
140.71,20.34555,0.0158,0.48754,1.04085
141.41,20.4127,0.0158,0.48592,1.04059
142.11,20.47963,0.01579799,0.48709,1.04033
142.81,20.54651,0.01448983,0.48891,1.04007
143.51,20.61413,0.01521657,0.49144,1.03981
144.21,20.682,0.01461735,0.49098,1.03954
144.91,20.74987,0.01449,0.48948,1.03928
145.61,20.81707,0.01449,0.49036,1.03902
146.31,20.8844,0.01451622,0.49131,1.03875
147.01,20.95168,0.01513818,0.49171,1.03849
147.71,21.01898,0.01514,0.49099,1.03822
148.41,21.08626,0.01514003,0.49255,1.03796
149.11,21.1533,0.01487382,0.49247,1.03769
149.81,21.22035,0.01580027,0.49282,1.03743
150.51,21.28751,0.01579234,0.4932,1.03716
151.21,21.3549,0.01448369,0.49363,1.03689
151.91,21.422,0.01565291,0.49455,1.03662
152.61,21.48903,0.0158,0.49592,1.03635
153.31,21.5559,0.0158,0.49643,1.03608
154.01,21.62292,0.01579283,0.49689,1.03581
154.71,21.6901,0.0154709,0.49733,1.03554
155.41,21.75712,0.01416074,0.49751,1.03527
156.11,21.82402,0.01418613,0.49871,1.035
156.81,21.891,0.01507903,0.50087,1.03473
157.51,21.95808,0.01382995,0.49953,1.03446
158.21,22.02543,0.01383067,0.50164,1.03418
158.91,22.09251,0.0141625,0.49993,1.03391
159.61,22.15951,0.01416,0.50033,1.03364
160.31,22.22634,0.01416025,0.49976,1.03336
161.01,22.29305,0.01282702,0.5007,1.03308
161.71,22.3598,0.01414996,0.5006,1.03281
162.41,22.42691,0.01415003,0.49979,1.03253
163.11,22.49405,0.01275007,0.50203,1.03226
163.81,22.56136,0.0128432,0.50006,1.03198
164.51,22.62859,0.01153303,0.50128,1.0317
165.21,22.69556,0.01185203,0.50275,1.03142
165.91,22.76259,0.01315816,0.5049,1.03114
166.61,22.82958,0.01316,0.50204,1.03086
167.31,22.89676,0.01315671,0.50336,1.03058
168.01,22.964,0.01365558,0.5038,1.0303
168.71,23.03102,0.01316961,0.50404,1.03002
169.41,23.09802,0.01183803,0.50552,1.02974
170.11,23.16481,0.01193433,0.50633,1.02945
170.81,23.2314,0.0118408,0.50491,1.02917
171.51,23.2984,0.01184925,0.508,1.02889
172.21,23.36506,0.01256692,0.50915,1.0286
172.91,23.4322,0.01187882,0.50806,1.02832
173.61,23.499,0.01119005,0.50914,1.02803
174.31,23.56617,0.01143201,0.51029,1.02775
175.01,23.63243,0.01053007,0.50938,1.02746
175.71,23.6993,0.01053,0.51347,1.02717
176.41,23.76611,0.01053,0.5137,1.02688
177.11,23.83354,0.01048542,0.51549,1.0266
177.81,23.90042,0.01185016,0.51669,1.02631
178.51,23.9674,0.01185,0.51895,1.02602
179.21,24.03428,0.01185645,0.52097,1.02573
179.91,24.1012,0.01053957,0.52371,1.02544
180.61,24.16793,0.01053999,0.52405,1.02515
181.31,24.2343,0.01063163,0.5263,1.02486
182.01,24.30101,0.00921997,0.52884,1.02456
182.71,24.36756,0.009220005,0.5329,1.02427
183.41,24.43451,0.00916004,0.53382,1.02398
184.11,24.50113,0.01019863,0.53555,1.02368
184.81,24.56802,0.01151715,0.5382,1.02339
185.51,24.63492,0.01097298,0.54016,1.02309
186.21,24.70174,0.01020001,0.54195,1.0228
186.91,24.7684,0.0102,0.54455,1.0225
187.61,24.83509,0.01019982,0.54877,1.02221
188.31,24.90169,0.01052143,0.5483,1.02191
189.01,24.9683,0.01053164,0.5497,1.02161
189.71,25.0351,0.01029267,0.55202,1.02131
190.41,25.102,0.01053016,0.55431,1.02101
191.11,25.169,0.01053,0.55614,1.02072
191.81,25.23593,0.01052993,0.55493,1.02042
192.51,25.30258,0.009591735,0.55727,1.02011
193.21,25.36929,0.009209677,0.55829,1.01981
193.91,25.43606,0.009027835,0.55969,1.01951
194.61,25.50297,0.008890001,0.55975,1.01921
195.31,25.56987,0.008857017,0.56254,1.01891
196.01,25.63694,0.00823004,0.56155,1.0186
196.71,25.70384,0.00823,0.56362,1.0183
197.41,25.77069,0.008228041,0.56195,1.018
198.11,25.83745,0.009549368,0.56436,1.01769
198.81,25.90418,0.008689246,0.5664,1.01738
199.51,25.97081,0.008724913,0.56568,1.01708
200.21,26.03751,0.00925692,0.56739,1.01677
200.91,26.10426,0.007899755,0.57071,1.01646
201.61,26.17101,0.0079,0.57037,1.01616
202.31,26.2376,0.0079,0.57137,1.01585
203.01,26.304,0.007899999,0.57258,1.01554
203.71,26.37065,0.007901045,0.57431,1.01523
204.41,26.437,0.00658559,0.57534,1.01492
205.11,26.5039,0.00795006,0.57655,1.01461
205.81,26.5705,0.007899994,0.57823,1.0143
206.51,26.6373,0.00770279,0.57766,1.01398
207.21,26.7038,0.006557465,0.5782,1.01367
207.91,26.77042,0.005270083,0.57702,1.01336
208.61,26.83705,0.005227016,0.57809,1.01305
209.31,26.904,0.00659026,0.57748,1.01273
210.01,26.9707,0.006588003,0.57852,1.01242
210.71,27.03738,0.004741886,0.57949,1.0121
211.41,27.104,0.003948195,0.57966,1.01179
212.11,27.1708,0.003954278,0.58242,1.01147
212.81,27.23733,0.005270565,0.58325,1.01115
213.51,27.30375,0.00396332,0.58516,1.01083
214.21,27.37012,0.003949999,0.5846,1.01052
214.91,27.4367,0.00395,0.58377,1.0102
215.61,27.50357,0.003950849,0.58468,1.00988
216.31,27.5704,0.005258801,0.58535,1.00956
217.01,27.63715,0.00394861,0.58629,1.00924
217.71,27.70373,0.00467855,0.58667,1.00892
218.41,27.77038,0.004609996,0.58617,1.0086
219.11,27.83701,0.00461,0.58714,1.00827
219.81,27.9036,0.004610002,0.58783,1.00795
220.51,27.9702,0.004604887,0.58896,1.00763
221.21,28.03657,0.00329614,0.5905,1.0073
221.91,28.10325,0.00196394,0.59136,1.00698
222.61,28.1694,0.003290074,0.59217,1.00665
223.31,28.23563,0.00329,0.59237,1.00633
224.01,28.3014,0.00329,0.59404,1.006
224.71,28.3678,0.00329,0.59347,1.00567
225.41,28.4343,0.00329,0.59438,1.00535
226.11,28.5009,0.003291193,0.59657,1.00502
226.81,28.56747,0.00197455,0.59616,1.00469
227.51,28.63387,0.001969999,0.59658,1.00436
228.21,28.7005,0.001970126,0.597,1.00403
228.91,28.7673,0.000671893,0.59783,1.0037
229.61,28.8341,0.000642407,0.59879,1.00337
230.31,28.90128,2.10722e-05,0.5978,1.00304
231.01,28.96834,-0.001319849,0.59954,1.00271
231.71,29.03534,-0.00132,0.59958,1.00237
232.41,29.1017,-0.001320015,0.60113,1.00204
233.11,29.16788,-0.00136785,0.60314,1.00171
233.81,29.23443,0.0009797725,0.60331,1.00137
234.51,29.3011,0.00094963,0.60457,1.00104
235.21,29.36745,-0.001648204,0.60483,1.0007
235.91,29.43402,-0.00165,0.60647,1.00037
236.61,29.50034,-0.00165,0.60689,1.00003
237.31,29.56687,-0.00165002,0.60763,0.99969
238.01,29.6327,-0.00143158,0.60787,0.99936
238.71,29.69906,-0.0009900614,0.60905,0.99902
239.41,29.7658,-0.00295111,0.60893,0.99868
240.11,29.83298,-0.00362999,0.61111,0.99834
240.81,29.90005,-0.00363,0.60989,0.998
241.51,29.96674,-0.00363,0.61049,0.99766
242.21,30.03319,-0.00363,0.6112,0.99732
242.91,30.0995,-0.003630004,0.61187,0.99697
243.61,30.16573,-0.004008875,0.61298,0.99663
244.31,30.23231,-0.00495445,0.61389,0.99629
245.01,30.2991,-0.00363001,0.61398,0.99595
245.71,30.3664,-0.00464468,0.61668,0.9956
246.41,30.4331,-0.00566142,0.61662,0.99526
247.11,30.4998,-0.00559972,0.61785,0.99491
247.81,30.56638,-0.00593143,0.61942,0.99456
248.51,30.633,-0.00593,0.62013,0.99422
249.21,30.6997,-0.00593,0.62514,0.99387
249.91,30.7664,-0.00593,0.63128,0.99352
250.61,30.8329,-0.00593,0.64035,0.99317
251.31,30.89955,-0.00593,0.64595,0.99283
252.01,30.9662,-0.00593169,0.64139,0.99248
252.71,31.0331,-0.00724863,0.64282,0.99213
253.41,31.0997,-0.007580735,0.64185,0.99178
254.11,31.1662,-0.00758,0.64122,0.99142
254.81,31.23262,-0.007579993,0.64012,0.99107
255.51,31.29924,-0.007581199,0.63811,0.99072
256.21,31.3656,-0.00856332,0.63655,0.99037
256.91,31.432,-0.009981336,0.63324,0.99001
257.61,31.49842,-0.01022054,0.63347,0.98966
258.31,31.56509,-0.008894427,0.63137,0.9893
259.01,31.6318,-0.0089,0.62964,0.98895
259.71,31.69858,-0.008899831,0.62756,0.98859
260.41,31.7651,-0.01021689,0.62779,0.98824
261.11,31.83175,-0.01093047,0.62897,0.98788
261.81,31.89837,-0.01153002,0.62732,0.98752
262.51,31.96524,-0.01153001,0.62697,0.98716
263.21,32.03202,-0.01146911,0.6269,0.9868
263.91,32.09863,-0.01252005,0.62697,0.98644
264.61,32.16512,-0.0124684,0.62561,0.98608
265.31,32.23174,-0.01384025,0.62758,0.98572
266.01,32.29837,-0.01383997,0.62908,0.98536
266.71,32.3654,-0.01269981,0.6282,0.985
267.41,32.43185,-0.012534,0.62776,0.98464
268.11,32.49861,-0.01382471,0.63011,0.98428
268.81,32.56527,-0.01614172,0.63048,0.98391
269.51,32.63236,-0.0164845,0.62962,0.98355
270.21,32.69887,-0.01516005,0.6299,0.98318
270.91,32.76556,-0.01651756,0.6291,0.98282
271.61,32.83228,-0.01647999,0.62944,0.98245
272.31,32.89906,-0.01647968,0.63077,0.98208
273.01,32.9657,-0.01713869,0.63067,0.98172
273.71,33.03224,-0.01777153,0.63023,0.98135
274.41,33.09883,-0.01909858,0.63204,0.98098
275.11,33.1654,-0.0191,0.63172,0.98061
275.81,33.2322,-0.0191011,0.63397,0.98024
276.51,33.2989,-0.0204203,0.63238,0.97987
277.21,33.36564,-0.02042,0.63356,0.9795
277.91,33.4324,-0.02042,0.6336,0.97913
278.61,33.49923,-0.02042,0.63484,0.97876
279.31,33.56607,-0.02159961,0.63363,0.97839
280.01,33.6331,-0.02174098,0.63478,0.97801
280.71,33.69993,-0.0230722,0.63516,0.97764
281.41,33.7667,-0.02306001,0.63634,0.97726
282.11,33.83332,-0.02305822,0.63555,0.97689
282.81,33.90012,-0.02569087,0.63683,0.97651
283.51,33.96706,-0.02520148,0.63958,0.97614
284.21,34.03383,-0.0256936,0.64108,0.97576
284.91,34.1006,-0.02569734,0.63981,0.97538
285.61,34.16724,-0.02792167,0.64218,0.97501
286.31,34.23417,-0.02799763,0.64261,0.97463
287.01,34.30118,-0.02832948,0.64288,0.97425
287.71,34.3681,-0.0289018,0.64327,0.97387
288.41,34.43502,-0.02963994,0.64617,0.97349
289.11,34.50162,-0.02963987,0.64761,0.97311
289.81,34.56825,-0.03118676,0.64697,0.97273
290.51,34.63477,-0.03227311,0.64796,0.97234
291.21,34.70131,-0.03230237,0.6474,0.97196
291.91,34.76806,-0.03228004,0.65009,0.97158
292.61,34.83497,-0.03339043,0.64979,0.97119
293.31,34.9017,-0.03356876,0.65151,0.97081
294.01,34.9686,-0.03459275,0.65163,0.97043
294.71,35.03512,-0.03485813,0.65221,0.97004
295.41,35.10196,-0.0362313,0.65272,0.96965
296.11,35.16871,-0.03755056,0.65554,0.96927
296.81,35.23576,-0.03883892,0.6548,0.96888
297.51,35.30254,-0.03888757,0.6555,0.96849
298.21,35.3694,-0.04018998,0.65676,0.9681
298.91,35.43602,-0.04020183,0.65717,0.96771
299.61,35.50308,-0.04018039,0.65846,0.96732
300.31,35.57,-0.04150301,0.65895,0.96693
301.01,35.6372,-0.04330897,0.65916,0.96654
301.71,35.70427,-0.04415308,0.6608,0.96615
302.41,35.7711,-0.0459749,0.66036,0.96576
303.11,35.83801,-0.04677967,0.65995,0.96537
303.81,35.9048,-0.04809598,0.6592,0.96497
304.51,35.97128,-0.04892464,0.65897,0.96458
305.21,36.03755,-0.04941069,0.66013,0.96418
305.91,36.1038,-0.05071663,0.65937,0.96379
306.61,36.17086,-0.05073003,0.66148,0.96339
307.31,36.23774,-0.05129503,0.6621,0.963
308.01,36.30503,-0.05205206,0.66114,0.9626
308.71,36.37262,-0.05273815,0.6612,0.9622
309.41,36.44047,-0.05466942,0.66115,0.9618
310.11,36.50812,-0.05512205,0.66205,0.96141
310.81,36.57517,-0.05458265,0.66136,0.96101
311.51,36.64212,-0.05594844,0.66206,0.96061
312.21,36.70899,-0.05797746,0.66331,0.96021
312.91,36.77606,-0.05902146,0.66492,0.9598
313.61,36.84323,-0.06126889,0.66383,0.9594
314.31,36.9106,-0.06123527,0.66492,0.959
315.01,36.97772,-0.062605,0.66535,0.9586
315.71,37.04481,-0.063888,0.66738,0.95819
316.41,37.11185,-0.06413701,0.67047,0.95779
317.11,37.17881,-0.06620041,0.67019,0.95738
317.81,37.24604,-0.06751697,0.67212,0.95698
318.51,37.31326,-0.06620342,0.67417,0.95657
319.21,37.3805,-0.06751856,0.67593,0.95617
319.91,37.4475,-0.06884062,0.67844,0.95576
320.61,37.5146,-0.07081536,0.67726,0.95535
321.31,37.5818,-0.0726336,0.67928,0.95494
322.01,37.64904,-0.07278317,0.68178,0.95453
322.71,37.7162,-0.07419149,0.68235,0.95413
323.41,37.78332,-0.07280554,0.6825,0.95372
324.11,37.85031,-0.07617538,0.68555,0.9533
324.81,37.9174,-0.07694381,0.68577,0.95289
325.51,37.98469,-0.07866307,0.68775,0.95248
326.21,38.052,-0.08081504,0.68883,0.95207
326.91,38.11942,-0.08202528,0.69123,0.95166
327.61,38.18674,-0.08332382,0.69095,0.95124
328.31,38.25391,-0.0845918,0.69455,0.95083
329.01,38.3212,-0.08547163,0.69403,0.95041
329.71,38.3885,-0.08595733,0.69901,0.95
330.41,38.45582,-0.08972325,0.70078,0.94958
331.11,38.52264,-0.09133775,0.70222,0.94916
331.81,38.5895,-0.09266145,0.70358,0.94875
332.51,38.65683,-0.09321812,0.70731,0.94833
333.21,38.7246,-0.0943805,0.70817,0.94791
333.91,38.79242,-0.09541118,0.7122,0.94749
334.61,38.8599,-0.09671254,0.71495,0.94707
335.31,38.9271,-0.0992868,0.7122,0.94665
336.01,38.99437,-0.10211,0.71523,0.94623
336.71,39.0616,-0.10484,0.71754,0.94581
337.41,39.12911,-0.10485,0.72068,0.94539
338.11,39.19628,-0.10631,0.72233,0.94496
338.81,39.26362,-0.10882,0.7263,0.94454
339.51,39.33104,-0.11167,0.72765,0.94412
340.21,39.39855,-0.11297,0.72922,0.94369
340.91,39.4658,-0.11339,0.73262,0.94327
341.61,39.53295,-0.11598,0.73554,0.94284
342.31,39.60054,-0.11745,0.7375,0.94242
343.01,39.6682,-0.12019,0.74015,0.94199
343.71,39.73568,-0.12294,0.74489,0.94156
344.41,39.80308,-0.12527,0.74748,0.94113
345.11,39.8707,-0.12781,0.75072,0.9407
345.81,39.93877,-0.13064,0.75464,0.94027
346.51,40.00678,-0.1336,0.75734,0.93984
347.21,40.07462,-0.13617,0.76047,0.93941
347.91,40.14213,-0.13917,0.76618,0.93898
348.61,40.20969,-0.14206,0.77021,0.93855
349.31,40.27721,-0.14422,0.77442,0.93812
350.01,40.34489,-0.14701,0.7773,0.93769
350.71,40.41251,-0.14976,0.78159,0.93725
351.41,40.4801,-0.15307,0.78552,0.93682
352.11,40.54769,-0.1569,0.78899,0.93638
352.81,40.61528,-0.16143,0.79417,0.93595
353.51,40.68295,-0.16455,0.80027,0.93551
354.21,40.7507,-0.16685,0.80405,0.93508
354.91,40.81842,-0.17119,0.80821,0.93464
355.61,40.8859,-0.17447,0.81374,0.9342
356.31,40.95335,-0.17801,0.81857,0.93376
357.01,41.021,-0.18157,0.82713,0.93332
357.71,41.08876,-0.18597,0.83267,0.93289
358.41,41.15655,-0.18919,0.83834,0.93244
359.11,41.2241,-0.19402,0.84585,0.932
359.81,41.29163,-0.19849,0.84956,0.93156
360.51,41.35925,-0.203,0.85708,0.93112
361.21,41.42694,-0.20764,0.86461,0.93068
361.91,41.49473,-0.21318,0.87445,0.93024
362.61,41.56259,-0.21776,0.88263,0.92979
363.31,41.63044,-0.22429,0.88972,0.92935
364.01,41.698,-0.23012,0.89929,0.9289
364.71,41.76562,-0.23568,0.90686,0.92846
365.41,41.83332,-0.24142,0.9178,0.92801
366.11,41.90102,-0.24667,0.92877,0.92757
366.81,41.96882,-0.25203,0.93916,0.92712
367.51,42.03652,-0.25813,0.94876,0.92667
368.21,42.10443,-0.26485,0.95987,0.92622
368.91,42.17243,-0.27231,0.96974,0.92577
369.61,42.24021,-0.27932,0.98,0.92532
370.31,42.30795,-0.28649,0.99098,0.92487
371.01,42.37559,-0.29465,1.00495,0.92442
371.71,42.44352,-0.30277,1.0139,0.92397
372.41,42.51129,-0.31146,1.03048,0.92352
373.11,42.579,-0.31912,1.04423,0.92307
373.81,42.6471,-0.32756,1.06067,0.92261
374.51,42.71492,-0.33776,1.07409,0.92216
375.21,42.7832,-0.34788,1.08954,0.9217
375.91,42.85068,-0.35685,1.10387,0.92125
376.61,42.91865,-0.3675,1.12318,0.92079
377.31,42.9865,-0.3783,1.13864,0.92034
378.01,43.05465,-0.38943,1.15859,0.91988
378.71,43.12273,-0.40144,1.17921,0.91942
379.41,43.19075,-0.41244,1.19802,0.91897
380.11,43.25873,-0.42586,1.22163,0.91851
380.81,43.32678,-0.43821,1.24636,0.91805
381.51,43.3947,-0.45061,1.26797,0.91759
382.21,43.4627,-0.46509,1.29174,0.91713
382.91,43.53089,-0.48079,1.31627,0.91667
383.61,43.5986,-0.49563,1.34167,0.91621
384.31,43.66621,-0.51078,1.36656,0.91574
385.01,43.7336,-0.52763,1.39523,0.91528
385.71,43.80173,-0.54355,1.42724,0.91482
386.41,43.87019,-0.56243,1.45799,0.91435
387.11,43.93882,-0.5799,1.49094,0.91389
387.81,44.00737,-0.59821,1.52379,0.91343
388.51,44.0756,-0.61548,1.55606,0.91296
389.21,44.14372,-0.63591,1.59127,0.91249
389.91,44.21192,-0.65489,1.6299,0.91203
390.61,44.2802,-0.6747,1.66914,0.91156
391.31,44.34875,-0.69767,1.70788,0.91109
392.01,44.41722,-0.72081,1.75107,0.91062
392.71,44.4854,-0.74386,1.79548,0.91015
393.41,44.55342,-0.76474,1.83613,0.90968
394.11,44.62145,-0.7862,1.88039,0.90921
394.81,44.68994,-0.81,1.92609,0.90874
395.51,44.7583,-0.8395,1.97301,0.90827
396.21,44.82665,-0.86608,2.02737,0.9078
396.91,44.8947,-0.89358,2.08034,0.90733
397.61,44.96284,-0.92023,2.12903,0.90685
398.31,45.03079,-0.95043,2.18137,0.90638
399.01,45.09902,-0.98381,2.2361,0.90591
399.71,45.16698,-1.01465,2.29324,0.90543
400.41,45.23533,-1.05161,2.35264,0.90495
401.11,45.30373,-1.09029,2.40681,0.90448
401.81,45.37215,-1.12633,2.46106,0.904
402.51,45.44063,-1.16821,2.5382,0.90352
403.21,45.50868,-1.21075,2.60135,0.90305
403.91,45.57714,-1.26083,2.66803,0.90257
404.61,45.64548,-1.30927,2.72864,0.90209
405.31,45.71402,-1.35245,2.79069,0.90161
406.01,45.78222,-1.40269,2.85545,0.90113
406.71,45.85062,-1.45681,2.91606,0.90065
407.41,45.9191,-1.51354,2.97946,0.90017
408.11,45.98775,-1.57296,3.04421,0.89968
408.81,46.05618,-1.62837,3.10842,0.8992
409.51,46.125,-1.68808,3.16079,0.89872
410.21,46.19347,-1.75015,3.21163,0.89824
410.91,46.26189,-1.8158,3.26413,0.89775
411.61,46.3303,-1.8757,3.30665,0.89727
412.31,46.39891,-1.93614,3.35649,0.89678
413.01,46.46775,-1.99824,3.39243,0.89629
413.71,46.53627,-2.06142,3.42323,0.89581
414.41,46.60477,-2.12381,3.44978,0.89532
415.11,46.67347,-2.18383,3.47002,0.89483
415.81,46.74197,-2.24775,3.48941,0.89434
416.51,46.81029,-2.31191,3.49745,0.89386
417.21,46.87857,-2.38488,3.49541,0.89337
417.91,46.94683,-2.45407,3.48869,0.89288
418.61,47.01518,-2.52109,3.47651,0.89238
419.31,47.0835,-2.58352,3.45071,0.89189
420.01,47.15163,-2.65095,3.41909,0.8914
420.71,47.21949,-2.71922,3.37819,0.89091
421.41,47.28702,-2.78407,3.32779,0.89042
422.11,47.3547,-2.84089,3.26747,0.88992
422.81,47.42239,-2.90902,3.19787,0.88943
423.51,47.49023,-2.97852,3.11859,0.88893
424.21,47.55786,-3.03392,3.03516,0.88844
424.91,47.62528,-3.09248,2.94393,0.88794
425.61,47.6926,-3.14395,2.84292,0.88745
426.31,47.7596,-3.19393,2.73924,0.88695
427.01,47.82678,-3.24571,2.62923,0.88645
427.71,47.89366,-3.292,2.51605,0.88595
428.41,47.96117,-3.34812,2.4008,0.88545
429.11,48.02837,-3.39072,2.28131,0.88495
429.81,48.09551,-3.43158,2.15991,0.88445
430.51,48.16234,-3.46941,2.03925,0.88395
431.21,48.22915,-3.50537,1.92033,0.88345
431.91,48.29618,-3.5404,1.80409,0.88295
432.61,48.36307,-3.57058,1.6909,0.88245
433.31,48.42986,-3.60348,1.57964,0.88195
434.01,48.4966,-3.6335,1.47474,0.88144
434.71,48.56317,-3.65736,1.37709,0.88094
435.41,48.6301,-3.6789,1.28149,0.88044
436.11,48.69708,-3.70258,1.19155,0.87993
436.81,48.7643,-3.7247,1.10636,0.87942
437.51,48.83085,-3.74352,1.02792,0.87892
438.21,48.8977,-3.76022,0.95521,0.87841
438.91,48.9647,-3.77542,0.89131,0.8779
439.61,49.03217,-3.78979,0.82534,0.8774
440.31,49.09942,-3.8036,0.77221,0.87689
441.01,49.16675,-3.81329,0.71899,0.87638
441.71,49.2342,-3.8237,0.67482,0.87587
442.41,49.3018,-3.83358,0.63148,0.87536
443.11,49.36935,-3.84499,0.59079,0.87485
443.81,49.43678,-3.85865,0.55701,0.87434
444.51,49.50462,-3.86586,0.52359,0.87383
445.21,49.5725,-3.87191,0.49497,0.87331
445.91,49.64062,-3.88127,0.46589,0.8728
446.61,49.7084,-3.88323,0.43874,0.87229
447.31,49.7764,-3.88828,0.41714,0.87177
448.01,49.84448,-3.8928,0.39423,0.87126
448.71,49.91232,-3.89784,0.37581,0.87074
449.41,49.98037,-3.90041,0.35845,0.87023
450.11,50.0484,-3.90475,0.34683,0.86971
450.81,50.11647,-3.91232,0.32979,0.86919
451.51,50.18441,-3.91617,0.31552,0.86868
452.21,50.25262,-3.91782,0.30468,0.86816
452.91,50.3217,-3.92055,0.29391,0.86764
453.61,50.39056,-3.92313,0.28123,0.86712
454.31,50.4593,-3.92641,0.27461,0.8666
455.01,50.5277,-3.92926,0.26345,0.86608
455.71,50.5963,-3.93206,0.25655,0.86556
456.41,50.66507,-3.93426,0.248,0.86504
457.11,50.73397,-3.93778,0.24034,0.86452
457.81,50.80272,-3.93826,0.23149,0.86399
458.51,50.8714,-3.93826,0.22059,0.86347
459.21,50.9401,-3.94003,0.21138,0.86295
459.91,51.00868,-3.9492,0.20237,0.86242
460.61,51.07705,-3.9521,0.19229,0.8619
461.31,51.14519,-3.9521,0.18159,0.86137
462.01,51.21305,-3.9521,0.19122,0.86085
462.71,51.28118,-3.95202,0.20921,0.86032
463.41,51.34926,-3.95078,0.23137,0.85979
464.11,51.41809,-3.94946,0.23863,0.85927
464.81,51.4875,-3.94946,0.2289,0.85874
465.51,51.55734,-3.9467,0.20568,0.85821
466.21,51.62722,-3.9454,0.18423,0.85768
466.91,51.69648,-3.94537,0.17069,0.85715
467.61,51.76575,-3.94574,0.16496,0.85662
468.31,51.83481,-3.94573,0.16256,0.85609
469.01,51.90395,-3.94537,0.16133,0.85556
469.71,51.97262,-3.9454,0.15933,0.85503
470.41,52.0414,-3.94429,0.16078,0.8545
471.11,52.11031,-3.94375,0.161,0.85396
471.81,52.17938,-3.94507,0.16122,0.85343
472.51,52.24852,-3.94507,0.16374,0.85289
473.21,52.31711,-3.94376,0.16285,0.85236
473.91,52.38602,-3.94375,0.16522,0.85183
474.61,52.45488,-3.94375,0.16593,0.85129
475.31,52.52411,-3.94375,0.16669,0.85075
476.01,52.5933,-3.94507,0.16781,0.85022
476.71,52.66256,-3.94507,0.17134,0.84968
477.41,52.7315,-3.9437,0.17148,0.84914
478.11,52.80044,-3.9451,0.16925,0.8486
478.81,52.86929,-3.94507,0.1721,0.84806
479.51,52.9383,-3.94507,0.17038,0.84753
480.21,53.0073,-3.94375,0.17315,0.84699
480.91,53.0762,-3.94112,0.17457,0.84645
481.61,53.14512,-3.94241,0.17338,0.8459
482.31,53.2141,-3.94243,0.1747,0.84536
483.01,53.283,-3.94243,0.17372,0.84482
483.71,53.35196,-3.94384,0.1737,0.84428
484.41,53.42109,-3.94138,0.17446,0.84373
485.11,53.4901,-3.94145,0.17384,0.84319
485.81,53.5589,-3.94308,0.17425,0.84265
486.51,53.62783,-3.94309,0.17523,0.8421
487.21,53.697,-3.94387,0.17462,0.84156
487.91,53.76631,-3.94441,0.17482,0.84101
488.61,53.8354,-3.94441,0.17424,0.84047
489.31,53.90419,-3.94441,0.17599,0.83992
490.01,53.97322,-3.94309,0.17526,0.83937
490.71,54.04238,-3.94176,0.17461,0.83882
491.41,54.1119,-3.94309,0.17643,0.83827
492.11,54.1811,-3.94309,0.17739,0.83773
492.81,54.2498,-3.94309,0.17618,0.83718
493.51,54.31875,-3.94309,0.1747,0.83663
494.21,54.38771,-3.94303,0.17371,0.83608
494.91,54.45723,-3.94441,0.17275,0.83552
495.61,54.52641,-3.94439,0.17456,0.83497
496.31,54.5956,-3.9431,0.1727,0.83442
497.01,54.66444,-3.94178,0.17076,0.83387
497.71,54.73367,-3.94178,0.17266,0.83332
498.41,54.80288,-3.94178,0.17431,0.83276
499.11,54.87216,-3.94275,0.17201,0.83221
499.81,54.9413,-3.94408,0.17316,0.83165
500.51,55.01027,-3.94404,0.17078,0.8311
501.21,55.07946,-3.94145,0.16952,0.83054
501.91,55.1486,-3.94145,0.17214,0.82999
502.61,55.21787,-3.94145,0.16977,0.82943
503.31,55.28706,-3.94145,0.17189,0.82887
504.01,55.35651,-3.94145,0.17061,0.82831
504.71,55.42578,-3.94145,0.17047,0.82776
505.41,55.49516,-3.94274,0.17087,0.8272
506.11,55.564,-3.94213,0.17128,0.82664
506.81,55.63301,-3.94277,0.16888,0.82608
507.51,55.70241,-3.94213,0.16933,0.82552
508.21,55.7721,-3.94211,0.16692,0.82496
508.91,55.8417,-3.9431,0.16902,0.8244
509.61,55.9108,-3.94309,0.1696,0.82383
510.31,55.98015,-3.94047,0.16764,0.82327
511.01,56.04945,-3.94047,0.16749,0.82271
511.71,56.11877,-3.94112,0.1676,0.82215
512.41,56.1878,-3.94112,0.16516,0.82158
513.11,56.25696,-3.94112,0.16675,0.82102
513.81,56.32609,-3.9398,0.16809,0.82045
514.51,56.39544,-3.9398,0.16717,0.81989
515.21,56.4644,-3.9398,0.16624,0.81932
515.91,56.5337,-3.94129,0.1665,0.81875
516.61,56.6029,-3.94254,0.1658,0.81819
517.31,56.67236,-3.94255,0.16382,0.81762
518.01,56.7419,-3.94255,0.16451,0.81705
518.71,56.8115,-3.94221,0.16344,0.81648
519.41,56.881,-3.94189,0.16379,0.81591
520.11,56.95045,-3.94319,0.16314,0.81535
520.81,57.0197,-3.94485,0.16354,0.81478
521.51,57.0891,-3.94485,0.16434,0.81421
522.21,57.15824,-3.94485,0.16135,0.81363
522.91,57.22687,-3.94488,0.16457,0.81306
523.61,57.2958,-3.94485,0.16449,0.81249
524.31,57.3652,-3.94485,0.16187,0.81192
525.01,57.4352,-3.94349,0.16145,0.81135
525.71,57.5049,-3.94353,0.161,0.81077
526.41,57.57453,-3.94324,0.16167,0.8102
527.11,57.64391,-3.94246,0.16009,0.80962
527.81,57.7133,-3.94353,0.15803,0.80905
528.51,57.78266,-3.94213,0.15854,0.80847
529.21,57.85229,-3.94087,0.15868,0.8079
529.91,57.9219,-3.93957,0.16068,0.80732
530.61,57.9913,-3.94078,0.15871,0.80675
531.31,58.06057,-3.94431,0.15619,0.80617
532.01,58.13013,-3.94562,0.15758,0.80559
532.71,58.19981,-3.94562,0.15816,0.80501
533.41,58.26936,-3.94562,0.15667,0.80443
534.11,58.33863,-3.94562,0.1577,0.80385
534.81,58.4081,-3.94693,0.15643,0.80328
535.51,58.4778,-3.94694,0.15799,0.8027
536.21,58.5474,-3.94693,0.15739,0.80211
536.91,58.61691,-3.94562,0.1551,0.80153
537.61,58.6861,-3.94444,0.15595,0.80095
538.31,58.7555,-3.9443,0.15647,0.80037
539.01,58.82492,-3.9443,0.15716,0.79979
539.71,58.89464,-3.9443,0.15624,0.7992
540.41,58.96422,-3.94425,0.15733,0.79862
541.11,59.03374,-3.94562,0.15678,0.79804
541.81,59.103,-3.94562,0.15828,0.79745
542.51,59.1723,-3.94429,0.1585,0.79687
543.21,59.2417,-3.9443,0.15764,0.79628
543.91,59.31123,-3.9443,0.15716,0.7957
544.61,59.3807,-3.94565,0.15682,0.79511
545.31,59.4503,-3.9456,0.1589,0.79452
546.01,59.5197,-3.9469,0.15899,0.79394
546.71,59.5893,-3.94595,0.15957,0.79335
547.41,59.65869,-3.94595,0.16065,0.79276
548.11,59.72806,-3.94595,0.15932,0.79217
548.81,59.7975,-3.94562,0.16071,0.79158
549.51,59.86702,-3.94562,0.16044,0.79099
550.21,59.9368,-3.94562,0.15893,0.7904
550.91,60.00631,-3.94562,0.15799,0.78981
551.61,60.0758,-3.94607,0.15936,0.78922
552.31,60.1452,-3.94496,0.15838,0.78863
553.01,60.21471,-3.94565,0.15978,0.78804
553.71,60.28425,-3.94693,0.16177,0.78745
554.41,60.3538,-3.94693,0.16306,0.78685
555.11,60.4232,-3.94825,0.16312,0.78626
555.81,60.493,-3.94826,0.16136,0.78567
556.51,60.56287,-3.94687,0.15921,0.78507
557.21,60.63289,-3.94558,0.16175,0.78448
557.91,60.7026,-3.94693,0.16225,0.78388
558.61,60.7722,-3.9472,0.1603,0.78329
559.31,60.84176,-3.94693,0.1607,0.78269
560.01,60.91131,-3.94725,0.16198,0.7821
560.71,60.98095,-3.94693,0.16261,0.7815
561.41,61.0506,-3.95043,0.16205,0.7809
562.11,61.12036,-3.95187,0.16206,0.78031
562.81,61.1901,-3.95187,0.16111,0.77971
563.51,61.25975,-3.94921,0.16244,0.77911
564.21,61.3292,-3.94924,0.1631,0.77851
564.91,61.3988,-3.95056,0.16317,0.77791
565.61,61.46853,-3.95056,0.16381,0.77731
566.31,61.53832,-3.95056,0.16609,0.77671
567.01,61.60804,-3.95056,0.1662,0.77611
567.71,61.6777,-3.95054,0.16557,0.77551
568.41,61.7475,-3.95096,0.16542,0.77491
569.11,61.81685,-3.94959,0.16715,0.7743
569.81,61.88613,-3.95089,0.16807,0.7737
570.51,61.95508,-3.95086,0.16923,0.7731
571.21,62.0249,-3.95155,0.16758,0.7725
571.91,62.0952,-3.95155,0.17205,0.77189
572.61,62.1659,-3.95171,0.17088,0.77129
573.31,62.23611,-3.95319,0.17211,0.77068
574.01,62.30579,-3.95319,0.1725,0.77008
574.71,62.3757,-3.95455,0.17481,0.76947
575.41,62.44562,-3.95312,0.17624,0.76887
576.11,62.5158,-3.95319,0.17492,0.76826
576.81,62.58574,-3.95319,0.17606,0.76765
577.51,62.65583,-3.95457,0.17949,0.76705
578.21,62.7257,-3.95338,0.18017,0.76644
578.91,62.7957,-3.95418,0.18022,0.76583
579.61,62.86543,-3.95418,0.18062,0.76522
580.31,62.9355,-3.95418,0.18069,0.76461
581.01,63.005,-3.95418,0.18242,0.764
581.71,63.07496,-3.95288,0.18038,0.7634
582.41,63.14493,-3.95286,0.18391,0.76279
583.11,63.21525,-3.95155,0.18335,0.76217
583.81,63.28527,-3.95154,0.18478,0.76156
584.51,63.35519,-3.95154,0.18525,0.76095
585.21,63.42514,-3.95154,0.18509,0.76034
585.91,63.49501,-3.95154,0.18656,0.75973
586.61,63.5648,-3.95154,0.1866,0.75912
587.31,63.63469,-3.95154,0.18643,0.7585
588.01,63.7045,-3.95303,0.18932,0.75789
588.71,63.77435,-3.95428,0.18881,0.75728
589.41,63.84405,-3.95429,0.19144,0.75666
590.11,63.91404,-3.95249,0.19182,0.75605
590.81,63.98381,-3.95199,0.19215,0.75543
591.51,64.0536,-3.95331,0.19378,0.75482
592.21,64.1232,-3.95339,0.19341,0.7542
592.91,64.19296,-3.95199,0.19413,0.75358
593.61,64.26263,-3.95293,0.19415,0.75297
594.31,64.3324,-3.95429,0.19639,0.75235
595.01,64.40219,-3.95429,0.19847,0.75173
595.71,64.47196,-3.95429,0.19958,0.75112
596.41,64.5419,-3.95552,0.20009,0.7505
597.11,64.6118,-3.95823,0.2011,0.74988
597.81,64.68179,-3.95715,0.20168,0.74926
598.51,64.7518,-3.95715,0.20327,0.74864
599.21,64.82203,-3.95649,0.20353,0.74802
599.91,64.89243,-3.95583,0.20279,0.7474
600.61,64.9627,-3.95583,0.20398,0.74678
601.31,65.0329,-3.95583,0.20717,0.74616
602.01,65.10289,-3.95583,0.20669,0.74554
602.71,65.1725,-3.95552,0.20662,0.74492
603.41,65.24266,-3.95482,0.20775,0.74429
604.11,65.313,-3.95385,0.20789,0.74367
604.81,65.3835,-3.95385,0.2073,0.74305
605.51,65.45361,-3.95385,0.20619,0.74243
606.21,65.52364,-3.95385,0.20274,0.7418
606.91,65.5938,-3.95385,0.20481,0.74118
607.61,65.6639,-3.95484,0.20137,0.74055
608.31,65.73433,-3.95484,0.20104,0.73993
609.01,65.8043,-3.95354,0.20478,0.7393
609.71,65.87447,-3.95352,0.20569,0.73868
610.41,65.94455,-3.95475,0.20438,0.73805
611.11,66.0151,-3.95758,0.2031,0.73743
611.81,66.0855,-3.95759,0.20334,0.7368
612.51,66.15566,-3.95759,0.20476,0.73617
613.21,66.22569,-3.95639,0.2051,0.73555
613.91,66.2958,-3.95709,0.20368,0.73492
614.61,66.36559,-3.95335,0.20573,0.73429
615.31,66.4357,-3.95473,0.20553,0.73366
616.01,66.5057,-3.95473,0.2066,0.73303
616.71,66.57606,-3.95473,0.20721,0.7324
617.41,66.64602,-3.95473,0.20996,0.73177
618.11,66.71594,-3.95473,0.21125,0.73114
618.81,66.78573,-3.95473,0.21272,0.73051
619.51,66.85582,-3.95407,0.21218,0.72988
620.21,66.9259,-3.95407,0.21529,0.72925
620.91,66.99571,-3.95407,0.21495,0.72862
621.61,67.0656,-3.95407,0.21319,0.72799
622.31,67.13576,-3.95407,0.21417,0.72736
623.01,67.20621,-3.95407,0.21489,0.72673
623.71,67.27655,-3.95538,0.214,0.72609
624.41,67.34674,-3.95522,0.21617,0.72546
625.11,67.41685,-3.95407,0.21346,0.72483
625.81,67.48695,-3.95407,0.21459,0.72419
626.51,67.55705,-3.95407,0.21325,0.72356
627.21,67.62724,-3.95407,0.21302,0.72292
627.91,67.69739,-3.95407,0.21559,0.72229
628.61,67.7675,-3.95407,0.21592,0.72165
629.31,67.8377,-3.95561,0.21387,0.72102
630.01,67.9079,-3.9567,0.2151,0.72038
630.71,67.97821,-3.95539,0.21461,0.71975
631.41,68.0485,-3.95539,0.2146,0.71911
632.11,68.11872,-3.95671,0.21736,0.71847
632.81,68.18919,-3.95671,0.21838,0.71784
633.51,68.25967,-3.95704,0.22252,0.7172
634.21,68.3301,-3.95737,0.22185,0.71656
634.91,68.4004,-3.95737,0.22501,0.71592
635.61,68.4705,-3.9566,0.22459,0.71529
636.31,68.5407,-3.95605,0.22487,0.71465
637.01,68.61089,-3.95738,0.22729,0.71401
637.71,68.68111,-3.95737,0.2266,0.71337
638.41,68.75148,-3.95737,0.228,0.71273
639.11,68.82166,-3.9574,0.22853,0.71209
639.81,68.89188,-3.95703,0.22537,0.71145
640.51,68.962,-3.95703,0.22705,0.71081
641.21,69.03237,-3.95585,0.22833,0.71017
641.91,69.10268,-3.95572,0.2302,0.70952
642.61,69.17271,-3.95614,0.23168,0.70888
643.31,69.2428,-3.9638,0.23346,0.70824
644.01,69.31305,-3.9669,0.23292,0.7076
644.71,69.38343,-3.9656,0.23609,0.70696
645.41,69.45376,-3.96428,0.23641,0.70631
646.11,69.52412,-3.96638,0.24288,0.70567
646.81,69.59479,-4.01208,0.2538,0.70503
647.51,69.66543,-4.02548,0.25944,0.70438
648.21,69.73603,-4.02237,0.26241,0.70374
648.91,69.8066,-4.01774,0.26198,0.70309
649.61,69.8772,-4.01271,0.26097,0.70245
650.31,69.94796,-4.00772,0.25811,0.7018
651.01,70.01857,-4.00318,0.25538,0.70116
651.71,70.08909,-3.99831,0.2517,0.70051
652.41,70.1596,-3.99231,0.2508,0.69987
653.11,70.23003,-3.98764,0.2488,0.69922
653.81,70.30055,-3.98285,0.24545,0.69857
654.51,70.3707,-3.97751,0.24249,0.69793
655.21,70.44103,-3.97195,0.24476,0.69728
655.91,70.51135,-3.96845,0.24629,0.69663
656.61,70.58196,-3.96613,0.24496,0.69598
657.31,70.6525,-3.96451,0.24752,0.69534
658.01,70.72301,-3.96344,0.2494,0.69469
658.71,70.7933,-3.96316,0.25167,0.69404
659.41,70.86365,-3.96307,0.25353,0.69339
660.11,70.934,-3.96308,0.25734,0.69274
660.81,71.00431,-3.96083,0.25774,0.69209
661.51,71.07454,-3.95991,0.25829,0.69144
662.21,71.1448,-3.95715,0.2607,0.69079
662.91,71.21518,-3.95585,0.26163,0.69014
663.61,71.28556,-3.95721,0.2663,0.68949
664.31,71.35589,-3.95676,0.26486,0.68884
665.01,71.42616,-3.95434,0.26592,0.68819
665.71,71.49655,-3.95572,0.26769,0.68754
666.41,71.56685,-3.95572,0.26897,0.68689
667.11,71.63717,-3.95572,0.27613,0.68623
667.81,71.7076,-3.95568,0.27356,0.68558
668.51,71.77797,-3.96169,0.27888,0.68493
669.21,71.8484,-3.96395,0.28072,0.68428
669.91,71.91864,-3.96367,0.2826,0.68362
670.61,71.98906,-3.96264,0.28482,0.68297
671.31,72.05945,-3.96264,0.28759,0.68232
672.01,72.12983,-3.96267,0.2868,0.68166
672.71,72.2002,-3.96264,0.2919,0.68101
673.41,72.2705,-3.96436,0.29199,0.68035
674.11,72.34084,-3.96445,0.29259,0.6797
674.81,72.41123,-3.96362,0.29271,0.67905
675.51,72.48175,-3.96495,0.29423,0.67839
676.21,72.55225,-3.96365,0.29528,0.67773
676.91,72.62257,-3.96362,0.29828,0.67708
677.61,72.6929,-3.96263,0.29753,0.67642
678.31,72.76308,-3.96298,0.29938,0.67577
679.01,72.83343,-3.96263,0.30343,0.67511
679.71,72.90394,-3.96265,0.30123,0.67445
680.41,72.97448,-3.96395,0.30443,0.6738
681.11,73.04507,-3.96359,0.30268,0.67314
681.81,73.11554,-3.96163,0.30376,0.67248
682.51,73.18606,-3.96154,0.30494,0.67183
683.21,73.2564,-3.965,0.30723,0.67117
683.91,73.32693,-3.9656,0.30503,0.67051
684.61,73.3973,-3.96561,0.30453,0.66985
685.31,73.46784,-3.96428,0.3069,0.66919
686.01,73.53824,-3.96295,0.31095,0.66853
686.71,73.60893,-3.96296,0.31312,0.66787
687.41,73.67956,-3.96397,0.31205,0.66721
688.11,73.75027,-3.96527,0.31141,0.66656
688.81,73.82069,-3.96462,0.31078,0.6659
689.51,73.8912,-3.96494,0.3132,0.66524
690.21,73.96161,-3.96501,0.31443,0.66458
690.91,74.03215,-3.96593,0.31369,0.66392
691.61,74.1028,-3.96594,0.31268,0.66325
692.31,74.1734,-3.96658,0.28237,0.66259
693.01,74.244,-3.96661,0.29126,0.66193
693.71,74.31426,-3.96626,0.29274,0.66127
694.41,74.38449,-3.96294,0.29414,0.66061
695.11,74.45481,-3.95975,0.29083,0.65995
695.81,74.5252,-3.95591,0.29244,0.65929
696.51,74.5955,-3.95517,0.28776,0.65862
697.21,74.6657,-3.95945,0.2892,0.65796
697.91,74.73598,-3.95956,0.2903,0.6573
698.61,74.80651,-3.96028,0.29031,0.65664
699.31,74.8771,-3.96219,0.28849,0.65597
700.01,74.9477,-3.96219,0.29109,0.65531
700.71,75.01805,-3.96219,0.29115,0.65465
701.41,75.08839,-3.96219,0.29349,0.65398
702.11,75.15884,-3.96219,0.29495,0.65332
702.81,75.22929,-3.9645,0.29485,0.65265
703.51,75.29984,-3.95746,0.29171,0.65199
704.21,75.3703,-3.9519,0.29385,0.65133
704.91,75.4407,-3.95295,0.2944,0.65066
705.61,75.5111,-3.95429,0.298,0.65
706.31,75.58109,-3.95536,0.29629,0.64933
707.01,75.65103,-3.95692,0.29881,0.64867
707.71,75.72157,-3.95688,0.30132,0.648
708.41,75.79249,-3.95768,0.30125,0.64733
709.11,75.86323,-3.95758,0.30153,0.64667
709.81,75.9335,-3.95818,0.30287,0.646
710.51,76.00376,-3.9589,0.30289,0.64534
711.21,76.07417,-3.9589,0.3015,0.64467
711.91,76.1447,-3.9589,0.30636,0.644
712.61,76.21528,-3.9589,0.3079,0.64334
713.31,76.28591,-3.9589,0.30846,0.64267
714.01,76.35624,-3.95891,0.30812,0.642
714.71,76.42675,-3.96022,0.30767,0.64134
715.41,76.49701,-3.96022,0.30647,0.64067
716.11,76.56734,-3.96087,0.30738,0.64
716.81,76.63715,-3.96088,0.3115,0.63933
717.51,76.70736,-3.9622,0.30998,0.63866
718.21,76.77772,-3.9622,0.3088,0.638
718.91,76.8485,-3.96088,0.30739,0.63733
719.61,76.91896,-3.96119,0.31091,0.63666
720.31,76.9891,-3.96527,0.31363,0.63599
721.01,77.0595,-3.96527,0.31068,0.63532
721.71,77.12979,-3.95969,0.30815,0.63465
722.41,77.2004,-3.9498,0.30827,0.63398
723.11,77.27074,-3.94856,0.30807,0.63331
723.81,77.34138,-3.95001,0.30404,0.63264
724.51,77.41179,-3.95009,0.30787,0.63197
725.21,77.48241,-3.95106,0.30831,0.6313
725.91,77.5527,-3.94989,0.30394,0.63063
726.61,77.62335,-3.94724,0.30395,0.62996
727.31,77.6939,-3.95019,0.30419,0.62929
728.01,77.76469,-3.95564,0.31303,0.62862
728.71,77.83525,-3.95857,0.32264,0.62795
729.41,77.90597,-3.95885,0.31918,0.62728
730.11,77.9766,-3.95988,0.32174,0.62661
730.81,78.04726,-3.9612,0.32562,0.62594
731.51,78.11783,-3.96121,0.32169,0.62527
732.21,78.18845,-3.96121,0.32501,0.6246
732.91,78.25905,-3.9622,0.32333,0.62393
733.61,78.32955,-3.96153,0.32252,0.62325
734.31,78.40003,-3.96022,0.3253,0.62258
735.01,78.47064,-3.95956,0.32242,0.62191
735.71,78.54126,-3.96086,0.32234,0.62124
736.41,78.61186,-3.96413,0.32082,0.62057
737.11,78.68254,-3.96571,0.32016,0.61989
737.81,78.75336,-3.96571,0.31998,0.61922
738.51,78.82432,-3.96571,0.31859,0.61855
739.21,78.89509,-3.96499,0.31938,0.61788
739.91,78.96597,-3.96093,0.31597,0.6172
740.61,79.03689,-3.95594,0.31351,0.61653
741.31,79.10775,-3.95729,0.30794,0.61586
742.01,79.17837,-3.95858,0.31401,0.61518
742.71,79.24886,-3.95989,0.31068,0.61451
743.41,79.3195,-3.96121,0.31344,0.61384
744.11,79.39,-3.96221,0.31028,0.61316
744.81,79.4606,-3.96257,0.31328,0.61249
745.51,79.5313,-3.96516,0.31155,0.61182
746.21,79.60221,-3.96515,0.31128,0.61114
746.91,79.67295,-3.95569,0.30741,0.61047
747.61,79.7436,-3.95002,0.30693,0.60979
748.31,79.81419,-3.95139,0.30706,0.60912
749.01,79.885,-3.95264,0.30569,0.60845
749.71,79.95564,-3.95253,0.3045,0.60777
750.41,80.02628,-3.95363,0.30641,0.6071
751.11,80.09682,-3.95396,0.30955,0.60642
751.81,80.1674,-3.95521,0.30693,0.60575
752.51,80.23806,-3.9566,0.30934,0.60507
753.21,80.30882,-3.95923,0.30464,0.6044
753.91,80.3796,-3.95302,0.30005,0.60372
754.61,80.45007,-3.94514,0.30187,0.60305
755.31,80.52048,-3.9465,0.29593,0.60237
756.01,80.59089,-3.94778,0.30343,0.6017
756.71,80.66155,-3.9541,0.30523,0.60102
757.41,80.73224,-3.95561,0.30549,0.60035
758.11,80.80297,-3.95696,0.30536,0.59967
758.81,80.87355,-3.95902,0.30544,0.59899
759.51,80.94396,-3.96113,0.30687,0.59832
760.21,81.01445,-3.9616,0.305,0.59764
760.91,81.0851,-3.96219,0.30117,0.59697
761.61,81.15594,-3.96354,0.30067,0.59629
762.31,81.2263,-3.96228,0.29994,0.59561
763.01,81.29678,-3.96351,0.30098,0.59494
763.71,81.3673,-3.96483,0.29857,0.59426
764.41,81.4382,-3.96509,0.30275,0.59359
765.11,81.50894,-3.96615,0.30351,0.59291
765.81,81.57927,-3.9601,0.29995,0.59223
766.51,81.6498,-3.95944,0.30166,0.59156
767.21,81.72059,-3.96112,0.30356,0.59088
767.91,81.7915,-3.96237,0.30421,0.5902
768.61,81.86211,-3.96348,0.30277,0.58953
769.31,81.9327,-3.95902,0.3076,0.58885
770.01,82.00321,-3.96846,0.30932,0.58817
770.71,82.07388,-3.97818,0.31435,0.58749
771.41,82.14453,-3.97811,0.30823,0.58682
772.11,82.21542,-3.97808,0.31182,0.58614
772.81,82.28623,-3.97694,0.31449,0.58546
773.51,82.35714,-3.97812,0.3126,0.58479
774.21,82.4281,-3.97812,0.31611,0.58411
774.91,82.49892,-3.97548,0.31487,0.58343
775.61,82.56975,-3.97548,0.316,0.58275
776.31,82.6406,-3.97548,0.31799,0.58208
777.01,82.71155,-3.97548,0.3216,0.5814
777.71,82.78245,-3.97411,0.32132,0.58072
778.41,82.85333,-3.97416,0.3213,0.58004
779.11,82.92443,-3.97416,0.3255,0.57937
779.81,82.9953,-3.97548,0.32565,0.57869
780.51,83.06626,-3.9759,0.32658,0.57801
781.21,83.137,-3.9768,0.32492,0.57733
781.91,83.2077,-3.9768,0.32593,0.57666
782.61,83.27861,-3.9768,0.33078,0.57598
783.31,83.34955,-3.9768,0.33021,0.5753
784.01,83.4207,-3.97678,0.33477,0.57462
784.71,83.49169,-3.97778,0.3368,0.57394
785.41,83.56266,-3.97709,0.3329,0.57327
786.11,83.63365,-3.97712,0.34034,0.57259
786.81,83.70452,-3.97676,0.33487,0.57191
787.51,83.77542,-3.97646,0.33525,0.57123
788.21,83.84612,-3.97872,0.33572,0.57055
788.91,83.91708,-3.98438,0.33868,0.56988
789.61,83.98799,-3.98135,0.34014,0.5692
790.31,84.05884,-3.97868,0.33847,0.56852
791.01,84.12957,-3.97867,0.33893,0.56784
791.71,84.2004,-3.97735,0.34211,0.56716
792.41,84.2714,-3.97603,0.34095,0.56648
793.11,84.34245,-3.97703,0.34348,0.56581
793.81,84.41356,-3.9757,0.34495,0.56513
794.51,84.4846,-3.97439,0.34966,0.56445
795.21,84.55547,-3.97634,0.34634,0.56377
795.91,84.6262,-3.97805,0.34837,0.56309
796.61,84.69682,-3.97779,0.34896,0.56241
797.31,84.7674,-3.9746,0.35302,0.56174
798.01,84.83795,-3.97328,0.34718,0.56106
798.71,84.90833,-3.97197,0.34781,0.56038
799.41,84.97847,-3.97197,0.34783,0.5597
799.61,84.99843,-3.97197,0.35094,0.55951