File: 01_Data/Bean_Bag_Chair_Beads/STA/N2/10K_min/Bean_Bag_PS_Beads_STA_N2_10KData_220518_R3.csv
##Temp./Â°C,Time/min,Mass loss(subtr.2)/mg,DSC(subtr.2)/(mW/mg),Sensit./(uV/mW)
49.589,10.00917,-0.01252,0.006348899,1.07021
50.089,10.69791,-0.01305339,0.03038051,1.07007
50.589,10.87616,-0.01313243,0.04971813,1.06993
51.089,11.0067,-0.01309658,0.06576928,1.0698
51.589,11.11535,-0.01121316,0.08021252,1.06966
52.089,11.21181,-0.01276196,0.09284266,1.06952
52.589,11.3004,-0.01295548,0.10444,1.06938
53.089,11.38262,-0.01272219,0.11378,1.06924
53.589,11.4598,-0.01167853,0.12021,1.0691
54.089,11.53312,-0.01300599,0.12868,1.06896
54.589,11.60365,-0.01182262,0.13675,1.06883
55.089,11.67153,-0.01369018,0.14383,1.06869
55.589,11.73766,-0.01321014,0.14938,1.06855
56.089,11.80232,-0.01336732,0.15401,1.0684
56.589,11.86533,-0.01417779,0.15871,1.06826
57.089,11.927,-0.01290801,0.16266,1.06812
57.589,11.98784,-0.01299262,0.16662,1.06798
58.089,12.0477,-0.01336117,0.16852,1.06784
58.589,12.1075,-0.01290344,0.17244,1.0677
59.089,12.16618,-0.01365282,0.18012,1.06756
59.589,12.2242,-0.01380718,0.1787,1.06742
60.089,12.2815,-0.0144021,0.18316,1.06727
60.589,12.3384,-0.01426618,0.1847,1.06713
61.089,12.39498,-0.01425845,0.18577,1.06699
61.589,12.4514,-0.01296258,0.18674,1.06684
62.089,12.50762,-0.01342599,0.18901,1.0667
62.589,12.56339,-0.01422791,0.19268,1.06656
63.089,12.61843,-0.01427704,0.19367,1.06641
63.589,12.67337,-0.01425969,0.19533,1.06627
64.089,12.72803,-0.01431996,0.1968,1.06612
64.589,12.78257,-0.01292978,0.19784,1.06598
65.089,12.83755,-0.01296723,0.20041,1.06583
65.589,12.89182,-0.01231237,0.20159,1.06569
66.089,12.946,-0.01287749,0.20175,1.06554
66.589,12.9999,-0.01495088,0.20308,1.0654
67.089,13.05344,-0.01450207,0.20474,1.06525
67.589,13.1073,-0.01225052,0.20564,1.06511
68.089,13.1608,-0.01349421,0.20489,1.06496
68.589,13.2141,-0.01229181,0.20756,1.06481
69.089,13.2677,-0.01360505,0.20684,1.06466
69.589,13.3212,-0.01232174,0.20865,1.06452
70.089,13.37435,-0.01370203,0.21048,1.06437
70.589,13.4277,-0.01228496,0.21163,1.06422
71.089,13.4806,-0.01393935,0.21287,1.06407
71.589,13.5334,-0.0139976,0.21319,1.06393
72.089,13.5863,-0.01405004,0.21523,1.06378
72.589,13.63882,-0.0140501,0.215,1.06363
73.089,13.6913,-0.01291259,0.21801,1.06348
73.589,13.7438,-0.0154458,0.21747,1.06333
74.089,13.7965,-0.0144882,0.21943,1.06318
74.589,13.84906,-0.01448843,0.22097,1.06303
75.089,13.9017,-0.01316955,0.22123,1.06288
75.589,13.9536,-0.01316958,0.22115,1.06273
76.089,14.0058,-0.01456281,0.22364,1.06258
76.589,14.0579,-0.01313907,0.22476,1.06243
77.089,14.1097,-0.01460399,0.22833,1.06228
77.589,14.16208,-0.01460924,0.22863,1.06212
78.089,14.2139,-0.01594786,0.22967,1.06197
78.589,14.26559,-0.0154037,0.23218,1.06182
79.089,14.31734,-0.01367628,0.23212,1.06167
79.589,14.36875,-0.01272842,0.23412,1.06152
80.089,14.42019,-0.01404906,0.23744,1.06136
80.589,14.4718,-0.01404909,0.23884,1.06121
81.089,14.52311,-0.01271483,0.24062,1.06106
81.589,14.5746,-0.01375625,0.24306,1.0609
82.089,14.6258,-0.01274163,0.24324,1.06075
82.589,14.67697,-0.01396841,0.24395,1.06059
83.089,14.7277,-0.01405973,0.24366,1.06044
83.589,14.7786,-0.01509134,0.24335,1.06028
84.089,14.8293,-0.01701599,0.24118,1.06013
84.589,14.87999,-0.01437364,0.24264,1.05997
85.089,14.9311,-0.01306013,0.23961,1.05982
85.589,14.9817,-0.014414,0.23944,1.05966
86.089,15.03239,-0.0130572,0.2371,1.05951
86.589,15.0829,-0.01438748,0.2357,1.05935
87.089,15.13295,-0.01509537,0.23365,1.05919
87.589,15.183,-0.01694542,0.23056,1.05904
88.089,15.23285,-0.01570401,0.2303,1.05888
88.589,15.2828,-0.01450381,0.22875,1.05872
89.089,15.333,-0.01448659,0.22834,1.05857
89.589,15.38313,-0.01350965,0.22862,1.05841
90.089,15.43331,-0.01416198,0.22754,1.05825
90.589,15.48316,-0.01449076,0.22872,1.05809
91.089,15.53294,-0.0148818,0.22937,1.05793
91.589,15.5828,-0.01448652,0.2294,1.05777
92.089,15.6326,-0.01466185,0.23028,1.05761
92.589,15.6821,-0.0144899,0.2336,1.05746
93.089,15.7319,-0.01449001,0.23407,1.0573
93.589,15.78135,-0.01448704,0.23453,1.05714
94.089,15.8309,-0.0158052,0.23605,1.05698
94.589,15.8803,-0.01536538,0.2386,1.05681
95.089,15.92975,-0.01487143,0.23941,1.05665
95.589,15.9792,-0.01581001,0.24164,1.05649
96.089,16.0284,-0.01555024,0.24328,1.05633
96.589,16.07789,-0.01580997,0.24464,1.05617
97.089,16.1272,-0.01580978,0.24535,1.05601
97.589,16.17664,-0.01626181,0.24938,1.05585
98.089,16.22586,-0.01712983,0.2505,1.05568
98.589,16.27502,-0.01573187,0.25199,1.05552
99.089,16.3243,-0.01581012,0.25417,1.05536
99.589,16.3735,-0.01581041,0.25763,1.05519
100.089,16.4226,-0.01439239,0.26139,1.05503
100.589,16.47179,-0.01460143,0.26676,1.05487
101.089,16.52073,-0.01571952,0.26695,1.0547
101.589,16.56983,-0.01511897,0.27159,1.05454
102.089,16.61893,-0.01579586,0.27523,1.05437
102.589,16.66807,-0.0158101,0.27825,1.05421
103.089,16.71709,-0.01581,0.28031,1.05405
103.589,16.76605,-0.01580637,0.28339,1.05388
104.089,16.8149,-0.01717282,0.28498,1.05371
104.589,16.86372,-0.0161063,0.29081,1.05355
105.089,16.9127,-0.01580973,0.29251,1.05338
105.589,16.96122,-0.01581041,0.29582,1.05322
106.089,17.00995,-0.01653576,0.29607,1.05305
106.589,17.059,-0.01680369,0.29775,1.05288
107.089,17.10789,-0.01654414,0.30125,1.05272
107.589,17.15685,-0.01716451,0.30215,1.05255
108.089,17.20599,-0.01711942,0.30469,1.05238
108.589,17.25466,-0.01763919,0.30487,1.05221
109.089,17.30341,-0.01702191,0.30358,1.05204
109.589,17.35217,-0.01711555,0.30472,1.05188
110.089,17.4009,-0.01809806,0.30455,1.05171
110.589,17.4497,-0.01942983,0.30484,1.05154
111.089,17.4984,-0.01814681,0.30491,1.05137
111.589,17.54715,-0.0181203,0.30479,1.0512
112.089,17.59585,-0.01746725,0.30637,1.05103
112.589,17.6446,-0.01680025,0.30472,1.05086
113.089,17.69333,-0.01671984,0.30599,1.05069
113.589,17.74203,-0.01811041,0.30575,1.05052
114.089,17.79066,-0.01810999,0.30682,1.05035
114.589,17.83918,-0.01811005,0.30538,1.05017
115.089,17.88769,-0.0181328,0.30538,1.05
115.589,17.93619,-0.01810994,0.30644,1.04983
116.089,17.9844,-0.01810999,0.30642,1.04966
116.589,18.03276,-0.01811552,0.30637,1.04949
117.089,18.0812,-0.01715763,0.30463,1.04931
117.589,18.12963,-0.0167903,0.30545,1.04914
118.089,18.17826,-0.01743831,0.30574,1.04897
118.589,18.2267,-0.01680816,0.30457,1.0488
119.089,18.27525,-0.01745395,0.30829,1.04862
119.589,18.32369,-0.01747294,0.30791,1.04845
120.089,18.37167,-0.01737496,0.30487,1.04827
120.589,18.4201,-0.01812026,0.30771,1.0481
121.089,18.46871,-0.01812625,0.30888,1.04792
121.589,18.51728,-0.01943007,0.30767,1.04775
122.089,18.5659,-0.02060179,0.30884,1.04757
122.589,18.61448,-0.01942305,0.30834,1.0474
123.089,18.66291,-0.01849243,0.31023,1.04722
123.589,18.71114,-0.01779031,0.30673,1.04705
124.089,18.75949,-0.01779005,0.30801,1.04687
124.589,18.80806,-0.01834825,0.30806,1.04669
125.089,18.85633,-0.01909938,0.3086,1.04652
125.589,18.9044,-0.01917692,0.309,1.04634
126.089,18.9524,-0.01904679,0.30696,1.04616
126.589,19.00018,-0.01910004,0.30876,1.04598
127.089,19.04828,-0.0191,0.30744,1.04581
127.589,19.09645,-0.01909999,0.30985,1.04563
128.089,19.1447,-0.01916198,0.30824,1.04545
128.589,19.1935,-0.01975301,0.30973,1.04527
129.089,19.24158,-0.01975686,0.30912,1.04509
129.589,19.28987,-0.02108254,0.30916,1.04491
130.089,19.3383,-0.02106861,0.31175,1.04473
130.589,19.3864,-0.01976106,0.30903,1.04455
131.089,19.4347,-0.01976,0.31213,1.04437
131.589,19.4829,-0.0197563,0.31229,1.04419
132.089,19.53109,-0.0203859,0.3118,1.04401
132.589,19.57925,-0.02173019,0.3132,1.04383
133.089,19.6275,-0.02053248,0.31148,1.04365
133.589,19.67582,-0.02040962,0.31336,1.04347
134.089,19.72382,-0.02046555,0.31389,1.04328
134.589,19.77176,-0.02044179,0.3112,1.0431
135.089,19.81972,-0.0204198,0.31211,1.04292
135.589,19.8678,-0.01953427,0.31103,1.04274
136.089,19.91581,-0.02007887,0.31241,1.04255
136.589,19.9639,-0.02074987,0.31233,1.04237
137.089,20.01215,-0.02075,0.311,1.04219
137.589,20.06036,-0.02075,0.31067,1.042
138.089,20.10847,-0.02075,0.31129,1.04182
138.589,20.15661,-0.02074997,0.31193,1.04164
139.089,20.20431,-0.02077393,0.31222,1.04145
139.589,20.25236,-0.02170358,0.31191,1.04127
140.089,20.3005,-0.02173996,0.31243,1.04108
140.589,20.34845,-0.02145403,0.31193,1.0409
141.089,20.3963,-0.0220374,0.31187,1.04071
141.589,20.44419,-0.02206003,0.31254,1.04052
142.089,20.492,-0.02206,0.31061,1.04034
142.589,20.54015,-0.02206,0.31182,1.04015
143.089,20.58837,-0.02206105,0.31158,1.03996
143.589,20.63702,-0.02173413,0.31216,1.03978
144.089,20.68509,-0.02173446,0.31277,1.03959
144.589,20.73304,-0.02071621,0.31311,1.0394
145.089,20.78117,-0.02038023,0.31256,1.03921
145.589,20.8291,-0.02140767,0.31296,1.03903
146.089,20.87699,-0.02141035,0.31286,1.03884
146.589,20.9252,-0.02102992,0.31408,1.03865
147.089,20.97319,-0.02174728,0.31465,1.03846
147.589,21.02111,-0.02173999,0.31464,1.03827
148.089,21.06912,-0.02174,0.31399,1.03808
148.589,21.11702,-0.02174,0.31568,1.03789
149.089,21.16473,-0.02173946,0.31341,1.0377
149.589,21.21254,-0.0220459,0.31396,1.03751
150.089,21.26032,-0.02275277,0.31308,1.03732
150.589,21.3083,-0.02173885,0.31385,1.03713
151.089,21.35649,-0.02175269,0.31482,1.03694
151.589,21.40457,-0.02303763,0.31378,1.03675
152.089,21.45266,-0.02305002,0.3121,1.03655
152.589,21.5005,-0.02305,0.3124,1.03636
153.089,21.5485,-0.02305,0.31322,1.03617
153.589,21.59616,-0.02305,0.31235,1.03598
154.089,21.64361,-0.02304957,0.3107,1.03578
154.589,21.69151,-0.02323104,0.31316,1.03559
155.089,21.73947,-0.02436998,0.31086,1.0354
155.589,21.78749,-0.02437,0.3128,1.0352
156.089,21.8358,-0.02437027,0.31242,1.03501
156.589,21.88371,-0.02413745,0.31242,1.03482
157.089,21.9316,-0.02305088,0.31169,1.03462
157.589,21.9797,-0.02305,0.31221,1.03443
158.089,22.0275,-0.02304591,0.31284,1.03423
158.589,22.07526,-0.02311009,0.30975,1.03404
159.089,22.12306,-0.02304989,0.31004,1.03384
159.589,22.17095,-0.02305001,0.31079,1.03364
160.089,22.2188,-0.02305126,0.30977,1.03345
160.589,22.26666,-0.02173447,0.3085,1.03325
161.089,22.3145,-0.02278055,0.30885,1.03305
161.589,22.36214,-0.02395368,0.30761,1.03286
162.089,22.40973,-0.02399057,0.30734,1.03266
162.589,22.4575,-0.02305923,0.30788,1.03246
163.089,22.50548,-0.02177519,0.30704,1.03226
163.589,22.55355,-0.02174003,0.3084,1.03207
164.089,22.60158,-0.02171489,0.30716,1.03187
164.589,22.64945,-0.02306133,0.30729,1.03167
165.089,22.69754,-0.02203907,0.30723,1.03147
165.589,22.74517,-0.02338293,0.30578,1.03127
166.089,22.793,-0.02338,0.30622,1.03107
166.589,22.841,-0.02338,0.30507,1.03087
167.089,22.8887,-0.02338002,0.30628,1.03067
167.589,22.93636,-0.02333117,0.30722,1.03047
168.089,22.9842,-0.02556756,0.30532,1.03027
168.589,23.03199,-0.02503752,0.30562,1.03007
169.089,23.0797,-0.02282785,0.3048,1.02987
169.589,23.1277,-0.02282999,0.30403,1.02966
170.089,23.17561,-0.02283,0.30396,1.02946
170.589,23.22316,-0.02283,0.30365,1.02926
171.089,23.27123,-0.02283,0.30446,1.02906
171.589,23.3192,-0.02282998,0.30435,1.02885
172.089,23.367,-0.02320437,0.30647,1.02865
172.589,23.415,-0.02284049,0.30431,1.02845
173.089,23.4629,-0.02284135,0.3058,1.02824
173.589,23.51037,-0.02391975,0.30249,1.02804
174.089,23.5581,-0.02415997,0.30526,1.02784
174.589,23.6061,-0.02416,0.30276,1.02763
175.089,23.654,-0.02416,0.30403,1.02743
175.589,23.70176,-0.02416,0.30412,1.02722
176.089,23.74997,-0.02416,0.30487,1.02702
176.589,23.79787,-0.02416405,0.30549,1.02681
177.089,23.84584,-0.02282839,0.30497,1.02661
177.589,23.89377,-0.02415695,0.30673,1.0264
178.089,23.9417,-0.02414811,0.30614,1.02619
178.589,23.9895,-0.02547944,0.3075,1.02599
179.089,24.0373,-0.02547009,0.30766,1.02578
179.589,24.0851,-0.02547013,0.30899,1.02557
180.089,24.13279,-0.02538397,0.30931,1.02536
180.589,24.1805,-0.02481031,0.30934,1.02516
181.089,24.2282,-0.02481,0.31287,1.02495
181.589,24.276,-0.02480632,0.31165,1.02474
182.089,24.3237,-0.02618001,0.3147,1.02453
182.589,24.37146,-0.02612998,0.31738,1.02432
183.089,24.4193,-0.02612846,0.31847,1.02411
183.589,24.46717,-0.02513827,0.32154,1.0239
184.089,24.51492,-0.02514189,0.32198,1.02369
184.589,24.56268,-0.02643413,0.32367,1.02348
185.089,24.61042,-0.02646002,0.32342,1.02327
185.589,24.65806,-0.02646,0.32493,1.02306
186.089,24.7058,-0.02645303,0.32664,1.02285
186.589,24.75346,-0.02580701,0.32804,1.02264
187.089,24.80119,-0.02579999,0.32693,1.02243
187.589,24.8488,-0.02579994,0.33002,1.02222
188.089,24.8964,-0.02623335,0.33093,1.022
188.589,24.944,-0.02711905,0.33325,1.02179
189.089,24.99165,-0.02712,0.33279,1.02158
189.589,25.03914,-0.02711999,0.33566,1.02137
190.089,25.08672,-0.02677391,0.33358,1.02115
190.589,25.13428,-0.02750405,0.33411,1.02094
191.089,25.1817,-0.02656871,0.33557,1.02072
191.589,25.22937,-0.02611996,0.3371,1.02051
192.089,25.27702,-0.02606019,0.33812,1.0203
192.589,25.32457,-0.02677878,0.33841,1.02008
193.089,25.3721,-0.02678019,0.33942,1.01987
193.589,25.4196,-0.02713865,0.33911,1.01965
194.089,25.46714,-0.02776952,0.33968,1.01943
194.589,25.5147,-0.02777366,0.34109,1.01922
195.089,25.56219,-0.02639941,0.34123,1.019
195.589,25.60957,-0.02645014,0.34071,1.01879
196.089,25.657,-0.02723259,0.34228,1.01857
196.589,25.7046,-0.0277767,0.34311,1.01835
197.089,25.75219,-0.02711874,0.34125,1.01813
197.589,25.79981,-0.02843674,0.34256,1.01792
198.089,25.84746,-0.02690038,0.34142,1.0177
198.589,25.89496,-0.02593376,0.34057,1.01748
199.089,25.94249,-0.02591122,0.34166,1.01726
199.589,25.99,-0.02696774,0.34017,1.01704
200.089,26.0376,-0.026899,0.34183,1.01682
200.589,26.08521,-0.02820885,0.34163,1.01661
201.089,26.13269,-0.02821992,0.34226,1.01639
201.589,26.18028,-0.02824059,0.34173,1.01617
202.089,26.2277,-0.02887049,0.34203,1.01595
202.589,26.2753,-0.02886843,0.34223,1.01572
203.089,26.32296,-0.02758623,0.34403,1.0155
203.589,26.3706,-0.02755984,0.34131,1.01528
204.089,26.4183,-0.02751772,0.34455,1.01506
204.589,26.4661,-0.02887034,0.34406,1.01484
205.089,26.5139,-0.02887,0.34492,1.01462
205.589,26.56131,-0.02887,0.34509,1.0144
206.089,26.609,-0.02886984,0.34398,1.01417
206.589,26.65666,-0.02756878,0.34618,1.01395
207.089,26.70425,-0.02754997,0.34484,1.01373
207.589,26.7519,-0.02755,0.34498,1.0135
208.089,26.7995,-0.02755,0.34563,1.01328
208.589,26.84702,-0.02755,0.34661,1.01306
209.089,26.89462,-0.02755,0.34482,1.01283
209.589,26.9422,-0.02754998,0.34553,1.01261
210.089,26.9899,-0.02755361,0.3436,1.01238
210.589,27.03743,-0.02852856,0.34581,1.01216
211.089,27.0852,-0.02886246,0.34709,1.01193
211.589,27.13278,-0.02886733,0.34325,1.0117
212.089,27.18048,-0.03022174,0.34615,1.01148
212.589,27.22816,-0.03164016,0.34689,1.01125
213.089,27.2759,-0.03122784,0.34415,1.01103
213.589,27.3237,-0.02900652,0.34499,1.0108
214.089,27.37135,-0.02900242,0.34682,1.01057
214.589,27.4186,-0.02766133,0.34668,1.01034
215.089,27.4661,-0.02872429,0.34392,1.01012
215.589,27.5138,-0.0303958,0.34694,1.00989
216.089,27.5613,-0.02925803,0.34817,1.00966
216.589,27.6089,-0.02930999,0.34617,1.00943
217.089,27.65717,-0.02931,0.3472,1.0092
217.589,27.7047,-0.02931,0.34781,1.00897
218.089,27.7522,-0.02931115,0.34865,1.00874
218.589,27.79968,-0.03034077,0.34958,1.00851
219.089,27.8472,-0.03062995,0.34915,1.00828
219.589,27.89497,-0.03062909,0.34666,1.00805
220.089,27.9426,-0.03027592,0.34746,1.00782
220.589,27.9906,-0.03060831,0.35084,1.00759
221.089,28.03845,-0.03089255,0.35,1.00736
221.589,28.08607,-0.0337742,0.34927,1.00713
222.089,28.13365,-0.03369124,0.34982,1.0069
222.589,28.1812,-0.0305908,0.34966,1.00666
223.089,28.2288,-0.03062998,0.3503,1.00643
223.589,28.2763,-0.03063,0.35096,1.0062
224.089,28.3238,-0.03063,0.35082,1.00596
224.589,28.37143,-0.03063,0.35117,1.00573
225.089,28.41886,-0.03062999,0.35157,1.0055
225.589,28.4664,-0.03078273,0.35236,1.00526
226.089,28.5139,-0.03193868,0.35338,1.00503
226.589,28.56141,-0.03176692,0.3539,1.00479
227.089,28.60908,-0.03061999,0.35404,1.00456
227.589,28.65683,-0.03079057,0.35368,1.00432
228.089,28.7044,-0.03195169,0.35253,1.00409
228.589,28.7521,-0.03324719,0.35408,1.00385
229.089,28.79973,-0.03322479,0.35404,1.00362
229.589,28.84703,-0.03193985,0.35509,1.00338
230.089,28.8945,-0.03188987,0.35489,1.00314
230.589,28.9421,-0.03326356,0.35641,1.00291
231.089,28.98961,-0.03326,0.35511,1.00267
231.589,29.0373,-0.03326,0.35416,1.00243
232.089,29.08488,-0.03326,0.35511,1.00219
232.589,29.13243,-0.03326,0.35642,1.00196
233.089,29.18005,-0.03326,0.35699,1.00172
233.589,29.22761,-0.03325962,0.35706,1.00148
234.089,29.275,-0.03384872,0.35652,1.00124
234.589,29.32245,-0.03425054,0.35681,1.001
235.089,29.3701,-0.03425,0.35694,1.00076
235.589,29.41759,-0.03425,0.35883,1.00052
236.089,29.46552,-0.03425,0.35796,1.00028
236.589,29.51316,-0.03425,0.35796,1.00004
237.089,29.5606,-0.03425,0.3579,0.9998
237.589,29.6082,-0.03425,0.35903,0.99956
238.089,29.65561,-0.03425,0.3583,0.99932
238.589,29.7033,-0.03424999,0.35804,0.99908
239.089,29.75096,-0.03425328,0.35903,0.99883
239.589,29.79857,-0.034579,0.36138,0.99859
240.089,29.8461,-0.03457999,0.36323,0.99835
240.589,29.89377,-0.03459209,0.35905,0.99811
241.089,29.94101,-0.03588939,0.36146,0.99786
241.589,29.98865,-0.03589947,0.35964,0.99762
242.089,30.03623,-0.03460353,0.36002,0.99738
242.589,30.0838,-0.03457997,0.361,0.99713
243.089,30.1315,-0.03457647,0.36254,0.99689
243.589,30.1794,-0.03556676,0.36248,0.99664
244.089,30.227,-0.03556994,0.36116,0.9964
244.589,30.2746,-0.03557,0.36042,0.99615
245.089,30.32218,-0.03557,0.36079,0.99591
245.589,30.36955,-0.03557012,0.3602,0.99566
246.089,30.4168,-0.03633007,0.36145,0.99541
246.589,30.46439,-0.03721125,0.3617,0.99517
247.089,30.5116,-0.03721176,0.36154,0.99492
247.589,30.55889,-0.0362292,0.36068,0.99467
248.089,30.60653,-0.03759157,0.36054,0.99443
248.589,30.6543,-0.03753988,0.36161,0.99418
249.089,30.702,-0.03754,0.36195,0.99393
249.589,30.75,-0.03754026,0.36281,0.99368
250.089,30.79768,-0.03888772,0.36291,0.99343
250.589,30.84515,-0.03885993,0.3637,0.99319
251.089,30.89224,-0.03883463,0.36288,0.99294
251.589,30.9397,-0.03754056,0.36313,0.99269
252.089,30.9873,-0.03755063,0.36373,0.99244
252.589,31.03469,-0.03884778,0.36336,0.99219
253.089,31.08215,-0.03886156,0.36276,0.99194
253.589,31.1298,-0.03853318,0.36455,0.99169
254.089,31.17718,-0.03845225,0.3658,0.99143
254.589,31.2249,-0.03985041,0.36418,0.99118
255.089,31.27293,-0.03985138,0.36493,0.99093
255.589,31.32064,-0.0409453,0.3644,0.99068
256.089,31.36855,-0.04084102,0.36397,0.99043
256.589,31.4161,-0.04083999,0.36319,0.99018
257.089,31.4637,-0.04084,0.36521,0.98992
257.589,31.51138,-0.04083976,0.36379,0.98967
258.089,31.5589,-0.04082465,0.36475,0.98942
258.589,31.60636,-0.0439771,0.36452,0.98916
259.089,31.6539,-0.04391125,0.36532,0.98891
259.589,31.70141,-0.04230755,0.36593,0.98865
260.089,31.74914,-0.04171009,0.36434,0.9884
260.589,31.79696,-0.04170999,0.36443,0.98815
261.089,31.8448,-0.04171,0.36486,0.98789
261.589,31.89258,-0.04171,0.36455,0.98763
262.089,31.94002,-0.04171,0.36469,0.98738
262.589,31.98762,-0.04170998,0.36482,0.98712
263.089,32.03495,-0.04173589,0.36588,0.98687
263.589,32.08235,-0.0430282,0.36653,0.98661
264.089,32.12978,-0.04303101,0.36647,0.98635
264.589,32.17737,-0.04335671,0.36658,0.9861
265.089,32.225,-0.04336002,0.36527,0.98584
265.589,32.27258,-0.04335523,0.36662,0.98558
266.089,32.32029,-0.04468369,0.36746,0.98532
266.589,32.36804,-0.04492442,0.36845,0.98506
267.089,32.41552,-0.04599862,0.36705,0.9848
267.589,32.46308,-0.04600028,0.36868,0.98455
268.089,32.51065,-0.04592337,0.36945,0.98429
268.589,32.55802,-0.04534306,0.36802,0.98403
269.089,32.6055,-0.04469384,0.36856,0.98377
269.589,32.6531,-0.04467711,0.37031,0.98351
270.089,32.70057,-0.04603299,0.36942,0.98325
270.589,32.74845,-0.04600003,0.36775,0.98298
271.089,32.79625,-0.046,0.37081,0.98272
271.589,32.84397,-0.04599992,0.37087,0.98246
272.089,32.89161,-0.04603494,0.37145,0.9822
272.589,32.9394,-0.04699071,0.37168,0.98194
273.089,32.98695,-0.04831364,0.37101,0.98168
273.589,33.03445,-0.04669214,0.37123,0.98141
274.089,33.08209,-0.04660268,0.37262,0.98115
274.589,33.12975,-0.04797492,0.37306,0.98089
275.089,33.17747,-0.04928558,0.37155,0.98062
275.589,33.22514,-0.04929002,0.37162,0.98036
276.089,33.27283,-0.04928964,0.37014,0.9801
276.589,33.32066,-0.05067481,0.37218,0.97983
277.089,33.36829,-0.05061007,0.37465,0.97957
277.589,33.4158,-0.05061948,0.37254,0.9793
278.089,33.46362,-0.05094252,0.37225,0.97904
278.589,33.51135,-0.05094,0.3733,0.97877
279.089,33.55904,-0.05094,0.37318,0.9785
279.589,33.607,-0.05096391,0.37454,0.97824
280.089,33.6548,-0.0519275,0.37417,0.97797
280.589,33.70261,-0.05286072,0.37468,0.9777
281.089,33.7504,-0.05324027,0.37437,0.97744
281.589,33.7978,-0.05351216,0.37584,0.97717
282.089,33.845,-0.05382838,0.37723,0.9769
282.589,33.89237,-0.05455865,0.37435,0.97663
283.089,33.9399,-0.05456,0.37619,0.97636
283.589,33.9878,-0.05455999,0.37577,0.9761
284.089,34.03595,-0.05457376,0.37792,0.97583
284.589,34.08409,-0.05585736,0.37571,0.97556
285.089,34.13224,-0.05587002,0.37861,0.97529
285.589,34.18,-0.05587023,0.37817,0.97502
286.089,34.22768,-0.05719385,0.37927,0.97475
286.589,34.27545,-0.05751949,0.38011,0.97448
287.089,34.323,-0.05826383,0.37961,0.97421
287.589,34.37066,-0.06015907,0.38105,0.97393
288.089,34.4182,-0.0601536,0.38199,0.97366
288.589,34.46589,-0.05884921,0.38113,0.97339
289.089,34.5137,-0.05883998,0.37979,0.97312
289.589,34.5614,-0.05883989,0.38183,0.97285
290.089,34.60934,-0.05919238,0.38085,0.97257
290.589,34.65718,-0.06148879,0.38109,0.9723
291.089,34.7049,-0.06156881,0.38181,0.97203
291.589,34.7528,-0.06278886,0.38291,0.97175
292.089,34.80049,-0.06355999,0.38219,0.97148
292.589,34.8483,-0.06410988,0.38262,0.97121
293.089,34.89607,-0.06405952,0.38337,0.97093
293.589,34.9437,-0.06543362,0.385,0.97066
294.089,34.9916,-0.06543,0.38498,0.97038
294.589,35.03941,-0.06543,0.38503,0.97011
295.089,35.08716,-0.06542959,0.38552,0.96983
295.589,35.1349,-0.0668311,0.38519,0.96955
296.089,35.18254,-0.06674986,0.38461,0.96928
296.589,35.23015,-0.0667499,0.38625,0.969
297.089,35.27771,-0.06795996,0.38368,0.96872
297.589,35.3256,-0.0693614,0.38448,0.96845
298.089,35.37332,-0.0694252,0.38465,0.96817
298.589,35.42126,-0.07070005,0.38581,0.96789
299.089,35.46926,-0.06937561,0.38501,0.96761
299.589,35.51716,-0.07069918,0.38764,0.96734
300.089,35.56495,-0.07070099,0.38729,0.96706
300.589,35.61265,-0.07164413,0.38808,0.96678
301.089,35.66046,-0.07210852,0.38982,0.9665
301.589,35.70817,-0.07334007,0.39069,0.96622
302.089,35.75569,-0.07345038,0.3887,0.96594
302.589,35.80357,-0.07464817,0.38923,0.96566
303.089,35.85159,-0.07465091,0.38913,0.96538
303.589,35.89958,-0.07596412,0.39208,0.9651
304.089,35.9475,-0.07596926,0.39083,0.96482
304.589,35.99557,-0.07798191,0.39062,0.96453
305.089,36.0434,-0.07882021,0.39068,0.96425
305.589,36.0911,-0.07862962,0.39042,0.96397
306.089,36.1389,-0.07861002,0.38979,0.96369
306.589,36.18679,-0.07973619,0.3903,0.9634
307.089,36.2346,-0.07992141,0.39137,0.96312
307.589,36.28235,-0.08084075,0.39207,0.96284
308.089,36.33012,-0.08124013,0.39427,0.96255
308.589,36.37777,-0.08123967,0.3938,0.96227
309.089,36.4257,-0.0826282,0.39406,0.96199
309.589,36.47351,-0.08257171,0.3941,0.9617
310.089,36.52135,-0.08386758,0.39441,0.96142
310.589,36.5693,-0.08553172,0.39608,0.96113
311.089,36.61705,-0.08584995,0.39383,0.96085
311.589,36.6649,-0.08585001,0.39674,0.96056
312.089,36.71283,-0.08584506,0.3976,0.96027
312.589,36.7606,-0.08717452,0.39707,0.95999
313.089,36.80836,-0.08717563,0.39699,0.9597
313.589,36.85602,-0.08848115,0.39703,0.95941
314.089,36.9039,-0.08848368,0.39674,0.95913
314.589,36.95187,-0.08980602,0.39557,0.95884
315.089,36.99986,-0.09051785,0.3989,0.95855
315.589,37.048,-0.09111962,0.39989,0.95826
316.089,37.09578,-0.09150232,0.39904,0.95797
316.589,37.14359,-0.09315251,0.40157,0.95769
317.089,37.1915,-0.09577732,0.4016,0.9574
317.589,37.2393,-0.0942981,0.4016,0.95711
318.089,37.2872,-0.09263137,0.40032,0.95682
318.589,37.335,-0.09381399,0.40193,0.95653
319.089,37.38281,-0.09386014,0.40257,0.95624
319.589,37.4305,-0.09383615,0.40082,0.95595
320.089,37.4786,-0.0951804,0.40328,0.95566
320.589,37.52664,-0.0964845,0.4043,0.95536
321.089,37.5747,-0.09885975,0.40651,0.95507
321.589,37.62288,-0.10009,0.40663,0.95478
322.089,37.67096,-0.10045,0.40687,0.95449
322.589,37.719,-0.10044,0.40853,0.9542
323.089,37.76693,-0.10169,0.40919,0.9539
323.589,37.81483,-0.10299,0.40882,0.95361
324.089,37.8628,-0.10441,0.40819,0.95332
324.589,37.9107,-0.10576,0.41042,0.95302
325.089,37.9587,-0.10572,0.4114,0.95273
325.589,38.00674,-0.10702,0.41017,0.95243
326.089,38.05489,-0.10704,0.41071,0.95214
326.589,38.1029,-0.10722,0.41451,0.95184
327.089,38.15096,-0.10836,0.41405,0.95155
327.589,38.19907,-0.10968,0.4151,0.95125
328.089,38.2472,-0.11017,0.41535,0.95096
328.589,38.2952,-0.11157,0.4162,0.95066
329.089,38.3431,-0.11231,0.4175,0.95037
329.589,38.39105,-0.11367,0.42017,0.95007
330.089,38.439,-0.11494,0.42148,0.94977
330.589,38.48705,-0.1161,0.42192,0.94947
331.089,38.53513,-0.11754,0.42326,0.94918
331.589,38.58325,-0.11757,0.42451,0.94888
332.089,38.6314,-0.1189,0.42568,0.94858
332.589,38.6795,-0.12021,0.42846,0.94828
333.089,38.72743,-0.12298,0.42944,0.94798
333.589,38.77539,-0.1233,0.42973,0.94768
334.089,38.82338,-0.12427,0.43061,0.94738
334.589,38.8714,-0.12426,0.43445,0.94708
335.089,38.91953,-0.12572,0.43429,0.94678
335.589,38.96776,-0.12736,0.43575,0.94648
336.089,39.01577,-0.12844,0.43674,0.94618
336.589,39.0638,-0.13148,0.4384,0.94588
337.089,39.11183,-0.13416,0.44043,0.94558
337.589,39.15979,-0.13393,0.44093,0.94528
338.089,39.20799,-0.13393,0.44353,0.94498
338.589,39.25613,-0.13526,0.444,0.94467
339.089,39.30413,-0.13534,0.44474,0.94437
339.589,39.35208,-0.13669,0.44651,0.94407
340.089,39.40011,-0.13873,0.44826,0.94377
340.589,39.44809,-0.14064,0.45084,0.94346
341.089,39.49629,-0.14212,0.45256,0.94316
341.589,39.5445,-0.14451,0.45375,0.94285
342.089,39.59253,-0.14604,0.45623,0.94255
342.589,39.64056,-0.14832,0.45969,0.94225
343.089,39.6887,-0.15027,0.4604,0.94194
343.589,39.73663,-0.15173,0.46283,0.94163
344.089,39.7847,-0.1531,0.46424,0.94133
344.589,39.83295,-0.15546,0.46532,0.94102
345.089,39.88093,-0.15599,0.46848,0.94072
345.589,39.92903,-0.15786,0.47109,0.94041
346.089,39.97717,-0.15918,0.47197,0.9401
346.589,40.0253,-0.16068,0.47171,0.9398
347.089,40.07343,-0.16401,0.4773,0.93949
347.589,40.12189,-0.16457,0.4781,0.93918
348.089,40.1702,-0.16654,0.48247,0.93887
348.589,40.21852,-0.1692,0.48233,0.93856
349.089,40.2669,-0.17177,0.48544,0.93826
349.589,40.31504,-0.17401,0.48838,0.93795
350.089,40.36323,-0.17643,0.49149,0.93764
350.589,40.41144,-0.17793,0.49506,0.93733
351.089,40.45955,-0.18082,0.49689,0.93702
351.589,40.50738,-0.18325,0.50182,0.93671
352.089,40.5557,-0.18575,0.50507,0.9364
352.589,40.604,-0.18838,0.50561,0.93609
353.089,40.65221,-0.19013,0.51043,0.93578
353.589,40.70053,-0.193,0.51435,0.93546
354.089,40.7488,-0.19559,0.51752,0.93515
354.589,40.79691,-0.19759,0.52114,0.93484
355.089,40.84493,-0.20035,0.52456,0.93453
355.589,40.89322,-0.20285,0.52741,0.93421
356.089,40.94164,-0.20609,0.53271,0.9339
356.589,40.99,-0.20733,0.53678,0.93359
357.089,41.03861,-0.20829,0.5408,0.93328
357.589,41.0869,-0.2141,0.54428,0.93296
358.089,41.1352,-0.21922,0.54814,0.93265
358.589,41.18351,-0.22278,0.55308,0.93233
359.089,41.23186,-0.22431,0.55831,0.93202
359.589,41.28031,-0.22824,0.56227,0.9317
360.089,41.32878,-0.23129,0.56817,0.93139
360.589,41.37707,-0.23327,0.5729,0.93107
361.089,41.42557,-0.23707,0.57826,0.93076
361.589,41.47401,-0.24224,0.58568,0.93044
362.089,41.52243,-0.24535,0.5901,0.93012
362.589,41.57115,-0.24886,0.59539,0.92981
363.089,41.61955,-0.25252,0.6047,0.92949
363.589,41.66803,-0.25609,0.61027,0.92917
364.089,41.71637,-0.26093,0.61497,0.92885
364.589,41.76467,-0.26486,0.62157,0.92853
365.089,41.8132,-0.26935,0.6273,0.92822
365.589,41.86142,-0.27499,0.63435,0.9279
366.089,41.90996,-0.27884,0.63999,0.92758
366.589,41.95841,-0.28414,0.64755,0.92726
367.089,42.00663,-0.28826,0.65528,0.92694
367.589,42.055,-0.2921,0.66185,0.92662
368.089,42.10347,-0.29718,0.67102,0.9263
368.589,42.15186,-0.3034,0.67897,0.92598
369.089,42.2005,-0.30957,0.68519,0.92566
369.589,42.2491,-0.31639,0.694,0.92534
370.089,42.29724,-0.3208,0.70401,0.92502
370.589,42.34575,-0.32457,0.71342,0.92469
371.089,42.39427,-0.33057,0.72256,0.92437
371.589,42.44273,-0.33581,0.73291,0.92405
372.089,42.49145,-0.34159,0.73947,0.92373
372.589,42.53991,-0.34777,0.74968,0.9234
373.089,42.5883,-0.35536,0.76029,0.92308
373.589,42.63663,-0.36211,0.76956,0.92276
374.089,42.6852,-0.36875,0.78018,0.92243
374.589,42.7336,-0.37491,0.79062,0.92211
375.089,42.78229,-0.38169,0.80394,0.92178
375.589,42.8309,-0.38939,0.81459,0.92146
376.089,42.87952,-0.39715,0.82495,0.92113
376.589,42.9281,-0.40479,0.836,0.92081
377.089,42.97672,-0.41281,0.85098,0.92048
377.589,43.0253,-0.42037,0.86548,0.92016
378.089,43.07374,-0.42834,0.87556,0.91983
378.589,43.12218,-0.43683,0.89064,0.9195
379.089,43.1706,-0.44525,0.90285,0.91918
379.589,43.21915,-0.45318,0.91863,0.91885
380.089,43.26769,-0.46279,0.93004,0.91852
380.589,43.31642,-0.47144,0.94753,0.91819
381.089,43.36507,-0.48155,0.96494,0.91787
381.589,43.4138,-0.49258,0.98039,0.91754
382.089,43.4625,-0.50092,0.99683,0.91721
382.589,43.51119,-0.51198,1.01344,0.91688
383.089,43.55996,-0.52272,1.03567,0.91655
383.589,43.60848,-0.53283,1.05096,0.91622
384.089,43.6571,-0.5442,1.06952,0.91589
384.589,43.70581,-0.55589,1.09336,0.91556
385.089,43.75427,-0.56843,1.11354,0.91523
385.589,43.803,-0.58058,1.13268,0.9149
386.089,43.85167,-0.59136,1.15331,0.91457
386.589,43.90025,-0.60318,1.17738,0.91424
387.089,43.94894,-0.61647,1.19881,0.9139
387.589,43.99765,-0.63122,1.22567,0.91357
388.089,44.0462,-0.64482,1.24762,0.91324
388.589,44.09482,-0.65937,1.27263,0.91291
389.089,44.14362,-0.67411,1.29829,0.91257
389.589,44.19233,-0.689,1.32578,0.91224
390.089,44.24098,-0.70454,1.35072,0.91191
390.589,44.28987,-0.72016,1.38135,0.91157
391.089,44.33868,-0.7354,1.40897,0.91124
391.589,44.38755,-0.75156,1.44387,0.9109
392.089,44.43634,-0.76957,1.47008,0.91057
392.589,44.48514,-0.78758,1.50094,0.91024
393.089,44.53367,-0.80502,1.53341,0.9099
393.589,44.582,-0.82371,1.5668,0.90956
394.089,44.6308,-0.84308,1.60371,0.90923
394.589,44.6798,-0.86467,1.63684,0.90889
395.089,44.7288,-0.88483,1.67306,0.90856
395.589,44.77818,-0.90607,1.70803,0.90822
396.089,44.8271,-0.92714,1.74665,0.90788
396.589,44.87592,-0.94954,1.7834,0.90754
397.089,44.92477,-0.97281,1.81999,0.90721
397.589,44.97368,-0.99484,1.85711,0.90687
398.089,45.02259,-1.02072,1.89706,0.90653
398.589,45.0717,-1.04605,1.94679,0.90619
399.089,45.1208,-1.07107,1.98242,0.90585
399.589,45.1697,-1.09546,2.03127,0.90551
400.089,45.21888,-1.12238,2.07409,0.90517
400.589,45.26802,-1.14978,2.11974,0.90483
401.089,45.31713,-1.17985,2.16185,0.90449
401.589,45.36623,-1.2084,2.22599,0.90415
402.089,45.41547,-1.23789,2.27155,0.90381
402.589,45.46465,-1.2688,2.31701,0.90347
403.089,45.51381,-1.30132,2.36097,0.90313
403.589,45.56293,-1.33407,2.40648,0.90279
404.089,45.61213,-1.36208,2.44852,0.90245
404.589,45.6612,-1.39877,2.4945,0.9021
405.089,45.71018,-1.43508,2.5379,0.90176
405.589,45.75887,-1.47068,2.59784,0.90142
406.089,45.8078,-1.50388,2.63494,0.90107
406.589,45.85692,-1.5394,2.68059,0.90073
407.089,45.90593,-1.57641,2.7276,0.90039
407.589,45.9554,-1.61666,2.77227,0.90004
408.089,46.00493,-1.65555,2.81205,0.8997
408.589,46.0541,-1.69426,2.85912,0.89935
409.089,46.10345,-1.73358,2.89903,0.89901
409.589,46.15269,-1.77628,2.93983,0.89866
410.089,46.2018,-1.81833,2.9741,0.89832
410.589,46.25096,-1.85926,3.00795,0.89797
411.089,46.30014,-1.90187,3.03864,0.89763
411.589,46.3491,-1.94584,3.07954,0.89728
412.089,46.39829,-1.99119,3.11135,0.89693
412.589,46.44749,-2.03398,3.13197,0.89659
413.089,46.4965,-2.077,3.1596,0.89624
413.589,46.54575,-2.12374,3.18834,0.89589
414.089,46.59472,-2.17099,3.20799,0.89554
414.589,46.64374,-2.21738,3.22198,0.8952
415.089,46.6928,-2.26272,3.24313,0.89485
415.589,46.74179,-2.30865,3.25328,0.8945
416.089,46.7907,-2.35566,3.25825,0.89415
416.589,46.83952,-2.40406,3.25493,0.8938
417.089,46.88831,-2.44874,3.24914,0.89345
417.589,46.9373,-2.49479,3.24764,0.8931
418.089,46.98602,-2.54164,3.23988,0.89275
418.589,47.0349,-2.58922,3.22077,0.8924
419.089,47.08365,-2.63599,3.19648,0.89205
419.589,47.13232,-2.68044,3.16926,0.8917
420.089,47.18108,-2.72492,3.14377,0.89135
420.589,47.22987,-2.76951,3.10526,0.89099
421.089,47.2785,-2.81567,3.06025,0.89064
421.589,47.327,-2.85958,3.03515,0.89029
422.089,47.37527,-2.90285,2.98762,0.88994
422.589,47.4238,-2.94581,2.93246,0.88958
423.089,47.47208,-2.98673,2.87069,0.88923
423.589,47.52028,-3.0281,2.80791,0.88888
424.089,47.56835,-3.06747,2.75141,0.88852
424.589,47.6164,-3.10601,2.6838,0.88817
425.089,47.6643,-3.14405,2.6126,0.88782
425.589,47.71249,-3.18246,2.53299,0.88746
426.089,47.76127,-3.21953,2.4548,0.88711
426.589,47.8095,-3.25507,2.37608,0.88675
427.089,47.85799,-3.28811,2.29495,0.8864
427.589,47.9063,-3.32008,2.20763,0.88604
428.089,47.9543,-3.35276,2.12499,0.88568
428.589,48.00245,-3.38379,2.03552,0.88533
429.089,48.05039,-3.41213,1.94503,0.88497
429.589,48.0983,-3.4397,1.85821,0.88461
430.089,48.14634,-3.46467,1.76835,0.88426
430.589,48.1944,-3.49097,1.68047,0.8839
431.089,48.2425,-3.51511,1.59542,0.88354
431.589,48.2904,-3.53725,1.51203,0.88318
432.089,48.33831,-3.55783,1.42715,0.88282
432.589,48.38627,-3.57895,1.34609,0.88246
433.089,48.43425,-3.59887,1.26776,0.88211
433.589,48.4823,-3.61759,1.18833,0.88175
434.089,48.5304,-3.6345,1.11669,0.88139
434.589,48.57824,-3.64944,1.04405,0.88103
435.089,48.62596,-3.66515,0.9779,0.88067
435.589,48.6738,-3.68062,0.91443,0.88031
436.089,48.72143,-3.693,0.8539,0.87995
436.589,48.7693,-3.70587,0.79598,0.87958
437.089,48.8174,-3.71772,0.74135,0.87922
437.589,48.86545,-3.72854,0.68837,0.87886
438.089,48.91356,-3.73883,0.63581,0.8785
438.589,48.96179,-3.74951,0.5938,0.87814
439.089,49.00997,-3.75817,0.55197,0.87777
439.589,49.0582,-3.76667,0.5104,0.87741
440.089,49.10644,-3.77503,0.47269,0.87705
440.589,49.1548,-3.78272,0.43741,0.87668
441.089,49.20325,-3.78907,0.40446,0.87632
441.589,49.25157,-3.797,0.37142,0.87596
442.089,49.2999,-3.80241,0.34296,0.87559
442.589,49.34853,-3.80678,0.31531,0.87523
443.089,49.397,-3.81301,0.29353,0.87486
443.589,49.4454,-3.81776,0.26848,0.8745
444.089,49.494,-3.82234,0.24821,0.87413
444.589,49.54238,-3.8271,0.22715,0.87377
445.089,49.59085,-3.83185,0.20946,0.8734
445.589,49.63937,-3.83485,0.19116,0.87304
446.089,49.6879,-3.83868,0.17492,0.87267
446.589,49.73665,-3.84283,0.15935,0.8723
447.089,49.78539,-3.84571,0.14363,0.87193
447.589,49.8341,-3.84872,0.13173,0.87157
448.089,49.88281,-3.85207,0.11959,0.8712
448.589,49.93163,-3.8549,0.10762,0.87083
449.089,49.9803,-3.85667,0.09627795,0.87046
449.589,50.02874,-3.86006,0.08468731,0.87009
450.089,50.0773,-3.86253,0.07398279,0.86973
450.589,50.1258,-3.86461,0.06399993,0.86936
451.089,50.17454,-3.86754,0.05734814,0.86899
451.589,50.22325,-3.8684,0.04827535,0.86862
452.089,50.27202,-3.87021,0.04233469,0.86825
452.589,50.3209,-3.87178,0.0354206,0.86788
453.089,50.36932,-3.87404,0.02659232,0.86751
453.589,50.4182,-3.87547,0.02057033,0.86714
454.089,50.46728,-3.87681,0.01312872,0.86676
454.589,50.51635,-3.87742,0.006703247,0.86639
455.089,50.5657,-3.87876,0.001756849,0.86602
455.589,50.6147,-3.87984,-0.001888092,0.86565
456.089,50.66364,-3.88047,-0.00741481,0.86528
456.589,50.71265,-3.88233,-0.009862466,0.8649
457.089,50.7614,-3.88352,-0.01568583,0.86453
457.589,50.8104,-3.88534,-0.02266489,0.86416
458.089,50.85929,-3.88842,-0.02427476,0.86379
458.589,50.90829,-3.88978,-0.02957544,0.86341
459.089,50.9576,-3.88642,-0.03532227,0.86304
459.589,51.0065,-3.88662,-0.03901015,0.86266
460.089,51.05542,-3.8879,-0.04132034,0.86229
460.589,51.1044,-3.88875,-0.04677308,0.86191
461.089,51.15333,-3.88939,-0.05170867,0.86154
461.589,51.2023,-3.8905,-0.0549825,0.86116
462.089,51.25143,-3.89148,-0.06008816,0.86079
462.589,51.3005,-3.89149,-0.06407425,0.86041
463.089,51.3495,-3.89149,-0.06573995,0.86004
463.589,51.3985,-3.89149,-0.07212625,0.85966
464.089,51.44737,-3.8928,-0.07462809,0.85928
464.589,51.49633,-3.89281,-0.07586678,0.85891
465.089,51.54541,-3.89281,-0.07739821,0.85853
465.589,51.59454,-3.89191,-0.07937685,0.85815
466.089,51.64369,-3.89149,-0.0798834,0.85777
466.589,51.6929,-3.89149,-0.07941984,0.85739
467.089,51.74196,-3.89246,-0.08107143,0.85702
467.589,51.79092,-3.89248,-0.08014767,0.85664
468.089,51.8399,-3.89248,-0.07990877,0.85626
468.589,51.8889,-3.89248,-0.07982787,0.85588
469.089,51.93789,-3.89116,-0.07825416,0.8555
469.589,51.98677,-3.89151,-0.07330287,0.85512
470.089,52.03595,-3.89149,-0.07441933,0.85474
470.589,52.0851,-3.89149,-0.0738789,0.85436
471.089,52.13422,-3.89149,-0.07290886,0.85398
471.589,52.1835,-3.89149,-0.07403875,0.8536
472.089,52.23263,-3.89149,-0.07246557,0.85322
472.589,52.28174,-3.89201,-0.07444363,0.85283
473.089,52.3307,-3.89347,-0.0718168,0.85245
473.589,52.37993,-3.89346,-0.07342517,0.85207
474.089,52.4291,-3.89346,-0.07043359,0.85169
474.589,52.47834,-3.89319,-0.07144604,0.85131
475.089,52.52755,-3.89214,-0.0733286,0.85092
475.589,52.57655,-3.89215,-0.07418521,0.85054
476.089,52.62554,-3.89083,-0.0717685,0.85016
476.589,52.6745,-3.89074,-0.07458517,0.84977
477.089,52.72354,-3.8928,-0.07560245,0.84939
477.589,52.77276,-3.89278,-0.07601148,0.849
478.089,52.82192,-3.89314,-0.07685661,0.84862
478.589,52.8712,-3.89306,-0.07868885,0.84824
479.089,52.92034,-3.89185,-0.07864883,0.84785
479.589,52.9695,-3.89214,-0.07902545,0.84746
480.089,53.0187,-3.89214,-0.07924846,0.84708
480.589,53.06788,-3.89214,-0.08170063,0.84669
481.089,53.1171,-3.89216,-0.08519092,0.84631
481.589,53.1662,-3.89313,-0.08935663,0.84592
482.089,53.21539,-3.89313,-0.08917466,0.84553
482.589,53.2644,-3.89313,-0.09093832,0.84515
483.089,53.3136,-3.89185,-0.09119846,0.84476
483.589,53.36285,-3.89182,-0.09393291,0.84437
484.089,53.4122,-3.89318,-0.09433795,0.84398
484.589,53.4617,-3.89313,-0.09588693,0.8436
485.089,53.51116,-3.89298,-0.0957034,0.84321
485.589,53.5605,-3.89182,-0.09718336,0.84282
486.089,53.60989,-3.89182,-0.09810091,0.84243
486.589,53.65922,-3.89182,-0.09728828,0.84204
487.089,53.70848,-3.89182,-0.09602095,0.84165
487.589,53.7579,-3.89211,-0.09873693,0.84126
488.089,53.80721,-3.89297,-0.09927299,0.84087
488.589,53.8565,-3.89313,-0.09984385,0.84048
489.089,53.90571,-3.89313,-0.09879448,0.84009
489.589,53.9549,-3.89316,-0.09858584,0.8397
490.089,54.0036,-3.89247,-0.09644407,0.83931
490.589,54.0527,-3.89325,-0.09615239,0.83892
491.089,54.1019,-3.89419,-0.09791372,0.83853
491.589,54.1512,-3.89159,-0.09896598,0.83813
492.089,54.20095,-3.89225,-0.10026,0.83774
492.589,54.25049,-3.89225,-0.10251,0.83735
493.089,54.29984,-3.89225,-0.09947018,0.83696
493.589,54.3491,-3.89225,-0.10094,0.83656
494.089,54.39833,-3.89225,-0.10141,0.83617
494.589,54.4474,-3.89225,-0.10278,0.83578
495.089,54.49669,-3.89362,-0.10163,0.83538
495.589,54.5459,-3.89228,-0.10323,0.83499
496.089,54.5953,-3.89226,-0.10466,0.8346
496.589,54.6446,-3.89369,-0.10234,0.8342
497.089,54.6941,-3.89544,-0.1032,0.83381
497.589,54.7436,-3.89395,-0.10548,0.83341
498.089,54.79308,-3.89135,-0.10559,0.83302
498.589,54.8425,-3.89138,-0.10581,0.83262
499.089,54.892,-3.89142,-0.10618,0.83222
499.589,54.9413,-3.89138,-0.10581,0.83183
500.089,54.9908,-3.89274,-0.10549,0.83143
500.589,55.04036,-3.8927,-0.10753,0.83104
501.089,55.08975,-3.89136,-0.10663,0.83064
501.589,55.13919,-3.89237,-0.10756,0.83024
502.089,55.18855,-3.89234,-0.1086,0.82984
502.589,55.2379,-3.89336,-0.10817,0.82945
503.089,55.28722,-3.89336,-0.10782,0.82905
503.589,55.3368,-3.89333,-0.10549,0.82865
504.089,55.38649,-3.89369,-0.1062,0.82825
504.589,55.4361,-3.89369,-0.10794,0.82785
505.089,55.48587,-3.89369,-0.10941,0.82745
505.589,55.53556,-3.89375,-0.11154,0.82705
506.089,55.5852,-3.8927,-0.10844,0.82665
506.589,55.6347,-3.89273,-0.11055,0.82625
507.089,55.684,-3.89402,-0.10962,0.82585
507.589,55.7334,-3.89402,-0.10969,0.82545
508.089,55.78275,-3.89402,-0.11069,0.82505
508.589,55.8321,-3.89376,-0.11096,0.82465
509.089,55.88155,-3.89303,-0.11211,0.82425
509.589,55.9309,-3.89303,-0.11123,0.82385
510.089,55.9804,-3.89268,-0.11106,0.82345
510.589,56.02972,-3.8927,-0.11228,0.82305
511.089,56.07917,-3.89204,-0.11091,0.82264
511.589,56.12876,-3.89171,-0.11356,0.82224
512.089,56.17827,-3.89171,-0.11339,0.82184
512.589,56.22785,-3.89171,-0.11301,0.82144
513.089,56.2773,-3.89171,-0.11327,0.82103
513.589,56.32663,-3.89173,-0.11433,0.82063
514.089,56.376,-3.89305,-0.11395,0.82023
514.589,56.42552,-3.89362,-0.11557,0.81982
515.089,56.475,-3.89437,-0.11554,0.81942
515.589,56.52443,-3.89368,-0.11599,0.81901
516.089,56.5734,-3.89366,-0.11709,0.81861
516.589,56.6224,-3.89301,-0.11545,0.8182
517.089,56.67122,-3.89302,-0.1164,0.8178
517.589,56.7203,-3.89302,-0.1172,0.81739
518.089,56.77012,-3.89302,-0.11565,0.81699
518.589,56.81994,-3.89302,-0.11635,0.81658
519.089,56.8698,-3.89302,-0.11655,0.81618
519.589,56.9195,-3.89302,-0.11901,0.81577
520.089,56.96881,-3.89302,-0.11838,0.81536
520.589,57.0183,-3.89302,-0.11868,0.81496
521.089,57.0678,-3.89302,-0.11745,0.81455
521.589,57.1172,-3.89302,-0.11815,0.81414
522.089,57.16664,-3.89301,-0.1169,0.81373
522.589,57.216,-3.89434,-0.11926,0.81333
523.089,57.2655,-3.89434,-0.11944,0.81292
523.589,57.3149,-3.89431,-0.11753,0.81251
524.089,57.3643,-3.89302,-0.11845,0.8121
524.589,57.4137,-3.89302,-0.11982,0.81169
525.089,57.4632,-3.89311,-0.11833,0.81128
525.589,57.51275,-3.89205,-0.12119,0.81087
526.089,57.56215,-3.89303,-0.12195,0.81046
526.589,57.6116,-3.89302,-0.12003,0.81005
527.089,57.66114,-3.89302,-0.12027,0.80964
527.589,57.7105,-3.89302,-0.12082,0.80923
528.089,57.7599,-3.89302,-0.12066,0.80882
528.589,57.8095,-3.89302,-0.12152,0.80841
529.089,57.85878,-3.89302,-0.12036,0.808
529.589,57.9082,-3.89303,-0.12169,0.80759
530.089,57.9577,-3.89433,-0.12196,0.80718
530.589,58.00704,-3.89283,-0.12219,0.80676
531.089,58.05653,-3.8915,-0.12223,0.80635
531.589,58.10598,-3.8928,-0.12132,0.80594
532.089,58.15537,-3.89279,-0.12162,0.80553
532.589,58.2048,-3.89413,-0.12264,0.80511
533.089,58.2545,-3.89412,-0.12136,0.8047
533.589,58.30396,-3.89412,-0.11949,0.80429
534.089,58.3535,-3.89412,-0.12155,0.80387
534.589,58.40299,-3.89339,-0.1223,0.80346
535.089,58.45247,-3.89327,-0.12296,0.80304
535.589,58.5019,-3.89412,-0.12183,0.80263
536.089,58.55129,-3.89413,-0.12181,0.80222
536.589,58.60079,-3.89413,-0.12117,0.8018
537.089,58.6501,-3.89378,-0.12313,0.80138
537.589,58.6995,-3.8938,-0.1229,0.80097
538.089,58.74899,-3.8938,-0.12463,0.80055
538.589,58.7984,-3.8938,-0.12277,0.80014
539.089,58.84789,-3.8938,-0.12574,0.79972
539.589,58.89736,-3.8938,-0.12343,0.79931
540.089,58.94681,-3.8938,-0.12537,0.79889
540.589,58.99615,-3.8938,-0.1268,0.79847
541.089,59.04554,-3.8938,-0.12519,0.79805
541.589,59.0949,-3.89378,-0.12616,0.79764
542.089,59.1443,-3.89382,-0.1262,0.79722
542.589,59.19365,-3.8938,-0.12551,0.7968
543.089,59.2432,-3.8938,-0.12544,0.79638
543.589,59.29266,-3.8938,-0.12711,0.79597
544.089,59.34214,-3.8938,-0.12716,0.79555
544.589,59.3917,-3.89521,-0.12651,0.79513
545.089,59.4411,-3.89512,-0.12858,0.79471
545.589,59.49049,-3.89512,-0.12879,0.79429
546.089,59.54008,-3.89512,-0.1307,0.79387
546.589,59.5896,-3.8938,-0.12985,0.79345
547.089,59.63905,-3.89379,-0.12925,0.79303
547.589,59.6886,-3.89478,-0.13036,0.79261
548.089,59.7381,-3.89477,-0.12785,0.79219
548.589,59.7875,-3.89607,-0.13112,0.79177
549.089,59.83709,-3.89475,-0.129,0.79135
549.589,59.88678,-3.89484,-0.13116,0.79093
550.089,59.93642,-3.89347,-0.13091,0.79051
550.589,59.98595,-3.89347,-0.1317,0.79008
550.689,59.99592,-3.89347,-0.13172,0.79