File: 01_Data/Polyester_Bed_Skirt/Cone/Polyester_Bed_Skirt_Cone_HF25Scan_220523_R3.csv
Names,Time,Stack TC,Smoke TC,Exh Press,Smoke Comp,Smoke Meas,CO Meter,CO2 Meter,O2 Meter,Sample Mass,Ext Coeff,Start Test,Flame Verif
Chan Gain,,500,500,1,1,1,1,1,1,1,1,1.0,1.0
Offset,,0,0,0.135828,0,0,0,0,0,0,0,0.0,0.0
Gain,,1,1,25.011,13.8491,15.2622,1,1,1,1.00087,1.03118,1.0,1.0
Units,sec,C,C,Pa,%,%,%,%,%,g,/m,,
Baseline,,30.5524,31.2496,137.079,105.117,110.622,0.000212694,0.0485213,20.9889,-451.059,-0.461624,,
5,1,28.2902,29.3161,133.519,105.215,110.833,-9.04648e-05,0.0513199,20.9849,581.456,-0.470569,0.0,0.0
10,2.25,27.6392,28.8401,137.445,105.199,110.429,-8.77428e-05,0.0511694,20.985,581.606,-0.438819,0.0,0.0
15,3.5,28.0317,29.0516,137.876,105.193,110.66,-7.16623e-05,0.0509996,20.9856,581.556,-0.458269,0.0,0.0
20,4.75,28.3175,28.8221,142.183,105.192,111.044,-8.79962e-05,0.0508794,20.9867,581.656,-0.489733,0.0,0.0
25,6,28.051,28.6789,137.75,105.176,109.979,-0.000165354,0.0507401,20.988,581.616,-0.403852,0.0,0.0
30,7.25,28.6101,29.3729,135.609,105.173,111.17,-0.00024109,0.0505379,20.9888,581.626,-0.501606,0.0,0.0
35,8.5,28.6416,29.023,140.746,105.163,110.866,-0.000308085,0.0503126,20.9893,581.646,-0.477738,0.0,0.0
40,9.75,28.1515,29.3643,138.313,105.16,110.781,-0.000335846,0.0500913,20.9895,581.646,-0.470996,0.0,0.0
45,11,28.6815,29.4943,138.588,105.153,110.905,-0.00028675,0.0498917,20.9897,581.656,-0.481763,0.0,0.0
50,12.25,28.6769,28.6905,139.674,105.154,110.69,-0.000217549,0.0497292,20.9898,581.656,-0.464087,0.0,0.0
55,13.5,28.5032,28.5746,137.691,105.137,110.498,-0.000144738,0.049599,20.9899,581.666,-0.449846,0.0,0.0
60,14.75,28.6044,29.4249,138.683,105.13,110.537,-0.000128191,0.04972,20.9897,581.506,-0.45363,0.0,0.0
65,16,28.6619,28.75,136.749,105.118,111.091,-0.000119355,0.0503576,20.9888,581.536,-0.49989,0.0,0.0
70,17.25,28.5915,29.5486,138.164,105.112,110.103,-7.39583e-05,0.0509846,20.9883,581.566,-0.419601,0.0,0.0
75,18.5,28.5912,29.044,137.48,105.116,111.012,-1.12627e-05,0.0519443,20.9876,581.586,-0.493697,0.0,0.0
80,19.75,28.3812,29.0149,139.777,105.108,111.016,5.26488e-05,0.0531545,20.9857,581.596,-0.494655,0.0,0.0
85,21,28.7991,29.2777,134.986,105.093,110.748,8.26393e-05,0.0543564,20.9842,581.616,-0.474116,0.0,0.0
90,22.25,28.6902,29.5183,137.568,105.105,110.932,8.27946e-05,0.0555767,20.9827,581.596,-0.488112,0.0,0.0
95,23.5,28.5638,29.1276,131.349,105.097,110.823,7.51631e-05,0.0566399,20.9819,581.626,-0.479912,0.0,0.0
100,24.75,28.8755,29.3025,134.107,105.08,111.03,7.32646e-05,0.0572791,20.9814,581.646,-0.498268,0.0,0.0
105,26,28.7537,29.4784,137.561,105.077,111.013,8.51829e-05,0.0573784,20.9811,581.626,-0.497045,0.0,0.0
110,27.25,28.8243,29.3849,137.448,105.074,110.244,0.000111938,0.0570741,20.9809,581.636,-0.434462,0.0,0.0
115,28.5,28.5118,29.4159,134.648,105.08,111.155,0.000133563,0.0566489,20.9808,581.636,-0.508357,0.0,0.0
120,29.75,28.4566,29.2316,136.422,105.078,110.759,0.00012725,0.0561243,20.9819,581.656,-0.47634,0.0,0.0
125,31,28.3832,29.6808,138.414,105.066,110.939,0.00011679,0.0555757,20.9827,581.646,-0.492029,0.0,0.0
130,32.25,28.7343,29.6519,135.688,105.064,110.904,0.000126385,0.0549691,20.9841,581.646,-0.489251,0.0,0.0
135,33.5,28.7484,29.1738,138.756,105.08,110.97,0.000145158,0.0543611,20.985,581.626,-0.493334,0.0,0.0
140,34.75,29.3086,30.0254,137.467,105.052,110.196,0.000140074,0.053818,20.9855,581.626,-0.432417,0.0,0.0
145,36,28.8435,29.4831,135.724,105.063,110.435,0.000104182,0.0533413,20.986,581.626,-0.451025,0.0,0.0
150,37.25,28.8138,29.54,136.769,105.062,111.037,7.46022e-05,0.0527447,20.987,581.616,-0.500365,0.0,0.0
155,38.5,28.2105,29.1877,138.262,105.064,111.141,6.37047e-05,0.052038,20.9881,581.626,-0.508567,0.0,0.0
160,39.75,29.027,29.7319,134.849,105.05,111.301,6.89788e-05,0.0514164,20.9892,581.626,-0.522835,0.0,0.0
165,41,28.8808,29.5037,138.261,105.061,110.214,8.60669e-05,0.0509352,20.9901,581.616,-0.433144,0.0,0.0
170,42.25,28.4395,29.6261,135.862,105.048,110.553,0.00010495,0.0504993,20.991,581.616,-0.46202,0.0,0.0
175,43.5,29.3283,29.7596,134.922,105.041,110.222,0.000100708,0.0501131,20.9915,581.626,-0.43554,0.0,0.0
180,44.75,28.5845,29.3214,139.453,105.043,110.993,8.5929e-05,0.0498799,20.9916,581.646,-0.498398,0.0,0.0
185,46,29.2522,29.5226,136.365,105.048,110.322,7.05857e-05,0.0498954,20.9909,581.626,-0.44306,0.0,0.0
190,47.25,28.8034,29.806,135.959,105.056,110.334,4.00244e-05,0.0499616,20.9905,581.626,-0.443398,0.0,0.0
195,48.5,28.7705,29.5134,135.743,105.037,110.89,-3.00282e-06,0.0501257,20.9903,581.616,-0.490479,0.0,0.0
200,49.75,28.8121,29.6112,136.546,105.041,110.933,-3.86471e-05,0.0503627,20.9901,581.616,-0.493607,0.0,0.0
205,51,29.2799,29.4091,138.156,105.051,110.811,-5.98701e-05,0.0505918,20.9891,581.616,-0.482891,0.0,0.0
210,52.25,29.0136,29.4466,139.772,105.05,110.129,-5.15463e-05,0.0506838,20.9892,581.616,-0.427054,0.0,0.0
215,53.5,29.3788,29.9544,136.088,105.026,110.47,-3.29055e-05,0.0505902,20.9892,581.626,-0.457052,0.0,0.0
220,54.75,29.1951,29.382,139.09,105.03,110.055,-1.2807e-05,0.050463,20.9892,581.616,-0.422679,0.0,0.0
225,56,28.8471,29.6494,137.191,105.036,110.576,5.2975e-06,0.0503154,20.9893,581.626,-0.464981,0.0,0.0
230,57.25,28.933,29.8811,135.885,105.025,110.291,3.53854e-05,0.0501808,20.9893,581.626,-0.442504,0.0,0.0
235,58.5,29.3598,30.0887,134.097,105.013,110.943,6.02088e-05,0.050115,20.9893,581.606,-0.496882,0.0,0.0
240,59.75,29.6525,29.4672,133.686,105.021,110.472,4.85872e-05,0.0500725,20.9893,581.616,-0.457716,0.0,0.0
245,61,29.2142,29.4892,135.716,105.021,110.867,2.10628e-06,0.0499789,20.9895,581.616,-0.489961,0.0,0.0
250,62.25,29.2446,30.0313,134.651,105.002,111.081,-7.69176e-05,0.0498443,20.9897,581.616,-0.509063,0.0,0.0
255,63.5,28.9406,30.019,133.214,105.011,110.441,-0.000151681,0.0496826,20.9899,581.596,-0.456036,0.0,0.0
260,64.75,29.2152,29.6982,138.82,105.001,110.294,-0.000160577,0.0495486,20.99,581.606,-0.444883,0.0,0.0
265,66,28.63,29.651,135.884,104.993,110.749,-0.000105429,0.0494352,20.9901,581.616,-0.482745,0.0,0.0
270,67.25,29.1934,29.6415,132.006,104.989,111.26,-4.12643e-05,0.0492145,20.9901,581.616,-0.524745,0.0,0.0
275,68.5,29.0254,29.5373,132.602,104.973,110.68,1.91768e-05,0.0489183,20.9901,581.636,-0.47886,0.0,0.0
280,69.75,29.2289,29.9565,137.935,104.983,110.726,3.38007e-05,0.0485829,20.9901,581.626,-0.481754,0.0,0.0
285,71,29.0837,30.115,138.341,104.968,110.939,-1.42872e-05,0.0482961,20.9901,581.636,-0.500436,0.0,0.0
290,72.25,29.415,29.9495,136.72,104.969,110.629,-0.000123095,0.0481315,20.9901,581.606,-0.475039,0.0,0.0
295,73.5,29.5472,29.9739,136.397,104.96,110.893,-0.000235651,0.0480885,20.99,581.596,-0.497406,0.0,0.0
300,74.75,28.8793,29.8165,136.294,104.96,109.914,-0.000324384,0.048102,20.9897,581.586,-0.41723,0.0,0.0
305,76,29.2584,29.9752,135.667,104.958,110.67,-0.000349833,0.0481684,20.9895,581.586,-0.479335,0.0,0.0
310,77.25,29.0518,29.6716,138.463,104.946,110.55,-0.000319676,0.0482959,20.9894,581.596,-0.470602,0.0,0.0
315,78.5,29.3326,30.0008,138.769,104.95,110.767,-0.000279325,0.0483621,20.9894,581.596,-0.488017,0.0,0.0
320,79.75,29.7087,30.3813,140.016,104.939,110.669,-0.000251618,0.0482824,20.9893,581.606,-0.480973,0.0,0.0
325,81,28.7498,29.9893,134.653,104.922,110.243,-0.000229346,0.0481423,20.9893,581.606,-0.447418,0.0,0.0
330,82.25,29.1297,30.2018,136.181,104.927,110.557,-0.000179089,0.0480376,20.9893,581.606,-0.472813,0.0,0.0
335,83.5,29.734,29.939,137.878,104.925,110.637,-0.000118707,0.0481283,20.989,581.626,-0.479436,0.0,0.0
340,84.75,29.7184,30.2301,134.902,104.915,110.632,-6.00303e-05,0.0484476,20.9887,581.626,-0.479931,0.0,0.0
345,86,29.5605,29.8946,138.712,104.907,110.51,-4.91603e-06,0.0490032,20.9886,581.626,-0.470602,0.0,0.0
350,87.25,28.7579,30.3421,135.691,104.906,110.651,4.6945e-05,0.0495606,20.9879,581.606,-0.482292,0.0,0.0
355,88.5,29.3579,30.1734,135.179,104.906,111.226,9.38885e-05,0.0500823,20.9872,581.596,-0.529195,0.0,0.0
360,89.75,29.1603,30.1687,134.683,104.905,110.765,0.000146201,0.0505631,20.9867,581.586,-0.491726,0.0,0.0
365,91,29.4095,29.8014,135.792,104.878,110.552,0.000211763,0.0508869,20.9865,581.586,-0.476583,0.0,0.0
370,92.25,29.4199,30.0319,141.831,104.887,110.859,0.000291568,0.0509806,20.9863,581.576,-0.500824,0.0,0.0
375,93.5,29.4683,29.5518,136.903,104.889,110.815,0.000331284,0.0507386,20.9862,581.596,-0.497142,0.0,0.0
380,94.75,29.4732,30.3115,136.162,104.887,110.583,0.000339333,0.0502181,20.9862,581.596,-0.47841,0.0,0.0
385,96,29.2606,30.1081,135.796,104.865,110.808,0.000283548,0.0497174,20.9871,581.586,-0.498651,0.0,0.0
390,97.25,29.4222,29.975,137.046,104.87,110.567,0.000163415,0.0492624,20.9884,581.586,-0.478497,0.0,0.0
395,98.5,29.1139,30.3198,134.696,104.861,110.599,7.27132e-05,0.0487934,20.9892,581.596,-0.481854,0.0,0.0
400,99.75,29.5363,30.0921,134.405,104.842,110.51,-6.33577e-06,0.0484191,20.9896,581.596,-0.47629,0.0,0.0
405,101,29.4085,30.0676,135.258,104.849,110.957,-6.08949e-05,0.04806,20.9905,581.586,-0.512157,0.0,0.0
410,102.25,29.516,30.6683,137.78,104.848,110.441,-9.31114e-05,0.0477453,20.9913,581.586,-0.470135,0.0,0.0
415,103.5,29.5646,30.254,137.195,104.835,110.117,-0.000118621,0.0474877,20.9918,581.596,-0.444677,0.0,0.0
420,104.75,29.2939,30.2991,134.167,104.821,109.968,-0.000138898,0.0473184,20.9921,581.596,-0.433555,0.0,0.0
425,106,29.3111,30.1767,136.839,104.827,110.54,-0.000148764,0.0472557,20.9923,581.576,-0.480006,0.0,0.0
430,107.25,29.4099,30.0887,136.062,104.833,110.027,-0.0001131,0.0472238,20.9916,581.586,-0.43736,0.0,0.0
435,108.5,29.6686,30.4461,140.77,104.822,110.272,-1.08923e-05,0.0472092,20.9911,581.576,-0.458465,0.0,0.0
440,109.75,29.1563,30.2239,133.527,104.813,110.336,0.000127233,0.0471106,20.9917,581.566,-0.464539,0.0,0.0
445,111,29.4687,30.4055,137.213,104.812,109.968,0.000268686,0.0469978,20.992,581.576,-0.434394,0.0,0.0
450,112.25,29.3333,30.5828,137.548,104.808,109.672,0.00035504,0.0470253,20.9923,581.566,-0.410362,0.0,0.0
455,113.5,29.3365,30.2582,136.911,104.804,110.38,0.000382218,0.047011,20.9924,581.566,-0.468892,0.0,0.0
460,114.75,28.9373,30.292,136.56,104.804,110.298,0.000364294,0.046919,20.9925,581.566,-0.46221,0.0,0.0
465,116,29.8229,30.2176,132.821,104.81,111.104,0.000315506,0.0468505,20.9925,581.556,-0.527504,0.0,0.0
470,117.25,29.3732,30.0277,133.124,104.788,110.212,0.000221342,0.0468101,20.9925,581.566,-0.456452,0.0,0.0
475,118.5,29.5117,30.4713,134.995,104.779,110.257,0.000151758,0.0467862,20.9925,581.556,-0.460964,0.0,0.0
480,119.75,29.8676,30.32,138.419,104.777,109.689,0.000128926,0.0467858,20.9931,581.556,-0.414408,0.0,0.0
485,121,29.1985,30.2403,134.58,104.775,110.45,0.00013892,0.0468013,20.9939,581.546,-0.477098,0.0,0.0
490,122.25,29.3015,30.2567,138.426,104.764,109.977,0.000129286,0.0468033,20.9945,581.546,-0.439208,0.0,0.0
495,123.5,29.4579,30.3189,134.629,104.748,110.455,0.000109924,0.0467822,20.9948,581.536,-0.479887,0.0,0.0
500,124.75,29.7959,30.2605,135.349,104.742,110.283,9.16421e-05,0.0466724,20.995,581.546,-0.466314,0.0,0.0
505,126,29.605,30.7633,139.128,104.755,110.257,0.000123694,0.0465773,20.9943,581.546,-0.46308,0.0,0.0
510,127.25,29.4142,30.5877,137.923,104.759,110.051,0.000224356,0.0465311,20.9947,581.536,-0.445808,0.0,0.0
515,128.5,29.709,30.4742,135.137,104.772,110.061,0.000310731,0.0464648,20.9949,581.526,-0.445446,0.0,0.0
520,129.75,29.8976,29.8733,136.331,104.808,110.102,0.000367143,0.0463564,20.995,581.546,-0.445749,0.0,0.0
525,131,29.5783,30.1931,134.998,104.842,110.079,0.000367239,0.0463045,20.9951,581.536,-0.440918,0.0,0.0
530,132.25,29.812,30.5893,139.026,104.865,110.142,0.000305166,0.0463406,20.9952,581.556,-0.444042,0.0,0.0
535,133.5,29.3027,30.5509,137.179,104.873,110.46,0.000222242,0.0463892,20.9952,581.566,-0.469512,0.0,0.0
540,134.75,29.7892,30.445,136.565,104.913,110.766,0.000121885,0.0464884,20.9952,581.566,-0.491073,0.0,0.0
545,136,29.852,30.3697,136.552,104.929,110.302,0.000116491,0.0465421,20.9952,581.546,-0.451688,0.0,0.0
550,137.25,30.0639,30.8744,133.67,104.939,110.392,0.000146756,0.046448,20.9952,581.556,-0.458182,0.0,0.0
555,138.5,29.9479,30.467,134.785,104.971,110.378,0.000186023,0.0462787,20.9952,581.536,-0.454343,0.0,0.0
560,139.75,29.6846,30.3252,134.578,104.991,110.547,0.000214908,0.0462072,20.9952,581.546,-0.466439,0.0,0.0
565,141,29.4968,30.294,137.469,105.015,111.306,0.000266687,0.0462143,20.9952,581.506,-0.526235,0.0,0.0
570,142.25,29.634,30.2521,140.244,105.032,110.968,0.000329623,0.0461544,20.9952,581.556,-0.497293,0.0,0.0
575,143.5,30.1345,30.3865,135.968,105.054,110.641,0.000406287,0.0460618,20.994,581.546,-0.468748,0.0,0.0
580,144.75,30.1023,30.371,137.419,105.081,111.275,0.000444847,0.0459914,20.9933,581.556,-0.518095,0.0,0.0
585,146,29.5393,30.0374,134.84,105.086,110.987,0.000440202,0.0460086,20.9932,581.576,-0.494229,0.0,0.0
590,147.25,29.6155,30.3761,138.926,105.084,110.921,0.000356294,0.0459011,20.9931,581.576,-0.489021,0.0,0.0
595,148.5,29.6694,30.6698,138.783,105.081,111.246,0.000222935,0.0459197,20.9931,581.586,-0.515747,0.0,0.0
600,149.75,29.5686,30.7359,137.517,105.106,111.106,6.70013e-05,0.0460118,20.9925,581.556,-0.502159,0.0,0.0
605,151,30.1277,30.9927,133.703,105.103,110.772,-1.64901e-05,0.0461322,20.9919,581.466,-0.475147,0.0,0.0
610,152.25,30.2912,30.8011,136.561,105.075,110.419,-0.000100558,0.0462836,20.9915,581.596,-0.448784,0.0,0.0
615,153.5,30.2076,30.7024,135.275,105.097,111.34,-0.000152339,0.0463888,20.9912,581.576,-0.521938,0.0,0.0
620,154.75,29.8225,30.0183,135.223,105.09,111.411,-0.000172394,0.0464509,20.991,581.566,-0.528307,0.0,0.0
625,156,29.9255,30.5236,134.536,105.111,110.455,-0.000160466,0.046507,20.9909,581.536,-0.448556,0.0,0.0
630,157.25,29.7608,30.7505,136.245,105.111,110.939,-0.000136264,0.0465995,20.9906,581.576,-0.488135,0.0,0.0
635,158.5,30.4799,30.618,139.96,105.103,111.083,-6.98342e-05,0.0466783,20.9903,581.576,-0.500556,0.0,0.0
640,159.75,29.6853,30.4945,134.962,105.108,111.432,-3.31548e-05,0.0467283,20.9902,581.586,-0.52848,0.0,0.0
645,161,29.3014,30.5511,130.138,105.097,110.655,-2.62788e-05,0.0467674,20.9901,581.566,-0.466104,0.0,0.0
650,162.25,29.8664,30.9743,135.401,105.104,111.056,-4.10707e-05,0.0467538,20.99,581.576,-0.498245,0.0,0.0
655,163.5,29.7955,30.8019,135.757,105.093,110.5,-7.35831e-05,0.0467782,20.99,581.566,-0.453819,0.0,0.0
660,164.75,29.879,30.4574,139.886,105.084,110.4,-9.49706e-05,0.0468167,20.99,581.566,-0.446455,0.0,0.0
665,166,29.7767,30.4964,136.981,105.053,110.03,-9.2294e-05,0.0467701,20.9901,581.576,-0.418759,0.0,0.0
670,167.25,29.8144,30.5294,134.68,105.071,111.15,-6.52905e-05,0.0467332,20.9906,581.576,-0.508705,0.0,0.0
675,168.5,29.9989,30.5196,137.606,105.035,110.031,-3.5785e-05,0.0467114,20.9909,581.566,-0.420365,0.0,0.0
680,169.75,29.9139,30.4908,136.543,105.006,110.504,-2.99647e-05,0.0466206,20.9918,581.566,-0.461621,0.0,0.0
685,171,30.0436,30.3714,137.487,104.997,110.369,-3.835e-05,0.0465467,20.9925,581.576,-0.451322,0.0,0.0
690,172.25,30.2601,30.7882,134.141,104.993,110.322,-2.58102e-05,0.0465377,20.993,581.546,-0.447792,0.0,0.0
695,173.5,29.9607,30.2401,140.348,104.967,111.046,-5.82218e-06,0.0466031,20.9932,581.566,-0.509203,0.0,0.0
700,174.75,29.7243,30.506,137.055,104.939,110.568,-1.95701e-05,0.0466856,20.9929,581.556,-0.472635,0.0,0.0
705,176,30.1702,30.7545,136.514,104.915,110.668,-7.79865e-05,0.0467938,20.9929,581.566,-0.48286,0.0,0.0
710,177.25,30.1214,30.78,133.477,104.891,110.142,-0.000171415,0.0468218,20.9932,581.596,-0.441818,0.0,0.0
715,178.5,30.0811,30.7458,134.601,104.875,110.644,-0.000253104,0.046881,20.9935,581.546,-0.484419,0.0,0.0
720,179.75,29.9367,30.9369,139.246,104.832,110.585,-0.000302413,0.0468731,20.9939,581.566,-0.483228,0.0,0.0
725,181,30.0226,30.7345,135.839,104.801,110.62,-0.000303039,0.0468545,20.9941,581.556,-0.488746,0.0,0.0
730,182.25,30.203,30.1894,131.961,104.774,109.468,-0.000211357,0.0467852,20.9942,581.526,-0.396439,0.0,0.0
735,183.5,29.9889,30.4959,137.832,104.731,109.868,-5.4351e-05,0.0467391,20.9943,581.556,-0.433086,0.0,0.0
740,184.75,30.1472,30.7301,135.333,104.704,110.19,8.70889e-05,0.046746,20.9944,581.576,-0.461955,0.0,0.0
745,186,30.0687,30.6348,137.77,104.728,110.366,0.000192942,0.0467028,20.9942,581.536,-0.474353,0.0,0.0
750,187.25,29.9851,30.7592,135.389,104.741,110.216,0.000233722,0.0467109,20.9933,581.546,-0.460921,0.0,0.0
755,188.5,29.7912,31.0418,137.823,104.744,110.628,0.000242407,0.0466999,20.9936,581.546,-0.494396,0.0,0.0
760,189.75,29.9348,30.9123,136.969,104.744,110.14,0.000237094,0.0467071,20.9916,581.576,-0.454433,0.0,0.0
765,191,29.8923,30.4221,139.391,104.766,110.413,0.000240867,0.0467271,20.9904,581.566,-0.474848,0.0,0.0
770,192.25,29.7872,30.7132,138.77,104.795,109.92,0.000241782,0.0467246,20.9897,581.556,-0.431868,0.0,0.0
775,193.5,30.0041,30.7023,138.922,104.784,110.424,0.000226362,0.0467059,20.9892,581.556,-0.474231,0.0,0.0
780,194.75,29.9405,30.5341,139.47,104.802,110.379,0.000195275,0.04674,20.989,581.536,-0.468963,0.0,0.0
785,196,30.0557,30.7888,137.297,104.818,110.193,0.000127673,0.046776,20.9889,581.546,-0.452408,0.0,0.0
790,197.25,30.1172,30.5362,136.987,104.849,110.886,3.63327e-05,0.0467665,20.9888,581.556,-0.506422,0.0,0.0
795,198.5,29.9155,30.1964,138.645,104.864,111.418,-6.95886e-05,0.0467328,20.9887,581.536,-0.548358,0.0,0.0
800,199.75,29.828,30.5643,136.639,104.909,110.507,-0.000147459,0.0467623,20.9885,581.546,-0.470229,0.0,0.0
805,201,29.9015,30.8471,134.014,104.934,110.803,-0.000189797,0.0467877,20.9882,581.526,-0.492256,0.0,0.0
810,202.25,30.0744,30.7908,138.939,104.964,110.335,-0.000188929,0.046773,20.988,581.546,-0.451414,0.0,0.0
815,203.5,29.1667,31.0387,138.667,104.985,111.003,-0.000155409,0.0467396,20.9879,581.506,-0.504146,0.0,0.0
820,204.75,29.9118,30.6374,137.722,105.012,110.526,-0.000115069,0.0467374,20.9879,581.556,-0.462941,0.0,0.0
825,206,29.6667,30.0888,135.34,105.043,110.689,-8.86033e-05,0.0467275,20.9883,581.556,-0.473539,0.0,0.0
830,207.25,30.0638,30.7847,134.62,105.06,110.818,-6.2029e-05,0.0467569,20.989,581.526,-0.482585,0.0,0.0
835,208.5,29.7328,30.2946,138.702,105.08,110.199,-2.01643e-05,0.0466869,20.9895,581.526,-0.430206,0.0,0.0
840,209.75,29.931,30.1739,138.197,105.118,110.155,3.50516e-05,0.0466205,20.9897,581.526,-0.423413,0.0,0.0
845,211,29.6408,31.0858,136.573,105.133,110.66,9.1316e-05,0.0466354,20.9899,581.536,-0.463505,0.0,0.0
850,212.25,29.7675,30.4142,138.72,105.159,110.176,0.000124397,0.0466981,20.9907,581.516,-0.421532,0.0,0.0
855,213.5,29.569,30.2037,135.472,105.171,110.954,0.000143268,0.0466907,20.992,581.506,-0.48419,0.0,0.0
860,214.75,29.3974,30.3221,136.959,105.197,109.929,0.000130281,0.0467454,20.9922,581.526,-0.397971,0.0,0.0
865,216,29.8274,30.9536,139.299,105.231,110.975,8.2404e-05,0.0468069,20.9919,581.536,-0.480738,0.0,0.0
870,217.25,30.227,30.6034,138.505,105.251,111.037,4.62514e-05,0.0468679,20.992,581.536,-0.484079,0.0,0.0
875,218.5,30.0648,30.505,140.908,105.291,111.131,2.36941e-05,0.0468131,20.9926,581.536,-0.488363,0.0,0.0
880,219.75,29.7785,30.5619,134.675,105.329,110.436,5.75663e-06,0.0467586,20.9922,581.506,-0.428206,0.0,0.0
885,221,29.6144,30.413,138.47,105.346,110.344,-1.79849e-05,0.0467537,20.9923,581.516,-0.419272,0.0,0.0
890,222.25,29.7064,30.8919,140.694,105.352,110.655,-3.82272e-05,0.0468043,20.9924,581.526,-0.444234,0.0,0.0
895,223.5,29.8006,31.0315,140.126,105.39,111.156,-3.21862e-05,0.0468878,20.9924,581.546,-0.481879,0.0,0.0
900,224.75,30.0682,30.9607,134.27,105.408,110.95,-4.04886e-06,0.046879,20.9924,581.576,-0.463477,0.0,0.0
905,226,30.0417,30.6807,136.218,105.425,110.967,2.11231e-05,0.0468717,20.9932,581.526,-0.463431,0.0,0.0
910,227.25,29.7462,30.7725,140.698,105.424,111.285,4.91279e-05,0.0468832,20.9939,581.536,-0.489434,0.0,0.0
915,228.5,29.9824,30.412,134.342,105.449,110.878,8.64317e-05,0.0468652,20.9942,581.536,-0.454146,0.0,0.0
920,229.75,29.5817,30.69,139.809,105.449,110.448,0.000153835,0.046924,20.9945,581.516,-0.418932,0.0,0.0
925,231,30.0008,31.3226,136.871,105.446,112.112,0.000247371,0.0470762,20.9942,581.516,-0.554499,0.0,0.0
930,232.25,30.4337,30.9527,134.778,105.444,111.055,0.000328134,0.0470997,20.9941,581.546,-0.468936,0.0,0.0
935,233.5,29.7179,30.3314,135.037,105.466,110.398,0.000353514,0.0470598,20.994,581.576,-0.413435,0.0,0.0
940,234.75,29.9222,30.7268,136.276,105.456,111.059,0.000321126,0.0470664,20.9934,581.516,-0.468262,0.0,0.0
945,236,30.1769,31.001,134.308,105.448,110.207,0.000247194,0.0469849,20.9926,581.516,-0.399336,0.0,0.0
950,237.25,29.9582,30.743,138.025,105.442,110.553,0.000191132,0.0468894,20.9913,581.506,-0.428091,0.0,0.0
955,238.5,30.2681,30.596,137.771,105.43,110.43,0.000164989,0.0468036,20.9906,581.496,-0.419114,0.0,0.0
960,239.75,29.8844,31.0606,136.649,105.42,109.825,0.000141378,0.0467824,20.9901,581.506,-0.370363,0.0,0.0
965,241,30.1128,30.7973,135.291,105.392,110.052,0.000108028,0.0468006,20.9907,581.536,-0.391382,0.0,0.0
970,242.25,30.4045,31.0753,136.458,105.374,110.353,4.66801e-05,0.0468983,20.9901,581.516,-0.417604,0.0,0.0
975,243.5,30.3259,31.0119,133.904,105.347,110.662,-4.51244e-05,0.0469416,20.9907,581.486,-0.44524,0.0,0.0
980,244.75,29.7911,30.5456,138.715,105.307,110.221,-0.000125471,0.0469012,20.9911,581.496,-0.412564,0.0,0.0
985,246,30.363,30.6529,139.493,105.275,110.179,-0.000168992,0.0468788,20.9913,581.506,-0.41177,0.0,0.0
990,247.25,29.8903,31.1274,137.721,105.262,109.984,-0.000167368,0.0470029,20.9914,581.516,-0.396973,0.0,0.0
995,248.5,30.2494,30.5196,133.089,105.206,109.785,-8.85009e-05,0.0471555,20.9907,581.476,-0.385394,0.0,0.0
1000,249.75,29.9905,30.9847,137.451,105.159,110.155,8.31988e-06,0.047255,20.9901,581.476,-0.419849,0.0,0.0
1005,251,30.1925,30.9347,133.752,105.113,110.968,0.000101441,0.0471666,20.9898,581.466,-0.490307,0.0,0.0
1010,252.25,29.6872,30.7606,136.905,105.071,110.393,0.00015059,0.0470628,20.9896,581.526,-0.446936,0.0,0.0
1015,253.5,29.8632,30.3232,135.495,104.998,110.286,0.000159656,0.0470373,20.9895,581.526,-0.444414,0.0,0.0
1020,254.75,30.3003,31.1501,136.081,104.927,110.281,0.000147383,0.0469602,20.9894,581.496,-0.450189,0.0,0.0
1025,256,30.1199,30.8636,134.546,104.876,109.871,0.000108241,0.0468943,20.9894,581.476,-0.420877,0.0,0.0
1030,257.25,30.1078,30.4403,136.582,104.829,109.566,6.14069e-05,0.0469043,20.9893,581.476,-0.39985,0.0,0.0
1035,258.5,29.767,30.7052,134.435,104.778,110.136,4.3323e-05,0.0469107,20.9897,581.486,-0.451131,0.0,0.0
1040,259.75,29.7901,30.7935,137.954,104.695,109.32,4.31968e-05,0.0469786,20.9903,581.456,-0.390979,0.0,0.0
1045,261,30.0024,30.7887,137.412,104.653,109.203,3.18799e-05,0.0470328,20.9907,581.456,-0.384917,0.0,0.0
1050,262.25,29.604,30.9445,133.669,104.612,109.869,3.69935e-06,0.0471233,20.9909,581.436,-0.443499,0.0,0.0
1055,263.5,29.9205,30.7463,134.762,104.562,109.115,-3.55671e-05,0.0471571,20.9911,581.466,-0.385479,0.0,0.0
1060,264.75,29.2462,30.6584,139.013,104.503,108.797,-7.62856e-05,0.047143,20.9911,581.456,-0.364229,0.0,0.0
1065,266,29.8714,31.0295,134.395,104.474,109.959,-0.000104169,0.0470558,20.9919,581.466,-0.462818,0.0,0.0
1070,267.25,29.7956,30.799,139.415,104.452,109.261,-0.000118664,0.0470148,20.9916,581.416,-0.407179,0.0,0.0
1075,268.5,30.0022,30.6413,137.723,104.395,109.502,-0.000112709,0.0470987,20.9915,581.446,-0.431999,0.0,0.0
1080,269.75,30.363,30.8077,136.505,104.381,109.124,-5.79167e-05,0.0470765,20.9914,581.456,-0.402025,0.0,0.0
1085,271,30.1313,31.2119,134.189,104.344,109.267,3.00549e-05,0.0470591,20.9913,581.446,-0.417019,0.0,0.0
1090,272.25,29.7987,30.9145,137.672,104.308,109.019,0.000147453,0.0470804,20.9913,581.446,-0.399634,0.0,0.0
1095,273.5,30.1332,30.977,132.183,104.29,110.02,0.000264743,0.0470735,20.9913,581.436,-0.483805,0.0,0.0
1100,274.75,29.876,30.6988,137.569,104.269,109.526,0.000334002,0.0470594,20.9913,581.416,-0.444994,0.0,0.0
1105,276,29.9785,30.701,135.388,104.247,108.664,0.000333221,0.0470511,20.9913,581.436,-0.375342,0.0,0.0
1110,277.25,30.2167,31.0288,136.553,104.234,109.393,0.000294057,0.0470462,20.9913,581.456,-0.436991,0.0,0.0
1115,278.5,30.1763,31.2402,136.477,104.207,109.706,0.000294121,0.0470434,20.9913,581.456,-0.465109,0.0,0.0
1120,279.75,30.0933,31.359,136.499,104.216,108.842,0.000318195,0.0470711,20.9913,581.466,-0.392855,0.0,0.0
1125,281,29.8853,30.5639,136.405,104.211,108.925,0.000327263,0.0471312,20.9913,581.446,-0.400146,0.0,0.0
1130,282.25,29.823,30.4621,139.344,104.192,108.801,0.000303014,0.0472112,20.991,581.426,-0.391502,0.0,0.0
1135,283.5,29.887,30.6096,139.588,104.189,108.251,0.000262442,0.0472513,20.9912,581.416,-0.345951,0.0,0.0
1140,284.75,30.1387,31.0387,136.052,104.197,108.026,0.000221615,0.0472603,20.9913,581.416,-0.326397,0.0,0.0
1145,286,29.8903,31.015,138.259,104.201,108.362,0.000179623,0.047282,20.9914,581.406,-0.354142,0.0,0.0
1150,287.25,30.5642,31.0711,135.536,104.205,108.914,0.000147836,0.0472798,20.9914,581.366,-0.39977,0.0,0.0
1155,288.5,30.1144,31.0448,135.881,104.195,108.804,0.000150974,0.0473007,20.9914,581.376,-0.391554,0.0,0.0
1160,289.75,29.9926,31.1749,141.427,104.203,108.764,0.000198465,0.0473714,20.9914,581.366,-0.387525,0.0,0.0
1165,291,30.1565,31.0247,134.743,104.201,109.222,0.000289377,0.0474925,20.9914,581.356,-0.425669,0.0,0.0
1170,292.25,30.0193,30.54,135.02,104.22,108.977,0.000390647,0.0475487,20.9915,581.356,-0.40367,0.0,0.0
1175,293.5,29.7819,31.4589,136.706,104.219,108.144,0.000486773,0.0475772,20.9912,581.346,-0.334351,0.0,0.0
1180,294.75,30.1645,31.2329,136.952,104.213,108.232,0.000561845,0.0477176,20.9901,581.366,-0.342225,0.0,0.0
1185,296,29.9676,31.197,134.421,104.223,109.393,0.000606175,0.0480452,20.9894,581.376,-0.437907,0.0,0.0
1190,297.25,30.2572,31.3437,134.453,104.209,109.291,0.00059847,0.0486635,20.9889,581.366,-0.430643,0.0,0.0
1195,298.5,29.6073,30.8962,137.613,104.219,108.835,0.000572365,0.0496179,20.9887,581.356,-0.392018,0.0,0.0
1200,299.75,30.7367,31.157,134.04,104.237,109.49,0.000531894,0.0505056,20.9876,581.366,-0.444704,0.0,0.0
1205,301,29.8824,31.3974,142.072,104.231,108.769,0.000499591,0.0511182,20.9869,581.356,-0.385492,0.0,0.0
1210,302.25,29.9084,31.0922,137.697,104.22,108.296,0.000495879,0.0514253,20.9865,581.356,-0.347084,0.0,0.0
1215,303.5,30.2778,31.6599,134.569,104.244,108.361,0.000491767,0.0514068,20.9863,581.376,-0.350363,0.0,0.0
1220,304.75,30.3108,31.0848,135.192,104.229,109.042,0.000481822,0.0512287,20.987,581.386,-0.408308,0.0,0.0
1225,306,29.6994,30.6074,139.009,104.219,108.378,0.000477299,0.0509371,20.9868,581.356,-0.353962,0.0,0.0
1230,307.25,29.8341,30.8284,134.641,104.224,108.964,0.000487885,0.0506089,20.9867,581.336,-0.402294,0.0,0.0
1235,308.5,30.1621,31.2608,137.607,104.228,108.723,0.000494549,0.050112,20.9867,581.316,-0.381952,0.0,0.0
1240,309.75,30.261,31.2702,134.098,104.231,108.583,0.000482665,0.0497346,20.9867,581.306,-0.370062,0.0,0.0
1245,311,30.4049,30.5779,136.036,104.216,108.799,0.000455844,0.0496408,20.9867,581.296,-0.389332,0.0,0.0
1250,312.25,30.1529,31.103,135.577,104.239,108.271,0.000396078,0.0498578,20.9866,581.286,-0.343295,0.0,0.0
1255,313.5,30.1827,31.2176,138.313,104.227,108.851,0.000314635,0.0503006,20.9866,581.266,-0.392675,0.0,0.0
1260,314.75,30.4081,30.9469,137.552,104.231,107.803,0.000233685,0.0508368,20.9858,581.286,-0.304764,0.0,0.0
1265,316,29.5809,31.1638,136.929,104.222,108.55,0.000168264,0.0511664,20.9852,581.296,-0.368002,0.0,0.0
1270,317.25,29.7916,31.1271,138.777,104.23,108.637,0.000117809,0.0512373,20.9848,581.286,-0.374636,0.0,0.0
1275,318.5,30.3109,31.0074,136.832,104.225,108.216,7.95565e-05,0.0511376,20.9846,581.266,-0.339913,0.0,0.0
1280,319.75,30.2914,30.6981,135.127,104.221,107.942,5.86274e-05,0.0510055,20.9847,581.256,-0.317322,0.0,0.0
1285,321,30.2481,31.2418,135.885,104.215,108.122,6.94456e-05,0.0508254,20.9851,581.286,-0.332889,0.0,0.0
1290,322.25,30.0939,30.9893,134.445,104.229,108.029,0.000112544,0.0505272,20.9848,581.286,-0.323879,0.0,0.0
1295,323.5,29.6913,30.7387,137.597,104.221,108.443,0.000150677,0.0504523,20.9846,581.276,-0.359145,0.0,0.0
1300,324.75,29.7338,30.8449,136.365,104.21,108.438,0.000202927,0.0508886,20.9845,581.296,-0.359785,0.0,0.0
1305,326,29.868,31.3536,134.572,104.219,108.886,0.00028913,0.0519152,20.9844,581.276,-0.3962,0.0,0.0
1310,327.25,30.1325,30.4876,138.45,104.215,108.332,0.000427442,0.0551235,20.9835,581.296,-0.35048,0.0,1.0
1315,328.5,30.3248,30.9424,131.518,104.245,108.281,0.000596956,0.0611863,20.9784,581.216,-0.343599,0.0,1.0
1320,329.75,30.3612,31.3459,135.959,104.225,107.273,0.000847272,0.070354,20.9693,581.296,-0.260691,0.0,1.0
1325,331,30.3826,31.5916,133.873,104.223,106.526,0.00113395,0.0842648,20.9521,581.226,-0.197734,0.0,1.0
1330,332.25,29.1434,29.0888,132.474,104.225,102.694,0.00186786,0.105645,20.9293,581.186,0.13382,0.0,0.0
1335,333.5,29.5067,29.9193,128.849,104.233,99.5037,0.00295479,0.139363,20.8926,581.106,0.420036,0.0,0.0
1340,334.75,29.643,29.8675,133.718,104.222,98.376,0.00432338,0.179796,20.8492,580.996,0.522174,0.0,0.0
1345,336,30.0676,30.3011,124.377,104.229,94.8758,0.00565629,0.230149,20.7979,580.896,0.850464,0.0,0.0
1350,337.25,31.032,30.732,126.251,104.233,89.5712,0.00743837,0.282408,20.7349,580.796,1.37126,0.0,0.0
1355,338.5,31.4741,31.4605,122.188,104.221,89.8241,0.00922262,0.342483,20.6698,580.635,1.34473,0.0,0.0
1360,339.75,32.5897,31.6756,117.677,104.23,85.064,0.0112955,0.403275,20.6023,580.405,1.83802,0.0,0.0
1365,341,34.2883,32.344,122.799,104.231,85.1148,0.0131777,0.446755,20.5379,580.195,1.83273,0.0,0.0
1370,342.25,35.1118,33.1027,116.245,104.229,85.2461,0.0145158,0.491692,20.4842,580.055,1.8186,0.0,0.0
1375,343.5,36.2587,34.3965,121.504,104.233,83.037,0.0153559,0.520831,20.4525,579.885,2.05644,0.0,0.0
1380,344.75,37.5621,35.1833,122.751,104.222,88.1991,0.015852,0.533247,20.4375,579.725,1.50991,0.0,0.0
1385,346,38.0634,35.9904,119.653,104.236,89.7184,0.0160399,0.534072,20.4344,579.544,1.35667,0.0,0.0
1390,347.25,39.4144,37.4265,128.298,104.237,90.241,0.0161077,0.52941,20.4369,579.374,1.30421,0.0,0.0
1395,348.5,39.6916,38.2178,118.119,104.229,87.166,0.0160936,0.522958,20.4421,579.244,1.61707,0.0,0.0
1400,349.75,40.7733,38.134,120.243,104.236,85.5829,0.0159575,0.517368,20.4463,579.084,1.78353,0.0,0.0
1405,351,41.1278,39.1389,122.972,104.237,84.3095,0.0153983,0.50962,20.4537,578.894,1.91924,0.0,0.0
1410,352.25,41.2493,39.9445,124.735,104.232,88.52,0.0144509,0.494933,20.4669,578.804,1.47798,0.0,0.0
1415,353.5,42.2777,40.354,123.427,104.225,91.213,0.0131692,0.473277,20.4882,578.694,1.20626,0.0,0.0
1420,354.75,42.5438,40.981,126.792,104.239,92.3779,0.0116997,0.446535,20.523,578.594,1.09269,0.0,0.0
1425,356,42.61,41.4989,125.28,104.24,94.0211,0.0102924,0.417387,20.5595,578.484,0.93331,0.0,0.0
1430,357.25,43.2197,41.3803,126.123,104.23,98.6047,0.00901201,0.386241,20.5978,578.404,0.501867,0.0,0.0
1435,358.5,43.2478,41.9739,127.688,104.236,99.0453,0.0079294,0.357428,20.6322,578.313,0.462015,0.0,0.0
1440,359.75,43.0137,42.4472,126.218,104.23,103.706,0.00698771,0.329833,20.664,578.273,0.04559,0.0,0.0
1445,361,42.7594,42.2482,127.723,104.238,104.407,0.00608407,0.300987,20.6971,578.223,-0.0146526,0.0,0.0
1450,362.25,42.6191,42.2803,130.622,104.229,104.91,0.00532503,0.274204,20.7255,578.183,-0.0588948,0.0,0.0
1455,363.5,42.9515,42.4585,128.834,104.234,107.941,0.00474063,0.249166,20.7543,578.143,-0.316068,0.0,0.0
1460,364.75,42.73,42.3418,132.309,104.241,107.692,0.00428109,0.228215,20.7796,578.103,-0.294651,0.0,0.0
1465,366,42.2215,42.4809,133.015,104.236,107.506,0.00400395,0.210586,20.7964,578.083,-0.279432,0.0,0.0
1470,367.25,42.0113,41.9303,135.494,104.251,108.153,0.00367149,0.197101,20.8152,578.063,-0.332382,0.0,0.0
1475,368.5,41.9048,42.1312,132.964,104.254,108.082,0.00338413,0.18,20.8332,578.033,-0.326163,0.0,0.0
1480,369.75,41.3106,42.1356,134.522,104.246,108.764,0.00311914,0.16948,20.8498,577.993,-0.383823,0.0,0.0
1485,371,41.573,41.6675,132.557,104.243,108.689,0.0028552,0.157352,20.8655,578.013,-0.377763,0.0,0.0
1490,372.25,41.1436,41.7933,132.763,104.244,109.967,0.00265146,0.145731,20.8803,577.963,-0.483435,0.0,0.0
1495,373.5,40.7501,41.7464,135.514,104.248,109.071,0.00242828,0.134855,20.8908,577.953,-0.409055,0.0,0.0
1500,374.75,40.1749,41.1899,133.292,104.259,109.797,0.00222155,0.125281,20.9003,577.943,-0.468083,0.0,0.0
1505,376,39.9701,41.2555,134.366,104.27,109.391,0.00202582,0.116758,20.9092,577.923,-0.433683,0.0,0.0
1510,377.25,39.7102,40.9627,134.754,104.26,109.965,0.00191763,0.109137,20.9178,577.933,-0.48189,0.0,0.0
1515,378.5,39.1617,41.0637,133.173,104.267,109.1,0.00186321,0.1014,20.9277,577.923,-0.409839,0.0,0.0
1520,379.75,38.994,40.5464,133.871,104.272,109.942,0.00180899,0.0942843,20.9371,577.913,-0.478985,0.0,0.0
1525,381,38.6818,40.3367,136.591,104.265,109.125,0.00171719,0.0872397,20.9456,577.903,-0.412105,0.0,0.0
1530,382.25,38.2958,40.2819,137.198,104.27,109.662,0.00157336,0.0813072,20.9519,577.923,-0.456033,0.0,0.0
1535,383.5,38.3829,39.9136,137.5,104.278,110.142,0.00143053,0.0763487,20.9577,577.893,-0.494934,0.0,0.0
1540,384.75,37.8891,39.661,137,104.289,109.586,0.00130373,0.071882,20.9631,577.873,-0.448193,0.0,0.0
1545,386,37.2516,39.4291,135.503,104.282,109.455,0.00121696,0.0683247,20.9675,577.873,-0.437932,0.0,0.0
1550,387.25,36.9264,39.127,133.179,104.28,109.519,0.00114544,0.0655503,20.9697,577.893,-0.44335,0.0,0.0
1555,388.5,36.8338,38.9775,137.122,104.299,110.411,0.00106931,0.0633363,20.9723,577.863,-0.515183,0.0,0.0
1560,389.75,36.6507,38.8264,138.548,104.312,109.496,0.00101759,0.0615597,20.9741,577.863,-0.438718,0.0,0.0
1565,391,36.7065,38.7785,135.485,104.301,109.594,0.000940025,0.0599838,20.976,577.883,-0.447745,0.0,0.0
1570,392.25,36.1337,38.798,136.916,104.327,109.669,0.000870834,0.0582524,20.9776,577.893,-0.451624,0.0,0.0
1575,393.5,35.9577,38.4477,136.939,104.329,110.118,0.000847667,0.0565512,20.9799,577.883,-0.488509,0.0,0.0
1580,394.75,35.8387,38.0146,133.188,104.327,109.233,0.000845946,0.0550436,20.9815,577.883,-0.415594,0.0,0.0
1585,396,35.8153,37.9851,131.657,104.341,109.091,0.000834127,0.0538109,20.9828,577.883,-0.402764,0.0,0.0
1590,397.25,33.9371,36.3969,138.301,104.361,110.097,0.000801648,0.052892,20.9838,577.863,-0.483965,0.0,0.0
1595,398.5,33.4772,35.8913,136.159,104.341,109.432,0.000724327,0.0522887,20.9851,577.863,-0.430877,0.0,0.0
1600,399.75,32.8974,35.9667,136.526,104.345,109.821,0.000650705,0.0518955,20.9859,577.863,-0.462676,0.0,0.0
1605,401,33.2149,35.1819,137.161,104.356,110.65,0.000559367,0.0516551,20.9864,577.853,-0.52979,0.0,0.0
1610,402.25,32.9007,35.6085,133.142,104.378,109.751,0.000430593,0.051405,20.9867,577.863,-0.454061,0.0,0.0
1615,403.5,32.6687,35.6574,137.21,104.381,110.113,0.000313673,0.0510434,20.9871,577.833,-0.483546,0.0,0.0
1620,404.75,32.6599,35.1136,138.141,104.371,110.743,0.000251624,0.0507303,20.9881,577.853,-0.53612,0.0,0.0
1625,406,32.4825,34.9065,136.13,104.382,110.507,0.000239806,0.0504464,20.9886,577.853,-0.515784,0.0,0.0
1630,407.25,32.4364,35.0203,137.2,104.402,110.477,0.00024861,0.0500688,20.989,577.863,-0.511584,0.0,0.0
1635,408.5,32.2258,34.8748,137.388,104.399,109.693,0.000292248,0.0497467,20.9892,577.873,-0.447469,0.0,0.0
1640,409.75,32.2066,34.5317,133.102,104.399,110.194,0.000354012,0.0494523,20.9889,577.873,-0.488664,0.0,0.0
1645,411,31.9923,34.6736,135.152,104.407,110.152,0.000404171,0.0492235,20.9888,577.873,-0.484526,0.0,0.0
1650,412.25,32.2065,34.2568,133.797,104.423,110.084,0.000398956,0.0490864,20.9887,577.863,-0.477586,0.0,0.0
1655,413.5,31.5795,34.2772,137.6,104.42,110.085,0.00035948,0.0490313,20.9887,577.863,-0.477881,0.0,0.0
1660,414.75,31.858,33.8803,136.261,104.412,110.635,0.000306491,0.0489095,20.9886,577.863,-0.523664,0.0,0.0
1665,416,31.4403,34.4426,132.71,104.428,110.639,0.000273831,0.0487032,20.9886,577.873,-0.522575,0.0,0.0
1670,417.25,31.4986,33.8461,137.4,104.436,111.252,0.000279295,0.0485516,20.9886,577.863,-0.571818,0.0,0.0
1675,418.5,31.5083,33.4196,135.207,104.425,110.201,0.000321694,0.048423,20.9886,577.833,-0.486968,0.0,0.0
1680,419.75,30.7197,33.7362,137.969,104.442,110.214,0.000398518,0.0482778,20.9886,577.833,-0.486536,0.0,0.0
1685,421,30.9344,33.3617,135.18,104.455,110.529,0.00049112,0.0482415,20.9888,577.833,-0.511205,0.0,0.0
1690,422.25,31.3407,33.4246,134.917,104.466,110.097,0.000565073,0.0482601,20.989,577.823,-0.474923,0.0,0.0
1695,423.5,30.8227,33.149,139.302,104.47,110.213,0.000621824,0.0482175,20.9892,577.823,-0.48408,0.0,0.0
1700,424.75,30.5445,33.311,136.123,104.475,109.938,0.000659761,0.0481781,20.9893,577.813,-0.461021,0.0,0.0
1705,426,30.5553,33.1722,133.466,104.469,109.867,0.0006678,0.0481939,20.9902,577.813,-0.455707,0.0,0.0
1710,427.25,30.5575,32.7438,135.584,104.472,110.391,0.000669806,0.0482478,20.9908,577.823,-0.498488,0.0,0.0
1715,428.5,30.428,32.3669,135.047,104.468,110.23,0.00066856,0.0481372,20.9912,577.813,-0.485641,0.0,0.0
1720,429.75,30.0105,32.603,133.963,104.488,110.273,0.000649962,0.0480855,20.9913,577.803,-0.487473,0.0,0.0
1725,431,30.4311,33,138.104,104.501,110.388,0.00062113,0.0480708,20.9912,577.803,-0.495734,0.0,0.0
1730,432.25,30.4422,32.4476,134.563,104.504,110.139,0.000577651,0.0480473,20.9911,577.803,-0.475073,0.0,0.0
1735,433.5,30.2432,32.6041,135.586,104.498,110.407,0.000520763,0.0479876,20.991,577.803,-0.497517,0.0,0.0
1740,434.75,29.8016,32.3523,136.056,104.52,109.69,0.000464278,0.0480108,20.991,577.803,-0.436733,0.0,0.0
1745,436,29.8038,32.2714,138.704,104.529,110.153,0.000404605,0.0480049,20.9909,577.803,-0.474028,0.0,0.0
1750,437.25,30.0253,32.2113,136.245,104.518,109.991,0.000315635,0.0479626,20.9909,577.803,-0.461657,0.0,0.0
1755,438.5,29.6695,32.1827,132.749,104.541,110.374,0.000220208,0.0479376,20.9909,577.783,-0.491113,0.0,0.0
1760,439.75,30.3022,32.019,135.937,104.557,109.952,0.000145991,0.0478862,20.9909,577.783,-0.455038,0.0,0.0
1765,441,29.6403,32.0448,133.502,104.571,110.328,0.000114821,0.0478063,20.9909,577.783,-0.484777,0.0,0.0
1770,442.25,30.0178,32.0528,136.355,104.576,110.277,0.000104355,0.0477421,20.9912,577.783,-0.480174,0.0,0.0
1775,443.5,29.5283,31.5246,137.493,104.589,110.77,0.000153671,0.0477754,20.9904,577.773,-0.51937,0.0,0.0
1780,444.75,29.2448,32.1777,134.375,104.615,110.808,0.000208191,0.0478582,20.9894,577.783,-0.520259,0.0,0.0
1785,446,29.6384,31.9445,137.542,104.62,110.309,0.000235202,0.0478483,20.9888,577.783,-0.479008,0.0,0.0
1790,447.25,29.6894,31.6763,139.39,104.63,110.383,0.000246774,0.0478431,20.9884,577.773,-0.484238,0.0,0.0
1795,448.5,29.4272,31.7096,137.697,104.659,110.622,0.000252725,0.0477647,20.9882,577.773,-0.50124,0.0,0.0
1800,449.75,29.4939,31.4799,138.074,104.667,110.179,0.000275344,0.0477147,20.9881,577.773,-0.464214,0.0,0.0
1805,451,29.4707,31.6458,134.258,104.655,110.3,0.000333565,0.0476011,20.9878,577.783,-0.475175,0.0,0.0
1810,452.25,29.2089,31.7942,134.168,104.677,110.55,0.000427609,0.0475198,20.9883,577.763,-0.493762,0.0,0.0
1815,453.5,29.0356,31.5653,136.565,104.693,110.206,0.000481807,0.0474902,20.9879,577.753,-0.464168,0.0,0.0
1820,454.75,29.4238,31.5142,138.11,104.712,110.124,0.000515016,0.0474821,20.9885,577.763,-0.45587,0.0,0.0
1825,456,29.686,31.5824,140.151,104.712,110.446,0.00052111,0.0475514,20.9888,577.773,-0.48223,0.0,0.0
1830,457.25,29.3783,31.3251,136.523,104.743,110.327,0.000510116,0.0475333,20.9891,577.753,-0.469832,0.0,0.0
1835,458.5,29.1224,31.4191,137.696,104.748,110.165,0.000506754,0.0474781,20.9892,577.753,-0.456133,0.0,0.0
1840,459.75,29.2215,31.052,137.471,104.765,110.052,0.000507849,0.0474591,20.9893,577.753,-0.445339,0.0,0.0
1845,461,29.6239,31.1346,137.742,104.757,110.486,0.000508915,0.0474637,20.9893,577.763,-0.48164,0.0,0.0
1850,462.25,29.3813,31.4067,137.226,104.793,110.904,0.000514771,0.0474859,20.9893,577.773,-0.51268,0.0,0.0
1855,463.5,28.988,30.8901,133.161,104.804,110.423,0.000523419,0.0475674,20.9894,577.763,-0.472403,0.0,0.0
1860,464.75,29.3875,30.6595,139.124,104.829,110.666,0.000533374,0.0475571,20.9894,577.753,-0.490146,0.0,0.0
1865,466,28.9021,31.0238,136.672,104.845,110.32,0.000525832,0.0474521,20.9901,577.743,-0.460431,0.0,0.0
1870,467.25,29.4617,30.7729,135.775,104.862,110.845,0.000472613,0.0474949,20.9914,577.743,-0.501946,0.0,0.0
1875,468.5,28.9289,30.9309,137.756,104.884,110.779,0.000368142,0.0475437,20.9921,577.743,-0.494652,0.0,0.0
1880,469.75,28.8931,30.8348,133.96,104.894,111.052,0.000282784,0.0475478,20.9916,577.733,-0.516074,0.0,0.0
1885,471,29.0575,31.4211,137.223,104.913,110.675,0.000243338,0.0475455,20.9913,577.753,-0.48369,0.0,0.0
1890,472.25,29.265,30.8277,135.226,104.94,111.199,0.000250696,0.047552,20.9923,577.743,-0.524006,0.0,0.0
1895,473.5,28.8735,30.788,137.889,104.959,111.123,0.000301166,0.0474892,20.993,577.733,-0.516191,0.0,0.0
1900,474.75,29.3593,31.0248,139.149,104.975,110.769,0.000372713,0.0474315,20.9934,577.743,-0.485947,0.0,0.0
1905,476,29.0532,30.9203,140.571,105.01,110.711,0.000435889,0.0473981,20.9937,577.743,-0.478242,0.0,0.0
1910,477.25,29.0997,30.7761,133.001,105.034,111.506,0.000462892,0.0473117,20.9939,577.733,-0.540894,0.0,0.0
1915,478.5,29.3093,30.5147,137.229,105.057,110.923,0.000434461,0.0472802,20.9939,577.733,-0.491465,0.0,0.0
1920,479.75,29.0925,30.492,133.445,105.068,110.452,0.000371384,0.0473299,20.994,577.723,-0.452074,0.0,0.0
1925,481,28.6384,30.2263,134.232,105.122,111.285,0.000316538,0.0474281,20.9932,577.723,-0.515325,0.0,0.0
1930,482.25,28.7548,30.0957,133.647,105.132,111.018,0.000291084,0.0475307,20.9925,577.743,-0.49277,0.0,0.0
1935,483.5,29.3658,30.011,134.839,105.148,110.952,0.000286114,0.0475812,20.9919,577.733,-0.485998,0.0,0.0
1940,484.75,28.917,29.9109,135.14,105.166,111.027,0.000301838,0.0475365,20.9917,577.733,-0.490546,0.0,0.0
1945,486,28.895,29.8192,140.197,105.196,110.94,0.000325364,0.0474075,20.9923,573.429,-0.480905,0.0,0.0
1950,487.25,28.3902,29.9647,135.827,105.228,111.315,0.00036442,0.0473292,20.9927,309.069,-0.508587,0.0,0.0
1955,488.5,28.6261,30.3591,136.706,105.227,110.957,0.000423555,0.0473123,20.9927,-395.174,-0.479619,0.0,0.0
1960,489.75,28.7509,30.3218,134.939,105.242,110.678,0.000496551,0.0473182,20.9915,-451.033,-0.455577,0.0,0.0
1965,491,28.2344,29.9333,135.354,105.283,111.179,0.000536798,0.0474718,20.9903,-451.073,-0.492844,0.0,0.0
1970,492.25,28.3586,29.5938,135.53,105.295,111.494,0.000539988,0.047892,20.9897,-451.003,-0.517447,0.0,0.0
1975,493.5,28.6257,29.8908,136.208,105.298,111.11,0.000496804,0.0483951,20.9893,-451.063,-0.485963,0.0,0.0
1980,494.75,28.5652,30.5255,140.123,105.326,111.647,0.000397454,0.0489183,20.989,-451.023,-0.527181,0.0,0.0
1985,496,28.4273,30.0048,137.716,105.339,110.558,0.000255768,0.0493337,20.9888,-451.023,-0.437361,0.0,0.0
1990,497.25,28.0431,30.1406,138.826,105.363,110.951,0.000114731,0.0495726,20.9887,-451.013,-0.467436,0.0,0.0
1995,498.5,28.6096,30.0746,136.194,105.362,110.932,1.61256e-05,0.0495301,20.9887,-451.003,-0.46595,0.0,0.0
2000,499.75,28.0021,29.3938,139.55,105.4,111.261,-1.52565e-05,0.0493637,20.9886,-451.003,-0.489498,0.0,0.0
2005,501,28.1496,29.5836,137.713,105.402,111.898,1.92076e-05,0.0490593,20.9896,-451.013,-0.540968,0.0,0.0
2010,502.25,27.9174,30.0409,135.578,105.43,111.687,8.94982e-05,0.0486598,20.9901,-451.003,-0.521539,0.0,0.0
2015,503.5,28.4773,29.7837,135.689,105.401,111.989,0.00015133,0.0482358,20.9904,-450.973,-0.548454,0.0,0.0
2020,504.75,28.1226,29.6717,137.13,105.429,111.672,,0.0478814,,-450.993,-0.520369,0.0,0.0
2025,506,28.2243,29.4505,135.585,105.438,111.202,,0.0475469,,-450.983,-0.481458,0.0,0.0
2030,507.25,28.5727,29.485,138.64,105.438,111.212,,0.0472511,,-450.973,-0.482292,0.0,0.0
2035,508.5,28.1834,29.3582,137.729,105.452,111.321,,,,-450.983,-0.489918,0.0,0.0
2040,509.75,27.7544,29.6889,138.196,105.453,111.553,,,,-451.003,-0.508712,0.0,0.0
2045,511,28.0995,29.4137,139.813,105.451,111.535,,,,-451.013,-0.507384,0.0,0.0
2050,512.25,27.7986,29.5012,138.685,105.439,111.028,,,,-450.983,-0.467132,0.0,0.0
2055,513.5,27.922,29.5214,134.297,105.447,111.422,,,,-450.983,-0.498563,0.0,0.0
2060,514.75,27.7148,29.6279,139.771,105.45,111.441,,,,-450.983,-0.499821,0.0,0.0
2063,515.5,28.1651,29.1658,135.188,105.452,110.821,,,,-450.993,-0.449219,0.0,0.0