File: 01_Data/Polyester_Bed_Skirt/Cone/Polyester_Bed_Skirt_Cone_HF75Scan_220523_R3.csv
Names,Time,Stack TC,Smoke TC,Exh Press,Smoke Comp,Smoke Meas,CO Meter,CO2 Meter,O2 Meter,Sample Mass,Ext Coeff,Start Test,Flame Verif
Chan Gain,,500,500,1,1,1,1,1,1,1,1,1.0,1.0
Offset,,0,0,0.139323,0,0,0,0,0,0,0,0.0,0.0
Gain,,1,1,25.011,13.8491,15.2622,1,1,1,1.00087,1.03118,1.0,1.0
Units,sec,C,C,Pa,%,%,%,%,%,g,/m,,
Baseline,,49.8797,51.6068,133.888,104.435,108.223,0.000116447,0.0428406,21.0024,-453.296,-0.322198,,
3,0.5,47.7861,50.1994,132.383,104.437,108.739,0.000378716,0.0448824,20.9993,599.302,-0.365132,0.0,0.0
6,1.25,46.5495,48.176,133.806,104.427,108.167,0.000388832,0.0448865,20.9992,599.542,-0.318306,0.0,0.0
9,2,46.2668,47.9846,132.477,104.438,109.181,0.000391952,0.0448837,20.9991,599.362,-0.401753,0.0,0.0
12,2.75,46.4828,48.1257,135.76,104.437,108.099,0.00039441,0.0448817,20.9991,599.302,-0.311778,0.0,0.0
15,3.5,46.7928,48.6262,135.034,104.427,107.906,0.000398384,0.0448802,20.999,599.482,-0.296429,0.0,0.0
18,4.25,46.2543,47.9065,134.616,104.425,107.952,0.000408197,0.0448791,20.999,599.392,-0.300439,0.0,0.0
21,5,46.8352,48.9714,133.951,104.427,108.454,0.000415351,0.0448783,20.999,599.422,-0.342267,0.0,0.0
24,5.75,46.6032,47.9891,130.059,104.425,109.379,0.000422295,0.0448777,20.999,599.482,-0.419236,0.0,0.0
27,6.5,46.5848,48.7453,133.315,104.417,108.895,0.000421296,0.0448773,20.999,599.422,-0.379859,0.0,0.0
30,7.25,46.7568,49.0424,136.66,104.411,108.972,0.000414795,0.044877,20.999,599.442,-0.386717,0.0,0.0
33,8,46.8537,48.9333,134.719,104.428,108.136,0.000407648,0.0448184,20.9989,599.412,-0.315586,0.0,0.0
36,8.75,47.0567,48.3481,136.262,104.414,108.458,0.000391101,0.0447757,20.9989,599.352,-0.34364,0.0,0.0
39,9.5,47.1705,49.0152,133.126,104.399,108.621,0.000352753,0.0446862,20.9989,599.342,-0.358621,0.0,0.0
42,10.25,47.5188,48.2817,134.737,104.405,107.511,0.000304089,0.0446619,20.9989,599.382,-0.265126,0.0,0.0
45,11,47.1115,49.0815,134.883,104.392,108.357,0.000250459,0.0446617,20.9989,599.362,-0.337186,0.0,0.0
48,11.75,47.7413,48.9784,133.263,104.398,108.258,0.000203624,0.044642,20.9989,599.352,-0.32839,0.0,0.0
51,12.5,47.1566,49.1281,131.191,104.382,108.078,0.000185213,0.0446276,20.9987,599.392,-0.314745,0.0,0.0
54,13.25,47.035,49.4122,132.376,104.379,108.056,0.000192521,0.0446171,20.9981,599.412,-0.313244,0.0,0.0
57,14,47.5459,48.9458,130.852,104.398,108.133,0.000221825,0.044629,20.9977,599.472,-0.317954,0.0,0.0
60,14.75,47.6422,49.4774,132.942,104.371,108.714,0.000317538,0.0452927,20.9974,599.432,-0.368827,0.0,0.0
63,15.5,47.5376,48.7256,135.086,104.364,106.63,0.000387313,0.0460559,20.996,599.472,-0.194346,0.0,0.0
66,16.25,46.6432,49.1705,137.085,104.368,107.549,0.000682734,0.051479,20.9926,599.452,-0.271525,0.0,1.0
69,17,47.592,48.9544,131.512,104.362,105.811,0.00101779,0.0610373,20.9851,599.272,-0.12476,0.0,1.0
72,17.75,47.5893,49.2903,132.622,104.377,103.152,0.00146672,0.0703948,20.9724,599.282,0.106773,0.0,1.0
75,18.5,47.4143,49.5406,130.862,104.378,99.7458,0.00225784,0.0844372,20.9514,599.232,0.41058,0.0,1.0
78,19.25,48.3984,49.2501,131.912,104.382,100.744,0.00283456,0.107022,20.9205,599.322,0.320922,0.0,1.0
81,20,48.36,49.9124,130.778,104.384,98.4133,0.00365648,0.140072,20.892,599.212,0.53275,0.0,1.0
84,20.75,48.3882,49.72,127.232,104.386,93.071,0.00528274,0.182233,20.8475,599.152,1.03783,0.0,1.0
87,21.5,47.4888,48.7024,125.38,104.389,87.5754,0.00808133,0.22067,20.7758,599.011,1.58861,0.0,1.0
90,22.25,47.9751,48.9555,116.096,104.378,78.6942,0.0113694,0.28901,20.69,598.831,2.55486,0.0,0.0
93,23,48.3566,49.3501,110.352,104.376,74.9769,0.0150454,0.335989,20.5767,598.681,2.99246,0.0,0.0
96,23.75,49.101,49.4986,104.825,104.398,66.9076,0.0190024,0.483048,20.4259,598.511,4.02436,0.0,0.0
99,24.5,50.4785,50.7135,105.449,104.399,62.1218,0.0235034,0.653247,20.2364,598.131,4.69573,0.0,0.0
102,25.25,52.3666,51.7649,91.5607,104.408,57.3869,0.0275811,0.804177,20.0333,597.88,5.41361,0.0,0.0
105,26,54.7788,52.4968,95.9602,104.403,59.8182,0.0308933,0.978968,19.8853,597.61,5.03791,0.0,0.0
108,26.75,57.323,54.4893,95.1168,104.414,59.1209,0.0334549,1.11941,19.7773,597.29,5.14492,0.0,0.0
111,27.5,59.6159,56.5277,102.377,104.425,62.5089,0.035385,1.21968,19.6987,597.06,4.64182,0.0,0.0
114,28.25,62.1431,58.0812,104.936,104.436,62.1447,0.0359573,1.27965,19.6512,596.82,4.6956,0.0,0.0
117,29,63.9794,59.7181,108.826,104.44,64.7315,0.0351588,1.28621,19.6336,596.639,4.32706,0.0,0.0
120,29.75,65.9036,62.1381,108.896,104.449,68.4036,0.0339182,1.27515,19.6645,596.549,3.82872,0.0,0.0
123,30.5,67.3836,63.8316,112.939,104.461,75.8214,0.0318878,1.1981,19.7326,596.419,2.89847,0.0,0.0
126,31.25,67.7899,64.6676,121.56,104.458,78.5806,0.0289709,1.10504,19.8284,596.329,2.57486,0.0,0.0
129,32,69.0622,65.8458,119.37,104.47,83.4231,0.0263336,1.02147,19.9324,596.299,2.03499,0.0,0.0
132,32.75,68.9215,66.2202,120.488,104.477,89.1311,0.0235375,0.911505,20.0388,596.309,1.43696,0.0,0.0
135,33.5,69.1603,66.636,124.03,104.478,93.0789,0.0210404,0.807785,20.144,596.199,1.04504,0.0,0.0
138,34.25,69.1047,66.6171,122.982,104.488,96.0393,0.01823,0.72213,20.2426,596.169,0.762706,0.0,0.0
141,35,68.9238,67.066,125.211,104.505,97.5102,0.015829,0.634215,20.3326,596.169,0.626684,0.0,0.0
144,35.75,69.0355,67.2528,126.426,104.509,100.176,0.0136947,0.563698,20.4131,596.159,0.383026,0.0,0.0
147,36.5,68.2058,66.9935,130.753,104.521,102.786,0.0120252,0.501299,20.4893,596.199,0.151455,0.0,0.0
150,37.25,68.3854,66.9995,130.285,104.549,103.518,0.0106136,0.442908,20.5449,596.099,0.0897033,0.0,0.0
153,38,68.2224,67.1514,131.431,104.543,104.036,0.00946895,0.394919,20.5946,596.039,0.0439655,0.0,0.0
156,38.75,67.9302,67.6624,132.238,104.549,105.248,0.00843668,0.355387,20.6369,595.949,-0.0602809,0.0,0.0
159,39.5,67.2722,66.8719,127.954,104.567,106.407,0.00754757,0.32274,20.6714,596.019,-0.157761,0.0,0.0
162,40.25,67.0468,66.9321,129.179,104.576,104.749,0.00689942,0.293853,20.701,596.019,-0.0149625,0.0,0.0
165,41,66.4629,67.0634,132.98,104.586,106.043,0.00631542,0.272794,20.7244,595.919,-0.125213,0.0,0.0
168,41.75,66.3103,66.7725,129.965,104.593,107.1,0.00586738,0.253327,20.7483,595.869,-0.214216,0.0,0.0
171,42.5,65.9622,66.5966,134.981,104.611,105.886,0.00553125,0.237382,20.7676,595.889,-0.109585,0.0,0.0
174,43.25,65.6524,66.4534,129.343,104.617,106.849,0.00527031,0.222124,20.7848,595.849,-0.190905,0.0,0.0
177,44,65.4094,66.4474,128.816,104.615,107.744,0.0050642,0.209891,20.8005,595.799,-0.266594,0.0,0.0
180,44.75,65.0187,66.0892,131.376,104.625,107.406,0.0048929,0.199077,20.8143,595.759,-0.237283,0.0,0.0
183,45.5,64.7871,66.0213,133.505,104.655,106.667,0.00474993,0.188987,20.8263,595.849,-0.17226,0.0,0.0
186,46.25,64.4029,65.8287,133.168,104.657,108.184,0.00463013,0.180422,20.8376,595.859,-0.299854,0.0,0.0
189,47,64.4288,65.8251,134.342,104.657,108.183,0.00454214,0.173052,20.8459,595.849,-0.299664,0.0,0.0
192,47.75,64.0127,65.2592,131.31,104.679,108.524,0.00447688,0.166633,20.855,595.769,-0.326302,0.0,0.0
195,48.5,63.5043,65.109,133.909,104.678,108.356,0.00445343,0.160301,20.8601,595.669,-0.312311,0.0,0.0
198,49.25,63.0801,65.6189,127.66,104.7,108.685,0.00443544,0.155686,20.8666,595.749,-0.337859,0.0,0.0
201,50,63.2878,65.1518,132.159,104.708,108.873,0.00443792,0.150736,20.8732,595.749,-0.352851,0.0,0.0
204,50.75,63.1864,64.9329,131.175,104.707,107.657,0.00448379,0.146865,20.8789,595.739,-0.251279,0.0,0.0
207,51.5,62.8586,64.9059,130.922,104.722,109.067,0.00455937,0.144573,20.8838,595.759,-0.367691,0.0,0.0
210,52.25,62.2436,64.4904,127.406,104.737,108.456,0.00463244,0.141398,20.8878,595.759,-0.315628,0.0,0.0
213,53,62.3008,64.5889,129.785,104.765,109.343,0.00475295,0.138389,20.8912,595.759,-0.386885,0.0,0.0
216,53.75,61.8354,63.9119,127.77,104.735,109.414,0.0048408,0.135899,20.8939,595.679,-0.395292,0.0,0.0
219,54.5,62.0246,64.2938,133.186,104.747,108.578,0.00497041,0.133097,20.8972,595.649,-0.324926,0.0,0.0
222,55.25,61.6048,63.966,132.439,104.76,107.83,0.00508479,0.130404,20.9003,595.649,-0.261263,0.0,0.0
225,56,61.2381,63.9565,134.34,104.756,109.492,0.0051832,0.128163,20.903,595.599,-0.399973,0.0,0.0
228,56.75,61.0961,63.682,134.3125,104.783,108.39,0.00526613,0.125882,20.9056,595.618,-0.30621,0.0,0.0
231,57.5,61.1524,63.7737,130.363,104.78,108.923,0.00533902,0.123719,20.908,595.568,-0.350749,0.0,0.0
234,58.25,60.6723,63.5095,130.616,104.797,108.675,0.00539477,0.121763,20.9105,595.548,-0.328651,0.0,0.0
237,59,60.4821,63.4862,134.441,104.806,109.879,0.00543989,0.120055,20.9123,595.528,-0.427586,0.0,0.0
240,59.75,59.9353,62.9595,130.365,104.81,109.056,0.00547811,0.118513,20.9141,595.518,-0.359138,0.0,0.0
243,60.5,59.9326,63.2031,131.441,104.824,108.623,0.00550598,0.117085,20.9155,595.468,-0.322085,0.0,0.0
246,61.25,60.0537,62.9658,132.74,104.843,109.168,0.00555825,0.115463,20.9166,595.478,-0.365674,0.0,0.0
249,62,59.6414,62.5703,130.746,104.858,108.501,0.00559636,0.114042,20.918,595.458,-0.308928,0.0,0.0
252,62.75,59.5435,62.772,132.279,104.843,109.613,0.00564191,0.112904,20.9191,595.448,-0.402418,0.0,0.0
255,63.5,59.1035,62.3624,130.279,104.865,108.824,0.00567512,0.111495,20.9199,595.438,-0.33525,0.0,0.0
258,64.25,58.8794,62.5534,133.943,104.877,109.043,0.00569932,0.110468,20.9204,595.388,-0.352409,0.0,0.0
261,65,58.8783,62.0078,133.6,104.886,109.526,0.00572053,0.109373,20.9213,595.358,-0.391621,0.0,0.0
264,65.75,58.5023,62.1949,133.525,104.886,109.434,0.00573972,0.107982,20.9225,595.368,-0.383926,0.0,0.0
267,66.5,58.624,62.0772,129.975,104.894,108.811,0.00575727,0.106649,20.9242,595.368,-0.331614,0.0,0.0
270,67.25,58.4591,61.7355,132.862,104.915,109.179,0.00577343,0.105611,20.9255,595.358,-0.360367,0.0,0.0
273,68,58.6614,62.0838,132.333,104.93,109.695,0.00579394,0.104742,20.9264,595.308,-0.401707,0.0,0.0
276,68.75,57.9206,61.6529,129.899,104.928,109.981,0.00580703,0.103948,20.9269,595.348,-0.425517,0.0,0.0
279,69.5,57.8718,61.8315,130.698,104.935,108.48,0.00585416,0.103188,20.9274,595.348,-0.300584,0.0,0.0
282,70.25,57.9536,61.2977,133.492,104.951,108.469,0.00591347,0.102527,20.928,595.318,-0.298228,0.0,0.0
285,71,57.6674,61.8164,131.585,104.961,109.295,0.00596734,0.101995,20.9289,595.338,-0.366036,0.0,0.0
288,71.75,57.4835,61.2168,131.889,104.958,109.716,0.00602442,0.101639,20.9295,595.308,-0.401068,0.0,0.0
291,72.5,57.7702,61.32,131.114,104.963,109.837,0.00606608,0.101228,20.9301,595.308,-0.410536,0.0,0.0
294,73.25,57.2667,61.0287,132.498,104.971,110.493,0.00609647,0.10063,20.9308,595.308,-0.463729,0.0,0.0
297,74,57.2986,61.0133,133.551,104.993,109.743,0.00609905,0.0999706,20.9313,595.228,-0.400198,0.0,0.0
300,74.75,57.218,60.8103,129.694,104.982,109.226,0.00610092,0.0992989,20.9316,595.188,-0.358431,0.0,0.0
303,75.5,56.9988,60.8632,130.624,104.992,109.657,0.00607204,0.0986452,20.9319,595.198,-0.393279,0.0,0.0
306,76.25,57.013,60.3015,130.958,105.006,110.298,0.00604475,0.0980572,20.9321,595.208,-0.44479,0.0,0.0
309,77,56.8143,60.5613,131.933,105.018,109.432,0.00602219,0.0975809,20.9322,595.238,-0.372409,0.0,0.0
312,77.75,56.4664,60.6231,130.824,105.018,109.909,0.00601464,0.0971223,20.9328,595.308,-0.41182,0.0,0.0
315,78.5,56.2464,60.0657,132.214,105.015,109.556,0.00602661,0.0967404,20.9336,595.278,-0.382897,0.0,0.0
318,79.25,56.4483,60.2802,130.53,105.021,109.64,0.00605131,0.0962435,20.9346,595.288,-0.389307,0.0,0.0
321,80,56.3709,60.4037,130.373,105.045,109.04,0.00608393,0.0956168,20.9353,595.238,-0.337678,0.0,0.0
324,80.75,56.5125,60.1537,131.293,105.036,109.39,0.00612017,0.0949299,20.9362,595.218,-0.367375,0.0,0.0
327,81.5,56.6767,60.5467,131.268,105.04,109.907,0.00613542,0.0942288,20.9371,595.158,-0.409735,0.0,0.0
330,82.25,55.9687,60.1416,129.878,105.038,110.367,0.00612744,0.0934797,20.9382,595.118,-0.447639,0.0,0.0
333,83,56.0575,59.7974,132.404,105.051,109.109,0.00609537,0.0927529,20.9392,595.158,-0.342773,0.0,0.0
336,83.75,55.8177,59.9113,130.998,105.064,109.128,0.00604965,0.092146,20.9399,595.108,-0.343264,0.0,0.0
339,84.5,56.241,60.1164,131.425,105.044,109.715,0.00599724,0.0912676,20.9404,595.108,-0.393564,0.0,0.0
342,85.25,55.6504,59.7386,136.278,105.054,109.94,0.00595903,0.0905766,20.941,595.068,-0.411181,0.0,0.0
345,86,55.8538,59.915,135.962,105.073,109.262,0.00591696,0.0899863,20.9417,595.098,-0.353688,0.0,0.0
348,86.75,55.8176,59.6838,133.864,105.066,109.613,0.00589626,0.0896153,20.9423,595.108,-0.383259,0.0,0.0
351,87.5,55.1194,59.1858,131.211,105.067,109.75,0.00588411,0.0893449,20.9428,595.098,-0.394367,0.0,0.0
354,88.25,55.5674,59.5849,129.187,105.062,108.808,0.00587301,0.0891755,20.9431,595.088,-0.316849,0.0,0.0
357,89,55.7816,59.4587,130.042,105.065,110.455,0.00583252,0.0891004,20.9433,595.108,-0.452521,0.0,0.0
360,89.75,55.319,59.2233,134.511,105.068,108.953,0.00580215,0.0891082,20.9435,595.068,-0.328448,0.0,0.0
363,90.5,54.7386,58.729,130.15,105.072,109.705,0.00570848,0.0890148,20.9445,595.058,-0.390318,0.0,0.0
366,91.25,55.0172,58.8073,130.135,105.064,109.538,0.00560879,0.0888006,20.9456,595.038,-0.377139,0.0,0.0
369,92,55.1717,59.0147,132.723,105.069,109.484,0.00545564,0.0883945,20.9464,594.898,-0.372313,0.0,0.0
372,92.75,55.2268,59.0237,131.155,105.077,109.883,0.0052982,0.0877154,20.9479,594.868,-0.404503,0.0,0.0
375,93.5,54.9241,58.9303,137.235,105.063,109.82,0.00512027,0.0869308,20.9495,594.958,-0.400563,0.0,0.0
378,94.25,55.0038,58.7482,128.302,105.053,110.723,0.00496364,0.0857462,20.9511,594.918,-0.47548,0.0,0.0
381,95,54.8285,58.8898,130.979,105.059,108.796,0.00478769,0.0845919,20.9521,594.888,-0.316097,0.0,0.0
384,95.75,54.5004,58.8347,134.994,105.064,108.95,0.0046438,0.0834803,20.9528,594.868,-0.328508,0.0,0.0
387,96.5,54.2364,58.2639,136.256,105.053,109.235,0.0045122,0.0824201,20.9539,594.898,-0.353087,0.0,0.0
390,97.25,54.6069,58.7708,133.04,105.041,109.279,0.00443382,0.0812528,20.9547,594.848,-0.357805,0.0,0.0
393,98,54.5878,58.0996,129.285,105.045,109.656,0.00433611,0.0802855,20.9559,594.828,-0.388577,0.0,0.0
396,98.75,54.3198,58.0809,134.732,105.062,109.203,0.00425266,0.0793813,20.9574,594.858,-0.349624,0.0,0.0
399,99.5,54.414,58.4811,130.636,105.033,110.237,0.00417949,0.0784874,20.9586,594.878,-0.437455,0.0,0.0
402,100.25,54.3139,58.3887,131.558,105.013,109.011,0.00411874,0.0779603,20.9596,594.838,-0.338012,0.0,0.0
405,101,54.195,57.881,129.695,105.012,108.561,0.00406415,0.076997,20.9607,594.858,-0.30071,0.0,0.0
408,101.75,54.127,58.3473,131.018,105.01,109.384,0.00401214,0.0760464,20.9616,594.838,-0.369132,0.0,0.0
411,102.5,54.217,58.0555,129.556,105.002,109.536,0.00395475,0.0752113,20.9622,594.808,-0.382411,0.0,0.0
414,103.25,53.5765,57.3575,130.581,104.983,109.87,0.0038796,0.0745404,20.9626,594.838,-0.41151,0.0,0.0
417,104,53.8055,58.1348,129.267,104.984,109.087,0.00378967,0.0740099,20.963,594.848,-0.346783,0.0,0.0
420,104.75,54.1304,57.3402,131.365,104.965,110.473,0.00371568,0.0735766,20.9632,594.828,-0.462673,0.0,0.0
423,105.5,53.709,57.8123,131.127,104.961,110.154,0.00364734,0.073211,20.964,594.878,-0.436876,0.0,0.0
426,106.25,53.7286,57.8848,132.24,104.943,110.024,0.00359575,0.0728792,20.9646,594.848,-0.427729,0.0,0.0
429,107,53.9301,57.2914,132.609,104.937,110.01,0.003568,0.0725257,20.965,594.838,-0.427053,0.0,0.0
432,107.75,53.9415,57.8252,135.657,104.932,109.727,0.00355197,0.0721304,20.9657,594.818,-0.404138,0.0,0.0
435,108.5,53.7305,57.6191,131.188,104.925,108.814,0.00357109,0.0717407,20.9665,594.768,-0.329261,0.0,0.0
438,109.25,53.8003,57.5765,132.96,104.893,108.862,0.00359816,0.071283,20.967,594.738,-0.335945,0.0,0.0
441,110,53.7491,57.2825,134.949,104.876,109.886,0.00363763,0.0707529,20.9673,594.698,-0.422068,0.0,0.0
444,110.75,53.5976,57.3197,129.002,104.864,109.724,0.00367416,0.0703664,20.9676,594.708,-0.409813,0.0,0.0
447,111.5,53.5055,57.4244,130.448,104.864,109.543,0.00369968,0.069908,20.9678,594.728,-0.394865,0.0,0.0
450,112.25,53.1619,57.236,136.596,104.83,108.39,0.00370719,0.0695049,20.9679,594.698,-0.302161,0.0,0.0
453,113,52.984,57.2155,131.227,104.819,109.388,0.00369067,0.0691818,20.968,594.708,-0.385948,0.0,0.0
456,113.75,53.1607,57.1253,136.618,104.803,108.813,0.00367127,0.0688087,20.9687,594.668,-0.339644,0.0,0.0
459,114.5,53.0565,57.0123,128.502,104.793,108.998,0.00362198,0.0684789,20.9692,594.698,-0.355881,0.0,0.0
462,115.25,53.1353,56.8376,134.006,104.763,109.804,0.00357893,0.0681394,20.9696,594.688,-0.425056,0.0,0.0
465,116,53.2475,57.114,131.742,104.741,109.927,0.00353535,0.0677937,20.9705,594.728,-0.437077,0.0,0.0
468,116.75,53.2276,56.8024,133.992,104.724,110.189,0.00349839,0.067473,20.9711,594.648,-0.460164,0.0,0.0
471,117.5,53.1289,56.6034,129.844,104.725,108.914,0.00346259,0.0672098,20.9716,594.698,-0.354832,0.0,0.0
474,118.25,52.6917,56.7271,133.429,104.703,109.142,0.00342421,0.0669984,20.972,594.668,-0.375588,0.0,0.0
477,119,52.7539,56.1063,126.962,104.668,108.525,0.00338392,0.0668298,20.9722,594.658,-0.327365,0.0,0.0
480,119.75,52.6907,56.8253,134.51,104.647,107.384,0.00334283,0.0666821,20.9724,594.668,-0.23354,0.0,0.0
483,120.5,53.1531,56.586,130.737,104.636,109.408,0.00330181,0.0665527,20.9725,594.688,-0.403449,0.0,0.0
486,121.25,52.8724,56.2245,135.588,104.628,108.454,0.00324911,0.0664212,20.9726,594.658,-0.32486,0.0,0.0
489,122,52.9814,56.7894,132.68,104.59,110.043,0.00319594,0.0663254,20.9727,594.648,-0.459732,0.0,0.0
492,122.75,52.5126,56.4628,131.909,104.574,108.975,0.00313878,0.0661771,20.9728,594.638,-0.372864,0.0,0.0
495,123.5,52.3016,56.282,136.08,104.557,108.793,0.00310209,0.0660002,20.9728,594.638,-0.359273,0.0,0.0
498,124.25,52.7793,56.3658,136.039,104.543,109.336,0.00305259,0.0657986,20.9728,594.618,-0.40552,0.0,0.0
501,125,52.6752,56.1331,131.913,104.518,109.76,0.00300435,0.0655774,20.9728,594.638,-0.442602,0.0,0.0
504,125.75,52.8046,56.114,131.142,104.511,108.891,0.00294586,0.0651767,20.9729,594.628,-0.371313,0.0,0.0
507,126.5,52.6085,56.0281,133.86,104.499,109.127,0.00288037,0.0650023,20.9729,594.638,-0.391971,0.0,0.0
510,127.25,52.697,56.4186,130.873,104.497,108.162,0.00281055,0.0646909,20.9735,594.618,-0.311804,0.0,0.0
513,128,52.5583,56.0164,135.628,104.469,108.836,0.00273517,0.0643953,20.974,594.608,-0.370406,0.0,0.0
516,128.75,52.5837,55.8284,129.119,104.462,108.727,0.0026888,0.0641427,20.9743,594.628,-0.361964,0.0,0.0
519,129.5,52.4425,56.1989,133.867,104.458,108.533,0.00265866,0.0640174,20.9745,594.608,-0.346121,0.0,0.0
522,130.25,52.4368,55.7797,134.133,104.456,107.627,0.00266068,0.0639043,20.9747,594.598,-0.270485,0.0,0.0
525,131,52.7651,56.0733,132.244,104.451,108.023,0.00268538,0.0637848,20.9748,594.588,-0.304178,0.0,0.0
528,131.75,52.473,55.9182,129.379,104.43,108.573,0.00272795,0.0636193,20.9749,594.588,-0.35195,0.0,0.0
531,132.5,52.5491,55.9851,133.221,104.43,109.175,0.00280097,0.0634163,20.9756,594.568,-0.401946,0.0,0.0
534,133.25,52.3636,55.8032,132.31,104.418,108.47,0.00287172,0.0632879,20.9761,594.578,-0.344396,0.0,0.0
537,134,52.3078,55.3889,130,104.42,109.156,0.0029233,0.0631395,20.9765,594.608,-0.401206,0.0,0.0
540,134.75,52.0255,55.7505,134.692,104.392,108.392,0.0029609,0.063051,20.9768,594.598,-0.340101,0.0,0.0
543,135.5,52.5015,55.6607,131.875,104.385,108.735,0.00297955,0.0629502,20.977,594.558,-0.36925,0.0,0.0
546,136.25,52.3779,56.0753,130.975,104.387,108.88,0.00298474,0.062815,20.9771,594.558,-0.381223,0.0,0.0
549,137,51.946,55.2459,134.653,104.374,108.417,0.00297415,0.0626577,20.9778,594.538,-0.343777,0.0,0.0
552,137.75,52.1483,55.372,134.639,104.365,109.557,0.00294311,0.0625156,20.9784,594.558,-0.439213,0.0,0.0
555,138.5,52.1312,55.81,131.385,104.386,108.85,0.00289317,0.0623785,20.9789,594.568,-0.37878,0.0,0.0
558,139.25,52.1926,55.3717,135.109,104.396,108.607,0.00287123,0.0622416,20.9791,594.538,-0.357673,0.0,0.0
561,140,51.6201,55.7213,132.704,104.427,109.656,0.00284465,0.0620767,20.9797,594.538,-0.442017,0.0,0.0
564,140.75,52.086,55.2255,131.278,104.444,108.795,0.0028272,0.0618454,20.9804,594.497,-0.369233,0.0,0.0
567,141.5,51.9401,55.7084,130.83,104.482,108.992,0.00281553,0.0615726,20.9808,594.508,-0.382305,0.0,0.0
570,142.25,52.1865,55.539,131.583,104.511,109.635,0.00280702,0.0614361,20.9812,594.497,-0.433006,0.0,0.0
573,143,52.3479,55.1783,137.53,104.534,108.241,0.00279732,0.0612413,20.9819,594.518,-0.315242,0.0,0.0
576,143.75,51.6809,55.8161,132.364,104.559,109.396,0.00279024,0.0610015,20.9826,594.548,-0.409063,0.0,0.0
579,144.5,51.9999,55.8689,129.543,104.582,109.102,0.00277984,0.0607992,20.9831,594.528,-0.382755,0.0,0.0
582,145.25,51.49,55.7783,131.777,104.604,109.638,0.00276483,0.0605577,20.9834,594.487,-0.425192,0.0,0.0
585,146,51.4585,55.4846,130.47,104.636,110.026,0.00274233,0.0603465,20.9837,594.497,-0.454404,0.0,0.0
588,146.75,52.2405,55.2314,135.469,104.651,107.989,0.00271158,0.0600361,20.9841,594.508,-0.283996,0.0,0.0
591,147.5,51.876,55.465,139.64,104.694,109.336,0.00265362,0.0598098,20.9844,594.518,-0.392476,0.0,0.0
594,148.25,52.8855,55.5563,131.991,104.716,109.049,0.00259622,0.0595287,20.9846,594.508,-0.366732,0.0,0.0
597,149,52.4743,55.2527,133.296,104.758,109.175,0.00250372,0.0593238,20.9848,594.497,-0.373621,0.0,0.0
600,149.75,52.26,55.0802,131.909,104.78,109.707,0.0024106,0.0591744,20.9849,594.478,-0.415613,0.0,0.0
603,150.5,52.0587,55.0424,132.384,104.818,109.535,0.00233176,0.0589872,20.985,594.497,-0.398184,0.0,0.0
606,151.25,52.3618,55.2974,131.486,104.832,109.12,0.00224988,0.0587959,20.9851,594.487,-0.362683,0.0,0.0
609,152,52.2247,54.9353,132.192,104.861,109.641,0.00219018,0.0586259,20.9851,594.508,-0.403229,0.0,0.0
612,152.75,51.4914,55.4136,128.277,104.876,109.891,0.00214859,0.0584896,20.9852,594.458,-0.422528,0.0,0.0
615,153.5,51.8411,55.0878,131.912,104.883,108.508,0.00212157,0.0583629,20.9852,594.437,-0.30732,0.0,0.0
618,154.25,51.5491,54.7757,132.37,104.907,109.235,0.00210317,0.0582587,20.9852,594.437,-0.36565,0.0,0.0
621,155,52.506,55.1802,132.758,104.928,109.065,0.00209195,0.0581438,20.985,594.427,-0.349814,0.0,0.0
624,155.75,51.8088,55.3062,129.613,104.946,109.399,0.00207399,0.0580599,20.9848,594.448,-0.375903,0.0,0.0
627,156.5,52.4517,54.5731,128.984,104.963,109.394,0.00205673,0.0579988,20.9847,594.417,-0.374058,0.0,0.0
630,157.25,51.6498,54.8793,132.704,104.974,108.744,0.00203369,0.0579543,20.9846,594.417,-0.319151,0.0,0.0
633,158,51.8695,55.0834,133.27,105.002,109.508,0.00201689,0.0579074,20.9846,594.437,-0.380064,0.0,0.0
636,158.75,51.9581,54.5001,133.253,105.026,109.092,0.0020029,0.0578485,20.9852,594.427,-0.343643,0.0,0.0
639,159.5,51.9597,54.9436,133.568,105.025,108.802,0.00199514,0.0577645,20.9856,594.397,-0.319584,0.0,0.0
642,160.25,52.6103,55.025,132.7,105.039,109.302,0.00199118,0.0576857,20.9859,594.367,-0.359915,0.0,0.0
645,161,52.0814,54.5683,131.155,105.055,110.011,0.00199582,0.0575305,20.9861,594.367,-0.41697,0.0,0.0
648,161.75,51.821,54.7342,132.239,105.065,108.29,0.0020102,0.0573885,20.9863,594.397,-0.273473,0.0,0.0
651,162.5,51.7607,54.9439,132.758,105.056,109.547,0.00204162,0.0572357,20.9864,594.397,-0.378638,0.0,0.0
654,163.25,50.9907,54.4711,130.557,105.065,109.113,0.00207798,0.057007,20.9867,594.337,-0.341921,0.0,0.0
657,164,52.3227,54.858,130.569,105.073,108.852,0.00211022,0.0568541,20.9873,594.357,-0.319617,0.0,0.0
660,164.75,51.1687,54.3356,134.848,105.092,109.966,0.00213823,0.0567556,20.9878,594.347,-0.410054,0.0,0.0
663,165.5,51.2974,54.5024,131.288,105.087,110.849,0.00216636,0.0566961,20.9881,594.367,-0.482803,0.0,0.0
666,166.25,51.7572,55.099,132.041,105.113,109.611,0.00217102,0.0565746,20.9884,594.347,-0.378992,0.0,0.0
669,167,52.197,55.2144,132.326,105.116,108.433,0.00215866,0.0564356,20.9885,594.337,-0.281081,0.0,0.0
672,167.75,51.2465,54.9901,132.39,105.132,109.094,0.00213423,0.0562479,20.9884,594.347,-0.33459,0.0,0.0
675,168.5,51.5831,54.4553,131.687,105.129,109.165,0.00209899,0.0560837,20.9884,594.347,-0.340712,0.0,0.0
678,169.25,52.0002,55.1873,135.515,105.139,108.675,0.00206597,0.0559523,20.9885,594.327,-0.299225,0.0,0.0
681,170,51.8271,54.4407,131.859,105.138,108.806,0.00203427,0.0557577,20.9891,594.287,-0.310183,0.0,0.0
684,170.75,51.8,54.3083,130.138,105.16,109.114,0.00200346,0.0555726,20.9894,594.307,-0.333853,0.0,0.0
687,171.5,52.0586,54.9861,135.832,105.157,109.927,0.00197715,0.0553637,20.9897,594.307,-0.401346,0.0,0.0
690,172.25,51.629,54.7666,133.349,105.151,109.002,0.00195137,0.0551138,20.9899,594.277,-0.325379,0.0,0.0
693,173,52.1049,54.6851,134.342,105.162,109.375,0.00192909,0.0548905,20.9901,594.287,-0.355265,0.0,0.0
696,173.75,51.9416,54.7716,131.936,105.182,109.513,0.00191529,0.0547103,20.9904,594.257,-0.365027,0.0,0.0
699,174.5,51.7863,54.7738,133.584,105.172,109.663,0.00191206,0.0544813,20.991,594.277,-0.37828,0.0,0.0
702,175.25,51.9744,54.788,133.848,105.166,110.376,0.0019196,0.0542711,20.9915,594.237,-0.437417,0.0,0.0
705,176,52.0724,54.3547,131.42,105.189,108.86,0.00195124,0.054044,20.9919,594.257,-0.310349,0.0,0.0
708,176.75,51.977,54.4612,133.336,105.173,109.527,0.00197431,0.0538004,20.9921,594.257,-0.366983,0.0,0.0
711,177.5,51.7559,54.6797,128.519,105.177,109.656,0.0020217,0.0536091,20.9923,594.247,-0.377232,0.0,0.0
714,178.25,51.4299,54.3127,128.733,105.176,110.06,0.00206928,0.0534278,20.9925,594.227,-0.410588,0.0,0.0
717,179,52.3068,54.5264,132.359,105.166,109.788,0.00210268,0.0532341,20.9926,594.227,-0.389042,0.0,0.0
720,179.75,52.0946,54.6676,127.745,105.167,110.656,0.00212483,0.0530928,20.9927,594.217,-0.460217,0.0,0.0
723,180.5,51.9764,54.3493,128.691,105.19,109.845,0.0021305,0.0528143,20.9923,594.237,-0.391688,0.0,0.0
726,181.25,51.4295,54.2738,132.555,105.169,108.934,0.0021273,0.0525896,20.9919,594.187,-0.318171,0.0,0.0
729,182,51.5585,54.275,132.992,105.164,108.346,0.00211927,0.0523889,20.9916,594.177,-0.269628,0.0,0.0
732,182.75,51.5882,54.0197,133.656,105.182,109.691,0.00210901,0.0522016,20.9913,594.207,-0.379676,0.0,0.0
735,183.5,51.7286,54.5796,131.957,105.185,109.111,0.00209978,0.0520331,20.9911,594.187,-0.331436,0.0,0.0
738,184.25,52.0296,54.6948,131.061,105.171,110.597,0.00209795,0.0518785,20.991,594.187,-0.455092,0.0,0.0
741,185,51.8209,54.3988,131.151,105.179,109.561,0.0020987,0.0517535,20.9909,594.167,-0.369207,0.0,0.0
744,185.75,52.2262,54.4696,130.152,105.176,109.738,0.00211392,0.051676,20.9909,594.157,-0.384098,0.0,0.0
747,186.5,52.0263,54.1631,134.2,105.192,109.826,0.00213321,0.0516614,20.9912,594.207,-0.390008,0.0,0.0
750,187.25,51.4493,54.4377,132.737,105.188,109.212,0.00215057,0.0517122,20.9917,594.157,-0.33952,0.0,0.0
753,188,52.3775,54.726,129.883,105.19,108.724,0.00215222,0.0517767,20.9921,594.167,-0.298896,0.0,0.0
756,188.75,52.041,54.1423,130.993,105.181,108.859,0.00214422,0.0518353,20.9923,594.147,-0.310963,0.0,0.0
759,189.5,51.4081,54.3116,132.568,105.197,109.399,0.00213069,0.0518975,20.9925,594.107,-0.354252,0.0,0.0
762,190.25,51.8828,54.5792,132.665,105.176,109.398,0.00211715,0.0518997,20.9926,594.117,-0.355956,0.0,0.0
765,191,51.6651,54.5357,128.662,105.168,109.652,0.00210186,0.0518275,20.9927,594.117,-0.377611,0.0,0.0
768,191.75,51.648,54.477,132.807,105.176,109.329,0.00208411,0.0517358,20.9928,594.107,-0.350366,0.0,0.0
771,192.5,51.0098,53.8166,132.764,105.175,110.133,0.00207117,0.0516553,20.9928,594.117,-0.416669,0.0,0.0
774,193.25,51.2352,53.9509,133.084,105.173,109.188,0.00206174,0.0515908,20.9929,594.107,-0.3389,0.0,0.0
777,194,51.7952,54.4059,142.156,105.158,109.969,0.00207404,0.0514852,20.9929,594.097,-0.404685,0.0,0.0
780,194.75,51.6426,54.215,130.125,105.163,110.235,0.00209697,0.0514083,20.9929,594.077,-0.426135,0.0,0.0
783,195.5,51.7443,53.717,132.984,105.164,109.693,0.00211246,0.0513522,20.9929,594.097,-0.381392,0.0,0.0
786,196.25,51.9809,54.1314,131.783,105.164,109.254,0.00212323,0.0512333,20.9929,594.117,-0.345177,0.0,0.0
789,197,51.7515,54.1413,134.973,105.15,110.746,0.00211888,0.0510646,20.993,594.077,-0.469019,0.0,0.0
792,197.75,51.6438,54.1793,128.98,105.142,109.747,0.00210469,0.0508923,20.993,594.077,-0.387735,0.0,0.0
795,198.5,52.2877,53.853,131.119,105.155,109.603,0.00208966,0.0507421,20.993,594.037,-0.374741,0.0,0.0
798,199.25,51.8095,53.7866,131.431,105.155,109.437,0.00207227,0.0506325,20.993,594.057,-0.361046,0.0,0.0
801,200,51.7912,53.936,132.357,105.131,109.693,0.0020486,0.0505254,20.993,594.077,-0.384229,0.0,0.0
804,200.75,51.2604,53.9554,127.535,105.132,109.21,0.00203134,0.0504356,20.993,594.067,-0.344276,0.0,0.0
807,201.5,51.4947,54.1714,133.553,105.13,109.767,0.00202572,0.0502881,20.9934,594.077,-0.390406,0.0,0.0
810,202.25,51.6205,54.1931,128.242,105.148,109.704,0.00201919,0.0501457,20.9939,594.077,-0.383694,0.0,0.0
813,203,51.5844,54.0428,130.419,105.13,109.719,0.00200824,0.0500418,20.9943,594.047,-0.386486,0.0,0.0
816,203.75,51.7174,54.0835,128.766,105.113,109.141,0.00199146,0.0499388,20.9946,594.017,-0.340163,0.0,0.0
819,204.5,51.877,54.1716,135.402,105.12,108.702,0.0019618,0.0498448,20.9947,594.067,-0.303108,0.0,0.0
822,205.25,51.405,54.4039,129.682,105.122,109.941,0.00192674,0.0497641,20.9951,594.057,-0.4054,0.0,0.0
825,206,51.3928,54.0015,133.815,105.117,109.48,0.00189546,0.0496077,20.9958,594.057,-0.36782,0.0,0.0
828,206.75,51.7123,54.2759,132.481,105.094,109.276,0.00183958,0.0494391,20.9963,594.007,-0.352989,0.0,0.0
831,207.5,51.4225,53.7774,131.242,105.096,109.127,0.00178786,0.0492929,20.9966,594.037,-0.340422,0.0,0.0
834,208.25,51.5513,54.4001,131.604,105.113,110.228,0.00174547,0.0491863,20.9963,594.027,-0.429814,0.0,0.0
837,209,51.1815,54.2802,133.309,105.099,109.465,0.00170926,0.0490813,20.996,594.037,-0.368116,0.0,0.0
840,209.75,51.809,54.1572,131.678,105.083,109.38,0.00168864,0.0489931,20.9958,594.017,-0.362529,0.0,0.0
843,210.5,51.4683,54.4435,133.281,105.092,109.428,0.00168349,0.0488703,20.9959,594.017,-0.365768,0.0,0.0
846,211.25,51.5495,54.2128,129.247,105.097,109.046,0.0016954,0.0487816,20.996,594.017,-0.333594,0.0,0.0
849,212,51.6363,53.9727,132.74,105.087,109.526,0.00170409,0.0487029,20.996,594.017,-0.374175,0.0,0.0
852,212.75,51.7616,54.1796,129.396,105.076,109.739,0.00171042,0.048621,20.996,594.027,-0.392757,0.0,0.0
855,213.5,50.1991,52.3562,127.654,105.084,110.074,0.00171015,0.0485339,20.9963,594.047,-0.419666,0.0,0.0
858,214.25,48.8298,51.5736,134.463,105.075,109.321,0.00170595,0.0484588,20.9969,594.027,-0.358364,0.0,0.0
861,215,47.5518,50.0175,132.242,105.076,109.611,0.00169959,0.0483846,20.9973,593.977,-0.382157,0.0,0.0
864,215.75,46.8358,49.8027,132.397,105.071,109.517,0.00167787,0.0483168,20.9976,593.977,-0.374864,0.0,0.0
867,216.5,46.9937,49.8309,134.158,105.059,109.026,0.00164321,0.0482616,20.9978,593.987,-0.335207,0.0,0.0
870,217.25,47.2852,49.5906,129.714,105.072,109.864,0.00159819,0.0481434,20.998,594.017,-0.403442,0.0,0.0
873,218,47.4605,49.8161,131.66,105.089,108.916,0.00154277,0.0480501,20.9981,593.957,-0.323499,0.0,0.0
876,218.75,47.148,49.6881,133.67,105.061,109.174,0.00150369,0.0479697,20.9982,593.977,-0.347378,0.0,0.0
879,219.5,47.3256,49.7559,133.369,105.051,109.936,0.00147746,0.0478333,20.9983,593.997,-0.411165,0.0,0.0
882,220.25,47.2375,49.6603,131.578,105.05,109.128,0.00147629,0.0477338,20.9983,593.977,-0.344504,0.0,0.0
885,221,47.2331,49.4081,134.333,105.061,108.949,0.00150616,0.0476613,20.9981,593.977,-0.328719,0.0,0.0
888,221.75,47.0655,49.3299,130.927,105.052,109.13,0.00156448,0.0475947,20.9984,593.967,-0.344439,0.0,0.0
891,222.5,47.0139,49.789,129.827,105.051,109.459,0.00161535,0.0475256,20.9988,593.967,-0.371764,0.0,0.0
894,223.25,47.3928,49.9312,132.83,105.045,108.954,0.00166671,0.0474499,20.9991,593.947,-0.330416,0.0,0.0
897,224,46.9225,49.4083,132.975,105.051,108.452,0.00170544,0.0473517,20.9993,593.957,-0.28824,0.0,0.0
900,224.75,47.0047,49.4904,130.964,105.036,109.165,0.00173588,0.0472063,20.999,593.977,-0.34883,0.0,0.0
903,225.5,46.7844,49.2912,130.134,105.028,108.541,0.00174239,0.0471198,20.9988,593.957,-0.297583,0.0,0.0
906,226.25,47.2693,49.928,131.82,105.023,110.444,0.00172639,0.0470568,20.9987,593.917,-0.455207,0.0,0.0
909,227,47.1123,49.7506,132.894,105.028,110.483,0.00170588,0.0470497,20.9985,593.917,-0.458011,0.0,0.0
912,227.75,47.0975,49.5429,134.121,105.015,109.458,0.00167264,0.0470036,20.9982,593.937,-0.374856,0.0,0.0
915,228.5,47.253,49.8642,132.794,105.001,109.03,0.0016406,0.0469526,20.9976,593.947,-0.340652,0.0,0.0
918,229.25,46.9022,49.6255,136.889,105.017,109.202,0.00161368,0.0468764,20.9972,593.937,-0.353516,0.0,0.0
921,230,47.3306,49.4253,131.472,104.999,109.527,0.00159405,0.0468892,20.9969,593.917,-0.381935,0.0,0.0
924,230.75,47.2675,49.4529,129.48,104.999,109.302,0.00157974,0.0469276,20.9969,593.887,-0.363373,0.0,0.0
927,231.5,47.4721,49.6097,127.371,104.988,109.433,0.00157627,0.0469282,20.9968,593.917,-0.375032,0.0,0.0
930,232.25,47.2533,49.55,130.408,104.98,110.005,0.00157008,0.0469319,20.9968,593.917,-0.422917,0.0,0.0
933,233,47.3622,49.1628,130.104,104.975,109.2,0.00155823,0.0469598,20.9968,593.917,-0.356931,0.0,0.0
936,233.75,47.4054,49.7686,132.726,104.984,109.696,0.00153972,0.0469529,20.9968,593.887,-0.397198,0.0,0.0
939,234.5,47.4519,49.6339,131.917,104.965,109.693,0.00151788,0.0469218,20.9968,593.927,-0.398493,0.0,0.0
942,235.25,47.6152,49.3206,133.204,104.972,108.779,0.00148771,0.0468746,20.9974,593.907,-0.32224,0.0,0.0
945,236,46.8892,49.6972,132.268,104.966,108.551,0.00145702,0.0468597,20.9979,593.897,-0.303789,0.0,0.0
948,236.75,46.934,49.6054,131.421,104.976,108.711,0.00143586,0.0468272,20.9982,593.947,-0.316293,0.0,0.0
951,237.5,47.1793,49.6692,132.027,104.937,109.812,0.0014216,0.0467667,20.9984,593.927,-0.410761,0.0,0.0
954,238.25,47.1843,49.5953,127.776,104.937,109.195,0.0014123,0.0467298,20.9986,593.897,-0.359745,0.0,0.0
957,239,47.1549,49.4592,131.965,104.926,109.494,0.00140796,0.0467223,20.9987,593.867,-0.385504,0.0,0.0
960,239.75,47.3573,49.6197,129.103,104.926,108.427,0.00140584,0.0467292,20.9988,593.857,-0.296884,0.0,0.0
963,240.5,47.656,49.575,130.956,104.914,109.321,0.00141133,0.0467205,20.9989,593.857,-0.372161,0.0,0.0
966,241.25,47.1996,49.7295,131.983,104.911,109.977,0.00141534,0.0467084,20.999,593.867,-0.426518,0.0,0.0
969,242,47.4613,49.9119,130.679,104.887,108.731,0.00142191,0.0466996,20.9984,593.897,-0.325646,0.0,0.0
972,242.75,47.2155,49.7497,131.121,104.901,109.666,0.00142949,0.0467196,20.9977,593.867,-0.401839,0.0,0.0
975,243.5,47.3707,49.507,130.984,104.879,109.422,0.00143424,0.0467455,20.9972,593.847,-0.383547,0.0,0.0
978,244.25,47.3875,49.4733,131.866,104.871,109.055,0.00143552,0.0466866,20.9969,593.847,-0.353922,0.0,0.0
981,245,47.6119,49.3694,130.23,104.876,110.32,0.00142428,0.0466436,20.9966,593.847,-0.457805,0.0,0.0
984,245.75,47.1941,49.9347,134.999,104.865,109.072,0.00140634,0.0466122,20.9964,593.857,-0.355786,0.0,0.0
987,246.5,47.4139,49.2606,132.681,104.867,108.609,0.00138911,0.0465894,20.9963,593.817,-0.317202,0.0,0.0
990,247.25,47.5303,49.9614,130.513,104.843,108.515,0.00137462,0.0465727,20.9962,593.797,-0.311441,0.0,0.0
993,248,47.0577,49.8044,135.072,104.844,109.788,0.00136078,0.0465606,20.9963,593.847,-0.416822,0.0,0.0
996,248.75,46.9336,49.8334,132.507,104.835,108.81,0.00134946,0.0465712,20.9964,593.837,-0.336565,0.0,0.0
999,249.5,47.1057,49.7009,133.567,104.839,108.728,0.0013407,0.0465789,20.9964,593.827,-0.329457,0.0,0.0
1002,250.25,46.7728,48.8967,138.42,104.816,108.635,0.00134125,0.0464678,20.9965,593.827,-0.323787,0.0,0.0
1005,251,47.0731,49.6029,134.697,104.809,108.371,0.00135209,0.0464227,20.9965,593.817,-0.302318,0.0,0.0
1008,251.75,47.2982,48.8569,132.407,104.808,109.249,0.00136319,0.0464512,20.9965,593.817,-0.375338,0.0,0.0
1011,252.5,46.9167,49.2139,133.628,104.823,108.641,0.00137271,0.046472,20.9965,593.827,-0.323671,0.0,0.0
1014,253.25,47.3664,49.789,126.201,104.808,108.802,0.00138371,0.0464728,20.9965,593.837,-0.338314,0.0,0.0
1017,254,47.6504,49.2978,131.578,104.793,110.32,0.00138916,0.0464488,20.9966,593.807,-0.464915,0.0,0.0
1020,254.75,47.4585,49.8898,132.961,104.809,108.907,0.00138875,0.0463729,20.9966,593.817,-0.346915,0.0,0.0
1023,255.5,47.5536,49.6553,130.786,104.787,110.387,0.00139454,0.0463341,20.9966,593.787,-0.470925,0.0,0.0
1026,256.25,47.2836,49.5905,132.397,104.777,108.322,0.00140328,0.0462504,20.9966,593.797,-0.301044,0.0,0.0
1029,257,47.4364,49.9227,132.104,104.794,108.861,0.00141294,0.0462477,20.9966,593.777,-0.344437,0.0,0.0
1032,257.75,47.0294,49.3769,129.675,104.775,108.494,0.00141512,0.0462745,20.9966,593.777,-0.315493,0.0,0.0
1035,258.5,47.4119,49.1384,130.788,104.792,108.927,0.00141013,0.0463432,20.9966,593.797,-0.349998,0.0,0.0
1038,259.25,47.6476,49.5948,134.632,104.775,109.372,0.00139369,0.0463348,20.9966,593.787,-0.388471,0.0,0.0
1041,260,47.2921,49.4758,128.407,104.776,108.522,0.00137294,0.0463359,20.9966,593.777,-0.31775,0.0,0.0
1044,260.75,47.1493,49.2605,127.635,104.79,108.779,0.00133711,0.046349,20.9968,593.757,-0.33795,0.0,0.0
1047,261.5,47.1961,49.5879,135.612,104.79,108.878,0.00130217,0.0463196,20.9974,593.777,-0.346156,0.0,0.0
1050,262.25,47.2907,49.6793,131.656,104.782,109.277,0.00126446,0.0462709,20.9976,593.787,-0.379914,0.0,0.0
1053,263,47.1872,49.9024,133.846,104.78,109.088,0.00123624,0.0462166,20.9976,593.787,-0.364431,0.0,0.0
1056,263.75,47.417,49.6407,132.264,104.772,108.709,0.00122333,0.0461647,20.998,593.797,-0.333633,0.0,0.0
1059,264.5,47.213,49.5201,134.451,104.789,109.427,0.00124558,0.046155,20.9985,593.777,-0.391699,0.0,0.0
1062,265.25,47.0156,49.8232,132.359,104.788,109.017,0.00129326,0.0461598,20.9988,593.737,-0.357864,0.0,0.0
1065,266,47.2918,49.2827,132.345,104.778,109.79,0.00135872,0.0461907,20.9991,593.737,-0.422629,0.0,0.0
1068,266.75,47.5471,49.6265,132.404,104.782,108.604,0.00143602,0.0462248,20.9988,593.747,-0.324067,0.0,0.0
1071,267.5,47.1395,48.9896,132.464,104.797,109.349,0.00148871,0.0462497,20.9987,593.777,-0.384649,0.0,0.0
1074,268.25,46.6876,49.2303,133.012,104.796,109.635,0.00152556,0.0462873,20.999,593.777,-0.408348,0.0,0.0
1077,269,47.006,49.5466,134.647,104.779,108.912,0.00152682,0.046301,20.9992,593.767,-0.349892,0.0,0.0
1080,269.75,47.28,49.5558,128.79,104.778,108.929,0.00151682,0.0463196,20.9993,593.787,-0.351469,0.0,0.0
1083,270.5,47.7258,49.0865,132.315,104.775,109.262,0.00147419,0.0463577,20.9996,593.737,-0.379336,0.0,0.0
1086,271.25,47.3961,49.0735,130.472,104.761,107.984,0.00142806,0.0463855,21.0002,593.727,-0.274113,0.0,0.0
1089,272,47.4528,49.5963,131.875,104.762,108.506,0.0013649,0.0464058,21.0007,593.727,-0.317632,0.0,0.0
1092,272.75,47.4213,49.6004,133.823,104.75,108.298,0.00130061,0.0464134,21.001,593.727,-0.301318,0.0,0.0
1095,273.5,47.2391,49.6545,129.733,104.75,109.422,0.00124596,0.0464066,21.0012,593.747,-0.394669,0.0,0.0
1098,274.25,47.1155,49.5476,134.463,104.759,109.059,0.00116797,0.0463607,21.0009,593.727,-0.363861,0.0,0.0
1101,275,46.9057,49.3337,135.642,104.737,110.02,0.00110016,0.046317,21.0006,593.737,-0.445179,0.0,0.0
1104,275.75,47.3509,49.2837,133.43,104.71,109.315,0.00104607,0.0462974,21.0003,593.737,-0.389279,0.0,0.0
1107,276.5,47.255,49.3824,131.189,104.709,109.209,0.00102366,0.0462559,21.0001,593.707,-0.380598,0.0,0.0
1110,277.25,47.3772,50.0773,131.906,104.705,110.398,0.00102674,0.0462211,20.9999,593.697,-0.478921,0.0,0.0
1113,278,47.3925,49.7928,134.262,104.672,110.531,0.00104978,0.0462081,20.9998,593.727,-0.49264,0.0,0.0
1116,278.75,47.7121,49.0579,128.065,104.664,108.837,0.00109435,0.0462345,21.0002,593.737,-0.353592,0.0,0.0
1119,279.5,47.5764,49.5015,130.1,104.669,110.115,0.00113292,0.0463151,21.0006,593.717,-0.458755,0.0,0.0
1122,280.25,47.168,49.594,131.719,104.674,109.182,0.00116364,0.0464129,21.001,593.717,-0.381466,0.0,0.0
1125,281,47.6448,49.316,131.382,104.627,109.109,0.00118603,0.0464705,21.0012,593.707,-0.379421,0.0,0.0
1128,281.75,47.4618,49.6825,131.093,104.622,110.124,0.00120236,0.0464994,21.0014,593.707,-0.463649,0.0,0.0
1131,282.5,47.4484,49.4864,129.338,104.623,109.92,0.00121426,0.0465083,21.0015,593.717,-0.446804,0.0,0.0
1134,283.25,47.8188,49.6336,128.858,104.609,109.369,0.00120839,0.0465342,21.0014,593.747,-0.402441,0.0,0.0
1137,284,47.6075,49.3306,135.042,104.591,110.256,0.00118511,0.0465668,21.0013,593.757,-0.477138,0.0,0.0
1140,284.75,47.631,49.6376,133.664,104.575,109.272,0.00114625,0.0465963,21.0012,593.697,-0.397424,0.0,0.0
1143,285.5,47.5743,49.563,133.508,104.574,109.545,0.00109363,0.0466443,21.0012,593.687,-0.420098,0.0,0.0
1146,286.25,47.9176,49.5364,132.871,104.571,109.183,0.00104069,0.0466907,21.0011,593.737,-0.390347,0.0,0.0
1149,287,47.3618,49.2232,130.499,104.56,109.376,0.000988212,0.0466835,21.0011,593.677,-0.407297,0.0,0.0
1152,287.75,47.6466,50.0035,134.487,104.548,110.309,0.000936832,0.0466751,21.001,593.707,-0.485184,0.0,0.0
1155,288.5,47.0392,49.3985,129.97,104.539,109.448,0.000880324,0.0466937,21.001,593.767,-0.415092,0.0,0.0
1158,289.25,47.5021,49.5178,128.009,104.551,109.139,0.000839129,0.0467266,21.001,593.737,-0.388513,0.0,0.0
1161,290,48.1606,49.4111,134.891,104.539,109.705,0.000796978,0.0467506,21.001,593.717,-0.436318,0.0,0.0
1164,290.75,47.7218,49.418,134.13,104.529,109.562,0.000771444,0.0467545,21.0008,593.687,-0.425361,0.0,0.0
1167,291.5,47.3585,49.168,131.208,104.511,109.752,0.000763055,0.0467515,21.0002,593.667,-0.442646,0.0,0.0
1170,292.25,47.4149,48.9778,130.443,104.513,108.496,0.000774426,0.0467883,20.9998,593.687,-0.338372,0.0,0.0
1173,293,47.4249,49.0784,131.395,104.517,108.425,0.000782715,0.0468222,20.9995,593.597,-0.332064,0.0,0.0
1176,293.75,47.2522,49.5799,130.943,104.492,108.578,0.000875451,0.0468593,20.9992,593.697,-0.346961,0.0,0.0
1179,294.5,47.0332,49.4251,132.933,104.476,108.92,0.000985664,0.0469642,20.999,593.677,-0.376826,0.0,0.0
1182,295.25,47.0463,49.1947,131.01,104.483,108.372,0.00110085,0.0470407,20.9989,593.717,-0.330599,0.0,0.0
1185,296,47.2774,49.4284,128.88,104.466,109.097,0.00121333,0.0471374,20.9988,593.637,-0.39239,0.0,0.0
1188,296.75,47.0503,49.1349,137.512,104.431,108.496,0.0012979,0.0472253,20.9987,593.687,-0.34536,0.0,0.0
1191,297.5,47.4076,49.321,131.611,104.422,109.597,0.00136394,0.0472895,20.9987,593.657,-0.437539,0.0,0.0
1194,298.25,46.6489,49.3516,131.546,104.41,108.976,0.00137036,0.0473225,20.9986,593.667,-0.387177,0.0,0.0
1197,299,47.0081,49.4772,133.656,104.426,109.679,0.00135454,0.047348,20.9986,593.607,-0.443936,0.0,0.0
1200,299.75,47.2804,49.2963,131.678,104.401,108.766,0.00129192,0.0473789,20.9986,593.587,-0.370493,0.0,0.0
1203,300.5,46.4187,49.1176,134.816,104.359,110.25,0.00121891,0.0474151,20.9986,593.557,-0.496767,0.0,0.0
1206,301.25,46.9661,49.5081,132.791,104.353,107.867,0.00113274,0.0474473,20.9986,593.577,-0.299636,0.0,0.0
1209,302,46.8945,49.2719,130.369,104.365,109.014,0.00106608,0.0475097,20.9986,593.627,-0.394226,0.0,0.0
1212,302.75,47.0734,49.3717,127.682,104.358,110.644,0.00101092,0.0475552,20.9986,593.687,-0.529037,0.0,0.0
1215,303.5,47.0404,48.8399,131.409,104.349,109.228,0.000975796,0.0475955,20.9985,593.737,-0.413377,0.0,0.0
1218,304.25,47.105,49.3439,128.867,104.354,109.519,0.000958877,0.0476372,20.9985,593.687,-0.436973,0.0,0.0
1221,305,47.2712,49.4268,133.908,104.365,109.3,0.000974285,0.0476482,20.9987,593.717,-0.417924,0.0,0.0
1224,305.75,46.8107,49.399,130.403,104.371,108.454,0.00100498,0.0476565,20.9989,593.737,-0.347103,0.0,0.0
1227,306.5,47.0779,49.3986,131.096,104.375,109.333,0.00104142,0.0476634,20.999,593.677,-0.419743,0.0,0.0
1230,307.25,47.1237,49.1875,129.68,104.368,108.83,0.00106695,0.0476684,20.9991,593.617,-0.37869,0.0,0.0
1233,308,46.8966,49.5352,132.481,104.384,108.309,0.00109523,0.0476792,20.9989,593.617,-0.333913,0.0,0.0
1236,308.75,47.1522,49.67,128.634,104.389,108.189,0.00110829,0.0476994,20.9984,593.617,-0.323434,0.0,0.0
1239,309.5,46.9199,49.1768,129.911,104.38,108.886,0.00110576,0.0476751,20.9981,593.637,-0.382309,0.0,0.0
1242,310.25,47.1379,49.3782,136.943,104.387,109.083,0.00108324,0.0476555,20.9978,593.587,-0.398002,0.0,0.0
1245,311,47.5784,49.8106,131.872,104.398,108.611,0.00105161,0.0476237,20.9976,593.567,-0.357875,0.0,0.0
1248,311.75,47.3228,49.1977,135.094,104.423,108.787,0.00101761,0.0476784,20.9975,593.547,-0.370366,0.0,0.0
1251,312.5,47.2272,49.0561,129.754,104.438,109.272,0.000977227,0.0477111,20.9976,593.567,-0.409274,0.0,0.0
1254,313.25,47.3899,49.6031,129.918,104.413,108.601,0.000942672,0.0477226,20.9981,593.557,-0.355706,0.0,0.0
1257,314,47.2135,49.1569,134.451,104.436,108.673,0.000908734,0.047731,20.9984,593.577,-0.359665,0.0,0.0
1260,314.75,47.1658,49.0557,134.574,104.441,108.905,0.000863207,0.0477299,20.9987,593.557,-0.378587,0.0,0.0
1263,315.5,46.731,49.1162,132.965,104.447,109.376,0.000830018,0.0477169,20.9989,593.577,-0.417138,0.0,0.0
1266,316.25,47.4598,49.1341,131.4,104.463,108.191,0.00077184,0.0477463,20.9989,593.547,-0.31722,0.0,0.0
1269,317,47.686,49.2011,134.064,104.47,108.656,0.000714942,0.0477534,20.9986,593.527,-0.355416,0.0,0.0
1272,317.75,47.2812,49.6443,132.99,104.474,108.205,0.000661333,0.047734,20.9984,593.547,-0.317364,0.0,0.0
1275,318.5,47.1596,49.9609,131.767,104.497,108.188,0.000624104,0.0477198,20.9983,593.557,-0.313986,0.0,0.0
1278,319.25,47.4156,49.0824,134.24,104.502,108.878,0.000608972,0.0477679,20.9982,593.507,-0.371109,0.0,0.0
1281,320,47.3092,49.1233,132.587,104.491,108.845,0.000648145,0.047803,20.9981,593.507,-0.369202,0.0,0.0
1284,320.75,47.1073,49.5021,134.88,104.5,109.386,0.000713149,0.0478286,20.998,593.507,-0.413299,0.0,0.0
1287,321.5,47.0166,49.2703,131.575,104.495,108.727,,0.0478472,,593.557,-0.359073,0.0,0.0
1290,322.25,46.6528,49.2829,130.427,104.508,108.875,,0.0478745,,593.557,-0.37029,0.0,0.0
1293,323,47.2857,49.4915,130.724,104.503,109.677,,0.0479073,,593.537,-0.437159,0.0,0.0
1296,323.75,46.9455,49.2306,129.796,104.515,109.711,,0.0479436,,593.527,-0.438826,0.0,0.0
1299,324.5,47.43,49.0611,134.461,104.513,109.687,,,,593.547,-0.437086,0.0,0.0
1302,325.25,47.3063,49.2822,131.597,104.505,109.505,,,,593.577,-0.422754,0.0,0.0
1305,326,46.8897,48.5038,127.377,104.507,108.256,,,,593.587,-0.318791,0.0,0.0
1308,326.75,46.6649,49.884,129.44,104.52,110.255,,,,593.657,-0.483241,0.0,0.0
1311,327.5,47.3748,49.2451,126.823,104.524,107.974,,,,593.637,-0.293714,0.0,0.0
1314,328.25,46.9927,48.8175,129.434,104.519,108.779,,,,593.597,-0.361364,0.0,0.0
1317,329,47.0941,49.1533,130.082,104.536,110.084,,,,593.597,-0.467816,0.0,0.0
1320,329.75,47.5224,49.4918,130.291,104.545,108.761,,,,593.567,-0.357588,0.0,0.0
1323,330.5,46.7841,49.7078,133.065,104.553,109.857,,,,593.537,-0.447584,0.0,0.0
1326,331.25,47.3426,49.3391,132.035,104.541,108.864,,,,593.477,-0.366547,0.0,0.0
1329,332,47.0598,49.6801,134.017,104.543,108.458,,,,593.507,-0.332593,0.0,0.0