File: 01_Data/Polyester_Bed_Skirt/Cone/Polyester_Bed_Skirt_Cone_HF25Scan_220523_R1.csv
Names,Time,Stack TC,Smoke TC,Exh Press,Smoke Comp,Smoke Meas,CO Meter,CO2 Meter,O2 Meter,Sample Mass,Ext Coeff,Start Test,Flame Verif
Chan Gain,,500,500,1,1,1,1,1,1,1,1,1.0,1.0
Offset,,0,0,0.135828,0,0,0,0,0,0,0,0.0,0.0
Gain,,1,1,25.011,13.8491,15.2622,1,1,1,1.00087,1.03118,1.0,1.0
Units,sec,C,C,Pa,%,%,%,%,%,g,/m,,
Baseline,,34.1216,35.0019,135.52,104.565,111.707,0.000204817,0.0460522,20.9923,-451.211,-0.597626,,
5,1,28.1772,29.1912,133.779,104.46,111.928,0.000143913,0.0482992,20.9902,612.663,-0.624588,0.0,0.0
10,2.25,28.0239,28.6723,138.402,104.515,111.787,0.00015979,0.0482541,20.9902,612.623,-0.608494,0.0,0.0
15,3.5,28.5437,29.615,137.917,104.565,111.328,0.000197134,0.0482864,20.9904,612.653,-0.566867,0.0,0.0
20,4.75,28.3364,29.5186,136.233,104.613,111.419,0.000246893,0.0482465,20.9914,612.623,-0.570115,0.0,0.0
25,6,28.5115,29.4903,132.134,104.655,111.876,0.000302709,0.0481439,20.9924,612.613,-0.60348,0.0,0.0
30,7.25,28.2985,29.6477,135.965,104.718,111.618,0.000357146,0.0479688,20.9929,612.603,-0.577187,0.0,0.0
35,8.5,28.2804,29.2093,135.722,104.777,112.151,0.000399165,0.0477277,20.9932,612.603,-0.615193,0.0,0.0
40,9.75,28.4148,29.1935,133.751,104.806,112.202,0.000427987,0.047444,20.9934,612.593,-0.61677,0.0,0.0
45,11,28.5436,29.9261,139.168,104.873,111.613,0.000426139,0.0472765,20.9935,612.623,-0.563385,0.0,0.0
50,12.25,29.0531,29.804,135.048,104.941,111.625,0.000386367,0.04709,20.9936,612.633,-0.558535,0.0,0.0
55,13.5,28.6585,29.525,134.775,105.002,111.539,0.000322457,0.0468766,20.9938,612.633,-0.54627,0.0,0.0
60,14.75,29.0991,29.5892,134.688,105.057,111.748,0.00024997,0.0466925,20.9941,612.613,-0.55848,0.0,0.0
65,16,28.4218,29.4203,133.822,105.132,112.04,0.000202307,0.0465302,20.9943,612.603,-0.575688,0.0,0.0
70,17.25,28.779,29.6044,134.412,105.189,111.634,0.000199279,0.0464929,20.9944,612.613,-0.537932,0.0,0.0
75,18.5,28.7132,29.7722,136.291,105.26,112.088,0.00020353,0.04656,20.9944,612.673,-0.568512,0.0,0.0
80,19.75,28.3553,29.903,137.781,105.32,111.32,0.000185067,0.0466091,20.9945,612.593,-0.501162,0.0,0.0
85,21,28.7981,29.8313,134.019,105.39,111.795,0.000143109,0.0465887,20.9943,612.523,-0.533695,0.0,0.0
90,22.25,28.9688,30.4585,138.743,105.464,112.346,8.60202e-05,0.0466261,20.9934,612.603,-0.571785,0.0,0.0
95,23.5,29.1566,29.3811,136.055,105.515,112.062,2.42781e-05,0.0466115,20.9929,612.563,-0.544532,0.0,0.0
100,24.75,28.9371,29.5834,139.019,105.564,112.554,-2.88628e-05,0.0464715,20.9926,612.633,-0.579982,0.0,0.0
105,26,28.4551,30.1634,136.323,105.627,113.049,-7.01347e-05,0.0462491,20.9925,612.603,-0.614216,0.0,0.0
110,27.25,29.1304,29.8222,135.557,105.678,111.757,-0.000110579,0.046063,20.9935,612.603,-0.505973,0.0,0.0
115,28.5,28.5764,29.8722,134.932,105.724,113.38,-0.000113018,0.0459261,20.9941,612.573,-0.632391,0.0,0.0
120,29.75,28.8857,29.6625,137.999,105.761,113.009,-9.59644e-05,0.0457957,20.9945,612.583,-0.599583,0.0,0.0
125,31,28.9357,29.6684,134.946,105.815,112.982,-7.47152e-05,0.0457417,20.9947,612.583,-0.59283,0.0,0.0
130,32.25,28.9248,29.8608,135.909,105.847,112.709,-4.46534e-05,0.0457535,20.9948,612.583,-0.568133,0.0,0.0
135,33.5,29.0392,29.9009,133.942,105.862,112.59,5.12218e-06,0.045676,20.9957,612.613,-0.557405,0.0,0.0
140,34.75,29.1661,29.5575,135.604,105.896,112.825,4.8253e-05,0.045626,20.9963,612.603,-0.573283,0.0,0.0
145,36,28.7422,29.6345,136.611,105.924,112.948,6.7807e-05,0.0456974,20.9967,612.603,-0.580792,0.0,0.0
150,37.25,28.9114,30.2978,135.511,105.949,112.473,7.41355e-05,0.0456958,20.9962,612.563,-0.540572,0.0,0.0
155,38.5,28.9079,29.9001,136.524,105.927,112.985,8.89429e-05,0.0456354,20.9957,612.553,-0.583448,0.0,0.0
160,39.75,28.8849,29.6101,135.856,105.936,113.29,0.00010329,0.0456219,20.9954,612.553,-0.607082,0.0,0.0
165,41,28.9911,29.5312,139.621,105.947,111.927,0.000112503,0.0456068,20.9957,612.563,-0.496634,0.0,0.0
170,42.25,28.61,29.5068,136.853,105.931,112.533,0.000105227,0.0455483,20.9963,612.533,-0.546881,0.0,0.0
175,43.5,29.2423,29.8036,135.071,105.904,111.943,9.02118e-05,0.0454434,20.9967,612.603,-0.501595,0.0,0.0
180,44.75,28.9833,29.6934,134.831,105.901,112.745,8.55644e-05,0.0453862,20.9969,612.593,-0.566499,0.0,0.0
185,46,29.4073,29.3254,138.115,105.878,113.222,0.000117901,0.0453571,20.9971,612.583,-0.606596,0.0,0.0
190,47.25,28.8095,29.8443,130.603,105.838,112.475,0.000194811,0.0453647,20.9972,612.583,-0.550179,0.0,0.0
195,48.5,28.8457,29.9016,137.622,105.818,112.615,0.000271807,0.0452998,20.9972,612.543,-0.563145,0.0,0.0
200,49.75,28.8701,29.7106,132.207,105.775,112.425,0.000322459,0.045272,20.997,612.543,-0.551555,0.0,0.0
205,51,28.7035,29.7519,136.755,105.75,112.437,0.000341688,0.0452603,20.9966,612.543,-0.554626,0.0,0.0
210,52.25,28.8367,29.5771,136.749,105.699,113.111,0.000316908,0.0452923,20.9963,612.573,-0.613058,0.0,0.0
215,53.5,28.9159,29.4742,136.313,105.664,111.429,0.000287294,0.04537,20.9956,612.533,-0.480477,0.0,0.0
220,54.75,28.5018,29.511,134.969,105.624,112.376,0.000282023,0.045358,20.9948,612.523,-0.560495,0.0,0.0
225,56,28.9609,29.7346,137.181,105.587,112.695,0.0002991,0.0453358,20.9943,612.563,-0.589325,0.0,0.0
230,57.25,28.6981,29.7208,134.247,105.53,111.598,0.000315105,0.0453346,20.9941,612.563,-0.505668,0.0,0.0
235,58.5,28.7982,29.9254,135.843,105.53,112.233,0.000310861,0.0453489,20.9939,612.513,-0.557052,0.0,0.0
240,59.75,28.7815,29.9011,133.833,105.498,111.834,0.000308805,0.0453208,20.9938,612.553,-0.527541,0.0,0.0
245,61,28.8099,29.5443,137.4,105.444,111.614,0.000305208,0.0452812,20.9938,612.523,-0.51442,0.0,0.0
250,62.25,28.1598,29.7913,137.285,105.399,111.56,0.000267552,0.0453928,20.9937,612.513,-0.513809,0.0,0.0
255,63.5,28.4035,29.745,133.811,105.367,112.192,0.000212951,0.0454966,20.9937,612.503,-0.567705,0.0,0.0
260,64.75,28.9083,29.6533,137.7,105.358,112.273,0.000158806,0.0454716,20.9937,612.533,-0.574999,0.0,0.0
265,66,28.8831,29.8708,136.913,105.317,111.732,9.65051e-05,0.0454123,20.9937,612.533,-0.534848,0.0,0.0
270,67.25,29.0178,29.9811,135.47,105.297,112.126,1.82324e-05,0.0454713,20.9934,612.533,-0.568398,0.0,0.0
275,68.5,29.4829,29.9303,135.897,105.276,112.498,-7.51803e-05,0.0457015,20.9931,612.553,-0.600222,0.0,0.0
280,69.75,28.6188,29.8827,134.347,105.249,111.791,-0.000162643,0.0459828,20.993,612.573,-0.545407,0.0,0.0
285,71,29.4462,29.3946,137.241,105.226,112.264,-0.000238308,0.0462953,20.9929,612.573,-0.585614,0.0,0.0
290,72.25,28.6303,30.2975,135.805,105.228,111.3,-0.000296779,0.0466098,20.9929,612.543,-0.507414,0.0,0.0
295,73.5,29.1492,29.6377,135.523,105.203,111.93,-0.000309997,0.0468428,20.9926,612.533,-0.560666,0.0,0.0
300,74.75,28.8899,30.1778,135.136,105.184,111.007,-0.000272835,0.0469803,20.9923,612.533,-0.487387,0.0,0.0
305,76,29.287,29.7421,138.877,105.161,111.461,-0.000225446,0.0472009,20.9922,612.533,-0.526242,0.0,0.0
310,77.25,29.319,30.1094,134.056,105.146,112.059,-0.000134689,0.0474797,20.9921,612.533,-0.575993,0.0,0.0
315,78.5,28.9552,30.1809,135.39,105.138,111.381,-5.06044e-05,0.0478949,20.9921,612.563,-0.52174,0.0,0.0
320,79.75,29.4681,29.6016,134.303,105.139,110.969,2.96996e-05,0.048359,20.9918,612.573,-0.488168,0.0,0.0
325,81,29.3975,29.8479,137.635,105.104,110.974,8.83063e-05,0.048988,20.991,612.553,-0.491602,0.0,0.0
330,82.25,29.3761,29.8888,135.733,105.113,111.278,0.000116339,0.0494268,20.9904,612.553,-0.515558,0.0,0.0
335,83.5,29.3613,29.9786,134.655,105.1,111.516,0.000114651,0.0496954,20.9893,612.543,-0.535975,0.0,0.0
340,84.75,29.2525,30.1321,135.19,105.078,111.059,0.000117597,0.0499403,20.9885,612.503,-0.500728,0.0,0.0
345,86,29.6263,29.7598,134.557,105.089,111.764,0.000153255,0.0502079,20.9889,612.523,-0.557035,0.0,0.0
350,87.25,28.7955,29.8243,136.952,105.102,111.942,0.000162685,0.0504691,20.9884,612.503,-0.570332,0.0,0.0
355,88.5,29.8288,30.2671,140.619,105.078,112.107,0.000137528,0.050499,20.9893,612.533,-0.585757,0.0,0.0
360,89.75,28.6907,29.7998,136.225,105.042,111.201,0.000104913,0.0503554,20.9898,612.503,-0.515422,0.0,0.0
365,91,29.1575,29.7825,133.443,105.058,112.069,7.86287e-05,0.0500477,20.9907,612.573,-0.584311,0.0,0.0
370,92.25,29.258,30.2211,135.158,105.046,111.072,6.57237e-05,0.0496702,20.9916,612.533,-0.50452,0.0,0.0
375,93.5,29.3792,30.2376,136.954,105.034,111.349,7.3008e-05,0.0492511,20.9921,612.473,-0.528115,0.0,0.0
380,94.75,29.5566,29.5005,137.612,105.02,111.415,8.76398e-05,0.0487856,20.9929,612.503,-0.534688,0.0,0.0
385,96,29.5381,29.9947,137.819,105.051,111.735,9.84716e-05,0.048433,20.9928,612.533,-0.557898,0.0,0.0
390,97.25,29.3839,30.3575,136.026,105.064,111.38,0.000131704,0.0480977,20.9922,612.523,-0.528103,0.0,0.0
395,98.5,29.5187,30.3105,133.807,105.07,111.807,0.000198129,0.0478996,20.9916,612.463,-0.562104,0.0,0.0
400,99.75,29.5314,29.8089,133.205,105.084,110.703,0.000292202,0.0479804,20.9903,612.533,-0.471226,0.0,0.0
405,101,28.4812,30.1153,136.084,105.132,111.137,0.000383761,0.04846,20.9894,612.533,-0.502406,0.0,0.0
410,102.25,29.589,30.2108,134.019,105.143,111.179,0.000408551,0.0495254,20.9868,612.503,-0.504908,0.0,0.0
415,103.5,29.757,29.9936,136.475,105.13,111.845,0.000386238,0.050921,20.9845,612.513,-0.560065,0.0,0.0
420,104.75,29.879,30.0852,137.216,105.157,111.953,0.000345897,0.0524402,20.9832,612.513,-0.566434,0.0,0.0
425,106,29.8391,30.1166,134.458,105.194,111.923,0.000301034,0.0536093,20.9824,612.513,-0.560863,0.0,0.0
430,107.25,29.7128,30.903,136.447,105.201,111.358,0.000244268,0.0544727,20.9819,612.513,-0.514543,0.0,0.0
435,108.5,29.6885,30.4921,135.788,105.208,111.291,0.000208952,0.0551006,20.981,612.533,-0.508438,0.0,0.0
440,109.75,29.5489,30.3678,139.286,105.238,111.553,0.000217639,0.0555308,20.981,612.523,-0.52711,0.0,0.0
445,111,29.0269,30.3193,133.975,105.248,111.446,0.000261929,0.0558445,20.9811,612.493,-0.517658,0.0,0.0
450,112.25,29.7516,30.3871,137.633,105.264,111.603,0.000306365,0.0559506,20.9802,612.473,-0.528898,0.0,0.0
455,113.5,30.3387,30.2947,133.553,105.259,111.927,0.000286483,0.0557771,20.9797,612.463,-0.55557,0.0,0.0
460,114.75,29.0981,30.2721,137.4,105.277,111.267,0.000226996,0.0554766,20.9794,612.483,-0.500512,0.0,0.0
465,116,29.7638,30.3506,135.191,105.308,112.01,0.000151912,0.0550781,20.9796,612.523,-0.558093,0.0,0.0
470,117.25,30.0594,30.4961,132.97,105.304,112.237,8.69284e-05,0.054519,20.9805,612.523,-0.576718,0.0,0.0
475,118.5,30.0221,30.4739,137.274,105.313,111.869,5.00261e-05,0.0538709,20.9822,612.493,-0.546289,0.0,0.0
480,119.75,29.4044,30.7676,136.391,105.319,112.005,2.85269e-05,0.0532424,20.9844,612.483,-0.556808,0.0,0.0
485,121,29.1994,30.0837,137.442,105.314,111.67,9.10255e-06,0.0526835,20.986,612.503,-0.530086,0.0,0.0
490,122.25,29.5249,30.8561,133.012,105.307,111.504,3.27552e-05,0.0519334,20.9871,612.503,-0.517223,0.0,0.0
495,123.5,29.7359,30.2772,135.881,105.313,111.309,0.000105353,0.051129,20.9885,612.493,-0.500872,0.0,0.0
500,124.75,29.5744,30.5661,133.329,105.313,111.405,0.000208422,0.0505024,20.9894,612.493,-0.508739,0.0,0.0
505,126,29.6622,30.4932,135.659,105.315,111.746,0.000337333,0.0501241,20.9899,612.473,-0.536161,0.0,0.0
510,127.25,29.4355,30.6502,135.332,105.295,111.542,0.000447987,0.0499948,20.9901,612.463,-0.521301,0.0,0.0
515,128.5,29.8247,30.1886,138.343,105.298,112.372,0.000571384,0.0500068,20.9903,612.473,-0.588143,0.0,0.0
520,129.75,29.2952,30.5343,133.541,105.311,112.213,0.000625072,0.0501164,20.9904,612.473,-0.574223,0.0,0.0
525,131,30.1127,30.7251,134.997,105.299,112.036,0.000611206,0.0504182,20.9905,612.503,-0.560961,0.0,0.0
530,132.25,30.0194,30.8487,133.248,105.281,111.789,0.000543842,0.050753,20.9896,612.473,-0.542534,0.0,0.0
535,133.5,29.5327,30.5518,136.284,105.3,111.829,0.000445722,0.0510285,20.989,612.453,-0.54414,0.0,0.0
540,134.75,30.0118,29.8207,136.249,105.306,111.543,0.000306811,0.0511228,20.9887,612.463,-0.520507,0.0,0.0
545,136,29.6188,29.5505,136.319,105.3,111.486,0.000178916,0.0510175,20.9885,612.493,-0.516405,0.0,0.0
550,137.25,29.5429,30.524,139.376,105.303,111.143,8.59119e-05,0.0507922,20.9884,612.473,-0.488183,0.0,0.0
555,138.5,30.4378,30.506,134.754,105.308,112.228,6.39657e-05,0.0504982,20.9883,612.453,-0.575716,0.0,0.0
560,139.75,30.1263,30.8722,135.864,105.319,111.414,0.000113608,0.0500739,20.9891,612.453,-0.508911,0.0,0.0
565,141,29.9382,30.96,137.066,105.317,112.527,0.000161447,0.0496201,20.9901,612.463,-0.598984,0.0,0.0
570,142.25,30.0329,30.7773,136.291,105.319,112.131,0.000248306,0.0491812,20.9907,612.463,-0.566921,0.0,0.0
575,143.5,29.9942,30.4809,133.234,105.319,112.216,0.000302332,0.0487971,20.991,612.443,-0.573758,0.0,0.0
580,144.75,29.6712,30.6068,133.826,105.339,111.9,0.000332834,0.0484235,20.9911,612.443,-0.546562,0.0,0.0
585,146,29.4812,30.758,135.621,105.338,112.007,0.000359619,0.0480199,20.9917,612.463,-0.555253,0.0,0.0
590,147.25,29.6349,30.387,132.606,105.342,112.231,0.000382335,0.0477148,20.9925,612.463,-0.572963,0.0,0.0
595,148.5,29.7629,30.5741,134.758,105.343,111.974,0.000362847,0.0475494,20.993,612.463,-0.552219,0.0,0.0
600,149.75,30.2535,30.4005,137.688,105.337,111.567,0.000282417,0.0473545,20.9933,612.453,-0.519783,0.0,0.0
605,151,29.706,30.5976,138.357,105.348,111.823,0.000179363,0.047106,20.9937,612.453,-0.539584,0.0,0.0
610,152.25,30.1055,30.5028,134.045,105.355,112.559,0.00012985,0.0469884,20.994,612.463,-0.598227,0.0,0.0
615,153.5,30.3143,30.8585,138.289,105.363,111.278,0.000126346,0.0469682,20.9942,612.463,-0.494053,0.0,0.0
620,154.75,30.2533,31.0536,137.464,105.364,112.141,0.000122047,0.0468701,20.9943,612.463,-0.563865,0.0,0.0
625,156,30.469,30.9071,137.384,105.363,112.364,8.0196e-05,0.0467144,20.9944,612.433,-0.581953,0.0,0.0
630,157.25,29.7995,30.841,136.311,105.366,112.379,1.70054e-05,0.0465627,20.9945,612.413,-0.582824,0.0,0.0
635,158.5,29.9065,30.9722,135.872,105.38,112.625,-1.92709e-05,0.0464048,20.9945,612.443,-0.601436,0.0,0.0
640,159.75,29.5235,30.926,135.952,105.368,111.313,-5.50917e-06,0.0462622,20.9945,612.433,-0.496493,0.0,0.0
645,161,30.0416,30.5798,136.484,105.374,112.326,2.82365e-05,0.0460803,20.9945,612.463,-0.577896,0.0,0.0
650,162.25,30.0142,30.5312,135.483,105.391,111.59,7.94641e-05,0.0459865,20.9945,612.423,-0.516988,0.0,0.0
655,163.5,30.6036,30.449,136.914,105.396,111.845,0.000133199,0.0459469,20.9945,612.443,-0.537146,0.0,0.0
660,164.75,29.7095,31.0209,133.988,105.393,112.093,0.000167119,0.0458948,20.9946,612.483,-0.557529,0.0,0.0
665,166,29.7918,30.6636,132.347,105.415,112.012,0.000156255,0.0457535,20.9948,612.443,-0.549062,0.0,0.0
670,167.25,30.0171,30.8691,132.114,105.422,112.315,8.6737e-05,0.0456035,20.9948,612.443,-0.572825,0.0,0.0
675,168.5,30.0219,31.1981,137.939,105.428,112.15,2.79543e-05,0.0454783,20.9949,612.423,-0.559065,0.0,0.0
680,169.75,29.5601,31.105,132.456,105.419,112.981,-2.42471e-05,0.0453749,20.9949,612.443,-0.626671,0.0,0.0
685,171,29.8581,30.642,136.704,105.438,112.012,-7.07727e-05,0.0452917,20.9956,612.423,-0.547106,0.0,0.0
690,172.25,30.3129,31.2055,132.648,105.44,111.902,-0.000101738,0.045221,20.9963,612.473,-0.538044,0.0,0.0
695,173.5,29.8995,31.0622,135.352,105.441,112.795,-0.000111181,0.0450853,20.9967,612.483,-0.609857,0.0,0.0
700,174.75,29.5412,30.5981,137.876,105.442,111.55,-0.000104595,0.0449736,20.9969,612.453,-0.509317,0.0,0.0
705,176,30.2239,31.3272,139.971,105.448,111.975,-0.000113586,0.0448493,20.9971,612.443,-0.543188,0.0,0.0
710,177.25,30.1311,30.8829,129.082,105.461,111.544,-0.000140632,0.0447214,20.9972,612.423,-0.507232,0.0,0.0
715,178.5,29.9107,30.9279,137.088,105.45,112.43,-0.000167107,0.0447153,20.9972,612.423,-0.579802,0.0,0.0
720,179.75,29.6531,31.1055,133.062,105.463,111.202,-0.000175669,0.0447751,20.9972,612.433,-0.47932,0.0,0.0
725,181,29.9313,30.7136,136.314,105.461,111.438,-0.00016415,0.0448693,20.9973,612.403,-0.498653,0.0,0.0
730,182.25,30.2108,30.9246,135.924,105.464,112.156,-0.000151322,0.0455413,20.9964,612.423,-0.556435,0.0,0.0
735,183.5,29.9844,30.4165,136.266,105.485,111.623,-0.000151529,0.0464757,20.9956,612.443,-0.511621,0.0,0.0
740,184.75,29.78,30.8805,137.065,105.472,112.256,-0.000123196,0.0474646,20.995,612.433,-0.563893,0.0,0.0
745,186,30.2729,30.7852,134.264,105.47,112.303,-7.19364e-05,0.0480122,20.9946,612.443,-0.567828,0.0,0.0
750,187.25,30.1038,31.2876,135.659,105.461,111.768,-3.03651e-05,0.0483629,20.9944,612.443,-0.525382,0.0,0.0
755,188.5,30.0481,30.6302,135.574,105.462,112.451,-2.18539e-05,0.0484572,20.9945,612.433,-0.5804,0.0,0.0
760,189.75,30.2506,30.4143,134.951,105.466,112.344,-3.7804e-05,0.0481621,20.9947,612.413,-0.571527,0.0,0.0
765,191,30.0995,30.4421,137.302,105.476,112.453,-7.25239e-05,0.0477994,20.9948,612.403,-0.579392,0.0,0.0
770,192.25,31.0263,31.8813,132.793,105.468,112.763,-0.000109395,0.0472913,20.9949,612.413,-0.60496,0.0,0.0
775,193.5,30.7667,32.108,134.057,105.47,112.236,-0.000143958,0.0469021,20.9962,612.403,-0.562424,0.0,0.0
780,194.75,30.3285,30.471,133.589,105.477,111.9,-0.000145919,0.0466245,20.997,612.433,-0.534664,0.0,0.0
785,196,30.2506,30.6568,136.616,105.485,111.89,-0.00010682,0.0463425,20.9975,612.453,-0.533258,0.0,0.0
790,197.25,30.3486,31.5636,137.729,105.467,111.776,-2.4609e-05,0.0459512,20.9977,612.443,-0.525514,0.0,0.0
795,198.5,30.0424,30.2956,137.077,105.474,111.527,9.16883e-05,0.0458235,20.9979,612.413,-0.504821,0.0,0.0
800,199.75,29.8546,31.0867,136.125,105.479,112.26,0.000214822,0.0456892,20.998,612.393,-0.56354,0.0,0.0
805,201,29.8165,30.9684,137.958,105.481,112.289,0.000308866,0.0455518,20.9983,612.293,-0.565796,0.0,0.0
810,202.25,29.8154,30.6189,132.263,105.467,112.766,0.000342806,0.0454277,20.9992,612.413,-0.605332,0.0,0.0
815,203.5,30.1075,31.0183,137.998,105.474,111.774,0.000328894,0.0454463,20.9997,612.463,-0.524747,0.0,0.0
820,204.75,29.7959,30.5569,140.184,105.476,111.19,0.000317838,0.0457456,21,612.393,-0.477174,0.0,0.0
825,206,29.8501,30.9081,132.95,105.477,112.119,0.00033985,0.0465648,20.999,612.393,-0.55238,0.0,0.0
830,207.25,30.0469,31.0017,133.657,105.467,111.823,0.000388683,0.0479377,20.9973,612.393,-0.529357,0.0,0.0
835,208.5,29.9223,31.2044,136.868,105.498,112.332,0.000434532,0.0495629,20.9957,612.403,-0.567724,0.0,0.0
840,209.75,30.4053,31.1659,135.423,105.477,112.525,0.000463007,0.0509815,20.9948,612.413,-0.585014,0.0,0.0
845,211,29.6235,31.0332,134.689,105.468,111.764,0.000446903,0.0517594,20.9936,612.383,-0.524462,0.0,0.0
850,212.25,30.0801,30.5409,135.964,105.466,111.113,0.000410217,0.0519324,20.992,612.393,-0.47179,0.0,0.0
855,213.5,30.1274,30.9291,133.837,105.478,112.371,0.000389769,0.0518134,20.991,612.393,-0.572651,0.0,0.0
860,214.75,30.1633,31.0119,133.734,105.473,112.851,0.000390178,0.051075,20.9914,612.393,-0.611621,0.0,0.0
865,216,29.7834,31.3928,136.307,105.458,111.734,0.000386334,0.0499836,20.9917,612.413,-0.522846,0.0,0.0
870,217.25,29.4237,30.7064,132.794,105.458,112.035,0.000368136,0.0490218,20.9918,612.413,-0.547245,0.0,0.0
875,218.5,30.5891,31.2103,139.473,105.461,111.826,0.000311595,0.0481617,20.9919,612.433,-0.530055,0.0,0.0
880,219.75,29.5923,30.9626,135.817,105.475,111.999,0.000231325,0.0473869,20.9919,612.393,-0.542825,0.0,0.0
885,221,30.4674,31.116,139.103,105.439,111.895,0.00012909,0.0467759,20.9926,612.413,-0.537588,0.0,0.0
890,222.25,30.0043,31.0652,135.178,105.441,111.591,3.47159e-05,0.0463252,20.9933,612.373,-0.512748,0.0,0.0
895,223.5,30.5194,31.4498,136.803,105.42,111.316,-1.05846e-05,0.045932,20.9937,612.363,-0.492333,0.0,0.0
900,224.75,29.4536,30.6438,136.797,105.405,112.024,-6.68392e-06,0.0456253,20.994,612.373,-0.550874,0.0,0.0
905,226,29.7615,31.5299,134.21,105.39,112.201,3.65637e-06,0.0453807,20.9941,612.373,-0.566462,0.0,0.0
910,227.25,30.0593,30.7186,133.495,105.386,112.264,-8.58473e-06,0.0451375,20.9942,612.363,-0.571854,0.0,0.0
915,228.5,30.3473,31.1352,133.292,105.375,111.54,-4.32219e-05,0.0449504,20.9942,612.383,-0.51429,0.0,0.0
920,229.75,30.5987,30.9002,134.243,105.345,111.651,-6.96778e-05,0.0448105,20.9943,612.373,-0.525851,0.0,0.0
925,231,30.1038,30.8434,135.733,105.331,112.169,-6.57214e-05,0.0447641,20.9943,612.363,-0.568949,0.0,0.0
930,232.25,30.2337,30.9687,134.096,105.324,111.186,-3.69212e-05,0.0447451,20.9943,612.373,-0.489929,0.0,0.0
935,233.5,30.6094,30.967,137.616,105.302,112.178,-1.38412e-05,0.044675,20.9945,612.353,-0.572205,0.0,0.0
940,234.75,29.7586,30.9923,132.876,105.262,112.323,8.94957e-06,0.0446332,20.9953,612.353,-0.587292,0.0,0.0
945,236,30.2397,30.9777,132.86,105.237,111.636,1.7837e-05,0.0446867,20.9955,612.363,-0.534013,0.0,0.0
950,237.25,30.2036,31.2931,137.47,105.226,111.64,-8.05425e-06,0.0447963,20.9956,612.353,-0.535149,0.0,0.0
955,238.5,30.253,31.2985,136.136,105.192,112.287,-7.70904e-05,0.0448407,20.9957,612.343,-0.590359,0.0,0.0
960,239.75,30.1636,30.9108,135.902,105.157,112.282,-0.000176234,0.0448958,20.9957,612.363,-0.592964,0.0,0.0
965,241,30.1892,31.3316,132.775,105.136,111.299,-0.000268582,0.0449094,20.9949,612.353,-0.515225,0.0,0.0
970,242.25,30.3775,31.0397,134.048,105.106,112.512,-0.000316617,0.0448585,20.9943,612.353,-0.615882,0.0,0.0
975,243.5,30.6232,31.0005,133.511,105.085,111.435,-0.000311049,0.0447721,20.994,612.363,-0.530709,0.0,0.0
980,244.75,30.0992,31.5568,134.49,105.07,111.815,-0.000282721,0.0446988,20.9938,612.393,-0.562816,0.0,0.0
985,246,30.3424,30.7849,136.784,105.07,111.342,-0.000214608,0.0446361,20.994,612.413,-0.524381,0.0,0.0
990,247.25,30.3914,30.8551,132.28,105.062,111.117,-0.000139713,0.0445307,20.9951,612.423,-0.506777,0.0,0.0
995,248.5,30.4234,31.3885,137.088,105.065,111.534,-7.39593e-05,0.0444804,20.9957,612.423,-0.540469,0.0,0.0
1000,249.75,30.7453,31.5133,133.288,105.052,111.447,-4.53219e-05,0.0444716,20.9961,612.413,-0.534529,0.0,0.0
1005,251,30.479,31.5591,136.514,105.042,111.433,-4.22043e-05,0.0445127,20.9963,612.423,-0.534268,0.0,0.0
1010,252.25,30.5367,30.9974,135.781,105.044,111.424,-4.63956e-05,0.044587,20.9964,612.403,-0.533294,0.0,0.0
1015,253.5,30.7205,30.7629,135.865,105.037,111.275,-1.14696e-05,0.0446128,20.9963,612.403,-0.521881,0.0,0.0
1020,254.75,30.3724,31.3041,136.313,105.043,111.81,4.1133e-05,0.044709,20.9955,612.393,-0.564732,0.0,0.0
1025,256,30.1045,31.0911,133.189,105.073,111.776,7.92525e-05,0.0448239,20.995,612.403,-0.559359,0.0,0.0
1030,257.25,30.3226,31.5664,131.946,105.041,111.191,0.00013632,0.0449269,20.9954,612.403,-0.514624,0.0,0.0
1035,258.5,30.1303,31.0123,136.886,105.029,110.78,0.000171992,0.0449834,20.9958,612.393,-0.482234,0.0,0.0
1040,259.75,30.1496,30.9513,137.016,105.045,112.127,0.00019949,0.0450154,20.996,612.383,-0.5901,0.0,0.0
1045,261,30.1425,30.5199,134.787,105.058,111.769,0.000240891,0.0451604,20.9961,612.433,-0.560142,0.0,0.0
1050,262.25,30.2681,30.8061,134.307,105.064,110.444,0.000291104,0.0452095,20.9962,612.383,-0.451641,0.0,0.0
1055,263.5,30.4081,31.0521,132.855,105.07,110.791,0.000328248,0.0452213,20.9962,612.373,-0.479616,0.0,0.0
1060,264.75,30.1584,31.4766,132.628,105.104,111.152,0.000329705,0.0452598,20.9962,612.353,-0.506093,0.0,0.0
1065,266,30.3264,31.4944,134.949,105.131,112.063,0.000286942,0.0452578,20.9963,612.373,-0.577528,0.0,0.0
1070,267.25,30.1699,31.0958,133.59,105.132,111.696,0.000237053,0.0451049,20.9963,612.373,-0.54782,0.0,0.0
1075,268.5,30.3546,31.7378,137.119,105.163,111.42,0.000170794,0.0450146,20.9963,612.353,-0.522807,0.0,0.0
1080,269.75,29.8745,31.0552,135.184,105.204,111.89,5.72152e-05,0.0450789,20.9963,612.333,-0.557281,0.0,0.0
1085,271,29.8701,31.1266,134.517,105.221,111.736,-4.33028e-05,0.0450933,20.9963,612.333,-0.543356,0.0,0.0
1090,272.25,29.5929,31.413,134.706,105.239,110.87,-6.13305e-05,0.045139,20.9963,612.363,-0.471426,0.0,0.0
1095,273.5,30.0488,31.5624,135.352,105.269,111.216,1.44592e-05,0.0451429,20.9963,612.383,-0.497148,0.0,0.0
1100,274.75,30.2512,31.1695,135.147,105.284,111.066,0.000126139,0.0451642,20.9963,612.373,-0.483598,0.0,0.0
1105,276,30.6511,31.2434,133.054,105.304,110.744,0.000199278,0.045255,20.9963,612.363,-0.455679,0.0,0.0
1110,277.25,31.0365,30.7578,133.753,105.317,110.89,0.000243044,0.0453632,20.9963,612.373,-0.466416,0.0,0.0
1115,278.5,29.9929,31.0993,136.676,105.351,111.93,0.000276781,0.0454468,20.9963,612.393,-0.547993,0.0,0.0
1120,279.75,30.4048,31.4155,140.866,105.373,111.366,0.000323369,0.0454446,20.9963,612.403,-0.500408,0.0,0.0
1125,281,30.6059,31.0392,137.442,105.374,111.684,0.000400712,0.045421,20.9963,612.363,-0.526101,0.0,0.0
1130,282.25,29.8637,31.3565,135.629,105.39,111.416,0.000456107,0.0454071,20.9963,612.383,-0.502968,0.0,0.0
1135,283.5,29.9794,31.2341,135.615,105.391,111.589,0.000464139,0.0453989,20.9963,612.373,-0.516915,0.0,0.0
1140,284.75,29.9878,31.5742,137.552,105.439,112.043,0.000441857,0.0454435,20.9963,612.363,-0.549553,0.0,0.0
1145,286,30.0851,31.0914,135.642,105.416,111.566,0.000417746,0.0455674,20.9963,612.333,-0.512924,0.0,0.0
1150,287.25,30.5232,31.4685,134.295,105.433,111.665,0.000392423,0.0456191,20.9963,612.363,-0.519438,0.0,0.0
1155,288.5,30.1265,31.1175,137.518,105.439,111.641,0.000365687,0.0455965,20.9963,612.393,-0.517006,0.0,0.0
1160,289.75,30.0219,30.9509,135.423,105.458,111.255,0.000337922,0.0456133,20.9963,612.353,-0.484072,0.0,0.0
1165,291,30.4417,31.5582,137.29,105.443,111.444,0.000304163,0.0456677,20.9963,612.363,-0.500629,0.0,0.0
1170,292.25,29.8449,30.6816,134.081,105.466,111.884,0.000274548,0.0457135,20.9963,612.343,-0.5344,0.0,0.0
1175,293.5,30.2405,31.1982,132.854,105.473,111.576,0.000269377,0.0457563,20.9963,612.363,-0.508785,0.0,0.0
1180,294.75,30.0437,31.0939,134.644,105.46,111.66,0.000271443,0.0457815,20.9963,612.343,-0.516741,0.0,0.0
1185,296,30.268,31.2695,135.694,105.453,111.227,0.000269354,0.0457718,20.9963,612.343,-0.482237,0.0,0.0
1190,297.25,30.0556,30.9921,133.22,105.464,111.363,0.000284943,0.0457366,20.996,612.323,-0.492273,0.0,0.0
1195,298.5,29.9837,31.0036,133.927,105.471,110.528,0.000310381,0.0457477,20.9952,612.303,-0.42368,0.0,0.0
1200,299.75,30.2796,30.8797,132.895,105.455,110.927,0.000323225,0.0458174,20.9947,612.303,-0.457666,0.0,0.0
1205,301,30.5317,31.0635,134.245,105.455,111.24,0.000285161,0.0458649,20.9944,612.323,-0.483152,0.0,0.0
1210,302.25,30.1879,30.441,138.014,105.452,111.302,0.000255164,0.0459139,20.995,612.323,-0.488367,0.0,0.0
1215,303.5,30.0906,31.1271,135.333,105.437,110.611,0.000181464,0.046008,20.9958,612.283,-0.433326,0.0,0.0
1220,304.75,30.1785,31.1392,136.521,105.422,111.008,0.000162847,0.0460263,20.9963,612.293,-0.467062,0.0,0.0
1225,306,30.447,30.2499,138.67,105.421,111.516,0.000168133,0.045965,20.9965,612.293,-0.508408,0.0,0.0
1230,307.25,29.7547,31.3656,134.707,105.402,111.218,0.000162149,0.0459027,20.9967,612.313,-0.485793,0.0,0.0
1235,308.5,30.6502,31.2926,136.046,105.376,111.347,0.000116213,0.0459363,20.9968,612.283,-0.498492,0.0,0.0
1240,309.75,29.7827,31.162,135.33,105.329,111.111,5.57373e-05,0.0460008,20.9972,612.213,-0.483354,0.0,0.0
1245,311,29.8045,31.2413,135.197,105.316,110.671,2.59181e-05,0.046063,20.9976,612.243,-0.448687,0.0,0.0
1250,312.25,29.795,30.9303,133.488,105.288,111.492,5.18012e-05,0.0460113,20.9972,612.233,-0.517802,0.0,0.0
1255,313.5,30.4353,30.9354,136.271,105.245,111.879,0.00013098,0.0459434,20.9967,612.243,-0.55289,0.0,0.0
1260,314.75,30.1431,31.3417,134.526,105.201,110.137,0.000241161,0.0458165,20.9965,612.193,-0.414796,0.0,0.0
1265,316,30.1448,31.6068,135.847,105.152,110.459,0.000314163,0.045786,20.9963,612.223,-0.445445,0.0,0.0
1270,317.25,30.3602,31.4631,135.797,105.087,110.955,0.000331255,0.0457751,20.9966,612.243,-0.491501,0.0,0.0
1275,318.5,30.2218,31.4051,135.695,105.054,111.272,0.000322991,0.045791,20.9974,612.253,-0.520122,0.0,0.0
1280,319.75,30.1218,31.3764,134.278,105.009,109.845,0.000326851,0.0457809,20.9978,612.213,-0.407331,0.0,0.0
1285,321,30.4104,31.424,134.527,104.971,111.455,0.000340283,0.0458143,20.998,612.233,-0.542162,0.0,0.0
1290,322.25,30.1611,30.6825,129.7,104.906,110.909,0.000352632,0.045967,20.9976,612.223,-0.503325,0.0,0.0
1295,323.5,30.0678,30.7665,136.162,104.85,110.889,0.000364509,0.0460808,20.9969,612.173,-0.506541,0.0,0.0
1300,324.75,30.1782,30.4117,134.979,104.793,109.647,0.000369549,0.0460895,20.9972,612.223,-0.409526,0.0,0.0
1305,326,29.9152,31.2397,135.726,104.727,110.026,0.000361558,0.046072,20.997,612.233,-0.446479,0.0,0.0
1310,327.25,30.059,30.9501,137.581,104.669,109.946,0.000344302,0.0460839,20.9966,612.233,-0.444856,0.0,0.0
1315,328.5,30.4595,30.8308,137.184,104.67,109.603,0.000318763,0.0460663,20.9963,612.223,-0.416574,0.0,0.0
1320,329.75,30.3011,31.1496,139.376,104.701,110.073,0.000285284,0.0460511,20.9955,612.233,-0.45261,0.0,0.0
1325,331,30.6316,31.5163,136.987,104.742,110.272,0.000259175,0.0462151,20.995,612.253,-0.465323,0.0,0.0
1330,332.25,30.2667,30.4152,138.393,104.789,110.624,0.000260017,0.0463463,20.9948,612.213,-0.490185,0.0,0.0
1335,333.5,30.5442,30.4836,134.801,104.841,110.51,0.000289039,0.0463253,20.9947,612.413,-0.476326,0.0,0.0
1340,334.75,30.4965,31.2995,136.814,104.888,111.324,0.000307312,0.0463163,20.9946,612.233,-0.538638,0.0,0.0
1345,336,30.0802,31.1652,132.556,104.945,110.009,0.000293385,0.0462599,20.9948,612.273,-0.426245,0.0,0.0
1350,337.25,30.3442,31.2049,134.949,104.991,110.566,0.000255296,0.0461651,20.9956,612.173,-0.468,0.0,0.0
1355,338.5,30.34,30.834,134.9,105.037,110.526,0.000223978,0.0461952,20.9961,612.193,-0.460794,0.0,0.0
1360,339.75,29.9652,31.2775,135.075,105.095,110.481,0.00023617,0.0463734,20.9964,612.183,-0.452147,0.0,0.0
1365,341,30.3479,31.1706,133.599,105.137,109.545,0.000288393,0.0466025,20.9965,612.193,-0.371459,0.0,0.0
1370,342.25,29.9759,30.7687,136.568,105.18,110.712,0.000354335,0.0468402,20.996,612.173,-0.463658,0.0,0.0
1375,343.5,30.5187,30.9339,134.746,105.233,110.8,0.000394289,0.0469217,20.9954,612.113,-0.466343,0.0,0.0
1380,344.75,29.5043,30.9202,134.862,105.274,110.677,0.000375245,0.0469404,20.995,612.153,-0.452738,0.0,0.0
1385,346,30.7424,30.7485,134.885,105.303,110.5,0.000330579,0.0470835,20.9948,612.163,-0.435756,0.0,0.0
1390,347.25,30.5673,30.7992,132.502,105.335,110.74,0.000299333,0.04739,20.9947,612.233,-0.452612,0.0,0.0
1395,348.5,30.1529,31.5407,136.4,105.371,109.783,0.00030171,0.0483998,20.9946,612.213,-0.370969,0.0,0.0
1400,349.75,29.9226,31.0199,136.566,105.398,111.981,0.000398855,0.0506614,20.9938,612.213,-0.548029,0.0,0.0
1405,351,30.3923,31.2939,131.042,105.419,110.657,0.000610806,0.0549153,20.9914,612.033,-0.438617,0.0,1.0
1410,352.25,30.414,31.1943,134.182,105.43,108.513,0.00105373,0.0677382,20.9799,611.783,-0.260742,0.0,1.0
1415,353.5,30.4566,31.305,134.004,105.449,105.006,0.00178925,0.0899085,20.9508,611.993,0.0380767,0.0,1.0
1420,354.75,30.7103,31.1678,130.959,105.459,102.646,0.00290167,0.124265,20.9027,611.973,0.244566,0.0,1.0
1425,356,29.1351,30.0303,128.911,105.454,94.5195,0.00450073,0.169488,20.8534,611.873,0.990212,0.0,0.0
1430,357.25,30.0063,30.5573,131.353,105.471,94.0034,0.00614309,0.223996,20.8029,611.733,1.04115,0.0,0.0
1435,358.5,30.3806,30.6969,121.169,105.453,86.84,0.00845424,0.28401,20.7336,611.562,1.75665,0.0,0.0
1440,359.75,32.4338,31.2665,126.381,105.449,87.4958,0.0108694,0.337997,20.6411,611.382,1.68823,0.0,0.0
1445,361,32.9218,32.4248,117.893,105.421,87.132,0.0130947,0.413698,20.5672,611.282,1.72348,0.0,0.0
1450,362.25,35.8269,34.085,117.68,105.404,82.2345,0.0149165,0.478962,20.5036,611.012,2.24531,0.0,0.0
1455,363.5,38.4928,37.3337,115.868,105.392,84.9541,0.0161956,0.530134,20.4578,610.822,1.94999,0.0,0.0
1460,364.75,39.9972,37.9341,120.633,105.358,86.1124,0.0172858,0.567702,20.4144,610.632,1.82455,0.0,0.0
1465,366,41.2136,39.1152,116.28,105.312,82.9234,0.0177917,0.585611,20.3888,610.441,2.16194,0.0,0.0
1470,367.25,42.3117,39.9704,119.466,105.286,85.159,0.017749,0.59057,20.3831,610.321,1.91912,0.0,0.0
1475,368.5,43.5698,40.9636,125.776,105.258,88.1641,0.0171831,0.577654,20.394,610.101,1.60299,0.0,0.0
1480,369.75,44.2641,41.9507,121.131,105.236,87.6448,0.0161852,0.555712,20.4117,610.001,1.65451,0.0,0.0
1485,371,44.7534,42.2974,125.792,105.168,91.5023,0.0149258,0.527009,20.427,609.871,1.25906,0.0,0.0
1490,372.25,44.8563,43.4491,126.783,105.146,93.0286,0.0138482,0.495619,20.4567,609.701,1.10753,0.0,0.0
1495,373.5,45.3451,43.4363,127.738,105.097,97.9163,0.0122504,0.461635,20.4933,609.611,0.640156,0.0,0.0
1500,374.75,45.4994,44.129,124.925,105.045,98.9075,0.0107071,0.430133,20.5387,609.561,0.544579,0.0,0.0
1505,376,45.5804,44.318,128.128,105.005,99.7151,0.00930185,0.395905,20.5864,609.481,0.467595,0.0,0.0
1510,377.25,45.5122,44.801,129.533,104.955,101.441,0.0081032,0.364453,20.6262,609.411,0.308061,0.0,0.0
1515,378.5,45.5672,44.7542,127.856,104.925,104.064,0.00698178,0.336931,20.6592,609.38,0.074534,0.0,0.0
1520,379.75,45.3091,44.9632,125.957,104.871,106.096,0.00603628,0.312098,20.6932,609.3,-0.105025,0.0,0.0
1525,381,45.7599,44.8811,131.593,104.833,106.94,0.00528735,0.289188,20.724,609.24,-0.180013,0.0,0.0
1530,382.25,45.2582,44.9079,131.977,104.796,108.511,0.00465433,0.26626,20.7512,609.24,-0.315065,0.0,0.0
1535,383.5,44.9178,45.054,134.01,104.764,109.323,0.00418828,0.244596,20.7754,609.17,-0.385301,0.0,0.0
1540,384.75,45.0647,44.6933,132.336,104.719,109.223,0.0038116,0.225526,20.7939,609.1,-0.380953,0.0,0.0
1545,386,44.6921,44.6996,132.059,104.705,110.428,0.00342456,0.209147,20.8153,609.11,-0.481363,0.0,0.0
1550,387.25,44.8632,44.8093,132.828,104.678,110.957,0.00313856,0.193482,20.8342,609.04,-0.526975,0.0,0.0
1555,388.5,43.9974,44.8873,131.899,104.648,111.85,0.00291616,0.177946,20.8519,609.02,-0.602065,0.0,0.0
1560,389.75,44.5975,43.9756,133.736,104.621,110.737,0.00275887,0.16729,20.8662,608.99,-0.513966,0.0,0.0
1565,391,43.3349,44.6148,130.415,104.593,111.43,0.00262375,0.155125,20.8779,608.99,-0.572701,0.0,0.0
1570,392.25,43.2946,44.3529,133.57,104.572,111.036,0.00255497,0.144868,20.8893,608.98,-0.54256,0.0,0.0
1575,393.5,43.181,43.9801,132.099,104.536,111.367,0.00252433,0.135497,20.8982,608.97,-0.572569,0.0,0.0
1580,394.75,42.2684,44.3681,130.887,104.531,111.127,0.00247742,0.126794,20.9064,608.95,-0.553504,0.0,0.0
1585,396,42.5975,43.7135,133.069,104.517,111.508,0.00237141,0.118726,20.9142,608.93,-0.58567,0.0,0.0
1590,397.25,42.5307,43.1144,131.831,104.51,110.8,0.002237,0.112083,20.921,608.91,-0.528679,0.0,0.0
1595,398.5,41.5934,43.4648,133.844,104.481,111.324,0.0020961,0.105515,20.9288,608.85,-0.573843,0.0,0.0
1600,399.75,41.5132,43.0083,133.086,104.475,110.925,0.00198888,0.0993161,20.9367,608.86,-0.541901,0.0,0.0
1605,401,40.7667,42.6396,131.965,104.479,111.256,0.00190459,0.0934666,20.9439,608.85,-0.568499,0.0,0.0
1610,402.25,40.5407,42.8191,136.168,104.469,110.991,0.00183717,0.0875795,20.9504,608.82,-0.547731,0.0,0.0
1615,403.5,40.4989,42.3077,136.491,104.452,110.824,0.00178631,0.0822485,20.9568,608.84,-0.535669,0.0,0.0
1620,404.75,39.9367,42.5496,135.169,104.453,110.287,0.00172633,0.0773467,20.9622,608.81,-0.491619,0.0,0.0
1625,406,40.0381,42.1375,133.782,104.45,110.475,0.00162372,0.0726426,20.967,608.82,-0.507296,0.0,0.0
1630,407.25,39.5522,41.4618,131.753,104.442,110.854,0.00146165,0.068029,20.9707,608.84,-0.538943,0.0,0.0
1635,408.5,39.49,41.4011,136.504,104.45,110.295,0.00125056,0.0636325,20.9752,608.85,-0.492489,0.0,0.0
1640,409.75,38.8201,41.5605,139.573,104.44,109.699,0.00110443,0.0600432,20.9786,608.85,-0.44438,0.0,0.0
1645,411,37.606,40.0849,135.994,104.442,110.391,0.00104755,0.0577248,20.9815,608.84,-0.501161,0.0,0.0
1650,412.25,36.5049,39.3299,135.822,104.446,110.306,0.00106742,0.0555393,20.984,608.79,-0.493809,0.0,0.0
1655,413.5,36.4657,38.8533,134.406,104.431,109.576,0.00109241,0.054101,20.9856,608.81,-0.435039,0.0,0.0
1660,414.75,36.3879,38.9112,134.926,104.439,110.879,0.0010855,0.053187,20.9866,608.83,-0.541215,0.0,0.0
1665,416,35.4996,38.9244,134.879,104.443,110.129,0.00104465,0.0526674,20.9871,608.87,-0.479464,0.0,0.0
1670,417.25,35.4313,38.3164,134.413,104.445,110.41,0.000981304,0.0523157,20.9874,608.84,-0.50232,0.0,0.0
1675,418.5,35.5098,38.3887,136.09,104.455,110.719,0.00092388,0.0520849,20.9883,608.84,-0.526855,0.0,0.0
1680,419.75,35.4094,38.4632,133.507,104.471,111.24,0.000880147,0.0518583,20.9889,608.85,-0.567832,0.0,0.0
1685,421,35.0169,38.1588,135.229,104.466,110.451,0.000862817,0.0515446,20.9892,608.84,-0.503997,0.0,0.0
1690,422.25,34.9134,37.648,132.945,104.463,110.276,0.000842416,0.0512154,20.9894,608.83,-0.4899,0.0,0.0
1695,423.5,35.096,37.6891,136.627,104.456,110.041,0.000793268,0.0508818,20.9895,608.83,-0.471135,0.0,0.0
1700,424.75,34.7611,37.6994,136.792,104.461,111.015,0.000714612,0.0506762,20.9895,608.82,-0.550437,0.0,0.0
1705,426,34.5882,37.6816,133.239,104.471,111.365,0.000574006,0.0505706,20.9896,608.83,-0.578052,0.0,0.0
1710,427.25,34.902,37.105,134.835,104.441,110.529,0.000447101,0.0504399,20.9896,608.82,-0.512524,0.0,0.0
1715,428.5,34.2123,37.1326,131.422,104.451,111.587,0.000365063,0.0502702,20.9896,608.81,-0.597761,0.0,0.0
1720,429.75,33.7326,36.9809,134.349,104.449,110.739,0.000343813,0.0500566,20.9899,608.8,-0.528966,0.0,0.0
1725,431,34.1877,36.7509,134.753,104.458,110.34,0.000383303,0.0497818,20.9907,608.79,-0.495535,0.0,0.0
1730,432.25,33.8694,36.5642,135.833,104.439,110.926,0.00043735,0.0495418,20.9912,608.8,-0.545052,0.0,0.0
1735,433.5,33.8086,36.3936,133.993,104.452,111.227,0.000466009,0.0492894,20.9915,608.77,-0.568493,0.0,0.0
1740,434.75,34.1666,36.6106,135.362,104.443,109.904,0.000485364,0.0491483,20.9917,608.77,-0.461004,0.0,0.0
1745,436,33.6764,35.9918,132.609,104.441,110.668,0.000528684,0.0490061,20.9918,608.79,-0.523876,0.0,0.0
1750,437.25,33.3501,36.393,134.33,104.445,110.918,0.000566552,0.0488632,20.9919,608.77,-0.543856,0.0,0.0
1755,438.5,33.3357,36.1923,136.691,104.451,111.547,0.00058196,0.048707,20.9919,608.77,-0.594551,0.0,0.0
1760,439.75,32.9219,36.1288,138.899,104.461,110.785,0.00058405,0.0486417,20.9919,608.79,-0.531633,0.0,0.0
1765,441,33.53,36.1448,134.334,104.443,110.088,0.000642731,0.048633,20.9919,608.79,-0.476097,0.0,0.0
1770,442.25,32.9421,35.6045,133.434,104.454,111.122,0.000711786,0.0486863,20.9919,608.77,-0.559709,0.0,0.0
1775,443.5,33.19,35.8594,135.781,104.456,110.411,0.000785593,0.048652,20.9919,608.77,-0.50152,0.0,0.0
1780,444.75,32.8241,35.4206,133.981,104.455,110.724,0.000845732,0.0484824,20.9919,608.78,-0.5272,0.0,0.0
1785,446,33.1106,35.4788,137.465,104.441,110.545,0.000905647,0.0483623,20.9919,608.78,-0.513782,0.0,0.0
1790,447.25,32.2691,35.3211,135.884,104.447,110.654,0.000983662,0.0483161,20.9919,608.78,-0.52211,0.0,0.0
1795,448.5,32.6946,35.2717,140.404,104.45,110.677,0.00101723,0.0482688,20.9919,608.79,-0.523795,0.0,0.0
1800,449.75,32.3503,34.7501,134.691,104.467,110.741,0.000970557,0.0481867,20.9919,608.77,-0.527582,0.0,0.0
1805,451,31.9813,35.1277,136.562,104.441,110.702,0.000853141,0.0481798,20.9919,608.79,-0.526617,0.0,0.0
1810,452.25,32.6486,34.524,130.748,104.44,110.851,0.000718444,0.0482288,20.9919,608.78,-0.53886,0.0,0.0
1815,453.5,32.3522,34.7385,133.589,104.428,111.13,0.00057589,0.0481835,20.9919,608.8,-0.562622,0.0,0.0
1820,454.75,32.4389,34.6559,135.412,104.427,111.209,0.000442857,0.0481269,20.9919,608.78,-0.569213,0.0,0.0
1825,456,32.3884,34.1812,134.83,104.447,110.563,0.000270154,0.0480935,20.9919,608.77,-0.514756,0.0,0.0
1830,457.25,31.9911,34.3988,138.336,104.431,110.966,0.00017675,0.0480348,20.9919,608.77,-0.54905,0.0,0.0
1835,458.5,32.1637,34.6468,136.732,104.433,111.27,0.000122091,0.0479997,20.9919,608.75,-0.57355,0.0,0.0
1840,459.75,32.1312,34.4288,137.913,104.415,110.201,0.000171708,0.0480137,20.9919,608.77,-0.487845,0.0,0.0
1845,461,32.5432,34.7341,135.31,104.409,110.542,0.000319825,0.0481444,20.9919,608.77,-0.516299,0.0,0.0
1850,462.25,32.3073,34.3221,137.157,104.409,111.004,0.000497281,0.0480744,20.9919,608.76,-0.554067,0.0,0.0
1855,463.5,31.9743,33.7677,131.566,104.398,110.375,0.000692245,0.0480331,20.9913,608.76,-0.50356,0.0,0.0
1860,464.75,32.0177,34.4739,136.631,104.384,110.175,0.000848789,0.0480969,20.9906,608.74,-0.488379,0.0,0.0
1865,466,31.8449,33.8619,131.102,104.383,110.767,0.000884226,0.0480852,20.9909,608.73,-0.53696,0.0,0.0
1870,467.25,31.5089,33.9253,136.407,104.38,110.199,0.000822373,0.0479947,20.9913,608.7,-0.490694,0.0,0.0
1875,468.5,32.13,33.2702,137.513,104.373,111.545,0.000714913,0.0479024,20.9916,608.71,-0.601099,0.0,0.0
1880,469.75,31.754,33.7229,135.742,104.368,110.699,0.000654336,0.0478432,20.9924,608.72,-0.53265,0.0,0.0
1885,471,31.9473,33.7118,134.6,104.357,110.619,0.000627633,0.0477341,20.9922,608.71,-0.527128,0.0,0.0
1890,472.25,31.5776,34.1377,135.617,104.362,110.894,0.000611438,0.0476038,20.9928,608.71,-0.549206,0.0,0.0
1895,473.5,31.712,33.6975,136.67,104.333,110.345,0.000617033,0.0475355,20.9929,608.71,-0.506756,0.0,0.0
1900,474.75,31.7671,33.6257,133.56,104.352,111.368,0.000649075,0.0474405,20.9925,608.73,-0.588604,0.0,0.0
1905,476,31.3696,33.6911,137.735,104.34,110.23,0.000676539,0.0473839,20.9921,608.71,-0.496735,0.0,0.0
1910,477.25,31.5528,33.5417,136.686,104.323,110.325,0.000655015,0.047341,20.9923,608.71,-0.505995,0.0,0.0
1915,478.5,31.0814,33.5684,135.855,104.308,110.581,0.000593531,0.0473536,20.9928,608.71,-0.528292,0.0,0.0
1920,479.75,31.302,33.9849,131.673,104.308,110.539,0.000533522,0.0473456,20.993,608.7,-0.524751,0.0,0.0
1925,481,31.2754,33.1529,133.931,104.313,110.768,0.000430999,0.0472772,20.9932,608.72,-0.54308,0.0,0.0
1930,482.25,31.6229,33.3018,135.116,104.305,110.243,0.000349967,0.0472075,20.9933,608.7,-0.500811,0.0,0.0
1935,483.5,31.3599,33.6287,135.058,104.303,110.751,0.000317338,0.0471663,20.9933,608.7,-0.542591,0.0,0.0
1940,484.75,31.3857,33.1422,134.694,104.307,110.703,0.000327063,0.0471348,20.9934,608.69,-0.538306,0.0,0.0
1945,486,31.3617,33.4462,133.774,104.305,110.436,0.00036844,0.0470939,20.9934,608.71,-0.516654,0.0,0.0
1950,487.25,31.5679,32.9235,131.922,104.291,110.714,0.000429208,0.0470698,20.995,608.71,-0.540648,0.0,0.0
1955,488.5,31.5441,33.1159,136.475,104.29,110.361,0.000589086,0.0470775,20.9963,608.71,-0.511793,0.0,0.0
1960,489.75,30.8665,33.1167,133.785,104.289,110.594,0.000728841,0.0471501,20.997,608.71,-0.530935,0.0,0.0
1965,491,31.308,32.9798,135.685,104.29,110.545,0.0008278,0.0471707,20.9975,608.7,-0.526898,0.0,0.0
1970,492.25,30.9972,33.0233,135.513,104.273,110.512,0.000884493,0.0472051,20.9977,608.68,-0.525582,0.0,0.0
1975,493.5,31.4603,32.6843,137.504,104.284,110.865,0.00089617,0.047206,20.9971,608.68,-0.553519,0.0,0.0
1980,494.75,31.1196,33.2771,134.739,104.284,110.806,0.000872277,0.0471471,20.9965,608.67,-0.548692,0.0,0.0
1985,496,30.9992,33.3096,136.955,104.28,110.443,0.000863289,0.0470782,20.9962,608.69,-0.519389,0.0,0.0
1990,497.25,31.117,32.4472,134.121,104.265,110.843,0.000898668,0.046974,20.9961,608.69,-0.553344,0.0,0.0
1995,498.5,30.4923,32.8094,134.494,104.269,109.917,0.000920381,0.0469713,20.9962,608.7,-0.477173,0.0,0.0
2000,499.75,31.2714,32.6937,133.279,104.278,110.363,0.000905211,0.0469991,20.997,608.69,-0.51301,0.0,0.0
2005,501,31.0986,32.5544,134.471,104.27,109.881,0.000877588,0.0469272,20.9974,608.69,-0.474147,0.0,0.0
2010,502.25,31.1098,32.6398,138.112,104.254,110.249,0.000816086,0.0468985,20.9977,608.69,-0.505743,0.0,0.0
2015,503.5,31.1916,32.2933,135.575,104.266,110.631,0.000733839,0.0469118,20.9978,608.67,-0.536035,0.0,0.0
2020,504.75,30.7333,32.5601,133.524,104.261,111.056,0.000646967,0.0469094,20.9979,608.67,-0.571141,0.0,0.0
2025,506,30.9914,32.8751,134.846,104.247,110.582,0.000591063,0.0468585,20.998,608.68,-0.533648,0.0,0.0
2030,507.25,30.9912,32.5151,131.243,104.256,110.737,0.00058681,0.0468689,20.998,608.66,-0.54552,0.0,0.0
2035,508.5,30.855,32.0055,137.958,104.256,110.108,0.000586494,0.0470269,20.9981,608.66,-0.493973,0.0,0.0
2040,509.75,31.0315,32.4116,135.868,104.25,110.958,0.000574596,0.0470908,20.9977,608.67,-0.564012,0.0,0.0
2045,511,30.748,32.2466,134.721,104.228,109.691,0.000546636,0.0470402,20.9963,608.65,-0.462082,0.0,0.0
2050,512.25,30.5461,32.2839,131.587,104.243,110.458,0.0005222,0.0469694,20.9955,608.66,-0.523838,0.0,0.0
2055,513.5,30.4472,31.6328,135.95,104.245,111.251,0.000521797,0.0468803,20.995,608.65,-0.58834,0.0,0.0
2060,514.75,30.439,32.0953,130.036,104.245,110.959,0.000543295,0.0468771,20.9947,608.65,-0.564564,0.0,0.0
2065,516,30.341,32.1306,136.526,104.235,110.02,0.000561218,0.0468918,20.9945,608.66,-0.488535,0.0,0.0
2070,517.25,30.6646,32.3873,131.859,104.247,111.151,0.000496249,0.0469299,20.9936,608.66,-0.580049,0.0,0.0
2075,518.5,30.6795,31.9663,137.322,104.248,110.251,0.000415394,0.0469747,20.9929,608.64,-0.506372,0.0,0.0
2080,519.75,30.8466,32.2149,134.82,104.244,110.343,,0.0470305,,608.69,-0.514377,0.0,0.0
2085,521,30.3352,32.084,133.208,104.235,110.052,,0.0470499,,608.67,-0.491213,0.0,0.0
2090,522.25,30.6887,32.1162,136.952,104.252,109.832,,,,608.65,-0.471584,0.0,0.0
2095,523.5,30.4605,32.1789,134.501,104.25,110.267,,,,608.65,-0.507601,0.0,0.0
2100,524.75,30.3209,32.0923,136.591,104.234,110.414,,,,608.63,-0.520947,0.0,0.0
2105,526,30.7439,31.7189,133.837,104.249,110.903,,,,608.63,-0.55964,0.0,0.0
2110,527.25,30.7465,31.8002,136.485,104.242,110.456,,,,608.63,-0.523795,0.0,0.0
2115,528.5,31.0302,31.5933,132.323,104.241,110.482,,,,608.64,-0.525929,0.0,0.0
2120,529.75,30.8042,32.0501,138.035,104.223,110.809,,,,608.62,-0.554311,0.0,0.0
2121,530,30.3949,32.1646,134.596,104.254,110.35,,,,608.62,-0.514031,0.0,0.0