File: 01_Data/Polyester_Bed_Skirt/Cone/Polyester_Bed_Skirt_Cone_HF75Scan_220523_R1.csv
Names,Time,Stack TC,Smoke TC,Exh Press,Smoke Comp,Smoke Meas,CO Meter,CO2 Meter,O2 Meter,Sample Mass,Ext Coeff,Start Test,Flame Verif
Chan Gain,,500,500,1,1,1,1,1,1,1,1,1.0,1.0
Offset,,0,0,0.139323,0,0,0,0,0,0,0,0.0,0.0
Gain,,1,1,25.011,13.8491,15.2622,1,1,1,1.00087,1.03118,1.0,1.0
Units,sec,C,C,Pa,%,%,%,%,%,g,/m,,
Baseline,,50.3859,52.3132,133.911,105.083,109.228,0.000495665,0.0466291,20.9911,-453.178,-0.349818,,
3,0.5,44.3548,47.0484,138.289,105.044,107.805,0.000608643,0.0502245,20.9887,600.463,-0.234698,0.0,0.0
6,1.25,42.812,45.5938,134.751,105.028,108.87,0.000634148,0.0507975,20.9884,600.483,-0.32502,0.0,0.0
9,2,43.0881,45.7615,140.156,105.013,108.775,0.000640603,0.0512313,20.9881,600.343,-0.318394,0.0,0.0
12,2.75,43.1339,45.5746,136.964,104.992,108.542,0.000636941,0.0515353,20.9879,600.443,-0.300794,0.0,0.0
15,3.5,43.059,45.5417,134.481,104.966,108.954,0.000628811,0.0516398,20.9878,600.403,-0.337335,0.0,0.0
18,4.25,42.9012,45.7215,135.921,104.945,108.995,0.000628076,0.0516513,20.9877,600.433,-0.342447,0.0,0.0
21,5,43.1553,45.5601,137.472,104.933,108.483,0.000631373,0.0515488,20.9877,600.423,-0.300998,0.0,0.0
24,5.75,43.6486,45.505,137.97,104.9,109.329,0.00064033,0.0514058,20.9876,600.483,-0.374133,0.0,0.0
27,6.5,43.6067,45.9107,136.886,104.864,107.766,0.000638204,0.0512292,20.9876,600.443,-0.246935,0.0,0.0
30,7.25,43.5189,45.9036,139.165,104.829,108.087,0.000634563,0.0510267,20.9876,600.413,-0.276858,0.0,0.0
33,8,43.9801,45.8119,134.561,104.815,108.967,0.000627077,0.050801,20.9875,600.353,-0.351394,0.0,0.0
36,8.75,43.5823,45.7894,133.747,104.796,108.46,0.00062162,0.0505646,20.9877,600.363,-0.310908,0.0,0.0
39,9.5,43.8042,45.8124,134.822,104.758,108.988,0.000618281,0.0502693,20.9883,600.353,-0.358098,0.0,0.0
42,10.25,43.3047,45.6436,135.132,104.769,108.717,0.000616938,0.0500227,20.9887,600.323,-0.334659,0.0,0.0
45,11,44.0276,45.5342,136.975,104.786,108.73,0.000614746,0.0497234,20.989,600.313,-0.334134,0.0,0.0
48,11.75,43.496,45.9778,132.73,104.804,109.035,0.000611992,0.0494807,20.9892,600.363,-0.357946,0.0,0.0
51,12.5,43.9889,46.1207,138.421,104.803,108.197,0.000608892,0.0492764,20.9894,600.353,-0.288277,0.0,0.0
54,13.25,43.5916,46.1552,130.174,104.821,109.243,0.000611825,0.0491158,20.9895,600.383,-0.373818,0.0,0.0
57,14,43.8676,45.8565,133.531,104.84,108.912,0.000623672,0.0489988,20.9893,600.373,-0.344679,0.0,0.0
60,14.75,43.7397,46.1107,135.759,104.863,107.883,0.000636448,0.0489914,20.9888,600.313,-0.256852,0.0,0.0
63,15.5,44.1736,46.247,133.15,104.858,109.069,0.000677333,0.0490816,20.9885,600.353,-0.356173,0.0,0.0
66,16.25,44.4737,46.445,132.317,104.875,107.864,0.000720597,0.0491882,20.9882,600.353,-0.254194,0.0,0.0
69,17,44.3833,45.7418,133.647,104.885,106.669,0.00081554,0.0499288,20.988,600.343,-0.152534,0.0,0.0
72,17.75,44.7158,46.0859,132.491,104.918,107.063,0.000993174,0.0525244,20.9895,600.313,-0.18308,0.0,0.0
75,18.5,44.3233,46.0369,133.219,104.918,108.221,0.00127167,0.0552929,20.9872,600.263,-0.280383,0.0,1.0
78,19.25,44.4768,46.5333,133.909,104.925,105.388,0.00177394,0.0573112,20.9782,600.213,-0.0397982,0.0,1.0
81,20,44.6827,46.3898,131.987,104.949,102.676,0.00275237,0.0741131,20.9618,600.283,0.198077,0.0,1.0
84,20.75,44.7197,46.5461,131.103,104.97,97.0873,0.00327989,0.0928304,20.915,600.182,0.706152,0.0,1.0
87,21.5,45.3225,46.5085,126.048,104.969,94.9834,0.00470474,0.117537,20.8598,600.233,0.90421,0.0,1.0
90,22.25,45.466,46.7309,125.524,104.98,87.2834,0.00574345,0.156922,20.8106,600.082,1.66992,0.0,1.0
93,23,45.362,46.8639,125.571,105.007,85.5549,0.00817177,0.205477,20.7468,599.972,1.85313,0.0,1.0
96,23.75,45.0448,46.2972,121.891,105.033,78.9751,0.0109854,0.263464,20.6534,599.902,2.57923,0.0,1.0
99,24.5,45.3315,46.0601,112.079,105.033,77.2201,0.0141116,0.3299,20.5501,599.672,2.78251,0.0,0.0
102,25.25,46.1571,45.8726,112.396,105.046,70.8326,0.0174684,0.431248,20.4401,599.512,3.56467,0.0,0.0
105,26,47.6271,47.1628,105.406,105.062,67.8647,0.021626,0.529518,20.2776,599.262,3.95318,0.0,0.0
108,26.75,48.58,47.8365,98.7569,105.089,63.4707,0.0255921,0.642858,20.1458,599.031,4.56103,0.0,0.0
111,27.5,50.4814,49.188,99.2705,105.099,61.9625,0.028882,0.770508,20.0269,598.771,4.77936,0.0,0.0
114,28.25,52.3673,50.7731,101.405,105.112,57.6347,0.0320265,0.882287,19.9402,598.551,5.43547,0.0,0.0
117,29,54.3916,51.6364,102.977,105.127,60.8037,0.0343188,0.971756,19.877,598.311,4.95253,0.0,0.0
120,29.75,56.1469,53.4541,104.512,105.151,62.882,0.0353508,1.03698,19.8311,598.081,4.65064,0.0,0.0
123,30.5,58.0422,54.8913,111.526,105.173,64.1717,0.0352867,1.06614,19.8125,597.85,4.46888,0.0,0.0
126,31.25,60.0086,56.4448,114.441,105.165,69.364,0.0343677,1.07957,19.824,597.73,3.76436,0.0,0.0
129,32,60.7614,58.0529,116.595,105.198,69.9765,0.0328014,1.04187,19.878,597.6,3.68771,0.0,0.0
132,32.75,62.1271,58.786,121.867,105.208,76.9863,0.0307062,0.998222,19.955,597.51,2.825,0.0,0.0
135,33.5,62.8377,59.6794,120.413,105.218,78.3635,0.0279143,0.938742,20.04,597.42,2.66551,0.0,0.0
138,34.25,62.9741,60.5401,122.532,105.228,82.5759,0.0251371,0.87307,20.124,597.35,2.19273,0.0,0.0
141,35,63.5243,61.0157,122.827,105.247,87.0398,0.0224695,0.805989,20.214,597.31,1.71811,0.0,0.0
144,35.75,63.8929,61.7207,123.147,105.263,91.8591,0.0201114,0.740508,20.2796,597.27,1.23207,0.0,0.0
147,36.5,63.8029,61.9593,126.002,105.278,95.8195,0.0176856,0.6697,20.3517,597.22,0.851524,0.0,0.0
150,37.25,64.0932,62.397,126.819,105.277,99.1716,0.0153417,0.606155,20.4161,597.21,0.540418,0.0,0.0
153,38,63.7179,62.5194,125.8,105.284,101.5,0.0134658,0.548271,20.4681,597.17,0.331119,0.0,0.0
156,38.75,63.6223,62.6034,127.348,105.305,103.44,0.0118123,0.495001,20.506,597.17,0.161571,0.0,0.0
159,39.5,63.2713,62.7265,128.381,105.313,105.594,0.0106069,0.446522,20.5498,597.13,-0.0240982,0.0,0.0
162,40.25,63.152,62.8266,128.157,105.316,105.217,0.00940319,0.407068,20.5921,597.09,0.00852861,0.0,0.0
165,41,63.1422,62.6194,131.474,105.331,106.857,0.00843714,0.367533,20.6309,597.05,-0.13014,0.0,0.0
168,41.75,62.9218,62.7082,131.331,105.345,106.245,0.00766305,0.338711,20.6656,597.03,-0.0769866,0.0,0.0
171,42.5,62.7539,62.5963,131.067,105.369,107.845,0.00704386,0.309949,20.7008,597.02,-0.210039,0.0,0.0
174,43.25,62.6374,62.4488,129.271,105.351,107.81,0.00656436,0.284136,20.729,596.99,-0.208706,0.0,0.0
177,44,61.9637,62.4984,128.206,105.362,108.233,0.00616671,0.262681,20.7539,596.96,-0.243215,0.0,0.0
180,44.75,61.781,62.0948,129.304,105.38,109.304,0.00584141,0.243656,20.7751,596.91,-0.330706,0.0,0.0
183,45.5,61.5277,62.1952,131.852,105.398,107.838,0.00559559,0.228494,20.7928,596.9,-0.207063,0.0,0.0
186,46.25,61.6007,62.2489,129.892,105.398,109.553,0.0054166,0.215229,20.8073,596.9,-0.349783,0.0,0.0
189,47,60.8585,62.1598,134.488,105.407,109.338,0.00529281,0.203308,20.8216,596.9,-0.331161,0.0,0.0
192,47.75,61.2155,62.4296,132.875,105.406,109.799,0.00520754,0.19286,20.8329,596.91,-0.369376,0.0,0.0
195,48.5,60.6829,61.9194,130.242,105.424,109.65,0.00514749,0.183879,20.8428,596.89,-0.355492,0.0,0.0
198,49.25,60.2936,61.6704,133.298,105.425,110.138,0.00509132,0.175589,20.8508,596.87,-0.395558,0.0,0.0
201,50,60.5315,62.0908,128.831,105.42,109.623,0.00505038,0.16901,20.857,596.86,-0.353588,0.0,0.0
204,50.75,59.846,61.6402,130.676,105.432,109.607,0.00503646,0.163299,20.8629,596.84,-0.351342,0.0,0.0
207,51.5,60.3167,61.0789,127.277,105.444,109.776,0.00506605,0.158192,20.8682,596.83,-0.364155,0.0,0.0
210,52.25,59.5782,61.4596,130.698,105.457,110.259,0.00512615,0.154066,20.8728,596.82,-0.402779,0.0,0.0
213,53,59.4377,61.4844,132.62,105.45,110.021,0.00520688,0.149616,20.8775,596.8,-0.383776,0.0,0.0
216,53.75,59.311,61.343,132.477,105.457,111.391,0.00531009,0.145975,20.8817,596.79,-0.495196,0.0,0.0
219,54.5,58.6783,60.4486,128.447,105.467,109.026,0.00540526,0.142643,20.8854,596.79,-0.300196,0.0,0.0
222,55.25,58.8089,61.1541,131.428,105.472,109.211,0.00548313,0.139425,20.8885,596.78,-0.315091,0.0,0.0
225,56,58.6915,60.6343,132.001,105.46,109.693,0.00556121,0.136766,20.8916,596.77,-0.355944,0.0,0.0
228,56.75,58.4286,60.6444,130.654,105.473,110.264,0.00561814,0.134292,20.8943,596.719,-0.40186,0.0,0.0
231,57.5,58.2244,60.5468,131.685,105.46,109.782,0.00569519,0.131721,20.8971,596.699,-0.363351,0.0,0.0
234,58.25,56.8677,60.6078,130.847,105.47,110.561,0.0057807,0.129396,20.9002,596.729,-0.426383,0.0,0.0
237,59,57.6497,59.9772,130.806,105.467,109.934,0.0058138,0.127508,20.9013,596.689,-0.375237,0.0,0.0
240,59.75,57.598,60.4256,132.278,105.481,110.396,0.00586084,0.125327,20.903,596.659,-0.411978,0.0,0.0
243,60.5,57.9629,59.7385,131.931,105.482,110.369,0.00590872,0.123477,20.9051,596.659,-0.409654,0.0,0.0
246,61.25,57.3223,59.6341,135.712,105.487,108.116,0.00596046,0.121203,20.907,596.639,-0.222667,0.0,0.0
249,62,56.8807,59.4927,129.196,105.487,110.143,0.00600439,0.120141,20.908,596.629,-0.390688,0.0,0.0
252,62.75,57.0186,59.406,134.983,105.471,110.092,0.00605513,0.11861,20.9091,596.619,-0.387893,0.0,0.0
255,63.5,56.5826,59.887,132.207,105.476,110.372,0.00609337,0.117052,20.9103,596.629,-0.410431,0.0,0.0
258,64.25,56.4129,59.3605,132.03,105.497,110.048,0.00612178,0.115748,20.9118,596.569,-0.38201,0.0,0.0
261,65,56.3316,59.1274,132.812,105.476,110.445,0.00612002,0.115031,20.9129,596.569,-0.416457,0.0,0.0
264,65.75,56.0953,59.2192,129.998,105.471,110.125,0.00610982,0.114203,20.9137,596.549,-0.390612,0.0,0.0
267,66.5,56.4603,58.9194,132.455,105.483,109.863,0.00610351,0.113339,20.9149,596.529,-0.367995,0.0,0.0
270,67.25,55.9903,59.2235,133.447,105.48,110.298,0.00610781,0.112597,20.9158,596.539,-0.403997,0.0,0.0
273,68,55.6428,58.9446,129.955,105.497,111.166,0.0061116,0.112008,20.9167,596.479,-0.473468,0.0,0.0
276,68.75,55.5354,58.9128,131.63,105.477,109.84,0.00611548,0.111439,20.9177,596.479,-0.36666,0.0,0.0
279,69.5,55.3658,58.8411,134.727,105.467,109.94,0.00611831,0.110954,20.9185,596.469,-0.37566,0.0,0.0
282,70.25,55.4872,58.9887,131.786,105.477,109.447,0.00612907,0.11057,20.9191,596.469,-0.33423,0.0,0.0
285,71,55.3441,58.6202,133.428,105.482,110.07,0.00614061,0.11011,20.9197,596.449,-0.385114,0.0,0.0
288,71.75,54.8295,58.7711,129.712,105.468,110.328,0.006169,0.109635,20.9202,596.429,-0.40753,0.0,0.0
291,72.5,54.7897,58.7048,132.529,105.466,109.947,0.00621006,0.109119,20.9205,596.429,-0.376381,0.0,0.0
294,73.25,54.8552,58.5266,131.026,105.474,109.79,0.00626022,0.108554,20.9213,596.419,-0.362807,0.0,0.0
297,74,54.9381,58.1738,132.816,105.476,110.416,0.00633067,0.107849,20.922,596.379,-0.414016,0.0,0.0
300,74.75,54.9566,58.1625,129.944,105.463,111.226,0.00638954,0.107209,20.9224,596.389,-0.481179,0.0,0.0
303,75.5,55.126,57.5461,131.585,105.461,110.865,0.00643564,0.106443,20.9234,596.409,-0.452067,0.0,0.0
306,76.25,54.6197,57.9448,132.815,105.463,110.884,0.00645677,0.105745,20.9241,596.419,-0.453407,0.0,0.0
309,77,54.4037,57.7778,129.74,105.468,110.956,0.00646092,0.105177,20.9246,596.379,-0.458822,0.0,0.0
312,77.75,54.7931,57.9981,127.333,105.455,109.983,0.00645915,0.104563,20.9249,596.369,-0.380275,0.0,0.0
315,78.5,54.4355,57.7417,129.734,105.444,110.559,0.00644716,0.104003,20.9257,596.349,-0.428441,0.0,0.0
318,79.25,54.2526,57.828,131.512,105.456,110.73,0.00643118,0.103511,20.9264,596.329,-0.441401,0.0,0.0
321,80,53.9841,57.7964,133.578,105.456,110.291,0.00640717,0.103089,20.9275,596.319,-0.405526,0.0,0.0
324,80.75,53.806,57.5553,130.995,105.432,110.481,0.00636218,0.102684,20.9283,596.309,-0.423165,0.0,0.0
327,81.5,53.972,57.5555,129.47,105.434,110.181,0.00630191,0.102347,20.9289,596.269,-0.398356,0.0,0.0
330,82.25,54.2701,57.5487,127.687,105.435,110.77,0.00623101,0.101902,20.9294,596.269,-0.446485,0.0,0.0
333,83,53.5337,57.5732,134.231,105.441,110.795,0.00612597,0.101475,20.9301,596.219,-0.448031,0.0,0.0
336,83.75,53.9819,57.264,128.377,105.423,110.484,0.00601078,0.100988,20.9309,596.259,-0.42408,0.0,0.0
339,84.5,53.8123,57.0946,131.868,105.403,109.331,0.00591035,0.100493,20.9314,596.229,-0.330985,0.0,0.0
342,85.25,53.5927,56.9066,132.375,105.402,109.579,0.00574822,0.100118,20.9319,596.249,-0.351533,0.0,0.0
345,86,53.4548,57.1534,133.577,105.415,111.304,0.00567916,0.0998173,20.9321,596.239,-0.491673,0.0,0.0
348,86.75,52.9494,56.9506,128.409,105.407,109.529,0.0055621,0.0995602,20.9321,596.219,-0.346983,0.0,0.0
351,87.5,53.5194,56.8556,131.723,105.394,109.98,0.00544975,0.0993309,20.9318,596.209,-0.385304,0.0,0.0
354,88.25,53.4074,57.0262,130.411,105.396,111.34,0.00534885,0.0990961,20.9316,596.209,-0.49622,0.0,0.0
357,89,53.177,56.9355,132.117,105.397,110.582,0.00524696,0.0990771,20.9314,596.239,-0.434372,0.0,0.0
360,89.75,53.1042,56.8642,136.16,105.399,110.12,0.00514788,0.09914,20.9313,596.199,-0.396355,0.0,0.0
363,90.5,52.844,56.8177,129.334,105.399,110.052,0.00505528,0.0992057,20.9312,596.189,-0.390729,0.0,0.0
366,91.25,53.3438,56.5549,136.622,105.387,109.403,0.00497105,0.0992118,20.9316,596.129,-0.338257,0.0,0.0
369,92,52.9421,56.7468,128.941,105.391,109.691,0.00490964,0.099125,20.9321,596.119,-0.361737,0.0,0.0
372,92.75,52.9382,56.5317,130.466,105.385,109.823,0.00483129,0.0989361,20.9324,596.129,-0.373146,0.0,0.0
375,93.5,52.8245,56.3709,132.951,105.371,109.573,0.00477665,0.098645,20.9326,596.119,-0.353645,0.0,0.0
378,94.25,52.8219,56.3535,131.623,105.373,110.227,0.00474114,0.0983673,20.9328,596.119,-0.407361,0.0,0.0
381,95,52.7324,56.384,128.602,105.362,111.031,0.00472082,0.0980655,20.9336,596.059,-0.474072,0.0,0.0
384,95.75,52.7055,56.3617,130.227,105.366,110.456,0.00471308,0.0977501,20.9341,596.069,-0.426725,0.0,0.0
387,96.5,52.2611,56.1861,132.261,105.349,111.131,0.00471611,0.0973571,20.9347,596.089,-0.483353,0.0,0.0
390,97.25,53.1086,56.1622,131.327,105.342,109.349,0.00472724,0.0966732,20.9356,596.069,-0.337672,0.0,0.0
393,98,52.5076,56.1701,133.951,105.346,109.785,0.00474428,0.0960354,20.9368,596.029,-0.37334,0.0,0.0
396,98.75,52.5694,56.356,133.676,105.349,108.929,0.00474691,0.0953324,20.9377,596.029,-0.302312,0.0,0.0
399,99.5,52.6728,56.3852,129.149,105.345,109.88,0.0047321,0.0945024,20.9384,596.039,-0.381274,0.0,0.0
402,100.25,52.6692,55.8597,134.504,105.34,110.252,0.00466646,0.0936749,20.9398,595.999,-0.412253,0.0,0.0
405,101,52.4726,56.2212,131.652,105.322,110.734,0.00460363,0.0928012,20.9411,595.979,-0.453206,0.0,0.0
408,101.75,52.0987,55.8291,130.648,105.335,110.396,0.00453222,0.0918641,20.9424,595.989,-0.424529,0.0,0.0
411,102.5,52.5654,55.7518,133.256,105.316,110.152,0.0044537,0.0908894,20.9437,595.969,-0.406069,0.0,0.0
414,103.25,52.3314,55.7506,129.893,105.303,109.534,0.00439027,0.0900545,20.9448,595.969,-0.356296,0.0,0.0
417,104,52.4366,56.1469,136.524,105.298,109.465,0.0043414,0.088992,20.9463,595.959,-0.351035,0.0,0.0
420,104.75,52.32,56.0972,129.399,105.297,109.626,0.00430754,0.0880423,20.9474,595.929,-0.364378,0.0,0.0
423,105.5,52.0188,55.6562,134.454,105.294,109.508,0.0042809,0.0870505,20.9482,595.929,-0.35494,0.0,0.0
426,106.25,52.186,55.7003,130.587,105.28,109.982,0.00425814,0.0859914,20.9494,595.939,-0.395294,0.0,0.0
429,107,52.3523,55.7286,131.375,105.279,110.539,0.00421688,0.0849286,20.9507,595.909,-0.440991,0.0,0.0
432,107.75,52.1519,55.8229,132.669,105.28,109.855,0.00416827,0.0840298,20.9518,595.909,-0.384755,0.0,0.0
435,108.5,51.7037,55.7533,128.196,105.272,110.139,0.00412493,0.0829207,20.9526,595.899,-0.408812,0.0,0.0
438,109.25,52.2257,55.6734,130.206,105.254,110.954,0.00409304,0.0818079,20.953,595.889,-0.476992,0.0,0.0
441,110,52.0164,55.6791,130.252,105.242,109.152,0.00404367,0.0807796,20.9544,595.859,-0.330005,0.0,0.0
444,110.75,52.2684,55.4673,137.859,105.25,110.141,0.00400287,0.0798808,20.9553,595.879,-0.410851,0.0,0.0
447,111.5,51.5923,55.527,128.819,105.267,110.517,0.00397756,0.079022,20.9561,595.879,-0.440253,0.0,0.0
450,112.25,51.7604,55.3054,134.426,105.24,110.448,0.00397022,0.0783391,20.9567,595.869,-0.436935,0.0,0.0
453,113,52.101,55.1762,131.171,105.237,109.451,0.00396487,0.077412,20.9572,595.859,-0.355185,0.0,0.0
456,113.75,51.7326,55.0394,126.287,105.225,110.626,0.00399796,0.0765001,20.958,595.809,-0.452727,0.0,0.0
459,114.5,52.1676,55.4971,133.039,105.221,109.34,0.00402949,0.0754984,20.959,595.859,-0.347288,0.0,0.0
462,115.25,51.8287,55.3838,135.565,105.221,109.286,0.00405564,0.0747681,20.9603,595.839,-0.342856,0.0,0.0
465,116,51.619,55.2769,129.715,105.202,109.12,0.00407145,0.0739014,20.9617,595.819,-0.330718,0.0,0.0
468,116.75,51.4292,54.9323,132.42,105.195,110.379,0.00407741,0.073139,20.9627,595.809,-0.435174,0.0,0.0
471,117.5,51.5426,55.0779,130.196,105.21,110.029,0.00406415,0.0723601,20.9639,595.799,-0.405118,0.0,0.0
474,118.25,51.5425,54.8823,130.509,105.181,109.634,0.00404213,0.0715565,20.9652,595.799,-0.375135,0.0,0.0
477,119,51.615,55.1352,130.55,105.168,110.024,0.00402081,0.0707779,20.9665,595.789,-0.408297,0.0,0.0
480,119.75,51.6305,54.9097,132.315,105.166,109.627,0.00398922,0.0700195,20.9675,595.779,-0.375829,0.0,0.0
483,120.5,51.7367,55.2181,132.494,105.172,109.643,0.00395936,0.0692808,20.9682,595.739,-0.376589,0.0,0.0
486,121.25,51.1109,54.7289,130.666,105.151,110.845,0.00393231,0.068448,20.9691,595.779,-0.477007,0.0,0.0
489,122,51.4741,54.5329,134.747,105.129,109.941,0.00391129,0.0677613,20.9701,595.749,-0.404857,0.0,0.0
492,122.75,51.2019,54.704,132.804,105.127,109.755,0.00389542,0.0671246,20.9709,595.739,-0.389699,0.0,0.0
495,123.5,51.516,54.9597,135.492,105.124,110.196,0.00388914,0.0665092,20.9715,595.769,-0.426231,0.0,0.0
498,124.25,50.9009,54.5814,134.04,105.112,109.387,0.00388455,0.0659961,20.9722,595.749,-0.360557,0.0,0.0
501,125,51.2585,54.5844,135.383,105.102,109.305,0.00387504,0.0654861,20.9731,595.739,-0.35465,0.0,0.0
504,125.75,51.2477,54.6432,131.481,105.099,109.59,0.00386548,0.0650181,20.9738,595.719,-0.378501,0.0,0.0
507,126.5,50.9718,54.3843,129.604,105.096,110.119,0.00384124,0.0645998,20.9742,595.709,-0.422321,0.0,0.0
510,127.25,50.7696,54.7008,130.266,105.085,109.696,0.0038162,0.0642331,20.9746,595.699,-0.388386,0.0,0.0
513,128,51.0018,54.4452,133.785,105.074,110.128,0.00379267,0.0638873,20.9748,595.709,-0.424941,0.0,0.0
516,128.75,50.8187,54.2642,129.349,105.062,109.9,0.00378169,0.0635775,20.975,595.679,-0.407229,0.0,0.0
519,129.5,51.1386,54.2308,133.059,105.057,109.373,0.00377956,0.0632527,20.9751,595.679,-0.36417,0.0,0.0
522,130.25,51.1161,54.6689,135.921,105.067,110.055,0.00378355,0.0628924,20.9752,595.659,-0.419477,0.0,0.0
525,131,50.9578,54.2133,132.758,105.043,108.879,0.00378646,0.0625048,20.9755,595.669,-0.324445,0.0,0.0
528,131.75,50.8958,54.1723,134.35,105.041,108.937,0.00378859,0.0620987,20.9762,595.689,-0.329423,0.0,0.0
531,132.5,51.1834,54.2563,129.934,105.026,109.792,0.00379533,0.061646,20.9766,595.669,-0.401465,0.0,0.0
534,133.25,50.7078,54.1328,133.514,105.029,110.036,0.00380025,0.0612338,20.977,595.679,-0.421221,0.0,0.0
537,134,50.9194,54.1248,129.376,105.008,109.577,0.00382357,0.0608981,20.9774,595.659,-0.385249,0.0,0.0
540,134.75,50.7981,53.9993,134.404,105.002,108.852,0.003849,0.0604211,20.9777,595.639,-0.325807,0.0,0.0
543,135.5,50.8333,54.0389,132.474,104.993,108.814,0.00386577,0.0599743,20.9779,595.618,-0.323286,0.0,0.0
546,136.25,50.8628,53.8404,133.014,104.995,109.205,0.00386319,0.0596623,20.9781,595.568,-0.35564,0.0,0.0
549,137,50.7141,53.9703,133.6,104.978,109.704,0.00383942,0.0594407,20.9782,595.578,-0.398286,0.0,0.0
552,137.75,50.5662,53.8599,133.532,104.972,109.226,0.00379545,0.0591814,20.9783,595.589,-0.359341,0.0,0.0
555,138.5,50.8645,53.8953,133.81,104.963,109.908,0.0037423,0.0589491,20.9783,595.558,-0.416477,0.0,0.0
558,139.25,50.2488,54.1565,134.208,104.968,108.584,0.00370725,0.0586624,20.9784,595.599,-0.306324,0.0,0.0
561,140,50.5288,53.9145,132.053,104.955,109.39,0.00368327,0.0583793,20.9789,595.618,-0.374331,0.0,0.0
564,140.75,50.6309,53.8949,135.189,104.959,109.236,0.00368865,0.058173,20.9794,595.558,-0.361246,0.0,0.0
567,141.5,50.6603,53.7003,129.639,104.93,110.255,0.00370737,0.0579678,20.9798,595.589,-0.447793,0.0,0.0
570,142.25,50.889,53.5672,129.82,104.938,109.696,0.00372733,0.0577948,20.9801,595.558,-0.401055,0.0,0.0
573,143,50.4115,53.719,135.838,104.936,109.056,0.00375116,0.0574342,20.9802,595.578,-0.348386,0.0,0.0
576,143.75,50.7229,53.6534,130.769,104.922,110.153,0.00377349,0.0571713,20.9804,595.609,-0.440078,0.0,0.0
579,144.5,50.4652,53.66,129.218,104.909,108.659,0.00378089,0.0567647,20.9809,595.578,-0.317743,0.0,0.0
582,145.25,50.2469,53.6066,132.757,104.915,109.319,0.0037511,0.0564246,20.9813,595.518,-0.371972,0.0,0.0
585,146,50.3557,53.5848,132.567,104.922,109.138,0.00368997,0.0561984,20.9815,595.538,-0.356273,0.0,0.0
588,146.75,50.6387,53.4228,133.016,104.901,109.221,0.00362859,0.0558276,20.9817,595.538,-0.365114,0.0,0.0
591,147.5,50.197,53.6058,131.594,104.901,108.238,0.00350757,0.0554601,20.9819,595.498,-0.28328,0.0,0.0
594,148.25,50.2247,53.6527,130.896,104.891,109.107,0.00335905,0.055106,20.982,595.488,-0.356458,0.0,0.0
597,149,50.3066,53.3819,135.002,104.884,110.259,0.00320324,0.0547697,20.9821,595.488,-0.452109,0.0,0.0
600,149.75,49.5454,52.6545,134.743,104.878,109.634,0.00305292,0.0544972,20.9821,595.488,-0.401196,0.0,0.0
603,150.5,48.5986,51.9528,129.373,104.883,108.619,0.00294824,0.0542869,20.9822,595.508,-0.316632,0.0,0.0
606,151.25,48.6941,51.2713,131.946,104.87,109.116,0.00288629,0.0542568,20.9822,595.498,-0.359017,0.0,0.0
609,152,48.6385,51.5169,132.478,104.877,108.661,0.00286211,0.0543017,20.9828,595.458,-0.320596,0.0,0.0
612,152.75,48.3404,51.907,133.37,104.87,109.437,0.00287026,0.0543591,20.9833,595.458,-0.385542,0.0,0.0
615,153.5,49.3829,52.8758,132.978,104.85,109.648,0.00288719,0.0544205,20.9836,595.468,-0.404756,0.0,0.0
618,154.25,49.9805,52.9456,128.914,104.837,109.142,0.00289953,0.0544457,20.9839,595.488,-0.364021,0.0,0.0
621,155,49.8556,53.012,131.135,104.853,108.693,0.00291204,0.0544504,20.9842,595.488,-0.325386,0.0,0.0
624,155.75,50.0043,52.98,136.436,104.835,109.113,0.00291727,0.054448,20.9845,595.448,-0.36181,0.0,0.0
627,156.5,50.1194,52.7686,134.772,104.83,109.509,0.00291446,0.0544463,20.9847,595.418,-0.395047,0.0,0.0
630,157.25,49.4735,53.2552,132.484,104.836,109.185,0.0029019,0.0544254,20.9848,595.398,-0.367683,0.0,0.0
633,158,50.5264,52.9287,130.321,104.848,109.111,0.00288906,0.0544103,20.9847,595.408,-0.360563,0.0,0.0
636,158.75,49.7313,53.3985,131.286,104.832,110.231,0.0028749,0.0543797,20.9842,595.448,-0.454226,0.0,0.0
639,159.5,50.0609,53.2944,132.237,104.814,108.8,0.00285905,0.0543163,20.9839,595.388,-0.337614,0.0,0.0
642,160.25,50.4559,52.5765,133.581,104.816,109.239,0.00283875,0.054231,20.9836,595.408,-0.373909,0.0,0.0
645,161,50.2818,53.3399,132.989,104.814,109.848,0.00281362,0.0541319,20.9834,595.388,-0.424324,0.0,0.0
648,161.75,49.7521,53.1925,133.218,104.819,108.667,0.00277763,0.0541007,20.9833,595.418,-0.326131,0.0,0.0
651,162.5,50.19,52.897,132.848,104.807,109.365,0.0027232,0.0541228,20.9832,595.438,-0.385045,0.0,0.0
654,163.25,50.0024,53.2893,133.529,104.815,109.584,0.00265731,0.0541506,20.9831,595.378,-0.40244,0.0,0.0
657,164,50.1589,53.1906,130.53,104.798,108.614,0.00258502,0.0541123,20.9831,595.428,-0.323573,0.0,0.0
660,164.75,49.7122,53.0028,133.22,104.801,108.819,0.0025131,0.0540772,20.983,595.408,-0.340369,0.0,0.0
663,165.5,49.7294,52.9074,131.69,104.781,109.833,0.00247635,0.0540393,20.983,595.448,-0.425942,0.0,0.0
666,166.25,50.3849,52.8736,134.161,104.797,108.844,0.00242516,0.0540116,20.983,595.438,-0.342785,0.0,0.0
669,167,49.9188,53.0534,132.129,104.782,110.419,0.00240253,0.0539842,20.983,595.398,-0.473996,0.0,0.0
672,167.75,50.0461,52.8231,129.849,104.801,110.18,0.0023923,0.053952,20.9829,595.358,-0.452796,0.0,0.0
675,168.5,49.8193,53.003,129.271,104.791,109.816,0.00240321,0.0539218,20.9829,595.318,-0.423719,0.0,0.0
678,169.25,50.2876,52.6431,132.723,104.772,109.679,0.00241042,0.0538725,20.9832,595.348,-0.414075,0.0,0.0
681,170,49.7924,52.564,138.523,104.776,109.064,0.00241202,0.053812,20.9837,595.348,-0.362864,0.0,0.0
684,170.75,50.1187,53.3522,130.717,104.784,110.051,0.00239049,0.0536857,20.9841,595.338,-0.443583,0.0,0.0
687,171.5,49.9717,52.7,133.158,104.775,109.807,0.00235887,0.0535659,20.9844,595.368,-0.424303,0.0,0.0
690,172.25,50.3156,52.8045,133.465,104.783,109.012,0.00232711,0.0534909,20.9846,595.358,-0.357914,0.0,0.0
693,173,49.7805,53.1067,130.895,104.786,109.666,0.00230065,0.0534225,20.9848,595.368,-0.411796,0.0,0.0
696,173.75,49.8999,52.6433,130.281,104.784,109.086,0.00230231,0.053338,20.9853,595.368,-0.363949,0.0,0.0
699,174.5,50.1265,52.6618,130.211,104.768,109.582,0.00230352,0.0532271,20.9859,595.388,-0.406372,0.0,0.0
702,175.25,49.9099,52.7613,133.686,104.774,109.61,0.00233356,0.0531658,20.9862,595.358,-0.408206,0.0,0.0
705,176,49.7127,52.9266,129.553,104.783,109.851,0.0023451,0.0531211,20.9863,595.338,-0.427253,0.0,0.0
708,176.75,50.2621,52.2856,129.702,104.785,109.813,0.00235925,0.0530886,20.9864,595.378,-0.424001,0.0,0.0
711,177.5,49.7309,52.8379,131.964,104.808,109.727,0.00236957,0.0530051,20.9865,595.338,-0.414855,0.0,0.0
714,178.25,50.0174,52.4343,130.011,104.784,109.311,0.00237709,0.0529135,20.9874,595.318,-0.382546,0.0,0.0
717,179,49.5641,52.7088,129.142,104.793,109.563,0.00238432,0.0528609,20.988,595.328,-0.402607,0.0,0.0
720,179.75,49.8488,52.8741,132.103,104.812,109.888,0.00239204,0.0528001,20.9885,595.338,-0.427802,0.0,0.0
723,180.5,49.9978,52.7438,134.773,104.818,109.394,0.0024,0.0527558,20.9889,595.328,-0.386523,0.0,0.0
726,181.25,49.8697,52.7275,132.926,104.815,109.742,0.00240801,0.0527098,20.9891,595.298,-0.4155,0.0,0.0
729,182,50.1745,52.9471,136.582,104.819,109.914,0.0024016,0.0526345,20.9893,595.278,-0.429404,0.0,0.0
732,182.75,50.0605,52.8735,132.193,104.839,109.505,0.00238011,0.052518,20.9895,595.258,-0.393898,0.0,0.0
735,183.5,50.0955,53.1056,133.942,104.836,108.94,0.00234462,0.0523551,20.9896,595.268,-0.347288,0.0,0.0
738,184.25,50.2373,52.737,134.692,104.835,110.377,0.00228198,0.0522219,20.9896,595.298,-0.465927,0.0,0.0
741,185,50.1917,52.7669,132.175,104.842,110.771,0.00220843,0.0521002,20.9897,595.318,-0.49754,0.0,0.0
744,185.75,50.1149,52.364,132.88,104.852,109.806,0.00213391,0.0520115,20.9899,595.318,-0.417551,0.0,0.0
747,186.5,50.0133,52.4733,131.951,104.879,110.058,0.00207958,0.0519396,20.9901,595.298,-0.435952,0.0,0.0
750,187.25,49.8644,52.5085,128.422,104.884,110.682,0.00205092,0.0518749,20.9903,595.278,-0.486627,0.0,0.0
753,188,49.9857,52.8626,131.7,104.902,109.877,0.00204872,0.0517899,20.9904,595.308,-0.41908,0.0,0.0
756,188.75,49.6687,52.6871,133.532,104.936,110.857,0.00206385,0.0517567,20.9905,595.318,-0.496482,0.0,0.0
759,189.5,49.988,52.5814,133.035,104.936,109.559,0.0021035,0.0517817,20.9905,595.288,-0.389938,0.0,0.0
762,190.25,49.6334,52.6059,133.087,104.928,109.902,0.00214637,0.0518975,20.991,595.298,-0.418927,0.0,0.0
765,191,49.8438,52.8795,132.281,104.94,108.913,0.00217517,0.0519891,20.9915,595.298,-0.336118,0.0,0.0
768,191.75,49.8797,53.037,134.422,104.964,110.49,0.00217555,0.0520682,20.9919,595.328,-0.46408,0.0,0.0
771,192.5,50.1825,52.4539,131.521,104.989,110.82,0.00215332,0.0521258,20.9922,595.288,-0.488964,0.0,0.0
774,193.25,50.0873,52.5294,133.492,104.992,109.545,0.00211291,0.0521463,20.9924,595.298,-0.384015,0.0,0.0
777,194,50.0548,52.0267,134.322,105,109.54,0.00206253,0.0521243,20.9926,595.288,-0.382901,0.0,0.0
780,194.75,50.1491,52.738,129.358,105.016,109.988,0.00202581,0.0521667,20.9925,595.258,-0.418403,0.0,0.0
783,195.5,49.9926,52.3058,131.936,105.05,110.225,0.00202593,0.0522524,20.992,595.268,-0.434967,0.0,0.0
786,196.25,49.9811,52.4473,133.795,105.044,108.952,0.00205292,0.0523598,20.9916,595.258,-0.33037,0.0,0.0
789,197,50.2496,52.5194,131.219,105.04,109.2,0.00209902,0.052475,20.9914,595.308,-0.351357,0.0,0.0
792,197.75,49.9673,52.5224,129.839,105.062,110.213,0.00213907,0.0525863,20.9906,595.268,-0.433031,0.0,0.0
795,198.5,49.6525,52.3299,130.263,105.078,108.911,0.00217928,0.0526792,20.99,595.248,-0.32402,0.0,0.0
798,199.25,50.1795,52.8735,133.314,105.086,109.922,0.00220666,0.0526493,20.9895,595.248,-0.406922,0.0,0.0
801,200,49.6545,52.2532,131.778,105.096,110.504,0.00222332,0.0526635,20.9886,595.288,-0.453868,0.0,0.0
804,200.75,49.7509,52.425,133.958,105.107,109.614,0.0022215,0.0527354,20.9877,595.278,-0.37977,0.0,0.0
807,201.5,49.9738,52.2767,130.052,105.111,109.359,0.00220794,0.052905,20.987,595.268,-0.358394,0.0,0.0
810,202.25,49.569,52.4511,131.449,105.124,109.34,0.00219283,0.0530286,20.9865,595.328,-0.355724,0.0,0.0
813,203,49.9401,52.0976,130.207,105.119,111.788,0.00216593,0.053146,20.9862,595.248,-0.556376,0.0,0.0
816,203.75,49.9462,52.1245,132.605,105.133,110.395,0.00213953,0.0532361,20.9859,595.178,-0.441816,0.0,0.0
819,204.5,49.8233,52.165,133.439,105.145,111.114,0.0021248,0.0532895,20.9857,595.158,-0.499495,0.0,0.0
822,205.25,49.3275,52.0574,130.193,105.155,109.911,0.00212176,0.0533968,20.9856,595.168,-0.400111,0.0,0.0
825,206,49.4388,52.0631,133.313,105.15,110.38,0.00212572,0.053533,20.9855,595.198,-0.439029,0.0,0.0
828,206.75,49.3834,51.9945,133.085,105.178,109.818,0.00213125,0.0536816,20.9852,595.218,-0.390518,0.0,0.0
831,207.5,49.3924,51.631,129.732,105.187,110.47,0.00212655,0.0537704,20.985,595.178,-0.443194,0.0,0.0
834,208.25,49.6466,51.775,130.505,105.206,109.637,0.00211669,0.0538275,20.9848,595.098,-0.373222,0.0,0.0
837,209,49.4475,52.0333,133.977,105.195,109.859,0.0020985,0.0538561,20.9847,595.098,-0.392403,0.0,0.0
840,209.75,49.5,52.3156,132.85,105.2,109.9,0.00207302,0.0538183,20.9846,595.138,-0.395341,0.0,0.0
843,210.5,49.2505,51.9569,130.651,105.207,111.149,0.00204473,0.0537908,20.9845,595.108,-0.497031,0.0,0.0
846,211.25,49.4212,52.3542,134.2,105.22,109.833,0.00201641,0.0537708,20.9845,595.118,-0.388147,0.0,0.0
849,212,49.7559,52.2357,130.501,105.203,110.309,0.00199053,0.0538109,20.9845,595.088,-0.428682,0.0,0.0
852,212.75,49.5811,52.4055,136.931,105.207,110.343,0.00197289,0.0538635,20.9844,595.078,-0.431107,0.0,0.0
855,213.5,49.8193,51.7262,134,105.226,110.678,0.00196119,0.0539409,20.984,595.118,-0.456994,0.0,0.0
858,214.25,49.4022,52.0666,131.183,105.228,111.731,0.00195377,0.0539973,20.9835,595.148,-0.542436,0.0,0.0
861,215,49.6417,51.7122,135.616,105.223,109.543,0.00193964,0.0540312,20.9831,595.138,-0.363927,0.0,0.0
864,215.75,49.8664,51.6514,134.504,105.229,110.134,0.00192934,0.0540436,20.9828,595.108,-0.412096,0.0,0.0
867,216.5,49.6465,52.2021,129.976,105.213,110.644,0.0018924,0.0540722,20.9826,595.078,-0.455267,0.0,0.0
870,217.25,49.8461,52.0543,133.403,105.218,110.744,0.00184393,0.0540519,20.9825,595.098,-0.463015,0.0,0.0
873,218,49.367,51.6025,136.049,105.207,110.196,0.00179322,0.0540197,20.9828,595.068,-0.419107,0.0,0.0
876,218.75,49.4696,52.0568,135.743,105.224,110.21,0.00175625,0.0539766,20.9831,595.048,-0.418802,0.0,0.0
879,219.5,49.2281,51.9092,129.586,105.198,110.501,0.00173636,0.0539453,20.9833,595.018,-0.444877,0.0,0.0
882,220.25,49.7089,51.8905,136.04,105.201,110.024,0.00173394,0.0540028,20.9834,595.018,-0.405498,0.0,0.0
885,221,49.4397,51.8888,133.167,105.186,110.461,0.00174959,0.0540448,20.9835,595.028,-0.442653,0.0,0.0
888,221.75,49.7084,51.7445,131.472,105.168,110.237,0.001761,0.0540754,20.9836,595.068,-0.425779,0.0,0.0
891,222.5,49.5041,52.0259,129.407,105.148,110.481,0.00176235,0.0540586,20.984,595.048,-0.447526,0.0,0.0
894,223.25,49.8309,51.4483,135.805,105.133,109.973,0.00176334,0.0540191,20.9845,594.998,-0.407099,0.0,0.0
897,224,49.5514,51.938,133.229,105.12,110.7,0.00173969,0.0539785,20.9849,594.998,-0.467795,0.0,0.0
900,224.75,49.4645,51.7429,136.681,105.083,111.712,0.00173099,0.0540311,20.9851,594.988,-0.553395,0.0,0.0
903,225.5,49.6115,51.7547,132.07,105.059,111.603,0.00173664,0.0541045,20.9853,595.038,-0.546566,0.0,0.0
906,226.25,49.7518,51.9897,131.249,105.043,110.735,0.00175504,0.0541775,20.9855,595.028,-0.477345,0.0,0.0
909,227,50.1869,52.5606,133.323,105.031,109.628,0.0017709,0.0541658,20.9856,594.988,-0.387473,0.0,0.0
912,227.75,49.6344,51.9631,129.508,105.006,109.921,0.00177707,0.0540465,20.9857,595.018,-0.413799,0.0,0.0
915,228.5,50.0018,52.1681,129.882,104.979,110.276,0.00177059,0.0539009,20.9862,595.028,-0.445289,0.0,0.0
918,229.25,49.7661,51.5499,131.404,104.953,110.566,0.00174878,0.0537804,20.9867,595.008,-0.471317,0.0,0.0
921,230,49.5386,52.0722,129.606,104.944,110.856,0.00172559,0.0536679,20.9871,595.008,-0.495677,0.0,0.0
924,230.75,49.5067,51.9692,131.892,104.908,110.104,0.00169999,0.0535664,20.9874,595.038,-0.437262,0.0,0.0
927,231.5,49.6712,52.0027,131.704,104.872,109.9,0.0016801,0.053478,20.9876,595.008,-0.423621,0.0,0.0
930,232.25,49.8528,51.9348,129.628,104.838,110.148,0.00166509,0.0533889,20.9878,594.998,-0.446873,0.0,0.0
933,233,50.0907,51.9839,132.307,104.838,109.228,0.00164718,0.0533924,20.9879,594.898,-0.371086,0.0,0.0
936,233.75,49.9424,51.6073,131.947,104.801,109.701,0.00162071,0.0534241,20.9879,594.898,-0.413363,0.0,0.0
939,234.5,50.1773,52.0571,131.932,104.778,109.844,0.00158229,0.0535253,20.988,594.958,-0.427152,0.0,0.0
942,235.25,49.5345,52.0475,130.047,104.752,109.703,0.00154343,0.0536264,20.988,594.938,-0.417749,0.0,0.0
945,236,50.2799,51.8672,129.786,104.729,110.176,0.00150633,0.0537118,20.9881,594.978,-0.458692,0.0,0.0
948,236.75,50.2059,52.1419,133.757,104.706,109.171,0.00147287,0.0537741,20.9881,594.978,-0.377764,0.0,0.0
951,237.5,50.3764,51.7396,134.73,104.663,109.89,0.00143752,0.0537024,20.9881,594.988,-0.44084,0.0,0.0
954,238.25,49.5488,52.3229,132.533,104.619,109.515,0.0014045,0.053609,20.988,594.968,-0.413652,0.0,0.0
957,239,50.0283,51.9602,131.417,104.611,110.512,0.00137863,0.0534803,20.9878,594.928,-0.496412,0.0,0.0
960,239.75,49.5964,52.6804,132.838,104.591,109.398,0.00136196,0.0533125,20.9877,594.918,-0.406439,0.0,0.0
963,240.5,49.4516,52.3015,135.034,104.556,108.313,0.00137239,0.053197,20.9876,594.908,-0.319332,0.0,0.0
966,241.25,49.9497,52.3461,134.61,104.55,109.921,0.00141413,0.0531243,20.9875,594.918,-0.453168,0.0,0.0
969,242,49.9362,52.0804,132.617,104.524,109.535,0.00147837,0.0530128,20.9874,594.928,-0.423531,0.0,0.0
972,242.75,49.9891,52.3217,130.123,104.508,109.728,0.00155815,0.0529316,20.9874,594.918,-0.440869,0.0,0.0
975,243.5,49.7873,51.9051,130.198,104.47,109.372,0.00162081,0.0528795,20.9874,594.928,-0.414742,0.0,0.0
978,244.25,50.0374,52.1933,132.197,104.445,109.832,0.00167418,0.0528539,20.9874,594.928,-0.454918,0.0,0.0
981,245,49.8158,51.9633,130.684,104.437,109.357,0.00169638,0.0528215,20.9873,594.898,-0.416439,0.0,0.0
984,245.75,50.3266,51.9568,134.13,104.428,109.676,0.00168401,0.0527777,20.9874,594.868,-0.443523,0.0,0.0
987,246.5,49.9163,52.0888,132.101,104.382,109.359,0.00164889,0.0527211,20.9874,594.858,-0.421315,0.0,0.0
990,247.25,49.8959,52.2776,134.113,104.354,108.923,0.00162201,0.0526799,20.9874,594.878,-0.387601,0.0,0.0
993,248,50.145,52.022,132.472,104.364,109.49,0.00160021,0.0526108,20.9875,594.818,-0.433747,0.0,0.0
996,248.75,50.0363,52.2723,132.587,104.38,108.992,0.00159302,0.0525331,20.9875,594.828,-0.391088,0.0,0.0
999,249.5,49.9894,52.0505,131.403,104.371,109.631,0.00159163,0.0524863,20.9875,594.878,-0.444813,0.0,0.0
1002,250.25,50.2572,52.478,133.017,104.382,109.952,0.00159721,0.0524892,20.9875,594.878,-0.470224,0.0,0.0
1005,251,49.8669,52.1167,128.985,104.376,109.108,0.00161469,0.0524776,20.9875,594.848,-0.401113,0.0,0.0
1008,251.75,49.846,51.321,133.218,104.391,108.488,0.00164343,0.0524633,20.9875,594.788,-0.348217,0.0,0.0
1011,252.5,49.6671,52.1592,128.757,104.39,108.825,0.00168196,0.0524529,20.9875,594.828,-0.376322,0.0,0.0
1014,253.25,49.5744,52.4478,131.817,104.385,109.631,0.00173443,0.052395,20.9879,594.878,-0.443567,0.0,0.0
1017,254,49.6758,52.2078,134.249,104.402,108.543,0.00177513,0.0522665,20.9885,594.898,-0.351883,0.0,0.0
1020,254.75,49.96,52.2259,131.272,104.4,108.39,0.00179684,0.0522002,20.9888,594.848,-0.339211,0.0,0.0
1023,255.5,49.5481,51.8132,133.343,104.422,109.399,0.00179715,0.0521708,20.989,594.758,-0.421148,0.0,0.0
1026,256.25,49.9942,52.2587,133.5,104.428,108.899,0.00176333,0.0521616,20.9892,594.698,-0.379217,0.0,0.0
1029,257,50.0227,52.1727,131.968,104.411,110.179,0.00172411,0.052194,20.9894,594.748,-0.486416,0.0,0.0
1032,257.75,49.8025,52.3402,132.796,104.43,109.804,,0.0522175,,594.738,-0.453894,0.0,0.0
1035,258.5,49.9385,52.2802,130.189,104.436,109.105,,0.0522296,,594.768,-0.395609,0.0,0.0
1038,259.25,49.8138,51.7697,132.359,104.433,109.6,,0.0522435,,594.768,-0.436816,0.0,0.0
1041,260,49.8363,52.0756,133.597,104.444,110.829,,0.0523084,,594.828,-0.536745,0.0,0.0
1044,260.75,49.7303,51.7829,133.852,104.438,109.186,,,,594.888,-0.402179,0.0,0.0
1047,261.5,49.9019,52.2123,129.853,104.456,110.77,,,,594.888,-0.530855,0.0,0.0
1050,262.25,49.9923,52.0013,132.36,104.451,110.023,,,,594.858,-0.47008,0.0,0.0
1053,263,49.4804,52.2723,130.084,104.451,109.554,,,,594.828,-0.431476,0.0,0.0
1056,263.75,49.8407,51.4686,131.022,104.452,110.155,,,,594.798,-0.480875,0.0,0.0
1059,264.5,49.9396,51.5748,131.171,104.484,110.339,,,,594.798,-0.493151,0.0,0.0
1062,265.25,49.7159,51.6111,130.397,104.477,109.871,,,,594.728,-0.455393,0.0,0.0
1065,266,49.9033,52.0788,132.136,104.482,109.681,,,,594.768,-0.439295,0.0,0.0
1068,266.75,50.2986,51.9764,134.79,104.485,109.941,,,,594.738,-0.460373,0.0,0.0
1071,267.5,50.0764,52.1492,135.407,104.502,109.743,,,,594.728,-0.442647,0.0,0.0
1074,268.25,49.9539,51.8978,134.361,104.504,109.934,,,,594.728,-0.458226,0.0,0.0
1075,268.5,49.7949,52.3979,133.945,104.507,109.367,,,,594.748,-0.411136,0.0,0.0