File: 01_Data/Polyester_Bed_Skirt/Cone/Polyester_Bed_Skirt_Cone_HF50Scan_220523_R1.csv
Names,Time,Stack TC,Smoke TC,Exh Press,Smoke Comp,Smoke Meas,CO Meter,CO2 Meter,O2 Meter,Sample Mass,Ext Coeff,Start Test,Flame Verif
Chan Gain,,500,500,1,1,1,1,1,1,1,1,1.0,1.0
Offset,,0,0,0.139323,0,0,0,0,0,0,0,0.0,0.0
Gain,,1,1,25.011,13.8491,15.2622,1,1,1,1.00087,1.03118,1.0,1.0
Units,sec,C,C,Pa,%,%,%,%,%,g,/m,,
Baseline,,32.2526,33.4451,140.06,104.283,106.133,0.000580912,0.0482002,20.9985,-449.21,-0.159064,,
2,0.25,29.8578,31.415,138.726,105.128,106.451,0.000453964,0.0554616,20.9905,616.507,-0.113096,0.0,0.0
4,0.75,29.7015,31.3465,137.969,105.128,107.111,0.0004445,0.0550967,20.9908,616.647,-0.169004,0.0,0.0
6,1.25,28.7515,30.3089,138.652,105.137,106.206,0.000463506,0.0547363,20.9916,616.557,-0.0914879,0.0,0.0
8,1.75,28.6,29.3824,140.294,105.131,107.283,0.000478901,0.0543723,20.9927,616.587,-0.183252,0.0,0.0
10,2.25,28.3857,29.7571,140.672,105.146,106.441,0.00049137,0.0540127,20.9936,616.597,-0.110735,0.0,0.0
12,2.75,28.5162,29.5991,138.446,105.14,106.689,0.000524523,0.0537215,20.9943,616.547,-0.132355,0.0,0.0
14,3.25,28.7621,29.6138,141.119,105.141,106.633,0.000551377,0.0534855,20.9949,616.587,-0.127431,0.0,0.0
16,3.75,28.9419,29.3693,139.42,105.144,106.313,0.000571915,0.0531167,20.9956,616.537,-0.100026,0.0,0.0
18,4.25,28.6409,29.9999,138.802,105.156,106.469,0.00058855,0.0528179,20.9964,616.567,-0.112276,0.0,0.0
20,4.75,28.7031,29.5972,138.266,105.149,107.152,0.000587465,0.0525111,20.997,616.547,-0.170647,0.0,0.0
22,5.25,28.995,30.0701,137.724,105.161,107.312,0.000586586,0.0522043,20.9975,616.537,-0.183145,0.0,0.0
24,5.75,28.6969,30.0303,138.856,105.163,107.279,0.000564045,0.0519558,20.998,616.577,-0.180209,0.0,0.0
26,6.25,28.6664,29.5801,139.773,105.17,107.332,0.000545786,0.0516042,20.9983,616.557,-0.18403,0.0,0.0
28,6.75,28.7913,29.6007,140.441,105.16,107.143,0.000518875,0.0513194,20.9988,616.547,-0.169028,0.0,0.0
30,7.25,29.0103,29.9086,137.521,105.166,106.886,0.000497077,0.050993,20.9994,616.527,-0.146751,0.0,0.0
32,7.75,29.1248,30.1317,142.349,105.174,107.037,0.000481845,0.0507286,20.9999,616.547,-0.158822,0.0,0.0
34,8.25,29.1692,29.8591,139.003,105.174,107.044,0.000469507,0.0504326,21.0003,616.557,-0.159415,0.0,0.0
36,8.75,29.1595,29.9823,138.62,105.171,106.956,0.000459514,0.0501927,21.0006,616.567,-0.152261,0.0,0.0
38,9.25,29.3159,30.2502,139.533,105.187,106.622,0.000459075,0.0499575,21.0009,616.557,-0.122556,0.0,0.0
40,9.75,29.1084,30.1409,141.292,105.172,107.187,0.00046561,0.0497669,21.0011,616.527,-0.171672,0.0,0.0
42,10.25,29.0576,30.1083,141.657,105.182,107.295,0.000477925,0.0496198,21.0013,616.517,-0.179874,0.0,0.0
44,10.75,29.2929,30.2137,136.292,105.168,107.157,0.00049422,0.049507,21.0014,616.527,-0.169516,0.0,0.0
46,11.25,29.0913,30.2612,134.255,105.184,107.29,0.000507418,0.0494157,21.0015,616.527,-0.179373,0.0,0.0
48,11.75,29.3398,30.5607,142.264,105.177,107.246,0.000520535,0.0494101,21.0016,616.527,-0.176148,0.0,0.0
50,12.25,28.8699,30.3508,141.364,105.186,107.2,0.000531159,0.0494055,21.0017,616.517,-0.171573,0.0,0.0
52,12.75,29.3905,30.5147,139.565,105.176,107.115,0.000540978,0.0494018,21.0018,616.507,-0.165214,0.0,0.0
54,13.25,29.474,29.88,141.01,105.186,106.367,0.000548931,0.0493988,21.0018,616.527,-0.101026,0.0,0.0
56,13.75,29.327,30.5599,141.622,105.179,107.003,0.000548095,0.0493964,21.0019,616.537,-0.155552,0.0,0.0
58,14.25,29.4144,29.8114,143.65,105.187,106.79,0.000547418,0.0493534,21.0019,616.537,-0.136846,0.0,0.0
60,14.75,29.2314,30.5353,142.096,105.18,106.712,0.000529894,0.0493186,21.0019,616.537,-0.1308,0.0,0.0
62,15.25,29.2813,30.4359,139.567,105.192,107.409,0.000515699,0.0492221,21.0019,616.537,-0.188651,0.0,0.0
64,15.75,29.7146,30.4767,139.215,105.179,106.8,0.000488257,0.049144,21.002,616.537,-0.138369,0.0,0.0
66,16.25,29.6939,30.836,142.207,105.189,107.402,0.000451678,0.0489987,21.002,616.517,-0.18832,0.0,0.0
68,16.75,29.7534,30.1216,142.632,105.182,106.626,0.000413126,0.0488811,21.002,616.497,-0.123349,0.0,0.0
70,17.25,29.6855,30.4988,139.159,105.19,106.892,0.000373869,0.0487311,21.002,616.497,-0.145192,0.0,0.0
72,17.75,29.6491,30.6464,139.857,105.171,106.98,0.00034207,0.0486097,21.002,616.517,-0.154237,0.0,0.0
74,18.25,29.899,30.5312,140.535,105.199,107.035,0.000316313,0.0484323,21.002,616.517,-0.15648,0.0,0.0
76,18.75,29.9581,30.6446,143.069,105.189,107.549,0.00029545,0.0482174,21.002,616.507,-0.200668,0.0,0.0
78,19.25,29.9246,30.7951,138.923,105.188,107.163,0.000296716,0.0480434,21.0022,616.517,-0.168207,0.0,0.0
80,19.75,29.9244,30.1568,139.528,105.177,106.794,0.000297742,0.0478478,21.0026,616.507,-0.137998,0.0,0.0
82,20.25,29.7338,30.695,139.94,105.186,107.261,0.000321595,0.0476894,21.003,616.497,-0.17672,0.0,0.0
84,20.75,29.62,30.7531,140.482,105.171,107.09,0.000340916,0.0475611,21.0032,616.487,-0.163566,0.0,0.0
86,21.25,30.2033,30.493,135.467,105.186,107.156,0.000372522,0.0474572,21.0034,616.497,-0.167875,0.0,0.0
88,21.75,30.0991,30.6331,139.103,105.175,107.032,0.000412482,0.0473594,21.0036,616.507,-0.15828,0.0,0.0
90,22.25,30.0276,30.5858,138.981,105.188,107.645,0.000444849,0.0472801,21.0037,616.497,-0.208843,0.0,0.0
92,22.75,30.2118,31.0549,137.002,105.174,107.453,0.00049151,0.0471204,21.0039,616.507,-0.193903,0.0,0.0
94,23.25,30.1959,30.4825,138.429,105.204,107.112,0.000547703,0.046991,21.0039,616.487,-0.16258,0.0,0.0
96,23.75,29.3886,30.7559,138.356,105.17,106.736,0.000593219,0.0468575,21.004,616.457,-0.133686,0.0,0.0
98,24.25,29.526,30.6441,137.84,105.181,107.201,0.000659245,0.0467234,21.0043,616.457,-0.172049,0.0,0.0
100,24.75,30.2477,30.8737,136.858,105.163,107.806,0.000712726,0.0466149,21.0047,616.437,-0.224522,0.0,0.0
102,25.25,29.9152,30.7616,139.59,105.182,107.006,0.000751568,0.046486,21.005,616.447,-0.15553,0.0,0.0
104,25.75,30.0321,31.0231,141.142,105.161,107.582,0.000779,0.0463816,21.0052,616.447,-0.205924,0.0,0.0
106,26.25,30.2404,31.1407,138.807,105.199,107.202,0.00079099,0.0462971,21.0054,616.457,-0.170565,0.0,0.0
108,26.75,30.2589,31.1999,142.363,105.162,107.582,0.000791496,0.0461999,21.0056,616.477,-0.205812,0.0,0.0
110,27.25,30.0987,30.6328,137.553,105.192,106.634,0.000782959,0.0460953,21.0057,616.467,-0.123148,0.0,0.0
112,27.75,30.1165,30.7124,141.52,105.163,106.185,0.000767993,0.0460106,21.0058,616.477,-0.0875249,0.0,0.0
114,28.25,30.138,30.6403,142.181,105.168,106.365,0.000752676,0.0459419,21.0059,616.487,-0.102354,0.0,0.0
116,28.75,30.095,30.4978,142.214,105.155,106.11,0.000737395,0.0459007,21.006,616.487,-0.0817855,0.0,0.0
118,29.25,29.9628,31.3625,139.902,105.168,106.887,0.000725017,0.0458803,21.006,616.477,-0.146684,0.0,0.0
120,29.75,30.657,31.1093,136.866,105.154,106.634,0.00072074,0.0458996,21.0061,616.477,-0.126419,0.0,0.0
122,30.25,30.2829,30.4594,139.981,105.168,106.986,0.000722451,0.0459476,21.0061,616.477,-0.155,0.0,0.0
124,30.75,30.2941,30.8114,139.559,105.153,107.349,0.000729589,0.0459864,21.0062,616.477,-0.186937,0.0,0.0
126,31.25,30.5531,30.7627,139.342,105.159,107.866,0.000740547,0.0460861,21.0062,616.467,-0.229884,0.0,0.0
128,31.75,29.9311,31.3127,135.631,105.151,107.014,0.000749423,0.0461669,21.0062,616.477,-0.158853,0.0,0.0
130,32.25,30.0434,31.4369,135.976,105.158,107.299,0.000751755,0.0462467,21.0062,616.447,-0.1823,0.0,0.0
132,32.75,30.5161,31.5263,137.112,105.141,107.486,0.000753644,0.0463242,21.0062,616.447,-0.199486,0.0,0.0
134,33.25,29.8885,31.2144,141.542,105.149,106.467,0.000751532,0.0463727,21.006,616.447,-0.112663,0.0,0.0
136,33.75,30.6047,31.3436,141.216,105.146,106.742,0.00074982,0.046399,21.0056,616.457,-0.136196,0.0,0.0
138,34.25,30.3637,31.3274,137.527,105.144,106.668,0.000758148,0.0464203,21.0053,616.477,-0.130136,0.0,0.0
140,34.75,29.8837,31.3785,143.165,105.136,106.765,0.000764894,0.0464103,21.0051,616.457,-0.139078,0.0,0.0
142,35.25,30.7299,31.0737,139.581,105.138,106.475,0.00079344,0.0464022,21.0051,616.477,-0.114278,0.0,0.0
144,35.75,30.5874,31.3202,139.42,105.124,107.271,0.000816563,0.0464028,21.0053,616.467,-0.182889,0.0,0.0
146,36.25,30.3319,31.5246,143.669,105.136,106.404,0.000835292,0.0464098,21.0055,616.477,-0.108484,0.0,0.0
148,36.75,30.3503,31.4858,141.077,105.115,106.783,0.000868695,0.046429,21.0054,616.477,-0.142435,0.0,0.0
150,37.25,30.7178,31.0798,139.856,105.124,106.509,0.000895752,0.0464447,21.0051,616.467,-0.118403,0.0,0.0
152,37.75,31.0602,31.2712,141.96,105.121,106.503,0.000922532,0.0464358,21.0052,616.467,-0.118107,0.0,0.0
154,38.25,30.6378,31.3088,137.921,105.118,106.38,0.000944224,0.0464092,21.0054,616.447,-0.107949,0.0,0.0
156,38.75,30.8832,31.4516,140.993,105.121,105.692,0.000964226,0.0464092,21.0055,616.447,-0.0490121,0.0,0.0
158,39.25,30.3729,31.3426,138.44,105.11,106.299,0.000980428,0.0464286,21.0057,616.427,-0.101786,0.0,0.0
160,39.75,30.8942,31.752,138.062,105.107,105.929,0.00100206,0.0464443,21.0056,616.437,-0.0705155,0.0,0.0
162,40.25,30.7711,31.2205,139.742,105.102,106.582,0.00101959,0.0464843,21.0053,616.437,-0.126466,0.0,0.0
164,40.75,30.4557,31.7117,141.634,105.107,106.183,0.00104474,0.0465167,21.005,616.427,-0.0921654,0.0,0.0
166,41.25,30.6599,31.0445,141.474,105.096,105.56,0.0010651,0.0466112,21.0048,616.447,-0.0398669,0.0,0.0
168,41.75,30.8088,31.3425,137.243,105.106,106.151,0.00109121,0.0466878,21.0047,616.417,-0.0895002,0.0,0.0
170,42.25,30.8778,31.2683,139.803,105.091,105.466,0.001121,0.0469798,21.0028,616.417,-0.032241,0.0,0.0
172,42.75,31.1802,31.5631,140.235,105.089,106.269,0.00114513,0.0474233,21.0013,616.397,-0.101031,0.0,0.0
174,43.25,30.4969,31.5675,141.857,105.092,106.707,0.00119546,0.04838,21,616.417,-0.137926,0.0,0.0
176,43.75,30.2597,31.133,142.655,105.1,105.869,0.00126392,0.0496927,20.9969,616.387,-0.0659262,0.0,0.0
178,44.25,30.4296,31.4957,142.745,105.08,105.937,0.00136564,0.0520492,20.9943,616.407,-0.0734806,0.0,1.0
180,44.75,30.8178,31.6787,137.327,105.087,104.428,0.00148967,0.0551219,20.9878,616.387,0.0568782,0.0,1.0
182,45.25,30.7528,31.9829,141.155,105.087,104.364,0.00166747,0.0576109,20.9826,616.407,0.0624432,0.0,1.0
184,45.75,30.614,31.267,137.6,105.075,104.05,0.00188111,0.0627482,20.9783,616.357,0.0886825,0.0,1.0
186,46.25,31.3122,31.6107,135.886,105.068,101.737,0.00205416,0.0697187,20.967,616.347,0.291484,0.0,1.0
188,46.75,31.241,31.449,133.371,105.071,100.588,0.00237861,0.0753648,20.9579,616.327,0.394398,0.0,1.0
190,47.25,31.1634,31.4709,133.861,105.065,98.9801,0.00280727,0.087592,20.9415,616.297,0.539647,0.0,1.0
192,47.75,31.0572,31.8937,136.317,105.067,96.8423,0.00333195,0.10143,20.9282,616.236,0.737379,0.0,1.0
194,48.25,31.831,32.1685,132.204,105.054,94.2326,0.00391666,0.116179,20.9056,616.226,0.983314,0.0,1.0
196,48.75,31.0375,32.2748,133.687,105.071,92.8805,0.00465244,0.128126,20.8873,616.196,1.1155,0.0,1.0
198,49.25,31.8941,32.2632,132.363,105.053,90.3495,0.00548436,0.137802,20.8537,616.146,1.36388,0.0,1.0
200,49.75,31.0554,31.0855,131.316,105.051,89.3346,0.00615822,0.163406,20.8264,616.096,1.46592,0.0,1.0
202,50.25,30.2324,30.7596,121.107,105.04,86.8376,0.00644549,0.184146,20.8148,616.046,1.72133,0.0,1.0
204,50.75,30.5893,30.7188,128.959,105.051,85.839,0.00816716,0.217098,20.7772,615.936,1.82693,0.0,1.0
206,51.25,31.5504,30.9106,127.319,105.046,83.8428,0.0100545,0.24379,20.7308,615.896,2.03938,0.0,1.0
208,51.75,31.0057,31.0298,120.488,105.039,76.5885,0.0120266,0.287284,20.6756,615.786,2.85731,0.0,1.0
210,52.25,31.9187,31.5471,122.457,105.026,77.0063,0.0136241,0.322514,20.6149,615.646,2.80704,0.0,1.0
212,52.75,32.2295,31.4743,113.13,105.034,74.711,0.0155028,0.385988,20.5658,615.536,3.08137,0.0,0.0
214,53.25,33.2167,31.9253,113.95,105.02,72.1288,0.0175507,0.413048,20.4906,615.456,3.39834,0.0,0.0
216,53.75,33.5683,32.3839,112.537,105.026,69.4185,0.0195541,0.45932,20.4296,615.256,3.74532,0.0,0.0
218,54.25,35.5755,33.8047,106.527,105.009,72.221,0.021487,0.532322,20.3497,615.115,3.38583,0.0,0.0
220,54.75,37.0557,35.3452,109.808,105.01,64.0506,0.0231974,0.591453,20.2849,614.955,4.47189,0.0,0.0
222,55.25,38.62,36.202,114.199,104.993,67.0794,0.0247131,0.652184,20.2324,614.815,4.05253,0.0,0.0
224,55.75,39.3195,36.4078,109.278,105.005,68.2564,0.0259113,0.701376,20.1899,614.715,3.89625,0.0,0.0
226,56.25,40.4161,37.3141,114.774,104.995,69.9267,0.0268554,0.741356,20.1554,614.525,3.67669,0.0,0.0
228,56.75,42.0565,38.0083,108.908,105.01,70.9206,0.0276201,0.77386,20.1275,614.445,3.55026,0.0,0.0
230,57.25,42.7137,38.6124,115.865,104.988,70.4097,0.0279614,0.795432,20.1049,614.365,3.61385,0.0,0.0
232,57.75,44.0814,39.8984,117.547,104.99,71.4101,0.0279877,0.808626,20.1055,614.275,3.48633,0.0,0.0
234,58.25,44.4201,40.3148,116.919,104.974,74.7347,0.0276969,0.812187,20.1059,614.175,3.07333,0.0,0.0
236,58.75,45.5343,41.6405,120.525,104.99,75.0557,0.0271805,0.808659,20.1246,614.095,3.03599,0.0,0.0
238,59.25,46.4905,42.8624,123.318,104.972,78.3724,0.0267622,0.805801,20.1398,614.025,2.64325,0.0,0.0
240,59.75,47.1749,42.8138,123.277,104.984,78.0761,0.0257218,0.783601,20.1717,613.944,2.67856,0.0,0.0
242,60.25,47.196,43.6836,120.631,104.969,77.9215,0.0248791,0.76562,20.1976,613.884,2.69525,0.0,0.0
244,60.75,47.9287,43.8313,125.265,104.969,79.9699,0.0234208,0.741952,20.2322,613.864,2.46053,0.0,0.0
246,61.25,48.2463,44.6355,127.268,104.97,84.0319,0.0222396,0.714588,20.2724,613.774,2.01241,0.0,0.0
248,61.75,48.5198,45.3476,128.365,104.966,84.6681,0.0206962,0.692424,20.3132,613.754,1.94389,0.0,0.0
250,62.25,48.5427,45.3928,128.037,104.952,87.0007,0.0194461,0.660097,20.3537,613.734,1.69686,0.0,0.0
252,62.75,49.0687,45.8487,129.651,104.959,91.4785,0.0181615,0.633912,20.3864,613.674,1.24346,0.0,0.0
254,63.25,49.1067,46.3851,130.95,104.924,93.3323,0.0168761,0.601697,20.4252,613.644,1.05897,0.0,0.0
256,63.75,49.0183,46.5077,130.345,104.948,92.5768,0.015835,0.575602,20.4566,613.634,1.13453,0.0,0.0
258,64.25,49.0722,46.4517,132.476,104.931,94.7454,0.0147125,0.542739,20.4821,613.594,0.923626,0.0,0.0
260,64.75,49.5166,46.3768,132.862,104.939,96.7202,0.0135521,0.51612,20.514,613.554,0.737679,0.0,0.0
262,65.25,48.9435,46.8819,135.65,104.92,98.1059,0.012471,0.490311,20.5399,613.544,0.607443,0.0,0.0
264,65.75,49.2978,46.9513,131.857,104.925,98.1921,0.0114683,0.465584,20.5697,613.524,0.599902,0.0,0.0
266,66.25,49.3877,47.187,131.533,104.913,99.8409,0.0106561,0.445555,20.5938,613.514,0.448219,0.0,0.0
268,66.75,49.0506,46.842,130.939,104.925,100.527,0.0098205,0.421076,20.6212,613.444,0.387289,0.0,0.0
270,67.25,48.9122,46.9931,137.137,104.914,102.09,0.00909245,0.401248,20.6433,613.454,0.246894,0.0,0.0
272,67.75,48.8294,47.1822,132.388,104.924,102.405,0.00845665,0.38198,20.6652,613.444,0.219759,0.0,0.0
274,68.25,48.9444,47.6555,134.544,104.894,103.374,0.00794165,0.363487,20.6865,613.414,0.132,0.0,0.0
276,68.75,48.5735,47.2099,136.594,104.896,102.849,0.0074859,0.348507,20.7037,613.414,0.178272,0.0,0.0
278,69.25,48.7271,47.221,139.587,104.889,104.746,0.00711675,0.331968,20.7204,613.424,0.0123274,0.0,0.0
280,69.75,48.5383,47.0305,132.222,104.885,103.411,0.00681774,0.318571,20.7364,613.394,0.127974,0.0,0.0
282,70.25,48.4205,47.1892,138.322,104.89,103.797,0.00657429,0.303743,20.7498,613.374,0.0947413,0.0,0.0
284,70.75,47.9704,47.7684,137.526,104.881,104.016,0.0063771,0.291733,20.7611,613.354,0.0749596,0.0,0.0
286,71.25,47.5214,46.8704,136.231,104.886,104.965,0.00621738,0.278544,20.7702,613.354,-0.0068126,0.0,0.0
288,71.75,48.1858,46.6286,136.047,104.869,105.976,0.00609256,0.267861,20.7775,613.324,-0.094996,0.0,0.0
290,72.25,47.5644,47.077,136.958,104.87,106.314,0.00599555,0.259208,20.787,613.334,-0.123696,0.0,0.0
292,72.75,47.5383,47.4358,135.357,104.854,105.577,0.00593074,0.248261,20.7947,613.294,-0.0621351,0.0,0.0
294,73.25,47.9578,47.2996,136.945,104.848,105.788,0.00589063,0.239394,20.8037,613.294,-0.0807437,0.0,0.0
296,73.75,47.1572,47.1215,138.587,104.846,105.471,0.00585814,0.230881,20.811,613.294,-0.0537246,0.0,0.0
298,74.25,46.778,47.0203,134.051,104.839,106.19,0.00589166,0.222787,20.8199,613.294,-0.115813,0.0,0.0
300,74.75,46.9435,46.6298,135.912,104.839,106.027,0.00595231,0.216231,20.8272,613.264,-0.101914,0.0,0.0
302,75.25,46.8633,46.7087,137.74,104.83,106.488,0.0060316,0.209562,20.8361,613.254,-0.142009,0.0,0.0
304,75.75,46.7612,46.8266,135.992,104.835,107.043,0.00613533,0.202938,20.8434,613.224,-0.188608,0.0,0.0
306,76.25,46.9207,46.5267,134.974,104.82,107.453,0.00625489,0.19684,20.8505,613.214,-0.224379,0.0,0.0
308,76.75,46.4045,46.4208,136.968,104.818,105.986,0.00639594,0.191242,20.8564,613.214,-0.100241,0.0,0.0
310,77.25,46.3831,46.2819,132.52,104.802,106.629,0.00654996,0.186707,20.8624,613.194,-0.156323,0.0,0.0
312,77.75,46.2542,46.748,137.435,104.813,106.472,0.00667472,0.181489,20.8673,613.184,-0.142047,0.0,0.0
314,78.25,46.0754,46.5142,137.617,104.804,107.805,0.00683463,0.177263,20.8712,613.184,-0.255395,0.0,0.0
316,78.75,46.0743,46.5458,137.818,104.796,107.216,0.00701713,0.172446,20.8757,613.154,-0.206479,0.0,0.0
318,79.25,45.7118,46.5642,140.187,104.802,107.773,0.00718948,0.168544,20.8794,613.154,-0.25288,0.0,0.0
320,79.75,45.7703,46.1363,136.015,104.783,107.097,0.00735115,0.164139,20.8837,613.154,-0.197581,0.0,0.0
322,80.25,45.3937,46.2879,136.28,104.794,106.096,0.00748939,0.16057,20.8871,613.154,-0.111699,0.0,0.0
324,80.75,45.5185,46.3235,138.29,104.777,107.718,0.00760794,0.156253,20.8908,613.134,-0.250382,0.0,0.0
326,81.25,45.2098,45.8989,139.413,104.775,108.28,0.00770927,0.152757,20.8938,613.114,-0.297611,0.0,0.0
328,81.75,45.1681,46.0655,134.639,104.773,106.939,0.00779612,0.149192,20.8971,613.084,-0.185077,0.0,0.0
330,82.25,44.9215,45.7611,136.615,104.789,106.779,0.00786647,0.145646,20.9006,613.094,-0.170128,0.0,0.0
332,82.75,44.8219,46.0379,139.697,104.775,107.154,0.00794368,0.142773,20.9042,613.084,-0.203112,0.0,0.0
334,83.25,44.4418,45.7982,137.895,104.759,106.77,0.00800621,0.139413,20.9077,613.084,-0.17193,0.0,0.0
336,83.75,44.7005,45.8394,136.043,104.755,107.424,0.00807579,0.136215,20.9108,613.084,-0.227605,0.0,0.0
338,84.25,44.3194,45.8708,138.278,104.762,107.208,0.00813214,0.133198,20.9133,613.094,-0.208806,0.0,0.0
340,84.75,44.4112,45.7141,138.17,104.75,106.992,0.00817779,0.130753,20.9158,613.094,-0.191575,0.0,0.0
342,85.25,44.223,45.2611,138.511,104.759,106.994,0.00825932,0.127829,20.9182,613.094,-0.190963,0.0,0.0
344,85.75,43.9921,45.6021,138.438,104.746,108.33,0.00836544,0.12546,20.9207,613.094,-0.304294,0.0,0.0
346,86.25,43.9768,45.1417,134.545,104.747,107.377,0.00848271,0.122881,20.9231,613.064,-0.224337,0.0,0.0
348,86.75,43.8297,45.7406,138.83,104.742,107.526,0.00860588,0.120791,20.925,613.044,-0.237244,0.0,0.0
350,87.25,43.5228,45.26,141.499,104.747,106.783,0.00873165,0.119099,20.9266,613.014,-0.174168,0.0,0.0
352,87.75,43.2827,45.2836,135.418,104.742,107.777,0.00885695,0.116985,20.9278,613.024,-0.258452,0.0,0.0
354,88.25,43.5609,45.1862,134.97,104.747,107.861,0.00897646,0.115273,20.9293,613.044,-0.265012,0.0,0.0
356,88.75,43.2231,44.7983,137.839,104.733,106.356,0.0090895,0.113583,20.9305,613.034,-0.139081,0.0,0.0
358,89.25,43.3878,45.1399,136.779,104.742,107.037,0.00918974,0.111943,20.9314,613.074,-0.196051,0.0,0.0
360,89.75,42.8628,44.9493,137.402,104.732,107.358,0.00927876,0.110386,20.9322,613.044,-0.224005,0.0,0.0
362,90.25,42.5869,45.0641,137.752,104.753,106.927,0.00931671,0.10892,20.933,613.054,-0.185729,0.0,0.0
364,90.75,42.5784,44.6014,137.798,104.736,107.712,0.0094032,0.107505,20.9344,613.044,-0.253452,0.0,0.0
366,91.25,42.4318,44.6457,137.737,104.741,107.213,0.00947325,0.106153,20.9355,613.034,-0.211026,0.0,0.0
368,91.75,42.5301,44.7304,139.137,104.727,107.398,0.00952999,0.104867,20.9364,613.014,-0.227815,0.0,0.0
370,92.25,42.6762,44.574,140.368,104.743,107.032,0.00957595,0.103653,20.9375,613.004,-0.195505,0.0,0.0
372,92.75,41.9164,44.5917,142.648,104.732,106.417,0.0096844,0.102458,20.9384,613.014,-0.144306,0.0,0.0
374,93.25,42.2205,44.3828,141.645,104.734,107.096,0.00977224,0.101847,20.9394,613.014,-0.201738,0.0,0.0
376,93.75,42.2254,43.8095,138.506,104.726,107.847,0.00987221,0.100358,20.9404,613.024,-0.265662,0.0,0.0
378,94.25,41.8212,44.2391,139.836,104.74,107.454,0.00997914,0.099723,20.9413,613.014,-0.23139,0.0,0.0
380,94.75,41.8017,44.1629,134.505,104.718,107.749,0.0100879,0.0986369,20.9424,612.994,-0.258036,0.0,0.0
382,95.25,41.9169,44.1155,139.27,104.726,108.287,0.0101959,0.0977572,20.9433,612.984,-0.302503,0.0,0.0
384,95.75,42.028,43.9299,137.724,104.717,107.345,0.0102942,0.0970446,20.9444,612.984,-0.224257,0.0,0.0
386,96.25,41.7392,44.0573,136.07,104.737,106.679,0.0103834,0.0958137,20.9453,612.964,-0.166169,0.0,0.0
388,96.75,41.7462,43.7708,139.745,104.712,107.107,0.0104557,0.0948166,20.9465,612.954,-0.204581,0.0,0.0
390,97.25,41.2721,43.77,138.552,104.725,107.003,0.0105079,0.0938701,20.9475,612.954,-0.194634,0.0,0.0
392,97.75,41.1542,43.5436,137.766,104.709,106.961,0.0105502,0.0929784,20.9483,612.964,-0.192474,0.0,0.0
394,98.25,41.395,43.5752,141.886,104.726,107.912,0.0105704,0.0922561,20.9489,612.944,-0.271093,0.0,0.0
396,98.75,41.3841,43.8252,136.386,104.706,107.148,0.0105867,0.0914073,20.9495,612.924,-0.208589,0.0,0.0
398,99.25,41.3414,43.4367,141.048,104.717,107.964,0.0106,0.0905663,20.9503,612.914,-0.276192,0.0,0.0
400,99.75,40.6786,43.4463,136.648,104.718,106.537,0.0106056,0.0897471,20.951,612.924,-0.155759,0.0,0.0
402,100.25,40.9109,43.368,134.841,104.726,107.488,0.0106102,0.0890836,20.9516,612.924,-0.235456,0.0,0.0
404,100.75,40.6343,42.9291,144.046,104.701,106.898,0.0106253,0.0882411,20.952,612.833,-0.187848,0.0,0.0
406,101.25,40.825,43.321,136.995,104.719,106.672,0.0106376,0.0875587,20.9526,612.833,-0.167147,0.0,0.0
408,101.75,40.552,43.2051,135.466,104.706,107.729,0.0106655,0.0868309,20.9533,612.833,-0.257489,0.0,0.0
410,102.25,40.439,43.0596,137.013,104.72,107.41,0.010688,0.0860839,20.9539,612.823,-0.229383,0.0,0.0
412,102.75,40.5467,43.0701,140.497,104.71,106.89,0.010728,0.0854788,20.9543,612.833,-0.186375,0.0,0.0
414,103.25,40.272,43.0884,138.404,104.73,106.997,0.0107603,0.0846703,20.9549,612.833,-0.19376,0.0,0.0
416,103.75,40.2482,43.2585,139.801,104.71,106.749,0.010798,0.0840153,20.9556,612.833,-0.174388,0.0,0.0
418,104.25,40.2767,42.6873,139.131,104.721,106.258,0.0108388,0.083305,20.9564,612.854,-0.131784,0.0,0.0
420,104.75,39.8761,42.8233,139.504,104.707,106.539,0.0108765,0.0827296,20.9572,612.844,-0.156863,0.0,0.0
422,105.25,40.2177,42.7269,137.373,104.719,106.52,0.0109114,0.0820699,20.9579,612.833,-0.154258,0.0,0.0
424,105.75,40.062,42.5581,138.451,104.709,106.061,0.0109396,0.0813973,20.9585,612.844,-0.116017,0.0,0.0
426,106.25,39.3161,42.229,141.042,104.723,106.908,0.0109523,0.0807281,20.9589,612.833,-0.186744,0.0,0.0
428,106.75,40.0814,42.7626,137.733,104.705,106.805,0.0109536,0.0801861,20.9595,612.814,-0.179597,0.0,0.0
430,107.25,40.1859,42.6952,136.815,104.714,107.27,0.0109358,0.0794983,20.9602,612.833,-0.218116,0.0,0.0
432,107.75,39.5638,42.4612,135.254,104.704,106.926,0.0109044,0.0789412,20.9608,612.844,-0.189957,0.0,0.0
434,108.25,39.7953,42.6622,136.412,104.711,106.802,0.0108528,0.07849,20.9617,612.854,-0.178814,0.0,0.0
436,108.75,39.2734,42.0252,141.675,104.704,106.632,0.0107874,0.0777794,20.9624,612.833,-0.1651,0.0,0.0
438,109.25,39.1764,42.2555,138.901,104.713,107.001,0.0107056,0.0772037,20.9634,612.823,-0.195459,0.0,0.0
440,109.75,39.6885,41.8555,138.727,104.711,106.879,0.0106135,0.0765995,20.9642,612.823,-0.185359,0.0,0.0
442,110.25,39.6845,42.4741,138.183,104.715,106.459,0.0105388,0.0759859,20.9649,612.793,-0.14948,0.0,0.0
444,110.75,39.0836,42.2658,138.171,104.704,106.622,0.010421,0.0754163,20.9655,612.753,-0.164271,0.0,0.0
446,111.25,39.1405,41.8957,136.762,104.712,107.04,0.0103257,0.0748896,20.9659,612.763,-0.198878,0.0,0.0
448,111.75,38.8907,42.1422,139.858,104.7,106.427,0.0102141,0.074405,20.9662,612.763,-0.148027,0.0,0.0
450,112.25,39.3474,42.2706,131.897,104.709,106.512,0.0101237,0.0739601,20.9668,612.753,-0.15439,0.0,0.0
452,112.75,39.0803,41.7609,133.568,104.697,106.602,0.0100505,0.073549,20.9674,612.753,-0.163119,0.0,0.0
454,113.25,38.8489,41.7271,135.374,104.71,106.873,0.00996203,0.0731703,20.9679,612.763,-0.184957,0.0,0.0
456,113.75,39.1048,41.875,137.438,104.713,107.403,0.00989034,0.0728636,20.9683,612.763,-0.229376,0.0,0.0
458,114.25,38.9763,41.9408,136.214,104.716,105.979,0.00981825,0.0723947,20.9686,612.733,-0.108437,0.0,0.0
460,114.75,38.8738,41.6862,139.816,104.716,106.008,0.00974724,0.0720149,20.9689,612.753,-0.110866,0.0,0.0
462,115.25,38.286,41.6689,141.24,104.714,106.285,0.00968972,0.071418,20.9691,612.763,-0.134704,0.0,0.0
464,115.75,38.4425,41.437,137.318,104.717,106.569,0.00962377,0.0709346,20.9693,612.723,-0.158557,0.0,0.0
466,116.25,38.6918,41.5212,140.906,104.72,106.721,0.00955294,0.070543,20.9695,612.713,-0.171217,0.0,0.0
468,116.75,37.5178,40.2357,136.251,104.732,106.611,0.00949557,0.0700331,20.9703,612.693,-0.160876,0.0,0.0
470,117.25,36.9413,39.9178,136.313,104.728,106.233,0.00941996,0.0696201,20.9709,612.713,-0.129019,0.0,0.0
472,117.75,36.6999,39.6664,139.786,104.736,107.653,0.00935871,0.0691841,20.9714,612.683,-0.248483,0.0,0.0
474,118.25,36.8273,39.8786,142.046,104.729,107.17,0.00928758,0.0687398,20.9719,612.693,-0.208353,0.0,0.0
476,118.75,36.7643,39.8469,138.942,104.74,106.446,0.00922997,0.0683799,20.9722,612.703,-0.146145,0.0,0.0
478,119.25,36.9711,39.6188,141.214,104.743,106.748,0.00915546,0.0680015,20.9725,612.713,-0.171461,0.0,0.0
480,119.75,36.5387,39.4549,139.868,104.741,107.056,0.00909511,0.0676169,20.9729,612.733,-0.197734,0.0,0.0
482,120.25,36.4909,39.5789,138.988,104.746,106.957,0.00904623,0.0672763,20.9735,612.743,-0.188986,0.0,0.0
484,120.75,36.1208,38.8806,140.341,104.749,106.313,0.00895861,0.0669744,20.974,612.753,-0.134013,0.0,0.0
486,121.25,36.519,39.033,144.589,104.749,106.646,0.00888763,0.0667299,20.9744,612.703,-0.16234,0.0,0.0
488,121.75,36.3164,39.0503,139.621,104.753,106.574,0.00878847,0.0664081,20.9749,612.633,-0.155925,0.0,0.0
490,122.25,36.4563,39.1513,140.426,104.748,106.426,0.00870816,0.0661475,20.9755,612.643,-0.143751,0.0,0.0
492,122.75,36.1976,39.08,140.452,104.754,106.151,0.0085914,0.0657989,20.9761,612.643,-0.11981,0.0,0.0
494,123.25,35.9596,39.0712,138.549,104.742,107.178,0.00849683,0.0655166,20.9765,612.653,-0.207966,0.0,0.0
496,123.75,36.1482,38.5627,139.675,104.752,107.271,0.00836356,0.0652879,20.9768,612.663,-0.214909,0.0,0.0
498,124.25,36.1774,39.2451,139.199,104.751,106.049,0.00825561,0.064979,20.9771,612.643,-0.111369,0.0,0.0
500,124.75,35.6811,38.6231,137.471,104.767,106.477,0.00813839,0.0647288,20.9773,612.603,-0.146422,0.0,0.0
502,125.25,36.2779,39.0524,142.244,104.749,107.005,0.00801664,0.0644437,20.9775,612.573,-0.192711,0.0,0.0
504,125.75,35.862,38.7691,136.669,104.761,105.888,0.00789164,0.0642128,20.9776,612.553,-0.0968535,0.0,0.0
506,126.25,35.7366,38.4214,138.395,104.756,106.574,0.0077904,0.0639983,20.9778,612.573,-0.15567,0.0,0.0
508,126.75,35.4054,38.4228,137.905,104.769,106.792,0.00770839,0.0638246,20.9779,612.573,-0.17306,0.0,0.0
510,127.25,35.7197,38.654,137.523,104.762,106.863,0.00762016,0.0636289,20.9779,612.563,-0.179603,0.0,0.0
512,127.75,35.6187,38.4083,142.9,104.778,106.24,0.00752908,0.0634704,20.978,612.573,-0.125271,0.0,0.0
514,128.25,35.623,38.6339,139.826,104.771,106.271,0.00743024,0.0633059,20.9781,612.583,-0.128585,0.0,0.0
516,128.75,35.1365,38.6259,141.148,104.784,107.423,0.00732761,0.0631401,20.9781,612.593,-0.225006,0.0,0.0
518,129.25,35.7727,38.855,137.264,104.774,106.681,0.00721681,0.0630058,20.9781,612.583,-0.163152,0.0,0.0
520,129.75,35.4587,38.6198,139.57,104.781,106.826,0.00710216,0.0628146,20.9782,612.563,-0.174806,0.0,0.0
522,130.25,35.3022,38.4072,139.017,104.795,106.307,0.00697837,0.0626598,20.9782,612.563,-0.12952,0.0,0.0
524,130.75,35.5377,38.5147,138.808,104.784,106.866,0.00685027,0.0624694,20.9786,612.553,-0.177941,0.0,0.0
526,131.25,35.4365,38.6471,140.531,104.769,107.21,0.00671825,0.0622566,20.979,612.553,-0.208267,0.0,0.0
528,131.75,35.5655,38.2956,136.202,104.783,107.13,0.0065859,0.0620554,20.9793,612.533,-0.200301,0.0,0.0
530,132.25,35.3304,38.0535,140.806,104.771,106.913,0.00645573,0.0618664,20.9795,612.513,-0.183014,0.0,0.0
532,132.75,35.1978,38.6215,134.867,104.789,107.359,0.00632963,0.0617133,20.9797,612.503,-0.21923,0.0,0.0
534,133.25,35.7745,38.0135,137.247,104.771,106.504,0.00622748,0.0615069,20.9799,612.503,-0.148388,0.0,0.0
536,133.75,35.4915,37.9496,138.562,104.785,106.591,0.00611919,0.0613398,20.98,612.503,-0.154539,0.0,0.0
538,134.25,35.6971,37.9587,131.548,104.761,106.701,0.00600847,0.061177,20.9806,612.493,-0.165943,0.0,0.0
540,134.75,35.3378,37.6481,138.585,104.783,106.646,0.00591878,0.0610451,20.981,612.493,-0.159387,0.0,0.0
542,135.25,35.5801,37.9079,136.877,104.768,107.371,0.00580883,0.0608971,20.9814,612.463,-0.222002,0.0,0.0
544,135.75,35.3114,38.2786,138.846,104.782,106.896,0.00571976,0.0607772,20.9816,612.443,-0.180686,0.0,0.0
546,136.25,35.4944,38.0617,140.7,104.77,107.068,0.00562277,0.0605704,20.9821,612.443,-0.196239,0.0,0.0
548,136.75,35.2538,38.007,139.29,104.789,106.466,0.0055442,0.0604028,20.9827,612.463,-0.143612,0.0,0.0
550,137.25,34.9902,38.2587,137.651,104.778,106.948,0.00546442,0.0602671,20.9832,612.453,-0.185385,0.0,0.0
552,137.75,34.9386,37.5864,137.134,104.814,106.352,0.00539979,0.0600612,20.9835,612.463,-0.131723,0.0,0.0
554,138.25,35.0715,37.8433,138.284,104.789,105.995,0.00534745,0.0598944,20.9839,612.493,-0.103439,0.0,0.0
556,138.75,35.4703,37.8925,142.58,104.781,106.796,0.00529394,0.0596908,20.9841,612.473,-0.172278,0.0,0.0
558,139.25,35.2583,37.5747,139.159,104.773,106.442,0.0052406,0.0595258,20.9844,612.503,-0.14294,0.0,0.0
560,139.75,35.221,37.756,140.838,104.792,107.301,0.00518826,0.0594059,20.9847,612.513,-0.213995,0.0,0.0
562,140.25,35.0022,37.8341,134.908,104.771,106.464,0.00513763,0.0593087,20.9849,612.493,-0.145022,0.0,0.0
564,140.75,35.0644,38.2387,139.009,104.787,106.516,0.00509662,0.0592301,20.9851,612.463,-0.148027,0.0,0.0
566,141.25,34.9329,37.2306,137.869,104.78,107.287,0.0050386,0.0591303,20.9852,612.463,-0.213799,0.0,0.0
568,141.75,35.1042,37.7577,138.904,104.773,107.289,0.0049916,0.0590169,20.9853,612.423,-0.214653,0.0,0.0
570,142.25,34.911,37.6501,141.459,104.766,106.649,0.00494832,0.0588602,20.9854,612.393,-0.161196,0.0,0.0
572,142.75,34.9098,37.6343,140.399,104.775,106.4,0.00490856,0.0586748,20.9855,612.373,-0.139198,0.0,0.0
574,143.25,34.854,37.7881,138.843,104.767,107.125,0.00487962,0.0585247,20.9856,612.333,-0.201333,0.0,0.0
576,143.75,34.7729,37.36,143.421,104.777,106.955,0.00485911,0.0583756,20.9861,612.383,-0.186164,0.0,0.0
578,144.25,34.6895,37.8187,140.093,104.76,106.516,0.0048425,0.0582549,20.9864,612.423,-0.150402,0.0,0.0
580,144.75,35.6151,37.7348,139.979,104.771,107.673,0.00482904,0.0581571,20.9868,612.353,-0.247137,0.0,0.0
582,145.25,34.7146,37.7076,138.328,104.761,107.161,0.00481815,0.0580779,20.987,612.413,-0.204906,0.0,0.0
584,145.75,34.702,37.7323,140.045,104.773,106.923,0.00479073,0.0579777,20.9872,612.433,-0.183775,0.0,0.0
586,146.25,35.1373,37.3432,139.41,104.761,107.699,0.00476852,0.0578641,20.9874,612.443,-0.250128,0.0,0.0
588,146.75,34.5825,37.0877,133.535,104.767,106.935,0.00473815,0.057736,20.9875,612.373,-0.185307,0.0,0.0
590,147.25,35.0317,36.97,136.233,104.756,106.103,0.00471354,0.0575997,20.9877,612.373,-0.115502,0.0,0.0
592,147.75,33.9698,37.3211,139.727,104.767,106.716,0.00469361,0.0574606,20.9877,612.363,-0.16681,0.0,0.0
594,148.25,34.3707,37.5112,138.567,104.763,106.583,0.0046589,0.0573219,20.9878,612.383,-0.15584,0.0,0.0
596,148.75,34.3197,37.0502,137.996,104.766,106.529,0.00463078,0.0572095,20.9879,612.373,-0.150922,0.0,0.0
598,149.25,34.5389,37.0936,139.699,104.764,107.046,0.00459934,0.0571596,20.9879,612.353,-0.194901,0.0,0.0
600,149.75,34.5192,37.2355,137.665,104.759,107.529,0.00457387,0.0571192,20.988,612.313,-0.23602,0.0,0.0
602,150.25,34.6835,37.4069,139.129,104.763,107.691,0.00454543,0.0571297,20.988,612.313,-0.249317,0.0,0.0
604,150.75,35.0915,37.2873,137.169,104.767,107.024,0.00451535,0.0571772,20.988,612.343,-0.192829,0.0,0.0
606,151.25,34.6883,37.132,136.737,104.774,106.757,0.00447993,0.0572157,20.988,612.353,-0.169663,0.0,0.0
608,151.75,34.2961,36.9682,140.519,104.766,106.819,0.00444127,0.0571963,20.9881,612.343,-0.175528,0.0,0.0
610,152.25,34.3714,36.5699,138.163,104.769,107.052,0.0043976,0.0571352,20.9881,612.353,-0.194935,0.0,0.0
612,152.75,34.3345,37.33,139.036,104.761,106.976,0.00435111,0.0570569,20.9881,612.363,-0.189248,0.0,0.0
614,153.25,34.2472,36.7232,139.934,104.783,106.586,0.00430694,0.0569675,20.9881,612.363,-0.154326,0.0,0.0
616,153.75,34.0916,36.836,138.265,104.764,107.264,0.00426532,0.0568807,20.9881,612.353,-0.213374,0.0,0.0
618,154.25,34.627,36.9298,134.989,104.769,106.617,0.0042316,0.0567973,20.9881,612.353,-0.158142,0.0,0.0
620,154.75,34.4937,36.5872,136.363,104.768,107.379,0.00420494,0.0567226,20.9881,612.353,-0.222669,0.0,0.0
622,155.25,34.6763,36.2915,139.527,104.769,106.208,0.00418393,0.0566556,20.9881,612.343,-0.123416,0.0,0.0
624,155.75,34.3937,37.0221,141.47,104.761,106.983,0.00416626,0.056587,20.9881,612.323,-0.189875,0.0,0.0
626,156.25,34.0435,36.878,136.525,104.772,107.284,0.00415137,0.0565184,20.9886,612.303,-0.214257,0.0,0.0
628,156.75,34.591,37.0647,139.43,104.757,107.022,0.00413475,0.0564628,20.9889,612.323,-0.19355,0.0,0.0
630,157.25,34.8753,36.6745,134.778,104.752,106.874,0.00411719,0.0563767,20.9892,612.323,-0.181385,0.0,0.0
632,157.75,34.4992,36.5819,142.441,104.753,106.956,0.00410298,0.0563069,20.9894,612.333,-0.18821,0.0,0.0
634,158.25,34.1883,36.5114,136.376,104.75,107.275,0.00406553,0.0562432,20.9896,612.313,-0.215521,0.0,0.0
636,158.75,33.9357,36.5576,139.577,104.758,107.109,0.0040352,0.0561851,20.9898,612.293,-0.200796,0.0,0.0
638,159.25,34.0567,37.0167,137.768,104.756,105.793,0.00396747,0.0561381,20.9899,612.323,-0.0891343,0.0,0.0
640,159.75,34.226,36.4262,140.648,104.754,105.713,0.0039126,0.0560589,20.99,612.333,-0.082464,0.0,0.0
642,160.25,34.3884,36.7097,141.007,104.755,106.675,0.00382874,0.0559947,20.9901,612.333,-0.16432,0.0,0.0
644,160.75,34.342,36.5586,143.416,104.766,106.609,0.0037608,0.0559154,20.9901,612.333,-0.157761,0.0,0.0
646,161.25,33.8729,36.2567,137.921,104.757,106.778,0.00370578,0.0558511,20.9902,612.343,-0.172862,0.0,0.0
648,161.75,34.225,36.8837,135.56,104.745,106.995,0.00366121,0.0557558,20.9902,612.343,-0.192173,0.0,0.0
650,162.25,34.3876,36.8017,143.054,104.756,106.961,0.00356974,0.0556397,20.9902,612.323,-0.188422,0.0,0.0
652,162.75,34.4682,36.6753,137.016,104.737,106.761,0.00345823,0.0555312,20.9901,612.313,-0.173151,0.0,0.0
654,163.25,34.1187,36.818,138.152,104.747,106.99,0.00342456,0.0554304,20.9901,612.293,-0.191673,0.0,0.0
656,163.75,34.4959,36.5937,135.657,104.744,106.822,0.00336699,0.0553488,20.99,612.253,-0.177698,0.0,0.0
658,164.25,34.4961,36.7138,142.156,104.755,106.46,0.00332488,0.0552826,20.99,612.243,-0.146016,0.0,0.0
660,164.75,34.1784,36.5031,141.707,104.741,106.527,0.00329485,0.055229,20.9899,612.273,-0.152993,0.0,0.0
662,165.25,33.9434,36.3241,137.748,104.756,106.934,0.00327894,0.0551856,20.9899,612.263,-0.186101,0.0,0.0
664,165.75,34.0148,36.4897,141.343,104.738,106.252,0.00327363,0.0551289,20.9899,612.263,-0.129806,0.0,0.0
666,166.25,33.6796,36.4713,136.241,104.761,106.347,0.00327839,0.0550634,20.9899,612.273,-0.135887,0.0,0.0
668,166.75,34.0216,36.1472,136.159,104.73,106.22,0.0032904,0.0550176,20.9898,612.233,-0.127805,0.0,0.0
670,167.25,33.4667,36.5692,139.033,104.74,106.555,0.00330402,0.054987,20.9898,612.223,-0.155402,0.0,0.0
672,167.75,33.9499,36.2047,140.192,104.727,106.517,0.00331855,0.0549622,20.9898,612.243,-0.153288,0.0,0.0
674,168.25,33.9873,36.0712,137.298,104.737,105.873,0.00333032,0.0549421,20.9898,612.223,-0.097544,0.0,0.0
676,168.75,34.1422,36.6273,139.581,104.724,106.564,0.00333985,0.0549258,20.9898,612.263,-0.157501,0.0,0.0
678,169.25,33.9512,35.8026,141.045,104.729,106.036,0.00335373,0.0549127,20.9898,612.263,-0.112234,0.0,0.0
680,169.75,33.9614,36.1051,137.602,104.72,107.356,0.00335964,0.054902,20.9898,612.203,-0.224792,0.0,0.0
682,170.25,33.7862,36.1267,140.437,104.732,105.555,0.00335376,0.0548933,20.9898,612.213,-0.070766,0.0,0.0
684,170.75,33.5452,35.7034,144.041,104.71,105.608,0.00334899,0.0548863,20.9898,612.233,-0.0772123,0.0,0.0
686,171.25,33.9319,36.1388,142.791,104.726,106.247,0.00332176,0.0548807,20.9898,612.233,-0.130395,0.0,0.0
688,171.75,33.6656,36.3661,134.162,104.711,107.174,0.0032997,0.0548761,20.9898,612.223,-0.210353,0.0,0.0
690,172.25,33.652,35.8639,139.115,104.712,106.573,0.00325356,0.0548723,20.9898,612.243,-0.159348,0.0,0.0
692,172.75,33.7773,36.1702,137.795,104.704,105.56,0.00321619,0.0548563,20.9898,612.213,-0.0736475,0.0,0.0
694,173.25,34.0859,36.123,137.073,104.731,106.873,0.00317428,0.054829,20.9898,612.133,-0.183131,0.0,0.0
696,173.75,33.5082,35.9707,139.148,104.695,106.922,0.00312986,0.054778,20.9898,612.183,-0.190448,0.0,0.0
698,174.25,33.8612,35.7893,136.823,104.714,107.203,0.00309387,0.0547108,20.9898,612.183,-0.212498,0.0,0.0
700,174.75,34.0095,35.699,139.066,104.707,107.198,0.00306473,0.0546419,20.9898,612.193,-0.212611,0.0,0.0
702,175.25,33.5302,35.8009,136.968,104.707,106.604,0.00304112,0.0545732,20.9898,612.163,-0.162397,0.0,0.0
704,175.75,33.6724,36.4313,142.21,104.682,106.596,0.0030478,0.0545103,20.9898,612.123,-0.163956,0.0,0.0
706,176.25,33.76,36.0946,139.647,104.704,106.193,0.00305321,0.0544529,20.9898,612.143,-0.127765,0.0,0.0
708,176.75,33.7595,36.1555,135.959,104.692,106.392,0.00306276,0.0543992,20.9898,612.173,-0.145712,0.0,0.0
710,177.25,33.5364,36.1142,140.484,104.691,107.042,0.00307516,0.0543492,20.9898,612.193,-0.200861,0.0,0.0
712,177.75,33.5507,35.7913,137.705,104.696,105.981,0.00308261,0.0543087,20.9898,612.173,-0.110276,0.0,0.0
714,178.25,33.6245,35.7931,139.962,104.706,106.221,0.00308632,0.0542759,20.9898,612.093,-0.130002,0.0,0.0
716,178.75,33.7041,36.0643,140.922,104.689,106.443,0.00308286,0.0542493,20.9898,612.063,-0.150323,0.0,0.0
718,179.25,34.1645,35.7833,135.194,104.709,106.596,0.00307423,0.0542566,20.9898,612.043,-0.16162,0.0,0.0
720,179.75,33.7005,35.9962,139.399,104.696,105.406,0.00306724,0.0542884,20.9898,612.023,-0.061164,0.0,0.0
722,180.25,33.7712,35.9663,137.037,104.703,106.748,0.00303948,0.0543358,20.9898,612.063,-0.174969,0.0,0.0
724,180.75,33.3596,35.815,142.284,104.697,106.165,0.00301698,0.0543937,20.9898,612.073,-0.125932,0.0,0.0
726,181.25,33.7924,36.091,135.849,104.74,106.138,0.00299812,0.0544045,20.9898,612.093,-0.119943,0.0,0.0
728,181.75,33.6013,35.8267,138.977,104.699,106.771,0.00298225,0.0543809,20.9902,612.073,-0.177229,0.0,0.0
730,182.25,33.6716,35.5746,137.291,104.701,106.159,0.0029694,0.0543617,20.9906,612.083,-0.125088,0.0,0.0
732,182.75,33.8789,35.528,140.4,104.701,105.901,0.00298233,0.054303,20.9909,612.073,-0.103114,0.0,0.0
734,183.25,33.5239,35.7884,141.628,104.704,106.323,0.00299281,0.0542165,20.9911,612.123,-0.138867,0.0,0.0
736,183.75,33.888,35.8115,138.489,104.7,107.103,0.00301112,0.0541393,20.9913,612.133,-0.205246,0.0,0.0
738,184.25,33.4783,35.611,135.996,104.71,106.456,0.00302596,0.0540703,20.9914,612.113,-0.149568,0.0,0.0
740,184.75,33.6554,35.521,140.973,104.696,106.271,0.00303797,0.0540143,20.9916,612.103,-0.135048,0.0,0.0
742,185.25,32.8938,35.5435,136.065,104.709,106.507,0.00304188,0.053969,20.9917,612.113,-0.154067,0.0,0.0
744,185.75,33.125,35.8086,140.781,104.697,106.069,0.00303981,0.0539323,20.9921,612.113,-0.11775,0.0,0.0
746,186.25,33.3093,35.6611,139.022,104.709,106.472,0.00303296,0.0539026,20.9925,612.073,-0.151024,0.0,0.0
748,186.75,33.7403,35.8517,135.256,104.698,106.365,0.00302276,0.0538785,20.9928,612.123,-0.142943,0.0,0.0
750,187.25,33.7644,35.6927,138.355,104.716,106.27,0.00301385,0.053859,20.993,612.143,-0.133253,0.0,0.0
752,187.75,33.5556,35.6283,138.078,104.723,106.065,0.00300605,0.0538144,20.9932,612.103,-0.115208,0.0,0.0
754,188.25,33.3793,35.4478,140.046,104.709,105.342,0.00299973,0.0537524,20.9934,612.113,-0.054511,0.0,0.0
756,188.75,33.5639,35.7415,139.067,104.702,106.872,0.0030093,0.0536877,20.9937,612.113,-0.185534,0.0,0.0
758,189.25,33.0553,35.5546,138.172,104.701,106.125,0.00301704,0.0536223,20.9939,612.113,-0.122229,0.0,0.0
760,189.75,33.1908,35.024,139.426,104.708,106.993,0.00302332,0.0535766,20.9941,612.073,-0.195304,0.0,0.0
762,190.25,33.3296,35.1146,139.284,104.703,105.806,0.00306036,0.0535461,20.9942,612.053,-0.0948124,0.0,0.0
764,190.75,33.0665,35.7205,140.653,104.705,106.697,0.00309037,0.0535213,20.9944,612.083,-0.170483,0.0,0.0
766,191.25,33.1689,35.4327,137.405,104.707,107.407,0.00311345,0.0534473,20.9945,612.093,-0.230351,0.0,0.0
768,191.75,33.4193,35.4277,138.035,104.719,106.989,0.00313214,0.0533874,20.9945,612.073,-0.194003,0.0,0.0
770,192.25,33.431,35.5323,138.202,104.709,105.89,0.00313252,0.0533389,20.9946,612.083,-0.101389,0.0,0.0
772,192.75,33.1987,35.2375,138.883,104.712,105.936,0.00313283,0.0532996,20.9947,612.083,-0.105109,0.0,0.0
774,193.25,33.4386,35.7377,140.935,104.705,106.231,0.00311465,0.0532678,20.9947,612.063,-0.130908,0.0,0.0
776,193.75,33.1785,35.6311,138.955,104.712,106.005,0.00309992,0.0532009,20.9947,612.093,-0.111029,0.0,0.0
778,194.25,33.3402,35.0231,138.54,104.706,106.294,0.0030783,0.0531468,20.9948,612.103,-0.136111,0.0,0.0
780,194.75,33.4961,35.5824,135.08,104.714,106.171,0.00305205,0.0531303,20.9948,612.083,-0.124948,0.0,0.0
782,195.25,33.4232,35.2321,136.702,104.705,106.865,0.00301238,0.053117,20.9948,612.033,-0.184724,0.0,0.0
784,195.75,33.6408,35.5062,139.575,104.721,106.364,0.00298024,0.0531134,20.9948,612.053,-0.14078,0.0,0.0
786,196.25,33.4405,35.4579,143.408,104.715,106.303,0.00295421,0.0531169,20.9948,612.073,-0.136177,0.0,0.0
788,196.75,33.9449,35.516,135.736,104.712,106.583,0.00290613,0.0531126,20.9948,612.063,-0.160144,0.0,0.0
790,197.25,33.0126,35.4731,134.832,104.71,106.772,0.00286718,0.0531026,20.9949,612.083,-0.176398,0.0,0.0
792,197.75,33.1382,34.949,136.395,104.711,106.266,0.00283761,0.0531017,20.9949,612.043,-0.133331,0.0,0.0
794,198.25,33.484,35.1577,136.524,104.698,106.276,0.00281542,0.0531075,20.9949,612.023,-0.135335,0.0,0.0
796,198.75,33.543,34.9976,138.179,104.708,106.765,0.00281683,0.0531121,20.9949,611.973,-0.176028,0.0,0.0
798,199.25,33.0291,35.1804,137.131,104.715,105.633,0.00283541,0.0531022,20.9951,611.963,-0.0789656,0.0,0.0
800,199.75,32.8704,35.5141,139.213,104.729,106.664,0.00287245,0.0530942,20.9954,612.023,-0.165672,0.0,0.0
802,200.25,33.2054,34.9846,138.92,104.698,106.298,0.00292224,0.0530877,20.9953,611.983,-0.137164,0.0,0.0
804,200.75,33.1213,34.9157,138.59,104.716,106.46,0.00296256,0.0530825,20.9951,612.023,-0.149374,0.0,0.0
806,201.25,33.0871,35.282,139.859,104.707,106.317,0.0030272,0.053085,20.9949,611.993,-0.138056,0.0,0.0
808,201.75,33.1825,35.4702,142.753,104.722,105.757,0.00307891,0.0530931,20.9947,612.003,-0.0889448,0.0,0.0
810,202.25,33.3716,35.3995,132.565,104.699,106.441,0.00312021,0.0531141,20.9946,612.033,-0.149248,0.0,0.0
812,202.75,33.2208,35.321,136.415,104.708,106.788,0.00315367,0.053144,20.9945,611.963,-0.177925,0.0,0.0
814,203.25,33.2228,35.1265,136.793,104.7,107.06,0.00315553,0.0531683,20.9944,611.973,-0.201626,0.0,0.0
816,203.75,33.0337,35.3098,135.544,104.718,106.985,0.00313432,0.0531195,20.9943,611.983,-0.193795,0.0,0.0
818,204.25,32.8944,35.3673,138.679,104.703,106.009,0.00309582,0.0530801,20.9943,611.973,-0.112192,0.0,0.0
820,204.75,33.3795,34.8165,138.408,104.711,106.17,0.00304543,0.053007,20.9942,611.983,-0.12516,0.0,0.0
822,205.25,32.9542,35.3234,139.515,104.716,106.132,0.00299106,0.0529479,20.9942,611.943,-0.121471,0.0,0.0
824,205.75,33.0441,35.0412,140.416,104.714,106.623,0.00296146,0.0528928,20.9942,611.983,-0.163397,0.0,0.0
826,206.25,33.1256,34.6693,139.133,104.696,105.75,0.00291084,0.0528417,20.9942,611.953,-0.0905767,0.0,0.0
828,206.75,33.2319,34.7861,136.463,104.712,106.542,0.00286125,0.0528074,20.9941,611.993,-0.156778,0.0,0.0
830,207.25,33.1746,35.1774,136.924,104.686,106.45,0.00282108,0.0527862,20.9941,611.923,-0.151096,0.0,0.0
832,207.75,33.0848,35.0054,138.169,104.727,106.591,0.00278855,0.052769,20.9941,611.943,-0.159578,0.0,0.0
834,208.25,33.1641,35.239,136.648,104.6875,105.981,0.00277317,0.0527688,20.9941,611.983,-0.111043,0.0,0.0
836,208.75,33.0625,34.6514,136.879,104.704,106.38,0.00277059,0.0527687,20.9945,611.973,-0.143663,0.0,0.0
838,209.25,33.0036,34.8476,139.551,104.693,106.467,0.0027685,0.0527325,20.9949,611.973,-0.151976,0.0,0.0
840,209.75,32.8486,34.7228,143.811,104.708,106.461,0.00277785,0.0526708,20.9951,611.983,-0.150187,0.0,0.0
842,210.25,33.0552,34.9606,140.658,104.69,105.999,0.00278542,0.0526208,20.9954,611.943,-0.112377,0.0,0.0
844,210.75,32.7785,34.5373,141.956,104.7,106.077,0.00279156,0.0525299,20.9956,611.973,-0.118173,0.0,0.0
846,211.25,32.7757,34.8392,139.113,104.685,105.216,0.00280267,0.052411,20.9957,611.953,-0.0457543,0.0,0.0
848,211.75,33.0048,35.0063,138.254,104.701,106.15,0.00281166,0.0523147,20.9958,611.933,-0.124333,0.0,0.0
850,212.25,32.597,34.6278,139.155,104.688,105.96,0.00281281,0.0522776,20.9959,611.923,-0.109257,0.0,0.0
852,212.75,32.8153,34.9148,145.126,104.7,105.621,0.00281374,0.0522476,20.996,611.893,-0.0791668,0.0,0.0
854,213.25,32.8839,34.377,142.418,104.702,105.903,0.00280959,0.0522162,20.9961,611.893,-0.103124,0.0,0.0
856,213.75,32.6966,34.415,140.561,104.702,106.607,0.00280622,0.0521842,20.9961,611.923,-0.163112,0.0,0.0
858,214.25,32.767,34.7613,145.272,104.676,105.747,0.00280841,0.0521583,20.9962,611.883,-0.0920908,0.0,0.0
860,214.75,32.8917,35.0344,137.405,104.705,106.186,0.00281018,0.0521236,20.9962,611.853,-0.126984,0.0,0.0
862,215.25,32.7812,34.9871,137.102,104.683,106.019,0.00282065,0.0520955,20.9962,611.843,-0.114668,0.0,0.0
864,215.75,32.4346,34.826,134.882,104.707,106.497,0.00283728,0.0520728,20.9967,611.853,-0.153303,0.0,0.0
866,216.25,32.7544,35.1572,137.349,104.676,106.611,0.00285721,0.0520544,20.997,611.823,-0.165732,0.0,0.0
868,216.75,32.6586,34.7554,141.339,104.689,106.307,0.00287917,0.0520395,20.9974,611.813,-0.138681,0.0,0.0
870,217.25,32.7986,34.6265,141.49,104.673,106.54,0.00289696,0.0520274,20.9976,611.833,-0.159979,0.0,0.0
872,217.75,32.5774,34.4236,138.959,104.692,106.261,0.00290646,0.051996,20.9978,611.833,-0.134618,0.0,0.0
874,218.25,32.6113,34.5776,140.979,104.683,105.785,0.00291415,0.0519512,20.998,611.833,-0.0947334,0.0,0.0
876,218.75,32.8122,34.7436,136.994,104.69,106.27,0.00291133,0.0519004,20.9981,611.793,-0.135514,0.0,0.0
878,219.25,32.6012,34.2418,137.037,104.678,106.215,0.00290091,0.0518464,20.9982,611.753,-0.13182,0.0,0.0
880,219.75,32.8409,34.8847,141.535,104.679,105.724,0.00288213,0.0518026,20.9983,611.823,-0.0898459,0.0,0.0
882,220.25,32.9287,34.4937,136.544,104.671,106.61,0.00285762,0.0517945,20.9983,611.773,-0.165979,0.0,0.0
884,220.75,33.0094,34.8565,141.106,104.676,106.397,0.00282809,0.0517879,20.9984,611.873,-0.147499,0.0,0.0
886,221.25,32.7046,34.8283,136.075,104.663,106.191,0.00279545,0.051725,20.9984,611.823,-0.131036,0.0,0.0
888,221.75,33.138,34.5707,138.018,104.671,106.179,0.00276901,0.0516223,20.9985,611.813,-0.12935,0.0,0.0
890,222.25,32.9423,34.7129,140.367,104.661,106.576,0.00273533,0.0515391,20.9983,611.763,-0.16401,0.0,0.0
892,222.75,32.9032,34.8538,136.083,104.679,105.819,0.00270806,0.0514853,20.9979,611.743,-0.0980449,0.0,0.0
894,223.25,32.6156,34.759,139.172,104.664,106.06,0.00268596,0.0514418,20.9976,611.753,-0.119808,0.0,0.0
896,223.75,32.8657,34.1007,134.932,104.66,105.926,0.00266807,0.0514065,20.9974,611.773,-0.108765,0.0,0.0
898,224.25,32.8451,35.0044,140.28,104.646,107.249,0.00265615,0.051378,20.9972,611.823,-0.222265,0.0,0.0
900,224.75,32.174,34.0674,141.917,104.657,105.856,,0.0513476,,611.803,-0.103016,0.0,0.0
902,225.25,32.7633,34.6033,138.098,104.654,105.969,,0.0513166,,611.803,-0.112975,0.0,0.0
904,225.75,32.5281,34.5095,140.035,104.655,106.362,,0.0512914,,611.793,-0.146391,0.0,0.0
906,226.25,32.7601,34.6105,138.088,104.655,106.253,,0.0512711,,611.763,-0.137081,0.0,0.0
908,226.75,32.847,34.4948,136.079,104.644,106.281,,0.0512762,,611.773,-0.140407,0.0,0.0
910,227.25,33.1679,34.6157,137.856,104.649,106.295,,0.0512997,,611.783,-0.141084,0.0,0.0
912,227.75,32.906,34.3422,142.375,104.648,106.926,,,,611.783,-0.194781,0.0,0.0
914,228.25,32.3649,34.5328,138.388,104.643,107.102,,,,611.803,-0.210061,0.0,0.0
916,228.75,32.8029,34.9775,137.162,104.643,106.336,,,,611.783,-0.145199,0.0,0.0
918,229.25,32.6189,34.5027,139.871,104.645,106.599,,,,611.733,-0.167334,0.0,0.0
920,229.75,32.6089,34.6816,139.362,104.639,106.456,,,,611.753,-0.155741,0.0,0.0
922,230.25,32.134,34.1657,141.356,104.639,106.382,,,,611.733,-0.149409,0.0,0.0
924,230.75,33.0162,34.5572,140.146,104.636,106.061,,,,611.763,-0.122371,0.0,0.0
926,231.25,32.8061,34.604,139.167,104.638,105.508,,,,611.773,-0.0748407,0.0,0.0
928,231.75,32.8675,34.6114,136.296,104.638,105.866,,,,611.753,-0.105456,0.0,0.0
930,232.25,32.7498,34.779,143.3,104.638,106.311,,,,611.743,-0.143422,0.0,0.0
932,232.75,32.6976,34.5647,137.182,104.633,106.352,,,,611.773,-0.147386,0.0,0.0
934,233.25,32.6565,34.4202,140.991,104.64,106.215,,,,611.743,-0.135108,0.0,0.0
936,233.75,32.7463,34.3943,137.363,104.635,106.11,,,,611.873,-0.126578,0.0,0.0
938,234.25,32.4647,34.3593,134.079,104.638,106.277,,,,611.803,-0.140564,0.0,0.0
940,234.75,32.4954,34.3884,138.672,104.628,106.34,,,,611.823,-0.146755,0.0,0.0
942,235.25,32.8873,34.5349,141.948,104.639,107.389,,,,611.773,-0.23459,0.0,0.0