File: 01_Data/Polyester_Bed_Skirt/Cone/Polyester_Bed_Skirt_Cone_HF50Scan_220523_R3.csv
Names,Time,Stack TC,Smoke TC,Exh Press,Smoke Comp,Smoke Meas,CO Meter,CO2 Meter,O2 Meter,Sample Mass,Ext Coeff,Start Test,Flame Verif
Chan Gain,,500,500,1,1,1,1,1,1,1,1,1.0,1.0
Offset,,0,0,0.139323,0,0,0,0,0,0,0,0.0,0.0
Gain,,1,1,25.011,13.8491,15.2622,1,1,1,1.00087,1.03118,1.0,1.0
Units,sec,C,C,Pa,%,%,%,%,%,g,/m,,
Baseline,,35.5144,36.6933,138.216,104.637,106.34,0.000514636,0.0453184,21.0018,-449.711,-0.145938,,
2,0.25,33.6474,35.1766,137.266,105.367,107.255,0.000322064,0.0484998,20.9968,601.504,-0.160665,0.0,0.0
4,0.75,33.2411,35.3522,139.887,105.365,107.08,0.000366622,0.0484914,20.997,601.323,-0.146103,0.0,0.0
6,1.25,32.4957,33.8353,139.626,105.382,107.246,0.000409992,0.0484563,20.9972,601.414,-0.158537,0.0,0.0
8,1.75,31.8162,33.4603,137.902,105.388,107.328,0.000445122,0.0484023,20.9974,601.464,-0.164939,0.0,0.0
10,2.25,32.2682,33.5774,139.766,105.379,106.407,0.000469938,0.0483586,20.9975,601.293,-0.0878728,0.0,0.0
12,2.75,31.9712,33.5758,135.714,105.376,107.067,0.000490039,0.0483368,20.9976,601.454,-0.144058,0.0,0.0
14,3.25,33.4109,34.1325,137.946,105.384,107.322,0.000506321,0.0483192,20.9977,601.283,-0.164831,0.0,0.0
16,3.75,32.1129,33.7037,135.737,105.379,107.111,0.000514658,0.0483869,20.9978,601.414,-0.147462,0.0,0.0
18,4.25,31.9743,33.7311,133.742,105.392,107.492,0.00052141,0.0484417,20.9979,601.354,-0.178459,0.0,0.0
20,4.75,32.0958,33.8343,140.652,105.388,106.608,0.000519603,0.0485437,20.9979,601.313,-0.104127,0.0,0.0
22,5.25,32.3732,33.2199,141.571,105.396,106.865,0.000518139,0.048678,20.9979,601.364,-0.125148,0.0,0.0
24,5.75,32.5052,33.0476,140.155,105.399,106.635,0.00050604,0.0488299,20.9977,601.333,-0.105512,0.0,0.0
26,6.25,32.2526,33.9381,136.928,105.401,107.676,0.00049624,0.0489918,20.9974,601.394,-0.193205,0.0,0.0
28,6.75,32.0129,33.9577,141.029,105.392,107.681,0.00047618,0.049123,20.9973,601.344,-0.194283,0.0,0.0
30,7.25,32.1948,33.6395,138.991,105.395,107.145,0.000459932,0.0492156,20.9975,601.384,-0.148919,0.0,0.0
32,7.75,32.2063,33.4989,136.921,105.409,107.811,0.000440394,0.0492905,20.9976,601.384,-0.203817,0.0,0.0
34,8.25,32.6197,33.6409,136.356,105.411,106.902,0.000418828,0.0493297,20.9977,601.354,-0.127035,0.0,0.0
36,8.75,32.5609,33.6679,139.669,105.391,107.29,0.000398809,0.049342,20.9978,601.404,-0.161542,0.0,0.0
38,9.25,31.8535,33.7037,137.502,105.431,107.019,0.000380299,0.0492944,20.9978,601.364,-0.135289,0.0,0.0
40,9.75,32.9284,33.8905,135.586,105.408,107.303,0.000365305,0.0492041,20.9979,601.364,-0.161194,0.0,0.0
42,10.25,33.0354,33.5791,137.169,105.416,107.322,0.000354435,0.0490735,20.9979,601.364,-0.16215,0.0,0.0
44,10.75,32.8246,33.5641,139.117,105.411,106.814,0.000346779,0.0489159,20.998,601.373,-0.119583,0.0,0.0
46,11.25,32.9498,34.0053,136.737,105.418,106.929,0.000339301,0.0487092,20.998,601.364,-0.128776,0.0,0.0
48,11.75,32.5348,33.6946,138.604,105.417,107.084,0.000332097,0.0484707,20.9984,601.364,-0.141881,0.0,0.0
50,12.25,32.593,34.0237,135.77,105.43,106.969,0.000333276,0.0482774,20.9988,601.323,-0.131148,0.0,0.0
52,12.75,32.8854,33.9215,134.896,105.427,107.554,0.000340545,0.0480253,20.9996,601.364,-0.1807,0.0,0.0
54,13.25,32.4921,34.0207,134.764,105.428,108.085,0.000357278,0.0478211,21.0002,601.354,-0.225172,0.0,0.0
56,13.75,32.8387,34.111,141.955,105.42,107.843,0.000380593,0.0475983,21.0006,601.344,-0.205606,0.0,0.0
58,14.25,32.9778,33.9099,134.412,105.435,108.349,0.000410968,0.047366,21.001,601.364,-0.24663,0.0,0.0
60,14.75,33.0332,34.7461,138.522,105.433,106.882,0.000445912,0.0471779,21.0013,601.364,-0.123454,0.0,0.0
62,15.25,32.9424,33.9483,137.366,105.443,107.578,0.000484437,0.0469573,21.0016,601.344,-0.181316,0.0,0.0
64,15.75,32.7166,34.1923,134.975,105.422,107.196,0.000505702,0.0467786,21.0017,601.364,-0.150961,0.0,0.0
66,16.25,33.0269,34.0733,136.676,105.435,107.593,0.000542064,0.0466065,21.0019,601.394,-0.183259,0.0,0.0
68,16.75,32.8666,33.8531,137.324,105.44,107.341,0.000578547,0.0464672,21.0021,601.354,-0.161614,0.0,0.0
70,17.25,33.1241,34.3826,140.334,105.431,107.501,0.000614424,0.0463134,21.0022,601.364,-0.17587,0.0,0.0
72,17.75,32.5827,33.7018,136.131,105.431,107.183,0.000637094,0.0461673,21.0023,601.354,-0.149063,0.0,0.0
74,18.25,33.178,34.1942,134.347,105.436,107.246,0.000649705,0.0460295,21.0024,601.364,-0.154006,0.0,0.0
76,18.75,33.484,34.0636,136.397,105.434,106.819,0.000659921,0.0459708,21.0024,601.323,-0.118019,0.0,0.0
78,19.25,33.5532,34.0424,138.005,105.457,107.324,0.000631796,0.0458632,21.0025,601.373,-0.158751,0.0,0.0
80,19.75,32.9461,34.074,135.317,105.447,107.273,0.000609015,0.0457696,21.0025,601.373,-0.155304,0.0,0.0
82,20.25,33.5569,34.0281,136.172,105.436,106.526,0.000590563,0.0456937,21.0026,601.323,-0.0930315,0.0,0.0
84,20.75,33.3448,34.1773,136.414,105.441,106.439,0.000558391,0.0455914,21.0026,601.364,-0.0852001,0.0,0.0
86,21.25,33.1246,34.165,137.222,105.436,107.051,0.000516828,0.0455085,21.0028,601.333,-0.137531,0.0,0.0
88,21.75,33.5699,34.0787,139.3,105.436,106.743,0.000483163,0.0454004,21.0029,601.313,-0.111518,0.0,0.0
90,22.25,33.3011,34.5895,139.353,105.439,107.112,0.000464376,0.0453129,21.003,601.313,-0.142358,0.0,0.0
92,22.75,33.2769,34.2509,136.93,105.443,106.907,0.000449159,0.045242,21.0031,601.344,-0.124709,0.0,0.0
94,23.25,33.2883,34.8956,140.764,105.436,107.394,0.000458654,0.0451486,21.0032,601.323,-0.16649,0.0,0.0
96,23.75,33.16,34.2184,137.629,105.441,107.059,0.000466344,0.0450407,21.0032,601.313,-0.137768,0.0,0.0
98,24.25,33.2134,33.9422,135.738,105.433,107.539,0.000472574,0.0449533,21.0033,601.344,-0.178823,0.0,0.0
100,24.75,33.276,34.2155,137.59,105.444,107.26,0.000506734,0.0448825,21.0033,601.323,-0.15442,0.0,0.0
102,25.25,33.4904,34.1196,134.613,105.434,107.158,0.000534404,0.0448252,21.0034,601.333,-0.146762,0.0,0.0
104,25.75,33.5466,34.8032,133.832,105.445,108.356,0.000553176,0.0447651,21.0034,601.344,-0.246305,0.0,0.0
106,26.25,33.3459,34.7246,139.69,105.428,106.984,0.000568381,0.0447164,21.0034,601.354,-0.132478,0.0,0.0
108,26.75,33.7841,34.6945,136.412,105.447,107.13,0.000561287,0.044677,21.0034,601.354,-0.143164,0.0,0.0
110,27.25,33.2794,34.7108,137.641,105.419,106.889,0.000555541,0.0446314,21.0034,601.373,-0.125277,0.0,0.0
112,27.75,33.2485,34.8048,136.782,105.436,106.785,0.000530275,0.0445945,21.0034,601.384,-0.11507,0.0,0.0
114,28.25,33.1991,34.4321,139.614,105.421,106.947,0.000509809,0.0445237,21.0035,601.394,-0.129982,0.0,0.0
116,28.75,33.6824,34.7238,135.354,105.447,107.179,0.00048494,0.0444664,21.0035,601.384,-0.147371,0.0,0.0
118,29.25,33.5149,34.7491,136.763,105.431,107.068,0.000457333,0.0444342,21.0035,601.394,-0.139349,0.0,0.0
120,29.75,33.3367,34.5229,136.963,105.442,106.881,0.000436284,0.0444212,21.0035,601.394,-0.122574,0.0,0.0
122,30.25,33.7081,34.6201,137.43,105.425,107.262,0.000420414,0.0444321,21.0033,601.394,-0.156287,0.0,0.0
124,30.75,33.3935,34.6248,138.802,105.444,107.011,0.00040756,0.0444603,21.0032,601.384,-0.133424,0.0,0.0
126,31.25,33.7364,35.0004,141.554,105.427,107.107,0.000411822,0.0445514,21.0031,601.384,-0.143017,0.0,0.0
128,31.75,33.9687,34.8415,135.428,105.447,107.083,0.000428479,0.0446252,21.003,601.373,-0.139304,0.0,0.0
130,32.25,33.5694,34.7298,140.04,105.436,107.417,0.000441971,0.0446849,21.0029,601.364,-0.168338,0.0,0.0
132,32.75,33.8652,34.5801,137.558,105.441,107.536,0.000483228,0.0448008,21.0026,601.373,-0.177972,0.0,0.0
134,33.25,33.7687,34.9469,136.508,105.43,105.924,0.000516646,0.0448946,21.0022,601.364,-0.042256,0.0,0.0
136,33.75,33.4547,34.4497,137.381,105.44,106.173,0.000564352,0.0451616,21.0018,601.364,-0.0626802,0.0,0.0
138,34.25,33.8467,34.0288,141.458,105.427,106.519,0.000611305,0.0453779,21.0016,601.354,-0.0932755,0.0,0.0
140,34.75,33.6576,34.7532,135.511,105.453,105.999,0.000656815,0.0459268,21,601.364,-0.0466999,0.0,0.0
142,35.25,33.8698,35.0374,140.836,105.428,105.783,0.00071031,0.0467078,20.9988,601.364,-0.0303815,0.0,0.0
144,35.75,34.2829,34.853,136.795,105.44,106.756,0.000768609,0.0473405,20.9947,601.344,-0.112146,0.0,0.0
146,36.25,34.3604,34.8659,136.698,105.426,106.881,0.000859397,0.0495366,20.9914,601.333,-0.123988,0.0,0.0
148,36.75,34.022,34.3922,134.942,105.445,107.656,0.000972144,0.0513155,20.9869,601.303,-0.187751,0.0,0.0
150,37.25,33.9505,34.8293,137.183,105.427,106.567,0.00106347,0.055493,20.9816,601.293,-0.0972334,0.0,0.0
152,37.75,33.4575,34.7458,135.392,105.442,106.029,0.00127972,0.0588767,20.9772,601.303,-0.0501891,0.0,1.0
154,38.25,33.7414,34.5586,139.526,105.411,104.893,0.00158292,0.0663048,20.9663,601.323,0.0445685,0.0,1.0
156,38.75,33.862,34.9846,133.076,105.432,102.628,0.00202006,0.0723215,20.9575,601.123,0.243845,0.0,1.0
158,39.25,34.0653,35.0223,132.655,105.414,100.549,0.00254654,0.0849572,20.9441,601.223,0.427419,0.0,1.0
160,39.75,34.1076,35.06,131.784,105.43,96.0067,0.00297298,0.0951921,20.9276,601.183,0.846894,0.0,1.0
162,40.25,34.5247,35.1144,133.545,105.436,96.5018,0.0039446,0.111549,20.9053,601.243,0.800873,0.0,1.0
164,40.75,35.0341,35.5017,126.728,105.442,95.1581,0.00473162,0.132059,20.8792,601.133,0.928255,0.0,1.0
166,41.25,34.3392,35.7243,132.363,105.416,91.2866,0.00593777,0.160318,20.8424,601.023,1.30175,0.0,1.0
168,41.75,34.3728,35.4872,120.62,105.434,87.7515,0.00691476,0.19369,20.7984,601.053,1.66053,0.0,1.0
170,42.25,35.053,35.5581,124.591,105.411,83.7603,0.00835058,0.22072,20.7629,600.863,2.07959,0.0,1.0
172,42.75,34.3244,34.6386,127.715,105.417,81.9788,0.0095136,0.267699,20.7179,600.853,2.27464,0.0,1.0
174,43.25,34.4776,34.419,125.345,105.418,79.6807,0.0104556,0.305751,20.667,600.673,2.53187,0.0,0.0
176,43.75,35.2164,34.5856,115.886,105.423,79.2569,0.0117616,0.356648,20.6258,600.613,2.58058,0.0,0.0
178,44.25,35.1103,34.7394,121.686,105.44,80.2909,0.0133081,0.397874,20.571,600.493,2.46475,0.0,0.0
180,44.75,36.0597,35.2433,116.818,105.433,79.3072,0.0154502,0.448313,20.5078,600.433,2.57568,0.0,0.0
182,45.25,36.4772,35.7107,109.852,105.411,76.2345,0.0162508,0.489169,20.482,600.353,2.93122,0.0,0.0
184,45.75,37.5146,36.0455,118.746,105.441,76.3463,0.0176199,0.522262,20.4379,600.193,2.92057,0.0,0.0
186,46.25,38.1766,36.476,112.375,105.411,74.044,0.0190481,0.558698,20.4022,600.142,3.1949,0.0,0.0
188,46.75,38.9673,37.1467,117.711,105.423,75.309,0.020205,0.596879,20.3632,599.962,3.04272,0.0,0.0
190,47.25,40.2516,37.9705,114.615,105.413,73.3924,0.02128,0.627806,20.3317,599.882,3.27507,0.0,0.0
192,47.75,40.6783,38.0898,120.605,105.426,74.1428,0.0221508,0.667886,20.3061,599.752,3.18418,0.0,0.0
194,48.25,41.5659,38.8447,115.523,105.418,72.5783,0.0228432,0.678668,20.2854,599.722,3.37637,0.0,0.0
196,48.75,42.5358,40.1413,119.075,105.431,76.0999,0.0233924,0.694864,20.2686,599.602,2.94894,0.0,0.0
198,49.25,43.013,40.4402,116.129,105.415,77.895,0.0237395,0.705965,20.255,599.512,2.73664,0.0,0.0
200,49.75,43.909,40.7812,122.611,105.423,78.4846,0.0239328,0.711225,20.2536,599.452,2.66911,0.0,0.0
202,50.25,44.3223,41.7718,116.74,105.412,75.8214,0.0238967,0.712126,20.2525,599.372,2.98044,0.0,0.0
204,50.75,45.3226,42.2538,118.892,105.425,79.2718,0.023694,0.708672,20.2612,599.252,2.57899,0.0,0.0
206,51.25,45.5185,42.7605,121.717,105.417,79.0957,0.0235299,0.702111,20.2683,599.142,2.59849,0.0,0.0
208,51.75,46.6804,43.6285,120.97,105.423,82.3984,0.0230942,0.691757,20.274,599.102,2.22896,0.0,0.0
210,52.25,46.6689,43.617,123.621,105.419,81.4404,0.0224688,0.678837,20.2887,599.052,2.33436,0.0,0.0
212,52.75,46.5841,43.4279,125.69,105.418,82.7585,0.0217405,0.668371,20.3007,598.991,2.18909,0.0,0.0
214,53.25,47.7087,44.5359,122.857,105.413,80.9397,0.020951,0.648483,20.3252,599.011,2.38967,0.0,0.0
216,53.75,47.2082,44.9318,122.745,105.417,84.2489,0.0197645,0.632373,20.3535,598.951,2.02756,0.0,0.0
218,54.25,47.7806,45.2761,126.738,105.417,87.0845,0.0188291,0.608542,20.3785,598.951,1.72806,0.0,0.0
220,54.75,48.1788,45.7212,128.783,105.414,84.7585,0.0178547,0.589238,20.3988,598.861,1.97269,0.0,0.0
222,55.25,48.3871,45.6667,127.68,105.415,90.0556,0.0173366,0.567933,20.415,598.771,1.42448,0.0,0.0
224,55.75,48.6868,46.1828,128.675,105.42,91.3528,0.0162503,0.545572,20.4427,598.741,1.29552,0.0,0.0
226,56.25,48.559,46.8499,131.411,105.416,91.5549,0.01519,0.523395,20.4698,598.721,1.2752,0.0,0.0
228,56.75,48.2618,46.3101,131.001,105.416,91.2252,0.0143311,0.492556,20.4959,598.651,1.30781,0.0,0.0
230,57.25,48.8922,46.4807,129.181,105.422,93.2913,0.0132848,0.472449,20.5219,598.631,1.1058,0.0,0.0
232,57.75,48.6558,47.085,128.073,105.409,93.9923,0.0124373,0.452251,20.5473,598.671,1.03689,0.0,0.0
234,58.25,49.0523,47.2666,129.484,105.411,95.8544,0.0115812,0.443641,20.5679,598.661,0.859622,0.0,0.0
236,58.75,48.7429,46.8408,129.557,105.402,98.2046,0.0107349,0.422424,20.5915,598.621,0.639787,0.0,0.0
238,59.25,48.5191,47.3046,129.28,105.41,98.7188,0.00995466,0.405238,20.6107,598.561,0.5932,0.0,0.0
240,59.75,48.4996,47.297,129.486,105.405,101.204,0.00923729,0.385303,20.6297,598.511,0.367899,0.0,0.0
242,60.25,49.0298,47.189,132.023,105.409,100.563,0.00865622,0.369155,20.6481,598.451,0.425762,0.0,0.0
244,60.75,48.504,47.536,131.944,105.406,101.011,0.00811144,0.353009,20.6661,598.491,0.385254,0.0,0.0
246,61.25,48.1904,47.2817,133.676,105.406,101.827,0.00760348,0.337169,20.6834,598.391,0.312515,0.0,0.0
248,61.75,48.4364,47.3778,129.503,105.401,103.163,0.00713238,0.32434,20.7006,598.341,0.194112,0.0,0.0
250,62.25,48.6062,47.466,132.317,105.399,104.233,0.00675079,0.308978,20.7174,598.331,0.100607,0.0,0.0
252,62.75,48.0665,47.8735,136.218,105.392,103.715,0.00641563,0.296535,20.7336,598.301,0.145121,0.0,0.0
254,63.25,48.5814,47.6937,133.228,105.407,104.069,0.00614415,0.28272,20.7489,598.381,0.115611,0.0,0.0
256,63.75,48.2285,47.3079,137.34,105.388,105.864,0.00593046,0.271529,20.7614,598.301,-0.0407508,0.0,0.0
258,64.25,47.9887,47.4794,134.598,105.408,105.483,0.00575737,0.260531,20.7754,598.341,-0.00643654,0.0,0.0
260,64.75,48.0908,47.5577,133.254,105.392,106.663,0.00561717,0.249881,20.7868,598.341,-0.108427,0.0,0.0
262,65.25,47.8903,47.6572,131.578,105.398,106.061,0.00554218,0.239867,20.796,598.331,-0.0566625,0.0,0.0
264,65.75,47.7617,47.4557,138.54,105.395,105.259,0.00551616,0.230507,20.8034,598.331,0.0117071,0.0,0.0
266,66.25,47.8255,47.6904,134.129,105.399,107.08,0.00549508,0.220878,20.8125,598.361,-0.143128,0.0,0.0
268,66.75,47.686,47.4053,136.071,105.385,107.314,0.00552781,0.213079,20.8199,598.371,-0.164053,0.0,0.0
270,67.25,47.6017,47.8259,135.602,105.395,106.882,0.00559915,0.206762,20.8267,598.351,-0.126714,0.0,0.0
272,67.75,47.6307,47.601,132.923,105.374,106.882,0.00568516,0.199235,20.8321,598.301,-0.128528,0.0,0.0
274,68.25,47.0637,47.291,132.391,105.391,107.033,0.00578024,0.193138,20.8387,598.231,-0.139804,0.0,0.0
276,68.75,47.1325,47.3122,133.226,105.372,107.187,0.0058829,0.188199,20.8441,598.211,-0.154492,0.0,0.0
278,69.25,46.5583,47.1215,136.514,105.406,107.309,0.00598913,0.182578,20.8515,598.171,-0.161809,0.0,0.0
280,69.75,46.517,47.1945,137.798,105.364,107.608,0.00611007,0.176564,20.8575,598.141,-0.190647,0.0,0.0
282,70.25,46.597,47.1586,135.154,105.384,107.335,0.00623944,0.170903,20.865,598.161,-0.165855,0.0,0.0
284,70.75,46.5129,47.1281,135.239,105.371,106.37,0.00634423,0.165607,20.871,598.191,-0.0853584,0.0,0.0
286,71.25,46.4644,46.9831,136.432,105.385,107.571,0.00652188,0.160619,20.8766,598.171,-0.185698,0.0,0.0
288,71.75,46.2981,47.5194,136.281,105.372,107.8,0.00666578,0.155952,20.8818,598.151,-0.206074,0.0,0.0
290,72.25,45.8785,46.8522,136.429,105.376,107.589,0.00678234,0.151537,20.886,598.131,-0.188025,0.0,0.0
292,72.75,45.8982,46.8793,137.638,105.356,107.644,0.0069924,0.147389,20.8898,598.131,-0.19435,0.0,0.0
294,73.25,45.7901,47.0179,136.066,105.367,107.22,0.00716254,0.144029,20.8933,598.151,-0.157757,0.0,0.0
296,73.75,45.6887,46.6535,134.758,105.354,107.345,0.00736336,0.140119,20.8966,598.101,-0.16937,0.0,0.0
298,74.25,45.5716,46.4861,138.833,105.354,107.2,0.00752602,0.136952,20.8997,598.111,-0.15708,0.0,0.0
300,74.75,45.6311,46.7491,135.362,105.343,107.148,0.00767903,0.133734,20.9023,598.091,-0.153693,0.0,0.0
302,75.25,45.3146,46.4657,135.083,105.363,107.184,0.00782209,0.13054,20.906,598.091,-0.154942,0.0,0.0
304,75.75,45.414,46.6274,134.171,105.337,107.127,0.00794793,0.127952,20.9091,598.101,-0.152471,0.0,0.0
306,76.25,45.2678,46.3982,137.073,105.352,107.936,0.00805884,0.124662,20.9125,598.101,-0.219184,0.0,0.0
308,76.75,44.9641,46.45,136.441,105.334,107.561,0.00815133,0.121997,20.9152,598.071,-0.189269,0.0,0.0
310,77.25,44.6235,46.0473,139.478,105.335,107.256,0.00822864,0.119053,20.9187,598.081,-0.163428,0.0,0.0
312,77.75,44.8791,46.4855,134.475,105.309,107.046,0.00829126,0.116669,20.9216,598.021,-0.147982,0.0,0.0
314,78.25,44.7931,46.1081,137.467,105.313,107.812,0.00834199,0.114354,20.9243,598.061,-0.212132,0.0,0.0
316,78.75,44.4677,46.1087,136.709,105.291,108.398,0.00838307,0.112135,20.9265,598.071,-0.263049,0.0,0.0
318,79.25,44.5714,45.6742,135.16,105.288,107.258,0.008423,0.11008,20.9283,598.051,-0.167615,0.0,0.0
320,79.75,44.4924,45.6934,135.267,105.268,107.519,0.00846133,0.108184,20.9302,598.051,-0.191442,0.0,0.0
322,80.25,44.1692,45.796,136.653,105.282,107.857,0.00850701,0.106399,20.9318,598.041,-0.218572,0.0,0.0
324,80.75,44.1902,45.7173,136.019,105.244,107.255,0.00855718,0.104728,20.9334,598.051,-0.171193,0.0,0.0
326,81.25,43.7718,45.5909,140.043,105.241,108.268,0.00859782,0.103375,20.9348,598.001,-0.256481,0.0,0.0
328,81.75,43.6933,45.3532,136.424,105.22,107.656,0.00868514,0.102022,20.9361,598.061,-0.20706,0.0,0.0
330,82.25,43.2446,45.5599,136.769,105.216,108.113,0.00875587,0.100695,20.9374,598.031,-0.245694,0.0,0.0
332,82.75,43.4116,45.4857,137.004,105.189,107.812,0.00884737,0.0994001,20.9387,598.021,-0.222849,0.0,0.0
334,83.25,43.117,45.916,134.597,105.19,107.76,0.00892148,0.0981537,20.9399,598.011,-0.218399,0.0,0.0
336,83.75,43.3489,45.2684,134.651,105.165,107.572,0.00899545,0.0971441,20.9414,598.011,-0.204735,0.0,0.0
338,84.25,43.0477,45.9763,136.763,105.151,107.057,0.00905537,0.0959648,20.943,598.011,-0.162517,0.0,0.0
340,84.75,43.1062,45.2657,138.212,105.12,106.906,0.00910264,0.0950095,20.9443,598.001,-0.152373,0.0,0.0
342,85.25,43.2213,44.8836,136.654,105.106,107.471,0.00914092,0.094009,20.9454,597.991,-0.20125,0.0,0.0
344,85.75,43.1321,44.6605,136.674,105.087,107.12,0.00917193,0.0929947,20.9462,597.981,-0.173356,0.0,0.0
346,86.25,42.573,44.7543,136.698,105.08,107.458,0.00919238,0.0919977,20.9469,597.971,-0.202444,0.0,0.0
348,86.75,42.6182,44.8813,138.667,105.042,107.386,0.00920474,0.0910324,20.9479,597.991,-0.199603,0.0,0.0
350,87.25,42.2201,44.8919,133.816,105.037,107.034,0.00920608,0.0900388,20.9487,597.991,-0.170371,0.0,0.0
352,87.75,42.695,44.9475,134.907,105.017,107.882,0.00919937,0.0890435,20.9498,597.961,-0.243437,0.0,0.0
354,88.25,42.6438,44.5362,136.163,105.007,107.223,0.00918526,0.0882373,20.9507,597.981,-0.188919,0.0,0.0
356,88.75,42.3734,44.4241,133.625,104.96,106.968,0.00916604,0.0870994,20.9514,597.951,-0.171482,0.0,0.0
358,89.25,42.0543,44.8426,135.171,104.945,107.208,0.00915047,0.0861776,20.9524,597.93,-0.192943,0.0,0.0
360,89.75,42.4386,44.8821,136.586,104.914,107.425,0.00913385,0.0852344,20.9532,597.911,-0.213969,0.0,0.0
362,90.25,42.1421,44.354,139.754,104.89,107.109,0.0091168,0.0842933,20.9536,597.88,-0.189304,0.0,0.0
364,90.75,41.8244,44.0666,135.785,104.858,107.63,0.00910498,0.083371,20.954,597.921,-0.235984,0.0,0.0
366,91.25,41.7962,44.2962,134.889,104.828,107.696,0.00909721,0.0824797,20.9551,597.94,-0.244091,0.0,0.0
368,91.75,41.9101,44.0659,138.262,104.806,106.843,0.00909092,0.0817578,20.9561,597.951,-0.174149,0.0,0.0
370,92.25,41.7094,44.1695,134.691,104.772,107.63,0.00908582,0.0811731,20.9568,597.971,-0.243501,0.0,0.0
372,92.75,41.733,43.7879,137.545,104.748,106.451,0.00908169,0.0802849,20.9574,597.951,-0.145881,0.0,0.0
374,93.25,41.621,44.2018,136.189,104.705,107.419,0.00907835,0.0795655,20.9579,597.911,-0.231442,0.0,0.0
376,93.75,41.6322,44.2429,137.029,104.685,106.233,0.00906804,0.078748,20.9588,597.891,-0.132707,0.0,0.0
378,94.25,41.0589,43.9107,135.628,104.656,106.343,0.00905969,0.0779116,20.9599,597.94,-0.144697,0.0,0.0
380,94.75,41.2556,43.8895,137.14,104.619,107.34,0.00904787,0.0770772,20.961,597.93,-0.232262,0.0,0.0
382,95.25,41.3165,44.266,137.253,104.57,106.37,0.00903829,0.0764013,20.9622,597.921,-0.154413,0.0,0.0
384,95.75,41.3282,43.8265,137.559,104.546,106.984,0.0090232,0.0756361,20.9631,597.901,-0.20855,0.0,0.0
386,96.25,41.3578,43.464,135.128,104.506,107.21,0.00900439,0.0748205,20.9638,597.911,-0.231068,0.0,0.0
388,96.75,41.185,43.6894,138.201,104.483,106.971,0.00896638,0.0741597,20.9646,597.87,-0.212861,0.0,0.0
390,97.25,41.0029,43.4318,139.597,104.45,106.168,0.0089356,0.0733215,20.9655,597.86,-0.14756,0.0,0.0
392,97.75,40.8089,43.7746,136.241,104.46,105.979,0.00889675,0.0726425,20.9664,597.88,-0.130592,0.0,0.0
394,98.25,40.9435,43.5141,138.394,104.454,106.022,0.00886529,0.0719273,20.9674,597.88,-0.134722,0.0,0.0
396,98.75,40.7373,43.119,140.23,104.463,106.588,0.00883348,0.0713479,20.9682,597.891,-0.182146,0.0,0.0
398,99.25,40.258,43.498,135.484,104.473,107.01,0.00880772,0.0707845,20.9688,597.891,-0.217047,0.0,0.0
400,99.75,40.4312,43.3413,138.07,104.469,106.096,0.00878685,0.0702433,20.9694,597.87,-0.139797,0.0,0.0
402,100.25,40.5847,43.4289,139.646,104.473,105.544,0.00876362,0.0697471,20.9698,597.901,-0.0922482,0.0,0.0
404,100.75,40.049,42.9362,144.405,104.493,106.406,0.00874481,0.069293,20.9701,597.911,-0.164116,0.0,0.0
406,101.25,40.5802,42.7476,137.738,104.505,107.216,0.00871442,0.0688962,20.9706,597.911,-0.231685,0.0,0.0
408,101.75,40.373,42.9569,136.04,104.513,106.256,0.00868979,0.0685487,20.9712,597.891,-0.149601,0.0,0.0
410,102.25,40.1025,43.0134,135.428,104.515,106.763,0.00864333,0.0681949,20.9717,597.901,-0.192458,0.0,0.0
412,102.75,39.7684,42.4088,139.627,104.53,106.701,0.0086057,0.0678431,20.9721,597.88,-0.185928,0.0,0.0
414,103.25,40.2901,43.0486,136.718,104.537,106.569,0.00854366,0.0675581,20.9727,597.85,-0.174159,0.0,0.0
416,103.75,39.9534,42.1592,138.64,104.551,106.505,0.00849342,0.0671761,20.9734,597.84,-0.167537,0.0,0.0
418,104.25,40.3397,42.5821,139.177,104.559,106.432,0.00842624,0.0668666,20.9739,597.84,-0.16063,0.0,0.0
420,104.75,39.9557,42.6285,136.518,104.582,107.121,0.00837183,0.066506,20.9743,597.83,-0.216936,0.0,0.0
422,105.25,40.0207,42.6292,137.746,104.58,106.039,0.00829122,0.0662139,20.9747,597.83,-0.125328,0.0,0.0
424,105.75,39.7612,42.9029,134.133,104.622,106.467,0.00822592,0.0658905,20.9749,597.77,-0.158189,0.0,0.0
426,106.25,39.6056,42.4594,132.852,104.606,105.665,0.00817303,0.0655504,20.9752,597.78,-0.0911006,0.0,0.0
428,106.75,39.6233,41.9624,135.098,104.625,105.795,0.00809973,0.0651665,20.9756,597.74,-0.100651,0.0,0.0
430,107.25,39.4983,42.387,136.457,104.629,106.06,0.00801293,0.0647579,20.9761,597.73,-0.122917,0.0,0.0
432,107.75,39.3564,42.3484,136.08,104.652,107.002,0.00792609,0.064333,20.9766,597.73,-0.200797,0.0,0.0
434,108.25,39.5996,42.1492,138.858,104.644,106.153,0.00784086,0.0639042,20.9774,597.77,-0.129578,0.0,0.0
436,108.75,39.2303,42.7445,141.786,104.679,106.176,0.00775596,0.0634269,20.978,597.79,-0.128418,0.0,0.0
438,109.25,39.3848,42.3169,137.168,104.67,105.859,0.00767291,0.0629233,20.9785,597.77,-0.102159,0.0,0.0
440,109.75,39.6069,41.6372,139.114,104.694,106.249,0.00759508,0.0625153,20.979,597.78,-0.133404,0.0,0.0
442,110.25,39.2313,42.2772,137.356,104.686,105.572,0.00752252,0.062026,20.9793,597.74,-0.0762586,0.0,0.0
444,110.75,39.1009,41.7875,141.199,104.715,106.539,0.00745912,0.0614868,20.9796,597.77,-0.156285,0.0,0.0
446,111.25,38.7444,41.6887,136.728,104.712,105.724,0.00742991,0.0609273,20.9798,597.79,-0.0869947,0.0,0.0
448,111.75,38.208,41.2967,139.675,104.726,106.141,0.00737995,0.0603637,20.9801,597.72,-0.121389,0.0,0.0
450,112.25,37.0769,40.2695,134.68,104.732,106.087,0.00733948,0.0599072,20.9807,597.8,-0.116308,0.0,0.0
452,112.75,36.4624,40.2372,134.603,104.757,105.727,0.00728287,0.0593867,20.9811,597.83,-0.083365,0.0,0.0
454,113.25,37.2871,40.1356,138.049,104.752,107.332,0.00723702,0.0589218,20.9816,597.75,-0.220089,0.0,0.0
456,113.75,37.2691,39.8295,137.943,104.778,106.318,0.00719988,0.0585063,20.982,597.74,-0.131967,0.0,0.0
458,114.25,37.1111,40.0704,138.896,104.774,106.928,0.00711969,0.0581697,20.9826,597.74,-0.184095,0.0,0.0
460,114.75,36.5904,39.7723,139.817,104.794,106.538,0.00705473,0.0580263,20.9832,597.74,-0.149269,0.0,0.0
462,115.25,36.7452,39.9924,139.52,104.794,105.91,0.00696957,0.0576576,20.9838,597.73,-0.095877,0.0,0.0
464,115.75,38.0338,40.8414,131.669,104.804,106.296,0.00690059,0.057359,20.9842,597.71,-0.127882,0.0,0.0
466,116.25,38.0608,41.0318,139.413,104.803,106.525,0.00682432,0.0571172,20.9845,597.75,-0.147431,0.0,0.0
468,116.75,38.2083,41.1507,138.017,104.821,106.931,0.00674418,0.0568528,20.9848,597.74,-0.180249,0.0,0.0
470,117.25,38.1303,41.5347,135.959,104.82,106.186,0.00665429,0.0566386,20.9851,597.72,-0.117138,0.0,0.0
472,117.75,38.222,41.0019,138.66,104.84,106.62,0.00655899,0.0564219,20.9852,597.7,-0.152323,0.0,0.0
474,118.25,38.4112,40.7501,135.502,104.837,107.546,0.00646014,0.0562074,20.9854,597.71,-0.230758,0.0,0.0
476,118.75,38.0533,40.8397,134.191,104.855,107.366,0.00636056,0.0559833,20.9855,597.74,-0.214054,0.0,0.0
478,119.25,38.2093,40.6906,135.601,104.86,107.033,0.00627991,0.0557563,20.9856,597.71,-0.185591,0.0,0.0
480,119.75,37.7963,41.1091,139.816,104.882,106.444,0.00616349,0.0555725,20.9861,597.7,-0.133768,0.0,0.0
482,120.25,38.0482,41.084,139.425,104.872,106.156,0.0060692,0.0553551,20.9865,597.73,-0.110071,0.0,0.0
484,120.75,37.8023,40.2845,138.085,104.896,106.689,0.00595419,0.0551719,20.9869,597.71,-0.153285,0.0,0.0
486,121.25,37.5312,40.9868,137.459,104.889,106.273,0.00582627,0.0550169,20.9872,597.71,-0.118572,0.0,0.0
488,121.75,38.0548,40.4632,137.092,104.909,106.08,0.00570565,0.0548915,20.9874,597.65,-0.100356,0.0,0.0
490,122.25,37.8238,41.0544,136.457,104.893,106.309,0.00559266,0.0547487,20.9876,597.64,-0.12126,0.0,0.0
492,122.75,37.6153,40.8571,137.937,104.918,106.227,0.00550113,0.0546331,20.9877,597.67,-0.112091,0.0,0.0
494,123.25,37.7899,41.1179,135.477,104.912,106.55,0.00540217,0.0544963,20.9881,597.68,-0.140085,0.0,0.0
496,123.75,37.8772,40.3965,134.226,104.928,106.432,0.00532201,0.0543466,20.9885,597.7,-0.128764,0.0,0.0
498,124.25,37.7692,40.6819,143.603,104.948,106.53,0.00522111,0.0542397,20.9889,597.7,-0.135364,0.0,0.0
500,124.75,37.9292,40.6412,132.671,104.942,106.954,0.00513938,0.0541661,20.9893,597.74,-0.171755,0.0,0.0
502,125.25,37.7155,40.1232,137.092,104.943,107.656,0.00505884,0.0541064,20.9895,597.73,-0.23089,0.0,0.0
504,125.75,38.0569,40.7954,135.857,104.958,106.766,0.00498068,0.0539897,20.9897,597.7,-0.154554,0.0,0.0
506,126.25,38.2096,40.7149,134.232,104.948,106.516,0.00490303,0.0538952,20.9899,597.68,-0.134101,0.0,0.0
508,126.75,38.118,40.2513,137.281,104.947,106.941,0.00479492,0.0537826,20.9901,597.69,-0.170175,0.0,0.0
510,127.25,37.8027,40.3387,138.342,104.939,106.213,0.00476584,0.053659,20.9902,597.73,-0.109159,0.0,0.0
512,127.75,37.5458,40.5457,140.364,104.961,106.71,0.00470047,0.0535157,20.9902,597.75,-0.149527,0.0,0.0
514,128.25,37.6579,40.5023,139.004,104.962,106.319,0.00463346,0.0533607,20.9903,597.74,-0.116152,0.0,0.0
516,128.75,38.2287,40.3738,139.648,104.961,106.693,0.00457073,0.0532208,20.9904,597.74,-0.148063,0.0,0.0
518,129.25,37.4348,40.3171,140.874,104.988,106.723,0.00451229,0.0530945,20.9909,597.68,-0.148298,0.0,0.0
520,129.75,37.4917,40.4425,140.626,104.961,107.158,0.00445455,0.0529341,20.9913,597.68,-0.187465,0.0,0.0
522,130.25,37.4329,40.2479,139.94,104.968,105.92,0.00439841,0.0528819,20.9916,597.69,-0.0816185,0.0,0.0
524,130.75,37.0983,40.2565,139.916,104.961,106.71,0.00433994,0.0527927,20.9918,597.69,-0.149564,0.0,0.0
526,131.25,37.9598,40.3267,138.991,104.973,106.625,0.00428087,0.0527203,20.992,597.71,-0.141203,0.0,0.0
528,131.75,37.7287,40.1754,138.781,104.993,106.808,0.00421204,0.0526618,20.9922,597.68,-0.15501,0.0,0.0
530,132.25,36.9,40.1171,136.424,104.976,106.542,0.00415628,0.0526143,20.9924,597.69,-0.133948,0.0,0.0
532,132.75,37.86,40.3886,139.669,104.984,106.259,0.00409385,0.0525075,20.9925,597.69,-0.109221,0.0,0.0
534,133.25,36.9134,40.5519,135.648,104.988,106.654,0.00404328,0.052421,20.9926,597.68,-0.142417,0.0,0.0
536,133.75,37.3963,39.7406,139.804,104.985,107.185,0.00400231,0.0523509,20.9926,597.67,-0.187556,0.0,0.0
538,134.25,37.3293,39.7111,135.769,104.988,106.277,0.00395057,0.0522797,20.9927,597.7,-0.110327,0.0,0.0
540,134.75,36.9707,40.1757,139.023,104.991,106.142,0.00390866,0.0522091,20.9927,597.71,-0.0985692,0.0,0.0
542,135.25,37.4888,40.1393,138.063,104.993,106.274,0.00387472,0.0521448,20.9928,597.68,-0.109685,0.0,0.0
544,135.75,37.1688,39.983,139.986,104.996,106.404,0.00383554,0.0520861,20.9928,597.69,-0.120565,0.0,0.0
546,136.25,37.5228,39.4092,139.649,105.001,106.899,0.0037933,0.0520171,20.9925,597.73,-0.16204,0.0,0.0
548,136.75,37.3174,39.94,136.641,104.984,106.043,0.0037539,0.0519417,20.9923,597.7,-0.0907662,0.0,0.0
550,137.25,37.1544,40.0658,136.801,105.003,106.411,0.00371731,0.0518806,20.9921,597.68,-0.120502,0.0,0.0
552,137.75,37.3737,39.8601,138.02,104.993,106.024,0.00368768,0.0518311,20.9919,597.67,-0.088415,0.0,0.0
554,138.25,36.8885,39.729,136.975,105.005,106.44,0.0036649,0.0517627,20.9918,597.69,-0.122735,0.0,0.0
556,138.75,36.9548,39.7921,137.347,104.987,106.277,0.00364646,0.0516818,20.9917,597.68,-0.110437,0.0,0.0
558,139.25,37.2776,39.6431,139.088,105.002,105.668,0.00364384,0.0516378,20.9919,597.69,-0.0571606,0.0,0.0
560,139.75,36.9251,40.0466,138.061,104.997,107.192,0.00364172,0.0516216,20.9922,597.68,-0.187162,0.0,0.0
562,140.25,36.5078,39.5931,136.262,105.009,105.738,0.00363877,0.0516085,20.9925,597.65,-0.0626362,0.0,0.0
564,140.75,37.3312,39.7789,137.374,104.983,106.881,0.00363638,0.0515842,20.9927,597.65,-0.162108,0.0,0.0
566,141.25,36.7507,39.5721,136.997,105.019,106.494,0.00363444,0.0515645,20.9928,597.64,-0.126124,0.0,0.0
568,141.75,37.3834,39.2805,136.634,104.978,107,0.00360331,0.051527,20.993,597.65,-0.172518,0.0,0.0
570,142.25,36.7596,39.6752,136.016,104.996,107.417,0.00357809,0.0514772,20.9931,597.68,-0.206163,0.0,0.0
572,142.75,37.2585,39.1244,138.371,105.003,106.623,0.00351828,0.0514512,20.9932,597.65,-0.138499,0.0,0.0
574,143.25,36.8409,39.1834,140.917,105,106.582,0.00346983,0.0514431,20.9933,597.64,-0.135273,0.0,0.0
576,143.75,36.7619,39.2152,133.766,104.975,106.777,0.00339002,0.0514438,20.9933,597.66,-0.153893,0.0,0.0
578,144.25,36.8559,39.4962,136.337,104.991,107.112,0.00332537,0.0514508,20.9934,597.65,-0.18095,0.0,0.0
580,144.75,36.8477,39.2246,138.511,104.975,106.467,0.00323984,0.0514564,20.9934,597.65,-0.127616,0.0,0.0
582,145.25,36.7996,39.2542,135.689,104.993,106.561,0.00317056,0.051502,20.9935,597.63,-0.13408,0.0,0.0
584,145.75,36.4986,39.2428,138.254,104.968,106.459,0.00309113,0.051539,20.9935,597.62,-0.127638,0.0,0.0
586,146.25,36.7441,39.4117,141.353,104.974,106.921,0.00302679,0.0515416,20.9935,597.61,-0.16619,0.0,0.0
588,146.75,36.9541,39.2397,140.129,104.964,106.504,0.00296757,0.0515437,20.9935,597.62,-0.131725,0.0,0.0
590,147.25,36.7706,39.4801,134.154,104.99,106.145,0.00291321,0.0515317,20.9931,597.54,-0.0989917,0.0,0.0
592,147.75,36.3253,39.2019,138.504,104.969,107.142,0.00286918,0.051522,20.9927,597.53,-0.185324,0.0,0.0
594,148.25,36.9707,39.0827,135.685,104.975,106.485,0.00283158,0.0515141,20.9925,597.52,-0.129156,0.0,0.0
596,148.75,36.8346,39.4389,135.743,104.958,106.85,0.00279938,0.0515078,20.9925,597.53,-0.161654,0.0,0.0
598,149.25,36.9221,39.1884,135.954,104.977,107.843,0.0027733,0.0514954,20.9927,597.53,-0.243653,0.0,0.0
600,149.75,36.737,38.7193,136.886,104.951,106.84,0.00275707,0.0514789,20.9929,597.53,-0.161333,0.0,0.0
602,150.25,36.9413,39.6504,135.798,104.963,106.48,0.00274394,0.0514656,20.993,597.55,-0.129857,0.0,0.0
604,150.75,36.3491,38.9338,135.724,104.942,106.825,0.00274924,0.0514684,20.9929,597.56,-0.160909,0.0,0.0
606,151.25,36.4285,39.1448,136.589,104.952,106.161,0.00275354,0.0514707,20.9926,597.6,-0.103623,0.0,0.0
608,151.75,36.5593,39.2708,133.378,104.944,106.225,0.00277666,0.0514726,20.9923,597.6,-0.109711,0.0,0.0
610,152.25,36.1678,38.9896,137.253,104.966,106.567,0.00279538,0.0513921,20.9921,597.59,-0.136997,0.0,0.0
612,152.75,36.3137,39.2338,139.026,104.942,106.871,0.00281637,0.0513269,20.992,597.56,-0.164813,0.0,0.0
614,153.25,36.6057,38.8696,137.681,104.947,106.235,0.0028386,0.0512741,20.9923,597.55,-0.110365,0.0,0.0
616,153.75,36.7281,39.2492,137.465,104.937,106.756,0.00285338,0.0512313,20.9925,597.54,-0.155395,0.0,0.0
618,154.25,36.9719,39.2261,135.214,104.931,107.648,0.00286244,0.0511966,20.9923,597.55,-0.231241,0.0,0.0
620,154.75,36.497,39.2565,137.928,104.929,106.493,0.00286978,0.0511685,20.9921,597.58,-0.133878,0.0,0.0
622,155.25,36.6615,39.0556,136.183,104.92,107.326,0.00287572,0.0511242,20.9919,597.59,-0.205105,0.0,0.0
624,155.75,36.0521,39.4099,137.547,104.906,106.488,0.00285476,0.0510689,20.9923,597.6,-0.135447,0.0,0.0
626,156.25,36.0174,38.3798,139.135,104.928,107.158,0.00283778,0.0510097,20.9925,597.58,-0.190227,0.0,0.0
628,156.75,36.6766,38.9583,136.301,104.904,106.91,0.00280814,0.0509488,20.9926,597.58,-0.171291,0.0,0.0
630,157.25,36.7257,39.2691,138.148,104.917,106.831,0.00278414,0.0508994,20.9926,597.57,-0.163572,0.0,0.0
632,157.75,36.6277,38.8197,138.07,104.896,106.623,0.00277068,0.0508321,20.9927,597.59,-0.147712,0.0,0.0
634,158.25,36.2733,38.9586,138.321,104.903,106.658,0.00274766,0.0507776,20.9927,597.59,-0.150095,0.0,0.0
636,158.75,36.6977,38.7369,138.44,104.882,107.301,0.00272901,0.0507335,20.9927,597.54,-0.206228,0.0,0.0
638,159.25,36.5184,38.7196,136.058,104.888,106.75,0.00272747,0.0506012,20.9927,597.56,-0.159185,0.0,0.0
640,159.75,36.8152,38.682,136.564,104.87,106.695,0.00273842,0.0504941,20.9932,597.56,-0.156055,0.0,0.0
642,160.25,35.972,39.294,138.442,104.868,106.601,0.00275698,0.0503664,20.9936,597.54,-0.148257,0.0,0.0
644,160.75,36.1233,38.6906,139.114,104.861,106.002,0.00278073,0.0503119,20.9939,597.57,-0.0978749,0.0,0.0
646,161.25,36.2056,38.8835,134.579,104.862,106.061,0.00280062,0.0502187,20.9941,597.59,-0.102812,0.0,0.0
648,161.75,35.9854,38.6639,136.019,104.848,106.444,0.00281731,0.0501361,20.9944,597.59,-0.136645,0.0,0.0
650,162.25,35.9625,38.8178,137.251,104.851,106.33,0.00283083,0.0500627,20.9945,597.61,-0.126687,0.0,0.0
652,162.75,36.0572,38.7851,136.915,104.835,106.081,0.00283402,0.0499817,20.9947,597.61,-0.106927,0.0,0.0
654,163.25,36.2372,38.4826,137.991,104.825,106.542,0.00282964,0.0498966,20.9948,597.61,-0.146999,0.0,0.0
656,163.75,35.9102,38.5111,134.981,104.819,106.535,0.00281769,0.0498277,20.9949,597.62,-0.146952,0.0,0.0
658,164.25,36.1497,38.9282,139.988,104.821,106.158,0.00280045,0.0497719,20.9949,597.59,-0.114608,0.0,0.0
660,164.75,36.2242,38.7166,138.671,104.821,106.24,0.00278649,0.0497267,20.995,597.6,-0.12155,0.0,0.0
662,165.25,36.0525,38.1035,135.403,104.809,106.339,0.00275802,0.0497174,20.995,597.62,-0.131127,0.0,0.0
664,165.75,36.5399,38.4672,141.699,104.809,106.798,0.00273495,0.0497099,20.9951,597.6,-0.170108,0.0,0.0
666,166.25,36.007,38.4355,135.915,104.797,106.869,0.00270033,0.0496679,20.9951,597.61,-0.177123,0.0,0.0
668,166.75,36.1864,38.7074,141.742,104.795,106.704,0.00268557,0.0496015,20.9951,597.63,-0.163339,0.0,0.0
670,167.25,36.0426,38.3302,139.162,104.79,106.385,0.00265388,0.0495477,20.9951,597.58,-0.136654,0.0,0.0
672,167.75,36.22,38.2887,136.903,104.782,106.213,0.00262241,0.0495177,20.9952,597.58,-0.122719,0.0,0.0
674,168.25,36.0209,37.9371,134.887,104.773,106.442,0.00258918,0.0494935,20.9952,597.58,-0.14294,0.0,0.0
676,168.75,35.8976,38.1197,138.028,104.774,107.052,0.0025553,0.0494955,20.9952,597.54,-0.194609,0.0,0.0
678,169.25,35.8527,38.3325,135.371,104.759,106.316,0.00252786,0.0495164,20.9952,597.56,-0.133454,0.0,0.0
680,169.75,36.0434,38.2607,139.802,104.761,105.638,0.00250563,0.0495254,20.9952,597.56,-0.0754615,0.0,0.0
682,170.25,35.7565,38.4911,137.885,104.745,106.203,0.00247049,0.0495134,20.9952,597.55,-0.12502,0.0,0.0
684,170.75,36.2314,38.1832,136.89,104.753,105.707,0.00244202,0.0495036,20.9952,597.56,-0.0820565,0.0,0.0
686,171.25,36.0855,38.2995,138.323,104.746,106.515,0.00241039,0.0494548,20.9955,597.58,-0.151527,0.0,0.0
688,171.75,35.8684,38.2759,138.94,104.739,106.61,0.00238477,0.0494152,20.9958,597.56,-0.160176,0.0,0.0
690,172.25,35.8595,38.4679,134.448,104.721,106.495,0.00235423,0.0493759,20.9962,597.55,-0.151943,0.0,0.0
692,172.75,35.9094,38.3171,137.23,104.716,106.482,0.00232949,0.0493376,20.9964,597.55,-0.151234,0.0,0.0
694,173.25,35.8304,38.0062,140.639,104.708,106.627,0.00231802,0.0493066,20.9966,597.52,-0.164261,0.0,0.0
696,173.75,35.9999,37.9372,136.396,104.712,106.284,0.00230873,0.0492952,20.9968,597.51,-0.134844,0.0,0.0
698,174.25,35.7808,37.9551,140.568,104.709,106.673,0.00233181,0.0492859,20.997,597.47,-0.168065,0.0,0.0
700,174.75,35.9165,37.8477,142.928,104.694,107.127,0.00235051,0.0492648,20.9971,597.44,-0.207842,0.0,0.0
702,175.25,36.0688,37.3225,135.638,104.696,106.254,0.00240609,0.0492476,20.9972,597.43,-0.133581,0.0,0.0
704,175.75,36.1601,38.2124,138.074,104.689,106.672,0.00245112,0.0492474,20.9972,597.39,-0.169739,0.0,0.0
706,176.25,35.9314,38.1625,137.728,104.669,106.437,0.00248759,0.0492472,20.9973,597.39,-0.151449,0.0,0.0
708,176.75,35.7423,37.9752,138.983,104.674,106.464,0.00254232,0.0492334,20.9973,597.38,-0.153379,0.0,0.0
710,177.25,35.8834,37.6201,136.238,104.674,106.826,0.00260931,0.0492222,20.9974,597.41,-0.184041,0.0,0.0
712,177.75,35.4154,37.5906,138.56,104.658,106.005,0.00266552,0.0491585,20.9974,597.39,-0.115706,0.0,0.0
714,178.25,35.912,37.8778,138.178,104.645,106.871,0.00271279,0.0491069,20.9974,597.35,-0.190386,0.0,0.0
716,178.75,35.8946,38.0236,135.3,104.646,106.548,0.00274074,0.0491082,20.9975,597.37,-0.162989,0.0,0.0
718,179.25,35.4403,37.6692,137.482,104.622,106.321,0.00275408,0.0491481,20.9975,597.38,-0.145682,0.0,0.0
720,179.75,35.8558,37.4397,135.99,104.629,105.864,0.00274809,0.0491805,20.9975,597.39,-0.106177,0.0,0.0
722,180.25,35.7323,37.9488,137.708,104.613,106.676,0.00272814,0.0492067,20.9975,597.38,-0.176631,0.0,0.0
724,180.75,35.6307,38.1394,133.595,104.616,105.657,0.00271197,0.0492005,20.9975,597.42,-0.0896221,0.0,0.0
726,181.25,35.8895,37.6307,137.86,104.596,106.966,0.00265722,0.0491956,20.9975,597.4,-0.202661,0.0,0.0
728,181.75,35.5111,37.6109,138.827,104.606,106.147,0.00261286,0.0491916,20.9975,597.37,-0.132351,0.0,0.0
730,182.25,35.467,37.8291,135.8,104.585,106.444,0.00257693,0.0491883,20.9975,597.4,-0.159429,0.0,0.0
732,182.75,35.5067,37.8896,138.931,104.589,106.462,0.00252593,0.0491584,20.9976,597.41,-0.160568,0.0,0.0
734,183.25,35.2015,37.5312,142.296,104.57,106.077,0.0024649,0.0491341,20.9977,597.43,-0.12939,0.0,0.0
736,183.75,35.2984,37.7658,137.74,104.577,105.567,0.00241546,0.0491418,20.9978,597.38,-0.0852496,0.0,0.0
738,184.25,35.2186,37.8359,135.775,104.551,106.743,0.00237909,0.049148,20.9976,597.39,-0.187692,0.0,0.0
740,184.75,35.1415,37.5419,134.364,104.56,106.813,0.00234963,0.049153,20.9973,597.44,-0.192803,0.0,0.0
742,185.25,35.667,37.7846,138.386,104.549,106.459,0.00235147,0.0492118,20.9973,597.42,-0.163764,0.0,0.0
744,185.75,35.5402,37.4557,138.982,104.551,106.256,0.0023536,0.0492593,20.9975,597.45,-0.146313,0.0,0.0
746,186.25,35.6467,37.4436,135.738,104.534,107.119,0.00239021,0.0492979,20.9974,597.44,-0.221023,0.0,0.0
748,186.75,35.1555,37.328,138.698,104.543,106.73,0.00240581,0.0493564,20.9973,597.46,-0.187316,0.0,0.0
750,187.25,35.327,37.2308,137.601,104.521,107.17,0.0024325,0.0494038,20.997,597.47,-0.226443,0.0,0.0
752,187.75,35.3043,37.7731,137.582,104.526,106.608,0.00248349,0.0494566,20.9968,597.4,-0.17847,0.0,0.0
754,188.25,35.7928,37.3707,140.454,104.5,106.122,0.00252478,0.0495123,20.9966,597.4,-0.139272,0.0,0.0
756,188.75,35.418,37.3067,135.83,104.521,106.711,0.00256191,0.049604,20.9966,597.39,-0.187526,0.0,0.0
758,189.25,35.1976,37.2051,138.015,104.498,106.478,0.00259199,0.049659,20.9966,597.35,-0.169852,0.0,0.0
760,189.75,35.2159,37.5187,135.199,104.507,106.454,0.00260531,0.0496825,20.9966,597.38,-0.167026,0.0,0.0
762,190.25,35.6135,37.2561,134.794,104.488,106.058,0.0026161,0.0497781,20.9967,597.37,-0.134893,0.0,0.0
764,190.75,35.0495,37.1848,137.493,104.508,106.315,0.00262484,0.0498555,20.9967,597.34,-0.154998,0.0,0.0
766,191.25,35.6205,37.5553,134.499,104.476,106.339,0.00261257,0.0499045,20.9967,597.34,-0.15984,0.0,0.0
768,191.75,35.4268,37.5838,138.259,104.496,106.464,0.00258521,0.0499443,20.9967,597.31,-0.168695,0.0,0.0
770,192.25,35.4277,37.3839,137.305,104.471,106.328,0.00255531,0.0499901,20.9967,597.32,-0.159365,0.0,0.0
772,192.75,35.6964,37.5876,136.221,104.487,105.335,0.00252413,0.0500272,20.9967,597.32,-0.0730637,0.0,0.0
774,193.25,35.613,37.2796,135.468,104.465,106.334,0.00249888,0.0500573,20.9967,597.35,-0.160355,0.0,0.0
776,193.75,35.5697,37.3233,136.143,104.478,105.937,0.00247475,0.0500817,20.9967,597.37,-0.1254,0.0,0.0
778,194.25,35.6826,37.2576,134.658,104.468,105.9,0.0024552,0.0501014,20.9967,597.38,-0.123173,0.0,0.0
780,194.75,35.3508,37.6083,133.355,104.475,105.643,0.00243692,0.0501174,20.9967,597.39,-0.100567,0.0,0.0
782,195.25,35.0901,37.621,136.709,104.485,105.227,0.00242211,0.0501303,20.9967,597.38,-0.0639621,0.0,0.0
784,195.75,35.5309,37.2996,139.249,104.516,106.455,0.00240644,0.0501408,20.9967,597.38,-0.166263,0.0,0.0
786,196.25,35.5339,37.6128,137.523,104.533,106.711,0.00239375,0.0501357,20.9967,597.37,-0.186541,0.0,0.0
788,196.75,35.491,37.2627,137.782,104.567,106.09,0.00237246,0.0501315,20.9967,597.33,-0.130834,0.0,0.0
790,197.25,35.257,37.188,134.854,104.585,106.097,0.00235521,0.0501417,20.9967,597.33,-0.129854,0.0,0.0
792,197.75,35.5356,37.4439,136.446,104.607,105.808,0.00234123,0.0501501,20.9967,597.35,-0.103224,0.0,0.0
794,198.25,35.831,37.3863,136.975,104.623,106.238,0.00230789,0.0501431,20.9967,597.37,-0.138553,0.0,0.0
796,198.75,35.3944,37.1004,135.628,104.643,106.541,0.00228089,0.0501375,20.9967,597.39,-0.162615,0.0,0.0
798,199.25,35.3245,37.3873,137.468,104.661,106.439,0.0022545,0.0501193,20.9967,597.39,-0.15238,0.0,0.0
800,199.75,35.5009,37.5964,137.808,104.693,105.928,0.00222908,0.0501046,20.9967,597.39,-0.106078,0.0,0.0
802,200.25,35.4726,37.2668,133.142,104.711,107.193,0.00221364,0.0500998,20.9967,597.39,-0.211925,0.0,0.0
804,200.75,35.3529,37.4771,140.273,104.734,106.533,0.00220576,0.0501024,20.9967,597.4,-0.154089,0.0,0.0
806,201.25,35.1377,37.198,140.085,104.745,106.479,0.00219938,0.0501046,20.9967,597.42,-0.148517,0.0,0.0
808,201.75,35.4553,37.4864,137.115,104.763,106.479,0.00221012,0.0500488,20.9967,597.4,-0.146984,0.0,0.0
810,202.25,35.4443,37.474,139.552,104.792,107.263,0.00221882,0.0499518,20.9967,597.4,-0.210774,0.0,0.0
812,202.75,35.486,37.4242,140.143,104.808,106.024,0.002243,0.0499092,20.9967,597.45,-0.104341,0.0,0.0
814,203.25,35.4085,37.639,137.077,104.821,106.796,0.00226259,0.049907,20.9967,597.38,-0.168816,0.0,0.0
816,203.75,35.8373,37.4332,139.422,104.838,106.133,0.00228683,0.0499053,20.9967,597.38,-0.111005,0.0,0.0
818,204.25,35.6154,37.3495,138.908,104.849,106.355,0.00231401,0.0499449,20.9967,597.34,-0.129006,0.0,0.0
820,204.75,35.5323,36.9293,136.371,104.871,106.624,0.00233603,0.0499769,20.9967,597.34,-0.149942,0.0,0.0
822,205.25,35.5438,37.5433,138.494,104.899,106.12,0.00236611,0.0499885,20.9967,597.36,-0.104684,0.0,0.0
824,205.75,35.2432,37.7378,139.331,104.905,106.498,0.00239048,0.049985,20.9967,597.32,-0.136311,0.0,0.0
826,206.25,35.1285,37.6533,138.508,104.923,106.361,0.00241022,0.0499893,20.9967,597.33,-0.123069,0.0,0.0
828,206.75,35.5525,37.5173,137.401,104.927,106.486,0.00243846,0.0499992,20.9969,597.35,-0.133427,0.0,0.0
830,207.25,35.1427,36.7364,137.371,104.98,106.597,0.00246134,0.0500073,20.9971,597.34,-0.138213,0.0,0.0
832,207.75,35.3417,37.3607,136.818,104.958,106.997,0.00248374,0.0500138,20.9973,597.33,-0.17403,0.0,0.0
834,208.25,35.5797,37.0155,138.099,104.983,106.51,0.00250537,0.0500191,20.9975,597.34,-0.130637,0.0,0.0
836,208.75,35.2465,37.2975,137.536,104.997,107.201,0.00252289,0.0500234,20.9976,597.32,-0.187948,0.0,0.0
838,209.25,35.5406,37.6061,139.104,105.023,105.982,0.00253101,0.0500125,20.9975,597.32,-0.082217,0.0,0.0
840,209.75,35.5802,37.5138,136.109,105.017,106.538,0.00253759,0.0499907,20.9972,597.32,-0.130064,0.0,0.0
842,210.25,35.1855,37.2695,135.792,105.036,106.523,0.00253924,0.0499947,20.9968,597.32,-0.12716,0.0,0.0
844,210.75,35.1994,37.2594,137.295,105.048,105.945,0.00254058,0.0500173,20.9965,597.32,-0.0769257,0.0,0.0
846,211.25,34.9936,37.1528,141.158,105.067,106.457,0.00254657,0.0500356,20.9962,597.32,-0.118886,0.0,0.0
848,211.75,35.5079,37.3815,134.476,105.069,106.409,0.00254912,0.0500359,20.9961,597.35,-0.114623,0.0,0.0
850,212.25,35.5751,37.2329,138.033,105.101,106.284,0.00255348,0.0500362,20.9959,597.33,-0.101281,0.0,0.0
852,212.75,35.727,37.3485,133.761,105.086,107.136,0.00255573,0.0499955,20.9957,597.33,-0.174763,0.0,0.0
854,213.25,35.0485,37.1524,135.689,105.113,106.505,0.00255639,0.0499624,20.9956,597.34,-0.118956,0.0,0.0
856,213.75,35.3491,37.0747,137.355,105.125,106.88,0.00254589,0.0499494,20.9955,597.31,-0.149768,0.0,0.0
858,214.25,35.5928,37.2294,139.207,105.139,107.344,0.00253739,0.0499388,20.9954,597.31,-0.187705,0.0,0.0
860,214.75,35.205,37.0746,136.136,105.136,106.729,0.0025207,0.0499343,20.9953,597.31,-0.136003,0.0,0.0
862,215.25,35.4957,37.3153,138.497,105.157,106.138,0.00250718,0.0499539,20.9953,597.3,-0.0840654,0.0,0.0
864,215.75,35.5946,36.7708,136.998,105.163,106.758,0.00248888,0.0499698,20.9955,597.31,-0.136199,0.0,0.0
866,216.25,35.5085,36.994,137.828,105.182,106.016,0.00247406,0.0499395,20.9958,597.31,-0.0714784,0.0,0.0
868,216.75,35.3925,37.1255,137.628,105.19,107.418,0.00245716,0.0498761,20.9961,597.26,-0.189657,0.0,0.0
870,217.25,35.3385,37.1076,138.772,105.205,106.863,0.00244346,0.0498176,20.9963,597.28,-0.141439,0.0,0.0
872,217.75,35.1725,37.0348,138.837,105.206,107.125,0.00242503,0.0497637,20.9965,597.26,-0.163533,0.0,0.0
874,218.25,35.5047,37.1519,135.921,105.217,107.032,0.00241009,0.0497201,20.9967,597.25,-0.154718,0.0,0.0
876,218.75,35.5734,36.7242,136.791,105.218,106.817,0.002398,0.0496847,20.9968,597.24,-0.136445,0.0,0.0
878,219.25,35.2192,36.8953,139.406,105.234,106.491,0.00238085,0.0496345,20.9969,597.25,-0.107337,0.0,0.0
880,219.75,35.1262,36.78,135.011,105.241,107.309,,0.0495744,,597.24,-0.176041,0.0,0.0
882,220.25,34.8234,36.9381,135.673,105.244,107.004,,0.0495186,,597.22,-0.149995,0.0,0.0
884,220.75,35.4281,36.8581,134.293,105.253,107.047,,0.0494669,,597.23,-0.152893,0.0,0.0
886,221.25,34.8793,36.709,137.505,105.265,106.439,,0.049425,,597.2,-0.100369,0.0,0.0
888,221.75,35.5657,36.7405,139.554,105.259,105.684,,0.049391,,597.23,-0.0364467,0.0,0.0
890,222.25,35.4879,37.2506,136.252,105.284,106.261,,0.0493636,,597.22,-0.083562,0.0,0.0
892,222.75,35.6989,36.8106,136.647,105.276,106.345,,,,597.22,-0.091349,0.0,0.0
894,223.25,35.1196,37.2068,136.437,105.29,107.438,,,,597.24,-0.182697,0.0,0.0
896,223.75,35.1996,37.1022,137.16,105.291,106.882,,,,597.24,-0.135678,0.0,0.0
898,224.25,35.3509,37.0329,136.513,105.302,106.907,,,,597.23,-0.136863,0.0,0.0
900,224.75,35.1726,37.0513,135.825,105.285,106.463,,,,597.25,-0.100645,0.0,0.0
902,225.25,35.4945,36.9709,138.581,105.313,107.564,,,,597.24,-0.191354,0.0,0.0
904,225.75,35.1903,37.3583,134.684,105.311,107.05,,,,597.27,-0.148119,0.0,0.0
906,226.25,34.9838,37.2078,133.99,105.336,106.767,,,,597.25,-0.122093,0.0,0.0
908,226.75,35.2844,37.1824,134.687,105.317,107.011,,,,597.23,-0.14434,0.0,0.0
910,227.25,35.5511,37.2523,140.229,105.336,106.503,,,,597.22,-0.0996512,0.0,0.0
912,227.75,35.1128,37.0801,141.28,105.337,106.062,,,,597.24,-0.0620391,0.0,0.0
914,228.25,35.021,37.1084,135.96,105.354,106.742,,,,597.24,-0.118437,0.0,0.0
916,228.75,35.6992,36.859,137.85,105.338,106.717,,,,597.23,-0.117651,0.0,0.0
918,229.25,35.613,36.7834,135.65,105.356,106.9,,,,597.21,-0.131665,0.0,0.0
920,229.75,35.4827,36.9936,138.662,105.353,107.402,,,,597.19,-0.17423,0.0,0.0
922,230.25,35.5106,37.0305,137.531,105.363,107.141,,,,597.19,-0.151326,0.0,0.0
923,230.5,35.4984,36.4364,136.728,105.366,106.214,,,,597.19,-0.072555,0.0,0.0