File: 01_Data/Polyester_Bed_Skirt/Cone/Polyester_Bed_Skirt_Cone_HF25Scan_220523_R2.csv
Names,Time,Stack TC,Smoke TC,Exh Press,Smoke Comp,Smoke Meas,CO Meter,CO2 Meter,O2 Meter,Sample Mass,Ext Coeff,Start Test,Flame Verif
Chan Gain,,500,500,1,1,1,1,1,1,1,1,1.0,1.0
Offset,,0,0,0.135828,0,0,0,0,0,0,0,0.0,0.0
Gain,,1,1,25.011,13.8491,15.2622,1,1,1,1.00087,1.03118,1.0,1.0
Units,sec,C,C,Pa,%,%,%,%,%,g,/m,,
Baseline,,31.1037,31.9155,136.579,105.382,111.954,7.2349e-05,0.0472591,20.9929,-451.14,-0.54716,,
5,1,27.8027,28.9594,136.932,105.187,111.217,0.000126322,0.0493493,20.991,606.168,-0.504198,0.0,0.0
10,2.25,27.7817,29.0021,135.285,105.201,112.456,7.02119e-05,0.0494631,20.9899,606.038,-0.60317,0.0,0.0
15,3.5,27.9526,29.1031,137.442,105.207,112.437,-1.2523e-05,0.0494718,20.9893,606.058,-0.601161,0.0,0.0
20,4.75,27.8723,28.5457,133.846,105.212,111.878,-7.03974e-05,0.0493728,20.9889,605.927,-0.555684,0.0,0.0
25,6,28.3751,29.2746,139.441,105.24,112.045,-0.000101704,0.0492349,20.9896,606.018,-0.566761,0.0,0.0
30,7.25,27.9554,28.8749,135.419,105.245,111.648,-0.000102505,0.0489702,20.99,605.988,-0.53423,0.0,0.0
35,8.5,28.2323,29.3249,138.021,105.25,111.906,-7.86543e-05,0.0485627,20.9907,606.038,-0.554601,0.0,0.0
40,9.75,28.3951,28.9847,137.068,105.272,111.661,-5.58294e-05,0.0481921,20.9916,605.948,-0.532998,0.0,0.0
45,11,28.2481,29.0489,137.326,105.267,112.028,-4.49666e-05,0.047887,20.9922,605.997,-0.56308,0.0,0.0
50,12.25,28.2114,28.8907,138.816,105.291,112.353,-4.62883e-05,0.0475701,20.9925,605.988,-0.587222,0.0,0.0
55,13.5,28.4855,29.198,134.842,105.305,111.232,-3.52709e-05,0.0472065,20.9927,605.997,-0.495277,0.0,0.0
60,14.75,28.241,29.1618,137.726,105.323,111.992,2.86802e-05,0.0468332,20.9928,606.028,-0.555318,0.0,0.0
65,16,27.7788,29.0813,138.419,105.325,112.141,0.000110102,0.0466549,20.9929,606.018,-0.567204,0.0,0.0
70,17.25,28.5122,28.9119,137.857,105.362,111.75,0.000172172,0.0466141,20.9929,605.997,-0.532436,0.0,0.0
75,18.5,28.4535,29.0963,137.019,105.377,111.443,0.000200992,0.0464236,20.9935,606.018,-0.506248,0.0,0.0
80,19.75,28.0692,28.8201,142.188,105.412,111.932,0.000158852,0.0462638,20.994,606.008,-0.542847,0.0,0.0
85,21,28.6961,29.9628,133.812,105.404,112.716,8.32703e-05,0.0462283,20.9942,605.968,-0.606624,0.0,0.0
90,22.25,29.0116,29.5524,136.653,105.434,111.851,-9.134e-06,0.0462073,20.9944,605.968,-0.534445,0.0,0.0
95,23.5,28.9667,29.2113,139.26,105.451,112.058,-8.94492e-05,0.0461702,20.9945,605.958,-0.549741,0.0,0.0
100,24.75,28.5023,29.0159,136.462,105.464,111.577,-0.000145587,0.046107,20.9945,605.958,-0.509696,0.0,0.0
105,26,27.9939,28.9667,138.768,105.473,112.644,-0.000169266,0.0460884,20.9946,606.008,-0.594993,0.0,0.0
110,27.25,28.7557,29.2252,143.61,105.487,112.465,-0.000162633,0.0462026,20.9946,605.988,-0.579386,0.0,0.0
115,28.5,28.7379,29.5795,136.577,105.5,111.574,-0.000114082,0.0462125,20.9946,605.988,-0.506389,0.0,0.0
120,29.75,28.8813,29.3311,140.993,105.494,112.407,2.50477e-05,0.0461686,20.9946,605.988,-0.574123,0.0,0.0
125,31,28.4417,29.4339,135.052,105.501,112.796,0.000166987,0.0461674,20.9946,606.038,-0.604786,0.0,0.0
130,32.25,28.9322,29.1434,135.304,105.508,111.765,0.000255499,0.0461044,20.9946,606.028,-0.521168,0.0,0.0
135,33.5,28.9176,29.6361,135.265,105.509,112.753,0.000277433,0.0460682,20.9946,605.997,-0.60066,0.0,0.0
140,34.75,28.5349,29.4009,136.278,105.49,112.392,0.000240901,0.0460518,20.9946,605.968,-0.573286,0.0,0.0
145,36,28.4455,29.269,137.976,105.493,112.168,0.000122445,0.0460464,20.9946,606.008,-0.554947,0.0,0.0
150,37.25,28.6323,29.3418,136.731,105.472,111.968,-1.01618e-05,0.046039,20.9946,605.988,-0.540706,0.0,0.0
155,38.5,28.4706,29.6419,139.42,105.464,111.905,-0.000102257,0.0460661,20.9946,605.997,-0.536201,0.0,0.0
160,39.75,28.601,29.6795,133.044,105.434,111.886,-0.00012161,0.0460822,20.9946,605.937,-0.537233,0.0,0.0
165,41,28.619,29.4333,136.117,105.415,111.832,-0.000103374,0.0462093,20.9945,605.978,-0.534458,0.0,0.0
170,42.25,29.0554,29.7297,137.658,105.398,111.667,-7.98571e-05,0.0463138,20.9943,605.978,-0.522674,0.0,0.0
175,43.5,29.3844,29.4285,137.009,105.351,111.373,-0.000105863,0.0462799,20.9942,605.997,-0.502862,0.0,0.0
180,44.75,29.1585,29.8693,137.89,105.309,111.791,-0.000147067,0.0461885,20.9941,605.958,-0.540325,0.0,0.0
185,46,28.8657,29.5067,138.822,105.27,111.94,-0.000167456,0.0461544,20.994,605.997,-0.55568,0.0,0.0
190,47.25,29.1662,29.6765,136.845,105.237,111.111,-0.000152275,0.0461121,20.994,605.988,-0.491306,0.0,0.0
195,48.5,28.5295,29.1647,137.619,105.191,111.284,-0.000112722,0.0460877,20.994,605.968,-0.509325,0.0,0.0
200,49.75,29.1265,29.734,133.092,105.139,110.852,-6.34832e-05,0.0460067,20.994,605.968,-0.478594,0.0,0.0
205,51,29.0211,29.82,134.259,105.106,111.384,-5.22888e-06,0.0459516,20.994,605.968,-0.524805,0.0,0.0
210,52.25,29.2696,29.713,138.673,105.051,111.23,5.0036e-05,0.0459105,20.994,605.907,-0.51697,0.0,0.0
215,53.5,29.0517,29.4709,137.136,105.002,111.756,7.93692e-05,0.0459703,20.994,605.937,-0.563891,0.0,0.0
220,54.75,29.0754,29.4369,136.744,104.984,111.138,8.26344e-05,0.0460454,20.994,605.937,-0.515218,0.0,0.0
225,56,29.3248,29.4311,138.294,104.943,110.525,0.000100572,0.0460505,20.994,605.978,-0.468763,0.0,0.0
230,57.25,29.1121,29.9276,135.44,104.896,111.52,0.000154976,0.046063,20.994,605.958,-0.553901,0.0,0.0
235,58.5,28.7834,29.754,137.9,104.844,110.82,0.00022117,0.046105,20.994,605.988,-0.501388,0.0,0.0
240,59.75,29.0573,29.1864,138.339,104.808,111.291,0.000264242,0.0463729,20.994,606.008,-0.54288,0.0,0.0
245,61,29.1194,29.2911,137.509,104.755,111.503,0.000261065,0.0468412,20.994,605.958,-0.564647,0.0,0.0
250,62.25,28.5372,30.0759,134.373,104.703,110.941,0.000215337,0.0475287,20.994,605.937,-0.523491,0.0,0.0
255,63.5,29.027,29.6285,135.882,104.693,111.048,0.000175051,0.0481461,20.9932,605.937,-0.533024,0.0,0.0
260,64.75,29.0152,29.5332,140.304,104.715,110.755,0.000137462,0.0485663,20.9931,605.958,-0.507231,0.0,0.0
265,66,29.36,29.9203,137.809,104.72,111.205,0.000123897,0.0487514,20.993,605.927,-0.543463,0.0,0.0
270,67.25,29.1035,29.7445,137.638,104.723,110.561,0.000137247,0.0486841,20.993,605.988,-0.490698,0.0,0.0
275,68.5,28.8436,29.7701,136.031,104.748,110.972,0.000195805,0.0484562,20.9934,605.948,-0.522055,0.0,0.0
280,69.75,29.0895,29.3538,138.332,104.767,111.095,0.00029015,0.0482001,20.9942,605.968,-0.530541,0.0,0.0
285,71,29.0191,29.5614,137.922,104.791,110.791,0.000363715,0.0479605,20.9946,605.968,-0.503627,0.0,0.0
290,72.25,29.1711,29.7406,134.611,104.812,111.115,0.000402896,0.0476657,20.9949,606.008,-0.528193,0.0,0.0
295,73.5,28.8805,29.7053,137.384,104.854,111.382,0.00039819,0.0474217,20.995,605.997,-0.546321,0.0,0.0
300,74.75,29.512,29.6259,135.125,104.88,111.226,0.000385738,0.0471353,20.9951,605.968,-0.531454,0.0,0.0
305,76,28.9142,29.6645,136.701,104.904,110.858,0.000377409,0.0469293,20.9952,605.958,-0.499327,0.0,0.0
310,77.25,29.1678,29.9119,137.137,104.944,110.941,0.000360193,0.0468424,20.9952,605.927,-0.502628,0.0,0.0
315,78.5,29.054,29.8862,135.456,104.99,111.323,0.000315757,0.0467312,20.9952,605.927,-0.529821,0.0,0.0
320,79.75,28.9654,30.0861,133.421,105.025,111.416,0.000257387,0.0465337,20.9953,605.937,-0.534326,0.0,0.0
325,81,29.1026,29.6904,138.161,105.048,111.258,0.000211361,0.0464444,20.9953,605.937,-0.519496,0.0,0.0
330,82.25,29.1434,29.892,138.25,105.084,110.849,0.000171139,0.0464621,20.9953,605.958,-0.483095,0.0,0.0
335,83.5,29.1335,29.8868,137.767,105.116,110.832,0.000138916,0.046644,20.9953,605.927,-0.479035,0.0,0.0
340,84.75,29.0373,30.0062,136.812,105.147,110.77,0.000141682,0.046867,20.9948,605.897,-0.471211,0.0,0.0
345,86,29.1384,29.9054,136.459,105.174,111.243,0.000170141,0.0473406,20.9941,605.917,-0.507445,0.0,0.0
350,87.25,29.1714,29.8776,136.752,105.21,110.171,0.000202327,0.0475777,20.9935,605.917,-0.416752,0.0,0.0
355,88.5,28.9509,29.9154,138.506,105.25,110.656,0.000193816,0.0477692,20.993,605.917,-0.453133,0.0,0.0
360,89.75,29.5006,29.6129,135.511,105.267,110.614,0.000136975,0.0477459,20.9927,605.927,-0.448181,0.0,0.0
365,91,29.2766,30.1695,136.67,105.273,110.93,6.60741e-05,0.0476041,20.9926,605.937,-0.473496,0.0,0.0
370,92.25,29.2463,29.8386,134.724,105.292,110.257,-2.19568e-05,0.047432,20.9932,605.958,-0.416814,0.0,0.0
375,93.5,29.3843,30.0995,136.188,105.31,111.25,-8.51226e-05,0.0472512,20.9938,605.958,-0.496279,0.0,0.0
380,94.75,29.4317,29.8523,136.287,105.33,111.081,-0.000120451,0.0470761,20.9941,605.927,-0.480855,0.0,0.0
385,96,29.1237,30.4843,139.457,105.335,110.984,-0.000118547,0.0469354,20.9935,605.907,-0.472562,0.0,0.0
390,97.25,28.9728,30.0161,138.997,105.35,111.014,-0.000107883,0.0470125,20.993,605.917,-0.473684,0.0,0.0
395,98.5,28.4631,30.342,137.968,105.369,111.176,-7.49672e-05,0.0473975,20.9927,605.948,-0.48525,0.0,0.0
400,99.75,29.1434,30.1533,133.867,105.369,112.058,-2.45914e-06,0.0478668,20.9926,605.948,-0.556703,0.0,0.0
405,101,29.4598,30.0004,138.38,105.371,110.963,7.96043e-05,0.048575,20.9917,605.948,-0.467696,0.0,0.0
410,102.25,29.464,30.1838,134.377,105.394,111.302,0.000136829,0.0492995,20.991,605.897,-0.49341,0.0,0.0
415,103.5,29.491,30.1621,135.17,105.392,111.148,0.000198397,0.0496693,20.9906,605.917,-0.481017,0.0,0.0
420,104.75,29.4036,30.0323,140.314,105.396,111.92,0.000263355,0.0494754,20.9903,605.907,-0.543208,0.0,0.0
425,106,29.7164,30.2387,133.877,105.406,111.169,0.000317506,0.0491135,20.9902,605.917,-0.481524,0.0,0.0
430,107.25,29.5041,29.946,136.648,105.405,111.405,0.000349482,0.0486467,20.9901,605.907,-0.500792,0.0,0.0
435,108.5,29.6399,29.9755,134.753,105.412,111.696,0.000365939,0.0483962,20.9901,605.917,-0.523705,0.0,0.0
440,109.75,29.9216,30.2768,141.5,105.403,111.228,0.000362016,0.0484672,20.9899,605.948,-0.486628,0.0,0.0
445,111,29.4001,29.9331,135.984,105.412,110.549,0.000303138,0.0488032,20.9895,605.877,-0.430399,0.0,0.0
450,112.25,29.7794,30.1225,137.08,105.428,111.479,0.000217694,0.0491975,20.9887,605.907,-0.504845,0.0,0.0
455,113.5,29.3127,29.9262,137.052,105.419,111.59,0.000153883,0.0499709,20.9879,605.937,-0.514596,0.0,0.0
460,114.75,29.9352,29.8562,136.697,105.401,111.689,0.000111924,0.0510167,20.9866,605.917,-0.524156,0.0,0.0
465,116,29.7355,29.9845,137.815,105.422,111.093,6.98945e-05,0.0519224,20.9857,605.927,-0.47393,0.0,0.0
470,117.25,29.032,30.4911,135.788,105.436,112.064,3.62577e-05,0.052436,20.9849,605.907,-0.551462,0.0,0.0
475,118.5,29.4808,29.9834,139.057,105.43,111.397,4.94735e-05,0.0525813,20.9837,605.887,-0.498008,0.0,0.0
480,119.75,29.6381,29.966,135.426,105.429,111.235,8.8644e-05,0.0525397,20.9837,605.917,-0.484911,0.0,0.0
485,121,29.6226,29.8959,135.677,105.442,111.47,0.000140232,0.0525696,20.9832,605.937,-0.502856,0.0,0.0
490,122.25,29.229,29.8152,137.077,105.451,111.828,0.000204191,0.0526455,20.9826,605.927,-0.531112,0.0,0.0
495,123.5,29.2938,30.3353,135.133,105.439,111.706,0.000246005,0.0527647,20.9824,605.948,-0.522286,0.0,0.0
500,124.75,29.0516,29.6318,133.838,105.443,111.328,0.000278837,0.0529821,20.9823,605.897,-0.491285,0.0,0.0
505,126,29.5547,29.8751,134.984,105.45,111.414,0.000317006,0.0533213,20.9822,605.917,-0.497666,0.0,0.0
510,127.25,29.6539,29.9181,134.826,105.45,110.848,0.000337381,0.0535256,20.9821,605.887,-0.451604,0.0,0.0
515,128.5,29.6685,30.0041,136.872,105.435,111.199,0.000319432,0.0536977,20.9821,605.887,-0.481485,0.0,0.0
520,129.75,29.5768,30.6971,137.666,105.463,111.178,0.000248986,0.0538736,20.9821,605.897,-0.477277,0.0,0.0
525,131,29.5014,30.4912,140.758,105.449,111.811,0.00018373,0.0540868,20.9821,605.897,-0.529899,0.0,0.0
530,132.25,29.6179,30.7397,135.471,105.45,111.064,0.000123297,0.0543457,20.9824,605.907,-0.469223,0.0,0.0
535,133.5,29.2653,30.6544,136.353,105.44,111.276,8.73145e-05,0.0545245,20.9829,605.887,-0.487263,0.0,0.0
540,134.75,29.5932,30.0973,135.114,105.457,111.867,6.55521e-05,0.0545826,20.9832,605.887,-0.533768,0.0,0.0
545,136,29.7573,29.9729,140.863,105.456,111.995,3.89074e-05,0.0542714,20.9834,605.877,-0.544118,0.0,0.0
550,137.25,29.7046,30.5789,135.241,105.456,111.44,-2.5084e-05,0.0538106,20.9835,605.857,-0.499241,0.0,0.0
555,138.5,29.6971,30.3135,137.558,105.451,111.58,-4.32065e-05,0.0532593,20.9842,605.877,-0.511048,0.0,0.0
560,139.75,29.468,30.3348,136.286,105.465,111.539,-2.95582e-06,0.0529641,20.985,605.877,-0.506528,0.0,0.0
565,141,29.3074,30.2064,134.895,105.48,111.308,6.00116e-05,0.0525468,20.9854,605.887,-0.486393,0.0,0.0
570,142.25,29.5445,30.6951,138.732,105.46,111.485,0.000129542,0.0520691,20.9857,605.867,-0.502616,0.0,0.0
575,143.5,29.7066,29.9222,141.053,105.46,111.594,0.000174983,0.0515688,20.9858,605.887,-0.511379,0.0,0.0
580,144.75,29.5735,30.0821,132.994,105.466,110.888,0.000191693,0.0512155,20.9859,605.867,-0.453422,0.0,0.0
585,146,29.761,30.3926,136.865,105.467,111.281,0.000168792,0.0508596,20.9866,605.857,-0.485322,0.0,0.0
590,147.25,29.5154,30.8208,136.871,105.447,112.185,0.000130523,0.0504268,20.9873,605.877,-0.560324,0.0,0.0
595,148.5,29.6658,30.4294,138.534,105.464,111.698,0.000107227,0.0500793,20.9877,605.887,-0.51947,0.0,0.0
600,149.75,29.6619,30.5257,139.627,105.48,111.018,9.74128e-05,0.0497298,20.988,605.917,-0.462819,0.0,0.0
605,151,30.012,30.6191,134.465,105.457,112.119,0.000112364,0.0493645,20.9881,605.877,-0.554121,0.0,0.0
610,152.25,29.931,29.9629,135.599,105.458,110.854,0.000145443,0.0490526,20.9884,605.867,-0.451374,0.0,0.0
615,153.5,29.503,30.4852,135.4,105.473,112.123,0.000192042,0.0488174,20.9893,605.867,-0.553043,0.0,0.0
620,154.75,29.8292,30.1814,138.675,105.475,111.904,0.000242419,0.0486032,20.9899,605.847,-0.535186,0.0,0.0
625,156,29.9046,30.5468,136.873,105.482,111.491,0.000322868,0.0485745,20.9905,605.837,-0.501148,0.0,0.0
630,157.25,30.0239,29.544,133.241,105.477,111.343,0.000378776,0.0486809,20.9908,605.867,-0.489559,0.0,0.0
635,158.5,29.6903,30.381,137.971,105.469,110.7,0.000333226,0.0488472,20.9902,605.887,-0.437916,0.0,0.0
640,159.75,29.4775,30.8103,135.927,105.482,111.657,0.000235112,0.0490618,20.9895,605.877,-0.514629,0.0,0.0
645,161,29.4812,30.342,135.633,105.464,111.131,0.000128642,0.0494111,20.9881,605.837,-0.473414,0.0,0.0
650,162.25,29.9812,30.1406,141.826,105.482,111.551,8.50201e-05,0.0501896,20.9866,605.857,-0.505985,0.0,0.0
655,163.5,29.9123,30.0611,133.856,105.476,111.221,6.3439e-05,0.0511115,20.9857,605.887,-0.479712,0.0,0.0
660,164.75,30.0818,30.4112,134.098,105.485,110.9,4.72448e-05,0.0519469,20.9851,605.897,-0.452816,0.0,0.0
665,166,29.4704,30.7091,133.051,105.482,111.999,4.90569e-05,0.0525496,20.9842,605.897,-0.542282,0.0,0.0
670,167.25,29.2166,30.671,135.166,105.486,112.09,6.35842e-05,0.0530388,20.9833,605.897,-0.549251,0.0,0.0
675,168.5,30.0396,30.6437,141.124,105.48,110.965,8.3867e-05,0.0535247,20.9828,605.897,-0.458565,0.0,0.0
680,169.75,30.0131,30.731,132.251,105.477,110.883,0.000135695,0.0538199,20.9825,605.877,-0.452171,0.0,0.0
685,171,29.8449,30.4672,136.093,105.474,110.682,0.000206669,0.0537553,20.9823,605.877,-0.435998,0.0,0.0
690,172.25,29.6849,30.6155,136.694,105.493,111.028,0.000273396,0.0535131,20.9824,605.857,-0.462565,0.0,0.0
695,173.5,29.9307,30.503,136.207,105.484,111.21,0.000294859,0.0531838,20.9832,605.877,-0.478189,0.0,0.0
700,174.75,29.7436,30.4525,135.663,105.477,110.498,0.000255285,0.0527787,20.9837,605.867,-0.420584,0.0,0.0
705,176,29.6153,30.7354,141.472,105.479,110.716,0.000196126,0.0523629,20.9839,605.857,-0.438265,0.0,0.0
710,177.25,29.8064,30.2967,135.079,105.477,111.363,0.000169622,0.0520428,20.9841,605.867,-0.491224,0.0,0.0
715,178.5,29.682,30.8674,137.247,105.485,111.651,0.000176217,0.0520534,20.9842,605.867,-0.513849,0.0,0.0
720,179.75,29.7808,30.7339,138.259,105.465,110.592,0.000237321,0.0523092,20.9836,605.877,-0.42937,0.0,0.0
725,181,29.9932,30.7733,140.437,105.468,111.086,0.000259579,0.0525076,20.9839,605.867,-0.469409,0.0,0.0
730,182.25,30.0997,30.2818,136.062,105.477,111.412,0.000240571,0.0525699,20.9841,605.827,-0.495195,0.0,0.0
735,183.5,29.7422,30.316,138.254,105.477,110.873,0.000171818,0.0523875,20.9842,605.837,-0.451225,0.0,0.0
740,184.75,29.8628,30.8751,136.15,105.472,110.926,0.000101656,0.052074,20.9843,605.837,-0.456029,0.0,0.0
745,186,30.2978,30.4375,137.458,105.465,110.39,4.45847e-05,0.0515563,20.9851,605.827,-0.412822,0.0,0.0
750,187.25,29.9357,30.6126,136.1,105.462,111.03,2.71027e-05,0.0510759,20.9857,605.837,-0.465364,0.0,0.0
755,188.5,29.9913,30.8198,134.45,105.458,110.837,2.42127e-05,0.0507334,20.9861,605.847,-0.45004,0.0,0.0
760,189.75,29.9431,30.799,131.504,105.443,110.95,9.3597e-06,0.0504793,20.9863,605.817,-0.460541,0.0,0.0
765,191,30.1921,30.491,135.332,105.452,111.61,-9.34944e-06,0.0503071,20.9865,605.837,-0.513427,0.0,0.0
770,192.25,30.033,30.7767,140.647,105.453,110.519,-3.99775e-05,0.050178,20.9865,605.827,-0.424404,0.0,0.0
775,193.5,30.1234,30.7137,135.912,105.419,111.019,-7.16846e-05,0.0500208,20.9866,605.847,-0.46819,0.0,0.0
780,194.75,30.0923,30.7874,138.659,105.416,110.392,-0.000104635,0.0498959,20.9866,605.837,-0.417256,0.0,0.0
785,196,29.9034,30.4422,135.551,105.414,110.977,-0.000128344,0.0500003,20.9867,605.837,-0.465135,0.0,0.0
790,197.25,29.8226,31.3187,138.59,105.393,110.897,-0.000120009,0.0504373,20.9867,605.827,-0.460455,0.0,0.0
795,198.5,29.966,30.9797,134.307,105.37,110.353,-8.71247e-05,0.0508989,20.9864,605.837,-0.417966,0.0,0.0
800,199.75,30.3413,30.9649,137.668,105.371,111.301,-4.60326e-05,0.0511836,20.9856,605.827,-0.495181,0.0,0.0
805,201,30.0593,31.3125,136.907,105.36,110.6,-1.28533e-05,0.0513007,20.9851,605.837,-0.439088,0.0,0.0
810,202.25,30.424,31.1461,136.849,105.349,110.941,5.00673e-05,0.0513368,20.9863,605.827,-0.467836,0.0,0.0
815,203.5,30.1081,30.4876,135.065,105.327,110.974,0.000124401,0.0514027,20.987,605.837,-0.472381,0.0,0.0
820,204.75,30.1121,30.6797,137.472,105.319,110.212,0.000186773,0.0512209,20.9874,605.827,-0.410783,0.0,0.0
825,206,30.3691,30.5224,135.273,105.309,110.933,0.000206275,0.0510554,20.9876,605.827,-0.470562,0.0,0.0
830,207.25,30.1267,31.3237,134.111,105.283,110.625,0.000175213,0.0509223,20.9884,605.817,-0.447749,0.0,0.0
835,208.5,30.0872,31.131,133.662,105.269,110.907,0.000113371,0.050908,20.9892,605.827,-0.47196,0.0,0.0
840,209.75,30.5067,31.2183,134.821,105.256,109.961,3.91009e-05,0.050988,20.9896,605.817,-0.395529,0.0,0.0
845,211,30.3702,31.1105,135.801,105.232,110.407,-1.93594e-05,0.0513959,20.9893,605.807,-0.43423,0.0,0.0
850,212.25,30.5193,30.3918,137.564,105.203,110.871,-3.20877e-05,0.0521239,20.988,605.807,-0.474627,0.0,0.0
855,213.5,30.131,31.1157,137.39,105.194,110.8,2.67366e-05,0.0529561,20.9862,605.797,-0.469612,0.0,0.0
860,214.75,30.0364,30.6494,133.624,105.192,110.921,7.7556e-05,0.053863,20.9851,605.797,-0.479712,0.0,0.0
865,216,28.0602,29.1828,139.506,105.151,110.458,8.61078e-05,0.0544374,20.9846,605.797,-0.445405,0.0,0.0
870,217.25,28.1487,28.4189,139.283,105.125,110.148,7.13854e-05,0.0544735,20.985,605.737,-0.422184,0.0,0.0
875,218.5,28.2566,29.4233,134.838,105.097,110.773,6.71727e-05,0.0541659,20.9859,605.807,-0.475732,0.0,0.0
880,219.75,28.3695,28.8293,132.761,105.072,110.618,7.80194e-05,0.0535176,20.9868,605.787,-0.465279,0.0,0.0
885,221,28.123,29.3216,132.931,105.064,111.088,9.40515e-05,0.05301,20.9873,605.797,-0.504317,0.0,0.0
890,222.25,28.4427,29.8881,135.664,105.002,110.045,0.000103094,0.0534958,20.9863,605.797,-0.424316,0.0,0.0
895,223.5,28.3483,29.2464,137.987,104.987,110.733,0.000121057,0.0553226,20.9847,605.817,-0.482034,0.0,0.0
900,224.75,28.4541,29.2915,137.552,104.962,110.086,0.000190847,0.057488,20.9826,605.807,-0.431143,0.0,0.0
905,226,28.4142,29.558,138.675,104.938,110.095,0.000295593,0.0592874,20.981,605.807,-0.433985,0.0,0.0
910,227.25,28.5862,29.3037,132.584,104.89,110.547,0.000372807,0.060027,20.9801,605.797,-0.475147,0.0,0.0
915,228.5,28.5902,29.4017,138.613,104.886,110.133,0.000360397,0.0597811,20.9803,605.807,-0.441566,0.0,0.0
920,229.75,28.6898,29.2965,135.082,104.853,110.115,0.000272079,0.0587494,20.9816,605.797,-0.442917,0.0,0.0
925,231,28.6457,29.4299,137.461,104.824,110.623,0.000186287,0.0570369,20.9828,605.787,-0.487044,0.0,0.0
930,232.25,28.2805,29.3804,135.705,104.828,110.436,0.000134472,0.0553983,20.9853,605.767,-0.471393,0.0,0.0
935,233.5,28.6854,29.2269,133.725,104.832,110.267,0.000120387,0.0538159,20.9874,605.787,-0.457245,0.0,0.0
940,234.75,28.5125,29.3104,137.139,104.79,110.675,0.000131231,0.0524458,20.9886,605.777,-0.494225,0.0,0.0
945,236,28.4604,29.492,135.952,104.761,111.24,0.000131518,0.0515077,20.9893,605.777,-0.542875,0.0,0.0
950,237.25,28.4329,29.5721,137.253,104.766,110.846,8.92294e-05,0.0509438,20.9897,605.777,-0.510303,0.0,0.0
955,238.5,28.184,29.4977,136.874,104.761,110.553,1.35146e-05,0.050586,20.9897,605.797,-0.486803,0.0,0.0
960,239.75,28.6835,29.1826,140.532,104.757,109.792,-3.76528e-05,0.0502752,20.989,605.797,-0.424644,0.0,0.0
965,241,28.6349,29.3463,135.381,104.796,110.136,-2.50015e-05,0.0499667,20.9886,605.797,-0.449526,0.0,0.0
970,242.25,28.299,29.141,136.402,104.853,110.02,4.25099e-05,0.0497975,20.9883,605.797,-0.435109,0.0,0.0
975,243.5,28.2425,29.7746,135.402,104.89,110.355,0.000142411,0.0498154,20.9882,605.787,-0.459392,0.0,0.0
980,244.75,28.8151,29.3414,134.543,104.917,109.907,0.000232107,0.0499157,20.9881,605.787,-0.420371,0.0,0.0
985,246,28.8997,29.9126,138.942,104.958,110.76,0.000273252,0.0499128,20.9881,605.787,-0.486717,0.0,0.0
990,247.25,28.5073,29.0003,139.918,104.985,110.163,0.000290156,0.0499427,20.988,605.767,-0.435491,0.0,0.0
995,248.5,28.6679,29.9829,133.955,105.029,110.352,0.000285112,0.0500149,20.9885,605.777,-0.447216,0.0,0.0
1000,249.75,29.031,29.6998,136.99,105.051,110.503,0.00027589,0.0500896,20.9889,605.777,-0.45765,0.0,0.0
1005,251,29.4567,29.0928,136.036,105.081,110.388,0.00026312,0.050179,20.989,605.767,-0.445681,0.0,0.0
1010,252.25,28.8272,29.6401,135.409,105.137,110.434,0.000256423,0.0502866,20.9891,605.767,-0.444583,0.0,0.0
1015,253.5,28.5774,29.5436,135.023,105.18,109.737,0.000255544,0.0502725,20.9892,605.757,-0.383619,0.0,0.0
1020,254.75,28.528,29.6337,132.954,105.207,109.822,0.000255444,0.0500975,20.9892,605.757,-0.388353,0.0,0.0
1025,256,28.8872,29.4938,134.708,105.26,110.728,0.000257586,0.0500123,20.9893,605.747,-0.458086,0.0,0.0
1030,257.25,28.8706,29.6623,130.725,105.314,110.338,0.000278053,0.0501503,20.9893,605.757,-0.421534,0.0,0.0
1035,258.5,28.4481,29.3159,133.533,105.35,111.055,0.000321232,0.0503838,20.9893,605.757,-0.476987,0.0,0.0
1040,259.75,28.1132,29.7439,134.42,105.36,110.556,0.000379426,0.0506966,20.9893,605.757,-0.435466,0.0,0.0
1045,261,28.6679,29.8492,136.95,105.432,110.582,0.000427733,0.051052,20.9893,605.757,-0.431399,0.0,0.0
1050,262.25,28.8819,29.8432,137.174,105.441,110.233,0.000472701,0.051235,20.9893,605.767,-0.402019,0.0,0.0
1055,263.5,28.7271,29.4096,131.208,105.476,110.712,0.000497591,0.0514225,20.9887,605.757,-0.438289,0.0,0.0
1060,264.75,28.6996,29.4852,134.303,105.488,110.983,0.000497171,0.051947,20.988,605.767,-0.459322,0.0,0.0
1065,266,28.6166,29.7693,139.397,105.517,110.6,0.000455789,0.0527528,20.9866,605.757,-0.425636,0.0,0.0
1070,267.25,28.8788,29.9721,139.228,105.535,110.546,0.000381518,0.0534379,20.9858,605.757,-0.419583,0.0,0.0
1075,268.5,28.6976,29.8699,136.244,105.549,110.592,0.000293827,0.0536542,20.9853,605.757,-0.42216,0.0,0.0
1080,269.75,28.7311,29.6137,139.028,105.553,110.22,0.000228842,0.0533902,20.9851,605.737,-0.391308,0.0,0.0
1085,271,28.4693,29.5084,135.919,105.567,110.347,0.000196961,0.0526742,20.9857,605.747,-0.400578,0.0,0.0
1090,272.25,28.5829,29.6173,136.597,105.581,110.774,0.000201583,0.0518093,20.9862,605.747,-0.434326,0.0,0.0
1095,273.5,28.9824,29.8725,136.975,105.556,111.028,0.000216593,0.0510513,20.9868,605.747,-0.457205,0.0,0.0
1100,274.75,28.9511,29.5032,135.231,105.551,111.231,0.000218454,0.050408,20.9878,605.737,-0.474131,0.0,0.0
1105,276,28.9366,29.5462,137.097,105.543,110.663,0.000220072,0.0500246,20.9884,605.717,-0.428531,0.0,0.0
1110,277.25,28.5979,29.6565,138.235,105.521,110.362,0.000228022,0.0498324,20.9888,605.727,-0.405824,0.0,0.0
1115,278.5,28.5217,29.7017,136.175,105.498,110.415,0.000256709,0.0498072,20.989,605.707,-0.412055,0.0,0.0
1120,279.75,28.6754,29.9068,139.535,105.472,110.676,0.000282615,0.0499691,20.9891,605.707,-0.435684,0.0,0.0
1125,281,28.6103,29.6158,136.971,105.453,111.009,0.000272583,0.0501093,20.9892,605.707,-0.464456,0.0,0.0
1130,282.25,28.78,29.7489,139.231,105.392,110.278,0.000244732,0.0501338,20.9892,605.727,-0.409894,0.0,0.0
1135,283.5,28.7797,29.8669,132.199,105.34,110.035,0.000221832,0.0501325,20.9893,605.717,-0.394394,0.0,0.0
1140,284.75,28.8197,29.5855,137.043,105.297,110.403,0.00025101,0.0501902,20.9893,605.717,-0.428368,0.0,0.0
1145,286,28.6142,29.7122,137.289,105.246,110.702,0.000294645,0.0503517,20.9893,605.737,-0.457155,0.0,0.0
1150,287.25,28.9582,29.7149,135.501,105.169,109.642,0.000338278,0.0504968,20.9893,605.717,-0.376731,0.0,0.0
1155,288.5,28.9182,29.7386,137.147,105.102,110.189,0.000380035,0.0506532,20.9893,605.727,-0.42755,0.0,0.0
1160,289.75,29.0984,29.5593,136.703,105.134,110.578,0.000411257,0.0508167,20.9893,605.717,-0.456654,0.0,0.0
1165,291,29.4133,29.4694,134.129,105.164,110.585,0.000421276,0.0510072,20.9893,605.707,-0.454683,0.0,0.0
1170,292.25,28.7274,29.7131,136.003,105.188,110.44,0.00041337,0.0510549,20.9893,605.707,-0.440717,0.0,0.0
1175,293.5,28.7553,29.6304,136.541,105.223,110.506,0.000342917,0.0508279,20.9893,605.707,-0.44308,0.0,0.0
1180,294.75,28.5383,29.7895,133.956,105.28,110.469,0.000269814,0.0505488,20.9893,605.697,-0.435198,0.0,0.0
1185,296,29.2033,30.1297,136.755,105.303,109.88,0.000201662,0.0502676,20.9902,605.697,-0.384904,0.0,0.0
1190,297.25,29.3821,29.4458,139.004,105.316,110.24,0.000179991,0.050042,20.9908,605.677,-0.413329,0.0,0.0
1195,298.5,29.5429,29.4641,134.457,105.374,110.163,0.000192241,0.049931,20.9909,605.687,-0.402013,0.0,0.0
1200,299.75,28.6995,29.6686,135.341,105.408,110.519,0.00023865,0.0499996,20.9902,605.677,-0.428284,0.0,0.0
1205,301,28.768,29.6703,134.182,105.453,110.305,0.000326594,0.0500533,20.9899,605.667,-0.406926,0.0,0.0
1210,302.25,28.8925,29.6325,134.643,105.489,110.323,0.000460367,0.0499168,20.9902,605.667,-0.40526,0.0,0.0
1215,303.5,28.9015,29.9295,134.09,105.556,110.6,0.000590885,0.049612,20.9908,605.657,-0.422267,0.0,0.0
1220,304.75,28.9805,29.8114,131.817,105.582,111.166,0.000662904,0.0493805,20.991,605.667,-0.466187,0.0,0.0
1225,306,29.0077,29.6613,130.394,105.612,109.911,0.000665915,0.0493019,20.9909,605.657,-0.360898,0.0,0.0
1230,307.25,29.5056,30.1666,136.086,105.663,110.945,0.000632157,0.049322,20.9908,605.657,-0.44129,0.0,0.0
1235,308.5,28.7829,29.514,138.657,105.691,111.049,0.000594596,0.0495409,20.9908,605.677,-0.447331,0.0,0.0
1240,309.75,29.1185,29.8615,137.379,105.722,110.316,0.000565513,0.0499171,20.9908,605.667,-0.384777,0.0,0.0
1245,311,28.8776,30.1253,137.35,105.757,110.093,0.000522265,0.0502338,20.99,605.667,-0.363463,0.0,0.0
1250,312.25,29.2247,29.8554,139.297,105.805,111.165,0.000486402,0.0503076,20.9893,605.677,-0.447048,0.0,0.0
1255,313.5,29.2835,30.4399,138.806,105.835,110.539,0.000450235,0.0502629,20.989,605.677,-0.393403,0.0,0.0
1260,314.75,28.9727,29.8566,135.708,105.868,109.95,0.000402698,0.0499943,20.9888,605.667,-0.342241,0.0,0.0
1265,316,29.184,29.9542,136.816,105.893,110.338,0.000373628,0.0496745,20.989,605.687,-0.37194,0.0,0.0
1270,317.25,29.0698,29.5232,134.991,105.919,111.555,0.000359113,0.0492629,20.9891,605.697,-0.468926,0.0,0.0
1275,318.5,29.3598,30.1041,137.436,105.944,110.833,0.000397505,0.048863,20.9901,605.697,-0.408143,0.0,0.0
1280,319.75,29.6273,29.8516,133.727,105.959,111.226,0.000411104,0.0485511,20.991,605.697,-0.438794,0.0,0.0
1285,321,28.8208,29.6685,140.078,105.964,111.004,0.000370147,0.0482125,20.9922,605.697,-0.420315,0.0,0.0
1290,322.25,28.9817,29.7323,131.42,105.981,110.942,0.000304643,0.0478655,20.9929,605.727,-0.41382,0.0,0.0
1295,323.5,29.5413,29.8414,136.339,105.991,110.977,0.000250507,0.0476254,20.9933,605.727,-0.415766,0.0,0.0
1300,324.75,28.85,29.6507,137.081,105.993,110.242,0.000244448,0.0474736,20.9936,605.677,-0.355517,0.0,0.0
1305,326,28.9999,30.1976,136.349,106.019,110.838,0.000289199,0.0475076,20.9937,605.667,-0.402065,0.0,0.0
1310,327.25,29.4539,30.1254,138.15,106.008,110.988,0.00035084,0.04765,20.9938,605.657,-0.415233,0.0,0.0
1315,328.5,28.3772,29.7104,136.073,106.022,110.781,0.000414612,0.0477778,20.9938,605.667,-0.397137,0.0,0.0
1320,329.75,28.723,29.9391,136.866,106.022,110.56,0.000435717,0.0478579,20.9939,605.677,-0.379092,0.0,0.0
1325,331,29.0214,30.422,137.724,106.009,110.424,0.000414318,0.0479347,20.9939,605.707,-0.369112,0.0,0.0
1330,332.25,28.9077,30.251,138.087,106.003,110.485,0.000309138,0.0479663,20.993,605.667,-0.374614,0.0,0.0
1335,333.5,29.066,30.0546,134.714,106.015,110.76,0.000208716,0.0479692,20.993,605.667,-0.39604,0.0,0.0
1340,334.75,29.2479,29.9316,137.539,106.002,110.814,0.000140213,0.0480253,20.993,605.657,-0.401606,0.0,0.0
1345,336,28.8343,29.9352,136.552,106.008,110.328,0.000111625,0.0481608,20.9926,605.627,-0.36136,0.0,0.0
1350,337.25,29.0197,29.5747,138.161,106.018,110.225,0.0001416,0.0482022,20.9926,605.637,-0.351976,0.0,0.0
1355,338.5,29.4568,30.2541,133.938,105.998,110.446,0.000200951,0.0482477,20.9925,605.667,-0.371843,0.0,0.0
1360,339.75,28.9785,30.2671,138.003,105.999,110.524,0.000265874,0.0483726,20.9925,605.637,-0.378177,0.0,0.0
1365,341,28.9579,30.0344,136.581,106.002,111.341,0.000339519,0.0484464,20.9928,605.637,-0.444466,0.0,0.0
1370,342.25,28.5873,29.5791,136.247,106.007,110.798,0.000405498,0.04849,20.9932,605.617,-0.399804,0.0,0.0
1375,343.5,28.8766,29.7471,133.927,105.994,110.619,0.00040746,0.048691,20.9935,605.607,-0.386309,0.0,0.0
1380,344.75,28.8655,29.5192,134.424,105.993,110.899,0.000371107,0.0489189,20.9929,605.617,-0.409316,0.0,0.0
1385,346,28.779,29.845,133.051,105.985,111.213,0.000297157,0.0490261,20.9924,605.627,-0.435572,0.0,0.0
1390,347.25,29.0487,29.5446,137.432,105.982,110.771,0.000275132,0.0491562,20.9918,605.597,-0.399764,0.0,0.0
1395,348.5,28.8579,29.9132,135.796,105.973,111.32,0.000331445,0.0491134,20.9914,605.607,-0.445216,0.0,0.0
1400,349.75,28.846,29.5452,137.526,105.965,110.041,0.000411463,0.0491471,20.9911,605.597,-0.341447,0.0,0.0
1405,351,28.867,29.2826,134.181,105.973,110.747,0.000466995,0.0492618,20.9905,605.627,-0.398583,0.0,0.0
1410,352.25,28.2633,30.0228,133.916,105.952,110.268,0.000514575,0.0494545,20.9897,605.607,-0.361155,0.0,0.0
1415,353.5,29.1971,30.2173,135.495,105.947,110.764,0.000548605,0.0495497,20.9896,605.597,-0.402191,0.0,0.0
1420,354.75,29.0275,29.8523,135.114,105.945,111.017,0.000556408,0.0496304,20.9896,605.557,-0.422999,0.0,0.0
1425,356,28.7234,29.8486,137.354,105.94,111.165,0.000527769,0.049649,20.9891,605.577,-0.43553,0.0,0.0
1430,357.25,29.1601,29.7984,131.53,105.935,110.846,0.000475676,0.0495815,20.9889,605.587,-0.409965,0.0,0.0
1435,358.5,29.1265,30.0392,136.337,105.927,111.241,0.000435042,0.0496355,20.9887,605.567,-0.442788,0.0,0.0
1440,359.75,28.7269,29.8884,136.014,105.931,110.653,0.000389957,0.0497204,20.9886,605.577,-0.394464,0.0,0.0
1445,361,28.8582,29.712,134.237,105.923,110.704,0.000323269,0.0498295,20.9885,605.577,-0.399301,0.0,0.0
1450,362.25,28.9408,29.7035,137.052,105.927,111.158,0.000228708,0.049835,20.9885,605.587,-0.436007,0.0,0.0
1455,363.5,28.6812,30.1551,138.473,105.903,110.114,0.000146558,0.0498088,20.9884,605.597,-0.352762,0.0,0.0
1460,364.75,28.9431,29.915,133.792,105.907,110.568,7.69589e-05,0.0497933,20.9881,605.547,-0.389591,0.0,0.0
1465,366,28.8351,30.0074,136.72,105.9,110.773,5.83791e-05,0.0498129,20.9879,605.567,-0.406881,0.0,0.0
1470,367.25,29.4764,30.3766,135.683,105.881,110.619,9.31988e-05,0.0498862,20.9878,605.537,-0.395944,0.0,0.0
1475,368.5,28.402,30.2339,133.814,105.879,110.093,0.000141956,0.0498569,20.9877,605.537,-0.352986,0.0,0.0
1480,369.75,28.8359,29.9353,139.633,105.881,110.328,0.00018745,0.0497786,20.9877,605.547,-0.372221,0.0,0.0
1485,371,28.7229,30.0194,137.253,105.88,110.974,0.000204615,0.0497885,20.9877,605.537,-0.425066,0.0,0.0
1490,372.25,28.6378,29.4705,136.696,105.868,110.772,0.00019927,0.0500755,20.9877,605.547,-0.409623,0.0,0.0
1495,373.5,28.7963,29.9792,137.061,105.881,111.033,0.000190045,0.0502253,20.9876,605.567,-0.429778,0.0,0.0
1500,374.75,29.0016,29.9917,137.498,105.878,109.729,0.00021009,0.0504222,20.9876,605.537,-0.323194,0.0,0.0
1505,376,28.7995,29.6108,138.701,105.885,109.847,0.00024162,0.0507426,20.9876,605.537,-0.332291,0.0,0.0
1510,377.25,29.0809,30.2709,134.077,105.879,110.974,0.000261336,0.051023,20.9877,605.527,-0.425135,0.0,0.0
1515,378.5,29.2734,30.0997,136.365,105.888,110.211,0.00027845,0.0511144,20.988,605.537,-0.361905,0.0,0.0
1520,379.75,28.8086,29.8973,132.528,105.891,110.289,0.000286921,0.0512142,20.988,605.517,-0.368111,0.0,0.0
1525,381,29.1971,29.6596,140.345,105.89,110.077,0.00032582,0.0512731,20.9873,605.517,-0.350785,0.0,0.0
1530,382.25,28.9173,29.7937,135.328,105.896,110.449,0.000419569,0.0514054,20.9868,605.507,-0.380768,0.0,0.0
1535,383.5,28.6169,29.6528,135.133,105.916,110.738,0.00052387,0.0513189,20.9866,605.487,-0.402731,0.0,0.0
1540,384.75,29.0612,29.5601,135.443,105.914,110.267,0.000615088,0.0512323,20.9864,605.487,-0.364326,0.0,0.0
1545,386,28.9454,30.1887,135.726,105.9,110.551,0.000687189,0.0535041,20.9847,605.467,-0.388793,0.0,0.0
1550,387.25,29.1036,29.7465,133.46,105.921,111.009,0.00100073,0.0614298,20.9815,605.427,-0.424449,0.0,1.0
1555,388.5,28.8967,30.0141,133.998,105.937,108.598,0.0016007,0.0702061,20.9727,605.357,-0.224394,0.0,1.0
1560,389.75,29.1317,30.1641,135.281,105.945,104.384,0.00270006,0.0977078,20.9525,605.377,0.134262,0.0,1.0
1565,391,29.6656,29.6686,131.161,105.949,98.9149,0.00408077,0.136132,20.8905,605.207,0.621375,0.0,1.0
1570,392.25,28.7289,29.0137,127.205,105.95,96.1748,0.00569179,0.198263,20.8147,605.227,0.875629,0.0,0.0
1575,393.5,30.4799,29.9876,123.339,105.964,91.295,0.00739895,0.267238,20.7467,605.037,1.3478,0.0,0.0
1580,394.75,31.6899,31.2645,122.644,105.972,87.2135,0.0095013,0.338429,20.6719,604.877,1.76219,0.0,0.0
1585,396,32.7764,31.9688,120.454,105.961,85.5046,0.0115415,0.40503,20.5956,604.676,1.94029,0.0,0.0
1590,397.25,34.012,32.6172,119.441,105.969,87.3463,0.0132662,0.461683,20.5293,604.486,1.74822,0.0,0.0
1595,398.5,35.5494,33.9072,122.915,105.983,84.2033,0.0147482,0.504733,20.4775,604.316,2.08086,0.0,0.0
1600,399.75,36.2549,34.9745,120.477,105.968,82.3644,0.0158076,0.53354,20.4437,604.086,2.27928,0.0,0.0
1605,401,37.7132,35.9943,123.1,105.974,86.5642,0.0164546,0.547915,20.4238,603.966,1.82997,0.0,0.0
1610,402.25,38.5515,36.7469,118.016,105.97,84.6239,0.0166306,0.549847,20.416,603.776,2.03471,0.0,0.0
1615,403.5,39.5441,37.9471,125.69,105.966,88.186,0.0163343,0.542393,20.4248,603.605,1.66134,0.0,0.0
1620,404.75,40.3502,37.9618,123.612,105.973,88.6518,0.0155449,0.526254,20.4508,603.475,1.61431,0.0,0.0
1625,406,40.6803,39.5326,124.063,105.934,91.6131,0.0143825,0.496937,20.4828,603.355,1.31377,0.0,0.0
1630,407.25,41.0854,38.9226,130.149,105.926,94.0747,0.0129918,0.461697,20.5165,603.255,1.07325,0.0,0.0
1635,408.5,41.3504,39.5355,129.375,105.904,96.1609,0.0112167,0.429157,20.5435,603.165,0.872974,0.0,0.0
1640,409.75,41.5627,39.8411,129.7,105.871,98.2983,0.0097703,0.397445,20.5698,603.045,0.671302,0.0,0.0
1645,411,42.0075,40.0809,126.681,105.863,102.234,0.00820544,0.367707,20.6052,603.005,0.315512,0.0,0.0
1650,412.25,42.1159,40.4554,133.415,105.837,104.395,0.00687597,0.338848,20.6469,603.005,0.124087,0.0,0.0
1655,413.5,41.7462,40.8447,131.765,105.791,106.808,0.00576595,0.307801,20.6895,602.885,-0.0865243,0.0,0.0
1660,414.75,41.8795,41.0305,130.538,105.767,106.726,0.00480882,0.282522,20.7206,602.825,-0.0816751,0.0,0.0
1665,416,41.7496,40.5208,131.152,105.736,107.821,0.00396496,0.260413,20.7477,602.805,-0.176612,0.0,0.0
1670,417.25,41.4472,40.9236,137.438,105.692,110.208,0.0033127,0.239506,20.7736,602.775,-0.378518,0.0,0.0
1675,418.5,41.0184,41.4145,132.664,105.646,110.091,0.00285092,0.220605,20.7969,602.735,-0.372861,0.0,0.0
1680,419.75,40.9563,41.1469,134.226,105.61,111.599,0.0025474,0.203412,20.8168,602.705,-0.498937,0.0,0.0
1685,421,40.7606,40.8071,130.895,105.573,110.238,0.00237521,0.187947,20.833,602.655,-0.39106,0.0,0.0
1690,422.25,40.7272,40.8668,135.675,105.526,111.901,0.00230991,0.174518,20.8479,602.625,-0.530647,0.0,0.0
1695,423.5,40.4381,40.5552,131.6,105.475,111.638,0.00227891,0.161647,20.8631,602.625,-0.513699,0.0,0.0
1700,424.75,39.7886,40.655,135.466,105.437,110.628,0.00226315,0.149138,20.8783,602.605,-0.434734,0.0,0.0
1705,426,39.6442,40.5827,135.236,105.399,112.034,0.00221144,0.137119,20.8937,602.595,-0.552246,0.0,0.0
1710,427.25,39.2347,40.2803,135.672,105.361,111.604,0.00213014,0.125986,20.9057,602.595,-0.520696,0.0,0.0
1715,428.5,39.2623,40.0255,136.168,105.306,111.179,0.00199382,0.115089,20.9165,602.585,-0.490847,0.0,0.0
1720,429.75,39.0055,40.0498,135.535,105.276,110.93,0.00184091,0.105976,20.9248,602.555,-0.473241,0.0,0.0
1725,431,38.6857,39.8626,134.344,105.24,110.781,0.00168907,0.0977789,20.9326,602.565,-0.464167,0.0,0.0
1730,432.25,38.6029,39.9375,137.69,105.216,110.472,0.0015811,0.0905368,20.9411,602.555,-0.440952,0.0,0.0
1735,433.5,37.9754,38.8313,134.15,105.176,111.197,0.00146554,0.0845768,20.9475,602.545,-0.503551,0.0,0.0
1740,434.75,37.3763,39.1756,136.259,105.145,110.795,0.00139904,0.0798208,20.954,602.575,-0.473447,0.0,0.0
1745,436,37.0568,38.8356,135.437,105.13,110.903,0.00139455,0.0750139,20.9591,602.525,-0.483537,0.0,0.0
1750,437.25,37.0359,38.9035,139.689,105.091,111.506,0.00139969,0.0711529,20.9632,602.545,-0.535945,0.0,0.0
1755,438.5,36.4051,38.4918,137.313,105.073,110.512,0.00136409,0.0676274,20.9671,602.535,-0.456517,0.0,0.0
1760,439.75,36.4002,38.2192,134.058,105.054,110.461,0.00125791,0.0647224,20.971,602.535,-0.454036,0.0,0.0
1765,441,35.5952,38.0237,133.837,105.111,110.481,0.00112277,0.0622903,20.9736,602.535,-0.45069,0.0,0.0
1770,442.25,35.8109,37.7167,136.84,105.174,110.682,0.000984851,0.0602276,20.9756,602.545,-0.46173,0.0,0.0
1775,443.5,36.1749,37.6165,137.136,105.242,111.301,0.000842154,0.0584285,20.9779,602.545,-0.506254,0.0,0.0
1780,444.75,35.3335,37.6905,139.363,105.311,110.838,0.000738908,0.0568502,20.9804,602.525,-0.462666,0.0,0.0
1785,446,34.9926,37.3018,137.767,105.352,110.977,0.000708009,0.0556397,20.9829,602.515,-0.470542,0.0,0.0
1790,447.25,34.8256,37.1415,138.006,105.379,111.241,0.000735047,0.0547128,20.9844,602.525,-0.489717,0.0,0.0
1795,448.5,34.0629,36.6409,134.847,105.414,110.577,0.000770337,0.05389,20.9853,602.464,-0.432538,0.0,0.0
1800,449.75,34.8786,37.4066,133.628,105.45,111.266,0.000779327,0.0532351,20.9859,602.494,-0.485596,0.0,0.0
1805,451,34.031,36.4525,133.572,105.455,111.384,0.000735552,0.0527013,20.9862,602.515,-0.49481,0.0,0.0
1810,452.25,34.4651,36.222,138.88,105.474,110.814,0.000652588,0.0521703,20.9864,602.494,-0.446764,0.0,0.0
1815,453.5,32.8227,34.5397,140.013,105.485,110.832,0.000557855,0.0516405,20.9865,602.484,-0.447303,0.0,0.0
1820,454.75,32.1588,34.2541,135.528,105.499,110.368,0.000494018,0.0512331,20.9865,602.484,-0.408055,0.0,0.0
1825,456,32.0623,34.7047,138.93,105.507,111.164,0.000444222,0.0509879,20.9866,602.454,-0.47237,0.0,0.0
1830,457.25,32.139,34.4239,135.89,105.504,110.246,0.000405694,0.050843,20.987,602.454,-0.397613,0.0,0.0
1835,458.5,31.496,34.4431,135.878,105.507,111.196,0.000357475,0.0507166,20.9878,602.484,-0.475059,0.0,0.0
1840,459.75,31.8987,33.9625,135.454,105.518,110.424,0.000318182,0.0505845,20.9875,602.454,-0.411081,0.0,0.0
1845,461,31.4858,33.8282,136.12,105.499,110.51,0.000302872,0.0504422,20.9871,602.454,-0.419763,0.0,0.0
1850,462.25,31.0252,34.1152,135.62,105.51,110.732,0.000317482,0.0503369,20.9869,602.474,-0.437026,0.0,0.0
1855,463.5,31.3514,33.9127,134.403,105.506,110.607,0.000360065,0.050252,20.9865,602.474,-0.427114,0.0,0.0
1860,464.75,31.4972,33.5648,133.482,105.502,110.883,0.000441832,0.0502006,20.987,602.464,-0.449997,0.0,0.0
1865,466,31.2647,33.4535,138.024,105.49,110.498,0.000525827,0.0501407,20.9874,602.474,-0.419497,0.0,0.0
1870,467.25,30.9457,33.3027,136.039,105.493,111.131,0.000573782,0.0500609,20.9877,602.474,-0.470949,0.0,0.0
1875,468.5,30.7348,32.9384,136.116,105.495,110.664,0.000586692,0.0500582,20.9879,602.474,-0.432701,0.0,0.0
1880,469.75,31.0956,33.137,135.37,105.478,111.135,0.000592221,0.0499787,20.988,602.474,-0.472559,0.0,0.0
1885,471,30.4965,33.1581,136.791,105.476,110.208,0.000595485,0.0498672,20.988,602.484,-0.39702,0.0,0.0
1890,472.25,30.603,33.311,134.982,105.482,111.039,0.000588507,0.0498461,20.988,602.444,-0.464345,0.0,0.0
1895,473.5,30.8464,33.1223,137.184,105.477,111.493,0.000566998,0.0497936,20.9883,602.424,-0.501809,0.0,0.0
1900,474.75,30.8469,32.7938,134.849,105.463,110.843,0.000527005,0.0497051,20.9886,602.454,-0.450025,0.0,0.0
1905,476,30.4963,32.9285,131.603,105.467,111.399,0.000470246,0.0496685,20.9887,602.414,-0.494933,0.0,0.0
1910,477.25,30.6493,32.5088,134.725,105.463,110.851,0.000379532,0.049755,20.9888,602.444,-0.450673,0.0,0.0
1915,478.5,30.6888,32.7884,133.673,105.467,110.728,0.000305864,0.0497615,20.9889,602.454,-0.440306,0.0,0.0
1920,479.75,30.0838,32.7722,133.908,105.45,112.089,0.000256447,0.0497381,20.9879,602.444,-0.552221,0.0,0.0
1925,481,30.1874,32.4526,132.878,105.466,110.9,0.000216906,0.0496926,20.9874,602.444,-0.45452,0.0,0.0
1930,482.25,29.7431,31.9155,136.995,105.457,111.364,0.000170738,0.0496586,20.9871,602.484,-0.493039,0.0,0.0
1935,483.5,30.0031,32.1008,136.541,105.458,112.083,0.000135293,0.0496358,20.9869,602.444,-0.551117,0.0,0.0
1940,484.75,29.7135,31.8029,135.61,105.446,111.877,0.00011423,0.0496907,20.9868,602.454,-0.535539,0.0,0.0
1945,486,30.16,32.2413,136.693,105.45,111.242,0.000112084,0.049831,20.9867,602.424,-0.483702,0.0,0.0
1950,487.25,29.6752,32.1997,134.553,105.455,111.697,0.000138654,0.0498952,20.9867,602.414,-0.520156,0.0,0.0
1955,488.5,29.5984,31.9597,134.74,105.444,111.348,0.000166939,0.0498825,20.9867,602.424,-0.492839,0.0,0.0
1960,489.75,29.781,31.2412,137.252,105.44,111.295,0.000180967,0.0499841,20.9866,602.394,-0.488851,0.0,0.0
1965,491,29.3591,31.9553,135.678,105.452,110.776,0.000187728,0.0501619,20.9866,602.404,-0.445495,0.0,0.0
1970,492.25,29.6356,31.5678,135.195,105.452,111.159,0.000200503,0.0502533,20.9866,602.354,-0.476777,0.0,0.0
1975,493.5,29.1899,31.6202,136.71,105.448,110.768,0.000233965,0.0503051,20.9868,602.354,-0.445172,0.0,0.0
1980,494.75,29.2439,31.7286,138.72,105.452,111.241,0.000289756,0.05041,20.9871,602.384,-0.483481,0.0,0.0
1985,496,29.4439,31.4051,138.605,105.446,111.181,0.000366915,0.0505026,20.9872,602.394,-0.479066,0.0,0.0
1990,497.25,28.9232,30.8067,136.436,105.466,111.562,0.000449799,0.0505088,20.9873,602.424,-0.508342,0.0,0.0
1995,498.5,28.6378,31.5547,137.929,105.454,111.096,0.000501515,0.050503,20.9874,602.424,-0.471438,0.0,0.0
2000,499.75,28.762,30.921,135.743,105.47,111.674,0.00047574,0.0504995,20.9874,602.434,-0.517003,0.0,0.0
2005,501,29.3403,30.662,135.005,105.473,111.325,0.00041823,0.0504831,20.9875,602.424,-0.48841,0.0,0.0
2010,502.25,28.5293,31.3227,137.374,105.481,110.779,0.000354485,0.0504015,20.9875,602.404,-0.443294,0.0,0.0
2015,503.5,28.8957,31.0334,134.45,105.479,110.133,0.000334603,0.0503218,20.9876,602.384,-0.39061,0.0,0.0
2020,504.75,28.9512,31.1508,136.524,105.494,111.152,0.000361552,0.0503431,20.9873,602.384,-0.47262,0.0,0.0
2025,506,28.616,30.892,136.018,105.496,111.469,0.000372301,0.0504342,20.9871,602.384,-0.498175,0.0,0.0
2030,507.25,28.4727,30.3298,136.15,105.508,110.805,0.000364494,0.0504866,20.987,602.154,-0.443106,0.0,0.0
2035,508.5,28.305,30.4333,138.338,105.499,110.226,0.000350085,0.0503861,20.9865,451.413,-0.396443,0.0,0.0
2040,509.75,28.5949,30.8406,136.636,105.511,110.247,0.000325282,0.0503877,20.9856,-451.103,-0.397187,0.0,0.0
2045,511,28.6578,30.7219,137.864,105.515,110.452,0.000292814,0.0507001,20.9851,-451.113,-0.413658,0.0,0.0
2050,512.25,28.2398,30.1865,136.385,105.513,110.922,0.000278983,0.0511243,20.9849,-451.073,-0.452208,0.0,0.0
2055,513.5,28.3649,30.3599,137.199,105.522,111.245,0.000281377,0.0515026,20.9847,-451.153,-0.477768,0.0,0.0
2060,514.75,28.2233,30.9696,135.706,105.526,110.88,0.00027801,0.0517074,20.9846,-451.093,-0.447668,0.0,0.0
2065,516,28.0102,30.3727,139.131,105.539,111.45,0.000253047,0.0516251,20.9845,-451.023,-0.492968,0.0,0.0
2070,517.25,28.4849,30.4181,134.849,105.524,111.045,0.000214821,0.0514197,20.9845,-451.063,-0.461325,0.0,0.0
2075,518.5,28.3301,29.7427,137.462,105.551,110.59,0.000153245,0.0510522,20.9853,-451.063,-0.421826,0.0,0.0
2080,519.75,28.3109,29.9202,136.881,105.546,110.798,9.26507e-05,0.0507337,20.9859,-451.053,-0.439273,0.0,0.0
2085,521,27.9466,29.9821,135.696,105.564,110.938,4.83401e-05,0.0505751,20.9862,-451.053,-0.44908,0.0,0.0
2090,522.25,28.4031,29.7837,133.924,105.545,111.105,-4.18817e-06,0.0504599,20.9864,-451.083,-0.464369,0.0,0.0
2095,523.5,27.8259,30.0146,136.607,105.555,111.141,-5.45124e-05,0.0503107,20.9866,-451.063,-0.466494,0.0,0.0
2100,524.75,27.9503,29.5254,136.492,105.568,111.096,-8.67343e-05,0.0500702,20.9867,-451.063,-0.461693,0.0,0.0
2105,526,28.0408,29.5856,135.763,105.562,111.614,-0.000133942,0.0497698,20.9868,-451.063,-0.50427,0.0,0.0
2110,527.25,27.8448,29.0988,139.043,105.551,110.918,-0.000177579,0.0496001,20.9869,-451.073,-0.44857,0.0,0.0
2115,528.5,27.9388,29.3882,136.29,105.551,110.959,-0.000214112,0.0496112,20.9869,-451.063,-0.451948,0.0,0.0
2120,529.75,27.5458,29.8002,136.73,105.559,111.491,-0.000242708,0.0493376,20.9876,-451.053,-0.494554,0.0,0.0
2125,531,27.6861,29.7389,135.44,105.552,110.819,-0.000247394,0.0492479,20.9883,-451.063,-0.440477,0.0,0.0
2130,532.25,27.6306,29.5319,138.727,105.55,111.21,-0.000203237,0.0491485,20.9887,-451.073,-0.4725,0.0,0.0
2135,533.5,27.6507,29.7383,138.177,105.556,110.725,-0.000127631,0.04905,20.9889,-451.073,-0.432396,0.0,0.0
2140,534.75,27.3732,29.0083,138.795,105.558,110.759,1.72284e-07,0.0489919,20.9891,-451.093,-0.435066,0.0,0.0
2145,536,27.4956,29.3624,138.547,105.537,111.057,0.000122742,0.0488836,20.9892,-451.073,-0.461114,0.0,0.0
2150,537.25,27.627,29.4981,137.826,105.551,111.043,0.000213956,0.0488785,20.9892,-451.073,-0.458818,0.0,0.0
2155,538.5,27.151,28.9563,137.513,105.56,110.205,0.000243095,0.04892,20.9893,-451.073,-0.389468,0.0,0.0
2160,539.75,27.4114,29.2238,135.672,105.557,111.751,0.000168451,0.0489446,20.9893,-451.073,-0.515835,0.0,0.0
2165,541,26.9171,28.4072,138.634,105.537,110.845,6.59308e-05,0.0489727,20.9893,-451.073,-0.4438,0.0,0.0
2170,542.25,26.9832,29.0585,136.806,105.567,110.985,-7.79428e-06,0.0489641,20.9893,-451.073,-0.452699,0.0,0.0
2175,543.5,27.2231,28.9677,136.407,105.56,111.218,-7.20614e-05,0.0489117,20.9893,-451.093,-0.472275,0.0,0.0
2180,544.75,26.9852,29.0696,137.41,105.559,110.771,-0.000125773,0.0488066,20.9893,-451.103,-0.435947,0.0,0.0
2185,546,26.9093,28.5147,137.312,105.548,110.861,-0.000194708,0.048693,20.9893,-451.083,-0.444188,0.0,0.0
2190,547.25,27.7245,28.5285,135.508,105.559,111.595,-0.000230418,0.0486927,20.9893,-451.093,-0.502942,0.0,0.0
2195,548.5,27.3901,28.1928,134.743,105.549,111.12,-0.00019785,0.0486337,20.9895,-451.103,-0.465257,0.0,0.0
2200,549.75,27.0264,28.5788,138.038,105.549,111.233,-0.00012769,0.0487166,20.9897,-451.093,-0.474429,0.0,0.0
2205,551,26.9388,28.6504,136.998,105.555,110.872,-0.000115866,0.0487902,20.9898,-451.093,-0.444557,0.0,0.0
2210,552.25,26.6019,28.6216,135.615,105.562,111.319,-0.000165463,0.0488529,20.9899,-451.093,-0.480346,0.0,0.0
2215,553.5,27.1115,27.9401,136.538,105.562,111.196,-0.00026416,0.0489207,20.9899,-451.073,-0.470312,0.0,0.0
2220,554.75,26.7646,28.3035,136.01,105.556,111.356,-0.000292456,0.0489176,20.9899,-451.083,-0.483845,0.0,0.0
2225,556,26.6779,28.8795,137.4,105.558,111,-0.000244107,0.0488453,20.9899,-451.083,-0.454708,0.0,0.0
2230,557.25,27.0945,28.5754,138.708,105.568,110.414,-0.000125184,0.0488216,20.9899,-451.073,-0.405965,0.0,0.0
2235,558.5,26.4693,28.8471,134.524,105.556,110.765,1.91703e-06,0.0488028,20.9899,-451.073,-0.435704,0.0,0.0
2240,559.75,26.4193,28.1088,137.696,105.545,110.885,6.82041e-05,0.0487376,20.9899,-451.063,-0.44649,0.0,0.0
2245,561,26.418,28.5003,136.19,105.553,110.727,,0.0486601,,-451.073,-0.432838,0.0,0.0
2250,562.25,26.7985,28.1265,136.703,105.557,111.6,,0.0487028,,-451.073,-0.503576,0.0,0.0
2255,563.5,26.7421,28.0504,134.751,105.559,111.164,,0.0487574,,-451.083,-0.467952,0.0,0.0
2260,564.75,26.772,27.7116,134.336,105.548,111.159,,,,-451.073,-0.46855,0.0,0.0
2265,566,26.5238,27.7944,136.171,105.557,110.955,,,,-451.073,-0.451139,0.0,0.0
2270,567.25,26.6667,28.7985,138.632,105.567,111.197,,,,-451.083,-0.470027,0.0,0.0
2275,568.5,27.0386,27.579,137.567,105.545,110.984,,,,-451.083,-0.454543,0.0,0.0
2280,569.75,26.8633,28.2943,137.577,105.556,111.04,,,,-451.083,-0.458153,0.0,0.0
2285,571,26.3108,28.0232,136.972,105.557,111.063,,,,-451.073,-0.459944,0.0,0.0
2287,571.5,26.8689,27.5778,141.346,105.55,110.995,,,,-451.073,-0.455018,0.0,0.0