File: 01_Data/Polyester_Bed_Skirt/Cone/Polyester_Bed_Skirt_Cone_HF50Scan_220523_R2.csv
Names,Time,Stack TC,Smoke TC,Exh Press,Smoke Comp,Smoke Meas,CO Meter,CO2 Meter,O2 Meter,Sample Mass,Ext Coeff,Start Test,Flame Verif
Chan Gain,,500,500,1,1,1,1,1,1,1,1,1.0,1.0
Offset,,0,0,0.139323,0,0,0,0,0,0,0,0.0,0.0
Gain,,1,1,25.011,13.8491,15.2622,1,1,1,1.00087,1.03118,1.0,1.0
Units,sec,C,C,Pa,%,%,%,%,%,g,/m,,
Baseline,,34.3597,35.4891,138.892,105.084,106.814,0.00045322,0.0460128,21.0016,-449.443,-0.147629,,
2,0.25,32.548,34.4027,137.315,105.441,107.101,0.000562903,0.0536788,20.9954,604.076,-0.141272,0.0,0.0
4,0.75,32.4608,34.3475,140.049,105.432,107.42,0.000581183,0.0537982,20.9957,604.016,-0.169013,0.0,0.0
6,1.25,31.1093,32.9504,140.428,105.455,107.527,0.000595378,0.0538496,20.996,604.096,-0.175959,0.0,0.0
8,1.75,31.06,32.5803,136.463,105.449,107.608,0.000599197,0.0538335,20.9961,603.976,-0.183317,0.0,0.0
10,2.25,30.9422,32.4369,136.773,105.47,107.6,0.000596021,0.0537686,20.9963,604.026,-0.180876,0.0,0.0
12,2.75,30.9092,32.6163,135.833,105.462,107.003,0.000593448,0.0537161,20.9964,603.986,-0.131228,0.0,0.0
14,3.25,31.1443,32.553,142.083,105.47,107.17,0.000576809,0.0536073,20.9965,604.046,-0.144627,0.0,0.0
16,3.75,31.1382,32.4624,134.875,105.467,107.495,0.000563332,0.0534212,20.9966,604.026,-0.172279,0.0,0.0
18,4.25,30.8897,32.3874,145.099,105.483,107.56,0.000539078,0.0532063,20.9969,603.996,-0.176384,0.0,0.0
20,4.75,30.7604,32.5262,140.651,105.475,107.196,0.000519433,0.0529973,20.9973,604.066,-0.14639,0.0,0.0
22,5.25,31.274,32.3421,136.154,105.488,107.543,0.0004914,0.05264,20.9977,604.056,-0.174539,0.0,0.0
24,5.75,31.3918,32.7911,138.425,105.491,107.158,0.000468694,0.052257,20.998,604.066,-0.141754,0.0,0.0
26,6.25,31.3288,32.4166,139.817,105.504,107.691,0.000439397,0.0518626,20.9982,604.056,-0.185611,0.0,0.0
28,6.75,31.2823,32.3686,145.095,105.486,107.342,0.000415667,0.0514338,20.9989,604.006,-0.157742,0.0,0.0
30,7.25,31.1695,32.7889,139.615,105.507,107.651,0.000396446,0.0510865,20.9994,604.036,-0.181918,0.0,0.0
32,7.75,30.891,32.3512,135.682,105.485,107.52,0.000378326,0.0506959,20.9998,604.016,-0.172834,0.0,0.0
34,8.25,31.5021,32.5836,139.496,105.525,107.29,0.000361353,0.0503795,21.0001,604.006,-0.150014,0.0,0.0
36,8.75,31.4803,32.6687,138.112,105.505,107.092,0.000356533,0.0500003,21.0004,604.006,-0.135088,0.0,0.0
38,9.25,31.5943,32.7615,138.443,105.523,107.137,0.000360663,0.0496932,21.0006,603.996,-0.137342,0.0,0.0
40,9.75,31.4254,32.7615,140.144,105.518,107.231,0.000381875,0.0494444,21.0008,603.966,-0.145717,0.0,0.0
42,10.25,31.1364,32.896,138.845,105.523,107.392,0.000415138,0.049038,21.0009,603.956,-0.158793,0.0,0.0
44,10.75,31.2818,33.3134,135.183,105.521,107.988,0.00044208,0.0487089,21.001,603.946,-0.209084,0.0,0.0
46,11.25,31.4231,32.5062,141.796,105.531,107.22,0.000497883,0.0483704,21.0014,603.976,-0.14369,0.0,0.0
48,11.75,31.5834,32.9553,138.95,105.529,107.293,0.000543083,0.0480316,21.0018,604.016,-0.149923,0.0,0.0
50,12.25,31.5274,32.8888,140.702,105.529,107.225,0.000589409,0.0476997,21.0022,603.986,-0.144264,0.0,0.0
52,12.75,31.558,32.9946,137.108,105.542,106.852,0.000626933,0.0473792,21.0025,603.966,-0.111574,0.0,0.0
54,13.25,31.6383,32.9245,137.933,105.54,107.49,0.000657328,0.0471195,21.0028,603.976,-0.165612,0.0,0.0
56,13.75,31.5915,33.0401,137.757,105.563,108.18,0.000681947,0.0468683,21.003,603.996,-0.221561,0.0,0.0
58,14.25,31.5722,32.8041,138.342,105.551,107.729,0.000701889,0.0466648,21.0031,603.986,-0.184794,0.0,0.0
60,14.75,31.7567,32.9131,138.55,105.551,107.718,0.000713587,0.0464784,21.0032,604.016,-0.183859,0.0,0.0
62,15.25,31.7246,32.9082,132.475,105.553,107.484,0.00073359,0.046308,21.0033,604.036,-0.163983,0.0,0.0
64,15.75,31.8053,32.6156,137.063,105.568,107.568,0.000750432,0.04617,21.0034,604.026,-0.169732,0.0,0.0
66,16.25,31.8144,32.9092,136.779,105.554,108.18,0.000764649,0.0460582,21.0035,604.006,-0.222321,0.0,0.0
68,16.75,31.7964,32.8341,139.58,105.559,107.285,0.000776165,0.0459677,21.0036,603.966,-0.146684,0.0,0.0
70,17.25,31.7627,33.4173,140.93,105.554,107.097,0.000774563,0.0458944,21.0036,603.966,-0.131243,0.0,0.0
72,17.75,32.2913,32.5127,136.38,105.575,106.676,0.000773265,0.0458631,21.0037,603.976,-0.0938393,0.0,0.0
74,18.25,31.913,32.9489,142.958,105.573,107.27,0.000772214,0.0457953,21.0037,603.996,-0.144268,0.0,0.0
76,18.75,31.7266,33.2593,135.918,105.575,108.03,0.000737377,0.0457274,21.0036,603.996,-0.207959,0.0,0.0
78,19.25,31.8584,33.0058,139.394,105.588,107.731,0.00070916,0.0456725,21.0035,604.016,-0.181803,0.0,0.0
80,19.75,32.247,32.9245,139.753,105.591,107.015,0.000669323,0.0456143,21.0034,604.026,-0.121162,0.0,0.0
82,20.25,31.9136,32.6395,140.878,105.574,107.29,0.000637055,0.0455672,21.0033,604.026,-0.145852,0.0,0.0
84,20.75,31.9154,33.1064,137.666,105.596,107.192,0.000603643,0.045529,21.0032,604.026,-0.13564,0.0,0.0
86,21.25,32.2696,33.2134,141.216,105.578,107.762,0.00057658,0.0454622,21.0031,604.016,-0.185142,0.0,0.0
88,21.75,32.194,33.1725,137.511,105.586,108.216,0.000554658,0.0453758,21.0031,603.996,-0.222531,0.0,0.0
90,22.25,32.1088,33.0453,139.523,105.585,107.266,0.000523568,0.0452921,21.003,603.986,-0.142865,0.0,0.0
92,22.75,32.0485,33.3808,138.384,105.6,108.044,0.000498386,0.0452244,21.003,603.986,-0.206956,0.0,0.0
94,23.25,32.2916,33.0548,137.036,105.595,106.976,0.000474161,0.0452104,21.003,604.006,-0.117532,0.0,0.0
96,23.75,32.1284,33.0317,140.487,105.61,107.116,0.000451095,0.0451991,21.0034,604.006,-0.128076,0.0,0.0
98,24.25,31.8845,33.1854,137.629,105.614,107.892,0.000433687,0.0451756,21.0037,604.006,-0.193041,0.0,0.0
100,24.75,32.6003,33.1511,136.765,105.622,107.269,0.000420734,0.0451436,21.004,604.006,-0.140029,0.0,0.0
102,25.25,32.3759,33.3754,137.815,105.603,107.512,0.000419174,0.0451177,21.0042,604.016,-0.162065,0.0,0.0
104,25.75,32.3896,33.3468,135.937,105.619,107.907,0.000425947,0.0450752,21.0044,604.016,-0.193853,0.0,0.0
106,26.25,31.9634,33.1514,141.427,105.613,108.349,0.000448031,0.0450214,21.0045,604.016,-0.231378,0.0,0.0
108,26.75,32.6523,32.5274,140.238,105.629,108.003,0.000480855,0.044985,21.0046,604.016,-0.201065,0.0,0.0
110,27.25,33.67,34.5943,138.473,105.618,107.369,0.000507443,0.0449619,21.0047,604.016,-0.148796,0.0,0.0
112,27.75,33.787,34.5081,136.847,105.634,107.919,0.000572687,0.0449505,21.0048,604.006,-0.193565,0.0,0.0
114,28.25,32.3553,33.3007,138.054,105.629,107.324,0.000648064,0.0449476,21.0049,604.006,-0.143972,0.0,0.0
116,28.75,32.2829,33.5954,138.014,105.635,107.233,0.000700022,0.0449597,21.0049,604.006,-0.135804,0.0,0.0
118,29.25,32.1359,33.1597,138.987,105.648,107.317,0.000728535,0.0449824,21.005,604.006,-0.141754,0.0,0.0
120,29.75,32.4646,33.3933,140.526,105.643,107.057,0.000777293,0.0449936,21.005,603.996,-0.120296,0.0,0.0
122,30.25,32.0925,33.4232,138.743,105.63,106.865,0.000813139,0.0449962,21.005,603.986,-0.105114,0.0,0.0
124,30.75,33.3143,34.2294,140.804,105.65,106.907,0.000842174,0.0449983,21.005,603.976,-0.10696,0.0,0.0
126,31.25,32.4668,33.3113,140.892,105.638,106.888,0.000864477,0.0450008,21.0051,603.996,-0.106394,0.0,0.0
128,31.75,32.5244,33.2303,138.371,105.656,106.934,0.000882542,0.045002,21.0051,603.986,-0.108739,0.0,0.0
130,32.25,32.537,33.264,137.499,105.659,107.164,0.000894617,0.045003,21.0051,603.996,-0.127925,0.0,0.0
132,32.75,32.2532,33.0812,136.689,105.683,107.862,0.000902095,0.0450106,21.0051,603.976,-0.184604,0.0,0.0
134,33.25,32.5577,33.542,138.649,105.663,106.267,0.000905593,0.0450236,21.0051,603.956,-0.0516405,0.0,0.0
136,33.75,32.1253,33.9689,139.776,105.683,106.794,0.000906124,0.0450414,21.0051,603.966,-0.0946326,0.0,0.0
138,34.25,32.4091,33.3394,134.485,105.672,106.52,0.000898241,0.0450622,21.0051,603.956,-0.0723072,0.0,0.0
140,34.75,32.2824,33.4474,141.032,105.689,106.774,0.000884374,0.045079,21.0051,603.956,-0.0924296,0.0,0.0
142,35.25,33.2605,33.2244,139.3,105.677,106.44,0.000873143,0.0450927,21.0051,603.946,-0.0651073,0.0,0.0
144,35.75,32.6193,33.5328,139.27,105.689,106.596,0.000851902,0.0451253,21.0051,603.946,-0.0773444,0.0,0.0
146,36.25,32.4995,33.3198,137.12,105.69,106.69,0.000823768,0.0451711,21.0051,603.976,-0.0852523,0.0,0.0
148,36.75,32.2326,33.5241,141.205,105.709,105.498,0.000799063,0.0452513,21.0051,603.956,0.018035,0.0,0.0
150,37.25,32.5063,33.775,137.033,105.695,106.11,0.000777327,0.045355,21.0047,603.936,-0.0354415,0.0,0.0
152,37.75,32.2566,33.3932,135.697,105.715,106.969,0.000759721,0.045439,21.0043,603.926,-0.106705,0.0,0.0
154,38.25,32.6328,33.8246,141.572,105.72,105.786,0.000763671,0.0455753,21.0041,603.936,-0.00563806,0.0,0.0
156,38.75,32.4924,33.4121,138.578,105.726,105.889,0.000766871,0.0456857,21.0038,603.896,-0.0138895,0.0,0.0
158,39.25,32.5829,33.7222,138.807,105.717,106.173,0.000799835,0.0457751,21.0034,603.896,-0.0389984,0.0,0.0
160,39.75,32.521,33.3924,136.159,105.733,105.557,0.000826537,0.0458475,21.0029,603.906,0.0150622,0.0,0.0
162,40.25,32.6866,33.5864,137.898,105.72,106.305,0.000887079,0.0459852,21.0024,603.926,-0.0499283,0.0,0.0
164,40.75,32.7285,33.7023,136.202,105.742,105.351,0.000936118,0.0461678,21.0021,603.946,0.033484,0.0,0.0
166,41.25,32.8426,33.6778,139.062,105.733,105.616,0.00097584,0.0463158,21.0018,603.906,0.0100345,0.0,0.0
168,41.75,32.7822,33.005,138.195,105.755,105.586,0.00111158,0.0477751,21.0007,603.896,0.0145077,0.0,0.0
170,42.25,32.7402,33.8642,137.389,105.75,105.27,0.00122153,0.0489571,20.9991,603.866,0.0411686,0.0,0.0
172,42.75,32.7922,33.856,138.082,105.756,107.47,0.00131059,0.0533207,20.9978,603.836,-0.145399,0.0,0.0
174,43.25,32.186,33.3632,132.195,105.749,106.377,0.00160916,0.0568552,20.9937,603.896,-0.0535749,0.0,1.0
176,43.75,32.5055,33.7532,138.163,105.764,103.403,0.001851,0.0597181,20.9878,603.876,0.204243,0.0,1.0
178,44.25,32.6919,33.4157,138.038,105.749,101.934,0.00229201,0.0720394,20.9772,603.856,0.332329,0.0,1.0
180,44.75,32.9396,34.0425,131.421,105.767,99.8707,0.00264923,0.0820196,20.9634,603.816,0.5189,0.0,1.0
182,45.25,32.299,33.3634,131.28,105.757,96.8637,0.00313335,0.0958064,20.9442,603.796,0.794528,0.0,1.0
184,45.75,33.1032,33.8689,131.156,105.783,94.0169,0.00370079,0.112106,20.9214,603.756,1.06656,0.0,1.0
186,46.25,33.4014,34.2436,128.621,105.762,92.662,0.00457574,0.125309,20.8893,603.716,1.19613,0.0,1.0
188,46.75,33.5137,34.6506,133.678,105.784,92.1949,0.00528445,0.145036,20.8511,603.656,1.24369,0.0,1.0
190,47.25,33.3894,34.1369,126.953,105.771,88.5447,0.00632679,0.169144,20.8201,603.585,1.60802,0.0,1.0
192,47.75,34.0911,34.043,123.895,105.786,87.0687,0.00717109,0.197307,20.7736,603.535,1.76131,0.0,1.0
194,48.25,33.4059,33.7518,124.432,105.77,88.445,0.00821621,0.227892,20.7359,603.475,1.6181,0.0,1.0
196,48.75,32.642,33.1095,118.549,105.797,85.7166,0.00938787,0.261817,20.6946,603.385,1.90385,0.0,0.0
198,49.25,33.2414,33.3015,119.054,105.786,85.3239,0.0103369,0.297531,20.6513,603.245,1.94448,0.0,0.0
200,49.75,33.5889,33.5123,125.003,105.799,82.9834,0.0114773,0.335093,20.6163,603.125,2.19719,0.0,0.0
202,50.25,35.7329,35.2148,118.123,105.805,81.418,0.0127354,0.373289,20.5691,603.055,2.36993,0.0,0.0
204,50.75,35.9963,35.1829,117.177,105.797,80.2438,0.0137545,0.413227,20.5309,602.955,2.50064,0.0,0.0
206,51.25,36.905,36.0936,117.147,105.802,75.9984,0.014969,0.453678,20.49,602.805,2.99277,0.0,0.0
208,51.75,38.476,36.6621,119.186,105.803,79.3491,0.0159527,0.486442,20.448,602.765,2.60261,0.0,0.0
210,52.25,38.0904,36.8225,116.068,105.83,75.3062,0.0170332,0.521411,20.4073,602.645,3.07794,0.0,0.0
212,52.75,39.1541,37.1192,116.318,105.818,78.5619,0.0179828,0.557323,20.3683,602.515,2.69405,0.0,0.0
214,53.25,38.6669,36.4729,117.441,105.815,77.9886,0.0188188,0.586412,20.3367,602.464,2.76006,0.0,0.0
216,53.75,39.4409,36.3784,121.4,105.812,77.0571,0.019496,0.616074,20.3112,602.384,2.86846,0.0,0.0
218,54.25,40.2872,37.4082,116.919,105.824,74.8223,0.0200782,0.6401,20.2904,602.424,3.13568,0.0,0.0
220,54.75,41.9072,39.5319,115.071,105.823,76.8326,0.0205498,0.660319,20.2737,602.184,2.89579,0.0,0.0
222,55.25,41.6523,38.9663,116.525,105.832,74.5638,0.0208429,0.676696,20.2614,602.104,3.16774,0.0,0.0
224,55.75,42.7853,39.4571,119.295,105.826,74.5149,0.0210803,0.687318,20.2528,601.964,3.17314,0.0,0.0
226,56.25,43.4304,40.2133,118.605,105.835,78.1721,0.0212726,0.695922,20.2458,601.914,2.74046,0.0,0.0
228,56.75,43.5243,40.6269,116.078,105.833,78.6416,0.0211561,0.699289,20.2454,601.784,2.68619,0.0,0.0
230,57.25,44.3079,41.46,119.18,105.845,81.2284,0.0210617,0.698776,20.2499,601.744,2.39444,0.0,0.0
232,57.75,44.5456,41.6133,123.14,105.835,81.8786,0.0208394,0.694341,20.2535,601.664,2.32146,0.0,0.0
234,58.25,45.4239,42.394,126.026,105.844,78.6183,0.0205281,0.687131,20.2656,601.634,2.68977,0.0,0.0
236,58.75,45.7196,42.6606,122.074,105.838,77.214,0.0202759,0.681292,20.2754,601.574,2.85233,0.0,0.0
238,59.25,45.9376,43.1993,123.922,105.851,78.7445,0.0196475,0.66779,20.2882,601.484,2.67591,0.0,0.0
240,59.75,46.5841,43.4633,123.356,105.834,79.9117,0.0191385,0.656853,20.3029,601.434,2.5413,0.0,0.0
242,60.25,46.7643,44.0607,124.375,105.848,83.7296,0.0183273,0.642138,20.3231,601.333,2.12041,0.0,0.0
244,60.75,47.2154,44.2034,121.184,105.836,84.234,0.0176702,0.624948,20.3467,601.303,2.06499,0.0,0.0
246,61.25,47.2654,44.8855,121.319,105.846,85.5847,0.0167261,0.606152,20.3719,601.193,1.92196,0.0,0.0
248,61.75,47.647,45.2441,128.346,105.841,87.1693,0.0159614,0.586543,20.3977,601.213,1.75559,0.0,0.0
250,62.25,47.7707,45.1867,127.325,105.854,89.8302,0.0149956,0.570659,20.425,601.193,1.48469,0.0,0.0
252,62.75,47.7755,45.7028,125.887,105.844,88.758,0.0142133,0.546351,20.453,601.123,1.59247,0.0,0.0
254,63.25,47.7993,45.8797,125.021,105.849,91.3625,0.0135796,0.526662,20.4756,601.053,1.33132,0.0,0.0
256,63.75,48.321,45.7945,129.328,105.841,91.9219,0.0126344,0.502844,20.494,601.093,1.27539,0.0,0.0
258,64.25,48.0136,46.4641,128.984,105.85,93.86,0.0118688,0.483552,20.5141,601.043,1.08742,0.0,0.0
260,64.75,48.055,46.1254,131.269,105.845,95.9718,0.0112487,0.463803,20.5352,601.013,0.885724,0.0,0.0
262,65.25,48.3603,46.3583,132.297,105.852,97.0425,0.0105479,0.444096,20.5523,600.973,0.786009,0.0,0.0
264,65.75,48.176,46.4485,132.618,105.848,99.7254,0.00980159,0.424452,20.574,600.933,0.538973,0.0,0.0
266,66.25,48.0952,46.6898,131.566,105.863,98.5432,0.00911625,0.405227,20.5916,600.923,0.648101,0.0,0.0
268,66.75,48.028,46.2588,129.032,105.843,101.389,0.00848838,0.389655,20.6133,600.943,0.388921,0.0,0.0
270,67.25,48.2157,46.91,131.009,105.852,101.593,0.00792284,0.377041,20.6308,600.893,0.371493,0.0,0.0
272,67.75,47.916,46.7732,130.961,105.841,101.945,0.00741347,0.361339,20.6542,600.883,0.339297,0.0,0.0
274,68.25,47.9605,46.7376,133.377,105.849,104.037,0.00696299,0.343684,20.6732,600.863,0.156186,0.0,0.0
276,68.75,47.9692,46.5814,128.151,105.836,104.57,0.006564,0.327105,20.6969,600.863,0.108893,0.0,0.0
278,69.25,47.7264,47.0764,131.022,105.843,104.879,0.00621668,0.311626,20.716,600.833,0.082795,0.0,0.0
280,69.75,47.7621,46.6653,131.002,105.833,105.457,0.00591363,0.297095,20.7351,600.823,0.032213,0.0,0.0
282,70.25,47.3716,46.7438,135.46,105.844,105.918,0.00566816,0.283532,20.7505,600.803,-0.00634913,0.0,0.0
284,70.75,47.2605,46.4588,132.968,105.83,105.849,0.00546474,0.270936,20.763,600.803,-0.00157608,0.0,0.0
286,71.25,47.1466,46.9818,135.027,105.838,106.547,0.00529584,0.259285,20.7768,600.773,-0.0604703,0.0,0.0
288,71.75,47.1938,46.9296,132.304,105.827,106.848,0.00516359,0.248394,20.7879,600.753,-0.0869168,0.0,0.0
290,72.25,47.0902,46.6062,136.955,105.838,106.942,0.00510937,0.238264,20.7941,600.723,-0.0938998,0.0,0.0
292,72.75,46.5458,47.0372,135.783,105.834,107.444,0.00503166,0.230059,20.8046,600.743,-0.136633,0.0,0.0
294,73.25,46.8245,46.3463,135.475,105.853,106.986,0.00498221,0.221735,20.8161,600.763,-0.0963048,0.0,0.0
296,73.75,46.3016,47.2711,132.781,105.829,107.353,0.00496957,0.213481,20.8255,600.743,-0.129342,0.0,0.0
298,74.25,46.633,45.8725,131.677,105.868,107.056,0.00498402,0.205377,20.8362,600.733,-0.100946,0.0,0.0
300,74.75,46.3584,46.7653,135.507,105.818,107.323,0.00503757,0.197535,20.8448,600.703,-0.127767,0.0,0.0
302,75.25,45.9656,46.8554,135.071,105.836,107.827,0.00511862,0.194192,20.8527,600.703,-0.168591,0.0,0.0
304,75.75,45.8644,46.2565,138.71,105.813,107.554,0.00518427,0.186689,20.8599,600.673,-0.147616,0.0,0.0
306,76.25,46.2931,46.4966,130.482,105.84,109.4,0.00533584,0.180612,20.8667,600.693,-0.299222,0.0,0.0
308,76.75,46.0478,46.2914,131.64,105.813,107.769,0.00545861,0.174099,20.8731,600.703,-0.165693,0.0,0.0
310,77.25,46.1435,46.3841,136.396,105.821,108.669,0.00555806,0.168066,20.8782,600.683,-0.240296,0.0,0.0
312,77.75,45.3813,46.4007,136.879,105.802,107.628,0.00571726,0.162496,20.8832,600.693,-0.154779,0.0,0.0
314,78.25,45.072,46.6544,138.302,105.816,107.126,0.00584621,0.157984,20.8882,600.683,-0.111293,0.0,0.0
316,78.75,45.3274,45.9916,136.808,105.807,107.818,0.00600068,0.152526,20.8929,600.683,-0.170338,0.0,0.0
318,79.25,44.8627,46.2032,137.779,105.803,107.44,0.0061258,0.148105,20.8973,600.683,-0.138918,0.0,0.0
320,79.75,45.0235,45.9717,139.403,105.783,107.709,0.00628099,0.143676,20.9018,600.693,-0.163178,0.0,0.0
322,80.25,44.6632,45.1806,134.509,105.808,107.977,0.0064067,0.139325,20.9063,600.703,-0.183584,0.0,0.0
324,80.75,44.9353,45.5433,137.916,105.783,107.325,0.00654681,0.135801,20.9099,600.683,-0.130886,0.0,0.0
326,81.25,44.6302,45.6531,135.635,105.799,107.768,0.00669476,0.131567,20.9141,600.673,-0.166732,0.0,0.0
328,81.75,44.3954,45.6042,133.821,105.777,108.231,0.00684567,0.128138,20.9176,600.673,-0.207426,0.0,0.0
330,82.25,44.4461,45.6073,135.588,105.822,108.699,0.00699589,0.124251,20.9217,600.673,-0.242669,0.0,0.0
332,82.75,43.8104,45.7407,138.132,105.785,109.01,0.00714273,0.121103,20.925,600.683,-0.271663,0.0,0.0
334,83.25,43.9136,45.346,131.941,105.773,109.137,0.00728431,0.117957,20.9282,600.683,-0.283145,0.0,0.0
336,83.75,44.0067,45.2174,138.341,105.771,108.34,0.007399,0.114872,20.9311,600.663,-0.217034,0.0,0.0
338,84.25,43.8628,44.9726,137.503,105.777,108.05,0.00751244,0.111873,20.9335,600.653,-0.192232,0.0,0.0
340,84.75,43.4849,44.9014,136.75,105.775,107.871,0.00762283,0.108995,20.9368,600.643,-0.177503,0.0,0.0
342,85.25,43.184,45.123,136.173,105.767,107.81,0.00771224,0.106663,20.9394,600.633,-0.173108,0.0,0.0
344,85.75,43.3543,45.2794,138.111,105.758,107.642,0.00779475,0.103926,20.9416,600.633,-0.159748,0.0,0.0
346,86.25,43.0233,44.9936,137.463,105.762,108.373,0.00786158,0.101708,20.9437,600.623,-0.220591,0.0,0.0
348,86.75,43.2092,45.0633,133.006,105.75,107.906,0.00791372,0.0994293,20.9455,600.593,-0.182561,0.0,0.0
350,87.25,43.0046,44.4812,138.44,105.75,108.355,0.00795416,0.0971491,20.9469,600.563,-0.220125,0.0,0.0
352,87.75,43.0185,44.6051,138.099,105.747,107.419,0.00798692,0.0953021,20.9494,600.533,-0.141848,0.0,0.0
354,88.25,42.7001,44.6249,138.34,105.75,107.916,0.00801213,0.0929327,20.9514,600.573,-0.183387,0.0,0.0
356,88.75,42.8407,44.6968,136.89,105.739,107.921,0.00803136,0.0910134,20.9532,600.583,-0.184753,0.0,0.0
358,89.25,42.3456,44.4064,137.024,105.734,107.245,0.00805224,0.0890583,20.955,600.583,-0.128289,0.0,0.0
360,89.75,42.0777,44.8011,140.72,105.735,107.4,0.00807393,0.0871141,20.9564,600.603,-0.141364,0.0,0.0
362,90.25,42.1441,43.266,138.276,105.732,108.033,0.00810411,0.0855393,20.9579,600.573,-0.194736,0.0,0.0
364,90.75,42.2865,43.9278,138.008,105.721,107.898,0.0081399,0.083951,20.9592,600.573,-0.184356,0.0,0.0
366,91.25,41.6476,43.464,140.72,105.729,108.304,0.00816889,0.0823831,20.9602,600.573,-0.217656,0.0,0.0
368,91.75,41.5389,43.9106,139.61,105.731,107.918,0.00819238,0.0809199,20.9615,600.593,-0.185203,0.0,0.0
370,92.25,41.5401,43.5993,139.126,105.72,108.116,0.00827579,0.0797347,20.9626,600.613,-0.202684,0.0,0.0
372,92.75,41.6769,43.8208,135.558,105.723,107.669,0.00834335,0.0786512,20.9634,600.613,-0.16498,0.0,0.0
374,93.25,41.0945,43.78,139.083,105.72,107.974,0.00843473,0.0776625,20.9641,600.623,-0.19083,0.0,0.0
376,93.75,40.253,44.1387,137.995,105.722,107.703,0.00850875,0.0768616,20.9646,600.603,-0.167987,0.0,0.0
378,94.25,41.1593,43.5691,134.151,105.715,107.929,0.00858536,0.0760677,20.9651,600.633,-0.187553,0.0,0.0
380,94.75,41.9638,43.4775,134.299,105.704,108.322,0.00866239,0.0752941,20.9656,600.633,-0.221268,0.0,0.0
382,95.25,40.9533,43.301,134.345,105.72,108.767,0.00874478,0.0746674,20.9663,600.623,-0.257001,0.0,0.0
384,95.75,40.7334,43.2856,139.471,105.726,108.494,0.00882951,0.0738016,20.9669,600.613,-0.233767,0.0,0.0
386,96.25,40.8678,43.2026,135.135,105.721,107.394,0.00891616,0.0731002,20.9682,600.603,-0.142008,0.0,0.0
388,96.75,40.5889,42.9358,138.641,105.728,107.981,0.00900255,0.0722154,20.9693,600.593,-0.190691,0.0,0.0
390,97.25,40.6458,42.7454,136.955,105.723,107.476,0.00907921,0.0714988,20.9702,600.583,-0.148733,0.0,0.0
392,97.75,40.3141,43.2233,141.322,105.73,107.826,0.00914731,0.0706155,20.9709,600.583,-0.17762,0.0,0.0
394,98.25,39.8706,42.681,131.69,105.715,107.833,0.00920246,0.0699001,20.9719,600.593,-0.179436,0.0,0.0
396,98.75,40.309,42.7058,137.967,105.733,107.033,0.0092418,0.0691281,20.9727,600.583,-0.110581,0.0,0.0
398,99.25,40.5979,42.4488,137.954,105.717,107.749,0.00926886,0.0685027,20.9733,600.573,-0.172178,0.0,0.0
400,99.75,40.1142,42.5829,136.299,105.728,107.137,0.0092801,0.0679528,20.9739,600.583,-0.119716,0.0,0.0
402,100.25,39.7983,42.5584,135.422,105.718,107.37,0.0092796,0.0674682,20.9743,600.563,-0.1403,0.0,0.0
404,100.75,39.7972,42.6035,136.739,105.736,107.58,0.00926318,0.0670758,20.9747,600.563,-0.156345,0.0,0.0
406,101.25,40.2289,42.4053,140.154,105.742,106.944,0.00923549,0.0667304,20.9749,600.563,-0.102261,0.0,0.0
408,101.75,39.9253,42.4586,139.324,105.743,107.233,0.00919641,0.0664506,20.9752,600.563,-0.126623,0.0,0.0
410,102.25,39.3206,41.8909,138.467,105.736,108.374,0.00914979,0.0661278,20.9754,600.563,-0.222873,0.0,0.0
412,102.75,39.3968,42.3248,135.364,105.734,107.354,0.00911203,0.0658663,20.9758,600.553,-0.137516,0.0,0.0
414,103.25,39.2814,42.3168,136.613,105.73,108.405,0.00906246,0.065572,20.9761,600.543,-0.225983,0.0,0.0
416,103.75,39.0847,42.1759,137.559,105.744,107.952,0.00902232,0.0653337,20.9764,600.543,-0.186932,0.0,0.0
418,104.25,39.2407,42.0511,136.251,105.726,108.503,0.00897083,0.0650895,20.9766,600.533,-0.234505,0.0,0.0
420,104.75,39.0963,42.0817,136.308,105.745,107.938,0.00892912,0.0648458,20.9768,600.533,-0.185688,0.0,0.0
422,105.25,39.6917,42.305,139.229,105.73,108.153,0.00889534,0.0645761,20.977,600.523,-0.204933,0.0,0.0
424,105.75,39.1673,41.7855,135.127,105.738,108.22,0.00883638,0.0642926,20.9771,600.513,-0.209853,0.0,0.0
426,106.25,39.1891,41.9866,139.011,105.729,108.208,0.00878863,0.0640268,20.9772,600.513,-0.209637,0.0,0.0
428,106.75,39.0709,41.8253,140.336,105.738,107.364,0.00873353,0.0637789,20.9773,600.493,-0.13809,0.0,0.0
430,107.25,38.6844,41.3127,135.876,105.727,108.307,0.0086889,0.0635782,20.9773,600.493,-0.218032,0.0,0.0
432,107.75,38.7443,41.9126,136.785,105.751,107.943,0.00865408,0.0633881,20.9774,600.533,-0.185575,0.0,0.0
434,108.25,38.6058,41.3357,136.289,105.73,108.023,0.00862707,0.0632342,20.9774,600.543,-0.194133,0.0,0.0
436,108.75,38.9499,41.4853,140.955,105.746,108.439,0.00860785,0.0631095,20.9775,600.543,-0.227484,0.0,0.0
438,109.25,38.3513,41.467,137.701,105.735,108.037,0.00859467,0.0629261,20.9775,600.573,-0.194869,0.0,0.0
440,109.75,38.482,40.9169,137.636,105.741,107.43,0.00858666,0.0627775,20.9775,600.523,-0.143293,0.0,0.0
442,110.25,38.3595,41.3645,139.717,105.734,107.727,0.00858257,0.0626283,20.9775,600.493,-0.168933,0.0,0.0
444,110.75,38.4538,40.9603,135.488,105.745,108.038,0.00857925,0.0624814,20.9775,600.473,-0.194004,0.0,0.0
446,111.25,38.2722,41.215,136.34,105.739,107.953,0.00856593,0.0622801,20.9776,600.433,-0.187371,0.0,0.0
448,111.75,37.8642,41.0048,133.939,105.755,108.187,0.00854556,0.062117,20.9776,600.443,-0.205682,0.0,0.0
450,112.25,38.1351,40.8782,138.12,105.737,108.525,0.00852907,0.0619575,20.9775,600.433,-0.235426,0.0,0.0
452,112.75,38.1465,41.0658,135.863,105.758,107.882,0.00851571,0.0618282,20.9775,600.463,-0.179883,0.0,0.0
454,113.25,38.1216,40.6395,136.63,105.747,108,0.00845439,0.0617098,20.9774,600.463,-0.1907,0.0,0.0
456,113.75,38.0837,40.5777,135.406,105.772,107.613,0.00840471,0.0616139,20.9775,600.473,-0.156089,0.0,0.0
458,114.25,37.6157,40.6072,135.397,105.753,107.721,0.00833422,0.0615362,20.9776,600.493,-0.166797,0.0,0.0
460,114.75,35.9937,38.9666,139.557,105.777,107.34,0.00827713,0.0614733,20.9777,600.513,-0.132723,0.0,0.0
462,115.25,36.087,38.9119,136.896,105.756,108.132,0.00819689,0.0612722,20.9778,600.513,-0.200977,0.0,0.0
464,115.75,36.1514,39.2521,138.456,105.775,107.887,0.00813189,0.0611094,20.9778,600.493,-0.17887,0.0,0.0
466,116.25,35.7894,39.0004,135.064,105.761,107.98,0.00803898,0.0609775,20.9778,600.483,-0.187827,0.0,0.0
468,116.75,36.2597,38.6039,136.738,105.764,107.954,0.00796372,0.0608157,20.9781,600.493,-0.185356,0.0,0.0
470,117.25,36.3428,38.5057,137.935,105.753,108.502,0.00787235,0.0606847,20.9785,600.473,-0.232149,0.0,0.0
472,117.75,35.7842,38.3275,135.489,105.772,107.732,0.00777095,0.0605786,20.9789,600.443,-0.166106,0.0,0.0
474,118.25,36.0942,38.5248,139.306,105.758,107.578,0.00763738,0.0604927,20.9791,600.433,-0.154309,0.0,0.0
476,118.75,35.7838,38.4495,134.099,105.774,108.171,0.00752919,0.0603407,20.9794,600.443,-0.202653,0.0,0.0
478,119.25,35.6361,38.4142,134.614,105.758,108.58,0.00744156,0.0602177,20.9796,600.433,-0.238273,0.0,0.0
480,119.75,35.7165,38.7559,136.369,105.775,108.347,0.00728916,0.0599671,20.9797,600.423,-0.217294,0.0,0.0
482,120.25,35.7431,38.4912,138.065,105.758,108.141,0.00716571,0.0597642,20.9798,600.423,-0.201572,0.0,0.0
484,120.75,35.7165,38.2018,139.636,105.781,107.14,0.00703874,0.0595176,20.9799,600.413,-0.115469,0.0,0.0
486,121.25,35.5544,38.3509,139.504,105.767,108.16,0.00691161,0.0593178,20.98,600.403,-0.202336,0.0,0.0
488,121.75,35.2412,38.1026,136.824,105.782,107.326,0.00678826,0.0591343,20.9801,600.403,-0.131073,0.0,0.0
490,122.25,35.1447,38.4455,135.84,105.768,108.558,0.00667001,0.0589662,20.9801,600.403,-0.235542,0.0,0.0
492,122.75,35.5232,38.1778,136.124,105.792,107.978,0.00656503,0.0588301,20.9806,600.393,-0.185036,0.0,0.0
494,123.25,34.9458,38.2097,138.971,105.789,107.819,0.00647172,0.0586513,20.981,600.413,-0.171899,0.0,0.0
496,123.75,35.2734,37.6043,134.657,105.782,107.295,0.00639351,0.0585064,20.9813,600.383,-0.128482,0.0,0.0
498,124.25,35.2464,37.9525,139.019,105.781,108.08,0.0063278,0.0583617,20.9815,600.413,-0.194516,0.0,0.0
500,124.75,35.1718,38.2783,135.98,105.799,107.487,0.00626932,0.0582444,20.9817,600.393,-0.1432,0.0,0.0
502,125.25,35.2792,38.4258,137.037,105.789,108.255,0.00621722,0.0581278,20.9819,600.373,-0.208399,0.0,0.0
504,125.75,35.4175,37.8826,136.204,105.785,107.774,0.00617503,0.0580139,20.982,600.403,-0.168544,0.0,0.0
506,126.25,35.2949,37.9338,137.11,105.804,107.92,0.00611789,0.0578928,20.9822,600.413,-0.179106,0.0,0.0
508,126.75,34.9801,38.0887,134.092,105.799,107.369,0.00605094,0.0577687,20.9822,600.423,-0.133205,0.0,0.0
510,127.25,35.2345,37.3608,136.139,105.791,107.623,0.00599671,0.0576322,20.9828,600.373,-0.155291,0.0,0.0
512,127.75,35.2219,37.6173,135.805,105.794,107.825,0.00591045,0.0574891,20.9832,600.413,-0.172048,0.0,0.0
514,128.25,35.029,38.0702,133.266,105.812,107.952,0.00584058,0.0573732,20.9835,600.323,-0.181112,0.0,0.0
516,128.75,34.686,37.658,136.68,105.786,107.631,0.00576631,0.0571971,20.9838,600.293,-0.156352,0.0,0.0
518,129.25,34.5036,37.8587,137.901,105.815,107.105,0.00569025,0.0570545,20.984,600.263,-0.109668,0.0,0.0
520,129.75,34.8866,37.504,135.331,105.788,107.802,0.00561621,0.0569029,20.9842,600.283,-0.170564,0.0,0.0
522,130.25,34.8886,37.2713,134.335,105.789,107.722,0.00554505,0.0567477,20.9843,600.223,-0.163763,0.0,0.0
524,130.75,35.0074,37.2807,137.672,105.794,108.063,0.00547002,0.056622,20.9844,600.293,-0.19195,0.0,0.0
526,131.25,34.481,37.4909,134.538,105.801,107.736,0.00540924,0.0564928,20.9845,600.353,-0.16389,0.0,0.0
528,131.75,34.8143,37.4185,134.623,105.79,107.603,0.00535152,0.0563881,20.9846,600.313,-0.153677,0.0,0.0
530,132.25,34.4123,37.1564,138.03,105.797,108.857,0.00529712,0.0562896,20.9847,600.403,-0.25793,0.0,0.0
532,132.75,34.6501,37.3174,142.275,105.794,108.034,0.00525305,0.0562099,20.9849,600.303,-0.189533,0.0,0.0
534,133.25,34.3633,37.1091,139.02,105.787,108.888,0.00520364,0.0560768,20.9854,600.293,-0.261354,0.0,0.0
536,133.75,34.517,37.3251,135.293,105.783,108.23,0.00515128,0.055969,20.9857,600.223,-0.206843,0.0,0.0
538,134.25,34.5906,37.3164,137.526,105.793,107.904,0.00510886,0.0558406,20.986,600.233,-0.178682,0.0,0.0
540,134.75,34.3653,37.0842,139.623,105.789,107.571,0.00505688,0.0557366,20.9862,600.263,-0.151047,0.0,0.0
542,135.25,34.5488,37.487,137.366,105.796,107.157,0.00499892,0.0556163,20.9864,600.253,-0.115619,0.0,0.0
544,135.75,34.7454,36.8833,138.733,105.77,107.606,0.0049448,0.0554864,20.9869,600.263,-0.155646,0.0,0.0
546,136.25,34.0766,37.061,140.284,105.789,107.029,0.0048945,0.0553813,20.9873,600.283,-0.105379,0.0,0.0
548,136.75,34.1146,37.2604,140.042,105.775,108.857,0.00484789,0.0552672,20.9876,600.323,-0.259771,0.0,0.0
550,137.25,34.4744,37.3321,138.64,105.773,107.978,0.00480486,0.055149,20.9879,600.263,-0.186587,0.0,0.0
552,137.75,34.0081,37.0152,138.507,105.788,107.269,0.00476088,0.0550531,20.9881,600.313,-0.125777,0.0,0.0
554,138.25,34.429,36.9608,139.494,105.768,107.86,0.00471704,0.0549827,20.9883,600.333,-0.177179,0.0,0.0
556,138.75,33.8805,36.976,136.982,105.762,107.726,0.0046659,0.0549322,20.9884,600.313,-0.166393,0.0,0.0
558,139.25,33.9689,36.2848,134.297,105.765,107.331,0.00461041,0.0548696,20.9885,600.373,-0.132914,0.0,0.0
560,139.75,33.8011,36.7579,134.971,105.763,108.143,0.00456546,0.0547995,20.9886,600.343,-0.201331,0.0,0.0
562,140.25,34.3572,36.7472,140.948,105.767,107.927,0.00452905,0.0547211,20.9887,600.253,-0.182836,0.0,0.0
564,140.75,33.7294,36.4665,137.007,105.748,107.381,0.00446617,0.0546381,20.9887,600.283,-0.138599,0.0,0.0
566,141.25,34.1518,37.0045,138.056,105.756,106.631,0.00441524,0.0545493,20.9888,600.293,-0.074483,0.0,0.0
568,141.75,34.0615,37.1372,137.41,105.75,108.38,0.00434681,0.0544579,20.9888,600.263,-0.222188,0.0,0.0
570,142.25,33.9103,36.8202,134.825,105.756,108.145,0.00429137,0.0543839,20.9888,600.303,-0.202068,0.0,0.0
572,142.75,33.9574,36.5187,139.023,105.736,107.816,0.00422919,0.0543103,20.9889,600.242,-0.176144,0.0,0.0
574,143.25,33.6969,36.2781,138.207,105.742,108.011,0.00417881,0.0542506,20.9889,600.233,-0.192107,0.0,0.0
576,143.75,34.029,37.1539,133.656,105.731,107.252,0.00413282,0.0542023,20.9889,600.242,-0.129243,0.0,0.0
578,144.25,33.8345,36.9031,139.87,105.726,107.094,0.00409088,0.0541631,20.9889,600.223,-0.116275,0.0,0.0
580,144.75,33.9266,36.9674,138.421,105.705,107.443,0.00405626,0.0541314,20.9889,600.293,-0.147501,0.0,0.0
582,145.25,33.7171,36.6065,136.776,105.709,107.989,0.00402764,0.0541058,20.9889,600.273,-0.193093,0.0,0.0
584,145.75,34.17,36.4346,138.77,105.691,106.935,0.00400315,0.054085,20.9889,600.303,-0.105851,0.0,0.0
586,146.25,33.9628,36.6693,135.517,105.706,108.142,0.00398215,0.0540321,20.9894,600.263,-0.206095,0.0,0.0
588,146.75,33.9125,36.4095,133.931,105.674,107.902,0.00396514,0.0539569,20.9897,600.253,-0.188722,0.0,0.0
590,147.25,34.4127,36.6155,137.616,105.676,107.716,0.00393655,0.0538815,20.99,600.253,-0.172948,0.0,0.0
592,147.75,33.7311,36.3648,144.716,105.654,107.652,0.0039134,0.0538075,20.9903,600.253,-0.16947,0.0,0.0
594,148.25,33.9896,36.6599,133.708,105.658,108.07,0.00387368,0.053726,20.9905,600.223,-0.204181,0.0,0.0
596,148.75,33.5826,36.4456,139.509,105.634,107.017,0.00384151,0.0536405,20.9906,600.233,-0.117671,0.0,0.0
598,149.25,34.1744,36.4496,135.759,105.63,107.381,0.00379988,0.0535713,20.9907,600.223,-0.148691,0.0,0.0
600,149.75,33.9377,36.3927,139.913,105.617,107.383,0.00375215,0.0534878,20.9908,600.253,-0.150045,0.0,0.0
602,150.25,33.8287,36.461,140.26,105.613,107.613,0.00371349,0.0534202,20.9909,600.223,-0.169729,0.0,0.0
604,150.75,33.4255,36.262,135.245,105.59,107.698,0.00367232,0.0533367,20.9912,600.213,-0.178806,0.0,0.0
606,151.25,33.8381,35.9852,140.508,105.594,107.93,0.00363898,0.0532431,20.9917,600.193,-0.197941,0.0,0.0
608,151.75,33.77,36.1704,138.311,105.568,107.914,0.00362305,0.0531672,20.992,600.253,-0.198862,0.0,0.0
610,152.25,33.3125,36.3214,138.65,105.58,107.374,0.00361015,0.0530648,20.9923,600.193,-0.152447,0.0,0.0
612,152.75,33.6354,36.22,139.265,105.543,106.352,0.00361079,0.0529818,20.9926,600.223,-0.0690979,0.0,0.0
614,153.25,33.8066,36.0525,134.697,105.545,106.905,0.00361131,0.0528872,20.9928,600.213,-0.115742,0.0,0.0
616,153.75,33.535,35.9012,138.613,105.518,107.545,0.00361153,0.0528106,20.9928,600.233,-0.172048,0.0,0.0
618,154.25,33.5221,36.0934,136.32,105.522,106.887,0.00361807,0.052727,20.993,600.233,-0.116276,0.0,0.0
620,154.75,33.4469,36.2639,137.778,105.506,107.066,0.00362337,0.0526398,20.9931,600.213,-0.132737,0.0,0.0
622,155.25,33.5333,35.7648,142.27,105.517,107.41,0.00362247,0.0525418,20.9932,600.193,-0.160788,0.0,0.0
624,155.75,33.5489,36.2164,137.6,105.49,107.972,0.00361708,0.0524624,20.9933,600.152,-0.210364,0.0,0.0
626,156.25,33.5246,36.2068,133.38,105.496,107.113,0.00360493,0.0524054,20.9933,600.152,-0.137619,0.0,0.0
628,156.75,33.0806,35.8147,143.022,105.485,107.826,0.00358808,0.0523844,20.9934,600.182,-0.198505,0.0,0.0
630,157.25,33.4931,35.9148,134.961,105.483,106.988,0.00357443,0.0523486,20.9934,600.172,-0.128081,0.0,0.0
632,157.75,33.6688,35.7773,139.497,105.454,106.955,0.00354783,0.0523125,20.9934,600.172,-0.127861,0.0,0.0
634,158.25,33.1452,36.0573,132.883,105.464,107.152,0.00351228,0.0522767,20.9935,600.182,-0.143641,0.0,0.0
636,158.75,33.4132,35.8022,141.435,105.442,107.098,0.00348349,0.0522261,20.9935,600.193,-0.141,0.0,0.0
638,159.25,33.5956,35.869,135.323,105.45,107.593,0.00344171,0.0521657,20.9935,600.223,-0.181917,0.0,0.0
640,159.75,33.5053,35.6022,135.458,105.429,107.553,0.00340787,0.0521168,20.9935,600.182,-0.180398,0.0,0.0
642,160.25,33.5559,35.8399,137.689,105.429,107.072,0.00336816,0.0520483,20.9935,600.233,-0.13992,0.0,0.0
644,160.75,33.5561,36.3624,139.01,105.418,107.667,0.003336,0.051967,20.9935,600.203,-0.190936,0.0,0.0
646,161.25,33.411,35.5126,142.393,105.421,107.411,0.00330994,0.0518795,20.9936,600.182,-0.169173,0.0,0.0
648,161.75,33.4197,36.098,139.068,105.414,106.986,0.00327655,0.0517893,20.9938,600.233,-0.133944,0.0,0.0
650,162.25,33.3493,36.1293,136.206,105.407,107.505,0.00323914,0.0517161,20.9942,600.263,-0.178248,0.0,0.0
652,162.75,33.1718,35.9282,138.976,105.403,107.092,0.00319953,0.0516353,20.9945,600.233,-0.143749,0.0,0.0
654,163.25,33.0641,35.8478,139.932,105.404,107.761,0.00316745,0.0515504,20.9948,600.193,-0.200033,0.0,0.0
656,163.75,33.2101,36.0336,136.145,105.406,107.797,0.00311076,0.0514817,20.995,600.203,-0.202822,0.0,0.0
658,164.25,32.8677,35.7402,136.905,105.396,107.357,0.00306484,0.051426,20.9952,600.253,-0.166762,0.0,0.0
660,164.75,33.4534,35.7945,139.681,105.413,107.708,0.00298961,0.0513808,20.9953,600.283,-0.19485,0.0,0.0
662,165.25,33.6823,35.9271,138.375,105.379,108.271,0.00292867,0.0512759,20.9954,600.283,-0.24488,0.0,0.0
664,165.75,33.3068,35.56,139.771,105.376,106.717,0.00285976,0.051191,20.9954,600.233,-0.114418,0.0,0.0
666,166.25,33.2087,35.5518,138.015,105.355,107.038,0.00280394,0.0510948,20.9953,600.213,-0.14332,0.0,0.0
668,166.75,33.2423,35.8789,135.157,105.353,107.505,0.00275504,0.0510169,20.9953,600.233,-0.182894,0.0,0.0
670,167.25,33.3296,35.7863,137.708,105.349,107.584,0.00271544,0.0509402,20.9952,600.253,-0.189842,0.0,0.0
672,167.75,33.7424,35.9168,138.053,105.346,107.352,0.00268336,0.050878,20.9952,600.263,-0.170684,0.0,0.0
674,168.25,33.1313,35.8268,136.767,105.333,107.899,0.00266719,0.0508272,20.9952,600.223,-0.217691,0.0,0.0
676,168.75,33.3518,35.4342,141.523,105.339,106.917,0.00265408,0.0507857,20.9951,600.193,-0.134459,0.0,0.0
678,169.25,33.3547,35.2003,137.316,105.34,106.969,0.00264218,0.0507449,20.9951,600.142,-0.138836,0.0,0.0
680,169.75,33.2731,35.3376,136.901,105.329,107.229,0.00263138,0.0507053,20.9951,600.132,-0.161694,0.0,0.0
682,170.25,33.2572,35.3367,136.341,105.324,107.4,0.00261231,0.0506733,20.9951,600.122,-0.17654,0.0,0.0
684,170.75,33.3722,35.9906,133.647,105.324,107.325,0.00258757,0.050661,20.9951,600.102,-0.17022,0.0,0.0
686,171.25,33.2852,35.971,139.764,105.325,106.649,0.00255722,0.0506511,20.9951,600.122,-0.113047,0.0,0.0
688,171.75,33.0555,35.074,134.621,105.321,107.338,0.00252335,0.0506502,20.9951,600.122,-0.171536,0.0,0.0
690,172.25,32.8854,35.1572,135.559,105.318,107.273,0.00249012,0.050656,20.9951,600.152,-0.16633,0.0,0.0
692,172.75,33.1926,35.3142,137.991,105.332,106.971,0.00245799,0.0506535,20.9951,600.122,-0.139683,0.0,0.0
694,173.25,32.9154,35.4553,141.734,105.309,106.832,0.00242809,0.050645,20.995,600.162,-0.129862,0.0,0.0
696,173.75,33.4091,35.4345,136.331,105.324,106.711,0.00240039,0.0506093,20.995,600.172,-0.118373,0.0,0.0
698,174.25,32.8249,35.3308,138.846,105.309,106.636,0.00237796,0.0505545,20.995,600.172,-0.113281,0.0,0.0
700,174.75,33.5754,35.2874,138.185,105.326,108.052,0.00235142,0.0505101,20.995,600.142,-0.231109,0.0,0.0
702,175.25,33.1391,35.1095,138.697,105.308,107.084,0.00232239,0.0504468,20.995,600.152,-0.151206,0.0,0.0
704,175.75,33.3749,35.216,137.875,105.317,107.341,0.00229887,0.0503956,20.995,600.132,-0.172171,0.0,0.0
706,176.25,33.088,35.2635,136.26,105.318,107.379,0.00226012,0.0503404,20.9953,600.142,-0.175317,0.0,0.0
708,176.75,33.1333,35.3045,139.681,105.333,107.132,0.00222874,0.0502957,20.9957,600.162,-0.153195,0.0,0.0
710,177.25,32.9381,35.243,135.762,105.323,106.687,0.00219109,0.0502523,20.9962,600.142,-0.116428,0.0,0.0
712,177.75,33.2631,35.7066,139.128,105.324,107.745,0.0021606,0.0502107,20.9967,600.112,-0.205522,0.0,0.0
714,178.25,33.0014,35.1519,136.968,105.329,107.455,0.00213468,0.050177,20.9971,600.102,-0.180732,0.0,0.0
716,178.75,33.3616,35.375,138.198,105.326,107.266,0.00211368,0.0502059,20.9975,600.132,-0.165088,0.0,0.0
718,179.25,32.6028,35.4191,138.61,105.323,107.32,0.00210645,0.0502294,20.9978,600.182,-0.169899,0.0,0.0
720,179.75,33.197,35.1717,137.082,105.332,106.779,0.0021006,0.0502211,20.998,600.172,-0.12337,0.0,0.0
722,180.25,33.3046,35.309,139.249,105.336,106.18,0.00209586,0.0502143,20.9982,600.172,-0.0721593,0.0,0.0
724,180.75,33.0987,34.8953,135.187,105.342,107.111,0.00210167,0.0501952,20.9984,600.112,-0.150623,0.0,0.0
726,181.25,33.0867,34.97,138.302,105.335,106.831,0.00211507,0.0501797,20.9987,600.112,-0.127533,0.0,0.0
728,181.75,32.8621,34.9467,140.129,105.355,106.653,0.00212592,0.0501535,20.9989,600.112,-0.11075,0.0,0.0
730,182.25,32.7596,35.0078,135.248,105.343,107.276,0.00213986,0.0501322,20.9991,600.102,-0.164464,0.0,0.0
732,182.75,32.8718,35.2831,136.536,105.371,107.155,0.00215579,0.050115,20.9988,600.132,-0.151816,0.0,0.0
734,183.25,32.9107,35.0598,136.289,105.351,106.669,0.00216354,0.0500939,20.9985,600.142,-0.112453,0.0,0.0
736,183.75,33.4494,35.0839,136.66,105.368,107.104,0.00216519,0.0500703,20.9984,600.112,-0.147822,0.0,0.0
738,184.25,33.1679,35.038,135.173,105.349,107.308,0.00215944,0.0500512,20.9982,600.162,-0.166665,0.0,0.0
740,184.75,33.2818,35.3013,139.79,105.374,106.795,0.00214841,0.0500357,20.9981,600.132,-0.121154,0.0,0.0
742,185.25,33.1016,35.2128,138.204,105.352,107.344,0.00213497,0.0500232,20.998,600.072,-0.169473,0.0,0.0
744,185.75,33.3785,35.2705,139.151,105.377,107.777,0.00212003,0.0500131,20.9981,600.062,-0.20372,0.0,0.0
746,186.25,32.9395,35.2638,138.404,105.356,107.204,0.00210793,0.0500048,20.9984,600.052,-0.157288,0.0,0.0
748,186.75,32.8467,35.0363,135.858,105.384,106.614,0.00210063,0.0499982,20.9987,600.102,-0.10504,0.0,0.0
750,187.25,33.0739,35.1649,139.231,105.354,106.873,0.00209473,0.0499381,20.9989,600.022,-0.129409,0.0,0.0
752,187.75,33.2019,34.8979,134.423,105.389,107.161,0.00209972,0.0498895,20.999,600.032,-0.150804,0.0,0.0
754,188.25,32.8326,34.7556,137.054,105.381,107.059,0.00210377,0.0498091,20.999,600.082,-0.142954,0.0,0.0
756,188.75,32.9103,35.0579,137.326,105.39,106.41,0.00210705,0.049744,20.999,600.112,-0.0870551,0.0,0.0
758,189.25,32.9981,34.648,140.422,105.394,106.786,0.00211337,0.0497451,20.999,600.082,-0.118663,0.0,0.0
760,189.75,32.9741,34.8593,136.477,105.4,107.216,0.00211849,0.049746,20.999,600.082,-0.154501,0.0,0.0
762,190.25,32.7248,35.132,135.21,105.41,106.647,0.00212264,0.0497395,20.999,600.052,-0.105481,0.0,0.0
764,190.75,33.0381,35.2213,134.17,105.44,107.017,0.002126,0.0497278,20.999,600.082,-0.134295,0.0,0.0
766,191.25,32.6237,35.0147,138.875,105.42,107.106,0.00213066,0.0497183,20.999,600.112,-0.143551,0.0,0.0
768,191.75,33.1157,34.7369,135.038,105.438,107.014,0.00213617,0.0497379,20.999,600.072,-0.134164,0.0,0.0
770,192.25,32.6406,34.429,135.506,105.435,106.762,0.00214446,0.0497538,20.999,600.072,-0.113133,0.0,0.0
772,192.75,32.6749,34.7046,140.247,105.447,106.989,0.00214791,0.0497308,20.999,600.002,-0.131355,0.0,0.0
774,193.25,33.0366,35.0131,137.498,105.444,107.73,0.00215832,0.0496797,20.999,600.012,-0.193965,0.0,0.0
776,193.75,32.5995,34.4645,135.785,105.469,107.754,0.0021708,0.0496312,20.999,600.082,-0.193863,0.0,0.0
778,194.25,33.1077,34.747,138.501,105.454,107.392,0.00218671,0.0495854,20.999,600.062,-0.164735,0.0,0.0
780,194.75,32.8853,34.5744,134.244,105.488,107.639,0.00221254,0.0495483,20.999,600.032,-0.182567,0.0,0.0
782,195.25,32.777,34.841,137.716,105.474,107.078,0.00221948,0.049486,20.999,600.052,-0.136553,0.0,0.0
784,195.75,32.7353,34.8204,138.806,105.482,107.008,0.0022436,0.0494692,20.999,600.052,-0.129882,0.0,0.0
786,196.25,32.6942,34.8063,135.301,105.487,107.105,0.00227416,0.0494542,20.999,600.042,-0.137708,0.0,0.0
788,196.75,32.958,34.9077,137.814,105.497,106.773,0.00229891,0.049442,20.999,600.032,-0.108748,0.0,0.0
790,197.25,32.468,34.3616,137.397,105.494,107.047,0.00234591,0.0494595,20.999,600.042,-0.132174,0.0,0.0
792,197.75,32.8524,34.7304,134.676,105.52,107.73,0.00238398,0.0494653,20.999,600.012,-0.187442,0.0,0.0
794,198.25,32.483,34.6646,136.468,105.511,107.849,0.00243076,0.0494578,20.999,600.022,-0.198209,0.0,0.0
796,198.75,32.864,34.3778,138.385,105.536,107.148,0.00246864,0.049445,20.999,600.032,-0.137087,0.0,0.0
798,199.25,32.4752,34.7962,135.025,105.54,108.029,0.00249933,0.0494346,20.999,600.062,-0.21089,0.0,0.0
800,199.75,32.2251,34.3742,136.869,105.541,106.835,0.00252419,0.0494398,20.999,600.002,-0.110227,0.0,0.0
802,200.25,32.7057,34.5555,137.711,105.57,107.073,0.00253452,0.049444,20.999,600.022,-0.127933,0.0,0.0
804,200.75,32.5169,34.8229,137.45,105.565,107.416,0.00254288,0.0494331,20.999,600.022,-0.157245,0.0,0.0
806,201.25,33.3095,34.4285,137.42,105.582,107.786,0.00253998,0.0494113,20.999,599.992,-0.186924,0.0,0.0
808,201.75,32.6898,35.0836,136.428,105.571,107.032,0.00252893,0.0493792,20.999,600.012,-0.124361,0.0,0.0
810,202.25,33.34,34.7228,137.302,105.581,108.603,0.00251997,0.0493403,20.999,599.982,-0.255258,0.0,0.0
812,202.75,32.5678,34.9829,134.296,105.6,107.484,0.00249802,0.0493088,20.999,600.012,-0.159961,0.0,0.0
814,203.25,32.7629,34.8224,134.591,105.598,107.178,0.00248024,0.0492833,20.999,600.042,-0.134319,0.0,0.0
816,203.75,32.788,34.8775,136.962,105.603,107.302,0.00246583,0.0492626,20.999,599.972,-0.14441,0.0,0.0
818,204.25,32.838,34.2667,136.591,105.609,107.258,0.00244321,0.0492459,20.999,600.012,-0.140098,0.0,0.0
820,204.75,32.821,34.6947,140.794,105.617,106.774,0.00241503,0.0492323,20.9994,600.012,-0.0985447,0.0,0.0
822,205.25,32.7148,34.7625,138.729,105.633,107.766,0.00237675,0.0492077,20.9997,600.022,-0.180863,0.0,0.0
824,205.75,33.0166,34.5917,137.016,105.628,108.035,0.00233183,0.0491877,21,600.032,-0.203788,0.0,0.0
826,206.25,32.6892,34.4087,136.732,105.642,107.368,0.0022755,0.0491715,21.0002,600.022,-0.146578,0.0,0.0
828,206.75,32.7462,34.9017,137.898,105.64,108.065,0.00221192,0.0491944,21.0004,599.952,-0.205272,0.0,0.0
830,207.25,32.7958,34.7983,135.044,105.653,107.601,0.00216043,0.0492453,21.0005,599.962,-0.165234,0.0,0.0
832,207.75,32.7572,34.3086,137.732,105.652,106.743,0.00207964,0.0492793,21.0007,600.012,-0.0928937,0.0,0.0
834,208.25,32.5482,34.1178,137.191,105.671,107.284,0.0020142,0.0493004,21.0007,599.982,-0.137053,0.0,0.0
836,208.75,32.4239,34.4796,139.522,105.658,107.07,0.00194655,0.0492959,21.0008,599.962,-0.120016,0.0,0.0
838,209.25,32.931,34.5662,132.217,105.68,107.691,0.00189176,0.0492728,21.0009,599.952,-0.170474,0.0,0.0
840,209.75,32.5576,34.5728,139.352,105.683,107.489,0.00184738,0.0492541,21.0009,599.942,-0.153302,0.0,0.0
842,210.25,32.7156,34.3167,137.913,105.678,107.699,0.00181753,0.0491843,21.001,599.942,-0.17132,0.0,0.0
844,210.75,32.882,34.907,135.553,105.689,107.887,0.00179335,0.0491278,21.001,599.962,-0.18621,0.0,0.0
846,211.25,32.7807,34.7413,135.467,105.702,106.923,0.00177865,0.0490274,21.001,599.922,-0.103887,0.0,0.0
848,211.75,32.5581,34.3123,140.202,105.695,107.424,0.00176673,0.0489461,21.0011,599.932,-0.146724,0.0,0.0
850,212.25,32.5535,34.7665,138.037,105.728,106.982,0.0017558,0.0488874,21.0011,599.902,-0.106684,0.0,0.0
852,212.75,32.4301,34.775,139.622,105.704,107.651,0.00174579,0.0488463,21.0011,599.922,-0.165087,0.0,0.0
854,213.25,32.5964,34.5875,139.136,105.717,107.037,0.00173512,0.048813,21.0011,599.912,-0.112197,0.0,0.0
856,213.75,32.0961,34.574,135.251,105.736,107.202,0.00172416,0.0487724,21.0011,599.922,-0.124565,0.0,0.0
858,214.25,32.552,34.9674,135.887,105.731,107.118,0.00171335,0.0487395,21.0011,599.922,-0.117886,0.0,0.0
860,214.75,32.755,34.3935,137.748,105.734,107.594,0.00170287,0.0487201,21.0011,599.932,-0.157737,0.0,0.0
862,215.25,32.4993,34.4784,136.62,105.755,107.774,0.00169951,0.0487108,21.0011,599.942,-0.171074,0.0,0.0
864,215.75,32.6098,34.0849,141.627,105.739,107.513,0.00170142,0.0486817,21.0011,599.902,-0.150491,0.0,0.0
866,216.25,32.606,34.6239,137.562,105.764,107.264,0.00170296,0.0486388,21.0011,599.922,-0.127332,0.0,0.0
868,216.75,32.2486,34.1666,140.519,105.764,107.956,0.00171513,0.048604,21.0011,599.902,-0.185584,0.0,0.0
870,217.25,32.7269,33.986,138.487,105.77,106.941,0.00173482,0.0485758,21.0011,599.902,-0.0996054,0.0,0.0
872,217.75,32.0564,34.1773,133.232,105.767,107.796,0.00175077,0.0485529,21.0011,599.862,-0.171899,0.0,0.0
874,218.25,32.8989,34.1533,136.962,105.78,106.639,0.00178689,0.0485208,21.0011,599.872,-0.0732061,0.0,0.0
876,218.75,32.46,34.2234,132.995,105.773,107.521,0.00181615,0.0484947,21.0011,599.882,-0.148304,0.0,0.0
878,219.25,32.4719,34.4454,138.708,105.789,108.041,0.00185696,0.0485419,21.0011,599.872,-0.190515,0.0,0.0
880,219.75,32.7297,34.5797,137.19,105.77,107.317,0.00189002,0.0485801,21.0011,599.882,-0.131342,0.0,0.0
882,220.25,32.6021,34.8138,136.45,105.786,107.893,0.00193391,0.0486111,21.0011,599.912,-0.178323,0.0,0.0
884,220.75,32.4274,34.1893,135.442,105.791,107.362,0.00196946,0.0486498,21.0011,599.982,-0.133339,0.0,0.0
886,221.25,32.1628,34.7646,135.118,105.799,107.759,0.00201171,0.0486812,21.0011,599.962,-0.1661,0.0,0.0
888,221.75,32.5702,34.4053,133.745,105.793,107.796,0.00204593,0.048652,21.0011,599.982,-0.169655,0.0,0.0
890,222.25,32.553,34.1542,136.446,105.807,107.9,,0.0486283,,599.992,-0.177213,0.0,0.0
892,222.75,32.0982,34.0421,135.465,105.803,107.213,,0.048602,,599.982,-0.1198,0.0,0.0
894,223.25,32.502,34.3867,143.84,105.816,106.504,,0.0485742,,599.952,-0.0585583,0.0,0.0
896,223.75,32.1796,34.8627,133.922,105.823,107.825,,0.0485373,,599.952,-0.169476,0.0,0.0
898,224.25,32.5258,34.0986,137.738,105.814,107.437,,0.0484944,,599.952,-0.137629,0.0,0.0
900,224.75,32.4164,33.9189,136.547,105.811,107.282,,0.0484734,,599.902,-0.124928,0.0,0.0
902,225.25,31.865,34.2924,141.951,105.827,107.416,,,,599.892,-0.13478,0.0,0.0
904,225.75,32.7198,34.3673,138.779,105.798,107.323,,,,599.922,-0.129465,0.0,0.0
906,226.25,32.4025,33.9065,141.343,105.822,107.012,,,,599.912,-0.101107,0.0,0.0
908,226.75,32.4615,34.018,135.801,105.819,108.233,,,,599.872,-0.204044,0.0,0.0
910,227.25,32.8397,34.5171,136.188,105.82,108.405,,,,599.852,-0.218321,0.0,0.0
912,227.75,32.0868,34.1853,142.045,105.824,107.758,,,,599.852,-0.163851,0.0,0.0
914,228.25,32.1981,33.6859,136.467,105.822,107.256,,,,599.842,-0.12179,0.0,0.0
916,228.75,32.6002,34.254,137.423,105.824,107.613,,,,599.842,-0.151684,0.0,0.0
918,229.25,32.1501,34.1405,138.065,105.825,107.659,,,,599.852,-0.155414,0.0,0.0
920,229.75,32.2689,34.4226,139.23,105.813,107.475,,,,599.842,-0.140952,0.0,0.0
922,230.25,32.0562,34.2178,140.664,105.83,107.774,,,,599.822,-0.164639,0.0,0.0
924,230.75,32.5395,34.2443,139.249,105.814,107.055,,,,599.832,-0.105452,0.0,0.0
926,231.25,32.0797,33.9818,134.296,105.818,107.944,,,,599.822,-0.179983,0.0,0.0
928,231.75,32.5498,33.8423,136.927,105.81,107.199,,,,599.812,-0.118005,0.0,0.0
930,232.25,32.7721,33.9713,138.09,105.805,107.752,,,,599.842,-0.164897,0.0,0.0
932,232.75,32.3036,34.5952,136.624,105.801,107.89,,,,599.822,-0.176863,0.0,0.0
933,233,32.5339,34.2628,135.779,105.818,107.464,,,,599.852,-0.139581,0.0,0.0