File: 01_Data/Polyester_Bed_Skirt/Cone/Polyester_Bed_Skirt_Cone_HF75Scan_220523_R2.csv
Names,Time,Stack TC,Smoke TC,Exh Press,Smoke Comp,Smoke Meas,CO Meter,CO2 Meter,O2 Meter,Sample Mass,Ext Coeff,Start Test,Flame Verif
Chan Gain,,500,500,1,1,1,1,1,1,1,1,1.0,1.0
Offset,,0,0,0.139323,0,0,0,0,0,0,0,0.0,0.0
Gain,,1,1,25.011,13.8491,15.2622,1,1,1,1.00087,1.03118,1.0,1.0
Units,sec,C,C,Pa,%,%,%,%,%,g,/m,,
Baseline,,49.8135,51.6797,134.105,103.889,107.575,0.000168286,0.046148,20.995,-453.226,-0.315281,,
3,0.5,46.0212,48.5095,133.142,103.912,106.353,1.78865e-05,0.0483277,20.9916,612.743,-0.209974,0.0,0.0
6,1.25,44.5341,47.327,133.054,103.896,107.244,9.96999e-05,0.0486775,20.9912,612.493,-0.286914,0.0,0.0
9,2,43.7064,46.3919,134.046,103.874,107.669,0.000182369,0.0489052,20.9909,612.703,-0.324585,0.0,0.0
12,2.75,44.5332,47.0145,132.511,103.887,107.926,0.000251175,0.0490596,20.9907,612.693,-0.345055,0.0,0.0
15,3.5,44.0505,46.7913,132.123,103.89,107.722,0.000299153,0.0490162,20.9905,612.603,-0.327643,0.0,0.0
18,4.25,44.678,46.6442,132.587,103.873,107.548,0.000306472,0.0489271,20.9904,612.633,-0.314554,0.0,0.0
21,5,44.2292,46.4395,135.318,103.857,107.543,0.000282742,0.0487638,20.9903,612.533,-0.315523,0.0,0.0
24,5.75,45.2711,46.7721,133.2,103.863,107.053,0.000243496,0.0485084,20.9903,612.623,-0.273587,0.0,0.0
27,6.5,45.0752,47.3153,133.477,103.868,107.42,0.000198548,0.0482675,20.9909,612.593,-0.304181,0.0,0.0
30,7.25,44.7335,47.1877,138.981,103.854,107.526,0.000163233,0.0480328,20.9913,612.583,-0.314331,0.0,0.0
33,8,45.2414,46.6679,136.945,103.843,107.993,0.000133133,0.0478002,20.9916,612.553,-0.354427,0.0,0.0
36,8.75,44.935,47.0978,131.989,103.853,108.206,0.000119659,0.0475333,20.992,612.543,-0.371354,0.0,0.0
39,9.5,45.9264,47.3163,139.194,103.855,107.577,0.000122366,0.0473243,20.9928,612.553,-0.318453,0.0,0.0
42,10.25,45.6003,46.8369,132.107,103.832,107.297,0.00013959,0.0471474,20.9933,612.563,-0.296873,0.0,0.0
45,11,45.9695,47.5756,133.352,103.829,107.444,0.000179783,0.046961,20.9937,612.543,-0.309528,0.0,0.0
48,11.75,45.4459,47.4154,133.402,103.826,107.197,0.000226046,0.0467269,20.994,612.563,-0.288979,0.0,0.0
51,12.5,44.9021,46.8874,133.562,103.835,107.571,0.000279125,0.0465016,20.9939,612.533,-0.31975,0.0,0.0
54,13.25,45.7535,47.1183,138.691,103.826,106.591,0.000322986,0.0462997,20.9935,612.523,-0.237702,0.0,0.0
57,14,45.441,47.4971,135.031,103.813,106.561,0.000350509,0.0461351,20.9933,612.533,-0.236317,0.0,0.0
60,14.75,45.9533,47.3388,132.193,103.822,106.255,0.00038886,0.0460275,20.9931,612.533,-0.209564,0.0,0.0
63,15.5,45.6324,47.4002,134.526,103.828,106.332,0.000427671,0.0459879,20.9929,612.553,-0.215552,0.0,0.0
66,16.25,45.487,47.5982,132.839,103.816,106.35,0.000474522,0.0460812,20.9971,612.533,-0.218128,0.0,0.0
69,17,45.6947,47.6817,131.814,103.813,106.53,0.000592492,0.0462753,20.9993,612.513,-0.233701,0.0,0.0
72,17.75,45.9653,47.819,134.5,103.815,105.36,0.000914217,0.0464995,20.9971,612.493,-0.133626,0.0,0.0
75,18.5,46.2176,47.4429,132.37,103.843,106.527,0.00123401,0.0517953,20.9895,612.483,-0.230813,0.0,0.0
78,19.25,46.0734,47.5707,128.359,103.821,103.271,0.00224371,0.0627348,20.9656,612.283,0.048038,0.0,1.0
81,20,45.8406,47.8945,129.953,103.81,99.0295,0.00382283,0.0790729,20.9404,612.353,0.426417,0.0,1.0
84,20.75,46.3999,47.8132,134.196,103.812,95.0491,0.00533342,0.113993,20.8883,612.463,0.797686,0.0,1.0
87,21.5,46.8378,47.7807,119.742,103.822,86.1763,0.00813431,0.171253,20.831,612.143,1.68505,0.0,1.0
90,22.25,46.9193,48.1754,115.959,103.819,74.8847,0.0116658,0.226552,20.7561,612.143,2.95518,0.0,1.0
93,23,47.5107,48.5694,110.555,103.813,69.861,0.0155485,0.34617,20.5973,611.843,3.58277,0.0,1.0
96,23.75,48.5719,48.8267,107.743,103.819,64.2858,0.0203614,0.473366,20.4036,611.592,4.33555,0.0,1.0
99,24.5,48.5759,48.1606,93.9917,103.822,54.8009,0.0247855,0.634482,20.2138,611.272,5.77982,0.0,0.0
102,25.25,50.0331,49.5201,101.45,103.819,56.3724,0.0284009,0.815515,20.049,610.992,5.52375,0.0,0.0
105,26,53.269,50.4412,90.0998,103.818,57.3892,0.0314702,0.99185,19.9289,610.682,5.36202,0.0,0.0
108,26.75,55.8018,52.5917,105.609,103.817,60.0021,0.0332823,1.12775,19.8414,610.511,4.9592,0.0,0.0
111,27.5,58.7658,55.4323,103.489,103.816,66.2397,0.0346033,1.19504,19.7775,610.291,4.06447,0.0,0.0
114,28.25,62.4969,57.4844,114.877,103.831,67.1507,0.0339125,1.2072,19.7734,610.121,3.94223,0.0,0.0
117,29,63.4731,59.257,115.121,103.824,73.936,0.0322354,1.17862,19.7886,610.051,3.07092,0.0,0.0
120,29.75,65.5614,61.4182,121.511,103.817,77.7347,0.0305125,1.12064,19.857,609.931,2.61709,0.0,0.0
123,30.5,66.1665,62.9592,120.583,103.83,79.8488,0.0276291,1.02495,19.9366,609.761,2.37548,0.0,0.0
126,31.25,66.1177,63.3706,123.08,103.832,83.9713,0.0247185,0.940487,20.024,609.731,1.92035,0.0,0.0
129,32,66.1708,63.8129,122.008,103.831,85.2974,0.0229891,0.853749,20.0885,609.731,1.77851,0.0,0.0
132,32.75,65.8248,64.0412,125.077,103.832,87.6984,0.0200798,0.769909,20.1862,609.651,1.52756,0.0,0.0
135,33.5,66.5663,64.8482,124.43,103.838,90.7151,0.0177033,0.700005,20.2673,609.591,1.22211,0.0,0.0
138,34.25,65.9561,64.4275,125.853,103.846,94.703,0.0155337,0.629407,20.3483,609.661,0.833663,0.0,0.0
141,35,66.3224,64.7366,126.628,103.843,96.5046,0.0135503,0.587167,20.4141,609.581,0.662944,0.0,0.0
144,35.75,66.0741,64.9006,126.859,103.846,99.8255,0.0118413,0.530464,20.4734,609.521,0.357203,0.0,0.0
147,36.5,65.3958,64.6373,128.161,103.854,101.511,0.0104385,0.475971,20.5322,609.401,0.20644,0.0,0.0
150,37.25,65.7449,65.3606,124.955,103.863,101.393,0.00921281,0.431989,20.5752,609.37,0.217688,0.0,0.0
153,38,65.6382,64.7708,127.374,103.867,102.858,0.00831926,0.392647,20.6143,609.421,0.0883099,0.0,0.0
156,38.75,65.5035,65.1162,129.851,103.872,104.323,0.00753345,0.357382,20.6496,609.411,-0.039163,0.0,0.0
159,39.5,65.3713,65.3286,129.571,103.872,105.452,0.00688434,0.326619,20.681,609.38,-0.136567,0.0,0.0
162,40.25,65.0632,64.3827,129.067,103.892,104.282,0.00637873,0.300352,20.7082,609.38,-0.0339153,0.0,0.0
165,41,64.3708,64.8171,125.742,103.89,105.564,0.00602876,0.278668,20.7323,609.32,-0.144571,0.0,0.0
168,41.75,64.3036,64.4333,131.043,103.898,106.604,0.00578157,0.258527,20.7538,609.29,-0.232588,0.0,0.0
171,42.5,64.3247,64.4396,131.522,103.899,105.533,0.00566227,0.239644,20.7717,609.21,-0.141123,0.0,0.0
174,43.25,64.0399,64.6838,133.348,103.91,106.665,0.00562746,0.225879,20.7887,609.21,-0.2367,0.0,0.0
177,44,64.071,64.7635,133.577,103.92,106.56,0.00564689,0.211001,20.8061,609.21,-0.226846,0.0,0.0
180,44.75,63.5133,64.3798,127.702,103.914,106.683,0.00574283,0.199029,20.8206,609.21,-0.237946,0.0,0.0
183,45.5,63.2738,64.1213,132.455,103.931,107.902,0.00585645,0.188376,20.8328,609.21,-0.339161,0.0,0.0
186,46.25,63.2409,63.9263,130.305,103.931,108.026,0.00597631,0.179216,20.8432,609.19,-0.349543,0.0,0.0
189,47,62.5628,64.1843,131.681,103.962,107.829,0.00609517,0.171402,20.8527,609.14,-0.330345,0.0,0.0
192,47.75,62.4795,63.7828,131.522,103.941,107.396,0.00622105,0.164777,20.8605,609.14,-0.295851,0.0,0.0
195,48.5,62.5248,63.9503,128.915,103.942,106.934,0.00631282,0.158806,20.8666,609.14,-0.256663,0.0,0.0
198,49.25,62.1311,63.6248,131.067,103.939,107.486,0.00643148,0.153416,20.8714,609.12,-0.303603,0.0,0.0
201,50,61.7236,63.3798,128.5,103.961,107.259,0.00653248,0.148805,20.8752,609.06,-0.282504,0.0,0.0
204,50.75,61.5007,63.1365,128.965,103.95,106.922,0.00663091,0.145152,20.8791,609.06,-0.255019,0.0,0.0
207,51.5,61.3546,63.0995,132.487,103.961,107.575,0.00672393,0.141213,20.8822,609.06,-0.309138,0.0,0.0
210,52.25,61.1521,62.8839,132.464,103.961,108.333,0.00680937,0.137835,20.8845,609.05,-0.372633,0.0,0.0
213,53,61.0791,62.8951,129.125,103.986,107.509,0.00688634,0.134506,20.8886,609.07,-0.301405,0.0,0.0
216,53.75,60.6258,63.041,134.476,103.985,108.015,0.00698002,0.131508,20.893,609.05,-0.343898,0.0,0.0
219,54.5,60.634,62.508,131.909,103.985,107.622,0.00708975,0.128345,20.8972,609.02,-0.310958,0.0,0.0
222,55.25,60.3611,62.4581,130.791,103.994,108.504,0.0071874,0.125075,20.901,609.07,-0.383952,0.0,0.0
225,56,60.0791,62.3002,134.583,104.018,107.839,0.00733657,0.122142,20.9041,609.07,-0.326317,0.0,0.0
228,56.75,59.7148,62.2167,130.712,104.002,107.939,0.00747855,0.119771,20.9067,609.01,-0.33607,0.0,0.0
231,57.5,59.8092,62.2313,133.428,104.008,108.708,0.0076719,0.117521,20.909,609.03,-0.399805,0.0,0.0
234,58.25,59.4589,62.2387,128.528,104.016,107.187,0.00787944,0.115404,20.9113,609.02,-0.271637,0.0,0.0
237,59,59.3285,61.927,131.482,104.024,107.587,0.00806989,0.113657,20.9137,608.99,-0.304642,0.0,0.0
240,59.75,59.0731,61.8124,129.125,104.035,108.528,0.00824338,0.111852,20.9162,608.99,-0.382443,0.0,0.0
243,60.5,58.8689,61.856,131.277,104.031,107.537,0.00840058,0.110102,20.918,608.95,-0.29986,0.0,0.0
246,61.25,58.8769,61.7092,131.694,104.043,108.766,0.00851518,0.108474,20.9199,608.95,-0.401598,0.0,0.0
249,62,58.9208,61.5332,130.502,104.057,107.917,0.00865572,0.106808,20.9217,608.93,-0.329419,0.0,0.0
252,62.75,58.9459,61.3181,134.861,104.054,108.779,0.00878247,0.105231,20.9237,608.94,-0.401727,0.0,0.0
255,63.5,58.6163,61.2279,132.099,104.053,107.872,0.00889261,0.103926,20.9249,608.91,-0.325999,0.0,0.0
258,64.25,58.2389,61.2641,132.629,104.076,108.133,0.00898247,0.102374,20.9258,608.9,-0.345899,0.0,0.0
261,65,58.0965,61.1265,131.398,104.074,107.002,0.00905139,0.100987,20.927,608.9,-0.250945,0.0,0.0
264,65.75,57.9654,60.9602,134.389,104.084,108.152,0.00911068,0.0994315,20.9284,608.87,-0.346796,0.0,0.0
267,66.5,57.4721,60.5681,133.635,104.078,108.058,0.0091615,0.0980663,20.9302,608.83,-0.339443,0.0,0.0
270,67.25,57.6586,60.8016,133.563,104.082,108.036,0.00921828,0.0964557,20.9328,608.85,-0.337202,0.0,0.0
273,68,57.4888,60.6499,134.277,104.105,108.223,0.00927271,0.0948924,20.9346,608.85,-0.350882,0.0,0.0
276,68.75,56.7175,60.8859,134.665,104.109,108.084,0.00932266,0.0934259,20.9366,608.84,-0.338905,0.0,0.0
279,69.5,57.0187,60.5102,131.395,104.099,108.062,0.00935106,0.0920818,20.938,608.75,-0.337955,0.0,0.0
282,70.25,56.9097,60.4265,130.38,104.105,107.922,0.00935807,0.0909436,20.9391,608.79,-0.325734,0.0,0.0
285,71,56.6945,60.1054,126.642,104.118,107.686,0.00933149,0.0900166,20.9398,608.87,-0.304821,0.0,0.0
288,71.75,56.7189,60.1106,136.927,104.136,107.596,0.0092986,0.0891972,20.9404,608.81,-0.295686,0.0,0.0
291,72.5,56.683,59.8577,131.682,104.132,107.398,0.00923487,0.0884251,20.9412,608.78,-0.279363,0.0,0.0
294,73.25,56.3116,59.9378,132.035,104.138,108.92,0.00917956,0.0876213,20.9425,608.75,-0.406033,0.0,0.0
297,74,56.2686,59.5122,129.037,104.141,107.949,0.00914545,0.0866236,20.9442,608.75,-0.324804,0.0,0.0
300,74.75,55.9525,59.4419,136.61,104.159,107.389,0.00913768,0.085205,20.9461,608.74,-0.276228,0.0,0.0
303,75.5,55.3058,59.2416,130.483,104.152,107.799,0.00918262,0.0839596,20.9476,608.71,-0.31135,0.0,0.0
306,76.25,55.7142,59.3313,138.186,104.155,107.466,0.00921538,0.0826906,20.9492,608.69,-0.28303,0.0,0.0
309,77,55.5412,59.0272,135.369,104.164,107.602,0.00930259,0.0814105,20.9503,608.7,-0.293736,0.0,0.0
312,77.75,55.3856,59.2637,128.086,104.177,107.696,0.00938139,0.0803465,20.9514,608.65,-0.300544,0.0,0.0
315,78.5,55.3798,59.456,131.69,104.166,107.732,0.00943933,0.079347,20.9526,608.65,-0.304508,0.0,0.0
318,79.25,55.6062,58.8868,127.761,104.18,108.148,0.00947127,0.0782441,20.9534,608.63,-0.338114,0.0,0.0
321,80,55.0899,59.0458,132.633,104.196,107.485,0.00943124,0.0773602,20.9545,608.62,-0.281114,0.0,0.0
324,80.75,54.9929,58.7406,129.717,104.205,107.315,0.00934377,0.0765792,20.9554,608.58,-0.265949,0.0,0.0
327,81.5,54.7643,58.7964,132.553,104.215,108.28,0.00925516,0.0758718,20.9567,608.59,-0.346089,0.0,0.0
330,82.25,54.7943,58.4478,133.149,104.204,107.973,0.00910216,0.0751812,20.9579,608.63,-0.3214,0.0,0.0
333,83,54.807,58.4914,131.138,104.228,107.412,0.00899062,0.0744791,20.9592,608.53,-0.27217,0.0,0.0
336,83.75,54.6755,58.4907,138.033,104.22,108.385,0.00882472,0.0737314,20.9601,608.54,-0.354474,0.0,0.0
339,84.5,54.602,57.5268,133.178,104.232,107.533,0.00866771,0.0731282,20.9608,608.54,-0.282071,0.0,0.0
342,85.25,54.6145,58.0424,132.184,104.22,107.788,0.00845626,0.0725892,20.9611,608.6,-0.304502,0.0,0.0
345,86,54.4159,57.8028,128.914,104.218,109.21,0.00823032,0.0720723,20.9609,608.58,-0.423163,0.0,0.0
348,86.75,54.3047,57.9448,131.095,104.233,107.59,0.00801358,0.0716426,20.9614,608.53,-0.286776,0.0,0.0
351,87.5,54.3292,57.7962,132.333,104.242,108.423,0.00778931,0.0712424,20.9618,608.51,-0.355714,0.0,0.0
354,88.25,53.6091,57.1012,131.756,104.252,107.82,0.00758946,0.0708019,20.9621,608.52,-0.304413,0.0,0.0
357,89,53.9935,57.5738,132.247,104.235,107.969,0.00742826,0.070343,20.9629,608.52,-0.318375,0.0,0.0
360,89.75,53.9471,57.628,131.336,104.257,107.93,0.00724285,0.0699353,20.9635,608.53,-0.31315,0.0,0.0
363,90.5,53.7703,57.6678,133.561,104.26,108.887,0.00710769,0.0696133,20.9639,608.47,-0.392834,0.0,0.0
366,91.25,54.0296,57.8131,130.112,104.244,107.038,0.00688608,0.0693982,20.9647,608.45,-0.239265,0.0,0.0
369,92,53.687,57.5462,129.512,104.268,107.891,0.00666338,0.0692139,20.9654,608.45,-0.308993,0.0,0.0
372,92.75,53.3104,57.3494,132.453,104.266,108.095,0.00647495,0.0690678,20.966,608.42,-0.326228,0.0,0.0
375,93.5,53.8491,57.2521,133.755,104.297,108.322,0.00625228,0.0689023,20.9663,608.41,-0.342588,0.0,0.0
378,94.25,53.4212,57.2887,132.027,104.283,107.794,0.00604142,0.0687528,20.9666,608.44,-0.299511,0.0,0.0
381,95,53.5252,57.1317,133.902,104.286,107.331,0.00584543,0.0685942,20.9668,608.47,-0.260355,0.0,0.0
384,95.75,53.8034,57.3108,131.401,104.307,107.921,0.00566564,0.0683822,20.967,608.47,-0.308122,0.0,0.0
387,96.5,53.0401,57.0222,129.978,104.295,108.215,0.00548852,0.0681866,20.9671,608.37,-0.33371,0.0,0.0
390,97.25,53.3645,56.9684,133.379,104.308,107.271,0.00535941,0.0680441,20.9672,608.38,-0.253348,0.0,0.0
393,98,53.1648,57.0742,134.109,104.295,107.469,0.0052122,0.0680186,20.9672,608.35,-0.271161,0.0,0.0
396,98.75,53.2413,57.0131,129.686,104.309,108.176,0.00506246,0.0680689,20.9673,608.38,-0.329229,0.0,0.0
399,99.5,53.0107,56.82,132.86,104.317,107.867,0.00491739,0.0681349,20.9671,608.32,-0.302675,0.0,0.0
402,100.25,53.1674,56.3929,131.399,104.332,107.969,0.00477548,0.0683794,20.9665,608.36,-0.309905,0.0,0.0
405,101,53.356,56.7572,129.252,104.308,108.329,0.00463641,0.0686301,20.9662,608.35,-0.34218,0.0,0.0
408,101.75,52.7814,56.4639,133.287,104.316,108.139,0.00448038,0.0689368,20.9659,608.36,-0.325565,0.0,0.0
411,102.5,52.8969,56.8914,133.754,104.327,107.967,0.00434779,0.0692586,20.9657,608.32,-0.310222,0.0,0.0
414,103.25,52.9738,56.6929,130.046,104.331,108.731,0.00421891,0.0695758,20.9655,608.33,-0.373629,0.0,0.0
417,104,53.0101,56.4508,133.697,104.328,107.554,0.00411457,0.069925,20.9654,608.32,-0.275512,0.0,0.0
420,104.75,53.0332,56.4649,133.207,104.323,107.627,0.00402074,0.0703382,20.9653,608.32,-0.282021,0.0,0.0
423,105.5,53.0718,56.502,135.201,104.349,108.924,0.00395234,0.0708502,20.9648,608.32,-0.388081,0.0,0.0
426,106.25,53.6118,56.2132,132.615,104.345,108.498,0.00390864,0.0714413,20.9643,608.29,-0.353062,0.0,0.0
429,107,52.9197,56.3399,130.489,104.355,107.66,0.00387941,0.0722446,20.9636,608.24,-0.281979,0.0,0.0
432,107.75,52.9373,56.2538,133.681,104.343,108.747,0.0038646,0.0730264,20.9628,608.229,-0.373921,0.0,0.0
435,108.5,53.2103,56.1559,128.799,104.344,107.743,0.0038649,0.0739319,20.9624,608.27,-0.289895,0.0,0.0
438,109.25,53.3388,56.2176,130.228,104.353,108.034,0.00386513,0.0749466,20.9622,608.229,-0.313531,0.0,0.0
441,110,53.0145,55.9843,132.466,104.346,109.148,0.00386159,0.0756863,20.962,608.199,-0.406923,0.0,0.0
444,110.75,52.8253,56.3125,131.697,104.354,107.343,0.00385743,0.0764228,20.9618,608.189,-0.255476,0.0,0.0
447,111.5,52.9431,56.205,132.635,104.354,107.223,0.0038368,0.0769596,20.9613,608.209,-0.24531,0.0,0.0
450,112.25,52.8422,55.8124,129.909,104.359,108.203,0.00380573,0.0773728,20.9607,608.219,-0.32724,0.0,0.0
453,113,52.4953,56.1655,133.71,104.364,108.269,0.00377625,0.0777113,20.9603,608.179,-0.332291,0.0,0.0
456,113.75,52.3624,56.3027,131.168,104.364,109.303,0.00373542,0.0779996,20.96,608.179,-0.418229,0.0,0.0
459,114.5,53.1569,55.8748,132.481,104.382,108.881,0.00370306,0.0782274,20.9597,608.179,-0.381701,0.0,0.0
462,115.25,52.7772,56.3638,131.314,104.383,108.292,0.00367503,0.0784921,20.9596,608.159,-0.33251,0.0,0.0
465,116,53.2333,56.5315,133.779,104.385,108.111,0.00363702,0.0787957,20.9595,608.139,-0.317219,0.0,0.0
468,116.75,52.6243,55.5893,132.969,104.384,107.629,0.00360218,0.0790642,20.9594,608.169,-0.276944,0.0,0.0
471,117.5,52.9734,55.5361,132.81,104.385,108.044,0.0035646,0.0794967,20.9593,608.119,-0.311682,0.0,0.0
474,118.25,52.5421,56.0568,131.479,104.393,107.668,0.00352488,0.079863,20.9593,608.069,-0.279421,0.0,0.0
477,119,52.5539,55.9962,129.397,104.407,108.788,0.00349068,0.0802173,20.9592,608.089,-0.371837,0.0,0.0
480,119.75,52.7607,55.8291,133.242,104.402,108.133,0.00346926,0.0803176,20.9592,608.139,-0.317585,0.0,0.0
483,120.5,52.9876,55.614,130.467,104.417,108.047,0.00346349,0.0803033,20.9592,608.099,-0.309169,0.0,0.0
486,121.25,53.2661,55.8431,131.026,104.415,108.39,0.00346718,0.0801435,20.9592,608.109,-0.337893,0.0,0.0
489,122,52.9372,56.2481,137.931,104.438,108.624,0.00347145,0.0799026,20.9592,608.109,-0.355447,0.0,0.0
492,122.75,52.5767,55.5329,133.678,104.401,108.85,0.00344822,0.0796375,20.9596,608.079,-0.377496,0.0,0.0
495,123.5,52.4455,55.7647,134.706,104.417,108.656,0.00341886,0.0794584,20.9599,608.059,-0.359989,0.0,0.0
498,124.25,52.3207,55.8757,130.052,104.411,108.043,0.00336249,0.0791366,20.9604,608.029,-0.309333,0.0,0.0
501,125,52.3696,55.4403,132.364,104.413,108.92,0.0033214,0.0789715,20.9606,608.029,-0.38228,0.0,0.0
504,125.75,52.5434,55.6431,130.714,104.401,108.627,0.00323184,0.078908,20.9609,607.989,-0.358865,0.0,0.0
507,126.5,52.7976,55.7116,132.375,104.399,108.746,0.00315796,0.0789366,20.9608,607.989,-0.369047,0.0,0.0
510,127.25,52.6888,55.9704,127.296,104.405,108.025,0.00309913,0.0789697,20.9603,607.999,-0.308325,0.0,0.0
513,128,53.1837,55.8246,130.726,104.396,108.518,0.00305404,0.0790332,20.96,607.989,-0.350224,0.0,0.0
516,128.75,52.6687,55.6586,138.37,104.403,109.353,0.00303343,0.0790795,20.9598,607.939,-0.419021,0.0,0.0
519,129.5,52.4238,55.9743,133.511,104.387,108.065,0.00303069,0.0791133,20.9596,607.949,-0.313214,0.0,0.0
522,130.25,52.8065,55.8553,132.42,104.386,108.968,0.00303393,0.0789444,20.9595,607.929,-0.388566,0.0,0.0
525,131,53.0734,55.7928,132.224,104.384,108.589,0.00305473,0.0786834,20.9597,607.959,-0.357263,0.0,0.0
528,131.75,53.0824,55.8363,131.891,104.366,107.935,0.00307776,0.0784914,20.9602,607.949,-0.304125,0.0,0.0
531,132.5,52.9628,55.8428,131.436,104.384,109.669,0.00310069,0.0783888,20.9607,607.929,-0.446791,0.0,0.0
534,133.25,51.9972,55.5471,129.87,104.358,109.754,0.00311808,0.078314,20.961,607.919,-0.456013,0.0,0.0
537,134,52.3869,55.3866,133.489,104.365,108.768,0.00312744,0.0783186,20.9612,607.919,-0.373795,0.0,0.0
540,134.75,52.1261,56.0238,130.071,104.354,108.657,0.00312566,0.0782805,20.9614,607.929,-0.365488,0.0,0.0
543,135.5,52.4678,55.7972,130.013,104.339,109.273,0.00311617,0.078235,20.9615,607.929,-0.417884,0.0,0.0
546,136.25,52.8133,55.7242,130.962,104.321,108.648,0.0031015,0.0781033,20.9616,607.979,-0.367647,0.0,0.0
549,137,52.4304,55.6711,132.976,104.323,108.873,0.00308049,0.0779382,20.9616,607.989,-0.386134,0.0,0.0
552,137.75,53.0711,55.5046,127.548,104.322,108.745,0.00304975,0.0777884,20.9619,607.949,-0.375561,0.0,0.0
555,138.5,52.7095,55.3866,135.695,104.311,108.933,0.00301629,0.0776398,20.9625,607.929,-0.39215,0.0,0.0
558,139.25,52.8377,55.3693,128.22,104.302,109.633,0.00298207,0.077466,20.9629,607.899,-0.450863,0.0,0.0
561,140,53.0353,55.248,129.405,104.299,108.723,0.00295359,0.0772987,20.9632,607.859,-0.375791,0.0,0.0
564,140.75,52.8773,55.5985,135.93,104.3,108.428,0.00293393,0.0768887,20.9635,607.859,-0.351117,0.0,0.0
567,141.5,52.8546,55.3981,132.231,104.275,108.499,0.0029301,0.0764518,20.9641,607.829,-0.359185,0.0,0.0
570,142.25,52.2842,55.9165,137.49,104.261,108.274,0.0029396,0.0758973,20.9649,607.849,-0.341622,0.0,0.0
573,143,52.5788,55.4577,133.835,104.263,108.17,0.00295887,0.0751758,20.966,607.869,-0.332794,0.0,0.0
576,143.75,52.6955,55.8304,135.288,104.257,108.915,0.00298508,0.0744202,20.9673,607.729,-0.395336,0.0,0.0
579,144.5,52.4751,55.4003,132.262,104.217,107.69,0.00301996,0.073708,20.9683,607.819,-0.29651,0.0,0.0
582,145.25,52.4529,55.0446,135.73,104.208,108.587,0.00304539,0.0729923,20.969,607.759,-0.372315,0.0,0.0
585,146,52.5228,55.0299,129.639,104.203,107.734,0.00308498,0.0723465,20.9696,607.769,-0.301437,0.0,0.0
588,146.75,52.2927,55.928,135.146,104.202,107.709,0.00311319,0.071754,20.97,607.769,-0.299473,0.0,0.0
591,147.5,52.204,55.2557,132.019,104.177,108.124,0.00313264,0.0712927,20.9702,607.789,-0.336459,0.0,0.0
594,148.25,52.4596,55.2801,132.709,104.169,107.71,0.00314332,0.0711529,20.97,607.819,-0.302338,0.0,0.0
597,149,52.4268,55.447,132.974,104.154,107.823,0.00315479,0.071051,20.9697,607.799,-0.313159,0.0,0.0
600,149.75,52.5552,55.2984,134.288,104.179,107.437,0.00316797,0.0711283,20.9694,607.809,-0.278541,0.0,0.0
603,150.5,52.0662,55.6476,133.546,104.141,107.665,0.0031831,0.0712638,20.9692,607.799,-0.301004,0.0,0.0
606,151.25,52.059,55.0755,129.567,104.132,108.738,0.00320115,0.0713366,20.9691,607.809,-0.391522,0.0,0.0
609,152,52.0661,54.7936,133.307,104.127,108.694,0.00321431,0.0713028,20.969,607.809,-0.388281,0.0,0.0
612,152.75,52.2751,54.9606,131.528,104.13,107.154,0.0032204,0.0709441,20.9689,607.769,-0.258928,0.0,0.0
615,153.5,51.6823,55.4571,130.766,104.117,107.854,0.00322484,0.0705587,20.9695,607.729,-0.319044,0.0,0.0
618,154.25,52.2796,55.0747,133.67,104.104,107.699,0.00321579,0.0702249,20.97,607.699,-0.307092,0.0,0.0
621,155,52.2017,54.5508,133.963,104.079,107.464,0.00320182,0.0699422,20.9707,607.719,-0.289519,0.0,0.0
624,155.75,51.8767,54.8047,131.538,104.087,107.405,0.00318849,0.0697362,20.9716,607.759,-0.283877,0.0,0.0
627,156.5,51.8929,54.944,130.368,104.088,107.716,0.00317702,0.0696411,20.9722,607.739,-0.309971,0.0,0.0
630,157.25,52.4487,54.3422,131.019,104.062,108.712,0.00316742,0.0695445,20.9727,607.679,-0.395414,0.0,0.0
633,158,52.1614,54.4096,129.365,104.056,108.237,0.00315602,0.0693873,20.973,607.689,-0.356385,0.0,0.0
636,158.75,51.5437,54.76,132.971,104.054,108.151,0.00314108,0.0692727,20.9733,607.679,-0.349253,0.0,0.0
639,159.5,52.0876,53.9311,131.931,104.05,108.338,0.00312436,0.0691747,20.9735,607.669,-0.365306,0.0,0.0
642,160.25,51.623,54.8184,132.071,104.025,108.422,0.00310222,0.0690785,20.9736,607.649,-0.374508,0.0,0.0
645,161,51.964,54.6399,130.819,104.035,108.307,0.00308607,0.0688431,20.9737,607.689,-0.36406,0.0,0.0
648,161.75,51.6998,54.5911,133.859,104.029,107.446,0.00308013,0.0686012,20.974,607.599,-0.292328,0.0,0.0
651,162.5,51.3741,54.3312,134.301,104.035,108.178,0.00309157,0.0681696,20.9746,607.599,-0.353278,0.0,0.0
654,163.25,51.66,54.3274,133.897,104.011,107.728,0.00310987,0.0678405,20.9751,607.639,-0.317597,0.0,0.0
657,164,51.7022,54.3683,133.064,104.016,108.234,0.00312847,0.0675759,20.9754,607.629,-0.359531,0.0,0.0
660,164.75,51.5721,54.56,132.159,104.009,107.956,0.00314074,0.0673633,20.9756,607.559,-0.336963,0.0,0.0
663,165.5,51.8923,54.6171,131.451,104.02,109.248,0.00314747,0.0671258,20.9758,607.569,-0.443583,0.0,0.0
666,166.25,51.9124,54.2786,136.232,103.994,108.849,0.00315114,0.0668814,20.9759,607.519,-0.412715,0.0,0.0
669,167,51.8336,54.0157,131.653,103.982,108.938,0.0031533,0.0666412,20.976,607.529,-0.42121,0.0,0.0
672,167.75,51.3948,54.3208,133.804,103.981,107.836,0.00315838,0.0664073,20.9761,607.489,-0.329239,0.0,0.0
675,168.5,51.3589,54.6812,129.695,103.982,110.096,0.00317315,0.0662006,20.9761,607.459,-0.516846,0.0,0.0
678,169.25,51.6528,54.3425,131.162,103.97,107.686,0.00318863,0.0659881,20.9762,607.469,-0.317645,0.0,0.0
681,170,51.8764,54.5167,129.874,103.955,107.813,0.00321923,0.0658331,20.9766,607.459,-0.329641,0.0,0.0
684,170.75,51.6557,53.9732,133.509,103.95,108.882,0.00324645,0.0657202,20.9769,607.499,-0.419363,0.0,0.0
687,171.5,51.1958,54.247,129.804,103.951,108.508,0.00326774,0.0655986,20.9767,607.489,-0.388089,0.0,0.0
690,172.25,51.541,54.3392,132.974,103.946,108.26,0.00328216,0.0654825,20.9772,607.489,-0.367851,0.0,0.0
693,173,51.3834,54.6254,132.229,103.933,108.592,0.00329526,0.0653789,20.9776,607.499,-0.396656,0.0,0.0
696,173.75,51.8444,54.1527,133.542,103.923,108.53,0.00330924,0.065291,20.9779,607.509,-0.392343,0.0,0.0
699,174.5,51.5609,54.2346,131.959,103.932,109.051,0.00331943,0.065117,20.978,607.539,-0.434905,0.0,0.0
702,175.25,51.8876,54.1987,132.995,103.936,107.642,0.00332563,0.0648709,20.9782,607.469,-0.316907,0.0,0.0
705,176,51.6311,54.0985,129.834,103.917,109.507,0.00332963,0.0645678,20.9783,607.489,-0.473972,0.0,0.0
708,176.75,51.8459,54.2239,134.432,103.918,108.307,0.00333124,0.0642233,20.9784,607.469,-0.374171,0.0,0.0
711,177.5,51.6207,54.0421,134.76,103.928,108.488,0.00333021,0.0639194,20.978,607.469,-0.388442,0.0,0.0
714,178.25,51.687,54.3782,131.311,103.936,107.533,0.00332453,0.0635411,20.9777,607.489,-0.307819,0.0,0.0
717,179,51.613,54.1028,133.258,103.931,108.245,0.00331635,0.0632654,20.9775,607.469,-0.367892,0.0,0.0
720,179.75,51.8441,54.1376,129.19,103.93,109.846,0.00330707,0.0630839,20.9773,607.439,-0.500797,0.0,0.0
723,180.5,51.7346,54.4749,132.729,103.947,109.289,0.00329771,0.0629105,20.9772,607.429,-0.453337,0.0,0.0
726,181.25,51.9061,54.2558,130.127,103.952,108.018,0.00328646,0.0627664,20.9771,607.369,-0.347078,0.0,0.0
729,182,51.8067,53.9327,130.94,103.959,108.807,0.00327299,0.0626223,20.9771,607.389,-0.412321,0.0,0.0
732,182.75,52.1555,54.5167,133.243,103.952,108.384,0.0032644,0.0624955,20.977,607.329,-0.377683,0.0,0.0
735,183.5,51.8863,54.0523,129.246,103.952,108.392,0.00326126,0.062366,20.977,607.339,-0.378381,0.0,0.0
738,184.25,52.1513,54.2709,130.456,103.974,107.267,0.00326339,0.0622579,20.977,607.379,-0.282071,0.0,0.0
741,185,51.5449,54.1075,132.868,103.963,108.531,0.00326846,0.0621877,20.9774,607.389,-0.388924,0.0,0.0
744,185.75,51.4799,54.4995,131.751,103.969,108.118,0.00326723,0.0621612,20.9779,607.319,-0.353874,0.0,0.0
747,186.5,51.8138,54.1297,131.175,103.969,107.886,0.00326424,0.062087,20.9782,607.339,-0.334521,0.0,0.0
750,187.25,51.8985,54.6607,130.349,103.991,108.607,0.00325591,0.0620095,20.9785,607.309,-0.392825,0.0,0.0
753,188,51.3195,54.1749,131.193,103.983,108.989,0.00324721,0.0619529,20.9787,607.389,-0.425314,0.0,0.0
756,188.75,51.7113,54.4991,131.124,103.988,108.417,0.0032322,0.0618138,20.9788,607.469,-0.377317,0.0,0.0
759,189.5,51.9995,54.2083,128.822,103.989,108.692,0.00321498,0.0616691,20.9789,607.379,-0.400103,0.0,0.0
762,190.25,52.1133,54.2939,131.093,104.017,109.579,0.003198,0.0614895,20.9792,607.309,-0.471143,0.0,0.0
765,191,51.66,54.0459,136.046,104.015,108.823,0.00319088,0.0613319,20.9795,607.329,-0.40871,0.0,0.0
768,191.75,51.8006,54.2886,130.412,104.016,108.182,0.00319552,0.0612057,20.9796,607.339,-0.355209,0.0,0.0
771,192.5,51.8548,54.6556,135.128,104.035,108.541,0.00320505,0.0611333,20.9797,607.309,-0.383529,0.0,0.0
774,193.25,51.518,53.9327,132.652,104.051,107.759,0.00321531,0.0610805,20.9798,607.299,-0.316689,0.0,0.0
777,194,51.559,54.1452,135.251,104.076,108.858,0.00321179,0.0610131,20.9799,607.279,-0.406285,0.0,0.0
780,194.75,51.4886,54.1255,134.506,104.062,108.676,0.00317424,0.0609146,20.9799,607.289,-0.39239,0.0,0.0
783,195.5,51.6865,54.6713,132.562,104.071,107.11,0.00311922,0.0607841,20.98,607.299,-0.260372,0.0,0.0
786,196.25,51.5672,54.2426,134.141,104.087,108.566,0.0030521,0.0606889,20.9802,607.349,-0.381105,0.0,0.0
789,197,51.2977,54.0598,136.55,104.105,108.038,0.00298841,0.0606195,20.9808,607.239,-0.335488,0.0,0.0
792,197.75,51.4009,54.0214,136.744,104.106,107.524,0.00293647,0.0606101,20.9812,607.349,-0.292188,0.0,0.0
795,198.5,51.8791,53.8788,131.773,104.124,108.061,0.00289492,0.0605992,20.9815,607.259,-0.335708,0.0,0.0
798,199.25,51.7634,54.2781,135.861,104.154,108.478,0.00286306,0.0605541,20.9818,607.289,-0.367931,0.0,0.0
801,200,51.3429,53.5898,135.411,104.168,107.531,0.00282394,0.060443,20.9816,607.309,-0.287415,0.0,0.0
804,200.75,51.1765,53.9489,130.801,104.179,107.522,0.00278866,0.0603345,20.9807,607.189,-0.28568,0.0,0.0
807,201.5,51.712,53.8632,132.103,104.192,108.39,0.00274576,0.0602438,20.9804,607.229,-0.357245,0.0,0.0
810,202.25,51.0543,54.0064,132.538,104.205,108.415,0.00270718,0.0601776,20.9805,607.199,-0.358283,0.0,0.0
813,203,51.509,54.0137,135.876,104.242,107.689,0.00267904,0.0600499,20.9806,607.109,-0.294265,0.0,0.0
816,203.75,51.1783,53.8587,134.534,104.24,107.924,0.00266467,0.0599496,20.9807,607.179,-0.314223,0.0,0.0
819,204.5,51.5674,54.0425,131.314,104.25,107.541,0.00266197,0.0598641,20.9807,607.219,-0.281196,0.0,0.0
822,205.25,51.557,53.8079,133.832,104.272,107.916,0.00266882,0.0598704,20.9808,607.169,-0.310734,0.0,0.0
825,206,50.9684,53.4683,132.025,104.299,108.975,0.00268782,0.0599042,20.9808,607.199,-0.396695,0.0,0.0
828,206.75,51.0835,53.7373,132.233,104.324,107.636,0.00270658,0.0599289,20.9808,607.128,-0.282658,0.0,0.0
831,207.5,51.1177,53.7938,133.207,104.327,108.326,0.00272235,0.059849,20.9808,607.089,-0.340297,0.0,0.0
834,208.25,51.336,53.982,131.133,104.336,109.73,0.00272334,0.0597085,20.9808,607.119,-0.455961,0.0,0.0
837,209,51.162,53.1821,136.628,104.357,107.896,0.0027189,0.0595277,20.9808,607.128,-0.301654,0.0,0.0
840,209.75,51.0854,53.6473,134.183,104.365,108.166,0.00270683,0.0593218,20.9808,607.089,-0.323577,0.0,0.0
843,210.5,51.3628,53.2312,131.458,104.365,108.187,0.00269803,0.0591169,20.9809,607.058,-0.325403,0.0,0.0
846,211.25,51.4445,53.4983,131.163,104.376,108.448,0.00270021,0.0589441,20.9809,607.058,-0.346231,0.0,0.0
849,212,51.645,53.6169,130.944,104.399,108.591,0.00271255,0.0588182,20.9809,607.099,-0.356061,0.0,0.0
852,212.75,51.1941,53.3092,133.8,104.408,108.732,0.0027337,0.0587949,20.9809,607.068,-0.367076,0.0,0.0
855,213.5,50.8891,53.3921,135.657,104.421,108.154,0.00276312,0.0588072,20.9809,607.028,-0.317767,0.0,0.0
858,214.25,50.9358,53.6405,132.06,104.439,109.07,0.00278457,0.0588357,20.9809,607.038,-0.392417,0.0,0.0
861,215,50.9301,53.5918,137.645,104.453,108.561,0.00280196,0.0588153,20.9809,606.968,-0.349003,0.0,0.0
864,215.75,51.0958,53.8432,132.995,104.475,108.709,0.00281463,0.0587613,20.9811,606.918,-0.359283,0.0,0.0
867,216.5,51.0563,53.5797,132.911,104.466,109.051,0.00282323,0.0586849,20.9814,606.988,-0.388527,0.0,0.0
870,217.25,51.096,53.2127,134.103,104.495,108.587,0.00282685,0.058551,20.9813,606.988,-0.347478,0.0,0.0
873,218,51.1509,53.3552,130.883,104.505,108.369,0.00283278,0.0584245,20.9816,606.868,-0.328349,0.0,0.0
876,218.75,51.5381,53.6363,130.891,104.53,109.824,0.00284447,0.0582829,20.982,606.928,-0.446835,0.0,0.0
879,219.5,51.1135,53.6101,132.018,104.537,107.814,0.00285613,0.0582384,20.9823,606.838,-0.279186,0.0,0.0
882,220.25,50.7375,53.5064,133.503,104.549,109.804,0.00286988,0.0582012,20.9826,606.898,-0.443576,0.0,0.0
885,221,51.5854,52.9073,130.468,104.57,109.584,0.00287991,0.0581397,20.9827,606.888,-0.423583,0.0,0.0
888,221.75,51.2178,53.732,133.265,104.604,109.005,0.0028774,0.0580167,20.9828,606.878,-0.372819,0.0,0.0
891,222.5,49.3426,52.009,132.156,104.596,108.846,0.00287138,0.0578996,20.9829,606.868,-0.360324,0.0,0.0
894,223.25,49.1676,52.0181,132.068,104.6,108.903,0.00286822,0.0578025,20.9836,606.928,-0.364679,0.0,0.0
897,224,49.4703,51.847,131.14,104.628,109.224,0.00286773,0.0577709,20.9843,606.888,-0.388846,0.0,0.0
900,224.75,49.2897,51.6443,130.825,104.64,109.065,0.00286959,0.0577478,20.9848,606.828,-0.374661,0.0,0.0
903,225.5,49.1878,51.3852,132.291,104.633,109.111,0.00285868,0.0576661,20.9856,606.838,-0.379067,0.0,0.0
906,226.25,49.1254,51.6076,135.689,104.641,108.738,0.00282497,0.0574955,20.9863,606.838,-0.347393,0.0,0.0
909,227,49.2531,51.8851,136.077,104.667,108.323,0.00277456,0.0572343,20.9869,606.858,-0.310538,0.0,0.0
912,227.75,49.4201,51.7567,131.006,104.6875,108.864,0.00271243,0.0570165,20.9873,606.858,-0.353867,0.0,0.0
915,228.5,49.1576,51.8909,132.393,104.688,109.05,0.00264386,0.0568172,20.9876,606.888,-0.369258,0.0,0.0
918,229.25,49.2721,52.1609,129.916,104.698,109.588,0.00258395,0.0566226,20.9878,606.868,-0.412858,0.0,0.0
921,230,49.0248,51.8249,132.845,104.704,109.628,0.00255076,0.0564808,20.988,606.908,-0.415651,0.0,0.0
924,230.75,49.7805,51.0581,129.342,104.728,109.232,0.00253997,0.0563773,20.9881,606.788,-0.380919,0.0,0.0
927,231.5,49.3761,51.8344,135.967,104.747,108.572,0.00253783,0.056302,20.9882,606.768,-0.324458,0.0,0.0
930,232.25,49.3581,51.6515,134.52,104.742,108.739,0.00254502,0.0562196,20.9884,606.758,-0.338816,0.0,0.0
933,233,49.6415,51.8501,130.808,104.771,109.907,0.00254535,0.0561479,20.9886,606.818,-0.432951,0.0,0.0
936,233.75,49.2856,51.5673,133.128,104.767,108.933,0.0025435,0.0561151,20.9888,606.818,-0.352693,0.0,0.0
939,234.5,49.1745,52.0915,131.475,104.793,109.044,0.00252817,0.056051,20.9889,606.808,-0.359743,0.0,0.0
942,235.25,49.4037,51.6215,126.683,104.793,109.979,0.00251699,0.0559871,20.989,606.808,-0.43688,0.0,0.0
945,236,49.6199,51.677,129.664,104.812,110.71,0.00251234,0.0558819,20.9891,606.788,-0.495184,0.0,0.0
948,236.75,49.8299,51.4354,131.641,104.807,109.483,0.00251753,0.0558052,20.9891,606.778,-0.394787,0.0,0.0
951,237.5,49.2726,52.1348,131.053,104.842,109.923,0.00252691,0.0557493,20.9892,606.788,-0.428126,0.0,0.0
954,238.25,50.1433,51.5913,133.566,104.846,108.657,0.00253705,0.0557086,20.9892,606.768,-0.322983,0.0,0.0
957,239,49.7727,51.8874,134.187,104.85,109.25,0.00255319,0.0556572,20.9892,606.778,-0.37188,0.0,0.0
960,239.75,49.7333,51.6062,134.269,104.872,109.118,0.00257721,0.0555828,20.9892,606.778,-0.358987,0.0,0.0
963,240.5,49.5073,51.8005,131.305,104.897,109.487,0.00259995,0.0555286,20.9893,606.828,-0.387402,0.0,0.0
966,241.25,49.2282,51.5962,131.457,104.897,109.526,0.00263937,0.055489,20.9893,606.768,-0.390634,0.0,0.0
969,242,49.6961,51.4741,129.931,104.898,109.771,0.0026681,0.0554602,20.9893,606.788,-0.410736,0.0,0.0
972,242.75,49.5508,51.6897,130.788,104.9,109.56,0.0026964,0.0553806,20.9895,606.748,-0.393188,0.0,0.0
975,243.5,49.7189,51.9553,133.601,104.928,108.751,0.00271824,0.0552541,20.9899,606.748,-0.323705,0.0,0.0
978,244.25,49.9382,52.4316,133.322,104.933,109.486,0.00273085,0.0551327,20.9895,606.698,-0.384192,0.0,0.0
981,245,49.4398,51.6813,131.633,104.932,109.475,0.00272079,0.055043,20.9892,606.698,-0.383342,0.0,0.0
984,245.75,49.2329,51.3783,131.762,104.949,109.223,0.00271346,0.0549776,20.989,606.708,-0.361115,0.0,0.0
987,246.5,49.7874,51.9022,131.528,104.965,109.222,0.00267313,0.0549105,20.9887,606.728,-0.359654,0.0,0.0
990,247.25,49.3575,51.7875,137.912,104.972,108.291,0.00263761,0.0548752,20.9887,606.738,-0.281521,0.0,0.0
993,248,49.7195,51.6296,131.269,104.976,109.546,0.00260974,0.0548553,20.9891,606.708,-0.385475,0.0,0.0
996,248.75,49.4954,52.1168,131.392,104.993,109.036,0.00259053,0.0548408,20.9893,606.718,-0.341774,0.0,0.0
999,249.5,49.3439,52.0146,132.744,105.001,110.016,0.00258298,0.0548014,20.9895,606.728,-0.422014,0.0,0.0
1002,250.25,49.5057,52.0721,131.649,105.013,109.67,0.00258851,0.0547234,20.9897,606.718,-0.392534,0.0,0.0
1005,251,49.9402,51.809,128.801,105.004,108.737,0.00259778,0.0546118,20.9898,606.608,-0.315909,0.0,0.0
1008,251.75,49.5273,52.1976,136.47,105.011,109.565,0.00260393,0.0545071,20.9899,606.608,-0.383955,0.0,0.0
1011,252.5,49.6674,51.6208,132.223,105.027,109.63,0.00260737,0.0544112,20.9899,606.618,-0.388029,0.0,0.0
1014,253.25,49.1998,51.758,132.522,105.034,109.643,0.00260006,0.0543276,20.9899,606.518,-0.388486,0.0,0.0
1017,254,49.237,51.7447,129.532,105.028,109.775,0.00258282,0.0542609,20.9897,606.528,-0.399862,0.0,0.0
1020,254.75,49.4326,52.0646,131.296,105.037,110.266,0.00255701,0.054133,20.9896,606.578,-0.439423,0.0,0.0
1023,255.5,48.9872,52.092,131.346,105.058,109.016,0.00251548,0.0540181,20.9895,606.548,-0.33454,0.0,0.0
1026,256.25,49.4335,51.6575,128.264,105.061,109.698,0.00248521,0.0538974,20.9894,606.578,-0.390727,0.0,0.0
1029,257,49.27,51.9839,135.975,105.059,108.839,0.00245091,0.053829,20.9893,606.528,-0.319809,0.0,0.0
1032,257.75,49.6357,51.6633,131.099,105.052,109.198,0.00243203,0.0538064,20.9893,606.548,-0.350112,0.0,0.0
1035,258.5,49.2093,51.7305,128.201,105.063,109.811,0.00242088,0.0538017,20.9893,606.548,-0.399872,0.0,0.0
1038,259.25,49.7018,51.6477,131.688,105.092,109.487,0.00242673,0.0538119,20.9893,606.538,-0.370656,0.0,0.0
1041,260,49.4622,51.9815,130.49,105.066,109.71,0.00243956,0.0538396,20.9893,606.518,-0.391213,0.0,0.0
1044,260.75,49.8249,52.1372,132.504,105.071,108.973,0.00245709,0.0538844,20.9892,606.508,-0.329856,0.0,0.0
1047,261.5,49.2949,51.8115,129.069,105.077,110.028,0.00247759,0.0539307,20.9892,606.508,-0.416456,0.0,0.0
1050,262.25,49.3764,52.2718,128.557,105.076,110.656,0.00251002,0.053956,20.9892,606.528,-0.468074,0.0,0.0
1053,263,49.3379,51.6927,129.605,105.079,109.508,0.00253366,0.0539497,20.9892,606.508,-0.37344,0.0,0.0
1056,263.75,49.3632,51.9181,133.808,105.066,109.817,0.00254837,0.0539256,20.9891,606.508,-0.400042,0.0,0.0
1059,264.5,49.1753,51.3907,129.866,105.081,109.205,0.002549,0.0539218,20.9887,606.478,-0.348178,0.0,0.0
1062,265.25,49.4413,51.91,131.507,105.081,109.447,0.00253402,0.0539248,20.9885,606.488,-0.368217,0.0,0.0
1065,266,49.4225,51.8899,129.865,105.077,110.121,0.0024864,0.0539415,20.9883,606.498,-0.424113,0.0,0.0
1068,266.75,49.8681,51.7232,133.315,105.063,108.698,0.00242477,0.0539599,20.9881,606.458,-0.307633,0.0,0.0
1071,267.5,49.4744,51.9327,133.159,105.059,109.724,0.00235934,0.0539733,20.988,606.458,-0.393022,0.0,0.0
1074,268.25,49.2954,52.1799,131.314,105.07,109.768,0.00229623,0.0539967,20.988,606.458,-0.395649,0.0,0.0
1077,269,49.7377,52.0577,132.792,105.064,109.437,0.00225022,0.0540196,20.9879,606.448,-0.368939,0.0,0.0
1080,269.75,49.5351,51.4144,131.351,105.051,109.938,0.00222017,0.0540363,20.9883,606.408,-0.411246,0.0,0.0
1083,270.5,49.8484,51.7688,133.779,105.064,110.67,0.00220084,0.0540896,20.9888,606.418,-0.470197,0.0,0.0
1086,271.25,49.802,51.9527,134.454,105.043,110.384,0.00219115,0.0541459,20.9891,606.398,-0.448614,0.0,0.0
1089,272,49.5392,51.8682,131.787,105.046,109.591,0.00217536,0.0542007,20.9894,606.438,-0.383126,0.0,0.0
1092,272.75,49.201,51.3792,132.017,105.017,109.591,0.00215488,0.0542464,20.9896,606.428,-0.385674,0.0,0.0
1095,273.5,49.6682,52.2736,132.948,105.026,110.131,0.00212459,0.0542407,20.9897,606.458,-0.429319,0.0,0.0
1098,274.25,49.53,51.9496,133.999,105.025,109.429,0.00208785,0.0541955,20.9895,606.438,-0.371519,0.0,0.0
1101,275,49.55,51.9176,133.842,105.034,109.833,0.00204774,0.054145,20.9888,606.428,-0.404113,0.0,0.0
1104,275.75,49.4636,52.0184,128.553,105.023,109.487,0.00201876,0.0541473,20.9884,606.428,-0.376551,0.0,0.0
1107,276.5,49.5448,51.4226,134.779,105.006,109.291,0.00198039,0.0541481,20.988,606.488,-0.361829,0.0,0.0
1110,277.25,49.8723,51.8045,130.479,105.011,110.291,0.00195034,0.0541484,20.9877,606.438,-0.443706,0.0,0.0
1113,278,49.4699,51.9151,136.341,105.009,109.871,0.00194934,0.0541485,20.9875,606.428,-0.409404,0.0,0.0
1116,278.75,49.2935,51.5725,130.582,104.989,109.834,0.00196816,0.054127,20.9873,606.478,-0.408122,0.0,0.0
1119,279.5,49.8349,52.0685,134.47,104.981,108.144,0.00200052,0.0540744,20.9872,606.388,-0.268493,0.0,0.0
1122,280.25,49.6239,51.3309,132.122,104.97,110.447,0.00204172,0.0539676,20.9871,606.418,-0.460062,0.0,0.0
1125,281,49.4159,51.5299,130.617,104.969,109.173,0.0020892,0.0538606,20.9871,606.308,-0.355236,0.0,0.0
1128,281.75,49.2601,51.8331,131.682,104.963,110.043,0.00212504,0.0537826,20.987,606.318,-0.427473,0.0,0.0
1131,282.5,49.7928,51.8053,126.358,104.948,109.121,0.00215169,0.0537531,20.987,606.348,-0.352736,0.0,0.0
1134,283.25,49.6809,52.0365,131.426,104.949,109.004,0.00215017,0.0537217,20.987,606.358,-0.342931,0.0,0.0
1137,284,49.5892,51.5947,131.055,104.946,108.896,0.00214907,0.0536618,20.987,606.338,-0.334215,0.0,0.0
1140,284.75,49.6526,51.1265,129.364,104.93,109.121,0.00210807,0.0535596,20.9871,606.348,-0.354228,0.0,0.0
1143,285.5,49.3721,52.025,133.888,104.911,109.796,0.00207496,0.0534167,20.9873,606.358,-0.411679,0.0,0.0
1146,286.25,49.5375,51.4585,130.461,104.919,109.511,0.00204532,0.0532833,20.9874,606.338,-0.387472,0.0,0.0
1149,287,49.149,51.7103,136.431,104.92,109.464,0.00202895,0.0531873,20.9875,606.348,-0.38355,0.0,0.0
1152,287.75,49.71,51.7288,133.468,104.904,108.369,0.00201212,0.0531173,20.988,606.328,-0.293919,0.0,0.0
1155,288.5,49.7718,51.6523,135.483,104.9,109.613,0.00198311,0.0530857,20.9886,606.288,-0.397531,0.0,0.0
1158,289.25,49.8077,51.9686,129.312,104.884,108.995,0.00195572,0.0530764,20.989,606.278,-0.347807,0.0,0.0
1161,290,50.0076,51.6236,132.842,104.883,110.108,0.00192181,0.0530683,20.9893,606.308,-0.439757,0.0,0.0
1164,290.75,49.2396,51.6778,131.237,104.89,109.24,0.00189709,0.05305,20.9895,606.318,-0.367607,0.0,0.0
1167,291.5,49.5803,51.3318,131.815,104.868,108.49,0.00189823,0.0530758,20.9896,606.328,-0.307194,0.0,0.0
1170,292.25,49.3506,51.9264,133.412,104.865,109.254,0.00189906,0.0531356,20.9898,606.318,-0.370875,0.0,0.0
1173,293,49.8439,52.0522,130.724,104.87,109.881,0.00192232,0.0531967,20.9898,606.268,-0.422231,0.0,0.0
1176,293.75,49.4255,52.2387,131.92,104.868,109.728,0.00194121,0.0531436,20.9898,606.298,-0.409829,0.0,0.0
1179,294.5,49.418,52.056,132.985,104.846,109.578,0.00195828,0.053105,20.9898,606.278,-0.399313,0.0,0.0
1182,295.25,49.3385,51.6873,130.704,104.836,108.384,0.00196375,0.0531452,20.9897,606.328,-0.301072,0.0,0.0
1185,296,49.5043,51.1357,131.238,104.839,109.779,0.00195745,0.0532037,20.9897,606.328,-0.416456,0.0,0.0
1188,296.75,49.625,51.9526,134.39,104.834,109.548,0.00193527,0.0533244,20.9897,606.308,-0.397874,0.0,0.0
1191,297.5,50.1066,51.684,132.778,104.82,109.97,0.00189993,0.0533987,20.9897,606.348,-0.433856,0.0,0.0
1194,298.25,49.7712,52.005,131.675,104.805,108.737,0.00186582,0.053447,20.9897,606.308,-0.333225,0.0,0.0
1197,299,49.6217,51.9984,136.808,104.81,108.928,0.00182667,0.0534823,20.9897,606.288,-0.348583,0.0,0.0
1200,299.75,49.4803,52.1687,132.435,104.799,108.597,0.00179813,0.0535216,20.9897,606.278,-0.32199,0.0,0.0
1203,300.5,49.3825,51.9644,132.264,104.79,109.055,0.00178465,0.0535562,20.9897,606.268,-0.360887,0.0,0.0
1206,301.25,49.3881,51.6923,129.511,104.775,108.267,0.00178437,0.0535423,20.9897,606.258,-0.296636,0.0,0.0
1209,302,49.5536,51.8398,135.625,104.761,109.389,0.00179516,0.0535185,20.9897,606.248,-0.391062,0.0,0.0
1212,302.75,49.412,51.5408,136.031,104.765,108.838,0.00182741,0.0535098,20.9897,606.268,-0.344944,0.0,0.0
1215,303.5,49.4396,51.5536,131.504,104.762,109.461,0.00186834,0.053528,20.9897,606.278,-0.396881,0.0,0.0
1218,304.25,49.3579,51.6234,135.061,104.744,108.853,0.00189819,0.0535803,20.9897,606.278,-0.348121,0.0,0.0
1221,305,49.5305,51.5702,130.646,104.737,109.471,0.00190949,0.0536048,20.9897,606.288,-0.399883,0.0,0.0
1224,305.75,49.2612,51.6471,131,104.726,108.665,0.00191001,0.0536096,20.9897,606.258,-0.333965,0.0,0.0
1227,306.5,49.7945,52.0524,137.701,104.745,109.796,0.0018972,0.0536008,20.9897,606.228,-0.425972,0.0,0.0
1230,307.25,49.5569,51.2818,130.971,104.711,109.006,0.00187566,0.053608,20.9897,606.218,-0.363654,0.0,0.0
1233,308,49.1236,51.8808,134.826,104.707,109.11,0.00185508,0.0536192,20.9897,606.198,-0.372597,0.0,0.0
1236,308.75,48.9985,51.9549,136.407,104.698,109.561,0.001838,0.0535687,20.9897,606.158,-0.410666,0.0,0.0
1239,309.5,49.7734,51.5262,137.392,104.715,109.616,0.00182554,0.0535392,20.9891,606.188,-0.413704,0.0,0.0
1242,310.25,49.1248,51.7811,132.633,104.679,108.829,0.00182168,0.0535299,20.9886,606.218,-0.351619,0.0,0.0
1245,311,49.2399,51.706,128.88,104.682,109.76,0.00181887,0.0535037,20.9883,606.158,-0.428458,0.0,0.0
1248,311.75,49.5866,51.3174,131.985,104.676,109.117,0.00182379,0.0535119,20.9885,606.148,-0.37584,0.0,0.0
1251,312.5,49.3805,52.0482,131.254,104.669,108.811,0.00182371,0.0535295,20.9886,606.168,-0.351099,0.0,0.0
1254,313.25,49.7054,51.7818,129.412,104.644,108.11,0.00181567,0.0535424,20.9883,606.168,-0.294719,0.0,0.0
1257,314,49.6924,51.8608,132.495,104.642,109.341,0.00179882,0.0535518,20.9883,606.228,-0.397317,0.0,0.0
1260,314.75,49.423,51.8132,131.008,104.652,109.241,0.00178653,0.0535587,20.9887,606.178,-0.388191,0.0,0.0
1263,315.5,49.5703,51.5356,134.743,104.639,108.74,0.00176365,0.0535832,20.9891,606.138,-0.347728,0.0,0.0
1266,316.25,49.9006,51.861,136.84,104.619,109.274,0.00176039,0.053601,20.9896,606.138,-0.393779,0.0,0.0
1269,317,49.6131,51.6051,131.911,104.617,109.023,0.00176953,0.0536141,20.9899,606.168,-0.373157,0.0,0.0
1272,317.75,49.453,51.5685,131.462,104.613,108.046,0.00178608,0.0535278,20.9901,606.178,-0.292082,0.0,0.0
1275,318.5,49.5262,52.0898,131.902,104.611,109.575,0.00179453,0.0534024,20.9902,606.168,-0.419343,0.0,0.0
1278,319.25,49.5206,51.5841,132.21,104.607,109.646,0.00178515,0.0532741,20.9904,606.148,-0.425515,0.0,0.0
1281,320,49.74,52.2705,131.345,104.592,108.746,0.00175756,0.0531395,20.9905,606.168,-0.352291,0.0,0.0
1284,320.75,49.9849,51.5935,134.675,104.613,108.692,0.00172155,0.0530311,20.9905,606.158,-0.346002,0.0,0.0
1287,321.5,49.8727,51.3923,131.391,104.603,109.916,0.00168321,0.0529843,20.9906,606.138,-0.448141,0.0,0.0
1290,322.25,49.6525,51.8374,132.245,104.587,108.834,0.00165179,0.0529447,20.9906,606.148,-0.360049,0.0,0.0
1293,323,50.1811,51.5638,132.633,104.576,108.728,0.00162888,0.0529404,20.9906,606.158,-0.352205,0.0,0.0
1296,323.75,49.4644,51.9318,132.421,104.591,109.476,0.00160962,0.0529763,20.9907,606.128,-0.412943,0.0,0.0
1299,324.5,49.4757,52.0661,130.006,104.565,109.331,0.00159118,0.0529615,20.9907,606.078,-0.403195,0.0,0.0
1302,325.25,49.6444,51.8739,130.241,104.574,109.239,0.00158176,0.0529115,20.9907,606.078,-0.394721,0.0,0.0
1305,326,49.4889,51.8404,129.918,104.58,109.767,0.00155175,0.0528382,20.9911,606.058,-0.437913,0.0,0.0
1308,326.75,49.4639,51.9802,132.444,104.573,109.571,0.00152256,0.0528043,20.9914,606.048,-0.422287,0.0,0.0
1311,327.5,49.4445,51.7204,130.923,104.571,108.3,0.00150073,0.0527579,20.9912,606.018,-0.316927,0.0,0.0
1314,328.25,49.7345,52.148,131.611,104.576,109.851,0.0014892,0.0527083,20.9911,606.058,-0.445074,0.0,0.0
1317,329,49.512,51.6053,133.202,104.577,109.8,0.00149644,0.052651,20.991,606.058,-0.440857,0.0,0.0
1320,329.75,50.1383,51.7335,133.569,104.562,108.172,0.00150814,0.0526093,20.9909,606.058,-0.306951,0.0,0.0
1323,330.5,49.4549,52.0926,131.517,104.566,108.764,,0.0525925,,606.058,-0.356027,0.0,0.0
1326,331.25,49.7071,51.705,134.658,104.57,108.864,,0.0525645,,606.058,-0.363986,0.0,0.0
1329,332,49.6074,51.6633,131.004,104.555,108.812,,0.0525072,,606.088,-0.360969,0.0,0.0
1332,332.75,49.8833,51.8468,134.599,104.572,110.037,,0.0524654,,606.058,-0.460843,0.0,0.0
1335,333.5,49.222,52.2983,130.414,104.547,109.345,,,,606.068,-0.405886,0.0,0.0
1338,334.25,50.1283,51.8261,132.736,104.56,108.728,,,,606.078,-0.353519,0.0,0.0
1341,335,49.7896,52.0855,129.445,104.545,109.116,,,,606.068,-0.387058,0.0,0.0
1344,335.75,49.8225,51.6347,132.665,104.55,107.673,,,,606.068,-0.266277,0.0,0.0
1347,336.5,49.6399,51.9495,131.98,104.545,108.295,,,,606.048,-0.318766,0.0,0.0
1350,337.25,49.8021,51.8252,131.29,104.566,108.747,,,,606.038,-0.354635,0.0,0.0
1353,338,49.3061,51.3654,134.125,104.546,109.42,,,,606.028,-0.412161,0.0,0.0
1356,338.75,49.6018,51.996,133.871,104.539,109.911,,,,605.997,-0.453276,0.0,0.0
1359,339.5,49.0132,51.6697,132.857,104.54,109.47,,,,605.968,-0.416791,0.0,0.0
1362,340.25,49.6376,51.3208,132.326,104.533,108.648,,,,605.968,-0.349269,0.0,0.0
1365,341,50.2746,52.3265,132.611,104.549,108.375,,,,605.958,-0.325089,0.0,0.0