File: 01_Data/Nylon_Carpet_LowPile/Cone/Nylon_Carpet_Low_Pile_Cone_HF25Scan_220317_R2.csv
Names,Time,Stack TC,Smoke TC,Exh Press,Smoke Comp,Smoke Meas,CO Meter,CO2 Meter,O2 Meter,Sample Mass,Ext Coeff,Start Test,Flame Verif
Chan Gain,,500,500,1,1,1,1,1,1,1,1,1.0,1.0
Offset,,0,0,0.13495,0,0,0,0,0,0,0,0.0,0.0
Gain,,1,1,25.011,13.0212,13.19,1,1,1,1.0009,1.01015,1.0,1.0
Units,sec,C,C,Pa,%,%,%,%,%,g,/m,,
Baseline,,24.2988,25.2419,138.58,98.6956,93.0442,0.000746846,0.044563,21.0242,-489.167,0.522551,,
12,2.75,22.985,23.5781,139.655,98.6482,92.5896,0.00034538,0.0481569,21.0188,29.6366,0.561641,0.0,0.0
24,5.75,23.1581,24.0778,138.323,98.9415,93.1084,0.00039897,0.0495605,21.0168,29.6066,0.538427,0.0,0.0
36,8.75,22.9203,24.0609,143.52,98.9177,92.1758,0.000519889,0.0498161,21.0171,29.6667,0.625497,0.0,0.0
48,11.75,23.1958,24.2198,137.49,98.558,91.9677,0.000297339,0.0488722,21.0182,29.5766,0.613252,0.0,0.0
60,14.75,23.4088,24.2995,137.015,98.6113,92.559,0.000220486,0.0472813,21.0197,29.5766,0.561248,0.0,0.0
72,17.75,23.835,24.1601,136.153,98.9057,92.8327,0.000510823,0.046402,21.0201,29.5866,0.561503,0.0,0.0
84,20.75,23.6937,24.7698,134.559,99.1764,92.53,0.000689591,0.0458065,21.0205,29.5966,0.614653,0.0,0.0
96,23.75,23.6209,24.3467,138.115,99.2757,92.5228,0.000740024,0.045086,21.0223,29.5666,0.624219,0.0,0.0
108,26.75,23.4116,25.0141,143.352,99.1183,92.7756,0.000789675,0.044725,21.0247,29.5165,0.585986,0.0,0.0
120,29.75,23.66,24.8422,140.621,98.7583,92.2048,0.00079551,0.0442988,21.026,29.5366,0.608425,0.0,0.0
132,32.75,23.4346,24.5717,137.061,98.2743,91.803,0.000728601,0.0441053,21.0266,29.5265,0.603583,0.0,0.0
144,35.75,23.815,25.4547,140.933,97.7959,90.938,0.000773217,0.0441373,21.0269,29.4965,0.644228,0.0,0.0
156,38.75,24.153,24.6624,134.249,97.4549,90.9404,0.000754518,0.0441192,21.026,29.4665,0.613046,0.0,0.0
168,41.75,23.8092,24.5077,140.114,97.3409,91.0153,0.000656024,0.0439773,21.0267,29.4265,0.595379,0.0,0.0
180,44.75,23.5674,24.7481,137.108,97.4847,90.9956,0.00056169,0.0439131,21.0273,29.4365,0.610385,0.0,0.0
192,47.75,24.1263,24.953,137.77,97.7975,91.3301,0.000622064,0.0439397,21.0262,29.4164,0.606253,0.0,0.0
204,50.75,24.0443,24.9754,137.315,98.1583,91.4468,0.000642479,0.0437254,21.0265,29.4064,0.627566,0.0,0.0
216,53.75,23.5158,24.8656,139.073,98.4647,91.7181,0.00064534,0.0434972,21.0269,29.3364,0.62893,0.0,0.0
228,56.75,23.8951,24.9758,137.042,98.6093,92.1782,0.000676678,0.0434494,21.0264,29.3364,0.597599,0.0,0.0
240,59.75,24.1009,24.9321,138.186,98.5831,91.8441,0.000583269,0.0435159,21.0263,29.3164,0.627416,0.0,0.0
252,62.75,24.3846,25.1885,137.3,98.3868,91.3905,0.00056195,0.0434317,21.0275,29.3664,0.65363,0.0,0.0
264,65.75,24.459,25.0091,139.329,98.1853,91.1357,0.000585674,0.0435074,21.0283,29.2863,0.660207,0.0,0.0
276,68.75,24.271,25.1928,136.645,98.0995,91.0696,0.000486016,0.0433444,21.0285,29.2363,0.658876,0.0,0.0
288,71.75,23.9441,25.49,136.077,98.6594,91.6183,0.000530965,0.0436229,21.0271,29.2063,0.656086,0.0,0.0
300,74.75,24.2074,25.4072,139.197,98.9304,91.7789,0.000725476,0.0439933,21.0265,29.1762,0.664873,0.0,0.0
312,77.75,24.4651,25.8185,137.407,98.9014,92.1875,0.000894698,0.0442507,21.0268,29.1962,0.622916,0.0,0.0
324,80.75,24.498,25.4106,138.002,98.6097,91.566,0.000786679,0.0442485,21.027,29.1762,0.656684,0.0,0.0
336,83.75,24.4106,25.0436,134.531,98.5334,92.0244,0.000562384,0.0443724,21.0271,29.1362,0.60557,0.0,0.0
348,86.75,24.4952,25.4727,136.862,98.7476,91.8538,0.000441302,0.044387,21.0271,29.1562,0.64126,0.0,0.0
360,89.75,24.8619,25.5054,139.908,98.9705,92.2676,0.000524935,0.0443046,21.0271,29.1162,0.621412,0.0,0.0
372,92.75,24.5294,25.3558,139.157,99.1378,92.4402,0.000551868,0.0441906,21.0269,29.1462,0.61981,0.0,0.0
384,95.75,24.307,25.336,136.48,99.2387,92.681,0.000610427,0.0440652,21.0252,29.1262,0.605783,0.0,0.0
396,98.75,24.4633,25.3487,138.329,99.2375,92.404,0.000652292,0.0441082,21.0248,29.1762,0.632193,0.0,0.0
408,101.75,24.507,25.708,139.077,99.1533,92.5908,0.000917448,0.0440196,21.0237,29.1762,0.606775,0.0,0.0
420,104.75,24.5238,25.4862,138.25,99.0067,92.2877,0.0010493,0.0438125,21.0227,29.1562,0.622717,0.0,0.0
432,107.75,24.515,25.6012,138.505,98.8167,92.241,0.0007731,0.0438143,21.0222,29.1462,0.610185,0.0,0.0
444,110.75,24.5504,25.6139,140.301,98.6037,91.8832,0.000712595,0.043901,21.0216,29.1462,0.625507,0.0,0.0
456,113.75,24.3952,25.6416,133.282,98.4082,92.1641,0.000729065,0.0439024,21.0215,29.1362,0.580866,0.0,0.0
468,116.75,24.9715,25.5259,138.999,98.2016,91.4947,0.000628532,0.0438379,21.0209,29.1662,0.626835,0.0,0.0
480,119.75,24.3455,25.7324,138.388,98.0287,91.3941,0.00069145,0.0438259,21.0226,29.1362,0.620975,0.0,0.0
492,122.75,24.454,25.457,142.222,97.861,91.0185,0.000822311,0.043887,21.0236,29.1562,0.64229,0.0,0.0
504,125.75,24.7749,25.9967,135.404,97.7398,91.1147,0.000819644,0.0440292,21.0238,29.1362,0.621948,0.0,0.0
516,128.75,24.5226,25.6315,136.888,97.6143,90.5391,0.000674977,0.0439133,21.0233,29.1062,0.666714,0.0,0.0
528,131.75,24.3246,25.2887,138.834,97.5324,90.7645,0.000780508,0.0438763,21.0223,29.1462,0.637245,0.0,0.0
540,134.75,24.6691,25.5393,138.246,97.4704,91.182,0.000842483,0.0437492,21.023,29.1262,0.590954,0.0,0.0
552,137.75,24.3607,25.7717,134.032,97.4132,90.9094,0.000659822,0.0438459,21.0237,29.1562,0.612273,0.0,0.0
564,140.75,24.7945,25.5437,137.922,97.3826,90.6728,0.000485173,0.0439065,21.0242,29.1062,0.632589,0.0,0.0
576,143.75,24.719,25.9756,139.756,97.3584,90.9449,0.000488361,0.044049,21.0238,29.1562,0.603831,0.0,0.0
588,146.75,24.6576,25.7377,137.416,97.3484,89.9816,0.000771365,0.0447282,21.0228,29.1462,0.697279,0.0,0.0
600,149.75,24.6217,25.9448,137.097,97.3385,90.3487,0.000847223,0.0465779,21.0202,29.1362,0.660297,0.0,0.0
612,152.75,24.513,25.5374,136.757,97.3564,90.5564,0.000838649,0.0480984,21.018,29.1262,0.641577,0.0,0.0
624,155.75,24.7449,25.8217,136.471,97.3588,90.5423,0.000820467,0.0481013,21.0183,29.1362,0.643173,0.0,0.0
636,158.75,24.7554,25.8293,134.96,97.3659,90.3757,0.000777791,0.0475479,21.019,29.0861,0.660148,0.0,0.0
648,161.75,24.7138,25.9339,141.051,97.3762,90.1414,0.000786215,0.0473286,21.0192,29.1162,0.684088,0.0,0.0
660,164.75,24.9912,25.926,134.539,97.377,90.5113,0.000877674,0.047923,21.0195,29.1262,0.647871,0.0,0.0
672,167.75,24.4748,26.0879,138.494,97.3925,90.8756,0.00103048,0.0483677,21.0196,29.1262,0.613689,0.0,0.0
684,170.75,25.0259,26.1236,138.128,97.3834,90.707,0.00109253,0.0482188,21.0196,29.1062,0.629318,0.0,0.0
696,173.75,24.7146,25.9079,138.931,97.3997,90.4743,0.000980465,0.0477499,21.0197,29.0962,0.653558,0.0,0.0
708,176.75,24.8815,25.9054,139.802,97.3989,90.5427,0.000768838,0.0471324,21.0207,29.1062,0.646786,0.0,0.0
720,179.75,25.1161,25.6266,135.783,97.3985,90.1664,0.00076773,0.0468427,21.0193,29.0861,0.683659,0.0,0.0
732,182.75,24.724,26.3051,138.38,97.3878,90.7605,0.000766449,0.0468719,21.0189,29.1062,0.624487,0.0,0.0
744,185.75,24.8237,25.813,138.477,97.3794,90.7484,0.000711662,0.0473795,21.0189,29.0661,0.624907,0.0,0.0
756,188.75,24.7246,26.0944,140.03,97.3786,90.7569,0.000664947,0.047581,21.0189,29.0761,0.62401,0.0,0.0
768,191.75,24.9308,25.8793,140.644,97.3882,90.8535,0.000855009,0.0469682,21.0204,29.0261,0.615449,0.0,0.0
780,194.75,24.985,26.0164,138.779,97.3667,90.5379,0.00099676,0.0461196,21.0216,29.0161,0.64433,0.0,0.0
792,197.75,24.5169,25.9187,136.347,97.3782,90.9416,0.00100006,0.0453347,21.022,29.0761,0.605953,0.0,0.0
804,200.75,25.3036,25.8548,138.295,97.3572,90.6293,0.0010353,0.0449682,21.0221,29.0461,0.634525,0.0,0.0
816,203.75,24.9168,25.8925,137.66,97.3599,90.5121,0.000923929,0.0448613,21.0217,29.0361,0.646237,0.0,0.0
828,206.75,24.5256,25.9908,137.514,97.3683,90.7174,0.000751128,0.0450057,21.0214,29.0361,0.626921,0.0,0.0
840,209.75,24.6661,25.9847,135.29,97.3508,90.4876,0.000549554,0.0452214,21.0213,29.0261,0.647809,0.0,0.0
852,212.75,24.9641,25.3765,136.022,97.3488,90.6055,0.000582509,0.0449831,21.0213,29.0561,0.636087,0.0,0.0
864,215.75,24.5807,26.2404,140.985,97.3409,90.7851,0.000734795,0.0448151,21.0213,29.0261,0.617823,0.0,0.0
876,218.75,24.9634,26.1971,139.527,97.3389,90.7806,0.00089228,0.0445884,21.0217,29.0061,0.618075,0.0,0.0
888,221.75,25.0815,25.98,139.032,97.3393,90.7782,0.000963451,0.0443858,21.0221,28.9961,0.618347,0.0,0.0
900,224.75,24.7137,25.9973,136.852,97.3361,90.6257,0.00101986,0.0443718,21.022,29.0161,0.632961,0.0,0.0
912,227.75,24.9525,26.067,141.376,97.3468,90.6687,0.0010501,0.0441642,21.0233,29.0561,0.629727,0.0,0.0
924,230.75,24.8479,26.0712,136.483,97.3464,90.5665,0.000853709,0.044166,21.0241,29.0161,0.639688,0.0,0.0
936,233.75,24.8421,26.2162,138.611,97.3389,90.3918,0.000699234,0.0441419,21.0245,28.9961,0.65611,0.0,0.0
948,236.75,24.4717,26.0683,141.762,97.3572,91.1799,0.000663802,0.044292,21.0241,28.956,0.580849,0.0,0.0
960,239.75,25.1521,26.1879,135.758,97.3464,90.5291,0.000666057,0.0442976,21.0238,28.9961,0.643352,0.0,0.0
972,242.75,24.819,25.7389,138.327,97.3568,90.8611,0.000683429,0.0442333,21.0238,29.0061,0.611848,0.0,0.0
984,245.75,24.7745,25.5781,136.741,97.3596,90.5975,0.000828049,0.0441999,21.024,28.956,0.63785,0.0,0.0
996,248.75,25.1247,25.8073,139.495,97.3675,90.7472,0.000880868,0.0440582,21.0242,28.9861,0.623941,0.0,0.0
1008,251.75,25.1473,25.9581,137.942,97.375,90.6953,0.000985926,0.044128,21.0228,28.9861,0.629699,0.0,0.0
1020,254.75,25.1121,25.9743,137.244,97.3985,90.8704,0.00105927,0.0441653,21.0224,28.9861,0.614742,0.0,0.0
1032,257.75,24.9552,26.0274,140.037,97.4211,90.4143,0.00106682,0.0440612,21.0219,28.9861,0.661386,0.0,0.0
1044,260.75,25.0217,26.0168,137.376,97.4494,90.9239,0.000840055,0.0440962,21.0215,28.936,0.614149,0.0,0.0
1056,263.75,24.5849,26.1055,139.614,97.4843,90.7657,0.000573643,0.0442825,21.0228,28.956,0.632758,0.0,0.0
1068,266.75,25.058,25.6031,136.152,97.5261,90.6003,0.000353614,0.0445785,21.0218,28.976,0.652716,0.0,0.0
1080,269.75,24.9847,25.4243,142.487,97.5606,90.7907,0.000296627,0.0444379,21.0215,28.946,0.637255,0.0,0.0
1092,272.75,24.5232,25.851,141.686,97.6071,90.9795,0.000431558,0.0443103,21.0214,28.956,0.62307,0.0,0.0
1104,275.75,24.6553,25.3654,136.012,97.6747,91.1248,0.00068176,0.0443339,21.0214,28.946,0.615059,0.0,0.0
1116,278.75,24.5346,25.8563,137.895,97.7573,91.2037,0.00104286,0.0443609,21.023,28.916,0.614886,0.0,0.0
1128,281.75,24.7065,25.9495,133.784,97.8519,91.1723,0.0010329,0.0444834,21.0239,28.926,0.626506,0.0,0.0
1140,284.75,24.477,25.9679,135.886,97.9636,91.0829,0.000852504,0.0447111,21.0241,28.906,0.6453,0.0,0.0
1152,287.75,24.8179,25.5898,135.874,98.0816,91.5607,0.00091278,0.0447392,21.0233,28.956,0.609608,0.0,0.0
1164,290.75,24.8945,25.396,135.178,98.1833,91.9878,0.00115256,0.0445253,21.0234,28.936,0.577559,0.0,0.0
1176,293.75,25.1844,25.8172,134.777,98.3013,91.3885,0.0010832,0.0443753,21.0234,28.936,0.646127,0.0,0.0
1188,296.75,24.7401,26.042,138.94,98.4273,91.599,0.000728855,0.044209,21.0234,28.936,0.637087,0.0,0.0
1200,299.75,24.9244,26.1279,136.563,98.5509,92.2551,0.000675898,0.0440341,21.0234,28.906,0.584961,0.0,0.0
1212,302.75,24.7648,26.2113,139.406,98.6443,91.9548,0.000887807,0.0441586,21.0235,28.916,0.622242,0.0,0.0
1224,305.75,25.2994,26.0166,136.227,98.7496,92.4217,0.000893712,0.0441734,21.0236,28.906,0.586816,0.0,0.0
1236,308.75,24.4878,25.9832,139.119,98.8461,92.4008,0.000901977,0.0441081,21.024,28.886,0.597484,0.0,0.0
1248,311.75,25.0917,25.9283,140.173,98.9363,92.6685,0.000843803,0.0440566,21.0243,28.896,0.579933,0.0,0.0
1260,314.75,24.7095,25.6808,137.311,99.025,91.5591,0.00068752,0.0439822,21.0244,28.886,0.694584,0.0,0.0
1272,317.75,25.4029,26.0989,142.172,99.1032,92.648,0.000573698,0.0439526,21.0244,28.8659,0.596832,0.0,0.0
1284,320.75,24.3309,26.0152,137.32,99.1597,92.4978,0.000537329,0.0439432,21.0239,28.886,0.616248,0.0,0.0
1296,323.75,25.5517,26.1541,136.165,99.203,92.7381,0.000636651,0.0438378,21.0231,28.886,0.597126,0.0,0.0
1308,326.75,24.598,26.0269,136.911,99.2137,92.5936,0.00072682,0.0437564,21.0225,28.896,0.611902,0.0,0.0
1320,329.75,24.0271,26.1025,137.42,99.205,92.8693,0.00073814,0.0438347,21.0223,28.886,0.584774,0.0,0.0
1332,332.75,25.1047,26.1647,138.676,99.1704,92.5324,0.000660845,0.0437247,21.0223,28.886,0.61389,0.0,0.0
1344,335.75,24.8791,25.8261,141.549,99.1136,92.9768,0.000637503,0.0439002,21.0237,28.8459,0.566359,0.0,0.0
1356,338.75,24.6614,25.6567,140.424,99.0361,92.3746,0.000804076,0.0439572,21.023,28.8559,0.617004,0.0,0.0
1368,341.75,24.6885,26.2515,136.195,98.9487,92.3734,0.00102391,0.0439848,21.0225,28.8559,0.609295,0.0,0.0
1380,344.75,24.5369,25.5703,137.64,98.835,91.8646,0.000940246,0.0439486,21.0223,28.8559,0.648051,0.0,0.0
1392,347.75,24.9785,25.8891,140.248,98.7114,91.7407,0.000604887,0.043974,21.0239,28.8459,0.648932,0.0,0.0
1404,350.75,24.9681,26.0388,139.579,98.5946,91.7664,0.000551418,0.0440766,21.0246,28.8659,0.635951,0.0,0.0
1416,353.75,24.6924,26.177,137.557,98.4885,92.4797,0.000697322,0.0442218,21.0248,28.8459,0.557802,0.0,0.0
1428,356.75,24.6658,25.9723,141.87,98.4082,91.8373,0.000663601,0.044018,21.0235,28.8359,0.612347,0.0,0.0
1440,359.75,25.1048,26.2222,139.209,98.5652,91.8751,0.000706868,0.0440208,21.0228,28.8359,0.62282,0.0,0.0
1452,362.75,25.2496,26.0197,137.028,98.7388,92.0707,0.000698142,0.0438555,21.0241,28.8359,0.619569,0.0,0.0
1464,365.75,24.8778,25.9531,139.613,98.8608,92.9986,0.000493585,0.0439422,21.0247,28.8259,0.541663,0.0,0.0
1476,368.75,25.0252,26.0657,140.908,98.9014,92.1629,0.000407905,0.043869,21.0245,28.8459,0.625276,0.0,0.0
1488,371.75,25.0119,26.1851,136.835,98.9022,92.2817,0.000393311,0.0437176,21.0235,28.7959,0.613938,0.0,0.0
1500,374.75,25.2184,25.9251,136.156,98.8414,92.5409,0.000550583,0.0437504,21.0236,28.8159,0.583633,0.0,0.0
1512,377.75,25.0804,26.4256,137.196,98.7198,92.3239,0.000777922,0.0439094,21.0236,28.7959,0.593524,0.0,0.0
1524,380.75,24.9129,25.7572,138.819,98.5318,92.1557,0.000610761,0.0439328,21.0236,28.8059,0.592801,0.0,0.0
1536,383.75,24.9157,25.8098,137.409,98.3009,92.4479,0.000389962,0.0440687,21.0239,28.8059,0.543959,0.0,0.0
1548,386.75,25.1218,25.8482,133.297,98.0351,91.8566,0.000321916,0.0438747,21.0243,28.8059,0.576821,0.0,0.0
1560,389.75,24.9939,26.0435,137.216,98.0736,91.7081,0.00036513,0.0438247,21.0244,28.7859,0.594644,0.0,0.0
1572,392.75,24.8286,26.088,135.411,98.1368,92.2237,0.000455762,0.0440082,21.0245,28.7959,0.550669,0.0,0.0
1584,395.75,24.9309,25.908,139.366,98.2187,91.9576,0.000554322,0.0440293,21.0234,28.7859,0.583659,0.0,0.0
1596,398.75,24.8922,25.9736,136.573,98.3069,92.0752,0.000563764,0.0440241,21.0245,28.7558,0.580294,0.0,0.0
1608,401.75,24.7488,26.1669,139.227,98.3772,92.3766,0.000578765,0.0439702,21.0248,28.7759,0.557666,0.0,0.0
1620,404.75,24.8989,25.3203,138.234,98.4654,91.9053,0.000685936,0.0438373,21.0249,28.7859,0.610937,0.0,0.0
1632,407.75,25.0828,26.2107,136.703,98.5445,92.0502,0.000665208,0.0438905,21.0249,28.7458,0.60409,0.0,0.0
1644,410.75,24.6412,25.8013,137.207,98.5708,92.1408,0.000677836,0.0442524,21.0243,28.7358,0.597734,0.0,0.0
1656,413.75,24.469,25.7743,137.418,98.5859,92.4781,0.000650453,0.0446594,21.023,28.7558,0.566711,0.0,0.0
1668,416.75,25.083,26.0102,139.314,98.56,92.7051,0.000573364,0.045075,21.0226,28.7558,0.542664,0.0,0.0
1680,419.75,25.0745,25.8931,138.48,98.5123,92.7957,0.000591923,0.0449352,21.0223,28.7458,0.529723,0.0,0.0
1692,422.75,24.8871,25.7178,134.781,98.4333,92.0599,0.000596167,0.0445436,21.0222,28.7158,0.59315,0.0,0.0
1704,425.75,25.3067,25.9726,136.473,98.324,92.018,0.000586196,0.0442878,21.0222,28.7358,0.587337,0.0,0.0
1716,428.75,25.2151,25.9655,137.849,98.1944,91.7576,0.000473502,0.0443105,21.0232,28.7258,0.600769,0.0,0.0
1728,431.75,24.7159,25.8818,136.886,98.0331,92.7747,0.00053668,0.0442925,21.0242,28.7158,0.488511,0.0,0.0
1740,434.75,24.1882,25.6855,136.206,97.8825,91.8844,0.00053468,0.0441673,21.0244,28.7158,0.56034,0.0,0.0
1752,437.75,25.1155,26.1604,138.349,97.7228,90.9247,0.000596538,0.0441447,21.0245,28.6858,0.638895,0.0,0.0
1764,440.75,24.7648,26.1784,138.013,97.5829,91.5519,0.000572587,0.0438599,21.023,28.7058,0.565296,0.0,0.0
1776,443.75,24.9184,25.9439,136.204,97.4744,91.351,0.000482314,0.044011,21.022,28.6958,0.574902,0.0,0.0
1788,446.75,24.8352,25.7792,137.699,97.3981,91.3248,0.000457143,0.0441457,21.0219,28.6958,0.570501,0.0,0.0
1800,449.75,24.91,25.94,140.627,97.3357,91.1002,0.000404492,0.0441975,21.0234,28.6658,0.586644,0.0,0.0
1812,452.75,24.6043,26.163,137.833,97.3266,91.6227,0.000500244,0.0441699,21.0244,28.6758,0.535138,0.0,0.0
1824,455.75,24.6292,26.2965,137.205,97.3345,90.8386,0.000510206,0.0441818,21.0246,28.6958,0.612021,0.0,0.0
1836,458.75,25.4185,25.9651,134.941,97.4005,91.415,0.000299747,0.0441957,21.0247,28.6858,0.561974,0.0,0.0
1848,461.75,25.294,26.0021,137.614,97.474,91.0314,0.000151042,0.0441636,21.0247,28.7058,0.605922,0.0,0.0
1860,464.75,25.1817,26.3096,136.733,97.5805,91.5269,0.000203361,0.0439768,21.0246,28.6658,0.567495,0.0,0.0
1872,467.75,24.6839,25.5496,139.269,97.7188,91.5064,0.000263451,0.0439195,21.0245,28.6658,0.582032,0.0,0.0
1884,470.75,25.3282,26.3412,137.711,97.869,91.5136,0.000335659,0.0440258,21.0245,28.6758,0.59494,0.0,0.0
1896,473.75,25.3806,25.7521,136.645,98.0228,92.0872,0.000317199,0.0441292,21.0235,28.6758,0.553486,0.0,0.0
1908,476.75,25.2884,25.8049,137.046,98.1841,92.7957,0.000275078,0.04388,21.0226,28.6157,0.50015,0.0,0.0
1920,479.75,25.0293,25.887,142.672,98.3701,92.2825,0.000410546,0.0439883,21.0219,28.6658,0.566061,0.0,0.0
1932,482.75,24.8982,26.0234,138.98,98.5497,92.7132,0.000562354,0.0439307,21.0215,28.6458,0.540965,0.0,0.0
1944,485.75,24.5499,25.8159,141.61,98.6975,93.0722,0.000662686,0.0438032,21.0225,28.6558,0.519997,0.0,0.0
1956,488.75,24.9572,25.9555,133.841,98.8338,92.8971,0.000768343,0.0439193,21.0235,28.6558,0.548911,0.0,0.0
1968,491.75,24.9129,26.0335,137.292,98.9562,93.0267,0.000663057,0.0439891,21.0241,28.6157,0.547522,0.0,0.0
1980,494.75,24.4581,26.0167,136.746,99.0639,93.4043,0.000600929,0.0439004,21.0243,28.6357,0.52127,0.0,0.0
1992,497.75,24.7787,25.6639,131.791,99.1525,93.3335,0.000671628,0.0438564,21.0244,28.6357,0.535915,0.0,0.0
2004,500.75,25.0731,25.7255,141.43,99.2089,93.0742,0.000671671,0.0438494,21.024,28.6257,0.565601,0.0,0.0
2016,503.75,25.266,26.0964,140.711,99.261,93.544,0.000732535,0.0439635,21.0237,28.6157,0.525641,0.0,0.0
2028,506.75,25.0059,26.1928,137.522,99.2324,92.6298,0.000778028,0.0439643,21.0249,28.5957,0.610104,0.0,0.0
2040,509.75,24.7129,26.276,135.847,99.2217,93.0654,0.000714867,0.043821,21.0251,28.6057,0.56758,0.0,0.0
2052,512.75,24.4031,25.9092,138.947,99.1442,93.102,0.000606115,0.0437649,21.0253,28.5957,0.55717,0.0,0.0
2064,515.75,24.4672,25.6713,138.686,99.0675,93.0461,0.000557098,0.043694,21.0254,28.6157,0.55564,0.0,0.0
2076,518.75,24.1829,26.0033,141.926,98.9689,93.2135,0.000488776,0.0438049,21.0254,28.6257,0.53089,0.0,0.0
2088,521.75,25.2688,26.1868,134.709,98.8565,93.0593,0.000469749,0.0438783,21.0249,28.5957,0.535483,0.0,0.0
2100,524.75,25.014,26.2009,138.462,98.7381,93.3379,0.000463096,0.0440353,21.0246,28.5957,0.498378,0.0,0.0
2112,527.75,24.7597,26.3635,136.061,98.6308,92.4358,0.000630536,0.044075,21.0246,28.5757,0.574798,0.0,0.0
2124,530.75,24.9988,25.7493,135.98,98.5294,92.171,0.00073225,0.043865,21.0247,28.5557,0.591115,0.0,0.0
2136,533.75,24.8203,25.5363,137.071,98.4658,92.811,0.000742035,0.0437702,21.0251,28.5857,0.52408,0.0,0.0
2148,536.75,24.749,26.1233,139.612,98.5358,92.1178,0.000726506,0.0439805,21.0252,28.5557,0.596796,0.0,0.0
2160,539.75,25.2725,25.7618,134.731,98.7249,92.8553,0.000661035,0.0439209,21.0252,28.5457,0.543138,0.0,0.0
2172,542.75,24.6887,25.8306,140.488,98.8751,92.5163,0.000666851,0.04395,21.0257,28.5557,0.589012,0.0,0.0
2184,545.75,24.4764,25.6578,138.099,98.9403,93.1129,0.000703961,0.043992,21.026,28.5357,0.537899,0.0,0.0
2196,548.75,25.0684,25.7375,135.787,98.9475,92.9152,0.000543052,0.0439729,21.026,28.5357,0.557366,0.0,0.0
2208,551.75,24.816,25.828,137.664,98.9157,93.0203,0.000441542,0.0439719,21.0261,28.5256,0.544507,0.0,0.0
2220,554.75,24.4363,25.7929,140.615,98.8358,93.3117,0.000548225,0.0438293,21.0253,28.5056,0.50963,0.0,0.0
2232,557.75,24.467,26.0425,135.201,98.7253,92.3666,0.000667788,0.043982,21.0252,28.5557,0.589929,0.0,0.0
2244,560.75,24.8361,25.9899,138.724,98.5684,92.8589,0.000608536,0.0439301,21.0245,28.5156,0.528728,0.0,0.0
2256,563.75,24.9365,26.0223,137.035,98.349,92.9627,0.000442168,0.0438876,21.0239,28.5156,0.499083,0.0,0.0
2268,566.75,25.0039,26.1395,135.601,98.107,92.2374,0.000128729,0.043965,21.0235,28.4956,0.546663,0.0,0.0
2280,569.75,24.859,25.5946,135.171,98.0887,92.5924,0.000134822,0.0438139,21.0234,28.4956,0.510971,0.0,0.0
2292,572.75,25.059,25.74,141.387,98.1277,92.3348,0.00061104,0.0439003,21.0233,28.5156,0.539176,0.0,0.0
2304,575.75,24.8582,25.8444,141.232,98.173,92.8412,0.000687714,0.044047,21.0229,28.5156,0.494803,0.0,0.0
2316,578.75,25.1174,25.9254,136.871,98.2378,92.3984,0.00044312,0.0440778,21.0221,28.4956,0.543009,0.0,0.0
2328,581.75,25.1491,25.7426,137.457,98.2962,92.4141,0.000497786,0.0441379,21.0231,28.4956,0.54677,0.0,0.0
2340,584.75,25.1202,26.0066,139.201,98.3721,92.7788,0.000529884,0.0441302,21.0239,28.4656,0.518711,0.0,0.0
2352,587.75,25.0237,25.9389,137.181,98.4313,92.59,0.000534156,0.044053,21.0226,28.4656,0.542092,0.0,0.0
2364,590.75,24.7174,25.3293,138.952,98.5028,93.1902,0.000591983,0.0440532,21.0222,28.4856,0.491277,0.0,0.0
2376,593.75,24.758,25.8591,140.892,98.5549,93.1817,0.000343291,0.0440294,21.0227,28.4956,0.496762,0.0,0.0
2388,596.75,25.1132,26.0569,138.778,98.5839,93.3166,0.000223869,0.0440241,21.0226,28.4456,0.486556,0.0,0.0
2400,599.75,24.6934,26.033,138.861,98.5998,93.104,0.000430475,0.0441213,21.023,28.4756,0.508189,0.0,0.0
2412,602.75,24.7722,25.7344,139.122,98.5886,92.7739,0.000594298,0.0441291,21.023,28.4856,0.538659,0.0,0.0
2424,605.75,25.0011,26.2876,135.601,98.5505,92.6608,0.000688285,0.0440055,21.0227,28.4456,0.54604,0.0,0.0
2436,608.75,24.7609,25.732,140.91,98.479,92.6459,0.000564993,0.0440839,21.0227,28.4456,0.541029,0.0,0.0
2448,611.75,25.0016,26.1779,139.137,98.4011,92.78,0.00065815,0.0441389,21.0227,28.4256,0.521208,0.0,0.0
2460,614.75,24.9585,25.7318,139.211,98.2982,93.0766,0.000838754,0.0440301,21.0227,28.4556,0.483648,0.0,0.0
2472,617.75,25.1776,26.0293,136.429,98.1921,92.8919,0.00085149,0.0438902,21.023,28.4356,0.491685,0.0,0.0
2484,620.75,24.172,26.0966,134.321,98.055,92.4906,0.000801588,0.0439595,21.0225,28.4256,0.517671,0.0,0.0
2496,623.75,24.8323,26.1567,136.445,97.9115,92.4475,0.000515624,0.0439124,21.0233,28.4456,0.508824,0.0,0.0
2508,626.75,25.1516,25.7058,135.6,97.7637,91.9415,0.00022755,0.0439534,21.0249,28.4256,0.544066,0.0,0.0
2520,629.75,24.8431,26.2565,141.343,97.6441,92.5047,0.000306716,0.043869,21.0256,28.4155,0.479111,0.0,0.0
2532,632.75,24.9061,26.0131,136.08,97.5253,92.398,0.00054179,0.0439689,21.0272,28.4155,0.478547,0.0,0.0
2544,635.75,24.6181,26.1617,138.253,97.4382,91.215,0.00063309,0.0439628,21.0272,28.4256,0.584821,0.0,0.0
2556,638.75,24.6672,26.3706,135.442,97.3496,91.8956,0.000504237,0.0441144,21.026,28.4155,0.510881,0.0,0.0
2568,641.75,24.8511,25.8661,140.744,97.3095,91.7334,0.000283866,0.0439748,21.0256,28.4055,0.522882,0.0,0.0
2580,644.75,24.9058,25.9102,135.617,97.2995,91.9109,0.00029844,0.0439758,21.0256,28.4055,0.504847,0.0,0.0
2592,647.75,24.6748,26.0794,140.598,97.3301,92.0128,0.000476157,0.043945,21.0245,28.3655,0.497821,0.0,0.0
2604,650.75,25.2976,26.1717,136.566,97.3949,91.9001,0.000515034,0.0440606,21.025,28.4055,0.514577,0.0,0.0
2616,653.75,24.7161,26.2052,139.011,97.4935,92.3167,0.000510618,0.0440869,21.0239,28.3855,0.483459,0.0,0.0
2628,656.75,24.8012,25.7286,140.585,97.6135,92.5292,0.000617283,0.0442098,21.0237,28.3855,0.473983,0.0,0.0
2640,659.75,24.899,26.0166,137.491,97.7621,92.9519,0.00079188,0.044179,21.0236,28.3855,0.447081,0.0,0.0
2652,662.75,24.9131,26.1393,141.368,97.9326,92.5695,0.000762089,0.0440554,21.0235,28.3855,0.499048,0.0,0.0
2664,665.75,24.3427,26.0798,134.911,98.103,92.8251,0.000588494,0.0439438,21.0235,28.3855,0.490025,0.0,0.0
2676,668.75,24.3447,25.6924,137.302,98.2827,93.4321,0.000421537,0.0439641,21.0235,28.3755,0.448478,0.0,0.0
2688,671.75,24.7557,25.8824,142.844,98.477,93.7279,0.000341912,0.0440046,21.0242,28.3455,0.437966,0.0,0.0
2700,674.75,24.6067,25.1249,135.355,98.6399,93.0195,0.000318779,0.0439885,21.0244,28.3655,0.519844,0.0,0.0
2712,677.75,25.4627,25.97,140.766,98.7794,93.2365,0.000316935,0.0440104,21.0245,28.3355,0.51172,0.0,0.0
2724,680.75,24.9334,25.8319,134.852,98.9296,93.6837,0.000221289,0.0440265,21.025,28.3555,0.482786,0.0,0.0
2736,683.75,24.9335,26.2458,140.814,99.019,93.3322,0.000146833,0.0440512,21.0253,28.3455,0.524091,0.0,0.0
2748,686.75,24.7415,25.9166,138.191,99.1195,93.5685,0.00010645,0.0439747,21.0253,28.3155,0.510677,0.0,0.0
2760,689.75,24.9894,26.0118,139.55,99.1875,93.8869,0.000202396,0.0440249,21.0251,28.2954,0.486649,0.0,0.0
2772,692.75,24.7556,25.6514,135.903,99.2364,93.7066,0.00019993,0.0440776,21.0247,28.2754,0.508051,0.0,0.0
2784,695.75,25.0739,25.7747,134.372,99.2602,94.0866,0.000348253,0.0441656,21.0216,28.3054,0.47432,0.0,0.0
2796,698.75,25.0451,25.9422,136.109,99.2503,94.5193,0.000454444,0.0442076,21.0206,28.3155,0.432774,0.0,0.0
2808,701.75,24.6433,25.5376,138.266,99.2197,93.744,0.000377715,0.0441701,21.0203,28.2854,0.50302,0.0,0.0
2820,704.75,24.9338,26.0121,140.453,99.1585,93.7875,0.000503671,0.0440122,21.0218,28.3054,0.493446,0.0,0.0
2832,707.75,25.014,26.0862,139.101,99.0818,93.8954,0.000633936,0.0440905,21.0223,28.3054,0.476403,0.0,0.0
2844,710.75,24.8953,25.8348,136.532,98.9936,93.9658,0.0007463,0.0441147,21.0214,28.2954,0.461865,0.0,0.0
2856,713.75,24.8891,25.4117,135.448,98.893,93.3516,0.000721019,0.0442496,21.022,28.2954,0.510977,0.0,0.0
2868,716.75,24.8897,26.1854,135.319,98.7857,93.0352,0.000696094,0.0442097,21.0228,28.2854,0.53144,0.0,0.0
2880,719.75,25.0953,25.9138,136.187,98.6836,93.2171,0.000689436,0.0441119,21.0252,28.2954,0.504963,0.0,0.0
2892,722.75,24.5707,25.74,139.189,98.5819,93.3806,0.000791484,0.0440327,21.0259,28.2854,0.480302,0.0,0.0
2904,725.75,24.6131,25.7808,136.313,98.5,92.9973,0.000831459,0.0439642,21.0261,28.2654,0.509379,0.0,0.0
2916,728.75,24.9303,26.2456,135.903,98.4484,93.2912,0.000636137,0.0440915,21.0247,28.2654,0.476776,0.0,0.0
2928,731.75,24.8769,26.0036,142.019,98.5926,93.0529,0.000479254,0.0440752,21.0247,28.2654,0.512413,0.0,0.0
2940,734.75,24.6462,25.6795,141.489,98.744,93.934,0.000365189,0.0439712,21.025,28.2554,0.442499,0.0,0.0
2952,737.75,24.9298,25.7077,140.008,98.8644,93.5267,0.000322162,0.0440192,21.0259,28.2654,0.491807,0.0,0.0
2964,740.75,24.5342,26.01,138.375,98.9359,94.254,0.000263201,0.0440869,21.0253,28.2654,0.42957,0.0,0.0
2976,743.75,24.9014,25.6687,137.437,98.9789,94.1301,0.00024301,0.0440513,21.0243,28.2554,0.445076,0.0,0.0
2988,746.75,25.1558,25.7041,139.061,98.9797,93.7839,0.000334468,0.0441058,21.024,28.2454,0.477794,0.0,0.0
3000,749.75,24.8303,25.7334,137.221,98.9451,93.9236,0.000343815,0.0443082,21.0239,28.2154,0.461511,0.0,0.0
3012,752.75,24.5416,26.1079,135.823,98.8783,93.6293,0.000428841,0.0441299,21.0242,28.2054,0.483334,0.0,0.0
3024,755.75,24.4441,26.3381,140.602,98.7766,94.0033,0.00046131,0.0441666,21.0246,28.2154,0.438894,0.0,0.0
3036,758.75,25.1308,26.233,138.199,98.6355,93.7581,0.000460787,0.0443299,21.0231,28.2254,0.449367,0.0,0.0
3048,761.75,25.0133,25.7564,138.838,98.4635,93.1922,0.000604505,0.0442564,21.0226,28.2354,0.487546,0.0,0.0
3060,764.75,24.9508,25.7302,135.547,98.2552,93.1463,0.000608896,0.0442872,21.0224,28.2154,0.473152,0.0,0.0
3072,767.75,24.5254,26.1883,133.355,98.1273,92.8045,0.000564728,0.0449378,21.0222,28.2154,0.494174,0.0,0.0
3084,770.75,25.1361,25.9154,135.935,98.1396,93.3238,0.000447814,0.0459617,21.0216,28.1853,0.445846,0.0,0.0
3096,773.75,25.3975,25.7041,140.822,98.1758,92.9281,0.000431389,0.0465156,21.0204,28.1753,0.48676,0.0,0.0
3108,776.75,25.2707,26.074,139.029,98.2016,92.8355,0.000609914,0.0463414,21.021,28.2054,0.497923,0.0,0.0
3120,779.75,24.941,26.537,139.588,98.2592,93.5335,0.000718623,0.0458196,21.0212,28.1653,0.436749,0.0,0.0
3132,782.75,24.7989,25.9302,138.886,98.3156,93.1918,0.000724416,0.0452773,21.0213,28.1753,0.474271,0.0,0.0
3144,785.75,24.9115,26.1197,132.707,98.3669,93.4248,0.000812643,0.045219,21.0213,28.1653,0.456757,0.0,0.0
3156,788.75,25.0043,25.5889,136.516,98.4122,93.0203,0.000762294,0.0447118,21.0236,28.1753,0.49929,0.0,0.0
3168,791.75,24.966,26.5166,138.128,98.4515,93.1563,0.000458865,0.0445966,21.0242,28.1653,0.48988,0.0,0.0
3180,794.75,24.7269,26.5163,136.545,98.5072,93.4031,0.000374948,0.0446989,21.0244,28.1553,0.471446,0.0,0.0
3192,797.75,24.9708,25.7244,136.372,98.5342,93.9819,0.000345187,0.0447244,21.0253,28.1453,0.419133,0.0,0.0
3204,800.75,25.1931,26.0508,141.151,98.5616,93.7468,0.00040146,0.0446565,21.0264,28.1353,0.44379,0.0,0.0
3216,803.75,25.2519,25.9572,138.395,98.587,93.7243,0.000481339,0.0446096,21.0252,28.1153,0.448207,0.0,0.0
3228,806.75,25.2575,26.2163,139.076,98.5815,93.7827,0.000466614,0.0446103,21.0247,28.1153,0.44219,0.0,0.0
3240,809.75,25.2689,26.3665,136.89,98.566,93.2562,0.000437204,0.0447223,21.0231,28.1253,0.490684,0.0,0.0
3252,812.75,25.1207,26.1731,139.496,98.5445,94.2774,0.000398689,0.0444173,21.0206,28.1253,0.39225,0.0,0.0
3264,815.75,24.7316,25.7375,134.188,98.5119,92.7667,0.00031252,0.0444313,21.0203,28.1153,0.532454,0.0,0.0
3276,818.75,24.9989,25.8477,135.822,98.4476,93.0312,0.000201349,0.0445394,21.0202,28.1253,0.501438,0.0,0.0
3288,821.75,24.9662,25.984,138.441,98.3975,93.253,0.000311371,0.0445862,21.0202,28.1053,0.47583,0.0,0.0
3300,824.75,24.8493,25.9912,142.126,98.32,92.8367,0.000343198,0.044549,21.0202,28.1053,0.508486,0.0,0.0
3312,827.75,25.0843,26.2953,137.811,98.2513,93.3479,0.000361337,0.0445547,21.0207,28.0852,0.45363,0.0,0.0
3324,830.75,25.1989,26.5561,139.94,98.163,92.7699,0.000555887,0.0445637,21.021,28.1053,0.500709,0.0,0.0
3336,833.75,24.8196,25.6398,135.657,98.0752,92.8923,0.000599578,0.0447005,21.0213,28.0652,0.481098,0.0,0.0
3348,836.75,24.9019,26.3531,137.571,97.9934,92.9032,0.000593738,0.0446214,21.0231,28.0652,0.472663,0.0,0.0
3360,839.75,25.2949,26.0152,138.821,97.896,92.9301,0.000525286,0.0445768,21.0236,28.0352,0.461283,0.0,0.0
3372,842.75,25.3251,26.1766,139.02,97.8138,92.3553,0.000389126,0.044429,21.0238,28.0652,0.508812,0.0,0.0
3384,845.75,24.7825,26.1055,140.927,97.7331,92.91,0.000417885,0.044396,21.0238,28.0752,0.448444,0.0,0.0
3396,848.75,24.8711,26.1321,141.504,97.6639,92.7401,0.000532593,0.0444887,21.0234,28.0652,0.458386,0.0,0.0
3408,851.75,24.8357,25.9956,134.7,97.5674,93.0151,0.000664729,0.0443694,21.0231,28.0452,0.423392,0.0,0.0
3420,854.75,25.0558,25.7867,136.301,97.5074,92.7973,0.00074659,0.0443725,21.023,28.0552,0.438712,0.0,0.0
3432,857.75,24.9417,25.5413,139.153,97.4362,92.8685,0.000612957,0.0443832,21.0229,28.0152,0.425444,0.0,0.0
3444,860.75,24.9909,26.1084,136.89,97.3945,93.007,0.000563512,0.0445478,21.0228,28.0052,0.408447,0.0,0.0
3456,863.75,24.8004,25.9257,132.333,97.3385,92.5204,0.000490333,0.0448186,21.0228,27.9751,0.449834,0.0,0.0
3468,866.75,25.0683,26.0589,140.197,97.2984,92.6186,0.000530716,0.0452226,21.022,27.9651,0.436778,0.0,0.0
3480,869.75,24.949,25.8401,139.356,97.2924,92.3042,0.000617908,0.0452605,21.0218,27.9751,0.466363,0.0,0.0
3492,872.75,25.0891,25.6736,139.367,97.2622,92.4946,0.000740509,0.0452462,21.0227,27.9952,0.445353,0.0,0.0
3504,875.75,25.3508,26.2386,137.234,97.2634,92.8279,0.000870908,0.0450634,21.0222,27.9651,0.41359,0.0,0.0
3516,878.75,24.9748,26.4168,137.937,97.2785,92.344,0.00100041,0.0449544,21.0225,27.9651,0.461272,0.0,0.0
3528,881.75,25.0941,25.8477,139.547,97.2956,92.2088,0.00094678,0.0448603,21.0233,27.9852,0.475815,0.0,0.0
3540,884.75,24.7578,25.9118,131.741,97.3369,92.2821,0.000678067,0.0447921,21.0235,27.9651,0.47254,0.0,0.0
3552,887.75,25.3126,26.5927,137.365,97.3846,92.0574,0.000483205,0.0446185,21.0236,27.9451,0.498474,0.0,0.0
3564,890.75,25.0603,26.2938,143.053,97.4565,92.4926,0.000401181,0.0446965,21.0241,27.9451,0.463232,0.0,0.0
3576,893.75,25.3002,26.5864,136.143,97.536,92.9704,0.00044248,0.0448149,21.0246,27.9151,0.424799,0.0,0.0
3588,896.75,24.6964,26.2097,140.129,97.623,93.1419,0.000410417,0.0447457,21.0262,27.9151,0.416372,0.0,0.0
3600,899.75,25.0145,25.9902,139.865,97.7283,92.8991,0.000637764,0.044774,21.0264,27.9451,0.449047,0.0,0.0
3612,902.75,25.3824,26.5719,135.528,97.8408,93.0754,0.000676406,0.0447855,21.0235,27.9651,0.442436,0.0,0.0
3624,905.75,25.195,26.1207,132.742,97.9508,92.9672,0.000658876,0.0447662,21.0221,27.9451,0.462714,0.0,0.0
3636,908.75,25.4073,26.8035,138.047,98.0756,92.7933,0.000567108,0.0447542,21.0217,27.9151,0.490585,0.0,0.0
3648,911.75,25.0849,25.8974,141.877,98.1861,93.5504,0.000489101,0.0445279,21.0216,27.8951,0.428552,0.0,0.0
3660,914.75,25.2514,26.5437,135.46,98.3093,93.4739,0.000522758,0.0445837,21.0215,27.8851,0.446909,0.0,0.0
3672,917.75,25.3964,26.4954,139.372,98.4349,93.2079,0.000492794,0.0446016,21.0215,27.9051,0.483478,0.0,0.0
3684,920.75,25.2938,26.2827,136.142,98.5604,93.3918,0.000454239,0.0446793,21.0215,27.9051,0.477304,0.0,0.0
3696,923.75,25.0796,26.5788,133.959,98.6502,92.0973,0.00057767,0.0503892,21.0143,27.855,0.609058,0.0,0.0
3708,926.75,25.3798,26.4652,139.61,98.7476,93.131,0.000826014,0.0594962,21.0021,27.825,0.518898,0.0,0.0
3720,929.75,25.9146,26.1138,135.203,98.8477,93.2892,0.00088302,0.065974,20.9918,27.835,0.51284,0.0,0.0
3732,932.75,25.3437,27.0189,132.469,98.9288,92.299,0.000957436,0.077009,20.9756,27.795,0.614661,0.0,0.0
3744,935.75,26.3255,27.3376,136.209,98.9896,92.2788,0.000917544,0.0892667,20.9588,27.765,0.622037,0.0,0.0
3756,938.75,26.5255,27.6128,136.71,99.0464,92.3404,0.000957622,0.0972533,20.9467,27.7349,0.62121,0.0,0.0
3768,941.75,27.0572,28.1123,135.973,99.0814,91.9065,0.00117705,0.104675,20.9366,27.7049,0.666076,0.0,0.0
3780,944.75,26.9555,28.3586,128.378,99.1319,92.0297,0.0014112,0.111315,20.9263,27.6649,0.658721,0.0,0.0
3792,947.75,28.0416,28.8097,132.494,99.1696,91.8562,0.00161596,0.119659,20.9164,27.6148,0.678814,0.0,0.0
3804,950.75,28.2134,29.7848,135.423,99.1946,91.9657,0.00154091,0.127342,20.906,27.5348,0.670496,0.0,0.0
3816,953.75,28.6201,29.6089,132.521,99.2221,92.0168,0.00146409,0.130753,20.9001,27.4747,0.668021,0.0,0.0
3828,956.75,28.751,30.0507,130.251,99.2344,92.1323,0.0016109,0.132658,20.8968,27.4447,0.658002,0.0,0.0
3840,959.75,29.0286,30.8678,127.742,99.2387,91.8461,0.00162359,0.135624,20.8914,27.3846,0.685961,0.0,0.0
3852,962.75,29.8462,31.2364,129.975,99.2467,91.2717,0.00154274,0.137587,20.8892,27.3246,0.742261,0.0,0.0
3864,965.75,29.7071,31.1606,134.393,99.2375,91.3369,0.00162242,0.139552,20.8875,27.2645,0.735116,0.0,0.0
3876,968.75,30.2499,32.033,133.337,99.2407,92.243,0.00152796,0.143479,20.8818,27.2145,0.647931,0.0,0.0
3888,971.75,30.8151,32.3991,131.085,99.2379,90.9771,0.00168046,0.146479,20.8789,27.1344,0.770132,0.0,0.0
3900,974.75,30.8551,32.3806,131.944,99.2352,91.12,0.00208454,0.148975,20.8731,27.0743,0.755977,0.0,0.0
3912,977.75,30.9763,32.719,130.987,99.2582,89.6717,0.00232045,0.154827,20.8635,27.0043,0.900006,0.0,0.0
3924,980.75,31.2844,32.8347,133.349,99.2399,90.7549,0.00246026,0.162267,20.8517,26.9342,0.791978,0.0,0.0
3936,983.75,31.8445,33.7188,130.312,99.2411,90.4964,0.00265115,0.170745,20.8398,26.8241,0.817351,0.0,0.0
3948,986.75,32.2369,34.1738,130.578,99.2391,89.2156,0.00288481,0.176338,20.8308,26.744,0.943483,0.0,0.0
3960,989.75,32.783,34.2638,127.249,99.2451,90.0778,0.00279057,0.182787,20.8196,26.654,0.858791,0.0,0.0
3972,992.75,32.6455,34.7224,132.193,99.2491,88.71,0.00274418,0.191137,20.8097,26.5739,0.994727,0.0,0.0
3984,995.75,33.5483,35.1339,124.944,99.2415,87.9283,0.00286323,0.202694,20.7974,26.4438,1.07248,0.0,0.0
3996,998.75,34.2592,36.1955,129.793,99.2391,88.1916,0.00293551,0.211677,20.7816,26.3337,1.04578,0.0,0.0
4008,1001.75,34.6787,36.3527,126.195,99.2292,88.256,0.00335694,0.221623,20.7636,26.2036,1.03842,0.0,0.0
4020,1004.75,35.4941,36.895,127.742,99.2308,87.9436,0.00392569,0.23487,20.743,26.0935,1.06998,0.0,1.0
4032,1007.75,35.5708,37.501,126.266,99.2121,88.4886,0.00418587,0.246811,20.7231,25.9633,1.01357,0.0,1.0
4044,1010.75,36.5594,38.4223,124.031,99.2002,87.341,0.0040928,0.25851,20.7045,25.8432,1.12817,0.0,1.0
4056,1013.75,36.9608,39.157,124.637,99.1692,87.0049,0.0041233,0.271797,20.6863,25.7031,1.15957,0.0,0.0
4068,1016.75,38.141,39.7959,131.711,99.1307,88.1211,0.00435056,0.283891,20.6711,25.543,1.04317,0.0,0.0
4080,1019.75,38.6241,40.437,122.849,99.05,86.6084,0.00466514,0.298407,20.6516,25.3528,1.18938,0.0,0.0
4092,1022.75,39.4933,41.994,122.896,98.9725,86.7501,0.00496286,0.314889,20.6211,25.2127,1.16796,0.0,0.0
4104,1025.75,40.5515,42.8183,121.763,98.8521,84.5515,0.00517053,0.347664,20.5659,24.9624,1.38464,0.0,0.0
4116,1028.75,41.6524,44.3892,115.603,98.7082,82.7422,0.00563969,0.388666,20.505,24.7322,1.56342,0.0,0.0
4128,1031.75,42.6919,45.9934,120.959,98.5616,83.3178,0.00634386,0.437159,20.4211,24.492,1.48882,0.0,0.0
4140,1034.75,44.3653,48.8667,118.089,98.3701,82.8992,0.00689385,0.479536,20.3638,24.1817,1.51621,0.0,0.0
4152,1037.75,46.4308,49.9798,116.138,98.1619,82.8694,0.00732408,0.504454,20.3284,23.9115,1.50062,0.0,0.0
4164,1040.75,48.4476,51.9992,116.525,97.9739,83.6644,0.00739858,0.528264,20.2968,23.6913,1.39904,0.0,0.0
4176,1043.75,50.1374,53.3002,119.37,97.7788,82.5743,0.00728114,0.536541,20.2858,23.371,1.49758,0.0,0.0
4188,1046.75,51.0145,55.3077,108.835,97.5996,83.6632,0.00728507,0.54413,20.2705,23.0807,1.36524,0.0,0.0
4200,1049.75,53.0033,57.2359,110.213,97.4506,82.7643,0.00740385,0.566946,20.2399,22.8105,1.44742,0.0,0.0
4212,1052.75,54.5922,58.6846,116.857,97.3389,82.6287,0.0075952,0.577031,20.231,22.5202,1.4518,0.0,0.0
4224,1055.75,56.0488,60.1708,116.244,97.288,81.7463,0.00790242,0.571221,20.2315,22.2,1.54229,0.0,0.0
4236,1058.75,57.0498,61.6285,113.706,97.2999,81.6485,0.00842197,0.581049,20.2149,21.9097,1.55399,0.0,0.0
4248,1061.75,57.9745,63.3638,115.573,97.3977,81.5213,0.00900279,0.589565,20.2041,21.6495,1.5767,0.0,0.0
4260,1064.75,59.302,64.4627,115.874,97.5388,79.5018,0.00959002,0.600946,20.1837,21.2691,1.8118,0.0,0.0
4272,1067.75,60.4456,66.0242,117.257,97.7351,79.2225,0.010232,0.608555,20.1656,20.9789,1.8608,0.0,0.0
4284,1070.75,61.6898,67.3795,112.533,97.9536,75.9149,0.0107238,0.632753,20.1275,20.6986,2.25849,0.0,0.0
4296,1073.75,62.9155,68.7296,109.807,98.1666,81.1627,0.0108102,0.648814,20.1066,20.3183,1.68545,0.0,0.0
4308,1076.75,64.3347,70.2395,107.784,98.3641,77.5178,0.010958,0.654412,20.0943,20.048,2.1104,0.0,0.0
4320,1079.75,65.4706,71.5868,108.511,98.5072,77.8913,0.0110536,0.668053,20.0749,19.7277,2.08068,0.0,0.0
4332,1082.75,66.3675,72.5853,112.203,98.5735,77.8615,0.0112585,0.670019,20.0706,19.3974,2.09004,0.0,0.0
4344,1085.75,67.4713,73.2881,115.625,98.5696,80.9268,0.0117374,0.660978,20.0785,19.0571,1.74754,0.0,0.0
4356,1088.75,68.595,75.3498,113.051,98.5076,76.8568,0.012109,0.663442,20.0821,18.6968,2.19919,0.0,0.0
4368,1091.75,69.2274,76.4293,114.627,98.3884,75.6122,0.0122973,0.658006,20.0843,18.4366,2.33313,0.0,0.0
4380,1094.75,70.3395,76.7376,116.975,98.26,78.6219,0.0120406,0.656531,20.0848,18.1063,1.9757,0.0,0.0
4392,1097.75,70.2592,78.1927,112.74,98.1603,77.364,0.0120131,0.657579,20.0839,17.826,2.10961,0.0,0.0
4404,1100.75,71.5863,78.4492,118.1,98.299,76.4744,0.0125034,0.644019,20.1015,17.4857,2.2246,0.0,0.0
4416,1103.75,71.6256,79.3129,118.263,98.7047,76.7558,0.0133193,0.632897,20.1114,17.1854,2.22856,0.0,0.0
4428,1106.75,71.8647,79.8132,117.902,98.9471,76.0345,0.013526,0.642219,20.0999,16.9052,2.33396,0.0,0.0
4440,1109.75,72.7395,79.8125,108.918,98.9677,78.7189,0.0131974,0.643945,20.0965,16.5749,2.02836,0.0,0.0
4452,1112.75,72.6571,81.288,111.941,98.7961,78.223,0.0124345,0.644372,20.1009,16.3247,2.06898,0.0,0.0
4464,1115.75,72.8157,81.8135,113.874,98.4809,78.6312,0.0116931,0.621767,20.1459,16.0244,1.99455,0.0,0.0
4476,1118.75,73.6693,81.1578,113.751,98.6443,79.1392,0.0113298,0.588045,20.1899,15.6841,1.95218,0.0,0.0
4488,1121.75,73.0333,81.5779,119.11,98.9145,79.8669,0.0111243,0.570517,20.2118,15.3938,1.8953,0.0,0.0
4500,1124.75,74.3458,80.9852,118.58,99.1311,81.2874,0.0105805,0.554544,20.2399,15.2137,1.75847,0.0,0.0
4512,1127.75,74.0569,80.9925,117.269,99.2348,78.6585,0.0100578,0.531784,20.2798,15.0035,2.05904,0.0,0.0
4524,1130.75,73.188,80.2817,115.789,99.201,79.2547,0.00950861,0.507924,20.3069,14.7332,1.98912,0.0,0.0
4536,1133.75,71.8115,80.8264,116.949,98.9808,79.437,0.00889568,0.478051,20.3523,14.483,1.94907,0.0,0.0
4548,1136.75,71.8851,79.3876,120.929,98.6196,79.621,0.00830325,0.452854,20.3972,14.3129,1.89618,0.0,0.0
4560,1139.75,71.6889,78.59,119.888,98.1857,79.2905,0.00755544,0.429074,20.4367,14.1627,1.89396,0.0,0.0
4572,1142.75,70.6215,77.6413,122.064,97.7533,80.4739,0.00685316,0.405077,20.4746,13.9926,1.72358,0.0,0.0
4584,1145.75,69.6179,77.2376,118.157,97.4303,81.2713,0.00597178,0.382756,20.5098,13.7924,1.60688,0.0,0.0
4596,1148.75,68.6586,76.3931,122.693,97.2948,82.2475,0.00520205,0.352706,20.5617,13.7223,1.48875,0.0,0.0
4608,1151.75,67.7784,75.2948,122.361,97.3564,84.537,0.00459735,0.327596,20.5974,13.5922,1.25106,0.0,0.0
4620,1154.75,67.392,73.8953,123.318,97.5896,85.8855,0.00420116,0.307098,20.6266,13.4121,1.13204,0.0,0.0
4632,1157.75,66.0032,72.8038,123.902,97.935,86.957,0.00394333,0.280097,20.667,13.342,1.05347,0.0,0.0
4644,1160.75,64.7699,71.1138,124.398,98.2648,87.2018,0.00356324,0.255197,20.709,13.2219,1.05836,0.0,0.0
4656,1163.75,63.4883,71.1643,126.23,98.4925,88.3586,0.00317045,0.233861,20.7421,13.1418,0.962089,0.0,0.0
4668,1166.75,62.7711,68.7716,124.78,98.5803,89.0872,0.00288593,0.215725,20.7696,13.0617,0.897221,0.0,0.0
4680,1169.75,61.5834,67.5988,129.632,98.5159,88.9198,0.00271884,0.1978,20.8003,13.1018,0.908104,0.0,0.0
4692,1172.75,60.3897,66.438,130.215,98.3411,89.536,0.00272561,0.181644,20.8229,12.9717,0.831164,0.0,0.0
4704,1175.75,58.4396,65.6602,131.819,98.1889,89.0268,0.00268734,0.163477,20.848,12.8916,0.867976,0.0,0.0
4716,1178.75,57.6959,63.3604,130.722,98.0689,89.72,0.00253547,0.147502,20.8668,12.9216,0.788418,0.0,0.0
4728,1181.75,56.0946,62.2682,132.702,98.4698,90.6595,0.00230547,0.132366,20.8941,12.8716,0.732266,0.0,0.0
4740,1184.75,55.0175,60.7574,131.925,98.8124,91.3514,0.00217475,0.116218,20.9167,12.8215,0.695663,0.0,0.0
4752,1187.75,53.8725,59.4081,131.254,98.9443,92.598,0.00197933,0.104934,20.9321,12.8516,0.587383,0.0,0.0
4764,1190.75,52.6003,57.9643,133.343,98.8604,91.8948,0.00169182,0.0942169,20.9508,12.7515,0.64742,0.0,0.0
4776,1193.75,51.9215,55.6041,134.287,98.6006,91.8787,0.00140542,0.0843169,20.9641,12.7815,0.625649,0.0,0.0
4788,1196.75,50.5841,54.5209,138.937,98.4817,91.8284,0.0014139,0.0768614,20.9759,12.7715,0.619819,0.0,0.0
4800,1199.75,48.979,53.6978,135.876,98.6606,92.375,0.00138383,0.0715594,20.9825,12.7415,0.583303,0.0,0.0
4812,1202.75,47.7219,52.511,134.472,98.8596,91.77,0.00152879,0.067018,20.9888,12.7214,0.65939,0.0,0.0
4824,1205.75,45.9981,50.9285,137.304,99.0496,92.2768,0.00173695,0.0629476,20.9956,12.7014,0.6276,0.0,0.0
4836,1208.75,45.7075,49.6061,136.038,99.1764,92.5397,0.00169108,0.0599218,20.9996,12.7214,0.613729,0.0,0.0
4848,1211.75,44.1677,48.7377,132.127,99.2248,93.0283,0.00147923,0.0580133,21.0012,12.7114,0.571391,0.0,0.0
4860,1214.75,43.6269,47.1687,133.535,99.1946,92.7252,0.00122255,0.0572703,21.0016,12.7915,0.597611,0.0,0.0
4872,1217.75,42.6168,46.545,136.663,99.0834,92.1573,0.00101068,0.0567362,21.0018,12.7314,0.642109,0.0,0.0
4884,1220.75,42.2099,45.3967,136.033,98.8938,92.4559,0.00093682,0.0563579,21.0035,12.7314,0.59647,0.0,0.0
4896,1223.75,41.6937,44.7425,131.305,98.6534,91.9926,0.000951446,0.0561049,21.0035,12.7014,0.619418,0.0,0.0
4908,1226.75,41.211,43.9286,132.479,98.3999,91.5309,0.00115914,0.0556839,21.0024,12.7114,0.641201,0.0,0.0
4920,1229.75,40.1522,43.435,135.213,98.1201,91.7306,0.00130408,0.0557842,21.0018,12.7214,0.596666,0.0,0.0
4932,1232.75,39.9783,42.2914,138.477,97.8765,91.4045,0.00127502,0.0557743,21.0023,12.7214,0.606192,0.0,0.0
4944,1235.75,39.2327,41.8446,133.576,97.6719,91.0588,0.00130705,0.055589,21.0032,12.7214,0.621229,0.0,0.0
4956,1238.75,38.7368,40.8485,133.426,97.4827,90.8008,0.00112446,0.055272,21.0044,12.6914,0.629195,0.0,0.0
4968,1241.75,38.0746,40.3081,136.137,97.3691,91.2979,0.000839164,0.0547722,21.0063,12.6614,0.570479,0.0,0.0
4980,1244.75,37.7123,39.8363,134.568,97.3194,90.486,0.000815705,0.0547551,21.0054,12.7014,0.645109,0.0,0.0
4992,1247.75,37.4523,39.2862,134.178,97.2984,90.8527,0.000827169,0.0549284,21.0053,12.6614,0.607354,0.0,0.0
5004,1250.75,36.7398,38.8224,135.894,97.3178,91.6227,0.000889066,0.0550591,21.0054,12.6514,0.534341,0.0,0.0
5016,1253.75,36.3347,38.2049,132.934,97.3862,91.6787,0.000990964,0.0548001,21.006,12.7114,0.535154,0.0,0.0
5028,1256.75,35.4528,37.8497,131.046,97.4653,91.2468,0.00103938,0.0546537,21.0056,12.7114,0.58419,0.0,0.0
5040,1259.75,35.707,37.605,135.152,97.5769,91.3031,0.00104435,0.0547188,21.0059,12.6914,0.588865,0.0,0.0
5052,1262.75,35.3717,37.3449,135.125,97.6771,91.5615,0.00111664,0.0544814,21.0066,12.6814,0.572909,0.0,0.0
5064,1265.75,35.3561,36.9323,134.745,97.7943,91.9073,0.00110204,0.054252,21.0068,12.7014,0.550137,0.0,0.0
5076,1268.75,34.6034,36.6094,133.759,97.9052,92.0116,0.0011394,0.053715,21.0072,12.6814,0.550131,0.0,0.0
5088,1271.75,33.882,35.9303,133.962,98.0323,92.1822,0.00108777,0.0532715,21.0088,12.6314,0.545212,0.0,0.0
5100,1274.75,34.1649,35.7891,134.775,98.1257,92.0446,0.000945229,0.0533633,21.0093,12.6414,0.566891,0.0,0.0
5112,1277.75,34.351,35.4115,133.739,98.2131,92.1859,0.000867086,0.0535339,21.0094,12.7314,0.561191,0.0,0.0
5124,1280.75,33.7838,35.5372,133.865,98.2942,91.8014,0.000897119,0.0532813,21.0094,12.7114,0.605529,0.0,0.0
5136,1283.75,33.6879,34.6488,138.489,98.3562,91.9435,0.000960513,0.0528383,21.0097,12.7014,0.597412,0.0,0.0
5148,1286.75,33.3933,34.7076,135.238,98.4158,91.8594,0.000830287,0.0521814,21.0112,12.6914,0.610892,0.0,0.0
5160,1289.75,32.9419,34.2942,137.847,98.4503,92.2579,0.000828683,0.0514352,21.0133,12.6814,0.575646,0.0,0.0
5172,1292.75,32.8336,33.9106,133.346,98.4817,92.5356,0.000944766,0.0509291,21.0129,12.6714,0.551836,0.0,0.0
5184,1295.75,32.459,33.9092,139.604,98.5151,92.2293,0.000869617,0.0508517,21.0121,12.6814,0.584219,0.0,0.0
5196,1298.75,32.6962,33.2566,133.449,98.533,92.4519,0.000834151,0.0504309,21.0119,12.6314,0.564468,0.0,0.0
5208,1301.75,32.5523,33.1787,137.776,98.5461,92.3754,0.000911644,0.0498883,21.0118,12.6614,0.57298,0.0,0.0
5220,1304.75,32.04,33.3964,134.879,98.5557,92.3275,0.000769522,0.0494103,21.012,12.6914,0.578433,0.0,0.0
5232,1307.75,31.8261,32.8891,137.533,98.5652,92.3787,0.00055611,0.0490484,21.0135,12.6414,0.574386,0.0,0.0
5244,1310.75,30.8812,32.8153,132.738,98.5529,92.2889,0.000615867,0.0484839,21.0139,12.6514,0.581892,0.0,0.0
5256,1313.75,31.5022,32.7799,133.398,98.541,92.3243,,0.0481422,,12.6314,0.577421,0.0,0.0
5268,1316.75,31.7487,32.62,138.586,98.5374,92.5216,,,,12.6314,0.558189,0.0,0.0
5280,1319.75,31.5479,32.2558,134.158,98.5274,92.6093,,,,12.6213,0.548895,0.0,0.0
5291,1322.5,30.8793,32.3077,135.814,98.4941,91.8264,,,,12.6814,0.621121,0.0,0.0