File: 01_Data/Nylon_Carpet_LowPile/Cone/Nylon_Carpet_Low_Pile_Cone_HF75Scan_220318_R2.csv
Names,Time,Stack TC,Smoke TC,Exh Press,Smoke Comp,Smoke Meas,CO Meter,CO2 Meter,O2 Meter,Sample Mass,Ext Coeff,Start Test,Flame Verif
Chan Gain,,500,500,1,1,1,1,1,1,1,1,1.0,1.0
Offset,,0,0,0.133174,0,0,0,0,0,0,0,0.0,0.0
Gain,,1,1,25.011,13.6925,14.0864,1,1,1,1.0009,1.00821,1.0,1.0
Units,sec,C,C,Pa,%,%,%,%,%,g,/m,,
Baseline,,54.5106,56.904,125.228,103.034,99.3408,0.000264893,0.0512983,21.006,-838.47,0.322959,,
3,0.5,53.2647,56.3886,125.13,103.017,99.8473,0.000138148,0.0531774,21.0038,-322.18,0.276428,0.0,0.0
6,1.25,52.2761,55.2575,127.598,103.007,99.1685,0.000115949,0.0531646,21.0035,-322.19,0.335895,0.0,0.0
9,2,51.9855,54.455,122.935,102.994,98.8263,0.000104111,0.0530584,21.0035,-322.18,0.36528,0.0,0.0
12,2.75,52.0747,54.4649,123.416,103.011,98.7395,0.000112708,0.0529881,21.0039,-322.19,0.374526,0.0,0.0
15,3.5,52.1778,54.0837,127.459,103.004,99.3091,0.000129848,0.052949,21.0042,-322.2,0.323045,0.0,0.0
18,4.25,52.1093,54.7442,126.792,102.996,98.3208,0.000146979,0.0528819,21.0044,-322.21,0.410852,0.0,0.0
21,5,52.5356,54.5076,126.447,102.98,99.2764,0.00016636,0.0527653,21.0045,-322.25,0.323946,0.0,0.0
24,5.75,52.1874,54.626,125.789,102.984,99.3748,0.000180489,0.0526229,21.0046,-322.25,0.315539,0.0,0.0
27,6.5,52.0208,54.6339,124.033,102.991,99.2248,0.000181251,0.0524703,21.0047,-322.28,0.329439,0.0,0.0
30,7.25,52.0368,54.2969,124.18,102.992,98.8706,0.000165497,0.052359,21.0056,-322.26,0.361139,0.0,0.0
33,8,52.1058,54.7865,122.516,102.98,99.6938,0.000143678,0.052278,21.0065,-322.28,0.286838,0.0,0.0
36,8.75,51.9082,54.7721,127.178,102.979,99.2674,0.000142354,0.0522188,21.0072,-322.33,0.324678,0.0,0.0
39,9.5,52.3573,54.4461,124.355,102.983,98.7511,0.000147607,0.0521758,21.0075,-322.36,0.371118,0.0,0.0
42,10.25,52.5918,54.6331,126.541,102.988,99.7364,0.000192806,0.052183,21.0077,-322.37,0.283745,0.0,0.0
45,11,52.1905,54.7959,126.845,102.981,98.8521,0.000260835,0.0522167,21.0072,-322.41,0.361895,0.0,0.0
48,11.75,52.2909,54.6287,123.993,102.98,97.9996,0.000325382,0.0522901,21.0064,-322.43,0.438385,0.0,0.0
51,12.5,52.4699,54.7814,122.81,102.987,98.3762,0.000417336,0.0526131,21.0056,-322.47,0.405113,0.0,0.0
54,13.25,52.6744,54.8175,122.737,102.974,97.3428,0.000518187,0.0529484,21.0038,-322.47,0.497324,0.0,0.0
57,14,52.5117,54.9234,123.262,102.974,97.3608,0.000649536,0.0533635,21.002,-322.47,0.495757,0.0,0.0
60,14.75,51.5659,54.8242,127.093,102.969,95.3662,0.000835363,0.0539949,20.9999,-322.46,0.678359,0.0,0.0
63,15.5,52.6292,54.3886,122.884,102.971,92.6605,0.00100092,0.0546695,20.9971,-322.5,0.933047,0.0,0.0
66,16.25,52.3506,55.1506,125.464,102.969,93.1703,0.00120321,0.0555275,20.992,-322.51,0.884411,0.0,0.0
69,17,52.7626,54.7976,125.698,102.974,90.588,0.00140221,0.0590664,20.9754,-322.52,1.13338,0.0,0.0
72,17.75,52.3783,54.992,121.279,102.974,92.8475,0.0016378,0.0680747,20.9436,-322.65,0.915539,0.0,0.0
75,18.5,52.6431,55.1577,112.757,102.97,97.5414,0.00185009,0.0835106,20.8891,-322.73,0.478975,0.0,1.0
78,19.25,52.7824,55.1227,112.192,102.976,96.3536,0.00207417,0.117032,20.8221,-322.73,0.587832,0.0,1.0
81,20,53.4683,55.8755,107.409,102.979,95.294,0.00228203,0.158699,20.749,-322.79,0.685956,0.0,1.0
84,20.75,54.0354,56.3317,110.142,102.973,95.4109,0.00250965,0.204466,20.6835,-322.901,0.674537,0.0,1.0
87,21.5,54.1846,56.5953,106.811,102.972,94.8379,0.00274558,0.251591,20.6148,-323.061,0.727742,0.0,1.0
90,22.25,55.451,57.8411,108.348,102.968,95.8597,0.00297914,0.304057,20.5428,-323.121,0.63264,0.0,1.0
93,23,55.2579,57.6415,106.101,102.971,96.2767,0.00320364,0.350027,20.4624,-323.201,0.594539,0.0,1.0
96,23.75,56.3011,58.3609,104.28,102.97,94.4419,0.00344111,0.397276,20.3886,-323.291,0.764597,0.0,0.0
99,24.5,57.041,61.3167,101.926,102.967,95.0309,0.0036648,0.441461,20.3221,-323.391,0.70933,0.0,0.0
102,25.25,58.7773,59.1819,103.593,102.989,94.9488,0.00389885,0.480312,20.2643,-323.481,0.718877,0.0,0.0
105,26,59.1002,61.4031,99.6907,102.965,94.2506,0.00409053,0.515299,20.2184,-323.581,0.782062,0.0,0.0
108,26.75,60.4774,63.1143,105.559,102.964,94.009,0.00429336,0.543096,20.1786,-323.651,0.80469,0.0,0.0
111,27.5,60.7917,63.9655,108.14,102.955,95.5613,0.00448702,0.567281,20.1408,-323.731,0.659094,0.0,0.0
114,28.25,61.6173,64.695,93.6471,102.967,96.0071,0.00466054,0.592658,20.1095,-323.831,0.618939,0.0,0.0
117,29,62.3976,66.1338,98.3092,102.947,94.7295,0.00478703,0.619387,20.0744,-323.982,0.735696,0.0,0.0
120,29.75,63.4702,67.0687,97.7551,102.96,94.8125,0.00497301,0.64238,20.0436,-324.112,0.729102,0.0,0.0
123,30.5,64.6957,68.1597,99.3579,102.96,94.4819,0.00515573,0.674159,20.0046,-324.252,0.759956,0.0,0.0
126,31.25,65.8591,69.3061,96.4384,102.956,94.3641,0.00530902,0.704719,19.9618,-324.362,0.770702,0.0,0.0
129,32,66.7508,70.7106,98.2741,102.961,95.1375,0.00550239,0.73015,19.9245,-324.452,0.698875,0.0,0.0
132,32.75,67.8888,72.1851,97.191,102.953,95.3907,0.00567075,0.752277,19.8904,-324.602,0.674723,0.0,0.0
135,33.5,69.2477,73.5596,97.7764,102.959,96.1013,0.00580517,0.774543,19.8656,-324.692,0.609553,0.0,0.0
138,34.25,69.9335,74.5046,100.02,102.96,95.3133,0.0059206,0.791497,19.8474,-324.852,0.682475,0.0,0.0
141,35,71.0457,75.8028,99.7877,102.965,95.1052,0.00599532,0.803636,19.8373,-324.932,0.702232,0.0,0.0
144,35.75,72.215,77.0834,93.7242,102.96,94.5236,0.00609511,0.812109,19.8256,-325.002,0.75609,0.0,0.0
147,36.5,73.0788,78.4019,95.9522,102.955,93.8066,0.00621947,0.818067,19.817,-325.143,0.823004,0.0,0.0
150,37.25,73.914,79.183,97.5826,102.958,92.9674,0.00634384,0.823233,19.8077,-325.273,0.902723,0.0,0.0
153,38,74.6957,80.3698,93.2403,102.965,93.3651,0.00645283,0.826861,19.7947,-325.383,0.865586,0.0,0.0
156,38.75,75.9084,81.3232,98.4664,102.96,94.6036,0.00653902,0.833601,19.7791,-325.533,0.748612,0.0,0.0
159,39.5,76.7975,82.4344,93.9448,102.96,94.6053,0.00659615,0.841662,19.7619,-325.553,0.748415,0.0,0.0
162,40.25,77.7027,83.4678,93.3861,102.949,94.9978,0.00661686,0.851061,19.7446,-325.693,0.710867,0.0,0.0
165,41,78.4889,84.5292,97.6116,102.964,92.731,0.00664578,0.865707,19.7242,-325.813,0.925747,0.0,0.0
168,41.75,79.5044,85.6324,99.177,102.951,94.5129,0.00670651,0.880474,19.7026,-325.903,0.756306,0.0,0.0
171,42.5,80.1584,86.6,97.1376,102.95,92.4563,0.00681493,0.892983,19.6832,-326.013,0.950799,0.0,0.0
174,43.25,81.7479,87.8375,93.2739,102.949,91.4942,0.00702185,0.905562,19.6675,-326.123,1.0432,0.0,0.0
177,44,82.6113,89.4033,93.2586,102.943,89.282,0.00731797,0.916206,19.639,-326.214,1.25916,0.0,0.0
180,44.75,83.0441,89.9221,89.8139,102.952,88.7563,0.00768902,0.934723,19.6061,-326.354,1.31218,0.0,0.0
183,45.5,83.5712,90.8369,94.7371,102.947,88.1686,0.00822643,0.959652,19.561,-326.454,1.37046,0.0,0.0
186,46.25,84.7905,92.3459,87.2974,102.944,88.5022,0.00878586,0.989602,19.4956,-326.624,1.33685,0.0,0.0
189,47,85.8191,93.537,95.4965,102.937,86.9783,0.00926517,1.02324,19.437,-326.764,1.48981,0.0,0.0
192,47.75,86.953,94.584,97.3017,102.938,87.7229,0.00982645,1.06048,19.3757,-326.874,1.4145,0.0,0.0
195,48.5,87.8383,95.587,84.1947,102.925,85.1814,0.01039,1.09894,19.3084,-327.024,1.67347,0.0,0.0
198,49.25,89.5984,97.6835,91.4351,102.927,84.4269,0.0109104,1.13705,19.2568,-327.194,1.75225,0.0,0.0
201,50,90.5997,98.9689,89.0247,102.921,86.7363,0.0114493,1.17135,19.2148,-327.335,1.51309,0.0,0.0
204,50.75,91.9005,100.624,85.577,102.919,83.0324,0.0119121,1.19913,19.1786,-327.455,1.89887,0.0,0.0
207,51.5,93.2241,102.573,90.7932,102.909,86.2264,0.012369,1.22394,19.1522,-327.565,1.56419,0.0,0.0
210,52.25,94.2514,103.738,91.5557,102.916,83.728,0.0127021,1.24574,19.1289,-327.705,1.82488,0.0,0.0
213,53,95.6079,104.209,89.5048,102.903,85.9393,0.0131794,1.26321,19.1051,-327.865,1.59319,0.0,0.0
216,53.75,96.5438,105.948,89.1957,102.91,82.4877,0.0136104,1.28184,19.0824,-327.995,1.95632,0.0,0.0
219,54.5,97.3838,107.371,89.5483,102.906,84.1303,0.01396,1.29788,19.0638,-328.165,1.78162,0.0,0.0
222,55.25,98.7194,108.808,86.3136,102.905,82.2406,0.014358,1.31062,19.0467,-328.255,1.9824,0.0,0.0
225,56,99.3241,110.238,89.24,102.896,81.4023,0.0147092,1.32093,19.0299,-328.416,2.07225,0.0,0.0
228,56.75,100.946,111.359,87.2028,102.899,81.0111,0.0151665,1.33019,19.0149,-328.576,2.11514,0.0,0.0
231,57.5,101.462,112.385,92.3068,102.882,79.9372,0.0156295,1.33846,19.0016,-328.656,2.23172,0.0,0.0
234,58.25,103.118,114.089,90.6184,102.894,79.3302,0.0161421,1.34514,18.989,-328.866,2.3001,0.0,0.0
237,59,103.686,115.024,90.6116,102.88,77.8145,0.0166277,1.35201,18.9758,-328.976,2.46957,0.0,0.0
240,59.75,104.401,116.269,94.4669,102.889,78.6661,0.0170862,1.3592,18.96,-329.116,2.37406,0.0,0.0
243,60.5,106.523,117.335,89.2705,102.88,77.8631,0.017546,1.36669,18.9484,-329.316,2.46401,0.0,0.0
246,61.25,106.038,117.787,88.3309,102.872,78.5444,0.0179348,1.37439,18.94,-329.436,2.38624,0.0,0.0
249,62,107.444,119.034,88.4255,102.866,76.9495,0.0183707,1.38067,18.9338,-329.567,2.56717,0.0,0.0
252,62.75,108.893,120.244,89.804,102.868,77.474,0.0188053,1.38582,18.9294,-329.707,2.50731,0.0,0.0
255,63.5,108.634,121.481,83.3505,102.852,76.3739,0.0192108,1.39009,18.9262,-329.837,2.63235,0.0,0.0
258,64.25,110.096,122.563,92.5045,102.85,74.5009,0.0196224,1.39101,18.9264,-330.007,2.8518,0.0,0.0
261,65,110.468,123.323,89.6071,102.857,73.8548,0.0200304,1.39075,18.9304,-330.127,2.92948,0.0,0.0
264,65.75,111.659,124.902,96.2109,102.854,73.5148,0.0204277,1.3861,18.9421,-330.287,2.96997,0.0,0.0
267,66.5,112.394,125.599,93.2319,102.844,75.0593,0.0208762,1.37971,18.952,-330.437,2.78522,0.0,0.0
270,67.25,112.438,125.966,95.3141,102.839,70.2146,0.0213255,1.37317,18.9607,-330.588,3.37488,0.0,0.0
273,68,113.55,126.93,90.6138,102.835,70.3027,0.0217052,1.36656,18.9686,-330.678,3.3635,0.0,0.0
276,68.75,114.16,128.236,86.193,102.829,67.5729,0.0221358,1.36017,18.9758,-330.808,3.71321,0.0,0.0
279,69.5,114.503,128.791,94.518,102.826,70.727,0.022573,1.3531,18.9834,-330.928,3.30953,0.0,0.0
282,70.25,115.633,129.231,93.0823,102.821,68.21,0.0229903,1.34496,18.9983,-331.108,3.62949,0.0,0.0
285,71,115.783,130.026,90.8726,102.816,64.8174,0.02343,1.3324,19.0153,-331.208,4.08033,0.0,0.0
288,71.75,115.733,130.507,91.8351,102.806,65.2584,0.0237921,1.32043,19.0379,-331.358,4.01949,0.0,0.0
291,72.5,116.657,131.603,95.666,102.81,66.8658,0.024127,1.29875,19.0757,-331.478,3.80459,0.0,0.0
294,73.25,117.609,131.834,94.1394,102.807,66.4926,0.024412,1.27618,19.1093,-331.628,3.85383,0.0,0.0
297,74,117.702,132.066,94.4859,102.796,64.2237,0.0246314,1.25685,19.1439,-331.759,4.15991,0.0,0.0
300,74.75,118.446,132.479,94.5142,102.806,62.7329,0.0247816,1.23181,19.1732,-331.849,4.36856,0.0,0.0
303,75.5,118.373,132.792,96.975,102.798,64.3239,0.024891,1.20888,19.2018,-331.949,4.14634,0.0,0.0
306,76.25,118.538,133.312,95.8453,102.786,64.7649,0.024839,1.19018,19.2251,-332.089,4.08487,0.0,0.0
309,77,118.465,133.387,96.3086,102.787,62.4659,0.0246834,1.17061,19.2463,-332.169,4.40459,0.0,0.0
312,77.75,118.053,133.435,97.7337,102.783,63.3261,0.0244651,1.15381,19.2727,-332.319,4.28331,0.0,0.0
315,78.5,118.72,133.159,95.5492,102.786,63.5673,0.0241627,1.13564,19.3034,-332.389,4.24998,0.0,0.0
318,79.25,118.887,133.759,97.552,102.775,67.5127,0.0237344,1.11224,19.3373,-332.499,3.71641,0.0,0.0
321,80,118.726,133.706,96.7735,102.778,66.2089,0.0232847,1.08596,19.3914,-332.549,3.8892,0.0,0.0
324,80.75,118.039,133.328,100.788,102.796,68.4873,0.0228288,1.05921,19.4466,-332.689,3.59153,0.0,0.0
327,81.5,118.875,133.773,100.33,102.822,64.1652,0.0222866,1.03346,19.4922,-332.769,4.17023,0.0,0.0
330,82.25,118.988,133.946,105.286,102.859,69.7193,0.0218913,1.00483,19.5345,-332.88,3.4392,0.0,0.0
333,83,118.766,133.923,96.8368,102.882,66.8275,0.0214364,0.978043,19.5605,-332.95,3.81587,0.0,0.0
336,83.75,118.405,133.224,98.9977,102.915,70.4708,0.0209107,0.950151,19.5962,-333.04,3.34928,0.0,0.0
339,84.5,118.618,133.272,98.8442,102.945,68.005,0.0202329,0.927327,19.6316,-333.17,3.66679,0.0,0.0
342,85.25,117.978,133.406,103.236,102.96,70.7975,0.0195793,0.901402,19.6742,-333.26,3.31221,0.0,0.0
345,86,118.107,133.206,102.379,102.986,66.2231,0.0189657,0.885375,19.7174,-333.34,3.90516,0.0,0.0
348,86.75,118.363,132.963,106.596,103,71.6873,0.0184002,0.858516,19.7604,-333.43,3.20519,0.0,0.0
351,87.5,118.196,132.95,104.22,103.025,72.5785,0.0177844,0.83242,19.8019,-333.49,3.09808,0.0,0.0
354,88.25,117.696,132.133,102.921,103.043,71.6972,0.0172024,0.808338,19.8406,-333.58,3.20767,0.0,0.0
357,89,117.649,132.05,103.386,103.058,71.9509,0.0167214,0.783605,19.8759,-333.64,3.17765,0.0,0.0
360,89.75,116.916,131.385,106.284,103.096,73.771,0.0162199,0.760702,19.9054,-333.69,2.95998,0.0,0.0
363,90.5,116.683,131.456,105.761,103.111,76.4522,0.0157423,0.739749,19.9332,-333.72,2.64561,0.0,0.0
366,91.25,116.569,131.371,106.195,103.142,74.0663,0.0153124,0.72075,19.9616,-333.82,2.92862,0.0,0.0
369,92,115.748,130.64,108.815,103.153,74.4291,0.0148681,0.704863,19.9844,-333.85,2.88634,0.0,0.0
372,92.75,116.054,130.592,102.705,103.171,73.532,0.014498,0.689801,20.0079,-333.921,2.99513,0.0,0.0
375,93.5,116.065,130.521,103.996,103.186,76.7664,0.0141492,0.674819,20.0305,-333.971,2.61575,0.0,0.0
378,94.25,115.662,129.985,103.28,103.21,70.7794,0.0137995,0.662312,20.0521,-334.031,3.33587,0.0,0.0
381,95,115.51,130.129,106.575,103.223,74.571,0.0134969,0.650483,20.0733,-334.151,2.87551,0.0,0.0
384,95.75,114.719,129.261,107.24,103.24,76.1233,0.0132561,0.637029,20.0943,-334.211,2.69477,0.0,0.0
387,96.5,114.303,128.746,106.459,103.257,74.4347,0.0129855,0.624084,20.1121,-334.281,2.89462,0.0,0.0
390,97.25,114.539,129.293,107.369,103.275,77.8145,0.0127477,0.61331,20.1295,-334.371,2.50345,0.0,0.0
393,98,114.122,128.312,105.427,103.282,74.6394,0.0124209,0.600468,20.1421,-334.421,2.87249,0.0,0.0
396,98.75,113.612,128.155,109.334,103.295,76.5179,0.0121827,0.589687,20.1583,-334.471,2.65376,0.0,0.0
399,99.5,113.812,128.054,107.337,103.325,73.3102,0.0117652,0.5794,20.173,-334.501,3.03502,0.0,0.0
402,100.25,113.158,127.257,108.418,103.345,74.2851,0.0113755,0.569632,20.1867,-334.561,2.91997,0.0,0.0
405,101,113.199,127.411,109.758,103.347,74.2632,0.0110124,0.561544,20.1994,-334.641,2.92268,0.0,0.0
408,101.75,112.651,127.083,110.474,103.36,77.9009,0.0106746,0.554473,20.2125,-334.681,2.5009,0.0,0.0
411,102.5,112.112,126.428,106.623,103.37,73.7998,0.0103271,0.54731,20.2243,-334.771,2.98005,0.0,0.0
414,103.25,111.525,125.475,111.056,103.387,78.3686,0.0100738,0.54009,20.2369,-334.831,2.45024,0.0,0.0
417,104,111.437,125.568,106.503,103.397,78.4834,0.00969061,0.532223,20.2535,-334.861,2.43816,0.0,0.0
420,104.75,110.863,125.02,111.885,103.41,78.1317,0.00954307,0.524387,20.2603,-334.921,2.47902,0.0,0.0
423,105.5,110.594,124.334,105.353,103.412,75.6762,0.00936152,0.517779,20.2734,-334.981,2.7616,0.0,0.0
426,106.25,110.144,124.197,111.048,103.426,76.7058,0.00923097,0.510258,20.2869,-335.021,2.64323,0.0,0.0
429,107,109.796,123.73,110.133,103.437,81.2875,0.00912065,0.500252,20.3012,-335.092,2.13116,0.0,0.0
432,107.75,109.846,123.43,109.169,103.447,78.5418,0.0090165,0.494488,20.3164,-335.132,2.4359,0.0,0.0
435,108.5,109.485,123.231,108.039,103.461,80.1492,0.00891106,0.485646,20.3331,-335.172,2.25788,0.0,0.0
438,109.25,108.848,122.373,113.119,103.472,78.4116,0.00878386,0.47722,20.3496,-335.222,2.45272,0.0,0.0
441,110,108.915,122.181,113.633,103.491,79.2524,0.00871884,0.469285,20.3581,-335.242,2.35996,0.0,0.0
444,110.75,108.595,121.957,110.172,103.496,80.5227,0.00856651,0.461069,20.3705,-335.302,2.21975,0.0,0.0
447,111.5,108.107,121.347,110.702,103.505,79.6488,0.00839889,0.453761,20.3814,-335.372,2.31705,0.0,0.0
450,112.25,107.674,120.887,111.08,103.518,80.6947,0.00825257,0.447871,20.3905,-335.432,2.20278,0.0,0.0
453,113,107.571,120.546,108.679,103.528,80.6238,0.00804923,0.443464,20.4009,-335.462,2.21142,0.0,0.0
456,113.75,107.197,120.179,111.312,103.536,78.8458,0.00777006,0.437418,20.4137,-335.552,2.40927,0.0,0.0
459,114.5,106.72,119.541,111.321,103.546,79.2047,0.00765534,0.431379,20.4196,-335.602,2.36996,0.0,0.0
462,115.25,106.17,119.562,113.018,103.561,82.8978,0.00744071,0.425613,20.429,-335.622,1.96827,0.0,0.0
465,116,105.774,118.84,111.237,103.571,82.1021,0.00725425,0.420085,20.4383,-335.642,2.05436,0.0,0.0
468,116.75,105.967,118.559,111.871,103.556,82.443,0.00710554,0.413362,20.4455,-335.692,2.0165,0.0,0.0
471,117.5,105.265,117.817,109.553,103.577,81.2054,0.00695261,0.409757,20.4535,-335.722,2.15205,0.0,0.0
474,118.25,104.917,117.834,113.531,103.59,83.3759,0.00682615,0.404945,20.4613,-335.742,1.91985,0.0,0.0
477,119,105.075,117.34,109.507,103.596,81.3043,0.00671838,0.400332,20.4686,-335.772,2.14286,0.0,0.0
480,119.75,104.01,117.203,109.213,103.594,81.6469,0.0066241,0.396042,20.4758,-335.832,2.10549,0.0,0.0
483,120.5,104.084,116.392,110.775,103.607,83.6278,0.0065622,0.391843,20.4795,-335.872,1.89459,0.0,0.0
486,121.25,103.672,116.248,112.772,103.609,83.6553,0.00649069,0.387626,20.4864,-335.932,1.8919,0.0,0.0
489,122,103.317,115.722,110.159,103.625,82.4417,0.00641612,0.383077,20.4932,-335.942,2.02252,0.0,0.0
492,122.75,102.964,115.527,112.922,103.629,81.7926,0.00633253,0.37878,20.4992,-336.002,2.09272,0.0,0.0
495,123.5,102.693,114.925,112.353,103.624,83.5805,0.00623798,0.376291,20.5061,-336.052,1.90106,0.0,0.0
498,124.25,102.138,114.436,114.966,103.635,85.4905,0.00616905,0.372781,20.5129,-336.092,1.70219,0.0,0.0
501,125,102.053,114.285,109.679,103.643,82.7332,0.00604784,0.369138,20.5186,-336.102,1.99284,0.0,0.0
504,125.75,101.492,113.681,109.169,103.64,82.2655,0.00592924,0.365325,20.5243,-336.173,2.04273,0.0,0.0
507,126.5,101.025,113.523,114.505,103.644,84.5946,0.00579496,0.362545,20.5292,-336.223,1.79611,0.0,0.0
510,127.25,100.86,113.032,111.561,103.647,83.979,0.00568589,0.359388,20.5332,-336.253,1.86095,0.0,0.0
513,128,100.857,112.299,111.591,103.655,84.9944,0.00560423,0.357087,20.5374,-336.303,1.75534,0.0,0.0
516,128.75,100.542,112.202,115.107,103.658,85.2007,0.00554917,0.354147,20.5412,-336.313,1.73421,0.0,0.0
519,129.5,100.436,112.047,115.638,103.671,83.8466,0.00551435,0.351425,20.5451,-336.383,1.87697,0.0,0.0
522,130.25,100.055,111.344,117.593,103.673,83.8174,0.00548151,0.349193,20.5492,-336.423,1.8802,0.0,0.0
525,131,99.6264,111.413,111.81,103.661,86.3214,0.0054544,0.346743,20.5529,-336.433,1.61889,0.0,0.0
528,131.75,99.2503,111.018,112.824,103.66,82.9039,0.00541975,0.344331,20.5568,-336.473,1.97605,0.0,0.0
531,132.5,99.3614,110.477,113.906,103.656,85.2562,0.00538814,0.342038,20.5605,-336.503,1.72828,0.0,0.0
534,133.25,99.0089,110.173,108.839,103.662,85.1358,0.00536333,0.339906,20.5638,-336.573,1.74124,0.0,0.0
537,134,98.5353,109.8,117.021,103.671,85.564,0.00534648,0.337745,20.5666,-336.573,1.69769,0.0,0.0
540,134.75,97.8852,109.387,112.408,103.671,84.5005,0.00533472,0.335912,20.5704,-336.613,1.80824,0.0,0.0
543,135.5,97.7808,108.945,115.899,103.669,87.0987,0.00531554,0.333418,20.5739,-336.643,1.5403,0.0,0.0
546,136.25,97.4249,108.321,111.909,103.668,84.8925,0.00529764,0.330807,20.5783,-336.673,1.76712,0.0,0.0
549,137,97.3137,108.245,115.239,103.676,84.7889,0.00527789,0.328565,20.583,-336.713,1.7786,0.0,0.0
552,137.75,97.1261,107.997,111.684,103.665,85.8021,0.00525112,0.325623,20.5869,-336.753,1.67258,0.0,0.0
555,138.5,96.6738,107.826,111.908,103.672,86.6507,0.00522182,0.323013,20.5922,-336.773,1.58611,0.0,0.0
558,139.25,96.5247,107.356,114.143,103.676,85.6087,0.00518373,0.320316,20.5963,-336.823,1.6935,0.0,0.0
561,140,96.0345,106.864,112.161,103.676,84.8224,0.00514182,0.317632,20.5997,-336.843,1.77507,0.0,0.0
564,140.75,96.0512,106.861,113.942,103.675,85.6835,0.00511258,0.315461,20.6035,-336.913,1.68564,0.0,0.0
567,141.5,95.8428,106.553,113.586,103.683,84.9325,0.00509479,0.31351,20.6075,-336.963,1.76417,0.0,0.0
570,142.25,95.4876,106.07,115.554,103.679,86.3244,0.0050821,0.311383,20.611,-336.993,1.62008,0.0,0.0
573,143,95.4039,105.832,114.991,103.682,87.2723,0.0050695,0.30917,20.6155,-336.993,1.52378,0.0,0.0
576,143.75,95.003,105.58,114.365,103.691,87.3287,0.00504545,0.306938,20.6187,-337.033,1.51886,0.0,0.0
579,144.5,94.8598,105.108,112.749,103.693,84.4106,0.00502159,0.304844,20.6215,-337.033,1.81954,0.0,0.0
582,145.25,94.0004,104.835,111.957,103.706,85.9599,0.00500419,0.303083,20.6237,-337.103,1.65979,0.0,0.0
585,146,94.4105,104.718,114.985,103.701,88.4687,0.00491914,0.301454,20.6254,-337.153,1.40494,0.0,0.0
588,146.75,94.0046,104.361,113.272,103.703,87.8342,0.00485714,0.299846,20.6267,-337.153,1.46878,0.0,0.0
591,147.5,93.7003,103.754,113.865,103.702,85.5171,0.00478197,0.298674,20.6289,-337.203,1.70518,0.0,0.0
594,148.25,93.2161,103.613,115.503,103.697,87.4043,0.0047284,0.29695,20.632,-337.203,1.51167,0.0,0.0
597,149,92.9818,103.023,113.762,103.706,88.3002,0.00469378,0.295322,20.6347,-337.243,1.42223,0.0,0.0
600,149.75,93.1438,102.856,111.402,103.706,87.6291,0.00468076,0.293532,20.6369,-337.254,1.48977,0.0,0.0
603,150.5,92.3896,102.922,114.092,103.715,87.44,0.00467102,0.291806,20.6399,-337.314,1.50963,0.0,0.0
606,151.25,92.4302,102.472,114.15,103.711,87.1133,0.00466268,0.29027,20.643,-337.344,1.54241,0.0,0.0
609,152,92.1616,101.847,115.683,103.712,87.6119,0.00465607,0.288555,20.6464,-337.374,1.49197,0.0,0.0
612,152.75,91.9496,101.866,113.38,103.715,87.4288,0.00462654,0.287468,20.6489,-337.354,1.51076,0.0,0.0
615,153.5,91.9802,101.699,116.501,103.721,87.8191,0.00457432,0.285941,20.6507,-337.414,1.47186,0.0,0.0
618,154.25,91.5533,100.847,113.608,103.719,88.2009,0.0045018,0.284344,20.6533,-337.444,1.43336,0.0,0.0
621,155,91.3423,100.801,114.348,103.716,87.6867,0.00438736,0.282796,20.6556,-337.494,1.48477,0.0,0.0
624,155.75,91.0082,100.856,117.369,103.717,88.1093,0.00428123,0.281503,20.6577,-337.504,1.44236,0.0,0.0
627,156.5,90.6971,99.9552,118.064,103.727,88.3195,0.00416505,0.280078,20.6597,-337.514,1.42211,0.0,0.0
630,157.25,90.5958,100.247,110.704,103.722,86.6077,0.00405227,0.278959,20.6611,-337.574,1.59478,0.0,0.0
633,158,90.3993,99.5419,111.713,103.719,87.5677,0.0039681,0.277868,20.6621,-337.644,1.49701,0.0,0.0
636,158.75,90.0821,99.602,115.582,103.721,88.1093,0.00390342,0.276838,20.6647,-337.634,1.44265,0.0,0.0
639,159.5,89.9241,99.2192,112.842,103.728,88.0302,0.00385504,0.275658,20.6669,-337.644,1.45123,0.0,0.0
642,160.25,89.6084,98.8107,114.973,103.725,88.9308,0.0038173,0.274615,20.6688,-337.694,1.36093,0.0,0.0
645,161,89.4775,98.4273,113.581,103.722,89.8963,0.00378647,0.273462,20.6709,-337.714,1.26514,0.0,0.0
648,161.75,89.584,98.4723,115.154,103.732,88.1824,0.00376153,0.272436,20.6726,-337.764,1.43631,0.0,0.0
651,162.5,89.4814,98.3623,113.963,103.727,89.3156,0.00374295,0.271372,20.6743,-337.764,1.32289,0.0,0.0
654,163.25,88.751,98.0361,116.136,103.731,89.5275,0.00373051,0.270245,20.6761,-337.764,1.30229,0.0,0.0
657,164,88.6873,97.2758,112.86,103.728,86.5157,0.00373724,0.269114,20.6779,-337.814,1.60471,0.0,0.0
660,164.75,88.3177,97.6334,119.727,103.729,89.1041,0.00374953,0.268014,20.6794,-337.874,1.34411,0.0,0.0
663,165.5,88.2346,97.1183,113.749,103.728,89.2287,0.00376164,0.26693,20.6805,-337.934,1.3316,0.0,0.0
666,166.25,87.9542,96.9307,115.961,103.733,89.6225,0.00376431,0.266125,20.6815,-337.964,1.29309,0.0,0.0
669,167,87.6407,97.2045,115.981,103.727,88.3608,0.00376364,0.265579,20.6826,-337.974,1.41801,0.0,0.0
672,167.75,87.7717,96.7856,118.999,103.721,89.3521,0.00375261,0.265264,20.6835,-338.004,1.31881,0.0,0.0
675,168.5,88.0297,96.2635,118.821,103.722,88.7971,0.00374458,0.264946,20.6841,-338.044,1.37399,0.0,0.0
678,169.25,87.7427,95.9436,114.069,103.729,88.2159,0.00372468,0.264563,20.6846,-338.044,1.43267,0.0,0.0
681,170,87.4051,95.7429,113.298,103.713,88.9975,0.00371386,0.263828,20.6854,-338.074,1.35331,0.0,0.0
684,170.75,87.5211,95.515,116.776,103.717,88.4786,0.00370626,0.263097,20.6869,-338.124,1.40538,0.0,0.0
687,171.5,86.6966,95.4206,117.765,103.712,87.9954,0.0036985,0.261942,20.6892,-338.084,1.45334,0.0,0.0
690,172.25,86.7729,95.2336,115.033,103.715,90.1818,0.00367193,0.260532,20.6922,-338.144,1.23654,0.0,0.0
693,173,86.7158,95.0118,116.513,103.707,87.7409,0.00364365,0.258985,20.6949,-338.184,1.47857,0.0,0.0
696,173.75,86.7,94.8665,116.377,103.706,87.6713,0.0035722,0.257314,20.6978,-338.214,1.48552,0.0,0.0
699,174.5,86.03,94.609,116.687,103.724,89.6556,0.00350292,0.255474,20.7009,-338.244,1.28904,0.0,0.0
702,175.25,86.1399,94.4991,116.238,103.703,88.5628,0.00343927,0.253467,20.7044,-338.254,1.39575,0.0,0.0
705,176,86.3606,94.0106,117.68,103.697,89.6363,0.00338292,0.251312,20.7079,-338.314,1.28866,0.0,0.0
708,176.75,86.0098,93.8609,116.167,103.697,88.9476,0.00335535,0.249446,20.7107,-338.284,1.35691,0.0,0.0
711,177.5,85.8756,93.9219,114.062,103.685,89.0288,0.003341,0.24755,20.7128,-338.324,1.34777,0.0,0.0
714,178.25,85.4584,93.7275,114.923,103.676,90.2089,0.00336734,0.245792,20.7153,-338.354,1.23057,0.0,0.0
717,179,85.1762,93.1524,113.224,103.681,88.0466,0.00339883,0.244154,20.7174,-338.415,1.44553,0.0,0.0
720,179.75,85.286,93.1248,120.339,103.678,88.9506,0.00342703,0.242623,20.7189,-338.415,1.35494,0.0,0.0
723,180.5,84.6765,92.8702,119.029,103.671,89.3886,0.00345619,0.241386,20.7201,-338.445,1.31096,0.0,0.0
726,181.25,84.59,92.6862,114.764,103.664,89.537,0.00348435,0.240434,20.7209,-338.465,1.29565,0.0,0.0
729,182,84.7204,92.4699,115.769,103.666,90.5042,0.00351041,0.239868,20.7221,-338.495,1.20084,0.0,0.0
732,182.75,84.7289,92.3721,117.509,103.658,89.9625,0.00353643,0.239471,20.723,-338.545,1.25322,0.0,0.0
735,183.5,84.3771,91.949,114.562,103.656,90.0481,0.00356031,0.239209,20.7239,-338.575,1.24467,0.0,0.0
738,184.25,84.096,92.2248,111.267,103.653,89.8718,0.00358047,0.238898,20.7249,-338.585,1.26174,0.0,0.0
741,185,83.7943,92.0136,116.595,103.635,89.8534,0.00359627,0.238126,20.7276,-338.635,1.262,0.0,0.0
744,185.75,83.9332,91.4191,120.035,103.638,91.2844,0.00359795,0.237055,20.7295,-338.655,1.1225,0.0,0.0
747,186.5,83.8353,91.053,113.986,103.628,90.1659,0.00359498,0.235764,20.7309,-338.645,1.23072,0.0,0.0
750,187.25,83.4818,91.3753,113.969,103.639,90.5824,0.00354898,0.234628,20.7319,-338.685,1.19088,0.0,0.0
753,188,83.4177,90.9908,115.033,103.628,88.5173,0.00351545,0.233741,20.7327,-338.715,1.39392,0.0,0.0
756,188.75,83.3804,90.709,115.252,103.621,90.9895,0.00342095,0.233135,20.7337,-338.705,1.14969,0.0,0.0
759,189.5,83.3159,90.681,114.107,103.613,90.2372,0.00330792,0.232276,20.735,-338.755,1.2224,0.0,0.0
762,190.25,83.056,90.6206,113.72,103.609,89.9484,0.00319508,0.231472,20.7368,-338.775,1.25044,0.0,0.0
765,191,83.0183,90.2389,116.119,103.6,91.0127,0.00309298,0.229614,20.739,-338.815,1.14561,0.0,0.0
768,191.75,83.0377,89.9837,117.214,103.591,91.9026,0.00300952,0.227853,20.7423,-338.855,1.05878,0.0,0.0
771,192.5,82.5963,90.1103,116.618,103.587,91.3025,0.00293325,0.225876,20.7451,-338.875,1.11643,0.0,0.0
774,193.25,82.6114,90.0002,116.302,103.602,90.5923,0.00287765,0.223591,20.7476,-338.895,1.18674,0.0,0.0
777,194,82.3637,88.9293,112.884,103.579,91.0708,0.00283711,0.221926,20.7497,-338.895,1.13823,0.0,0.0
780,194.75,82.0025,89.6386,119.451,103.566,91.7681,0.00280931,0.220018,20.7529,-338.905,1.06963,0.0,0.0
783,195.5,81.8392,88.9491,116.262,103.574,91.3167,0.00278782,0.218137,20.7563,-338.935,1.11395,0.0,0.0
786,196.25,81.8247,88.749,118.312,103.559,92.4189,0.00276647,0.216435,20.7591,-338.985,1.00656,0.0,0.0
789,197,81.5573,88.7974,119.371,103.561,91.4147,0.0027421,0.214208,20.763,-338.975,1.10329,0.0,0.0
792,197.75,81.9839,88.5369,117.804,103.555,93.0087,0.00271037,0.212176,20.7666,-338.955,0.949942,0.0,0.0
795,198.5,81.4343,88.5245,114.903,103.559,93.154,0.00268723,0.209994,20.7704,-339.015,0.936422,0.0,0.0
798,199.25,81.7107,88.4776,117.91,103.548,92.2745,0.00263722,0.207569,20.7744,-339.035,1.01943,0.0,0.0
801,200,81.018,87.6546,115.471,103.556,93.8577,0.00257142,0.205085,20.7783,-339.035,0.869649,0.0,0.0
804,200.75,81.2709,87.4793,116.758,103.531,93.071,0.00251094,0.202969,20.7827,-339.045,0.941947,0.0,0.0
807,201.5,80.8288,87.6668,119.252,103.527,93.8079,0.00243876,0.200014,20.7868,-339.055,0.87185,0.0,0.0
810,202.25,80.6868,87.4467,118.733,103.523,94.7321,0.00237095,0.19721,20.7914,-339.075,0.784856,0.0,0.0
813,203,80.1456,87.2176,118.545,103.516,95.1203,0.00231603,0.194056,20.7969,-339.095,0.748012,0.0,0.0
816,203.75,80.5832,86.921,119.251,103.503,95.542,0.00227843,0.190398,20.8029,-339.115,0.707854,0.0,0.0
819,204.5,80.0314,86.5772,117.164,103.493,95.1087,0.00225077,0.187152,20.8087,-339.125,0.747198,0.0,0.0
822,205.25,79.8515,86.8995,115.081,103.48,95.5119,0.00222841,0.183303,20.8181,-339.145,0.708604,0.0,0.0
825,206,80.077,86.5317,115.476,103.475,96.0024,0.00218426,0.179028,20.8279,-339.145,0.662875,0.0,0.0
828,206.75,79.8358,86.2361,118.106,103.484,96.4052,0.00211033,0.174482,20.8376,-339.165,0.626632,0.0,0.0
831,207.5,79.8872,86.2844,118.596,103.455,96.71,0.00205643,0.169093,20.8466,-339.155,0.59625,0.0,0.0
834,208.25,79.2047,85.4561,118.034,103.439,97.3256,0.00195457,0.163546,20.8558,-339.195,0.538776,0.0,0.0
837,209,79.5057,85.6175,119.984,103.427,97.9833,0.00188031,0.15804,20.8637,-339.195,0.478139,0.0,0.0
840,209.75,78.8721,85.1638,119.751,103.421,97.7417,0.00178811,0.152703,20.8725,-339.225,0.499508,0.0,0.0
843,210.5,78.088,84.9254,120.121,103.412,98.1978,0.00172089,0.147153,20.8801,-339.215,0.457547,0.0,0.0
846,211.25,78.6135,84.7641,119.392,103.402,98.537,0.00168278,0.1424,20.889,-339.195,0.426195,0.0,0.0
849,212,78.2488,84.0864,120.08,103.39,99.1199,0.0016858,0.136358,20.8983,-339.205,0.373031,0.0,0.0
852,212.75,77.5787,84.4388,119.979,103.38,99.1036,0.00170882,0.131219,20.9076,-339.205,0.373595,0.0,0.0
855,213.5,77.5728,83.7414,122.634,103.36,98.8315,0.00174299,0.126219,20.9143,-339.195,0.396196,0.0,0.0
858,214.25,77.2407,83.5911,119.289,103.341,99.1801,0.00176789,0.121325,20.9211,-339.205,0.363443,0.0,0.0
861,215,77.1444,83.1292,121.972,103.329,98.4919,0.00179631,0.116995,20.9261,-339.185,0.423991,0.0,0.0
864,215.75,76.7453,83.1584,122.262,103.314,99.3177,0.00183459,0.113091,20.9315,-339.245,0.34886,0.0,0.0
867,216.5,76.2956,82.0382,121.547,103.306,99.0546,0.00187466,0.109523,20.9367,-339.225,0.371639,0.0,0.0
870,217.25,76.1636,81.7373,120.619,103.272,98.8603,0.00190266,0.106354,20.9416,-339.215,0.386107,0.0,0.0
873,218,75.8094,81.3961,123.636,103.267,99.242,0.0019166,0.103076,20.9446,-339.245,0.351593,0.0,0.0
876,218.75,75.2975,81.2493,122.01,103.256,98.8207,0.00189794,0.100314,20.9494,-339.235,0.388321,0.0,0.0
879,219.5,75.2383,81.1769,124.271,103.245,99.2622,0.00188433,0.0980108,20.9535,-339.245,0.347895,0.0,0.0
882,220.25,74.1054,80.4248,121.565,103.239,98.8968,0.00182043,0.096109,20.9571,-339.265,0.380046,0.0,0.0
885,221,74.5421,79.8099,122.281,103.218,98.457,0.00175995,0.0949487,20.9599,-339.275,0.417671,0.0,0.0
888,221.75,74.6571,79.9425,121.059,103.198,99.5287,0.00171586,0.0933665,20.962,-339.255,0.320171,0.0,0.0
891,222.5,74.5825,80.3666,122.584,103.212,98.8886,0.00170977,0.09186,20.9642,-339.265,0.378414,0.0,0.0
894,223.25,73.6019,79.5398,117.077,103.215,98.8452,0.00172117,0.0907044,20.9657,-339.275,0.382585,0.0,0.0
897,224,73.4967,79.2043,122.765,103.229,99.1087,0.00173879,0.0897638,20.9669,-339.285,0.360256,0.0,0.0
900,224.75,73.8825,78.9389,122.192,103.225,98.9574,0.00175602,0.0890231,20.9684,-339.305,0.373411,0.0,0.0
903,225.5,73.8363,78.6579,123.359,103.233,99.533,0.00175518,0.088373,20.9694,-339.275,0.322833,0.0,0.0
906,226.25,73.2703,78.3955,122.723,103.247,99.0572,0.00173729,0.0877506,20.97,-339.315,0.366399,0.0,0.0
909,227,73.0459,78.1798,123.587,103.241,99.3486,0.00169935,0.0871047,20.9712,-339.305,0.339915,0.0,0.0
912,227.75,72.5009,77.6172,119.114,103.244,99.0447,0.00163524,0.086458,20.9721,-339.255,0.367262,0.0,0.0
915,228.5,72.7053,77.8964,123.529,103.252,99.1079,0.0015885,0.0858259,20.9728,-339.275,0.3623,0.0,0.0
918,229.25,71.7569,77.3439,123.348,103.256,99.8284,0.00148509,0.0852422,20.9742,-339.285,0.298527,0.0,0.0
921,230,72.1553,77.1718,119.818,103.269,98.8779,0.00138286,0.0844091,20.9755,-339.295,0.384244,0.0,0.0
924,230.75,71.8558,76.4413,121.14,103.266,98.9867,0.00126246,0.0835302,20.9765,-339.285,0.374306,0.0,0.0
927,231.5,71.4259,76.8648,120.465,103.286,98.7064,0.00114009,0.0824792,20.9782,-339.325,0.401101,0.0,0.0
930,232.25,71.2691,76.2417,120.574,103.286,99.0438,0.00104195,0.0817131,20.9797,-339.315,0.370917,0.0,0.0
933,233,71.375,76.3315,124.777,103.293,99.7007,0.000948128,0.0807639,20.9808,-339.305,0.313066,0.0,0.0
936,233.75,70.863,75.9749,119.492,103.297,98.8156,0.000867737,0.0799215,20.9817,-339.265,0.392289,0.0,0.0
939,234.5,70.9787,76.0848,122.241,103.31,99.0868,0.000805677,0.0792432,20.9823,-339.285,0.369155,0.0,0.0
942,235.25,70.402,75.322,122.683,103.31,98.8663,0.000760435,0.0785145,20.9827,-339.305,0.388824,0.0,0.0
945,236,71.0207,75.178,121.481,103.318,98.641,0.000730909,0.0777919,20.9834,-339.345,0.409713,0.0,0.0
948,236.75,70.5444,75.1461,121.545,103.341,98.9978,0.00070454,0.0770109,20.9842,-339.325,0.379747,0.0,0.0
951,237.5,70.1498,75.1694,120.675,103.344,99.6895,0.000683251,0.0761463,20.9852,-339.355,0.318421,0.0,0.0
954,238.25,70.0912,74.9936,121.86,103.346,98.9884,0.000663907,0.0752156,20.9861,-339.345,0.381021,0.0,0.0
957,239,69.3724,74.1737,121.523,103.35,99.4247,0.000643268,0.074409,20.9863,-339.345,0.34241,0.0,0.0
960,239.75,69.7274,74.4466,122.342,103.364,98.7218,0.000624767,0.0734511,20.9865,-339.345,0.406367,0.0,0.0
963,240.5,69.9961,74.1346,124.691,103.37,99.1019,0.000604909,0.0727528,20.9866,-339.345,0.372926,0.0,0.0
966,241.25,69.5254,74.3415,121.723,103.39,99.5107,0.000579539,0.0717769,20.9874,-339.345,0.338197,0.0,0.0
969,242,69.4612,73.8066,122.092,103.388,99.0933,0.000529981,0.0709018,20.9879,-339.365,0.375265,0.0,0.0
972,242.75,69.3075,74.26,121.178,103.402,99.5593,0.000493853,0.0701224,20.9883,-339.365,0.334918,0.0,0.0
975,243.5,69.1011,73.2339,117.603,103.411,99.4797,0.000403721,0.0694316,20.989,-339.385,0.342736,0.0,0.0
978,244.25,68.755,73.6007,124.26,103.419,99.043,0.000311448,0.0686011,20.9897,-339.395,0.38233,0.0,0.0
981,245,69.2283,72.7556,122.149,103.424,99.3086,0.000232854,0.0678563,20.9902,-339.365,0.359103,0.0,0.0
984,245.75,68.0181,72.9081,118,103.434,99.3349,0.000161786,0.0671228,20.9906,-339.365,0.357626,0.0,0.0
987,246.5,68.7269,72.681,123.53,103.438,99.7007,0.000120841,0.0665068,20.9909,-339.405,0.325472,0.0,0.0
990,247.25,68.174,71.3247,125.47,103.454,98.9084,0.000100071,0.0657084,20.9911,-339.445,0.397389,0.0,0.0
993,248,68.1228,72.6476,124.397,103.444,99.0486,9.25366e-05,0.0649223,20.9918,-339.455,0.384009,0.0,0.0
996,248.75,67.9773,72.4583,120.868,103.447,99.3168,8.82519e-05,0.0641836,20.9926,-339.405,0.360304,0.0,0.0
999,249.5,68.0582,72.2488,121.81,103.46,99.2571,8.56434e-05,0.0635105,20.9936,-339.375,0.366735,0.0,0.0
1002,250.25,68.342,72.3682,122.443,103.464,98.5581,7.85752e-05,0.062826,20.9943,-339.385,0.429629,0.0,0.0
1005,251,67.992,72.2031,120.179,103.462,99.0305,7.34225e-05,0.0622483,20.9948,-339.355,0.387158,0.0,0.0
1008,251.75,67.5331,72.1873,122.987,103.494,99.6745,5.94623e-05,0.0616926,20.9957,-339.385,0.332585,0.0,0.0
1011,252.5,67.81,71.8834,122.973,103.483,99.2016,4.80782e-05,0.0611653,20.9964,-339.365,0.373713,0.0,0.0
1014,253.25,67.462,71.6778,121.975,103.491,99.748,4.56189e-05,0.0607288,20.9967,-339.365,0.325815,0.0,0.0
1017,254,67.1804,71.3743,122.825,103.495,99.748,5.46919e-05,0.0602749,20.997,-339.395,0.3261,0.0,0.0
1020,254.75,67.126,70.7848,125.69,103.498,99.0619,9.23169e-05,0.059908,20.9972,-339.395,0.387427,0.0,0.0
1023,255.5,67.1468,70.9579,122.223,103.51,99.4836,0.00014271,0.0595787,20.9973,-339.425,0.350857,0.0,0.0
1026,256.25,66.96,71.047,123.98,103.523,99.2854,0.000189236,0.0592436,20.9974,-339.425,0.369599,0.0,0.0
1029,257,66.9481,70.7947,125.706,103.515,99.3,0.000254602,0.0589374,20.9975,-339.445,0.36762,0.0,0.0
1032,257.75,66.3022,70.2971,119.066,103.52,99.849,0.000323304,0.0586775,20.9975,-339.466,0.319291,0.0,0.0
1035,258.5,67.0808,70.807,125.515,103.537,99.092,0.00038646,0.0583525,20.9976,-339.466,0.388061,0.0,0.0
1038,259.25,66.3195,70.5609,123.044,103.531,99.8069,0.000429047,0.0580799,20.9976,-339.476,0.32395,0.0,0.0
1041,260,66.4135,69.9346,123.071,103.537,99.2687,0.000437101,0.0578201,20.9976,-339.476,0.372306,0.0,0.0
1044,260.75,66.2553,70.2959,123.692,103.545,99.0185,0.000433171,0.0576114,20.9981,-339.455,0.395302,0.0,0.0
1047,261.5,65.7802,69.3883,122.255,103.546,99.2399,0.000430306,0.0574307,20.9986,-339.395,0.375694,0.0,0.0
1050,262.25,66.184,69.4764,120.559,103.556,99.248,0.000329834,0.0572144,20.9992,-339.415,0.375823,0.0,0.0
1053,263,66.4197,70.0011,122.716,103.566,99.7342,0.000213547,0.0569957,20.9998,-339.435,0.333423,0.0,0.0
1056,263.75,65.6942,69.8408,121.002,103.569,99.2652,0.000128774,0.0568362,21.0003,-339.425,0.375361,0.0,0.0
1059,264.5,65.6824,69.0661,120.862,103.58,100.06,4.97577e-05,0.0566232,21.0007,-339.405,0.305789,0.0,0.0
1062,265.25,65.4687,69.3734,119.373,103.579,99.3349,-4.22424e-06,0.0564684,21.001,-339.415,0.370051,0.0,0.0
1065,266,65.3071,68.9389,121.57,103.586,99.2528,-4.20334e-05,0.0563562,21.0012,-339.365,0.377934,0.0,0.0
1068,266.75,65.5823,69.28,122.225,103.587,99.365,-7.13169e-05,0.0562337,21.0013,-339.355,0.368049,0.0,0.0
1071,267.5,65.3093,69.3079,122.215,103.6,99.3903,-9.62862e-05,0.056127,21.0014,-339.425,0.366862,0.0,0.0
1074,268.25,64.949,68.4901,124.296,103.587,98.9187,-0.000122068,0.0561073,21.0017,-339.435,0.407855,0.0,0.0
1077,269,64.636,68.7202,126.463,103.597,98.9045,-0.000142165,0.0560794,21.0024,-339.355,0.409943,0.0,0.0
1080,269.75,65.6112,68.4111,120.485,103.602,99.4114,-0.000154643,0.0560175,21.0022,-339.355,0.365167,0.0,0.0
1083,270.5,65.2031,68.4773,123.325,103.615,99.5855,-0.000156116,0.0559114,21.0021,-339.415,0.350832,0.0,0.0
1086,271.25,65.0452,68.557,119.995,103.609,98.8461,-0.000144154,0.0558341,21.002,-339.415,0.416207,0.0,0.0
1089,272,65.4611,68.3843,124.306,103.623,99.5025,-0.000121661,0.0557641,21.0019,-339.435,0.358846,0.0,0.0
1092,272.75,64.6423,67.7392,125.865,103.627,99.3899,-0.000105263,0.0557074,21.0019,-339.395,0.369183,0.0,0.0
1095,273.5,64.7712,68.1454,120.359,103.634,99.6646,-7.26499e-05,0.055666,21.0018,-339.375,0.34538,0.0,0.0
1098,274.25,64.3191,67.9737,122.777,103.643,98.9914,-2.95554e-05,0.0556358,21.0018,-339.365,0.406068,0.0,0.0
1101,275,64.5095,67.8545,119.024,103.64,99.5464,2.28146e-05,0.0556138,21.0018,-339.375,0.356376,0.0,0.0
1104,275.75,64.6254,67.652,125.072,103.647,100.146,8.27399e-05,0.0555029,21.0024,-339.375,0.303862,0.0,0.0
1107,276.5,63.8842,67.2706,119.805,103.673,99.392,0.000152289,0.0553672,21.0028,-339.355,0.37295,0.0,0.0
1110,277.25,64.2133,67.3148,124.715,103.647,99.4866,0.00020299,0.055244,21.0032,-339.335,0.362292,0.0,0.0
1113,278,64.4125,67.36,123.693,103.669,99.6173,0.000248576,0.0551734,21.0034,-339.345,0.352572,0.0,0.0
1116,278.75,64.106,67.1476,123.086,103.67,99.3637,0.00026801,0.0551085,21.0036,-339.375,0.375189,0.0,0.0
1119,279.5,63.4829,66.7495,123.1,103.673,99.1823,0.00026888,0.0550553,21.0037,-339.345,0.391601,0.0,0.0
1122,280.25,64.1255,67.5162,120.908,103.681,99.4264,0.000257485,0.0549392,21.0038,-339.395,0.370531,0.0,0.0
1125,281,63.7818,67.123,124.603,103.679,99.5812,0.000238303,0.0548411,21.0039,-339.435,0.356633,0.0,0.0
1128,281.75,63.7741,66.8731,125.12,103.705,99.0318,0.000213979,0.0547637,21.0039,-339.405,0.407771,0.0,0.0
1131,282.5,63.4148,66.8193,125.104,103.686,99.757,0.000190527,0.0547073,21.0039,-339.415,0.341603,0.0,0.0
1134,283.25,63.4032,66.827,124.016,103.696,99.432,0.000163646,0.0547242,21.004,-339.425,0.371317,0.0,0.0
1137,284,63.3911,66.6475,120.308,103.702,99.4956,0.000149908,0.054723,21.004,-339.445,0.366231,0.0,0.0
1140,284.75,63.4046,65.9578,123.425,103.705,99.4398,0.000130222,0.0547092,21.004,-339.466,0.37145,0.0,0.0
1143,285.5,63.7957,66.7084,119.667,103.707,99.475,0.000109351,0.0546869,21.0042,-339.476,0.368492,0.0,0.0
1146,286.25,62.7803,66.2044,123.788,103.712,100.428,0.000114805,0.0546707,21.0044,-339.445,0.284629,0.0,0.0
1149,287,62.8697,65.9826,121.818,103.714,99.1608,0.00013207,0.054698,21.0045,-339.445,0.397045,0.0,0.0
1152,287.75,63.5465,66.2744,123.1,103.715,99.754,0.000150957,0.0547755,21.0046,-339.405,0.3444,0.0,0.0
1155,288.5,63.0272,65.4795,122.726,103.715,99.5631,0.000161372,0.0548454,21.0046,-339.435,0.361338,0.0,0.0
1158,289.25,62.4999,66.0375,122.342,103.715,99.4535,0.000162532,0.0549023,21.0047,-339.435,0.371046,0.0,0.0
1161,290,62.6345,65.818,123.841,103.73,100.18,0.000153657,0.0549437,21.0047,-339.466,0.307996,0.0,0.0
1164,290.75,62.7826,66.0278,123.777,103.73,99.4737,0.000138491,0.0549159,21.0048,-339.466,0.370567,0.0,0.0
1167,291.5,63.0017,65.6961,126.837,103.741,99.9002,0.00012108,0.0549016,21.0048,-339.496,0.33366,0.0,0.0
1170,292.25,62.8055,65.87,123.456,103.735,99.7794,9.75205e-05,0.0548465,21.0048,-339.476,0.343862,0.0,0.0
1173,293,62.5755,65.5449,123.099,103.739,99.3774,6.94812e-05,0.054845,21.0048,-339.486,0.379916,0.0,0.0
1176,293.75,62.328,65.5294,120.585,103.747,99.5511,3.32175e-05,0.0548297,21.0048,-339.476,0.365115,0.0,0.0
1179,294.5,62.5148,65.6927,126.214,103.75,99.1934,1.40801e-05,0.0547941,21.0048,-339.455,0.397232,0.0,0.0
1182,295.25,62.531,65.5519,122.963,103.761,99.4999,-6.82252e-06,0.0547681,21.0048,-339.445,0.370871,0.0,0.0
1185,296,62.8358,65.3779,122.847,103.76,99.6577,-1.18892e-05,0.0547492,21.0048,-339.425,0.356718,0.0,0.0
1188,296.75,61.7968,65.0104,121.607,103.765,100.344,-1.1466e-05,0.0546737,21.0048,-339.445,0.296503,0.0,0.0
1191,297.5,62.0608,65.4462,121.862,103.775,99.567,1.46714e-05,0.0546377,21.0048,-339.476,0.366088,0.0,0.0
1194,298.25,62.5667,65.561,122.217,103.785,99.6031,4.38976e-05,0.0545961,21.0048,-339.466,0.363701,0.0,0.0
1197,299,62.4465,65.1237,124.543,103.77,99.4948,8.25976e-05,0.0545658,21.0048,-339.425,0.372114,0.0,0.0
1200,299.75,62.1472,65.4268,121.488,103.792,99.7278,0.00010047,0.0545166,21.0048,-339.425,0.353279,0.0,0.0
1203,300.5,62.1256,65.2098,124.531,103.789,99.6951,0.00010905,0.0544692,21.0048,-339.445,0.355892,0.0,0.0
1206,301.25,62.0275,64.0912,125.608,103.794,100.1,0.000107695,0.0544153,21.0048,-339.445,0.320505,0.0,0.0
1209,302,61.5886,64.7775,123.603,103.811,99.1418,0.000111875,0.0543617,21.0048,-339.435,0.407031,0.0,0.0
1212,302.75,61.6343,64.0245,122.894,103.803,99.6216,0.000132153,0.0542983,21.0048,-339.455,0.363626,0.0,0.0
1215,303.5,61.8034,64.4416,123.171,103.805,100.172,0.00015584,0.0542714,21.0048,-339.435,0.315052,0.0,0.0
1218,304.25,61.9561,64.5,120.568,103.827,99.6053,0.000188335,0.0542246,21.0048,-339.445,0.367106,0.0,0.0
1221,305,61.777,64.2947,122.596,103.816,100.137,0.000212024,0.0541861,21.0048,-339.435,0.31909,0.0,0.0
1224,305.75,61.7061,64.143,123.964,103.819,99.8559,0.000215503,0.0541703,21.0048,-339.455,0.344204,0.0,0.0
1227,306.5,62.1809,64.512,123.129,103.816,100.005,0.000202331,0.0541394,21.0048,-339.435,0.330791,0.0,0.0
1230,307.25,61.4789,64.0394,123.119,103.831,100.404,0.000186033,0.0541169,21.0048,-339.445,0.296788,0.0,0.0
1233,308,61.615,64.0154,124.347,103.84,98.8629,0.000172944,0.0541005,21.0049,-339.425,0.434374,0.0,0.0
1236,308.75,61.4569,63.9809,121.571,103.826,100.119,0.000164158,0.0540814,21.0051,-339.435,0.321613,0.0,0.0
1239,309.5,61.2497,64.1658,121.681,103.838,99.8546,0.000159928,0.0540552,21.0052,-339.445,0.345921,0.0,0.0
1242,310.25,61.6489,64.534,124.169,103.843,100.028,0.000143559,0.0540291,21.0053,-339.455,0.331052,0.0,0.0
1245,311,60.4704,64.0217,122.453,103.845,100.003,0.000114526,0.0539978,21.0053,-339.455,0.333436,0.0,0.0
1248,311.75,61.6997,63.4715,122.526,103.846,99.5438,7.3803e-05,0.0539363,21.0054,-339.486,0.374202,0.0,0.0
1251,312.5,60.8001,64.1322,121.746,103.854,99.3723,4.094e-05,0.0538986,21.0054,-339.496,0.390095,0.0,0.0
1254,313.25,61.173,63.5342,123.917,103.851,99.8503,1.15513e-05,0.0538834,21.0054,-339.496,0.347475,0.0,0.0
1257,314,61.5554,63.9927,122.236,103.859,100.305,1.9396e-05,0.0538722,21.0054,-339.496,0.307888,0.0,0.0
1260,314.75,61.2835,63.6109,124.145,103.859,100.1,3.90992e-05,0.0538499,21.0055,-339.476,0.325983,0.0,0.0
1263,315.5,60.9296,63.5742,121.565,103.874,99.8417,7.73763e-05,0.0538092,21.0055,-339.445,0.350159,0.0,0.0
1266,316.25,60.8523,63.9658,122.376,103.882,99.3693,0.000125963,0.0537795,21.0055,-339.496,0.392818,0.0,0.0
1269,317,61.2125,64.1538,124.949,103.893,99.5098,0.000166555,0.0537507,21.0055,-339.506,0.38124,0.0,0.0
1272,317.75,61.0386,63.9389,119.496,103.892,99.386,0.000193729,0.0537176,21.0055,-339.516,0.392144,0.0,0.0
1275,318.5,61.2496,63.6827,122.127,103.897,100.126,0.000212508,0.0537069,21.0055,-339.486,0.326978,0.0,0.0
1278,319.25,61.339,63.5854,124.826,103.91,100.183,0.000210489,0.0536978,21.0055,-339.476,0.322999,0.0,0.0
1281,320,61.0194,63.0914,123.947,103.914,99.619,0.000191512,0.053679,21.0055,-339.506,0.37332,0.0,0.0
1284,320.75,61.313,63.3143,120.949,103.916,99.5894,0.000168855,0.053588,21.0055,-339.486,0.376131,0.0,0.0
1287,321.5,61.0188,63.543,121.841,103.92,100.44,0.000133022,0.0534931,21.0055,-339.486,0.301223,0.0,0.0
1290,322.25,60.9606,63.4116,124.858,103.919,100.748,0.000101511,0.0533751,21.0055,-339.455,0.274054,0.0,0.0
1293,323,60.891,63.7283,124.723,103.93,99.5335,7.63662e-05,0.0532698,21.0055,-339.476,0.382234,0.0,0.0
1296,323.75,60.5807,63.1259,123.945,103.926,99.4527,5.63144e-05,0.0532303,21.0055,-339.476,0.389133,0.0,0.0
1299,324.5,60.6682,63.165,120.923,103.941,100.041,5.13548e-05,0.0532029,21.0055,-339.455,0.338271,0.0,0.0
1302,325.25,60.5521,62.8917,122.403,103.931,100.599,,0.0532022,,-339.486,0.288192,0.0,0.0
1305,326,60.6025,62.9817,122.515,103.94,99.6293,,0.0531882,,-339.486,0.374609,0.0,0.0
1308,326.75,60.7297,62.8959,120.256,103.939,99.9384,,0.0531722,,-339.486,0.347143,0.0,0.0
1311,327.5,60.814,62.8801,120.938,103.951,100.148,,0.0531219,,-339.476,0.329632,0.0,0.0
1314,328.25,59.9436,63.036,121.951,103.948,99.9612,,,,-339.486,0.345909,0.0,0.0
1317,329,60.4336,63.1906,123.624,103.961,99.8486,,,,-339.496,0.35691,0.0,0.0
1320,329.75,60.5166,62.9459,122.171,103.966,99.3611,,,,-339.476,0.400622,0.0,0.0
1323,330.5,60.5384,63.0543,121.588,103.969,99.7308,,,,-339.455,0.36806,0.0,0.0
1326,331.25,60.3671,63.0214,123.421,103.967,99.8017,,,,-339.466,0.361631,0.0,0.0
1329,332,60.1051,62.9329,125.178,103.968,100.715,,,,-339.486,0.281085,0.0,0.0
1332,332.75,60.1261,63.0244,120.704,103.981,99.8709,,,,-339.486,0.356708,0.0,0.0
1335,333.5,60.0143,62.5218,128.923,103.975,100.764,,,,-339.486,0.27746,0.0,0.0
1338,334.25,60.5079,62.5874,121.863,103.981,99.8683,,,,-339.496,0.356901,0.0,0.0
1341,335,60.3297,62.6415,123.32,103.985,99.5481,,,,-339.496,0.385663,0.0,0.0
1343,335.5,60.4001,62.5885,123.951,103.984,100.114,,,,-339.496,0.335475,0.0,0.0