File: 01_Data/Nylon_Carpet_LowPile/Cone/Nylon_Carpet_Low_Pile_Cone_HF75Scan_220318_R3.csv
Names,Time,Stack TC,Smoke TC,Exh Press,Smoke Comp,Smoke Meas,CO Meter,CO2 Meter,O2 Meter,Sample Mass,Ext Coeff,Start Test,Flame Verif
Chan Gain,,500,500,1,1,1,1,1,1,1,1,1.0,1.0
Offset,,0,0,0.133174,0,0,0,0,0,0,0,0.0,0.0
Gain,,1,1,25.011,13.6925,14.0864,1,1,1,1.0009,1.00821,1.0,1.0
Units,sec,C,C,Pa,%,%,%,%,%,g,/m,,
Baseline,,55.7791,57.9025,124.815,103.583,99.8036,0.000101716,0.0534107,21.0025,-838.65,0.328791,,
3,0.5,54.3915,56.8906,127.042,103.084,99.4045,0.000181098,0.0573886,20.9987,-315.354,0.321436,0.0,0.0
6,1.25,52.448,55.2887,125.025,103.092,99.5691,0.000141173,0.0573173,20.9983,-315.394,0.307516,0.0,0.0
9,2,53.5899,55.3965,124.184,103.091,98.681,0.000100116,0.0572652,20.998,-315.454,0.38665,0.0,0.0
12,2.75,53.1418,54.4087,124.964,103.094,98.7605,6.17363e-05,0.0572386,20.9976,-315.434,0.379776,0.0,0.0
15,3.5,53.114,55.0256,124.588,103.076,98.3397,3.01549e-05,0.057324,20.9969,-315.424,0.416001,0.0,0.0
18,4.25,53.2765,55.6867,125.997,103.095,99.3632,5.92514e-06,0.0575899,20.9963,-315.454,0.32604,0.0,0.0
21,5,53.1503,55.4691,125.335,103.087,99.7067,-1.28882e-05,0.0579491,20.996,-315.474,0.294876,0.0,0.0
24,5.75,52.3363,55.323,124.881,103.08,99.8267,-2.76895e-05,0.0583454,20.9957,-315.474,0.283599,0.0,0.0
27,6.5,53.5921,55.6391,128.327,103.087,99.7084,-3.00305e-05,0.0587022,20.9955,-315.494,0.294724,0.0,0.0
30,7.25,53.5084,55.3504,121.407,103.094,99.2536,-2.17127e-05,0.0589913,20.9953,-315.484,0.335766,0.0,0.0
33,8,53.4921,55.2824,123.964,103.086,98.9333,-3.13155e-06,0.0591885,20.9952,-315.494,0.363633,0.0,0.0
36,8.75,53.3196,55.6129,121.243,103.096,98.7506,2.41921e-05,0.0592764,20.9952,-315.504,0.38084,0.0,0.0
39,9.5,53.5162,55.3818,123.792,103.096,98.9626,4.4111e-05,0.0592549,20.9951,-315.524,0.361844,0.0,0.0
42,10.25,53.2586,55.7011,125.367,103.092,98.5538,5.86319e-05,0.0591489,20.9951,-315.524,0.398168,0.0,0.0
45,11,54.0101,55.9902,123.89,103.087,99.2394,7.26626e-05,0.0589585,20.995,-315.544,0.336422,0.0,0.0
48,11.75,53.8372,55.3426,121.605,103.1,98.482,8.60696e-05,0.058755,20.995,-315.574,0.405294,0.0,0.0
51,12.5,53.582,55.7955,124.085,103.09,98.3779,0.000101278,0.0585456,20.995,-315.594,0.41378,0.0,0.0
54,13.25,53.4268,55.602,126.612,103.091,97.7503,0.000157181,0.0583387,20.9941,-315.614,0.470491,0.0,0.0
57,14,53.7557,56.3052,123.261,103.094,96.6382,0.000249958,0.0581647,20.9926,-315.634,0.571901,0.0,0.0
60,14.75,53.4274,56.1,126.491,103.083,95.0588,0.000339771,0.0581346,20.9907,-315.644,0.716701,0.0,0.0
63,15.5,53.9306,55.595,122.597,103.083,93.4966,0.00052627,0.0589686,20.9858,-315.654,0.86325,0.0,0.0
66,16.25,54.2356,56.2125,120.874,103.087,92.2147,0.000755794,0.0599415,20.9713,-315.794,0.985705,0.0,0.0
69,17,53.8176,56.112,120.133,103.083,94.1728,0.000963005,0.0692813,20.9444,-315.724,0.799481,0.0,1.0
72,17.75,54.0721,55.8721,116.587,103.087,98.1871,0.0011472,0.0883239,20.9307,-315.894,0.430705,0.0,1.0
75,18.5,53.746,56.3366,111.625,103.084,97.8165,0.00146049,0.11857,20.9015,-315.944,0.463894,0.0,1.0
78,19.25,54.3355,56.5995,107.459,103.099,96.4783,0.00177135,0.159683,20.8572,-315.994,0.587014,0.0,1.0
81,20,55.19,57.627,105.829,103.073,95.8885,0.002139,0.211429,20.7789,-316.074,0.638987,0.0,1.0
84,20.75,55.2179,57.9964,109.76,103.09,94.9432,0.00258405,0.244386,20.6942,-316.165,0.728076,0.0,1.0
87,21.5,56.8318,58.4688,103.511,103.082,95.5876,0.0030355,0.28246,20.6206,-316.175,0.667537,0.0,1.0
90,22.25,56.3838,58.3585,105.265,103.069,94.123,0.00341874,0.339762,20.511,-316.385,0.802983,0.0,1.0
93,23,57.2873,59.1949,110.092,103.066,93.2112,0.00387812,0.406003,20.4074,-316.455,0.888822,0.0,1.0
96,23.75,57.7945,60.6708,97.4604,103.05,93.1441,0.0042561,0.459354,20.3217,-316.575,0.893825,0.0,1.0
99,24.5,59.3218,61.2573,97.2261,103.06,92.918,0.00460534,0.514892,20.2354,-316.645,0.916181,0.0,1.0
102,25.25,60.2017,63.0638,98.4038,103.069,93.0805,0.00487109,0.566045,20.1725,-316.795,0.901481,0.0,0.0
105,26,61.1111,63.8577,97.7192,103.064,93.2374,0.0050839,0.607882,20.1026,-316.915,0.886191,0.0,0.0
108,26.75,61.9144,65.2828,100.147,103.06,94.3921,0.00524276,0.650883,20.0458,-317.005,0.77698,0.0,0.0
111,27.5,62.8887,66.2797,98.3909,103.055,93.0874,0.00536866,0.687118,19.9945,-317.095,0.89968,0.0,0.0
114,28.25,64.5446,67.9033,105.965,103.054,94.3057,0.00547499,0.721888,19.9401,-317.236,0.784542,0.0,0.0
117,29,65.1293,69.0538,93.0243,103.053,94.9797,0.00559153,0.752334,19.8842,-317.296,0.721482,0.0,0.0
120,29.75,66.8491,70.3572,93.9631,103.044,95.9362,0.00571632,0.783246,19.8317,-317.486,0.632077,0.0,0.0
123,30.5,67.402,71.6297,93.5074,103.03,94.9509,0.00584264,0.815188,19.785,-317.666,0.722192,0.0,0.0
126,31.25,68.9928,72.7916,95.2683,103.03,94.4875,0.00596613,0.842763,19.7454,-317.756,0.765461,0.0,0.0
129,32,70.221,74.7042,99.0167,103.032,94.5877,0.00607518,0.864694,19.7165,-317.846,0.75627,0.0,0.0
132,32.75,71.0919,76.2362,91.5657,103.026,94.4299,0.00618724,0.88438,19.6891,-318.006,0.770532,0.0,0.0
135,33.5,72.5318,77.4355,96.6498,103.018,94.6564,0.0062864,0.901765,19.6664,-318.116,0.748658,0.0,0.0
138,34.25,73.6859,78.4327,91.89,103.02,95.3241,0.00636614,0.915731,19.6451,-318.276,0.686645,0.0,0.0
141,35,74.6418,80.1485,95.7873,103.015,94.126,0.00645979,0.931828,19.6238,-318.346,0.798109,0.0,0.0
144,35.75,76.1843,81.0931,96.9048,103.011,94.5086,0.00657306,0.946186,19.6009,-318.517,0.76184,0.0,0.0
147,36.5,77.2185,82.725,91.0016,102.999,94.5769,0.00667482,0.961139,19.5756,-318.607,0.754442,0.0,0.0
150,37.25,78.4916,83.839,93.8585,103.004,94.5829,0.00684184,0.980704,19.5453,-318.747,0.754309,0.0,0.0
153,38,79.1747,85.1144,93.9593,103.006,93.623,0.00704009,0.999881,19.5104,-318.807,0.844704,0.0,0.0
156,38.75,80.4668,86.5634,89.3407,103.002,93.4098,0.00721723,1.02226,19.472,-319.047,0.864511,0.0,0.0
159,39.5,81.4575,87.8493,86.4067,102.997,92.4378,0.00754366,1.04738,19.436,-319.187,0.956551,0.0,0.0
162,40.25,82.8494,89.4343,89.875,103.006,92.4387,0.00785137,1.06854,19.4064,-319.217,0.957257,0.0,0.0
165,41,83.9369,90.7794,91.4504,103.004,90.5351,0.00819494,1.08887,19.3748,-319.407,1.14113,0.0,0.0
168,41.75,85.0224,92.2351,94.5424,103.016,89.3212,0.00865312,1.11071,19.3518,-319.548,1.26153,0.0,0.0
171,42.5,86.0576,93.9263,90.7635,103.001,87.6029,0.00898714,1.12963,19.318,-319.728,1.43202,0.0,0.0
174,43.25,87.0128,95.5112,93.6944,103.009,87.6549,0.00959921,1.15931,19.2716,-319.848,1.42749,0.0,0.0
177,44,88.3151,96.1179,88.4477,103.004,85.4432,0.0102156,1.19451,19.2164,-319.978,1.65308,0.0,0.0
180,44.75,89.8259,97.5343,89.3331,103.01,85.9599,0.0107376,1.22594,19.1555,-320.118,1.60029,0.0,0.0
183,45.5,91.2956,99.1044,86.8799,103.005,84.5671,0.0114078,1.27003,19.0869,-320.298,1.7443,0.0,0.0
186,46.25,92.3334,100.94,89.0728,102.995,85.135,0.0118965,1.3112,19.0266,-320.518,1.68425,0.0,0.0
189,47,93.6076,102.562,84.4389,102.999,84.5937,0.0126216,1.3614,18.9416,-320.619,1.74104,0.0,0.0
192,47.75,94.8816,103.852,84.0665,103,84.6204,0.0132633,1.41565,18.8796,-320.759,1.73833,0.0,0.0
195,48.5,97.3192,105.776,83.5665,103.004,82.204,0.0139242,1.45519,18.8105,-320.959,1.99484,0.0,0.0
198,49.25,98.0187,107.7,82.8956,103.005,80.7553,0.0146819,1.50158,18.7602,-321.139,2.15223,0.0,0.0
201,50,99.8316,109.091,87.0486,102.997,80.0632,0.0153919,1.5354,18.7235,-321.269,2.22767,0.0,0.0
204,50.75,101.811,110.634,86.0082,103.002,79.5946,0.0161124,1.56156,18.6974,-321.419,2.27994,0.0,0.0
207,51.5,102.366,112.721,84.6107,103.002,79.9523,0.0167559,1.57638,18.6796,-321.579,2.24032,0.0,0.0
210,52.25,103.724,114.478,82.1117,102.999,77.9641,0.0173286,1.58244,18.6779,-321.71,2.46282,0.0,0.0
213,53,105.466,115.379,84.9244,102.99,76.3683,0.0178018,1.58187,18.6767,-321.85,2.64488,0.0,0.0
216,53.75,106.43,116.908,88.0599,102.993,75.6337,0.0182423,1.57197,18.6928,-322.08,2.73066,0.0,0.0
219,54.5,106.816,118.432,85.9899,103,77.6619,0.0185993,1.55686,18.7164,-322.25,2.49723,0.0,0.0
222,55.25,107.47,119.65,94.5043,102.986,77.6524,0.0188742,1.54247,18.7387,-322.38,2.49706,0.0,0.0
225,56,108.112,120.326,85.8617,102.995,77.1159,0.0190808,1.51809,18.7719,-322.5,2.5592,0.0,0.0
228,56.75,109.149,121.823,93.6769,103.008,75.1758,0.0192598,1.49162,18.8084,-322.68,2.78561,0.0,0.0
231,57.5,110.185,121.972,91.7,103.006,76.1805,0.0194127,1.46861,18.8403,-322.801,2.66803,0.0,0.0
234,58.25,110.428,122.594,90.0315,102.996,76.7776,0.0195624,1.44584,18.8657,-322.971,2.59815,0.0,0.0
237,59,110.866,123.997,88.4362,102.994,74.5435,0.0197874,1.42789,18.8855,-323.071,2.85914,0.0,0.0
240,59.75,111.832,124.812,89.9017,102.998,76.6078,0.0199514,1.41409,18.9005,-323.251,2.61788,0.0,0.0
243,60.5,112.541,125.251,88.9598,103.009,75.2365,0.0202728,1.40379,18.9127,-323.341,2.77863,0.0,0.0
246,61.25,113.014,125.855,88.9766,103.008,74.7666,0.0205928,1.3949,18.9232,-323.461,2.83392,0.0,0.0
249,62,113.868,126.735,89.8315,103.001,73.8178,0.0208936,1.38783,18.9323,-323.631,2.94626,0.0,0.0
252,62.75,114.027,127.622,91.1237,102.989,72.9555,0.021166,1.38129,18.9416,-323.741,3.04911,0.0,0.0
255,63.5,114.744,128.814,90.6596,102.997,73.7684,0.0214029,1.37523,18.9505,-323.871,2.95186,0.0,0.0
258,64.25,115.831,129.219,94.818,102.979,71.6628,0.0215863,1.36963,18.9579,-324.002,3.20635,0.0,0.0
261,65,116.172,129.747,88.6293,102.993,71.067,0.0217246,1.36461,18.9642,-324.162,3.28141,0.0,0.0
264,65.75,116.653,130.26,86.064,102.963,73.2276,0.0218415,1.36015,18.9692,-324.282,3.01399,0.0,0.0
267,66.5,116.878,131.532,89.1735,102.981,73.1958,0.0219336,1.35618,18.9737,-324.442,3.01941,0.0,0.0
270,67.25,117.68,132.292,94.7508,102.961,71.4991,0.0220206,1.35066,18.977,-324.572,3.22504,0.0,0.0
273,68,118.466,132.16,93.2403,102.96,72.453,0.0220888,1.34664,18.9836,-324.672,3.10776,0.0,0.0
276,68.75,118.799,133.366,92.7067,102.951,71.769,0.0221985,1.3376,18.9942,-324.792,3.19085,0.0,0.0
279,69.5,118.941,133.754,97.6299,102.953,73.8669,0.0222917,1.32864,19.007,-324.942,2.9363,0.0,0.0
282,70.25,120.331,134.254,91.9267,102.95,71.006,0.0223443,1.31808,19.0258,-325.053,3.28535,0.0,0.0
285,71,119.94,134.689,90.2803,102.95,71.9625,0.0223289,1.31268,19.0501,-325.143,3.16697,0.0,0.0
288,71.75,120.439,135.339,94.9691,102.937,72.0016,0.0222943,1.29736,19.0723,-325.343,3.16109,0.0,0.0
291,72.5,120.91,136.127,94.2684,102.948,70.3199,0.0222293,1.28003,19.1086,-325.413,3.371,0.0,0.0
294,73.25,121.727,136.438,93.8234,102.94,71.0129,0.0221072,1.26105,19.1456,-325.573,3.28359,0.0,0.0
297,74,121.509,136.361,91.7435,102.93,70.1376,0.0220182,1.24086,19.1771,-325.663,3.39244,0.0,0.0
300,74.75,121.394,137.287,90.3788,102.93,70.4669,0.0218501,1.21545,19.2115,-325.773,3.35099,0.0,0.0
303,75.5,122.375,137.755,94.031,102.921,70.5503,0.0216794,1.1873,19.2486,-325.873,3.33977,0.0,0.0
306,76.25,122.495,136.906,96.0102,102.905,70.6638,0.0215344,1.16268,19.288,-325.973,3.32419,0.0,0.0
309,77,122.266,137.638,99.0877,102.907,72.3472,0.0213811,1.12952,19.3399,-326.053,3.11615,0.0,0.0
312,77.75,122.176,137.621,99.59,102.895,70.7476,0.0212412,1.10091,19.3831,-326.154,3.31288,0.0,0.0
315,78.5,123.025,137.798,93.1143,102.897,68.1864,0.0211273,1.07247,19.4237,-326.254,3.63913,0.0,0.0
318,79.25,122.515,138.148,99.5083,102.884,69.9734,0.020951,1.04428,19.4628,-326.394,3.40923,0.0,0.0
321,80,122.803,138.26,97.4742,102.865,72.0901,0.020744,1.02092,19.5005,-326.444,3.14404,0.0,0.0
324,80.75,122.111,137.465,94.918,102.861,71.4415,0.0205595,0.999108,19.5319,-326.584,3.22359,0.0,0.0
327,81.5,121.917,137.516,100.628,102.855,72.8652,0.0202071,0.976116,19.5623,-326.664,3.04857,0.0,0.0
330,82.25,122.721,137.614,104.093,102.857,72.8773,0.0198047,0.956596,19.5918,-326.704,3.04732,0.0,0.0
333,83,122.448,138.177,97.9726,102.872,69.7993,0.0193653,0.937648,19.6205,-326.794,3.43018,0.0,0.0
336,83.75,122.454,137.754,100.043,102.845,71.3714,0.0189013,0.919205,19.6483,-326.864,3.2309,0.0,0.0
339,84.5,121.925,137.909,94.186,102.839,71.2222,0.0184068,0.903787,19.6739,-326.944,3.24887,0.0,0.0
342,85.25,121.988,137.617,103.812,102.825,69.7503,0.0179218,0.885245,19.7016,-327.074,3.43237,0.0,0.0
345,86,121.851,137.09,103.238,102.814,69.2645,0.0174692,0.867248,19.7319,-327.184,3.49328,0.0,0.0
348,86.75,121.18,137.182,104.119,102.808,69.9575,0.0170491,0.849699,19.7575,-327.234,3.40473,0.0,0.0
351,87.5,121.127,136.822,104.354,102.796,68.265,0.0167045,0.8326,19.7821,-327.305,3.62028,0.0,0.0
354,88.25,121.466,136.596,100.834,102.786,69.8492,0.0163178,0.813859,19.8,-327.395,3.4165,0.0,0.0
357,89,120.987,136.163,102.478,102.78,68.2044,0.0159781,0.798054,19.8201,-327.445,3.6267,0.0,0.0
360,89.75,121.08,135.745,100.289,102.77,70.7743,0.0156533,0.782868,19.8378,-327.565,3.29873,0.0,0.0
363,90.5,120.761,135.693,102.358,102.776,71.8696,0.0152845,0.769281,19.857,-327.625,3.16345,0.0,0.0
366,91.25,120.355,135.567,102.013,102.755,69.9841,0.0149067,0.755074,19.8776,-327.695,3.39676,0.0,0.0
369,92,119.676,134.815,103.898,102.754,71.3538,0.0145551,0.744716,19.9003,-327.785,3.22525,0.0,0.0
372,92.75,119.427,135.318,102.584,102.74,71.1607,0.0142662,0.72872,19.9251,-327.825,3.24802,0.0,0.0
375,93.5,119.6,134.75,105.057,102.74,74.1798,0.0139159,0.71496,19.9558,-327.925,2.88051,0.0,0.0
378,94.25,118.91,133.669,102.308,102.733,72.1929,0.0135576,0.701342,19.9807,-327.965,3.12009,0.0,0.0
381,95,118.818,133.516,102.416,102.73,73.3445,0.0132526,0.686981,20.0033,-328.005,2.97987,0.0,0.0
384,95.75,118.269,133.613,107.029,102.716,72.1383,0.0128382,0.67324,20.0254,-328.085,3.12527,0.0,0.0
387,96.5,118.302,133.298,107.007,102.719,72.6447,0.0124441,0.659951,20.0472,-328.155,3.06372,0.0,0.0
390,97.25,117.76,132.577,105.877,102.713,71.438,0.0121175,0.647056,20.0687,-328.245,3.21129,0.0,0.0
393,98,117.741,132.289,108.476,102.716,75.6019,0.0117284,0.633753,20.0892,-328.325,2.71052,0.0,0.0
396,98.75,117.455,131.852,106.114,102.714,74.6737,0.0113939,0.622391,20.1062,-328.345,2.81966,0.0,0.0
399,99.5,116.982,131.709,108.978,102.704,76.2308,0.0110631,0.610062,20.1261,-328.396,2.63628,0.0,0.0
402,100.25,116.6,131.31,104.106,102.696,75.7755,0.0106988,0.598824,20.1442,-328.516,2.68854,0.0,0.0
405,101,115.96,130.457,106.878,102.697,75.9793,0.0103939,0.589673,20.1588,-328.526,2.66482,0.0,0.0
408,101.75,115.39,129.991,109.458,102.686,75.4162,0.0101043,0.579605,20.1751,-328.556,2.72968,0.0,0.0
411,102.5,115.204,129.801,107.22,102.677,73.7839,0.009858,0.570052,20.1891,-328.636,2.92248,0.0,0.0
414,103.25,115.319,129.653,107.304,102.682,75.8727,0.00959619,0.562143,20.2029,-328.686,2.67598,0.0,0.0
417,104,115.054,129.231,106.492,102.664,75.2524,0.00936784,0.552463,20.2199,-328.766,2.74707,0.0,0.0
420,104.75,114.549,128.894,108.575,102.655,76.4174,0.00915345,0.543891,20.2357,-328.846,2.61038,0.0,0.0
423,105.5,114.189,128.061,110.593,102.651,75.8267,0.00900635,0.535049,20.2449,-328.846,2.67872,0.0,0.0
426,106.25,114.192,128.215,101.89,102.645,75.923,0.00880662,0.526645,20.2605,-328.936,2.66695,0.0,0.0
429,107,113.844,127.849,109.996,102.64,76.3924,0.00861794,0.518933,20.2745,-328.986,2.61197,0.0,0.0
432,107.75,112.941,126.913,109.855,102.629,76.1874,0.00846404,0.512025,20.2873,-329.046,2.63481,0.0,0.0
435,108.5,112.637,126.571,109.091,102.627,76.6525,0.00834488,0.506825,20.2989,-329.106,2.5808,0.0,0.0
438,109.25,112.231,126.225,110.496,102.611,76.7105,0.00824419,0.499934,20.3088,-329.156,2.57274,0.0,0.0
441,110,111.827,125.576,109.462,102.617,78.1141,0.00815563,0.492433,20.3184,-329.186,2.41289,0.0,0.0
444,110.75,111.674,125.131,107.656,102.609,76.6503,0.00807523,0.485306,20.3304,-329.256,2.5795,0.0,0.0
447,111.5,111.212,125.061,112.185,102.609,78.2663,0.00798523,0.478865,20.3392,-329.276,2.39503,0.0,0.0
450,112.25,110.607,124.681,107.739,102.58,78.3398,0.00790624,0.472038,20.3487,-329.336,2.38424,0.0,0.0
453,113,110.742,123.399,108.553,102.581,77.5578,0.00782355,0.463909,20.3589,-329.406,2.47303,0.0,0.0
456,113.75,110.137,123.472,110.889,102.57,79.611,0.00774795,0.456829,20.37,-329.416,2.24102,0.0,0.0
459,114.5,109.453,123.285,111.818,102.55,79.3461,0.00768494,0.449694,20.3824,-329.487,2.26876,0.0,0.0
462,115.25,109.187,122.647,108.926,102.55,78.5951,0.00762521,0.44333,20.3941,-329.517,2.35286,0.0,0.0
465,116,108.928,122.076,108.891,102.54,81.8098,0.00757579,0.436702,20.4038,-329.577,1.99747,0.0,0.0
468,116.75,108.674,121.788,107.884,102.534,80.3035,0.00748257,0.43052,20.4126,-329.677,2.16128,0.0,0.0
471,117.5,108.138,121.405,109.847,102.519,80.4733,0.0073733,0.425553,20.4204,-329.677,2.14131,0.0,0.0
474,118.25,107.961,120.419,105.927,102.518,80.0469,0.00727603,0.421143,20.4273,-329.727,2.18822,0.0,0.0
477,119,107.559,120.718,110.731,102.509,80.0877,0.0071338,0.417022,20.4343,-329.777,2.18292,0.0,0.0
480,119.75,107.345,119.919,111.473,102.51,79.6075,0.00698379,0.413632,20.4424,-329.807,2.23621,0.0,0.0
483,120.5,107.122,119.91,110.335,102.502,80.2747,0.00684948,0.409347,20.4506,-329.867,2.16172,0.0,0.0
486,121.25,106.593,119.038,110.652,102.479,78.4623,0.00674092,0.404561,20.4581,-329.857,2.36166,0.0,0.0
489,122,106.268,119.004,107.416,102.472,79.6114,0.00664044,0.400383,20.4654,-329.897,2.23247,0.0,0.0
492,122.75,105.946,118.564,115.145,102.475,82.2221,0.00656718,0.396159,20.4714,-330.027,1.94735,0.0,0.0
495,123.5,105.472,118.273,112.054,102.457,81.4139,0.00652089,0.391761,20.4783,-330.017,2.03324,0.0,0.0
498,124.25,105.229,117.733,108.046,102.44,82.2281,0.00649605,0.38793,20.4836,-330.047,1.94375,0.0,0.0
501,125,105.122,117.138,111.941,102.438,82.7298,0.0064717,0.38487,20.4881,-330.127,1.88974,0.0,0.0
504,125.75,104.73,116.94,110.177,102.437,81.8369,0.00644604,0.381866,20.4917,-330.177,1.98564,0.0,0.0
507,126.5,104.565,116.765,114.081,102.432,82.7396,0.00641835,0.379219,20.4975,-330.197,1.88818,0.0,0.0
510,127.25,104.083,116.896,111.24,102.419,81.7767,0.00638927,0.376508,20.5031,-330.207,1.99059,0.0,0.0
513,128,103.696,115.946,107.372,102.421,80.3749,0.00636184,0.373623,20.5084,-330.257,2.14366,0.0,0.0
516,128.75,103.42,115.698,112.421,102.402,80.9178,0.00633919,0.370721,20.5134,-330.317,2.08253,0.0,0.0
519,129.5,103.215,115.475,111.491,102.391,79.9746,0.00631395,0.36771,20.5183,-330.367,2.18528,0.0,0.0
522,130.25,102.434,115.116,114.33,102.391,79.7683,0.00628462,0.364564,20.5238,-330.417,2.20809,0.0,0.0
525,131,102.637,114.808,115.574,102.381,79.9196,0.0062509,0.360932,20.5278,-330.457,2.19043,0.0,0.0
528,131.75,102.632,114.456,111.101,102.382,80.2068,0.00619644,0.357978,20.5307,-330.507,2.15885,0.0,0.0
531,132.5,101.806,113.732,110.298,102.39,82.0428,0.00612303,0.355693,20.5329,-330.537,1.95933,0.0,0.0
534,133.25,102.121,113.335,111.402,102.358,83.2908,0.00603369,0.354027,20.5351,-330.598,1.82311,0.0,0.0
537,134,101.593,113.26,107.579,102.358,81.3068,0.00592424,0.352779,20.5366,-330.598,2.03625,0.0,0.0
540,134.75,101.215,112.882,113.995,102.358,81.7509,0.00584445,0.351811,20.5383,-330.678,1.98807,0.0,0.0
543,135.5,101.213,112.655,113.664,102.363,80.6775,0.00575771,0.350848,20.5397,-330.688,2.1054,0.0,0.0
546,136.25,100.733,112.528,111.476,102.348,83.9855,0.00568231,0.349917,20.541,-330.728,1.74872,0.0,0.0
549,137,100.626,112.234,113.853,102.363,82.0445,0.00563106,0.349035,20.5422,-330.768,1.9568,0.0,0.0
552,137.75,100.586,111.729,115.613,102.34,83.0629,0.00559464,0.348222,20.5435,-330.768,1.84571,0.0,0.0
555,138.5,100.211,111.549,112.208,102.347,81.9542,0.00556696,0.34734,20.5444,-330.818,1.96517,0.0,0.0
558,139.25,99.9344,111.042,111.453,102.33,81.5695,0.00552377,0.346231,20.5459,-330.848,2.00537,0.0,0.0
561,140,99.7702,110.715,109.456,102.322,82.6657,0.00547984,0.345224,20.5474,-330.928,1.88659,0.0,0.0
564,140.75,99.4538,110.322,111.485,102.32,82.0703,0.00542654,0.343944,20.5498,-330.948,1.95038,0.0,0.0
567,141.5,98.9706,110.04,112.674,102.318,81.931,0.00537176,0.342568,20.5525,-330.978,1.96518,0.0,0.0
570,142.25,99.1424,109.901,109.058,102.305,82.8329,0.00533306,0.341204,20.555,-331.038,1.86724,0.0,0.0
573,143,97.4664,110.601,113.233,102.305,81.4169,0.00530538,0.339233,20.5593,-331.058,2.0197,0.0,0.0
576,143.75,98.1471,109.39,115.699,102.296,81.9899,0.00529636,0.336982,20.5631,-331.098,1.95691,0.0,0.0
579,144.5,98.3678,109.116,111.92,102.291,82.9645,0.00529194,0.334627,20.5671,-331.148,1.85198,0.0,0.0
582,145.25,98.025,108.601,112.263,102.296,81.5824,0.00528425,0.33228,20.5709,-331.158,2.00102,0.0,0.0
585,146,97.7745,108.632,113.298,102.29,82.1675,0.00526004,0.330194,20.5743,-331.168,1.93724,0.0,0.0
588,146.75,97.2636,108.094,113.811,102.279,84.3152,0.00521464,0.328031,20.5778,-331.188,1.70814,0.0,0.0
591,147.5,97.3869,108.045,110.471,102.288,82.5982,0.00517308,0.325837,20.5816,-331.218,1.89085,0.0,0.0
594,148.25,96.9806,107.604,110.458,102.277,82.5273,0.00510923,0.323725,20.5862,-331.238,1.89755,0.0,0.0
597,149,97.02,107.257,114.755,102.272,83.602,0.00505029,0.321759,20.5896,-331.318,1.78269,0.0,0.0
600,149.75,96.8324,107.16,111.558,102.267,83.8058,0.00500205,0.319831,20.5921,-331.358,1.76073,0.0,0.0
603,150.5,96.0995,106.429,111.309,102.267,84.0336,0.00495582,0.318158,20.5941,-331.388,1.73668,0.0,0.0
606,151.25,95.8719,106.156,110.022,102.269,83.0741,0.00491806,0.316758,20.596,-331.428,1.83838,0.0,0.0
609,152,95.7348,106.078,109.644,102.253,83.0307,0.00489164,0.315624,20.5971,-331.468,1.84167,0.0,0.0
612,152.75,96.0909,105.882,111.505,102.259,83.0969,0.00488288,0.314451,20.5994,-331.488,1.83509,0.0,0.0
615,153.5,95.7279,105.881,114.823,102.249,85.5919,0.00488948,0.313449,20.6016,-331.518,1.57266,0.0,0.0
618,154.25,95.1778,105.451,115.039,102.259,84.0942,0.00490965,0.311619,20.6056,-331.558,1.72965,0.0,0.0
621,155,94.722,105.231,115.071,102.259,83.243,0.00494732,0.309379,20.611,-331.568,1.81955,0.0,0.0
624,155.75,94.7932,104.997,112.095,102.244,83.341,0.00498345,0.305919,20.6152,-331.618,1.80788,0.0,0.0
627,156.5,94.2178,104.549,113.891,102.24,83.8212,0.00501349,0.304068,20.6187,-331.628,1.75671,0.0,0.0
630,157.25,94.2419,104.28,113.913,102.248,83.0655,0.00504776,0.301525,20.6212,-331.689,1.83749,0.0,0.0
633,158,94.1401,103.904,115.442,102.236,83.9274,0.00507275,0.29936,20.6236,-331.709,1.74515,0.0,0.0
636,158.75,93.7403,103.297,113.325,102.237,84.7704,0.00508389,0.297544,20.6258,-331.739,1.6569,0.0,0.0
639,159.5,94.2105,103.782,108.644,102.228,83.9025,0.00508223,0.295941,20.6281,-331.759,1.74709,0.0,0.0
642,160.25,93.6116,103.15,114.263,102.226,83.0182,0.0050643,0.294653,20.6304,-331.829,1.84061,0.0,0.0
645,161,93.1973,103.111,109.638,102.219,82.4026,0.0050159,0.293584,20.6325,-331.829,1.90589,0.0,0.0
648,161.75,92.9423,102.055,114.302,102.208,83.9614,0.00496206,0.292581,20.6342,-331.879,1.73919,0.0,0.0
651,162.5,93.3311,102.881,111.136,102.219,83.6084,0.00490317,0.291276,20.6368,-331.889,1.77742,0.0,0.0
654,163.25,92.8394,102.256,117.719,102.203,85.803,0.00484021,0.289752,20.6411,-331.909,1.5469,0.0,0.0
657,164,92.4902,102.009,116.715,102.204,85.5825,0.00479431,0.288398,20.6443,-331.939,1.56973,0.0,0.0
660,164.75,92.2454,101.457,111.029,102.204,84.8547,0.00469739,0.286179,20.6475,-331.969,1.64526,0.0,0.0
663,165.5,92.5597,101.725,113.181,102.2,85.0705,0.00458724,0.284024,20.651,-332.019,1.62244,0.0,0.0
666,166.25,92.2443,101.343,112.354,102.206,85.4814,0.00446804,0.282223,20.6545,-332.049,1.58029,0.0,0.0
669,167,92.0214,101.35,114.133,102.198,86.1955,0.00432136,0.280144,20.6578,-332.089,1.50611,0.0,0.0
672,167.75,92.0229,100.969,116.292,102.188,85.2381,0.00417675,0.278185,20.6621,-332.129,1.60394,0.0,0.0
675,168.5,91.3659,100.511,116.235,102.212,86.9435,0.00404425,0.275999,20.6665,-332.129,1.43088,0.0,0.0
678,169.25,91.4741,100.552,114.524,102.192,87.1889,0.00396197,0.273403,20.6692,-332.149,1.40421,0.0,0.0
681,170,91.5712,100.477,116.361,102.193,87.9068,0.0038586,0.270749,20.6748,-332.149,1.33176,0.0,0.0
684,170.75,91.2788,100.288,112.476,102.193,88.0805,0.00378447,0.268122,20.6793,-332.209,1.31427,0.0,0.0
687,171.5,90.9858,99.9311,117.07,102.19,89.3598,0.00373095,0.265578,20.6835,-332.229,1.18653,0.0,0.0
690,172.25,90.8352,99.7633,115.084,102.187,89.0344,0.00368656,0.263717,20.6869,-332.279,1.2185,0.0,0.0
693,173,90.6764,99.2556,117.206,102.19,89.2339,0.00362471,0.261335,20.6901,-332.289,1.199,0.0,0.0
696,173.75,90.4673,99.2411,115.301,102.18,89.7192,0.00354313,0.259205,20.6934,-332.309,1.15012,0.0,0.0
699,174.5,90.1357,98.9211,113.549,102.187,90.0107,0.00344276,0.257405,20.6967,-332.339,1.12206,0.0,0.0
702,175.25,89.6712,98.3818,114.146,102.175,90.4784,0.00331197,0.255674,20.6999,-332.399,1.07517,0.0,0.0
705,176,89.9154,98.4304,113.619,102.18,90.7441,0.00317336,0.253981,20.7031,-332.429,1.04968,0.0,0.0
708,176.75,89.8055,98.407,113.024,102.172,90.99,0.00304035,0.252359,20.706,-332.449,1.02509,0.0,0.0
711,177.5,89.3595,98.3253,112.984,102.17,92.4447,0.00292407,0.250908,20.7088,-332.479,0.884671,0.0,0.0
714,178.25,89.3049,97.8094,117.543,102.17,91.8914,0.00280112,0.24939,20.7121,-332.439,0.937687,0.0,0.0
717,179,88.9652,97.3004,123.999,102.178,92.5014,0.00270268,0.247531,20.7163,-332.519,0.879895,0.0,0.0
720,179.75,88.8437,97.4834,115.417,102.165,91.6451,0.00263214,0.245203,20.7194,-332.519,0.961064,0.0,0.0
723,180.5,88.6943,96.3741,115.558,102.163,92.6467,0.00258124,0.242386,20.7243,-332.529,0.864712,0.0,0.0
726,181.25,88.544,96.9849,115.436,102.162,92.8002,0.00253558,0.238962,20.7299,-332.559,0.849965,0.0,0.0
729,182,88.2835,96.7044,116.204,102.155,93.6363,0.00249865,0.235194,20.7355,-332.549,0.770024,0.0,0.0
732,182.75,87.9977,96.221,115.579,102.159,94.0847,0.00246519,0.231272,20.7405,-332.579,0.728176,0.0,0.0
735,183.5,87.8365,96.2008,117.322,102.148,94.6526,0.00240699,0.227264,20.7479,-332.589,0.67398,0.0,0.0
738,184.25,87.8608,95.7323,116.983,102.147,95.0137,0.00235623,0.222377,20.7559,-332.639,0.640267,0.0,0.0
741,185,87.521,95.27,114.627,102.15,95.2033,0.00229995,0.216866,20.764,-332.619,0.622855,0.0,0.0
744,185.75,86.9164,94.9761,115.665,102.162,95.9224,0.00221442,0.212424,20.774,-332.629,0.55731,0.0,0.0
747,186.5,87.4273,95.089,116.774,102.151,96.5789,0.00213231,0.205953,20.7862,-332.659,0.496054,0.0,0.0
750,187.25,86.8261,94.6513,120.143,102.149,96.5247,0.00205783,0.198548,20.7974,-332.669,0.500835,0.0,0.0
753,188,86.294,94.5169,120.535,102.15,97.0307,0.00199408,0.192004,20.8096,-332.699,0.454669,0.0,0.0
756,188.75,85.9112,94.2295,115.821,102.15,96.9073,0.00193521,0.184268,20.8247,-332.689,0.465922,0.0,0.0
759,189.5,85.4467,93.6854,119.138,102.146,97.4434,0.00192338,0.17628,20.8397,-332.709,0.416808,0.0,0.0
762,190.25,85.3335,93.2284,121.543,102.149,97.7907,0.00195319,0.168601,20.855,-332.689,0.385592,0.0,0.0
765,191,85.3318,93.1206,120.72,102.154,98.197,0.00197493,0.160242,20.8672,-332.699,0.349363,0.0,0.0
768,191.75,85.0033,92.7152,120.14,102.155,98.3104,0.00207261,0.149882,20.8788,-332.729,0.339257,0.0,0.0
771,192.5,84.5089,92.0399,118.362,102.162,97.6867,0.00215927,0.144794,20.8884,-332.759,0.3962,0.0,0.0
774,193.25,84.5782,92.1295,117.038,102.156,98.0891,0.00224884,0.137706,20.8991,-332.749,0.359304,0.0,0.0
777,194,83.1801,91.207,121.643,102.16,97.7112,0.00229322,0.13073,20.9091,-332.769,0.393728,0.0,0.0
780,194.75,83.2108,90.7415,119.951,102.167,97.5986,0.00229136,0.12415,20.9183,-332.729,0.404579,0.0,0.0
783,195.5,82.8785,89.7733,124.293,102.146,97.9227,0.00227542,0.118119,20.9266,-332.719,0.373412,0.0,0.0
786,196.25,82.7143,89.8979,120.637,102.154,97.5844,0.00219417,0.112865,20.9344,-332.749,0.404707,0.0,0.0
789,197,82.1846,89.4454,121.214,102.158,98.2344,0.00212891,0.108393,20.9389,-332.749,0.346394,0.0,0.0
792,197.75,81.3996,89.0341,121.009,102.153,97.3518,0.00202304,0.104662,20.9441,-332.779,0.425774,0.0,0.0
795,198.5,81.5913,88.7979,121.855,102.155,97.6213,0.00190569,0.1015,20.9484,-332.789,0.401466,0.0,0.0
798,199.25,81.0467,87.9986,120.63,102.154,97.464,0.00179405,0.0988916,20.9523,-332.789,0.415622,0.0,0.0
801,200,80.8562,87.5402,120.105,102.173,97.8135,0.00169734,0.0974193,20.9557,-332.81,0.385667,0.0,0.0
804,200.75,80.6503,87.0826,122.063,102.164,97.7086,0.00160617,0.0955952,20.9583,-332.81,0.394323,0.0,0.0
807,201.5,80.0922,87.1071,121.346,102.168,98.1527,0.00151874,0.0940549,20.9601,-332.789,0.354618,0.0,0.0
810,202.25,79.8129,86.876,122.578,102.171,97.4696,0.00143423,0.0926569,20.9627,-332.84,0.416599,0.0,0.0
813,203,79.6152,85.9303,123.471,102.171,98.1897,0.00134317,0.0913902,20.9646,-332.83,0.351505,0.0,0.0
816,203.75,78.7864,85.8127,122.523,102.173,97.749,0.00127679,0.0902442,20.9662,-332.86,0.391499,0.0,0.0
819,204.5,78.8458,85.9806,121.973,102.171,97.6097,0.00120049,0.0891343,20.9679,-332.84,0.403892,0.0,0.0
822,205.25,78.5116,85.0088,119.967,102.171,97.7305,0.00113297,0.0880506,20.9693,-332.83,0.392954,0.0,0.0
825,206,78.7988,84.6944,119.528,102.169,97.7125,0.00107283,0.0871436,20.9704,-332.83,0.394407,0.0,0.0
828,206.75,78.543,84.1506,119.914,102.175,97.7095,0.00102114,0.0864823,20.9712,-332.84,0.395258,0.0,0.0
831,207.5,77.7179,83.8106,121.588,102.179,98.3629,0.000978002,0.0853545,20.9722,-332.84,0.336637,0.0,0.0
834,208.25,77.3279,83.7959,122.415,102.178,98.2382,0.000929264,0.0842993,20.9735,-332.83,0.347782,0.0,0.0
837,209,77.5909,83.3328,120.628,102.185,98.0581,0.000884039,0.0834307,20.9747,-332.83,0.364627,0.0,0.0
840,209.75,76.9984,82.9145,122.859,102.185,98.194,0.000846936,0.082455,20.9762,-332.84,0.352347,0.0,0.0
843,210.5,76.6415,83.2382,125.608,102.193,98.0714,0.000800878,0.081468,20.9779,-332.86,0.36404,0.0,0.0
846,211.25,76.3718,83.2324,119.575,102.194,98.203,0.000751559,0.0805267,20.9791,-332.84,0.352293,0.0,0.0
849,212,76.4237,82.3217,122.47,102.193,98.0796,0.000708893,0.0794697,20.98,-332.85,0.363339,0.0,0.0
852,212.75,76.1881,81.7513,120.793,102.197,98.0671,0.000662248,0.0783984,20.9807,-332.83,0.364789,0.0,0.0
855,213.5,75.7174,81.4829,121.071,102.206,98.1819,0.000632067,0.0773525,20.9814,-332.84,0.355204,0.0,0.0
858,214.25,75.3406,80.7671,122.859,102.203,97.7516,0.000616602,0.0763564,20.9823,-332.87,0.393797,0.0,0.0
861,215,75.5812,80.7319,119.565,102.202,97.9089,0.000627782,0.075439,20.983,-332.87,0.379501,0.0,0.0
864,215.75,75.0127,80.7941,127.059,102.205,97.7757,0.000644412,0.0745594,20.9835,-332.88,0.3918,0.0,0.0
867,216.5,75.1272,80.3336,120.633,102.213,98.0379,0.00066015,0.073697,20.9845,-332.85,0.3688,0.0,0.0
870,217.25,74.8992,80.437,121.439,102.22,98.2778,0.000668167,0.0728091,20.9856,-332.85,0.347838,0.0,0.0
873,218,74.4378,79.8947,122.594,102.209,97.6661,0.000654634,0.0719221,20.9867,-332.86,0.402118,0.0,0.0
876,218.75,73.9052,79.8226,122.409,102.234,98.1991,0.000608068,0.0710546,20.9876,-332.88,0.356078,0.0,0.0
879,219.5,74.0584,79.2732,122.168,102.226,98.1394,0.000559435,0.0701088,20.988,-332.86,0.360845,0.0,0.0
882,220.25,73.4098,79.148,120.969,102.227,98.0362,0.000468197,0.0691638,20.9888,-332.87,0.37022,0.0,0.0
885,221,73.1769,78.2243,124.123,102.223,98.1265,0.000372758,0.0682665,20.9902,-332.88,0.361755,0.0,0.0
888,221.75,73.1427,78.6345,120.881,102.231,97.7512,0.000279271,0.0671064,20.9913,-332.88,0.396258,0.0,0.0
891,222.5,72.84,78.6397,126.365,102.234,97.7112,0.000185295,0.0666368,20.992,-332.87,0.400129,0.0,0.0
894,223.25,72.7308,77.9277,122.976,102.23,98.3715,0.000103509,0.0657643,20.9928,-332.87,0.340277,0.0,0.0
897,224,72.6945,78.148,121.035,102.232,97.7482,3.63206e-05,0.0648971,20.9938,-332.88,0.396674,0.0,0.0
900,224.75,72.3022,77.8364,122.567,102.233,97.7697,-1.59184e-05,0.0639897,20.9945,-332.89,0.394767,0.0,0.0
903,225.5,72.2306,76.7735,120.476,102.247,98.2593,-4.12952e-05,0.0631742,20.995,-332.89,0.351852,0.0,0.0
906,226.25,72.1382,77.4993,123.106,102.257,98.0211,-3.80687e-05,0.0624451,20.9956,-332.89,0.37418,0.0,0.0
909,227,71.8665,76.8728,118.372,102.259,98.6299,-3.57165e-05,0.0617005,20.9965,-332.87,0.319609,0.0,0.0
912,227.75,72.1478,76.1334,121.85,102.267,98.1643,2.9728e-05,0.0610362,20.9971,-332.88,0.362105,0.0,0.0
915,228.5,71.0095,76.3194,121.977,102.299,98.1088,8.22714e-05,0.0603441,20.9975,-332.87,0.369885,0.0,0.0
918,229.25,71.7914,76.2713,122.271,102.286,98.2438,0.000118185,0.0598396,20.9978,-332.86,0.356605,0.0,0.0
921,230,71.0854,75.5418,121.538,102.279,97.3123,0.000136753,0.0592954,20.9981,-332.89,0.440249,0.0,0.0
924,230.75,70.9139,75.2648,124.77,102.277,97.8225,0.000126168,0.0587734,20.9982,-332.93,0.393851,0.0,0.0
927,231.5,70.6879,75.4055,120.724,102.29,97.9743,0.000101548,0.0583074,20.9986,-332.89,0.381192,0.0,0.0
930,232.25,70.4321,75.336,123.512,102.298,97.5723,7.63933e-05,0.0578516,20.9993,-332.9,0.41827,0.0,0.0
933,233,70.19,74.8036,122.89,102.306,98.1854,2.42587e-05,0.057505,20.9997,-332.86,0.363567,0.0,0.0
936,233.75,70.287,74.9797,121.011,102.3,97.8247,-4.21316e-05,0.0572279,21.0001,-332.88,0.395572,0.0,0.0
939,234.5,70.6085,74.4727,121.254,102.3,98.4145,-0.000114429,0.0569099,21.0003,-332.86,0.342483,0.0,0.0
942,235.25,69.5308,74.4892,120.361,102.312,98.4992,-0.000187794,0.0565966,21.0005,-332.9,0.335924,0.0,0.0
945,236,70.1516,74.2226,122.241,102.323,98.6604,-0.000238862,0.0563336,21.0007,-332.88,0.322329,0.0,0.0
948,236.75,69.1892,73.4335,121.018,102.328,98.4687,-0.000268708,0.0561225,21.0008,-332.88,0.340036,0.0,0.0
951,237.5,69.6493,73.9859,124.06,102.333,98.2438,-0.000279603,0.0560093,21.0008,-332.89,0.360614,0.0,0.0
954,238.25,68.6107,73.8025,124.161,102.338,97.6622,-0.000267027,0.0559441,21.0009,-332.86,0.413634,0.0,0.0
957,239,69.2226,73.3628,123.303,102.342,98.1488,-0.000249111,0.0558772,21.0009,-332.88,0.369966,0.0,0.0
960,239.75,69.2161,73.1364,121.142,102.342,98.0173,-0.000221438,0.0557471,21.0009,-332.88,0.381826,0.0,0.0
963,240.5,69.1763,72.906,121.513,102.351,98.2688,-0.000176279,0.0556176,21.001,-332.9,0.359959,0.0,0.0
966,241.25,69.1756,72.942,124.919,102.35,97.8952,-0.000133029,0.0555232,21.001,-332.91,0.393536,0.0,0.0
969,242,68.3861,72.5281,119.573,102.363,98.0044,-9.42571e-05,0.0554615,21.001,-332.91,0.384831,0.0,0.0
972,242.75,68.7153,73.0391,122.626,102.361,99.4355,-5.97276e-05,0.0554287,21.001,-332.91,0.256479,0.0,0.0
975,243.5,68.4948,72.6382,124.413,102.378,98.2172,-2.91223e-05,0.0553777,21.001,-332.92,0.366914,0.0,0.0
978,244.25,68.184,72.8717,121.849,102.372,98.0895,2.84901e-06,0.0553147,21.001,-332.91,0.377911,0.0,0.0
981,245,68.2414,72.0022,118.467,102.396,97.6734,3.87291e-05,0.0552443,21.001,-332.91,0.41764,0.0,0.0
984,245.75,67.9546,72.0382,117.899,102.405,98.3104,6.84901e-05,0.055193,21.0012,-332.92,0.360863,0.0,0.0
987,246.5,67.983,71.8687,122.264,102.395,98.2451,6.84491e-05,0.0551556,21.0018,-332.91,0.365878,0.0,0.0
990,247.25,68.1797,71.8643,120.79,102.416,97.9562,5.91525e-05,0.0551213,21.0022,-332.89,0.393724,0.0,0.0
993,248,67.4863,71.2182,121.543,102.414,98.1359,1.44988e-05,0.055084,21.0025,-332.94,0.377336,0.0,0.0
996,248.75,67.9902,71.5694,121.614,102.428,97.685,-1.80538e-05,0.0550354,21.0027,-332.94,0.419296,0.0,0.0
999,249.5,67.1918,71.3681,125.003,102.416,98.3066,-5.62689e-05,0.0549634,21.0029,-332.93,0.362186,0.0,0.0
1002,250.25,67.6511,71.0749,121.731,102.427,97.9855,-8.14086e-05,0.0549882,21.0024,-332.91,0.392097,0.0,0.0
1005,251,67.3114,70.3071,122.35,102.433,98.1935,-8.45272e-05,0.0549792,21.0016,-332.91,0.373842,0.0,0.0
1008,251.75,66.9089,70.9506,121.786,102.446,98.1694,-4.89233e-05,0.0549611,21.0008,-332.9,0.377093,0.0,0.0
1011,252.5,67.0583,70.8988,121.065,102.445,97.9747,1.18633e-06,0.0549265,21.0002,-332.92,0.394618,0.0,0.0
1014,253.25,66.6832,70.1881,119.051,102.45,98.4033,4.80136e-05,0.0548647,20.9998,-332.93,0.356375,0.0,0.0
1017,254,66.7817,70.5521,123.964,102.483,98.1282,9.18177e-05,0.0547809,20.9995,-332.9,0.383985,0.0,0.0
1020,254.75,66.6169,70.3933,121.409,102.468,99.3134,0.000119605,0.054727,20.9993,-332.92,0.27651,0.0,0.0
1023,255.5,66.1682,70.0739,122.862,102.476,98.5061,0.000125726,0.0546999,20.9991,-332.94,0.349454,0.0,0.0
1026,256.25,66.6582,70.4639,127.853,102.489,97.5994,0.0001143,0.0546801,20.999,-332.92,0.432346,0.0,0.0
1029,257,66.0339,69.438,119.469,102.5,98.3569,7.88037e-05,0.0546657,20.9989,-332.91,0.364875,0.0,0.0
1032,257.75,65.8141,69.4941,122.577,102.503,98.148,4.08755e-05,0.0546746,20.9989,-332.92,0.38397,0.0,0.0
1035,258.5,66.0998,69.2971,122.922,102.507,98.7395,1.32259e-05,0.0546674,20.9988,-332.93,0.331191,0.0,0.0
1038,259.25,65.6111,69.8457,121.371,102.509,97.8745,-6.93073e-06,0.0546565,20.9988,-332.93,0.409145,0.0,0.0
1041,260,65.7571,69.6969,119.079,102.52,98.3229,-6.13065e-06,0.0546485,20.9988,-332.89,0.369697,0.0,0.0
1044,260.75,65.9675,69.6181,121.144,102.528,98.4622,2.07723e-06,0.0546562,20.9988,-332.94,0.357826,0.0,0.0
1047,261.5,65.2302,69.3639,119.509,102.539,98.7094,2.10989e-05,0.0546676,20.9987,-332.91,0.336625,0.0,0.0
1050,262.25,65.778,69.2351,122.747,102.546,98.595,4.35785e-05,0.0546179,20.9987,-332.92,0.347524,0.0,0.0
1053,263,65.8323,69.0005,121.335,102.546,98.2511,6.60051e-05,0.054596,20.9987,-332.92,0.378426,0.0,0.0
1056,263.75,65.8757,69.1024,121.984,102.558,98.6294,8.49286e-05,0.0546044,20.9987,-332.92,0.345449,0.0,0.0
1059,264.5,65.2565,69.2494,119.583,102.558,98.3943,9.7001e-05,0.0546241,20.9987,-332.91,0.36656,0.0,0.0
1062,265.25,65.4327,69.1366,123.398,102.575,98.4252,0.000100971,0.0546299,20.9987,-332.92,0.365255,0.0,0.0
1065,266,65.1368,67.9486,121.641,102.582,98.537,0.000102441,0.0546098,20.9987,-332.92,0.35583,0.0,0.0
1068,266.75,64.9019,67.4588,127.289,102.59,98.3195,0.000104599,0.0545951,20.9987,-332.93,0.376023,0.0,0.0
1071,267.5,65.132,67.9646,124.541,102.6,98.6466,0.000107232,0.0545844,20.9995,-332.96,0.347474,0.0,0.0
1074,268.25,65.3863,68.0002,123.6,102.6,98.0173,0.000109815,0.0545766,20.9999,-332.98,0.404077,0.0,0.0
1077,269,64.8605,68.5766,124.495,102.618,98.365,0.00010653,0.0545516,21.0002,-332.94,0.374303,0.0,0.0
1080,269.75,64.4115,67.9577,117.842,102.626,98.2675,0.000102928,0.054512,21.0004,-332.93,0.383837,0.0,0.0
1083,270.5,64.6412,68.124,122.356,102.628,98.1617,9.91512e-05,0.0544288,21.0006,-332.92,0.393505,0.0,0.0
1086,271.25,64.6596,67.8007,123.166,102.635,98.8555,9.64591e-05,0.0544439,21.0007,-332.92,0.331861,0.0,0.0
1089,272,64.2578,67.8805,119.561,102.649,98.2026,9.33488e-05,0.0544762,21.0008,-332.92,0.391661,0.0,0.0
1092,272.75,64.2838,67.5514,124.293,102.663,99.0533,8.07483e-05,0.0545364,21.0008,-332.91,0.316563,0.0,0.0
1095,273.5,64.623,67.6437,119.521,102.674,97.5818,6.20326e-05,0.054561,21.0015,-332.94,0.449866,0.0,0.0
1098,274.25,64.0216,67.0456,120.686,102.695,98.8736,3.20925e-05,0.0545664,21.002,-332.93,0.335357,0.0,0.0
1101,275,64.5145,68.087,121.027,102.694,97.9644,-7.83965e-06,0.0545635,21.0024,-332.9,0.416951,0.0,0.0
1104,275.75,64.3977,67.3791,120.939,102.706,98.4334,-4.65748e-05,0.0545471,21.0026,-332.91,0.375792,0.0,0.0
1107,276.5,64.0924,67.6565,119.229,102.707,98.7236,-7.80717e-05,0.0545107,21.0028,-332.93,0.349794,0.0,0.0
1110,277.25,64.1104,67.3677,123.241,102.722,99.0193,-0.000104653,0.0544571,21.003,-332.95,0.324635,0.0,0.0
1113,278,64.4041,67.0332,124.886,102.718,98.295,-0.000127481,0.0544065,21.0031,-332.95,0.38928,0.0,0.0
1116,278.75,64.6207,67.3525,120.064,102.74,98.3977,-0.000147382,0.0544082,21.0029,-332.94,0.381948,0.0,0.0
1119,279.5,63.9904,66.5684,119.5,102.74,98.853,-0.000161889,0.0544095,21.0024,-332.92,0.341125,0.0,0.0
1122,280.25,63.7596,66.9115,120.722,102.763,98.2339,-0.000174371,0.0544105,21.002,-332.94,0.398623,0.0,0.0
1125,281,63.9378,67.2217,125.079,102.775,98.7107,-0.00018673,0.0544111,21.0018,-332.95,0.356885,0.0,0.0
1128,281.75,64.2042,66.7703,121.513,102.779,98.0667,-0.000195739,0.054371,21.0016,-332.94,0.415093,0.0,0.0
1131,282.5,63.6111,66.5079,123.819,102.784,98.7283,-0.000212636,0.0543244,21.0014,-332.92,0.356026,0.0,0.0
1134,283.25,63.3277,66.5797,121.349,102.796,98.8702,-0.000238727,0.0543097,21.0013,-332.92,0.344369,0.0,0.0
1137,284,63.5481,66.5138,124.041,102.801,98.0744,-0.000262829,0.0543204,21.0012,-332.91,0.416264,0.0,0.0
1140,284.75,63.7189,66.5128,116.852,102.819,97.9373,-0.000289091,0.0543648,21.0012,-332.9,0.430149,0.0,0.0
1143,285.5,63.7954,66.259,119.701,102.82,98.5056,-0.000308236,0.0543972,21.0011,-332.91,0.379123,0.0,0.0
1146,286.25,63.3785,66.2959,120.887,102.827,98.6045,-0.000303254,0.0544065,21.0011,-332.91,0.370861,0.0,0.0
1149,287,63.8104,66.4517,123.235,102.832,98.9299,-0.000288188,0.0543889,21.0011,-332.89,0.342153,0.0,0.0
1152,287.75,63.32,66.0744,125.103,102.848,98.9428,-0.00025765,0.0543954,21.0011,-332.9,0.34233,0.0,0.0
1155,288.5,63.2998,65.8121,117.904,102.857,98.2228,-0.000242041,0.0544002,21.0011,-332.9,0.407753,0.0,0.0
1158,289.25,63.4082,65.6961,122.059,102.866,98.7446,-0.000196593,0.0544037,21.001,-332.9,0.361642,0.0,0.0
1161,290,63.0777,65.6078,122.646,102.869,98.6062,-0.000158632,0.0544062,21.0013,-332.92,0.3743,0.0,0.0
1164,290.75,62.9728,65.9389,124.793,102.878,98.4919,-0.000128901,0.0544013,21.0014,-332.93,0.385317,0.0,0.0
1167,291.5,62.8259,65.716,122.42,102.897,98.7253,-0.000108948,0.0543907,21.0016,-332.91,0.366069,0.0,0.0
1170,292.25,62.2475,65.5474,120.228,102.89,98.9514,-0.000104059,0.0543998,21.0023,-332.94,0.345154,0.0,0.0
1173,293,62.4183,66.0131,121.623,102.903,99.4436,-0.000107788,0.0544431,21.0028,-332.91,0.302455,0.0,0.0
1176,293.75,63.0513,65.4846,124.771,102.909,98.6767,-0.000115939,0.054434,21.0032,-332.91,0.371428,0.0,0.0
1179,294.5,62.4493,65.2088,124.304,102.915,99.2979,-0.000125324,0.05441,21.0035,-332.9,0.316395,0.0,0.0
1182,295.25,63.1269,65.4896,120.488,102.915,99.1014,-0.000132165,0.0543925,21.0037,-332.94,0.33391,0.0,0.0
1185,296,62.8109,65.7832,123.389,102.926,99.1049,-0.000137153,0.0544185,21.0032,-332.93,0.334573,0.0,0.0
1188,296.75,62.8102,65.0968,124.503,102.929,98.5456,-0.000140789,0.0544374,21.0027,-332.93,0.384874,0.0,0.0
1191,297.5,62.4456,65.2185,121.443,102.942,99.3705,-0.000148267,0.0544511,21.0023,-332.92,0.312297,0.0,0.0
1194,298.25,62.7577,65.2969,121.094,102.951,98.2094,-0.000155778,0.0544341,21.0019,-332.93,0.416961,0.0,0.0
1197,299,62.8236,65.2087,123.132,102.948,98.7421,-0.000152516,0.0544101,21.0017,-332.91,0.368877,0.0,0.0
1200,299.75,61.9412,64.7364,122.691,102.946,98.5843,-0.00013686,0.0544197,21.0015,-332.95,0.382874,0.0,0.0
1203,300.5,62.5148,65.4962,123.875,102.954,98.9935,-0.00011534,0.0544311,21.0011,-332.94,0.346918,0.0,0.0
1206,301.25,62.5851,64.819,127.952,102.967,98.5563,-9.20471e-05,0.0544272,21.0009,-332.94,0.387212,0.0,0.0
1209,302,62.4328,64.5361,123.388,102.984,98.4411,-7.50668e-05,0.0544372,21.0007,-332.96,0.398993,0.0,0.0
1212,302.75,62.6904,64.2165,123.089,102.978,99.049,,0.0544571,,-332.97,0.344011,0.0,0.0
1215,303.5,62.3066,64.6436,120.301,102.966,99.5085,,0.0544838,,-332.99,0.302105,0.0,0.0
1218,304.25,62.3614,64.4458,121.837,102.991,99.8576,,0.0545033,,-332.97,0.273254,0.0,0.0
1221,305,61.671,64.5575,119.727,102.986,98.4622,,0.0545175,,-332.95,0.397279,0.0,0.0
1224,305.75,62.3371,64.3129,121.676,102.983,98.8521,,,,-332.95,0.362076,0.0,0.0
1227,306.5,61.7563,64.333,121.836,103,99.1672,,,,-332.95,0.335364,0.0,0.0
1230,307.25,62.2552,64.1032,122.226,103.004,98.3693,,,,-332.95,0.407166,0.0,0.0
1233,308,62.1268,64.8501,121.59,103.011,99.5962,,,,-332.93,0.298155,0.0,0.0
1236,308.75,61.9061,64.4122,120.517,103.014,99.0713,,,,-332.94,0.345173,0.0,0.0
1239,309.5,61.7709,64.4593,123.352,103.017,99.7514,,,,-332.94,0.284923,0.0,0.0
1242,310.25,62.0181,64.229,125.2,103.021,99.2089,,,,-332.95,0.33344,0.0,0.0
1245,311,61.9909,64.3721,124.061,103.025,98.2356,,,,-332.95,0.420988,0.0,0.0
1248,311.75,61.6473,64.0963,121.981,103.029,98.2017,,,,-332.92,0.424368,0.0,0.0
1251,312.5,62.1433,64.3453,123.968,103.036,99.9462,,,,-332.95,0.269288,0.0,0.0
1254,313.25,61.7955,64.127,123.16,103.047,99.4372,,,,-332.94,0.315375,0.0,0.0
1255,313.5,61.8392,63.4525,123.226,103.037,98.7829,,,,-332.93,0.372934,0.0,0.0