File: 01_Data/Nylon_Carpet_LowPile/Cone/Nylon_Carpet_Low_Pile_Cone_HF50Scan_220318_R2.csv
Names,Time,Stack TC,Smoke TC,Exh Press,Smoke Comp,Smoke Meas,CO Meter,CO2 Meter,O2 Meter,Sample Mass,Ext Coeff,Start Test,Flame Verif
Chan Gain,,500,500,1,1,1,1,1,1,1,1,1.0,1.0
Offset,,0,0,0.13495,0,0,0,0,0,0,0,0.0,0.0
Gain,,1,1,25.011,13.0212,13.19,1,1,1,1.0009,1.01015,1.0,1.0
Units,sec,C,C,Pa,%,%,%,%,%,g,/m,,
Baseline,,41.3257,42.5503,130.038,98.7981,92.9862,0.000408658,0.0421488,21.0245,-489.361,0.537264,,
4,0.75,40.7426,41.5687,127.469,98.6741,92.5256,0.000199986,0.042876,21.0229,30.4874,0.570087,0.0,0.0
8,1.75,40.6082,41.6532,131.386,98.6777,92.9502,0.00022869,0.043262,21.023,30.3973,0.529833,0.0,0.0
12,2.75,40.7975,41.5061,130.182,98.659,93.0291,0.0003091,0.0438121,21.0223,30.4073,0.520637,0.0,0.0
16,3.75,40.6292,41.4362,128.874,98.6482,92.7152,0.000420841,0.0443454,21.0218,30.3573,0.549629,0.0,0.0
20,4.75,39.8231,41.5741,125.714,98.6423,92.7007,0.000534328,0.0447923,21.0215,30.3473,0.550479,0.0,0.0
24,5.75,40.6254,41.6228,131.151,98.6316,93.1547,0.000601435,0.0451252,21.0209,30.3573,0.50622,0.0,0.0
28,6.75,40.6862,41.9513,129.865,98.6248,92.5171,0.000598341,0.0453833,21.0201,30.3373,0.56647,0.0,0.0
32,7.75,40.3401,42.1561,125.979,98.6149,92.6198,0.000532625,0.0456584,21.02,30.3573,0.555752,0.0,0.0
36,8.75,40.7882,41.6159,128.47,98.6065,93.7557,0.000467206,0.0459405,21.0203,30.3473,0.446989,0.0,0.0
40,9.75,40.5255,41.8696,132.356,98.5982,92.7812,0.000411045,0.0461319,21.0198,30.3173,0.538824,0.0,0.0
44,10.75,40.1305,41.6805,126.583,98.5882,93.2079,0.00039135,0.0461876,21.02,30.3072,0.497276,0.0,0.0
48,11.75,40.4806,41.8546,129.964,98.5843,92.5683,0.000391458,0.0461502,21.0203,30.2672,0.557934,0.0,0.0
52,12.75,40.3001,41.7919,130.487,98.5727,92.4451,0.00038713,0.0460093,21.0208,30.2572,0.568697,0.0,0.0
56,13.75,40.6438,42.0117,128.868,98.5592,93.0255,0.000364499,0.0458181,21.0211,30.2572,0.512019,0.0,0.0
60,14.75,40.7345,41.656,130.407,98.5461,92.79,0.000339257,0.0456096,21.0214,30.2372,0.533299,0.0,0.0
64,15.75,40.4219,41.7395,132.968,98.5366,92.4825,0.000322457,0.0453599,21.0215,30.2572,0.561858,0.0,0.0
68,16.75,40.3491,41.747,127.735,98.5282,92.6745,0.000317671,0.0450699,21.0216,30.2372,0.54273,0.0,0.0
72,17.75,41.1733,42.2862,130.651,98.5203,92.9056,0.000312612,0.0448272,21.0217,30.1971,0.519951,0.0,0.0
76,18.75,40.4545,42.1975,130.118,98.5084,92.8512,0.000304616,0.0445203,21.0225,30.1971,0.524063,0.0,0.0
80,19.75,40.4587,41.806,129.057,98.4806,92.8532,0.000308163,0.0442025,21.0231,30.1871,0.521368,0.0,0.0
84,20.75,40.9757,41.9773,129.166,98.4794,92.724,0.000341277,0.043924,21.0234,30.2072,0.5336,0.0,0.0
88,21.75,40.535,41.909,130.915,98.4714,92.429,0.000411413,0.0436764,21.0237,30.1671,0.561126,0.0,0.0
92,22.75,40.8443,42.1659,124.287,98.4523,92.6158,0.00045743,0.0434699,21.0238,30.1671,0.541522,0.0,0.0
96,23.75,40.6653,41.6151,128.961,98.4452,93.0396,0.00049439,0.0433073,21.0239,30.1571,0.500418,0.0,0.0
100,24.75,40.8909,42.0027,133.015,98.4329,92.8826,0.000500401,0.0431785,21.0239,30.1271,0.514272,0.0,0.0
104,25.75,40.4632,41.8745,130.623,98.4205,92.5534,0.000488354,0.0430662,21.0239,30.1171,0.544632,0.0,0.0
108,26.75,40.8695,41.9158,128.165,98.4102,92.8279,0.000495111,0.042977,21.0239,30.077,0.517458,0.0,0.0
112,27.75,40.786,42.3857,129.649,98.3967,92.2551,0.000518212,0.0429359,21.0239,30.0971,0.571087,0.0,0.0
116,28.75,40.7947,42.1593,132.492,98.3864,92.526,0.000566948,0.0429336,21.0239,30.1071,0.544175,0.0,0.0
120,29.75,40.6649,42.272,126.597,98.3725,92.1553,0.000614694,0.0429318,21.0239,30.087,0.578498,0.0,0.0
124,30.75,41.2194,41.3831,128.732,98.3689,92.2032,0.000674667,0.0428923,21.0239,30.077,0.57357,0.0,0.0
128,31.75,40.3489,42.5337,126.439,98.3498,91.8671,0.000731648,0.0427976,21.0239,30.057,0.604212,0.0,0.0
132,32.75,40.6486,41.9508,131.208,98.3558,91.948,0.000788147,0.0426927,21.0239,30.037,0.596949,0.0,0.0
136,33.75,40.7589,42.0151,132.392,98.3514,91.8795,0.000839048,0.042629,21.0239,30.017,0.603152,0.0,0.0
140,34.75,40.7059,42.157,131.244,98.3482,92.7011,0.000874782,0.0425878,21.0239,29.987,0.523985,0.0,0.0
144,35.75,40.9499,42.5212,134.024,98.3435,92.2011,0.000898227,0.0425227,21.0239,29.9769,0.571473,0.0,0.0
148,36.75,40.6805,41.8667,130.495,98.3407,91.5583,0.000913609,0.0425149,21.0239,29.9469,0.633219,0.0,0.0
152,37.75,40.5042,42.1117,128.331,98.3367,90.9259,0.000923702,0.0425097,21.0239,29.9469,0.694273,0.0,0.0
156,38.75,40.8312,42.2703,130.662,98.351,90.8865,0.000921501,0.0426048,21.0239,29.9369,0.699406,0.0,0.0
160,39.75,41.0538,41.7831,130.692,98.3915,90.7746,0.000889188,0.0426671,21.0239,29.9069,0.713974,0.0,0.0
164,40.75,40.7228,42.1113,128.749,98.4404,91.0721,0.000821709,0.042708,21.0233,29.9069,0.689385,0.0,0.0
168,41.75,41.0541,42.4186,127.774,98.4706,91.4243,0.000735596,0.0427077,21.0227,29.8969,0.6579,0.0,0.0
172,42.75,40.9168,42.6294,127.61,98.5028,91.0338,0.000648284,0.042699,21.0223,29.8568,0.69872,0.0,0.0
176,43.75,41.4026,42.9808,128.429,98.5338,91.2576,0.000590998,0.042718,21.0221,29.8468,0.67975,0.0,0.0
180,44.75,41.0594,42.3138,126.237,98.5799,90.2578,0.000557892,0.0427142,21.0219,29.8268,0.781517,0.0,0.0
184,45.75,40.912,42.7197,130.877,98.6033,90.4751,0.000547095,0.0426897,21.0218,29.8068,0.76231,0.0,0.0
188,46.75,41.2619,42.1799,128.008,98.6343,89.5839,0.000566775,0.0426983,21.0219,29.7868,0.852809,0.0,0.0
192,47.75,41.3627,42.7372,125.35,98.6721,89.2579,0.000607449,0.0427814,21.0225,29.7868,0.888509,0.0,0.0
196,48.75,41.8556,42.7272,129,98.6856,89.6358,0.000642536,0.0428568,21.022,29.8068,0.852278,0.0,0.0
200,49.75,40.98,42.4263,130.596,98.713,89.8291,0.000682117,0.0429802,21.0209,29.7467,0.835662,0.0,0.0
204,50.75,41.479,42.843,126.757,98.7512,89.4157,0.000738581,0.0431349,21.0202,29.7668,0.879957,0.0,0.0
208,51.75,41.2312,42.7115,128.361,98.7694,89.5449,0.000863511,0.0434087,21.019,29.7367,0.868802,0.0,0.0
212,52.75,41.3815,42.7337,126.902,98.7897,89.6564,0.00100342,0.0459294,21.0126,29.7568,0.859594,0.0,0.0
216,53.75,41.5292,43.07,120.274,98.8223,91.9777,0.00118587,0.0610369,20.9907,29.6767,0.636009,0.0,1.0
220,54.75,41.6782,43.1014,121.801,98.8402,92.8291,0.00138306,0.0859124,20.9244,29.6366,0.555973,0.0,1.0
224,55.75,41.7108,43.639,120.754,98.8815,92.1842,0.00159888,0.125758,20.8588,29.5366,0.621445,0.0,1.0
228,56.75,42.4048,43.9771,114.068,98.8906,93.2163,0.00186925,0.17298,20.7865,29.5466,0.523609,0.0,1.0
232,57.75,43.2184,44.347,110.308,98.9113,92.3682,0.00213514,0.220948,20.7274,29.4164,0.606451,0.0,1.0
236,58.75,43.6571,44.9144,113.207,98.9264,92.6403,0.00242439,0.261889,20.6715,29.3164,0.581738,0.0,1.0
240,59.75,45.0288,45.8578,115.298,98.9431,92.4676,0.00268975,0.297237,20.6196,29.2463,0.599765,0.0,0.0
244,60.75,45.82,47.0071,112.942,98.9665,92.4491,0.00287111,0.330743,20.5783,29.1962,0.603639,0.0,0.0
248,61.75,47.0005,47.8135,116.334,98.982,91.3623,0.00310922,0.36027,20.5266,29.0861,0.709813,0.0,0.0
252,62.75,46.7335,49.0149,113.297,99.0011,91.632,0.00330412,0.386347,20.4845,29.0461,0.685402,0.0,0.0
256,63.75,48.4489,50.3552,108.524,99.0138,91.1522,0.00346531,0.40463,20.4469,28.946,0.733061,0.0,0.0
260,64.75,49.076,50.8987,112.428,99.0277,90.9831,0.0036242,0.426898,20.4132,28.8459,0.750754,0.0,0.0
264,65.75,49.7531,51.8939,107.156,99.0381,89.2156,0.00380121,0.449628,20.3769,28.7458,0.925511,0.0,0.0
268,66.75,50.4863,52.8087,109.858,99.0444,89.4281,0.00396818,0.469965,20.3424,28.5957,0.904996,0.0,0.0
272,67.75,51.5134,53.9277,105.756,99.0575,88.7253,0.00414301,0.492154,20.3169,28.5256,0.976082,0.0,0.0
276,68.75,52.2229,54.652,110.977,99.0778,87.4674,0.00438352,0.518564,20.2816,28.4155,1.10442,0.0,0.0
280,69.75,53.5424,55.6638,104.126,99.0854,87.5141,0.00464973,0.544681,20.2475,28.2954,1.10037,0.0,0.0
284,70.75,54.7774,57.2331,108.952,99.1024,88.698,0.0049547,0.567139,20.2184,28.1853,0.982832,0.0,0.0
288,71.75,55.5814,58.0272,107.377,99.0969,85.7764,0.00533452,0.587587,20.1864,28.0252,1.27911,0.0,0.0
292,72.75,56.7694,58.8976,104.221,99.1168,86.0127,0.00577,0.610873,20.1503,27.9651,1.25651,0.0,0.0
296,73.75,57.0289,61.039,106.001,99.1303,85.0527,0.00626861,0.633642,20.1137,27.815,1.35718,0.0,0.0
300,74.75,58.6558,61.1616,106.293,99.1303,85.1827,0.00663215,0.6565,20.0863,27.7449,1.34364,0.0,0.0
304,75.75,59.5132,62.8762,107.924,99.1358,85.0937,0.00707577,0.677367,20.0521,27.5748,1.3534,0.0,0.0
308,76.75,60.4632,63.9851,103.65,99.1481,85.3107,0.00742626,0.695972,20.0182,27.4347,1.33194,0.0,0.0
312,77.75,61.046,65.5288,102.964,99.1438,85.3803,0.00768505,0.710662,19.9851,27.3746,1.32432,0.0,0.0
316,78.75,62.6298,66.1656,102.522,99.1561,84.0476,0.00786659,0.730417,19.9552,27.2345,1.46482,0.0,0.0
320,79.75,63.7771,67.4468,99.6471,99.1628,85.9475,0.00800409,0.747262,19.9325,27.1044,1.26735,0.0,0.0
324,80.75,64.4066,69.2524,105.471,99.1609,85.7527,0.00812406,0.759905,19.9142,26.9843,1.28728,0.0,0.0
328,81.75,65.72,70.3534,106.546,99.1648,85.4423,0.00823854,0.769881,19.897,26.8341,1.31977,0.0,0.0
332,82.75,66.4778,71.5931,100.742,99.1724,82.8223,0.0083694,0.778981,19.8801,26.714,1.59641,0.0,0.0
336,83.75,67.4062,72.7438,102.329,99.1768,84.7838,0.00852942,0.78771,19.8656,26.5339,1.38939,0.0,0.0
340,84.75,68.8152,73.784,101.852,99.1954,83.7078,0.00869626,0.794676,19.8554,26.4438,1.50423,0.0,0.0
344,85.75,69.6264,74.5201,110.937,99.1867,84.6807,0.00889085,0.799524,19.8487,26.3537,1.40105,0.0,0.0
348,86.75,70.3714,75.5421,102.567,99.1867,83.5364,0.00914346,0.804284,19.8411,26.2236,1.52162,0.0,0.0
352,87.75,71.672,76.5493,98.0518,99.1915,83.2783,0.00940422,0.810059,19.8323,26.1035,1.54946,0.0,0.0
356,88.75,72.133,77.8945,105.99,99.2014,83.5311,0.00974958,0.815658,19.8224,25.9333,1.52349,0.0,0.0
360,89.75,73.6052,78.5633,102.919,99.2038,82.0619,0.0101469,0.823082,19.8095,25.8332,1.68094,0.0,0.0
364,90.75,74.378,79.7808,98.809,99.2038,80.6824,0.010508,0.831203,19.7977,25.6831,1.83116,0.0,0.0
368,91.75,74.8916,81.0691,102.789,99.2026,82.8086,0.0107936,0.837228,19.7884,25.533,1.60057,0.0,0.0
372,92.75,75.7123,82.3276,105.009,99.2081,81.145,0.0110205,0.841497,19.7845,25.4429,1.7809,0.0,0.0
376,93.75,76.4403,82.8229,100.693,99.2034,82.9861,0.0111601,0.846718,19.7795,25.3128,1.58167,0.0,0.0
380,94.75,76.9533,83.9531,103.412,99.2137,80.9654,0.0112493,0.850787,19.7708,25.1526,1.80102,0.0,0.0
384,95.75,78.3671,85.0128,96.2596,99.2145,81.5257,0.0113298,0.860418,19.7581,25.0325,1.73998,0.0,0.0
388,96.75,79.0881,85.5775,103.083,99.2201,81.4267,0.0114361,0.866769,19.7488,24.8924,1.75125,0.0,0.0
392,97.75,79.9681,86.7877,103.022,99.2129,77.9581,0.0115774,0.871329,19.7418,24.8023,2.13634,0.0,0.0
396,98.75,80.0825,87.5668,100.531,99.2193,79.4636,0.011736,0.877092,19.7284,24.6021,1.96743,0.0,0.0
400,99.75,81.5583,88.6669,101.2,99.2097,80.4285,0.0118808,0.885566,19.7145,24.472,1.85963,0.0,0.0
404,100.75,81.9704,89.4473,104.466,99.2117,77.3475,0.0121069,0.89477,19.6958,24.3519,2.20591,0.0,0.0
408,101.75,82.7199,90.3278,104.257,99.224,75.3413,0.0122216,0.904361,19.6851,24.1717,2.43988,0.0,0.0
412,102.75,83.1893,90.6738,102.794,99.205,75.6601,0.0123815,0.912794,19.6728,24.0416,2.40076,0.0,0.0
416,103.75,84.106,92.1804,99.9371,99.1978,75.7913,0.012566,0.920543,19.6647,23.9215,2.38476,0.0,0.0
420,104.75,84.8455,92.7951,102.666,99.2026,77.8177,0.0127596,0.922501,19.6624,23.7514,2.1514,0.0,0.0
424,105.75,86.0527,93.2281,101.45,99.1863,79.2845,0.0129088,0.919783,19.6683,23.6212,1.98448,0.0,0.0
428,106.75,85.726,94.1801,102.359,99.1795,75.3703,0.0129777,0.912185,19.6793,23.5111,2.43249,0.0,0.0
432,107.75,86.8591,94.8833,99.5188,99.1744,77.4308,0.0129701,0.903555,19.6895,23.361,2.19304,0.0,0.0
436,108.75,87.3734,95.7352,101.27,99.1656,77.2316,0.0129343,0.895542,19.7002,23.2109,2.21509,0.0,0.0
440,109.75,87.9169,96.3334,108.56,99.1565,78.2294,0.0128949,0.887289,19.7089,23.1308,2.10052,0.0,0.0
444,110.75,88.338,96.657,104.088,99.1473,76.0067,0.0128117,0.877324,19.7241,22.9907,2.35511,0.0,0.0
448,111.75,88.7681,97.2285,107.671,99.1326,76.2824,0.012694,0.867765,19.7409,22.8505,2.32171,0.0,0.0
452,112.75,89.193,97.9469,101.545,99.1279,76.4434,0.0125538,0.858775,19.7588,22.7204,2.3026,0.0,0.0
456,113.75,88.9884,97.9953,102.987,99.1072,75.6291,0.0124076,0.843439,19.7841,22.6003,2.39565,0.0,0.0
460,114.75,89.4854,98.6077,104.662,99.1108,75.6766,0.012268,0.825711,19.8037,22.5002,2.39041,0.0,0.0
464,115.75,90.0016,98.9517,103.042,99.0961,76.7494,0.0121414,0.809974,19.824,22.3601,2.26437,0.0,0.0
468,116.75,90.3835,99.2405,106.438,99.0774,76.9156,0.0120439,0.796494,19.842,22.26,2.24353,0.0,0.0
472,117.75,90.5272,99.8985,105.653,99.0603,77.7295,0.011968,0.784038,19.8595,22.1699,2.14873,0.0,0.0
476,118.75,90.6661,100.199,112.943,99.0432,76.955,0.0118991,0.772916,19.8797,22.0598,2.23593,0.0,0.0
480,119.75,91.0219,100.191,103.326,99.0269,77.1668,0.0118165,0.761188,19.9019,21.9597,2.21012,0.0,0.0
484,120.75,91.2123,100.492,108.833,99.0091,74.8849,0.0117404,0.746306,19.9259,21.8496,2.47451,0.0,0.0
488,121.75,91.6198,100.706,107.759,98.9852,77.0706,0.01161,0.73115,19.9501,21.7496,2.21744,0.0,0.0
492,122.75,91.2826,101.385,109.174,98.9657,76.9788,0.011435,0.713414,19.9728,21.6495,2.22626,0.0,0.0
496,123.75,91.9192,100.915,103.337,98.9431,76.094,0.0112308,0.695634,19.999,21.5093,2.32666,0.0,0.0
500,124.75,91.4093,100.755,107.542,98.9189,79.6097,0.0110081,0.678874,20.025,21.4393,1.92428,0.0,0.0
504,125.75,91.2976,101.176,104.902,98.8958,75.2338,0.0107626,0.664357,20.0488,21.3392,2.42317,0.0,0.0
508,126.75,91.4078,101.038,111.443,98.8644,77.4574,0.0105092,0.652321,20.067,21.2591,2.16226,0.0,0.0
512,127.75,91.276,100.901,107.647,98.8318,76.2772,0.0103106,0.64333,20.0799,21.159,2.29539,0.0,0.0
516,128.75,91.3108,100.869,106.681,98.8012,73.8552,0.0100937,0.636344,20.0901,21.099,2.57857,0.0,0.0
520,129.75,91.0552,100.381,108.392,98.7933,77.589,0.00993184,0.630112,20.1026,20.9789,2.14084,0.0,0.0
524,130.75,90.7684,100.253,107.46,98.752,73.8306,0.00986478,0.622003,20.1153,20.8988,2.5771,0.0,0.0
528,131.75,89.6696,101.346,107.461,98.7261,76.3054,0.00987383,0.613479,20.1298,20.7787,2.28264,0.0,0.0
532,132.75,91.2098,100.743,110.057,98.6963,77.4465,0.00991206,0.605422,20.1438,20.7286,2.14843,0.0,0.0
536,133.75,90.7061,100.49,106.547,98.6733,76.7268,0.00992791,0.597736,20.1558,20.6185,2.22909,0.0,0.0
540,134.75,91.1064,100.709,107.758,98.686,76.2675,0.00990009,0.590534,20.1658,20.5685,2.28343,0.0,0.0
544,135.75,90.8049,100.579,110.683,98.7233,76.7771,0.00981141,0.583634,20.1782,20.4784,2.22777,0.0,0.0
548,136.75,90.7511,99.8561,106.877,98.7043,78.4681,0.00966913,0.575208,20.1909,20.3783,2.03302,0.0,0.0
552,137.75,90.3407,100.21,111.625,98.7436,77.7263,0.00956229,0.566995,20.2006,20.2982,2.12072,0.0,0.0
556,138.75,90.4465,100.323,104.215,98.7233,74.531,0.00933719,0.559966,20.2105,20.2182,2.49086,0.0,0.0
560,139.75,90.1427,99.4209,113.856,98.7365,77.1833,0.00912261,0.553303,20.2204,20.1281,2.1822,0.0,0.0
564,140.75,90.5119,100.208,110.987,98.7484,76.8101,0.00896889,0.547584,20.2313,20.048,2.22621,0.0,0.0
568,141.75,89.9974,99.7651,112.706,98.7595,78.0129,0.00887214,0.541246,20.2418,19.988,2.08953,0.0,0.0
572,142.75,89.7907,99.6006,111.546,98.7778,77.7287,0.0088316,0.53332,20.2518,19.9079,2.12351,0.0,0.0
576,143.75,90.1846,99.7407,108.912,98.7941,75.8932,0.008805,0.526255,20.2631,19.8178,2.33673,0.0,0.0
580,144.75,89.8852,99.4829,108.232,98.8211,74.9589,0.00877379,0.519547,20.2741,19.7377,2.44891,0.0,0.0
584,145.75,89.7347,99.3775,112.363,98.8171,75.834,0.00871891,0.512899,20.2857,19.7177,2.34571,0.0,0.0
588,146.75,89.6241,99.1513,114.479,98.833,76.4249,0.00862791,0.505674,20.297,19.5976,2.27835,0.0,0.0
592,147.75,89.386,99.1529,112.646,98.8477,77.3801,0.00853753,0.499488,20.3058,19.5075,2.16961,0.0,0.0
596,148.75,89.5557,98.0469,111.933,98.86,76.4873,0.00846997,0.49469,20.3123,19.3874,2.27355,0.0,0.0
600,149.75,89.245,98.6778,109.767,98.8791,76.4893,0.00845929,0.491236,20.3166,19.3374,2.27502,0.0,0.0
604,150.75,88.5582,98.3794,108.874,98.891,74.9001,0.00848965,0.488946,20.3194,19.2873,2.46213,0.0,0.0
608,151.75,88.807,97.9697,110.139,98.9057,75.4645,0.00855312,0.487749,20.3218,19.2273,2.39693,0.0,0.0
612,152.75,88.4715,98.0416,113.578,98.9268,75.4927,0.00858789,0.486387,20.3249,19.1172,2.39551,0.0,0.0
616,153.75,88.6638,97.9469,107.705,98.9431,76.0216,0.00856028,0.484127,20.3285,19.0872,2.3351,0.0,0.0
620,154.75,88.2817,97.9911,112.237,98.951,76.3935,0.00846659,0.48112,20.3337,19.0271,2.29257,0.0,0.0
624,155.75,88.562,97.442,107.251,98.9638,74.936,0.00832553,0.476945,20.3392,18.907,2.4644,0.0,0.0
628,156.75,88.1478,97.339,110.163,98.9757,77.1048,0.00812311,0.471938,20.3479,18.877,2.21266,0.0,0.0
632,157.75,87.8605,97.2793,112.972,98.9936,77.61,0.00792455,0.465153,20.3575,18.8169,2.15639,0.0,0.0
636,158.75,87.6567,97.2885,113.243,99.0154,78.5265,0.00776484,0.458359,20.3679,18.7469,2.05432,0.0,0.0
640,159.75,87.5298,96.8544,115.213,99.0393,77.5625,0.00764881,0.451149,20.3811,18.6868,2.16591,0.0,0.0
644,160.75,87.2603,96.8464,110.415,99.0524,76.5388,0.00758077,0.445167,20.3897,18.6167,2.2848,0.0,0.0
648,161.75,87.2924,96.3302,112.894,99.0707,77.0581,0.00753157,0.44044,20.3959,18.5367,2.22652,0.0,0.0
652,162.75,87.1752,96.1404,113.958,99.0901,78.9085,0.00749929,0.436939,20.401,18.4766,2.018,0.0,0.0
656,163.75,86.9839,96.0841,116.346,99.1009,79.6435,0.00739838,0.433872,20.4052,18.3565,1.9368,0.0,0.0
660,164.75,86.8153,95.9119,116.598,99.1231,80.2908,0.007273,0.431415,20.4105,18.3065,1.86707,0.0,0.0
664,165.75,86.3418,95.5728,112.812,99.1386,77.1462,0.00714753,0.429462,20.4146,18.2764,2.22247,0.0,0.0
668,166.75,86.163,95.0787,112.684,99.1434,77.6921,0.00705612,0.427952,20.4174,18.2164,2.16042,0.0,0.0
672,167.75,86.03,95.2332,114.299,99.1688,79.6133,0.00698705,0.426788,20.4191,18.1663,1.94624,0.0,0.0
676,168.75,85.9164,95.4213,107.328,99.1831,77.6792,0.0069209,0.425563,20.4205,18.0562,2.16544,0.0,0.0
680,169.75,85.4081,94.3274,113.712,99.1934,78.8743,0.00685971,0.424136,20.4228,17.9762,2.03108,0.0,0.0
684,170.75,85.9161,94.509,110.969,99.2046,79.8818,0.00673709,0.422623,20.4259,17.9361,1.9196,0.0,0.0
688,171.75,85.538,94.8427,108.111,99.2304,77.4614,0.00664377,0.421667,20.428,17.8861,2.19454,0.0,0.0
692,172.75,85.4868,94.1845,113.947,99.2562,80.9223,0.00657574,0.419426,20.4318,17.826,1.80954,0.0,0.0
696,173.75,85.1658,93.8177,114.942,99.2515,81.5161,0.00652656,0.416523,20.4382,17.756,1.74433,0.0,0.0
700,174.75,84.9633,94.278,114.997,99.2666,80.4349,0.00648296,0.412962,20.4445,17.6659,1.864,0.0,0.0
704,175.75,84.8466,94.0446,114.314,99.292,80.802,0.00644075,0.409361,20.4508,17.6459,1.82592,0.0,0.0
708,176.75,84.7454,93.8238,116.141,99.3035,80.0911,0.00640303,0.405755,20.4558,17.5558,1.90524,0.0,0.0
712,177.75,84.5889,93.2466,114.196,99.327,80.5516,0.00636767,0.402188,20.4602,17.5258,1.85654,0.0,0.0
716,178.75,84.8291,93.0052,114.013,99.3421,80.9485,0.00633493,0.398876,20.4656,17.4457,1.81433,0.0,0.0
720,179.75,84.0413,93.1635,112.245,99.3429,81.2685,0.00630235,0.395524,20.4717,17.3856,1.77944,0.0,0.0
724,180.75,84.3621,93.1612,115,99.3655,79.7264,0.00628067,0.391697,20.478,17.3356,1.95121,0.0,0.0
728,181.75,83.742,92.7498,114.448,99.3671,80.445,0.00627016,0.388345,20.4824,17.2555,1.87186,0.0,0.0
732,182.75,84.0358,92.413,111.595,99.3818,80.519,0.00626486,0.385909,20.4859,17.2055,1.86501,0.0,0.0
736,183.75,84.4088,92.3498,114.02,99.4052,79.5751,0.00622967,0.383557,20.4894,17.1354,1.97159,0.0,0.0
740,184.75,83.7003,91.9266,120.13,99.3985,81.9254,0.00616582,0.381176,20.492,17.0753,1.71306,0.0,0.0
744,185.75,83.3845,91.9838,114.088,99.4064,80.8237,0.00610025,0.379134,20.4951,17.0453,1.83374,0.0,0.0
748,186.75,83.4276,91.7165,119.128,99.4184,79.6085,0.00598829,0.376956,20.4984,16.9753,1.96904,0.0,0.0
752,187.75,82.9705,91.6718,115.605,99.4307,81.4106,0.00587385,0.374427,20.504,16.9152,1.77179,0.0,0.0
756,188.75,83.0516,90.2027,111.42,99.4374,80.703,0.00577641,0.371713,20.5087,16.8852,1.84975,0.0,0.0
760,189.75,84.1207,91.2238,115.211,99.4426,79.97,0.00570338,0.369227,20.5132,16.7951,1.93106,0.0,0.0
764,190.75,82.1767,90.479,113.949,99.4585,80.3169,0.00565672,0.367039,20.5167,16.7551,1.89411,0.0,0.0
768,191.75,81.0755,90.5722,117.299,99.472,81.0906,0.00563086,0.364901,20.5205,16.685,1.81037,0.0,0.0
772,192.75,83.0365,89.9331,115.674,99.4593,80.5963,0.00562086,0.362835,20.525,16.6049,1.86342,0.0,0.0
776,193.75,82.0321,91.0678,119.141,99.4788,81.7363,0.00562917,0.359968,20.5297,16.6149,1.7407,0.0,0.0
780,194.75,80.8196,90.4392,112.459,99.4811,80.7074,0.00565493,0.357419,20.5331,16.5549,1.85316,0.0,0.0
784,195.75,81.969,90.1104,113.349,99.4823,81.2295,0.00567541,0.355717,20.5353,16.4648,1.79613,0.0,0.0
788,196.75,81.5696,90.4631,117.366,99.503,80.8624,0.00568682,0.354777,20.5368,16.4148,1.83811,0.0,0.0
792,197.75,81.757,89.398,112.806,99.4867,80.0372,0.00564009,0.354013,20.5382,16.3547,1.92755,0.0,0.0
796,198.75,81.4647,89.7889,114.76,99.5094,80.8688,0.005553,0.352865,20.5406,16.3147,1.83797,0.0,0.0
800,199.75,81.452,89.2041,113.604,99.4966,81.7053,0.00543947,0.35114,20.5426,16.2746,1.74566,0.0,0.0
804,200.75,80.8854,88.5322,114.004,99.4962,82.6428,0.00535627,0.348938,20.5464,16.2446,1.64453,0.0,0.0
808,201.75,81.0234,89.0688,115.166,99.4819,81.8691,0.00531949,0.346725,20.5497,16.1745,1.7266,0.0,0.0
812,202.75,80.2786,88.5711,114.257,99.4998,81.18,0.00531845,0.345096,20.5525,16.0845,1.80309,0.0,0.0
816,203.75,80.1418,88.6432,114.004,99.497,82.268,0.00535777,0.34377,20.5545,16.0344,1.68487,0.0,0.0
820,204.75,80.4536,87.9203,118.432,99.4978,82.7567,0.0054513,0.342605,20.556,15.9944,1.63246,0.0,0.0
824,205.75,80.5548,88.1789,118.14,99.495,82.6057,0.00553526,0.341427,20.5578,15.9143,1.64839,0.0,0.0
828,206.75,80.1978,87.7744,113.227,99.495,82.1187,0.00557905,0.339278,20.5596,15.8543,1.70079,0.0,0.0
832,207.75,79.4884,87.3415,118.795,99.4883,82.1026,0.00558152,0.337867,20.562,15.8342,1.70193,0.0,0.0
836,208.75,79.9587,87.7993,114.361,99.4803,80.8024,0.00550596,0.337401,20.5641,15.7842,1.84267,0.0,0.0
840,209.75,79.8422,87.6547,116.773,99.4672,83.3101,0.00541456,0.33668,20.5662,15.7542,1.57067,0.0,0.0
844,210.75,80.1738,87.5063,116.786,99.4676,82.4958,0.00533061,0.335764,20.5684,15.6741,1.65775,0.0,0.0
848,211.75,79.6162,87.4224,117.392,99.4672,82.9905,0.00525554,0.334042,20.571,15.614,1.60473,0.0,0.0
852,212.75,79.828,86.6929,116.794,99.4593,82.1368,0.00518121,0.332451,20.5737,15.564,1.69565,0.0,0.0
856,213.75,79.2167,86.8107,116.208,99.4509,82.5534,0.00511388,0.331236,20.5756,15.5139,1.65008,0.0,0.0
860,214.75,79.3362,86.835,116.11,99.4462,82.6355,0.00504482,0.330513,20.5768,15.4939,1.64085,0.0,0.0
864,215.75,79.1547,86.731,112.685,99.4358,82.2314,0.00495463,0.330473,20.5775,15.4139,1.68337,0.0,0.0
868,216.75,79.099,87.0102,113.367,99.41,83.4599,0.0048804,0.330766,20.5781,15.3838,1.54966,0.0,0.0
872,217.75,79.0119,86.3676,114.467,99.4068,83.156,0.00482691,0.331045,20.5784,15.3138,1.5817,0.0,0.0
876,218.75,79.1553,86.2939,113.028,99.3973,82.1042,0.00478473,0.330677,20.5791,15.2437,1.69365,0.0,0.0
880,219.75,78.6229,85.9003,114.713,99.3743,82.9241,0.00473035,0.32948,20.5811,15.2437,1.60354,0.0,0.0
884,220.75,79.8755,86.0075,115.771,99.3703,82.4652,0.00464531,0.327511,20.5836,15.2137,1.65236,0.0,0.0
888,221.75,78.4587,85.6419,112.004,99.3516,81.0431,0.00456839,0.324819,20.5884,15.1236,1.80483,0.0,0.0
892,222.75,77.7983,86.9414,114.764,99.3357,81.5905,0.00451224,0.321765,20.5937,15.0736,1.74376,0.0,0.0
896,223.75,78.3348,85.2623,112.367,99.3162,82.9124,0.00448582,0.319309,20.5965,15.0335,1.59961,0.0,0.0
900,224.75,77.812,85.4423,114.507,99.2991,83.414,0.00446705,0.31721,20.5994,14.9935,1.54465,0.0,0.0
904,225.75,77.6966,85.2019,119.039,99.2801,83.034,0.00446712,0.315021,20.6031,14.9134,1.5834,0.0,0.0
908,226.75,77.4128,85.3656,115.806,99.2713,83.6354,0.00447758,0.313267,20.6074,14.8934,1.51868,0.0,0.0
912,227.75,77.6561,84.3978,116.989,99.2395,83.7219,0.00449697,0.310429,20.6119,14.8233,1.50668,0.0,0.0
916,228.75,77.5254,84.7559,117.076,99.2372,81.9589,0.00453026,0.307935,20.6155,14.8033,1.69506,0.0,0.0
920,229.75,77.6631,84.0981,120.21,99.2058,83.195,0.00457103,0.305618,20.6179,14.7533,1.5596,0.0,0.0
924,230.75,77.4453,84.3498,115.573,99.1871,83.5142,0.00460159,0.304342,20.6201,14.7032,1.524,0.0,0.0
928,231.75,77.1126,83.5223,114.596,99.1597,83.4015,0.00462873,0.303608,20.6223,14.6432,1.53352,0.0,0.0
932,232.75,76.7912,84.3967,115.732,99.1287,82.6295,0.00464648,0.302884,20.6241,14.6332,1.61316,0.0,0.0
936,233.75,77.0787,84.0987,117.188,99.104,83.0855,0.00465334,0.302251,20.6254,14.5431,1.56218,0.0,0.0
940,234.75,76.557,84.1285,116.74,99.083,82.7454,0.00463986,0.301709,20.6262,14.513,1.59665,0.0,0.0
944,235.75,76.3316,83.4863,114.575,99.0476,85.2081,0.00460855,0.300672,20.6267,14.443,1.33361,0.0,0.0
948,236.75,76.3356,83.4489,113.47,99.0234,84.1357,0.00457003,0.299903,20.6283,14.413,1.44367,0.0,0.0
952,237.75,76.0636,83.7271,113.143,98.9924,82.7567,0.0045223,0.299624,20.6297,14.3629,1.58733,0.0,0.0
956,238.75,76.163,83.1852,115.755,98.9622,82.6874,0.00447751,0.299425,20.6306,14.3129,1.59205,0.0,0.0
960,239.75,75.8133,82.9557,116.103,98.9359,83.7247,0.00445269,0.298952,20.6313,14.2628,1.47923,0.0,0.0
964,240.75,75.988,82.8442,120.729,98.895,82.0997,0.00445749,0.298083,20.6321,14.2328,1.64924,0.0,0.0
968,241.75,75.9654,83.0152,119.616,98.8696,84.1478,0.00447259,0.297131,20.6338,14.2128,1.42862,0.0,0.0
972,242.75,75.5764,82.5102,115.256,98.8382,83.9425,0.0044901,0.295884,20.6349,14.1027,1.44745,0.0,0.0
976,243.75,76.0324,82.4747,118.205,98.7917,83.4575,0.00449028,0.294952,20.6365,14.0727,1.49463,0.0,0.0
980,244.75,75.5255,82.8479,116.963,98.7663,83.6241,0.00447446,0.293896,20.6381,14.0526,1.47468,0.0,0.0
984,245.75,76.1415,81.7357,117.142,98.7321,84.6828,0.00444163,0.292572,20.64,14.0026,1.36014,0.0,0.0
988,246.75,75.0731,82.6829,116.325,98.6927,83.1085,0.00442363,0.29161,20.6418,13.9525,1.52289,0.0,0.0
992,247.75,75.0318,82.3054,115.364,98.6538,83.0823,0.00442339,0.290601,20.6438,13.9125,1.52218,0.0,0.0
996,248.75,74.8125,82.4528,116.154,98.6204,85.3477,0.00442255,0.289378,20.6459,13.8625,1.2808,0.0,0.0
1000,249.75,75.211,81.7525,118.126,98.5843,84.5902,0.00440335,0.287977,20.6481,13.8124,1.35655,0.0,0.0
1004,250.75,75.2029,81.6638,116.489,98.5513,83.5251,0.00435771,0.287452,20.6504,13.7824,1.46587,0.0,0.0
1008,251.75,75.2175,81.2573,117.695,98.5084,84.0757,0.00429364,0.286472,20.6531,13.7424,1.40378,0.0,0.0
1012,252.75,75.1712,81.3136,119.461,98.4786,84.0371,0.00425489,0.284878,20.6551,13.7223,1.40517,0.0,0.0
1016,253.75,74.5853,81.3098,120.177,98.4352,83.3979,0.00421232,0.282644,20.6571,13.6723,1.46893,0.0,0.0
1020,254.75,74.6717,81.2291,118.577,98.4046,85.9097,0.00419413,0.279622,20.659,13.6222,1.20324,0.0,0.0
1024,255.75,75.2295,81.0595,117.528,98.3411,84.7782,0.00420595,0.27728,20.6639,13.5822,1.315,0.0,0.0
1028,256.75,74.6202,80.7051,116.051,98.3085,83.1161,0.00420457,0.275113,20.6672,13.5422,1.4875,0.0,0.0
1032,257.75,74.2649,80.1868,118.311,98.2787,84.4767,0.00416381,0.2735,20.6701,13.4921,1.34094,0.0,0.0
1036,258.75,74.4152,80.6467,115.613,98.2397,83.0739,0.00407136,0.271871,20.6736,13.4821,1.48581,0.0,0.0
1040,259.75,74.102,80.3334,117.892,98.1936,85.037,0.00395512,0.269992,20.6775,13.4521,1.27469,0.0,0.0
1044,260.75,74.1984,80.2523,118.866,98.1527,84.2597,0.00379612,0.268058,20.6807,13.372,1.35237,0.0,0.0
1048,261.75,74.0402,80.2495,117.6,98.1225,84.8905,0.00368733,0.265862,20.6848,13.362,1.28355,0.0,0.0
1052,262.75,73.8537,79.9779,118.255,98.0844,83.6901,0.00366066,0.263629,20.6887,13.322,1.40629,0.0,0.0
1056,263.75,73.3079,79.4627,117.333,98.0331,83.8407,0.00370135,0.261317,20.6932,13.302,1.38574,0.0,0.0
1060,264.75,73.65,79.5746,120.897,98.0172,84.6385,0.00378782,0.258593,20.698,13.2619,1.30038,0.0,0.0
1064,265.75,74.654,79.5654,119.349,97.9882,85.5828,0.00386508,0.255934,20.702,13.2419,1.19944,0.0,0.0
1068,266.75,72.2766,79.8028,117.62,97.954,84.8313,0.00390391,0.253438,20.7057,13.1919,1.2745,0.0,0.0
1072,267.75,73.1087,78.9173,120.622,97.9187,84.4787,0.00386314,0.250963,20.7106,13.1518,1.30821,0.0,0.0
1076,268.75,73.2024,78.904,120.3,97.9036,85.0217,0.00377159,0.247889,20.7146,13.1118,1.25007,0.0,0.0
1080,269.75,73.1966,79.218,116.455,97.8658,84.8675,0.00366502,0.245398,20.718,13.0818,1.26274,0.0,0.0
1084,270.75,72.4914,78.3616,118.624,97.8404,84.397,0.00356866,0.243395,20.7211,13.0617,1.3097,0.0,0.0
1088,271.75,72.7369,78.6041,119.588,97.8046,84.7983,0.00348468,0.241599,20.7239,13.0317,1.26443,0.0,0.0
1092,272.75,72.6064,78.3064,118.316,97.7867,84.6304,0.00342879,0.239693,20.7266,13.0017,1.28036,0.0,0.0
1096,273.75,72.4842,78.2575,115.773,97.7704,85.043,0.00336301,0.237439,20.7304,12.9817,1.23579,0.0,0.0
1100,274.75,71.9908,77.8741,118.025,97.722,85.2286,0.00329519,0.234554,20.7353,12.9316,1.21208,0.0,0.0
1104,275.75,72.0578,78.3825,121.181,97.718,85.7913,0.00320053,0.232711,20.7396,12.9016,1.15341,0.0,0.0
1108,276.75,71.8078,78.2938,118.655,97.7033,84.2436,0.00311148,0.230663,20.7422,12.8816,1.31339,0.0,0.0
1112,277.75,71.9034,77.6414,117.001,97.6898,86.1741,0.00299864,0.229101,20.7438,12.8516,1.1114,0.0,0.0
1116,278.75,70.6985,77.2549,117.089,97.6723,86.8463,0.00289769,0.227346,20.7456,12.8015,1.04096,0.0,0.0
1120,279.75,71.684,77.6318,122.903,97.6504,85.491,0.00282464,0.225825,20.7484,12.7515,1.17835,0.0,0.0
1124,280.75,71.6474,76.6023,119.871,97.6409,86.5569,0.0027706,0.223482,20.751,12.7515,1.06769,0.0,0.0
1128,281.75,72.2516,77.6128,118.54,97.6306,86.8822,0.00271798,0.22038,20.755,12.7014,1.03352,0.0,0.0
1132,282.75,70.5032,76.5625,119.924,97.6008,86.4297,0.00266854,0.217183,20.7609,12.6914,1.07708,0.0,0.0
1136,283.75,72.1383,76.4847,117.801,97.6079,87.0331,0.00262534,0.212946,20.768,12.6514,1.01608,0.0,0.0
1140,284.75,70.7637,76.1587,118.127,97.6031,87.6031,0.00259384,0.209032,20.7752,12.6314,0.957811,0.0,0.0
1144,285.75,70.5154,75.9515,121.963,97.5972,88.4975,0.0025754,0.20487,20.7824,12.5813,0.86726,0.0,0.0
1148,286.75,70.4036,75.6271,120.15,97.5876,87.9235,0.00255278,0.201197,20.7881,12.5613,0.924053,0.0,0.0
1152,287.75,70.3237,74.7833,117.366,97.5773,88.8497,0.00253318,0.198027,20.7923,12.5713,0.830261,0.0,0.0
1156,288.75,69.6082,75.1413,118.945,97.5761,88.6992,0.00251171,0.194271,20.799,12.5112,0.845178,0.0,0.0
1160,289.75,69.8144,74.7594,123.094,97.5797,88.1139,0.00247976,0.190328,20.8058,12.4812,0.904164,0.0,0.0
1164,290.75,68.5445,74.2936,121.445,97.5809,88.8119,0.00243249,0.185814,20.8134,12.4612,0.834358,0.0,0.0
1168,291.75,68.7505,75.3514,123.353,97.5817,88.7913,0.00238342,0.180312,20.8233,12.4312,0.83648,0.0,0.0
1172,292.75,69.2045,74.3198,121.703,97.5876,89.4716,0.00233919,0.174392,20.8337,12.4512,0.769391,0.0,0.0
1176,293.75,68.9358,74.0483,127.958,97.5849,89.6906,0.00230388,0.16821,20.8446,12.4212,0.747479,0.0,0.0
1180,294.75,68.7355,73.7073,123.09,97.5996,89.5505,0.00225096,0.161707,20.8539,12.4212,0.762664,0.0,0.0
1184,295.75,68.7496,73.39,125.721,97.5996,89.972,0.00219844,0.155448,20.8636,12.4212,0.72106,0.0,0.0
1188,296.75,68.4511,72.7734,127.179,97.6047,90.4087,0.00216952,0.149169,20.873,12.4112,0.67862,0.0,0.0
1192,297.75,67.8821,72.9408,121.377,97.6214,90.6901,0.0021811,0.142648,20.8848,12.3911,0.652602,0.0,0.0
1196,298.75,67.9048,72.5368,123.373,97.6333,90.6385,0.00221686,0.134112,20.8966,12.3911,0.658719,0.0,0.0
1200,299.75,66.9112,72.0776,124.357,97.6469,90.587,0.00225027,0.125341,20.9093,12.3911,0.664983,0.0,0.0
1204,300.75,66.2123,70.9579,122.653,97.6596,90.6204,0.00224331,0.115802,20.9228,12.3711,0.662869,0.0,0.0
1208,301.75,65.7722,70.6795,125.101,97.6715,91.1437,0.00220196,0.106805,20.9339,12.3411,0.612932,0.0,0.0
1212,302.75,65.9096,70.1627,127.447,97.6945,91.4206,0.00212421,0.100138,20.9447,12.3411,0.58814,0.0,0.0
1216,303.75,64.9316,69.5829,124.38,97.7025,91.5897,0.00204279,0.0938994,20.9534,12.3511,0.572488,0.0,0.0
1220,304.75,64.4816,69.1021,125.86,97.7243,91.1655,0.0019409,0.0887076,20.9616,12.3411,0.615612,0.0,0.0
1224,305.75,64.7144,69.3087,123.082,97.7577,91.9407,0.00182087,0.0847313,20.9686,12.3711,0.543604,0.0,0.0
1228,306.75,63.7054,67.9423,126.917,97.7792,91.1127,0.00170434,0.0816351,20.9739,12.3511,0.62571,0.0,0.0
1232,307.75,63.7246,67.9692,126.188,97.8014,91.2552,0.00159029,0.0791998,20.9789,12.3511,0.613879,0.0,0.0
1236,308.75,63.6531,67.6307,125.332,97.8324,91.1602,0.00149593,0.0773662,20.9826,12.3311,0.625915,0.0,0.0
1240,309.75,62.7144,67.456,128.245,97.8606,91.3868,0.00141209,0.0759588,20.9851,12.3511,0.60647,0.0,0.0
1244,310.75,62.0491,66.4652,126.936,97.8742,91.7882,0.00134847,0.0749693,20.9867,12.3411,0.568866,0.0,0.0
1248,311.75,62.4453,66.5122,124.307,97.8972,92.4588,0.00130987,0.0737975,20.9879,12.3511,0.506449,0.0,0.0
1252,312.75,62.6034,66.0758,126.789,97.9318,92.0583,0.00130048,0.0725387,20.9896,12.3211,0.548046,0.0,0.0
1256,313.75,61.8468,65.6546,127.061,97.9592,91.886,0.00130444,0.071084,20.9917,12.3211,0.567124,0.0,0.0
1260,314.75,60.9578,64.8865,126.662,97.9862,91.4758,0.00130802,0.0695335,20.9942,12.291,0.609211,0.0,0.0
1264,315.75,60.9465,65.3409,128.402,98.012,91.3941,0.0012706,0.068125,20.9958,12.3111,0.619466,0.0,0.0
1268,316.75,61.1747,64.8319,127.239,98.0367,91.4086,0.00121138,0.0666988,20.9974,12.3011,0.620288,0.0,0.0
1272,317.75,60.7854,64.6574,124.4,98.0732,91.8775,0.00114491,0.0653332,20.9989,12.3211,0.57825,0.0,0.0
1276,318.75,60.2828,63.7823,127.629,98.0991,92.3461,0.00107187,0.0639794,21.0002,12.3011,0.53551,0.0,0.0
1280,319.75,59.6724,63.6031,123.802,98.1289,91.9053,0.000999913,0.0628139,21.0013,12.291,0.580596,0.0,0.0
1284,320.75,59.406,63.8804,125.585,98.1507,91.4017,0.000936748,0.0614537,21.0026,12.3011,0.631253,0.0,0.0
1288,321.75,59.6589,62.9611,126.704,98.1726,92.4564,0.000891014,0.0599427,21.0035,12.271,0.531571,0.0,0.0
1292,322.75,58.7137,62.4651,125.605,98.2064,91.954,0.000862572,0.0585804,21.0045,12.281,0.582896,0.0,0.0
1296,323.75,58.6868,62.6057,126.676,98.2417,92.117,0.000854873,0.0572911,21.0058,12.271,0.570392,0.0,0.0
1300,324.75,59.1217,61.6825,124.265,98.2699,91.7302,0.000866381,0.0561532,21.0077,12.281,0.610224,0.0,0.0
1304,325.75,58.3762,61.9605,126.465,98.2803,92.5566,0.000853741,0.055328,21.0087,12.271,0.531685,0.0,0.0
1308,326.75,58.7122,61.9847,127.671,98.3041,91.6432,0.000812288,0.0541199,21.0101,12.271,0.621707,0.0,0.0
1312,327.75,57.6944,61.2665,129.317,98.3447,91.8675,0.000726011,0.0527882,21.011,12.241,0.603708,0.0,0.0
1316,328.75,58.3501,61.3555,125.779,98.359,92.2748,0.000639628,0.0521355,21.0119,12.271,0.565793,0.0,0.0
1320,329.75,57.6145,60.8839,129.215,98.3832,91.9435,0.000576017,0.0513591,21.0129,12.241,0.599845,0.0,0.0
1324,330.75,57.0663,61.264,128.342,98.4098,92.2837,0.000532416,0.0506369,21.014,12.261,0.569523,0.0,0.0
1328,331.75,57.3058,60.3257,125.355,98.4384,91.8361,0.000512319,0.0500198,21.0147,12.261,0.615182,0.0,0.0
1332,332.75,57.2946,59.9691,126.098,98.4571,92.3537,0.000515754,0.0494051,21.0151,12.271,0.567058,0.0,0.0
1336,333.75,56.5995,60.3232,126.734,98.4873,92.0957,0.000538032,0.0488293,21.0158,12.271,0.594565,0.0,0.0
1340,334.75,56.1636,60.3878,128.631,98.506,92.3984,0.000550709,0.0482543,21.0167,12.231,0.56717,0.0,0.0
1344,335.75,56.7985,59.7632,128.733,98.5302,92.5107,0.00054163,0.0477046,21.0172,12.241,0.558586,0.0,0.0
1348,336.75,56.1687,59.3151,130.374,98.5473,92.9213,0.000496654,0.0471961,21.0184,12.241,0.520883,0.0,0.0
1352,337.75,55.4486,59.33,127.489,98.5668,92.4555,0.000416573,0.0467639,21.0192,12.261,0.567157,0.0,0.0
1356,338.75,55.924,58.8972,127.404,98.5847,92.6113,0.000344982,0.0463639,21.0197,12.281,0.553847,0.0,0.0
1360,339.75,55.6595,58.5198,124.36,98.6085,92.3457,0.000303278,0.0459749,21.02,12.251,0.581445,0.0,0.0
1364,340.75,55.8024,58.7081,127.394,98.6312,92.5441,0.000302961,0.0455338,21.0202,12.271,0.56446,0.0,0.0
1368,341.75,54.774,57.76,124.86,98.6419,92.7341,0.000328338,0.0451204,21.0203,12.3111,0.54725,0.0,0.0
1372,342.75,55.2594,58.154,125.901,98.6498,93.0585,0.000353314,0.0447619,21.0204,12.3411,0.517018,0.0,0.0
1376,343.75,54.9963,57.8089,126.694,98.6709,92.586,0.000374303,0.0444774,21.0213,12.3211,0.564022,0.0,0.0
1380,344.75,54.6752,57.9224,127.82,98.69,92.4229,0.000373879,0.0441677,21.0219,12.3011,0.581349,0.0,0.0
1384,345.75,54.9534,57.5821,126.456,98.7039,92.088,0.000358005,0.0439153,21.0222,12.3211,0.614766,0.0,0.0
1388,346.75,54.5767,57.4355,126.64,98.713,92.0542,0.000323338,0.0436721,21.0224,12.3211,0.61884,0.0,0.0
1392,347.75,54.5412,57.2985,126.035,98.7229,92.7997,0.000295282,0.0434781,21.0225,12.3011,0.548262,0.0,0.0
1396,348.75,54.2736,56.7678,128.234,98.7444,92.1331,0.00028489,0.0433398,21.0226,12.3111,0.614067,0.0,0.0
1400,349.75,53.7292,56.9323,126.633,98.7547,91.9439,0.00029522,0.0432245,21.0227,12.3211,0.633208,0.0,0.0
1404,350.75,54.3266,56.9355,126.885,98.7571,92.2104,0.000348185,0.043075,21.0227,12.291,0.607777,0.0,0.0
1408,351.75,53.8931,56.3539,129.758,98.7667,92.5767,0.00040548,0.0429769,21.0227,12.271,0.573504,0.0,0.0
1412,352.75,53.7194,56.2965,126.381,98.783,92.6508,0.000457807,0.042899,21.0227,12.291,0.567878,0.0,0.0
1416,353.75,53.206,56.1876,125.183,98.8016,92.3718,0.000494472,0.0428297,21.0227,12.261,0.596273,0.0,0.0
1420,354.75,53.579,56.3332,127.541,98.8159,92.4431,0.000516793,0.0427596,21.0227,12.271,0.590723,0.0,0.0
1424,355.75,53.6289,55.9353,126.298,98.804,92.6097,0.000529238,0.0427033,21.0227,12.251,0.573696,0.0,0.0
1428,356.75,53.0145,55.5574,127.764,98.8116,92.4407,0.000515051,0.0426982,21.0227,12.231,0.590563,0.0,0.0
1432,357.75,53.2825,55.2402,123.574,98.8354,92.5827,0.000473309,0.0427368,21.0227,12.221,0.579091,0.0,0.0
1436,358.75,52.9813,55.5435,123.739,98.8259,93.1431,0.000410049,0.0427797,21.0227,12.241,0.52477,0.0,0.0
1440,359.75,52.9987,55.5211,124.038,98.8422,92.3473,0.000329153,0.0427831,21.0225,12.261,0.602262,0.0,0.0
1444,360.75,52.5964,55.2165,127.826,98.8326,92.1484,0.00024972,0.0427854,21.0223,12.261,0.620508,0.0,0.0
1448,361.75,53.1319,55.3844,128.193,98.837,92.2583,0.000173452,0.042759,21.0222,12.261,0.610339,0.0,0.0
1452,362.75,52.3361,54.4069,130.573,98.841,93.2755,0.000114632,0.0427056,21.0221,12.231,0.513535,0.0,0.0
1456,363.75,52.3323,54.9529,126.769,98.8441,92.2929,7.36154e-05,0.042673,21.022,12.221,0.607656,0.0,0.0
1460,364.75,52.4217,54.8637,127.57,98.8461,92.4845,4.35269e-05,0.0426627,21.022,12.231,0.589458,0.0,0.0
1464,365.75,52.3604,54.6935,126.594,98.8513,92.7542,1.7953e-05,0.0426702,21.0222,12.241,0.56412,0.0,0.0
1468,366.75,52.1405,54.8143,129.806,98.8441,92.7945,-1.31324e-05,0.0427101,21.0224,12.241,0.559634,0.0,0.0
1472,367.75,51.6551,54.4255,125.005,98.8588,92.9917,-2.59416e-05,0.042687,21.0222,12.261,0.542136,0.0,0.0
1476,368.75,51.3462,53.5061,130.922,98.8322,92.3698,-3.15542e-05,0.0426473,21.0221,12.251,0.599209,0.0,0.0
1480,369.75,51.8687,53.9429,124.592,98.8473,92.4527,3.28268e-05,0.0426212,21.0222,12.241,0.592612,0.0,0.0
1484,370.75,51.963,53.8175,123.883,98.837,92.7635,8.08172e-05,0.0426041,21.0224,12.241,0.561953,0.0,0.0
1488,371.75,51.8436,53.7336,126.82,98.8302,92.8995,0.000123772,0.0425793,21.0225,12.231,0.54836,0.0,0.0
1492,372.75,51.3168,53.2909,128.376,98.8334,92.4366,0.000142527,0.042552,21.0226,12.221,0.592909,0.0,0.0
1496,373.75,51.7012,53.5073,126.327,98.8283,92.4612,0.000145126,0.0425833,21.0226,12.251,0.590092,0.0,0.0
1500,374.75,51.4919,53.3351,125.232,98.8167,92.3098,0.000138325,0.0426232,21.0227,12.261,0.603575,0.0,0.0
1504,375.75,51.0806,53.4965,125.883,98.8147,92.3835,0.000124518,0.0426159,21.0227,12.231,0.596329,0.0,0.0
1508,376.75,50.8714,53.0733,127.643,98.8112,92.7796,0.000115458,0.0426006,21.0227,12.231,0.558098,0.0,0.0
1512,377.75,50.9272,53.2549,126.972,98.8076,93.1113,0.000123361,0.0426294,21.0227,12.201,0.526157,0.0,0.0
1516,378.75,50.6799,52.5884,124.6,98.7965,92.6681,0.00015651,0.0426587,21.0227,12.221,0.567435,0.0,0.0
1520,379.75,51.2805,53.3421,128.181,98.7881,92.8971,0.000201783,0.0426636,21.0227,12.211,0.544813,0.0,0.0
1524,380.75,50.3748,51.984,125.252,98.7762,92.3211,0.000247815,0.0426319,21.0227,12.211,0.598858,0.0,0.0
1528,381.75,50.759,52.7623,124.689,98.7702,93.1181,0.000280419,0.0424881,21.0227,12.241,0.522155,0.0,0.0
1532,382.75,51.0986,52.8669,127.758,98.7722,92.4229,0.000287339,0.042443,21.0235,12.251,0.588732,0.0,0.0
1536,383.75,50.9393,52.2696,127.475,98.7571,92.5509,0.000279408,0.042394,21.0241,12.261,0.575115,0.0,0.0
1540,384.75,50.5478,52.451,128.665,98.7516,92.904,0.000289795,0.0423179,21.024,12.261,0.54088,0.0,0.0
1544,385.75,50.2699,52.4701,125.618,98.7369,92.4986,0.0003372,0.0423544,21.0235,12.261,0.578306,0.0,0.0
1548,386.75,50.5833,52.3183,129.003,98.7365,92.8045,0.000424927,0.0423637,21.0233,12.271,0.549014,0.0,0.0
1552,387.75,50.7611,52.0945,129.026,98.7329,92.4656,0.00053501,0.042351,21.0231,12.3011,0.581113,0.0,0.0
1556,388.75,50.4114,51.6919,126.486,98.7114,92.4503,0.000645772,0.0423777,21.023,12.3011,0.580653,0.0,0.0
1560,389.75,50.7015,52.1058,127.906,98.6947,92.8633,0.000738084,0.0423419,21.0229,12.281,0.539659,0.0,0.0
1564,390.75,50.2591,51.9811,127.997,98.6939,92.5377,0.000801922,0.042263,21.0228,12.261,0.570714,0.0,0.0
1568,391.75,50.378,51.9893,128.436,98.6784,92.1053,0.000797342,0.0422604,21.0228,12.271,0.610817,0.0,0.0
1572,392.75,50.1232,51.8719,125.236,98.6673,92.2325,0.000744446,0.0422936,21.0229,12.281,0.597588,0.0,0.0
1576,393.75,49.8061,51.5316,126.812,98.6641,92.1428,0.000645016,0.0422182,21.0233,12.251,0.605931,0.0,0.0
1580,394.75,50.1993,51.7236,127.08,98.6411,92.52,0.000547938,0.0421688,21.0236,12.261,0.567664,0.0,0.0
1584,395.75,49.8691,51.8174,127.604,98.6276,92.2329,0.000475618,0.0421855,21.0237,12.251,0.59398,0.0,0.0
1588,396.75,49.9013,51.6931,122.565,98.6165,92.0961,0.000432797,0.0422457,21.0239,12.261,0.606139,0.0,0.0
1592,397.75,49.8846,51.2202,127.613,98.6149,92.5195,0.000411492,0.0423046,21.0239,12.261,0.565347,0.0,0.0
1596,398.75,49.4942,51.536,123.498,98.593,92.1263,0.00041071,0.0422992,21.024,12.271,0.601127,0.0,0.0
1600,399.75,49.2128,51.1457,132.887,98.5839,92.2128,0.000419558,0.0422957,21.024,12.261,0.591987,0.0,0.0
1604,400.75,49.5669,50.9027,121.983,98.57,91.7769,0.000434164,0.0422547,21.024,12.261,0.632726,0.0,0.0
1608,401.75,49.5673,51.1956,127.442,98.564,92.3477,0.000452546,0.0421901,21.024,12.251,0.577252,0.0,0.0
1612,402.75,49.5451,50.7775,126.816,98.5576,92.0941,0.000465759,0.0421257,21.0234,12.271,0.601046,0.0,0.0
1616,403.75,49.1104,50.5585,130.932,98.5505,92.3863,0.000469796,0.0420974,21.0226,12.261,0.572331,0.0,0.0
1620,404.75,49.3191,50.6773,124.208,98.5461,92.1275,0.000464372,0.0421129,21.022,12.251,0.596796,0.0,0.0
1624,405.75,49.2869,51.1517,122.063,98.5219,92.4254,0.000451732,0.042123,21.0217,12.221,0.566014,0.0,0.0
1628,406.75,48.7144,50.84,125.341,98.5286,92.4797,0.000424643,0.0421788,21.0214,12.241,0.561412,0.0,0.0
1632,407.75,48.913,50.0939,128.678,98.5247,92.3907,0.000403417,0.0422154,21.022,12.251,0.569583,0.0,0.0
1636,408.75,49.0123,50.7534,129.987,98.5064,92.0393,0.000400362,0.0422201,21.0223,12.261,0.601706,0.0,0.0
1640,409.75,49.4376,50.5269,124.84,98.4901,92.4318,,0.0421662,,12.261,0.562537,0.0,0.0
1644,410.75,49.3703,50.5542,125.108,98.4821,92.4725,,0.0420978,,12.251,0.557925,0.0,0.0
1648,411.75,48.8272,50.5119,126.968,98.4694,92.8842,,0.0420711,,12.261,0.51741,0.0,0.0
1652,412.75,48.7829,50.4357,127.835,98.4698,92.491,,,,12.271,0.555042,0.0,0.0
1656,413.75,48.9039,50.7279,127.929,98.4559,92.8549,,,,12.251,0.518998,0.0,0.0
1660,414.75,48.9545,50.0146,124.79,98.4388,92.4455,,,,12.261,0.556612,0.0,0.0
1664,415.75,48.6005,49.5171,127.517,98.4372,92.3618,,,,12.261,0.564496,0.0,0.0
1668,416.75,49.0523,50.1448,124.528,98.4436,92.8834,,,,12.261,0.515162,0.0,0.0
1672,417.75,48.8674,50.1816,126.445,98.4209,92.4322,,,,12.271,0.556275,0.0,0.0
1676,418.75,48.3148,50.2636,125.917,98.4217,92.4016,,,,12.271,0.55928,0.0,0.0
1680,419.75,49.0678,49.9164,123.746,98.4086,91.8968,,,,12.261,0.606637,0.0,0.0
1681,420,48.9087,49.855,123.814,98.4027,91.8675,,,,12.251,0.608934,0.0,0.0