File: 01_Data/Nylon_Carpet_LowPile/Cone/Nylon_Carpet_Low_Pile_Cone_HF75Scan_220318_R1.csv
Names,Time,Stack TC,Smoke TC,Exh Press,Smoke Comp,Smoke Meas,CO Meter,CO2 Meter,O2 Meter,Sample Mass,Ext Coeff,Start Test,Flame Verif
Chan Gain,,500,500,1,1,1,1,1,1,1,1,1.0,1.0
Offset,,0,0,0.133174,0,0,0,0,0,0,0,0.0,0.0
Gain,,1,1,25.011,13.6925,14.0864,1,1,1,1.0009,1.00821,1.0,1.0
Units,sec,C,C,Pa,%,%,%,%,%,g,/m,,
Baseline,,50.4278,53.178,125.962,103.605,100.245,0.000226653,0.0514458,21.0091,-838.01,0.291687,,
3,0.5,50.5502,53.0592,124.87,103.516,99.5253,0.000172041,0.0537939,21.0064,-314.383,0.347651,0.0,0.0
6,1.25,48.9333,51.8728,126.589,103.495,99.9096,0.000153744,0.0539433,21.0062,-314.383,0.311781,0.0,0.0
9,2,49.3164,51.9495,126.03,103.491,100.026,0.000156108,0.0540889,21.0058,-314.413,0.301153,0.0,0.0
12,2.75,49.0467,51.8738,126.959,103.489,99.9444,0.00016201,0.054253,21.0054,-314.423,0.308235,0.0,0.0
15,3.5,48.9643,52.3114,126.443,103.493,100.489,0.000184538,0.0544133,21.0048,-314.463,0.260493,0.0,0.0
18,4.25,49.0515,51.9331,124.533,103.479,99.9848,0.000215151,0.0545475,21.0043,-314.453,0.303802,0.0,0.0
21,5,49.4935,51.8382,125.567,103.472,99.5554,0.000227963,0.0546453,21.0046,-314.463,0.341299,0.0,0.0
24,5.75,49.3621,52.0733,125.647,103.472,99.2536,0.000239316,0.0546739,21.0047,-314.473,0.368148,0.0,0.0
27,6.5,48.6558,52.2072,129.871,103.472,100.2,0.000241231,0.0546795,21.0043,-314.523,0.28413,0.0,0.0
30,7.25,49.4715,52.3716,127.685,103.45,99.579,0.000231751,0.0546459,21.0041,-314.513,0.337306,0.0,0.0
33,8,48.8821,52.486,119.905,103.447,100.21,0.000195549,0.0545995,21.0039,-314.533,0.281115,0.0,0.0
36,8.75,49.454,52.1322,122.759,103.445,99.9784,0.000169158,0.0545092,21.0038,-314.533,0.301444,0.0,0.0
39,9.5,49.3251,51.896,125.35,103.434,99.2631,0.000129395,0.0544434,21.0038,-314.543,0.364019,0.0,0.0
42,10.25,49.3348,52.3721,124.464,103.427,99.4415,8.91312e-05,0.0543954,21.0042,-314.543,0.347495,0.0,0.0
45,11,49.3801,51.8989,123.925,103.426,99.9578,8.48101e-05,0.0543605,21.0044,-314.573,0.301626,0.0,0.0
48,11.75,49.5481,52.2616,123.463,103.422,99.5219,0.000112433,0.0543849,21.0046,-314.603,0.339992,0.0,0.0
51,12.5,49.7499,52.0114,126.189,103.412,98.8732,0.000146475,0.0544881,21.0041,-314.603,0.396968,0.0,0.0
54,13.25,49.2016,52.5023,124.102,103.423,97.8604,0.000266185,0.0547383,21.0033,-314.633,0.488958,0.0,0.0
57,14,49.7008,52.621,123.733,103.407,96.8385,0.000426173,0.0549305,21.0025,-314.653,0.580395,0.0,0.0
60,14.75,49.5455,52.5587,128.952,103.397,96.3988,0.000573805,0.0552533,21.0007,-314.643,0.619827,0.0,0.0
63,15.5,49.4028,52.5965,125.824,103.398,93.6471,0.000856494,0.05576,20.9976,-314.663,0.876019,0.0,0.0
66,16.25,49.5144,52.4674,124.03,103.398,92.5328,0.00117718,0.0564522,20.9941,-314.693,0.981844,0.0,0.0
69,17,49.069,52.6146,122.009,103.396,91.7792,0.00145982,0.0573112,20.9908,-314.723,1.05398,0.0,0.0
72,17.75,49.5545,52.5886,124.836,103.397,91.0716,0.00182126,0.0599518,20.984,-314.753,1.12254,0.0,0.0
75,18.5,49.7234,52.7022,129.773,103.385,90.3086,0.00218783,0.0668144,20.9716,-314.863,1.19591,0.0,0.0
78,19.25,49.7976,52.2098,119.325,103.376,96.514,0.00251803,0.078792,20.9262,-314.913,0.607405,0.0,1.0
81,20,49.3976,53.0607,106.422,103.366,97.5423,0.00285521,0.107744,20.8562,-315.003,0.512856,0.0,1.0
84,20.75,50.3458,53.2133,114.905,103.358,95.7668,0.0031774,0.137471,20.7681,-315.134,0.674668,0.0,1.0
87,21.5,50.9243,53.9383,106.305,103.358,96.6395,0.00349293,0.193631,20.6671,-315.204,0.594408,0.0,1.0
90,22.25,51.2476,54.2192,108.641,103.356,94.5537,0.0038052,0.25111,20.5578,-315.274,0.787236,0.0,1.0
93,23,52.3737,55.2716,105.729,103.343,94.0954,0.00415465,0.307728,20.4601,-315.364,0.829094,0.0,1.0
96,23.75,53.1606,55.6735,98.3382,103.334,93.9914,0.0044094,0.362112,20.3812,-315.524,0.838091,0.0,1.0
99,24.5,53.9195,56.3973,100.25,103.332,94.8168,0.00471366,0.419429,20.3,-315.574,0.760589,0.0,1.0
102,25.25,54.4946,57.7046,103.233,103.33,93.7924,0.00500507,0.472059,20.2407,-315.674,0.856481,0.0,0.0
105,26,55.7229,58.8487,100.207,103.327,93.3732,0.00527274,0.51505,20.1769,-315.774,0.89584,0.0,0.0
108,26.75,57.0869,60.6389,98.7007,103.312,94.0512,0.00551156,0.561748,20.1185,-315.904,0.830538,0.0,0.0
111,27.5,57.2987,60.6046,98.5305,103.315,92.5242,0.00574052,0.601429,20.0602,-315.964,0.975551,0.0,0.0
114,28.25,58.7624,62.197,101.452,103.306,93.0792,0.00595183,0.639998,19.9996,-316.135,0.921946,0.0,0.0
117,29,58.7069,64.3478,103.77,103.295,92.7426,0.00614183,0.681885,19.916,-316.215,0.953021,0.0,0.0
120,29.75,60.7521,64.4546,93.8288,103.276,94.3143,0.00631032,0.718291,19.8458,-316.355,0.802793,0.0,0.0
123,30.5,61.8433,65.929,87.7882,103.276,94.4325,0.00644593,0.765177,19.7788,-316.465,0.791751,0.0,0.0
126,31.25,63.1048,67.2407,90.8329,103.287,92.9941,0.00656729,0.814424,19.73,-316.645,0.928355,0.0,0.0
129,32,64.7657,68.3117,97.0131,103.279,91.894,0.00666536,0.857755,19.6744,-316.805,1.03292,0.0,0.0
132,32.75,66.1984,70.8258,93.1433,103.243,93.1721,0.00676937,0.892511,19.6325,-316.965,0.907688,0.0,0.0
135,33.5,67.5664,72.3071,90.3261,103.243,95.1942,0.00687752,0.925429,19.5998,-317.055,0.717868,0.0,0.0
138,34.25,68.4422,73.7193,94.0822,103.231,95.7234,0.00698792,0.952657,19.5696,-317.215,0.667731,0.0,0.0
141,35,70.2236,75.3709,98.3451,103.209,94.3345,0.00709878,0.974086,19.5467,-317.356,0.795171,0.0,0.0
144,35.75,71.3916,77.0975,92.7938,103.191,94.9406,0.00718553,0.992408,19.5297,-317.486,0.736952,0.0,0.0
147,36.5,72.5157,78.6116,92.5686,103.177,94.1698,0.00725893,1.00531,19.5173,-317.586,0.807863,0.0,0.0
150,37.25,73.7001,79.6585,95.0805,103.169,94.8035,0.00733391,1.0146,19.5082,-317.716,0.747874,0.0,0.0
153,38,74.9948,81.5595,94.9576,103.153,94.604,0.00738856,1.02128,19.5016,-317.866,0.765139,0.0,0.0
156,38.75,76.4385,82.7709,98.3657,103.149,94.3297,0.00747673,1.02632,19.4968,-317.976,0.790458,0.0,0.0
159,39.5,77.6849,84.3999,97.5711,103.126,93.9536,0.00758622,1.03123,19.491,-318.116,0.823858,0.0,0.0
162,40.25,78.1479,85.0367,97.0192,103.109,92.9885,0.00772174,1.03532,19.4828,-318.226,0.913631,0.0,0.0
165,41,79.1076,86.2619,88.1034,103.077,93.1828,0.00788279,1.04265,19.463,-318.326,0.892447,0.0,0.0
168,41.75,80.4398,87.0892,90.5291,103.088,91.9194,0.00813146,1.04985,19.4337,-318.437,1.01418,0.0,0.0
171,42.5,81.2505,88.9388,90.6864,103.079,91.091,0.00842269,1.06524,19.4059,-318.627,1.09346,0.0,0.0
174,43.25,82.3107,90.1919,93.8158,103.102,89.8465,0.00876063,1.08623,19.3688,-318.777,1.21709,0.0,0.0
177,44,83.4645,91.4261,90.1658,103.091,89.4273,0.00914165,1.10889,19.3417,-318.867,1.25748,0.0,0.0
180,44.75,84.5988,92.6427,94.563,103.109,88.663,0.00954887,1.13348,19.3025,-318.977,1.33489,0.0,0.0
183,45.5,85.6559,93.8942,88.8652,103.112,88.0444,0.0100671,1.15982,19.2635,-319.167,1.3971,0.0,0.0
186,46.25,87.1164,95.3745,86.4731,103.119,87.5702,0.0107081,1.19382,19.2173,-319.347,1.4455,0.0,0.0
189,47,88.235,96.7669,86.1296,103.133,85.7265,0.0112899,1.23021,19.1335,-319.518,1.63485,0.0,0.0
192,47.75,89.3338,98.4397,90.4719,103.148,85.5924,0.0119099,1.27657,19.0546,-319.588,1.65002,0.0,0.0
195,48.5,90.6147,99.7625,91.6443,103.144,86.1031,0.0125846,1.3299,18.9667,-319.808,1.59708,0.0,0.0
198,49.25,92.1634,101.625,88.9339,103.155,84.7734,0.0132694,1.38397,18.8737,-319.998,1.73565,0.0,0.0
201,50,93.6519,103.569,86.4815,103.166,84.9811,0.0139361,1.43513,18.8013,-320.178,1.71491,0.0,0.0
204,50.75,95.4915,105.277,83.3612,103.166,82.8596,0.014349,1.48059,18.7588,-320.328,1.9385,0.0,0.0
207,51.5,96.8316,107.115,91.7275,103.187,81.68,0.0149188,1.51959,18.7089,-320.478,2.06713,0.0,0.0
210,52.25,98.5551,108.961,81.8484,103.183,82.909,0.0154535,1.55209,18.6714,-320.679,1.93469,0.0,0.0
213,53,99.8992,110.52,85.474,103.203,82.2964,0.015921,1.57692,18.6441,-320.809,2.002,0.0,0.0
216,53.75,100.75,111.954,86.7715,103.208,80.2966,0.016308,1.58994,18.6241,-320.939,2.21995,0.0,0.0
219,54.5,102.081,114.05,87.8225,103.215,82.0566,0.0166895,1.60317,18.6096,-321.179,2.02881,0.0,0.0
222,55.25,103.756,115.504,79.0899,103.231,80.8761,0.0169677,1.61204,18.6008,-321.279,2.15836,0.0,0.0
225,56,104.486,117.078,88.6072,103.242,80.5975,0.017326,1.61508,18.5976,-321.409,2.18984,0.0,0.0
228,56.75,105.569,118.759,85.2236,103.243,78.9154,0.0177688,1.61549,18.602,-321.569,2.37648,0.0,0.0
231,57.5,106.795,119.985,84.713,103.253,79.0048,0.0181406,1.61325,18.6085,-321.7,2.36725,0.0,0.0
234,58.25,107.64,121.678,90.5612,103.273,77.5243,0.0185934,1.60858,18.6187,-321.9,2.53631,0.0,0.0
237,59,109.116,122.619,86.9417,103.289,75.9634,0.0189235,1.60075,18.6376,-322.08,2.71756,0.0,0.0
240,59.75,110.074,123.589,88.8675,103.296,77.2935,0.0193939,1.58747,18.6609,-322.2,2.56465,0.0,0.0
243,60.5,110.804,124.787,87.9187,103.299,75.2274,0.0198002,1.57266,18.6858,-322.43,2.80452,0.0,0.0
246,61.25,111.881,125.496,90.1025,103.307,75.5081,0.0202046,1.55967,18.7064,-322.55,2.77222,0.0,0.0
249,62,112.666,127.133,86.4601,103.33,74.4859,0.0206446,1.54618,18.7215,-322.7,2.89477,0.0,0.0
252,62.75,113.431,127.705,94.46,103.339,75.0568,0.0210755,1.53635,18.7338,-322.821,2.828,0.0,0.0
255,63.5,113.526,128.191,86.4227,103.347,74.488,0.0215524,1.52718,18.7482,-323.021,2.89598,0.0,0.0
258,64.25,114.371,129.324,85.1007,103.359,73.2212,0.0219992,1.51836,18.7638,-323.121,3.04869,0.0,0.0
261,65,115.202,130.445,88.2103,103.38,74.1871,0.0224099,1.50911,18.7859,-323.281,2.93461,0.0,0.0
264,65.75,115.887,131.072,92.0686,103.39,70.1479,0.0227492,1.49913,18.8064,-323.421,3.43059,0.0,0.0
267,66.5,116.484,132.125,90.0391,103.409,74.6643,0.0229704,1.48486,18.8288,-323.571,2.88037,0.0,0.0
270,67.25,117.466,132.355,92.4045,103.422,72.8334,0.0232395,1.47014,18.8419,-323.701,3.10109,0.0,0.0
273,68,117.797,133.171,92.9846,103.43,72.0119,0.0234172,1.45539,18.8591,-323.801,3.20208,0.0,0.0
276,68.75,118.129,133.658,86.4822,103.43,72.7582,0.023515,1.44093,18.8804,-323.901,3.1109,0.0,0.0
279,69.5,118.635,134.448,95.4362,103.444,71.4913,0.0235417,1.4248,18.9018,-324.042,3.26747,0.0,0.0
282,70.25,119.526,135.365,93.1869,103.46,73.1687,0.0235229,1.41489,18.9272,-324.182,3.06364,0.0,0.0
285,71,119.734,135.749,89.8758,103.471,71.3598,0.0234764,1.39544,18.9583,-324.302,3.28604,0.0,0.0
288,71.75,119.716,136.195,92.6846,103.483,72.5334,0.0233809,1.37723,18.9919,-324.412,3.14281,0.0,0.0
291,72.5,120.839,136.688,96.3552,103.488,72.1585,0.0232609,1.35705,19.0212,-324.562,3.18899,0.0,0.0
294,73.25,121.148,137.29,96.8406,103.515,69.4709,0.0230873,1.33403,19.0562,-324.672,3.52701,0.0,0.0
297,74,121.143,137.883,93.9028,103.523,70.678,0.0228265,1.31205,19.0893,-324.822,3.37534,0.0,0.0
300,74.75,121.639,137.826,96.7903,103.549,73.2538,0.022517,1.29382,19.1221,-324.922,3.06097,0.0,0.0
303,75.5,122.062,137.969,96.5155,103.543,70.3801,0.0221793,1.27023,19.1556,-325.063,3.41444,0.0,0.0
306,76.25,122.029,138.344,99.1564,103.561,70.2576,0.0218283,1.24799,19.2094,-325.103,3.43138,0.0,0.0
309,77,121.931,138.706,97.42,103.574,71.3,0.0214146,1.22317,19.2487,-325.283,3.30219,0.0,0.0
312,77.75,122.816,139.513,99.2152,103.604,70.1058,0.021113,1.19148,19.298,-325.383,3.45418,0.0,0.0
315,78.5,122.581,139.351,98.5069,103.609,73.2384,0.0207917,1.15929,19.3405,-325.443,3.06797,0.0,0.0
318,79.25,122.343,138.993,102.761,103.626,69.3432,0.020384,1.12742,19.3829,-325.533,3.55277,0.0,0.0
321,80,122.599,138.915,102.858,103.638,68.7431,0.0200868,1.09645,19.434,-325.613,3.63067,0.0,0.0
324,80.75,122.202,139.131,104.205,103.657,69.4464,0.0195758,1.06598,19.481,-325.713,3.54226,0.0,0.0
327,81.5,122.452,139.23,101.661,103.674,71.9122,0.0190913,1.03026,19.5319,-325.833,3.23518,0.0,0.0
330,82.25,121.98,138.943,105.251,103.679,68.6193,0.0186343,0.997299,19.5865,-325.943,3.65014,0.0,0.0
333,83,121.675,138.775,104.954,103.694,70.7094,0.0182054,0.96145,19.6401,-326.033,3.38607,0.0,0.0
336,83.75,121.757,138.269,107.856,103.718,68.9288,0.0177375,0.930188,19.6899,-326.083,3.61362,0.0,0.0
339,84.5,120.984,138.221,104.052,103.723,70.129,0.0172853,0.898628,19.7424,-326.204,3.46141,0.0,0.0
342,85.25,121.261,137.646,103.911,103.741,70.9088,0.0168575,0.866533,19.7873,-326.254,3.36511,0.0,0.0
345,86,120.45,137.137,109.342,103.759,70.4097,0.0164588,0.837701,19.8229,-326.354,3.42915,0.0,0.0
348,86.75,120.302,136.791,100.072,103.773,68.9103,0.0161127,0.812085,19.8576,-326.424,3.6207,0.0,0.0
351,87.5,119.889,136.502,105.536,103.769,70.1204,0.0157656,0.789512,19.8854,-326.484,3.46638,0.0,0.0
354,88.25,120.01,136.423,104.912,103.791,69.7211,0.01542,0.767455,19.91,-326.544,3.51878,0.0,0.0
357,89,119.828,135.913,101.222,103.79,70.6311,0.0151162,0.749259,19.9368,-326.614,3.40402,0.0,0.0
360,89.75,119.224,135.637,104.975,103.813,72.9478,0.0148063,0.732377,19.96,-326.694,3.12052,0.0,0.0
363,90.5,119.17,134.961,106.234,103.833,74.9467,0.0144563,0.715384,19.9832,-326.784,2.88315,0.0,0.0
366,91.25,118.525,134.765,104.554,103.831,72.2789,0.0140785,0.699003,20.0075,-326.834,3.20359,0.0,0.0
369,92,118.355,134.301,106.554,103.845,71.2003,0.0136837,0.683649,20.0315,-326.934,3.3377,0.0,0.0
372,92.75,117.919,133.78,106.275,103.844,71.9208,0.0132256,0.667625,20.0546,-326.964,3.24859,0.0,0.0
375,93.5,118.152,133.716,109.532,103.857,73.2749,0.0128917,0.653883,20.0795,-327.024,3.08476,0.0,0.0
378,94.25,117.102,132.768,112.829,103.87,73.8884,0.0124803,0.639372,20.0998,-327.094,3.01209,0.0,0.0
381,95,116.689,133.066,109.592,103.88,71.849,0.0121089,0.625865,20.1181,-327.144,3.26048,0.0,0.0
384,95.75,115.995,131.79,109.119,103.874,74.234,0.0117748,0.613263,20.1368,-327.184,2.97114,0.0,0.0
387,96.5,115.923,131.954,108.38,103.909,76.0623,0.0114751,0.601502,20.1549,-327.234,2.75895,0.0,0.0
390,97.25,115.627,131.269,108.401,103.872,75.9875,0.0111658,0.59126,20.1721,-327.295,2.76453,0.0,0.0
393,98,115.162,130.859,104.504,103.881,74.1115,0.0108743,0.580943,20.1909,-327.385,2.98639,0.0,0.0
396,98.75,114.567,129.788,106.127,103.886,74.326,0.0105969,0.569921,20.2072,-327.415,2.96126,0.0,0.0
399,99.5,114.455,130.568,108.248,103.907,71.9822,0.0103319,0.560054,20.2203,-327.495,3.24637,0.0,0.0
402,100.25,113.997,129.241,106.791,103.887,75.1776,0.0101387,0.551113,20.2314,-327.565,2.86061,0.0,0.0
405,101,113.739,128.776,105.987,103.896,74.6544,0.00991867,0.542941,20.2423,-327.635,2.92312,0.0,0.0
408,101.75,113.219,128.076,112.017,103.926,77.0734,0.00962281,0.533992,20.2563,-327.655,2.64363,0.0,0.0
411,102.5,113.122,127.613,107.871,103.908,77.3674,0.00936298,0.525651,20.2709,-327.715,2.60846,0.0,0.0
414,103.25,112.021,127.058,110.41,103.914,77.2758,0.00912575,0.516461,20.2865,-327.775,2.61943,0.0,0.0
417,104,111.821,126.898,112.806,103.911,79.1862,0.00892985,0.509762,20.3029,-327.775,2.4032,0.0,0.0
420,104.75,111.184,126.77,112.226,103.901,77.3369,0.0087689,0.502556,20.3206,-327.825,2.6113,0.0,0.0
423,105.5,111.653,125.947,113.2,103.91,80.3048,0.0086354,0.493331,20.3352,-327.925,2.27904,0.0,0.0
426,106.25,110.938,125.493,111.208,103.92,78.6785,0.00852927,0.484315,20.3475,-327.955,2.46087,0.0,0.0
429,107,110.452,124.93,116.31,103.927,78.841,0.00844815,0.476595,20.3581,-327.985,2.44315,0.0,0.0
432,107.75,110.217,124.535,109.022,103.925,78.2413,0.00836133,0.46951,20.3665,-328.055,2.51057,0.0,0.0
435,108.5,109.249,124.063,110.041,103.938,80.7063,0.00828624,0.463931,20.3738,-328.125,2.23728,0.0,0.0
438,109.25,109.008,123.578,109.533,103.926,78.6416,0.00817233,0.458486,20.3805,-328.185,2.46552,0.0,0.0
441,110,108.202,123.025,112.867,103.925,79.1639,0.00803029,0.45401,20.3863,-328.235,2.40683,0.0,0.0
444,110.75,108.362,122.602,108.63,103.928,80.5967,0.00787982,0.449881,20.3914,-328.255,2.24848,0.0,0.0
447,111.5,107.329,121.656,110.869,103.936,79.8031,0.00773289,0.446065,20.3973,-328.275,2.33667,0.0,0.0
450,112.25,107.384,122.23,114.658,103.946,81.8253,0.00759321,0.442392,20.4039,-328.345,2.11625,0.0,0.0
453,113,107.379,121.064,107.831,103.946,80.4067,0.00746169,0.438777,20.4111,-328.375,2.27088,0.0,0.0
456,113.75,106.478,120.971,111.225,103.949,80.8507,0.00733878,0.433742,20.4207,-328.436,2.22246,0.0,0.0
459,114.5,106.006,120.752,115.504,103.948,82.1636,0.00720043,0.430071,20.4294,-328.506,2.07993,0.0,0.0
462,115.25,106.121,120.047,110.657,103.958,81.4431,0.0070676,0.424458,20.4385,-328.536,2.15865,0.0,0.0
465,116,105.921,119.578,108.682,103.949,81.0876,0.00695166,0.418308,20.4473,-328.606,2.19655,0.0,0.0
468,116.75,105.612,118.902,111.932,103.94,81.3834,0.0068609,0.41328,20.4549,-328.606,2.16361,0.0,0.0
471,117.5,104.839,118.497,112.548,103.947,82.2801,0.00678812,0.408683,20.4608,-328.636,2.0673,0.0,0.0
474,118.25,104.535,118.664,112.061,103.952,81.4629,0.00672833,0.404733,20.4664,-328.666,2.15597,0.0,0.0
477,119,103.974,117.824,111.147,103.967,81.9624,0.00664381,0.401248,20.4722,-328.746,2.10318,0.0,0.0
480,119.75,104.246,117.53,116.284,103.95,81.8365,0.00653358,0.398109,20.4783,-328.786,2.11536,0.0,0.0
483,120.5,103.613,117.011,113.33,103.961,82.9236,0.00643249,0.394498,20.4848,-328.816,1.99953,0.0,0.0
486,121.25,103.565,116.879,112.988,103.96,81.321,0.00632539,0.390908,20.4914,-328.866,2.17206,0.0,0.0
489,122,102.652,116.312,111.115,103.963,81.8635,0.00619018,0.387355,20.4962,-328.876,2.11357,0.0,0.0
492,122.75,102.516,115.605,114.903,103.956,80.5739,0.00609161,0.383862,20.501,-328.946,2.2534,0.0,0.0
495,123.5,102.725,115.523,112.244,103.955,80.1195,0.00598075,0.380695,20.5051,-328.986,2.30331,0.0,0.0
498,124.25,101.931,114.845,114.011,103.948,82.8755,0.00588129,0.377324,20.5092,-329.046,2.00357,0.0,0.0
501,125,102.213,114.486,111.591,103.939,83.9867,0.00578907,0.373595,20.514,-329.116,1.88502,0.0,0.0
504,125.75,101.156,113.714,113.591,103.947,82.477,0.00570173,0.370334,20.5194,-329.126,2.04612,0.0,0.0
507,126.5,100.516,114.137,113.061,103.947,81.8842,0.00560973,0.366992,20.5253,-329.186,2.10992,0.0,0.0
510,127.25,101.152,113.513,113.105,103.943,82.6773,0.00553398,0.362907,20.5334,-329.236,2.02431,0.0,0.0
513,128,100.692,112.597,111.112,103.95,82.6107,0.00547506,0.358479,20.5402,-329.176,2.03208,0.0,0.0
516,128.75,100.265,112.822,110.702,103.949,83.5053,0.00543955,0.354318,20.5468,-329.266,1.93676,0.0,0.0
519,129.5,99.8641,112.147,112.592,103.957,83.1046,0.00542271,0.350558,20.5528,-329.296,1.97997,0.0,0.0
522,130.25,99.761,112.01,110.917,103.958,84.3388,0.00542049,0.347255,20.5581,-329.356,1.84966,0.0,0.0
525,131,99.2679,111.634,116.125,103.964,84.3577,0.00542259,0.344351,20.5623,-329.356,1.84818,0.0,0.0
528,131.75,99.1406,111.106,114.211,103.953,83.6519,0.00542179,0.341702,20.5653,-329.396,1.92157,0.0,0.0
531,132.5,98.7084,111.071,113.607,103.958,82.759,0.00541451,0.339226,20.5683,-329.446,2.0169,0.0,0.0
534,133.25,98.8231,110.561,115.78,103.966,84.1432,0.00539059,0.336534,20.5716,-329.517,1.87087,0.0,0.0
537,134,97.702,110.071,111.488,103.964,83.7911,0.00536521,0.334572,20.574,-329.547,1.90778,0.0,0.0
540,134.75,98.1721,109.721,113.019,103.956,84.276,0.00533257,0.332643,20.5758,-329.577,1.8561,0.0,0.0
543,135.5,97.617,109.418,114.482,103.968,82.4168,0.00531072,0.331411,20.5771,-329.617,2.05436,0.0,0.0
546,136.25,97.3344,108.81,114.607,103.97,84.0534,0.00529815,0.330587,20.5778,-329.667,1.88068,0.0,0.0
549,137,97.0756,109.25,117.054,103.973,82.9567,0.00530511,0.330441,20.5779,-329.697,1.99703,0.0,0.0
552,137.75,96.616,108.649,112.129,103.979,82.9692,0.0053249,0.330469,20.578,-329.697,1.9962,0.0,0.0
555,138.5,96.6208,108.298,115.673,103.966,82.6021,0.00535272,0.330718,20.5781,-329.767,2.03436,0.0,0.0
558,139.25,96.0191,107.748,113.532,103.971,85.3349,0.00537301,0.330773,20.5781,-329.777,1.74696,0.0,0.0
561,140,95.5293,107.186,114.478,103.978,85.0464,0.00538126,0.330758,20.5781,-329.837,1.77748,0.0,0.0
564,140.75,95.5861,106.861,112.946,103.971,84.2047,0.00537611,0.330611,20.5782,-329.867,1.86488,0.0,0.0
567,141.5,95.623,106.467,111.781,103.965,83.6721,0.00534879,0.330344,20.5782,-329.907,1.92046,0.0,0.0
570,142.25,95.1261,106.758,116.1,103.978,84.4661,0.00531883,0.330082,20.5795,-329.957,1.838,0.0,0.0
573,143,95.2574,106.263,116.171,103.971,84.9179,0.00526162,0.329324,20.5811,-329.967,1.79022,0.0,0.0
576,143.75,95.0893,105.589,114.879,103.981,84.2941,0.00521926,0.32839,20.5828,-330.007,1.85627,0.0,0.0
579,144.5,95.0452,105.669,111.702,103.979,81.5931,0.00518727,0.327547,20.5849,-330.077,2.14415,0.0,0.0
582,145.25,94.694,105.402,108.739,103.977,84.0284,0.00517986,0.326073,20.5869,-330.087,1.8839,0.0,0.0
585,146,93.7963,105.078,114.142,103.972,83.9691,0.00517445,0.324616,20.5888,-330.107,1.88969,0.0,0.0
588,146.75,93.5394,104.705,117.248,103.985,83.651,0.00519442,0.322898,20.5915,-330.107,1.92436,0.0,0.0
591,147.5,94.0114,104.367,118.736,103.981,85.7536,0.00520099,0.320904,20.595,-330.167,1.70453,0.0,0.0
594,148.25,93.6225,104.46,117.751,103.967,84.3023,0.00518946,0.318977,20.5968,-330.207,1.85424,0.0,0.0
597,149,92.9458,103.885,114.481,103.977,85.4062,0.00517615,0.317371,20.5988,-330.267,1.74003,0.0,0.0
600,149.75,93.2421,103.668,116.397,103.967,84.9467,0.00513795,0.315476,20.6005,-330.307,1.7869,0.0,0.0
603,150.5,92.7237,103.694,112.685,103.963,84.9836,0.00508623,0.314194,20.6022,-330.337,1.78276,0.0,0.0
606,151.25,92.6161,103.581,115.657,103.97,84.4192,0.00502846,0.31349,20.604,-330.367,1.84227,0.0,0.0
609,152,92.4996,102.573,113.291,103.958,85.0197,0.00496161,0.312377,20.6056,-330.387,1.77858,0.0,0.0
612,152.75,92.1663,102.353,114.256,103.96,85.6237,0.00490232,0.311439,20.6071,-330.427,1.71612,0.0,0.0
615,153.5,91.6627,102.267,117.228,103.955,83.9695,0.00485909,0.310488,20.6082,-330.447,1.88822,0.0,0.0
618,154.25,91.2813,101.572,115.923,103.974,84.6978,0.00483748,0.30969,20.6093,-330.517,1.81349,0.0,0.0
621,155,91.7262,101.545,112.181,103.969,85.3121,0.00483051,0.309122,20.6104,-330.537,1.74911,0.0,0.0
624,155.75,91.7529,102.085,111.405,103.955,85.8713,0.00483322,0.308723,20.6113,-330.547,1.69015,0.0,0.0
627,156.5,90.4082,100.89,113.13,103.951,84.3182,0.00483454,0.308291,20.6121,-330.628,1.85122,0.0,0.0
630,157.25,91.1159,100.796,116.687,103.945,83.6084,0.00483569,0.307722,20.6132,-330.648,1.92552,0.0,0.0
633,158,90.7465,100.577,117.253,103.938,86.1938,0.00483876,0.306931,20.6145,-330.688,1.65552,0.0,0.0
636,158.75,90.48,100.812,116.404,103.93,84.3414,0.00484224,0.306113,20.6155,-330.718,1.84697,0.0,0.0
639,159.5,90.7761,100.393,112.679,103.922,83.9033,0.0048453,0.305375,20.6162,-330.778,1.89235,0.0,0.0
642,160.25,90.3016,99.8804,114.499,103.927,85.7368,0.00484753,0.304869,20.6168,-330.788,1.70164,0.0,0.0
645,161,90.655,100.257,110.151,103.917,85.6921,0.00482974,0.304422,20.6176,-330.838,1.70543,0.0,0.0
648,161.75,89.7225,99.4102,113.746,103.906,85.7922,0.00478709,0.303942,20.6188,-330.858,1.69414,0.0,0.0
651,162.5,89.5588,99.5218,113.142,103.908,84.1871,0.00474335,0.303124,20.6206,-330.898,1.86132,0.0,0.0
654,163.25,89.4818,99.2155,112.479,103.901,84.5593,0.00466575,0.302138,20.6225,-330.908,1.82173,0.0,0.0
657,164,89.463,99.1714,115.033,103.901,85.2807,0.00458969,0.301056,20.6251,-330.918,1.74657,0.0,0.0
660,164.75,89.1575,98.7976,112.947,103.892,86.1495,0.00449552,0.299931,20.627,-330.968,1.65622,0.0,0.0
663,165.5,89.4902,98.7436,111.309,103.888,84.2894,0.00441823,0.298988,20.6284,-330.998,1.84887,0.0,0.0
666,166.25,89.4037,98.3536,114.771,103.878,86.9749,0.0043608,0.29809,20.6294,-331.048,1.57068,0.0,0.0
669,167,88.6888,98.3014,115.732,103.866,84.9793,0.00432337,0.297413,20.6301,-331.088,1.77489,0.0,0.0
672,167.75,89.2095,98.3557,113.987,103.869,86.9753,0.00430966,0.296912,20.6306,-331.108,1.56982,0.0,0.0
675,168.5,88.4051,98.0235,117.23,103.863,86.8588,0.0043126,0.296532,20.631,-331.148,1.58117,0.0,0.0
678,169.25,88.7267,97.5129,114.311,103.852,85.2785,0.00432696,0.296318,20.6315,-331.198,1.74267,0.0,0.0
681,170,88.7007,97.6209,113.589,103.853,86.4521,0.00433743,0.29609,20.6323,-331.248,1.62186,0.0,0.0
684,170.75,88.1904,97.5678,113.95,103.833,86.0476,0.00433766,0.295756,20.6336,-331.218,1.66163,0.0,0.0
687,171.5,87.9673,96.625,112.111,103.831,85.9337,0.00431584,0.295047,20.6359,-331.258,1.67313,0.0,0.0
690,172.25,87.6393,97.0574,113.866,103.819,87.6627,0.00426773,0.29453,20.6382,-331.288,1.496,0.0,0.0
693,173,87.6567,97.1547,114.897,103.821,87.4159,0.00418343,0.293765,20.6398,-331.318,1.52111,0.0,0.0
696,173.75,87.6679,96.8883,112.505,103.791,88.6256,0.00411089,0.293042,20.6419,-331.338,1.39696,0.0,0.0
699,174.5,87.5471,96.825,120.605,103.802,88.2959,0.00405328,0.291698,20.6451,-331.398,1.43089,0.0,0.0
702,175.25,87.6167,96.5042,115.222,103.781,86.6516,0.00400601,0.290378,20.6478,-331.398,1.59532,0.0,0.0
705,176,87.1318,96.2694,115.605,103.778,87.1769,0.00396767,0.28927,20.65,-331.438,1.54158,0.0,0.0
708,176.75,87.3452,95.894,115.536,103.773,88.8117,0.00393307,0.288176,20.6516,-331.498,1.37688,0.0,0.0
711,177.5,87.1231,95.8764,113.046,103.765,88.5895,0.00388568,0.287085,20.653,-331.518,1.39836,0.0,0.0
714,178.25,86.8368,95.4608,112.199,103.757,90.2239,0.00383393,0.286165,20.6544,-331.518,1.236,0.0,0.0
717,179,86.4205,95.5048,113.332,103.744,87.912,0.00378291,0.284813,20.6573,-331.598,1.46447,0.0,0.0
720,179.75,86.7404,95.1686,119.756,103.744,88.8053,0.0037371,0.283665,20.6596,-331.618,1.37502,0.0,0.0
723,180.5,86.5829,95.4925,113.994,103.729,88.3973,0.00370373,0.282551,20.6622,-331.658,1.41454,0.0,0.0
726,181.25,86.407,94.9492,115.03,103.727,89.6715,0.00368616,0.281293,20.6649,-331.678,1.28779,0.0,0.0
729,182,86.2217,94.6338,116.981,103.724,89.8263,0.0036822,0.279959,20.6681,-331.739,1.27229,0.0,0.0
732,182.75,86.2844,94.3531,116.234,103.706,89.5817,0.00368283,0.278601,20.6711,-331.739,1.29487,0.0,0.0
735,183.5,86.0078,94.2615,112.581,103.7,90.3628,0.00368328,0.276976,20.6745,-331.749,1.21756,0.0,0.0
738,184.25,85.7795,94.0283,115.578,103.675,91.7964,0.00364796,0.275134,20.6783,-331.779,1.07621,0.0,0.0
741,185,85.6326,94.2974,114.93,103.679,91.5222,0.00358501,0.273037,20.6816,-331.819,1.10299,0.0,0.0
744,185.75,85.6648,94.0866,114.03,103.668,92.5556,0.00350154,0.270698,20.6865,-331.839,1.00273,0.0,0.0
747,186.5,85.489,93.4677,117.567,103.654,93.0057,0.00339406,0.267701,20.6913,-331.869,0.958682,0.0,0.0
750,187.25,85.1665,93.4163,118.809,103.647,92.5943,0.00327455,0.264966,20.6967,-331.859,0.997282,0.0,0.0
753,188,85.0526,93.7292,117.206,103.64,93.154,0.00309975,0.261095,20.7038,-331.879,0.943378,0.0,0.0
756,188.75,84.7434,93.1779,117.12,103.63,92.9653,0.00301208,0.257607,20.7107,-331.929,0.960458,0.0,0.0
759,189.5,84.8916,92.8241,114.259,103.62,93.1953,0.00289244,0.253925,20.7179,-331.969,0.93775,0.0,0.0
762,190.25,83.8946,93.0288,117.456,103.633,94.8778,0.00279739,0.249509,20.7255,-331.979,0.780645,0.0,0.0
765,191,84.0709,91.9961,115.555,103.609,94.3057,0.00269672,0.245035,20.7333,-331.969,0.832073,0.0,0.0
768,191.75,84.721,92.2528,120.456,103.599,95.2484,0.00260377,0.240471,20.7399,-332.039,0.743246,0.0,0.0
771,192.5,83.7698,91.8785,118.238,103.585,95.5102,0.00252767,0.235834,20.7461,-332.059,0.717794,0.0,0.0
774,193.25,83.8578,91.6648,116.176,103.579,95.855,0.00245163,0.230443,20.7529,-332.079,0.685427,0.0,0.0
777,194,83.497,91.9899,118.792,103.579,97.5246,0.00236103,0.224474,20.7618,-332.089,0.532705,0.0,0.0
780,194.75,83.1055,90.7309,118.389,103.556,97.3987,0.00228454,0.218102,20.7708,-332.099,0.5421,0.0,0.0
783,195.5,83.2615,91.0995,116.619,103.545,96.9619,0.00222557,0.213456,20.7818,-332.109,0.58092,0.0,0.0
786,196.25,83.0404,91.1806,119.93,103.539,97.8978,0.00217709,0.20534,20.796,-332.109,0.495506,0.0,0.0
789,197,82.5446,90.9408,118.071,103.522,98.3702,0.00212783,0.198043,20.8116,-332.119,0.451466,0.0,0.0
792,197.75,82.738,89.9014,118.915,103.511,98.718,0.00209191,0.190363,20.8253,-332.159,0.41929,0.0,0.0
795,198.5,82.3716,90.1365,121.657,103.502,99.0155,0.0020466,0.181603,20.8388,-332.139,0.391894,0.0,0.0
798,199.25,81.8525,89.6444,114.02,103.489,99.1685,0.00202332,0.173939,20.8501,-332.169,0.377129,0.0,0.0
801,200,81.8452,89.2935,124.043,103.518,98.8598,0.00202207,0.166166,20.8633,-332.159,0.407197,0.0,0.0
804,200.75,81.2015,88.3668,121.048,103.482,98.7945,0.00204092,0.157947,20.8774,-332.179,0.409938,0.0,0.0
807,201.5,81.2981,88.2675,121.162,103.468,98.6961,0.00207729,0.150868,20.8912,-332.179,0.417577,0.0,0.0
810,202.25,80.6095,87.822,121.727,103.463,99.1552,0.00210625,0.14265,20.9038,-332.179,0.376103,0.0,0.0
813,203,80.4542,87.7117,120.549,103.452,98.9841,0.00212262,0.135099,20.9151,-332.209,0.390411,0.0,0.0
816,203.75,79.693,86.9823,121.774,103.443,99.76,0.00212466,0.128351,20.9241,-332.179,0.32064,0.0,0.0
819,204.5,78.7844,86.5853,121.523,103.44,98.9329,0.00212615,0.122444,20.9311,-332.189,0.393984,0.0,0.0
822,205.25,78.8459,86.4144,124.116,103.426,98.6204,0.00208026,0.116755,20.9384,-332.209,0.420751,0.0,0.0
825,206,78.6832,85.4232,125.718,103.425,99.4475,0.00203826,0.111875,20.9446,-332.219,0.346817,0.0,0.0
828,206.75,78.4569,85.0088,123.511,103.403,99.7364,0.00200786,0.108006,20.9498,-332.199,0.31927,0.0,0.0
831,207.5,77.6432,84.6654,124.746,103.4,99.1032,0.00199229,0.104181,20.9542,-332.209,0.375348,0.0,0.0
834,208.25,78.1717,84.3944,120.57,103.377,98.905,0.00198947,0.101139,20.9583,-332.179,0.391121,0.0,0.0
837,209,77.2083,84.0627,125.735,103.376,98.7167,0.00198287,0.098488,20.9607,-332.179,0.407902,0.0,0.0
840,209.75,77.0217,83.9742,123.79,103.38,99.0898,0.00196537,0.0961835,20.964,-332.209,0.374858,0.0,0.0
843,210.5,77.1827,83.3089,125.661,103.36,99.2158,0.00192702,0.0941859,20.9669,-332.199,0.361943,0.0,0.0
846,211.25,76.2823,82.8379,124.676,103.348,99.0817,0.00188815,0.0924574,20.9692,-332.189,0.372798,0.0,0.0
849,212,76.1054,82.4628,123.105,103.336,99.2665,0.00180597,0.0913128,20.9713,-332.229,0.355313,0.0,0.0
852,212.75,75.1155,82.2264,123.137,103.338,99.9526,0.00172903,0.089846,20.973,-332.219,0.29454,0.0,0.0
855,213.5,75.8034,82.4365,123.106,103.33,99.2622,0.00165671,0.0885294,20.9749,-332.209,0.355194,0.0,0.0
858,214.25,75.2266,81.7227,120.764,103.335,99.1014,0.00158867,0.0872541,20.9763,-332.209,0.369925,0.0,0.0
861,215,75.0067,81.3413,124.045,103.315,98.9953,0.00151111,0.0861898,20.9773,-332.219,0.37776,0.0,0.0
864,215.75,74.339,81.0019,119.939,103.312,99.2553,0.00144265,0.0850227,20.9784,-332.199,0.354305,0.0,0.0
867,216.5,74.6728,81.0174,121.91,103.292,99.1483,0.0013659,0.0839526,20.9795,-332.239,0.362095,0.0,0.0
870,217.25,73.7775,80.7599,124.357,103.282,99.6018,0.00126406,0.0829492,20.9795,-332.219,0.320839,0.0,0.0
873,218,73.5567,80.3704,123.208,103.272,98.896,0.00115867,0.0819959,20.9798,-332.209,0.382915,0.0,0.0
876,218.75,73.8139,79.702,119.67,103.266,99.5184,0.00108185,0.0813009,20.9804,-332.189,0.326922,0.0,0.0
879,219.5,73.3072,79.795,122.2,103.248,98.7455,0.00099433,0.0803256,20.9808,-332.189,0.394305,0.0,0.0
882,220.25,73.1802,79.0915,120.811,103.234,98.9806,0.00089166,0.0794131,20.9814,-332.169,0.372124,0.0,0.0
885,221,72.7657,78.9777,121.807,103.245,98.9144,0.000805971,0.0784032,20.9821,-332.179,0.378972,0.0,0.0
888,221.75,72.971,78.6961,130.497,103.223,99.561,0.000700352,0.0773116,20.9833,-332.199,0.319491,0.0,0.0
891,222.5,72.676,78.4346,121.997,103.21,98.6256,0.000583688,0.0763644,20.9847,-332.219,0.401831,0.0,0.0
894,223.25,72.1118,78.2327,123.597,103.19,99.0387,0.000473265,0.0753427,20.9858,-332.239,0.363109,0.0,0.0
897,224,72.3528,77.8973,121.023,103.171,99.1762,0.000375592,0.0743522,20.9867,-332.239,0.349258,0.0,0.0
900,224.75,72.0139,77.7344,122.432,103.18,98.4024,0.00029352,0.0732797,20.9877,-332.259,0.419282,0.0,0.0
903,225.5,71.4603,77.3421,124.663,103.145,98.5589,0.00023369,0.0723933,20.9887,-332.249,0.402257,0.0,0.0
906,226.25,70.9543,76.5428,120.31,103.129,99.5812,0.000198685,0.071397,20.9898,-332.239,0.309638,0.0,0.0
909,227,71.2548,76.4474,119.413,103.111,98.7666,0.000182068,0.0703708,20.9908,-332.219,0.380707,0.0,0.0
912,227.75,70.6249,76.6593,122.568,103.103,98.7369,0.000185174,0.069495,20.9915,-332.269,0.382646,0.0,0.0
915,228.5,70.9325,76.5386,121.217,103.092,98.9935,0.000197779,0.0684486,20.9925,-332.269,0.358756,0.0,0.0
918,229.25,69.9331,75.5539,126.317,103.076,98.1957,0.000206969,0.067564,20.9934,-332.259,0.428998,0.0,0.0
921,230,69.9841,75.8866,120.882,103.035,98.6728,0.000211124,0.0667108,20.9941,-332.219,0.382612,0.0,0.0
924,230.75,70.0732,75.5005,123.547,103.029,98.715,0.000209803,0.0658576,20.9945,-332.259,0.378299,0.0,0.0
927,231.5,69.1978,74.4478,129.12,103.007,98.5667,0.000210563,0.0650583,20.9953,-332.259,0.389731,0.0,0.0
930,232.25,70.0299,74.8839,122.252,102.992,98.7292,0.000211117,0.064341,20.9961,-332.289,0.373872,0.0,0.0
933,233,69.8375,75.4086,126.961,102.979,99.0339,0.000230483,0.0636435,20.9967,-332.329,0.345499,0.0,0.0
936,233.75,69.233,74.5814,120.617,102.959,98.8087,0.00024581,0.0630993,20.9971,-332.299,0.363843,0.0,0.0
939,234.5,69.3821,74.2848,123.058,102.941,99.2502,0.000253682,0.0626414,20.9974,-332.329,0.322944,0.0,0.0
942,235.25,68.7046,74.3038,123.474,102.931,98.6973,0.000252893,0.0622494,20.9976,-332.339,0.371446,0.0,0.0
945,236,68.9769,73.8034,127.582,102.91,98.8328,0.000235401,0.0619422,20.9977,-332.339,0.35756,0.0,0.0
948,236.75,68.5277,73.7121,124.215,102.891,99.2811,0.000209081,0.0616816,20.9978,-332.319,0.315877,0.0,0.0
951,237.5,68.6344,73.4391,123.719,102.872,98.589,0.000179023,0.0614528,20.9979,-332.309,0.37613,0.0,0.0
954,238.25,68.4768,73.2566,122.107,102.877,98.9389,0.000160734,0.0612646,20.998,-332.339,0.345154,0.0,0.0
957,239,68.0919,72.9011,122.788,102.833,98.3638,0.000148945,0.0610907,20.9985,-332.339,0.392982,0.0,0.0
960,239.75,68.0309,73.0733,124.225,102.834,98.6664,0.000148617,0.060867,20.999,-332.309,0.365921,0.0,0.0
963,240.5,68.0889,72.8059,120.999,102.808,98.8994,0.000162512,0.0606396,21,-332.299,0.342833,0.0,0.0
966,241.25,67.9155,73.1809,126.365,102.782,98.623,0.0001666,0.0603639,21.0008,-332.289,0.365285,0.0,0.0
969,242,67.8627,72.1235,122.335,102.786,98.8233,0.000160965,0.0601628,21.0013,-332.289,0.347662,0.0,0.0
972,242.75,67.181,71.9788,122.059,102.784,98.5585,0.000154282,0.0598806,21.0017,-332.339,0.371285,0.0,0.0
975,243.5,67.2934,72.3143,121.609,102.742,98.6187,0.000145965,0.0596035,21.002,-332.339,0.362255,0.0,0.0
978,244.25,67.3201,71.6415,125.354,102.727,98.6569,0.000135071,0.0592793,21.0022,-332.299,0.357565,0.0,0.0
981,245,66.8587,71.5484,121.697,102.708,98.5327,0.000121256,0.0589848,21.0024,-332.309,0.367018,0.0,0.0
984,245.75,66.5631,71.7194,125.057,102.694,98.6703,0.000104665,0.0587566,21.0025,-332.269,0.353455,0.0,0.0
987,246.5,67.0359,71.5965,126.203,102.674,98.7137,9.00281e-05,0.0585487,21.0026,-332.249,0.347873,0.0,0.0
990,247.25,66.8448,71.8,125.098,102.658,98.2696,7.50115e-05,0.0583361,21.0026,-332.229,0.386344,0.0,0.0
993,248,66.8908,71.4617,122.084,102.648,98.595,6.85126e-05,0.0581036,21.0027,-332.219,0.356243,0.0,0.0
996,248.75,66.6011,70.4345,126.857,102.638,98.2632,7.13814e-05,0.0579342,21.0027,-332.249,0.385197,0.0,0.0
999,249.5,66.3025,70.6303,126.439,102.644,98.8972,8.03624e-05,0.0577139,21.0027,-332.249,0.328851,0.0,0.0
1002,250.25,65.9041,70.8087,123.887,102.607,98.454,8.86322e-05,0.0575247,21.0027,-332.239,0.365405,0.0,0.0
1005,251,66.4027,70.5913,124.07,102.584,98.8078,8.98302e-05,0.057338,21.003,-332.209,0.331665,0.0,0.0
1008,251.75,66.1614,69.9158,119.272,102.593,98.7266,8.03838e-05,0.0571747,21.0035,-332.219,0.339769,0.0,0.0
1011,252.5,65.7294,69.6337,125.502,102.587,98.4914,5.93721e-05,0.0570013,21.004,-332.279,0.360318,0.0,0.0
1014,253.25,65.7285,69.5669,123.334,102.565,98.3375,2.8808e-05,0.0568016,21.0043,-332.269,0.372275,0.0,0.0
1017,254,65.561,69.8101,125.384,102.559,98.6892,-1.95447e-05,0.0566561,21.0045,-332.279,0.340201,0.0,0.0
1020,254.75,65.8512,69.7541,119.434,102.552,98.9407,-7.0288e-05,0.0565906,21.0046,-332.289,0.31701,0.0,0.0
1023,255.5,65.2827,69.516,122.965,102.544,98.5963,-0.000104739,0.0565603,21.0048,-332.279,0.347157,0.0,0.0
1026,256.25,65.3423,69.285,123.96,102.542,99.1289,-0.000125508,0.0564801,21.0049,-332.279,0.299402,0.0,0.0
1029,257,65.0101,69.3667,122.1,102.537,98.1333,-0.000120119,0.0563674,21.0049,-332.279,0.388243,0.0,0.0
1032,257.75,64.9175,69.2435,124.783,102.535,98.243,-0.000100499,0.0562622,21.005,-332.269,0.378154,0.0,0.0
1035,258.5,64.7099,68.8131,123.622,102.527,98.5903,-7.95066e-05,0.0561854,21.0052,-332.259,0.346292,0.0,0.0
1038,259.25,64.8484,68.6829,126.293,102.527,98.0882,-4.87072e-05,0.0561159,21.0054,-332.249,0.391447,0.0,0.0
1041,260,64.4365,68.4445,121.059,102.524,98.2516,-2.62544e-05,0.0560595,21.0056,-332.289,0.376406,0.0,0.0
1044,260.75,64.0963,68.546,126.26,102.516,97.985,3.89066e-06,0.0559613,21.0057,-332.299,0.399817,0.0,0.0
1047,261.5,64.7811,68.3723,125.404,102.503,98.5968,3.0697e-05,0.0558762,21.0057,-332.309,0.343622,0.0,0.0
1050,262.25,64.4163,68.0457,121.454,102.516,98.1127,5.22981e-05,0.0558084,21.0058,-332.319,0.388228,0.0,0.0
1053,263,64.5493,68.3094,124.002,102.507,99.0026,5.71775e-05,0.0557783,21.0058,-332.319,0.30762,0.0,0.0
1056,263.75,63.7573,67.9082,123.922,102.492,98.3934,4.97481e-05,0.0557421,21.0058,-332.319,0.360942,0.0,0.0
1059,264.5,64.0317,67.5954,123.185,102.486,98.451,3.34676e-05,0.0556913,21.0058,-332.329,0.355226,0.0,0.0
1062,265.25,64.1837,67.9396,123.662,102.488,97.7834,1.8155e-05,0.0556543,21.0058,-332.339,0.415545,0.0,0.0
1065,266,63.7678,67.3831,124.988,102.476,98.8431,1.42343e-05,0.0555499,21.0058,-332.349,0.31921,0.0,0.0
1068,266.75,63.2649,67.3473,124.233,102.475,98.2421,1.44635e-05,0.0554352,21.0058,-332.359,0.37304,0.0,0.0
1071,267.5,64.0665,68.0763,122.8,102.463,98.5804,2.10325e-05,0.0553515,21.0057,-332.389,0.341662,0.0,0.0
1074,268.25,63.6831,67.6289,127.409,102.464,98.7386,3.67684e-05,0.0552905,21.0057,-332.399,0.327553,0.0,0.0
1077,269,63.8171,67.1506,117.651,102.453,97.5986,5.30703e-05,0.055246,21.0057,-332.389,0.429323,0.0,0.0
1080,269.75,63.6154,66.9845,125.5,102.463,98.7034,6.95563e-05,0.0552132,21.0054,-332.359,0.330639,0.0,0.0
1083,270.5,63.0893,67.0987,124.338,102.456,98.8831,8.59225e-05,0.0551887,21.0053,-332.379,0.313904,0.0,0.0
1086,271.25,62.7269,67.1461,120.404,102.454,98.7528,0.000103022,0.0551572,21.0052,-332.349,0.325416,0.0,0.0
1089,272,62.8436,66.8911,121.71,102.448,97.771,0.000104618,0.0551285,21.0051,-332.359,0.413247,0.0,0.0
1092,272.75,63.6034,66.4266,122.163,102.435,98.8762,8.90743e-05,0.0550688,21.005,-332.359,0.312715,0.0,0.0
1095,273.5,63.1445,66.8369,121.539,102.434,98.2154,5.70995e-05,0.0550254,21.005,-332.359,0.371904,0.0,0.0
1098,274.25,62.9606,66.8101,125.595,102.434,99.012,1.91787e-05,0.0549866,21.005,-332.329,0.300465,0.0,0.0
1101,275,62.7671,66.1897,127.848,102.424,98.2408,-3.34508e-05,0.0549461,21.0049,-332.359,0.368754,0.0,0.0
1104,275.75,62.8115,66.2562,124.593,102.419,98.4347,-7.35392e-05,0.0549359,21.0049,-332.379,0.350957,0.0,0.0
1107,276.5,63.0406,66.0477,125.402,102.416,98.8796,-9.06935e-05,0.0548928,21.0049,-332.369,0.310783,0.0,0.0
1110,277.25,62.4156,65.7871,123.273,102.41,99.3495,-9.80534e-05,0.0548004,21.0049,-332.359,0.268353,0.0,0.0
1113,278,62.7292,66.1578,126.151,102.402,99.3095,-8.62029e-05,0.054733,21.0049,-332.359,0.271191,0.0,0.0
1116,278.75,62.8078,66.3816,125.36,102.391,97.6145,-8.23919e-05,0.0546839,21.0049,-332.359,0.422541,0.0,0.0
1119,279.5,62.4246,65.7316,123.635,102.387,98.1897,-8.1672e-05,0.0545707,21.0049,-332.349,0.370185,0.0,0.0
1122,280.25,62.4362,65.6859,129.722,102.367,99.095,-0.000112136,0.0544883,21.0049,-332.349,0.287319,0.0,0.0
1125,281,61.776,65.6576,122.681,102.37,98.6075,-0.00013752,0.054421,21.0049,-332.369,0.33115,0.0,0.0
1128,281.75,62.0515,65.4968,123.636,102.371,98.2258,-0.000161457,0.0543598,21.0049,-332.359,0.365562,0.0,0.0
1131,282.5,62.1854,65.5059,124.398,102.352,98.2447,-0.000162008,0.0543294,21.0049,-332.359,0.362198,0.0,0.0
1134,283.25,61.885,64.937,124.69,102.347,98.2245,-0.000134877,0.0543317,21.0049,-332.339,0.363583,0.0,0.0
1137,284,61.8209,65.1739,121.868,102.354,98.129,-8.0334e-05,0.0542753,21.0049,-332.349,0.372794,0.0,0.0
1140,284.75,61.761,65.4504,123.687,102.34,99.4926,-9.16522e-06,0.0542414,21.0049,-332.359,0.249555,0.0,0.0
1143,285.5,61.5061,64.899,124.406,102.331,97.7318,5.61062e-05,0.0542288,21.0049,-332.359,0.40668,0.0,0.0
1146,286.25,61.9635,64.829,126.246,102.332,98.0628,0.000120612,0.054239,21.0047,-332.349,0.376885,0.0,0.0
1149,287,61.5501,64.977,123.561,102.318,98.7016,0.000174851,0.0542179,21.0044,-332.349,0.318269,0.0,0.0
1152,287.75,62.1118,64.7378,122.545,102.303,98.5684,0.000200597,0.0541537,21.0046,-332.339,0.328881,0.0,0.0
1155,288.5,61.4691,64.8799,126.131,102.31,98.9239,0.000213756,0.0541069,21.0048,-332.349,0.29769,0.0,0.0
1158,289.25,61.2655,64.8542,120.564,102.315,98.4459,0.000241029,0.0540728,21.005,-332.369,0.340892,0.0,0.0
1161,290,61.0732,64.6048,121.548,102.292,98.2142,0.000275422,0.0539706,21.0052,-332.359,0.359781,0.0,0.0
1164,290.75,61.9054,64.0237,125.157,102.279,97.7533,0.00030668,0.0538962,21.0054,-332.349,0.40022,0.0,0.0
1167,291.5,61.0816,64.2576,120.311,102.271,97.9511,0.000327743,0.0538445,21.0055,-332.369,0.381661,0.0,0.0
1170,292.25,60.8435,64.3442,122.285,102.262,98.0641,0.000312055,0.0537778,21.0055,-332.369,0.3707,0.0,0.0
1173,293,60.633,64.0325,124.997,102.262,98.8293,0.000267998,0.0537169,21.0056,-332.369,0.301922,0.0,0.0
1176,293.75,60.8586,63.7336,123.024,102.238,99.0954,0.000206724,0.0536861,21.0056,-332.379,0.276118,0.0,0.0
1179,294.5,61.316,63.9778,119.833,102.237,98.9196,0.00013598,0.0536694,21.0057,-332.379,0.291715,0.0,0.0
1182,295.25,60.7755,63.5876,129.418,102.239,98.4996,9.02932e-05,0.0536287,21.0057,-332.399,0.32949,0.0,0.0
1185,296,61.1984,64.4802,124.983,102.231,98.528,2.5278e-05,0.0535502,21.0051,-332.399,0.326329,0.0,0.0
1188,296.75,61.2009,63.8895,124.202,102.221,98.0581,-2.2118e-05,0.0535317,21.0046,-332.379,0.3677,0.0,0.0
1191,297.5,61.0091,63.4788,122.468,102.218,98.5826,-5.1505e-05,0.0535467,21.0043,-332.399,0.320309,0.0,0.0
1194,298.25,60.4863,63.591,127.809,102.209,98.0491,-6.65249e-05,0.0535886,21.0041,-332.399,0.367466,0.0,0.0
1197,299,60.8837,63.7635,123.565,102.198,98.2408,-6.83833e-05,0.0536099,21.0039,-332.389,0.349249,0.0,0.0
1200,299.75,60.6082,62.7845,121.859,102.19,97.9816,-6.37031e-05,0.0536138,21.0038,-332.399,0.371964,0.0,0.0
1203,300.5,60.4893,63.4911,122.555,102.184,98.1338,-5.70831e-05,0.0536167,21.0037,-332.389,0.357698,0.0,0.0
1206,301.25,60.35,63.2636,121.471,102.178,98.451,-5.11708e-05,0.0536046,21.0036,-332.389,0.328573,0.0,0.0
1209,302,60.5308,63.4183,121.088,102.169,97.9287,-4.49549e-05,0.0535764,21.0036,-332.389,0.374894,0.0,0.0
1212,302.75,60.6248,63.4988,121.775,102.159,98.2266,-3.71646e-05,0.0535315,21.0035,-332.389,0.347163,0.0,0.0
1215,303.5,60.3449,63.6039,121.398,102.151,98.3676,-2.28774e-05,0.0534987,21.0035,-332.369,0.33379,0.0,0.0
1218,304.25,60.52,63.6906,120.63,102.151,98.0078,-3.88929e-07,0.0534748,21.0035,-332.379,0.366162,0.0,0.0
1221,305,60.5157,63.5589,125.995,102.142,98.7004,3.25953e-05,0.0534767,21.0035,-332.379,0.303129,0.0,0.0
1224,305.75,60.1711,63.2587,125.177,102.136,98.2743,7.62085e-05,0.0534638,21.0035,-332.379,0.340842,0.0,0.0
1227,306.5,60.8701,63.3328,124.862,102.131,98.0349,0.000133859,0.0534301,21.0034,-332.369,0.362018,0.0,0.0
1230,307.25,60.6424,63.3961,121.433,102.127,98.4274,0.000177095,0.0534248,21.0034,-332.379,0.326356,0.0,0.0
1233,308,60.0824,62.5411,123.655,102.109,98.0113,0.00020913,0.0534596,21.0037,-332.409,0.362197,0.0,0.0
1236,308.75,60.3824,62.7016,126.132,102.11,97.3926,0.000232483,0.0534849,21.0042,-332.399,0.418338,0.0,0.0
1239,309.5,60.3368,63.0481,121.859,102.094,98.6122,0.000226546,0.0535034,21.0047,-332.399,0.306903,0.0,0.0
1242,310.25,60.1703,62.1194,122.726,102.101,98.2,0.000209203,0.0535169,21.0052,-332.399,0.344569,0.0,0.0
1245,311,60.3047,62.7576,123.911,102.091,98.1535,0.000191042,0.0535267,21.0057,-332.379,0.347847,0.0,0.0
1248,311.75,59.9132,62.4972,122.989,102.094,98.341,,0.0536423,,-332.369,0.331228,0.0,0.0
1251,312.5,59.8047,62.543,121.051,102.074,97.602,,0.0537728,,-332.409,0.396234,0.0,0.0
1254,313.25,59.8359,62.4787,127.14,102.07,98.9045,,0.0537873,,-332.389,0.278591,0.0,0.0
1257,314,59.8526,62.3277,126.077,102.07,98.6385,,0.053735,,-332.419,0.302417,0.0,0.0
1260,314.75,59.8171,62.5495,123.814,102.07,98.3074,,,,-332.379,0.332181,0.0,0.0
1263,315.5,59.6054,62.1163,126.775,102.069,98.6754,,,,-332.389,0.299066,0.0,0.0
1266,316.25,59.8354,62.4003,128.381,102.049,98.3689,,,,-332.419,0.324806,0.0,0.0
1269,317,59.6104,62.1182,124.555,102.068,98.3375,,,,-332.409,0.329257,0.0,0.0
1272,317.75,59.3336,61.6961,126.649,102.046,97.9244,,,,-332.389,0.364642,0.0,0.0
1275,318.5,59.3696,62.0143,125.917,102.056,98.0985,,,,-332.399,0.349801,0.0,0.0
1278,319.25,59.6101,62.2912,121.537,102.048,97.9799,,,,-332.399,0.359816,0.0,0.0
1281,320,59.5749,61.9725,121.752,102.044,97.5882,,,,-332.389,0.394874,0.0,0.0
1284,320.75,59.3941,62.3092,124.777,102.045,98.2511,,,,-332.379,0.335039,0.0,0.0
1287,321.5,59.1257,61.6368,123.048,102.04,98.0031,,,,-332.369,0.356997,0.0,0.0
1290,322.25,59.4057,61.9812,126.147,102.038,97.841,,,,-332.389,0.371489,0.0,0.0
1291,322.5,59.3819,61.4991,123.971,102.047,98.1269,,,,-332.389,0.346447,0.0,0.0