File: 01_Data/Lightweight_Gypsum_Wallboard_Unpainted_Paper/MCC/Lightweight_Gypsum_Wallboard_Unpainted_Paper_MCC_30K_min_211130_R1.txt
Sample ID:	C:\MCC\MCC Cal\Test\LW_GypBoard_Unpainted_Paper_MCC_30K_min_211130_R1.txt
Sample Weight (mg):	4.13
Heating Rate (C/s):	0.5
Combustor Temp (C):	900
N2 Flow Rate (cc/min):	80
O2 Flow Rate (cc/min):	20
Calibration File:	C:\MCC\MCC Cal\Coeff1 JN10440_30_210304.txt.txt
T Correction Coefficients:	0	1.024463	0
Time Shift (s):	14
*
Time (s)	Temperature (C)	N2 flow rate (cc/min)	O2 flow rate (cc/min)	Flow Rate (cc/min)	Oxygen (%)	HRR (W/g)	Heating rate (C/s)
0.000	111.332	80.006	19.994	103.132	20.058	-0.331	-0.016
2.000	111.356	80.007	19.994	103.139	20.056	-0.162	-0.004
4.001	111.407	80.006	19.994	103.144	20.058	-0.301	0.009
6.000	111.380	80.008	19.995	103.134	20.056	-0.143	-0.023
8.000	111.366	80.009	19.994	103.135	20.056	-0.165	0.000
10.000	111.391	80.009	19.994	103.134	20.052	0.133	0.036
12.000	111.342	80.008	19.994	103.133	20.051	0.180	-0.002
14.000	111.313	80.008	19.995	103.132	20.053	0.058	-0.033
16.001	111.297	80.008	19.994	103.134	20.052	0.167	0.001
18.000	111.305	80.007	19.995	103.134	20.050	0.334	0.015
20.000	111.285	80.006	19.995	103.155	20.050	0.259	0.005
22.001	111.289	80.008	19.995	103.168	20.052	0.165	0.002
24.001	111.262	80.007	19.994	103.194	20.048	0.469	-0.022
26.001	111.285	80.007	19.995	103.210	20.048	0.479	0.026
28.001	111.364	80.008	19.994	103.205	20.048	0.443	0.035
30.000	111.427	80.008	19.994	103.205	20.043	0.865	0.057
32.001	111.494	80.008	19.994	103.212	20.041	1.027	0.038
34.000	111.588	80.010	19.994	103.220	20.038	1.250	0.078
36.001	111.673	80.008	19.993	103.248	20.034	1.528	0.040
38.001	111.802	80.009	19.993	103.264	20.035	1.486	0.057
40.001	111.948	80.007	19.994	103.284	20.029	1.912	0.080
42.000	112.127	80.008	19.994	103.289	20.026	2.164	0.066
44.000	112.297	80.006	19.995	103.289	20.026	2.149	0.101
46.000	112.578	80.005	19.995	103.302	20.023	2.376	0.126
48.001	112.754	80.004	19.995	103.305	20.023	2.400	0.112
50.001	113.033	80.005	19.995	103.303	20.025	2.231	0.128
52.000	113.341	80.006	19.995	103.314	20.022	2.492	0.165
54.001	113.615	80.006	19.996	103.308	20.023	2.430	0.125
56.001	113.935	80.006	19.995	103.306	20.021	2.580	0.143
58.001	114.286	80.007	19.995	103.321	20.023	2.400	0.161
60.000	114.705	80.005	19.996	103.324	20.021	2.544	0.207
62.000	115.043	80.005	19.995	103.327	20.019	2.754	0.180
64.001	115.465	80.009	19.993	103.327	20.019	2.726	0.213
66.001	115.908	80.008	19.995	103.330	20.016	2.928	0.205
68.000	116.378	80.006	19.993	103.331	20.017	2.864	0.234
70.000	116.795	80.007	19.993	103.332	20.017	2.881	0.230
72.000	117.341	80.009	19.993	103.330	20.015	3.044	0.280
74.000	117.838	80.007	19.993	103.350	20.013	3.224	0.249
76.001	118.360	80.005	19.994	103.359	20.015	3.055	0.252
78.000	118.864	80.007	19.994	103.365	20.013	3.213	0.245
80.000	119.436	80.007	19.994	103.368	20.011	3.363	0.278
82.000	119.996	80.003	19.994	103.380	20.011	3.376	0.294
84.001	120.649	80.007	19.994	103.371	20.009	3.468	0.334
86.001	121.199	80.007	19.994	103.369	20.010	3.417	0.303
88.001	121.877	80.006	19.995	103.369	20.008	3.538	0.357
90.001	122.510	80.008	19.994	103.368	20.010	3.396	0.358
92.001	123.192	80.008	19.994	103.368	20.012	3.240	0.347
94.001	123.883	80.009	19.993	103.371	20.008	3.566	0.349
96.001	124.578	80.008	19.993	103.372	20.007	3.638	0.359
98.000	125.331	80.007	19.994	103.399	20.007	3.666	0.339
100.000	126.014	80.007	19.994	103.388	20.007	3.687	0.347
102.000	126.738	80.006	19.994	103.394	20.005	3.781	0.357
104.000	127.550	80.006	19.994	103.408	20.005	3.773	0.391
106.001	128.307	80.008	19.993	103.405	20.009	3.505	0.416
108.000	129.084	80.007	19.994	103.397	20.004	3.903	0.405
110.000	129.869	80.010	19.994	103.400	20.008	3.597	0.390
112.001	130.649	80.006	19.995	103.387	20.005	3.833	0.369
114.000	131.448	80.006	19.995	103.395	20.007	3.619	0.392
116.001	132.310	80.009	19.994	103.400	20.004	3.867	0.435
118.000	133.145	80.007	19.994	103.388	20.004	3.852	0.415
120.001	133.980	80.006	19.994	103.383	20.009	3.490	0.423
122.000	134.856	80.007	19.994	103.392	20.008	3.556	0.426
124.000	135.709	80.008	19.995	103.383	20.007	3.665	0.432
126.000	136.580	80.009	19.995	103.394	20.006	3.753	0.413
128.000	137.436	80.006	19.994	103.391	20.004	3.871	0.420
130.000	138.336	80.006	19.995	103.385	20.004	3.884	0.430
132.000	139.216	80.004	19.995	103.371	20.008	3.607	0.426
134.000	140.144	80.006	19.995	103.374	20.007	3.678	0.473
136.000	141.013	80.005	19.994	103.386	20.005	3.774	0.439
138.000	141.945	80.006	19.995	103.372	20.008	3.607	0.470
140.000	142.847	80.005	19.995	103.384	20.006	3.708	0.481
142.000	143.802	80.006	19.994	103.376	20.008	3.586	0.466
144.000	144.731	80.007	19.995	103.373	20.008	3.586	0.459
146.000	145.672	80.006	19.994	103.374	20.006	3.693	0.479
148.000	146.583	80.006	19.996	103.369	20.010	3.417	0.452
150.001	147.543	80.004	19.995	103.366	20.007	3.661	0.472
152.000	148.485	80.004	19.995	103.367	20.005	3.813	0.497
154.000	149.454	80.005	19.995	103.369	20.005	3.809	0.495
156.000	150.415	80.004	19.994	103.370	20.006	3.704	0.452
158.000	151.349	80.006	19.994	103.375	20.005	3.787	0.493
160.000	152.339	80.006	19.994	103.370	20.005	3.783	0.492
162.000	153.303	80.007	19.994	103.369	20.006	3.747	0.475
164.000	154.243	80.003	19.994	103.371	20.008	3.537	0.459
166.001	155.157	80.005	19.994	103.371	20.010	3.416	0.470
168.000	156.153	80.007	19.994	103.372	20.006	3.749	0.495
170.000	157.115	80.004	19.994	103.371	20.005	3.838	0.521
172.000	158.145	80.006	19.994	103.373	20.010	3.412	0.532
174.000	159.098	80.007	19.993	103.370	20.007	3.676	0.488
176.000	160.080	80.007	19.994	103.356	20.007	3.626	0.482
178.000	161.099	80.010	19.994	103.363	20.010	3.399	0.503
180.000	162.045	80.008	19.992	103.367	20.008	3.600	0.481
182.000	163.045	80.007	19.994	103.370	20.009	3.495	0.494
184.000	164.080	80.006	19.994	103.371	20.013	3.211	0.527
186.000	165.122	80.008	19.994	103.367	20.011	3.376	0.543
188.000	166.042	80.006	19.994	103.367	20.011	3.356	0.467
190.000	167.094	80.008	19.994	103.364	20.013	3.213	0.495
192.000	168.069	80.010	19.993	103.357	20.012	3.253	0.497
194.000	169.059	80.009	19.994	103.362	20.009	3.471	0.506
196.000	170.080	80.008	19.994	103.364	20.014	3.082	0.506
198.000	171.044	80.007	19.993	103.358	20.011	3.369	0.476
200.000	172.051	80.010	19.994	103.361	20.011	3.335	0.518
202.000	173.069	80.011	19.993	103.363	20.010	3.441	0.494
204.000	174.087	80.009	19.994	103.350	20.011	3.373	0.494
206.000	175.062	80.011	19.993	103.338	20.010	3.401	0.509
208.000	176.016	80.008	19.995	103.343	20.010	3.392	0.473
210.000	177.024	80.008	19.995	103.355	20.009	3.531	0.486
212.000	178.037	80.006	19.995	103.344	20.011	3.366	0.515
214.000	179.018	80.007	19.995	103.342	20.008	3.613	0.510
216.000	180.018	80.006	19.995	103.336	20.010	3.394	0.517
218.000	181.012	80.009	19.994	103.335	20.007	3.670	0.526
220.000	182.024	80.008	19.995	103.333	20.010	3.405	0.521
222.000	183.007	80.009	19.995	103.331	20.006	3.707	0.484
224.000	184.025	80.007	19.995	103.338	20.006	3.741	0.516
226.000	185.020	80.006	19.994	103.343	20.008	3.600	0.505
228.000	186.071	80.006	19.995	103.336	20.006	3.728	0.515
230.000	187.120	80.006	19.994	103.333	20.010	3.407	0.554
232.000	188.084	80.006	19.995	103.332	20.005	3.777	0.476
234.000	189.040	80.006	19.995	103.335	20.011	3.321	0.493
236.000	190.078	80.005	19.995	103.338	20.007	3.659	0.539
238.000	191.079	80.005	19.995	103.332	20.006	3.745	0.519
240.000	192.062	80.005	19.995	103.333	20.009	3.503	0.492
242.000	193.033	80.005	19.996	103.331	20.012	3.261	0.499
244.001	194.038	80.006	19.995	103.331	20.011	3.370	0.501
246.000	195.052	80.005	19.996	103.332	20.012	3.283	0.489
248.000	196.086	80.005	19.996	103.332	20.009	3.460	0.512
250.000	197.072	80.006	19.995	103.333	20.010	3.445	0.519
252.000	198.016	80.005	19.994	103.333	20.009	3.460	0.471
254.000	199.037	80.006	19.994	103.333	20.010	3.392	0.504
256.000	200.066	80.009	19.994	103.331	20.011	3.342	0.526
258.000	201.044	80.009	19.994	103.330	20.012	3.300	0.518
260.000	202.029	80.008	19.995	103.327	20.009	3.475	0.478
262.000	202.996	80.008	19.994	103.328	20.010	3.396	0.482
264.000	204.010	80.007	19.995	103.328	20.014	3.117	0.498
266.000	205.034	80.007	19.995	103.328	20.013	3.196	0.534
268.000	206.039	80.008	19.995	103.329	20.009	3.499	0.535
270.000	207.022	80.006	19.995	103.326	20.014	3.144	0.491
272.001	208.021	80.008	19.995	103.322	20.009	3.510	0.510
274.000	209.015	80.006	19.995	103.323	20.012	3.234	0.502
276.001	210.008	80.007	19.994	103.321	20.007	3.618	0.516
278.000	211.025	80.009	19.995	103.281	20.011	3.350	0.479
280.000	212.026	80.010	19.995	103.298	20.007	3.672	0.505
282.000	213.006	80.008	19.995	103.369	20.007	3.644	0.503
284.000	214.012	80.011	19.994	103.339	20.008	3.599	0.493
286.000	214.986	80.011	19.994	103.332	20.008	3.572	0.480
288.000	215.959	80.010	19.995	103.305	20.010	3.438	0.486
290.000	216.958	80.008	19.993	103.310	20.008	3.562	0.485
292.000	217.970	80.008	19.994	103.322	20.008	3.565	0.490
294.000	218.893	80.007	19.993	103.325	20.005	3.802	0.473
296.000	219.890	80.008	19.993	103.328	20.007	3.636	0.475
298.000	220.886	80.007	19.995	103.324	20.003	3.950	0.488
300.000	221.867	80.006	19.994	103.304	20.003	3.997	0.474
302.000	222.925	80.007	19.994	103.327	20.005	3.807	0.521
304.000	223.877	80.004	19.995	103.316	20.001	4.149	0.506
306.000	224.868	80.006	19.995	103.317	20.001	4.109	0.503
308.000	225.848	80.008	19.995	103.327	20.000	4.173	0.463
310.000	226.873	80.006	19.995	103.311	19.997	4.400	0.490
312.000	227.874	80.007	19.995	103.313	19.998	4.327	0.487
314.000	228.903	80.005	19.994	103.327	19.995	4.552	0.492
316.000	229.884	80.006	19.995	103.322	19.999	4.239	0.482
318.000	230.912	80.006	19.995	103.325	19.996	4.533	0.493
320.000	231.876	80.008	19.995	103.327	19.995	4.563	0.473
322.000	232.845	80.009	19.995	103.323	19.995	4.624	0.456
324.000	233.886	80.006	19.997	103.323	19.991	4.884	0.502
326.000	234.901	80.006	19.996	103.319	19.991	4.877	0.495
328.000	235.871	80.006	19.995	103.313	19.986	5.320	0.493
330.000	236.883	80.007	19.995	103.327	19.987	5.182	0.528
332.000	237.871	80.007	19.995	103.317	19.984	5.484	0.502
334.000	238.856	80.007	19.997	103.316	19.983	5.558	0.480
336.000	239.821	80.006	19.996	103.317	19.983	5.543	0.473
338.000	240.833	80.008	19.996	103.317	19.980	5.755	0.467
340.000	241.831	80.008	19.996	103.323	19.980	5.785	0.523
342.000	242.807	80.007	19.995	103.326	19.978	5.929	0.457
344.000	243.819	80.009	19.995	103.324	19.978	5.944	0.490
346.000	244.817	80.008	19.996	103.315	19.973	6.293	0.480
348.000	245.849	80.010	19.997	103.313	19.974	6.216	0.554
350.000	246.819	80.008	19.995	103.327	19.975	6.118	0.498
352.000	247.837	80.008	19.994	103.325	19.971	6.450	0.509
354.000	248.827	80.008	19.995	103.326	19.968	6.666	0.468
356.000	249.886	80.008	19.994	103.327	19.967	6.783	0.491
358.000	250.938	80.007	19.995	103.324	19.966	6.835	0.524
360.000	251.927	80.009	19.994	103.324	19.960	7.317	0.539
362.000	252.970	80.009	19.995	103.331	19.962	7.128	0.506
364.000	253.990	80.009	19.994	103.331	19.960	7.338	0.512
366.000	255.027	80.009	19.993	103.326	19.955	7.717	0.521
368.000	256.027	80.010	19.994	103.332	19.955	7.732	0.496
370.000	256.976	80.008	19.995	103.333	19.949	8.167	0.468
372.000	257.986	80.009	19.994	103.331	19.946	8.384	0.494
374.000	259.002	80.009	19.994	103.331	19.943	8.613	0.506
376.000	260.071	80.007	19.995	103.330	19.943	8.617	0.531
378.000	261.044	80.007	19.994	103.332	19.937	9.080	0.475
380.000	262.042	80.007	19.995	103.334	19.934	9.353	0.494
382.000	263.034	80.006	19.995	103.336	19.931	9.587	0.512
384.000	264.073	80.008	19.995	103.337	19.926	9.968	0.493
386.000	265.034	80.006	19.995	103.335	19.921	10.386	0.485
388.000	266.076	80.007	19.995	103.339	19.914	10.925	0.524
390.000	267.084	80.008	19.995	103.335	19.913	11.022	0.514
392.001	268.097	80.007	19.995	103.339	19.911	11.185	0.523
394.000	269.091	80.007	19.995	103.339	19.900	11.989	0.489
396.000	270.110	80.007	19.995	103.336	19.897	12.209	0.489
398.000	271.103	80.009	19.994	103.337	19.893	12.566	0.497
400.000	272.132	80.007	19.995	103.334	19.886	13.141	0.521
402.000	273.155	80.007	19.994	103.341	19.880	13.544	0.495
404.000	274.115	80.007	19.996	103.345	19.873	14.107	0.466
406.000	275.135	80.007	19.995	103.360	19.867	14.596	0.492
408.000	276.146	80.005	19.995	103.364	19.863	14.872	0.484
410.000	277.114	80.006	19.996	103.362	19.855	15.505	0.498
412.000	278.126	80.006	19.995	103.364	19.847	16.137	0.492
414.000	279.138	80.007	19.995	103.363	19.846	16.205	0.494
416.000	280.151	80.008	19.994	103.368	19.838	16.866	0.485
418.000	281.125	80.008	19.995	103.369	19.829	17.522	0.462
420.000	282.130	80.008	19.995	103.372	19.820	18.222	0.506
422.000	283.162	80.007	19.995	103.377	19.814	18.706	0.496
424.000	284.137	80.009	19.994	103.389	19.807	19.300	0.507
426.000	285.164	80.006	19.995	103.384	19.795	20.241	0.521
428.000	286.179	80.008	19.995	103.398	19.792	20.425	0.505
430.000	287.165	80.008	19.995	103.383	19.785	21.035	0.478
432.000	288.167	80.007	19.996	103.396	19.777	21.626	0.500
434.000	289.165	80.008	19.996	103.398	19.763	22.721	0.501
436.001	290.147	80.006	19.995	103.393	19.754	23.436	0.490
438.000	291.185	80.008	19.995	103.405	19.747	23.982	0.526
440.000	292.195	80.007	19.996	103.408	19.736	24.814	0.506
442.000	293.179	80.007	19.994	103.410	19.730	25.266	0.454
444.000	294.223	80.008	19.995	103.413	19.717	26.278	0.517
446.000	295.224	80.009	19.994	103.424	19.709	26.937	0.542
448.000	296.209	80.009	19.994	103.413	19.702	27.454	0.508
450.000	297.205	80.009	19.993	103.415	19.688	28.602	0.522
452.000	298.207	80.009	19.993	103.431	19.686	28.758	0.483
454.000	299.208	80.010	19.995	103.423	19.676	29.559	0.487
456.001	300.184	80.008	19.994	103.428	19.663	30.542	0.475
458.000	301.196	80.007	19.994	103.421	19.656	31.082	0.496
460.000	302.258	80.006	19.994	103.430	19.648	31.715	0.521
462.001	303.258	80.008	19.994	103.438	19.637	32.534	0.537
464.000	304.246	80.006	19.994	103.445	19.627	33.327	0.471
466.000	305.272	80.007	19.995	103.443	19.617	34.110	0.525
468.000	306.242	80.006	19.994	103.446	19.612	34.559	0.475
470.000	307.275	80.008	19.994	103.444	19.600	35.456	0.554
472.000	308.292	80.007	19.994	103.445	19.591	36.151	0.486
474.000	309.272	80.007	19.994	103.446	19.584	36.718	0.493
476.000	310.298	80.008	19.994	103.445	19.574	37.514	0.518
478.000	311.330	80.008	19.994	103.449	19.569	37.928	0.456
480.000	312.326	80.006	19.993	103.449	19.560	38.637	0.516
482.000	313.398	80.008	19.994	103.449	19.548	39.508	0.533
484.000	314.388	80.007	19.994	103.453	19.539	40.231	0.484
486.000	315.436	80.007	19.995	103.450	19.534	40.661	0.509
488.000	316.152	80.006	19.995	103.465	19.526	41.284	0.265
490.000	317.287	80.006	19.995	103.484	19.517	41.963	0.561
492.000	318.468	80.006	19.994	103.486	19.507	42.749	0.655
494.000	319.373	80.006	19.995	103.476	19.496	43.636	0.451
496.000	320.519	80.006	19.994	103.478	19.489	44.149	0.515
498.000	321.510	80.006	19.995	103.485	19.478	45.009	0.566
500.000	322.505	80.006	19.995	103.483	19.471	45.575	0.490
502.000	323.490	80.006	19.995	103.482	19.460	46.395	0.526
504.000	324.485	80.007	19.994	103.488	19.449	47.257	0.512
506.000	325.472	80.008	19.994	103.488	19.441	47.900	0.466
508.000	326.482	80.009	19.994	103.487	19.431	48.666	0.473
510.000	327.475	80.008	19.994	103.491	19.420	49.599	0.479
512.000	328.497	80.006	19.995	103.492	19.405	50.738	0.505
514.000	329.463	80.007	19.995	103.501	19.389	52.010	0.512
516.000	330.472	80.007	19.994	103.517	19.380	52.716	0.518
518.000	331.422	80.008	19.994	103.518	19.368	53.639	0.481
520.000	332.452	80.008	19.995	103.519	19.350	55.077	0.511
522.000	333.479	80.009	19.995	103.524	19.339	55.909	0.508
524.000	334.460	80.009	19.996	103.524	19.326	56.991	0.487
526.000	335.460	80.007	19.995	103.530	19.312	58.009	0.469
528.000	336.427	80.009	19.995	103.535	19.295	59.396	0.486
530.000	337.466	80.008	19.996	103.532	19.276	60.818	0.527
532.000	338.448	80.009	19.996	103.525	19.261	62.057	0.469
534.000	339.451	80.008	19.995	103.500	19.246	63.184	0.520
536.000	340.445	80.009	19.995	103.614	19.225	64.846	0.502
538.000	341.445	80.009	19.995	103.562	19.214	65.696	0.508
540.000	342.418	80.009	19.995	103.568	19.200	66.812	0.485
542.000	343.389	80.008	19.994	103.568	19.181	68.292	0.482
544.001	344.429	80.007	19.994	103.572	19.171	69.092	0.519
546.000	345.425	80.007	19.995	103.590	19.152	70.536	0.516
548.000	346.395	80.007	19.995	103.594	19.137	71.715	0.511
550.000	347.440	80.007	19.994	103.592	19.121	73.028	0.502
552.000	348.477	80.007	19.995	103.594	19.110	73.882	0.535
554.000	349.490	80.006	19.993	103.594	19.097	74.843	0.521
556.000	350.519	80.007	19.994	103.602	19.091	75.315	0.524
558.000	351.511	80.006	19.994	103.594	19.080	76.163	0.489
560.000	352.556	80.006	19.995	103.591	19.077	76.386	0.519
562.000	353.597	80.007	19.994	103.584	19.076	76.440	0.532
564.000	354.630	80.005	19.993	103.572	19.074	76.605	0.491
566.000	355.638	80.007	19.994	103.565	19.078	76.281	0.531
568.000	356.632	80.006	19.994	103.558	19.080	76.152	0.508
570.000	357.686	80.007	19.994	103.543	19.096	74.851	0.516
572.000	358.674	80.006	19.994	103.529	19.111	73.688	0.502
574.000	359.688	80.004	19.994	103.524	19.129	72.249	0.521
576.000	360.734	80.006	19.994	103.502	19.153	70.407	0.505
578.000	361.758	80.004	19.993	103.492	19.180	68.269	0.517
580.000	362.749	80.006	19.994	103.486	19.206	66.203	0.496
582.000	363.770	80.008	19.994	103.459	19.240	63.551	0.509
584.000	364.793	80.006	19.993	103.440	19.277	60.623	0.493
586.000	365.834	80.008	19.993	103.424	19.316	57.602	0.537
588.000	366.844	80.007	19.994	103.406	19.358	54.286	0.508
590.000	367.874	80.008	19.993	103.376	19.405	50.627	0.502
592.000	368.929	80.008	19.994	103.362	19.448	47.265	0.500
594.001	369.921	80.008	19.994	103.339	19.492	43.844	0.534
596.000	370.933	80.008	19.996	103.327	19.540	40.102	0.516
598.000	371.955	80.007	19.995	103.314	19.583	36.703	0.519
600.000	373.000	80.006	19.995	103.293	19.624	33.511	0.505
602.000	374.050	80.005	19.996	103.286	19.669	29.989	0.528
604.000	375.056	80.007	19.994	103.280	19.704	27.282	0.504
606.000	376.065	80.006	19.996	103.273	19.742	24.321	0.494
608.000	377.080	80.007	19.995	103.267	19.775	21.756	0.504
610.000	378.103	80.010	19.995	103.262	19.810	19.009	0.491
612.000	379.114	80.009	19.995	103.252	19.830	17.442	0.511
614.000	380.143	80.009	19.993	103.249	19.860	15.099	0.537
616.000	381.133	80.009	19.994	103.249	19.879	13.612	0.497
618.000	382.147	80.008	19.993	103.252	19.894	12.455	0.500
620.000	383.176	80.007	19.994	103.199	19.911	11.147	0.519
622.000	384.165	80.008	19.993	103.290	19.921	10.371	0.529
624.000	385.223	80.008	19.995	103.269	19.930	9.682	0.520
626.000	386.207	80.006	19.995	103.250	19.940	8.854	0.472
628.000	387.241	80.006	19.996	103.249	19.945	8.479	0.530
630.000	388.257	80.006	19.995	103.250	19.950	8.131	0.538
632.000	389.276	80.005	19.994	103.253	19.955	7.673	0.494
634.000	390.288	80.006	19.994	103.255	19.957	7.551	0.498
636.001	391.313	80.006	19.994	103.252	19.953	7.870	0.510
638.000	392.346	80.006	19.993	103.252	19.956	7.624	0.514
640.000	393.357	80.007	19.994	103.251	19.957	7.534	0.522
642.000	394.383	80.006	19.994	103.255	19.961	7.230	0.495
644.000	395.382	80.006	19.993	103.254	19.957	7.549	0.519
646.000	396.417	80.007	19.994	103.254	19.960	7.338	0.499
648.000	397.392	80.007	19.993	103.255	19.961	7.216	0.484
650.000	398.399	80.006	19.993	103.254	19.961	7.271	0.527
652.000	399.409	80.007	19.994	103.255	19.963	7.082	0.502
654.000	400.426	80.005	19.993	103.261	19.962	7.191	0.493
656.000	401.415	80.004	19.993	103.213	19.960	7.318	0.497
658.000	402.425	80.006	19.994	103.241	19.965	6.928	0.449
660.000	403.457	80.006	19.994	103.304	19.963	7.101	0.506
662.001	404.460	80.006	19.995	103.251	19.965	6.960	0.513
664.000	405.450	80.005	19.994	103.250	19.963	7.071	0.511
666.000	406.419	80.007	19.995	103.251	19.966	6.851	0.480
668.000	407.456	80.007	19.995	103.251	19.966	6.810	0.515
670.000	408.477	80.006	19.994	103.251	19.965	6.892	0.514
672.000	409.460	80.010	19.995	103.250	19.969	6.614	0.472
674.000	410.465	80.007	19.993	103.252	19.970	6.532	0.502
676.000	411.440	80.008	19.994	103.250	19.968	6.703	0.481
678.000	412.506	80.008	19.993	103.251	19.967	6.806	0.523
680.000	413.517	80.007	19.994	103.251	19.966	6.843	0.503
682.000	414.510	80.008	19.995	103.250	19.967	6.757	0.514
684.000	415.498	80.008	19.994	103.250	19.973	6.297	0.501
686.000	416.498	80.007	19.994	103.252	19.974	6.250	0.502
688.000	417.489	80.006	19.994	103.251	19.971	6.451	0.505
690.000	418.509	80.007	19.994	103.252	19.973	6.300	0.507
692.000	419.545	80.008	19.994	103.255	19.973	6.271	0.505
694.000	420.587	80.007	19.994	103.252	19.973	6.272	0.543
696.000	421.609	80.007	19.994	103.251	19.971	6.427	0.542
698.000	422.612	80.010	19.996	103.256	19.974	6.203	0.509
700.000	423.645	80.010	19.995	103.223	19.974	6.192	0.505
702.000	424.643	80.008	19.994	103.212	19.971	6.487	0.512
704.000	425.686	80.007	19.994	103.292	19.973	6.293	0.536
706.000	426.715	80.007	19.995	103.252	19.976	6.091	0.525
708.000	427.792	80.005	19.995	103.252	19.978	5.944	0.559
710.000	428.787	80.005	19.993	103.254	19.981	5.704	0.515
712.000	429.767	80.005	19.995	103.249	19.976	6.040	0.483
714.000	430.816	80.005	19.995	103.251	19.982	5.561	0.504
716.000	431.863	80.005	19.994	103.239	19.980	5.774	0.526
718.000	432.912	80.005	19.995	103.245	19.979	5.815	0.539
720.000	433.928	80.006	19.995	103.248	19.981	5.691	0.499
722.000	434.964	80.006	19.995	103.249	19.981	5.640	0.509
724.000	435.991	80.006	19.996	103.244	19.980	5.721	0.505
726.000	437.039	80.005	19.995	103.246	19.981	5.644	0.496
728.000	438.085	80.007	19.995	103.247	19.987	5.205	0.515
730.000	439.073	80.007	19.996	103.248	19.987	5.231	0.496
732.000	440.088	80.006	19.996	103.245	19.985	5.340	0.519
734.000	441.139	80.006	19.995	103.245	19.990	4.964	0.511
736.000	442.179	80.006	19.994	103.245	19.992	4.837	0.524
738.000	443.185	80.007	19.993	103.240	19.989	5.081	0.544
740.000	444.244	80.007	19.994	103.229	19.990	5.002	0.512
742.000	445.268	80.005	19.993	103.245	19.994	4.666	0.516
744.000	446.244	80.006	19.994	103.249	19.990	4.961	0.493
746.000	447.242	80.007	19.994	103.245	19.989	5.031	0.491
748.000	448.300	80.009	19.995	103.242	19.992	4.852	0.507
750.000	449.368	80.007	19.994	103.239	19.996	4.533	0.534
752.000	450.348	80.006	19.993	103.236	19.994	4.677	0.515
754.000	451.349	80.007	19.993	103.230	19.994	4.656	0.503
756.000	452.376	80.010	19.995	103.235	19.993	4.777	0.514
758.000	453.354	80.009	19.994	103.233	19.999	4.251	0.471
760.000	454.434	80.008	19.995	103.241	19.995	4.590	0.518
762.000	455.445	80.009	19.994	103.242	19.996	4.526	0.527
764.000	456.465	80.008	19.994	103.248	19.999	4.240	0.493
766.001	457.474	80.007	19.994	103.239	19.999	4.274	0.519
768.000	458.525	80.008	19.993	103.248	20.002	4.037	0.522
770.000	459.509	80.008	19.993	103.236	20.002	4.058	0.476
772.000	460.541	80.008	19.994	103.225	20.003	3.962	0.525
774.000	461.568	80.007	19.993	103.233	20.006	3.728	0.512
776.000	462.545	80.009	19.993	103.234	20.001	4.103	0.501
778.000	463.559	80.010	19.993	103.242	20.005	3.792	0.490
780.000	464.608	80.011	19.994	103.233	20.005	3.769	0.516
782.001	465.601	80.010	19.995	103.236	20.006	3.731	0.492
784.000	466.623	80.009	19.994	103.232	20.004	3.855	0.508
786.000	467.634	80.008	19.996	103.217	20.005	3.788	0.510
788.000	468.644	80.009	19.996	103.176	20.009	3.500	0.517
790.000	469.683	80.007	19.994	103.280	20.008	3.549	0.509
792.000	470.707	80.007	19.995	103.255	20.008	3.551	0.513
794.000	471.710	80.008	19.995	103.230	20.010	3.384	0.497
796.000	472.746	80.006	19.995	103.226	20.009	3.512	0.508
798.000	473.744	80.007	19.995	103.231	20.011	3.356	0.532
800.000	474.818	80.006	19.995	103.229	20.011	3.354	0.499
802.000	475.867	80.007	19.995	103.223	20.010	3.399	0.516
804.000	476.854	80.006	19.995	103.230	20.011	3.318	0.483
806.000	477.900	80.006	19.994	103.226	20.015	3.061	0.500
808.000	478.916	80.006	19.994	103.216	20.015	3.042	0.512
810.000	479.951	80.007	19.995	103.212	20.015	3.027	0.522
812.000	480.964	80.007	19.996	103.228	20.014	3.114	0.504
814.000	482.006	80.005	19.996	103.214	20.013	3.161	0.522
816.000	483.022	80.006	19.995	103.230	20.014	3.104	0.506
818.000	484.033	80.006	19.996	103.217	20.016	2.974	0.473
820.000	485.115	80.006	19.995	103.223	20.013	3.143	0.550
822.000	486.143	80.006	19.995	103.217	20.013	3.194	0.566
824.000	487.156	80.008	19.995	103.220	20.014	3.083	0.490
826.000	488.180	80.006	19.997	103.221	20.011	3.370	0.516
828.000	489.173	80.006	19.995	103.239	20.015	2.993	0.527
830.000	490.179	80.007	19.993	103.238	20.016	2.929	0.519
832.000	491.190	80.007	19.995	103.245	20.014	3.128	0.510
834.000	492.224	80.007	19.994	103.239	20.017	2.839	0.507
836.000	493.269	80.008	19.994	103.243	20.017	2.866	0.546
838.000	494.295	80.008	19.993	103.235	20.015	3.014	0.511
840.000	495.330	80.008	19.993	103.232	20.017	2.834	0.543
842.000	496.356	80.008	19.993	103.231	20.018	2.798	0.481
844.000	497.393	80.008	19.994	103.227	20.015	3.005	0.519
846.000	498.459	80.008	19.994	103.232	20.020	2.599	0.555
848.000	499.440	80.008	19.994	103.217	20.017	2.862	0.505
850.000	500.521	80.008	19.994	103.219	20.021	2.590	0.570
852.000	501.528	80.008	19.994	103.214	20.018	2.819	0.545
854.000	502.579	80.010	19.994	103.219	20.024	2.344	0.507
856.000	503.606	80.009	19.993	103.219	20.021	2.586	0.523
858.000	504.617	80.010	19.993	103.216	20.018	2.810	0.501
860.000	505.653	80.011	19.994	103.217	20.023	2.417	0.525
862.000	506.718	80.011	19.993	103.216	20.018	2.779	0.514
864.000	507.667	80.011	19.993	103.224	20.020	2.667	0.466
866.000	508.796	80.011	19.994	103.211	20.022	2.511	0.572
868.000	509.804	80.009	19.993	103.213	20.017	2.894	0.534
870.000	510.794	80.009	19.993	103.223	20.023	2.428	0.474
872.000	511.854	80.008	19.993	103.221	20.019	2.678	0.527
874.001	512.844	80.008	19.993	103.225	20.020	2.637	0.521
876.000	513.910	80.007	19.993	103.215	20.019	2.706	0.553
878.000	514.949	80.007	19.994	103.222	20.019	2.680	0.534
880.000	515.938	80.007	19.995	103.212	20.022	2.464	0.497
882.000	516.984	80.005	19.995	103.218	20.023	2.407	0.493
884.000	518.011	80.007	19.995	103.226	20.025	2.210	0.509
886.000	519.056	80.008	19.994	103.225	20.021	2.571	0.505
888.000	520.040	80.007	19.994	103.230	20.023	2.406	0.496
890.000	521.123	80.009	19.995	103.226	20.025	2.257	0.508
892.000	522.138	80.006	19.994	103.231	20.024	2.325	0.512
894.000	523.154	80.008	19.993	103.223	20.026	2.195	0.500
896.000	524.216	80.007	19.993	103.219	20.028	2.007	0.534
898.000	525.207	80.008	19.994	103.223	20.024	2.353	0.500
900.000	526.255	80.007	19.995	103.226	20.027	2.096	0.512
902.000	527.235	80.006	19.995	103.219	20.028	2.026	0.529
904.000	528.251	80.007	19.995	103.216	20.027	2.113	0.508
906.001	529.328	80.007	19.995	103.235	20.030	1.874	0.503
908.000	530.314	80.005	19.995	103.233	20.028	2.019	0.517
910.000	531.378	80.007	19.996	103.220	20.026	2.163	0.494
912.000	532.368	80.006	19.995	103.217	20.026	2.184	0.529
914.000	533.445	80.006	19.995	103.220	20.026	2.192	0.539
916.000	534.482	80.008	19.995	103.228	20.027	2.090	0.534
918.000	535.502	80.007	19.994	103.219	20.026	2.160	0.512
920.000	536.540	80.008	19.995	103.224	20.022	2.453	0.521
922.000	537.583	80.008	19.994	103.231	20.030	1.852	0.495
924.000	538.561	80.009	19.994	103.224	20.028	2.009	0.523
926.001	539.600	80.009	19.994	103.225	20.027	2.075	0.517
928.000	540.614	80.008	19.994	103.222	20.026	2.171	0.512
930.000	541.599	80.008	19.995	103.220	20.026	2.199	0.478
932.000	542.615	80.009	19.993	103.213	20.031	1.780	0.492
934.000	543.634	80.007	19.995	103.219	20.028	2.004	0.473
936.000	544.692	80.010	19.995	103.224	20.029	1.962	0.516
938.000	545.710	80.009	19.994	103.217	20.026	2.135	0.514
940.000	546.713	80.008	19.995	103.218	20.025	2.237	0.504
942.000	547.755	80.010	19.994	103.217	20.031	1.790	0.500
944.000	548.818	80.009	19.993	103.214	20.032	1.696	0.546
946.000	549.831	80.010	19.994	103.222	20.032	1.673	0.512
948.000	550.816	80.009	19.993	103.226	20.028	2.032	0.476
950.000	551.831	80.011	19.995	103.222	20.032	1.698	0.515
952.000	552.866	80.008	19.994	103.226	20.026	2.197	0.520
954.000	553.884	80.008	19.992	103.220	20.027	2.115	0.512
956.000	554.924	80.007	19.993	103.224	20.027	2.118	0.522
958.000	555.933	80.008	19.994	103.216	20.030	1.842	0.490
960.000	556.975	80.005	19.994	103.218	20.027	2.064	0.521
962.000	557.968	80.007	19.995	103.226	20.025	2.210	0.489
964.000	559.033	80.009	19.996	103.217	20.031	1.748	0.521
966.000	560.036	80.005	19.994	103.219	20.025	2.244	0.507
968.000	560.992	80.005	19.994	103.219	20.031	1.809	0.489
970.000	562.060	80.008	19.993	103.227	20.028	1.998	0.539
972.000	563.087	80.007	19.994	103.222	20.026	2.139	0.528
974.000	564.062	80.007	19.997	103.225	20.032	1.679	0.485
976.000	565.081	80.006	19.993	103.220	20.025	2.229	0.531
978.000	566.094	80.007	19.996	103.214	20.030	1.835	0.518
980.000	567.121	80.005	19.995	103.214	20.028	2.047	0.541
982.000	568.169	80.008	19.994	103.210	20.029	1.912	0.530
984.000	569.174	80.006	19.994	103.212	20.031	1.773	0.486
986.000	570.183	80.005	19.995	103.221	20.032	1.668	0.506
988.000	571.179	80.005	19.995	103.214	20.029	1.955	0.516
990.000	572.215	80.005	19.995	103.218	20.039	1.159	0.531
992.000	573.255	80.008	19.995	103.218	20.030	1.824	0.533
994.000	574.322	80.007	19.996	103.213	20.033	1.658	0.529
996.000	575.350	80.007	19.996	103.217	20.025	2.273	0.532
998.000	576.342	80.006	19.994	103.217	20.033	1.634	0.478
1000.000	577.363	80.007	19.995	103.218	20.032	1.713	0.523
1002.000	578.389	80.008	19.994	103.213	20.040	1.093	0.509
1004.000	579.402	80.009	19.996	103.212	20.030	1.846	0.517
1006.000	580.404	80.009	19.996	103.210	20.026	2.179	0.507
1008.000	581.418	80.009	19.996	103.209	20.034	1.579	0.497
1010.001	582.413	80.006	19.994	103.209	20.033	1.647	0.513
1012.000	583.384	80.007	19.996	103.209	20.037	1.311	0.459
1014.000	584.407	80.007	19.994	103.214	20.028	1.972	0.484
1016.000	585.412	80.008	19.995	103.213	20.026	2.147	0.508
1018.000	586.416	80.009	19.997	103.214	20.033	1.643	0.514
1020.000	587.433	80.008	19.994	103.223	20.031	1.771	0.523
1022.001	588.417	80.009	19.993	103.214	20.034	1.551	0.489
1024.001	589.458	80.010	19.993	103.215	20.030	1.863	0.541
1026.000	590.435	80.008	19.995	103.214	20.026	2.137	0.491
1028.001	591.410	80.009	19.994	103.214	20.034	1.519	0.486
1030.000	592.417	80.008	19.993	103.217	20.028	2.000	0.491
1032.000	593.499	80.008	19.994	103.215	20.031	1.797	0.510
1034.000	594.505	80.008	19.994	103.215	20.030	1.835	0.520
1036.000	595.514	80.008	19.994	103.215	20.035	1.467	0.526
1038.000	596.528	80.006	19.993	103.213	20.033	1.660	0.525
1040.000	597.504	80.006	19.993	103.217	20.036	1.405	0.520
1042.001	598.523	80.007	19.994	103.219	20.028	2.023	0.504
1044.001	599.498	80.008	19.994	103.223	20.032	1.730	0.504
1046.000	600.505	80.007	19.995	103.215	20.033	1.651	0.508
1048.000	601.506	80.006	19.994	103.212	20.032	1.702	0.509
1050.001	602.523	80.008	19.994	103.213	20.029	1.918	0.493
1052.000	603.529	80.008	19.994	103.214	20.033	1.583	0.480
1054.001	604.540	80.007	19.994	103.214	20.034	1.555	0.475
1056.001	605.574	80.006	19.994	103.213	20.033	1.634	0.497
1058.001	606.586	80.009	19.994	103.212	20.032	1.718	0.505
1060.000	607.591	80.008	19.994	103.212	20.026	2.141	0.518
1062.000	608.613	80.008	19.994	103.211	20.034	1.529	0.511
1064.000	609.622	80.008	19.994	103.216	20.029	1.940	0.505
1066.000	610.655	80.007	19.993	103.217	20.033	1.658	0.494
1068.001	611.606	80.007	19.995	103.212	20.031	1.771	0.457
1070.001	612.634	80.005	19.995	103.222	20.032	1.703	0.504
1072.000	613.668	80.006	19.995	103.220	20.032	1.700	0.494
1074.001	614.700	80.006	19.996	103.218	20.030	1.818	0.503
1076.000	615.741	80.005	19.995	103.231	20.032	1.718	0.520
1078.001	616.696	80.007	19.995	103.212	20.033	1.643	0.468
1080.000	617.763	80.007	19.995	103.214	20.035	1.446	0.522
1082.000	618.773	80.006	19.993	103.215	20.034	1.514	0.493
1084.001	619.806	80.007	19.995	103.218	20.035	1.437	0.522
1086.001	620.817	80.007	19.996	103.220	20.029	1.949	0.511
1088.000	621.848	80.007	19.995	103.227	20.031	1.769	0.480
1090.001	622.838	80.008	19.994	103.216	20.033	1.641	0.500
1092.001	623.890	80.008	19.994	103.222	20.032	1.662	0.523
1094.000	624.937	80.007	19.994	103.214	20.034	1.551	0.533
1096.000	625.890	80.008	19.994	103.222	20.037	1.305	0.511
1098.000	626.914	80.005	19.995	103.215	20.030	1.850	0.532
1100.001	627.901	80.006	19.995	103.220	20.033	1.660	0.483
1102.000	628.925	80.007	19.995	103.226	20.034	1.538	0.484
1104.000	629.919	80.006	19.996	103.226	20.032	1.681	0.498
1106.000	630.953	80.006	19.994	103.222	20.032	1.713	0.491
1108.000	631.957	80.007	19.994	103.213	20.030	1.876	0.528
1110.000	632.998	80.008	19.995	103.222	20.037	1.315	0.517
1112.000	633.987	80.010	19.994	103.214	20.031	1.763	0.521
1114.000	634.999	80.008	19.993	103.223	20.035	1.478	0.526
1116.000	636.028	80.008	19.994	103.217	20.032	1.722	0.503
1118.001	637.005	80.009	19.995	103.214	20.030	1.859	0.474
1120.001	638.031	80.008	19.994	103.216	20.035	1.452	0.528
1122.001	639.047	80.009	19.994	103.227	20.031	1.782	0.518
1124.000	640.048	80.009	19.993	103.230	20.032	1.707	0.507
1126.000	641.071	80.007	19.994	103.214	20.033	1.628	0.504
1128.001	642.068	80.007	19.994	103.218	20.030	1.872	0.514
1130.000	643.066	80.007	19.994	103.218	20.034	1.540	0.493
1132.001	644.047	80.007	19.995	103.214	20.031	1.780	0.474
1134.001	645.065	80.005	19.994	103.221	20.028	1.972	0.532
1136.000	646.033	80.008	19.995	103.220	20.029	1.900	0.491
1138.000	647.002	80.005	19.994	103.227	20.030	1.891	0.497
1140.000	647.974	80.007	19.995	103.217	20.034	1.527	0.503
1142.000	648.950	80.008	19.993	103.216	20.033	1.647	0.484
1144.001	649.887	80.007	19.994	103.224	20.027	2.105	0.446
1146.000	650.907	80.007	19.994	103.237	20.032	1.726	0.494
1148.001	651.831	80.006	19.994	103.244	20.030	1.870	0.452
1150.001	652.821	80.006	19.994	103.226	20.033	1.636	0.464
1152.001	653.823	80.007	19.994	103.231	20.033	1.621	0.505
1154.000	654.782	80.008	19.996	103.229	20.032	1.705	0.521
1156.001	655.744	80.007	19.994	103.224	20.032	1.724	0.480
1158.000	656.698	80.006	19.993	103.240	20.035	1.454	0.472
1160.001	657.642	80.006	19.995	103.226	20.028	1.985	0.484
1162.001	658.603	80.008	19.995	103.217	20.028	2.028	0.471
1164.001	659.536	80.007	19.994	103.221	20.034	1.566	0.480
1166.001	660.476	80.007	19.995	103.217	20.035	1.431	0.468
1168.000	661.415	80.008	19.994	103.218	20.033	1.636	0.459
1170.000	662.303	80.006	19.994	103.217	20.028	2.015	0.477
1172.000	663.224	80.008	19.995	103.219	20.034	1.549	0.447
1174.001	664.158	80.007	19.995	103.215	20.034	1.568	0.439
1176.000	665.086	80.007	19.995	103.215	20.031	1.805	0.462
1178.001	666.037	80.008	19.995	103.217	20.031	1.801	0.463
1180.000	667.034	80.006	19.995	103.230	20.030	1.840	0.471
1182.000	668.001	80.007	19.995	103.244	20.027	2.062	0.498
1184.000	669.009	80.007	19.994	103.238	20.034	1.575	0.472
1186.001	670.033	80.007	19.994	103.237	20.029	1.964	0.490
1188.000	671.052	80.007	19.994	103.222	20.025	2.281	0.545
1190.001	672.043	80.008	19.995	103.233	20.028	2.047	0.513
1192.000	673.063	80.008	19.995	103.234	20.032	1.703	0.531
1194.000	674.089	80.009	19.995	103.242	20.028	2.039	0.539
1196.000	675.177	80.010	19.994	103.235	20.027	2.052	0.536
1198.001	676.215	80.007	19.995	103.238	20.024	2.311	0.502
1200.000	677.244	80.008	19.995	103.239	20.026	2.135	0.482
1202.000	678.339	80.008	19.995	103.232	20.026	2.161	0.529
1204.001	679.359	80.007	19.995	103.238	20.024	2.325	0.537
1206.000	680.386	80.006	19.995	103.234	20.029	1.896	0.508
1208.001	681.502	80.006	19.995	103.246	20.025	2.249	0.524
1210.000	682.478	80.006	19.995	103.244	20.032	1.727	0.506
1212.000	683.587	80.007	19.994	103.245	20.031	1.814	0.505
1214.000	684.631	80.005	19.994	103.236	20.025	2.272	0.510
1216.000	685.714	80.006	19.995	103.244	20.026	2.142	0.547
1218.000	686.782	80.007	19.995	103.251	20.031	1.769	0.536
1220.001	687.869	80.005	19.993	103.248	20.026	2.154	0.544
1222.000	688.870	80.007	19.993	103.245	20.028	1.975	0.493
1224.001	689.947	80.006	19.994	103.252	20.030	1.882	0.532
1226.001	690.996	80.007	19.993	103.249	20.028	1.994	0.508
1228.000	692.022	80.008	19.994	103.234	20.027	2.111	0.496
1230.000	693.054	80.006	19.994	103.226	20.027	2.122	0.539
1232.001	694.060	80.006	19.995	103.239	20.031	1.814	0.476
1234.001	695.138	80.005	19.993	103.236	20.024	2.317	0.498
1236.000	696.203	80.005	19.994	103.224	20.027	2.066	0.507
1238.000	697.257	80.005	19.993	103.224	20.027	2.116	0.516
1240.000	698.275	80.006	19.994	103.232	20.025	2.265	0.501
1242.000	699.324	80.007	19.993	103.242	20.024	2.297	0.511
1244.000	700.389	80.007	19.994	103.228	20.026	2.171	0.520
1246.001	701.376	80.007	19.993	103.224	20.031	1.775	0.513
1248.000	702.387	80.008	19.993	103.225	20.029	1.936	0.518
1250.001	703.425	80.008	19.995	103.227	20.031	1.782	0.503
1252.001	704.439	80.008	19.994	103.226	20.029	1.895	0.486
1254.000	705.453	80.008	19.993	103.218	20.027	2.084	0.479
1256.001	706.485	80.008	19.994	103.226	20.025	2.257	0.535
1258.000	707.553	80.007	19.993	103.219	20.024	2.308	0.546
1260.000	708.578	80.007	19.994	103.225	20.026	2.203	0.506
1262.000	709.603	80.008	19.995	103.233	20.028	2.043	0.516
1264.001	710.607	80.008	19.995	103.236	20.027	2.113	0.498
1266.000	711.614	80.007	19.996	103.236	20.026	2.171	0.515
1268.001	712.623	80.006	19.994	103.241	20.027	2.062	0.482
1270.000	713.625	80.007	19.995	103.234	20.023	2.368	0.490
1272.000	714.614	80.008	19.995	103.219	20.025	2.229	0.507
1274.001	715.684	80.009	19.995	103.212	20.027	2.090	0.522
1276.000	716.684	80.010	19.994	103.211	20.023	2.406	0.522
1278.000	717.709	80.008	19.994	103.216	20.028	2.002	0.477
1280.001	718.700	80.008	19.994	103.221	20.025	2.276	0.476
1282.000	719.719	80.010	19.995	103.213	20.028	1.998	0.512
1284.000	720.681	80.007	19.995	103.213	20.026	2.145	0.478
1286.001	721.727	80.006	19.995	103.218	20.027	2.062	0.514
1288.000	722.711	80.006	19.995	103.215	20.026	2.186	0.488
1290.000	723.753	80.005	19.994	103.218	20.025	2.269	0.476
1292.000	724.744	80.006	19.995	103.226	20.026	2.171	0.511
1294.001	725.722	80.006	19.994	103.222	20.029	1.923	0.496
1296.000	726.790	80.005	19.995	103.220	20.024	2.342	0.531
1298.001	727.758	80.004	19.994	103.221	20.026	2.205	0.483
1300.001	728.798	80.004	19.995	103.217	20.025	2.274	0.501
1302.000	729.803	80.006	19.994	103.220	20.023	2.393	0.486
1304.000	730.818	80.007	19.994	103.218	20.027	2.118	0.533
1306.000	731.783	80.007	19.995	103.218	20.028	2.011	0.492
1308.000	732.807	80.007	19.995	103.220	20.025	2.263	0.512
1310.002	733.827	80.007	19.994	103.213	20.025	2.250	0.516
1312.000	734.836	80.007	19.994	103.216	20.026	2.199	0.516
1314.000	735.811	80.009	19.995	103.213	20.024	2.338	0.479
1316.001	736.849	80.007	19.994	103.230	20.023	2.428	0.502
1318.001	737.881	80.007	19.994	103.217	20.022	2.515	0.513
1320.000	738.893	80.006	19.993	103.219	20.022	2.500	0.490
1322.000	739.898	80.006	19.994	103.212	20.025	2.254	0.521
1324.001	740.944	80.006	19.994	103.213	20.023	2.372	0.532
1326.000	741.936	80.007	19.995	103.215	20.025	2.248	0.511
1328.000	742.927	80.008	19.994	103.213	20.021	2.588	0.521
1329.500	743.667	80.008	19.995	103.211	20.023	2.368	0.500