File: 01_Data/PVC_Pipe/MCC/PVC_Pipe_MCC_30K_min_211118_R2.txt
Sample ID:	C:\MCC\MCC Cal\Test\PVC_Pipe_MCC_30K_min_211118_R2.txt
Sample Weight (mg):	4.51
Heating Rate (C/s):	0.5
Combustor Temp (C):	900
N2 Flow Rate (cc/min):	80
O2 Flow Rate (cc/min):	20
Calibration File:	C:\MCC\MCC Cal\Coeff1 JN10440_30_210304.txt.txt
T Correction Coefficients:	0	1.024463	0
Time Shift (s):	14
*
Time (s)	Temperature (C)	N2 flow rate (cc/min)	O2 flow rate (cc/min)	Flow Rate (cc/min)	Oxygen (%)	HRR (W/g)	Heating rate (C/s)
0.000	110.110	80.006	19.995	103.065	19.964	-0.097	0.007
2.000	110.105	80.006	19.995	103.066	19.965	-0.210	0.014
4.000	110.085	80.005	19.995	103.069	19.963	-0.070	-0.005
6.000	110.094	80.005	19.995	103.079	19.963	-0.035	-0.010
8.000	110.090	80.003	19.996	103.077	19.966	-0.241	-0.023
10.000	110.014	80.003	19.995	103.078	19.964	-0.099	-0.044
12.000	110.032	80.004	19.994	103.078	19.963	-0.053	-0.017
14.001	110.062	80.005	19.994	103.088	19.962	0.018	0.007
16.000	110.062	80.006	19.994	103.102	19.960	0.158	-0.016
18.000	110.049	80.005	19.995	103.103	19.965	-0.165	-0.001
20.000	110.060	80.004	19.994	103.096	19.962	0.014	0.007
22.000	110.091	80.005	19.995	103.095	19.958	0.294	-0.012
24.000	110.081	80.005	19.994	103.106	19.956	0.485	-0.015
26.000	110.154	80.004	19.995	103.134	19.953	0.691	0.019
28.000	110.174	80.005	19.995	103.171	19.950	0.910	0.009
30.000	110.255	80.004	19.995	103.200	19.944	1.340	0.026
32.001	110.366	80.003	19.995	103.222	19.943	1.424	0.059
34.000	110.464	80.005	19.995	103.239	19.940	1.611	0.054
36.000	110.652	80.003	19.995	103.232	19.939	1.697	0.067
38.000	110.837	80.004	19.994	103.240	19.935	1.935	0.089
40.000	111.051	80.003	19.995	103.253	19.931	2.270	0.084
42.000	111.316	80.004	19.994	103.262	19.935	1.990	0.125
44.000	111.569	80.004	19.995	103.285	19.930	2.324	0.135
46.000	111.868	80.005	19.994	103.281	19.928	2.432	0.129
48.000	112.188	80.005	19.994	103.288	19.929	2.411	0.162
50.000	112.541	80.006	19.994	103.298	19.925	2.660	0.176
52.000	112.921	80.005	19.994	103.298	19.927	2.561	0.191
54.000	113.364	80.006	19.994	103.288	19.926	2.625	0.251
56.000	113.764	80.005	19.996	103.287	19.927	2.570	0.229
58.000	114.204	80.004	19.995	103.297	19.926	2.631	0.204
60.001	114.691	80.005	19.994	103.300	19.924	2.748	0.250
62.000	115.153	80.004	19.994	103.301	19.926	2.640	0.226
64.000	115.661	80.005	19.994	103.298	19.925	2.701	0.270
66.000	116.159	80.004	19.995	103.294	19.924	2.752	0.248
68.000	116.697	80.003	19.994	103.294	19.922	2.867	0.243
70.000	117.271	80.005	19.994	103.301	19.924	2.750	0.307
72.001	117.853	80.004	19.994	103.298	19.924	2.781	0.282
74.000	118.435	80.005	19.996	103.307	19.926	2.632	0.292
76.000	119.047	80.005	19.994	103.310	19.924	2.762	0.280
78.000	119.656	80.005	19.995	103.314	19.924	2.758	0.277
80.000	120.265	80.006	19.994	103.328	19.923	2.789	0.338
82.000	120.925	80.006	19.994	103.331	19.920	3.037	0.344
84.001	121.586	80.005	19.994	103.325	19.919	3.078	0.339
86.000	122.309	80.005	19.994	103.333	19.923	2.846	0.374
88.000	123.018	80.005	19.995	103.319	19.922	2.887	0.363
90.001	123.696	80.005	19.995	103.331	19.921	2.945	0.366
92.000	124.419	80.004	19.994	103.330	19.921	2.955	0.394
94.000	125.173	80.004	19.996	103.335	19.922	2.871	0.364
96.000	125.892	80.005	19.995	103.322	19.922	2.923	0.385
98.000	126.688	80.006	19.995	103.339	19.921	2.941	0.403
100.000	127.442	80.007	19.995	103.320	19.921	2.969	0.391
102.000	128.219	80.007	19.995	103.317	19.921	2.965	0.375
104.001	128.990	80.007	19.994	103.314	19.919	3.072	0.410
106.000	129.796	80.007	19.994	103.316	19.920	3.070	0.429
108.000	130.606	80.007	19.994	103.315	19.921	2.980	0.408
110.000	131.400	80.006	19.995	103.331	19.922	2.914	0.377
112.001	132.225	80.007	19.995	103.330	19.920	3.039	0.409
114.000	133.078	80.005	19.995	103.322	19.917	3.253	0.448
116.000	133.904	80.004	19.997	103.330	19.915	3.396	0.405
118.000	134.698	80.004	19.996	103.331	19.919	3.127	0.390
120.001	135.584	80.004	19.995	103.329	19.915	3.361	0.431
122.000	136.434	80.005	19.996	103.334	19.918	3.173	0.428
124.000	137.297	80.003	19.996	103.335	19.917	3.255	0.423
126.000	138.211	80.004	19.995	103.334	19.916	3.314	0.438
128.000	139.080	80.003	19.996	103.333	19.917	3.258	0.466
130.000	139.964	80.004	19.997	103.335	19.919	3.125	0.397
132.000	140.895	80.003	19.997	103.333	19.919	3.131	0.434
134.000	141.805	80.005	19.995	103.333	19.916	3.316	0.429
136.000	142.715	80.003	19.994	103.337	19.921	2.961	0.456
138.000	143.676	80.004	19.995	103.339	19.916	3.341	0.487
140.000	144.556	80.004	19.994	103.340	19.920	3.063	0.451
142.000	145.568	80.003	19.996	103.342	19.920	3.061	0.480
144.000	146.507	80.004	19.995	103.340	19.918	3.183	0.473
146.000	147.450	80.002	19.995	103.340	19.917	3.277	0.459
148.000	148.418	80.003	19.995	103.340	19.916	3.357	0.485
150.000	149.387	80.002	19.994	103.340	19.916	3.306	0.513
152.000	150.378	80.003	19.995	103.340	19.916	3.312	0.490
154.000	151.328	80.003	19.995	103.337	19.916	3.310	0.485
156.000	152.287	80.003	19.994	103.341	19.918	3.212	0.494
158.000	153.312	80.004	19.994	103.340	19.919	3.138	0.539
160.000	154.288	80.006	19.996	103.336	19.920	3.053	0.497
162.000	155.288	80.005	19.995	103.333	19.917	3.274	0.523
164.000	156.255	80.006	19.996	103.328	19.918	3.155	0.490
166.001	157.260	80.006	19.994	103.327	19.916	3.288	0.520
168.000	158.279	80.006	19.994	103.323	19.918	3.173	0.497
170.000	159.326	80.006	19.995	103.325	19.915	3.406	0.544
172.000	160.344	80.005	19.994	103.328	19.919	3.122	0.502
174.000	161.320	80.005	19.995	103.311	19.916	3.295	0.493
176.000	162.315	80.007	19.994	103.309	19.917	3.229	0.524
178.000	163.332	80.006	19.995	103.307	19.916	3.285	0.494
180.000	164.370	80.006	19.995	103.305	19.918	3.163	0.510
182.000	165.417	80.006	19.994	103.305	19.920	3.067	0.529
184.000	166.424	80.006	19.995	103.310	19.919	3.128	0.515
186.000	167.443	80.006	19.995	103.299	19.919	3.079	0.520
188.000	168.416	80.008	19.994	103.297	19.919	3.093	0.495
190.000	169.455	80.009	19.995	103.296	19.921	2.983	0.538
192.000	170.506	80.006	19.996	103.294	19.918	3.153	0.497
194.000	171.480	80.006	19.994	103.298	19.918	3.174	0.513
196.000	172.512	80.005	19.994	103.296	19.920	3.018	0.528
198.000	173.517	80.005	19.994	103.298	19.922	2.876	0.511
200.001	174.531	80.003	19.995	103.299	19.923	2.845	0.508
202.000	175.551	80.005	19.995	103.298	19.921	2.995	0.488
204.000	176.536	80.004	19.994	103.301	19.920	3.030	0.515
206.000	177.533	80.004	19.995	103.298	19.920	3.051	0.503
208.000	178.570	80.004	19.995	103.294	19.921	2.960	0.491
210.000	179.575	80.005	19.995	103.291	19.919	3.092	0.497
212.000	180.618	80.004	19.995	103.292	19.923	2.809	0.489
214.000	181.610	80.004	19.995	103.286	19.924	2.769	0.529
216.000	182.627	80.003	19.995	103.290	19.921	2.949	0.492
218.000	183.622	80.003	19.995	103.281	19.920	3.012	0.529
220.000	184.594	80.004	19.996	103.286	19.921	2.963	0.499
222.000	185.581	80.003	19.996	103.275	19.922	2.866	0.520
224.000	186.584	80.002	19.996	103.268	19.925	2.654	0.469
226.000	187.656	80.002	19.995	103.293	19.921	2.987	0.525
228.000	188.608	80.004	19.995	103.219	19.922	2.860	0.498
230.000	189.565	80.003	19.995	103.313	19.923	2.798	0.490
232.000	190.619	80.004	19.995	103.308	19.922	2.905	0.503
234.000	191.573	80.004	19.995	103.271	19.923	2.804	0.494
236.000	192.561	80.004	19.993	103.274	19.924	2.780	0.509
238.000	193.571	80.004	19.994	103.268	19.918	3.161	0.503
240.000	194.560	80.004	19.995	103.273	19.922	2.889	0.498
242.000	195.509	80.005	19.995	103.261	19.920	3.043	0.496
244.000	196.487	80.006	19.993	103.268	19.923	2.838	0.474
246.000	197.500	80.007	19.996	103.270	19.917	3.214	0.501
248.000	198.492	80.005	19.995	103.259	19.919	3.134	0.517
250.000	199.450	80.007	19.995	103.260	19.918	3.177	0.483
252.000	200.410	80.004	19.994	103.260	19.917	3.227	0.485
254.000	201.415	80.005	19.995	103.261	19.920	3.052	0.495
256.000	202.393	80.005	19.995	103.260	19.919	3.132	0.479
258.000	203.373	80.005	19.994	103.260	19.920	3.048	0.484
260.000	204.373	80.005	19.994	103.261	19.916	3.288	0.497
262.000	205.291	80.005	19.995	103.207	19.917	3.224	0.472
264.000	206.312	80.005	19.994	103.278	19.918	3.171	0.480
266.000	207.333	80.006	19.994	103.306	19.915	3.417	0.526
268.000	208.321	80.007	19.994	103.259	19.915	3.389	0.514
270.000	209.319	80.007	19.994	103.258	19.911	3.672	0.497
272.000	210.297	80.007	19.995	103.260	19.914	3.463	0.506
274.000	211.266	80.006	19.994	103.258	19.910	3.720	0.518
276.000	212.283	80.005	19.994	103.260	19.912	3.582	0.519
278.000	213.276	80.004	19.995	103.256	19.913	3.520	0.494
280.000	214.268	80.004	19.995	103.259	19.908	3.907	0.498
282.000	215.218	80.003	19.996	103.262	19.909	3.813	0.481
284.000	216.204	80.003	19.995	103.258	19.904	4.173	0.480
286.000	217.161	80.003	19.996	103.259	19.900	4.453	0.462
288.000	218.174	80.004	19.995	103.261	19.902	4.320	0.491
290.000	219.114	80.003	19.995	103.222	19.901	4.377	0.453
292.000	220.098	80.004	19.994	103.206	19.900	4.489	0.492
294.000	221.106	80.003	19.995	103.309	19.895	4.799	0.488
296.000	222.086	80.004	19.994	103.254	19.896	4.739	0.484
298.000	223.063	80.004	19.994	103.252	19.893	4.934	0.493
300.000	224.045	80.003	19.996	103.253	19.892	5.066	0.516
302.000	225.056	80.004	19.995	103.253	19.890	5.198	0.519
304.000	225.994	80.003	19.995	103.245	19.891	5.095	0.471
306.000	226.962	80.003	19.995	103.255	19.888	5.303	0.472
308.000	227.928	80.004	19.996	103.253	19.887	5.356	0.500
310.000	228.880	80.002	19.996	103.245	19.885	5.514	0.446
312.000	229.899	80.002	19.997	103.247	19.885	5.548	0.475
314.000	230.858	80.004	19.996	103.248	19.884	5.570	0.484
316.000	231.831	80.003	19.995	103.242	19.884	5.582	0.482
318.000	232.803	80.002	19.997	103.233	19.886	5.436	0.479
320.000	233.783	80.005	19.996	103.245	19.886	5.430	0.502
322.000	234.758	80.004	19.996	103.237	19.885	5.529	0.491
324.000	235.715	80.005	19.995	103.236	19.885	5.522	0.484
326.000	236.698	80.006	19.995	103.246	19.891	5.134	0.483
328.000	237.640	80.006	19.995	103.243	19.892	5.041	0.463
330.000	238.625	80.004	19.994	103.240	19.890	5.145	0.483
332.000	239.604	80.005	19.993	103.243	19.892	5.067	0.501
334.000	240.557	80.005	19.995	103.245	19.893	4.947	0.442
336.000	241.548	80.004	19.994	103.244	19.893	4.945	0.493
338.000	242.528	80.004	19.994	103.258	19.893	4.928	0.444
340.000	243.509	80.004	19.995	103.253	19.889	5.282	0.535
342.001	244.471	80.004	19.994	103.232	19.889	5.238	0.483
344.000	245.455	80.005	19.995	103.232	19.888	5.312	0.498
346.000	246.445	80.004	19.994	103.246	19.890	5.194	0.515
348.000	247.429	80.006	19.994	103.244	19.886	5.491	0.469
350.000	248.411	80.007	19.994	103.248	19.887	5.370	0.481
352.001	249.408	80.007	19.995	103.248	19.888	5.350	0.513
354.000	250.432	80.007	19.994	103.259	19.884	5.602	0.509
356.001	251.396	80.006	19.995	103.248	19.883	5.685	0.502
358.000	252.385	80.006	19.994	103.245	19.882	5.719	0.484
360.001	253.389	80.004	19.994	103.251	19.882	5.759	0.508
362.000	254.411	80.003	19.997	103.248	19.882	5.774	0.516
364.000	255.408	80.004	19.994	103.245	19.878	6.041	0.489
366.001	256.385	80.004	19.994	103.249	19.882	5.773	0.475
368.000	257.379	80.005	19.994	103.235	19.873	6.383	0.479
370.000	258.412	80.004	19.995	103.233	19.873	6.379	0.474
372.000	259.422	80.003	19.995	103.233	19.875	6.233	0.481
374.000	260.436	80.003	19.995	103.236	19.869	6.664	0.487
376.000	261.420	80.005	19.994	103.241	19.869	6.706	0.490
378.000	262.447	80.001	19.996	103.243	19.866	6.924	0.502
380.000	263.487	80.005	19.996	103.248	19.863	7.079	0.535
382.000	264.432	80.003	19.997	103.249	19.861	7.269	0.480
384.000	265.445	80.004	19.996	103.246	19.861	7.242	0.505
386.001	266.468	80.005	19.994	103.238	19.858	7.428	0.531
388.000	267.497	80.003	19.995	103.238	19.859	7.398	0.520
390.000	268.478	80.004	19.995	103.235	19.857	7.509	0.517
392.000	269.513	80.002	19.995	103.244	19.861	7.272	0.536
394.000	270.543	80.002	19.996	103.255	19.860	7.346	0.525
396.000	271.519	80.003	19.996	103.260	19.861	7.220	0.503
398.000	272.557	80.003	19.994	103.262	19.860	7.333	0.491
400.000	273.554	80.004	19.994	103.260	19.858	7.437	0.503
402.000	274.555	80.003	19.995	103.260	19.857	7.533	0.501
404.000	275.586	80.003	19.995	103.263	19.859	7.409	0.505
406.000	276.597	80.004	19.995	103.268	19.860	7.321	0.509
408.000	277.563	80.005	19.998	103.269	19.857	7.509	0.480
410.000	278.645	80.006	19.996	103.277	19.859	7.418	0.540
412.000	279.666	80.004	19.994	103.296	19.857	7.513	0.501
414.000	280.623	80.005	19.996	103.298	19.853	7.823	0.457
416.000	281.626	80.004	19.995	103.316	19.852	7.916	0.479
418.000	282.666	80.004	19.996	103.333	19.850	8.075	0.470
420.000	283.705	80.003	19.995	103.339	19.848	8.204	0.515
422.000	284.705	80.005	19.993	103.340	19.841	8.692	0.508
424.000	285.724	80.004	19.994	103.351	19.832	9.333	0.493
426.000	286.700	80.004	19.995	103.375	19.828	9.636	0.486
428.000	287.737	80.004	19.995	103.399	19.822	10.075	0.503
430.000	288.744	80.005	19.994	103.444	19.812	10.764	0.496
432.000	289.750	80.007	19.995	103.493	19.802	11.518	0.532
434.000	290.742	80.005	19.994	103.530	19.794	12.094	0.493
436.000	291.755	80.006	19.994	103.570	19.783	12.820	0.495
438.000	292.732	80.007	19.994	103.606	19.772	13.628	0.513
440.000	293.733	80.006	19.995	103.590	19.761	14.434	0.523
442.001	294.740	80.004	19.994	103.571	19.748	15.330	0.501
444.000	295.722	80.005	19.994	103.540	19.742	15.748	0.484
446.000	296.721	80.005	19.995	103.499	19.737	16.056	0.505
448.000	297.715	80.004	19.994	103.446	19.731	16.490	0.514
450.000	298.741	80.004	19.994	103.370	19.728	16.701	0.529
452.000	299.713	80.004	19.995	103.284	19.725	16.952	0.502
454.000	300.703	80.005	19.995	103.207	19.727	16.774	0.499
456.000	301.685	80.004	19.994	103.137	19.732	16.466	0.513
458.000	302.708	80.004	19.995	103.097	19.733	16.409	0.501
460.000	303.729	80.004	19.994	103.067	19.739	15.935	0.508
462.000	304.700	80.004	19.994	103.060	19.746	15.476	0.518
464.000	305.711	80.004	19.994	103.065	19.750	15.158	0.528
466.000	306.730	80.005	19.995	103.089	19.756	14.781	0.534
468.000	307.741	80.003	19.995	103.133	19.764	14.204	0.492
470.000	308.727	80.004	19.994	103.152	19.767	13.945	0.491
472.000	309.751	80.004	19.995	103.185	19.773	13.508	0.481
474.000	310.765	80.002	19.996	103.225	19.775	13.389	0.510
476.000	311.843	80.003	19.994	103.238	19.777	13.226	0.543
478.000	312.862	80.003	19.996	103.256	19.782	12.875	0.519
480.000	313.864	80.002	19.995	103.260	19.784	12.752	0.525
482.000	314.911	80.004	19.994	103.256	19.789	12.397	0.528
484.000	315.942	80.004	19.995	103.258	19.791	12.216	0.510
486.000	316.943	80.006	19.996	103.258	19.794	12.017	0.512
488.000	317.986	80.006	19.994	103.258	19.796	11.897	0.519
490.000	319.026	80.005	19.996	103.256	19.800	11.602	0.528
492.000	320.026	80.005	19.996	103.245	19.802	11.465	0.498
494.000	321.092	80.005	19.995	103.250	19.804	11.317	0.557
496.000	322.078	80.003	19.996	103.237	19.808	11.027	0.514
498.000	323.084	80.004	19.996	103.219	19.811	10.852	0.507
500.000	324.158	80.004	19.996	103.226	19.818	10.337	0.528
502.000	325.140	80.005	19.996	103.234	19.816	10.423	0.521
504.000	326.170	80.004	19.995	103.242	19.818	10.308	0.506
506.000	327.158	80.005	19.995	103.229	19.821	10.115	0.498
508.000	328.193	80.006	19.995	103.221	19.825	9.842	0.497
510.000	329.252	80.005	19.995	103.219	19.831	9.410	0.525
512.000	330.269	80.007	19.995	103.211	19.835	9.122	0.525
514.000	331.246	80.005	19.994	103.201	19.833	9.234	0.473
516.000	332.271	80.006	19.994	103.212	19.836	9.025	0.475
518.001	333.282	80.007	19.993	103.208	19.841	8.661	0.487
520.000	334.307	80.005	19.993	103.200	19.842	8.579	0.478
522.000	335.322	80.005	19.993	103.219	19.844	8.428	0.512
524.000	336.309	80.006	19.994	103.219	19.848	8.210	0.501
526.000	337.335	80.004	19.995	103.221	19.849	8.098	0.506
528.000	338.337	80.005	19.995	103.223	19.848	8.192	0.504
530.000	339.323	80.004	19.995	103.231	19.853	7.787	0.509
532.000	340.345	80.004	19.995	103.253	19.857	7.517	0.484
534.000	341.362	80.003	19.995	103.251	19.859	7.410	0.493
536.000	342.336	80.004	19.995	103.255	19.860	7.339	0.492
538.000	343.311	80.003	19.995	103.264	19.860	7.314	0.494
540.000	344.298	80.004	19.995	103.282	19.861	7.238	0.505
542.000	345.286	80.003	19.994	103.276	19.862	7.187	0.516
544.000	346.317	80.003	19.994	103.280	19.864	7.051	0.506
546.000	347.339	80.004	19.995	103.293	19.866	6.873	0.498
548.000	348.306	80.005	19.994	103.301	19.865	6.961	0.460
550.000	349.335	80.004	19.995	103.302	19.869	6.673	0.518
552.001	350.357	80.005	19.994	103.302	19.869	6.652	0.509
554.000	351.351	80.005	19.995	103.306	19.871	6.550	0.509
556.000	352.342	80.004	19.995	103.303	19.870	6.619	0.503
558.000	353.345	80.005	19.995	103.301	19.870	6.636	0.538
560.000	354.362	80.004	19.995	103.302	19.871	6.526	0.525
562.000	355.388	80.003	19.995	103.310	19.873	6.425	0.482
564.000	356.353	80.004	19.995	103.303	19.874	6.344	0.457
566.000	357.350	80.006	19.996	103.311	19.872	6.499	0.465
568.000	358.381	80.006	19.994	103.317	19.873	6.382	0.526
570.000	359.353	80.006	19.995	103.309	19.872	6.467	0.488
572.000	360.325	80.007	19.995	103.332	19.876	6.205	0.465
574.000	361.377	80.006	19.993	103.323	19.873	6.406	0.495
576.000	362.385	80.006	19.993	103.319	19.876	6.150	0.518
578.000	363.358	80.005	19.994	103.334	19.874	6.293	0.495
580.000	364.328	80.006	19.995	103.326	19.873	6.410	0.506
582.000	365.361	80.005	19.995	103.331	19.877	6.106	0.516
584.001	366.340	80.005	19.995	103.336	19.877	6.123	0.488
586.000	367.331	80.004	19.996	103.335	19.876	6.160	0.511
588.000	368.380	80.005	19.995	103.336	19.876	6.213	0.517
590.000	369.358	80.004	19.996	103.338	19.875	6.265	0.518
592.000	370.305	80.005	19.997	103.338	19.875	6.240	0.482
594.000	371.312	80.006	19.995	103.343	19.874	6.334	0.476
596.000	372.341	80.006	19.995	103.341	19.873	6.363	0.515
598.000	373.370	80.007	19.996	103.338	19.872	6.484	0.521
600.000	374.399	80.005	19.996	103.337	19.871	6.554	0.553
602.000	375.388	80.006	19.995	103.337	19.874	6.357	0.500
604.000	376.364	80.006	19.995	103.338	19.878	6.057	0.485
606.000	377.385	80.004	19.995	103.340	19.873	6.386	0.506
608.000	378.370	80.005	19.995	103.341	19.870	6.606	0.449
610.000	379.380	80.004	19.993	103.341	19.866	6.924	0.436
612.000	380.306	80.004	19.995	103.341	19.863	7.104	0.510
614.000	381.416	80.003	19.994	103.341	19.862	7.187	0.520
616.000	382.623	80.005	19.996	103.338	19.858	7.483	0.691
618.000	383.554	80.004	19.996	103.334	19.858	7.493	0.772
620.000	384.810	80.005	19.994	103.322	19.854	7.731	1.046
622.000	385.430	80.004	19.994	103.309	19.855	7.714	0.543
624.000	386.267	80.005	19.994	103.325	19.851	7.942	0.439
626.000	387.374	80.005	19.995	103.325	19.845	8.372	0.487
628.000	388.384	80.005	19.995	103.328	19.845	8.399	0.497
630.000	389.327	80.005	19.994	103.330	19.843	8.550	0.461
632.000	390.344	80.005	19.995	103.338	19.838	8.868	0.477
634.000	391.292	80.006	19.995	103.339	19.831	9.391	0.453
636.000	392.345	80.006	19.995	103.334	19.828	9.635	0.469
638.000	393.339	80.005	19.995	103.331	19.823	9.946	0.522
640.000	394.377	80.006	19.995	103.307	19.820	10.168	0.494
642.000	395.402	80.004	19.995	103.311	19.814	10.580	0.526
644.000	396.449	80.005	19.994	103.318	19.810	10.879	0.511
646.000	397.405	80.005	19.995	103.313	19.804	11.337	0.485
648.000	398.375	80.005	19.996	103.302	19.796	11.898	0.487
650.000	399.425	80.005	19.995	103.301	19.788	12.480	0.510
652.000	400.413	80.008	19.995	103.307	19.780	13.046	0.514
654.000	401.401	80.006	19.995	103.302	19.774	13.475	0.491
656.000	402.456	80.007	19.994	103.297	19.767	13.978	0.521
658.000	403.439	80.006	19.996	103.299	19.756	14.750	0.502
660.000	404.452	80.005	19.995	103.290	19.745	15.523	0.509
662.000	405.462	80.005	19.995	103.295	19.734	16.304	0.507
664.000	406.419	80.006	19.995	103.298	19.726	16.911	0.523
666.000	407.429	80.004	19.996	103.300	19.716	17.581	0.506
668.000	408.446	80.005	19.995	103.304	19.704	18.489	0.520
670.000	409.428	80.004	19.995	103.301	19.687	19.654	0.491
672.000	410.434	80.007	19.994	103.293	19.678	20.306	0.526
674.000	411.465	80.006	19.995	103.305	19.663	21.410	0.509
676.000	412.492	80.005	19.994	103.297	19.650	22.352	0.505
678.000	413.479	80.007	19.994	103.299	19.634	23.452	0.485
680.000	414.501	80.007	19.995	103.289	19.620	24.452	0.508
682.000	415.460	80.006	19.995	103.282	19.604	25.590	0.483
684.000	416.454	80.006	19.996	103.280	19.591	26.530	0.481
686.000	417.482	80.004	19.997	103.293	19.571	27.937	0.515
688.000	418.460	80.004	19.996	103.284	19.552	29.348	0.481
690.000	419.510	80.006	19.996	103.269	19.535	30.529	0.504
692.000	420.504	80.003	19.996	103.273	19.515	31.933	0.472
694.000	421.525	80.004	19.996	103.289	19.499	33.079	0.492
696.000	422.527	80.004	19.996	103.283	19.482	34.298	0.513
698.000	423.547	80.005	19.996	103.268	19.458	36.026	0.511
700.000	424.552	80.006	19.995	103.293	19.443	37.143	0.497
702.000	425.566	80.006	19.995	103.272	19.422	38.578	0.490
704.000	426.598	80.005	19.995	103.269	19.404	39.885	0.525
706.000	427.609	80.005	19.995	103.271	19.384	41.318	0.520
708.000	428.605	80.004	19.995	103.284	19.363	42.858	0.512
710.000	429.652	80.005	19.996	103.262	19.342	44.307	0.524
712.000	430.653	80.005	19.995	103.262	19.321	45.827	0.504
714.000	431.703	80.005	19.995	103.264	19.306	46.898	0.502
716.000	432.701	80.004	19.997	103.263	19.286	48.357	0.502
718.000	433.782	80.004	19.995	103.260	19.270	49.499	0.552
720.000	434.791	80.004	19.995	103.263	19.254	50.606	0.539
722.000	435.841	80.004	19.995	103.263	19.239	51.713	0.524
724.000	436.797	80.005	19.996	103.265	19.225	52.706	0.490
726.000	437.850	80.002	19.996	103.274	19.215	53.377	0.498
728.000	438.901	80.006	19.995	103.278	19.204	54.183	0.540
730.000	439.898	80.005	19.994	103.256	19.194	54.909	0.536
732.000	440.917	80.005	19.994	103.261	19.181	55.862	0.518
734.000	441.908	80.007	19.994	103.271	19.178	56.091	0.491
736.001	442.922	80.007	19.995	103.255	19.173	56.381	0.517
738.000	443.924	80.006	19.994	103.263	19.172	56.504	0.481
740.000	444.940	80.006	19.995	103.267	19.160	57.315	0.500
742.000	445.934	80.005	19.994	103.292	19.148	58.151	0.490
744.000	446.881	80.005	19.995	103.300	19.133	59.251	0.460
746.000	447.850	80.005	19.995	103.286	19.109	60.973	0.495
748.000	448.852	80.005	19.995	103.278	19.096	61.869	0.495
750.000	449.867	80.005	19.995	103.271	19.077	63.261	0.512
752.000	450.912	80.004	19.996	103.260	19.059	64.502	0.540
754.000	451.899	80.007	19.996	103.258	19.036	66.139	0.490
756.001	453.000	80.006	19.995	103.253	19.023	67.078	0.530
758.000	454.056	80.007	19.994	103.253	19.014	67.752	0.522
760.000	455.080	80.007	19.994	103.249	19.005	68.367	0.523
762.001	456.155	80.007	19.995	103.232	19.004	68.472	0.534
764.000	457.224	80.007	19.994	103.244	19.009	68.087	0.528
766.000	458.337	80.006	19.996	103.244	19.019	67.408	0.574
768.000	459.384	80.005	19.994	103.272	19.033	66.366	0.543
770.000	460.493	80.005	19.995	103.266	19.051	65.081	0.543
772.000	461.607	80.005	19.996	103.261	19.068	63.905	0.552
774.000	462.688	80.004	19.997	103.274	19.076	63.287	0.556
776.000	463.803	80.003	19.996	103.270	19.087	62.559	0.550
778.000	464.898	80.004	19.997	103.279	19.100	61.628	0.590
780.000	466.009	80.004	19.996	103.259	19.117	60.429	0.540
782.000	467.108	80.003	19.996	103.258	19.143	58.539	0.560
784.000	468.241	80.004	19.997	103.232	19.168	56.725	0.574
786.000	469.307	80.004	19.995	103.237	19.184	55.574	0.531
788.000	470.430	80.006	19.995	103.258	19.190	55.161	0.537
790.000	471.545	80.005	19.995	103.280	19.200	54.439	0.570
792.000	472.574	80.005	19.994	103.271	19.206	54.012	0.515
794.000	473.702	80.004	19.995	103.252	19.216	53.301	0.554
796.000	474.829	80.005	19.994	103.232	19.232	52.154	0.559
798.000	475.930	80.005	19.995	103.223	19.247	51.090	0.551
800.000	477.001	80.004	19.994	103.224	19.260	50.191	0.534
802.000	478.073	80.005	19.993	103.237	19.268	49.585	0.530
804.000	479.123	80.004	19.994	103.256	19.276	49.038	0.541
806.000	480.199	80.005	19.995	103.251	19.289	48.073	0.526
808.000	481.248	80.005	19.996	103.233	19.301	47.264	0.530
810.000	482.346	80.005	19.995	103.221	19.314	46.341	0.540
812.000	483.411	80.006	19.995	103.221	19.324	45.606	0.525
814.000	484.428	80.006	19.996	103.229	19.330	45.140	0.505
816.000	485.493	80.007	19.994	103.236	19.340	44.472	0.493
818.000	486.550	80.007	19.995	103.223	19.350	43.738	0.495
820.000	487.637	80.006	19.995	103.220	19.361	42.951	0.532
822.000	488.706	80.006	19.995	103.228	19.373	42.124	0.518
824.000	489.745	80.005	19.995	103.228	19.386	41.167	0.537
826.000	490.806	80.006	19.995	103.224	19.404	39.898	0.508
828.000	491.831	80.007	19.996	103.234	19.413	39.214	0.520
830.000	492.871	80.006	19.996	103.227	19.425	38.370	0.518
832.000	493.918	80.008	19.994	103.230	19.440	37.321	0.509
834.000	494.966	80.006	19.995	103.217	19.456	36.153	0.507
836.000	495.979	80.007	19.995	103.215	19.467	35.402	0.520
838.000	497.009	80.008	19.994	103.212	19.480	34.430	0.528
840.000	498.037	80.009	19.996	103.214	19.498	33.180	0.535
842.000	499.027	80.007	19.995	103.217	19.517	31.823	0.514
844.000	500.005	80.007	19.995	103.222	19.532	30.734	0.468
846.000	501.016	80.006	19.996	103.237	19.547	29.685	0.501
848.000	502.025	80.008	19.996	103.219	19.560	28.785	0.503
850.000	502.974	80.006	19.996	103.206	19.575	27.685	0.480
852.000	503.977	80.004	19.994	103.222	19.591	26.494	0.477
854.000	504.985	80.004	19.996	103.199	19.605	25.534	0.508
856.000	505.964	80.006	19.995	103.213	19.618	24.593	0.498
858.000	506.976	80.005	19.996	103.269	19.635	23.406	0.497
860.000	507.973	80.004	19.996	103.244	19.650	22.329	0.496
862.000	508.944	80.005	19.995	103.184	19.661	21.493	0.490
864.000	509.947	80.005	19.995	103.208	19.676	20.432	0.514
866.000	510.957	80.004	19.995	103.205	19.691	19.405	0.492
868.000	511.949	80.004	19.995	103.213	19.701	18.643	0.497
870.000	512.940	80.004	19.995	103.200	19.713	17.844	0.507
872.000	513.923	80.005	19.995	103.200	19.723	17.068	0.490
874.000	514.960	80.004	19.996	103.218	19.737	16.077	0.523
876.000	515.995	80.004	19.995	103.212	19.746	15.445	0.490
878.000	517.054	80.005	19.995	103.182	19.754	14.869	0.539
880.000	518.036	80.005	19.995	103.186	19.764	14.154	0.521
882.000	519.067	80.005	19.995	103.206	19.772	13.599	0.527
884.000	520.103	80.005	19.995	103.219	19.783	12.839	0.503
886.000	521.139	80.004	19.995	103.210	19.791	12.249	0.522
888.000	522.147	80.005	19.995	103.209	19.802	11.444	0.528
890.000	523.210	80.004	19.995	103.203	19.807	11.105	0.530
892.000	524.218	80.005	19.994	103.189	19.812	10.741	0.500
894.000	525.248	80.005	19.995	103.188	19.821	10.083	0.525
896.000	526.299	80.006	19.995	103.200	19.824	9.865	0.510
898.000	527.350	80.007	19.995	103.206	19.829	9.527	0.541
900.000	528.359	80.007	19.994	103.185	19.835	9.076	0.525
902.000	529.423	80.008	19.995	103.186	19.840	8.722	0.529
904.000	530.430	80.006	19.995	103.193	19.844	8.466	0.503
906.001	531.504	80.007	19.995	103.194	19.851	7.965	0.540
908.000	532.562	80.005	19.995	103.206	19.855	7.693	0.509
910.000	533.653	80.006	19.994	103.187	19.860	7.321	0.539
912.000	534.694	80.007	19.994	103.206	19.865	6.977	0.530
914.000	535.743	80.005	19.995	103.195	19.867	6.806	0.508
916.000	536.776	80.007	19.994	103.189	19.872	6.486	0.541
918.000	537.850	80.008	19.995	103.185	19.873	6.361	0.542
920.000	538.928	80.007	19.994	103.188	19.879	5.990	0.531
922.000	539.954	80.007	19.994	103.195	19.882	5.754	0.528
924.000	541.011	80.007	19.994	103.198	19.883	5.698	0.520
926.000	542.057	80.007	19.994	103.189	19.885	5.538	0.486
928.000	543.110	80.008	19.994	103.189	19.888	5.319	0.506
930.000	544.144	80.007	19.994	103.190	19.891	5.083	0.521
932.000	545.196	80.003	19.995	103.198	19.896	4.781	0.516
934.000	546.234	80.004	19.994	103.192	19.898	4.637	0.530
936.000	547.238	80.004	19.995	103.188	19.898	4.574	0.540
938.000	548.306	80.005	19.995	103.191	19.902	4.341	0.487
940.000	549.306	80.004	19.996	103.195	19.901	4.395	0.508
942.000	550.391	80.004	19.995	103.183	19.903	4.259	0.530
944.000	551.411	80.006	19.996	103.188	19.907	3.949	0.515
946.000	552.467	80.005	19.995	103.181	19.908	3.908	0.495
948.000	553.508	80.005	19.995	103.183	19.906	4.000	0.528
950.000	554.597	80.006	19.995	103.181	19.910	3.770	0.545
952.000	555.628	80.006	19.996	103.181	19.909	3.790	0.514
954.000	556.668	80.006	19.995	103.181	19.913	3.560	0.526
956.001	557.702	80.005	19.995	103.181	19.912	3.607	0.506
958.000	558.732	80.005	19.995	103.180	19.914	3.439	0.505
960.000	559.746	80.004	19.996	103.177	19.915	3.371	0.513
962.000	560.776	80.004	19.996	103.179	19.915	3.414	0.516
964.000	561.829	80.004	19.995	103.179	19.918	3.208	0.542
966.000	562.861	80.004	19.996	103.190	19.920	3.013	0.530
968.000	563.858	80.005	19.996	103.183	19.920	3.037	0.501
970.000	564.878	80.003	19.996	103.182	19.920	3.060	0.497
972.001	565.908	80.004	19.996	103.183	19.919	3.120	0.535
974.000	566.986	80.005	19.996	103.182	19.920	3.004	0.508
976.000	567.970	80.007	19.995	103.183	19.921	2.963	0.518
978.000	568.988	80.007	19.995	103.185	19.921	2.932	0.477
980.000	570.036	80.007	19.995	103.182	19.923	2.817	0.506
982.001	571.056	80.007	19.995	103.188	19.925	2.661	0.534
984.000	572.052	80.006	19.994	103.194	19.928	2.455	0.495
986.000	573.115	80.005	19.995	103.188	19.925	2.706	0.514
988.000	574.184	80.006	19.995	103.187	19.929	2.421	0.533
990.000	575.211	80.006	19.995	103.187	19.927	2.525	0.521
992.000	576.221	80.006	19.995	103.185	19.926	2.624	0.502
994.000	577.236	80.005	19.994	103.183	19.927	2.523	0.494
996.000	578.271	80.005	19.994	103.183	19.926	2.590	0.508
998.000	579.312	80.006	19.995	103.181	19.929	2.361	0.536
1000.000	580.323	80.006	19.994	103.183	19.926	2.626	0.510
1002.000	581.348	80.006	19.995	103.184	19.930	2.345	0.510
1004.000	582.362	80.009	19.994	103.183	19.931	2.238	0.508
1006.000	583.342	80.009	19.996	103.175	19.929	2.396	0.464
1008.000	584.331	80.007	19.994	103.176	19.933	2.092	0.514
1010.000	585.370	80.008	19.994	103.180	19.930	2.332	0.517
1012.000	586.405	80.008	19.996	103.180	19.931	2.240	0.501
1014.000	587.401	80.006	19.994	103.181	19.932	2.155	0.479
1016.000	588.418	80.006	19.995	103.182	19.932	2.161	0.500
1018.000	589.504	80.007	19.995	103.177	19.932	2.188	0.520
1020.000	590.472	80.006	19.996	103.167	19.931	2.277	0.519
1022.000	591.494	80.005	19.995	103.177	19.933	2.118	0.529
1024.000	592.500	80.006	19.995	103.174	19.935	1.995	0.517
1026.000	593.507	80.006	19.995	103.185	19.932	2.172	0.516
1028.000	594.564	80.006	19.995	103.182	19.932	2.153	0.547
1030.000	595.559	80.006	19.995	103.178	19.932	2.185	0.498
1032.001	596.569	80.006	19.996	103.178	19.934	2.061	0.503
1034.000	597.550	80.006	19.995	103.179	19.934	2.001	0.471
1036.000	598.580	80.006	19.996	103.180	19.932	2.143	0.489
1038.000	599.601	80.006	19.996	103.177	19.933	2.096	0.468
1040.000	600.658	80.005	19.995	103.167	19.934	2.065	0.524
1042.000	601.646	80.005	19.995	103.167	19.930	2.297	0.494
1044.000	602.673	80.004	19.995	103.183	19.932	2.172	0.533
1046.000	603.678	80.005	19.996	103.185	19.934	2.065	0.512
1048.001	604.706	80.005	19.995	103.185	19.935	1.929	0.517
1050.000	605.670	80.004	19.995	103.186	19.931	2.250	0.504
1052.000	606.694	80.004	19.996	103.183	19.935	1.991	0.515
1054.000	607.708	80.005	19.996	103.179	19.934	2.053	0.494
1056.000	608.702	80.005	19.996	103.170	19.938	1.728	0.493
1058.000	609.693	80.006	19.996	103.179	19.935	1.946	0.468
1060.000	610.720	80.006	19.996	103.167	19.934	2.022	0.492
1062.000	611.729	80.006	19.996	103.156	19.935	1.944	0.513
1064.000	612.746	80.006	19.995	103.170	19.936	1.917	0.516
1066.000	613.779	80.006	19.996	103.169	19.937	1.816	0.505
1068.000	614.789	80.006	19.996	103.165	19.936	1.878	0.516
1070.001	615.831	80.006	19.995	103.175	19.938	1.767	0.527
1072.001	616.843	80.006	19.996	103.171	19.935	1.952	0.502
1074.001	617.863	80.005	19.995	103.168	19.939	1.683	0.513
1076.000	618.866	80.007	19.995	103.206	19.939	1.652	0.500
1078.000	619.881	80.006	19.996	103.187	19.938	1.713	0.493
1080.001	620.857	80.007	19.995	103.151	19.940	1.573	0.479
1082.000	621.906	80.007	19.996	103.143	19.943	1.424	0.517
1084.000	622.868	80.007	19.996	103.150	19.940	1.570	0.474
1086.001	623.889	80.009	19.995	103.177	19.942	1.438	0.479
1088.001	624.905	80.008	19.995	103.171	19.941	1.528	0.476
1090.000	625.927	80.007	19.995	103.174	19.938	1.728	0.516
1092.000	626.914	80.007	19.994	103.160	19.937	1.804	0.500
1094.001	627.946	80.006	19.995	103.152	19.940	1.604	0.499
1096.000	628.988	80.005	19.996	103.148	19.940	1.574	0.517
1098.000	630.001	80.005	19.995	103.148	19.939	1.666	0.543
1100.000	631.000	80.005	19.995	103.170	19.940	1.623	0.523
1102.000	632.027	80.006	19.996	103.180	19.938	1.756	0.497
1104.000	633.044	80.006	19.994	103.185	19.940	1.610	0.489
1106.000	634.061	80.004	19.994	103.173	19.943	1.419	0.525
1108.000	635.080	80.005	19.994	103.169	19.942	1.467	0.504
1110.000	636.129	80.006	19.995	103.179	19.941	1.501	0.515
1112.000	637.134	80.006	19.994	103.166	19.941	1.538	0.522
1114.000	638.129	80.007	19.995	103.170	19.943	1.409	0.503
1116.000	639.127	80.005	19.995	103.170	19.938	1.716	0.486
1118.000	640.171	80.006	19.995	103.171	19.941	1.510	0.501
1120.000	641.154	80.006	19.995	103.172	19.941	1.530	0.507
1122.001	642.157	80.004	19.996	103.181	19.941	1.522	0.510
1124.000	643.173	80.004	19.995	103.184	19.937	1.814	0.503
1126.000	644.143	80.004	19.996	103.161	19.938	1.748	0.482
1128.000	645.140	80.003	19.995	103.152	19.938	1.726	0.473
1130.000	646.139	80.004	19.996	103.174	19.941	1.500	0.507
1132.000	647.162	80.004	19.996	103.179	19.941	1.543	0.490
1134.000	648.146	80.005	19.995	103.178	19.942	1.457	0.489
1136.001	649.134	80.006	19.996	103.181	19.940	1.590	0.498
1138.000	650.146	80.004	19.996	103.164	19.940	1.578	0.524
1140.001	651.138	80.005	19.994	103.155	19.939	1.656	0.505
1142.000	652.094	80.007	19.995	103.143	19.940	1.584	0.490
1144.000	653.040	80.006	19.996	103.143	19.943	1.380	0.478
1146.000	654.027	80.005	19.996	103.160	19.939	1.662	0.480
1148.000	655.003	80.007	19.996	103.171	19.941	1.512	0.454
1150.001	655.956	80.005	19.996	103.165	19.945	1.238	0.499
1152.001	657.104	80.005	19.995	103.158	19.942	1.481	0.517
1154.001	657.989	80.004	19.996	103.171	19.943	1.395	0.507
1156.000	658.917	80.006	19.996	103.168	19.947	1.119	0.492
1158.000	659.929	80.005	19.996	103.164	19.946	1.169	0.485
1160.001	660.862	80.006	19.996	103.156	19.942	1.432	0.448
1162.000	661.860	80.006	19.995	103.161	19.943	1.424	0.514
1164.000	662.816	80.007	19.996	103.165	19.942	1.448	0.472
1166.000	663.806	80.007	19.995	103.161	19.942	1.475	0.468
1168.000	664.813	80.009	19.996	103.156	19.941	1.549	0.487
1170.000	665.833	80.008	19.996	103.152	19.944	1.339	0.534
1172.001	666.782	80.007	19.994	103.151	19.944	1.349	0.466
1174.000	667.832	80.006	19.994	103.151	19.940	1.582	0.476
1176.000	668.823	80.005	19.994	103.153	19.941	1.514	0.466
1178.001	669.865	80.003	19.994	103.163	19.942	1.428	0.516
1180.000	670.849	80.004	19.995	103.162	19.942	1.487	0.510
1182.001	671.854	80.005	19.996	103.164	19.943	1.374	0.495
1184.000	672.881	80.004	19.995	103.161	19.947	1.109	0.505
1186.000	673.928	80.005	19.995	103.151	19.944	1.348	0.516
1188.000	674.970	80.004	19.994	103.148	19.937	1.833	0.516
1190.000	676.006	80.005	19.994	103.148	19.944	1.353	0.506
1192.000	677.039	80.005	19.995	103.155	19.942	1.489	0.515
1194.000	678.057	80.005	19.995	103.157	19.943	1.415	0.496
1196.000	679.052	80.005	19.994	103.149	19.938	1.726	0.506
1198.000	680.093	80.006	19.995	103.153	19.940	1.588	0.539
1200.001	681.114	80.005	19.994	103.166	19.942	1.452	0.523
1202.000	682.128	80.004	19.995	103.187	19.942	1.427	0.489
1204.000	683.148	80.005	19.996	103.175	19.944	1.339	0.526
1206.000	684.076	80.004	19.995	103.152	19.943	1.395	0.463
1208.000	685.212	80.005	19.995	103.168	19.946	1.189	0.533
1210.000	686.190	80.004	19.994	103.174	19.945	1.249	0.486
1212.000	687.229	80.005	19.996	103.164	19.944	1.294	0.510
1214.000	688.260	80.004	19.995	103.158	19.943	1.376	0.535
1216.000	689.336	80.005	19.995	103.144	19.945	1.263	0.519
1218.000	690.321	80.004	19.996	103.146	19.946	1.195	0.497
1220.000	691.326	80.005	19.996	103.154	19.947	1.099	0.503
1222.000	692.390	80.005	19.995	103.145	19.948	1.049	0.526
1224.000	693.391	80.005	19.996	103.154	19.948	1.031	0.511
1226.001	694.388	80.006	19.996	103.142	19.946	1.210	0.510
1228.000	695.417	80.007	19.994	103.135	19.946	1.179	0.499
1230.000	696.435	80.006	19.996	103.142	19.943	1.370	0.489
1232.000	697.470	80.006	19.994	103.143	19.951	0.833	0.505
1234.000	698.460	80.005	19.995	103.156	19.948	1.000	0.509
1236.000	699.447	80.005	19.995	103.149	19.948	1.043	0.510
1238.000	700.450	80.004	19.995	103.155	19.950	0.897	0.513
1240.000	701.488	80.005	19.995	103.155	19.949	0.992	0.511
1242.001	702.446	80.005	19.996	103.152	19.949	0.975	0.458
1244.000	703.428	80.006	19.997	103.149	19.950	0.860	0.505
1246.000	704.457	80.006	19.996	103.145	19.949	0.938	0.511
1248.000	705.428	80.005	19.996	103.147	19.949	0.955	0.490
1250.000	706.463	80.005	19.995	103.150	19.948	1.020	0.488
1252.000	707.452	80.006	19.995	103.145	19.952	0.737	0.530
1254.000	708.443	80.006	19.994	103.149	19.953	0.675	0.495
1256.000	709.441	80.005	19.995	103.146	19.953	0.650	0.496
1258.000	710.418	80.004	19.994	103.144	19.949	0.963	0.486
1260.000	711.430	80.005	19.994	103.166	19.954	0.601	0.499
1262.000	712.465	80.004	19.995	103.160	19.949	0.969	0.491
1264.000	713.486	80.002	19.994	103.148	19.950	0.866	0.529
1266.000	714.519	80.005	19.995	103.148	19.955	0.558	0.524
1268.000	715.591	80.004	19.994	103.147	19.953	0.673	0.545
1270.000	716.636	80.003	19.995	103.158	19.950	0.878	0.517
1272.000	717.695	80.004	19.995	103.148	19.952	0.757	0.538
1274.000	718.710	80.003	19.995	103.146	19.950	0.856	0.512
1276.000	719.820	80.005	19.996	103.146	19.951	0.825	0.550
1278.000	720.816	80.005	19.994	103.141	19.950	0.858	0.511
1280.000	721.896	80.006	19.994	103.142	19.951	0.841	0.510
1282.000	722.930	80.006	19.994	103.144	19.950	0.915	0.509
1284.000	723.912	80.004	19.995	103.146	19.951	0.823	0.512
1286.000	725.012	80.005	19.996	103.138	19.955	0.562	0.534
1288.000	726.006	80.005	19.994	103.145	19.951	0.788	0.495
1290.000	727.054	80.004	19.995	103.171	19.951	0.831	0.515
1292.000	728.099	80.004	19.996	103.176	19.954	0.625	0.558
1294.000	729.101	80.005	19.995	103.151	19.952	0.774	0.527
1296.000	730.184	80.005	19.995	103.143	19.952	0.761	0.552
1298.000	731.242	80.005	19.995	103.142	19.951	0.850	0.534
1300.000	732.291	80.004	19.995	103.142	19.952	0.776	0.528
1302.000	733.381	80.005	19.995	103.147	19.949	0.950	0.530
1304.000	734.376	80.005	19.995	103.150	19.946	1.181	0.524
1306.000	735.422	80.005	19.995	103.145	19.947	1.070	0.497
1308.000	736.441	80.005	19.995	103.135	19.946	1.152	0.501
1310.000	737.516	80.005	19.996	103.137	19.947	1.094	0.503
1312.000	738.581	80.005	19.996	103.141	19.950	0.899	0.514
1314.000	739.625	80.006	19.997	103.172	19.950	0.887	0.550
1316.000	740.649	80.006	19.996	103.163	19.951	0.839	0.531
1318.000	741.653	80.004	19.994	103.159	19.951	0.854	0.507
1320.000	742.692	80.006	19.995	103.154	19.947	1.119	0.523
1321.500	743.492	80.005	19.995	103.150	19.950	0.891	0.529