File: 01_Data/PVC_Pipe/MCC/PVC_Pipe_MCC_30K_min_211118_R1.txt
Sample ID:	C:\MCC\MCC Cal\Test\PVC_Pipe_MCC_30K_min_211118_R1.txt
Sample Weight (mg):	4.46
Heating Rate (C/s):	0.5
Combustor Temp (C):	900
N2 Flow Rate (cc/min):	80
O2 Flow Rate (cc/min):	20
Calibration File:	C:\MCC\MCC Cal\Coeff1 JN10440_30_210304.txt.txt
T Correction Coefficients:	0	1.024463	0
Time Shift (s):	14
*
Time (s)	Temperature (C)	N2 flow rate (cc/min)	O2 flow rate (cc/min)	Flow Rate (cc/min)	Oxygen (%)	HRR (W/g)	Heating rate (C/s)
-0.001	110.025	80.005	19.995	103.071	19.911	-0.307	0.020
2.000	109.975	80.003	19.996	103.066	19.909	-0.169	0.012
4.000	109.993	80.004	19.995	103.074	19.913	-0.425	0.008
6.000	109.997	80.004	19.995	103.068	19.915	-0.564	-0.005
8.000	109.933	80.003	19.996	103.073	19.911	-0.330	0.011
10.000	109.920	80.003	19.996	103.074	19.911	-0.299	-0.034
12.000	109.976	80.003	19.996	103.069	19.913	-0.411	0.021
14.000	109.961	80.002	19.995	103.070	19.912	-0.370	-0.004
16.000	109.895	80.004	19.994	103.070	19.909	-0.136	-0.043
18.000	109.928	80.005	19.994	103.068	19.908	-0.098	-0.017
20.000	109.916	80.005	19.994	103.069	19.913	-0.468	-0.011
22.000	109.905	80.005	19.994	103.069	19.913	-0.439	-0.016
24.000	109.891	80.006	19.994	103.066	19.909	-0.152	-0.023
26.000	109.866	80.006	19.995	103.066	19.908	-0.098	-0.018
28.000	109.879	80.007	19.994	103.065	19.909	-0.175	-0.007
30.000	109.849	80.006	19.993	103.084	19.905	0.159	-0.021
32.000	109.861	80.007	19.995	103.127	19.902	0.374	-0.024
33.999	109.893	80.005	19.994	103.154	19.896	0.794	0.017
36.000	109.982	80.004	19.994	103.180	19.893	1.032	0.056
37.999	110.037	80.003	19.994	103.205	19.889	1.313	0.009
39.999	110.095	80.005	19.994	103.220	19.886	1.514	0.033
41.999	110.244	80.003	19.994	103.223	19.882	1.757	0.088
44.000	110.396	80.004	19.995	103.237	19.883	1.737	0.121
45.999	110.608	80.004	19.995	103.236	19.878	2.048	0.095
48.000	110.816	80.002	19.995	103.231	19.879	2.013	0.149
49.999	111.070	80.005	19.995	103.232	19.880	1.956	0.116
51.999	111.320	80.002	19.994	103.231	19.883	1.734	0.160
54.000	111.604	80.003	19.994	103.235	19.878	2.118	0.162
56.000	111.924	80.005	19.994	103.244	19.877	2.164	0.155
57.999	112.200	80.005	19.995	103.259	19.875	2.322	0.124
59.999	112.547	80.004	19.995	103.261	19.873	2.412	0.179
61.999	112.885	80.005	19.995	103.276	19.873	2.426	0.185
64.000	113.289	80.005	19.994	103.301	19.874	2.400	0.197
65.999	113.721	80.002	19.995	103.308	19.869	2.739	0.253
68.000	114.144	80.002	19.995	103.325	19.866	2.962	0.217
69.999	114.638	80.002	19.996	103.320	19.866	2.974	0.240
72.001	115.078	80.003	19.995	103.306	19.866	2.941	0.204
73.999	115.612	80.003	19.995	103.303	19.870	2.629	0.280
75.999	116.166	80.002	19.995	103.304	19.869	2.761	0.309
77.999	116.744	80.004	19.995	103.319	19.867	2.860	0.294
79.999	117.332	80.004	19.995	103.328	19.866	2.956	0.299
81.999	117.898	80.004	19.994	103.326	19.867	2.886	0.287
84.000	118.513	80.004	19.995	103.317	19.866	2.978	0.316
85.999	119.165	80.005	19.995	103.317	19.865	3.047	0.338
88.001	119.821	80.004	19.995	103.329	19.866	2.966	0.308
89.999	120.512	80.005	19.995	103.313	19.865	3.006	0.366
92.000	121.185	80.004	19.995	103.327	19.865	2.995	0.365
93.999	121.932	80.003	19.995	103.322	19.864	3.090	0.383
96.000	122.622	80.003	19.994	103.323	19.864	3.114	0.371
97.999	123.288	80.003	19.997	103.304	19.864	3.114	0.335
99.999	124.114	80.003	19.996	103.314	19.865	3.018	0.415
101.999	124.849	80.003	19.996	103.314	19.864	3.130	0.396
103.999	125.604	80.003	19.995	103.310	19.864	3.093	0.369
105.999	126.366	80.005	19.996	103.319	19.864	3.126	0.381
107.999	127.123	80.005	19.996	103.323	19.862	3.229	0.397
109.999	127.883	80.007	19.995	103.332	19.864	3.115	0.358
111.999	128.734	80.007	19.994	103.331	19.861	3.276	0.434
113.999	129.514	80.004	19.993	103.333	19.862	3.243	0.394
115.999	130.338	80.005	19.995	103.324	19.860	3.361	0.413
117.999	131.166	80.000	19.995	103.324	19.863	3.156	0.385
119.999	132.002	80.004	19.994	103.336	19.862	3.266	0.414
122.000	132.840	80.004	19.993	103.329	19.860	3.363	0.418
124.000	133.702	80.002	19.994	103.329	19.864	3.099	0.475
125.999	134.531	80.001	19.994	103.339	19.862	3.213	0.430
127.999	135.406	80.001	19.994	103.338	19.860	3.392	0.406
130.000	136.253	80.003	19.994	103.339	19.863	3.184	0.451
132.000	137.178	80.000	19.994	103.334	19.858	3.534	0.467
134.000	138.077	80.003	19.994	103.340	19.857	3.574	0.447
136.000	138.989	80.003	19.994	103.338	19.862	3.207	0.448
138.000	139.914	80.002	19.993	103.337	19.861	3.309	0.463
140.000	140.839	80.003	19.993	103.334	19.858	3.548	0.462
142.000	141.758	80.003	19.994	103.337	19.860	3.355	0.485
144.000	142.705	80.005	19.994	103.339	19.863	3.199	0.486
146.000	143.585	80.003	19.995	103.337	19.863	3.150	0.437
148.000	144.528	80.004	19.994	103.327	19.864	3.105	0.467
150.000	145.471	80.004	19.995	103.337	19.862	3.268	0.457
152.000	146.409	80.004	19.996	103.330	19.862	3.222	0.437
154.000	147.428	80.003	19.995	103.335	19.861	3.284	0.492
156.000	148.339	80.003	19.994	103.335	19.861	3.343	0.499
158.000	149.359	80.003	19.994	103.338	19.862	3.258	0.483
160.000	150.318	80.004	19.995	103.329	19.861	3.284	0.473
162.000	151.278	80.002	19.996	103.319	19.865	3.016	0.484
164.000	152.230	80.005	19.995	103.326	19.863	3.175	0.474
166.000	153.231	80.004	19.995	103.335	19.864	3.130	0.471
168.000	154.222	80.004	19.995	103.330	19.862	3.240	0.507
170.000	155.181	80.004	19.995	103.321	19.860	3.406	0.505
172.000	156.121	80.004	19.995	103.326	19.860	3.396	0.470
174.000	157.115	80.003	19.996	103.327	19.861	3.341	0.504
176.000	158.122	80.004	19.995	103.315	19.865	3.029	0.487
178.000	159.121	80.003	19.995	103.311	19.863	3.177	0.498
180.000	160.110	80.005	19.995	103.319	19.864	3.080	0.513
182.000	161.108	80.004	19.994	103.325	19.862	3.226	0.515
184.000	162.086	80.006	19.995	103.325	19.865	3.031	0.458
186.000	163.050	80.002	19.995	103.311	19.867	2.852	0.458
188.000	164.134	80.003	19.995	103.315	19.866	2.962	0.547
190.000	165.141	80.005	19.995	103.313	19.863	3.171	0.519
192.000	166.133	80.005	19.996	103.308	19.864	3.125	0.497
194.000	167.141	80.006	19.995	103.309	19.865	3.025	0.466
196.000	168.141	80.004	19.995	103.302	19.864	3.096	0.454
198.000	169.193	80.003	19.995	103.310	19.864	3.070	0.528
200.000	170.220	80.004	19.995	103.307	19.865	3.049	0.514
202.000	171.197	80.003	19.994	103.308	19.862	3.240	0.489
204.000	172.181	80.002	19.994	103.300	19.861	3.279	0.508
206.000	173.197	80.003	19.995	103.301	19.867	2.906	0.484
208.000	174.245	80.003	19.994	103.305	19.862	3.214	0.485
210.000	175.229	80.002	19.993	103.302	19.864	3.123	0.503
212.000	176.238	80.004	19.994	103.306	19.864	3.119	0.520
214.000	177.263	80.004	19.994	103.302	19.865	3.019	0.505
216.000	178.290	80.005	19.995	103.293	19.863	3.152	0.519
218.000	179.234	80.004	19.995	103.294	19.864	3.060	0.504
220.000	180.273	80.004	19.994	103.297	19.866	2.948	0.499
222.000	181.331	80.004	19.994	103.299	19.866	2.969	0.523
224.000	182.312	80.004	19.995	103.295	19.863	3.200	0.511
226.000	183.293	80.003	19.995	103.287	19.863	3.150	0.501
228.000	184.286	80.003	19.996	103.287	19.865	3.022	0.475
230.000	185.323	80.002	19.994	103.288	19.864	3.097	0.503
232.000	186.336	80.004	19.995	103.288	19.865	3.010	0.507
234.000	187.363	80.003	19.996	103.275	19.864	3.069	0.490
236.000	188.364	80.003	19.995	103.291	19.862	3.233	0.497
238.000	189.350	80.003	19.995	103.284	19.865	3.002	0.501
240.000	190.359	80.004	19.995	103.277	19.864	3.124	0.533
242.000	191.328	80.004	19.995	103.277	19.863	3.169	0.510
244.000	192.343	80.003	19.995	103.262	19.864	3.095	0.501
246.000	193.334	80.006	19.995	103.281	19.863	3.142	0.506
248.000	194.303	80.005	19.997	103.275	19.864	3.093	0.486
250.000	195.279	80.005	19.995	103.275	19.866	2.971	0.465
252.000	196.283	80.004	19.995	103.263	19.866	2.951	0.517
254.000	197.215	80.006	19.995	103.266	19.866	2.917	0.478
256.000	198.247	80.002	19.996	103.270	19.863	3.144	0.501
258.000	199.251	80.005	19.995	103.276	19.861	3.312	0.512
260.000	200.193	80.004	19.996	103.278	19.861	3.304	0.463
262.000	201.192	80.003	19.994	103.263	19.863	3.169	0.514
264.000	202.102	80.002	19.996	103.267	19.863	3.163	0.482
266.000	203.143	80.006	19.995	103.265	19.864	3.093	0.482
268.000	204.135	80.004	19.994	103.279	19.864	3.087	0.526
270.000	205.056	80.007	19.995	103.272	19.866	2.933	0.480
272.000	206.035	80.006	19.995	103.265	19.863	3.136	0.470
274.000	207.022	80.003	19.995	103.261	19.862	3.234	0.480
276.000	208.047	80.005	19.995	103.260	19.862	3.215	0.527
278.000	208.995	80.006	19.995	103.262	19.862	3.272	0.511
280.000	209.939	80.005	19.994	103.260	19.861	3.335	0.461
282.000	210.945	80.004	19.995	103.260	19.858	3.559	0.517
284.000	211.909	80.004	19.995	103.259	19.861	3.321	0.468
286.000	212.890	80.002	19.995	103.258	19.859	3.453	0.471
288.000	213.886	80.001	19.996	103.259	19.857	3.624	0.540
290.000	214.825	80.002	19.996	103.260	19.853	3.875	0.470
292.000	215.783	80.003	19.996	103.257	19.851	4.024	0.478
294.000	216.746	80.002	19.996	103.257	19.850	4.138	0.466
296.000	217.714	80.003	19.995	103.258	19.848	4.261	0.470
298.000	218.695	80.004	19.996	103.258	19.847	4.309	0.473
300.000	219.680	80.002	19.995	103.259	19.844	4.566	0.486
302.000	220.639	80.004	19.994	103.259	19.844	4.529	0.487
304.000	221.616	80.004	19.995	103.259	19.840	4.794	0.514
306.000	222.599	80.006	19.996	103.259	19.840	4.840	0.483
308.000	223.597	80.024	20.002	103.279	19.836	5.137	0.521
310.000	224.509	80.006	19.996	103.270	19.834	5.271	0.464
312.000	225.501	80.003	19.995	103.259	19.831	5.444	0.482
314.000	226.506	80.004	19.995	103.261	19.829	5.622	0.508
316.000	227.495	80.004	19.996	103.261	19.827	5.775	0.514
318.000	228.456	80.000	19.994	103.261	19.821	6.193	0.506
320.000	229.475	80.000	19.995	103.263	19.820	6.297	0.503
322.000	230.495	80.002	19.994	103.262	19.817	6.510	0.516
324.000	231.491	80.002	19.995	103.261	19.819	6.354	0.490
326.000	232.479	80.002	19.994	103.261	19.818	6.390	0.491
328.000	233.446	80.004	19.995	103.260	19.821	6.213	0.494
330.000	234.425	80.005	19.994	103.260	19.822	6.150	0.500
332.000	235.438	80.006	19.994	103.259	19.828	5.724	0.492
334.000	236.431	80.005	19.994	103.262	19.833	5.366	0.503
336.000	237.428	80.004	19.995	103.260	19.838	4.978	0.495
338.000	238.450	80.004	19.995	103.264	19.841	4.779	0.501
340.000	239.443	80.005	19.994	103.260	19.842	4.706	0.467
342.000	240.401	80.004	19.993	103.263	19.841	4.741	0.477
344.000	241.455	80.004	19.994	103.264	19.843	4.641	0.511
346.000	242.425	80.004	19.995	103.262	19.844	4.509	0.525
348.000	243.432	80.005	19.995	103.259	19.841	4.784	0.472
350.000	244.456	80.003	19.995	103.258	19.839	4.900	0.488
352.000	245.456	80.004	19.995	103.258	19.840	4.824	0.503
354.000	246.453	80.005	19.995	103.255	19.841	4.764	0.517
356.000	247.442	80.006	19.994	103.255	19.837	5.036	0.504
358.000	248.444	80.004	19.996	103.256	19.834	5.290	0.530
360.000	249.486	80.007	19.995	103.243	19.835	5.161	0.527
362.000	250.493	80.005	19.994	103.251	19.835	5.208	0.523
364.000	251.530	80.003	19.996	103.249	19.829	5.597	0.522
366.000	252.513	80.004	19.996	103.252	19.828	5.682	0.510
368.000	253.527	80.005	19.996	103.251	19.827	5.779	0.482
370.000	254.508	80.005	19.996	103.251	19.827	5.791	0.513
372.000	255.508	80.003	19.995	103.257	19.824	5.971	0.496
374.000	256.531	80.003	19.996	103.247	19.824	5.999	0.495
376.000	257.531	80.003	19.996	103.254	19.823	6.061	0.512
378.000	258.534	80.003	19.996	103.251	19.824	6.005	0.494
380.000	259.548	80.004	19.996	103.245	19.822	6.139	0.493
382.000	260.538	80.003	19.996	103.252	19.820	6.270	0.484
384.000	261.552	80.002	19.996	103.235	19.817	6.501	0.494
386.000	262.494	80.002	19.996	103.252	19.817	6.510	0.498
388.000	263.528	80.002	19.997	103.254	19.813	6.771	0.492
390.000	264.570	80.002	19.995	103.250	19.811	6.937	0.524
392.000	265.546	80.003	19.995	103.246	19.809	7.055	0.484
394.000	266.569	80.003	19.994	103.241	19.812	6.847	0.513
396.000	267.537	80.003	19.996	103.248	19.809	7.042	0.480
398.000	268.564	80.002	19.995	103.251	19.806	7.280	0.504
400.000	269.543	80.002	19.994	103.250	19.805	7.373	0.488
402.000	270.574	80.001	19.994	103.241	19.805	7.371	0.512
404.000	271.598	80.002	19.994	103.261	19.800	7.696	0.526
406.000	272.578	80.004	19.995	103.260	19.800	7.697	0.505
408.000	273.601	80.003	19.995	103.263	19.801	7.626	0.523
410.000	274.605	80.004	19.995	103.261	19.801	7.645	0.515
412.000	275.624	80.004	19.995	103.268	19.800	7.724	0.515
414.000	276.593	80.006	19.995	103.259	19.803	7.472	0.485
416.000	277.566	80.003	19.995	103.268	19.802	7.573	0.521
418.000	278.540	80.004	19.995	103.268	19.797	7.957	0.482
420.000	279.589	80.003	19.995	103.288	19.797	7.908	0.511
422.000	280.592	80.005	19.995	103.293	19.796	8.045	0.520
424.000	281.554	80.003	19.996	103.294	19.797	7.909	0.504
426.000	282.555	80.005	19.994	103.299	19.790	8.449	0.510
428.000	283.559	80.004	19.995	103.307	19.790	8.444	0.510
430.000	284.533	80.004	19.995	103.332	19.783	8.928	0.484
432.000	285.565	80.006	19.994	103.332	19.784	8.920	0.525
434.000	286.524	80.005	19.994	103.346	19.776	9.449	0.502
436.000	287.517	80.006	19.994	103.354	19.770	9.879	0.493
438.000	288.538	80.006	19.995	103.379	19.766	10.224	0.509
440.000	289.500	80.006	19.994	103.413	19.757	10.857	0.514
442.000	290.506	80.007	19.995	103.449	19.746	11.663	0.510
444.000	291.493	80.005	19.996	103.498	19.738	12.246	0.501
446.000	292.483	80.003	19.995	103.548	19.727	13.062	0.526
448.000	293.458	80.003	19.995	103.607	19.710	14.273	0.462
450.000	294.438	80.004	19.995	103.677	19.699	14.996	0.467
452.000	295.426	80.002	19.996	103.706	19.686	15.931	0.455
454.000	296.410	80.004	19.995	103.708	19.675	16.731	0.473
456.000	297.412	80.002	19.995	103.648	19.666	17.329	0.495
458.000	298.363	80.003	19.996	103.560	19.653	18.271	0.475
460.000	299.347	80.003	19.995	103.437	19.651	18.417	0.478
462.000	300.346	80.001	19.995	103.304	19.652	18.364	0.487
464.000	301.323	80.002	19.996	103.164	19.654	18.241	0.482
466.000	302.301	80.002	19.995	103.064	19.661	17.702	0.493
468.000	303.282	80.002	19.994	102.981	19.665	17.442	0.461
470.000	304.297	80.003	19.995	102.950	19.672	16.919	0.515
472.000	305.233	80.003	19.995	102.958	19.685	16.017	0.507
474.000	306.226	80.002	19.996	102.987	19.691	15.608	0.493
476.000	307.277	80.003	19.995	103.040	19.702	14.792	0.513
478.000	308.279	80.002	19.996	103.105	19.708	14.368	0.529
480.000	309.283	80.004	19.996	103.165	19.715	13.852	0.526
482.000	310.249	80.002	19.996	103.186	19.724	13.188	0.515
484.000	311.246	80.004	19.994	103.207	19.722	13.335	0.502
486.000	312.247	80.002	19.995	103.224	19.730	12.782	0.525
488.000	313.259	80.004	19.995	103.229	19.735	12.401	0.494
490.000	314.266	80.004	19.995	103.244	19.735	12.382	0.504
492.000	315.262	80.005	19.995	103.251	19.738	12.185	0.494
494.000	316.259	80.008	19.994	103.244	19.743	11.858	0.505
496.000	317.274	80.006	19.994	103.243	19.746	11.645	0.508
498.000	318.287	80.006	19.994	103.229	19.749	11.408	0.469
500.000	319.235	80.006	19.995	103.232	19.752	11.144	0.487
502.000	320.210	80.004	19.994	103.223	19.757	10.796	0.510
504.000	321.175	80.004	19.995	103.228	19.758	10.743	0.495
506.000	322.146	80.005	19.995	103.224	19.762	10.442	0.461
508.000	323.131	80.005	19.995	103.219	19.766	10.186	0.484
510.000	324.107	80.004	19.995	103.216	19.770	9.846	0.461
512.000	325.113	80.005	19.994	103.218	19.772	9.698	0.480
514.000	326.121	80.006	19.993	103.220	19.777	9.339	0.522
516.000	327.077	80.006	19.994	103.224	19.782	9.024	0.465
518.000	328.098	80.006	19.995	103.222	19.786	8.740	0.499
520.000	329.091	80.007	19.994	103.215	19.789	8.523	0.525
522.000	330.042	80.006	19.993	103.202	19.793	8.250	0.470
524.000	331.078	80.005	19.995	103.196	19.793	8.217	0.510
526.000	332.017	80.006	19.994	103.201	19.801	7.621	0.475
528.000	333.055	80.004	19.994	103.193	19.801	7.624	0.505
530.000	334.070	80.003	19.994	103.186	19.803	7.479	0.527
532.000	335.090	80.004	19.994	103.185	19.808	7.157	0.512
534.000	336.073	80.003	19.994	103.197	19.809	7.072	0.494
536.000	337.088	80.004	19.995	103.204	19.812	6.832	0.525
538.000	338.058	80.004	19.994	103.203	19.817	6.491	0.469
540.000	339.088	80.003	19.996	103.193	19.819	6.348	0.535
542.000	340.072	80.004	19.995	103.193	19.821	6.165	0.511
544.000	341.130	80.004	19.996	103.182	19.819	6.338	0.528
546.000	342.102	80.004	19.995	103.181	19.825	5.911	0.493
548.000	343.113	80.004	19.995	103.182	19.824	5.948	0.468
550.000	344.134	80.003	19.997	103.182	19.827	5.739	0.514
552.000	345.148	80.004	19.996	103.181	19.835	5.159	0.502
554.000	346.185	80.004	19.995	103.181	19.828	5.659	0.538
556.000	347.275	80.003	19.996	103.178	19.833	5.336	0.478
558.000	348.142	80.003	19.996	103.181	19.833	5.358	0.561
560.000	349.286	80.003	19.996	103.179	19.839	4.921	0.619
562.000	350.028	80.001	19.996	103.176	19.837	5.029	0.565
564.000	351.557	80.002	19.996	103.182	19.842	4.712	0.708
566.000	352.608	80.002	19.998	103.179	19.841	4.744	0.329
568.000	353.310	80.003	19.996	103.181	19.842	4.667	0.579
570.000	354.420	80.003	19.996	103.182	19.840	4.846	0.446
572.000	355.383	80.004	19.997	103.182	19.841	4.786	0.428
574.000	356.416	80.003	19.996	103.181	19.842	4.704	0.487
576.000	357.363	80.004	19.994	103.183	19.839	4.873	0.469
578.000	358.506	80.005	19.994	103.195	19.841	4.755	0.539
580.000	359.515	80.005	19.995	103.192	19.842	4.661	0.481
582.000	360.560	80.005	19.995	103.202	19.843	4.635	0.537
584.000	361.598	80.003	19.994	103.219	19.840	4.821	0.530
586.000	362.599	80.004	19.995	103.221	19.843	4.587	0.516
588.000	363.644	80.004	19.995	103.223	19.840	4.822	0.536
590.000	364.629	80.004	19.994	103.228	19.840	4.822	0.480
592.000	365.734	80.003	19.995	103.228	19.840	4.793	0.536
594.000	366.736	80.005	19.993	103.234	19.840	4.846	0.494
596.000	367.757	80.004	19.993	103.240	19.843	4.597	0.511
598.000	368.831	80.005	19.993	103.250	19.840	4.822	0.499
600.000	369.856	80.006	19.994	103.261	19.841	4.789	0.542
602.000	370.890	80.007	19.994	103.268	19.840	4.842	0.524
604.000	371.945	80.005	19.994	103.261	19.838	4.961	0.549
606.000	372.968	80.005	19.993	103.257	19.840	4.842	0.531
608.000	373.998	80.005	19.996	103.259	19.838	4.976	0.532
610.000	375.050	80.004	19.996	103.261	19.838	4.938	0.525
612.000	376.063	80.003	19.995	103.264	19.838	5.000	0.504
614.000	377.066	80.005	19.995	103.271	19.836	5.080	0.513
616.000	378.085	80.003	19.995	103.271	19.832	5.417	0.502
618.000	379.143	80.004	19.995	103.265	19.828	5.663	0.498
620.000	380.175	80.004	19.994	103.269	19.830	5.569	0.529
622.000	381.190	80.004	19.993	103.263	19.824	5.964	0.531
624.000	382.222	80.004	19.994	103.269	19.824	6.013	0.516
626.000	383.194	80.004	19.994	103.269	19.822	6.101	0.480
628.000	384.184	80.004	19.994	103.269	19.820	6.294	0.494
630.000	385.222	80.004	19.995	103.265	19.819	6.323	0.505
632.000	386.231	80.004	19.993	103.273	19.819	6.348	0.502
634.000	387.257	80.003	19.996	103.281	19.815	6.609	0.492
636.000	388.298	80.004	19.995	103.271	19.809	7.066	0.527
638.000	389.344	80.003	19.996	103.270	19.806	7.256	0.515
640.000	390.328	80.002	19.995	103.286	19.801	7.659	0.525
642.000	391.383	80.003	19.996	103.283	19.796	7.996	0.516
644.000	392.424	80.002	19.997	103.272	19.793	8.240	0.518
646.000	393.449	80.002	19.995	103.274	19.786	8.715	0.517
648.000	394.515	80.002	19.993	103.270	19.783	8.912	0.522
650.000	395.524	80.003	19.996	103.273	19.777	9.379	0.498
652.000	396.524	80.003	19.995	103.266	19.775	9.534	0.527
654.000	397.573	80.002	19.995	103.269	19.766	10.174	0.541
656.000	398.582	80.004	19.995	103.268	19.760	10.582	0.538
658.000	399.608	80.004	19.994	103.267	19.752	11.172	0.540
660.000	400.602	80.003	19.994	103.269	19.746	11.638	0.515
662.000	401.625	80.003	19.995	103.269	19.738	12.195	0.531
664.000	402.624	80.004	19.995	103.264	19.730	12.780	0.494
666.000	403.685	80.003	19.994	103.265	19.721	13.457	0.536
668.000	404.617	80.003	19.995	103.271	19.712	14.102	0.509
670.000	405.616	80.005	19.995	103.270	19.702	14.803	0.490
672.000	406.660	80.004	19.996	103.267	19.695	15.337	0.527
674.000	407.671	80.004	19.995	103.261	19.682	16.241	0.468
676.000	408.658	80.005	19.995	103.265	19.674	16.794	0.498
678.000	409.690	80.005	19.994	103.278	19.662	17.709	0.538
680.000	410.669	80.005	19.993	103.264	19.645	18.896	0.492
682.000	411.673	80.005	19.995	103.260	19.636	19.572	0.499
684.000	412.670	80.007	19.995	103.264	19.622	20.560	0.462
686.000	413.718	80.006	19.994	103.262	19.604	21.845	0.502
688.000	414.680	80.004	19.994	103.261	19.590	22.897	0.508
690.000	415.693	80.005	19.995	103.273	19.574	24.027	0.517
692.000	416.697	80.003	19.995	103.278	19.560	25.053	0.519
694.000	417.733	80.003	19.994	103.269	19.542	26.349	0.521
696.000	418.735	80.003	19.995	103.265	19.523	27.765	0.490
698.000	419.813	80.003	19.995	103.270	19.508	28.819	0.520
700.000	420.858	80.002	19.996	103.273	19.490	30.122	0.540
702.000	421.889	80.004	19.995	103.287	19.472	31.420	0.514
704.000	422.882	80.003	19.995	103.272	19.451	32.900	0.484
706.000	423.970	80.003	19.993	103.281	19.430	34.434	0.516
708.000	424.989	80.004	19.994	103.275	19.412	35.763	0.497
710.000	426.111	80.004	19.995	103.265	19.390	37.327	0.538
712.000	427.193	80.003	19.995	103.273	19.371	38.711	0.576
714.000	428.207	80.004	19.995	103.268	19.350	40.195	0.525
716.000	429.266	80.004	19.994	103.276	19.332	41.515	0.504
718.000	430.329	80.003	19.993	103.266	19.314	42.834	0.534
720.000	431.363	80.004	19.994	103.265	19.290	44.538	0.504
722.000	432.429	80.004	19.995	103.265	19.273	45.816	0.527
724.000	433.516	80.001	19.994	103.262	19.256	47.044	0.569
726.000	434.556	80.001	19.996	103.265	19.240	48.161	0.530
728.000	435.623	80.002	19.996	103.266	19.221	49.524	0.502
730.000	436.653	80.003	19.996	103.269	19.206	50.635	0.495
732.000	437.737	80.002	19.996	103.268	19.195	51.408	0.549
734.000	438.797	80.003	19.994	103.266	19.181	52.422	0.509
736.000	439.806	80.004	19.995	103.262	19.174	52.975	0.516
738.000	440.879	80.004	19.995	103.260	19.165	53.620	0.504
740.000	441.935	80.005	19.995	103.259	19.156	54.257	0.521
742.000	442.962	80.006	19.994	103.261	19.148	54.794	0.531
744.000	443.990	80.005	19.995	103.268	19.140	55.416	0.496
746.000	445.022	80.004	19.994	103.274	19.120	56.850	0.535
748.000	446.067	80.005	19.995	103.280	19.098	58.449	0.527
750.000	447.126	80.004	19.994	103.288	19.066	60.717	0.522
752.000	448.126	80.003	19.995	103.284	19.029	63.359	0.501
754.000	449.079	80.004	19.995	103.280	18.987	66.460	0.467
756.000	450.102	80.003	19.996	103.270	18.952	68.962	0.498
758.000	451.143	80.004	19.997	103.253	18.927	70.797	0.526
760.000	452.129	80.003	19.996	103.235	18.907	72.198	0.498
762.000	453.133	80.005	19.996	103.221	18.893	73.251	0.503
764.000	454.159	80.005	19.996	103.243	18.885	73.790	0.503
766.000	455.169	80.005	19.995	103.255	18.883	73.993	0.523
768.000	456.220	80.006	19.995	103.263	18.882	74.066	0.524
770.000	457.238	80.005	19.994	103.269	18.881	74.078	0.513
772.000	458.250	80.005	19.995	103.269	18.890	73.467	0.513
774.000	459.291	80.003	19.994	103.258	18.904	72.424	0.534
776.000	460.287	80.003	19.995	103.258	18.916	71.581	0.494
778.000	461.314	80.004	19.993	103.263	18.937	70.098	0.499
780.000	462.365	80.004	19.995	103.263	18.956	68.725	0.546
782.000	463.406	80.003	19.994	103.266	18.978	67.076	0.530
784.000	464.437	80.004	19.994	103.263	19.007	65.005	0.506
786.000	465.446	80.003	19.994	103.262	19.029	63.435	0.500
788.000	466.493	80.004	19.995	103.276	19.051	61.837	0.525
790.000	467.568	80.004	19.994	103.284	19.077	59.918	0.556
792.000	468.600	80.003	19.995	103.266	19.103	58.085	0.546
794.000	469.632	80.003	19.994	103.249	19.132	56.004	0.527
796.000	470.662	80.004	19.994	103.240	19.160	53.908	0.519
798.000	471.644	80.005	19.995	103.258	19.175	52.865	0.519
800.000	472.664	80.003	19.995	103.277	19.187	51.996	0.493
802.000	473.733	80.004	19.995	103.272	19.190	51.760	0.544
804.000	474.832	80.005	19.995	103.269	19.199	51.153	0.531
806.000	475.840	80.003	19.994	103.249	19.212	50.144	0.532
808.000	476.827	80.004	19.995	103.230	19.225	49.269	0.503
810.000	477.846	80.004	19.994	103.223	19.236	48.477	0.524
812.000	478.824	80.002	19.994	103.243	19.242	48.011	0.483
814.000	479.882	80.005	19.995	103.254	19.255	47.043	0.522
816.000	480.871	80.005	19.994	103.240	19.269	46.097	0.505
818.000	481.900	80.005	19.994	103.237	19.278	45.432	0.503
820.000	482.935	80.006	19.994	103.254	19.290	44.566	0.526
822.000	483.915	80.005	19.995	103.243	19.298	43.964	0.496
824.000	484.950	80.004	19.995	103.245	19.311	43.047	0.493
826.000	485.962	80.004	19.995	103.232	19.316	42.650	0.517
828.000	486.942	80.005	19.996	103.236	19.325	41.985	0.495
830.000	487.948	80.005	19.995	103.239	19.335	41.291	0.512
832.000	488.971	80.004	19.995	103.223	19.349	40.316	0.520
834.000	489.933	80.005	19.995	103.223	19.367	38.950	0.468
836.000	490.956	80.005	19.995	103.221	19.387	37.559	0.474
838.000	491.948	80.004	19.996	103.229	19.406	36.185	0.514
840.000	492.972	80.005	19.995	103.232	19.419	35.215	0.507
842.000	493.927	80.006	19.996	103.258	19.434	34.140	0.470
844.000	494.954	80.005	19.995	103.243	19.448	33.106	0.491
846.000	495.977	80.006	19.994	103.225	19.464	31.968	0.521
848.000	496.949	80.006	19.996	103.227	19.480	30.827	0.492
850.000	497.935	80.004	19.995	103.226	19.495	29.722	0.512
852.000	498.899	80.005	19.995	103.224	19.510	28.664	0.479
854.000	499.875	80.005	19.996	103.223	19.521	27.830	0.465
856.000	500.840	80.002	19.997	103.223	19.536	26.773	0.525
858.000	501.814	80.003	19.995	103.230	19.551	25.672	0.468
860.000	502.794	80.003	19.996	103.225	19.564	24.779	0.471
862.000	503.736	80.003	19.995	103.230	19.576	23.868	0.469
864.000	504.705	80.002	19.995	103.225	19.590	22.902	0.491
866.000	505.687	80.004	19.994	103.226	19.601	22.097	0.501
868.000	506.673	80.003	19.994	103.225	19.615	21.081	0.502
870.000	507.654	80.004	19.995	103.226	19.625	20.376	0.499
872.000	508.641	80.004	19.995	103.229	19.637	19.495	0.474
874.000	509.640	80.003	19.995	103.224	19.646	18.800	0.471
876.000	510.649	80.005	19.995	103.221	19.660	17.841	0.531
878.000	511.613	80.003	19.995	103.225	19.670	17.109	0.498
880.000	512.608	80.004	19.995	103.224	19.678	16.514	0.475
882.000	513.624	80.004	19.995	103.221	19.686	15.969	0.524
884.000	514.671	80.004	19.995	103.221	19.699	15.004	0.530
886.000	515.712	80.003	19.995	103.219	19.704	14.646	0.507
888.000	516.749	80.004	19.993	103.221	19.716	13.773	0.523
890.000	517.786	80.003	19.995	103.222	19.724	13.191	0.534
892.000	518.815	80.003	19.995	103.221	19.730	12.792	0.570
894.000	519.832	80.003	19.995	103.220	19.740	12.076	0.511
896.000	520.863	80.004	19.995	103.222	19.745	11.651	0.513
898.000	521.893	80.004	19.994	103.221	19.753	11.126	0.508
900.000	522.966	80.005	19.995	103.222	19.760	10.567	0.536
902.000	523.986	80.004	19.995	103.219	19.761	10.497	0.538
904.000	524.993	80.006	19.995	103.222	19.769	9.987	0.506
906.000	526.025	80.006	19.995	103.223	19.777	9.388	0.491
908.000	527.065	80.005	19.995	103.221	19.782	8.983	0.502
910.000	528.106	80.005	19.996	103.213	19.786	8.705	0.527
912.000	529.108	80.004	19.994	103.217	19.792	8.272	0.510
914.000	530.144	80.004	19.995	103.222	19.793	8.220	0.518
916.000	531.151	80.003	19.994	103.217	19.801	7.664	0.496
918.000	532.160	80.004	19.995	103.222	19.807	7.242	0.526
920.000	533.206	80.004	19.996	103.222	19.808	7.155	0.519
922.000	534.257	80.004	19.995	103.221	19.812	6.822	0.525
924.000	535.284	80.005	19.995	103.220	19.812	6.838	0.520
926.000	536.326	80.006	19.994	103.209	19.820	6.285	0.517
928.000	537.353	80.006	19.995	103.212	19.823	6.062	0.517
930.000	538.396	80.007	19.994	103.219	19.827	5.747	0.509
932.000	539.487	80.008	19.994	103.209	19.832	5.393	0.544
934.000	540.520	80.004	19.995	103.214	19.831	5.445	0.506
936.000	541.566	80.005	19.995	103.217	19.834	5.273	0.532
938.000	542.615	80.003	19.996	103.209	19.837	5.066	0.517
940.000	543.659	80.004	19.995	103.209	19.839	4.913	0.492
942.000	544.734	80.002	19.995	103.212	19.840	4.847	0.548
944.000	545.769	80.003	19.995	103.213	19.844	4.540	0.542
946.000	546.837	80.003	19.996	103.205	19.847	4.284	0.527
948.000	547.885	80.003	19.996	103.219	19.845	4.494	0.495
950.000	548.918	80.003	19.995	103.204	19.848	4.242	0.513
952.000	550.013	80.004	19.995	103.188	19.849	4.155	0.559
954.000	550.983	80.004	19.996	103.210	19.847	4.319	0.528
956.000	552.028	80.005	19.995	103.205	19.852	3.930	0.500
958.000	553.105	80.005	19.995	103.201	19.852	3.933	0.523
960.000	554.193	80.005	19.997	103.195	19.854	3.801	0.531
962.000	555.214	80.004	19.995	103.198	19.857	3.616	0.534
964.000	556.225	80.003	19.996	103.194	19.858	3.522	0.492
966.000	557.284	80.003	19.995	103.203	19.859	3.429	0.513
968.000	558.324	80.004	19.996	103.207	19.859	3.471	0.532
970.000	559.373	80.004	19.995	103.199	19.863	3.187	0.531
972.000	560.394	80.003	19.996	103.201	19.865	3.030	0.542
974.000	561.455	80.003	19.997	103.206	19.865	3.014	0.527
976.000	562.508	80.004	19.996	103.196	19.865	3.034	0.556
978.000	563.495	80.003	19.994	103.190	19.868	2.821	0.504
980.000	564.507	80.005	19.995	103.204	19.866	2.959	0.520
982.000	565.532	80.005	19.994	103.202	19.864	3.102	0.506
984.000	566.571	80.006	19.993	103.197	19.870	2.671	0.525
986.000	567.586	80.006	19.994	103.202	19.867	2.842	0.514
988.000	568.582	80.006	19.993	103.191	19.864	3.055	0.479
990.000	569.641	80.004	19.993	103.195	19.869	2.715	0.524
992.000	570.643	80.004	19.994	103.192	19.868	2.815	0.499
994.000	571.614	80.006	19.995	103.191	19.868	2.789	0.457
996.000	572.658	80.003	19.993	103.192	19.870	2.636	0.506
998.000	573.666	80.006	19.994	103.194	19.872	2.490	0.507
1000.000	574.720	80.005	19.995	103.205	19.874	2.390	0.529
1002.000	575.723	80.006	19.995	103.197	19.874	2.366	0.489
1004.000	576.770	80.006	19.994	103.192	19.874	2.370	0.506
1006.000	577.730	80.005	19.995	103.187	19.874	2.362	0.471
1008.000	578.800	80.007	19.996	103.182	19.880	1.927	0.527
1010.000	579.810	80.007	19.995	103.191	19.878	2.063	0.507
1012.000	580.831	80.007	19.994	103.188	19.875	2.301	0.534
1014.000	581.831	80.007	19.996	103.187	19.872	2.522	0.491
1016.000	582.846	80.006	19.996	103.185	19.875	2.299	0.511
1018.000	583.797	80.005	19.996	103.184	19.880	1.927	0.460
1020.000	584.799	80.004	19.995	103.187	19.880	1.963	0.491
1022.000	585.826	80.004	19.995	103.196	19.876	2.209	0.505
1024.000	586.780	80.005	19.996	103.192	19.883	1.752	0.497
1025.999	587.733	80.004	19.995	103.192	19.879	2.043	0.468
1027.999	588.720	80.003	19.996	103.196	19.879	1.994	0.480
1029.999	589.759	80.004	19.996	103.199	19.881	1.856	0.531
1031.999	590.717	80.003	19.997	103.194	19.882	1.789	0.465
1033.999	591.718	80.004	19.996	103.214	19.881	1.835	0.520
1035.999	592.724	80.004	19.996	103.193	19.882	1.813	0.469
1037.999	593.733	80.002	19.996	103.194	19.881	1.880	0.502
1039.999	594.788	80.003	19.996	103.190	19.883	1.734	0.525
1041.999	595.774	80.002	19.994	103.187	19.880	1.959	0.512
1043.999	596.758	80.002	19.995	103.187	19.883	1.717	0.495
1045.999	597.743	80.003	19.996	103.190	19.880	1.959	0.504
1047.999	598.768	80.003	19.995	103.199	19.879	2.014	0.512
1050.000	599.742	80.003	19.994	103.186	19.880	1.961	0.499
1051.999	600.767	80.003	19.994	103.190	19.876	2.211	0.508
1053.999	601.804	80.002	19.996	103.195	19.883	1.742	0.540
1055.999	602.774	80.003	19.995	103.199	19.883	1.750	0.476
1057.999	603.789	80.004	19.995	103.188	19.880	1.951	0.507
1059.999	604.816	80.002	19.994	103.191	19.882	1.809	0.488
1061.999	605.827	80.004	19.995	103.191	19.879	2.027	0.519
1063.999	606.882	80.005	19.996	103.200	19.884	1.636	0.540
1065.999	607.879	80.005	19.995	103.195	19.884	1.665	0.532
1067.999	608.897	80.006	19.997	103.187	19.882	1.795	0.474
1069.999	609.933	80.006	19.996	103.183	19.883	1.742	0.506
1071.999	610.998	80.006	19.994	103.181	19.881	1.848	0.529
1073.999	612.019	80.005	19.997	103.183	19.887	1.443	0.523
1076.000	612.999	80.004	19.996	103.190	19.882	1.801	0.496
1077.999	614.072	80.005	19.994	103.182	19.887	1.466	0.539
1080.000	615.125	80.004	19.995	103.183	19.882	1.797	0.551
1082.000	616.187	80.007	19.996	103.184	19.882	1.758	0.545
1083.999	617.242	80.006	19.993	103.186	19.881	1.870	0.520
1085.999	618.242	80.005	19.993	103.187	19.886	1.522	0.535
1088.000	619.258	80.006	19.996	103.184	19.880	1.915	0.535
1089.999	620.316	80.007	19.994	103.190	19.885	1.575	0.529
1091.999	621.400	80.007	19.995	103.197	19.885	1.571	0.537
1094.000	622.414	80.006	19.993	103.189	19.884	1.665	0.519
1095.999	623.394	80.005	19.993	103.189	19.886	1.468	0.543
1097.999	624.457	80.006	19.994	103.195	19.884	1.628	0.522
1100.000	625.498	80.006	19.996	103.192	19.885	1.563	0.545
1102.000	626.500	80.003	19.996	103.187	19.885	1.545	0.507
1103.999	627.561	80.004	19.996	103.205	19.881	1.882	0.541
1105.999	628.605	80.003	19.995	103.190	19.885	1.565	0.514
1108.000	629.577	80.004	19.996	103.186	19.881	1.839	0.505
1110.000	630.619	80.005	19.996	103.186	19.882	1.819	0.466
1111.999	631.686	80.004	19.995	103.194	19.885	1.573	0.494
1113.999	632.677	80.004	19.995	103.196	19.884	1.675	0.499
1115.999	633.646	80.005	19.998	103.192	19.886	1.535	0.501
1117.999	634.712	80.003	19.994	103.189	19.887	1.411	0.490
1119.999	635.767	80.004	19.995	103.195	19.890	1.222	0.490
1121.999	636.804	80.005	19.997	103.190	19.887	1.461	0.531
1123.999	637.796	80.004	19.995	103.190	19.887	1.435	0.504
1126.000	638.875	80.004	19.995	103.193	19.889	1.270	0.550
1127.999	639.865	80.003	19.995	103.185	19.888	1.342	0.477
1129.999	640.912	80.004	19.997	103.186	19.888	1.372	0.521
1131.999	641.882	80.003	19.995	103.191	19.889	1.295	0.500
1134.000	642.927	80.003	19.998	103.191	19.890	1.220	0.509
1136.000	643.933	80.002	19.997	103.182	19.884	1.644	0.479
1137.999	644.944	80.002	19.994	103.192	19.891	1.148	0.501
1139.999	645.935	80.003	19.996	103.182	19.887	1.457	0.485
1141.999	646.968	80.005	19.995	103.185	19.889	1.268	0.520
1144.000	647.979	80.005	19.994	103.182	19.890	1.189	0.500
1145.999	648.983	80.006	19.995	103.182	19.890	1.181	0.508
1148.000	649.992	80.006	19.997	103.182	19.891	1.122	0.502
1150.000	650.998	80.004	19.997	103.185	19.888	1.364	0.513
1151.999	652.006	80.008	19.995	103.183	19.888	1.350	0.553
1153.999	653.019	80.006	19.996	103.188	19.886	1.470	0.518
1155.999	654.049	80.006	19.995	103.188	19.888	1.352	0.535
1157.999	655.068	80.006	19.994	103.182	19.888	1.338	0.517
1159.999	656.073	80.006	19.996	103.186	19.891	1.120	0.521
1162.000	657.090	80.006	19.994	103.184	19.890	1.250	0.492
1163.999	658.109	80.005	19.996	103.186	19.893	0.986	0.522
1165.999	659.088	80.004	19.996	103.187	19.891	1.152	0.501
1167.999	660.094	80.005	19.996	103.186	19.891	1.126	0.500
1169.999	661.126	80.005	19.993	103.187	19.893	0.980	0.524
1171.999	662.103	80.006	19.996	103.192	19.892	1.104	0.510
1173.999	663.125	80.007	19.993	103.205	19.892	1.039	0.518
1175.999	664.155	80.007	19.994	103.185	19.890	1.238	0.508
1178.000	665.133	80.005	19.996	103.195	19.890	1.230	0.482
1179.999	666.156	80.005	19.994	103.191	19.890	1.234	0.514
1181.999	667.169	80.005	19.997	103.185	19.891	1.167	0.511
1183.999	668.158	80.004	19.992	103.191	19.893	0.978	0.498
1185.999	669.180	80.003	19.993	103.195	19.893	0.978	0.455
1187.999	670.195	80.003	19.995	103.191	19.890	1.207	0.495
1189.999	671.215	80.002	19.994	103.187	19.889	1.321	0.521
1192.000	672.220	80.005	19.996	103.183	19.893	0.966	0.496
1194.000	673.226	80.003	19.995	103.187	19.893	0.998	0.506
1195.999	674.313	80.004	19.995	103.186	19.892	1.041	0.520
1197.999	675.364	80.004	19.997	103.186	19.888	1.372	0.511
1199.999	676.374	80.003	19.997	103.182	19.891	1.110	0.501
1201.999	677.357	80.005	19.995	103.182	19.889	1.295	0.489
1204.000	678.386	80.005	19.995	103.180	19.889	1.268	0.511
1205.999	679.383	80.004	19.996	103.180	19.890	1.220	0.512
1207.999	680.398	80.004	19.997	103.179	19.892	1.051	0.505
1209.999	681.395	80.005	19.995	103.183	19.893	0.978	0.481
1211.999	682.410	80.004	19.993	103.183	19.893	0.976	0.525
1214.000	683.427	80.004	19.996	103.183	19.894	0.901	0.508
1215.999	684.426	80.004	19.996	103.183	19.894	0.903	0.499
1218.000	685.438	80.004	19.995	103.183	19.892	1.100	0.521
1219.999	686.452	80.004	19.995	103.181	19.889	1.295	0.532
1222.000	687.470	80.003	19.996	103.180	19.886	1.494	0.522
1224.001	688.484	80.003	19.996	103.182	19.890	1.199	0.501
1226.000	689.511	80.004	19.997	103.181	19.889	1.291	0.501
1227.999	690.526	80.004	19.998	103.182	19.894	0.953	0.501
1230.000	691.502	80.005	19.997	103.183	19.892	1.043	0.510
1232.000	692.512	80.005	19.995	103.183	19.891	1.149	0.489
1234.000	693.531	80.004	19.995	103.183	19.893	1.004	0.475
1236.000	694.552	80.005	19.995	103.183	19.892	1.055	0.528
1238.000	695.589	80.004	19.996	103.183	19.889	1.287	0.532
1240.000	696.608	80.004	19.996	103.183	19.892	1.041	0.545
1242.000	697.648	80.004	19.996	103.182	19.892	1.077	0.515
1244.000	698.654	80.005	19.995	103.185	19.889	1.297	0.523
1246.000	699.683	80.005	19.996	103.182	19.892	1.073	0.502
1248.000	700.698	80.004	19.996	103.185	19.891	1.110	0.528
1250.000	701.699	80.006	19.994	103.186	19.891	1.138	0.509
1252.000	702.726	80.006	19.996	103.183	19.892	1.045	0.532
1254.000	703.716	80.007	19.994	103.184	19.892	1.083	0.515
1256.001	704.724	80.007	19.995	103.184	19.892	1.041	0.498
1258.000	705.696	80.008	19.995	103.181	19.896	0.807	0.488
1260.000	706.682	80.007	19.995	103.180	19.894	0.917	0.485
1262.000	707.637	80.005	19.993	103.180	19.889	1.264	0.486
1264.000	708.663	80.006	19.996	103.180	19.890	1.189	0.515
1266.000	709.671	80.005	19.996	103.181	19.892	1.075	0.497
1268.000	710.638	80.004	19.996	103.180	19.887	1.441	0.490
1270.000	711.593	80.004	19.995	103.183	19.891	1.173	0.478
1272.000	712.603	80.004	19.995	103.182	19.894	0.909	0.482
1274.000	713.542	80.004	19.994	103.181	19.891	1.142	0.486
1276.000	714.495	80.005	19.996	103.182	19.890	1.236	0.465
1278.000	715.526	80.004	19.994	103.183	19.892	1.053	0.498
1280.000	716.517	80.005	19.994	103.180	19.893	1.002	0.497
1282.000	717.462	80.005	19.995	103.177	19.892	1.067	0.473
1284.000	718.456	80.004	19.995	103.180	19.886	1.490	0.457
1286.000	719.467	80.005	19.995	103.179	19.891	1.126	0.458
1288.000	720.430	80.004	19.996	103.180	19.888	1.368	0.484
1290.000	721.407	80.005	19.995	103.180	19.889	1.254	0.477
1292.000	722.395	80.005	19.993	103.174	19.888	1.376	0.491
1294.000	723.383	80.004	19.994	103.171	19.889	1.283	0.486
1296.000	724.420	80.004	19.996	103.176	19.889	1.305	0.496
1298.000	725.376	80.003	19.995	103.184	19.892	1.047	0.463
1300.000	726.376	80.004	19.997	103.187	19.887	1.396	0.490
1302.000	727.388	80.004	19.995	103.185	19.887	1.398	0.488
1304.000	728.410	80.004	19.997	103.181	19.890	1.224	0.481
1306.000	729.419	80.005	19.994	103.180	19.889	1.285	0.520
1308.000	730.450	80.005	19.995	103.184	19.885	1.604	0.519
1310.001	731.452	80.005	19.995	103.185	19.889	1.299	0.507
1312.000	732.441	80.006	19.995	103.185	19.888	1.364	0.502
1314.000	733.513	80.006	19.995	103.186	19.890	1.234	0.513
1316.000	734.546	80.005	19.995	103.182	19.888	1.366	0.513
1318.000	735.566	80.005	19.995	103.184	19.888	1.384	0.503
1320.000	736.581	80.006	19.995	103.184	19.889	1.311	0.500
1322.000	737.569	80.005	19.995	103.184	19.885	1.551	0.510
1324.000	738.600	80.005	19.995	103.174	19.887	1.466	0.535
1326.000	739.663	80.005	19.996	103.179	19.888	1.332	0.528
1328.000	740.662	80.006	19.996	103.179	19.887	1.441	0.515
1330.000	741.719	80.007	19.996	103.176	19.886	1.490	0.542
1332.000	742.749	80.006	19.996	103.180	19.889	1.311	0.518
1333.500	743.539	80.006	19.993	103.179	19.886	1.494	0.526