File: 01_Data/PVC_Pipe/MCC/PVC_Pipe_MCC_30K_min_211119_R3.txt
Sample ID:	C:\MCC\MCC Cal\Test\PVC_Pipe_MCC_30K_min_211119_R3.txt
Sample Weight (mg):	4.28
Heating Rate (C/s):	0.5
Combustor Temp (C):	900
N2 Flow Rate (cc/min):	80
O2 Flow Rate (cc/min):	20
Calibration File:	C:\MCC\MCC Cal\Coeff1 JN10440_30_210304.txt.txt
T Correction Coefficients:	0	1.024463	0
Time Shift (s):	14
*
Time (s)	Temperature (C)	N2 flow rate (cc/min)	O2 flow rate (cc/min)	Flow Rate (cc/min)	Oxygen (%)	HRR (W/g)	Heating rate (C/s)
0.000	108.904	80.003	19.994	103.075	20.158	-0.206	-0.011
2.000	108.898	80.004	19.995	103.060	20.158	-0.192	-0.013
4.000	108.873	80.003	19.995	103.069	20.157	-0.122	-0.020
6.000	108.895	80.002	19.995	103.063	20.156	-0.051	0.016
8.000	108.885	80.003	19.994	103.065	20.152	0.239	-0.009
9.999	108.867	80.004	19.994	103.071	20.156	-0.061	-0.026
11.999	108.905	80.003	19.994	103.098	20.153	0.182	-0.001
13.999	108.918	80.002	19.996	103.111	20.149	0.478	0.042
15.999	108.919	80.003	19.996	103.111	20.151	0.351	0.004
18.000	108.944	80.003	19.996	103.135	20.151	0.341	0.011
19.999	108.981	80.003	19.996	103.142	20.145	0.784	0.028
21.999	109.057	80.004	19.998	103.167	20.141	1.089	0.029
23.999	109.133	80.005	19.996	103.185	20.137	1.393	0.024
26.000	109.238	80.006	19.995	103.212	20.136	1.483	0.038
27.999	109.394	80.003	19.996	103.216	20.134	1.626	0.095
30.000	109.571	80.004	19.995	103.216	20.127	2.145	0.092
31.999	109.692	80.003	19.994	103.218	20.129	2.019	0.101
33.999	109.916	80.004	19.994	103.224	20.125	2.292	0.100
35.999	110.124	80.003	19.994	103.226	20.126	2.248	0.104
37.999	110.380	80.003	19.994	103.226	20.123	2.475	0.110
39.999	110.640	80.004	19.993	103.237	20.125	2.311	0.138
42.000	110.946	80.004	19.994	103.251	20.122	2.549	0.139
44.000	111.262	80.005	19.993	103.250	20.122	2.506	0.134
45.999	111.647	80.004	19.994	103.258	20.121	2.577	0.170
47.999	111.994	80.005	19.994	103.279	20.117	2.933	0.177
50.000	112.370	80.006	19.994	103.280	20.117	2.870	0.177
51.999	112.787	80.005	19.994	103.281	20.113	3.193	0.224
53.999	113.241	80.003	19.994	103.308	20.114	3.138	0.245
55.999	113.668	80.003	19.993	103.307	20.109	3.471	0.246
57.999	114.155	80.002	19.993	103.300	20.111	3.334	0.261
60.000	114.690	80.002	19.995	103.299	20.108	3.546	0.272
61.999	115.240	80.002	19.995	103.299	20.108	3.581	0.268
63.999	115.749	80.003	19.995	103.303	20.107	3.676	0.280
65.999	116.320	80.003	19.995	103.307	20.108	3.544	0.294
67.999	116.900	80.002	19.994	103.312	20.108	3.540	0.292
70.000	117.511	80.004	19.994	103.301	20.108	3.599	0.320
71.999	118.126	80.004	19.994	103.299	20.107	3.649	0.299
73.999	118.753	80.004	19.994	103.252	20.109	3.498	0.309
75.999	119.440	80.004	19.995	103.256	20.107	3.684	0.343
77.999	120.060	80.004	19.995	103.379	20.109	3.508	0.332
79.999	120.722	80.003	19.994	103.308	20.105	3.776	0.352
82.000	121.408	80.005	19.995	103.298	20.107	3.655	0.342
83.999	122.136	80.002	19.995	103.300	20.106	3.715	0.347
86.000	122.833	80.003	19.995	103.311	20.106	3.750	0.353
87.999	123.564	80.002	19.995	103.311	20.105	3.802	0.349
89.999	124.308	80.003	19.994	103.328	20.105	3.799	0.388
91.999	125.079	80.004	19.995	103.326	20.102	4.052	0.417
93.999	125.762	80.003	19.994	103.318	20.103	3.970	0.346
95.999	126.545	80.003	19.995	103.338	20.102	4.050	0.357
98.000	127.350	80.003	19.995	103.346	20.101	4.114	0.413
99.999	128.159	80.002	19.995	103.349	20.101	4.067	0.418
102.000	128.983	80.003	19.994	103.333	20.101	4.099	0.407
103.999	129.814	80.004	19.994	103.331	20.105	3.805	0.412
105.999	130.646	80.005	19.995	103.326	20.102	4.022	0.416
107.999	131.517	80.004	19.995	103.329	20.099	4.220	0.446
110.000	132.274	80.003	19.995	103.333	20.102	4.040	0.395
112.000	133.177	80.003	19.996	103.329	20.100	4.153	0.426
113.999	134.054	80.003	19.995	103.331	20.106	3.698	0.464
116.000	134.901	80.003	19.994	103.332	20.102	4.054	0.406
117.999	135.778	80.002	19.995	103.332	20.102	4.012	0.454
120.000	136.653	80.001	19.995	103.328	20.099	4.218	0.467
121.999	137.561	80.003	19.994	103.332	20.101	4.106	0.462
124.000	138.456	80.003	19.994	103.334	20.102	4.033	0.478
125.999	139.396	80.004	19.995	103.319	20.100	4.164	0.473
127.999	140.331	80.004	19.994	103.333	20.102	4.011	0.488
130.000	141.213	80.005	19.994	103.339	20.102	4.016	0.430
132.000	142.145	80.006	19.994	103.335	20.100	4.202	0.473
134.000	143.040	80.005	19.993	103.328	20.099	4.287	0.440
136.000	143.993	80.005	19.994	103.308	20.103	3.951	0.479
138.000	144.941	80.004	19.994	103.306	20.102	4.039	0.467
140.000	145.910	80.003	19.995	103.322	20.102	4.051	0.466
142.000	146.846	80.003	19.994	103.329	20.102	4.022	0.512
144.000	147.779	80.003	19.995	103.319	20.103	3.983	0.479
146.000	148.718	80.003	19.994	103.299	20.102	4.031	0.450
148.000	149.651	80.003	19.994	103.308	20.100	4.152	0.491
150.000	150.631	80.003	19.994	103.302	20.104	3.913	0.469
152.000	151.560	80.002	19.995	103.314	20.102	4.038	0.470
154.000	152.551	80.004	19.995	103.333	20.101	4.138	0.476
156.000	153.487	80.002	19.994	103.313	20.097	4.435	0.457
158.000	154.442	80.004	19.994	103.301	20.097	4.396	0.468
160.000	155.378	80.005	19.994	103.325	20.102	4.048	0.458
162.000	156.370	80.003	19.995	103.319	20.103	3.989	0.489
164.000	157.347	80.004	19.994	103.323	20.100	4.205	0.531
166.000	158.313	80.003	19.995	103.335	20.100	4.215	0.502
168.000	159.268	80.003	19.995	103.336	20.104	3.858	0.496
170.000	160.212	80.001	19.994	103.332	20.096	4.481	0.466
172.000	161.246	80.002	19.995	103.313	20.099	4.221	0.494
174.000	162.217	80.003	19.994	103.324	20.098	4.302	0.484
176.000	163.262	80.001	19.994	103.300	20.098	4.292	0.529
178.000	164.213	80.003	19.995	103.329	20.096	4.456	0.459
180.000	165.244	80.002	19.995	103.322	20.096	4.512	0.545
182.000	166.235	80.002	19.995	103.303	20.094	4.606	0.487
184.000	167.186	80.004	19.995	103.294	20.097	4.389	0.472
186.000	168.214	80.003	19.995	103.298	20.096	4.452	0.495
188.000	169.205	80.004	19.995	103.301	20.099	4.218	0.510
190.000	170.223	80.004	19.993	103.303	20.101	4.104	0.488
192.000	171.207	80.004	19.994	103.328	20.103	3.943	0.475
194.000	172.191	80.003	19.995	103.319	20.103	3.961	0.477
196.000	173.207	80.004	19.995	103.315	20.100	4.145	0.510
198.000	174.217	80.003	19.995	103.283	20.101	4.123	0.527
200.000	175.194	80.004	19.995	103.280	20.099	4.270	0.471
202.000	176.275	80.003	19.995	103.296	20.103	3.973	0.506
204.000	177.282	80.004	19.996	103.300	20.099	4.253	0.531
206.000	178.277	80.004	19.995	103.301	20.102	4.034	0.492
208.000	179.271	80.005	19.995	103.293	20.099	4.257	0.505
210.000	180.259	80.004	19.995	103.315	20.101	4.109	0.486
212.000	181.281	80.004	19.996	103.294	20.099	4.277	0.492
214.000	182.293	80.004	19.995	103.282	20.101	4.125	0.504
216.000	183.296	80.005	19.996	103.271	20.098	4.356	0.499
218.000	184.269	80.006	19.994	103.275	20.098	4.348	0.506
220.000	185.316	80.004	19.995	103.292	20.099	4.285	0.526
222.000	186.332	80.005	19.994	103.333	20.099	4.257	0.511
224.000	187.357	80.003	19.994	103.278	20.098	4.338	0.491
226.000	188.331	80.004	19.994	103.242	20.096	4.508	0.507
228.000	189.359	80.005	19.994	103.259	20.094	4.629	0.506
230.000	190.409	80.002	19.995	103.273	20.100	4.201	0.516
232.000	191.424	80.003	19.995	103.282	20.098	4.316	0.513
234.000	192.440	80.003	19.994	103.273	20.098	4.296	0.517
236.000	193.433	80.003	19.993	103.268	20.101	4.117	0.506
238.000	194.457	80.003	19.995	103.281	20.095	4.575	0.500
240.000	195.432	80.003	19.994	103.284	20.100	4.152	0.494
242.000	196.424	80.004	19.994	103.269	20.100	4.209	0.491
244.000	197.401	80.003	19.994	103.288	20.104	3.896	0.483
246.000	198.384	80.003	19.994	103.271	20.102	4.009	0.502
248.000	199.382	80.004	19.995	103.263	20.100	4.150	0.486
250.000	200.409	80.003	19.994	103.261	20.098	4.303	0.499
252.000	201.365	80.003	19.994	103.264	20.103	3.950	0.497
254.000	202.400	80.002	19.994	103.260	20.103	3.972	0.497
256.000	203.376	80.002	19.995	103.259	20.099	4.218	0.490
258.000	204.329	80.003	19.994	103.250	20.098	4.342	0.485
260.000	205.313	80.001	19.994	103.258	20.097	4.438	0.498
262.000	206.328	80.003	19.993	103.262	20.095	4.580	0.496
264.000	207.304	80.002	19.994	103.260	20.095	4.555	0.482
266.000	208.262	80.005	19.994	103.269	20.095	4.525	0.483
268.000	209.330	80.004	19.995	103.267	20.095	4.523	0.498
270.000	210.290	80.004	19.995	103.264	20.096	4.462	0.520
272.000	211.293	80.004	19.995	103.289	20.090	4.912	0.512
274.000	212.249	80.005	19.995	103.289	20.089	5.032	0.490
276.000	213.222	80.004	19.995	103.262	20.088	5.088	0.466
278.000	214.252	80.004	19.996	103.234	20.087	5.171	0.526
280.000	215.217	80.003	19.994	103.254	20.083	5.424	0.479
282.000	216.225	80.003	19.995	103.257	20.083	5.465	0.499
284.000	217.178	80.003	19.995	103.255	20.077	5.899	0.489
286.000	218.157	80.003	19.995	103.262	20.080	5.708	0.468
288.000	219.168	80.004	19.995	103.256	20.077	5.869	0.497
290.000	220.100	80.005	19.995	103.251	20.076	6.017	0.500
292.000	221.102	80.004	19.995	103.248	20.074	6.119	0.467
294.000	222.090	80.005	19.994	103.257	20.073	6.236	0.489
296.000	223.108	80.005	19.993	103.250	20.070	6.422	0.517
298.000	224.041	80.005	19.994	103.236	20.065	6.806	0.461
300.000	225.031	80.005	19.994	103.249	20.063	6.982	0.489
302.000	226.028	80.003	19.995	103.254	20.060	7.164	0.510
304.000	227.034	80.003	19.995	103.257	20.064	6.916	0.498
306.000	227.989	80.002	19.995	103.264	20.061	7.101	0.512
308.000	229.010	80.003	19.995	103.266	20.062	7.037	0.505
310.000	230.014	80.001	19.995	103.263	20.062	7.050	0.485
312.000	231.031	80.001	19.995	103.258	20.061	7.127	0.500
314.000	232.008	80.003	19.994	103.260	20.061	7.130	0.495
316.000	233.011	80.003	19.995	103.250	20.061	7.149	0.488
318.000	234.009	80.002	19.995	103.259	20.059	7.239	0.516
320.000	234.948	80.002	19.994	103.267	20.061	7.090	0.492
322.000	235.923	80.003	19.994	103.261	20.063	6.991	0.467
324.000	236.939	80.002	19.993	103.257	20.064	6.912	0.490
326.000	237.950	80.003	19.995	103.251	20.068	6.600	0.486
328.000	238.923	80.003	19.995	103.259	20.066	6.711	0.492
330.000	239.909	80.003	19.994	103.264	20.068	6.548	0.463
332.000	240.890	80.003	19.994	103.259	20.068	6.552	0.487
334.000	241.862	80.003	19.994	103.232	20.067	6.696	0.479
336.000	242.852	80.003	19.995	103.229	20.064	6.922	0.486
338.000	243.872	80.003	19.994	103.230	20.063	6.934	0.492
340.000	244.851	80.003	19.995	103.250	20.060	7.211	0.474
342.000	245.858	80.001	19.995	103.259	20.060	7.179	0.497
344.000	246.852	80.002	19.995	103.248	20.058	7.315	0.493
346.000	247.812	80.003	19.995	103.245	20.058	7.302	0.462
348.000	248.828	80.003	19.994	103.258	20.061	7.145	0.492
350.000	249.842	80.003	19.994	103.249	20.058	7.363	0.520
352.000	250.875	80.005	19.995	103.241	20.057	7.390	0.527
354.000	251.843	80.004	19.994	103.248	20.057	7.429	0.503
356.000	252.869	80.005	19.993	103.244	20.054	7.628	0.495
358.000	253.858	80.005	19.993	103.257	20.056	7.517	0.520
360.000	254.876	80.003	19.995	103.254	20.054	7.650	0.493
362.000	255.867	80.005	19.994	103.249	20.052	7.803	0.503
364.000	256.861	80.003	19.993	103.251	20.051	7.848	0.496
366.000	257.852	80.003	19.994	103.254	20.044	8.389	0.517
368.000	258.856	80.003	19.994	103.228	20.044	8.393	0.503
370.000	259.864	80.004	19.995	103.232	20.047	8.201	0.498
372.000	260.846	80.003	19.994	103.248	20.043	8.461	0.488
374.000	261.867	80.004	19.994	103.257	20.041	8.606	0.524
376.000	262.828	80.004	19.995	103.256	20.039	8.734	0.468
378.000	263.837	80.004	19.994	103.251	20.036	8.978	0.505
380.000	264.867	80.007	19.995	103.258	20.034	9.137	0.548
382.000	265.876	80.005	19.994	103.259	20.035	9.050	0.528
384.000	266.892	80.005	19.993	103.260	20.038	8.816	0.509
386.000	267.904	80.004	19.993	103.257	20.034	9.123	0.512
388.000	268.924	80.003	19.995	103.252	20.040	8.729	0.519
390.000	269.942	80.002	19.994	103.261	20.040	8.721	0.508
392.000	270.943	80.002	19.995	103.261	20.042	8.556	0.590
394.000	271.933	80.002	19.994	103.277	20.037	8.886	0.397
396.000	273.231	80.004	19.996	103.265	20.038	8.819	0.477
398.000	273.968	80.002	19.996	103.258	20.036	8.993	0.411
400.000	275.062	80.002	19.995	103.264	20.033	9.210	0.467
402.000	276.062	80.002	19.996	103.268	20.037	8.893	0.530
404.000	277.082	80.004	19.995	103.269	20.034	9.177	0.536
406.000	278.099	80.003	19.995	103.289	20.030	9.432	0.529
408.000	279.077	80.003	19.995	103.290	20.026	9.731	0.525
410.000	280.079	80.004	19.996	103.291	20.027	9.663	0.501
412.000	281.102	80.003	19.995	103.307	20.023	9.969	0.524
414.000	282.054	80.004	19.995	103.325	20.023	10.010	0.452
416.000	283.060	80.003	19.993	103.319	20.017	10.463	0.502
418.000	284.056	80.004	19.995	103.334	20.016	10.501	0.494
420.000	285.082	80.003	19.995	103.335	20.011	10.910	0.513
422.000	286.037	80.003	19.995	103.342	20.004	11.441	0.494
424.000	287.039	80.002	19.996	103.361	19.998	11.858	0.501
426.000	288.055	80.002	19.995	103.387	19.994	12.200	0.481
428.000	289.027	80.002	19.995	103.412	19.986	12.816	0.500
430.000	290.022	80.002	19.995	103.442	19.976	13.567	0.516
432.000	291.045	80.003	19.995	103.487	19.963	14.511	0.498
434.000	292.038	80.004	19.994	103.543	19.950	15.489	0.513
436.000	293.025	80.004	19.994	103.603	19.938	16.403	0.507
438.000	294.032	80.004	19.995	103.667	19.922	17.626	0.500
440.000	295.035	80.004	19.994	103.714	19.910	18.454	0.499
442.000	295.994	80.005	19.993	103.710	19.900	19.221	0.469
444.000	297.002	80.004	19.994	103.651	19.888	20.051	0.524
446.000	297.949	80.003	19.994	103.553	19.882	20.529	0.467
448.000	298.964	80.004	19.993	103.433	19.876	20.947	0.494
450.000	299.971	80.004	19.994	103.312	19.877	20.884	0.498
452.000	300.962	80.004	19.993	103.178	19.877	20.914	0.497
454.000	301.948	80.004	19.994	103.073	19.881	20.651	0.467
456.000	302.977	80.004	19.995	102.989	19.888	20.076	0.517
458.000	303.963	80.004	19.994	102.970	19.893	19.738	0.491
460.000	304.999	80.005	19.995	102.979	19.903	19.029	0.535
462.000	305.981	80.006	19.994	103.007	19.910	18.435	0.530
464.000	306.990	80.005	19.995	103.047	19.920	17.746	0.511
466.000	307.983	80.007	19.995	103.111	19.927	17.224	0.486
468.000	308.996	80.005	19.995	103.165	19.935	16.581	0.541
470.000	310.029	80.003	19.995	103.191	19.939	16.253	0.543
472.000	311.033	80.002	19.997	103.215	19.945	15.860	0.492
474.000	312.053	80.002	19.995	103.219	19.948	15.590	0.509
476.000	313.105	80.003	19.995	103.219	19.957	14.965	0.505
478.000	314.097	80.003	19.995	103.223	19.954	15.195	0.497
480.000	315.146	80.003	19.996	103.230	19.959	14.758	0.515
482.000	316.199	80.004	19.996	103.225	19.966	14.239	0.536
484.000	317.221	80.003	19.995	103.221	19.972	13.801	0.540
486.000	318.244	80.002	19.995	103.221	19.975	13.566	0.535
488.000	319.236	80.003	19.995	103.218	19.978	13.362	0.496
490.000	320.237	80.002	19.996	103.218	19.980	13.179	0.490
492.000	321.255	80.002	19.996	103.214	19.987	12.666	0.494
494.000	322.306	80.002	19.995	103.214	19.988	12.586	0.534
496.000	323.301	80.003	19.995	103.208	19.995	12.068	0.507
498.000	324.359	80.003	19.996	103.211	19.997	11.885	0.503
500.000	325.377	80.003	19.996	103.207	20.003	11.436	0.511
502.000	326.358	80.003	19.997	103.214	20.004	11.366	0.490
504.000	327.332	80.003	19.995	103.197	20.010	10.937	0.496
506.000	328.333	80.003	19.995	103.194	20.012	10.779	0.465
508.000	329.336	80.002	19.994	103.192	20.014	10.658	0.510
510.000	330.289	80.003	19.994	103.185	20.017	10.450	0.493
512.000	331.303	80.003	19.995	103.189	20.020	10.169	0.487
514.000	332.265	80.004	19.994	103.207	20.022	10.038	0.484
516.000	333.299	80.003	19.994	103.198	20.026	9.744	0.503
518.000	334.285	80.004	19.995	103.195	20.025	9.824	0.476
520.000	335.272	80.003	19.994	103.209	20.026	9.746	0.495
522.000	336.226	80.004	19.994	103.204	20.031	9.348	0.447
524.000	337.216	80.003	19.994	103.192	20.029	9.493	0.499
526.000	338.260	80.006	19.994	103.199	20.036	9.019	0.516
528.000	339.241	80.005	19.995	103.202	20.035	9.085	0.494
530.000	340.210	80.005	19.996	103.211	20.039	8.746	0.480
532.000	341.217	80.005	19.994	103.216	20.039	8.789	0.503
534.000	342.182	80.004	19.995	103.216	20.037	8.942	0.496
536.000	343.176	80.004	19.993	103.216	20.038	8.823	0.474
538.000	344.128	80.004	19.995	103.218	20.041	8.584	0.470
540.000	345.123	80.004	19.995	103.219	20.040	8.719	0.500
542.000	346.102	80.007	19.993	103.220	20.042	8.545	0.476
544.000	347.044	80.007	19.994	103.222	20.045	8.332	0.485
546.000	348.053	80.007	19.994	103.219	20.043	8.459	0.478
548.000	348.986	80.006	19.994	103.218	20.043	8.446	0.451
550.000	349.981	80.006	19.994	103.220	20.045	8.293	0.498
552.000	350.962	80.006	19.995	103.218	20.042	8.524	0.486
554.000	351.920	80.006	19.994	103.230	20.045	8.334	0.508
556.000	352.929	80.004	19.996	103.231	20.049	8.036	0.509
558.000	353.894	80.003	19.995	103.252	20.047	8.155	0.496
560.000	354.882	80.003	19.995	103.256	20.046	8.274	0.486
562.000	355.809	80.004	19.996	103.258	20.048	8.086	0.477
564.000	356.806	80.003	19.995	103.259	20.048	8.068	0.476
566.000	357.817	80.001	19.996	103.262	20.047	8.147	0.521
568.000	358.788	80.001	19.994	103.263	20.046	8.249	0.502
570.000	359.793	80.001	19.995	103.273	20.045	8.288	0.500
572.000	360.818	80.001	19.995	103.270	20.051	7.880	0.534
574.000	361.775	80.002	19.994	103.272	20.048	8.117	0.507
576.000	362.779	80.004	19.995	103.294	20.047	8.156	0.493
578.000	363.748	80.004	19.994	103.297	20.051	7.836	0.503
580.000	364.752	80.003	19.995	103.297	20.049	8.027	0.512
582.000	365.797	80.003	19.996	103.299	20.048	8.122	0.521
584.000	366.735	80.004	19.995	103.305	20.047	8.181	0.498
586.000	367.734	80.002	19.995	103.299	20.045	8.308	0.490
588.000	368.726	80.003	19.996	103.311	20.048	8.107	0.453
590.000	369.774	80.001	19.996	103.326	20.046	8.260	0.483
592.000	370.785	80.002	19.996	103.337	20.043	8.446	0.515
594.000	371.803	80.001	19.995	103.336	20.044	8.367	0.510
596.000	372.802	80.001	19.995	103.326	20.043	8.473	0.515
598.000	373.851	80.003	19.996	103.314	20.044	8.363	0.519
600.000	374.876	80.002	19.994	103.334	20.041	8.593	0.511
602.000	375.907	80.002	19.996	103.322	20.038	8.873	0.517
604.000	376.922	80.003	19.996	103.301	20.037	8.891	0.514
606.000	377.917	80.004	19.995	103.330	20.034	9.144	0.515
608.000	378.927	80.005	19.995	103.324	20.032	9.268	0.509
610.000	379.969	80.005	19.995	103.296	20.029	9.509	0.537
612.000	380.975	80.003	19.995	103.302	20.028	9.576	0.526
614.000	381.981	80.004	19.994	103.303	20.027	9.665	0.498
616.000	383.025	80.002	19.995	103.319	20.026	9.741	0.520
618.000	384.036	80.005	19.994	103.307	20.020	10.196	0.486
620.000	385.073	80.005	19.994	103.302	20.017	10.436	0.497
622.000	386.073	80.005	19.995	103.303	20.017	10.420	0.517
624.000	387.090	80.005	19.994	103.303	20.013	10.723	0.482
626.000	388.166	80.006	19.995	103.307	20.012	10.804	0.539
628.000	389.188	80.004	19.995	103.314	20.007	11.182	0.517
630.000	390.212	80.006	19.996	103.304	20.005	11.352	0.517
632.000	391.225	80.005	19.993	103.329	19.997	11.902	0.499
634.000	392.291	80.006	19.994	103.305	19.993	12.231	0.537
636.000	393.305	80.005	19.993	103.297	19.986	12.792	0.514
638.000	394.398	80.005	19.993	103.297	19.984	12.889	0.508
640.000	395.444	80.005	19.994	103.296	19.980	13.242	0.518
642.000	396.441	80.004	19.993	103.297	19.969	14.036	0.504
644.000	397.487	80.002	19.994	103.298	19.962	14.557	0.507
646.000	398.507	80.003	19.994	103.300	19.954	15.195	0.480
648.000	399.545	80.003	19.994	103.290	19.951	15.413	0.507
650.000	400.611	80.002	19.994	103.293	19.942	16.052	0.525
652.000	401.622	80.004	19.994	103.297	19.930	16.943	0.537
654.000	402.667	80.003	19.994	103.296	19.924	17.432	0.520
656.000	403.699	80.004	19.995	103.297	19.915	18.111	0.517
658.000	404.651	80.004	19.994	103.307	19.907	18.680	0.490
660.000	405.668	80.004	19.996	103.315	19.895	19.640	0.497
662.000	406.746	80.004	19.996	103.304	19.887	20.249	0.546
664.000	407.762	80.004	19.992	103.285	19.875	21.146	0.532
666.000	408.741	80.003	19.996	103.279	19.871	21.416	0.488
668.000	409.756	80.003	19.995	103.291	19.846	23.317	0.537
670.000	410.764	80.003	19.994	103.313	19.837	23.962	0.501
672.000	411.765	80.004	19.995	103.296	19.822	25.146	0.496
674.000	412.779	80.002	19.994	103.288	19.811	25.899	0.497
676.000	413.738	80.003	19.995	103.282	19.793	27.315	0.493
678.000	414.767	80.004	19.995	103.280	19.779	28.304	0.498
680.000	415.697	80.004	19.995	103.292	19.760	29.745	0.461
682.000	416.726	80.003	19.996	103.284	19.747	30.729	0.509
684.000	417.735	80.003	19.996	103.279	19.730	32.059	0.539
686.000	418.806	80.005	19.995	103.262	19.708	33.718	0.470
688.000	419.865	80.004	19.994	103.257	19.690	35.029	0.551
690.000	420.839	80.005	19.994	103.257	19.672	36.423	0.526
692.000	421.839	80.004	19.998	103.264	19.654	37.760	0.505
694.000	422.864	80.004	19.996	103.271	19.637	39.051	0.526
696.000	423.845	80.005	19.997	103.277	19.616	40.600	0.534
698.000	424.814	80.005	19.995	103.287	19.600	41.820	0.494
700.000	425.834	80.003	19.995	103.293	19.577	43.522	0.514
702.000	426.849	80.005	19.996	103.288	19.558	44.964	0.491
704.000	427.837	80.004	19.995	103.269	19.534	46.773	0.510
706.000	428.903	80.005	19.994	103.280	19.518	47.962	0.530
708.000	429.859	80.005	19.995	103.261	19.496	49.634	0.507
710.000	430.845	80.003	19.993	103.283	19.479	50.912	0.501
712.000	431.852	80.006	19.994	103.265	19.463	52.169	0.507
714.000	432.844	80.007	19.996	103.280	19.445	53.482	0.508
716.000	433.864	80.005	19.993	103.270	19.424	55.078	0.517
718.000	434.863	80.005	19.995	103.279	19.406	56.390	0.519
720.000	435.835	80.006	19.995	103.266	19.394	57.348	0.517
722.000	436.834	80.005	19.994	103.272	19.377	58.610	0.494
724.000	437.802	80.005	19.993	103.273	19.364	59.566	0.522
726.000	438.797	80.004	19.994	103.265	19.351	60.560	0.489
728.000	439.797	80.005	19.995	103.263	19.344	61.072	0.494
730.000	440.787	80.004	19.996	103.266	19.332	61.958	0.511
732.000	441.758	80.004	19.994	103.257	19.330	62.164	0.486
734.000	442.777	80.005	19.995	103.257	19.333	61.885	0.502
736.000	443.754	80.004	19.995	103.256	19.332	61.966	0.524
738.000	444.763	80.004	19.993	103.265	19.335	61.750	0.514
740.000	445.763	80.004	19.995	103.278	19.331	62.049	0.489
742.000	446.766	80.004	19.995	103.280	19.324	62.572	0.510
744.000	447.724	80.004	19.994	103.281	19.303	64.120	0.513
746.000	448.743	80.004	19.993	103.272	19.277	66.125	0.500
748.000	449.757	80.003	19.994	103.287	19.242	68.783	0.508
750.000	450.735	80.003	19.994	103.270	19.215	70.764	0.505
752.000	451.772	80.004	19.995	103.225	19.191	72.625	0.494
754.000	452.763	80.004	19.994	103.220	19.168	74.362	0.479
756.000	453.798	80.003	19.994	103.235	19.153	75.473	0.507
758.000	454.846	80.002	19.995	103.242	19.153	75.488	0.539
760.000	455.877	80.004	19.995	103.246	19.164	74.693	0.555
762.000	456.915	80.005	19.994	103.237	19.179	73.517	0.517
764.000	457.950	80.003	19.994	103.259	19.191	72.576	0.513
766.000	459.009	80.004	19.994	103.281	19.204	71.595	0.506
768.000	460.004	80.003	19.995	103.299	19.210	71.186	0.466
770.000	461.094	80.004	19.994	103.311	19.223	70.166	0.496
772.000	462.156	80.006	19.995	103.292	19.237	69.120	0.563
774.000	463.224	80.007	19.995	103.262	19.260	67.400	0.502
776.000	464.260	80.006	19.994	103.242	19.280	65.876	0.529
778.000	465.278	80.005	19.994	103.270	19.300	64.397	0.508
780.000	466.383	80.004	19.994	103.278	19.323	62.599	0.532
782.000	467.429	80.003	19.994	103.260	19.332	61.951	0.506
784.000	468.473	80.003	19.995	103.259	19.341	61.300	0.518
786.000	469.557	80.004	19.996	103.267	19.346	60.924	0.543
788.000	470.638	80.003	19.995	103.267	19.355	60.227	0.548
790.000	471.680	80.003	19.995	103.234	19.372	58.989	0.524
792.000	472.738	80.006	19.994	103.214	19.387	57.801	0.521
794.000	473.806	80.005	19.995	103.225	19.401	56.736	0.523
796.000	474.855	80.004	19.995	103.257	19.412	55.919	0.521
798.000	475.854	80.006	19.994	103.256	19.427	54.814	0.512
800.000	476.869	80.007	19.994	103.246	19.445	53.475	0.485
802.000	477.935	80.005	19.993	103.224	19.462	52.193	0.503
804.000	478.933	80.007	19.993	103.227	19.475	51.236	0.493
806.000	479.898	80.007	19.992	103.227	19.484	50.498	0.501
808.000	480.893	80.006	19.993	103.245	19.499	49.399	0.475
810.000	481.922	80.004	19.994	103.251	19.510	48.601	0.512
812.000	482.881	80.003	19.994	103.232	19.521	47.715	0.481
814.000	483.896	80.004	19.995	103.243	19.527	47.268	0.504
816.000	484.812	80.003	19.995	103.230	19.537	46.559	0.449
818.000	485.787	80.005	19.995	103.222	19.549	45.638	0.449
820.000	486.759	80.004	19.993	103.222	19.562	44.657	0.455
822.000	487.755	80.004	19.994	103.216	19.581	43.219	0.475
824.000	488.784	80.005	19.994	103.214	19.596	42.108	0.507
826.000	489.769	80.004	19.994	103.234	19.615	40.664	0.475
828.000	490.799	80.005	19.995	103.254	19.632	39.415	0.513
830.000	491.760	80.004	19.995	103.251	19.646	38.375	0.526
832.000	492.849	80.005	19.994	103.234	19.655	37.693	0.514
834.000	493.905	80.005	19.996	103.238	19.671	36.462	0.527
836.000	494.958	80.005	19.993	103.238	19.686	35.326	0.532
838.000	495.976	80.005	19.995	103.233	19.700	34.309	0.530
840.000	497.012	80.004	19.994	103.252	19.716	33.071	0.534
842.000	498.090	80.004	19.994	103.238	19.725	32.407	0.507
844.000	499.144	80.003	19.994	103.234	19.740	31.284	0.544
846.000	500.165	80.002	19.995	103.238	19.749	30.559	0.527
848.000	501.264	80.003	19.995	103.231	19.765	29.363	0.526
850.000	502.282	80.003	19.995	103.222	19.778	28.372	0.503
852.000	503.358	80.004	19.994	103.238	19.792	27.321	0.492
854.000	504.437	80.004	19.995	103.229	19.805	26.346	0.518
856.000	505.496	80.004	19.995	103.231	19.815	25.607	0.548
858.000	506.562	80.005	19.996	103.221	19.825	24.843	0.561
860.000	507.568	80.006	19.995	103.214	19.838	23.883	0.525
862.000	508.675	80.006	19.994	103.222	19.852	22.814	0.559
864.000	509.713	80.006	19.994	103.229	19.861	22.119	0.545
866.000	510.736	80.006	19.994	103.222	19.870	21.449	0.488
868.000	511.812	80.006	19.994	103.223	19.881	20.682	0.515
870.000	512.847	80.005	19.994	103.207	19.889	20.063	0.534
872.000	513.919	80.004	19.995	103.202	19.900	19.196	0.539
874.000	514.956	80.005	19.994	103.208	19.906	18.783	0.521
876.000	516.043	80.007	19.995	103.214	19.912	18.336	0.539
878.000	517.022	80.005	19.996	103.215	19.916	18.027	0.513
880.000	518.124	80.005	19.995	103.210	19.927	17.170	0.523
882.000	519.161	80.006	19.995	103.215	19.936	16.536	0.531
884.000	520.180	80.006	19.995	103.219	19.938	16.342	0.518
886.000	521.242	80.006	19.996	103.238	19.949	15.540	0.535
888.000	522.246	80.007	19.994	103.220	19.954	15.183	0.530
890.000	523.247	80.005	19.996	103.201	19.961	14.612	0.488
892.000	524.253	80.006	19.995	103.212	19.965	14.305	0.499
894.000	525.264	80.005	19.994	103.198	19.971	13.861	0.512
896.000	526.266	80.002	19.993	103.195	19.977	13.429	0.496
898.000	527.258	80.004	19.996	103.213	19.982	13.028	0.466
900.000	528.298	80.003	19.993	103.219	19.987	12.675	0.508
902.000	529.308	80.005	19.995	103.207	19.987	12.667	0.506
904.000	530.328	80.004	19.995	103.201	19.992	12.289	0.523
906.000	531.313	80.002	19.994	103.198	19.993	12.242	0.523
908.000	532.348	80.004	19.994	103.209	19.995	12.056	0.526
910.000	533.401	80.005	19.994	103.219	19.999	11.764	0.524
912.000	534.446	80.004	19.994	103.220	20.003	11.500	0.552
914.000	535.497	80.004	19.995	103.220	20.006	11.270	0.502
916.000	536.551	80.006	19.994	103.218	20.011	10.874	0.528
918.000	537.585	80.004	19.995	103.221	20.011	10.896	0.478
920.000	538.658	80.004	19.994	103.215	20.016	10.516	0.528
922.000	539.728	80.004	19.993	103.219	20.014	10.617	0.519
924.000	540.784	80.005	19.994	103.202	20.018	10.340	0.550
926.000	541.845	80.005	19.994	103.187	20.019	10.241	0.506
928.000	542.881	80.004	19.995	103.188	20.020	10.208	0.514
930.000	543.981	80.003	19.994	103.207	20.025	9.783	0.546
932.000	545.011	80.004	19.995	103.207	20.025	9.797	0.496
934.000	546.099	80.001	19.994	103.209	20.026	9.725	0.528
936.000	547.121	80.005	19.994	103.206	20.031	9.359	0.553
938.000	548.186	80.003	19.994	103.198	20.027	9.675	0.541
940.000	549.252	80.005	19.994	103.210	20.025	9.784	0.527
942.000	550.296	80.007	19.993	103.216	20.029	9.493	0.539
944.000	551.360	80.005	19.994	103.206	20.030	9.431	0.535
946.000	552.392	80.005	19.995	103.214	20.035	9.061	0.529
948.000	553.469	80.006	19.996	103.203	20.033	9.185	0.527
950.000	554.519	80.002	19.994	103.202	20.035	9.087	0.555
952.000	555.533	80.003	19.995	103.191	20.037	8.896	0.539
954.000	556.525	80.004	19.994	103.188	20.037	8.881	0.509
956.000	557.584	80.004	19.994	103.187	20.037	8.913	0.493
958.000	558.585	80.005	19.994	103.198	20.038	8.831	0.518
960.000	559.608	80.003	19.994	103.200	20.038	8.806	0.501
962.000	560.638	80.004	19.994	103.194	20.040	8.707	0.481
964.000	561.688	80.005	19.995	103.212	20.040	8.675	0.492
966.000	562.732	80.006	19.995	103.209	20.042	8.502	0.511
968.000	563.743	80.006	19.994	103.215	20.041	8.622	0.506
970.000	564.774	80.006	19.994	103.216	20.042	8.512	0.507
972.000	565.834	80.007	19.994	103.208	20.045	8.288	0.569
974.000	566.898	80.008	19.994	103.198	20.045	8.332	0.532
976.000	567.908	80.004	19.995	103.211	20.042	8.500	0.507
978.000	568.924	80.003	19.995	103.210	20.043	8.461	0.497
980.000	569.996	80.004	19.995	103.193	20.045	8.287	0.522
982.000	571.019	80.003	19.995	103.183	20.043	8.473	0.548
984.000	572.111	80.005	19.996	103.187	20.046	8.265	0.552
986.000	573.133	80.002	19.995	103.186	20.045	8.314	0.540
988.000	574.214	80.005	19.995	103.185	20.045	8.343	0.522
990.000	575.299	80.004	19.995	103.180	20.046	8.237	0.524
992.000	576.327	80.005	19.995	103.183	20.045	8.288	0.505
994.000	577.393	80.004	19.995	103.179	20.046	8.226	0.550
996.000	578.415	80.005	19.994	103.182	20.049	8.009	0.516
998.000	579.443	80.004	19.993	103.183	20.045	8.282	0.511
1000.000	580.477	80.006	19.993	103.192	20.048	8.048	0.514
1002.000	581.507	80.004	19.995	103.192	20.049	8.015	0.518
1004.000	582.565	80.004	19.994	103.178	20.048	8.060	0.527
1006.000	583.545	80.004	19.996	103.177	20.044	8.349	0.520
1008.000	584.553	80.003	19.995	103.170	20.046	8.208	0.508
1010.000	585.592	80.004	19.994	103.176	20.048	8.094	0.505
1012.000	586.560	80.004	19.994	103.191	20.047	8.176	0.511
1014.000	587.549	80.003	19.994	103.195	20.048	8.109	0.497
1016.000	588.560	80.003	19.995	103.187	20.045	8.287	0.469
1018.000	589.550	80.004	19.995	103.183	20.047	8.150	0.493
1020.000	590.566	80.004	19.995	103.188	20.048	8.103	0.502
1022.000	591.516	80.004	19.995	103.197	20.047	8.161	0.488
1024.000	592.566	80.006	19.994	103.192	20.048	8.111	0.502
1025.999	593.575	80.005	19.994	103.199	20.049	8.036	0.495
1027.999	594.622	80.006	19.994	103.206	20.048	8.116	0.527
1029.999	595.656	80.005	19.994	103.191	20.047	8.149	0.520
1031.999	596.658	80.006	19.994	103.181	20.046	8.272	0.511
1033.999	597.652	80.006	19.995	103.191	20.041	8.600	0.480
1036.000	598.684	80.006	19.994	103.200	20.046	8.248	0.524
1037.999	599.695	80.005	19.994	103.183	20.046	8.246	0.497
1039.999	600.724	80.005	19.994	103.194	20.046	8.246	0.482
1042.000	601.768	80.005	19.995	103.186	20.045	8.336	0.529
1043.999	602.772	80.005	19.994	103.192	20.045	8.281	0.494
1045.999	603.754	80.004	19.994	103.180	20.042	8.567	0.508
1048.000	604.782	80.006	19.994	103.177	20.044	8.394	0.535
1050.000	605.791	80.005	19.995	103.182	20.046	8.219	0.527
1051.999	606.776	80.006	19.994	103.182	20.048	8.050	0.500
1054.000	607.824	80.007	19.994	103.182	20.051	7.876	0.494
1055.999	608.866	80.006	19.995	103.184	20.049	7.983	0.508
1057.999	609.871	80.006	19.994	103.187	20.050	7.928	0.504
1059.999	610.880	80.006	19.994	103.180	20.047	8.189	0.499
1062.000	611.918	80.005	19.995	103.178	20.046	8.219	0.513
1063.999	612.893	80.004	19.994	103.185	20.049	8.025	0.521
1065.999	613.961	80.004	19.995	103.196	20.047	8.187	0.519
1068.000	614.995	80.006	19.995	103.179	20.050	7.906	0.510
1069.999	615.987	80.003	19.995	103.180	20.044	8.404	0.476
1072.001	616.988	80.004	19.996	103.185	20.048	8.120	0.486
1073.999	618.006	80.003	19.996	103.206	20.045	8.340	0.518
1076.000	619.017	80.002	19.994	103.184	20.048	8.056	0.512
1077.999	620.079	80.005	19.996	103.189	20.050	7.944	0.548
1079.999	621.034	80.006	19.995	103.194	20.047	8.126	0.484
1081.999	622.028	80.005	19.995	103.190	20.045	8.318	0.472
1084.000	623.027	80.005	19.995	103.186	20.045	8.306	0.478
1085.999	623.999	80.006	19.995	103.178	20.045	8.314	0.497
1088.000	625.013	80.006	19.996	103.175	20.047	8.153	0.493
1089.999	625.981	80.006	19.994	103.177	20.047	8.133	0.470
1091.999	626.994	80.005	19.993	103.180	20.051	7.826	0.500
1093.999	627.914	80.004	19.994	103.184	20.046	8.250	0.497
1095.999	629.001	80.003	19.995	103.192	20.044	8.365	0.503
1097.999	630.041	80.004	19.994	103.195	20.045	8.326	0.505
1099.999	631.038	80.005	19.995	103.188	20.043	8.491	0.521
1101.999	632.070	80.003	19.994	103.192	20.044	8.397	0.504
1103.999	633.082	80.005	19.995	103.185	20.040	8.663	0.572
1105.999	634.169	80.006	19.994	103.181	20.041	8.602	0.546
1107.999	635.176	80.006	19.995	103.178	20.040	8.651	0.528
1109.999	636.194	80.005	19.994	103.181	20.040	8.673	0.523
1112.000	637.224	80.005	19.994	103.183	20.043	8.456	0.534
1113.999	638.186	80.005	19.994	103.180	20.044	8.384	0.488
1115.999	639.252	80.006	19.994	103.180	20.044	8.366	0.534
1117.999	640.335	80.006	19.993	103.188	20.044	8.421	0.525
1120.000	641.343	80.006	19.994	103.186	20.043	8.462	0.538
1122.000	642.349	80.005	19.994	103.188	20.041	8.589	0.536
1123.999	643.413	80.006	19.995	103.216	20.041	8.579	0.554
1125.999	644.425	80.006	19.994	103.215	20.046	8.232	0.530
1127.999	645.475	80.007	19.994	103.218	20.044	8.387	0.515
1129.999	646.473	80.008	19.995	103.219	20.047	8.140	0.526
1131.999	647.538	80.008	19.994	103.217	20.047	8.180	0.537
1133.999	648.578	80.009	19.994	103.188	20.047	8.149	0.524
1135.999	649.595	80.009	19.993	103.181	20.045	8.288	0.527
1138.000	650.648	80.008	19.995	103.178	20.045	8.341	0.502
1139.999	651.650	80.008	19.994	103.178	20.041	8.617	0.498
1141.999	652.695	80.008	19.994	103.177	20.043	8.452	0.487
1144.000	653.765	80.006	19.995	103.158	20.040	8.685	0.517
1145.999	654.803	80.007	19.996	103.153	20.042	8.561	0.530
1147.999	655.798	80.004	19.996	103.165	20.042	8.524	0.551
1150.000	656.806	80.006	19.995	103.174	20.040	8.708	0.507
1151.999	657.815	80.005	19.995	103.177	20.042	8.512	0.488
1154.000	658.798	80.006	19.994	103.178	20.041	8.636	0.494
1156.000	659.778	80.005	19.995	103.178	20.042	8.540	0.526
1157.999	660.815	80.005	19.995	103.181	20.040	8.711	0.550
1159.999	661.811	80.005	19.995	103.182	20.039	8.744	0.541
1161.999	662.799	80.004	19.994	103.181	20.040	8.670	0.487
1163.999	663.754	80.005	19.995	103.178	20.035	9.057	0.484
1165.999	664.732	80.005	19.996	103.178	20.036	8.988	0.484
1167.999	665.727	80.005	19.995	103.160	20.035	9.089	0.489
1170.000	666.730	80.005	19.996	103.165	20.036	8.975	0.500
1171.999	667.712	80.006	19.995	103.177	20.037	8.910	0.495
1173.999	668.690	80.004	19.995	103.163	20.036	9.010	0.480
1176.000	669.653	80.003	19.995	103.169	20.031	9.337	0.488
1178.001	670.649	80.003	19.995	103.165	20.034	9.156	0.500
1179.999	671.655	80.003	19.994	103.180	20.035	9.082	0.485
1181.999	672.682	80.004	19.995	103.181	20.036	8.999	0.516
1183.999	673.644	80.003	19.995	103.182	20.034	9.112	0.499
1185.999	674.560	80.005	19.994	103.177	20.035	9.085	0.456
1188.000	675.587	80.005	19.994	103.155	20.034	9.151	0.475
1190.000	676.595	80.007	19.994	103.176	20.037	8.908	0.485
1191.999	677.589	80.006	19.994	103.182	20.033	9.202	0.509
1193.999	678.573	80.006	19.994	103.172	20.035	9.050	0.520
1195.999	679.633	80.006	19.994	103.181	20.034	9.153	0.518
1197.999	680.651	80.007	19.995	103.177	20.033	9.246	0.508
1199.999	681.685	80.006	19.995	103.185	20.035	9.079	0.527
1201.999	682.747	80.006	19.995	103.185	20.033	9.200	0.536
1203.999	683.781	80.006	19.994	103.192	20.036	8.988	0.522
1206.000	684.869	80.004	19.994	103.196	20.036	8.980	0.579
1207.999	685.888	80.007	19.994	103.184	20.033	9.226	0.569
1209.999	686.966	80.006	19.994	103.177	20.035	9.048	0.501
1211.999	688.056	80.006	19.993	103.169	20.034	9.144	0.562
1213.999	689.091	80.007	19.995	103.167	20.033	9.189	0.523
1215.999	690.167	80.008	19.994	103.170	20.029	9.498	0.510
1218.001	691.206	80.007	19.994	103.173	20.027	9.693	0.520
1220.001	692.258	80.009	19.995	103.174	20.031	9.357	0.479
1221.999	693.319	80.008	19.994	103.177	20.031	9.369	0.512
1223.999	694.404	80.009	19.994	103.173	20.031	9.351	0.548
1225.999	695.464	80.007	19.994	103.174	20.029	9.495	0.570
1228.000	696.527	80.007	19.995	103.179	20.026	9.741	0.542
1229.999	697.561	80.006	19.994	103.162	20.029	9.524	0.511
1231.999	698.599	80.006	19.995	103.163	20.027	9.689	0.518
1234.000	699.677	80.005	19.994	103.157	20.024	9.896	0.555
1235.999	700.714	80.004	19.995	103.174	20.023	9.991	0.525
1237.999	701.757	80.006	19.996	103.176	20.028	9.624	0.533
1240.000	702.805	80.005	19.995	103.183	20.030	9.444	0.495
1241.999	703.845	80.004	19.995	103.164	20.027	9.689	0.538
1243.999	704.852	80.005	19.996	103.161	20.028	9.567	0.536
1245.999	705.869	80.005	19.995	103.157	20.028	9.557	0.484
1247.999	706.886	80.006	19.995	103.179	20.028	9.608	0.532
1249.999	707.924	80.006	19.995	103.177	20.025	9.833	0.503
1251.999	708.975	80.005	19.994	103.173	20.026	9.772	0.521
1253.999	709.980	80.006	19.994	103.172	20.023	9.991	0.490
1255.999	711.012	80.004	19.994	103.184	20.026	9.776	0.528
1257.999	712.043	80.005	19.994	103.172	20.023	9.936	0.538
1260.000	713.048	80.007	19.995	103.157	20.023	9.982	0.497
1262.000	714.026	80.006	19.995	103.163	20.021	10.123	0.478
1263.999	715.063	80.004	19.996	103.163	20.026	9.734	0.487
1266.000	716.082	80.005	19.996	103.187	20.033	9.186	0.527
1267.999	717.151	80.005	19.995	103.224	20.028	9.558	0.526
1269.999	718.110	80.005	19.996	103.191	20.027	9.660	0.538
1271.999	719.131	80.006	19.997	103.137	20.023	9.980	0.509
1273.999	720.103	80.006	19.996	103.148	20.023	10.003	0.504
1275.999	721.121	80.006	19.995	103.167	20.025	9.814	0.444
1277.999	722.203	80.007	19.995	103.153	20.020	10.183	0.520
1279.999	723.135	80.006	19.995	103.145	20.022	10.012	0.477
1281.999	724.166	80.007	19.994	103.158	20.024	9.906	0.494
1283.999	725.127	80.008	19.994	103.189	20.024	9.894	0.466
1285.999	726.143	80.006	19.994	103.211	20.024	9.878	0.483
1287.999	727.148	80.006	19.994	103.175	20.023	9.974	0.497
1289.999	728.103	80.006	19.994	103.144	20.020	10.216	0.452
1291.999	729.077	80.007	19.994	103.145	20.020	10.177	0.466
1293.999	730.071	80.006	19.995	103.159	20.019	10.290	0.480
1295.999	731.090	80.007	19.995	103.170	20.018	10.349	0.482
1297.999	732.059	80.006	19.993	103.162	20.016	10.473	0.507
1299.999	733.093	80.008	19.995	103.157	20.020	10.172	0.535
1301.999	734.033	80.008	19.996	103.160	20.017	10.416	0.509
1304.000	735.012	80.006	19.994	103.183	20.016	10.479	0.473
1305.999	736.015	80.007	19.993	103.163	20.016	10.461	0.451
1307.999	736.981	80.008	19.995	103.150	20.015	10.598	0.439
1309.999	737.941	80.007	19.994	103.157	20.017	10.450	0.504
1311.999	738.960	80.005	19.993	103.157	20.013	10.713	0.485
1313.999	739.915	80.006	19.995	103.155	20.008	11.122	0.511
1315.999	740.897	80.003	19.993	103.157	20.019	10.283	0.458
1317.999	741.919	80.005	19.995	103.164	20.016	10.517	0.485
1320.001	742.865	80.005	19.994	103.154	20.009	11.007	0.493
1321.999	743.892	80.004	19.993	103.156	20.015	10.537	0.528