File: 01_Data/Overstuffed_Chair_Polyurethane_Foam/FTIR/IS/Overstuffed_Chair_Polyurethane_Foam_IS_REFLECT_MEAS_210623_R1.dpt
5996.41,0.48936
5992.55,0.48758
5988.69,0.48337
5984.84,0.47951
5980.98,0.46898
5977.12,0.45994
5973.27,0.45216
5969.41,0.44852
5965.55,0.43641
5961.69,0.42371
5957.84,0.41009
5953.98,0.40013
5950.12,0.39623
5946.26,0.38909
5942.41,0.39394
5938.55,0.38741
5934.69,0.39006
5930.83,0.39094
5926.98,0.39113
5923.12,0.39092
5919.26,0.38945
5915.4,0.38412
5911.55,0.37694
5907.69,0.37365
5903.83,0.37110
5899.97,0.36131
5896.12,0.36511
5892.26,0.37047
5888.4,0.38265
5884.54,0.39740
5880.69,0.39290
5876.83,0.39208
5872.97,0.39728
5869.11,0.39706
5865.26,0.39993
5861.4,0.39974
5857.54,0.40246
5853.68,0.40178
5849.83,0.40087
5845.97,0.40166
5842.11,0.39863
5838.25,0.39347
5834.4,0.38697
5830.54,0.38528
5826.68,0.38709
5822.82,0.38954
5818.97,0.38440
5815.11,0.37853
5811.25,0.37809
5807.39,0.37155
5803.54,0.37583
5799.68,0.37481
5795.82,0.36699
5791.96,0.37008
5788.11,0.36643
5784.25,0.36482
5780.39,0.35906
5776.53,0.35442
5772.68,0.35191
5768.82,0.35040
5764.96,0.35687
5761.11,0.35968
5757.25,0.35897
5753.39,0.36785
5749.53,0.37113
5745.68,0.37299
5741.82,0.37572
5737.96,0.38000
5734.1,0.38137
5730.25,0.39181
5726.39,0.39493
5722.53,0.39784
5718.67,0.40187
5714.82,0.40222
5710.96,0.40467
5707.1,0.40836
5703.24,0.41058
5699.39,0.41088
5695.53,0.41179
5691.67,0.40982
5687.81,0.41170
5683.96,0.41463
5680.1,0.40993
5676.24,0.41466
5672.38,0.41572
5668.53,0.41328
5664.67,0.40989
5660.81,0.40737
5656.95,0.40856
5653.1,0.41024
5649.24,0.41460
5645.38,0.42096
5641.52,0.41752
5637.67,0.41991
5633.81,0.42778
5629.95,0.43084
5626.09,0.43658
5622.24,0.43761
5618.38,0.43280
5614.52,0.43556
5610.66,0.43427
5606.81,0.43462
5602.95,0.43561
5599.09,0.43258
5595.23,0.43430
5591.38,0.43980
5587.52,0.44047
5583.66,0.43617
5579.8,0.43522
5575.95,0.43216
5572.09,0.44060
5568.23,0.44230
5564.38,0.43484
5560.52,0.43561
5556.66,0.43971
5552.8,0.43767
5548.95,0.43302
5545.09,0.43219
5541.23,0.43825
5537.37,0.44469
5533.52,0.43690
5529.66,0.42976
5525.8,0.43108
5521.94,0.43685
5518.09,0.44410
5514.23,0.43982
5510.37,0.43370
5506.51,0.43637
5502.66,0.43854
5498.8,0.44276
5494.94,0.43596
5491.08,0.43501
5487.23,0.44143
5483.37,0.44170
5479.51,0.44895
5475.65,0.44638
5471.8,0.44551
5467.94,0.44413
5464.08,0.44213
5460.22,0.44429
5456.37,0.44834
5452.51,0.45266
5448.65,0.45365
5444.79,0.44898
5440.94,0.45380
5437.08,0.45275
5433.22,0.45362
5429.36,0.45378
5425.51,0.45429
5421.65,0.46362
5417.79,0.46037
5413.93,0.45493
5410.08,0.46398
5406.22,0.46848
5402.36,0.46618
5398.5,0.46888
5394.65,0.47187
5390.79,0.47782
5386.93,0.47734
5383.07,0.47799
5379.22,0.47751
5375.36,0.47665
5371.5,0.48139
5367.65,0.48271
5363.79,0.48296
5359.93,0.48641
5356.07,0.47769
5352.22,0.46949
5348.36,0.47627
5344.5,0.47440
5340.64,0.47706
5336.79,0.47479
5332.93,0.47514
5329.07,0.47849
5325.21,0.48825
5321.36,0.48209
5317.5,0.47596
5313.64,0.47790
5309.78,0.47638
5305.93,0.47944
5302.07,0.47752
5298.21,0.47144
5294.35,0.46883
5290.5,0.46384
5286.64,0.46422
5282.78,0.45840
5278.92,0.45780
5275.07,0.45696
5271.21,0.45307
5267.35,0.44747
5263.49,0.44133
5259.64,0.44260
5255.78,0.44641
5251.92,0.44320
5248.06,0.43222
5244.21,0.43520
5240.35,0.43509
5236.49,0.43581
5232.63,0.42795
5228.78,0.42337
5224.92,0.42287
5221.06,0.42513
5217.2,0.42626
5213.35,0.42202
5209.49,0.42270
5205.63,0.42174
5201.77,0.41944
5197.92,0.42085
5194.06,0.42139
5190.2,0.42601
5186.34,0.42489
5182.49,0.42505
5178.63,0.42773
5174.77,0.43211
5170.91,0.43295
5167.06,0.43645
5163.2,0.43713
5159.34,0.43457
5155.49,0.43290
5151.63,0.43575
5147.77,0.44096
5143.91,0.43918
5140.06,0.43430
5136.2,0.43920
5132.34,0.44109
5128.48,0.44468
5124.63,0.44682
5120.77,0.44382
5116.91,0.44097
5113.05,0.44468
5109.2,0.44712
5105.34,0.44649
5101.48,0.44346
5097.62,0.44059
5093.77,0.44101
5089.91,0.44414
5086.05,0.44626
5082.19,0.44341
5078.34,0.44227
5074.48,0.44750
5070.62,0.44627
5066.76,0.44422
5062.91,0.44472
5059.05,0.44065
5055.19,0.43871
5051.33,0.44340
5047.48,0.44154
5043.62,0.44022
5039.76,0.43836
5035.9,0.43957
5032.05,0.43585
5028.19,0.43677
5024.33,0.43746
5020.47,0.43285
5016.62,0.43029
5012.76,0.42839
5008.9,0.43043
5005.04,0.43069
5001.19,0.42404
4997.33,0.41716
4993.47,0.41845
4989.61,0.41696
4985.76,0.41632
4981.9,0.41109
4978.04,0.40760
4974.18,0.40401
4970.33,0.40143
4966.47,0.39904
4962.61,0.39491
4958.76,0.38988
4954.9,0.38890
4951.04,0.38511
4947.18,0.38558
4943.33,0.38162
4939.47,0.37821
4935.61,0.37490
4931.75,0.36922
4927.9,0.37083
4924.04,0.37246
4920.18,0.36436
4916.32,0.36044
4912.47,0.36004
4908.61,0.35721
4904.75,0.35770
4900.89,0.35373
4897.04,0.35140
4893.18,0.35083
4889.32,0.35060
4885.46,0.34863
4881.61,0.34674
4877.75,0.34359
4873.89,0.34398
4870.03,0.34120
4866.18,0.34086
4862.32,0.33747
4858.46,0.33797
4854.6,0.33762
4850.75,0.33649
4846.89,0.33704
4843.03,0.33573
4839.17,0.33497
4835.32,0.33541
4831.46,0.33698
4827.6,0.34049
4823.74,0.34094
4819.89,0.34389
4816.03,0.34850
4812.17,0.35124
4808.31,0.35227
4804.46,0.35497
4800.6,0.35639
4796.74,0.36164
4792.88,0.36504
4789.03,0.36632
4785.17,0.37043
4781.31,0.37232
4777.45,0.37202
4773.6,0.37239
4769.74,0.37276
4765.88,0.37762
4762.02,0.37724
4758.17,0.37731
4754.31,0.38031
4750.45,0.38124
4746.6,0.38053
4742.74,0.38167
4738.88,0.38362
4735.02,0.38272
4731.17,0.38149
4727.31,0.38242
4723.45,0.38032
4719.59,0.37897
4715.74,0.37838
4711.88,0.37961
4708.02,0.37733
4704.16,0.37758
4700.31,0.37586
4696.45,0.37608
4692.59,0.37836
4688.73,0.37442
4684.88,0.37066
4681.02,0.36924
4677.16,0.36863
4673.3,0.36456
4669.45,0.36181
4665.59,0.36014
4661.73,0.35795
4657.87,0.35631
4654.02,0.35472
4650.16,0.35353
4646.3,0.35150
4642.44,0.34979
4638.59,0.34849
4634.73,0.34715
4630.87,0.34816
4627.01,0.34702
4623.16,0.34664
4619.3,0.34629
4615.44,0.34569
4611.58,0.34720
4607.73,0.34581
4603.87,0.34653
4600.01,0.34781
4596.15,0.34660
4592.3,0.34679
4588.44,0.34490
4584.58,0.34236
4580.72,0.34407
4576.87,0.34327
4573.01,0.34078
4569.15,0.34038
4565.29,0.33931
4561.44,0.33793
4557.58,0.33541
4553.72,0.33650
4549.87,0.33733
4546.01,0.33619
4542.15,0.33561
4538.29,0.33477
4534.44,0.33440
4530.58,0.33319
4526.72,0.33039
4522.86,0.33176
4519.01,0.33073
4515.15,0.32921
4511.29,0.32850
4507.43,0.32899
4503.58,0.32709
4499.72,0.32860
4495.86,0.32575
4492,0.32267
4488.15,0.32009
4484.29,0.31633
4480.43,0.31389
4476.57,0.31166
4472.72,0.30750
4468.86,0.30161
4465,0.29483
4461.14,0.28672
4457.29,0.27702
4453.43,0.26934
4449.57,0.25846
4445.71,0.24553
4441.86,0.23202
4438,0.22012
4434.14,0.20805
4430.28,0.19652
4426.43,0.18533
4422.57,0.17710
4418.71,0.17028
4414.85,0.16485
4411,0.16414
4407.14,0.16466
4403.28,0.16858
4399.42,0.17331
4395.57,0.17615
4391.71,0.17686
4387.85,0.17620
4383.99,0.17410
4380.14,0.16960
4376.28,0.16411
4372.42,0.16062
4368.56,0.15643
4364.71,0.14874
4360.85,0.14059
4356.99,0.13553
4353.14,0.13333
4349.28,0.12900
4345.42,0.12296
4341.56,0.12023
4337.71,0.12050
4333.85,0.12010
4329.99,0.12126
4326.13,0.12171
4322.28,0.12191
4318.42,0.12511
4314.56,0.12990
4310.7,0.13627
4306.85,0.14105
4302.99,0.14679
4299.13,0.15225
4295.27,0.15602
4291.42,0.15871
4287.56,0.16307
4283.7,0.16369
4279.84,0.16264
4275.99,0.16183
4272.13,0.16239
4268.27,0.16460
4264.41,0.16608
4260.56,0.16945
4256.7,0.17136
4252.84,0.17296
4248.98,0.17493
4245.13,0.17661
4241.27,0.17601
4237.41,0.17662
4233.55,0.17929
4229.7,0.18026
4225.84,0.18144
4221.98,0.18334
4218.12,0.18597
4214.27,0.19053
4210.41,0.19440
4206.55,0.19681
4202.69,0.19900
4198.84,0.20121
4194.98,0.20188
4191.12,0.19986
4187.26,0.19927
4183.41,0.19959
4179.55,0.19809
4175.69,0.19732
4171.83,0.19539
4167.98,0.19418
4164.12,0.19347
4160.26,0.19062
4156.4,0.18763
4152.55,0.18683
4148.69,0.18631
4144.83,0.18558
4140.98,0.18368
4137.12,0.18334
4133.26,0.18332
4129.4,0.18225
4125.55,0.18191
4121.69,0.18176
4117.83,0.18002
4113.97,0.17922
4110.12,0.17547
4106.26,0.17270
4102.4,0.17240
4098.54,0.17024
4094.69,0.16734
4090.83,0.16377
4086.97,0.16089
4083.11,0.15810
4079.26,0.15466
4075.4,0.15385
4071.54,0.15209
4067.68,0.14896
4063.83,0.14619
4059.97,0.14553
4056.11,0.14288
4052.25,0.14162
4048.4,0.14123
4044.54,0.13996
4040.68,0.13966
4036.82,0.13930
4032.97,0.13771
4029.11,0.13813
4025.25,0.13851
4021.39,0.13829
4017.54,0.13852
4013.68,0.13913
4009.82,0.14102
4005.96,0.14171
4002.11,0.14145
3998.25,0.14227
3994.39,0.14355
3990.53,0.14419
3986.68,0.14568
3982.82,0.14822
3978.96,0.15146
3975.1,0.15440
3971.25,0.15576
3967.39,0.15862
3963.53,0.16154
3959.67,0.16277
3955.82,0.16584
3951.96,0.17070
3948.1,0.17354
3944.25,0.17773
3940.39,0.18281
3936.53,0.18615
3932.67,0.19085
3928.82,0.19649
3924.96,0.19889
3921.1,0.20235
3917.24,0.20564
3913.39,0.20781
3909.53,0.20934
3905.67,0.21192
3901.81,0.21278
3897.96,0.21377
3894.1,0.21505
3890.24,0.21624
3886.38,0.21712
3882.53,0.21922
3878.67,0.21875
3874.81,0.21923
3870.95,0.21933
3867.1,0.21861
3863.24,0.21826
3859.38,0.21984
3855.52,0.21830
3851.67,0.21916
3847.81,0.21955
3843.95,0.21962
3840.09,0.22187
3836.24,0.22411
3832.38,0.22718
3828.52,0.22874
3824.66,0.22875
3820.81,0.22907
3816.95,0.23125
3813.09,0.23153
3809.23,0.23016
3805.38,0.22903
3801.52,0.22859
3797.66,0.23023
3793.8,0.23037
3789.95,0.23162
3786.09,0.23234
3782.23,0.23539
3778.37,0.23709
3774.52,0.23947
3770.66,0.24240
3766.8,0.24695
3762.94,0.24912
3759.09,0.25118
3755.23,0.25493
3751.37,0.25526
3747.51,0.25851
3743.66,0.25881
3739.8,0.26356
3735.94,0.26380
3732.09,0.26441
3728.23,0.26468
3724.37,0.26461
3720.51,0.26612
3716.66,0.26821
3712.8,0.26750
3708.94,0.26561
3705.08,0.26086
3701.23,0.25387
3697.37,0.24795
3693.51,0.23818
3689.65,0.22396
3685.8,0.21313
3681.94,0.20692
3678.08,0.20239
3674.22,0.19537
3670.37,0.18606
3666.51,0.17782
3662.65,0.17137
3658.79,0.16426
3654.94,0.15706
3651.08,0.14987
3647.22,0.14189
3643.36,0.13641
3639.51,0.13098
3635.65,0.12678
3631.79,0.12353
3627.93,0.11729
3624.08,0.11243
3620.22,0.10790
3616.36,0.10425
3612.5,0.10138
3608.65,0.09765
3604.79,0.09312
3600.93,0.08955
3597.07,0.08741
3593.22,0.08516
3589.36,0.08423
3585.5,0.08257
3581.64,0.08060
3577.79,0.07903
3573.93,0.07795
3570.07,0.07908
3566.21,0.07895
3562.36,0.07764
3558.5,0.07555
3554.64,0.07481
3550.78,0.07470
3546.93,0.07298
3543.07,0.07077
3539.21,0.06907
3535.36,0.06744
3531.5,0.06567
3527.64,0.06490
3523.78,0.06461
3519.93,0.06342
3516.07,0.06200
3512.21,0.06169
3508.35,0.06169
3504.5,0.06170
3500.64,0.06244
3496.78,0.06250
3492.92,0.06248
3489.07,0.06244
3485.21,0.06287
3481.35,0.06237
3477.49,0.06167
3473.64,0.06126
3469.78,0.05942
3465.92,0.05671
3462.06,0.05474
3458.21,0.05329
3454.35,0.05254
3450.49,0.05259
3446.63,0.05235
3442.78,0.05231
3438.92,0.05152
3435.06,0.05058
3431.2,0.04978
3427.35,0.04704
3423.49,0.04420
3419.63,0.04103
3415.77,0.03911
3411.92,0.03794
3408.06,0.03588
3404.2,0.03351
3400.34,0.03088
3396.49,0.02883
3392.63,0.02667
3388.77,0.02512
3384.91,0.02338
3381.06,0.02237
3377.2,0.02143
3373.34,0.02014
3369.48,0.01990
3365.63,0.01936
3361.77,0.01861
3357.91,0.01822
3354.05,0.01823
3350.2,0.01759
3346.34,0.01720
3342.48,0.01629
3338.63,0.01555
3334.77,0.01652
3330.91,0.01671
3327.05,0.01630
3323.2,0.01640
3319.34,0.01533
3315.48,0.01492
3311.62,0.01452
3307.77,0.01408
3303.91,0.01497
3300.05,0.01509
3296.19,0.01445
3292.34,0.01482
3288.48,0.01466
3284.62,0.01461
3280.76,0.01506
3276.91,0.01497
3273.05,0.01538
3269.19,0.01496
3265.33,0.01570
3261.48,0.01620
3257.62,0.01685
3253.76,0.01694
3249.9,0.01664
3246.05,0.01737
3242.19,0.01872
3238.33,0.01924
3234.47,0.01960
3230.62,0.02013
3226.76,0.02061
3222.9,0.01992
3219.04,0.02052
3215.19,0.02064
3211.33,0.02156
3207.47,0.02269
3203.61,0.02371
3199.76,0.02338
3195.9,0.02405
3192.04,0.02543
3188.18,0.02480
3184.33,0.02517
3180.47,0.02608
3176.61,0.02704
3172.75,0.02832
3168.9,0.02937
3165.04,0.02956
3161.18,0.03009
3157.32,0.03069
3153.47,0.03071
3149.61,0.03135
3145.75,0.03170
3141.89,0.03166
3138.04,0.03194
3134.18,0.03207
3130.32,0.03233
3126.47,0.03269
3122.61,0.03327
3118.75,0.03351
3114.89,0.03340
3111.04,0.03400
3107.18,0.03399
3103.32,0.03398
3099.46,0.03368
3095.61,0.03349
3091.75,0.03332
3087.89,0.03273
3084.03,0.03234
3080.18,0.03186
3076.32,0.03132
3072.46,0.03157
3068.6,0.03182
3064.75,0.03213
3060.89,0.03201
3057.03,0.03251
3053.17,0.03234
3049.32,0.03155
3045.46,0.03183
3041.6,0.03163
3037.74,0.03135
3033.89,0.03058
3030.03,0.02994
3026.17,0.03003
3022.31,0.02976
3018.46,0.02909
3014.6,0.02808
3010.74,0.02665
3006.88,0.02387
3003.03,0.02121
2999.17,0.01913
2995.31,0.01689
2991.45,0.01518
2987.6,0.01429
2983.74,0.01370
2979.88,0.01294
2976.02,0.01232
2972.17,0.01261
2968.31,0.01305
2964.45,0.01337
2960.59,0.01407
2956.74,0.01462
2952.88,0.01507
2949.02,0.01531
2945.16,0.01475
2941.31,0.01357
2937.45,0.01354
2933.59,0.01281
2929.74,0.01303
2925.88,0.01378
2922.02,0.01378
2918.16,0.01330
2914.31,0.01252
2910.45,0.01327
2906.59,0.01366
2902.73,0.01353
2898.88,0.01246
2895.02,0.01262
2891.16,0.01329
2887.3,0.01376
2883.45,0.01359
2879.59,0.01335
2875.73,0.01387
2871.87,0.01420
2868.02,0.01426
2864.16,0.01426
2860.3,0.01548
2856.44,0.01575
2852.59,0.01583
2848.73,0.01644
2844.87,0.01821
2841.01,0.01841
2837.16,0.02005
2833.3,0.02174
2829.44,0.02323
2825.58,0.02465
2821.73,0.02605
2817.87,0.02657
2814.01,0.02705
2810.15,0.02770
2806.3,0.02818
2802.44,0.02866
2798.58,0.02938
2794.72,0.02960
2790.87,0.02979
2787.01,0.03051
2783.15,0.03159
2779.29,0.03302
2775.44,0.03357
2771.58,0.03471
2767.72,0.03539
2763.86,0.03641
2760.01,0.03749
2756.15,0.03875
2752.29,0.04015
2748.43,0.04078
2744.58,0.04181
2740.72,0.04312
2736.86,0.04443
2733.01,0.04530
2729.15,0.04697
2725.29,0.04917
2721.43,0.05193
2717.58,0.05431
2713.72,0.05689
2709.86,0.05906
2706,0.06125
2702.15,0.06332
2698.29,0.06539
2694.43,0.06769
2690.57,0.06989
2686.72,0.07189
2682.86,0.07323
2679,0.07385
2675.14,0.07476
2671.29,0.07544
2667.43,0.07657
2663.57,0.07841
2659.71,0.08036
2655.86,0.08207
2652,0.08374
2648.14,0.08494
2644.28,0.08587
2640.43,0.08737
2636.57,0.08902
2632.71,0.09183
2628.85,0.09506
2625,0.09783
2621.14,0.10012
2617.28,0.10203
2613.42,0.10298
2609.57,0.10262
2605.71,0.10239
2601.85,0.10193
2597.99,0.10164
2594.14,0.10186
2590.28,0.10216
2586.42,0.10339
2582.56,0.10577
2578.71,0.10930
2574.85,0.11441
2570.99,0.12063
2567.13,0.12674
2563.28,0.13202
2559.42,0.13599
2555.56,0.13902
2551.7,0.14107
2547.85,0.14360
2543.99,0.14558
2540.13,0.14699
2536.27,0.14788
2532.42,0.14924
2528.56,0.15085
2524.7,0.15207
2520.85,0.15347
2516.99,0.15377
2513.13,0.15400
2509.27,0.15423
2505.42,0.15411
2501.56,0.15323
2497.7,0.15281
2493.84,0.15300
2489.99,0.15350
2486.13,0.15338
2482.27,0.15311
2478.41,0.15300
2474.56,0.15316
2470.7,0.15316
2466.84,0.15418
2462.98,0.15520
2459.13,0.15608
2455.27,0.15700
2451.41,0.15851
2447.55,0.16026
2443.7,0.16242
2439.84,0.16448
2435.98,0.16658
2432.12,0.16854
2428.27,0.16966
2424.41,0.17042
2420.55,0.17039
2416.69,0.17038
2412.84,0.16993
2408.98,0.16932
2405.12,0.16813
2401.26,0.16686
2397.41,0.16575
2393.55,0.16422
2389.69,0.16276
2385.83,0.16207
2381.98,0.16077
2378.12,0.15934
2374.26,0.15749
2370.4,0.15748
2366.55,0.15867
2362.69,0.16090
2358.83,0.15777
2354.97,0.15038
2351.12,0.15929
2347.26,0.16024
2343.4,0.15318
2339.54,0.15448
2335.69,0.15203
2331.83,0.14950
2327.97,0.14719
2324.12,0.14400
2320.26,0.13959
2316.4,0.13510
2312.54,0.12944
2308.69,0.12366
2304.83,0.11717
2300.97,0.11069
2297.11,0.10367
2293.26,0.09516
2289.4,0.08719
2285.54,0.07907
2281.68,0.07281
2277.83,0.06806
2273.97,0.06603
2270.11,0.06783
2266.25,0.07244
2262.4,0.07946
2258.54,0.08681
2254.68,0.09412
2250.82,0.10003
2246.97,0.10455
2243.11,0.10787
2239.25,0.11054
2235.39,0.11241
2231.54,0.11479
2227.68,0.11601
2223.82,0.11732
2219.96,0.11853
2216.11,0.11925
2212.25,0.12012
2208.39,0.12151
2204.53,0.12223
2200.68,0.12296
2196.82,0.12409
2192.96,0.12446
2189.1,0.12493
2185.25,0.12547
2181.39,0.12617
2177.53,0.12618
2173.67,0.12669
2169.82,0.12668
2165.96,0.12670
2162.1,0.12727
2158.24,0.12815
2154.39,0.12892
2150.53,0.12969
2146.67,0.13055
2142.81,0.13114
2138.96,0.13195
2135.1,0.13234
2131.24,0.13255
2127.38,0.13305
2123.53,0.13326
2119.67,0.13384
2115.81,0.13389
2111.96,0.13392
2108.1,0.13381
2104.24,0.13331
2100.38,0.13246
2096.53,0.13118
2092.67,0.13022
2088.81,0.12940
2084.95,0.12853
2081.1,0.12723
2077.24,0.12639
2073.38,0.12553
2069.52,0.12485
2065.67,0.12410
2061.81,0.12329
2057.95,0.12231
2054.09,0.12101
2050.24,0.11968
2046.38,0.11836
2042.52,0.11639
2038.66,0.11457
2034.81,0.11217
2030.95,0.11014
2027.09,0.10871
2023.23,0.10739
2019.38,0.10685
2015.52,0.10679
2011.66,0.10650
2007.8,0.10681
2003.95,0.10702
2000.09,0.10783
1996.23,0.10868
1992.37,0.10954
1988.52,0.11046
1984.66,0.11052
1980.8,0.11093
1976.94,0.11090
1973.09,0.11152
1969.23,0.11174
1965.37,0.11177
1961.51,0.11170
1957.66,0.11183
1953.8,0.11225
1949.94,0.11274
1946.08,0.11302
1942.23,0.11330
1938.37,0.11254
1934.51,0.11235
1930.65,0.11145
1926.8,0.11110
1922.94,0.11158
1919.08,0.11208
1915.23,0.11210
1911.37,0.11267
1907.51,0.11335
1903.65,0.11370
1899.8,0.11412
1895.94,0.11455
1892.08,0.11511
1888.22,0.11511
1884.37,0.11503
1880.51,0.11528
1876.65,0.11567
1872.79,0.11638
1868.94,0.11824
1865.08,0.11790
1861.22,0.11660
1857.36,0.11569
1853.51,0.11485
1849.65,0.11411
1845.79,0.11419
1841.93,0.11243
1838.08,0.11007
1834.22,0.10855
1830.36,0.10769
1826.5,0.10496
1822.65,0.10113
1818.79,0.09799
1814.93,0.09550
1811.07,0.09293
1807.22,0.08923
1803.36,0.08634
1799.5,0.08353
1795.64,0.08062
1791.79,0.07765
1787.93,0.07283
1784.07,0.06889
1780.21,0.06563
1776.36,0.06296
1772.5,0.06037
1768.64,0.05492
1764.78,0.04984
1760.93,0.04324
1757.07,0.03529
1753.21,0.02764
1749.35,0.02136
1745.5,0.01642
1741.64,0.01449
1737.78,0.01385
1733.92,0.01328
1730.07,0.01251
1726.21,0.01228
1722.35,0.01328
1718.5,0.01434
1714.64,0.01412
1710.78,0.01376
1706.92,0.01395
1703.07,0.01371
1699.21,0.01454
1695.35,0.01395
1691.49,0.01398
1687.64,0.01461
1683.78,0.01472
1679.92,0.01378
1676.06,0.01337
1672.21,0.01341
1668.35,0.01333
1664.49,0.01279
1660.63,0.01246
1656.78,0.01217
1652.92,0.01216
1649.06,0.01291
1645.2,0.01235
1641.35,0.01210
1637.49,0.01353
1633.63,0.01401
1629.77,0.01347
1625.92,0.01361
1622.06,0.01356
1618.2,0.01329
1614.34,0.01206
1610.49,0.01223
1606.63,0.01236
1602.77,0.01188
1598.91,0.01219
1595.06,0.01230
1591.2,0.01307
1587.34,0.01299
1583.48,0.01287
1579.63,0.01282
1575.77,0.01274
1571.91,0.01214
1568.05,0.01128
1564.2,0.01165
1560.34,0.01352
1556.48,0.01258
1552.62,0.01141
1548.77,0.01137
1544.91,0.01176
1541.05,0.01437
1537.19,0.01314
1533.34,0.01264
1529.48,0.01300
1525.62,0.01326
1521.76,0.01257
1517.91,0.01291
1514.05,0.01281
1510.19,0.01347
1506.34,0.01509
1502.48,0.01435
1498.62,0.01422
1494.76,0.01384
1490.91,0.01364
1487.05,0.01418
1483.19,0.01379
1479.33,0.01314
1475.48,0.01292
1471.62,0.01355
1467.76,0.01323
1463.9,0.01331
1460.05,0.01284
1456.19,0.01217
1452.33,0.01228
1448.47,0.01322
1444.62,0.01391
1440.76,0.01428
1436.9,0.01528
1433.04,0.01555
1429.19,0.01579
1425.33,0.01539
1421.47,0.01489
1417.61,0.01455
1413.76,0.01360
1409.9,0.01313
1406.04,0.01335
1402.18,0.01373
1398.33,0.01437
1394.47,0.01412
1390.61,0.01366
1386.75,0.01307
1382.9,0.01258
1379.04,0.01233
1375.18,0.01230
1371.32,0.01268
1367.47,0.01386
1363.61,0.01535
1359.75,0.01594
1355.89,0.01537
1352.04,0.01478
1348.18,0.01435
1344.32,0.01425
1340.46,0.01451
1336.61,0.01425
1332.75,0.01399
1328.89,0.01343
1325.03,0.01272
1321.18,0.01278
1317.32,0.01277
1313.46,0.01174
1309.61,0.01222
1305.75,0.01226
1301.89,0.01194
1298.03,0.01237
1294.18,0.01290
1290.32,0.01243
1286.46,0.01278
1282.6,0.01246
1278.75,0.01278
1274.89,0.01267
1271.03,0.01220
1267.17,0.01197
1263.32,0.01171
1259.46,0.01098
1255.6,0.01029
1251.74,0.01087
1247.89,0.01090
1244.03,0.01016
1240.17,0.01046
1236.31,0.01067
1232.46,0.01101
1228.6,0.01105
1224.74,0.01163
1220.88,0.01200
1217.03,0.01259
1213.17,0.01212
1209.31,0.01220
1205.45,0.01150
1201.6,0.01204
1197.74,0.01235
1193.88,0.01161
1190.02,0.01206
1186.17,0.01134
1182.31,0.01091
1178.45,0.01139
1174.59,0.01014
1170.74,0.00941
1166.88,0.00936
1163.02,0.01013
1159.16,0.00950
1155.31,0.00936
1151.45,0.00927
1147.59,0.00896
1143.73,0.00982
1139.88,0.00962
1136.02,0.01055
1132.16,0.01024
1128.3,0.01076
1124.45,0.01000
1120.59,0.01017
1116.73,0.01047
1112.88,0.01177
1109.02,0.01283
1105.16,0.01448
1101.3,0.01529
1097.45,0.01484
1093.59,0.01461
1089.73,0.01506
1085.87,0.01493
1082.02,0.01530
1078.16,0.01545
1074.3,0.01636
1070.44,0.01652
1066.59,0.01544
1062.73,0.01751
1058.87,0.01758
1055.01,0.01665
1051.16,0.01692
1047.3,0.01768
1043.44,0.01759
1039.58,0.01837
1035.73,0.01894
1031.87,0.01862
1028.01,0.01847
1024.15,0.01895
1020.3,0.01864
1016.44,0.01752
1012.58,0.01717
1008.72,0.01742
1004.87,0.01796
1001.01,0.01960
997.151,0.02017
993.294,0.02061
989.437,0.02355
985.579,0.02485
981.722,0.02551
977.864,0.02673
974.007,0.02577
970.149,0.02521
966.292,0.02571
962.434,0.02548
958.577,0.02646
954.719,0.02731
950.862,0.02766
947.005,0.02533
943.147,0.02284
939.29,0.02078
935.432,0.02012
931.575,0.01963
927.717,0.01915
923.86,0.02014
920.002,0.02144
916.145,0.02190
912.287,0.02065
908.43,0.02218
904.573,0.02432
900.715,0.02563
896.858,0.02636
893,0.02699
889.143,0.02593
885.285,0.02526
881.428,0.02462
877.57,0.02395
873.713,0.02306
869.856,0.02221
865.998,0.02343
862.141,0.02503
858.283,0.02659
854.426,0.02542
850.568,0.02553
846.711,0.02594
842.853,0.02631
838.996,0.02587
835.138,0.02348
831.281,0.02296
827.424,0.02193
823.566,0.01995
819.709,0.01990
815.851,0.01964
811.994,0.02141
808.136,0.02287
804.279,0.02288
800.421,0.02401
796.564,0.02406
792.706,0.02692
788.849,0.02835
784.992,0.02784
781.134,0.02590
777.277,0.02420
773.419,0.02566
769.562,0.02418
765.704,0.02292
761.847,0.02448
757.989,0.02610
754.132,0.02578
750.274,0.02582
746.417,0.02863
742.56,0.03066
738.702,0.03176
734.845,0.02919
730.987,0.02913
727.13,0.02905
723.272,0.02755
719.415,0.02546
715.557,0.02421
711.7,0.02399
707.843,0.02499
703.985,0.02402
700.128,0.02213
696.27,0.02247
692.413,0.02282
688.555,0.02176
684.698,0.01909
680.84,0.01943
676.983,0.01927
673.125,0.02048
669.268,0.02195
665.411,0.02100
661.553,0.02141
657.696,0.02243
653.838,0.01990
649.981,0.02221
646.123,0.02332
642.266,0.02329
638.408,0.02371
634.551,0.02309
630.693,0.02442
626.836,0.02526
622.979,0.02643
619.121,0.02618
615.264,0.02398
611.406,0.02385
607.549,0.02480
603.691,0.02674
599.834,0.02465
595.976,0.02246
592.119,0.02205
588.261,0.02330
584.404,0.02453
580.547,0.02699
576.689,0.02381
572.832,0.02332
568.974,0.02753
565.117,0.02848
561.259,0.02498
557.402,0.02447
553.544,0.02615
549.687,0.02319
545.83,0.02376
541.972,0.02276
538.115,0.02446
534.257,0.02607
530.4,0.02609
526.542,0.02314
522.685,0.02484
518.827,0.02926
514.97,0.02608
511.112,0.02508
507.255,0.02298
503.398,0.02529
499.54,0.02720
495.683,0.02507
491.825,0.02743
487.968,0.03166
484.11,0.03442
480.253,0.02740
476.395,0.02245
472.538,0.02267
468.68,0.02457
464.823,0.02867
460.966,0.02681
457.108,0.02096
453.251,0.02079
449.393,0.02866
445.536,0.02309
441.678,0.03061
437.821,0.03355
433.963,0.03360
430.106,0.04468
426.248,0.04817
422.391,0.03508
418.534,0.04399
414.676,0.04569
410.819,0.02764
406.961,0.02646
403.104,0.02579
399.246,0.04126