File: 01_Data/Romex_Cable/STA/N2/10K_min/Romex_Cable_STA_N2_10KData_220715_R1.csv
##Temp./Â°C,Time/min,Mass loss(subtr.2)/mg,DSC(subtr.2)/(mW/mg),Sensit./(uV/mW)
49.422,10.01,-0.0168,0.004868321,1.07026
50.022,10.7326,-0.01565385,0.03606706,1.07009
50.622,10.92585,-0.01663374,0.05990173,1.06993
51.222,11.0687,-0.01637415,0.07927864,1.06976
51.822,11.1892,-0.01580858,0.09782941,1.06959
52.422,11.2944,-0.01472267,0.11226,1.06943
53.022,11.39137,-0.01640934,0.12764,1.06926
53.622,11.48305,-0.01560545,0.13877,1.0691
54.222,11.56897,-0.01710995,0.14962,1.06893
54.822,11.65128,-0.01677548,0.1592,1.06876
55.422,11.73049,-0.0164704,0.16864,1.06859
56.022,11.8074,-0.01606914,0.1783,1.06842
56.622,11.88195,-0.01820586,0.18441,1.06826
57.222,11.955,-0.01771579,0.18993,1.06809
57.822,12.0269,-0.01795625,0.1968,1.06792
58.422,12.0985,-0.01789712,0.19989,1.06775
59.022,12.1686,-0.01579022,0.20635,1.06758
59.622,12.23804,-0.01786274,0.2114,1.06741
60.222,12.30654,-0.01642457,0.21533,1.06723
60.822,12.3748,-0.01615797,0.21794,1.06706
61.422,12.4421,-0.0177945,0.22251,1.06689
62.022,12.50911,-0.01777614,0.22545,1.06672
62.622,12.5755,-0.01786061,0.22988,1.06655
63.222,12.64177,-0.01728746,0.23061,1.06637
63.822,12.70786,-0.0177914,0.23275,1.0662
64.422,12.7735,-0.01789385,0.23575,1.06603
65.022,12.8389,-0.01910333,0.23655,1.06585
65.622,12.9041,-0.01916011,0.23968,1.06568
66.222,12.96905,-0.01912244,0.24243,1.0655
66.822,13.03402,-0.01778644,0.24258,1.06533
67.422,13.0985,-0.0188789,0.24271,1.06515
68.022,13.16285,-0.01839247,0.24585,1.06498
68.622,13.22691,-0.01905247,0.248,1.0648
69.222,13.29093,-0.02017119,0.24766,1.06463
69.822,13.3551,-0.0190164,0.2484,1.06445
70.422,13.419,-0.02041737,0.25076,1.06427
71.022,13.4823,-0.02042171,0.25038,1.06409
71.622,13.54585,-0.02051056,0.2531,1.06392
72.222,13.60934,-0.02134677,0.25301,1.06374
72.822,13.67254,-0.02177772,0.25444,1.06356
73.422,13.73574,-0.02172911,0.25527,1.06338
74.022,13.79866,-0.0209551,0.25774,1.0632
74.622,13.86159,-0.02180445,0.25651,1.06302
75.222,13.9246,-0.02174208,0.25728,1.06284
75.822,13.98744,-0.02173979,0.25819,1.06266
76.422,14.05001,-0.02173987,0.25938,1.06248
77.022,14.11236,-0.02302074,0.26226,1.0623
77.622,14.1745,-0.0217272,0.2611,1.06211
78.222,14.2364,-0.02309199,0.26391,1.06193
78.822,14.2984,-0.02174406,0.26538,1.06175
79.422,14.36019,-0.02173839,0.26556,1.06157
80.022,14.4219,-0.02304998,0.26605,1.06138
80.622,14.4834,-0.02311002,0.26881,1.0612
81.222,14.5448,-0.02164869,0.26709,1.06101
81.822,14.606,-0.02231353,0.26979,1.06083
82.422,14.66724,-0.02305002,0.26852,1.06065
83.022,14.72845,-0.02305005,0.26994,1.06046
83.622,14.7896,-0.02367546,0.27007,1.06027
84.222,14.8507,-0.02437041,0.27019,1.06009
84.822,14.91169,-0.02307064,0.27165,1.0599
85.422,14.9725,-0.0244262,0.27125,1.05972
86.022,15.0333,-0.02422323,0.27305,1.05953
86.622,15.094,-0.024345,0.27125,1.05934
87.222,15.15466,-0.02304642,0.27223,1.05915
87.822,15.21551,-0.02307462,0.27323,1.05896
88.422,15.27532,-0.0243842,0.27309,1.05878
89.022,15.33571,-0.02569127,0.27404,1.05859
89.622,15.39574,-0.02436408,0.27608,1.0584
90.222,15.4559,-0.02437609,0.27602,1.05821
90.822,15.51622,-0.02471858,0.27584,1.05802
91.422,15.5762,-0.02470498,0.27647,1.05783
92.022,15.636,-0.02516081,0.27849,1.05764
92.622,15.69571,-0.02538327,0.27834,1.05744
93.222,15.75516,-0.02510234,0.27948,1.05725
93.822,15.81448,-0.02426009,0.27906,1.05706
94.422,15.87367,-0.02567598,0.27941,1.05687
95.022,15.93276,-0.02557988,0.27856,1.05668
95.622,15.9922,-0.0264228,0.28044,1.05648
96.222,16.05159,-0.0269001,0.2814,1.05629
96.822,16.11124,-0.02581668,0.282,1.05609
97.422,16.17052,-0.02689608,0.28075,1.0559
98.022,16.2297,-0.02690115,0.28413,1.05571
98.622,16.2887,-0.02685346,0.28369,1.05551
99.222,16.34778,-0.02689991,0.2841,1.05531
99.822,16.4066,-0.02651943,0.28373,1.05512
100.422,16.46564,-0.02690573,0.28367,1.05492
101.022,16.52437,-0.02687748,0.28491,1.05473
101.622,16.58343,-0.02550519,0.28473,1.05453
102.222,16.64256,-0.02664163,0.28427,1.05433
102.822,16.7015,-0.02689768,0.28541,1.05413
103.422,16.76064,-0.02821015,0.28758,1.05394
104.022,16.81954,-0.02821004,0.28625,1.05374
104.622,16.87804,-0.02957399,0.28856,1.05354
105.222,16.9363,-0.02822135,0.28862,1.05334
105.822,16.995,-0.02820704,0.28853,1.05314
106.422,17.0537,-0.02689632,0.28859,1.05294
107.022,17.11266,-0.02691971,0.29068,1.05274
107.622,17.1713,-0.02822031,0.29101,1.05254
108.222,17.22999,-0.02821996,0.29035,1.05234
108.822,17.2886,-0.02953388,0.29199,1.05213
109.422,17.34705,-0.0282043,0.2903,1.05193
110.022,17.40551,-0.02952836,0.29231,1.05173
110.622,17.46415,-0.02953085,0.29287,1.05153
111.222,17.52273,-0.03029688,0.29163,1.05132
111.822,17.5821,-0.02953013,0.29308,1.05112
112.422,17.64057,-0.02952995,0.29298,1.05092
113.022,17.69906,-0.03086629,0.29486,1.05071
113.622,17.75766,-0.03085047,0.295,1.05051
114.222,17.81626,-0.02955938,0.29609,1.0503
114.822,17.8752,-0.02947202,0.29627,1.05009
115.422,17.93378,-0.03019922,0.29688,1.04989
116.022,17.99236,-0.02990682,0.29928,1.04968
116.622,18.05082,-0.029862,0.29999,1.04948
117.222,18.1089,-0.0311772,0.29891,1.04927
117.822,18.167,-0.03118,0.30136,1.04906
118.422,18.22537,-0.03117999,0.30169,1.04885
119.022,18.28385,-0.03114867,0.30219,1.04864
119.622,18.34295,-0.03217544,0.30186,1.04844
120.222,18.40144,-0.03086708,0.30221,1.04823
120.822,18.45965,-0.03147801,0.30364,1.04802
121.422,18.5177,-0.03084843,0.30368,1.04781
122.022,18.57594,-0.03085001,0.30541,1.0476
122.622,18.63409,-0.03089506,0.30539,1.04739
123.222,18.6926,-0.03216098,0.30585,1.04718
123.822,18.7511,-0.03350757,0.30674,1.04696
124.422,18.80936,-0.03347999,0.30808,1.04675
125.022,18.86751,-0.0334801,0.30696,1.04654
125.622,18.9256,-0.03388403,0.30791,1.04633
126.222,18.98378,-0.03349041,0.30912,1.04611
126.822,19.0421,-0.03349,0.30731,1.0459
127.422,19.10043,-0.03349005,0.3102,1.04569
128.022,19.15861,-0.03382939,0.30991,1.04547
128.622,19.21678,-0.03485039,0.30941,1.04526
129.222,19.2748,-0.03376416,0.31077,1.04504
129.822,19.333,-0.03349116,0.31174,1.04483
130.422,19.3912,-0.03480359,0.31269,1.04461
131.022,19.4494,-0.03512894,0.31217,1.0444
131.622,19.50742,-0.03513,0.31358,1.04418
132.222,19.56539,-0.03512283,0.31475,1.04396
132.822,19.62327,-0.03576292,0.3143,1.04375
133.422,19.6814,-0.03578999,0.31611,1.04353
134.022,19.73925,-0.03578947,0.3183,1.04331
134.622,19.79714,-0.03514049,0.31792,1.04309
135.222,19.85504,-0.03642593,0.31917,1.04287
135.822,19.91306,-0.03644999,0.31964,1.04265
136.422,19.97099,-0.03644967,0.32135,1.04243
137.022,20.02901,-0.03513477,0.321,1.04221
137.622,20.08684,-0.035131,0.32153,1.04199
138.222,20.1445,-0.03649715,0.32085,1.04177
138.822,20.20225,-0.03711437,0.32288,1.04155
139.422,20.26006,-0.03711001,0.32362,1.04133
140.022,20.3182,-0.03621843,0.32556,1.04111
140.622,20.37633,-0.03709987,0.32408,1.04088
141.222,20.4342,-0.03709997,0.32356,1.04066
141.822,20.49205,-0.03706081,0.32646,1.04044
142.422,20.54971,-0.03842002,0.32719,1.04021
143.022,20.60745,-0.03841814,0.32486,1.03999
143.622,20.66527,-0.03745568,0.3246,1.03976
144.222,20.72331,-0.03745915,0.32658,1.03954
144.822,20.78109,-0.03875026,0.32544,1.03931
145.422,20.83879,-0.03875,0.32713,1.03909
146.022,20.89635,-0.03875014,0.33005,1.03886
146.622,20.95395,-0.04016642,0.32997,1.03864
147.222,21.0117,-0.04006999,0.33023,1.03841
147.822,21.0694,-0.04036729,0.32995,1.03818
148.422,21.12704,-0.0400709,0.33032,1.03795
149.022,21.18453,-0.04007119,0.32946,1.03773
149.622,21.2421,-0.04071445,0.33205,1.0375
150.222,21.29969,-0.04072706,0.33297,1.03727
150.822,21.3571,-0.04168505,0.33427,1.03704
151.422,21.41459,-0.04205018,0.33515,1.03681
152.022,21.472,-0.04205,0.33631,1.03658
152.622,21.52946,-0.04204999,0.33739,1.03635
153.222,21.58703,-0.04312746,0.33535,1.03612
153.822,21.6444,-0.04336812,0.33674,1.03589
154.422,21.70185,-0.0424019,0.3369,1.03566
155.022,21.75916,-0.04371445,0.3373,1.03542
155.622,21.81655,-0.04370002,0.33669,1.03519
156.222,21.8739,-0.0437,0.3389,1.03496
156.822,21.93137,-0.04370026,0.33897,1.03472
157.422,21.98909,-0.04497861,0.34064,1.03449
158.022,22.04682,-0.04639297,0.33895,1.03426
158.622,22.10453,-0.04770092,0.33993,1.03402
159.222,22.16209,-0.04765001,0.34102,1.03379
159.822,22.21936,-0.04765,0.34063,1.03355
160.422,22.27657,-0.04765,0.3428,1.03332
161.022,22.33405,-0.04765,0.34297,1.03308
161.622,22.39153,-0.04765021,0.34213,1.03284
162.222,22.44908,-0.04797405,0.34347,1.03261
162.822,22.50656,-0.04899412,0.34169,1.03237
163.422,22.56405,-0.04897001,0.34397,1.03213
164.022,22.62175,-0.04897,0.34458,1.03189
164.622,22.6794,-0.04897003,0.34432,1.03165
165.222,22.7368,-0.04943686,0.34486,1.03142
165.822,22.79428,-0.05028306,0.3461,1.03118
166.422,22.85175,-0.05029,0.34464,1.03094
167.022,22.90936,-0.05029,0.34515,1.0307
167.622,22.96681,-0.05025339,0.34699,1.03046
168.222,23.02426,-0.05095409,0.34622,1.03021
168.822,23.0814,-0.05225241,0.34734,1.02997
169.422,23.13857,-0.05225,0.34862,1.02973
170.022,23.19569,-0.05224492,0.34785,1.02949
170.622,23.25296,-0.0529149,0.34795,1.02925
171.222,23.31053,-0.05291,0.3476,1.029
171.822,23.3679,-0.05292146,0.35035,1.02876
172.422,23.42545,-0.05423321,0.34818,1.02852
173.022,23.4829,-0.05417035,0.34948,1.02827
173.622,23.54006,-0.05686994,0.34989,1.02803
174.222,23.59744,-0.05687,0.35131,1.02778
174.822,23.65445,-0.05687,0.35279,1.02754
175.422,23.71164,-0.05687,0.35411,1.02729
176.022,23.76898,-0.05687,0.35264,1.02704
176.622,23.82634,-0.05686945,0.35483,1.0268
177.222,23.88353,-0.05796556,0.35573,1.02655
177.822,23.94076,-0.05786015,0.35645,1.0263
178.422,23.99796,-0.05909604,0.35716,1.02606
179.022,24.05477,-0.05917993,0.35789,1.02581
179.622,24.1121,-0.05918439,0.35745,1.02556
180.222,24.16949,-0.06016635,0.3587,1.02531
180.822,24.2262,-0.06087171,0.35824,1.02506
181.422,24.28369,-0.06082002,0.3576,1.02481
182.022,24.34083,-0.06082002,0.35889,1.02456
182.622,24.39794,-0.06071987,0.35817,1.02431
183.222,24.45532,-0.06279943,0.36073,1.02406
183.822,24.51243,-0.06280032,0.35729,1.02381
184.422,24.56939,-0.06312365,0.3584,1.02355
185.022,24.6267,-0.0631197,0.35841,1.0233
185.622,24.6839,-0.06397098,0.35793,1.02305
186.222,24.74074,-0.06444097,0.35787,1.02279
186.822,24.79797,-0.06444055,0.35579,1.02254
187.422,24.85507,-0.06476117,0.35525,1.02229
188.022,24.91215,-0.06475737,0.35518,1.02203
188.622,24.96999,-0.06708,0.35622,1.02178
189.222,25.02698,-0.06704579,0.35516,1.02152
189.822,25.08401,-0.06741017,0.35488,1.02127
190.422,25.14112,-0.06740463,0.35405,1.02101
191.022,25.19819,-0.06835306,0.35296,1.02075
191.622,25.25601,-0.06842312,0.35338,1.0205
192.222,25.31354,-0.07005301,0.35212,1.02024
192.822,25.3707,-0.07005,0.3528,1.01998
193.422,25.4279,-0.07005,0.35244,1.01972
194.022,25.4852,-0.07005,0.35246,1.01946
194.622,25.54257,-0.07004998,0.35124,1.0192
195.222,25.59954,-0.07005683,0.35173,1.01894
195.822,25.65656,-0.07270556,0.35107,1.01869
196.422,25.71336,-0.07267002,0.35145,1.01842
197.022,25.77028,-0.07267,0.35437,1.01816
197.622,25.82732,-0.07267176,0.35354,1.0179
198.222,25.88426,-0.07401897,0.35395,1.01764
198.822,25.94144,-0.07531033,0.3532,1.01738
199.422,25.9985,-0.07531,0.35453,1.01712
200.022,26.0557,-0.07531001,0.35491,1.01685
200.622,26.11281,-0.07533247,0.35396,1.01659
201.222,26.16974,-0.07663375,0.35685,1.01633
201.822,26.22689,-0.07797508,0.35474,1.01606
202.422,26.28381,-0.07926976,0.35718,1.0158
203.022,26.34089,-0.07792654,0.35594,1.01553
203.622,26.398,-0.07813963,0.35521,1.01527
204.222,26.45513,-0.07927045,0.35751,1.015
204.822,26.5123,-0.07927,0.35746,1.01474
205.422,26.56952,-0.07927047,0.35782,1.01447
206.022,26.62657,-0.08058474,0.35862,1.0142
206.622,26.68347,-0.08054367,0.35876,1.01393
207.222,26.74056,-0.08227849,0.36021,1.01367
207.822,26.7976,-0.08322022,0.36152,1.0134
208.422,26.8545,-0.08317364,0.36185,1.01313
209.022,26.9116,-0.08453878,0.36243,1.01286
209.622,26.9685,-0.08441062,0.36501,1.01259
210.222,27.02579,-0.08486193,0.36442,1.01232
210.822,27.083,-0.0861618,0.36733,1.01205
211.422,27.14035,-0.08486985,0.3678,1.01178
212.022,27.19773,-0.08699301,0.37127,1.01151
212.622,27.255,-0.08750007,0.37179,1.01124
213.222,27.31213,-0.08750003,0.37612,1.01097
213.822,27.36915,-0.08747813,0.37727,1.01069
214.422,27.42616,-0.08880244,0.37935,1.01042
215.022,27.4833,-0.09012818,0.38321,1.01015
215.622,27.5405,-0.09013204,0.38586,1.00987
216.222,27.5978,-0.09144921,0.38864,1.0096
216.822,27.65542,-0.09147515,0.39127,1.00932
217.422,27.7129,-0.09276648,0.39629,1.00905
218.022,27.7701,-0.09408989,0.39734,1.00877
218.622,27.82728,-0.09408657,0.40345,1.0085
219.222,27.88437,-0.09539625,0.40481,1.00822
219.822,27.94145,-0.0954088,0.40857,1.00794
220.422,27.99843,-0.09639485,0.41021,1.00767
221.022,28.05565,-0.09638974,0.41224,1.00739
221.622,28.1129,-0.09728555,0.41007,1.00711
222.222,28.17019,-0.09771043,0.40417,1.00683
222.822,28.2273,-0.09893043,0.39842,1.00655
223.422,28.2843,-0.10035,0.38994,1.00628
224.022,28.3414,-0.10035,0.38434,1.006
224.622,28.39831,-0.10165,0.37685,1.00572
225.222,28.4553,-0.10165,0.37351,1.00544
225.822,28.51215,-0.10298,0.37097,1.00515
226.422,28.5692,-0.10357,0.36855,1.00487
227.022,28.6263,-0.1043,0.36766,1.00459
227.622,28.68327,-0.10657,0.36628,1.00431
228.222,28.74,-0.10693,0.36567,1.00403
228.822,28.79706,-0.10824,0.36525,1.00374
229.422,28.85387,-0.10961,0.36547,1.00346
230.022,28.91112,-0.10989,0.36617,1.00318
230.622,28.9681,-0.11118,0.36465,1.00289
231.222,29.02555,-0.11184,0.36488,1.00261
231.822,29.08277,-0.11317,0.36519,1.00232
232.422,29.1402,-0.11483,0.36547,1.00204
233.022,29.197,-0.11478,0.36397,1.00175
233.622,29.2534,-0.11618,0.36724,1.00146
234.222,29.3104,-0.11747,0.36653,1.00118
234.822,29.3672,-0.11762,0.36721,1.00089
235.422,29.42432,-0.11957,0.36795,1.0006
236.022,29.48132,-0.12225,0.36859,1.00031
236.622,29.5381,-0.1227,0.36694,1.00002
237.222,29.59515,-0.12397,0.36982,0.99974
237.822,29.65237,-0.12538,0.36889,0.99945
238.422,29.70942,-0.1267,0.36978,0.99916
239.022,29.7662,-0.1286,0.3707,0.99887
239.622,29.82296,-0.12989,0.36913,0.99858
240.222,29.8799,-0.12987,0.37038,0.99828
240.822,29.9368,-0.13368,0.37003,0.99799
241.422,29.99387,-0.13485,0.36995,0.9977
242.022,30.0511,-0.13625,0.37121,0.99741
242.622,30.1082,-0.13806,0.37115,0.99712
243.222,30.16517,-0.13994,0.37114,0.99682
243.822,30.22213,-0.14103,0.37033,0.99653
244.422,30.279,-0.14281,0.37026,0.99623
245.022,30.33595,-0.14409,0.37091,0.99594
245.622,30.3931,-0.14648,0.37142,0.99564
246.222,30.4503,-0.14822,0.37278,0.99535
246.822,30.5074,-0.14932,0.37198,0.99505
247.422,30.56454,-0.1509,0.37137,0.99476
248.022,30.62165,-0.15409,0.37234,0.99446
248.622,30.679,-0.15666,0.37338,0.99416
249.222,30.73603,-0.15956,0.37203,0.99386
249.822,30.7933,-0.16094,0.37352,0.99357
250.422,30.85033,-0.16284,0.3749,0.99327
251.022,30.9074,-0.16545,0.37703,0.99297
251.622,30.9647,-0.16723,0.37713,0.99267
252.222,31.0218,-0.17031,0.37681,0.99237
252.822,31.0788,-0.17325,0.37788,0.99207
253.422,31.13585,-0.1766,0.37934,0.99177
254.022,31.19309,-0.17852,0.37955,0.99147
254.622,31.2506,-0.18138,0.38316,0.99117
255.222,31.30817,-0.18447,0.38327,0.99087
255.822,31.36562,-0.18646,0.3849,0.99056
256.422,31.4227,-0.19002,0.38636,0.99026
257.022,31.4797,-0.19233,0.3872,0.98996
257.622,31.5369,-0.19569,0.38764,0.98965
258.222,31.5941,-0.19875,0.38902,0.98935
258.822,31.65137,-0.2025,0.38947,0.98904
259.422,31.70843,-0.20626,0.39094,0.98874
260.022,31.76543,-0.20945,0.39246,0.98843
260.622,31.8226,-0.2127,0.39506,0.98813
261.222,31.87974,-0.21701,0.39464,0.98782
261.822,31.9369,-0.21987,0.39706,0.98752
262.422,31.9941,-0.22301,0.39994,0.98721
263.022,32.05127,-0.22903,0.40053,0.9869
263.622,32.1085,-0.23282,0.40333,0.98659
264.222,32.1657,-0.23718,0.40522,0.98628
264.822,32.2229,-0.24097,0.40647,0.98598
265.422,32.28013,-0.24538,0.40911,0.98567
266.022,32.33718,-0.2493,0.40968,0.98536
266.622,32.39432,-0.25459,0.41018,0.98505
267.222,32.45135,-0.25893,0.41263,0.98474
267.822,32.5084,-0.26323,0.41728,0.98442
268.422,32.56561,-0.26785,0.4186,0.98411
269.022,32.62283,-0.27296,0.42159,0.9838
269.622,32.68,-0.27753,0.42363,0.98349
270.222,32.73717,-0.28412,0.42635,0.98318
270.822,32.79419,-0.28994,0.43057,0.98286
271.422,32.8515,-0.29591,0.43189,0.98255
272.022,32.9088,-0.30227,0.43752,0.98224
272.622,32.96606,-0.30822,0.43877,0.98192
273.222,33.0234,-0.31328,0.44399,0.98161
273.822,33.0805,-0.31942,0.4485,0.98129
274.422,33.13756,-0.32568,0.45214,0.98097
275.022,33.195,-0.33342,0.45729,0.98066
275.622,33.25199,-0.34166,0.46371,0.98034
276.222,33.30922,-0.34942,0.46792,0.98002
276.822,33.36636,-0.35658,0.47534,0.97971
277.422,33.42354,-0.36566,0.48253,0.97939
278.022,33.48085,-0.37429,0.49098,0.97907
278.622,33.53801,-0.3829,0.49611,0.97875
279.222,33.59539,-0.39212,0.50205,0.97843
279.822,33.65262,-0.4021,0.50789,0.97811
280.422,33.71,-0.41245,0.51364,0.97779
281.022,33.76693,-0.42201,0.52183,0.97747
281.622,33.82441,-0.43237,0.5278,0.97715
282.222,33.8818,-0.44384,0.53278,0.97683
282.822,33.93952,-0.45539,0.53847,0.97651
283.422,33.99707,-0.4668,0.54423,0.97619
284.022,34.05428,-0.47927,0.5489,0.97586
284.622,34.11143,-0.49189,0.55376,0.97554
285.222,34.1688,-0.50396,0.55911,0.97522
285.822,34.2262,-0.51799,0.56254,0.97489
286.422,34.28358,-0.53103,0.56874,0.97457
287.022,34.3412,-0.54515,0.57411,0.97424
287.622,34.3985,-0.55949,0.57684,0.97392
288.222,34.45602,-0.5734,0.58073,0.97359
288.822,34.5136,-0.58875,0.58526,0.97326
289.422,34.57087,-0.60359,0.59092,0.97294
290.022,34.6282,-0.61996,0.5951,0.97261
290.622,34.68568,-0.63575,0.59901,0.97228
291.222,34.74297,-0.65062,0.60188,0.97196
291.822,34.80015,-0.66796,0.6075,0.97163
292.422,34.85781,-0.68433,0.60597,0.9713
293.022,34.91527,-0.70188,0.60761,0.97097
293.622,34.97303,-0.71877,0.61084,0.97064
294.222,35.0307,-0.7364,0.61052,0.97031
294.822,35.0882,-0.75446,0.61164,0.96998
295.422,35.14581,-0.77084,0.6136,0.96965
296.022,35.20339,-0.78973,0.61432,0.96932
296.622,35.26081,-0.80761,0.61393,0.96898
297.222,35.31843,-0.82744,0.61146,0.96865
297.822,35.37573,-0.84527,0.60414,0.96832
298.422,35.43323,-0.86409,0.59425,0.96799
299.022,35.4906,-0.88194,0.57691,0.96765
299.622,35.5481,-0.9005,0.56291,0.96732
300.222,35.60563,-0.91957,0.55076,0.96698
300.822,35.66305,-0.9385,0.54476,0.96665
301.422,35.72055,-0.9597,0.54129,0.96631
302.022,35.77773,-0.9788,0.54457,0.96598
302.622,35.83507,-1.00065,0.55322,0.96564
303.222,35.8926,-1.02073,0.56053,0.9653
303.822,35.95026,-1.04218,0.57085,0.96497
304.422,36.00776,-1.06569,0.58069,0.96463
305.022,36.06544,-1.08716,0.58968,0.96429
305.622,36.12304,-1.11054,0.59757,0.96395
306.222,36.1806,-1.13366,0.60611,0.96361
306.822,36.23819,-1.15651,0.61845,0.96327
307.422,36.29588,-1.17975,0.62543,0.96293
308.022,36.35354,-1.20442,0.63148,0.96259
308.622,36.41104,-1.22695,0.63804,0.96225
309.222,36.4688,-1.25115,0.64697,0.96191
309.822,36.52643,-1.27657,0.65265,0.96157
310.422,36.584,-1.29978,0.65759,0.96123
311.022,36.64181,-1.32648,0.66126,0.96088
311.622,36.69928,-1.35012,0.66808,0.96054
312.222,36.75703,-1.37608,0.67214,0.9602
312.822,36.8146,-1.40004,0.67295,0.95985
313.422,36.87215,-1.42548,0.67598,0.95951
314.022,36.9298,-1.4505,0.67651,0.95917
314.622,36.9874,-1.47476,0.67476,0.95882
315.222,37.04523,-1.49982,0.67485,0.95848
315.822,37.10268,-1.52428,0.67322,0.95813
316.422,37.15968,-1.54891,0.66801,0.95778
317.022,37.21735,-1.57192,0.66293,0.95744
317.622,37.2748,-1.59651,0.65639,0.95709
318.222,37.33285,-1.61832,0.64992,0.95674
318.822,37.3907,-1.64177,0.64,0.95639
319.422,37.44833,-1.66283,0.62751,0.95604
320.022,37.50595,-1.68196,0.61692,0.95569
320.622,37.56366,-1.70353,0.59975,0.95535
321.222,37.6214,-1.72103,0.58819,0.955
321.822,37.6786,-1.74026,0.5716,0.95464
322.422,37.7359,-1.75662,0.55755,0.95429
323.022,37.7933,-1.77343,0.54177,0.95394
323.622,37.85106,-1.78862,0.5293,0.95359
324.222,37.90899,-1.80387,0.51629,0.95324
324.822,37.96683,-1.81801,0.49986,0.95289
325.422,38.0244,-1.83223,0.48604,0.95253
326.022,38.08204,-1.84529,0.47619,0.95218
326.622,38.13955,-1.85665,0.46477,0.95183
327.222,38.1971,-1.87031,0.45281,0.95147
327.822,38.25458,-1.88052,0.44227,0.95112
328.422,38.31201,-1.89015,0.4311,0.95076
329.022,38.36945,-1.9021,0.42245,0.95041
329.622,38.4268,-1.91165,0.4113,0.95005
330.222,38.48418,-1.92001,0.40111,0.94969
330.822,38.54193,-1.93011,0.39288,0.94934
331.422,38.59932,-1.93791,0.3837,0.94898
332.022,38.65683,-1.94648,0.37438,0.94862
332.622,38.71439,-1.95346,0.36832,0.94826
333.222,38.77199,-1.96072,0.36009,0.9479
333.822,38.8299,-1.96818,0.35253,0.94754
334.422,38.8872,-1.97466,0.34508,0.94718
335.022,38.94465,-1.98108,0.33778,0.94682
335.622,39.00215,-1.98982,0.32938,0.94646
336.222,39.05981,-1.99617,0.32316,0.9461
336.822,39.11732,-2.00248,0.31698,0.94574
337.422,39.17498,-2.00823,0.30819,0.94538
338.022,39.23254,-2.01362,0.30322,0.94502
338.622,39.29022,-2.01915,0.29641,0.94465
339.222,39.34806,-2.02383,0.29136,0.94429
339.822,39.40563,-2.03008,0.28527,0.94393
340.422,39.46331,-2.03383,0.27888,0.94356
341.022,39.52094,-2.03908,0.27296,0.9432
341.622,39.57871,-2.04388,0.26674,0.94283
342.222,39.63635,-2.04751,0.26293,0.94247
342.822,39.69396,-2.05149,0.25661,0.9421
343.422,39.75163,-2.056,0.25275,0.94174
344.022,39.80937,-2.05886,0.24413,0.94137
344.622,39.86701,-2.06305,0.24046,0.941
345.222,39.9248,-2.06764,0.23388,0.94064
345.822,39.98261,-2.07206,0.23016,0.94027
346.422,40.0407,-2.07464,0.2259,0.9399
347.022,40.0987,-2.07778,0.22053,0.93953
347.622,40.15647,-2.08042,0.21674,0.93916
348.222,40.21393,-2.0843,0.21152,0.93879
348.822,40.27163,-2.08797,0.20956,0.93842
349.422,40.32926,-2.09136,0.20597,0.93805
350.022,40.38714,-2.09414,0.2011,0.93768
350.622,40.44513,-2.0961,0.19665,0.93731
351.222,40.50298,-2.09821,0.19439,0.93694
351.822,40.56087,-2.10097,0.19229,0.93656
352.422,40.61875,-2.10395,0.18794,0.93619
353.022,40.6765,-2.10682,0.18606,0.93582
353.622,40.73448,-2.1088,0.18155,0.93544
354.222,40.7921,-2.11111,0.1813,0.93507
354.822,40.8499,-2.113,0.17718,0.93469
355.422,40.90767,-2.11428,0.17573,0.93432
356.022,40.96566,-2.11723,0.17285,0.93394
356.622,41.0236,-2.12013,0.17156,0.93357
357.222,41.08149,-2.12132,0.17194,0.93319
357.822,41.13948,-2.12286,0.16776,0.93281
358.422,41.19747,-2.12558,0.16622,0.93244
359.022,41.25548,-2.12714,0.16554,0.93206
359.622,41.31358,-2.12932,0.16391,0.93168
360.222,41.3716,-2.13017,0.16235,0.9313
360.822,41.42962,-2.13232,0.16253,0.93092
361.422,41.4876,-2.13364,0.16117,0.93054
362.022,41.5452,-2.13544,0.15908,0.93016
362.622,41.60326,-2.13693,0.16111,0.92978
363.222,41.6614,-2.13837,0.15948,0.9294
363.822,41.71954,-2.14024,0.15882,0.92902
364.422,41.77807,-2.14108,0.15938,0.92864
365.022,41.83605,-2.14254,0.1593,0.92826
365.622,41.8941,-2.14428,0.15833,0.92788
366.222,41.95228,-2.14569,0.15955,0.92749
366.822,42.01039,-2.14652,0.15857,0.92711
367.422,42.06876,-2.14736,0.15807,0.92673
368.022,42.12692,-2.14864,0.15815,0.92634
368.622,42.18489,-2.15067,0.15885,0.92596
369.222,42.24304,-2.15257,0.15863,0.92557
369.822,42.30079,-2.15395,0.15954,0.92519
370.422,42.359,-2.1556,0.16008,0.9248
371.022,42.41726,-2.15632,0.15982,0.92441
371.622,42.47544,-2.15691,0.16049,0.92403
372.222,42.53368,-2.15828,0.15955,0.92364
372.822,42.59187,-2.15977,0.15854,0.92325
373.422,42.6501,-2.16109,0.15829,0.92286
374.022,42.70837,-2.16239,0.15933,0.92248
374.622,42.76651,-2.16372,0.15907,0.92209
375.222,42.82464,-2.16501,0.15971,0.9217
375.822,42.88277,-2.16621,0.16008,0.92131
376.422,42.941,-2.1677,0.1579,0.92092
377.022,42.9993,-2.16728,0.16032,0.92053
377.622,43.05785,-2.16799,0.16001,0.92013
378.222,43.11615,-2.16936,0.15871,0.91974
378.822,43.1744,-2.17155,0.1601,0.91935
379.422,43.2327,-2.17295,0.15938,0.91896
380.022,43.29105,-2.17426,0.16051,0.91857
380.622,43.3491,-2.1756,0.16129,0.91817
381.222,43.4074,-2.17688,0.15899,0.91778
381.822,43.46553,-2.17819,0.16138,0.91738
382.422,43.52365,-2.17952,0.15927,0.91699
383.022,43.582,-2.17953,0.16057,0.91659
383.622,43.64017,-2.18085,0.15925,0.9162
384.222,43.69843,-2.18216,0.16027,0.9158
384.822,43.75652,-2.18348,0.1593,0.91541
385.422,43.81477,-2.18504,0.15994,0.91501
386.022,43.8732,-2.18759,0.16002,0.91461
386.622,43.9313,-2.18831,0.15932,0.91421
387.222,43.98966,-2.18886,0.15988,0.91382
387.822,44.04795,-2.19019,0.16141,0.91342
388.422,44.1065,-2.19153,0.15978,0.91302
389.022,44.16505,-2.19281,0.16072,0.91262
389.622,44.22313,-2.19399,0.1616,0.91222
390.222,44.28145,-2.19544,0.16251,0.91182
390.822,44.33975,-2.19677,0.1619,0.91142
391.422,44.3982,-2.19807,0.15971,0.91102
392.022,44.45639,-2.19938,0.16133,0.91061
392.622,44.5145,-2.20075,0.16153,0.91021
393.222,44.5728,-2.20204,0.16136,0.90981
393.822,44.63135,-2.20335,0.16222,0.90941
394.422,44.68963,-2.20501,0.16236,0.909
395.022,44.74796,-2.20632,0.16425,0.9086
395.622,44.80614,-2.2076,0.16193,0.9082
396.222,44.8643,-2.21006,0.16235,0.90779
396.822,44.92255,-2.21185,0.16205,0.90739
397.422,44.9807,-2.21323,0.16168,0.90698
398.022,45.039,-2.21454,0.16275,0.90657
398.622,45.09728,-2.216,0.1623,0.90617
399.222,45.15565,-2.21741,0.16259,0.90576
399.822,45.2143,-2.21928,0.16402,0.90535
400.422,45.27252,-2.22113,0.16299,0.90495
401.022,45.33043,-2.22367,0.16186,0.90454
401.622,45.38877,-2.22474,0.16238,0.90413
402.222,45.44696,-2.22497,0.16221,0.90372
402.822,45.50558,-2.22629,0.16141,0.90331
403.422,45.5642,-2.23042,0.16247,0.9029
404.022,45.62272,-2.23153,0.16327,0.90249
404.622,45.68125,-2.23299,0.16335,0.90208
405.222,45.7397,-2.23464,0.16347,0.90167
405.822,45.7981,-2.23677,0.16151,0.90126
406.422,45.85651,-2.23879,0.16199,0.90085
407.022,45.915,-2.24096,0.16195,0.90043
407.622,45.97322,-2.24352,0.16287,0.90002
408.222,46.03178,-2.24495,0.16076,0.89961
408.822,46.0902,-2.24629,0.16078,0.89919
409.422,46.14881,-2.24915,0.16277,0.89878
410.022,46.2074,-2.24926,0.16098,0.89837
410.622,46.26593,-2.25181,0.16096,0.89795
411.222,46.32463,-2.25451,0.16107,0.89753
411.822,46.38335,-2.25598,0.16163,0.89712
412.422,46.44215,-2.25886,0.1598,0.8967
413.022,46.5006,-2.26037,0.16038,0.89629
413.622,46.55908,-2.26329,0.15956,0.89587
414.222,46.61753,-2.26449,0.16023,0.89545
414.822,46.676,-2.26638,0.15913,0.89503
415.422,46.73467,-2.26974,0.15898,0.89461
416.022,46.79327,-2.27209,0.15772,0.8942
416.622,46.85177,-2.27379,0.15692,0.89378
417.222,46.9103,-2.27613,0.15576,0.89336
417.822,46.9687,-2.27855,0.15477,0.89294
418.422,47.02737,-2.28051,0.15451,0.89252
419.022,47.0862,-2.28244,0.15422,0.8921
419.622,47.14481,-2.28361,0.15297,0.89167
420.222,47.20353,-2.28475,0.15254,0.89125
420.822,47.26198,-2.2881,0.15225,0.89083
421.422,47.32072,-2.292,0.15281,0.89041
422.022,47.37937,-2.29501,0.14943,0.88998
422.622,47.43785,-2.29804,0.14701,0.88956
423.222,47.49667,-2.29908,0.14708,0.88914
423.822,47.55518,-2.3014,0.14722,0.88871
424.422,47.61396,-2.30423,0.14738,0.88829
425.022,47.6728,-2.30889,0.14586,0.88786
425.622,47.73166,-2.31109,0.14501,0.88744
426.222,47.79051,-2.31313,0.146,0.88701
426.822,47.84922,-2.31491,0.14507,0.88658
427.422,47.90809,-2.31786,0.14387,0.88616
428.022,47.9668,-2.32108,0.14243,0.88573
428.622,48.02534,-2.32337,0.14233,0.8853
429.222,48.08408,-2.32642,0.14161,0.88487
429.822,48.1428,-2.32881,0.14137,0.88445
430.422,48.20153,-2.33203,0.13863,0.88402
431.022,48.2605,-2.33381,0.14068,0.88359
431.622,48.3193,-2.33777,0.14119,0.88316
432.222,48.378,-2.34101,0.1383,0.88273
432.822,48.43679,-2.34355,0.1404,0.8823
433.422,48.49535,-2.34724,0.13993,0.88187
434.022,48.55418,-2.34966,0.1402,0.88143
434.622,48.61308,-2.35391,0.14008,0.881
435.222,48.6721,-2.35641,0.1424,0.88057
435.822,48.73106,-2.36012,0.14225,0.88014
436.422,48.7898,-2.36329,0.14173,0.8797
437.022,48.84859,-2.36699,0.14312,0.87927
437.622,48.90726,-2.37058,0.14452,0.87884
438.222,48.96594,-2.37541,0.14581,0.8784
438.822,49.02486,-2.37986,0.14639,0.87797
439.422,49.0838,-2.38227,0.14985,0.87753
440.022,49.1425,-2.38554,0.15063,0.8771
440.622,49.2014,-2.38947,0.15231,0.87666
441.222,49.26031,-2.39342,0.15442,0.87622
441.822,49.31923,-2.39709,0.15595,0.87579
442.422,49.3784,-2.40176,0.15605,0.87535
443.022,49.4371,-2.40545,0.16235,0.87491
443.622,49.49595,-2.4092,0.16318,0.87447
444.222,49.5548,-2.4141,0.16333,0.87404
444.822,49.6136,-2.41678,0.16942,0.8736
445.422,49.67236,-2.42156,0.17083,0.87316
446.022,49.73123,-2.42656,0.17375,0.87272
446.622,49.79013,-2.43049,0.17707,0.87228
447.222,49.8491,-2.43733,0.17842,0.87184
447.822,49.9079,-2.4415,0.18243,0.8714
448.422,49.96673,-2.44586,0.18401,0.87095
449.022,50.02564,-2.45138,0.18607,0.87051
449.622,50.08465,-2.45589,0.19139,0.87007
450.222,50.1436,-2.45992,0.19351,0.86963
450.822,50.20243,-2.46464,0.19592,0.86918
451.422,50.26157,-2.46871,0.20067,0.86874
452.022,50.32049,-2.47456,0.2009,0.8683
452.622,50.37957,-2.47997,0.20234,0.86785
453.222,50.43857,-2.48395,0.20567,0.86741
453.822,50.49742,-2.48895,0.20951,0.86696
454.422,50.5565,-2.49395,0.21109,0.86652
455.022,50.61542,-2.49943,0.20974,0.86607
455.622,50.6744,-2.5048,0.21555,0.86562
456.222,50.73346,-2.50908,0.2139,0.86518
456.822,50.7926,-2.51441,0.21896,0.86473
457.422,50.8517,-2.51915,0.22052,0.86428
458.022,50.91077,-2.52389,0.22163,0.86384
458.622,50.96967,-2.52916,0.22323,0.86339
459.222,51.0287,-2.53392,0.22452,0.86294
459.822,51.0875,-2.53806,0.22675,0.86249
460.422,51.1466,-2.54419,0.22672,0.86204
461.022,51.20561,-2.54832,0.22768,0.86159
461.622,51.26469,-2.55396,0.22777,0.86114
462.222,51.3237,-2.55843,0.23069,0.86069
462.822,51.38284,-2.56384,0.23015,0.86024
463.422,51.4414,-2.56851,0.22913,0.85979
464.022,51.50059,-2.57224,0.23338,0.85933
464.622,51.55962,-2.57757,0.23245,0.85888
465.222,51.6188,-2.58111,0.2344,0.85843
465.822,51.67807,-2.58505,0.23597,0.85797
466.422,51.73703,-2.5884,0.23522,0.85752
467.022,51.79599,-2.59526,0.2359,0.85707
467.622,51.85497,-2.59868,0.23633,0.85661
468.222,51.9139,-2.60257,0.23638,0.85616
468.822,51.97298,-2.60681,0.23688,0.8557
469.422,52.03167,-2.61207,0.2367,0.85525
470.022,52.09067,-2.61565,0.23792,0.85479
470.622,52.14969,-2.61994,0.23917,0.85433
471.222,52.20879,-2.62393,0.23922,0.85388
471.822,52.268,-2.62831,0.24162,0.85342
472.422,52.327,-2.63276,0.24151,0.85296
473.022,52.38601,-2.63584,0.24205,0.8525
473.622,52.44481,-2.64025,0.24146,0.85205
474.222,52.5038,-2.64472,0.24066,0.85159
474.822,52.5628,-2.64811,0.23979,0.85113
475.422,52.62186,-2.65117,0.2393,0.85067
476.022,52.6809,-2.65429,0.23901,0.85021
476.622,52.73973,-2.65959,0.23826,0.84975
477.222,52.7988,-2.66275,0.23464,0.84929
477.822,52.85776,-2.6662,0.23627,0.84883
478.422,52.9169,-2.66945,0.23512,0.84836
479.022,52.9761,-2.67234,0.23429,0.8479
479.622,53.0352,-2.67572,0.23063,0.84744
480.222,53.0944,-2.67884,0.23032,0.84698
480.822,53.15368,-2.68061,0.22691,0.84651
481.422,53.2132,-2.68392,0.22693,0.84605
482.022,53.2726,-2.68708,0.22656,0.84559
482.622,53.33177,-2.68923,0.22412,0.84512
483.222,53.39079,-2.69273,0.22206,0.84466
483.822,53.4499,-2.69441,0.22132,0.84419
484.422,53.509,-2.69755,0.21819,0.84373
485.022,53.5681,-2.70059,0.21667,0.84326
485.622,53.62719,-2.70384,0.21522,0.84279
486.222,53.68619,-2.70564,0.21246,0.84233
486.822,53.7453,-2.70889,0.21083,0.84186
487.422,53.80449,-2.71108,0.20996,0.84139
488.022,53.86371,-2.71269,0.20785,0.84092
488.622,53.92321,-2.71526,0.207,0.84046
489.222,53.9824,-2.71731,0.20652,0.83999
489.822,54.0413,-2.71978,0.20133,0.83952
490.422,54.1001,-2.72176,0.20448,0.83905
491.022,54.1592,-2.72375,0.20238,0.83858
491.622,54.2185,-2.72479,0.20155,0.83811
492.222,54.27828,-2.72654,0.19803,0.83764
492.822,54.33766,-2.72914,0.19738,0.83717
493.422,54.397,-2.73161,0.19588,0.8367
494.022,54.45605,-2.73283,0.19503,0.83622
494.622,54.5153,-2.73316,0.19388,0.83575
495.222,54.5744,-2.73581,0.19369,0.83528
495.822,54.6337,-2.73603,0.19028,0.83481
496.422,54.6929,-2.73748,0.18932,0.83433
497.022,54.7523,-2.73992,0.18933,0.83386
497.622,54.81174,-2.74138,0.18976,0.83338
498.222,54.8711,-2.7429,0.18678,0.83291
498.822,54.93023,-2.7445,0.18844,0.83244
499.422,54.9894,-2.74546,0.18747,0.83196
500.022,55.04843,-2.74678,0.1866,0.83148
500.622,55.1077,-2.7481,0.18678,0.83101
501.222,55.167,-2.74942,0.18775,0.83053
501.822,55.22656,-2.75077,0.18576,0.83006
502.422,55.28595,-2.75213,0.18629,0.82958
503.022,55.3452,-2.75257,0.18559,0.8291
503.622,55.40458,-2.75445,0.18288,0.82862
504.222,55.46391,-2.75557,0.18621,0.82815
504.822,55.52327,-2.75567,0.18348,0.82767
505.422,55.5829,-2.757,0.18409,0.82719
506.022,55.6423,-2.75831,0.18441,0.82671
506.622,55.70165,-2.75942,0.18465,0.82623
507.222,55.76116,-2.76099,0.18323,0.82575
507.822,55.8205,-2.76094,0.18239,0.82527
508.422,55.87998,-2.76226,0.18185,0.82479
509.022,55.93955,-2.76127,0.18132,0.82431
509.622,55.999,-2.76259,0.18026,0.82382
510.222,56.05845,-2.76391,0.18098,0.82334
510.822,56.1177,-2.76467,0.18013,0.82286
511.422,56.17685,-2.76514,0.18178,0.82238
512.022,56.2362,-2.7672,0.18266,0.82189
512.622,56.29545,-2.7686,0.18272,0.82141
513.222,56.35495,-2.76847,0.18531,0.82093
513.822,56.41437,-2.76981,0.18808,0.82044
514.422,56.47396,-2.76983,0.1898,0.81996
515.022,56.53301,-2.76985,0.18921,0.81947
515.622,56.59255,-2.77247,0.18912,0.81899
516.222,56.652,-2.77247,0.19143,0.8185
516.822,56.7118,-2.77288,0.19181,0.81802
517.422,56.77169,-2.77245,0.1932,0.81753
518.022,56.83135,-2.77378,0.19441,0.81704
518.622,56.8909,-2.77484,0.19769,0.81656
519.222,56.9504,-2.77545,0.19839,0.81607
519.822,57.0098,-2.77741,0.19894,0.81558
520.422,57.06935,-2.77741,0.19813,0.81509
521.022,57.1287,-2.77741,0.19841,0.8146
521.622,57.18818,-2.77602,0.19936,0.81411
522.222,57.2476,-2.77743,0.19714,0.81362
522.822,57.30726,-2.77872,0.19903,0.81313
523.422,57.36695,-2.78002,0.19986,0.81264
524.022,57.4265,-2.78107,0.19985,0.81215
524.622,57.48601,-2.78125,0.20223,0.81166
525.222,57.54545,-2.78253,0.20177,0.81117
525.822,57.6051,-2.78268,0.2013,0.81068
526.422,57.6647,-2.78371,0.20194,0.81019
527.022,57.7244,-2.78391,0.20107,0.8097
527.622,57.78389,-2.783,0.20246,0.8092
528.222,57.8433,-2.78429,0.20377,0.80871
528.822,57.90266,-2.78432,0.20457,0.80822
529.422,57.96225,-2.78564,0.20342,0.80772
530.022,58.02183,-2.78564,0.20715,0.80723
530.622,58.08145,-2.78695,0.2058,0.80674
531.222,58.14099,-2.78698,0.20674,0.80624
531.822,58.2005,-2.78729,0.2065,0.80575
532.422,58.25963,-2.7886,0.20755,0.80525
533.022,58.3193,-2.78861,0.20808,0.80475
533.622,58.37896,-2.78992,0.20837,0.80426
534.222,58.4389,-2.78992,0.20675,0.80376
534.822,58.4986,-2.79125,0.20783,0.80327
535.422,58.5583,-2.79255,0.209,0.80277
536.022,58.61793,-2.79256,0.20806,0.80227
536.622,58.67771,-2.79378,0.20942,0.80177
537.222,58.73731,-2.79289,0.21024,0.80127
537.822,58.797,-2.79424,0.20967,0.80078
538.422,58.85675,-2.79421,0.21218,0.80028
539.022,58.9165,-2.7956,0.21082,0.79978
539.622,58.97664,-2.79553,0.21183,0.79928
540.222,59.0364,-2.79553,0.21285,0.79878
540.822,59.09615,-2.79692,0.21451,0.79828
541.422,59.1559,-2.79685,0.21646,0.79778
542.022,59.21564,-2.79686,0.21639,0.79728
542.622,59.27522,-2.79816,0.21857,0.79677
543.222,59.33486,-2.79921,0.21891,0.79627
543.822,59.39459,-2.80072,0.22003,0.79577
544.422,59.45423,-2.8008,0.22193,0.79527
545.022,59.51376,-2.80083,0.22494,0.79477
545.622,59.5733,-2.80179,0.22618,0.79426
546.222,59.63293,-2.80183,0.22479,0.79376
546.822,59.69246,-2.80178,0.22491,0.79326
547.422,59.7524,-2.80308,0.22628,0.79275
548.022,59.81208,-2.80442,0.22711,0.79225
548.622,59.8717,-2.80443,0.22911,0.79174
549.222,59.9314,-2.80442,0.23288,0.79124
549.822,59.991,-2.80442,0.23424,0.79073
550.422,60.0507,-2.80573,0.23579,0.79023
551.022,60.1104,-2.80573,0.23678,0.78972
551.622,60.17001,-2.80705,0.23673,0.78921
552.222,60.2295,-2.80705,0.24362,0.78871
552.822,60.28917,-2.80837,0.24366,0.7882
553.422,60.3484,-2.80969,0.24602,0.78769
554.022,60.408,-2.80969,0.24751,0.78718
554.622,60.4676,-2.81102,0.25119,0.78668
555.222,60.52734,-2.81211,0.25113,0.78617
555.822,60.5868,-2.81222,0.25158,0.78566
556.422,60.64635,-2.81367,0.2555,0.78515
557.022,60.706,-2.81496,0.2578,0.78464
557.622,60.7658,-2.81628,0.2604,0.78413
558.222,60.82571,-2.81627,0.26533,0.78362
558.822,60.88541,-2.8176,0.26497,0.78311
559.422,60.94523,-2.81708,0.2683,0.7826
560.022,61.00493,-2.81787,0.26931,0.78209
560.622,61.06456,-2.81925,0.27104,0.78158
561.222,61.1242,-2.82055,0.27615,0.78106
561.822,61.1839,-2.82054,0.27549,0.78055
562.422,61.24369,-2.82204,0.28,0.78004
563.022,61.3035,-2.82349,0.2823,0.77953
563.622,61.3634,-2.82451,0.28503,0.77901
564.222,61.42325,-2.82587,0.28622,0.7785
564.822,61.4832,-2.82576,0.28635,0.77799
565.422,61.54325,-2.82678,0.29143,0.77747
566.022,61.60321,-2.82814,0.29085,0.77696
566.622,61.66324,-2.82955,0.29453,0.77644
567.222,61.7232,-2.82972,0.29413,0.77593
567.822,61.783,-2.8307,0.2941,0.77541
568.422,61.8431,-2.83208,0.29399,0.7749
569.022,61.90291,-2.83337,0.29339,0.77438
569.622,61.96261,-2.83471,0.29234,0.77386
570.222,62.0226,-2.83465,0.29218,0.77335
570.822,62.08243,-2.83471,0.29051,0.77283
571.422,62.14281,-2.83669,0.29017,0.77231
572.022,62.20306,-2.83806,0.28645,0.7718
572.622,62.26314,-2.83826,0.28503,0.77128
573.222,62.3233,-2.84069,0.28309,0.77076
573.822,62.3833,-2.84282,0.28229,0.77024
574.422,62.44328,-2.843,0.27592,0.76972
575.022,62.50317,-2.84405,0.26963,0.7692
575.622,62.56299,-2.84539,0.26894,0.76868
576.222,62.6229,-2.84537,0.26322,0.76816
576.822,62.6827,-2.84536,0.2591,0.76764
577.422,62.7425,-2.84556,0.25287,0.76712
578.022,62.80245,-2.8467,0.24796,0.7666
578.622,62.86235,-2.848,0.24439,0.76608
579.222,62.92215,-2.8493,0.24027,0.76556
579.822,62.9821,-2.8494,0.23758,0.76504
580.422,63.0417,-2.8506,0.22999,0.76452
581.022,63.10155,-2.85064,0.22543,0.76399
581.622,63.1615,-2.85203,0.22141,0.76347
582.222,63.2214,-2.85196,0.21647,0.76295
582.822,63.28139,-2.85336,0.21376,0.76243
583.422,63.34104,-2.85457,0.20925,0.7619
584.022,63.4008,-2.85459,0.20541,0.76138
584.622,63.4606,-2.85459,0.20131,0.76085
585.222,63.5205,-2.85625,0.199,0.76033
585.822,63.5806,-2.85624,0.1964,0.75981
586.422,63.64062,-2.85756,0.19578,0.75928
587.022,63.70069,-2.85756,0.19229,0.75876
587.622,63.76064,-2.85753,0.18923,0.75823
588.222,63.82049,-2.85754,0.18712,0.7577
588.822,63.8804,-2.85986,0.18749,0.75718
589.422,63.94019,-2.85986,0.1869,0.75665
590.022,64.00016,-2.85986,0.18558,0.75612
590.622,64.0599,-2.86051,0.18348,0.7556
591.222,64.1198,-2.86052,0.18214,0.75507
591.822,64.17979,-2.86183,0.18076,0.75454
592.422,64.23984,-2.86183,0.18239,0.75401
593.022,64.29996,-2.86183,0.1788,0.75349
593.622,64.3599,-2.86315,0.17967,0.75296
594.222,64.41969,-2.86315,0.17928,0.75243
594.822,64.47965,-2.86411,0.17893,0.7519
595.422,64.53949,-2.86383,0.17903,0.75137
596.022,64.5997,-2.8638,0.17893,0.75084
596.622,64.65987,-2.86513,0.17807,0.75031
597.222,64.72012,-2.86513,0.18091,0.74978
597.822,64.78016,-2.86513,0.17956,0.74925
598.422,64.83995,-2.86644,0.17994,0.74872
599.022,64.8998,-2.86644,0.18055,0.74819
599.622,64.95968,-2.86512,0.17896,0.74766
600.222,65.01979,-2.86643,0.17733,0.74712
600.822,65.0799,-2.86776,0.18295,0.74659
601.422,65.13982,-2.86776,0.18108,0.74606
602.022,65.1999,-2.86908,0.18194,0.74553
602.622,65.25973,-2.86908,0.18134,0.74499
603.222,65.31976,-2.86842,0.18323,0.74446
603.822,65.37971,-2.86842,0.18337,0.74393
604.422,65.4397,-2.86941,0.18349,0.74339
605.022,65.49985,-2.86908,0.18389,0.74286
605.622,65.5599,-2.8694,0.186,0.74233
606.222,65.61985,-2.87039,0.18664,0.74179
606.822,65.67989,-2.87039,0.18725,0.74126
607.422,65.7398,-2.87171,0.18817,0.74072
608.022,65.7997,-2.87171,0.1898,0.74019
608.622,65.85978,-2.87073,0.18767,0.73965
609.222,65.91977,-2.87171,0.19054,0.73912
609.822,65.97972,-2.87138,0.19329,0.73858
610.422,66.0398,-2.87171,0.19591,0.73804
611.022,66.0998,-2.87303,0.19601,0.73751
611.622,66.15995,-2.87303,0.20023,0.73697
612.222,66.22001,-2.87303,0.20316,0.73643
612.822,66.28001,-2.87303,0.20381,0.73589
613.422,66.34014,-2.87434,0.20827,0.73536
614.022,66.4001,-2.875,0.20992,0.73482
614.622,66.46024,-2.875,0.20912,0.73428
615.222,66.52042,-2.87566,0.21476,0.73374
615.822,66.58032,-2.87566,0.21501,0.7332
616.422,66.6403,-2.87566,0.21914,0.73266
617.022,66.7003,-2.87567,0.22041,0.73212
617.622,66.76051,-2.87699,0.22411,0.73158
618.222,66.82055,-2.87699,0.22323,0.73104
618.822,66.8806,-2.87863,0.23006,0.7305
619.422,66.9406,-2.87863,0.23027,0.72996
620.022,67.0006,-2.87896,0.23428,0.72942
620.622,67.06059,-2.87896,0.23515,0.72888
621.222,67.12056,-2.87896,0.23764,0.72834
621.822,67.18064,-2.87896,0.23965,0.7278
622.422,67.24079,-2.88027,0.24362,0.72726
623.022,67.30078,-2.8816,0.24734,0.72672
623.622,67.36049,-2.88292,0.24982,0.72617
624.222,67.4203,-2.88293,0.2529,0.72563
624.822,67.4805,-2.88423,0.25846,0.72509
625.422,67.54096,-2.88358,0.26121,0.72454
626.022,67.601,-2.88491,0.26431,0.724
626.622,67.66123,-2.88489,0.26872,0.72346
627.222,67.7214,-2.88489,0.27469,0.72291
627.822,67.78174,-2.88557,0.27424,0.72237
628.422,67.84206,-2.88555,0.27885,0.72183
629.022,67.90221,-2.88686,0.27947,0.72128
629.622,67.96257,-2.88686,0.28668,0.72074
630.222,68.02277,-2.88816,0.28777,0.72019
630.822,68.08298,-2.88818,0.28823,0.71965
631.422,68.14311,-2.88909,0.29284,0.7191
632.022,68.2032,-2.8895,0.29679,0.71855
632.622,68.26337,-2.89083,0.30239,0.71801
633.222,68.3236,-2.89086,0.30424,0.71746
633.822,68.3839,-2.89213,0.30687,0.71692
634.422,68.444,-2.89088,0.3112,0.71637
635.022,68.50415,-2.89213,0.31467,0.71582
635.622,68.5642,-2.8929,0.32055,0.71527
636.222,68.62431,-2.89344,0.32459,0.71473
636.822,68.68445,-2.89477,0.33141,0.71418
637.422,68.74462,-2.89468,0.3303,0.71363
638.022,68.8049,-2.89608,0.33885,0.71308
638.622,68.86524,-2.89749,0.34235,0.71253
639.222,68.92565,-2.89741,0.34596,0.71199
639.822,68.9858,-2.89874,0.35073,0.71144
640.422,69.04609,-2.90004,0.36053,0.71089
641.022,69.10621,-2.89969,0.36248,0.71034
641.622,69.16648,-2.90003,0.36853,0.70979
642.222,69.22689,-2.90136,0.37135,0.70924
642.822,69.28726,-2.90267,0.37786,0.70869
643.422,69.34741,-2.90398,0.38565,0.70814
644.022,69.4075,-2.90528,0.38786,0.70759
644.622,69.46773,-2.9053,0.39583,0.70704
645.222,69.5281,-2.90662,0.40244,0.70649
645.822,69.5886,-2.90794,0.40794,0.70593
646.422,69.64917,-2.90923,0.41256,0.70538
647.022,69.70961,-2.90927,0.42027,0.70483
647.622,69.76996,-2.91058,0.42671,0.70428
648.222,69.8304,-2.9119,0.43298,0.70373
648.822,69.89094,-2.91321,0.43968,0.70317
649.422,69.95145,-2.9155,0.44746,0.70262
650.022,70.01195,-2.91683,0.45514,0.70207
650.622,70.07253,-2.91816,0.46305,0.70152
651.222,70.13284,-2.91948,0.47137,0.70096
651.822,70.1932,-2.92076,0.47895,0.70041
652.422,70.25365,-2.92089,0.48745,0.69986
653.022,70.31399,-2.92208,0.49219,0.6993
653.622,70.37455,-2.92342,0.50338,0.69875
654.222,70.43483,-2.92465,0.5092,0.69819
654.822,70.49508,-2.92675,0.5214,0.69764
655.422,70.55534,-2.92788,0.52713,0.69708
656.022,70.6156,-2.92891,0.53781,0.69653
656.622,70.67583,-2.92951,0.54085,0.69597
657.222,70.7361,-2.93213,0.55228,0.69542
657.822,70.79639,-2.9336,0.55978,0.69486
658.422,70.85687,-2.93535,0.56739,0.69431
659.022,70.91726,-2.93763,0.57588,0.69375
659.622,70.9775,-2.93916,0.58383,0.69319
660.222,71.03786,-2.94082,0.5918,0.69264
660.822,71.098,-2.94253,0.59819,0.69208
661.422,71.15827,-2.9438,0.60534,0.69152
662.022,71.21857,-2.94654,0.61862,0.69097
662.622,71.27888,-2.94786,0.62388,0.69041
663.222,71.33929,-2.94933,0.63294,0.68985
663.822,71.3994,-2.95216,0.64053,0.68929
664.422,71.4595,-2.95351,0.64836,0.68874
665.022,71.5195,-2.95632,0.65347,0.68818
665.622,71.57969,-2.95962,0.65945,0.68762
666.222,71.63981,-2.96107,0.66842,0.68706
666.822,71.69999,-2.96382,0.67385,0.6865
667.422,71.76016,-2.96514,0.67768,0.68594
668.022,71.82029,-2.9658,0.68178,0.68538
668.622,71.8805,-2.9676,0.69055,0.68483
669.222,71.9409,-2.96992,0.69214,0.68427
669.822,72.00125,-2.97278,0.69557,0.68371
670.422,72.0616,-2.97537,0.69693,0.68315
671.022,72.12185,-2.9771,0.69746,0.68259
671.622,72.1821,-2.97997,0.6983,0.68203
672.222,72.2424,-2.98205,0.69774,0.68147
672.822,72.30271,-2.98286,0.69251,0.6809
673.422,72.3631,-2.98578,0.68718,0.68034
674.022,72.42352,-2.98715,0.68272,0.67978
674.622,72.484,-2.99038,0.67519,0.67922
675.222,72.54455,-2.99181,0.66689,0.67866
675.822,72.60495,-2.9948,0.65289,0.6781
676.422,72.66541,-2.9965,0.63735,0.67754
677.022,72.72596,-2.99902,0.62381,0.67697
677.622,72.78615,-2.99965,0.60417,0.67641
678.222,72.8468,-3.00189,0.58265,0.67585
678.822,72.90738,-3.00352,0.56309,0.67529
679.422,72.96817,-3.00469,0.53214,0.67472
680.022,73.0286,-3.00725,0.50651,0.67416
680.622,73.08898,-3.00862,0.47549,0.6736
681.222,73.1494,-3.00993,0.44486,0.67303
681.822,73.20958,-3.01123,0.41642,0.67247
682.422,73.26998,-3.01257,0.38524,0.67191
683.022,73.33034,-3.01257,0.35464,0.67134
683.622,73.3907,-3.01387,0.32435,0.67078
684.222,73.45142,-3.0152,0.3003,0.67022
684.822,73.51172,-3.01656,0.27806,0.66965
685.422,73.57206,-3.01652,0.2559,0.66909
686.022,73.6326,-3.01649,0.2388,0.66852
686.622,73.69285,-3.01782,0.2221,0.66796
687.222,73.75326,-3.01652,0.20935,0.66739
687.822,73.81364,-3.01746,0.19902,0.66683
688.422,73.87411,-3.01803,0.18861,0.66626
689.022,73.93463,-3.01915,0.17737,0.6657
689.622,73.9952,-3.02023,0.17238,0.66513
690.222,74.05537,-3.01915,0.1656,0.66456
690.822,74.11586,-3.02048,0.16242,0.664
691.422,74.17651,-3.02179,0.15918,0.66343
692.022,74.23729,-3.02179,0.15677,0.66287
692.622,74.29778,-3.02118,0.15084,0.6623
693.222,74.3582,-3.02048,0.14881,0.66173
693.822,74.4186,-3.02182,0.14777,0.66117
694.422,74.47915,-3.02179,0.14358,0.6606
695.022,74.5397,-3.02179,0.14406,0.66003
695.622,74.60034,-3.02179,0.13888,0.65946
696.222,74.661,-3.0218,0.13948,0.6589
696.822,74.72166,-3.02047,0.14006,0.65833
697.422,74.78246,-3.02047,0.14079,0.65776
698.022,74.84303,-3.02187,0.1402,0.65719
698.622,74.90352,-3.02274,0.13878,0.65662
699.222,74.96409,-3.02277,0.13951,0.65606
699.522,74.99455,-3.02277,0.13934,0.65577