File: 01_Data/Romex_Cable/STA/N2/10K_min/Romex_Cable_STA_N2_10KData_220718_R3.csv
##Temp./Â°C,Time/min,Mass loss(subtr.2)/mg,DSC(subtr.2)/(mW/mg),Sensit./(uV/mW)
49.358,10.00917,0.02525,-0.004298569,1.07027
49.958,10.737,0.02828549,0.02546256,1.07011
50.558,10.92865,0.02926029,0.04574286,1.06994
51.158,11.07124,0.02821636,0.06252004,1.06978
51.758,11.19088,0.0286792,0.07904942,1.06961
52.358,11.29623,0.02879894,0.09233234,1.06945
52.958,11.39241,0.02962438,0.1046,1.06928
53.558,11.48143,0.03072571,0.11518,1.06911
54.158,11.56657,0.02980874,0.12486,1.06895
54.758,11.64898,0.02798967,0.1345,1.06878
55.358,11.72816,0.02877259,0.14051,1.06861
55.958,11.8051,0.03084412,0.14719,1.06844
56.558,11.88021,0.03096631,0.15525,1.06827
57.158,11.95386,0.02198344,0.16045,1.0681
57.758,12.02593,0.02099262,0.16396,1.06793
58.358,12.09636,0.02237448,0.16905,1.06776
58.958,12.166,0.02891861,0.1721,1.06759
59.558,12.23497,0.03245596,0.17598,1.06742
60.158,12.304,0.03410589,0.17946,1.06725
60.758,12.3712,0.03509224,0.18257,1.06708
61.358,12.43862,0.0306365,0.18741,1.06691
61.958,12.50525,0.03028816,0.18915,1.06674
62.558,12.57207,0.03034107,0.19005,1.06657
63.158,12.63815,0.0306199,0.1927,1.06639
63.758,12.70369,0.02932607,0.19463,1.06622
64.358,12.76943,0.0302917,0.19675,1.06605
64.958,12.8348,0.03063539,0.19834,1.06587
65.558,12.8995,0.0293155,0.20147,1.0657
66.158,12.96462,0.02796499,0.20071,1.06552
66.758,13.02918,0.02668,0.20045,1.06535
67.358,13.09442,0.0283884,0.20387,1.06517
67.958,13.1585,0.02852567,0.203,1.065
68.558,13.2229,0.02782451,0.20512,1.06482
69.158,13.28691,0.02820587,0.2055,1.06464
69.758,13.351,0.02933119,0.20624,1.06447
70.358,13.4146,0.02977982,0.20795,1.06429
70.958,13.4783,0.02967153,0.20715,1.06411
71.558,13.5419,0.02962583,0.2082,1.06393
72.158,13.60527,0.02831952,0.21035,1.06376
72.758,13.66804,0.02799785,0.20995,1.06358
73.358,13.7307,0.02963371,0.21002,1.0634
73.958,13.7934,0.02829048,0.21072,1.06322
74.558,13.856,0.0296337,0.21321,1.06304
75.158,13.91865,0.03095991,0.21152,1.06286
75.758,13.98109,0.02959868,0.21421,1.06268
76.358,14.0436,0.02963998,0.21629,1.0625
76.958,14.1059,0.02964017,0.21452,1.06232
77.558,14.16821,0.02928723,0.21708,1.06213
78.158,14.23046,0.03072581,0.21655,1.06195
78.758,14.29251,0.03099369,0.21851,1.06177
79.358,14.3544,0.02963282,0.21833,1.06159
79.958,14.4161,0.02964425,0.22023,1.0614
80.558,14.47786,0.03060955,0.22008,1.06122
81.158,14.53955,0.02964713,0.2222,1.06103
81.758,14.60104,0.03096039,0.2219,1.06085
82.358,14.6626,0.030942,0.22185,1.06067
82.958,14.7237,0.03087033,0.22188,1.06048
83.558,14.78416,0.03094999,0.22385,1.06029
84.158,14.84485,0.03095017,0.22408,1.06011
84.758,14.9056,0.03243742,0.22475,1.05992
85.358,14.96662,0.03095392,0.22507,1.05974
85.958,15.0277,0.03227915,0.22551,1.05955
86.558,15.08794,0.03358339,0.22414,1.05936
87.158,15.1483,0.0335903,0.2242,1.05917
87.758,15.20853,0.03364039,0.2245,1.05898
88.358,15.2689,0.03358988,0.22488,1.0588
88.958,15.3293,0.0322701,0.2249,1.05861
89.558,15.3894,0.03027459,0.22496,1.05842
90.158,15.44945,0.03028999,0.22607,1.05823
90.758,15.5091,0.03029147,0.22521,1.05804
91.358,15.56884,0.03161,0.22688,1.05785
91.958,15.62837,0.03155516,0.22718,1.05766
92.558,15.6879,0.03162805,0.2279,1.05747
93.158,15.7475,0.03296861,0.22761,1.05727
93.758,15.80689,0.03237808,0.22728,1.05708
94.358,15.86624,0.03293097,0.22953,1.05689
94.958,15.9252,0.03429153,0.22992,1.0567
95.558,15.9848,0.03334298,0.22884,1.0565
96.158,16.04397,0.03283779,0.23073,1.05631
96.758,16.10335,0.03424989,0.23227,1.05612
97.358,16.16256,0.03428525,0.23045,1.05592
97.958,16.22168,0.03292991,0.23062,1.05573
98.558,16.2808,0.03198816,0.23116,1.05553
99.158,16.3395,0.03293657,0.23085,1.05534
99.758,16.39869,0.03292902,0.23178,1.05514
100.358,16.45777,0.03425236,0.2329,1.05494
100.958,16.5169,0.0345797,0.23405,1.05475
101.558,16.57593,0.03458,0.23428,1.05455
102.158,16.63469,0.03458,0.23329,1.05435
102.758,16.69361,0.03457375,0.23276,1.05415
103.358,16.75206,0.03589823,0.2345,1.05396
103.958,16.81073,0.0359,0.2348,1.05376
104.558,16.8694,0.03589997,0.23474,1.05356
105.158,16.928,0.03404477,0.23276,1.05336
105.758,16.98676,0.03359,0.23377,1.05316
106.358,17.04551,0.03359373,0.23395,1.05296
106.958,17.1043,0.03223273,0.23358,1.05276
107.558,17.16284,0.03358902,0.23598,1.05256
108.158,17.22158,0.03359719,0.23619,1.05236
108.758,17.2802,0.03334465,0.23663,1.05216
109.358,17.3389,0.03391855,0.23744,1.05195
109.958,17.39774,0.03358985,0.23456,1.05175
110.558,17.4564,0.03286716,0.23582,1.05155
111.158,17.51495,0.0335305,0.23672,1.05134
111.758,17.5734,0.03508652,0.23618,1.05114
112.358,17.63185,0.03360977,0.23711,1.05094
112.958,17.69056,0.0349085,0.23524,1.05073
113.558,17.749,0.03623055,0.23796,1.05053
114.158,17.8075,0.03721624,0.2391,1.05032
114.758,17.86581,0.03589127,0.23798,1.05012
115.358,17.92425,0.03588999,0.23861,1.04991
115.958,17.9827,0.03586346,0.23725,1.0497
116.558,18.04128,0.0349055,0.24112,1.0495
117.158,18.09964,0.03491,0.23937,1.04929
117.758,18.15823,0.03465201,0.23978,1.04908
118.358,18.21655,0.03488936,0.24041,1.04888
118.958,18.27507,0.03488214,0.2402,1.04867
119.558,18.33341,0.03225713,0.24438,1.04846
120.158,18.39133,0.03358833,0.24179,1.04825
120.758,18.44939,0.03393922,0.24091,1.04804
121.358,18.5075,0.03491017,0.24066,1.04783
121.958,18.5659,0.03503741,0.24196,1.04762
122.558,18.62441,0.03489412,0.24202,1.04741
123.158,18.6824,0.0349,0.24225,1.0472
123.758,18.74044,0.0349,0.24216,1.04699
124.358,18.7988,0.0349,0.24427,1.04677
124.958,18.8571,0.03490039,0.2452,1.04656
125.558,18.91602,0.03351784,0.24529,1.04635
126.158,18.97417,0.03492286,0.24403,1.04614
126.758,19.03238,0.03623819,0.24519,1.04592
127.358,19.0906,0.03491121,0.24629,1.04571
127.958,19.14862,0.03552408,0.24846,1.0455
128.558,19.2066,0.03627778,0.24674,1.04528
129.158,19.26452,0.03477584,0.24681,1.04507
129.758,19.32258,0.03259921,0.24839,1.04485
130.358,19.3806,0.03261599,0.25086,1.04464
130.958,19.4384,0.03160984,0.24907,1.04442
131.558,19.49646,0.03161891,0.24998,1.0442
132.158,19.55474,0.03187014,0.24936,1.04399
132.758,19.61287,0.03256168,0.24903,1.04377
133.358,19.67095,0.03391924,0.25078,1.04355
133.958,19.72879,0.03392,0.25207,1.04333
134.558,19.78657,0.03376206,0.25349,1.04311
135.158,19.8441,0.03256579,0.2502,1.0429
135.758,19.90193,0.03209608,0.24944,1.04268
136.358,19.95994,0.03260996,0.25138,1.04246
136.958,20.01786,0.03261044,0.25195,1.04224
137.558,20.07613,0.03302764,0.25161,1.04202
138.158,20.1337,0.03161968,0.25215,1.04179
138.758,20.19152,0.03275869,0.25154,1.04157
139.358,20.24939,0.03293,0.25331,1.04135
139.958,20.30742,0.03293,0.25298,1.04113
140.558,20.36525,0.03293,0.25468,1.04091
141.158,20.42314,0.03293003,0.25384,1.04068
141.758,20.4806,0.03246643,0.25502,1.04046
142.358,20.53839,0.03161925,0.25468,1.04024
142.958,20.59609,0.03096849,0.25533,1.04001
143.558,20.65367,0.03161003,0.25625,1.03979
144.158,20.711,0.03161,0.25694,1.03956
144.758,20.76847,0.03161,0.25804,1.03934
145.358,20.82604,0.03161596,0.25643,1.03911
145.958,20.88346,0.03029184,0.25822,1.03889
146.558,20.94138,0.03029331,0.25753,1.03866
147.158,20.99887,0.02931139,0.25789,1.03843
147.758,21.05684,0.02933883,0.25727,1.03821
148.358,21.1142,0.02931217,0.25877,1.03798
148.958,21.17151,0.02931,0.25881,1.03775
149.558,21.22876,0.02931,0.2596,1.03752
150.158,21.28616,0.02931114,0.2603,1.03729
150.758,21.34371,0.03031633,0.25917,1.03706
151.358,21.4012,0.03030001,0.25965,1.03683
151.958,21.45879,0.03030011,0.25965,1.0366
152.558,21.5162,0.0290046,0.25963,1.03637
153.158,21.5736,0.02791715,0.26096,1.03614
153.758,21.63121,0.02897924,0.26027,1.03591
154.358,21.68873,0.02898001,0.2603,1.03568
154.958,21.74633,0.0304261,0.25924,1.03545
155.558,21.80371,0.03224245,0.2602,1.03522
156.158,21.8612,0.02937753,0.25951,1.03498
156.758,21.91889,0.0294195,0.26195,1.03475
157.358,21.9766,0.03131282,0.25819,1.03452
157.958,22.03417,0.03110385,0.25881,1.03428
158.558,22.0918,0.02985858,0.26052,1.03405
159.158,22.1494,0.02819544,0.26013,1.03381
159.758,22.20701,0.02721876,0.25899,1.03358
160.358,22.26428,0.02721757,0.26035,1.03334
160.958,22.32174,0.02749662,0.25995,1.03311
161.558,22.3792,0.02854027,0.26039,1.03287
162.158,22.43681,0.02722834,0.26196,1.03263
162.758,22.4943,0.02723,0.26292,1.03239
163.358,22.55179,0.02723,0.26386,1.03216
163.958,22.60932,0.02723,0.26453,1.03192
164.558,22.6668,0.02722335,0.26536,1.03168
165.158,22.72435,0.02821696,0.26509,1.03144
165.758,22.7818,0.02820683,0.26524,1.0312
166.358,22.83918,0.02535914,0.26515,1.03096
166.958,22.89659,0.02546275,0.26538,1.03072
167.558,22.95375,0.02606134,0.26707,1.03048
168.158,23.01117,0.0255801,0.26768,1.03024
168.758,23.0685,0.02558251,0.26743,1.03
169.358,23.12574,0.02426781,0.26964,1.02976
169.958,23.18309,0.02291091,0.26742,1.02952
170.558,23.24036,0.02150969,0.26757,1.02927
171.158,23.2977,0.02151,0.26923,1.02903
171.758,23.35526,0.02150993,0.2702,1.02879
172.358,23.41236,0.02136201,0.26841,1.02854
172.958,23.46969,0.02019993,0.27083,1.0283
173.558,23.527,0.0201936,0.26873,1.02805
174.158,23.5845,0.02118671,0.27059,1.02781
174.758,23.6421,0.02116474,0.27132,1.02756
175.358,23.69954,0.01985815,0.2715,1.02732
175.958,23.75679,0.0185632,0.27131,1.02707
176.558,23.81416,0.01986344,0.27212,1.02682
177.158,23.8716,0.01986,0.27202,1.02658
177.758,23.92907,0.01986042,0.27233,1.02633
178.358,23.98646,0.01887618,0.27373,1.02608
178.958,24.0433,0.01758547,0.27519,1.02583
179.558,24.10071,0.01766957,0.27486,1.02558
180.158,24.15781,0.01887997,0.27273,1.02534
180.758,24.21513,0.01888,0.2737,1.02509
181.358,24.27284,0.01888,0.27204,1.02484
181.958,24.3301,0.01887967,0.27226,1.02459
182.558,24.38757,0.01757784,0.2723,1.02433
183.158,24.4448,0.01748579,0.2715,1.02408
183.758,24.50187,0.01671528,0.27109,1.02383
184.358,24.5591,0.01800077,0.27117,1.02358
184.958,24.61635,0.01771888,0.27109,1.02333
185.558,24.6735,0.01635411,0.27088,1.02307
186.158,24.73067,0.01504874,0.2703,1.02282
186.758,24.78772,0.01372799,0.27134,1.02257
187.358,24.84458,0.01372001,0.26857,1.02231
187.958,24.90188,0.01371896,0.27002,1.02206
188.558,24.95874,0.01240187,0.26824,1.0218
189.158,25.0159,0.01240001,0.27018,1.02155
189.758,25.07303,0.0124,0.26991,1.02129
190.358,25.13022,0.0124001,0.26887,1.02104
190.958,25.1875,0.01104862,0.26971,1.02078
191.558,25.2445,0.01107996,0.26839,1.02052
192.158,25.3017,0.01106714,0.27024,1.02027
192.758,25.35867,0.009784247,0.27049,1.02001
193.358,25.41587,0.008450658,0.26724,1.01975
193.958,25.473,0.008446119,0.26824,1.01949
194.558,25.53002,0.009113351,0.26858,1.01923
195.158,25.587,0.007797086,0.26794,1.01897
195.758,25.64392,0.0078,0.26843,1.01871
196.358,25.7012,0.0078,0.26905,1.01845
196.958,25.75824,0.007800001,0.26844,1.01819
197.558,25.81535,0.007806776,0.2689,1.01793
198.158,25.87249,0.006161294,0.26922,1.01767
198.758,25.9295,0.006151928,0.26812,1.01741
199.358,25.9866,0.00549526,0.26758,1.01714
199.958,26.04375,0.005126223,0.26764,1.01688
200.558,26.10085,0.00584191,0.26697,1.01662
201.158,26.15794,0.006150568,0.267,1.01636
201.758,26.215,0.00614901,0.268,1.01609
202.358,26.27151,0.004784366,0.26769,1.01583
202.958,26.32852,0.004830008,0.26755,1.01556
203.558,26.3857,0.004829863,0.26702,1.0153
204.158,26.44335,0.00341309,0.26635,1.01503
204.758,26.50109,0.00350978,0.26575,1.01476
205.358,26.55845,0.004438999,0.26811,1.0145
205.958,26.6156,0.003511383,0.26727,1.01423
206.558,26.6727,0.003509997,0.26649,1.01396
207.158,26.7293,0.003509597,0.26817,1.0137
207.758,26.78632,0.00219826,0.26899,1.01343
208.358,26.8436,0.0008957469,0.27115,1.01316
208.958,26.901,0.0008779714,0.27228,1.01289
209.558,26.9589,-0.000769344,0.27185,1.01262
210.158,27.0159,-0.0007699962,0.27252,1.01235
210.758,27.0732,-0.000769748,0.27626,1.01208
211.358,27.13027,-0.001494551,0.27757,1.01181
211.958,27.1876,-0.003110359,0.27813,1.01154
212.558,27.24468,-0.004435687,0.27856,1.01127
213.158,27.30185,-0.00450684,0.28199,1.01099
213.758,27.3589,-0.005709951,0.28299,1.01072
214.358,27.416,-0.005614147,0.28551,1.01045
214.958,27.47305,-0.00702988,0.28636,1.01018
215.558,27.53016,-0.007030026,0.29029,1.0099
216.158,27.5871,-0.008187966,0.2928,1.00963
216.758,27.6442,-0.008339628,0.29455,1.00935
217.358,27.70148,-0.009191359,0.2973,1.00908
217.958,27.7585,-0.009660034,0.30019,1.0088
218.558,27.81577,-0.00967374,0.30297,1.00853
219.158,27.87286,-0.01099417,0.3044,1.00825
219.758,27.9299,-0.01230145,0.30752,1.00797
220.358,27.98695,-0.01230003,0.31144,1.0077
220.958,28.0439,-0.01245202,0.31237,1.00742
221.558,28.1008,-0.01540881,0.31209,1.00714
222.158,28.15731,-0.01644821,0.30906,1.00686
222.758,28.2142,-0.01757232,0.30322,1.00658
223.358,28.27119,-0.01904736,0.29767,1.00631
223.958,28.32832,-0.02020992,0.29036,1.00603
224.558,28.3854,-0.01957052,0.28344,1.00575
225.158,28.4425,-0.01922015,0.28036,1.00547
225.758,28.49953,-0.0192201,0.27689,1.00518
226.358,28.55668,-0.02051669,0.27652,1.0049
226.958,28.6136,-0.02182455,0.27211,1.00462
227.558,28.67002,-0.02190554,0.27004,1.00434
228.158,28.72695,-0.02316994,0.27022,1.00406
228.758,28.7838,-0.02316877,0.27107,1.00377
229.358,28.84089,-0.02252383,0.27147,1.00349
229.958,28.89825,-0.02246586,0.27224,1.00321
230.558,28.9552,-0.02443547,0.27194,1.00292
231.158,29.0123,-0.0261044,0.27116,1.00264
231.758,29.0693,-0.02680412,0.27023,1.00235
232.358,29.1264,-0.02865047,0.26985,1.00207
232.958,29.18344,-0.02881905,0.27023,1.00178
233.558,29.24049,-0.03008024,0.27002,1.00149
234.158,29.29751,-0.03060264,0.27156,1.00121
234.758,29.35466,-0.03130141,0.27102,1.00092
235.358,29.41178,-0.03338455,0.26911,1.00063
235.958,29.469,-0.03337997,0.26999,1.00034
236.558,29.5261,-0.03467095,0.27047,1.00006
237.158,29.58291,-0.03593984,0.26899,0.99977
237.758,29.64002,-0.03798442,0.26871,0.99948
238.358,29.69698,-0.03928822,0.27148,0.99919
238.958,29.75408,-0.04188721,0.27113,0.9989
239.558,29.81113,-0.04223697,0.27162,0.99861
240.158,29.86797,-0.04216656,0.27283,0.99832
240.758,29.92475,-0.04351613,0.27114,0.99802
241.358,29.9814,-0.0458004,0.27182,0.99773
241.958,30.0384,-0.04710785,0.27384,0.99744
242.558,30.0954,-0.04874901,0.27296,0.99715
243.158,30.1525,-0.05006444,0.27148,0.99685
243.758,30.20942,-0.05137765,0.27197,0.99656
244.358,30.26642,-0.05271791,0.27216,0.99627
244.958,30.32344,-0.05400441,0.27378,0.99597
245.558,30.3804,-0.05608741,0.27468,0.99568
246.158,30.43732,-0.05809695,0.27543,0.99538
246.758,30.49413,-0.05965292,0.27344,0.99508
247.358,30.5511,-0.06213595,0.27318,0.99479
247.958,30.6081,-0.06342346,0.27428,0.99449
248.558,30.6652,-0.06472026,0.27566,0.99419
249.158,30.72225,-0.06780808,0.2751,0.9939
249.758,30.77918,-0.07114121,0.27666,0.9936
250.358,30.8361,-0.07350331,0.2778,0.9933
250.958,30.8931,-0.0749443,0.27672,0.993
251.558,30.9501,-0.07668459,0.27721,0.9927
252.158,31.0072,-0.07951932,0.27881,0.9924
252.758,31.0644,-0.08177472,0.27867,0.9921
253.358,31.1215,-0.08421901,0.2774,0.9918
253.958,31.17851,-0.08824506,0.28152,0.9915
254.558,31.23569,-0.09078576,0.28119,0.9912
255.158,31.29281,-0.09398196,0.28225,0.9909
255.758,31.35,-0.0968373,0.28277,0.99059
256.358,31.4071,-0.1,0.28237,0.99029
256.958,31.4642,-0.10328,0.28622,0.98999
257.558,31.5213,-0.10632,0.28766,0.98969
258.158,31.57832,-0.10766,0.28657,0.98938
258.758,31.63542,-0.11134,0.28832,0.98908
259.358,31.69245,-0.1151,0.28904,0.98877
259.958,31.7496,-0.11766,0.2899,0.98847
260.558,31.8069,-0.12029,0.28956,0.98816
261.158,31.8641,-0.12232,0.29056,0.98785
261.758,31.9213,-0.12524,0.29337,0.98755
262.358,31.97842,-0.12845,0.29521,0.98724
262.958,32.03553,-0.13304,0.29655,0.98693
263.558,32.09264,-0.13573,0.29911,0.98663
264.158,32.14975,-0.13971,0.3007,0.98632
264.758,32.20685,-0.14497,0.30295,0.98601
265.358,32.26419,-0.14835,0.3044,0.9857
265.958,32.3215,-0.15151,0.30437,0.98539
266.558,32.3787,-0.15639,0.30846,0.98508
267.158,32.43582,-0.1607,0.30938,0.98477
267.758,32.49293,-0.16554,0.31063,0.98446
268.358,32.54995,-0.16903,0.31142,0.98415
268.958,32.60715,-0.17437,0.31513,0.98383
269.558,32.66428,-0.17919,0.31692,0.98352
270.158,32.7215,-0.187,0.31842,0.98321
270.758,32.7788,-0.19372,0.32278,0.9829
271.358,32.83615,-0.2003,0.32459,0.98258
271.958,32.89345,-0.20467,0.33022,0.98227
272.558,32.9507,-0.20903,0.33286,0.98195
273.158,33.00804,-0.21677,0.33741,0.98164
273.758,33.0652,-0.223,0.33907,0.98132
274.358,33.12263,-0.2309,0.34503,0.98101
274.958,33.18,-0.23714,0.35018,0.98069
275.558,33.23717,-0.24352,0.35357,0.98038
276.158,33.29441,-0.24796,0.36032,0.98006
276.758,33.3515,-0.25412,0.36416,0.97974
277.358,33.40886,-0.26179,0.37124,0.97942
277.958,33.46618,-0.2679,0.37597,0.9791
278.558,33.52344,-0.27767,0.38355,0.97879
279.158,33.58077,-0.28808,0.39048,0.97847
279.758,33.6378,-0.29693,0.39797,0.97815
280.358,33.6947,-0.30787,0.40528,0.97783
280.958,33.75184,-0.31766,0.41082,0.97751
281.558,33.80928,-0.32727,0.41707,0.97719
282.158,33.8667,-0.33797,0.42557,0.97686
282.758,33.92455,-0.3499,0.42875,0.97654
283.358,33.98212,-0.36131,0.43452,0.97622
283.958,34.03983,-0.37166,0.44127,0.9759
284.558,34.09751,-0.38369,0.44628,0.97557
285.158,34.15507,-0.39555,0.45097,0.97525
285.758,34.21264,-0.40953,0.45597,0.97493
286.358,34.27002,-0.42275,0.4613,0.9746
286.958,34.32759,-0.43641,0.46646,0.97428
287.558,34.38495,-0.4503,0.47129,0.97395
288.158,34.44242,-0.46521,0.47464,0.97363
288.758,34.49978,-0.47966,0.47926,0.9733
289.358,34.55692,-0.49321,0.48574,0.97297
289.958,34.6141,-0.50753,0.48757,0.97265
290.558,34.67156,-0.52107,0.49399,0.97232
291.158,34.72883,-0.53927,0.49557,0.97199
291.758,34.78651,-0.5554,0.50133,0.97166
292.358,34.84402,-0.57235,0.50193,0.97133
292.958,34.9012,-0.58874,0.5072,0.971
293.558,34.9587,-0.60679,0.50851,0.97067
294.158,35.016,-0.62513,0.50867,0.97034
294.758,35.07332,-0.64104,0.51094,0.97001
295.358,35.13085,-0.65707,0.51077,0.96968
295.958,35.1883,-0.67373,0.51084,0.96935
296.558,35.2458,-0.69331,0.51038,0.96902
297.158,35.30322,-0.71168,0.50686,0.96869
297.758,35.36065,-0.73075,0.49919,0.96835
298.358,35.41811,-0.7489,0.48673,0.96802
298.958,35.47555,-0.76683,0.47088,0.96769
299.558,35.53302,-0.78649,0.46,0.96735
300.158,35.59041,-0.80438,0.45039,0.96702
300.758,35.64768,-0.82472,0.44315,0.96668
301.358,35.70507,-0.8443,0.44186,0.96635
301.958,35.76238,-0.86605,0.44857,0.96601
302.558,35.82,-0.88653,0.45497,0.96568
303.158,35.87761,-0.90597,0.46313,0.96534
303.758,35.93513,-0.92923,0.47323,0.965
304.358,35.9927,-0.95025,0.48318,0.96466
304.958,36.05008,-0.97105,0.4936,0.96433
305.558,36.10756,-0.99194,0.50392,0.96399
306.158,36.1652,-1.01541,0.51326,0.96365
306.758,36.22285,-1.03742,0.52317,0.96331
307.358,36.2804,-1.05944,0.53208,0.96297
307.958,36.33793,-1.08067,0.5386,0.96263
308.558,36.39536,-1.10697,0.54779,0.96229
309.158,36.4529,-1.1317,0.55707,0.96195
309.758,36.51048,-1.15848,0.56544,0.96161
310.358,36.56819,-1.18524,0.57074,0.96126
310.958,36.62599,-1.20801,0.57737,0.96092
311.558,36.6836,-1.23337,0.57985,0.96058
312.158,36.74123,-1.25868,0.58262,0.96024
312.758,36.79873,-1.28406,0.58509,0.95989
313.358,36.8564,-1.30994,0.58519,0.95955
313.958,36.91403,-1.33267,0.58108,0.9592
314.558,36.9718,-1.35452,0.58221,0.95886
315.158,37.02959,-1.38218,0.57692,0.95851
315.758,37.08733,-1.40639,0.5719,0.95817
316.358,37.14501,-1.43027,0.56488,0.95782
316.958,37.2027,-1.45612,0.5549,0.95747
317.558,37.26027,-1.47777,0.54518,0.95713
318.158,37.31773,-1.49903,0.53348,0.95678
318.758,37.3752,-1.51773,0.5213,0.95643
319.358,37.43273,-1.5431,0.50713,0.95608
319.958,37.4902,-1.56363,0.49028,0.95573
320.558,37.54807,-1.58463,0.47626,0.95538
321.158,37.60567,-1.60299,0.46164,0.95503
321.758,37.6633,-1.61779,0.44656,0.95468
322.358,37.72081,-1.63387,0.43098,0.95433
322.958,37.7782,-1.64624,0.41624,0.95398
323.558,37.83566,-1.66049,0.40132,0.95363
324.158,37.89302,-1.6737,0.38736,0.95328
324.758,37.9503,-1.68473,0.36983,0.95292
325.358,38.00773,-1.69714,0.35762,0.95257
325.958,38.06547,-1.70909,0.34436,0.95222
326.558,38.12314,-1.72077,0.33292,0.95186
327.158,38.1809,-1.73316,0.32049,0.95151
327.758,38.23851,-1.74391,0.30832,0.95115
328.358,38.2961,-1.75263,0.29898,0.9508
328.958,38.35375,-1.76228,0.28822,0.95044
329.558,38.41132,-1.77187,0.27833,0.95009
330.158,38.46887,-1.78009,0.26995,0.94973
330.758,38.5259,-1.78866,0.25866,0.94937
331.358,38.58347,-1.79513,0.25086,0.94902
331.958,38.64111,-1.80288,0.2411,0.94866
332.558,38.69895,-1.80691,0.23332,0.9483
333.158,38.75699,-1.81186,0.22496,0.94794
333.758,38.81465,-1.82209,0.21683,0.94758
334.358,38.87211,-1.82994,0.20812,0.94722
334.958,38.92985,-1.83503,0.20079,0.94686
335.558,38.98762,-1.84476,0.19324,0.9465
336.158,39.04551,-1.85016,0.18735,0.94614
336.758,39.10365,-1.8521,0.18013,0.94578
337.358,39.16147,-1.86136,0.1704,0.94542
337.958,39.21926,-1.86732,0.16672,0.94506
338.558,39.27729,-1.87149,0.16276,0.94469
339.158,39.33527,-1.87529,0.1546,0.94433
339.758,39.393,-1.87734,0.14982,0.94397
340.358,39.4508,-1.88053,0.14293,0.9436
340.958,39.50853,-1.88546,0.13503,0.94324
341.558,39.56615,-1.8894,0.13062,0.94287
342.158,39.6239,-1.89302,0.12261,0.94251
342.758,39.68176,-1.89881,0.12028,0.94214
343.358,39.7397,-1.90564,0.11518,0.94178
343.958,39.79766,-1.90898,0.10981,0.94141
344.558,39.85559,-1.91226,0.10402,0.94104
345.158,39.91349,-1.91354,0.09828956,0.94067
345.758,39.9713,-1.91499,0.09489213,0.94031
346.358,40.02892,-1.9166,0.08875488,0.93994
346.958,40.08679,-1.92121,0.08572715,0.93957
347.558,40.1446,-1.92361,0.08415888,0.9392
348.158,40.20268,-1.92608,0.08043259,0.93883
348.758,40.2606,-1.92916,0.0758676,0.93846
349.358,40.3185,-1.93128,0.06998064,0.93809
349.958,40.37652,-1.93373,0.06746174,0.93772
350.558,40.43434,-1.93428,0.06394252,0.93735
351.158,40.4923,-1.93548,0.06048571,0.93698
351.758,40.54994,-1.93406,0.05809602,0.9366
352.358,40.60771,-1.93544,0.05348966,0.93623
352.958,40.66552,-1.9401,0.05157525,0.93586
353.558,40.72327,-1.94276,0.05012391,0.93548
354.158,40.78118,-1.94652,0.04710611,0.93511
354.758,40.83905,-1.94777,0.04491396,0.93473
355.358,40.8971,-1.94853,0.04296481,0.93436
355.958,40.9552,-1.95178,0.04200128,0.93398
356.558,41.01305,-1.95465,0.03790623,0.93361
357.158,41.07072,-1.95655,0.03817026,0.93323
357.758,41.12843,-1.95762,0.03490574,0.93285
358.358,41.18627,-1.95829,0.03494415,0.93248
358.958,41.2438,-1.96217,0.03412699,0.9321
359.558,41.30191,-1.9651,0.03159868,0.93172
360.158,41.36002,-1.96501,0.03070137,0.93134
360.758,41.41798,-1.96862,0.03126134,0.93096
361.358,41.47663,-1.97043,0.03034437,0.93059
361.958,41.53484,-1.9717,0.02815514,0.93021
362.558,41.5929,-1.97303,0.0293037,0.92983
363.158,41.6509,-1.97486,0.02765888,0.92944
363.758,41.70862,-1.97284,0.02728319,0.92906
364.358,41.76641,-1.97281,0.02704515,0.92868
364.958,41.8243,-1.97282,0.02499871,0.9283
365.558,41.88223,-1.97551,0.02668455,0.92792
366.158,41.9403,-1.9763,0.0258436,0.92753
366.758,41.99837,-1.97859,0.02557168,0.92715
367.358,42.05641,-1.98089,0.02408218,0.92677
367.958,42.11458,-1.98292,0.02459402,0.92638
368.558,42.17281,-1.98422,0.02435931,0.926
369.158,42.2309,-1.98567,0.02410391,0.92561
369.758,42.289,-1.98686,0.02217265,0.92523
370.358,42.34704,-1.98756,0.0233075,0.92484
370.958,42.4047,-1.98883,0.0229987,0.92446
371.558,42.4627,-1.99015,0.02158632,0.92407
372.158,42.5208,-1.99147,0.02248782,0.92368
372.758,42.57882,-1.99147,0.01952559,0.92329
373.358,42.63712,-1.99099,0.02016033,0.92291
373.958,42.69528,-1.99025,0.0214522,0.92252
374.558,42.75339,-1.99297,0.02084633,0.92213
375.158,42.8117,-1.99298,0.02048621,0.92174
375.758,42.8698,-1.99507,0.02045679,0.92135
376.358,42.928,-1.9982,0.01946143,0.92096
376.958,42.98644,-1.99691,0.01929097,0.92057
377.558,43.04443,-1.99938,0.01854775,0.92018
378.158,43.1028,-2.00201,0.01851302,0.91979
378.758,43.16108,-2.00323,0.0161027,0.91939
379.358,43.2194,-2.00323,0.01542924,0.919
379.958,43.27769,-2.00447,0.01544913,0.91861
380.558,43.336,-2.00463,0.01609497,0.91821
381.158,43.39418,-2.00586,0.01475737,0.91782
381.758,43.4525,-2.00717,0.01589878,0.91743
382.358,43.51068,-2.00967,0.01691986,0.91703
382.958,43.56901,-2.01123,0.01672806,0.91664
383.558,43.62729,-2.01123,0.01715085,0.91624
384.158,43.68555,-2.01238,0.01751888,0.91584
384.758,43.74409,-2.01169,0.01671729,0.91545
385.358,43.80243,-2.0125,0.0154108,0.91505
385.958,43.86072,-2.01387,0.01507705,0.91465
386.558,43.9188,-2.01519,0.0149118,0.91426
387.158,43.97688,-2.01641,0.01475504,0.91386
387.758,44.03515,-2.01791,0.01530121,0.91346
388.358,44.09359,-2.02047,0.01383934,0.91306
388.958,44.1521,-2.01933,0.01349377,0.91266
389.558,44.2107,-2.02063,0.01237826,0.91226
390.158,44.26925,-2.02376,0.01450974,0.91186
390.758,44.32775,-2.02607,0.01400475,0.91146
391.358,44.38603,-2.02607,0.01396735,0.91106
391.958,44.44427,-2.02744,0.01443471,0.91066
392.558,44.50264,-2.0283,0.01350673,0.91026
393.158,44.5612,-2.0288,0.01278424,0.90985
393.758,44.61991,-2.03011,0.01279548,0.90945
394.358,44.67862,-2.03277,0.01388035,0.90905
394.958,44.7372,-2.03407,0.01116121,0.90864
395.558,44.79569,-2.03535,0.012889,0.90824
396.158,44.8541,-2.0367,0.01200337,0.90783
396.758,44.91236,-2.03808,0.01247169,0.90743
397.358,44.9709,-2.03939,0.01211412,0.90702
397.958,45.02946,-2.04065,0.01181962,0.90662
398.558,45.0877,-2.04067,0.01065302,0.90621
399.158,45.14609,-2.04212,0.01137894,0.9058
399.758,45.20442,-2.0433,0.00984987,0.9054
400.358,45.26273,-2.04428,0.009494762,0.90499
400.958,45.32143,-2.04514,0.01115619,0.90458
401.558,45.37983,-2.04665,0.01101661,0.90417
402.158,45.43835,-2.0479,0.01137197,0.90376
402.758,45.49672,-2.04922,0.009377873,0.90336
403.358,45.5551,-2.05044,0.008634964,0.90295
403.958,45.61358,-2.053,0.009314932,0.90254
404.558,45.67194,-2.05558,0.008602427,0.90212
405.158,45.7303,-2.05696,0.00632683,0.90171
405.758,45.78886,-2.06039,0.00698924,0.9013
406.358,45.84735,-2.06123,0.007274494,0.90089
406.958,45.90573,-2.06171,0.005375256,0.90048
407.558,45.96415,-2.06412,0.00490397,0.90006
408.158,46.02257,-2.06596,0.005126129,0.89965
408.758,46.08093,-2.06748,0.00392756,0.89924
409.358,46.13947,-2.06876,0.001668849,0.89882
409.958,46.19807,-2.06933,0.001634906,0.89841
410.558,46.25673,-2.07083,0.002072627,0.89799
411.158,46.31531,-2.07269,0.0001477956,0.89758
411.758,46.37353,-2.07373,0.001174758,0.89716
412.358,46.43196,-2.07504,-0.000207081,0.89675
412.958,46.49048,-2.07722,-0.002003646,0.89633
413.558,46.54899,-2.07722,-0.00235063,0.89591
414.158,46.60758,-2.08001,-0.00412399,0.8955
414.758,46.6661,-2.08003,-0.00429356,0.89508
415.358,46.72467,-2.08399,-0.006084934,0.89466
415.958,46.7832,-2.08779,-0.00765266,0.89424
416.558,46.8416,-2.08937,-0.00934414,0.89382
417.158,46.90025,-2.09177,-0.007255519,0.8934
417.758,46.95906,-2.09225,-0.01201759,0.89298
418.358,47.0179,-2.0949,-0.009749671,0.89256
418.958,47.0766,-2.0966,-0.01319507,0.89214
419.558,47.13519,-2.09898,-0.01417428,0.89172
420.158,47.19385,-2.1005,-0.0147273,0.8913
420.758,47.25243,-2.1031,-0.01607953,0.89088
421.358,47.3111,-2.10443,-0.01533756,0.89045
421.958,47.36973,-2.10741,-0.01813075,0.89003
422.558,47.42852,-2.10987,-0.01935283,0.88961
423.158,47.48722,-2.11157,-0.01947897,0.88918
423.758,47.54591,-2.11349,-0.02124121,0.88876
424.358,47.6044,-2.11597,-0.02229046,0.88833
424.958,47.663,-2.11725,-0.02105746,0.88791
425.558,47.72186,-2.12036,-0.0256516,0.88748
426.158,47.7808,-2.12292,-0.02744027,0.88706
426.758,47.83952,-2.12545,-0.02703151,0.88663
427.358,47.89822,-2.12829,-0.0280029,0.8862
427.958,47.95704,-2.1304,-0.02939793,0.88578
428.558,48.01558,-2.13239,-0.02762541,0.88535
429.158,48.07407,-2.13487,-0.02846427,0.88492
429.758,48.13285,-2.13746,-0.03012014,0.88449
430.358,48.19137,-2.14053,-0.03044103,0.88406
430.958,48.25036,-2.14354,-0.03070163,0.88363
431.558,48.30914,-2.1466,-0.03255493,0.8832
432.158,48.36793,-2.1496,-0.03314626,0.88277
432.758,48.42677,-2.15251,-0.03232692,0.88234
433.358,48.48537,-2.15527,-0.03236151,0.88191
433.958,48.5439,-2.15824,-0.03230121,0.88148
434.558,48.60239,-2.16143,-0.03464986,0.88105
435.158,48.66088,-2.16475,-0.03480642,0.88062
435.758,48.7199,-2.1675,-0.03058201,0.88018
436.358,48.77887,-2.17028,-0.03224497,0.87975
436.958,48.83778,-2.1737,-0.0328602,0.87932
437.558,48.89678,-2.17698,-0.03156311,0.87888
438.158,48.9555,-2.18048,-0.0318236,0.87845
438.758,49.0142,-2.1833,-0.02912708,0.87801
439.358,49.07315,-2.18537,-0.0273646,0.87758
439.958,49.13198,-2.18822,-0.02615159,0.87714
440.558,49.19102,-2.19346,-0.02669094,0.87671
441.158,49.25008,-2.1966,-0.02572863,0.87627
441.758,49.30895,-2.20115,-0.02430097,0.87583
442.358,49.3675,-2.20444,-0.02465718,0.8754
442.958,49.42621,-2.20854,-0.02068198,0.87496
443.558,49.48491,-2.21285,-0.01777666,0.87452
444.158,49.54385,-2.21616,-0.01678882,0.87408
444.758,49.60282,-2.22088,-0.01190619,0.87364
445.358,49.66169,-2.22511,-0.01015386,0.8732
445.958,49.7206,-2.22859,-0.009160231,0.87276
446.558,49.77942,-2.23215,-0.004655178,0.87232
447.158,49.83828,-2.2372,-0.00382217,0.87188
447.758,49.8971,-2.24207,-0.0005618827,0.87144
448.358,49.95593,-2.24622,0.00349435,0.871
448.958,50.015,-2.25011,0.005508528,0.87056
449.558,50.07403,-2.25488,0.01052674,0.87012
450.158,50.13296,-2.26016,0.008930748,0.86967
450.758,50.19198,-2.26457,0.01330658,0.86923
451.358,50.2507,-2.26884,0.01615732,0.86879
451.958,50.3095,-2.27288,0.01749064,0.86834
452.558,50.3681,-2.27697,0.01928052,0.8679
453.158,50.42694,-2.28013,0.02240684,0.86746
453.758,50.48594,-2.2873,0.02576189,0.86701
454.358,50.54488,-2.29388,0.02856371,0.86656
454.958,50.60373,-2.297,0.02868204,0.86612
455.558,50.6627,-2.30187,0.03216151,0.86567
456.158,50.72145,-2.30594,0.03462075,0.86523
456.758,50.78042,-2.31009,0.03459604,0.86478
457.358,50.8395,-2.31492,0.03373369,0.86433
457.958,50.89835,-2.32052,0.0364246,0.86388
458.558,50.9576,-2.32595,0.03652447,0.86343
459.158,51.01663,-2.33061,0.03927318,0.86299
459.758,51.07566,-2.33406,0.04032688,0.86254
460.358,51.1346,-2.33938,0.04245896,0.86209
460.958,51.1933,-2.34213,0.04022691,0.86164
461.558,51.25223,-2.34692,0.04157774,0.86119
462.158,51.31113,-2.35122,0.04511786,0.86074
462.758,51.37043,-2.35535,0.04339913,0.86028
463.358,51.43,-2.35921,0.04280437,0.85983
463.958,51.4889,-2.36207,0.04303069,0.85938
464.558,51.54817,-2.36734,0.04505766,0.85893
465.158,51.60703,-2.37313,0.04229583,0.85848
465.758,51.66601,-2.37721,0.0446386,0.85802
466.358,51.72527,-2.38151,0.04246586,0.85757
466.958,51.78443,-2.38684,0.04432313,0.85712
467.558,51.8437,-2.39019,0.04435418,0.85666
468.158,51.90273,-2.39505,0.04335088,0.85621
468.758,51.9619,-2.40027,0.04293599,0.85575
469.358,52.02094,-2.404,0.04384595,0.8553
469.958,52.07985,-2.40802,0.04503767,0.85484
470.558,52.13879,-2.41267,0.04619234,0.85438
471.158,52.19795,-2.41589,0.04638569,0.85393
471.758,52.25714,-2.41948,0.04589723,0.85347
472.358,52.31637,-2.42336,0.04627607,0.85301
472.958,52.37552,-2.42751,0.04544136,0.85255
473.558,52.43435,-2.43113,0.0464669,0.85209
474.158,52.49335,-2.4353,0.04840188,0.85164
474.758,52.5525,-2.43986,0.04563156,0.85118
475.358,52.61175,-2.44213,0.04762235,0.85072
475.958,52.6709,-2.44543,0.0451654,0.85026
476.558,52.7301,-2.44998,0.04416474,0.8498
477.158,52.78934,-2.45311,0.04603067,0.84934
477.758,52.8487,-2.45616,0.04557903,0.84887
478.358,52.90811,-2.4587,0.04261896,0.84841
478.958,52.96751,-2.46032,0.04030655,0.84795
479.558,53.0264,-2.46405,0.0394591,0.84749
480.158,53.0856,-2.46627,0.03571201,0.84703
480.758,53.14461,-2.46954,0.0371374,0.84656
481.358,53.20395,-2.47293,0.0371224,0.8461
481.958,53.2633,-2.47573,0.03505874,0.84564
482.558,53.3225,-2.47802,0.03234173,0.84517
483.158,53.38175,-2.48109,0.03200924,0.84471
483.758,53.4412,-2.48406,0.03170285,0.84424
484.358,53.50048,-2.48648,0.03081424,0.84378
484.958,53.5597,-2.4899,0.02980194,0.84331
485.558,53.61889,-2.49295,0.02937659,0.84284
486.158,53.67787,-2.49447,0.02402562,0.84238
486.758,53.7372,-2.49668,0.02387932,0.84191
487.358,53.79626,-2.49718,0.02240727,0.84144
487.958,53.85552,-2.49924,0.02015325,0.84097
488.558,53.9147,-2.50265,0.01883691,0.84051
489.158,53.9738,-2.50705,0.01733335,0.84004
489.758,54.03318,-2.50722,0.01773136,0.83957
490.358,54.0922,-2.50868,0.01555661,0.8391
490.958,54.1513,-2.51,0.01313838,0.83863
491.558,54.21035,-2.51206,0.01218869,0.83816
492.158,54.2693,-2.51394,0.01166703,0.83769
492.758,54.3286,-2.51421,0.01171812,0.83722
493.358,54.38811,-2.51688,0.008549888,0.83675
493.958,54.44777,-2.51928,0.007620615,0.83627
494.558,54.50736,-2.52063,0.00749225,0.8358
495.158,54.56669,-2.52194,0.00672441,0.83533
495.758,54.62582,-2.52447,0.006066716,0.83486
496.358,54.68509,-2.5262,0.0009253469,0.83438
496.958,54.74445,-2.52731,0.00376963,0.83391
497.558,54.80372,-2.52862,0.0024197,0.83344
498.158,54.86296,-2.53018,0.00177432,0.83296
498.758,54.92201,-2.53205,0.001414637,0.83249
499.358,54.98109,-2.53179,-0.000690534,0.83201
499.958,55.04025,-2.53308,-0.000450745,0.83154
500.558,55.0998,-2.53314,-0.00160148,0.83106
501.158,55.1593,-2.53446,-1.111229e-05,0.83058
501.758,55.2185,-2.53478,-0.002562322,0.83011
502.358,55.2776,-2.53613,-0.0004525445,0.82963
502.958,55.3368,-2.53742,-0.002924445,0.82915
503.558,55.39606,-2.53872,-0.00346415,0.82867
504.158,55.45536,-2.54141,-0.004507041,0.8282
504.758,55.5145,-2.54271,-0.005095957,0.82772
505.358,55.5737,-2.5427,-0.004881252,0.82724
505.958,55.633,-2.54342,-0.004278185,0.82676
506.558,55.69235,-2.54416,-0.006451782,0.82628
507.158,55.7517,-2.54476,-0.00176315,0.8258
507.758,55.8111,-2.54533,-0.005310233,0.82532
508.358,55.8705,-2.54543,-0.00488317,0.82484
508.958,55.93005,-2.54797,-0.005721662,0.82436
509.558,55.98956,-2.54927,-0.005343957,0.82388
510.158,56.0491,-2.5506,-0.0009347114,0.82339
510.758,56.10847,-2.5506,-0.0005040351,0.82291
511.358,56.16806,-2.54932,0.0003048538,0.82243
511.958,56.2275,-2.5507,0.00154075,0.82195
512.558,56.28686,-2.55201,0.00324075,0.82146
513.158,56.34629,-2.55334,0.003773346,0.82098
513.758,56.4056,-2.55324,0.00868588,0.82049
514.358,56.46507,-2.55333,0.008017778,0.82001
514.958,56.52451,-2.55466,0.00993643,0.81952
515.558,56.58393,-2.55599,0.01366596,0.81904
516.158,56.64345,-2.55749,0.0123595,0.81855
516.758,56.7029,-2.55796,0.0126491,0.81807
517.358,56.7625,-2.55822,0.01700688,0.81758
517.958,56.822,-2.55796,0.01469015,0.81709
518.558,56.88142,-2.55927,0.01740582,0.81661
519.158,56.94087,-2.55928,0.01586384,0.81612
519.758,57.00039,-2.56059,0.01876737,0.81563
520.358,57.0597,-2.55929,0.0186035,0.81514
520.958,57.11929,-2.56191,0.02047673,0.81466
521.558,57.1785,-2.56283,0.0218408,0.81417
522.158,57.2381,-2.5619,0.01981303,0.81368
522.758,57.29767,-2.56187,0.02105943,0.81319
523.358,57.3569,-2.56456,0.02171971,0.8127
523.958,57.41655,-2.56454,0.02321501,0.81221
524.558,57.4762,-2.56586,0.02237347,0.81172
525.158,57.53618,-2.56586,0.02137028,0.81122
525.758,57.5959,-2.56579,0.02292625,0.81073
526.358,57.6556,-2.56652,0.0238735,0.81024
526.958,57.7149,-2.56717,0.0220417,0.80975
527.558,57.7745,-2.56716,0.02434396,0.80926
528.158,57.83445,-2.56849,0.02383024,0.80876
528.758,57.89416,-2.5688,0.02330385,0.80827
529.358,57.9541,-2.56849,0.02141903,0.80778
529.958,58.0137,-2.5699,0.02532236,0.80728
530.558,58.0733,-2.56981,0.02482706,0.80679
531.158,58.13299,-2.57,0.02273589,0.80629
531.758,58.1926,-2.57112,0.02251729,0.8058
532.358,58.25206,-2.57106,0.02277402,0.8053
532.958,58.3118,-2.57244,0.01946331,0.80481
533.558,58.3716,-2.5733,0.0217744,0.80431
534.158,58.4314,-2.57376,0.02098402,0.80382
534.758,58.49129,-2.57376,0.02123164,0.80332
535.358,58.55073,-2.57377,0.02148433,0.80282
535.958,58.61036,-2.57653,0.02452682,0.80232
536.558,58.67025,-2.57498,0.02194593,0.80183
537.158,58.73016,-2.57562,0.02258044,0.80133
537.758,58.78951,-2.5763,0.02085125,0.80083
538.358,58.8492,-2.57629,0.02084123,0.80033
538.958,58.90885,-2.5776,0.02231161,0.79983
539.558,58.9688,-2.57761,0.02134881,0.79933
540.158,59.0286,-2.57761,0.02152462,0.79883
540.758,59.08824,-2.57897,0.02239272,0.79833
541.358,59.14787,-2.57761,0.02147049,0.79783
541.958,59.2076,-2.57761,0.02277997,0.79733
542.558,59.26749,-2.57893,0.02284849,0.79683
543.158,59.32739,-2.58023,0.02085706,0.79633
543.758,59.38734,-2.58159,0.02291307,0.79582
544.358,59.44715,-2.58298,0.02280379,0.79532
544.958,59.50668,-2.58428,0.02388138,0.79482
545.558,59.5662,-2.58568,0.02425846,0.79432
546.158,59.62555,-2.58421,0.02271068,0.79381
546.758,59.68512,-2.58139,0.02210034,0.79331
547.358,59.7446,-2.58288,0.02066328,0.7928
547.958,59.80444,-2.58288,0.02253536,0.7923
548.558,59.8642,-2.58314,0.02255335,0.7918
549.158,59.92399,-2.58419,0.02331516,0.79129
549.758,59.9838,-2.58545,0.02479679,0.79079
550.358,60.0435,-2.58683,0.02400259,0.79028
550.958,60.10345,-2.58683,0.02595492,0.78977
551.558,60.16316,-2.58816,0.02905247,0.78927
552.158,60.22279,-2.5884,0.02985687,0.78876
552.758,60.28253,-2.58848,0.03055199,0.78825
553.358,60.34209,-2.58978,0.03344516,0.78775
553.958,60.40158,-2.59112,0.03221046,0.78724
554.558,60.46095,-2.59382,0.03476224,0.78673
555.158,60.52032,-2.59375,0.03622819,0.78622
555.758,60.57999,-2.59375,0.04100955,0.78571
556.358,60.63971,-2.59371,0.04303879,0.7852
556.958,60.69905,-2.59242,0.04396328,0.78469
557.558,60.75857,-2.59507,0.04637688,0.78418
558.158,60.81841,-2.59638,0.05024362,0.78367
558.758,60.87803,-2.59694,0.05235789,0.78316
559.358,60.9382,-2.59771,0.05481045,0.78265
559.958,60.99799,-2.59902,0.05425618,0.78214
560.558,61.05764,-2.60032,0.0566467,0.78163
561.158,61.1179,-2.59901,0.062656,0.78112
561.758,61.1777,-2.60033,0.06592953,0.78061
562.358,61.2377,-2.60168,0.06465465,0.78009
562.958,61.29764,-2.60165,0.06755052,0.77958
563.558,61.3572,-2.60296,0.07174619,0.77907
564.158,61.41704,-2.60428,0.07286571,0.77855
564.758,61.4764,-2.60559,0.07602725,0.77804
565.358,61.53624,-2.60602,0.07773156,0.77753
565.958,61.5962,-2.60694,0.0796266,0.77701
566.558,61.65631,-2.60823,0.08083992,0.7765
567.158,61.71643,-2.60822,0.08229365,0.77598
567.758,61.77636,-2.60823,0.0845353,0.77547
568.358,61.83614,-2.61062,0.08714871,0.77495
568.958,61.8958,-2.61198,0.08799369,0.77444
569.558,61.95555,-2.6135,0.08609146,0.77392
570.158,62.01531,-2.61548,0.0865949,0.7734
570.758,62.0754,-2.61549,0.08772596,0.77289
571.358,62.1354,-2.6168,0.08814901,0.77237
571.958,62.19551,-2.61819,0.08645716,0.77185
572.558,62.2553,-2.6195,0.08689826,0.77133
573.158,62.3152,-2.61943,0.0858454,0.77081
573.758,62.375,-2.62074,0.0841252,0.7703
574.358,62.43498,-2.62084,0.08347019,0.76978
574.958,62.49479,-2.62207,0.08054117,0.76926
575.558,62.55474,-2.62338,0.07603521,0.76874
576.158,62.61467,-2.6234,0.07401564,0.76822
576.758,62.67481,-2.62472,0.0715724,0.7677
577.358,62.7348,-2.6261,0.06668501,0.76718
577.958,62.79495,-2.62613,0.0628498,0.76666
578.558,62.85484,-2.62749,0.05743347,0.76614
579.158,62.91475,-2.62748,0.05266548,0.76562
579.758,62.9745,-2.63017,0.04993262,0.76509
580.358,63.03414,-2.63005,0.04533527,0.76457
580.958,63.0939,-2.63011,0.0397057,0.76405
581.558,63.15384,-2.6314,0.03352145,0.76353
582.158,63.21382,-2.63139,0.02775281,0.763
582.758,63.27389,-2.63274,0.02389276,0.76248
583.358,63.3336,-2.63493,0.01639403,0.76196
583.958,63.39366,-2.63535,0.01340495,0.76143
584.558,63.4536,-2.63667,0.00643168,0.76091
585.158,63.51351,-2.63535,0.003014953,0.76039
585.758,63.57336,-2.63668,0.0008659434,0.75986
586.358,63.63316,-2.63668,-0.004583114,0.75934
586.958,63.6931,-2.63633,-0.00780521,0.75881
587.558,63.75316,-2.63667,-0.01065614,0.75829
588.158,63.8132,-2.63767,-0.01144973,0.75776
588.758,63.873,-2.63898,-0.0133869,0.75723
589.358,63.9328,-2.63898,-0.01516069,0.75671
589.958,63.9926,-2.63899,-0.02029681,0.75618
590.558,64.05251,-2.6403,-0.02155655,0.75565
591.158,64.11237,-2.6403,-0.02312929,0.75513
591.758,64.1724,-2.64161,-0.0246458,0.7546
592.358,64.23241,-2.64161,-0.02548107,0.75407
592.958,64.29234,-2.64098,-0.02573462,0.75354
593.558,64.3523,-2.64227,-0.02694593,0.75301
594.158,64.41218,-2.64227,-0.02977938,0.75249
594.758,64.47221,-2.64221,-0.02974558,0.75196
595.358,64.53214,-2.64293,-0.03046912,0.75143
595.958,64.59229,-2.64293,-0.0315221,0.7509
596.558,64.65199,-2.6443,-0.03107767,0.75037
597.158,64.7119,-2.6442,-0.02934825,0.74984
597.758,64.77164,-2.64558,-0.0321389,0.74931
598.358,64.83142,-2.64773,-0.03364673,0.74878
598.958,64.8916,-2.6482,-0.03063288,0.74824
599.558,64.95138,-2.64754,-0.03094569,0.74771
600.158,65.01108,-2.64754,-0.03101635,0.74718
600.758,65.0709,-2.64885,-0.03182053,0.74665
601.358,65.13084,-2.64886,-0.0336823,0.74612
601.958,65.19072,-2.64819,-0.02807633,0.74558
602.558,65.25063,-2.64951,-0.02854064,0.74505
603.158,65.31055,-2.64952,-0.02971957,0.74452
603.758,65.37055,-2.64818,-0.02849649,0.74399
604.358,65.4306,-2.65113,-0.02711918,0.74345
604.958,65.49046,-2.65105,-0.02278436,0.74292
605.558,65.5504,-2.65105,-0.02489573,0.74238
606.158,65.61023,-2.65103,-0.02371017,0.74185
606.758,65.67028,-2.65105,-0.02518743,0.74131
607.358,65.7302,-2.65106,-0.02268728,0.74078
607.958,65.79026,-2.65237,-0.02148533,0.74024
608.558,65.85031,-2.65237,-0.02158582,0.73971
609.158,65.9104,-2.65411,-0.01870834,0.73917
609.758,65.9706,-2.65467,-0.02029631,0.73864
610.358,66.03066,-2.65332,-0.017565,0.7381
610.958,66.0908,-2.65336,-0.01539628,0.73756
611.558,66.15086,-2.65467,-0.01311002,0.73703
612.158,66.2111,-2.65467,-0.01113685,0.73649
612.758,66.27091,-2.65455,-0.01045189,0.73595
613.358,66.3306,-2.65467,-0.01145789,0.73541
613.958,66.39067,-2.65467,-0.009184309,0.73488
614.558,66.4508,-2.65465,-0.006344273,0.73434
615.158,66.51145,-2.65599,-0.0075951,0.7338
615.758,66.5718,-2.65599,-0.005469764,0.73326
616.358,66.63207,-2.65599,-0.003803654,0.73272
616.958,66.69235,-2.65731,-0.001194618,0.73218
617.558,66.75256,-2.6573,-0.00115091,0.73164
618.158,66.81268,-2.65896,-0.000240655,0.7311
618.758,66.87298,-2.65961,0.00236498,0.73056
619.358,66.93324,-2.65961,0.004063769,0.73002
619.958,66.99371,-2.66094,0.00418256,0.72948
620.558,67.05386,-2.65963,0.00764063,0.72894
621.158,67.11409,-2.65962,0.01142236,0.7284
621.758,67.17424,-2.66092,0.01243754,0.72786
622.358,67.23439,-2.66224,0.01436915,0.72731
622.958,67.29494,-2.66225,0.01656439,0.72677
623.558,67.35525,-2.66225,0.01946092,0.72623
624.158,67.41529,-2.66322,0.0210247,0.72569
624.758,67.47527,-2.6636,0.02509954,0.72515
625.358,67.53538,-2.6634,0.02453789,0.7246
625.958,67.59544,-2.66554,0.02741212,0.72406
626.558,67.65597,-2.66671,0.03252782,0.72352
627.158,67.71616,-2.66686,0.03459695,0.72297
627.758,67.77643,-2.66686,0.03636326,0.72243
628.358,67.8367,-2.66816,0.03685449,0.72188
628.958,67.89689,-2.66948,0.03841594,0.72134
629.558,67.9572,-2.66817,0.04125966,0.72079
630.158,68.01759,-2.66686,0.04119692,0.72025
630.758,68.07776,-2.66818,0.04502272,0.7197
631.358,68.13838,-2.66819,0.04635309,0.71916
631.958,68.19876,-2.6695,0.0498046,0.71861
632.558,68.25899,-2.6695,0.05363663,0.71807
633.158,68.3193,-2.67081,0.05638604,0.71752
633.758,68.3796,-2.67313,0.05913331,0.71697
634.358,68.44001,-2.67312,0.06217685,0.71643
634.958,68.50031,-2.67355,0.06401071,0.71588
635.558,68.5607,-2.67445,0.06729135,0.71533
636.158,68.621,-2.67464,0.0709901,0.71479
636.758,68.68133,-2.67557,0.07383824,0.71424
637.358,68.74165,-2.67586,0.07520076,0.71369
637.958,68.80215,-2.67707,0.08317896,0.71314
638.558,68.8626,-2.67736,0.08574995,0.71259
639.158,68.923,-2.67832,0.08922349,0.71204
639.758,68.9833,-2.67972,0.09282426,0.7115
640.358,69.0435,-2.68102,0.0974094,0.71095
640.958,69.10374,-2.68102,0.10133,0.7104
641.558,69.16421,-2.68101,0.10802,0.70985
642.158,69.2247,-2.68145,0.11115,0.7093
642.758,69.28522,-2.68163,0.1136,0.70875
643.358,69.3454,-2.68432,0.12107,0.7082
643.958,69.40584,-2.68566,0.12843,0.70765
644.558,69.46605,-2.68566,0.12867,0.7071
645.158,69.5261,-2.68695,0.13413,0.70654
645.758,69.5862,-2.68695,0.14248,0.70599
646.358,69.64624,-2.68813,0.14857,0.70544
646.958,69.70647,-2.68821,0.15221,0.70489
647.558,69.76708,-2.69089,0.15832,0.70434
648.158,69.8275,-2.69222,0.16351,0.70379
648.758,69.8878,-2.69216,0.17089,0.70323
649.358,69.94807,-2.69555,0.17669,0.70268
649.958,70.0081,-2.69632,0.18318,0.70213
650.558,70.06843,-2.6963,0.18858,0.70158
651.158,70.1287,-2.69694,0.19516,0.70102
651.758,70.18916,-2.69826,0.20497,0.70047
652.358,70.24942,-2.69891,0.20896,0.69992
652.958,70.30973,-2.70022,0.21713,0.69936
653.558,70.36991,-2.70155,0.2251,0.69881
654.158,70.43009,-2.70294,0.23289,0.69825
654.758,70.49055,-2.70286,0.24197,0.6977
655.358,70.55071,-2.70427,0.24749,0.69714
655.958,70.6112,-2.70561,0.25525,0.69659
656.558,70.67165,-2.70825,0.26314,0.69603
657.158,70.73196,-2.70978,0.26962,0.69548
657.758,70.79241,-2.71165,0.27444,0.69492
658.358,70.8526,-2.71367,0.2865,0.69437
658.958,70.91284,-2.71503,0.29035,0.69381
659.558,70.97315,-2.71504,0.30059,0.69325
660.158,71.0334,-2.71625,0.30767,0.6927
660.758,71.0938,-2.71627,0.31406,0.69214
661.358,71.1542,-2.71886,0.32364,0.69158
661.958,71.2145,-2.72177,0.33141,0.69103
662.558,71.27502,-2.72302,0.34112,0.69047
663.158,71.3355,-2.72591,0.34703,0.68991
663.758,71.39586,-2.72777,0.35592,0.68935
664.358,71.45617,-2.72992,0.36407,0.6888
664.958,71.51643,-2.73152,0.37299,0.68824
665.558,71.57686,-2.73298,0.37937,0.68768
666.158,71.63736,-2.73389,0.38597,0.68712
666.758,71.69794,-2.73689,0.39177,0.68656
667.358,71.7581,-2.73861,0.40408,0.686
667.958,71.8184,-2.73925,0.40703,0.68544
668.558,71.87895,-2.74227,0.41363,0.68489
669.158,71.9397,-2.74505,0.42307,0.68433
669.758,72.00072,-2.74667,0.42638,0.68377
670.358,72.06101,-2.74921,0.43101,0.68321
670.958,72.12131,-2.75137,0.43923,0.68265
671.558,72.1816,-2.75468,0.43953,0.68209
672.158,72.24212,-2.75787,0.44438,0.68152
672.758,72.3027,-2.75792,0.44542,0.68096
673.358,72.36331,-2.76071,0.4491,0.6804
673.958,72.4239,-2.76393,0.44815,0.67984
674.558,72.48444,-2.7653,0.44216,0.67928
675.158,72.545,-2.76821,0.44198,0.67872
675.758,72.60553,-2.76935,0.43689,0.67816
676.358,72.6661,-2.77222,0.42973,0.6776
676.958,72.72625,-2.77492,0.42018,0.67703
677.558,72.78656,-2.77681,0.40654,0.67647
678.158,72.84696,-2.77799,0.39056,0.67591
678.758,72.90746,-2.78073,0.37374,0.67535
679.358,72.96797,-2.78225,0.35184,0.67478
679.958,73.02842,-2.78478,0.32874,0.67422
680.558,73.08888,-2.78577,0.30147,0.67366
681.158,73.14915,-2.78641,0.27369,0.67309
681.758,73.20925,-2.78905,0.2448,0.67253
682.358,73.26938,-2.79036,0.21126,0.67197
682.958,73.32967,-2.79168,0.17728,0.6714
683.558,73.39019,-2.79304,0.14752,0.67084
684.158,73.4507,-2.79442,0.1113,0.67028
684.758,73.5112,-2.79564,0.08004012,0.66971
685.358,73.57151,-2.79713,0.0452182,0.66915
685.958,73.6317,-2.79827,0.01882371,0.66858
686.558,73.69166,-2.79958,-0.00441983,0.66802
687.158,73.75169,-2.79958,-0.03192496,0.66745
687.758,73.81188,-2.80093,-0.04952761,0.66689
688.358,73.87219,-2.80057,-0.07136095,0.66632
688.958,73.93259,-2.80189,-0.08645199,0.66576
689.558,73.99294,-2.80304,-0.09816644,0.66519
690.158,74.0534,-2.8019,-0.11259,0.66462
690.758,74.11392,-2.8019,-0.12287,0.66406
691.358,74.17424,-2.80286,-0.1306,0.66349
691.958,74.2346,-2.80379,-0.14025,0.66293
692.558,74.29516,-2.8042,-0.14589,0.66236
693.158,74.35568,-2.80418,-0.15039,0.66179
693.758,74.41639,-2.8042,-0.15556,0.66123
694.358,74.47685,-2.80467,-0.1603,0.66066
694.958,74.53741,-2.80552,-0.16385,0.66009
695.558,74.5979,-2.80552,-0.16702,0.65952
696.158,74.65841,-2.80684,-0.16963,0.65896
696.758,74.71875,-2.80552,-0.17092,0.65839
697.358,74.77933,-2.80552,-0.17194,0.65782
697.958,74.83994,-2.80753,-0.17552,0.65725
698.558,74.9007,-2.80747,-0.17838,0.65668
699.158,74.961,-2.80881,-0.18126,0.65612
699.458,74.99122,-2.80741,-0.18183,0.65583